consent.started,consent.stopped,consentResponse.keys,consentResponse.rt,consentResponse.duration,participantID,date,expName,psychopyVersion,OS,frameRate,STUDY_ID,SESSION_ID,opening1.started,opening1.stopped,keyEndingOpening1.keys,keyEndingOpening1.rt,keyEndingOpening1.duration,volumeAdjust.started,volumeAdjust.stopped,endingAdjust.keys,endingAdjust.rt,endingAdjust.duration,opening2.started,opening2.stopped,keyEndingOpening.keys,keyEndingOpening.rt,keyEndingOpening.duration,mouse.x,mouse.y,mouse.leftButton,mouse.midButton,mouse.rightButton,mouse.time,instructionLoop.thisRepN,instructionLoop.thisTrialN,instructionLoop.thisN,instructionLoop.thisIndex,instructionLoop.ran,readyForAudio.started,readyForAudio.stopped,fixation.started,run,audio_played,fixation.stopped,endPractice.keys,audioPre.started,audioPre.stopped,continuousResponses_audio,intRating.started,intRating.stopped,intQuestionSlider.response,intQuestionSlider.rt,intQuestionSlider.history,confirmResponse.keys,confirmResponse.rt,confirmResponse.duration,catchQuestion.started,catch_label,catch_value,catchQuestion.stopped,catchQuestionSlider.response,catchQuestionSlider.rt,catchQuestionSlider.history,confirmResponse_2.keys,audioRunLoop.thisRepN,audioRunLoop.thisTrialN,audioRunLoop.thisN,audioRunLoop.thisIndex,audioRunLoop.ran,conditions1_1,conditions2_1,conditions1_2,conditions2_2,dur1_1,dur2_1,dur1_2,dur2_2,endPractice.rt,endPractice.duration,confirmResponse_2.rt,confirmResponse_2.duration,runIntervalBreak.started,runIntervalBreak.stopped,endingBreakKey.keys,endingBreakKey.rt,endingBreakKey.duration,connection.started,connection.stopped,connectionEnding.keys,connectionEnding.rt,connectionEnding.duration,readyForText.started,readyForText.stopped,textPre.started,run_dup,textPre.stopped,continuousResponses_text,textRunLoop.thisRepN,textRunLoop.thisTrialN,textRunLoop.thisN,textRunLoop.thisIndex,textRunLoop.ran,text1_1,text1_2,text2_1,text2_2,runBreakText.started,runBreakText.stopped,endingBreakKey_2.keys,endingBreakKey_2.rt,endingBreakKey_2.duration,ending.started,ending.stopped,endingEnding.keys,endingEnding.rt,endingEnding.duration
0.0003,14.1644,y,13.853,,66231fc6e1ecba676935943a,2025-07-07_21h54.52.370,group3.4_multiperson,2023.2.2,Win32,100,686c2ebf0248f13bef9af11f,686c96726b35da046c5f6f4a,,,,,,,,,,,,,,,,,,,,,,,,,,,,,,,,,,,,,,,,,,,,,,,,,,,,,,,,,,,,,,,,,,,,,,,,,,,,,,,,,,,,,,,,,,,,,,,,,,,,,,,,
,,,,,66231fc6e1ecba676935943a,2025-07-07_21h54.52.370,group3.4_multiperson,2023.2.2,Win32,100,686c2ebf0248f13bef9af11f,686c96726b35da046c5f6f4a,14.1646,18.1843,space,4.0005,,,,,,,,,,,,,,,,,,,,,,,,,,,,,,,,,,,,,,,,,,,,,,,,,,,,,,,,,,,,,,,,,,,,,,,,,,,,,,,,,,,,,,,,,,,,,,,,,,,,
,,,,,66231fc6e1ecba676935943a,2025-07-07_21h54.52.370,group3.4_multiperson,2023.2.2,Win32,100,686c2ebf0248f13bef9af11f,686c96726b35da046c5f6f4a,,,,,,18.1844,58.3937,space,39.8897,,,,,,,,,,,,,,,,,,,,,,,,,,,,,,,,,,,,,,,,,,,,,,,,,,,,,,,,,,,,,,,,,,,,,,,,,,,,,,,,,,,,,,,,,,,,,,,
,,,,,66231fc6e1ecba676935943a,2025-07-07_21h54.52.370,group3.4_multiperson,2023.2.2,Win32,100,686c2ebf0248f13bef9af11f,686c96726b35da046c5f6f4a,,,,,,,,,,,58.3971,69.6833,space,11.2732,,[],[],[],[],[],[],0,0,0,0,1,,,,,,,,,,,,,,,,,,,,,,,,,,,,,,,,,,,,,,,,,,,,,,,,,,,,,,,,,,,,,,,,,,,,,,,,,,,,,,
,,,,,66231fc6e1ecba676935943a,2025-07-07_21h54.52.370,group3.4_multiperson,2023.2.2,Win32,100,686c2ebf0248f13bef9af11f,686c96726b35da046c5f6f4a,,,,,,,,,,,69.6835,86.6626,space,16.9072,,[],[],[],[],[],[],1,0,1,0,1,,,,,,,,,,,,,,,,,,,,,,,,,,,,,,,,,,,,,,,,,,,,,,,,,,,,,,,,,,,,,,,,,,,,,,,,,,,,,,
,,,,,66231fc6e1ecba676935943a,2025-07-07_21h54.52.370,group3.4_multiperson,2023.2.2,Win32,100,686c2ebf0248f13bef9af11f,686c96726b35da046c5f6f4a,,,,,,,,,,,86.6629,96.5825,space,9.8906,,[],[],[],[],[],[],2,0,2,0,1,,,,,,,,,,,,,,,,,,,,,,,,,,,,,,,,,,,,,,,,,,,,,,,,,,,,,,,,,,,,,,,,,,,,,,,,,,,,,,
,,,,,66231fc6e1ecba676935943a,2025-07-07_21h54.52.370,group3.4_multiperson,2023.2.2,Win32,100,686c2ebf0248f13bef9af11f,686c96726b35da046c5f6f4a,,,,,,,,,,,96.5828,113.062,space,16.4586,,[],[],[],[],[],[],3,0,3,0,1,,,,,,,,,,,,,,,,,,,,,,,,,,,,,,,,,,,,,,,,,,,,,,,,,,,,,,,,,,,,,,,,,,,,,,,,,,,,,,
,,,,,66231fc6e1ecba676935943a,2025-07-07_21h54.52.370,group3.4_multiperson,2023.2.2,Win32,100,686c2ebf0248f13bef9af11f,686c96726b35da046c5f6f4a,,,,,,,,,,,113.0622,122.2319,space,9.1519,,[],[],[],[],[],[],4,0,4,0,1,,,,,,,,,,,,,,,,,,,,,,,,,,,,,,,,,,,,,,,,,,,,,,,,,,,,,,,,,,,,,,,,,,,,,,,,,,,,,,
,,,,,66231fc6e1ecba676935943a,2025-07-07_21h54.52.370,group3.4_multiperson,2023.2.2,Win32,100,686c2ebf0248f13bef9af11f,686c96726b35da046c5f6f4a,,,,,,,,,,,122.2322,132.0717,space,9.822,,[],[],[],[],[],[],5,0,5,0,1,,,,,,,,,,,,,,,,,,,,,,,,,,,,,,,,,,,,,,,,,,,,,,,,,,,,,,,,,,,,,,,,,,,,,,,,,,,,,,
,,,,,66231fc6e1ecba676935943a,2025-07-07_21h54.52.370,group3.4_multiperson,2023.2.2,Win32,100,686c2ebf0248f13bef9af11f,686c96726b35da046c5f6f4a,,,,,,,,,,,,,,,,,,,,,,,,,,,132.0731,134.6519,134.6655,1,audio/Narrative13Situation2.wav,136.6717,,136.6719,166.4212,"[[999,0],[999,79],[999,159],[999,239],[999,319],[999,399],[999,483],[999,559],[999,642],[999,719],[999,799],[999,882],[49.2,959],[49.2,1039],[49.2,1119],[49.2,1202],[50.1,1282],[50.1,1359],[50.1,1439],[50.1,1522],[50.1,1602],[50.1,1679],[50.1,1759],[50.1,1839],[50.1,1919],[50.1,2002],[50.1,2079],[50.1,2159],[50.1,2239],[50.1,2319],[50.1,2399],[50.1,2479],[50.1,2559],[50.1,2644],[50.1,2724],[50.1,2799],[52.6,2884],[52.9,2959],[52.9,3039],[52.9,3119],[52.9,3199],[52.9,3279],[52.9,3359],[52.9,3439],[52.9,3519],[52.9,3602],[52.9,3679],[52.9,3759],[52.9,3839],[52.9,3919],[52.9,3999],[52.9,4082],[52.9,4159],[52.9,4239],[52,4319],[51.7,4399],[51.7,4479],[51.7,4559],[51.7,4639],[56.6,4722],[59.8,4799],[59.8,4879],[59.8,4959],[59.8,5044],[59.8,5119],[59.8,5199],[60.4,5279],[61.5,5364],[61.7,5439],[62.8,5522],[63.4,5602],[64.1,5682],[64.1,5759],[64.1,5842],[64.1,5919],[66.1,6000],[67.2,6079],[69.8,6161],[72.6,6241],[74.2,6319],[74.2,6399],[74.2,6479],[75,6559],[75,6639],[75,6719],[76,6799],[76.5,6879],[78,6960],[78.9,7039],[80.2,7119],[80.5,7199],[80.9,7279],[81.3,7364],[82.6,7439],[83.1,7519],[83.1,7603],[83.1,7684],[83.9,7770],[83.9,7850],[83.9,7929],[84.4,8014],[85.1,8099],[85.4,8179],[85.6,8259],[86.9,8339],[87.7,8419],[88,8499],[88.4,8582],[88.5,8659],[88.5,8739],[89.5,8819],[90.5,8900],[91.4,8981],[91.5,9059],[92.7,9139],[93.8,9219],[94.6,9302],[95.1,9380],[96.4,9459],[96.7,9539],[96.7,9619],[96.7,9699],[97.2,9782],[97.6,9859],[97.9,9942],[98.4,10019],[98.4,10102],[99.8,10179],[100,10259],[100,10339],[100,10419],[100,10499],[100,10579],[100,10659],[100,10739],[100,10819],[100,10899],[100,10979],[100,11062],[100,11139],[100,11219],[100,11299],[100,11379],[100,11459],[100,11539],[100,11619],[100,11699],[100,11779],[100,11859],[100,11939],[100,12019],[100,12099],[100,12182],[100,12259],[100,12339],[100,12419],[100,12499],[100,12579],[100,12659],[100,12739],[100,12819],[100,12903],[100,12995],[100,13071],[100,13149],[100,13229],[100,13313],[100,13389],[100,13469],[100,13549],[100,13633],[100,13709],[100,13789],[100,13870],[100,13949],[100,14033],[100,14109],[100,14189],[100,14269],[100,14349],[100,14429],[100,14509],[100,14589],[100,14669],[100,14749],[100,14829],[100,14909],[100,14989],[100,15069],[100,15149],[100,15229],[100,15309],[100,15389],[100,15471],[100,15549],[100,15629],[100,15709],[100,15790],[100,15869],[100,15949],[100,16029],[100,16109],[100,16189],[100,16269],[100,16349],[100,16429],[100,16509],[100,16589],[100,16669],[100,16749],[100,16829],[100,16909],[100,16989],[100,17069],[100,17149],[100,17229],[100,17309],[100,17389],[100,17469],[100,17551],[100,17629],[100,17709],[100,17789],[100,17869],[100,17949],[100,18029],[100,18109],[100,18189],[100,18269],[100,18349],[100,18429],[100,18508],[100,18589],[100,18669],[100,18749],[100,18829],[100,18909],[100,18989],[100,19069],[100,19149],[100,19229],[100,19309],[100,19389],[100,19469],[100,19549],[100,19629],[100,19709],[100,19789],[100,19873],[100,19949],[100,20029],[100,20109],[100,20188],[100,20271],[100,20349],[100,20429],[100,20508],[100,20589],[100,20669],[100,20749],[100,20829],[100,20908],[100,20989],[100,21069],[100,21150],[100,21228],[100,21309],[100,21392],[100,21471],[100,21549],[100,21629],[100,21709],[100,21789],[100,21873],[100,21949],[100,22029],[100,22109],[100,22188],[100,22269],[100,22349],[100,22429],[100,22509],[100,22589],[100,22669],[100,22748],[100,22828],[100,22909],[100,22989],[100,23069],[100,23149],[100,23229],[100,23309],[100,23389],[100,23468],[100,23549],[100,23628],[100,23711],[100,23791],[100,23868],[100,23949],[100,24028],[100,24109],[100,24188],[100,24269],[100,24348],[100,24429],[100,24508],[100,24591],[100,24668],[100,24749],[100,24829],[100,24908],[100,24989],[100,25073],[100,25149],[100,25229],[100,25308],[100,25388],[100,25468],[100,25554],[100,25638],[100,25723],[100,25803],[100,25878],[100,25958],[100,26038],[100,26119],[100,26199],[100,26278],[100,26359],[100,26438],[100,26518],[100,26598],[100,26679],[100,26759],[100,26838],[100,26919],[100,26998],[100,27079],[100,27159],[100,27239],[100,27318],[100,27398],[100,27478],[100,27558],[100,27639],[100,27718],[100,27799],[100,27878],[100,27958],[100,28043],[100,28119],[100,28198],[100,28279],[100,28358],[100,28438],[100,28518],[100,28598],[100,28678],[100,28758],[100,28841],[100,28918],[100,28998],[100,29079],[100,29158],[100,29239],[100,29319],[100,29399],[100,29478],[100,29558],[100,29641],[100,29718]]",166.4214,175.3107,99.58333969,6.9244,"[{""rating"":99.58333969116211,""responseTime"":6.924399999976174}]",space,8.3628,,175.3108,Partially,50,175.3133,,,[],,0,0,0,0,1,audio/Narrative13Situation2.wav,audio/Narrative13Situation2.wav,audio/Narrative13Situation2.wav,audio/Narrative13Situation2.wav,2,2,2,2,,,,,,,,,,,,,,,,,,,,,,,,,,,,,,,,,,,,,,,
,,,,,66231fc6e1ecba676935943a,2025-07-07_21h54.52.370,group3.4_multiperson,2023.2.2,Win32,100,686c2ebf0248f13bef9af11f,686c96726b35da046c5f6f4a,,,,,,,,,,,,,,,,,,,,,,,,,,,,,175.3134,1,audio/Narrative8Situation1.wav,177.4807,space,177.4807,193.4005,"[[999,1],[999,79],[999,159],[999,239],[999,319],[999,399],[999,479],[999,559],[999,639],[999,719],[999,799],[999,879],[999,961],[999,1039],[999,1125],[999,1205],[999,1279],[999,1365],[43.6,1445],[64.9,1612],[50.3,2652],[49.8,2729],[49.8,2809],[49.8,2889],[49.8,2969],[49.8,3049],[49.8,3142],[49.8,3219],[49.8,3299],[49.8,3379],[49.8,3459],[49.8,3539],[49.8,3620],[49.8,3699],[49.8,3779],[49.8,3859],[49.8,3939],[49.8,4019],[49.8,4099],[49.8,4179],[49.8,4264],[49.8,4339],[49.8,4419],[49.8,4502],[49.8,4579],[49.8,4659],[49.8,4739],[49.8,4819],[49.8,4899],[49.8,4979],[49.8,5059],[49.8,5142],[49.8,5219],[49.8,5299],[49.8,5379],[49.8,5459],[49.8,5539],[49.8,5622],[49.8,5699],[49.8,5779],[49.8,5859],[49.8,5939],[49.8,6019],[49.8,6099],[49.8,6179],[49.8,6259],[49.8,6339],[49.8,6419],[50.5,6504],[51.3,6579],[51.3,6659],[51.3,6744],[51.3,6819],[51.3,6899],[51.6,6979],[52,7062],[52,7142],[52,7229],[52,7309],[52,7389],[52,7469],[52,7549],[52,7632],[52,7709],[52,7789],[52.3,7870],[52.5,7949],[52.6,8029],[52.6,8109],[52.7,8192],[52.8,8272],[52.9,8349],[53,8429],[53,8509],[54.7,8589],[55.7,8671],[57.3,8752],[60.3,8833],[61.9,8909],[64.8,9002],[67.1,9070],[74,9149],[85.6,9229],[90.1,9312],[94.1,9389],[98.2,9469],[100,9549],[100,9629],[100,9709],[100,9789],[100,9869],[100,9951],[100,10029],[100,10109],[100,10189],[100,10269],[100,10349],[100,10429],[100,10509],[100,10589],[100,10669],[100,10749],[100,10829],[100,10909],[100,10989],[100,11069],[100,11149],[100,11229],[100,11309],[100,11389],[100,11469],[100,11549],[100,11629],[100,11709],[100,11789],[100,11869],[100,11949],[100,12030],[100,12109],[100,12189],[100,12269],[100,12349],[100,12430],[100,12509],[100,12589],[100,12669],[100,12749],[100,12830],[100,12909],[100,12989],[100,13069],[100,13149],[100,13230],[100,13309],[100,13389],[100,13469],[100,13549],[100,13630],[100,13709],[100,13789],[100,13869],[100,13949],[100,14029],[100,14110],[100,14189],[100,14269],[100,14349],[100,14429],[100,14510],[100,14589],[100,14669],[100,14749],[100,14829],[100,14909],[100,14989],[100,15069],[100,15149],[100,15229],[100,15309],[100,15389],[100,15470],[100,15549],[100,15629],[100,15709],[100,15789],[100,15869]]",193.4007,201.1002,99.37500954,2.114,"[{""rating"":99.37500953674316,""responseTime"":2.1140000000000043}]",space,7.1858,,201.1003,Definitely yes,100,201.1018,,,[],,0,1,1,1,1,audio/Narrative7Situation1.wav,audio/Narrative8Situation1.wav,audio/Narrative5Situation1.wav,audio/Narrative6Situation1.wav,2,5,5,2,2.1512,,,,,,,,,,,,,,,,,,,,,,,,,,,,,,,,,,,,,,
,,,,,66231fc6e1ecba676935943a,2025-07-07_21h54.52.370,group3.4_multiperson,2023.2.2,Win32,100,686c2ebf0248f13bef9af11f,686c96726b35da046c5f6f4a,,,,,,,,,,,,,,,,,,,,,,,,,,,,,201.1019,1,audio/Narrative8Situation2.wav,204.1102,,204.1102,214.2201,"[[999,0],[999,79],[999,159],[999,239],[999,319],[999,399],[999,479],[999,560],[999,641],[999,720],[999,800],[999,880],[999,960],[999,1040],[999,1120],[999,1199],[60.7,1279],[60.2,1360],[60.2,1439],[60.2,1519],[58.6,1599],[54.6,1680],[52.3,1763],[51.7,1839],[50.9,1927],[50.9,2004],[50.9,2084],[50.9,2164],[49.4,2254],[44.4,2339],[42.1,2424],[40.5,2499],[38.1,2585],[35.6,2665],[34.5,2739],[32.9,2824],[32.1,2899],[31,2979],[30.9,3059],[30.8,3139],[29.8,3222],[27.3,3300],[26.5,3379],[26.4,3459],[26.4,3543],[26.4,3619],[24.7,3700],[23.2,3780],[22.8,3859],[22,3939],[20.4,4021],[19.2,4102],[18.5,4180],[18.5,4262],[24.2,4342],[28,4422],[31.5,4503],[38,4582],[40.9,4659],[44.3,4739],[49.5,4825],[52.5,4906],[52.5,4979],[52.5,5059],[52.5,5139],[50.3,5225],[50,5299],[50,5379],[50,5459],[50,5539],[50,5619],[44.2,5702],[43,5779],[40.7,5863],[38.1,5943],[35.5,6020],[34.5,6099],[34,6179],[34,6259],[32.4,6339],[31.1,6419],[29.6,6502],[28,6582],[26.8,6662],[25.6,6739],[24.6,6820],[24.4,6899],[24.4,6979],[23.5,7063],[22.7,7140],[21.8,7219],[20.1,7305],[18.4,7379],[16.8,7464],[15.5,7545],[14.4,7627],[14.3,7699],[14.3,7793],[14.3,7869],[14.3,7949],[14.3,8029],[14.3,8124],[14.3,8199],[14.3,8279],[14,8359],[11.4,8444],[10,8521],[8.2,8602],[7,8679],[5.8,8759],[5.2,8842],[5.1,8919],[4.8,9003],[4.5,9079],[4.3,9162],[2.8,9243],[1.9,9319],[0.4,9402]]",214.2201,221.4208,49.68750477,4.0357,"[{""rating"":49.68750476837158,""responseTime"":4.035700000017897}]",space,6.6602,,221.4209,Partially,50,221.4229,,,[],,0,2,2,2,1,audio/Narrative7Situation2.wav,audio/Narrative8Situation2.wav,audio/Narrative5Situation2.wav,audio/Narrative6Situation2.wav,3,3,3,3,,,,,,,,,,,,,,,,,,,,,,,,,,,,,,,,,,,,,,,
,,,,,66231fc6e1ecba676935943a,2025-07-07_21h54.52.370,group3.4_multiperson,2023.2.2,Win32,100,686c2ebf0248f13bef9af11f,686c96726b35da046c5f6f4a,,,,,,,,,,,,,,,,,,,,,,,,,,,,,221.4231,1,audio/Narrative8Situation3.wav,225.4246,,225.4246,247.7895,"[[48.9,807],[49,884],[49,966],[49,1044],[49,1125],[50,1207],[53.6,1287],[46.6,2168],[49.3,2244],[52.4,2485],[49.2,2570],[44.4,2650],[43.2,2730],[41.5,2804],[40.5,2884],[40.5,2964],[40.5,3044],[40.5,3134],[47.2,3220],[53.5,3299],[53.5,3375],[53.5,3454],[47.7,3538],[37.8,3617],[23.1,3698],[18.9,3774],[18.9,3854],[13.4,3938],[14.1,4014],[31.5,4175],[36.3,4255],[44.5,4335],[45.3,4414],[45.3,4494],[50.2,4574],[50.2,4654],[50.2,4734],[50.2,4814],[50.3,4894],[50.4,4975],[57.5,5055],[60.6,5134],[60.6,5215],[60.6,5294],[62.8,5375],[62.9,5454],[62.9,5534],[62.9,5614],[64.5,5694],[67.2,5774],[67.6,5854],[67.7,5935],[71.4,6014],[71.6,6094],[71.6,6175],[72.7,6254],[73.8,6335],[74.3,6414],[75.5,6495],[78.3,6574],[80.5,6655],[82.3,6734],[82.7,6814],[82.8,6898],[82.8,6974],[82.8,7055],[82.8,7134],[82.8,7214],[82.8,7294],[82.8,7374],[82.8,7454],[82.8,7534],[82.8,7614],[82.8,7694],[82.8,7774],[82.8,7854],[82.8,7935],[82.8,8014],[82.8,8094],[82.8,8174],[82.8,8254],[82.8,8334],[82.8,8414],[82.8,8494],[82.8,8574],[82.8,8654],[82.8,8734],[82.8,8814],[82.8,8894],[82.8,8975],[82.8,9054],[82.8,9134],[82.8,9214],[86.3,9294],[90.1,9374],[92.9,9455],[95.8,9534],[96.6,9614],[96.6,9694],[97.2,9774],[100,9854],[100,9935],[100,10014],[100,10094],[100,10174],[100,10254],[100,10334],[100,10414],[100,10494],[100,10574],[100,10654],[100,10734],[100,10814],[100,10894],[100,10974],[100,11064],[100,11144],[100,11224],[100,11304],[100,11384],[100,11464],[100,11544],[100,11624],[100,11704],[100,11788],[100,11864],[100,11944],[100,12024],[100,12104],[100,12184],[100,12264],[100,12344],[100,12424],[100,12504],[100,12584],[100,12664],[100,12744],[100,12824],[100,12904],[100,12984],[100,13064],[100,13144],[100,13224],[100,13304],[100,13384],[100,13464],[100,13544],[100,13624],[100,13704],[100,13784],[100,13864],[100,13944],[100,14024],[100,14104],[100,14184],[100,14264],[100,14344],[100,14424],[100,14504],[100,14584],[100,14664],[100,14744],[100,14824],[100,14904],[100,14984],[100,15064],[100,15144],[100,15224],[100,15304],[100,15384],[100,15464],[100,15544],[100,15624],[100,15704],[100,15784],[100,15866],[100,15944],[100,16024],[100,16104],[100,16184],[100,16264],[100,16344],[100,16424],[100,16504],[100,16584],[100,16664],[100,16744],[100,16824],[100,16904],[100,16984],[100,17064],[100,17144],[100,17224],[100,17304],[100,17384],[100,17464],[100,17544],[100,17624],[100,17704],[100,17784],[100,17864],[100,17944],[100,18024],[100,18104],[100,18184],[100,18264],[100,18344],[100,18424],[100,18504],[100,18584],[100,18664],[100,18744],[100,18825],[100,18904],[100,18984],[100,19064],[100,19144],[100,19224],[100,19304],[100,19384],[100,19464],[100,19544],[100,19624],[100,19705],[100,19784],[100,19864],[100,19944],[100,20024],[100,20104],[100,20184],[100,20264],[100,20344],[100,20424],[100,20504],[100,20584],[100,20664],[100,20744],[100,20824],[100,20904],[100,20984],[100,21064],[100,21144],[100,21224],[100,21304],[100,21384],[100,21464],[100,21544],[100,21624],[100,21704],[100,21784],[100,21864],[100,21944],[100,22024],[100,22104],[100,22184],[100,22264],[100,22344]]",247.7897,250.6719,99.68749682,1.8036,"[{""rating"":99.68749682108562,""responseTime"":1.8035999999940486}]",space,2.3585,,250.6719,Definitely yes,100,250.6736,,,[],,0,3,3,3,1,audio/Narrative7Situation3.wav,audio/Narrative8Situation3.wav,audio/Narrative5Situation3.wav,audio/Narrative6Situation3.wav,8,4,3,5,,,,,,,,,,,,,,,,,,,,,,,,,,,,,,,,,,,,,,,
,,,,,66231fc6e1ecba676935943a,2025-07-07_21h54.52.370,group3.4_multiperson,2023.2.2,Win32,100,686c2ebf0248f13bef9af11f,686c96726b35da046c5f6f4a,,,,,,,,,,,,,,,,,,,,,,,,,,,,,250.6737,1,audio/Narrative8Situation4.wav,253.679,,253.679,267.8489,"[[999,0],[999,79],[999,165],[999,239],[999,322],[999,399],[999,479],[999,560],[999,639],[999,722],[999,802],[999,881],[999,959],[999,1039],[45.8,1123],[46.7,1199],[47.4,1279],[47.6,1359],[48.3,1442],[48.4,1519],[48.4,1599],[49.7,1682],[49.8,1762],[49.8,1839],[49.8,1919],[49.8,1999],[49.8,2079],[49.8,2160],[49.8,2240],[49.8,2319],[50.4,2399],[50.4,2479],[50.4,2559],[50.4,2639],[50.4,2719],[50.4,2799],[50.4,2879],[50.4,2959],[50.4,3039],[50.4,3119],[50.4,3199],[50.4,3279],[50.4,3359],[50.4,3439],[50.4,3519],[50.4,3599],[50.4,3679],[50.4,3763],[50.4,3839],[50.4,3919],[52.1,4002],[67.5,4082],[100,4163],[100,4239],[100,4319],[100,4399],[100,4479],[100,4559],[100,4640],[100,4719],[100,4799],[100,4879],[100,4964],[100,5072],[100,5139],[100,5219],[100,5299],[100,5379],[100,5459],[100,5539],[100,5619],[100,5699],[100,5779],[100,5859],[100,5939],[100,6019],[100,6099],[100,6179],[100,6259],[100,6339],[100,6419],[100,6499],[100,6579],[100,6659],[100,6739],[100,6819],[100,6899],[100,6979],[100,7059],[100,7139],[100,7219],[100,7299],[100,7379],[100,7459],[100,7540],[100,7619],[100,7699],[100,7779],[100,7859],[100,7940],[100,8019],[100,8100],[100,8179],[100,8259],[100,8340],[100,8419],[100,8499],[100,8579],[100,8659],[100,8739],[100,8819],[100,8899],[100,8979],[100,9059],[100,9139],[100,9219],[100,9299],[100,9379],[100,9459],[100,9539],[100,9620],[100,9699],[100,9779],[100,9859],[100,9939],[100,10019],[100,10099],[100,10179],[100,10259],[100,10339],[100,10419],[100,10499],[100,10579],[100,10659],[100,10739],[100,10819],[100,10899],[100,10979],[100,11059],[100,11139],[100,11219],[100,11299],[100,11379],[100,11459],[100,11539],[100,11619],[100,11699],[100,11779],[100,11859],[100,11939],[100,12019],[100,12099],[100,12179],[100,12263],[100,12339],[100,12419],[100,12499],[100,12579],[100,12659],[100,12739],[100,12819],[100,12899],[100,12979],[100,13059],[100,13139],[100,13219],[100,13299],[100,13379],[100,13459],[100,13539],[100,13619],[100,13699],[100,13779],[100,13859],[100,13939],[100,14019],[100,14099]]",267.8489,279.3285,98.64583015,9.9665,"[{""rating"":98.64583015441895,""responseTime"":9.966499999999996}]",space,10.9516,,279.3286,Partially,50,279.3301,,,[],,0,4,4,4,1,audio/Narrative7Situation4.wav,audio/Narrative8Situation4.wav,audio/Narrative5Situation4.wav,audio/Narrative6Situation4.wav,3,3,1,2,,,,,,,,,,,,,,,,,,,,,,,,,,,,,,,,,,,,,,,
,,,,,66231fc6e1ecba676935943a,2025-07-07_21h54.52.370,group3.4_multiperson,2023.2.2,Win32,100,686c2ebf0248f13bef9af11f,686c96726b35da046c5f6f4a,,,,,,,,,,,,,,,,,,,,,,,,,,,,,279.3302,1,audio/Narrative8Situation5.wav,281.3383,,281.3383,289.5682,"[[999,0],[999,79],[999,160],[999,240],[999,319],[999,399],[999,479],[999,564],[999,640],[999,719],[999,799],[999,880],[999,962],[999,1043],[999,1120],[999,1200],[999,1279],[999,1360],[999,1442],[999,1522],[53.1,1600],[60.4,1682],[60.4,1760],[68.2,1843],[92.3,1923],[94.7,2000],[94.7,2079],[94.7,2159],[98.6,2244],[99,2319],[99,2404],[99,2479],[99,2560],[99,2640],[99,2719],[99,2799],[99,2879],[99,2962],[98.6,3054],[98.6,3129],[98.6,3209],[98.6,3294],[98.3,3384],[97.7,3464],[97.7,3545],[97.5,3624],[97.5,3699],[97.5,3779],[97.5,3859],[97.5,3943],[97.5,4019],[97.5,4099],[97.5,4180],[97.5,4259],[97.9,4340],[98.2,4419],[98.2,4499],[98.2,4579],[98.2,4659],[98.2,4740],[98.2,4823],[98.2,4899],[98.2,4979],[98.2,5059],[98.3,5140],[99,5222],[99.4,5299],[99.4,5379],[99.4,5459],[99.4,5539],[99.4,5619],[99.4,5700],[99.4,5779],[99.4,5859],[99.4,5939],[99.4,6019],[99.4,6099],[99.4,6179],[99.4,6260],[99.4,6339],[99.4,6419],[99.4,6499],[99.4,6579],[99.4,6659],[99.4,6740],[99.4,6819],[99.4,6899],[99.4,6979],[99.4,7060],[99.4,7148],[99.4,7219],[99.4,7299],[99.4,7384],[99.4,7464],[99.4,7554],[99.4,7629],[99.4,7709],[99.4,7789],[99.4,7869],[99.4,7949],[99.4,8029],[99.4,8109],[99.4,8189]]",289.5684,291.6281,99.37500954,1.1835,"[{""rating"":99.37500953674316,""responseTime"":1.183499999999981}]",space,1.5457,,291.6282,Definitely yes,100,291.6301,,,[],,0,5,5,5,1,audio/Narrative7Situation5.wav,audio/Narrative8Situation5.wav,audio/Narrative5Situation5.wav,audio/Narrative6Situation5.wav,5,2,5,2,,,,,,,,,,,,,,,,,,,,,,,,,,,,,,,,,,,,,,,
,,,,,66231fc6e1ecba676935943a,2025-07-07_21h54.52.370,group3.4_multiperson,2023.2.2,Win32,100,686c2ebf0248f13bef9af11f,686c96726b35da046c5f6f4a,,,,,,,,,,,,,,,,,,,,,,,,,,,,,291.6302,1,audio/Narrative8Situation6.wav,293.6329,,293.6329,300.088,"[[999,0],[999,82],[999,155],[999,240],[999,325],[78.7,409],[76.7,485],[76.3,565],[76.3,645],[76.3,725],[76.3,805],[76.3,885],[76.3,965],[75.6,1047],[65.7,1128],[60.5,1207],[60.5,1285],[66.9,1365],[84,1448],[98.6,1925],[97.7,2005],[97.7,2085],[97.7,2164],[97.7,2247],[97.7,2325],[97.7,2405],[97.7,2485],[98.8,2568],[99,2645],[99,2725],[99,2805],[99,2885],[99,2970],[99,3049],[99,3134],[99,3214],[99,3295],[99,3379],[99,3459],[99,3539],[99,3619],[99,3699],[99,3789],[99,3869],[99,3945],[99,4029],[99,4105],[99,4185],[99,4265],[99,4344],[99,4425],[99,4504],[99,4585],[99,4665],[99,4745],[99,4825],[99,4904],[99,4985],[99,5065],[99,5145],[99,5227],[99,5304],[99,5385],[99,5467],[99,5544],[99,5625],[99,5705],[99,5785],[99,5865],[99,5945],[99,6025],[99,6104],[99,6185],[99,6265],[99,6345],[99,6425]]",300.0882,312.0977,100,11.1571,"[{""rating"":100,""responseTime"":11.157100000023831}]",space,11.4803,,312.0977,Definitely yes,100,312.0986,,,[],,0,6,6,6,1,audio/Narrative7Situation6.wav,audio/Narrative8Situation6.wav,audio/Narrative5Situation6.wav,audio/Narrative6Situation6.wav,3,2,3,2,,,,,,,,,,,,,,,,,,,,,,,,,,,,,,,,,,,,,,,
,,,,,66231fc6e1ecba676935943a,2025-07-07_21h54.52.370,group3.4_multiperson,2023.2.2,Win32,100,686c2ebf0248f13bef9af11f,686c96726b35da046c5f6f4a,,,,,,,,,,,,,,,,,,,,,,,,,,,,,312.0988,1,audio/Narrative8Situation7.wav,315.1078,,315.1078,327.1878,"[[999,0],[999,79],[999,160],[999,239],[999,319],[999,404],[999,494],[999,574],[999,664],[999,744],[49.3,829],[49.3,910],[50.2,989],[50.2,1074],[50.2,1160],[59.5,1254],[76.1,1334],[85.9,1419],[87.4,1499],[87.4,1579],[77.4,1660],[61,1739],[58.6,1819],[53.7,1899],[43.8,1979],[37.7,2060],[33.4,2139],[31.6,2219],[30.3,2299],[30.3,2379],[38.4,2459],[47.6,2539],[48.4,2619],[48.4,2699],[48.6,2779],[48.6,2866],[50.5,2944],[51.1,3019],[51.1,3099],[51.3,3179],[52.6,3259],[53.3,3339],[59.4,3423],[63.8,3502],[69,3582],[85.1,4379],[85.1,4459],[86.4,4540],[86.7,4619],[88.3,4699],[90.3,4779],[90.6,4859],[92.7,4939],[94.7,5019],[94.7,5099],[97.3,5179],[99.7,5259],[99.7,5339],[99.7,5419],[99.7,5499],[99.7,5579],[99.7,5659],[99.7,5739],[99.7,5819],[99.7,5899],[99.7,5979],[99.7,6059],[99.7,6139],[99.7,6219],[99.7,6299],[99.7,6379],[99.7,6459],[99.7,6539],[99.7,6619],[99.7,6699],[99.7,6779],[99.7,6859],[99.7,6939],[99.7,7020],[99.7,7099],[99.7,7179],[99.7,7260],[99.7,7339],[99.7,7419],[99.7,7499],[99.7,7579],[99.7,7659],[99.7,7739],[99.7,7819],[99.7,7899],[100,7979],[100,8059],[100,8139],[100,8219],[100,8299],[100,8379],[100,8459],[100,8539],[100,8619],[100,8699],[100,8779],[100,8859],[100,8939],[100,9019],[100,9099],[100,9180],[100,9259],[100,9339],[100,9419],[100,9499],[100,9579],[100,9659],[100,9739],[100,9819],[100,9899],[100,9979],[100,10059],[100,10139],[100,10219],[100,10299],[100,10379],[100,10459],[100,10539],[100,10619],[100,10699],[100,10779],[100,10859],[100,10939],[100,11019],[100,11099],[100,11179],[100,11259],[100,11339],[100,11419],[100,11499],[100,11579],[100,11659],[100,11739],[100,11819],[100,11899],[100,11979],[100,12059]]",327.188,329.4774,98.95833333,1.4359,"[{""rating"":98.95833333333333,""responseTime"":1.4359000000059723}]",space,1.7603,,329.4775,Partially,50,329.4788,,,[],,0,7,7,7,1,audio/Narrative7Situation7.wav,audio/Narrative8Situation7.wav,audio/Narrative5Situation7.wav,audio/Narrative6Situation7.wav,5,3,4,5,,,,,,,,,,,,,,,,,,,,,,,,,,,,,,,,,,,,,,,
,,,,,66231fc6e1ecba676935943a,2025-07-07_21h54.52.370,group3.4_multiperson,2023.2.2,Win32,100,686c2ebf0248f13bef9af11f,686c96726b35da046c5f6f4a,,,,,,,,,,,,,,,,,,,,,,,,,,,,,329.4789,1,audio/Narrative8Situation8.wav,332.4874,,332.4874,345.3371,"[[999,0],[999,79],[999,159],[999,239],[999,319],[999,399],[999,480],[999,560],[999,639],[999,721],[999,800],[44.7,880],[45,959],[45,1039],[46,1119],[50,1199],[51,1279],[51,1359],[51,1449],[51,1529],[51.1,1609],[49,1690],[48.6,1769],[48.6,1850],[48.6,1929],[48.6,2009],[48.6,2089],[48.6,2169],[48.6,2249],[48.6,2329],[48.6,2410],[48.6,2489],[48.9,2569],[49.7,2649],[49.7,2729],[49.8,2809],[49.8,2889],[49.8,2969],[49.8,3049],[51,4650],[51.1,4730],[51.3,4809],[51.3,4889],[51.6,4969],[52.1,5049],[52.3,5129],[54,5209],[49.3,6269],[50,6349],[52.6,6429],[56.5,6509],[58.9,6589],[60.8,6669],[64.5,6749],[64.9,6829],[66.5,6909],[67,6989],[66.2,7069],[64.2,7149],[58.1,7950],[69.5,8030],[76,8109],[77.9,8189],[79.1,8269],[82.5,8349],[86.8,8429],[88.5,8509],[89.1,8589],[84.6,9414],[84.9,9494],[85.6,9569],[86.8,9649],[88.2,9734],[89.8,9814],[90.8,9894],[91.1,9969],[92,10052],[95.3,10132],[97.5,10212],[100,11172],[100,11249],[100,11329],[100,11409],[100,11489],[100,11569],[100,11649],[100,11729],[100,11809],[100,11895],[100,11969],[100,12049],[100,12129],[100,12209],[100,12289],[100,12369],[100,12449],[100,12529],[100,12609],[100,12689],[100,12772],[100,12849]]",345.3372,347.397,99.47916667,1.2471,"[{""rating"":99.47916666666667,""responseTime"":1.2470999999940773}]",space,1.5324,,347.397,Not at all,0,347.3989,,,[],,0,8,8,8,1,audio/Narrative7Situation8.wav,audio/Narrative8Situation8.wav,audio/Narrative5Situation8.wav,audio/Narrative6Situation8.wav,2,3,3,5,,,,,,,,,,,,,,,,,,,,,,,,,,,,,,,,,,,,,,,
,,,,,66231fc6e1ecba676935943a,2025-07-07_21h54.52.370,group3.4_multiperson,2023.2.2,Win32,100,686c2ebf0248f13bef9af11f,686c96726b35da046c5f6f4a,,,,,,,,,,,,,,,,,,,,,,,,,,,,,347.3991,1,audio/Narrative8Situation9.wav,350.857,,350.857,362.6967,"[[999,0],[999,910],[999,989],[48.9,1140],[49,1229],[49,1319],[49,1399],[49,1479],[50.3,1560],[50.4,1639],[50.4,1719],[50.4,1799],[50.4,1879],[50.4,1959],[50.4,2039],[54,2120],[59.9,2200],[70.2,2280],[90.9,2360],[100,2440],[100,2519],[100,2599],[100,2679],[100,2759],[93.2,2840],[71.4,2919],[66.2,3000],[65.9,3079],[65.9,3159],[65.9,3239],[51.5,3322],[39.7,3400],[39.4,3479],[48.6,3563],[66.4,3642],[91.9,3724],[100,3799],[100,3879],[100,3961],[100,4040],[100,4119],[100,4199],[100,4279],[100,4363],[99.2,4439],[62.1,4522],[22.5,4603],[19.9,4760],[79.6,4842],[97.3,4923],[99.3,4999],[99.3,5079],[99.3,5159],[99.3,5239],[91,5332],[77.6,5412],[73.8,5489],[69.6,5572],[65.5,5649],[64.9,5729],[77,5814],[95.8,5906],[100,5979],[100,6064],[100,6139],[100,6219],[100,6299],[100,6379],[100,6459],[100,6539],[100,6619],[100,6699],[100,6779],[100,6859],[100,6939],[100,7019],[100,7099],[100,7180],[100,7259],[100,7339],[100,7419],[100,7499],[100,7579],[100,7663],[100,7742],[98.8,7822],[97.2,7902],[97,7979],[94.7,8059],[94.7,8139],[96.3,8219],[97.2,8299],[97.2,8379],[100,8459],[100,8539],[100,8619],[100,8699],[100,9419],[100,9499],[100,9579],[100,9659],[100,9739],[100,9819],[100,9899],[100,9979],[100,10059],[100,10139],[100,10219],[100,10299],[100,10379],[100,10459],[100,10539],[100,10619],[100,10699],[100,10779],[100,10859],[100,10939],[100,11019],[100,11099],[99.8,11179],[99.3,11259],[99.3,11339],[99.3,11419],[99.3,11499],[99.3,11579],[99.3,11659],[100,11740],[100,11819]]",362.6969,364.2072,99.06250636,0.6948,"[{""rating"":99.06250635782878,""responseTime"":0.6947999999821377}]",space,0.983,,364.2072,Definitely yes,100,364.2087,,,[],,0,9,9,9,1,audio/Narrative7Situation9.wav,audio/Narrative8Situation9.wav,audio/Narrative5Situation9.wav,audio/Narrative6Situation9.wav,2,3,3,4,,,,,,,,,,,,,,,,,,,,,,,,,,,,,,,,,,,,,,,
,,,,,66231fc6e1ecba676935943a,2025-07-07_21h54.52.370,group3.4_multiperson,2023.2.2,Win32,100,686c2ebf0248f13bef9af11f,686c96726b35da046c5f6f4a,,,,,,,,,,,,,,,,,,,,,,,,,,,,,364.2089,1,audio/Narrative7Situation1.wav,366.2167,,366.2168,422.099,"[[999,0],[999,79],[999,159],[999,239],[999,324],[999,403],[999,484],[999,563],[999,649],[999,729],[999,809],[999,889],[999,969],[999,1052],[999,1132],[999,1209],[999,1289],[999,1369],[999,1449],[999,1529],[999,1612],[999,1692],[999,1769],[999,1849],[999,1929],[999,2009],[999,2092],[999,2172],[999,2249],[49,2329],[48.6,2412],[48.6,2489],[48.6,2569],[48.6,2649],[48.6,2729],[48.6,2809],[48.6,2889],[49.2,2969],[49.2,3049],[49.2,3129],[49.2,3209],[49.2,3289],[49.2,3369],[49.2,3449],[49.2,3529],[49.2,3609],[49.2,3689],[49.2,3769],[49.2,3849],[49.2,3929],[49.2,4010],[49.2,4089],[49.4,4169],[49.9,4249],[49.9,4329],[50,4409],[51,4492],[51.6,4569],[51.6,4649],[51.6,4729],[51.6,4809],[51.6,4889],[51.6,4969],[50.9,5050],[50.4,5129],[50.4,5209],[50.4,5289],[50.4,5369],[50.4,5452],[50.4,5529],[50.4,5609],[51,5694],[52.9,5769],[53.1,5849],[53.1,5929],[53.1,6009],[53.1,6089],[53.1,6169],[52,6254],[51.7,6329],[51.7,6409],[51.7,6489],[51.5,6569],[51.1,6649],[50.9,6729],[50.5,6809],[50.5,6892],[50.5,6969],[51.5,7053],[54.5,7132],[57.3,7213],[60.4,7289],[65.6,7369],[69.1,7452],[74,7532],[78.4,7612],[83.3,7692],[87.9,7769],[89.9,7849],[90.3,7929],[91,8014],[94.5,8092],[96.9,8169],[100,8249],[100,8330],[100,8409],[100,8489],[100,8569],[100,8650],[99.9,8734],[99.1,8809],[97.7,8889],[96.7,8969],[96.7,9049],[96.7,9129],[98.5,9214],[99.2,9294],[99.3,9369],[99.3,9449],[99.3,9529],[99.3,9609],[99.3,9689],[98.5,9769],[98,9849],[98,9929],[98,10009],[98,10092],[98,10169],[98,10249],[98.1,10330],[98.1,10409],[99.8,10492],[99.9,10569],[99.9,10649],[99.9,10730],[99.9,10809],[99.9,10889],[99.9,10969],[99.9,11049],[99.9,11130],[99.9,11209],[99.9,11289],[99.9,11369],[99.3,11449],[98.9,11530],[98.9,11609],[98.9,11689],[99.5,11774],[100,11849],[100,11930],[100,12009],[100,12089],[99.8,12169],[99.3,12249],[98.3,12329],[98,12409],[98,12489],[98.6,12578],[99.2,12659],[99.2,12739],[99.2,12819],[99.2,12899],[99.2,12980],[99.2,13059],[99.2,13139],[99.2,13219],[99.2,13299],[99.2,13379],[99.2,13459],[99.2,13539],[98.6,13622],[98.3,13699],[98,13782],[98,13859],[98,13939],[98.4,14022],[98.6,14099],[98.6,14179],[98.6,14259],[98.6,14339],[98.6,14419],[98.5,14499],[97.7,14582],[97.7,14659],[97.7,14739],[97.7,14819],[98.9,14899],[99,14979],[99,15064],[99,15139],[99,15219],[98.8,15299],[97,15384],[96.5,15459],[96.5,15539],[96.5,15623],[96.5,15699],[96.5,15779],[98.1,15859],[99.7,15939],[99.7,16019],[99.7,16099],[99.7,16182],[99.7,16261],[99.1,16342],[99.1,16422],[99.1,16499],[99.1,16579],[99.8,16662],[100,16739],[100,16819],[100,16899],[100,16981],[100,17059],[99.8,17142],[99.2,17219],[98.5,17299],[98.5,17379],[98.5,17459],[99,17540],[100,17619],[100,17699],[100,17782],[100,17859],[100,17939],[100,18019],[99.9,18099],[99.8,18179],[99.8,18259],[99.8,18339],[99.8,18419],[99.8,18499],[98.6,18584],[98.3,18659],[98.3,18739],[98.3,18819],[98.3,18900],[98.3,18983],[98.3,19064],[98.9,19149],[98.9,19239],[98.9,19319],[98.9,19399],[98.5,19479],[97.8,19559],[97.5,19639],[97.5,19719],[97.5,19799],[97.5,19879],[97.5,19959],[98.6,20042],[98.9,20119],[98.9,20199],[98.9,20279],[98.9,20359],[98.9,20439],[98.9,20519],[97.6,20600],[96.7,20679],[96.6,20759],[95.9,20839],[95,20919],[94,21000],[90,21079],[83.4,21160],[76.7,21242],[72.6,21319],[69.6,21399],[69.1,21479],[77.1,21565],[92.4,21654],[93.8,21729],[97.2,21809],[98.3,21889],[99.5,21974],[100,22051],[100,22129],[84.2,22212],[71.5,22290],[69.6,22369],[67.8,22449],[62.3,22532],[57.1,22612],[53.7,22692],[52.2,22771],[60.4,22852],[82.8,22930],[90.5,23012],[93.8,23090],[97.4,23170],[100,23252],[100,23329],[100,23409],[100,23489],[100,23572],[98.3,23652],[98.3,23729],[98.3,23809],[98.3,23889],[98.3,23969],[98.3,24049],[100,24129],[100,24209],[100,24289],[96,24369],[92.9,24449],[90.8,24529],[87.8,24609],[87.3,24689],[87.3,24769],[91.7,24849],[95.5,24929],[99.5,25009],[100,25089],[98.9,25169],[89.2,25249],[84.3,25329],[82.5,25409],[78.2,25489],[72.7,25569],[67.2,25649],[63.8,25729],[62.6,25809],[66.4,25889],[75.9,25969],[82.3,26049],[88.7,26129],[96.1,26209],[98.4,26289],[99.9,26369],[98.9,26449],[93.6,26529],[92.9,26609],[92.9,26689],[96.1,26769],[97.3,26849],[98.8,26929],[100,27009],[100,27089],[98.8,27169],[98,27249],[98,27329],[98,27415],[98.6,27494],[100,27583],[100,27668],[97.7,27754],[95.4,27829],[94.1,27909],[90.5,27994],[86.6,28069],[81.6,28154],[75.1,28234],[70.2,28312],[65.3,28392],[62.1,28470],[58.4,28552],[55.9,28629],[55.6,28709],[55.6,28789],[59.2,28869],[65.1,28949],[71.3,29028],[78.1,29111],[87.5,29191],[92.9,29271],[96.8,29352],[97.3,29429],[94,29509],[81.5,29592],[76.8,29672],[70.9,29752],[67.3,29831],[67.1,29908],[67.1,29989],[71.3,30069],[76.9,30154],[81,30233],[86.7,30314],[92.7,30393],[96,30473],[99,30554],[99.2,30629],[92.1,30709],[82.2,30789],[75.8,30869],[67.8,30949],[62.6,31029],[59,31109],[56.7,31189],[55.3,31269],[53.3,31349],[52,31429],[51.9,31509],[53.1,31589],[56.5,31669],[57.8,31749],[62,31829],[68.2,31909],[75.7,31989],[83.1,32069],[87.8,32149],[91.1,32228],[93.1,32309],[93.2,32388],[93.2,32469],[82.4,32549],[76.4,32629],[70.6,32709],[64.2,32789],[60.2,32869],[58,32949],[57.5,33029],[57.5,33109],[57.5,33189],[59.2,33269],[60.9,33349],[62.5,33429],[65.3,33509],[79.6,33589],[96.1,33669],[96.6,33749],[96.6,33828],[96.6,33909],[96.6,33988],[96.6,34068],[96.6,34149],[96.6,34228],[96.6,34309],[97.9,34389],[98.4,34468],[98.4,34549],[98.4,34629],[98.4,34708],[98.2,34789],[97.2,34869],[96.5,34949],[96,35029],[96,35108],[96,35189],[98.1,35269],[98.6,35348],[98.6,35429],[98.6,35509],[98,35589],[94.9,35669],[94.7,35749],[94.7,35828],[94.7,35908],[95.6,35989],[96.9,36069],[98.1,36148],[98.4,36229],[98.4,36308],[98.4,36389],[98.4,36469],[98.4,36548],[96.8,36629],[96.5,36708],[96.5,36788],[96.5,36869],[96.9,36949],[97.4,37029],[98.2,37109],[98.4,37189],[98.4,37269],[98,37349],[96.7,37429],[96.5,37509],[96.5,37588],[96.5,37668],[96.9,37749],[97.9,37828],[97.9,37913],[97.9,37993],[97.9,38076],[97.9,38153],[96.8,38248],[96.3,38329],[96.3,38408],[96.4,38489],[97.7,38568],[97.7,38649],[97.7,38728],[97.7,38808],[95.9,38891],[95.5,38968],[95.5,39048],[95.5,39128],[96.9,39208],[97.1,39288],[97.4,39368],[98.4,39448],[98.4,39528],[98.3,39608],[96.5,39692],[96.1,39768],[96.1,39848],[96.9,39928],[97.7,40012],[97.8,40089],[98.4,40168],[99,40248],[99,40328],[99,40408],[97.8,40491],[97.5,40568],[97.5,40648],[98.6,40733],[98.9,40808],[98.9,40888],[98.4,40974],[95.1,41048],[95.1,41128],[95.1,41215],[96.4,41293],[96.9,41373],[97.1,41453],[97.8,41538],[97.9,41618],[97.9,41699],[97.9,41778],[97.9,41858],[97.9,41941],[97.9,42019],[97.9,42098],[97.9,42179],[97.9,42258],[98.3,42338],[98.3,42418],[98.3,42498],[98.3,42579],[98.3,42658],[98.3,42738],[98.3,42819],[98.3,42898],[98.3,42978],[98.3,43058],[98.3,43138],[98.3,43218],[98.3,43298],[98.3,43378],[98.3,43458],[98.3,43538],[98.3,43619],[98.3,43698],[98.3,43778],[98.3,43858],[98.3,43938],[98.3,44019],[98.3,44098],[98.3,44188],[98.3,44273],[98.1,44355],[97.6,44443],[97,44523],[96.7,44598],[96,44678],[95.6,44758],[95.4,44838],[95.4,44918],[96,44998],[96.4,45078],[96.4,45158],[96.4,45238],[97.6,45321],[98.1,45401],[98.1,45478],[98.6,45559],[99,45641],[99,45718],[99,45798],[99,45878],[99,45958],[99,46039],[99,46118],[99,46201],[99,46278],[99,46358],[99,46438],[99,46518],[99,46598],[99,46678],[99,46758],[99,46838],[99,46918],[99,46998],[99,47088],[99,47168],[99,47248],[99,47328],[99,47408],[99,47488],[99,47568],[99,47648],[99,47728],[99,47808],[99,47888],[99,47968],[99,48048],[99,48128],[99,48208],[99,48288],[99,48368],[99,48448],[99,48528],[99,48608],[99,48688],[99,48768],[99,48848],[99,48928],[98.9,49008],[98.2,49088],[98.1,49168],[98.1,49248],[98.1,49328],[97.6,49408],[96.5,49490],[95,49571],[92.9,49648],[90.7,49734],[88.1,49813],[86.4,49888],[85.3,49968],[85,50048],[85,50128],[88.4,50213],[91.5,50288],[91.5,50368],[93.8,50451],[96.1,50532],[99.2,50612],[99.7,50688],[99.7,50768],[99.7,50848],[99.7,50928],[99.7,51008],[99.7,51088],[99.6,51168],[99.3,51248],[99,51328],[98.8,51409],[98.8,51488],[98.8,51568],[98.8,51648],[98.8,51728],[98.8,51808],[98.8,51888],[98.8,51968],[98.8,52048],[98.8,52128],[98.8,52208],[98.8,52288],[98.8,52368],[98.8,52448],[98.8,52528],[98.8,52608],[98.8,52688],[98.8,52768],[98.8,52848],[98.8,52928],[98.8,53008],[98.8,53088],[98.8,53168],[98.8,53248],[98.8,53328],[98.8,53408],[98.8,53488],[98.8,53568],[98.8,53648],[98.8,53728],[98.8,53808],[98.8,53891],[98.8,53968],[98.8,54048],[98.8,54128],[98.8,54208],[98.8,54289],[98.8,54368],[98.8,54448],[98.8,54528],[98.8,54608],[98.8,54688],[98.8,54768],[98.8,54848],[98.8,54928],[98.8,55008],[98.8,55088],[98.8,55168],[98.8,55248],[98.8,55328],[98.8,55413],[98.8,55498],[98.8,55578],[98.8,55658],[98.8,55738],[98.8,55818]]",422.0991,424.1153,98.22916985,1.1142,"[{""rating"":98.22916984558105,""responseTime"":1.1141999999880454}]",space,1.4889,,424.1154,Definitely yes,100,424.1165,,,[],,0,10,10,10,1,audio/Narrative8Situation1.wav,audio/Narrative7Situation1.wav,audio/Narrative6Situation1.wav,audio/Narrative5Situation1.wav,5,2,2,5,,,,,,,,,,,,,,,,,,,,,,,,,,,,,,,,,,,,,,,
,,,,,66231fc6e1ecba676935943a,2025-07-07_21h54.52.370,group3.4_multiperson,2023.2.2,Win32,100,686c2ebf0248f13bef9af11f,686c96726b35da046c5f6f4a,,,,,,,,,,,,,,,,,,,,,,,,,,,,,424.1166,1,audio/Narrative7Situation2.wav,427.1252,,427.1253,434.5852,"[[999,0],[999,79],[999,162],[999,239],[999,322],[999,400],[999,480],[999,559],[999,639],[999,720],[999,802],[999,884],[999,967],[999,1049],[999,1129],[999,1209],[999,1289],[999,1369],[999,1449],[999,1535],[999,1612],[999,1689],[999,1773],[999,1849],[999,1929],[999,2009],[999,2090],[999,2170],[999,2249],[999,2329],[999,2410],[66.1,2489],[67.1,2571],[71,2649],[71.7,2729],[74.8,2809],[82.7,2890],[88.5,2969],[100,3540],[99.4,3619],[99.3,3699],[99.3,3780],[99.3,3859],[99.2,3939],[99.2,4019],[99.2,4099],[99.2,4180],[99.2,4259],[98.3,4340],[97.6,4419],[96.6,4500],[95.5,4579],[94.4,4659],[94.1,4739],[94.1,4819],[93.6,4900],[93.5,4982],[93.5,5059],[93.1,5139],[93.1,5220],[93.1,5300],[92.9,5379],[92.9,5459],[92.9,5539],[92.9,5619],[93,5699],[94.2,5779],[94.6,5859],[94.6,5939],[95.5,6019],[96,6100],[96.1,6179],[96.1,6259],[96.1,6339],[96.8,6420],[97.4,6499],[97.8,6579],[97.8,6659],[97.8,6739],[97.8,6819],[97.8,6899],[97.8,6979],[97.8,7059],[97.8,7139],[97.8,7219],[97.8,7299],[97.8,7379],[97.8,7459]]",434.5852,436.5951,97.81250954,1.1541,"[{""rating"":97.81250953674316,""responseTime"":1.1541000000238455}]",space,1.4901,,436.5952,Definitely yes,100,436.5961,,,[],,0,11,11,11,1,audio/Narrative8Situation2.wav,audio/Narrative7Situation2.wav,audio/Narrative6Situation2.wav,audio/Narrative5Situation2.wav,3,3,3,3,,,,,,,,,,,,,,,,,,,,,,,,,,,,,,,,,,,,,,,
,,,,,66231fc6e1ecba676935943a,2025-07-07_21h54.52.370,group3.4_multiperson,2023.2.2,Win32,100,686c2ebf0248f13bef9af11f,686c96726b35da046c5f6f4a,,,,,,,,,,,,,,,,,,,,,,,,,,,,,436.5963,1,audio/Narrative7Situation3.wav,444.6088,,444.6089,453.8494,"[[96.1,1276],[69.6,1596],[78.9,1675],[82.2,1755],[84.6,1835],[86.5,1916],[88,1995],[88,2075],[88,2155],[88,2235],[88,2315],[88.7,2395],[89.1,2475],[89.2,2555],[89.2,2636],[89.3,2716],[90.9,2795],[92.1,2876],[92.7,2955],[93.6,3036],[94,3115],[94,3195],[90,3276],[85,3355],[83.5,3435],[82,3516],[78.2,3596],[73.5,3676],[68.4,3756],[65.7,3836],[61.9,3916],[59.2,3995],[58.3,4076],[57.5,4156],[57.4,4238],[56.6,4315],[56.6,4395],[56.6,4475],[56.6,4555],[56.6,4635],[56.6,4716],[56.6,4795],[56.6,4875],[55,4956],[54.8,5035],[55.2,5115],[70.1,5196],[99.1,5755],[98.6,5835],[98.6,5915],[98.6,5995],[98.6,6075],[95.7,6155],[93.1,6235],[90.5,6316],[87.6,6395],[80.8,6475],[72.8,6555],[66.8,6636],[65.2,6715],[66.7,6795],[81.3,6875],[96.5,6955],[97.7,7035],[97.7,7116],[97.7,7195],[97.7,7275],[97.7,7355],[97.7,7435],[97.6,7516],[97.2,7595],[97.2,7675],[97.2,7755],[97.2,7835],[97.2,7915],[97.2,7995],[97.2,8075],[97.2,8155],[97.2,8235],[97.2,8315],[97.2,8395],[97.2,8480],[97.2,8560],[97.2,8650],[97.2,8735],[97.2,8815],[97.2,8895],[97.2,8975],[97.2,9066],[97.2,9140],[97.2,9220]]",453.8495,456.5648,98.95833333,1.8779,"[{""rating"":97.29167620340984,""responseTime"":1.5072999999821377},{""rating"":98.95833333333333,""responseTime"":1.8779000000059796}]",space,2.1868,,456.5648,Partially,50,456.5675,,,[],,0,12,12,12,1,audio/Narrative8Situation3.wav,audio/Narrative7Situation3.wav,audio/Narrative6Situation3.wav,audio/Narrative5Situation3.wav,4,8,5,3,,,,,,,,,,,,,,,,,,,,,,,,,,,,,,,,,,,,,,,
,,,,,66231fc6e1ecba676935943a,2025-07-07_21h54.52.370,group3.4_multiperson,2023.2.2,Win32,100,686c2ebf0248f13bef9af11f,686c96726b35da046c5f6f4a,,,,,,,,,,,,,,,,,,,,,,,,,,,,,456.5679,1,audio/Narrative7Situation4.wav,459.5747,,459.5748,471.2888,"[[999,0],[999,79],[999,159],[999,239],[999,319],[999,399],[999,479],[999,562],[999,639],[999,719],[999,799],[999,879],[999,959],[999,1040],[999,1119],[999,1204],[999,1284],[999,1362],[999,1439],[999,1519],[999,1599],[999,1689],[999,1759],[999,1839],[999,1919],[999,1999],[54.3,2079],[53.3,2160],[52.5,2239],[52.5,2319],[52.5,2404],[52.5,2479],[52.5,2559],[50.7,2639],[49.8,2719],[49.8,2799],[49.8,2879],[49.8,2959],[49.8,3039],[49.8,3119],[49.8,3199],[49.8,3279],[49.8,3369],[50.9,3449],[51.9,3529],[52.3,3610],[52.3,3689],[52.3,3769],[52.3,3849],[52.3,3929],[52.3,4009],[52.3,4089],[52.3,4169],[52.3,4249],[52.3,4329],[52.3,4409],[52.3,4489],[52.3,4569],[52.3,4649],[52.3,4729],[51.1,4809],[50.6,4889],[50.6,4969],[50.6,5049],[50.9,5129],[55.1,5209],[62,5289],[67.7,5369],[69.2,5449],[72.8,5529],[76.5,5609],[80.2,5689],[82.8,5769],[85.1,5849],[85.9,5929],[86.3,6009],[87.3,6089],[87.5,6169],[87.5,6249],[87.5,6329],[87.5,6409],[87.5,6489],[87.8,6569],[87.8,6649],[87.8,6729],[87.8,6809],[87.8,6889],[87.8,6969],[87.8,7049],[87.8,7129],[87.8,7209],[87.8,7289],[87.8,7369],[87.8,7450],[88,7535],[88.1,7614],[67.4,7713],[63.6,7804],[56.4,7884],[53.9,7969],[53.7,8049],[43,8129],[30.3,8209],[27.5,8289],[27.2,8369],[24.9,8449],[16,8529],[9.5,8609],[9.3,8689],[9.3,8769],[9.3,8849],[9.3,8929],[7.7,9009],[6.1,9089],[5.1,9169],[1.8,9254],[0.4,9332]]",471.2889,473.1343,0.312499205,1.0125,"[{""rating"":0.31249920527140485,""responseTime"":1.0124999999999886}]",space,1.3128,,473.1344,Partially,50,473.1355,,,[],,0,13,13,13,1,audio/Narrative8Situation4.wav,audio/Narrative7Situation4.wav,audio/Narrative6Situation4.wav,audio/Narrative5Situation4.wav,3,3,2,1,,,,,,,,,,,,,,,,,,,,,,,,,,,,,,,,,,,,,,,
,,,,,66231fc6e1ecba676935943a,2025-07-07_21h54.52.370,group3.4_multiperson,2023.2.2,Win32,100,686c2ebf0248f13bef9af11f,686c96726b35da046c5f6f4a,,,,,,,,,,,,,,,,,,,,,,,,,,,,,473.1357,1,audio/Narrative7Situation5.wav,478.1386,,478.1386,486.6039,"[[999,0],[999,90],[999,170],[999,260],[999,340],[50,420],[50.5,495],[50.5,575],[50.5,655],[50.5,735],[50.5,815],[50.5,895],[50.5,975],[50.5,1055],[50.5,1135],[50.5,1215],[50.5,1295],[50.5,1375],[50.5,1455],[49.7,1536],[44.4,1618],[41.2,1696],[8.4,2255],[5.5,2335],[4,2420],[4,2495],[3.9,2585],[3.2,2665],[3.2,2749],[3.2,2825],[3.2,2905],[3.2,2985],[12.1,3070],[20.3,3146],[25.5,3228],[30.5,3308],[38,3388],[40.9,3465],[42.9,3548],[43.8,3625],[44.8,3705],[45.1,3786],[45.5,3865],[46.4,3945],[46.9,4026],[46.9,4105],[46.9,4185],[46.9,4265],[46.9,4345],[46.9,4425],[46.9,4505],[46.9,4585],[47.7,4665],[48.4,4745],[48.4,4825],[49.5,4908],[49.5,4985],[49.5,5070],[49.5,5150],[49.5,5229],[49.5,5315],[49.5,5395],[49.5,5475],[51,5559],[51,5645],[51,5725],[51,5805],[51,5885],[51.9,5965],[52.3,6045],[52.3,6125],[52.3,6205],[52.3,6285],[52.3,6365],[52.3,6445],[52.3,6525],[52.3,6605],[52.3,6685],[52.3,6765],[52.3,6845],[52.3,6925],[52.3,7005],[52.3,7085],[53,7165],[53.5,7245],[53.5,7325],[53.5,7405],[53.5,7485],[53.6,7565],[54.2,7645],[54.2,7725],[54.2,7805],[54.2,7885],[54.2,7965],[54.2,8045],[53.7,8128],[53.3,8205],[52,8289],[51.4,8365],[51.4,8445]]",486.6041,488.514,51.87500318,0.9171,"[{""rating"":51.87500317891439,""responseTime"":0.9170999999940364}]",space,1.3797,,488.514,Not at all,0,488.5156,,,[],,0,14,14,14,1,audio/Narrative8Situation5.wav,audio/Narrative7Situation5.wav,audio/Narrative6Situation5.wav,audio/Narrative5Situation5.wav,2,5,2,5,,,,,,,,,,,,,,,,,,,,,,,,,,,,,,,,,,,,,,,
,,,,,66231fc6e1ecba676935943a,2025-07-07_21h54.52.370,group3.4_multiperson,2023.2.2,Win32,100,686c2ebf0248f13bef9af11f,686c96726b35da046c5f6f4a,,,,,,,,,,,,,,,,,,,,,,,,,,,,,488.5157,1,audio/Narrative7Situation6.wav,491.5204,,491.5204,501.4837,"[[999,0],[999,83],[999,163],[999,247],[999,328],[999,408],[999,487],[54.4,576],[52.9,653],[52.7,733],[52.6,813],[52.6,893],[52.5,973],[52.4,1054],[52.3,1133],[52.3,1213],[52.3,1293],[52.3,1373],[51.7,1456],[51.7,1533],[51.7,1613],[51.7,1693],[51.7,1773],[51.7,1853],[51.7,1933],[53.9,2016],[54.5,2093],[54.9,2173],[55.2,2253],[57.8,2336],[59.7,2418],[61.7,2493],[63.5,2578],[67,2653],[70.6,2740],[72.7,2813],[74.5,2893],[74.7,2976],[75.7,3053],[76.8,3133],[78.5,3216],[79.9,3294],[81.6,3373],[81.8,3453],[82.8,3533],[84.4,3613],[86.7,3696],[87.7,3773],[90.6,3856],[92.2,3933],[92.2,4013],[93.2,4093],[93.8,4173],[95.7,4256],[97.4,4333],[97.9,4413],[98.1,4493],[98.1,4573],[98.1,4653],[98.1,4733],[98.1,4817],[98.1,4898],[98.1,4988],[98.1,5068],[98.1,5157],[98.1,5237],[98.1,5317],[98.1,5403],[98.1,5483],[98.1,5563],[98.1,5643],[98.1,5723],[98.1,5803],[98.1,5883],[98.1,5963],[98.4,6043],[98.4,6123],[98.4,6203],[98.4,6283],[98.4,6363],[98.4,6443],[98.4,6523],[98.4,6603],[98.4,6683],[98.4,6763],[98.4,6843],[98.4,6923],[98.4,7003],[98.4,7083],[98.4,7163],[98.4,7243],[98.4,7323],[98.4,7403],[98.4,7483],[98.4,7563],[98.4,7643],[98.4,7723],[98.4,7803],[97.5,7883],[95.9,7964],[92.5,8046],[89.7,8123],[89.7,8206],[96.4,8283],[99.5,8363],[99.5,8443],[99.5,8523],[99.5,8603],[99.5,8683],[99.5,8763],[99.5,8843],[99.5,8923],[99.5,9006],[99.5,9083],[99.5,9163],[99.5,9247],[99.3,9343],[99.3,9423],[99.3,9503],[99.2,9583],[99.2,9663],[99.2,9743],[99.2,9823],[99.2,9903]]",501.4838,502.8637,99.16666349,0.5952,"[{""rating"":99.16666348775227,""responseTime"":0.59519999998804}]",space,0.8531,,502.8638,Not at all,0,502.8649,,,[],,0,15,15,15,1,audio/Narrative8Situation6.wav,audio/Narrative7Situation6.wav,audio/Narrative6Situation6.wav,audio/Narrative5Situation6.wav,2,3,2,3,,,,,,,,,,,,,,,,,,,,,,,,,,,,,,,,,,,,,,,
,,,,,66231fc6e1ecba676935943a,2025-07-07_21h54.52.370,group3.4_multiperson,2023.2.2,Win32,100,686c2ebf0248f13bef9af11f,686c96726b35da046c5f6f4a,,,,,,,,,,,,,,,,,,,,,,,,,,,,,502.8651,1,audio/Narrative7Situation7.wav,507.8736,,507.8737,525.038,"[[98.2,640],[98,719],[98,800],[97.1,879],[88.1,959],[80.6,1040],[76.7,1119],[74.9,1200],[70.5,1279],[68.6,1359],[67.1,1440],[64.9,1519],[64,1600],[62.7,1679],[61.9,1759],[61.8,1839],[61.8,1919],[61.7,2000],[59.6,2079],[57.1,2159],[56.8,2239],[76.3,2320],[87,2399],[100,2479],[100,2559],[100,2639],[100,2719],[100,2799],[100,2879],[99.7,2959],[98.6,3039],[98.5,3119],[98.5,3199],[98.5,3279],[98.5,3359],[98.5,3439],[98.5,3519],[98.5,3600],[98.5,3679],[98.5,3759],[98.5,3839],[98.5,3919],[98.5,3999],[98.5,4079],[98.5,4159],[98.5,4242],[98.5,4319],[98.5,4399],[98.5,4479],[98.5,4559],[98.5,4639],[98.5,4719],[98.5,4799],[98.5,4879],[98.5,4959],[98.5,5039],[98.5,5119],[98.5,5199],[98.5,5279],[98.5,5359],[98.5,5439],[98.5,5519],[98.5,5599],[98.5,5679],[98.5,5759],[98.5,5839],[98.5,5919],[98.5,5999],[98.5,6079],[98.5,6159],[98.5,6239],[98.5,6319],[98.5,6399],[98.5,6479],[98.5,6559],[98.5,6639],[98.5,6719],[98.5,6799],[98.5,6879],[98.5,6959],[98.5,7039],[98.5,7119],[98.5,7199],[98.5,7279],[98.5,7359],[98.5,7439],[98.5,7519],[98.5,7599],[98.5,7679],[98.5,7760],[98.5,7839],[98.5,7919],[98.5,7999],[98.5,8079],[98.5,8159],[98.5,8239],[98.5,8319],[98.5,8399],[98.5,8479],[98.5,8559],[98.5,8639],[98.5,8719],[98.5,8799],[98.5,8879],[98.5,8959],[98.5,9039],[98.5,9119],[98.5,9199],[98.5,9279],[98.5,9359],[98.5,9439],[98.5,9519],[98.5,9599],[98.5,9679],[98.5,9759],[98.5,9839],[98.5,9919],[98.5,9999],[98.5,10079],[98.5,10160],[98.5,10239],[98.5,10319],[98.5,10400],[98.5,10479],[98.5,10559],[98.5,10639],[98.5,10719],[98.5,10799],[98.5,10879],[98.5,10959],[98.5,11039],[98.5,11119],[98.5,11199],[98.5,11279],[98.5,11359],[98.5,11439],[98.5,11519],[98.5,11599],[98.5,11679],[98.5,11759],[98.5,11839],[98.5,11919],[98.5,11999],[98.5,12079],[98.5,12159],[98.5,12239],[98.5,12319],[98.5,12399],[98.5,12479],[98.5,12559],[98.5,12639],[98.5,12720],[98.5,12799],[98.5,12879],[98.5,12959],[98.5,13039],[98.5,13119],[98.5,13199],[98.5,13279],[98.5,13359],[98.5,13439],[98.5,13519],[98.5,13599],[98.5,13679],[98.5,13759],[98.5,13839],[98.5,13919],[98.5,13999],[98.5,14079],[98.5,14159],[98.5,14239],[98.5,14319],[98.5,14399],[98.5,14479],[98.5,14559],[98.5,14639],[98.5,14719],[98.5,14799],[98.5,14879],[98.5,14959],[98.5,15039],[98.5,15119],[98.5,15199],[98.5,15279],[99.5,15359],[99.5,15439],[99.5,15519],[99.5,15599],[99.5,15679],[99.1,15763],[98.5,15839],[98.5,15919],[98.5,15999],[98.5,16080],[98.5,16166],[98.5,16243],[98.5,16324],[98.5,16404],[98.5,16484],[98.5,16564],[98.5,16644],[98.5,16724],[98.5,16803],[98.5,16884],[98.5,16964],[98.5,17044],[98.5,17124]]",525.0382,526.6435,98.64583015,0.7875,"[{""rating"":98.64583015441895,""responseTime"":0.7875000000000227}]",space,1.0762,,526.6437,Definitely yes,100,526.6471,,,[],,0,16,16,16,1,audio/Narrative8Situation7.wav,audio/Narrative7Situation7.wav,audio/Narrative6Situation7.wav,audio/Narrative5Situation7.wav,3,5,5,4,,,,,,,,,,,,,,,,,,,,,,,,,,,,,,,,,,,,,,,
,,,,,66231fc6e1ecba676935943a,2025-07-07_21h54.52.370,group3.4_multiperson,2023.2.2,Win32,100,686c2ebf0248f13bef9af11f,686c96726b35da046c5f6f4a,,,,,,,,,,,,,,,,,,,,,,,,,,,,,526.6474,1,audio/Narrative7Situation8.wav,528.6531,,528.6531,538.6629,"[[98,1199],[98,1279],[98,1360],[98,1439],[98,1519],[98,1599],[98,1679],[98,1759],[98,1839],[98,1919],[98,2004],[98,2079],[98,2159],[98,2239],[98,2319],[98,2399],[98,2479],[98,2559],[98,2640],[98,2719],[98,2799],[98,2879],[98,2959],[98,3040],[98,3120],[98,3199],[98,3279],[98,3359],[98,3439],[98,3519],[98,3599],[98,3679],[98,3759],[98,3840],[98,3919],[98,4000],[98,4079],[98,4159],[98,4239],[98,4319],[98,4399],[98,4479],[98,4559],[98,4639],[98,4719],[98,4799],[98,4879],[98,4959],[98,5039],[98,5119],[98,5199],[98,5279],[98,5359],[98,5439],[98,5519],[98,5601],[98,5679],[98,5759],[98,5839],[98,5919],[98,5999],[98,6079],[98,6159],[98,6240],[98,6319],[98,6399],[98,6480],[98,6559],[98,6640],[97.4,6720],[97.4,6799],[97.4,6879],[97.4,6959],[96.7,7045],[96.6,7119],[96.6,7199],[96.6,7279],[96.6,7359],[96.6,7440],[96.6,7519],[97.9,7604],[99.5,7684],[99.8,7759],[99.8,7839],[99.8,7919],[99.8,7999],[98,8562],[97.9,8639],[97.7,8719],[97.6,8799],[97.6,8879],[98.4,8959],[98.4,9039],[98.4,9120],[98.4,9199],[98.4,9279],[98.4,9359],[98.4,9439],[98.4,9519],[98.4,9599],[98.4,9679],[98.4,9759],[98.4,9839],[98.4,9919],[98.4,9999]]",538.663,539.7629,98.54167302,0.3282,"[{""rating"":98.54167302449544,""responseTime"":0.3281999999879872}]",space,0.5704,,539.763,Partially,50,539.7647,,,[],,0,17,17,17,1,audio/Narrative8Situation8.wav,audio/Narrative7Situation8.wav,audio/Narrative6Situation8.wav,audio/Narrative5Situation8.wav,3,2,5,3,,,,,,,,,,,,,,,,,,,,,,,,,,,,,,,,,,,,,,,
,,,,,66231fc6e1ecba676935943a,2025-07-07_21h54.52.370,group3.4_multiperson,2023.2.2,Win32,100,686c2ebf0248f13bef9af11f,686c96726b35da046c5f6f4a,,,,,,,,,,,,,,,,,,,,,,,,,,,,,539.7648,1,audio/Narrative7Situation9.wav,541.7727,,541.7727,550.3826,"[[96.1,881],[95.7,960],[95.7,1040],[95.7,1120],[95.7,1202],[98.3,1283],[98.3,1360],[98.3,1439],[98.3,1520],[98.3,1600],[98.3,1680],[98.3,1759],[98.3,1840],[98.3,1920],[98.3,2000],[98.3,2080],[98.3,2159],[98.3,2239],[98.3,2320],[98.3,2399],[98.3,2480],[98.3,2560],[98.3,2640],[98.3,2720],[98.3,2800],[98.3,2879],[98.3,2959],[98.3,3040],[98.3,3120],[98.3,3200],[98.3,3280],[98.3,3360],[98.3,3440],[98.3,3520],[98.3,3602],[98.3,3680],[98.3,3759],[98.3,3840],[98.3,3920],[98.3,4000],[98.3,4080],[98.3,4159],[98.3,4239],[98.3,4319],[98.3,4400],[98.3,4479],[98.3,4559],[98.3,4639],[98.3,4720],[98.3,4799],[98.3,4879],[98.3,4960],[98.3,5040],[98.3,5120],[98.3,5199],[98.3,5279],[98.3,5359],[98.3,5440],[98.3,5520],[98.3,5600],[98.3,5680],[98.3,5759],[98.3,5839],[98.3,5919],[98.3,6000],[98.3,6082],[98.3,6159],[98.3,6239],[98.3,6319],[98.3,6402],[98.3,6479],[98.3,6560],[98.3,6639],[98.3,6719],[98.3,6799],[98.3,6879],[98.3,6964],[98.3,7039],[98.3,7120],[98.3,7199],[98.3,7279],[98.3,7359],[98.3,7440],[98.3,7520],[98.3,7599],[98.3,7679],[98.3,7759],[98.3,7839],[98.3,7919],[98.3,7999],[98.3,8079],[98.3,8159],[98.3,8239],[98.3,8319],[98.3,8400],[98.3,8480],[98.3,8559]]",550.3828,552.0535,98.95833333,0.9251,"[{""rating"":98.95833333333333,""responseTime"":0.9250999999940177}]",space,1.1501,,552.0535,Partially,50,560.1324,48.95833333,4.7186,"[{""rating"":48.95833333333333,""responseTime"":4.718599999994012}]",space,0,18,18,18,1,audio/Narrative8Situation9.wav,audio/Narrative7Situation9.wav,audio/Narrative6Situation9.wav,audio/Narrative5Situation9.wav,3,2,4,3,,,7.5502,,,,,,,,,,,,,,,,,,,,,,,,,,,,,,,,,,,,
,,,,,66231fc6e1ecba676935943a,2025-07-07_21h54.52.370,group3.4_multiperson,2023.2.2,Win32,100,686c2ebf0248f13bef9af11f,686c96726b35da046c5f6f4a,,,,,,,,,,,,,,,,,,,,,,,,,,,620.1317,622.711,622.7188,2,audio/Narrative13Situation2.wav,622.7188,,622.7188,652.4508,"[[48.3,2952],[48.3,3032],[48.3,3112],[48.3,3192],[48.3,3272],[48.3,3352],[48.3,3432],[48.3,3511],[48.3,3593],[48.3,3672],[48.3,3752],[48.3,3831],[48.3,3912],[48.3,3992],[48.3,4072],[48.3,4152],[48.3,4232],[48.3,4312],[48.3,4392],[48.3,4472],[48.3,4552],[48.3,4632],[48.3,4712],[48.3,4792],[48.3,4872],[48.3,4951],[48.3,5032],[48.3,5112],[48.2,5193],[48.2,5274],[48.2,5352],[48.2,5432],[48.2,5511],[48.2,5592],[48.2,5672],[48.2,5751],[48.2,5832],[48.2,5917],[49,5992],[51.4,6077],[52.1,6152],[52.1,6232],[52.1,6312],[58.5,6392],[58.5,6471],[59.9,6553],[68,6635],[75.5,6712],[75.7,6795],[77.8,6872],[80.7,6955],[81.8,7032],[81.8,7111],[81.8,7192],[81.8,7272],[81.8,7351],[81.8,7432],[81.8,7511],[81.8,7592],[81.8,7672],[81.8,7751],[81.8,7832],[81.8,7912],[81.8,7992],[81.8,8072],[81.8,8152],[83.8,8237],[87.2,8317],[89,8392],[90.9,8477],[91.7,8551],[92.7,8632],[93.8,8712],[94.8,8792],[95.8,8872],[95.8,8951],[95.8,9032],[97.4,9112],[98.3,9191],[98.3,9272],[98.3,9351],[98.3,9431],[98.3,9511],[98.3,9592],[98.3,9672],[98.3,9751],[98.3,9831],[98.3,9912],[98.3,9991],[98.3,10072],[98.3,10152],[98.3,10231],[97.5,10312],[92.4,10392],[87.3,10471],[77.6,10552],[51.4,10951],[50.4,11032],[50.4,11111],[50.4,11191],[50.4,11271],[50.4,11351],[50.4,11432],[50.4,11511],[50.4,11591],[50.4,11671],[50.4,11751],[50.4,11831],[50.4,11911],[50.4,11991],[50.4,12071],[50.4,12152],[50.4,12231],[50.4,12312],[50.4,12391],[50.4,12471],[50.4,12551],[50.4,12631],[50.4,12711],[50.4,12791],[50.4,12871],[50.4,12951],[50.4,13032],[50.4,13111],[50.4,13191],[50.4,13271],[50.4,13351],[50.4,13432],[50.4,13511],[50.4,13592],[50.4,13671],[50.4,13751],[50.4,13832],[50.4,13911],[50.4,13991],[50.4,14071],[50.4,14151],[50.4,14231],[50.4,14311],[50.4,14391],[50.4,14471],[50.4,14551],[50.4,14631],[50.4,14711],[50.4,14791],[50.4,14871],[50.4,14951],[50.4,15031],[50.4,15111],[50.4,15192],[50.4,15271],[50.4,15351],[50.4,15431],[50.4,15511],[50.4,15591],[50.4,15671],[50.4,15751],[50.4,15831],[50.4,15912],[50.4,15991],[50.4,16071],[50.4,16151],[50.4,16231],[50.4,16311],[50.4,16391],[50.4,16471],[50.4,16551],[50.4,16631],[50.4,16711],[50.4,16791],[50.4,16871],[50.4,16952],[50.4,17031],[50.4,17111],[50.4,17191],[50.4,17272],[50.4,17351],[50.4,17431],[50.4,17511],[54.2,17591],[58.5,17672],[69.7,17751],[72.9,17831],[68.5,17911],[58.4,17991],[54.6,18072],[53.5,18151],[50.6,18232],[47,18312],[44,18392],[42.8,18471],[38.2,18552],[27.5,18634],[19,18711],[14,18791],[11.1,18871],[11.1,18951],[11,19031],[11,19111],[11,19192],[11,19271],[11,19351],[11,19431],[11,19511],[18,19601],[25.5,19681],[28,19762],[35.8,19841],[43.4,19922],[44.6,20001],[44.6,20081],[44.6,20161],[44.6,20241],[50.5,20321],[51.8,20401],[51.8,20481],[51.3,20561],[44.1,20641],[33.8,20725],[25.6,20801],[19.6,20881],[15.4,20961],[13.6,21041],[12.1,21121],[31.4,21201],[41,21281],[43.2,21361],[48.3,21441],[48.4,21521],[48.4,21606],[48.4,21686],[48.4,21767],[57.1,21866],[57.1,21941],[52.5,22027],[48.3,22107],[48,22181],[48,22261],[48.4,22341],[68.8,22426],[69.3,22501],[69.3,22581],[75.5,22666],[85.2,22741],[85.9,22821],[85.9,22901],[54.8,22985],[37.3,23064],[37.3,23141],[37.3,23221],[46.8,23304],[47.3,23381],[47.3,23461],[47.3,23544],[50.6,23624],[50.7,23701],[50.7,23781],[49.3,23861],[48.5,23944],[48.5,24021],[48.5,24101],[48.5,24181],[48.5,24261],[48.5,24341],[48.6,24421],[51,24501],[51,24581],[53.3,24662],[56.8,24741],[56.8,24821],[56.8,24911],[55.4,24991],[53.7,25072],[52.4,25152],[51.7,25231],[50.3,25312],[47.3,25397],[45.9,25476],[45.7,25566],[45.8,25651],[48.2,25731],[48.2,25811],[48.2,25891],[49,25976],[50,26051],[50,26131],[50.2,26211],[57.8,26296],[69.6,26375],[85.9,26454],[92.7,26534],[94.3,26614],[96,26695],[96.4,26771],[85.2,26854],[71.1,26934],[67.3,27014],[54.2,27094],[45.4,27174],[43.1,27254],[41.2,27331],[41.2,27411],[41.2,27491],[41.2,27571],[36.4,27652],[21.8,27731],[20.5,27811],[20.5,27891],[20.5,27971],[20.5,28051],[28.6,28142],[42.9,28211],[46.6,28291],[49.7,28371],[49.7,28451],[49.7,28531],[49.7,28611],[49.7,28691],[49.7,28771],[49.6,28851],[49.4,28931],[49.4,29011],[49.4,29091],[49.4,29171],[49.4,29251],[49.4,29331],[50.4,29411],[52.3,29491],[52.3,29571],[52.3,29651],[52,29731]]",652.4509,652.4526,,,[],,,,652.4526,Partially,50,652.4531,,,[],,0,0,0,0,1,audio/Narrative13Situation2.wav,audio/Narrative13Situation2.wav,audio/Narrative13Situation2.wav,audio/Narrative13Situation2.wav,2,2,2,2,,,,,560.1327,620.1314,,,,,,,,,,,,,,,,,,,,,,,,,,,,,,,,,
,,,,,66231fc6e1ecba676935943a,2025-07-07_21h54.52.370,group3.4_multiperson,2023.2.2,Win32,100,686c2ebf0248f13bef9af11f,686c96726b35da046c5f6f4a,,,,,,,,,,,,,,,,,,,,,,,,,,,,,652.4532,2,audio/Narrative6Situation1.wav,654.4603,,654.4603,681.02,"[[48.5,1120],[47,1199],[46.8,1279],[46.8,1360],[46.8,1440],[49.5,1520],[49.7,1600],[49.7,1680],[49.7,1759],[49.7,1840],[49.7,1919],[49.7,2000],[49.7,2080],[49.3,2159],[49.3,2239],[49.3,2319],[49.3,2399],[49.3,2480],[49.3,2560],[49.3,2639],[49.3,2720],[49.3,2800],[49.3,2879],[49.3,2959],[49.3,3040],[49.3,3119],[49.3,3200],[49.3,3280],[49.3,3360],[49.3,3440],[49.3,3519],[49.3,3599],[49.3,3679],[49.3,3759],[49.3,3839],[49.3,3919],[49.3,4000],[49.3,4080],[49.3,4159],[49.3,4240],[49.3,4319],[49.3,4399],[49.3,4480],[44.6,4560],[31.4,4640],[31.1,4720],[31.1,4805],[30.6,4885],[27.9,4967],[27.9,5054],[27.9,5134],[24.6,5219],[14.6,5315],[15,5390],[45,5475],[50.3,5554],[50.9,5634],[51.6,5714],[52.8,5790],[52.8,5869],[52.8,5949],[60.2,6034],[71.1,6110],[76,6199],[77.6,6279],[97.2,6840],[97,6919],[97,6999],[96.5,7079],[94.6,7159],[88.9,7239],[84.7,7319],[77.5,7399],[72.5,7479],[72.6,7559],[87,7639],[97.9,7720],[100,7799],[98.1,7879],[86.6,7959],[83,8040],[78.4,8122],[73,8439],[100,8519],[100,8599],[100,8679],[99.6,8769],[97.3,8849],[96,8929],[95.7,9009],[93.4,9089],[91.4,9169],[87.2,9249],[82.4,9330],[78.4,9409],[77.3,9489],[75.8,9569],[82.5,9649],[88.5,9729],[88.5,9812],[89.1,9889],[89.2,9969],[69.8,10055],[62.4,10129],[57.7,10219],[68,10299],[80.9,10379],[82.7,10462],[92,10542],[100,10623],[100,10699],[100,10779],[85.1,10862],[80.3,10942],[78.5,11019],[75.8,11103],[68.4,11182],[63.4,11259],[58.4,11342],[54.6,11822],[59.2,11902],[59.2,11979],[59.2,12059],[52.7,12144],[49.3,12229],[49.3,12309],[49.3,12394],[49.3,12469],[43.6,12549],[30.4,12629],[21.5,12709],[21.5,12789],[21,12869],[21,12949],[21,13029],[21,13109],[11.9,13189],[5.8,13269],[23.9,13349],[37.1,13429],[41,13509],[46.4,13589],[51.3,13669],[51.6,13749],[51.6,13829],[51.6,13909],[51.4,13989],[50.6,14069],[50,14149],[49.7,14229],[49.1,14309],[49.1,14389],[49.1,14469],[49.3,14550],[53.6,14629],[64.4,14709],[69,14789],[79.8,14869],[89.9,14949],[99.4,15029],[100,15109],[92.2,15190],[67.8,15269],[64.2,15349],[64,15430],[60.5,15509],[54.5,15589],[51.8,15669],[49.6,15749],[48.6,15829],[48.5,15909],[48.5,15989],[48.5,16069],[49,16149],[50.9,16229],[51.5,16309],[51.5,16389],[51.5,16469],[51.5,16549],[51.4,16629],[50.9,16709],[50.4,16789],[50.1,16869],[50.1,16949],[50.1,17029],[50.1,17109],[50.1,17189],[50.2,17269],[51,17349],[51,17429],[51,17509],[51,17589],[51,17669],[51,17749],[51,17829],[51,17909],[51,17989],[50.9,18069],[50.6,18149],[50.6,18229],[50.4,18309],[50.3,18389],[50.3,18469],[50.1,18549],[50.1,18629],[50.1,18709],[50.1,18789],[50.1,18869],[50.4,18949],[51.3,19029],[51.6,19109],[51.6,19189],[51.6,19269],[51.5,19349],[50.6,19429],[49.4,19509],[47.6,19589],[45.5,19669],[44.6,19754],[44.6,19829],[44.6,19909],[44.6,19989],[13.2,20475],[15.4,20549],[15.4,20629],[15.4,20714],[17.5,20804],[36.1,20884],[50.2,21279],[51.6,21359],[51.8,21519],[50.7,21599],[50.7,21679],[50.2,21759],[50.1,21839],[52.1,21919],[52.9,21999],[54.5,22079],[54.5,22159],[54.5,22239],[54.5,22319],[54.5,22399],[52.7,22479],[49.6,22559],[46.7,22639],[44.6,22719],[42.5,22799],[41.2,22879],[41.2,22960],[44.3,23039],[51.6,23119],[58.9,23199],[69.3,23279],[83.9,23359],[90.6,23439],[95.3,23519],[97.3,23599],[94.2,23679],[65.6,23759],[61.7,23844],[60.5,23924],[59.2,24004],[58.4,24085],[55.8,24184],[48.9,24264],[43,24340],[40.9,24419],[41.1,24504],[47.6,24584],[51.4,24664],[56.7,24744],[63.8,24824],[68.6,24901],[74.2,24979],[76.3,25062],[77.1,25139],[83.3,25222],[89.6,25300],[91.9,25382],[92.1,25459],[92.1,25539],[92.1,25619],[92.1,25699],[92.6,25779],[95.7,25862],[95.7,25939],[95.6,26019],[94.6,26099],[80.3,26182],[79.8,26259],[81.6,26342],[85.8,26422],[86.8,26502]]",681.0202,683.5198,92.91666349,1.7451,"[{""rating"":91.66666666666667,""responseTime"":1.4266000000238819},{""rating"":92.91666348775227,""responseTime"":1.7451000000238537}]",space,1.9708,,683.5199,Not at all,0,683.5223,,,[],,0,1,1,1,1,audio/Narrative7Situation1.wav,audio/Narrative8Situation1.wav,audio/Narrative5Situation1.wav,audio/Narrative6Situation1.wav,2,5,5,2,,,,,,,,,,,,,,,,,,,,,,,,,,,,,,,,,,,,,,,
,,,,,66231fc6e1ecba676935943a,2025-07-07_21h54.52.370,group3.4_multiperson,2023.2.2,Win32,100,686c2ebf0248f13bef9af11f,686c96726b35da046c5f6f4a,,,,,,,,,,,,,,,,,,,,,,,,,,,,,683.5225,2,audio/Narrative6Situation2.wav,686.5296,,686.5297,715.024,"[[999,0],[999,79],[999,159],[999,239],[999,319],[999,399],[999,484],[999,559],[999,639],[999,720],[999,799],[999,879],[999,959],[999,1042],[999,1122],[999,1202],[999,1280],[999,1360],[999,1440],[999,1519],[999,1602],[999,1679],[999,1759],[999,1839],[999,1919],[999,1999],[999,2080],[999,2160],[999,2242],[999,2320],[999,2399],[999,2479],[999,2560],[999,2640],[999,2719],[999,2799],[999,2894],[999,2975],[50.5,3054],[50.8,3134],[51.8,3220],[51.8,3299],[51.8,3382],[52.6,3465],[57.4,3544],[84,3939],[84.1,4019],[84.9,4099],[86.4,4179],[89.1,4261],[91.7,4340],[92.7,4420],[95.6,4500],[96.9,4579],[97.3,4660],[97.3,4739],[97.3,4820],[97.3,4899],[97.3,4979],[96.8,5060],[95.6,5139],[94.4,5219],[94,5299],[93.4,5379],[92.6,5460],[90.8,5539],[85.3,5619],[85.4,5700],[92.9,5780],[94.7,5859],[95.3,5940],[95.7,6019],[96.1,6099],[96.1,6179],[98.3,6259],[99.3,6339],[99.3,6419],[99.3,6499],[99.3,6579],[99.3,6659],[99.3,6739],[99.3,6819],[99.3,6899],[99.3,6979],[99.3,7069],[99.3,7145],[99.5,7224],[99.5,7305],[99.5,7384],[99.5,7464],[99.5,7554],[98.6,7644],[98.1,7724],[98.1,7799],[98.1,7884],[98.1,7964],[98.1,8039],[98.1,8123],[98.1,8199],[98.1,8279],[98.1,8359],[98.1,8439],[98.1,8519],[98.1,8599],[98.4,8679],[98.4,8759],[98.4,8839],[98.4,8920],[98.4,8999],[98.4,9079],[98.4,9159],[98.4,9239],[98.4,9319],[98.4,9399],[98.4,9479],[98.4,9559],[98.4,9639],[98.3,9719],[98,9799],[97.8,9879],[97.8,9959],[97.8,10039],[97.8,10119],[97.8,10199],[97.8,10279],[97.8,10359],[97.8,10439],[97.9,10519],[98.2,10599],[99,10684],[99,10759],[99,10839],[99,10919],[99,10999],[99,11079],[99,11159],[99,11239],[99,11319],[99,11399],[99,11479],[99,11559],[99,11639],[99,11719],[99,11799],[99,11879],[99,11959],[99,12039],[99,12119],[99,12202],[99,12279],[99,12359],[99,12439],[99,12519],[99,12599],[99,12679],[99,12759],[99,12840],[99,12919],[99,12999],[99,13084],[99,13159],[99,13239],[99,13319],[99,13399],[99,13479],[99,13559],[99,13644],[99,13719],[99,13799],[99,13879],[99,13959],[99,14039],[99,14119],[99,14199],[99,14279],[99,14359],[99,14442],[99,14519],[99,14599],[99,14679],[99,14759],[99,14839],[99,14919],[99,14999],[99,15079],[99,15159],[99,15239],[99,15319],[99,15399],[99,15479],[99,15559],[99,15639],[99,15719],[99,15799],[99,15879],[99,15959],[99,16039],[99,16119],[99,16199],[99,16279],[99,16359],[99,16439],[99,16519],[99,16599],[99,16679],[99,16759],[99,16839],[99,16919],[99,16999],[99,17079],[99,17159],[99,17239],[99,17319],[99,17399],[99,17479],[99,17559],[99,17639],[99,17719],[99,17799],[99,17879],[99,17959],[99,18039],[99,18119],[99,18199],[99,18279],[99,18359],[99,18439],[99,18519],[99,18599],[99,18679],[99,18759],[99,18839],[99,18919],[99,18999],[99,19079],[99,19159],[99,19239],[99,19324],[99,19399],[99,19479],[99,19559],[99,19639],[99,19719],[99,19799],[99,19879],[99,19959],[99,20043],[99,20119],[99,20199],[99,20279],[99,20359],[99,20439],[99,20519],[99,20599],[99,20679],[99,20759],[99,20839],[99,20919],[99,20999],[99,21079],[99,21159],[99,21239],[99,21319],[99,21399],[99,21479],[99,21559],[99,21639],[99,21719],[99,21799],[99,21879],[99,21959],[99,22039],[99,22119],[99,22199],[99,22279],[99,22359],[99,22439],[99,22519],[99,22599],[99,22679],[99,22759],[99,22839],[99,22919],[99,22999],[99,23079],[99,23159],[99,23239],[99,23319],[99,23399],[99,23479],[99,23559],[99,23639],[99,23719],[99,23799],[99,23879],[99,23959],[99,24039],[99,24119],[99,24199],[99,24279],[99,24359],[99,24439],[99,24519],[99,24599],[99,24679],[99,24759],[99,24844],[99,24919],[99,24999],[99,25079],[99,25159],[99,25239],[99,25319],[99,25399],[99,25479],[99,25559],[99,25639],[99,25723],[99,25799],[99,25879],[99,25959],[99,26039],[99,26119],[99,26199],[99,26279],[99,26359],[99,26439],[99,26519],[99,26599],[99,26679],[99,26759],[99,26839],[99,26919],[99,26999],[99,27079],[99,27159],[99,27239],[99,27319],[99,27399],[99,27479],[99,27559],[99,27639],[99,27719],[99,27799],[99,27879],[99,27959],[99,28039],[99,28123],[99,28203],[99,28289],[99,28379],[99,28463]]",715.0241,716.6391,98.95833333,0.6594,"[{""rating"":98.95833333333333,""responseTime"":0.6594000000059168}]",space,1.0919,,716.6391,Partially,50,716.6407,,,[],,0,2,2,2,1,audio/Narrative7Situation2.wav,audio/Narrative8Situation2.wav,audio/Narrative5Situation2.wav,audio/Narrative6Situation2.wav,3,3,3,3,,,,,,,,,,,,,,,,,,,,,,,,,,,,,,,,,,,,,,,
,,,,,66231fc6e1ecba676935943a,2025-07-07_21h54.52.370,group3.4_multiperson,2023.2.2,Win32,100,686c2ebf0248f13bef9af11f,686c96726b35da046c5f6f4a,,,,,,,,,,,,,,,,,,,,,,,,,,,,,716.6408,2,audio/Narrative6Situation3.wav,721.6487,,721.6487,734.2486,"[[97,1203],[94.5,1280],[94.5,1360],[94.5,1440],[94.7,1520],[99.5,1599],[99.5,1680],[99.5,1760],[99.5,1840],[99.5,1920],[99.5,2000],[99.5,2080],[99.5,2160],[99.5,2240],[99.5,2320],[99.5,2399],[99.5,2479],[99.5,2559],[99.5,2639],[99.5,2720],[99.5,2799],[99.5,2880],[99.5,2959],[99.5,3040],[99.5,3120],[99.5,3200],[99.5,3280],[99.5,3359],[99.5,3440],[99.5,3524],[99.5,3599],[99.5,3680],[99.5,3762],[99.5,3840],[99.5,3922],[99.5,4000],[99.5,4079],[99.5,4163],[99.5,4240],[99.5,4319],[99.5,4399],[99.5,4480],[99.5,4559],[99.5,4639],[99.5,4719],[99.5,4800],[99.5,4880],[99.5,4959],[99.5,5039],[99.5,5120],[99.5,5200],[99.5,5279],[99.5,5360],[99.5,5439],[99.5,5519],[99.5,5599],[99.5,5679],[99.5,5759],[99.5,5839],[99.5,5919],[99.5,6000],[99.5,6079],[99.5,6159],[99.5,6240],[99.5,6324],[99.5,6399],[99.5,6479],[99.5,6559],[99.5,6639],[99.5,6719],[99.5,6799],[99.5,6879],[99.5,6960],[99.5,7039],[99.5,7119],[99.5,7199],[99.5,7279],[99.5,7359],[99.5,7439],[99.5,7520],[99.5,7599],[99.5,7679],[99.5,7759],[99.5,7839],[99.5,7919],[99.5,8002],[99.5,8079],[99.5,8159],[99.5,8240],[99.5,8320],[99.5,8399],[99.5,8479],[99.5,8559],[99.5,8640],[99.5,8719],[99.5,8799],[99.5,8879],[99.5,8964],[99.5,9039],[99.5,9120],[99.5,9204],[99.5,9279],[99.5,9360],[99.5,9439],[99.5,9522],[99.5,9599],[99.5,9679],[99.5,9762],[99.5,9839],[99.5,9919],[99.5,10000],[99.5,10079],[99.5,10163],[99.5,10239],[99.5,10320],[99.5,10400],[99.5,10479],[99.5,10559],[99.5,10639],[99.5,10719],[99.5,10802],[99.5,10879],[99.5,10959],[99.5,11039],[99.5,11119],[99.5,11202],[99.5,11280],[99.5,11359],[99.5,11439],[99.5,11519],[99.5,11599],[99.5,11679],[99.5,11759],[99.5,11844],[99.5,11919],[99.5,12000],[99.5,12084],[99.5,12159],[99.5,12242],[99.5,12320],[99.5,12399],[99.5,12479],[99.5,12559]]",734.2488,735.5885,99.47916667,0.4723,"[{""rating"":99.47916666666667,""responseTime"":0.47229999998205585}]",space,0.8104,,735.5886,Not at all,0,735.5899,,,[],,0,3,3,3,1,audio/Narrative7Situation3.wav,audio/Narrative8Situation3.wav,audio/Narrative5Situation3.wav,audio/Narrative6Situation3.wav,8,4,3,5,,,,,,,,,,,,,,,,,,,,,,,,,,,,,,,,,,,,,,,
,,,,,66231fc6e1ecba676935943a,2025-07-07_21h54.52.370,group3.4_multiperson,2023.2.2,Win32,100,686c2ebf0248f13bef9af11f,686c96726b35da046c5f6f4a,,,,,,,,,,,,,,,,,,,,,,,,,,,,,735.5901,2,audio/Narrative6Situation4.wav,737.5985,,737.5986,750.2083,"[[61.5,2400],[55.1,2480],[54.8,2559],[54.8,2639],[54.8,2719],[54.8,2800],[54.8,2879],[53.5,2960],[53.4,3039],[53.4,3119],[53.4,3199],[53.4,3280],[53.4,3359],[53.4,3439],[52.8,3519],[52.5,3600],[52.4,3679],[52.4,3760],[52.4,3839],[74.7,4560],[75.7,4639],[75.9,4720],[76.8,4799],[76.8,4879],[77.5,4959],[82.7,5040],[84.9,5120],[84.9,5199],[84.9,5279],[85,5359],[85,5439],[87,5520],[87.7,5600],[88.5,5680],[89.8,5759],[92,5840],[92.4,5919],[92.4,6000],[92.4,6079],[92.4,6159],[94,6240],[95,6320],[95.3,6399],[95.3,6479],[95.3,6560],[95.2,6639],[94.9,6719],[94.9,6799],[94.9,6879],[94.9,6959],[94.6,7040],[94.4,7119],[94.4,7199],[94.4,7279],[94.4,7359],[94.4,7439],[94.4,7519],[94.4,7599],[94.4,7679],[94.4,7759],[94.4,7840],[94.4,7919],[94.4,7999],[94.4,8079],[94.4,8159],[94.4,8239],[94.4,8319],[94.4,8399],[94.4,8479],[94.4,8559],[94.4,8639],[94.4,8719],[94.4,8799],[94.4,8879],[94.4,8959],[94.4,9039],[94.4,9119],[94.4,9199],[94.4,9279],[94.4,9360],[94.4,9439],[94.4,9519],[94.4,9599],[94.4,9679],[94.4,9759],[94.4,9839],[94.4,9919],[94.4,9999],[94.4,10079],[94.4,10159],[94.4,10239],[94.4,10319],[94.4,10399],[94.4,10479],[94.4,10559],[94.4,10639],[95.3,10720],[96.3,10799],[96.3,10879],[96.3,10959],[96.6,11039],[99,11119],[99,11199],[99,11279],[99,11359],[99,11439],[99,11519],[99,11599],[99,11679],[99,11759],[99,11839],[99,11919],[99,11999],[99,12079],[99,12159],[99,12239],[99,12319],[99,12399],[99,12479],[99,12561]]",750.2085,751.8588,99.06250636,0.5242,"[{""rating"":99.06250635782878,""responseTime"":0.5241999999880136}]",space,1.1196,,751.8588,Definitely yes,100,751.8603,,,[],,0,4,4,4,1,audio/Narrative7Situation4.wav,audio/Narrative8Situation4.wav,audio/Narrative5Situation4.wav,audio/Narrative6Situation4.wav,3,3,1,2,,,,,,,,,,,,,,,,,,,,,,,,,,,,,,,,,,,,,,,
,,,,,66231fc6e1ecba676935943a,2025-07-07_21h54.52.370,group3.4_multiperson,2023.2.2,Win32,100,686c2ebf0248f13bef9af11f,686c96726b35da046c5f6f4a,,,,,,,,,,,,,,,,,,,,,,,,,,,,,751.8604,2,audio/Narrative6Situation5.wav,753.8685,,753.8686,761.8183,"[[98.5,1359],[94.9,1439],[91.8,1519],[91.8,1599],[91.8,1679],[92.4,1759],[93.8,1839],[93.8,1919],[93.8,1999],[93.8,2079],[93.8,2159],[93.8,2239],[93.8,2320],[93.8,2404],[93.8,2484],[93.8,2564],[93.8,2654],[93.8,2734],[93.8,2819],[93.8,2899],[93.8,2979],[92.9,3064],[92.9,3139],[92.9,3219],[92.8,3299],[92.8,3379],[92.8,3459],[92.5,3544],[92.3,3619],[92.3,3699],[92.3,3779],[92.3,3859],[92.3,3939],[92.3,4019],[92.3,4099],[92.3,4179],[92.3,4259],[92.3,4339],[92.3,4419],[92.3,4499],[92.1,4582],[92.1,4659],[91.9,4739],[91.8,4819],[91.8,4899],[91.8,4979],[91.8,5059],[91.8,5139],[91.8,5219],[91.8,5299],[91.8,5379],[91.8,5459],[91.8,5539],[91.3,5619],[90.9,5699],[90.9,5779],[90.9,5859],[90.9,5939],[90.9,6024],[90.8,6099],[90.7,6183],[90.7,6259],[90.7,6339],[90.7,6419],[90.7,6499],[90.7,6579],[90.5,6659],[90.4,6739],[90.2,6819],[90.2,6899],[90.2,6979],[90.2,7059],[90.2,7139],[90.2,7219],[90.2,7299],[90.2,7379],[90.2,7459],[90.2,7539],[90.2,7619],[91,7703],[92.9,7779],[92.9,7862],[92.9,7939]]",761.8183,763.5915,97.70833651,1.1442,"[{""rating"":96.97917302449544,""responseTime"":0.79849999999999},{""rating"":97.70833651224773,""responseTime"":1.1441999999881318}]",space,1.2403,,763.5915,Not at all,0,763.5934,,,[],,0,5,5,5,1,audio/Narrative7Situation5.wav,audio/Narrative8Situation5.wav,audio/Narrative5Situation5.wav,audio/Narrative6Situation5.wav,5,2,5,2,,,,,,,,,,,,,,,,,,,,,,,,,,,,,,,,,,,,,,,
,,,,,66231fc6e1ecba676935943a,2025-07-07_21h54.52.370,group3.4_multiperson,2023.2.2,Win32,100,686c2ebf0248f13bef9af11f,686c96726b35da046c5f6f4a,,,,,,,,,,,,,,,,,,,,,,,,,,,,,763.5936,2,audio/Narrative6Situation6.wav,765.598,,765.5981,776.6677,"[[91.3,165],[90.7,244],[90.7,319],[90.7,399],[90.7,479],[90.7,559],[90.7,639],[90.7,720],[90.7,799],[90.3,880],[89.7,959],[88.7,1041],[88.2,1119],[88.2,1199],[88.2,1279],[88.2,1359],[88.3,1439],[88.4,1519],[88.5,1599],[88.5,1679],[88.5,1759],[88.5,1839],[88.5,1919],[88.5,1999],[88.5,2079],[88.5,2159],[88.5,2239],[88.5,2319],[88.5,2399],[88.5,2479],[88.5,2559],[88.5,2639],[88.5,2720],[88.5,2799],[88.5,2879],[88.5,2959],[88.5,3039],[88.5,3119],[88.1,3204],[87.9,3279],[87.9,3359],[87.9,3442],[87.9,3519],[87.9,3599],[87.9,3679],[87.9,3759],[87.9,3839],[90.4,3919],[90.8,3999],[90.8,4079],[90.8,4159],[90.8,4240],[90.8,4319],[90.8,4399],[90.8,4479],[90.8,4559],[90.8,4642],[90.8,4719],[90.8,4799],[90.8,4879],[90.8,4959],[90.8,5039],[90.8,5119],[90.8,5199],[91.1,5279],[94.3,5365],[94.6,5439],[94.6,5519],[94.6,5599],[94.6,5679],[94.8,5759],[94.8,5839],[94.8,5919],[96.4,6005],[97.5,6089],[97.5,6169],[97.5,6253],[97.5,6329],[97.5,6409],[97.5,6494],[97.5,6579],[97.5,6659],[97.5,6749],[97.5,6829],[97.5,6909],[97.5,6989],[97.5,7071],[97.5,7149],[97.5,7229],[97.5,7309],[97.5,7389],[97.5,7469],[97.5,7549],[97.5,7629],[97.5,7709],[97.5,7789],[97.5,7869],[97.5,7949],[97.5,8029],[97.5,8109],[97.5,8189],[97.5,8269],[97.5,8349],[97.5,8429],[97.5,8512],[97.5,8591],[97.5,8679],[97.5,8771],[97.5,8849],[97.5,8929],[97.5,9009],[97.5,9094],[97.5,9176],[97.5,9264],[97.5,9344],[97.5,9419],[97.5,9509],[97.3,9589],[97.3,9669],[97.3,9749],[97.3,9829],[97.3,9909],[97.3,9989],[97.3,10069],[97.3,10149],[97.3,10229],[97.4,10312],[98.9,10392],[99.8,10472],[99.8,10549],[99.8,10630],[99.8,10709],[99.8,10789],[99.8,10869],[99.8,10952],[99.8,11029]]",776.6679,777.4378,99.79166985,0.5228,"[{""rating"":99.79166984558105,""responseTime"":0.5228000000118982}]",space,0.2537,,777.4378,Partially,50,777.4392,,,[],,0,6,6,6,1,audio/Narrative7Situation6.wav,audio/Narrative8Situation6.wav,audio/Narrative5Situation6.wav,audio/Narrative6Situation6.wav,3,2,3,2,,,,,,,,,,,,,,,,,,,,,,,,,,,,,,,,,,,,,,,
,,,,,66231fc6e1ecba676935943a,2025-07-07_21h54.52.370,group3.4_multiperson,2023.2.2,Win32,100,686c2ebf0248f13bef9af11f,686c96726b35da046c5f6f4a,,,,,,,,,,,,,,,,,,,,,,,,,,,,,777.4394,2,audio/Narrative6Situation7.wav,782.4477,,782.4477,807.2971,"[[95.9,1203],[95.2,1281],[95.2,1360],[95.2,1439],[96.5,1520],[97.1,1602],[97.1,1680],[97.1,1760],[97.1,1839],[97.6,1919],[97.6,1999],[97.6,2079],[97.6,2160],[97.6,2240],[97.6,2319],[97.6,2399],[97.6,2479],[97.6,2559],[97.6,2639],[97.6,2724],[97.6,2799],[97.5,2880],[97.5,2960],[97.2,3039],[96.9,3119],[96.6,3199],[95.9,3279],[92.4,3370],[90.8,3449],[90.8,3529],[90.5,3610],[77.1,3689],[59.5,3769],[59.3,3849],[59.6,3929],[60.7,4010],[58.4,4089],[55.9,4169],[55.9,4250],[58.8,4329],[56.7,4410],[45,4489],[44.9,4569],[50.8,4649],[52.6,4729],[60.8,4809],[78.6,4889],[86.3,4969],[87.4,5049],[90.5,5129],[93,5209],[94.7,5289],[95.1,5370],[97.2,5450],[97.8,5529],[98.5,5609],[98.6,5689],[98.6,5769],[97.5,5849],[93.9,5929],[88.1,6009],[88.1,6089],[88.1,6169],[88.9,6250],[92,6329],[92.2,6409],[93.2,6489],[94.5,6569],[95.3,6650],[96.3,6729],[97.2,6809],[97.3,6889],[97.3,6969],[97.3,7049],[97.3,7129],[97.3,7209],[97.4,7289],[98,7369],[98,7449],[98,7529],[98,7609],[98,7689],[98,7769],[98,7849],[98,7929],[98,8009],[98,8089],[98,8169],[98,8249],[98,8329],[98,8409],[98,8489],[98,8569],[98,8649],[98,8729],[98,8809],[98,8889],[98,8969],[98,9049],[98,9129],[98,9209],[98,9289],[97.8,9369],[97.7,9449],[97.6,9529],[97.6,9609],[97.5,9689],[97.5,9769],[97.5,9849],[97.1,9929],[97.1,10009],[97.1,10089],[97.1,10169],[97.1,10249],[97.1,10329],[97.1,10409],[97.1,10489],[97.1,10569],[97.1,10649],[97.1,10729],[97.1,10809],[97.1,10889],[97.1,10969],[97.1,11049],[97.1,11129],[97.9,11209],[98.1,11289],[98.1,11369],[98.1,11449],[98.1,11529],[98.1,11609],[98.1,11689],[98.1,11769],[98.1,11849],[98,11929],[97.7,12009],[97.7,12089],[97.7,12169],[97.7,12249],[97.7,12329],[97.7,12409],[97.8,12489],[97.9,12569],[97.9,12649],[98,12729],[98,12809],[98,12889],[98,12969],[98,13049],[98,13129],[98,13209],[98,13289],[98,13369],[98,13449],[98,13529],[98,13609],[98,13689],[98,13769],[98,13849],[98,13929],[98,14009],[98,14089],[98,14169],[98,14249],[98,14329],[98,14409],[98,14489],[98,14569],[98,14649],[98,14729],[98,14809],[98,14889],[98,14969],[98,15049],[98,15129],[98,15209],[98,15289],[98,15374],[98,15454],[98,15540],[98,15624],[98,15709],[98,15789],[98,15869],[98,15949],[98,16029],[98,16112],[98,16189],[98,16269],[98,16349],[98,16429],[98,16509],[98,16589],[98,16669],[98,16749],[98,16829],[98,16909],[98,16989],[98,17069],[98,17149],[98,17229],[98,17312],[98,17389],[98,17469],[98,17549],[98,17629],[98,17709],[98,17789],[98,17869],[98,17949],[98,18032],[98,18109],[98,18189],[98,18269],[97.8,18349],[97.7,18429],[97.7,18509],[97.7,18589],[97.7,18669],[97.7,18749],[97.7,18829],[97.7,18909],[97.7,18994],[97.7,19079],[97.7,19159],[97.7,19249],[97.7,19330],[97.7,19409],[97.7,19489],[97.7,19579],[97.7,19659],[97.7,19745],[97.7,19819],[97.7,19899],[97.9,19979],[98.1,20059],[98.2,20139],[98.2,20219],[98.2,20299],[98.2,20379],[98.2,20459],[98.2,20539],[98.2,20619],[98.2,20699],[98,20782],[98,20862],[98,20939],[98,21019],[98,21099],[98,21179],[98,21259],[98,21339],[98,21419],[98,21499],[98,21579],[98,21659],[98,21739],[98,21819],[98,21899],[98,21979],[98,22059],[98.2,22139],[98.9,22225],[98.9,22299],[98.9,22379],[98.9,22459],[98.9,22539],[98.9,22623],[98.9,22699],[98.9,22779],[98.9,22859],[98.9,22939],[98.9,23019],[98.9,23099],[98.9,23179],[98.9,23259],[98.9,23339],[98.9,23419],[98.9,23501],[98.9,23580],[98.9,23659],[98.9,23739],[98.9,23819],[98.9,23899],[98.9,23982],[98.9,24059],[98.9,24139],[98.9,24219],[98.9,24299],[98.9,24379],[98.9,24459],[98.9,24541],[98.9,24619],[98.9,24699],[98.9,24779]]",807.2972,809.1871,98.75000318,0.6923,"[{""rating"":98.75000317891438,""responseTime"":0.6922999999820831}]",space,1.3666,,809.1871,Not at all,0,809.1884,,,[],,0,7,7,7,1,audio/Narrative7Situation7.wav,audio/Narrative8Situation7.wav,audio/Narrative5Situation7.wav,audio/Narrative6Situation7.wav,5,3,4,5,,,,,,,,,,,,,,,,,,,,,,,,,,,,,,,,,,,,,,,
,,,,,66231fc6e1ecba676935943a,2025-07-07_21h54.52.370,group3.4_multiperson,2023.2.2,Win32,100,686c2ebf0248f13bef9af11f,686c96726b35da046c5f6f4a,,,,,,,,,,,,,,,,,,,,,,,,,,,,,809.1885,2,audio/Narrative6Situation8.wav,814.1898,,814.1898,821.0471,"[[96.4,640],[97.1,720],[97.2,799],[97.2,879],[97.2,960],[97.2,1040],[97.2,1119],[97.2,1199],[97.2,1279],[97.2,1360],[97.4,1442],[97.6,1521],[97.7,1601],[97.7,1682],[97.7,1762],[97.7,1841],[97.7,1921],[97,2004],[96.6,2081],[96.4,2161],[96.4,2241],[96.4,2321],[96.4,2399],[96.4,2479],[96.3,2559],[96.3,2639],[96.3,2719],[96.3,2800],[96.3,2880],[96.3,2959],[96.3,3040],[96.3,3120],[96.3,3200],[96.4,3280],[96.9,3360],[97.1,3439],[97.2,3519],[97.2,3600],[97.2,3679],[97.2,3759],[97.2,3840],[97.2,3919],[97.2,3999],[97.2,4079],[97.2,4159],[97.2,4241],[97.3,4327],[97.6,4416],[97.6,4496],[97.6,4576],[97.6,4656],[97.6,4736],[97.6,4816],[97.6,4897],[97.6,4977],[97.6,5056],[97.6,5136],[97.6,5217],[97.6,5296],[97.8,5381],[97.8,5456],[97.8,5537],[97.8,5616],[97.8,5696],[97.8,5776],[97.8,5856],[97.6,5940],[97.3,6016],[96.7,6099],[95.9,6177],[95.6,6257],[95.1,6338],[94.4,6417],[90.8,6500],[88.1,6576],[84.2,6658],[80.1,6739],[78.7,6820]]",821.0472,830.2066,1.979168256,8.8004,"[{""rating"":50.20833810170492,""responseTime"":3.058700000017893},{""rating"":1.9791682561238588,""responseTime"":8.800400000005993}]",space,8.6434,,830.2066,Partially,50,830.208,,,[],,0,8,8,8,1,audio/Narrative7Situation8.wav,audio/Narrative8Situation8.wav,audio/Narrative5Situation8.wav,audio/Narrative6Situation8.wav,2,3,3,5,,,,,,,,,,,,,,,,,,,,,,,,,,,,,,,,,,,,,,,
,,,,,66231fc6e1ecba676935943a,2025-07-07_21h54.52.370,group3.4_multiperson,2023.2.2,Win32,100,686c2ebf0248f13bef9af11f,686c96726b35da046c5f6f4a,,,,,,,,,,,,,,,,,,,,,,,,,,,,,830.2081,2,audio/Narrative6Situation9.wav,834.2165,,834.2166,844.1568,"[[999,0],[999,79],[999,159],[999,244],[999,319],[999,399],[999,479],[47,562],[48.8,640],[48.8,720],[48.6,799],[48.6,879],[48.6,959],[48.6,1039],[48.6,1119],[48.6,1200],[48.6,1280],[48.6,1359],[48.6,1439],[48.6,1519],[48.6,1600],[48.1,1683],[47,1760],[44.4,1839],[43.9,1919],[43,1999],[42.9,2079],[42.9,2159],[42.9,2240],[42.9,2319],[41.5,2405],[38.1,2484],[28.6,2566],[23.8,2644],[23.8,2719],[23.8,2799],[23,2884],[22.3,2959],[20.2,3044],[17.9,3119],[9.1,3206],[3.6,3280],[3.2,3359],[3.2,3439],[3.2,3519],[3.2,3599],[3.2,3679],[3.2,3759],[3.2,3839],[3.2,3922],[3.2,3999],[3.2,4079],[3.2,4159],[3.2,4239],[3.2,4319],[3.2,4399],[3.2,4480],[3.2,4562],[3.2,4639],[3.2,4719],[3.2,4799],[3.2,4879],[3.2,4959],[4.7,5045],[7.1,5125],[7.1,5199],[6.9,5279],[5.8,5365],[4.3,5439],[3.3,5529],[1.8,5614],[1.7,5699],[1.7,5779],[1.7,5859],[1.7,5939],[1.7,6019],[1.7,6099],[1.7,6179],[1.7,6259],[1.7,6339],[1.7,6419],[1.7,6499],[1.7,6579],[1.7,6659],[1.7,6739],[1.7,6819],[1.7,6899],[1.7,6979],[1.4,7059],[1.1,7139],[0.6,7219],[0.2,7299],[0.2,7379],[0.2,7459],[0.2,7539],[0.2,7619],[0.2,7699],[0.2,7779],[0.2,7859]]",844.1569,845.9062,0,1.5653,"[{""rating"":1.8749992052714048,""responseTime"":0.9924000000058868},{""rating"":0,""responseTime"":1.5652999999820167}]",space,1.2227,,845.9062,Definitely yes,100,845.9077,,,[],,0,9,9,9,1,audio/Narrative7Situation9.wav,audio/Narrative8Situation9.wav,audio/Narrative5Situation9.wav,audio/Narrative6Situation9.wav,2,3,3,4,,,,,,,,,,,,,,,,,,,,,,,,,,,,,,,,,,,,,,,
,,,,,66231fc6e1ecba676935943a,2025-07-07_21h54.52.370,group3.4_multiperson,2023.2.2,Win32,100,686c2ebf0248f13bef9af11f,686c96726b35da046c5f6f4a,,,,,,,,,,,,,,,,,,,,,,,,,,,,,845.9079,2,audio/Narrative5Situation1.wav,850.9161,,850.9161,864.1958,"[[6.8,720],[14.1,799],[43.1,880],[46.9,959],[46.9,1039],[46.9,1119],[46.9,1199],[46.9,1279],[48.8,1365],[48.9,1439],[48.9,1519],[48.9,1600],[48.9,1679],[48.5,1760],[48.1,1840],[48.1,1919],[47.6,2006],[47.2,2080],[46.7,2169],[46,2249],[45.7,2330],[44.9,2409],[44.4,2489],[44.2,2569],[43.9,2649],[43.5,2730],[43.1,2809],[42.8,2889],[100,3773],[100,3852],[100,3929],[100,4012],[100,4089],[100,4169],[100,4249],[100,4330],[98.2,4410],[97,4490],[94.6,4569],[92.5,4650],[92.4,4729],[92.4,4809],[94.3,4889],[100,5375],[99.9,5454],[99.9,5534],[99.9,5628],[99.9,5704],[99.9,5789],[99.9,5869],[97,5954],[96,6039],[96,6119],[96,6200],[99.6,6842],[99.4,6919],[99.4,6999],[99.4,7079],[99.4,7159],[100,7239],[97.8,8123],[98.5,8199],[98.5,8284],[99.5,8364],[100,8444],[100,8519],[100,8604],[98.4,9799],[98.4,9879],[98.2,9959],[98,10039],[98,10119],[98,10199],[98.1,10282],[99.2,10359],[100,10442],[100,10522],[100,10599],[100,10679],[83.2,11639],[88,11719],[98.4,11799],[99.9,11879],[99.9,11959],[99.9,12039],[99.9,12119],[99.9,12199],[99.9,12279],[99.9,12359],[99.9,12439],[99,12519],[99,12599],[99,12679],[99,12759],[99,12839],[99,12920],[99,12999],[99,13079],[99,13159],[99,13240]]",864.1959,866.5861,52.18749841,2.3854,"[{""rating"":52.18749841054281,""responseTime"":2.385400000005916}]",space,0.5339,,866.5864,Definitely yes,100,866.5874,,,[],,0,10,10,10,1,audio/Narrative8Situation1.wav,audio/Narrative7Situation1.wav,audio/Narrative6Situation1.wav,audio/Narrative5Situation1.wav,5,2,2,5,,,,,,,,,,,,,,,,,,,,,,,,,,,,,,,,,,,,,,,
,,,,,66231fc6e1ecba676935943a,2025-07-07_21h54.52.370,group3.4_multiperson,2023.2.2,Win32,100,686c2ebf0248f13bef9af11f,686c96726b35da046c5f6f4a,,,,,,,,,,,,,,,,,,,,,,,,,,,,,866.5878,2,audio/Narrative5Situation2.wav,869.596,space,869.596,899.0556,"[[999,0],[999,79],[999,159],[999,239],[999,319],[999,399],[999,479],[999,559],[50.6,639],[50.6,720],[50.6,800],[50.6,879],[50.6,959],[50.6,1039],[50.6,1119],[53.6,1200],[57,1279],[61.6,1360],[63,1439],[70.6,1519],[80.1,1599],[86.3,1679],[91.1,1759],[91.4,1839],[91.7,1919],[94.2,1999],[96.9,2079],[97.9,2159],[97.9,2239],[90.4,2319],[74.4,2399],[62.2,2479],[59.3,2559],[54.4,2639],[49.8,2719],[48.9,2799],[55.9,2879],[74.9,2959],[85.9,3039],[88.7,3123],[91.9,3199],[93.2,3279],[95.6,3359],[96,3439],[90.9,3519],[84.3,3599],[81.6,3679],[77.5,3759],[73.8,3839],[67.8,3919],[62.2,3999],[56.1,4079],[52.9,4159],[51.5,4239],[53.4,4319],[65.4,4399],[73.8,4479],[80.5,4559],[85.2,4639],[89,4719],[90.9,4799],[93.4,4879],[98.1,4960],[99.4,5039],[99.4,5119],[99.3,5200],[97.5,5279],[96.5,5359],[95.9,5439],[95.6,5519],[94.4,5599],[93.9,5679],[93.9,5759],[93.9,5839],[93.9,5919],[93,6000],[92.1,6079],[91.3,6159],[90.9,6239],[90.7,6319],[90.7,6399],[90.7,6479],[90.7,6559],[90.7,6639],[90.7,6719],[90.7,6799],[90.7,6879],[90.7,6959],[90.7,7039],[90.7,7119],[90.7,7199],[90.7,7279],[90.7,7359],[90.5,7439],[90.5,7519],[89.7,7599],[76.4,7680],[62.3,7759],[59,7843],[55.8,7919],[55.8,7999],[55.8,8080],[55.8,8159],[55.8,8239],[58.1,8319],[59.4,8399],[59.4,8480],[59.4,8559],[58.6,8639],[58.2,8719],[57.9,8799],[57.4,8879],[56.9,8959],[56.1,9039],[55.3,9119],[54.8,9199],[54.1,9279],[63.2,9359],[90.5,9439],[98.9,9919],[97.5,9999],[97.3,10079],[97.3,10159],[97.3,10239],[89,10320],[86.8,10404],[88.4,10485],[93.4,10584],[98.2,10659],[99.5,10739],[99.5,10819],[99.5,10899],[99.1,10979],[98.8,11059],[98.8,11139],[98.8,11219],[98.8,11299],[98.8,11379],[98.8,11459],[98.8,11539],[99.3,11619],[99.3,11699],[99.5,11779],[99.8,11859],[99.8,11939],[99.8,12019],[99.8,12099],[99.8,12179],[99.8,12259],[99.8,12339],[99.8,12419],[99.8,12499],[99.8,12579],[99.8,12659],[99.8,12739],[99.8,12819],[99.8,12899],[99.8,12979],[99.8,13059],[99.8,13139],[99.8,13219],[99.8,13299],[99.8,13379],[99.8,13460],[99.8,13539],[99.8,13619],[99.8,13699],[99.8,13779],[99.8,13859],[99.8,13939],[99.8,14019],[99.8,14099],[99.8,14179],[99.8,14259],[99.8,14339],[99.8,14419],[99.8,14499],[99.8,14579],[99.8,14659],[99.8,14739],[99.8,14819],[99.8,14899],[99.8,14979],[99.8,15059],[99.8,15139],[99.8,15219],[99.8,15299],[99.8,15379],[99.8,15459],[99.8,15539],[99.8,15619],[99.8,15699],[99.6,15779],[99.6,15859],[99.3,15939],[99.2,16019],[99.2,16099],[99.2,16179],[99.2,16259],[99.1,16339],[99.1,16419],[99.1,16499],[99.1,16579],[99.1,16659],[99.1,16739],[99.1,16819],[99.1,16899],[99.1,16979],[99.1,17059],[99.1,17139],[99.1,17219],[99.1,17299],[99.1,17379],[99.1,17459],[99.1,17539],[98.9,17619],[98.9,17699],[98.9,17779],[98.9,17859],[98.9,17939],[98.9,18019],[98.9,18099],[98.9,18179],[98.9,18259],[98.9,18339],[98.9,18419],[98.9,18499],[98.9,18579],[98.9,18659],[98.9,18739],[98.9,18819],[98.9,18899],[98.9,18979],[98.9,19059],[98.9,19139],[98.9,19219],[98.9,19299],[98.9,19379],[98.9,19459],[98.9,19539],[98.9,19619],[98.9,19699],[98.9,19779],[98.9,19859],[98.9,19939],[98.9,20019],[98.9,20099],[98.9,20179],[98.9,20259],[98.9,20339],[98.9,20419],[98.9,20499],[98.9,20579],[98.9,20659],[98.9,20739],[98.9,20819],[98.9,20899],[98.9,20979],[98.6,21059],[98.4,21144],[98.3,21224],[98.3,21304],[98.3,21384],[98.3,21463],[98.3,21550],[98.3,21639],[98.3,21719],[98.3,21809],[98.3,21889],[98.3,21969],[98.3,22049],[98.3,22129],[98.3,22209],[98.3,22289],[98.3,22369],[98.3,22449],[98.3,22533],[98.3,22610],[98.3,22689],[98.3,22769],[98.3,22849],[98.3,22929],[98.3,23009],[98.3,23089],[98.1,23171],[98,23249],[97.6,23331],[97.6,23409],[97.6,23489],[97.6,23569],[97.6,23649],[97.6,23731],[97.6,23809],[97.6,23889],[97.6,23969],[97.6,24051],[97.6,24129],[97.6,24209],[97.6,24289],[98.2,24369],[98.4,24449],[98.4,24529],[98.4,24609],[98.4,24689],[98.4,24769],[98.4,24849],[98.4,24929],[98.4,25009],[98.4,25089],[98.4,25173],[98.4,25249],[98.4,25329],[98.4,25409],[99.4,25489],[100,25574],[100,25649],[100,25733],[100,25808],[100,25889],[100,25969],[100,26049],[99.9,26131],[99.4,26209],[98.1,26292],[97.5,26372],[96.5,26450],[95.9,26532],[95.2,26609],[95.1,26689],[95.3,26770],[96.9,26849],[97.6,26929],[97.7,27009],[97.9,27092],[98.2,27169],[98.2,27249],[98.4,27329],[98.4,27408],[98.4,27489],[98.4,27568],[98.4,27649],[98.4,27733],[98.4,27808],[98.4,27890],[98.8,27969],[98.9,28054],[99.2,28144],[99.2,28223],[99.2,28299],[99.2,28384],[99.2,28459],[99.2,28543],[99.2,28623],[99.2,28703],[99.2,28783],[99.2,28864],[99.2,28943],[99.2,29023],[99.2,29113],[99.2,29199],[99.2,29278],[99.2,29359],[99.2,29439]]",899.0558,899.9851,99.58333969,0.6724,"[{""rating"":99.58333969116211,""responseTime"":0.6723999999761645}]",space,0.4023,,899.9852,Not at all,0,899.9867,,,[],,0,11,11,11,1,audio/Narrative8Situation2.wav,audio/Narrative7Situation2.wav,audio/Narrative6Situation2.wav,audio/Narrative5Situation2.wav,3,3,3,3,0.1141,,,,,,,,,,,,,,,,,,,,,,,,,,,,,,,,,,,,,,
,,,,,66231fc6e1ecba676935943a,2025-07-07_21h54.52.370,group3.4_multiperson,2023.2.2,Win32,100,686c2ebf0248f13bef9af11f,686c96726b35da046c5f6f4a,,,,,,,,,,,,,,,,,,,,,,,,,,,,,899.987,2,audio/Narrative5Situation3.wav,902.9978,,902.9978,916.895,"[[98.6,797],[98.5,880],[98.5,957],[98.5,1041],[98.5,1121],[98.5,1197],[98.5,1277],[98.5,1357],[98.5,1437],[98.5,1517],[98.5,1597],[98.5,1677],[98.5,1757],[98.5,1836],[98.5,1917],[98.5,1996],[98.5,2077],[98.5,2157],[98.5,2237],[98.5,2317],[98.5,2397],[98.3,2476],[97.6,2559],[97.6,2637],[97.6,2717],[97.6,2797],[97.6,2877],[97.6,2957],[97.6,3037],[97.6,3117],[97.6,3197],[97.6,3277],[97.6,3357],[97.6,3437],[97.6,3517],[97.6,3597],[97.6,3677],[97.6,3757],[97.6,3837],[97.6,3917],[97.6,4001],[97.6,4076],[97.6,4157],[97.6,4237],[97.6,4317],[97.6,4397],[97.6,4477],[97.6,4557],[97.6,4637],[97.6,4717],[97.6,4797],[97.6,4876],[97.6,4956],[97.6,5037],[97.6,5117],[97.6,5197],[97.6,5277],[97.6,5372],[97.6,5446],[97.6,5527],[97.6,5606],[97.6,5686],[97.6,5767],[97.6,5846],[97.6,5927],[97.6,6006],[97.6,6086],[97.6,6167],[97.6,6247],[97.6,6326],[97.6,6407],[97.6,6486],[97.6,6567],[97.6,6647],[97.6,6727],[97.6,6807],[97.6,6887],[97.6,6966],[97.6,7046],[97.6,7126],[97.6,7207],[97.6,7286],[97.6,7367],[97.6,7447],[97.6,7530],[97.6,7607],[97.6,7687],[97.6,7767],[97.6,7846],[97.6,7927],[97.6,8006],[97.6,8086],[97.6,8167],[97.6,8246],[97.6,8326],[97.6,8407],[97.6,8487],[97.6,8567],[97.6,8646],[97.6,8726],[97.6,8807],[97.6,8887],[97.6,8966],[97.6,9046],[97.6,9126],[97.6,9206],[97.6,9287],[97.6,9366],[97.6,9447],[97.6,9527],[97.6,9606],[97.6,9687],[97.6,9767],[97.6,9847],[97.6,9927],[97.6,10007],[97.6,10086],[97.6,10167],[97.6,10250],[97.6,10326],[97.6,10407],[97.6,10486],[97.6,10566],[97.6,10646],[97.6,10726],[97.6,10807],[97.6,10886],[97.6,10967],[97.6,11046],[97.6,11127],[97.6,11206],[97.6,11286],[97.6,11367],[97.6,11446],[97.6,11526],[97.6,11606],[97.6,11686],[97.6,11767],[97.6,11846],[97.6,11926],[97.6,12006],[97.6,12086],[97.6,12166],[97.6,12246],[97.6,12328],[97.6,12406],[97.6,12486],[97.6,12566],[97.6,12647],[97.6,12726],[97.6,12806],[97.6,12886],[97.6,12966],[97.6,13047],[97.6,13126],[97.6,13206],[97.6,13287],[97.6,13366],[97.6,13447],[97.6,13527],[97.6,13606],[97.6,13686],[97.6,13766],[97.6,13846]]",916.8952,918.8448,97.60416349,1.0653,"[{""rating"":97.60416348775227,""responseTime"":1.06530000001203}]",space,1.425,,918.8449,Not at all,0,918.8458,,,[],,0,12,12,12,1,audio/Narrative8Situation3.wav,audio/Narrative7Situation3.wav,audio/Narrative6Situation3.wav,audio/Narrative5Situation3.wav,4,8,5,3,,,,,,,,,,,,,,,,,,,,,,,,,,,,,,,,,,,,,,,
,,,,,66231fc6e1ecba676935943a,2025-07-07_21h54.52.370,group3.4_multiperson,2023.2.2,Win32,100,686c2ebf0248f13bef9af11f,686c96726b35da046c5f6f4a,,,,,,,,,,,,,,,,,,,,,,,,,,,,,918.8459,2,audio/Narrative5Situation4.wav,919.8546,,919.8547,940.2343,"[[97,4079],[96.5,4160],[96.5,4239],[96.4,4319],[96.4,4399],[95.9,4479],[90.2,4560],[88.6,4640],[85.7,4719],[78.7,4799],[66.9,4880],[48.8,5200],[47.7,5279],[47.6,5359],[47.6,5439],[47.6,5519],[47.6,5599],[47.6,5679],[47.6,5759],[47.6,5839],[47.6,5919],[47.6,6000],[48.2,6079],[49.7,6160],[50.4,6239],[50.4,6319],[50.4,6400],[50.4,6479],[50.4,6559],[50.4,6639],[50.4,6719],[50.4,6799],[50.4,6879],[50.4,6959],[50.4,7039],[50.4,7119],[50.4,7199],[50.4,7279],[50.4,7359],[50.4,7439],[50.4,7519],[50.2,7599],[45,7679],[34.6,7759],[31.7,7839],[23.9,7919],[13.6,7999],[13.6,8079],[13.6,8159],[13.6,8239],[13.6,8319],[13.6,8399],[13.6,8479],[13.6,8559],[11.8,8640],[10.5,9039],[10.1,9120],[12.7,9199],[18.6,9279],[32.7,9359],[39.6,9519],[42.4,9599],[45.7,9679],[46.6,9759],[47.9,9839],[50.8,9919],[52.3,10000],[53.1,10079],[53.1,10159],[53.1,10239],[52.7,10319],[50.1,10400],[49.4,10479],[49.4,10559],[49.4,10640],[52.9,10719],[54.5,10799],[57.8,10879],[62.2,10959],[69.3,11040],[75.4,11119],[81.1,11199],[84.7,11280],[87.9,11359],[89.8,11440],[91.5,11525],[93.4,11604],[96.7,11695],[98.8,11774],[98.9,11849],[97.5,11947],[96.7,12034],[96.7,12109],[96.7,12189],[97.8,12269],[97.8,12349],[97.8,12429],[97.8,12514],[97.8,12594],[97.8,12684],[97.8,12769],[97.8,12849],[97.8,12929],[97.8,13009],[97.8,13094],[97.8,13179],[97.8,13266],[98.1,13339],[98.1,13419],[98.1,13499],[98.1,13579],[98.1,13669],[98.1,13749],[98.1,13829],[98.1,13909],[98.1,13989],[98.1,14072],[98.1,14159],[98.1,14239],[98.1,14319],[98.1,14402],[98.1,14479],[98.1,14559],[98.1,14639],[98.1,14722],[98.1,14799],[98.1,14879],[98.1,14962],[98.1,15039],[98.1,15119],[98.1,15199],[98.1,15279],[98.1,15359],[98.1,15439],[98.1,15519],[98.1,15599],[98.1,15679],[98.1,15759],[98.1,15839],[98.1,15919],[98.1,15999],[98.1,16082],[98.1,16159],[98.1,16239],[98.1,16319],[98.1,16399],[98.1,16482],[98.1,16559],[98.1,16639],[98.1,16719],[98.1,16799],[98.1,16879],[98.1,16959],[98.1,17039],[98.1,17122],[98.1,17199],[98.1,17279],[98.1,17359],[98.1,17439],[98.1,17519],[98.1,17599],[98.1,17679],[98.1,17759],[98.1,17839],[98.1,17919],[98.1,17999],[98.1,18079],[98.1,18159],[98.1,18239],[98.1,18319],[98.1,18399],[98.1,18479],[98.1,18564],[98.1,18639],[98.1,18719],[98.1,18799],[98.1,18879],[98.1,18959],[98.1,19044],[98.1,19119],[98.1,19200],[98.1,19279],[98.1,19359],[98.1,19439],[98.1,19519],[98.1,19600],[98.1,19682],[98.1,19759],[98.1,19839],[98.1,19919],[98.1,20003],[98.1,20079],[98.1,20159],[98.1,20239],[98.1,20319]]",940.2343,943.5387,97.70833651,1.8185,"[{""rating"":97.70833651224773,""responseTime"":1.8184999999999718}]",space,2.773,,943.5389,Not at all,0,943.5403,,,[],,0,13,13,13,1,audio/Narrative8Situation4.wav,audio/Narrative7Situation4.wav,audio/Narrative6Situation4.wav,audio/Narrative5Situation4.wav,3,3,2,1,,,,,,,,,,,,,,,,,,,,,,,,,,,,,,,,,,,,,,,
,,,,,66231fc6e1ecba676935943a,2025-07-07_21h54.52.370,group3.4_multiperson,2023.2.2,Win32,100,686c2ebf0248f13bef9af11f,686c96726b35da046c5f6f4a,,,,,,,,,,,,,,,,,,,,,,,,,,,,,943.5406,2,audio/Narrative5Situation5.wav,948.5441,,948.5442,963.9557,"[[99.3,79],[99.2,159],[99,242],[98.3,322],[98.3,399],[89.6,482],[73,560],[69.3,639],[69.3,719],[65.7,804],[59,884],[57.7,966],[56.6,1040],[53.4,1119],[51.4,1199],[51.5,1279],[53.9,1360],[54,1439],[54,1519],[55,1600],[58.3,1679],[66.1,1759],[71.8,1839],[76.8,1919],[81.1,1999],[83.2,2080],[86.9,2159],[93.1,2239],[94.8,2319],[94.8,2399],[91.9,2479],[91,2559],[89.8,2639],[88.4,2720],[85.6,2799],[82.4,2879],[80.5,2959],[79.3,3039],[78,3119],[76.1,3199],[75.9,3279],[78.6,3360],[80.2,3439],[82.3,3519],[82.8,3599],[82.8,3679],[85.6,3760],[96.4,3839],[98.2,3919],[97.5,3999],[73,4080],[67.4,4159],[66.2,4239],[61.3,4319],[57.9,4399],[54.9,4479],[52,4559],[50.4,4639],[50.1,4719],[50.1,4799],[50.1,4879],[50.1,4959],[51.6,5039],[52.8,5119],[59.4,5199],[69.2,5279],[81.3,5359],[78,5439],[50.8,5519],[43.3,5599],[42.1,5679],[39.3,5759],[35.2,5839],[32.9,5919],[30,5999],[24.4,6079],[9.8,6639],[9.8,6719],[9.8,6799],[9.8,6879],[9.8,6960],[9.8,7039],[10.2,7119],[10.4,7199],[10.4,7279],[10.4,7359],[10.4,7439],[10.4,7519],[10.4,7599],[10.4,7679],[10.4,7759],[10.4,7839],[10.4,7919],[10.2,7999],[8.4,8079],[7.5,8159],[7.2,8239],[6.4,8319],[5.8,8399],[4.8,8479],[4.1,8559],[3.4,8639],[2.7,8719],[1.8,8799],[1.4,8879],[0.7,8959],[0.4,9039],[0.4,9119],[0.4,9199],[0.4,9279],[0.4,9360],[0.4,9439],[0.4,9519],[0.4,9599],[0.4,9679],[0.4,9759],[0.4,9839],[0.4,9919],[0.4,9999],[0.4,10079],[0.4,10159],[0.4,10239],[0.4,10319],[0.4,10399],[0.4,10479],[0.4,10559],[0.4,10639],[0.4,10719],[0.4,10799],[0.4,10879],[0.4,10959],[0.4,11039],[0.4,11119],[0.4,11199],[0.4,11279],[0.4,11359],[0.4,11439],[0.4,11519],[0.4,11599],[0.4,11679],[0.4,11759],[0.4,11839],[0.4,11919],[0.4,11999],[0.4,12082],[0.4,12164],[0.4,12244],[0.4,12324],[0.4,12403],[0.4,12487],[0.4,12565],[0.4,12643],[0.4,12724],[0.4,12804],[0.4,12885],[0.4,12964],[0.4,13044],[0.4,13123],[0.4,13214],[0.4,13289],[0.4,13369],[0.4,13449],[0.4,13529],[0.4,13609],[0.4,13694],[0.4,13769],[0.4,13849],[0.4,13929],[0.4,14009],[0.4,14089],[0.4,14169],[0.4,14249],[0.4,14332],[0.4,14409],[0.4,14489],[0.4,14569],[0.4,14649],[0.4,14729],[0.4,14809],[0.4,14889],[0.4,14969],[0.4,15049],[0.4,15129],[0.4,15211],[0.4,15289],[0.4,15369]]",963.9559,968.7262,0.416668256,0.6021,"[{""rating"":0.4166682561238588,""responseTime"":0.6020999999940386}]",space,4.2386,,968.7264,Definitely yes,100,968.7281,,,[],,0,14,14,14,1,audio/Narrative8Situation5.wav,audio/Narrative7Situation5.wav,audio/Narrative6Situation5.wav,audio/Narrative5Situation5.wav,2,5,2,5,,,,,,,,,,,,,,,,,,,,,,,,,,,,,,,,,,,,,,,
