consent.started,consent.stopped,consentResponse.keys,consentResponse.rt,consentResponse.duration,participantID,date,expName,psychopyVersion,OS,frameRate,STUDY_ID,SESSION_ID,opening1.started,opening1.stopped,keyEndingOpening1.keys,keyEndingOpening1.rt,keyEndingOpening1.duration,volumeAdjust.started,volumeAdjust.stopped,endingAdjust.keys,endingAdjust.rt,endingAdjust.duration,opening2.started,opening2.stopped,keyEndingOpening.keys,keyEndingOpening.rt,keyEndingOpening.duration,mouse.x,mouse.y,mouse.leftButton,mouse.midButton,mouse.rightButton,mouse.time,instructionLoop.thisRepN,instructionLoop.thisTrialN,instructionLoop.thisN,instructionLoop.thisIndex,instructionLoop.ran,readyForAudio.started,readyForAudio.stopped,fixation.started,run,audio_played,fixation.stopped,endPractice.keys,audioPre.started,audioPre.stopped,continuousResponses_audio,intRating.started,intRating.stopped,intQuestionSlider.response,intQuestionSlider.rt,intQuestionSlider.history,confirmResponse.keys,confirmResponse.rt,confirmResponse.duration,catchQuestion.started,catch_label,catch_value,catchQuestion.stopped,catchQuestionSlider.response,catchQuestionSlider.rt,catchQuestionSlider.history,confirmResponse_2.keys,audioRunLoop.thisRepN,audioRunLoop.thisTrialN,audioRunLoop.thisN,audioRunLoop.thisIndex,audioRunLoop.ran,conditions1_1,conditions2_1,conditions1_2,conditions2_2,dur1_1,dur2_1,dur1_2,dur2_2,endPractice.rt,endPractice.duration,confirmResponse_2.rt,confirmResponse_2.duration,runIntervalBreak.started,runIntervalBreak.stopped,endingBreakKey.keys,endingBreakKey.rt,endingBreakKey.duration,connection.started,connection.stopped,connectionEnding.keys,connectionEnding.rt,connectionEnding.duration,readyForText.started,readyForText.stopped,textPre.started,run_dup,textPre.stopped,continuousResponses_text,textRunLoop.thisRepN,textRunLoop.thisTrialN,textRunLoop.thisN,textRunLoop.thisIndex,textRunLoop.ran,text1_1,text1_2,text2_1,text2_2,runBreakText.started,runBreakText.stopped,endingBreakKey_2.keys,endingBreakKey_2.rt,endingBreakKey_2.duration,ending.started,ending.stopped,endingEnding.keys,endingEnding.rt,endingEnding.duration
0.0003,42.6238,y,42.1919,,663a5d3e48441f253cc57071,2025-07-07_16h53.45.500,group3.4_multiperson,2023.2.2,Win32,16,686c2ebf0248f13bef9af11f,686c32184a9a635a73cd83b6,,,,,,,,,,,,,,,,,,,,,,,,,,,,,,,,,,,,,,,,,,,,,,,,,,,,,,,,,,,,,,,,,,,,,,,,,,,,,,,,,,,,,,,,,,,,,,,,,,,,,,,,
,,,,,663a5d3e48441f253cc57071,2025-07-07_16h53.45.500,group3.4_multiperson,2023.2.2,Win32,16,686c2ebf0248f13bef9af11f,686c32184a9a635a73cd83b6,42.6239,68.8489,space,26.1394,,,,,,,,,,,,,,,,,,,,,,,,,,,,,,,,,,,,,,,,,,,,,,,,,,,,,,,,,,,,,,,,,,,,,,,,,,,,,,,,,,,,,,,,,,,,,,,,,,,,
,,,,,663a5d3e48441f253cc57071,2025-07-07_16h53.45.500,group3.4_multiperson,2023.2.2,Win32,16,686c2ebf0248f13bef9af11f,686c32184a9a635a73cd83b6,,,,,,68.8491,94.964,space,25.6863,,,,,,,,,,,,,,,,,,,,,,,,,,,,,,,,,,,,,,,,,,,,,,,,,,,,,,,,,,,,,,,,,,,,,,,,,,,,,,,,,,,,,,,,,,,,,,,
,,,,,663a5d3e48441f253cc57071,2025-07-07_16h53.45.500,group3.4_multiperson,2023.2.2,Win32,16,686c2ebf0248f13bef9af11f,686c32184a9a635a73cd83b6,,,,,,,,,,,94.9667,111.5989,space,16.5502,,[],[],[],[],[],[],0,0,0,0,1,,,,,,,,,,,,,,,,,,,,,,,,,,,,,,,,,,,,,,,,,,,,,,,,,,,,,,,,,,,,,,,,,,,,,,,,,,,,,,
,,,,,663a5d3e48441f253cc57071,2025-07-07_16h53.45.500,group3.4_multiperson,2023.2.2,Win32,16,686c2ebf0248f13bef9af11f,686c32184a9a635a73cd83b6,,,,,,,,,,,111.5992,144.4007,space,32.6659,,[],[],[],[],[],[],1,0,1,0,1,,,,,,,,,,,,,,,,,,,,,,,,,,,,,,,,,,,,,,,,,,,,,,,,,,,,,,,,,,,,,,,,,,,,,,,,,,,,,,
,,,,,663a5d3e48441f253cc57071,2025-07-07_16h53.45.500,group3.4_multiperson,2023.2.2,Win32,16,686c2ebf0248f13bef9af11f,686c32184a9a635a73cd83b6,,,,,,,,,,,144.4011,180.9305,space,36.4058,,[],[],[],[],[],[],2,0,2,0,1,,,,,,,,,,,,,,,,,,,,,,,,,,,,,,,,,,,,,,,,,,,,,,,,,,,,,,,,,,,,,,,,,,,,,,,,,,,,,,
,,,,,663a5d3e48441f253cc57071,2025-07-07_16h53.45.500,group3.4_multiperson,2023.2.2,Win32,16,686c2ebf0248f13bef9af11f,686c32184a9a635a73cd83b6,,,,,,,,,,,180.9307,221.7414,space,40.7182,,[],[],[],[],[],[],3,0,3,0,1,,,,,,,,,,,,,,,,,,,,,,,,,,,,,,,,,,,,,,,,,,,,,,,,,,,,,,,,,,,,,,,,,,,,,,,,,,,,,,
,,,,,663a5d3e48441f253cc57071,2025-07-07_16h53.45.500,group3.4_multiperson,2023.2.2,Win32,16,686c2ebf0248f13bef9af11f,686c32184a9a635a73cd83b6,,,,,,,,,,,221.7417,240.5886,space,18.7523,0.0001,[],[],[],[],[],[],4,0,4,0,1,,,,,,,,,,,,,,,,,,,,,,,,,,,,,,,,,,,,,,,,,,,,,,,,,,,,,,,,,,,,,,,,,,,,,,,,,,,,,,
,,,,,663a5d3e48441f253cc57071,2025-07-07_16h53.45.500,group3.4_multiperson,2023.2.2,Win32,16,686c2ebf0248f13bef9af11f,686c32184a9a635a73cd83b6,,,,,,,,,,,240.5888,322.6303,space,81.9531,,[],[],[],[],[],[],5,0,5,0,1,,,,,,,,,,,,,,,,,,,,,,,,,,,,,,,,,,,,,,,,,,,,,,,,,,,,,,,,,,,,,,,,,,,,,,,,,,,,,,
,,,,,663a5d3e48441f253cc57071,2025-07-07_16h53.45.500,group3.4_multiperson,2023.2.2,Win32,16,686c2ebf0248f13bef9af11f,686c32184a9a635a73cd83b6,,,,,,,,,,,,,,,,,,,,,,,,,,,322.6312,325.2076,325.22,1,audio/Narrative13Situation2.wav,327.2392,,327.2393,357.1885,"[[999,0],[999,94],[999,172],[999,254],[999,337],[999,411],[999,485],[999,567],[999,643],[999,723],[999,797],[999,869],[999,936],[999,1015],[999,1089],[999,1170],[41.5,1246],[33,1321],[24.3,1398],[21.8,1476],[20.8,1550],[19.7,1621],[17.3,1698],[14.5,1780],[10.3,1867],[7.2,1941],[7.2,2019],[8,2094],[10.4,2181],[10.8,2260],[10.8,2335],[10.8,2409],[10.8,2484],[10.8,2557],[12.6,2631],[22.2,2709],[26.9,2802],[28.8,2891],[31.3,2968],[32.1,3045],[32.1,3124],[32.1,3206],[31.7,3281],[30.9,3372],[30.4,3447],[30.4,3521],[30.4,3599],[30,3671],[29.6,3743],[26.8,3814],[17.5,3893],[13,3970],[12,4050],[11,4132],[9.6,4210],[8.6,4289],[8.2,4365],[8.2,4441],[8.1,4516],[8.1,4595],[8.1,4675],[8.1,4757],[8.4,4839],[8.6,4917],[8.8,4998],[8.8,5073],[8.8,5153],[8.8,5230],[8.9,5303],[9,5376],[9,5449],[9,5524],[9.1,5598],[9.2,5673],[9.2,5747],[9.3,5822],[9.8,5889],[11.1,5965],[11.9,6040],[11.9,6117],[11.3,6191],[11.1,6266],[11.3,6343],[12.9,6417],[15.6,6495],[18.3,6573],[20.7,6647],[21,6722],[21,6807],[21,6879],[19,6955],[13.8,7036],[12.4,7110],[12.4,7189],[12.4,7263],[12.2,7345],[11.6,7420],[9.2,7494],[6,7570],[5,7645],[4.9,7721],[4.9,7798],[2.2,7881],[1.3,7956],[1.3,8045],[1.9,8124],[2.6,8205],[3,8280],[5.3,8357],[9.5,8440],[11,8516],[11,8590],[15.1,8676],[27.8,8752],[32.6,8826],[32.6,8904],[32.9,8981],[33.2,9055],[34.2,9131],[37.9,9208],[41.1,9293],[41.5,9370],[41.8,9447],[42.7,9523],[43.5,9599],[44.6,9675],[44.6,9749],[42.9,9830],[36.6,9916],[32.3,10000],[31.8,10075],[31.6,10150],[29.2,10224],[22.3,10302],[20.7,10386],[20.7,10451],[20.7,10536],[20.7,10617],[20.7,10700],[20.7,10773],[20.7,10858],[20.7,10931],[20.7,11013],[20.7,11096],[20.7,11168],[20.7,11242],[20.7,11316],[21,11390],[21.4,11463],[21.8,11539],[21.8,11621],[21.8,11695],[21.8,11765],[21.8,11840],[21.8,11914],[21.8,11989],[21.8,12061],[21.8,12142],[21.8,12229],[20.8,12310],[18.8,12390],[18.2,12464],[18.2,12538],[18.2,12617],[18.2,12696],[18.2,12791],[16.5,12881],[16.5,12963],[16.5,13041],[16.5,13115],[16.5,13191],[16,13265],[15.9,13351],[15.9,13430],[15.8,13517],[15.8,13589],[18.5,13672],[21,13750],[21,13824],[21,13908],[21,13984],[21,14067],[21,14142],[23,14219],[30.7,14298],[35,14374],[35.4,14459],[35.4,14536],[35.4,14618],[35.4,14693],[36.8,14776],[36.8,14852],[36.8,14926],[34.1,15014],[33.2,15088],[33.2,15163],[33.2,15237],[33.2,15316],[32.9,15390],[26.6,15468],[23.5,15547],[23.6,15625],[24.6,15703],[24.9,15777],[24.9,15840],[25,15913],[27.9,15979],[28.8,16056],[28.8,16120],[28.9,16191],[29.6,16262],[32.1,16338],[32.4,16413],[32.5,16489],[32.8,16571],[32.9,16646],[33.4,16720],[34.3,16802],[34.5,16877],[34.5,16952],[34.7,17028],[34.7,17103],[34.7,17180],[34.8,17254],[34.8,17328],[34.8,17404],[34.8,17479],[34.8,17552],[34.8,17627],[34.7,17703],[34.6,17789],[34.6,17870],[34.6,17952],[34.6,18030],[34.6,18107],[34.6,18182],[34.6,18259],[33.1,18352],[31.4,18427],[31.3,18517],[31.3,18591],[31.3,18665],[31.5,18749],[32.5,18825],[32.5,18899],[32.5,18979],[32.5,19059],[32.5,19133],[32.4,19208],[32.4,19284],[32.4,19358],[32.4,19433],[31.9,19516],[31.7,19591],[31.5,19667],[31.4,19751],[31.4,19837],[31.4,19913],[31.4,19987],[31.4,20065],[31.4,20144],[31.4,20219],[31.4,20301],[31.4,20377],[31.4,20450],[31.4,20529],[31.4,20606],[31.4,20679],[31.4,20753],[31.6,20827],[31.7,20901],[31.7,20976],[31.7,21052],[31.7,21126],[31.7,21207],[31.7,21283],[31.7,21357],[31.7,21432],[31.7,21518],[31.7,21593],[31.7,21669],[31.7,21743],[31.7,21823],[31.7,21897],[31.7,21970],[31.7,22046],[31.7,22124],[31.7,22197],[31.7,22271],[31.7,22345],[31.7,22423],[32.4,22498],[35.9,22575],[40.2,22658],[42.5,22737],[46.9,22817],[52.5,22910],[53.4,22986],[53.4,23072],[53.4,23148],[53.4,23229],[53.4,23304],[53.4,23386],[53.4,23459],[53.4,23538],[53.4,23616],[53.4,23693],[54.5,23768],[57.2,23847],[60.9,23925],[61.1,24001],[61.1,24080],[61.1,24155],[61.1,24238],[61.1,24320],[61.1,24394],[61.1,24473],[60.6,24553],[60.1,24632],[59.9,24710],[59.9,24785],[59.9,24868],[59.9,24949],[60.4,25024],[60.9,25098],[61.1,25173],[61.1,25247],[61.1,25320],[61.1,25395],[61.3,25468],[61.6,25542],[61.9,25617],[62.1,25692],[62.1,25766],[62.2,25849],[62.2,25923],[62.2,25999],[62.2,26072],[62.2,26154],[62.2,26241],[62.2,26316],[62.2,26391],[62.2,26473],[62.2,26554],[62.2,26638],[62.2,26713],[62.2,26787],[62.5,26864],[63.5,26945],[65.4,27025],[67.8,27100],[69.9,27184],[72,27265],[72.9,27356],[73,27431],[73,27507],[73,27586],[73,27674],[72.9,27757],[73.6,27835],[73.6,27914],[73.6,27990],[73.6,28079],[74.4,28158],[75,28236],[75.4,28319],[75.4,28406],[75.6,28485],[76,28559],[77.4,28633],[78.5,28718],[78.6,28793],[78.8,28869],[79,28951],[79.4,29034],[79.6,29108],[80.1,29185],[80.3,29265],[80.3,29342],[80.3,29420],[80.3,29495],[80.3,29570],[80.3,29645],[80.3,29722],[80.3,29796],[80.3,29874],[80.3,29948]]",357.1886,374.3674,35.10416667,14.5887,"[{""rating"":35.10416666666667,""responseTime"":14.58869999998808}]",space,16.4821,,374.3674,Not at all,0,374.3703,,,[],,0,0,0,0,1,audio/Narrative13Situation2.wav,audio/Narrative13Situation2.wav,audio/Narrative13Situation2.wav,audio/Narrative13Situation2.wav,2,2,2,2,,,,,,,,,,,,,,,,,,,,,,,,,,,,,,,,,,,,,,,
,,,,,663a5d3e48441f253cc57071,2025-07-07_16h53.45.500,group3.4_multiperson,2023.2.2,Win32,16,686c2ebf0248f13bef9af11f,686c32184a9a635a73cd83b6,,,,,,,,,,,,,,,,,,,,,,,,,,,,,374.3704,1,audio/Narrative8Situation1.wav,376.8597,space,376.8598,392.9417,"[[999,0],[999,83],[999,156],[999,243],[999,323],[999,404],[999,485],[999,559],[999,631],[999,695],[999,771],[999,843],[999,906],[49.6,985],[49.6,1058],[46.8,1134],[38.8,1209],[31.1,1294],[29.1,1369],[28.5,1444],[27.9,1519],[27.5,1595],[25.3,1677],[23.6,1750],[24.6,1825],[32.8,1900],[40.5,1973],[41,2052],[41,2124],[41,2198],[41,2279],[43.9,2354],[50.4,2434],[53.8,2517],[53.8,2587],[53.8,2665],[50.2,2752],[49.9,2825],[49.9,2903],[49.9,2978],[49.9,3053],[49.9,3126],[49.9,3222],[50,3303],[50.9,3388],[51,3466],[51,3540],[51,3618],[51.3,3693],[51.5,3785],[52,3862],[53.2,3941],[53.5,4017],[53.5,4098],[53.5,4175],[53.5,4255],[53.5,4330],[53.5,4416],[53.5,4499],[53.5,4574],[53.5,4650],[53.5,4722],[53.5,4797],[53.5,4881],[53.5,4954],[53.5,5028],[53.5,5100],[53.5,5173],[53.5,5246],[53.5,5322],[53.5,5394],[53.5,5475],[53.5,5548],[53.5,5619],[53.5,5695],[53.5,5767],[54.6,5846],[59.1,5922],[61.6,5987],[63,6074],[63,6147],[63,6219],[63,6293],[63,6373],[63,6446],[63,6524],[63,6597],[63,6669],[63,6742],[63,6815],[63,6882],[58,6957],[54.5,7033],[54.5,7105],[54.5,7186],[54.5,7268],[54.5,7341],[55.2,7414],[56.7,7491],[57.3,7568],[57.4,7640],[57.4,7714],[57.5,7786],[57.5,7868],[57.5,7940],[57.5,8014],[57.5,8090],[57.5,8169],[57.5,8247],[57.5,8334],[57.5,8410],[57.5,8493],[57.5,8577],[57.5,8651],[57.5,8734],[57.5,8808],[57.5,8882],[57.5,8958],[57.3,9035],[57.3,9108],[57.3,9182],[57.3,9256],[57.3,9329],[57.3,9403],[57.3,9486],[57.3,9560],[57.3,9639],[57.3,9712],[57.3,9791],[57.3,9866],[57.3,9950],[57.3,10024],[57.3,10098],[57.3,10171],[57.3,10244],[57.3,10320],[57.3,10402],[57.3,10483],[57.3,10558],[57.3,10633],[57.2,10706],[57.2,10779],[57.2,10862],[57.2,10937],[57.2,11008],[57.2,11090],[57.7,11166],[58.1,11240],[58.1,11315],[58.2,11396],[60.9,11470],[63.8,11547],[67.4,11621],[69.8,11695],[71.1,11769],[71.7,11846],[71.7,11926],[71.7,12001],[71.7,12082],[71.7,12155],[71.7,12228],[71.7,12301],[72.4,12380],[76.7,12453],[78.1,12534],[78.1,12608],[78.1,12680],[78,12754],[78,12826],[78,12906],[78,12989],[78,13073],[78,13171],[78,13245],[78.5,13331],[80.2,13412],[81.7,13485],[81.8,13567],[81.8,13647],[81.8,13722],[81.8,13814],[81.8,13889],[81.3,13963],[81.1,14036],[81.1,14111],[81.1,14185],[81.1,14265],[81.1,14338],[81.1,14414],[81.1,14486],[81.1,14560],[81.1,14627],[81.1,14701],[81.1,14770],[81.1,14856],[81.1,14928],[81.1,15012],[81.1,15086],[81.1,15166],[81.1,15239],[81.3,15315],[81.3,15397],[81.3,15474],[81.3,15550],[81.3,15624],[81.3,15699],[80.9,15773],[79.2,15855],[79,15929],[79,16003],[79,16081]]",392.9418,399.213,74.6875,5.2269,"[{""rating"":74.6875,""responseTime"":5.226900000005969}]",space,5.554,,399.2131,Not at all,0,399.2145,,,[],,0,1,1,1,1,audio/Narrative7Situation1.wav,audio/Narrative8Situation1.wav,audio/Narrative5Situation1.wav,audio/Narrative6Situation1.wav,2,5,5,2,2.4083,1E-04,,,,,,,,,,,,,,,,,,,,,,,,,,,,,,,,,,,,,
,,,,,663a5d3e48441f253cc57071,2025-07-07_16h53.45.500,group3.4_multiperson,2023.2.2,Win32,16,686c2ebf0248f13bef9af11f,686c32184a9a635a73cd83b6,,,,,,,,,,,,,,,,,,,,,,,,,,,,,399.2147,1,audio/Narrative8Situation2.wav,402.2713,,402.2713,412.5024,"[[999,0],[999,75],[999,148],[999,231],[999,306],[999,387],[999,459],[999,530],[999,607],[999,682],[999,755],[999,837],[999,910],[999,988],[999,1069],[999,1140],[999,1213],[999,1286],[999,1359],[999,1436],[999,1509],[34.6,1587],[35.1,1656],[38,1738],[39.4,1812],[39.7,1884],[39.8,1957],[39.8,2037],[39.9,2109],[39.9,2182],[39.9,2254],[40.6,2329],[44.6,2406],[47.3,2478],[49.2,2552],[49.3,2625],[49.3,2709],[49.3,2785],[49.3,2870],[49.3,2956],[49.3,3036],[49.3,3120],[49.3,3194],[49.7,3282],[49.9,3355],[49.9,3440],[49.9,3514],[49.9,3592],[49.9,3668],[49.9,3741],[49.9,3814],[49.9,3893],[49.9,3966],[49.9,4048],[49.9,4119],[49.9,4207],[49.9,4284],[49.9,4363],[49.9,4433],[49.9,4517],[49.9,4591],[49.9,4671],[49.9,4747],[49.9,4830],[50,4905],[50,4979],[50,5049],[50,5129],[50,5203],[50,5277],[50,5363],[50,5437],[50,5503],[50,5584],[50,5658],[50,5731],[50,5807],[50,5879],[50,5953],[50,6025],[50,6098],[50,6178],[50,6251],[50,6322],[50,6393],[50,6466],[50,6538],[50,6617],[50,6689],[50,6766],[50,6839],[50,6919],[50,6998],[50,7078],[50,7154],[50,7235],[50,7307],[50,7380],[49.1,7453],[46.9,7527],[43.4,7601],[39.9,7681],[38.8,7756],[38.8,7840],[38.8,7933],[38.8,8008],[38.8,8092],[38.8,8173],[38.8,8247],[38.8,8329],[38.5,8403],[34.7,8486],[27.9,8559],[26.1,8634],[26.1,8704],[26.1,8783],[26.1,8856],[26.1,8934],[26.1,9009],[25.8,9084],[25.6,9157],[25.6,9231],[25.6,9305],[25.4,9381],[25.4,9463],[25.1,9541],[22,9622],[19.2,9698],[17.8,9772],[16.3,9858],[12.7,9933],[10.3,10003],[9.5,10077],[9,10151],[8.8,10230]]",412.5025,421.0937,4.375,5.206,"[{""rating"":4.375000000000001,""responseTime"":5.20599999999996}]",space,7.882,,421.0938,Partially,50,421.0953,,,[],,0,2,2,2,1,audio/Narrative7Situation2.wav,audio/Narrative8Situation2.wav,audio/Narrative5Situation2.wav,audio/Narrative6Situation2.wav,3,3,3,3,,,,,,,,,,,,,,,,,,,,,,,,,,,,,,,,,,,,,,,
,,,,,663a5d3e48441f253cc57071,2025-07-07_16h53.45.500,group3.4_multiperson,2023.2.2,Win32,16,686c2ebf0248f13bef9af11f,686c32184a9a635a73cd83b6,,,,,,,,,,,,,,,,,,,,,,,,,,,,,421.0954,1,audio/Narrative8Situation3.wav,425.1259,,425.1259,447.6323,"[[999,0],[999,86],[999,163],[999,242],[999,325],[999,399],[999,474],[999,558],[999,642],[999,714],[999,801],[24.9,885],[26.1,960],[26.1,1034],[26.1,1111],[26.1,1184],[26.1,1266],[26.1,1347],[26.8,1423],[30,1510],[30.2,1585],[30.2,1665],[29.5,1743],[15,1821],[7.9,1898],[6.4,1973],[4.8,2052],[2.9,2128],[1.9,2206],[1.9,2283],[1.9,2356],[1.9,2430],[1.9,2505],[1.9,2579],[1.9,2651],[1.9,2724],[1.9,2806],[3,2886],[6,2962],[9.1,3035],[13.3,3118],[19.8,3196],[26.8,3271],[35.1,3356],[37.4,3439],[39.1,3516],[40.1,3588],[44.6,3664],[48.8,3748],[49.3,3822],[49.3,3904],[50,3979],[50.1,4051],[50.2,4127],[50.2,4200],[50.2,4272],[50.2,4346],[50.2,4427],[50.2,4502],[50.1,4581],[50.1,4664],[50.1,4738],[50.1,4814],[50.1,4890],[50.1,4961],[50.1,5037],[50.1,5115],[50.1,5188],[50.1,5267],[51.5,5343],[56.5,5418],[57.9,5493],[58.6,5576],[60.2,5656],[62.7,5725],[65.2,5808],[65.3,5882],[65.3,5970],[65.4,6048],[65.4,6129],[65.4,6198],[65.4,6280],[65.4,6360],[65.4,6434],[65.4,6507],[65.4,6584],[65.4,6656],[65.4,6732],[65.4,6809],[65.4,6882],[65.4,6957],[65.4,7040],[65.4,7119],[65.4,7191],[65.4,7264],[65.4,7336],[65.4,7409],[65.4,7485],[65.4,7565],[65.4,7638],[65.4,7714],[65.4,7800],[65.4,7873],[65.4,7947],[68,8027],[72.8,8102],[77.9,8176],[82,8250],[85.2,8325],[90.2,8399],[95,8467],[97.7,8543],[98.9,8618],[100,8694],[100,8770],[100,8841],[100,8914],[100,8988],[100,9062],[100,9138],[100,9212],[100,9284],[100,9361],[100,9435],[100,9509],[100,9582],[100,9656],[100,9728],[100,9806],[100,9887],[100,9966],[100,10047],[100,10122],[100,10200],[100,10283],[100,10357],[100,10431],[100,10511],[100,10588],[100,10661],[100,10736],[100,10822],[100,10898],[100,10970],[100,11047],[100,11121],[100,11196],[100,11280],[100,11355],[100,11428],[100,11513],[100,11594],[100,11668],[100,11742],[100,11817],[100,11890],[100,11964],[100,12038],[100,12116],[100,12202],[100,12275],[100,12351],[100,12425],[100,12497],[100,12571],[100,12642],[100,12714],[100,12787],[100,12859],[100,12941],[100,13013],[100,13095],[100,13175],[100,13259],[100,13331],[100,13412],[100,13485],[100,13559],[100,13632],[100,13704],[100,13781],[100,13859],[100,13942],[100,14013],[100,14086],[100,14166],[100,14239],[100,14320],[100,14393],[100,14473],[100,14548],[100,14617],[100,14692],[100,14770],[100,14852],[100,14928],[100,15009],[100,15085],[100,15161],[100,15243],[100,15329],[100,15402],[100,15479],[100,15552],[100,15641],[100,15716],[100,15793],[100,15868],[100,15941],[100,16015],[100,16099],[100,16174],[100,16250],[100,16327],[100,16403],[100,16485],[100,16569],[100,16643],[100,16722],[100,16798],[100,16871],[100,16944],[100,17029],[99.8,17110],[99.7,17193],[99.7,17271],[99.7,17345],[98.5,17419],[98.2,17489],[98.2,17563],[98.2,17634],[98.2,17709],[97.9,17783],[97.2,17863],[97.1,17936],[97.1,18010],[97.1,18088],[97.1,18163],[97.5,18236],[98.1,18309],[99,18389],[99.3,18469],[99.6,18542],[99.8,18616],[100,18683],[100,18759],[100,18843],[100,18915],[100,18988],[100,19068],[100,19143],[100,19216],[100,19290],[99.9,19361],[99.9,19437],[99.9,19510],[99.9,19584],[99.9,19656],[99.9,19731],[99.9,19826],[99.9,19917],[99.9,19999],[99.9,20094],[99.9,20182],[99.9,20261],[99.9,20339],[99.9,20418],[99.9,20492],[99.9,20565],[99.9,20647],[99.9,20718],[99.9,20791],[99.9,20865],[99.9,20943],[99.9,21026],[99.9,21101],[99.9,21181],[99.9,21270],[99.9,21347],[99.9,21421],[99.9,21499],[99.9,21580],[99.9,21652],[99.9,21729],[99.9,21810],[99.9,21887],[99.9,21964],[99.9,22047],[99.9,22131],[99.9,22204],[99.9,22277],[99.9,22358],[99.9,22431],[99.9,22506]]",447.6324,451.7121,99.27083333,1.0391,"[{""rating"":99.27083333333333,""responseTime"":1.0390999999939936}]",space,3.367,,451.7122,Definitely yes,100,459.9495,99.6875,4.4056,"[{""rating"":99.6875,""responseTime"":4.40560000002381}]",space,0,3,3,3,1,audio/Narrative7Situation3.wav,audio/Narrative8Situation3.wav,audio/Narrative5Situation3.wav,audio/Narrative6Situation3.wav,8,4,3,5,,,7.5427,,,,,,,,,,,,,,,,,,,,,,,,,,,,,,,,,,,,
,,,,,663a5d3e48441f253cc57071,2025-07-07_16h53.45.500,group3.4_multiperson,2023.2.2,Win32,16,686c2ebf0248f13bef9af11f,686c32184a9a635a73cd83b6,,,,,,,,,,,,,,,,,,,,,,,,,,,,,459.9498,1,audio/Narrative8Situation4.wav,462.9765,,462.9765,477.3633,"[[50.9,677],[51.1,751],[51.1,833],[50.9,907],[50.6,981],[50.6,1054],[50.6,1132],[50.6,1215],[50.6,1290],[50.6,1362],[50.6,1434],[46.9,1504],[38,1579],[31.5,1665],[28.1,1740],[26,1824],[25.7,1905],[25.5,1982],[23.9,2080],[15.8,2171],[12.8,2244],[11.8,2327],[10.5,2414],[10.5,2497],[10.5,2581],[13.6,2661],[19.3,2744],[24.3,2832],[28.9,2909],[31,2983],[35.7,3064],[37.8,3139],[39,3214],[40.6,3289],[43.5,3363],[46.7,3449],[48,3524],[48.9,3599],[49.5,3686],[50,3767],[50,3843],[50,3917],[50,3995],[50.1,4070],[50.1,4144],[50.1,4218],[50.1,4291],[50.1,4364],[50.1,4443],[52.3,4516],[54.5,4593],[54.6,4668],[54.6,4742],[54.6,4823],[54.7,4896],[57.8,4972],[61,5047],[61.7,5122],[62.2,5204],[62.2,5278],[62.3,5355],[62.3,5436],[62.3,5512],[62.3,5593],[62.3,5677],[62.3,5751],[62.3,5830],[62.3,5904],[62.3,5976],[62.3,6054],[62.3,6121],[62.3,6204],[64.2,6281],[71,6361],[75.4,6435],[76,6508],[76,6582],[76,6654],[76,6728],[76.1,6804],[79.3,6879],[82.5,6954],[85.8,7029],[89.2,7112],[92.7,7191],[94.8,7267],[95.7,7341],[96.4,7430],[96.4,7503],[96.4,7588],[96.4,7662],[97.7,7735],[99.4,7810],[99.8,7885],[99.9,7958],[99.9,8032],[99.9,8106],[99.9,8192],[99.9,8270],[99.9,8343],[99.9,8417],[99.9,8491],[99.9,8565],[99.9,8637],[99.9,8713],[99.9,8788],[99.9,8862],[99.9,8934],[99.9,9010],[99.9,9081],[99.9,9156],[99.9,9229],[99.9,9308],[99.9,9380],[99.9,9465],[99.9,9540],[99.9,9614],[99.9,9684],[99.9,9765],[99.9,9844],[99.9,9916],[99.9,9988],[99.9,10062],[99.9,10134],[99.9,10209],[100,10283],[100,10356],[100,10429],[100,10502],[100,10583],[100,10659],[100,10741],[100,10814],[100,10886],[100,10966],[100,11038],[100,11112],[100,11183],[100,11258],[100,11330],[100,11408],[100,11479],[100,11553],[100,11628],[100,11708],[100,11785],[100,11858],[100,11934],[100,12009],[100,12086],[100,12165],[100,12242],[100,12324],[100,12398],[100,12474],[100,12549],[100,12623],[100,12695],[100,12777],[100,12846],[100,12927],[100,13000],[100,13074],[100,13146],[100,13229],[100,13304],[100,13378],[100,13458],[100,13534],[100,13611],[100,13684],[100,13763],[100,13837],[100,13912],[100,13993],[100,14080],[100,14157],[100,14231],[100,14306],[100,14386]]",477.3634,490.8228,88.75,7.5416,"[{""rating"":99.6875,""responseTime"":3.1164000000059673},{""rating"":88.75,""responseTime"":7.541599999994048}]",space,12.7324,,490.8229,Definitely yes,100,490.824,,,[],,0,4,4,4,1,audio/Narrative7Situation4.wav,audio/Narrative8Situation4.wav,audio/Narrative5Situation4.wav,audio/Narrative6Situation4.wav,3,3,1,2,,,,,,,,,,,,,,,,,,,,,,,,,,,,,,,,,,,,,,,
,,,,,663a5d3e48441f253cc57071,2025-07-07_16h53.45.500,group3.4_multiperson,2023.2.2,Win32,16,686c2ebf0248f13bef9af11f,686c32184a9a635a73cd83b6,,,,,,,,,,,,,,,,,,,,,,,,,,,,,490.8241,1,audio/Narrative8Situation5.wav,492.84,,492.84,501.2618,"[[999,0],[999,72],[999,137],[999,209],[999,274],[999,353],[999,433],[999,509],[999,582],[999,655],[999,734],[50.9,807],[50.8,887],[50.8,961],[49.7,1035],[48.9,1109],[48.8,1184],[48.4,1268],[48.2,1342],[48.2,1421],[48.2,1496],[48.4,1567],[48.5,1640],[48.5,1716],[49.1,1788],[50.1,1862],[54.1,1936],[61.5,2022],[69,2115],[77.2,2196],[83.1,2284],[85.7,2359],[87.8,2435],[88.3,2510],[88.3,2587],[88.3,2663],[88.3,2742],[88.3,2820],[87.6,2896],[87.3,2969],[87.3,3046],[87.3,3122],[87.3,3200],[87.3,3274],[87.4,3363],[87.5,3441],[87.4,3516],[87.4,3594],[87.4,3669],[87.4,3750],[87.4,3847],[87.4,3927],[87.4,4001],[87.4,4082],[87.4,4160],[88.8,4233],[89.4,4319],[89.4,4394],[89.4,4475],[89.4,4547],[89.4,4622],[89.4,4694],[89.4,4778],[89.4,4851],[89.4,4924],[89.4,4997],[89,5073],[88.6,5155],[88.6,5226],[88.6,5300],[88.6,5383],[88.6,5448],[88.6,5520],[88.6,5593],[88.6,5669],[88.6,5744],[88.6,5818],[88.6,5891],[88.6,5963],[88.6,6037],[88.6,6112],[88.9,6185],[89.3,6250],[90.2,6322],[90.8,6399],[91.1,6472],[91.5,6546],[91.9,6628],[92.5,6701],[94.3,6775],[96.8,6849],[97.9,6929],[98.2,7003],[98.2,7079],[98.8,7152],[100,7236],[100,7325],[100,7405],[100,7479],[100,7554],[100,7631],[100,7707],[100,7781],[100,7855],[100,7934],[100,8015],[100,8094],[100,8175],[100,8248],[100,8341],[100,8421]]",501.2619,504.4175,99.6875,1.7868,"[{""rating"":99.6875,""responseTime"":1.786800000011965}]",space,2.4233,,504.4176,Not at all,0,504.419,,,[],,0,5,5,5,1,audio/Narrative7Situation5.wav,audio/Narrative8Situation5.wav,audio/Narrative5Situation5.wav,audio/Narrative6Situation5.wav,5,2,5,2,,,,,,,,,,,,,,,,,,,,,,,,,,,,,,,,,,,,,,,
,,,,,663a5d3e48441f253cc57071,2025-07-07_16h53.45.500,group3.4_multiperson,2023.2.2,Win32,16,686c2ebf0248f13bef9af11f,686c32184a9a635a73cd83b6,,,,,,,,,,,,,,,,,,,,,,,,,,,,,504.4191,1,audio/Narrative8Situation6.wav,506.4484,,506.4485,513.0774,"[[55.6,75],[52.5,149],[52.1,226],[52.1,310],[52.1,384],[51.5,465],[51.5,530],[51.3,613],[51.3,687],[51.3,760],[51.1,844],[51.1,921],[51.1,1001],[51.1,1073],[51.1,1155],[51.1,1228],[51.1,1302],[51.1,1375],[51.1,1450],[51.1,1520],[51.1,1605],[51.1,1676],[51.1,1749],[51.1,1821],[51.3,1895],[56.4,1968],[66.9,2042],[73.5,2118],[79.7,2192],[86.3,2267],[93.9,2347],[96.1,2427],[96.1,2503],[96.1,2575],[96.1,2649],[96.1,2723],[96.1,2791],[92.8,2871],[85.6,2945],[84.2,3019],[84.2,3091],[84.2,3167],[84,3246],[82.6,3321],[82.4,3394],[82.4,3471],[82.4,3548],[82.4,3622],[82.4,3709],[82.4,3789],[82.4,3865],[82.4,3940],[82.4,4016],[82.2,4096],[81.7,4177],[81,4253],[81,4333],[81,4408],[81,4494],[80.8,4580],[80.7,4652],[80.7,4726],[80.5,4800],[80.5,4885],[80.5,4958],[80.5,5032],[80.5,5105],[80.5,5198],[80.5,5271],[80.5,5349],[80.5,5423],[80.5,5499],[80.5,5579],[80.5,5650],[80.5,5728],[80.8,5807],[81.9,5883],[84,5965],[84.4,6038],[84.4,6107],[84.4,6179],[84.4,6260],[84.4,6331],[84.4,6398],[84.4,6473],[84.4,6546],[84.4,6628]]",513.0775,522.8971,49.375,8.6842,"[{""rating"":49.375,""responseTime"":8.684200000017881}]",space,9.1127,,522.8972,Definitely yes,100,522.8986,,,[],,0,6,6,6,1,audio/Narrative7Situation6.wav,audio/Narrative8Situation6.wav,audio/Narrative5Situation6.wav,audio/Narrative6Situation6.wav,3,2,3,2,,,,,,,,,,,,,,,,,,,,,,,,,,,,,,,,,,,,,,,
,,,,,663a5d3e48441f253cc57071,2025-07-07_16h53.45.500,group3.4_multiperson,2023.2.2,Win32,16,686c2ebf0248f13bef9af11f,686c32184a9a635a73cd83b6,,,,,,,,,,,,,,,,,,,,,,,,,,,,,522.8987,1,audio/Narrative8Situation7.wav,525.9193,,525.9194,538.1743,"[[53.9,74],[53.4,154],[53.3,232],[52.8,316],[52.5,391],[52.5,465],[52.5,544],[52.6,623],[51.5,698],[50.8,778],[50.3,853],[49.9,926],[49.3,1001],[48.5,1094],[47.7,1165],[47.3,1247],[47.2,1320],[47.2,1392],[47.2,1469],[47.3,1545],[47.3,1620],[47.4,1693],[47.4,1765],[47.9,1841],[48.2,1915],[47.9,1993],[42,2066],[34.2,2144],[29.9,2219],[26.7,2298],[25.8,2371],[25.6,2455],[25.6,2529],[25.6,2603],[25.6,2676],[27.4,2757],[34.9,2834],[38.5,2908],[40.2,2981],[42.5,3057],[45.8,3138],[47.1,3214],[48.9,3296],[50.2,3370],[52.2,3451],[52.5,3534],[52.5,3607],[52.5,3681],[53,3753],[54.6,3827],[56.4,3901],[57.6,3976],[59.4,4058],[61.8,4140],[64,4229],[64.8,4318],[65.9,4394],[67.1,4475],[67.9,4550],[68.6,4623],[69.6,4697],[70.6,4774],[71.7,4849],[72.1,4921],[72.2,4996],[72.2,5070],[72.4,5157],[72.4,5239],[72.4,5316],[72.4,5394],[72.4,5478],[72.4,5552],[72.4,5625],[72.4,5715],[72.4,5781],[72.4,5861],[72.4,5935],[72.4,6017],[72.4,6092],[72.4,6165],[72.4,6245],[72.4,6318],[72.4,6393],[72.4,6467],[72.4,6540],[72.4,6619],[73.9,6692],[75.2,6766],[75.3,6847],[75.3,6921],[75.3,7002],[75.3,7074],[75.3,7148],[75.3,7220],[75.3,7295],[75.3,7370],[75.3,7443],[75.3,7516],[75.3,7600],[75.7,7673],[77.7,7747],[78.8,7821],[79,7895],[79,7967],[79,8043],[79,8124],[79,8198],[79,8271],[79,8346],[79,8422],[79,8495],[79.1,8569],[79.1,8647],[79.1,8720],[79.1,8794],[79.1,8868],[79.1,8943],[79.1,9022],[79.1,9095],[79.1,9175],[79.1,9252],[79.1,9329],[79.2,9414],[79.2,9499],[79.2,9579],[79.2,9658],[79.2,9732],[79.2,9806],[79.2,9882],[79.2,9956],[79.2,10030],[79.2,10114],[79.2,10199],[79.2,10276],[79.2,10349],[79.2,10430],[80.7,10510],[81.3,10585],[81.5,10661],[81.5,10738],[81.5,10812],[81.8,10887],[82.8,10961],[84.3,11037],[85.9,11113],[86.8,11187],[87.8,11269],[88.6,11341],[89.1,11414],[89.3,11494],[89.7,11568],[90.2,11649],[90.6,11733],[91.4,11805],[93.3,11878],[97.9,11960],[100,12033],[100,12107],[100,12179],[100,12254]]",538.1743,542.1508,83.54166667,2.6348,"[{""rating"":83.54166666666667,""responseTime"":2.6347999999821923}]",space,3.2697,,542.1508,Partially,50,542.1525,,,[],,0,7,7,7,1,audio/Narrative7Situation7.wav,audio/Narrative8Situation7.wav,audio/Narrative5Situation7.wav,audio/Narrative6Situation7.wav,5,3,4,5,,,,,,,,,,,,,,,,,,,,,,,,,,,,,,,,,,,,,,,
,,,,,663a5d3e48441f253cc57071,2025-07-07_16h53.45.500,group3.4_multiperson,2023.2.2,Win32,16,686c2ebf0248f13bef9af11f,686c32184a9a635a73cd83b6,,,,,,,,,,,,,,,,,,,,,,,,,,,,,542.1526,1,audio/Narrative8Situation8.wav,545.2389,,545.2389,558.2276,"[[999,0],[999,84],[999,166],[999,231],[999,315],[999,400],[56.8,479],[56.7,552],[55.2,629],[52.8,705],[52.8,780],[52.8,857],[52.8,931],[52.8,1014],[52.8,1089],[52.8,1166],[52.8,1241],[52.8,1320],[51.4,1394],[50.6,1477],[50.5,1552],[50.4,1626],[55.2,1704],[60.8,1780],[61.1,1864],[61.1,1945],[63.2,2019],[67.3,2096],[69,2171],[69.3,2244],[70.4,2323],[70.9,2405],[70.9,2475],[70.9,2554],[70.9,2629],[67.2,2703],[55.9,2780],[52.3,2855],[52.3,2929],[52.3,3004],[52.3,3079],[52.3,3152],[52.8,3227],[53.1,3300],[53.2,3383],[53.2,3464],[53.6,3543],[54.7,3615],[58,3689],[61.9,3772],[63.8,3851],[64.6,3923],[64.7,4008],[64.7,4088],[64.7,4161],[64.7,4241],[64.7,4317],[64.7,4390],[64.7,4466],[64.7,4546],[64.7,4618],[64.7,4698],[64.7,4783],[64.7,4861],[64.7,4939],[64.7,5013],[64.7,5094],[64.7,5172],[64.7,5246],[64.7,5322],[64.7,5398],[64.7,5477],[64.7,5552],[64.4,5633],[63.9,5705],[63.8,5782],[63.8,5865],[63.8,5947],[63.8,6025],[63.8,6101],[68.8,6185],[74.9,6259],[78.8,6336],[80.3,6413],[81.3,6488],[82.3,6571],[82.5,6653],[82.5,6735],[82.5,6815],[82.5,6887],[82.5,6960],[82.5,7033],[82.5,7106],[82.5,7177],[82.5,7250],[82.5,7322],[82.5,7399],[82.5,7475],[82.6,7552],[83.4,7626],[84.4,7701],[87.1,7778],[90.9,7854],[94,7926],[95.4,8000],[96.4,8073],[97.5,8147],[99.4,8226],[100,8308],[100,8380],[100,8454],[100,8527],[100,8605],[100,8679],[100,8752],[100,8824],[100,8898],[100,8969],[100,9051],[100,9124],[100,9198],[100,9274],[100,9349],[100,9430],[100,9504],[100,9577],[100,9651],[100,9727],[100,9811],[100,9893],[100,9973],[100,10047],[100,10135],[100,10209],[100,10280],[100,10355],[100,10439],[100,10518],[100,10591],[100,10676],[100,10749],[100,10822],[100,10894],[100,10971],[100,11052],[100,11132],[100,11206],[100,11288],[100,11368],[100,11450],[100,11526],[100,11615],[100,11687],[100,11767],[100,11848],[100,11923],[100,12006],[100,12081],[100,12158],[100,12230],[100,12302],[100,12383],[100,12468],[100,12542],[100,12615],[100,12691],[100,12769],[100,12835],[100,12908],[100,12988]]",558.2276,561.6433,99.6875,0.7833,"[{""rating"":99.6875,""responseTime"":0.7832999999820913}]",space,2.7158,,561.6433,Not at all,0,561.6446,,,[],,0,8,8,8,1,audio/Narrative7Situation8.wav,audio/Narrative8Situation8.wav,audio/Narrative5Situation8.wav,audio/Narrative6Situation8.wav,2,3,3,5,,,,,,,,,,,,,,,,,,,,,,,,,,,,,,,,,,,,,,,
,,,,,663a5d3e48441f253cc57071,2025-07-07_16h53.45.500,group3.4_multiperson,2023.2.2,Win32,16,686c2ebf0248f13bef9af11f,686c32184a9a635a73cd83b6,,,,,,,,,,,,,,,,,,,,,,,,,,,,,561.6447,1,audio/Narrative8Situation9.wav,564.7013,,564.7013,576.194,"[[79.2,216],[79.5,278],[79.9,363],[80.1,441],[80.1,523],[80.1,599],[80.1,674],[84.6,751],[89.8,832],[91.4,908],[92.7,992],[94.4,1066],[96,1148],[97.4,1225],[98.3,1303],[99.5,1381],[99.9,1458],[99.9,1544],[99.9,1626],[99.9,1705],[99.9,1780],[99.9,1855],[99.9,1929],[99.9,2007],[99.8,2081],[99.6,2161],[99.5,2234],[99.5,2307],[99.5,2394],[99.5,2466],[99.5,2540],[99.5,2616],[99.5,2691],[99.5,2774],[99.5,2845],[99.5,2917],[99.5,2990],[99.5,3063],[99.5,3139],[99.5,3216],[99.5,3295],[99.5,3369],[99.5,3440],[99.5,3513],[99.5,3592],[99.5,3667],[99.5,3739],[99.5,3816],[99.6,3894],[99.6,3972],[99.7,4052],[99.8,4133],[100,4217],[100,4291],[100,4362],[100,4435],[100,4513],[100,4595],[100,4668],[100,4741],[100,4814],[100,4887],[99.8,4959],[99.7,5034],[99.7,5113],[99.7,5185],[99.5,5260],[99.3,5345],[99.2,5426],[99.1,5500],[99,5575],[99,5660],[99,5739],[99,5815],[99,5888],[99,5971],[99,6045],[99,6117],[99,6198],[99.6,6273],[99.7,6346],[99.9,6422],[99.9,6505],[99.9,6580],[100,6656],[100,6741],[100,6816],[100,6889],[100,6970],[100,7056],[100,7129],[100,7206],[100,7280],[100,7355],[100,7439],[100,7512],[100,7586],[100,7655],[100,7728],[100,7801],[100,7885],[100,7960],[100,8028],[100,8100],[100,8173],[100,8252],[100,8326],[100,8408],[100,8480],[100,8553],[100,8638],[100,8710],[100,8788],[100,8860],[100,8925],[100,8997],[100,9070],[100,9145],[100,9228],[100,9308],[100,9386],[100,9457],[100,9539],[100,9612],[100,9685],[100,9757],[100,9830],[100,9903],[100,9976],[100,10049],[100,10125],[100,10203],[100,10280],[100,10359],[100,10435],[100,10514],[100,10591],[100,10674],[100,10748],[100,10824],[100,10897],[100,10971],[100,11050],[100,11126],[100,11200],[100,11270],[100,11343],[100,11417],[100,11492]]",576.1941,579.0562,99.47916667,1.1752,"[{""rating"":99.47916666666667,""responseTime"":1.175199999988081}]",space,2.1043,,579.0562,Partially,50,579.0576,,,[],,0,9,9,9,1,audio/Narrative7Situation9.wav,audio/Narrative8Situation9.wav,audio/Narrative5Situation9.wav,audio/Narrative6Situation9.wav,2,3,3,4,,,,,,,,,,,,,,,,,,,,,,,,,,,,,,,,,,,,,,,
,,,,,663a5d3e48441f253cc57071,2025-07-07_16h53.45.500,group3.4_multiperson,2023.2.2,Win32,16,686c2ebf0248f13bef9af11f,686c32184a9a635a73cd83b6,,,,,,,,,,,,,,,,,,,,,,,,,,,,,579.0577,1,audio/Narrative7Situation1.wav,581.0611,,581.0611,637.0767,"[[95,151],[94.8,229],[94.8,312],[94.8,389],[94.8,469],[94.8,543],[94.2,618],[93.3,701],[90.7,779],[90,860],[85.4,941],[76,1027],[65.9,1102],[60.5,1178],[58.8,1257],[58.6,1332],[58.6,1409],[58.6,1486],[58.6,1565],[58.6,1638],[58.6,1719],[56.7,1797],[50.9,1872],[48.6,1957],[48.6,2031],[48.2,2107],[48.2,2182],[48.2,2254],[48.2,2326],[48.3,2406],[48.5,2479],[48.5,2550],[48.6,2632],[49.9,2707],[49.9,2787],[49.9,2866],[49.9,2949],[49.9,3024],[49.9,3107],[49.9,3179],[49.9,3253],[49.9,3327],[49.9,3402],[49.9,3478],[49.9,3548],[49.9,3627],[49.9,3700],[49.9,3771],[49.9,3843],[49.9,3917],[49.9,3994],[49.9,4066],[49.9,4142],[49.9,4219],[49.9,4297],[49.9,4372],[50,4446],[50.1,4524],[50.4,4598],[51.8,4673],[54.9,4748],[56.8,4824],[57,4900],[57.7,4975],[58,5050],[58,5129],[58,5206],[58.2,5281],[60.4,5359],[64,5442],[66.5,5518],[66.5,5595],[66.5,5671],[66.5,5743],[66.5,5816],[66.5,5886],[66.4,5964],[66.7,6048],[66.7,6123],[66.7,6204],[66.7,6276],[66.7,6350],[64.9,6427],[64.6,6499],[64.5,6571],[64,6647],[62.9,6721],[62.5,6794],[62.5,6875],[62.7,6948],[63.2,7023],[63.3,7095],[63.3,7179],[63.3,7250],[63.3,7323],[63.3,7394],[63.3,7475],[63.3,7546],[63.3,7619],[63.3,7691],[63.3,7763],[63.3,7837],[63.3,7909],[63.3,7991],[63.3,8065],[63.3,8141],[63.3,8214],[63.3,8286],[63.3,8368],[63.3,8449],[63.3,8521],[63.9,8595],[65.4,8667],[67.8,8741],[70.3,8821],[72,8900],[74.5,8981],[76.6,9056],[78.1,9141],[78.9,9216],[80,9292],[81.8,9371],[82.8,9449],[83.6,9526],[83.8,9608],[83.9,9689],[83.9,9769],[83.9,9843],[83.9,9917],[83.9,9991],[83.9,10065],[83.9,10143],[83.9,10215],[83.9,10306],[83.9,10380],[83.9,10454],[83.9,10523],[83.9,10603],[83.9,10676],[83.9,10752],[83.9,10828],[83.9,10903],[83.9,10977],[83.9,11068],[83.9,11140],[83.9,11213],[83.9,11286],[83.9,11349],[83.9,11422],[83.9,11494],[83.9,11567],[83.9,11645],[83.9,11718],[83.9,11790],[83.9,11861],[83.9,11934],[83.9,12007],[83.9,12092],[83.9,12165],[83.9,12243],[83.9,12316],[83.9,12390],[83.9,12464],[83.9,12541],[84,12615],[84.1,12689],[84.4,12762],[84.6,12836],[84.8,12908],[85.3,12982],[86.9,13056],[89.2,13130],[89.4,13211],[89.4,13292],[89.4,13366],[89.4,13443],[89.4,13516],[89.4,13589],[89.4,13662],[89.6,13736],[91.6,13810],[94.9,13899],[95.9,13976],[96.1,14068],[96.3,14150],[96.3,14227],[96.3,14304],[96.3,14377],[96.3,14453],[96.3,14527],[96.3,14600],[96.3,14674],[96.3,14747],[96.5,14821],[97.8,14893],[98.8,14968],[99,15041],[99.2,15119],[99.4,15205],[99.4,15278],[99.4,15358],[99.4,15432],[99.4,15520],[99.4,15596],[99.4,15670],[99.4,15747],[99.4,15822],[99.4,15896],[99.4,15973],[99.4,16046],[99.4,16127],[99.4,16201],[99.4,16274],[99.4,16355],[99.4,16433],[99.4,16509],[99.4,16582],[99.4,16655],[99.4,16728],[99.4,16806],[99.4,16877],[99.4,16957],[99.4,17031],[99.4,17110],[99.4,17185],[99.4,17257],[99.4,17337],[99.4,17409],[99.4,17494],[99.4,17574],[99.4,17652],[99.4,17732],[99.4,17808],[99.3,17882],[98.5,17955],[98.4,18027],[98.4,18100],[98.4,18178],[98.3,18251],[98.3,18325],[98.3,18398],[98.3,18479],[98.3,18552],[98.3,18625],[98,18698],[97.6,18771],[96.5,18846],[93.6,18921],[93.2,18996],[93.2,19068],[93.2,19151],[93.2,19225],[93.2,19304],[93.2,19386],[93.2,19461],[93.2,19538],[93.2,19616],[93.2,19698],[93.2,19772],[93.2,19852],[93.2,19935],[93.2,20015],[93.2,20102],[93.2,20181],[93.2,20254],[93.2,20345],[93.2,20416],[93.2,20489],[92.8,20564],[92.3,20642],[91.6,20718],[90.6,20797],[90.1,20872],[90.1,20945],[90.1,21018],[90.1,21090],[90.4,21172],[90.6,21246],[90.6,21325],[90.6,21400],[89.7,21473],[85.2,21557],[82.3,21640],[82.3,21713],[82.3,21785],[82.3,21858],[82.3,21939],[82.3,22015],[82.3,22091],[82.3,22161],[82.3,22240],[82.3,22311],[82.5,22390],[83.2,22467],[84.2,22543],[85.7,22618],[87.6,22692],[88.9,22767],[89.7,22848],[89.7,22920],[89.7,22993],[89.7,23066],[89.7,23140],[89.7,23218],[89.7,23291],[89.7,23367],[89.7,23440],[89.7,23511],[89.7,23585],[89.7,23658],[89.7,23729],[89.7,23806],[89.7,23898],[89.7,23974],[89.7,24058],[89.7,24134],[89.7,24217],[89.7,24293],[89.7,24367],[89.7,24445],[89.7,24518],[89.7,24592],[90.1,24660],[90.4,24734],[90.5,24807],[90.5,24881],[90.8,24957],[90.8,25030],[90.8,25113],[90.8,25195],[90.8,25272],[90.8,25351],[90.8,25424],[90.8,25497],[90.8,25573],[90.8,25658],[90.8,25741],[90.9,25820],[90.9,25892],[90.9,25966],[90.9,26044],[90.9,26116],[90.9,26192],[90.9,26274],[90.9,26347],[90.9,26421],[90.9,26495],[90.9,26567],[90.9,26639],[90.9,26715],[90.9,26788],[90.9,26861],[90.9,26932],[90.9,27004],[90.9,27078],[90.9,27151],[90.9,27227],[90.9,27306],[90.9,27384],[90.9,27468],[90.9,27530],[90.9,27611],[91.3,27694],[91.8,27772],[92,27853],[92.1,27925],[92.1,27998],[92.3,28069],[92.3,28140],[92.3,28217],[92.3,28297],[93.9,28371],[95.1,28444],[96.5,28509],[97.2,28576],[98.2,28651],[98.4,28726],[98.4,28800],[98.4,28883],[98.4,28983],[98.4,29060],[98.4,29142],[98.4,29218],[98.5,29302],[98.6,29376],[98.6,29456],[98.6,29536],[98.6,29611],[98.6,29685],[98.8,29760],[98.8,29835],[98.8,29908],[98.8,29986],[99.1,30073],[99.8,30153],[99.9,30229],[99.9,30304],[99.9,30374],[99.9,30450],[99.9,30522],[99.9,30601],[99.9,30673],[99.9,30761],[99.9,30835],[99.9,30908],[99.9,30978],[99.9,31049],[100,31129],[100,31204],[100,31285],[100,31357],[100,31428],[100,31507],[100,31579],[100,31662],[100,31734],[100,31816],[100,31890],[100,31963],[100,32045],[100,32118],[100,32193],[100,32270],[100,32343],[100,32415],[100,32488],[100,32559],[100,32645],[100,32714],[100,32788],[100,32866],[100,32947],[100,33021],[100,33093],[100,33169],[100,33244],[100,33316],[100,33391],[100,33467],[100,33553],[100,33633],[100,33705],[100,33778],[100,33858],[100,33936],[100,34011],[100,34094],[100,34177],[100,34263],[100,34340],[100,34424],[100,34504],[100,34586],[100,34662],[100,34738],[100,34813],[100,34889],[100,34961],[100,35037],[100,35118],[100,35193],[100,35268],[100,35347],[100,35423],[100,35497],[100,35571],[100,35653],[100,35726],[100,35806],[100,35890],[100,35969],[100,36042],[100,36109],[100,36185],[100,36259],[100,36334],[100,36407],[100,36484],[100,36557],[100,36628],[100,36703],[100,36776],[100,36856],[100,36934],[100,37015],[100,37087],[100,37161],[100,37234],[100,37317],[100,37391],[100,37471],[100,37543],[100,37623],[100,37697],[100,37771],[100,37846],[100,37919],[100,37991],[100,38065],[100,38139],[100,38214],[100,38286],[100,38358],[100,38440],[100,38513],[100,38590],[100,38666],[100,38739],[100,38817],[100,38892],[100,38971],[100,39059],[100,39134],[100,39217],[100,39293],[100,39368],[100,39449],[100,39530],[100,39607],[100,39681],[100,39754],[100,39830],[100,39914],[100,39990],[100,40065],[100,40147],[100,40219],[100,40306],[100,40381],[100,40461],[100,40533],[100,40608],[100,40684],[100,40755],[100,40831],[100,40910],[100,40984],[100,41057],[100,41133],[100,41211],[100,41288],[100,41360],[100,41434],[100,41515],[100,41593],[100,41667],[100,41743],[100,41820],[100,41897],[100,41969],[100,42047],[100,42120],[100,42194],[100,42264],[100,42337],[100,42411],[100,42483],[100,42558],[100,42632],[100,42712],[100,42783],[100,42857],[100,42931],[100,43013],[100,43088],[100,43160],[100,43236],[100,43309],[100,43382],[100,43454],[100,43528],[100,43608],[100,43680],[100,43753],[100,43831],[100,43916],[100,43995],[100,44076],[100,44157],[100,44241],[100,44315],[100,44389],[100,44464],[100,44545],[100,44619],[100,44691],[100,44765],[100,44842],[100,44918],[100,44993],[100,45065],[100,45140],[100,45225],[100,45298],[100,45381],[100,45455],[100,45531],[100,45605],[100,45671],[100,45745],[100,45821],[100,45894],[100,45967],[100,46039],[100,46111],[100,46187],[100,46261],[100,46335],[100,46407],[100,46480],[100,46552],[100,46623],[100,46698],[100,46771],[100,46851],[100,46925],[100,46999],[100,47072],[100,47146],[100,47218],[100,47290],[100,47363],[100,47445],[100,47522],[100,47593],[100,47675],[100,47747],[100,47820],[100,47900],[100,47978],[100,48050],[100,48123],[100,48198],[100,48272],[100,48350],[100,48422],[100,48495],[100,48566],[100,48638],[100,48712],[100,48784],[100,48873],[100,48948],[100,49025],[100,49101],[100,49177],[100,49254],[100,49330],[100,49410],[100,49482],[100,49567],[100,49647],[100,49724],[100,49798],[100,49872],[100,49947],[100,50022],[100,50105],[100,50180],[100,50252],[100,50327],[100,50403],[100,50476],[100,50550],[100,50630],[100,50703],[100,50779],[100,50854],[100,50937],[100,51014],[100,51092],[100,51175],[100,51248],[100,51321],[100,51402],[100,51481],[100,51555],[100,51628],[100,51701],[100,51774],[100,51848],[100,51922],[100,52002],[100,52073],[100,52151],[100,52229],[100,52303],[100,52375],[100,52447],[100,52521],[100,52594],[100,52669],[100,52743],[100,52815],[100,52889],[100,52960],[100,53033],[100,53112],[100,53192],[100,53259],[100,53337],[100,53418],[100,53493],[100,53572],[100,53644],[100,53716],[100,53788],[100,53886],[100,53962],[100,54051],[100,54133],[100,54214],[100,54288],[100,54369],[100,54443],[100,54517],[100,54585],[100,54658],[100,54735],[100,54815],[100,54892],[100,54966],[100,55038],[100,55119],[100,55193],[100,55267],[100,55342],[100,55407],[100,55474],[100,55541],[100,55621],[100,55705],[100,55783],[100,55860],[100,55942],[100,56015]]",637.0767,645.4564,98.54166667,7.2272,"[{""rating"":87.1875,""responseTime"":6.089599999994107},{""rating"":98.54166666666666,""responseTime"":7.227199999988102}]",space,7.6698,,645.4565,Partially,50,645.4581,,,[],,0,10,10,10,1,audio/Narrative8Situation1.wav,audio/Narrative7Situation1.wav,audio/Narrative6Situation1.wav,audio/Narrative5Situation1.wav,5,2,2,5,,,,,,,,,,,,,,,,,,,,,,,,,,,,,,,,,,,,,,,
,,,,,663a5d3e48441f253cc57071,2025-07-07_16h53.45.500,group3.4_multiperson,2023.2.2,Win32,16,686c2ebf0248f13bef9af11f,686c32184a9a635a73cd83b6,,,,,,,,,,,,,,,,,,,,,,,,,,,,,645.4583,1,audio/Narrative7Situation2.wav,648.4589,,648.4589,656.1188,"[[999,0],[999,73],[999,146],[999,219],[999,292],[999,365],[999,438],[53.2,511],[53.2,582],[53.2,655],[53.4,730],[53.4,811],[53.8,887],[55.4,965],[55.5,1040],[55.5,1113],[55.7,1184],[56.8,1256],[58.1,1331],[58.2,1403],[58.5,1480],[60.3,1556],[65.8,1640],[76.5,1727],[88.2,1806],[92.8,1874],[93.4,1954],[94.6,2031],[97.2,2105],[98.2,2189],[98.4,2271],[98.4,2346],[98.6,2419],[99.4,2508],[99.4,2582],[99.4,2657],[99.7,2737],[100,2811],[100,2897],[100,2974],[100,3048],[100,3130],[100,3216],[100,3299],[100,3373],[100,3449],[100,3522],[100,3603],[100,3669],[100,3744],[100,3829],[100,3902],[100,3973],[100,4045],[100,4120],[100,4193],[100,4268],[100,4341],[100,4419],[100,4493],[100,4569],[100,4640],[100,4714],[100,4783],[100,4858],[100,4935],[100,5019],[100,5093],[100,5167],[100,5240],[100,5312],[100,5385],[100,5461],[100,5533],[100,5610],[100,5682],[100,5763],[100,5836],[100,5907],[100,5984],[100,6059],[100,6132],[100,6220],[100,6291],[100,6364],[100,6440],[100,6526],[100,6605],[100,6681],[100,6760],[100,6841],[100,6921],[100,6996],[100,7069],[100,7143],[100,7217],[100,7291],[100,7364],[100,7442],[100,7517],[100,7585],[100,7659]]",656.119,663.6139,99.47916667,1.8981,"[{""rating"":99.47916666666667,""responseTime"":1.8980999999940877}]",space,6.8244,,663.6139,Definitely yes,100,663.6154,,,[],,0,11,11,11,1,audio/Narrative8Situation2.wav,audio/Narrative7Situation2.wav,audio/Narrative6Situation2.wav,audio/Narrative5Situation2.wav,3,3,3,3,,,,,,,,,,,,,,,,,,,,,,,,,,,,,,,,,,,,,,,
,,,,,663a5d3e48441f253cc57071,2025-07-07_16h53.45.500,group3.4_multiperson,2023.2.2,Win32,16,686c2ebf0248f13bef9af11f,686c32184a9a635a73cd83b6,,,,,,,,,,,,,,,,,,,,,,,,,,,,,663.6155,1,audio/Narrative7Situation3.wav,671.6608,,671.6609,681.063,"[[999,0],[999,75],[999,158],[999,232],[999,307],[50.7,381],[50.5,456],[50.4,537],[50.2,609],[50.1,683],[50.1,759],[50.1,840],[50.1,912],[50.1,994],[50.1,1073],[50.1,1151],[50.1,1232],[50.1,1314],[56.4,1389],[73.8,1470],[82.3,1552],[82.3,1627],[82.7,1699],[83.8,1776],[86.1,1849],[86.8,1931],[87.5,2004],[87.6,2075],[87.6,2150],[88.6,2224],[94.8,2298],[95.8,2370],[95.8,2441],[95.8,2512],[94.3,2587],[89.8,2662],[80.7,2736],[79.1,2812],[79,2893],[79,2966],[79,3040],[79,3112],[79,3194],[79,3267],[79,3358],[79,3433],[79,3507],[79,3583],[79,3656],[78.8,3734],[78.8,3819],[78.8,3894],[80,3978],[87.3,4053],[90.5,4128],[90.5,4203],[90.5,4277],[96.5,4353],[100,4436],[100,4508],[100,4584],[100,4662],[100,4766],[100,4840],[100,4923],[100,5005],[100,5078],[100,5155],[100,5233],[100,5306],[100,5381],[100,5467],[100,5540],[100,5613],[100,5689],[100,5762],[100,5837],[100,5919],[100,5991],[100,6065],[100,6144],[100,6222],[100,6295],[100,6368],[100,6441],[100,6513],[100,6588],[100,6670],[100,6743],[100,6827],[100,6909],[100,6990],[100,7069],[100,7150],[100,7224],[99.7,7296],[99.3,7368],[99.3,7442],[99.3,7519],[99.3,7599],[99.3,7680],[99.3,7760],[99.8,7834],[100,7908],[100,7992],[100,8066],[100,8139],[100,8212],[100,8291],[100,8367],[100,8449],[100,8541],[100,8617],[100,8701],[100,8774],[100,8853],[100,8938],[100,9016],[100,9088],[100,9173],[100,9250],[100,9323],[100,9401]]",681.0631,686.4425,99.375,3.9552,"[{""rating"":99.375,""responseTime"":3.9552000000178396}]",space,4.6585,,686.4425,Partially,50,686.4437,,,[],,0,12,12,12,1,audio/Narrative8Situation3.wav,audio/Narrative7Situation3.wav,audio/Narrative6Situation3.wav,audio/Narrative5Situation3.wav,4,8,5,3,,,,,,,,,,,,,,,,,,,,,,,,,,,,,,,,,,,,,,,
,,,,,663a5d3e48441f253cc57071,2025-07-07_16h53.45.500,group3.4_multiperson,2023.2.2,Win32,16,686c2ebf0248f13bef9af11f,686c32184a9a635a73cd83b6,,,,,,,,,,,,,,,,,,,,,,,,,,,,,686.4439,1,audio/Narrative7Situation4.wav,689.4569,,689.4569,701.3493,"[[999,0],[999,74],[999,153],[999,231],[999,309],[999,381],[999,454],[90.5,530],[89.7,605],[88.8,688],[88.2,756],[86.9,850],[84,932],[79.7,1011],[79,1089],[79,1162],[79,1237],[79.8,1311],[80.2,1392],[80.2,1475],[80.2,1551],[80.2,1624],[80.2,1704],[80.2,1779],[70.3,1867],[63.5,1949],[62.8,2025],[62,2101],[60.5,2181],[54.1,2266],[48,2353],[47.8,2431],[47.8,2505],[47.8,2579],[48.1,2654],[48.5,2728],[48.9,2802],[49.1,2875],[49.3,2949],[49.4,3023],[49.6,3099],[49.8,3175],[49.9,3249],[49.9,3320],[49.9,3393],[49.9,3468],[49.9,3541],[49.9,3615],[49.9,3688],[49.9,3762],[49.9,3845],[49.9,3917],[49.9,3990],[49.9,4065],[49.9,4137],[49.9,4208],[49.9,4283],[49.9,4355],[48,4430],[41.8,4510],[39.4,4585],[35.4,4669],[28.3,4750],[24.5,4825],[24,4898],[24,4975],[23.9,5047],[23.9,5120],[23.9,5192],[23.9,5267],[23.9,5341],[23.9,5427],[23.9,5501],[23.2,5582],[20.5,5661],[11.9,5760],[6.5,5842],[5.8,5922],[5.5,6003],[2.1,6079]]",701.3494,706.9262,0.104166667,4.2932,"[{""rating"":0.1041666666666663,""responseTime"":4.293200000017919}]",space,4.8406,,706.9262,Definitely yes,100,706.9276,,,[],,0,13,13,13,1,audio/Narrative8Situation4.wav,audio/Narrative7Situation4.wav,audio/Narrative6Situation4.wav,audio/Narrative5Situation4.wav,3,3,2,1,,,,,,,,,,,,,,,,,,,,,,,,,,,,,,,,,,,,,,,
,,,,,663a5d3e48441f253cc57071,2025-07-07_16h53.45.500,group3.4_multiperson,2023.2.2,Win32,16,686c2ebf0248f13bef9af11f,686c32184a9a635a73cd83b6,,,,,,,,,,,,,,,,,,,,,,,,,,,,,706.9276,1,audio/Narrative7Situation5.wav,711.9787,,711.9787,720.6429,"[[999,0],[999,81],[999,155],[999,227],[999,307],[999,393],[52.4,468],[52.5,541],[52.3,624],[52,701],[51.6,774],[51.5,847],[51.4,922],[51.4,995],[51.3,1068],[51.3,1149],[51.3,1223],[51.3,1297],[51,1377],[50.6,1451],[49.7,1528],[48.6,1607],[47.5,1671],[41.1,1745],[27.3,1822],[21.5,1899],[17.3,1969],[10.3,2054],[6.7,2141],[4.3,2215],[3.2,2298],[3,2376],[3,2454],[3.1,2533],[3.6,2605],[4.6,2680],[7.4,2756],[10.6,2835],[12.1,2909],[13.8,2983],[15.5,3065],[16,3142],[16,3221],[16.3,3297],[16.7,3375],[17.3,3451],[18.4,3531],[19.7,3616],[20.2,3691],[20.5,3764],[20.8,3839],[21.4,3921],[22,3996],[22.7,4076],[23.4,4150],[24.1,4215],[25,4292],[25.9,4374],[27,4456],[29.1,4532],[30.7,4609],[32,4694],[32.3,4774],[32.4,4847],[32.4,4933],[32.8,5012],[35.6,5087],[40,5164],[44,5240],[45.4,5313],[45.5,5385],[45.6,5451],[46.9,5528],[47.8,5610],[47.8,5692],[48,5764],[49.1,5838],[49.4,5918],[49.4,5993],[49.4,6067],[49.4,6138],[49.4,6217],[49.4,6289],[49.4,6362],[49.4,6436],[49.4,6511],[49.6,6588],[49.7,6661],[49.8,6734],[49.8,6818],[49.8,6891],[49.8,6962],[49.8,7036],[49.8,7109],[49.8,7183],[49.8,7258],[49.8,7330],[49.8,7410],[49.8,7486],[49.8,7558],[49.8,7631],[49.8,7714],[49.8,7788],[49.8,7863],[49.8,7937],[49.9,8033],[50.1,8123],[50.2,8193],[50.3,8266],[50.4,8340],[50.8,8418],[53.2,8502],[55,8597],[55.8,8664]]",720.643,726.4804,57.08333333,1.6521,"[{""rating"":57.08333333333333,""responseTime"":1.6520999999941068}]",space,5.0984,,726.4805,Partially,50,726.4819,,,[],,0,14,14,14,1,audio/Narrative8Situation5.wav,audio/Narrative7Situation5.wav,audio/Narrative6Situation5.wav,audio/Narrative5Situation5.wav,2,5,2,5,,,,,,,,,,,,,,,,,,,,,,,,,,,,,,,,,,,,,,,
,,,,,663a5d3e48441f253cc57071,2025-07-07_16h53.45.500,group3.4_multiperson,2023.2.2,Win32,16,686c2ebf0248f13bef9af11f,686c32184a9a635a73cd83b6,,,,,,,,,,,,,,,,,,,,,,,,,,,,,726.482,1,audio/Narrative7Situation6.wav,729.5501,,729.5501,739.6839,"[[48.3,78],[48.4,145],[48.6,228],[48.8,300],[48.8,373],[49,449],[49.1,524],[49.1,608],[49.1,682],[49.1,762],[49.1,837],[49.2,920],[49.7,994],[49.5,1301],[49.6,1376],[49.7,1450],[50.5,1525],[53.1,1599],[55,1682],[55.3,1764],[55.6,1840],[55.9,1916],[56.8,1990],[59.6,2066],[61.8,2141],[62.2,2215],[63.5,2302],[65.3,2381],[69,2466],[72.1,2547],[73.9,2613],[75.5,2688],[78.4,2761],[82.8,2846],[88.8,2923],[98,3001],[100,3077],[100,3158],[100,3232],[100,3306],[97.8,3380],[97.7,3461],[97.4,3536],[96.9,3616],[96.7,3690],[95.9,3764],[92.5,3840],[92.2,3914],[92.2,3988],[92.2,4064],[92.2,4136],[92.2,4209],[92.2,4285],[92.2,4357],[94.2,4432],[97.7,4505],[97.8,4577],[97.8,4650],[97.8,4725],[97.8,4798],[97.8,4878],[97.8,4950],[97.8,5023],[97.8,5097],[97.8,5170],[97.8,5242],[98.3,5313],[100,5389],[100,5471],[100,5554],[100,5632],[100,5709],[100,5786],[100,5862],[100,5935],[100,6009],[100,6085],[100,6166],[100,6242],[100,6324],[99.4,6399],[98.8,6471],[98.4,6552],[98.4,6635],[98.4,6708],[98.4,6782],[98.4,6857],[98.4,6935],[98.4,7009],[98.4,7088],[98.4,7172],[98.4,7245],[98.4,7319],[99.2,7392],[99.6,7469],[100,7559],[100,7634],[100,7708],[100,7791],[100,7863],[100,7942],[100,8016],[100,8091],[100,8171],[100,8247],[100,8322],[100,8404],[100,8483],[100,8557],[100,8631],[100,8711],[100,8784],[100,8858],[100,8931],[100,9003],[100,9076],[100,9143],[100,9217],[100,9292],[100,9364],[100,9442],[100,9515],[100,9595],[100,9677],[100,9754],[100,9827],[100,9904],[100,9982],[100,10061],[100,10133]]",739.684,743.3445,98.95833333,1.4222,"[{""rating"":98.95833333333333,""responseTime"":1.422200000017824}]",space,2.9838,,743.3446,Not at all,0,743.346,,,[],,0,15,15,15,1,audio/Narrative8Situation6.wav,audio/Narrative7Situation6.wav,audio/Narrative6Situation6.wav,audio/Narrative5Situation6.wav,2,3,2,3,,,,,,,,,,,,,,,,,,,,,,,,,,,,,,,,,,,,,,,
,,,,,663a5d3e48441f253cc57071,2025-07-07_16h53.45.500,group3.4_multiperson,2023.2.2,Win32,16,686c2ebf0248f13bef9af11f,686c32184a9a635a73cd83b6,,,,,,,,,,,,,,,,,,,,,,,,,,,,,743.3461,1,audio/Narrative7Situation7.wav,748.3839,,748.3839,765.7177,"[[999,0],[999,81],[999,153],[999,227],[999,299],[999,371],[999,443],[999,525],[999,600],[98.9,681],[98.4,753],[97.5,828],[97.5,904],[97.5,978],[97.5,1058],[97.5,1130],[97.5,1205],[97.5,1279],[97.5,1354],[97.8,1429],[99.1,1505],[99.8,1582],[100,1663],[100,1748],[100,1822],[100,1903],[100,1977],[100,2062],[100,2140],[100,2215],[100,2290],[100,2370],[100,2444],[100,2530],[100,2604],[100,2683],[100,2758],[100,2831],[100,2907],[100,2984],[100,3066],[100,3142],[100,3215],[100,3295],[100,3370],[100,3442],[100,3516],[100,3589],[100,3662],[100,3736],[100,3809],[100,3881],[100,3966],[100,4041],[100,4114],[100,4188],[100,4259],[100,4335],[100,4408],[100,4481],[100,4555],[100,4635],[100,4706],[100,4786],[100,4859],[100,4937],[100,5016],[100,5094],[100,5168],[100,5240],[100,5314],[100,5389],[100,5462],[100,5537],[100,5600],[100,5673],[100,5745],[100,5819],[100,5898],[100,5977],[100,6050],[100,6123],[100,6204],[100,6282],[100,6360],[100,6434],[100,6508],[100,6590],[100,6665],[100,6739],[100,6814],[100,6903],[100,6977],[100,7054],[100,7128],[100,7203],[100,7283],[100,7357],[100,7432],[100,7515],[100,7594],[100,7667],[100,7745],[100,7822],[100,7898],[100,7971],[100,8047],[100,8128],[100,8202],[100,8277],[100,8351],[100,8425],[100,8509],[100,8583],[100,8672],[100,8748],[100,8821],[100,8902],[100,8979],[100,9061],[100,9133],[100,9210],[100,9283],[100,9354],[100,9439],[100,9519],[100,9592],[100,9663],[100,9737],[100,9815],[100,9889],[100,9971],[100,10046],[100,10117],[100,10190],[100,10263],[100,10336],[100,10408],[100,10482],[100,10565],[100,10643],[100,10716],[100,10796],[100,10869],[100,10942],[100,11014],[100,11086],[100,11160],[100,11233],[100,11304],[100,11377],[100,11449],[100,11531],[100,11605],[100,11682],[100,11762],[100,11840],[100,11918],[100,11991],[100,12072],[100,12146],[100,12222],[100,12294],[100,12369],[100,12441],[100,12520],[100,12593],[100,12668],[100,12746],[100,12820],[100,12897],[100,12973],[100,13046],[100,13120],[100,13194],[100,13272],[100,13345],[100,13421],[100,13485],[100,13559],[100,13635],[100,13710],[100,13784],[100,13858],[100,13931],[100,14003],[100,14075],[100,14148],[100,14225],[100,14293],[100,14373],[100,14445],[100,14523],[100,14596],[100,14677],[100,14749],[100,14831],[100,14903],[100,14976],[100,15049],[100,15130],[100,15205],[100,15277],[100,15354],[100,15433],[100,15514],[100,15589],[100,15662],[100,15735],[100,15809],[100,15883],[100,15957],[100,16032],[100,16102],[100,16171],[100,16251],[100,16324],[100,16398],[100,16475],[100,16553],[100,16634],[100,16710],[100,16783],[100,16868],[100,16947],[100,17023],[100,17113],[100,17186],[100,17259],[100,17333]]",765.7177,769.6468,99.6875,2.3876,"[{""rating"":99.6875,""responseTime"":2.3875999999941087}]",space,3.2729,,769.6469,Definitely yes,100,769.6484,,,[],,0,16,16,16,1,audio/Narrative8Situation7.wav,audio/Narrative7Situation7.wav,audio/Narrative6Situation7.wav,audio/Narrative5Situation7.wav,3,5,5,4,,,,,,,,,,,,,,,,,,,,,,,,,,,,,,,,,,,,,,,
,,,,,663a5d3e48441f253cc57071,2025-07-07_16h53.45.500,group3.4_multiperson,2023.2.2,Win32,16,686c2ebf0248f13bef9af11f,686c32184a9a635a73cd83b6,,,,,,,,,,,,,,,,,,,,,,,,,,,,,769.6484,1,audio/Narrative7Situation8.wav,771.7159,,771.716,781.8713,"[[99.5,924],[100,998],[100,1072],[100,1152],[100,1229],[100,1302],[100,1373],[100,1446],[100,1529],[100,1600],[100,1671],[99.5,1745],[98.3,1818],[97.2,1894],[96.3,1968],[95.2,2032],[94.8,2107],[94.7,2181],[94.7,2253],[94.7,2328],[94.7,2409],[94.5,2491],[94.4,2572],[94.4,2646],[94.4,2718],[94.3,2797],[94.3,2873],[94.3,2955],[94.5,3035],[94.8,3107],[94.8,3196],[94.8,3287],[93.4,3361],[92.8,3441],[92.8,3519],[92.8,3597],[92.8,3672],[92.8,3746],[92.8,3829],[92.8,3913],[92.8,3992],[92.8,4066],[92.8,4139],[92.8,4211],[92.8,4286],[92.8,4369],[93,4441],[93.3,4518],[94,4600],[94.7,4676],[95,4760],[95.1,4845],[95.1,4922],[95.2,4995],[96.4,5069],[97.8,5145],[98.9,5218],[99.3,5290],[99.3,5363],[99.3,5440],[99.3,5510],[99.3,5586],[99.3,5657],[99.4,5730],[99.9,5802],[100,5875],[100,5948],[100,6021],[100,6090],[100,6164],[100,6238],[100,6309],[100,6381],[100,6452],[100,6526],[100,6599],[100,6672],[100,6746],[100,6818],[100,6890],[100,6965],[100,7037],[100,7106],[100,7185],[100,7263],[100,7336],[100,7412],[100,7484],[100,7557],[100,7630],[100,7703],[100,7786],[100,7864],[100,7938],[100,8013],[100,8084],[100,8157],[100,8235],[100,8315],[100,8394],[100,8470],[100,8552],[100,8626],[100,8711],[100,8786],[100,8861],[100,8946],[100,9019],[100,9093],[100,9167],[100,9240],[100,9313],[100,9389],[100,9470],[100,9559],[100,9637],[100,9710],[100,9784],[100,9857],[100,9934],[100,10008],[100,10082],[100,10155]]",781.8714,786.1277,94.58333333,2.6274,"[{""rating"":97.5,""responseTime"":1.3587000000178477},{""rating"":93.125,""responseTime"":1.9973000000119328},{""rating"":94.58333333333333,""responseTime"":2.6274000000059914}]",space,3.5356,,786.1278,Definitely yes,100,786.1288,,,[],,0,17,17,17,1,audio/Narrative8Situation8.wav,audio/Narrative7Situation8.wav,audio/Narrative6Situation8.wav,audio/Narrative5Situation8.wav,3,2,5,3,,,,,,,,,,,,,,,,,,,,,,,,,,,,,,,,,,,,,,,
,,,,,663a5d3e48441f253cc57071,2025-07-07_16h53.45.500,group3.4_multiperson,2023.2.2,Win32,16,686c2ebf0248f13bef9af11f,686c32184a9a635a73cd83b6,,,,,,,,,,,,,,,,,,,,,,,,,,,,,786.1289,1,audio/Narrative7Situation9.wav,788.1741,,788.1741,796.9128,"[[99.1,453],[99.6,528],[88.8,1134],[95.8,1216],[100,1292],[100,1366],[100,1440],[96.6,1514],[95.3,1593],[94.9,1666],[94.9,1744],[96.5,1819],[97.5,1894],[99.1,1977],[99.6,2065],[99.7,2150],[100,2234],[100,2310],[100,2385],[100,2466],[100,2545],[100,2629],[100,2710],[100,2784],[100,2856],[100,2928],[99.8,3010],[99.6,3093],[99.6,3170],[99.6,3243],[99.6,3317],[99.7,3403],[99.8,3477],[99.9,3560],[99.9,3633],[100,3712],[100,3792],[100,3870],[100,3944],[100,4018],[100,4092],[100,4165],[100,4248],[100,4320],[100,4392],[100,4465],[100,4539],[100,4612],[100,4684],[100,4756],[100,4830],[100,4900],[100,4973],[100,5055],[100,5129],[100,5200],[100,5280],[100,5351],[100,5432],[100,5512],[100,5588],[100,5662],[100,5737],[100,5810],[100,5882],[100,5963],[100,6037],[100,6110],[100,6190],[100,6263],[100,6336],[100,6408],[100,6486],[99.9,6570],[99.8,6644],[99.6,6718],[99.5,6799],[99.5,6878],[99.5,6961],[99.5,7035],[99.5,7118],[99.5,7191],[99.5,7269],[99.5,7348],[99.5,7417],[100,7495],[100,7571],[100,7644],[100,7725],[100,7798],[100,7884],[100,7962],[100,8043],[100,8118],[100,8200],[100,8275],[100,8348],[100,8440],[100,8516],[100,8590],[100,8664],[100,8738]]",796.9129,799.0995,99.16666667,0.8917,"[{""rating"":99.16666666666667,""responseTime"":0.8916999999880773}]",space,1.4683,,799.0995,Definitely yes,100,799.1007,,,[],,0,18,18,18,1,audio/Narrative8Situation9.wav,audio/Narrative7Situation9.wav,audio/Narrative6Situation9.wav,audio/Narrative5Situation9.wav,3,2,4,3,,,,,,,,,,,,,,,,,,,,,,,,,,,,,,,,,,,,,,,
,,,,,663a5d3e48441f253cc57071,2025-07-07_16h53.45.500,group3.4_multiperson,2023.2.2,Win32,16,686c2ebf0248f13bef9af11f,686c32184a9a635a73cd83b6,,,,,,,,,,,,,,,,,,,,,,,,,,,807.768,810.3307,810.3382,2,audio/Narrative13Situation2.wav,810.3382,,810.3382,840.3217,"[[85.8,512],[64.8,1200],[73.2,1277],[87.9,1360],[91.5,1434],[91.4,1507],[87.7,1582],[68.9,1658],[42.5,1733],[28.6,1808],[18.8,1883],[13.4,1958],[13,2031],[13,2105],[12.6,2185],[10.3,2260],[6.9,2334],[5.2,2408],[4.8,2483],[4.7,2556],[4.7,2634],[4.7,2710],[4.7,2790],[4.8,2864],[5.1,2936],[5.8,3017],[6.7,3089],[8,3162],[8.5,3245],[8.6,3319],[8.6,3397],[8.6,3479],[8.6,3550],[8.6,3620],[8.6,3692],[8.6,3763],[8.6,3837],[8.6,3913],[8.1,3990],[7.6,4064],[7.1,4142],[6.3,4214],[5.4,4293],[4.7,4373],[4.4,4447],[4.3,4522],[4.3,4600],[5.2,4686],[7,4773],[7.2,4854],[8.5,4932],[9.4,5007],[9.4,5086],[7.5,5161],[3.1,5247],[1.8,5321],[1.3,5414],[1.3,5498],[1.3,5574],[1.3,5658],[1.3,5730],[1.3,5803],[1.3,5879],[1.3,5955],[1.3,6028],[1.3,6105],[1.3,6179],[1.3,6254],[1.3,6328],[1.3,6401],[1.3,6480],[1.3,6554],[1.3,6629],[1.3,6703],[1.7,6780],[2.5,6854],[3.2,6926],[4.9,7011],[7.2,7084],[8.9,7159],[10.4,7245],[11.6,7328],[11.6,7402],[11.6,7476],[11.6,7551],[11.6,7628],[11.6,7702],[11.6,7775],[11.6,7836],[11.7,7910],[11.7,7992],[11.7,8066],[11.7,8136],[12.7,8209],[17.4,8288],[21.7,8362],[23.2,8442],[24.4,8511],[25.1,8586],[25.4,8659],[26.8,8732],[31.1,8806],[34.7,8880],[36.3,8959],[37.2,9036],[38.8,9108],[40.8,9180],[42,9262],[42.9,9334],[44.4,9407],[45.1,9485],[45.4,9579],[45.4,9660],[45.3,9729],[38.8,9832],[35,9909],[32.3,9998],[30.9,10079],[30.1,10156],[29.6,10230],[29,10304],[28.2,10385],[28,10461],[27.4,10544],[25.5,10620],[24,10693],[22.8,10767],[21.6,10842],[20.1,10922],[20,11001],[20,11076],[19.1,11157],[17.8,11230],[17.2,11316],[16.1,11390],[14.8,11467],[13.6,11553],[12.5,11629],[12.2,11704],[11.3,11785],[10.2,11861],[9.5,11933],[9.1,12006],[9,12082],[9,12160],[9,12234],[9,12307],[8.9,12382],[8.9,12453],[8.9,12528],[8.9,12611],[8.9,12682],[8.9,12755],[8.9,12828],[8.9,12902],[8.9,12979],[8.9,13064],[8.9,13138],[8.2,13212],[8,13285],[8,13359],[8,13431],[8,13510],[8,13589],[8,13663],[8,13739],[8,13811],[8,13889],[8,13968],[8,14046],[8,14115],[8,14198],[8,14272],[8,14344],[8,14419],[8,14493],[8,14587],[8,14664],[7.1,14750],[4.6,14831],[4.2,14911],[4.2,15008],[4.1,15083],[4.1,15160],[4.1,15234],[4.1,15313],[4.1,15388],[4.1,15467],[4.1,15546],[4.1,15620],[4.1,15692],[4.1,15764],[3.5,15839],[2.4,15912],[2.1,15995],[2.1,16080],[2,16161],[2,16235],[2,16307],[1.9,16382],[1.9,16458],[2,16534],[2.3,16617],[5.6,16694],[11.4,16772],[14.4,16852],[15.3,16929],[15.3,17011],[15.3,17091],[15.3,17173],[15.3,17246],[15.3,17319],[15.3,17396],[15.3,17470],[15.3,17545],[15.3,17625],[15.3,17704],[15.4,17782],[15.8,17855],[17.8,17927],[18.6,18001],[18.6,18078],[18.6,18157],[18.6,18238],[18.6,18311],[18.6,18384],[18.6,18456],[18.6,18530],[18.6,18605],[18.6,18678],[18.6,18753],[18.5,18826],[16.6,18901],[12.2,18977],[11.7,19055],[11.1,19139],[8.9,19214],[7.1,19286],[5.8,19359],[4.7,19431],[3.4,19507],[3,19592],[3,19678],[3,19766],[3,19849],[2.6,19929],[2.5,20003],[2.5,20081],[2.5,20156],[2.5,20228],[2.5,20304],[2.5,20383],[2.5,20469],[2.5,20543],[2.5,20621],[2.6,20694],[5.5,20770],[8.8,20837],[10.8,20913],[10.9,20988],[10.9,21065],[10.9,21138],[10.9,21226],[10.9,21298],[10.7,21372],[10.7,21449],[10.7,21546],[13.8,21629],[20.1,21711],[23.2,21787],[23.8,21860],[23.8,21934],[23.8,22011],[22.1,22085],[21.1,22158],[21,22236],[20.8,22308],[20.8,22383],[20.8,22456],[20.8,22530],[20.8,22605],[20.8,22678],[20.9,22756],[21,22829],[21.1,22904],[21.1,22978],[21.1,23051],[21.3,23125],[21.5,23199],[21.6,23276],[21.7,23351],[21.7,23424],[21.7,23495],[21.7,23570],[21.7,23643],[21.7,23716],[21.7,23789],[21.7,23870],[21.7,23942],[21.7,24017],[21.7,24090],[21.8,24166],[24.1,24247],[27.1,24326],[28.6,24410],[29.9,24483],[30.3,24558],[30.6,24637],[30.8,24711],[31.1,24792],[32.6,24878],[36.8,24956],[40.1,25031],[42.3,25106],[42.7,25172],[43.3,25252],[43.3,25324],[43.3,25407],[43.3,25481],[43.3,25565],[43.3,25644],[43.3,25723],[43.3,25801],[43.3,25879],[43.3,25954],[43.3,26034],[43.3,26106],[43.3,26182],[43.4,26259],[43.4,26350],[43.4,26433],[43.4,26516],[43.4,26588],[43.4,26660],[43.4,26733],[43.4,26809],[43.4,26881],[43.4,26955],[43.4,27031],[43.4,27104],[43.4,27168],[43.4,27247],[43.4,27320],[43.4,27392],[44.1,27472],[44.6,27547],[44.7,27619],[44.7,27692],[44.7,27766],[44.7,27842],[45.4,27924],[45.9,27997],[45.9,28072],[45.9,28148],[45.5,28230],[44.6,28302],[43.2,28376],[42.1,28454],[41.7,28529],[41.7,28601],[41.7,28674],[41.7,28745],[41.7,28827],[41.7,28902],[41.7,28975],[41.7,29047],[41.7,29119],[41.7,29192],[41.7,29264],[41.7,29346],[41.7,29424],[41.7,29504],[41.7,29580],[41.7,29658],[41.7,29732],[41.7,29812],[41.7,29901],[41.7,29983]]",840.3218,840.3232,,,[],,,,840.3233,Definitely yes,100,840.3237,,,[],,0,0,0,0,1,audio/Narrative13Situation2.wav,audio/Narrative13Situation2.wav,audio/Narrative13Situation2.wav,audio/Narrative13Situation2.wav,2,2,2,2,,,,,799.1009,807.7678,space,8.0478,,,,,,,,,,,,,,,,,,,,,,,,,,,,,,,
,,,,,663a5d3e48441f253cc57071,2025-07-07_16h53.45.500,group3.4_multiperson,2023.2.2,Win32,16,686c2ebf0248f13bef9af11f,686c32184a9a635a73cd83b6,,,,,,,,,,,,,,,,,,,,,,,,,,,,,840.3238,2,audio/Narrative6Situation1.wav,842.3373,,842.3373,869.1109,"[[41.5,678],[41.4,750],[41,831],[40.8,912],[40.8,985],[40.8,1057],[40.8,1137],[40.8,1220],[40.8,1294],[40.8,1367],[40.8,1440],[40.8,1515],[40.8,1591],[40.8,1664],[40.8,1740],[40.8,1812],[40.8,1885],[40.8,1962],[40.8,2036],[40.8,2108],[40.8,2181],[40.8,2254],[40.8,2327],[40.8,2400],[40.8,2480],[40.8,2554],[40.8,2640],[40.8,2718],[40.8,2792],[40.8,2873],[40.8,2948],[40.8,3024],[40.8,3108],[40.8,3191],[40.8,3270],[40.8,3347],[40.8,3420],[40.8,3495],[40.8,3572],[39.4,3657],[37.7,3731],[37.7,3809],[37.5,3885],[35.3,3959],[29.1,4036],[24.3,4111],[22.7,4185],[22,4258],[21.9,4332],[21.8,4414],[21.1,4489],[20.7,4566],[20.7,4638],[20.7,4726],[20.7,4798],[20.9,4872],[21.9,4949],[22.9,5022],[23.5,5102],[23.8,5178],[23.8,5247],[23.8,5322],[23.8,5400],[24.2,5471],[27.7,5550],[34,5626],[35.1,5710],[35.4,5782],[36,5856],[37.7,5932],[38.9,6005],[40.6,6082],[42.5,6157],[43.5,6239],[44.3,6315],[45.1,6390],[45.8,6464],[46.4,6543],[46.8,6617],[47.1,6695],[47.4,6767],[47.6,6848],[47.9,6926],[48.2,6998],[48.4,7078],[49,7155],[49.5,7229],[49.6,7310],[49.8,7382],[49.9,7458],[50.1,7532],[50.1,7609],[50.7,7693],[50.8,7776],[50.8,7865],[50.8,7931],[50.8,8004],[50.9,8082],[51.4,8161],[51.4,8240],[51.4,8314],[51.4,8396],[51.4,8471],[51.4,8545],[51.4,8623],[51.5,8701],[54.2,8778],[56.5,8869],[56.5,8945],[56.5,9024],[56.5,9110],[56.5,9184],[56.5,9257],[56.5,9337],[56.5,9416],[56.5,9510],[56.5,9581],[56.5,9662],[56.5,9735],[56.5,9814],[56.5,9887],[56.5,9966],[56.5,10037],[56.5,10119],[56.5,10205],[56.5,10286],[56.5,10362],[56.5,10435],[56.5,10508],[56.5,10583],[56.5,10655],[56.5,10727],[56.5,10800],[56.5,10879],[56.5,10953],[56.5,11027],[56.5,11103],[56.5,11183],[56.5,11255],[56.5,11328],[56.5,11401],[56.5,11484],[56.5,11559],[56.5,11640],[56,11711],[46,11786],[39.4,11865],[36.6,11947],[32.9,12022],[30.6,12096],[29.5,12176],[28.5,12248],[28.1,12327],[28,12400],[27.7,12475],[27.4,12548],[26.6,12630],[25.4,12705],[24.4,12793],[23.4,12871],[20.6,12951],[17.6,13032],[15.7,13112],[15.3,13186],[14.3,13275],[13.6,13349],[13.5,13422],[13.3,13497],[12.9,13580],[12.4,13661],[11.3,13735],[9.8,13808],[8.4,13886],[8,13962],[7.9,14044],[7.9,14118],[7.8,14192],[7.7,14269],[7.7,14349],[7.7,14424],[7.5,14500],[6.7,14586],[6.5,14664],[6,14746],[5.8,14822],[9.7,14900],[9.7,14974],[9.7,15055],[9.7,15129],[9.7,15204],[9.7,15285],[9.6,15365],[9.5,15439],[9.2,15520],[8.6,15596],[7.5,15677],[5.9,15752],[5.8,15835],[5.8,15911],[6.1,15985],[6.9,16059],[7,16138],[7,16219],[7.2,16293],[7.8,16367],[8.5,16439],[9.2,16518],[9.4,16592],[9.4,16667],[9.4,16744],[9.4,16815],[9.4,16887],[9.4,16962],[9.4,17040],[9.4,17113],[9.4,17184],[9.4,17260],[9.4,17334],[9.4,17413],[9.4,17487],[9.4,17562],[9.4,17636],[9.4,17719],[9.4,17812],[9.4,17886],[9.4,17964],[9.4,18037],[9.4,18113],[9.4,18193],[9.4,18274],[9.4,18348],[9.4,18423],[9.4,18507],[9.4,18583],[9.4,18658],[9.4,18732],[9.4,18806],[9.4,18893],[9.4,18972],[9.4,19048],[9.4,19126],[9.4,19209],[9.4,19288],[9.4,19361],[9.4,19433],[9.4,19510],[9.4,19584],[9.4,19670],[9.4,19744],[9.4,19825],[9.4,19898],[9.4,19971],[9.4,20044],[9.4,20123],[9.4,20193],[9.8,20279],[11.4,20362],[12.4,20442],[13.5,20524],[17,20600],[24.8,20676],[34.6,20752],[44.1,20833],[51,20909],[51.4,20983],[51.4,21054],[51.4,21134],[51.4,21216],[51.4,21288],[51.4,21362],[51.4,21440],[52.3,21513],[60.2,21594],[70.5,21671],[79,21746],[85.3,21820],[86.4,21903],[86.4,21977],[86.4,22050],[86.4,22122],[86.4,22194],[86.4,22267],[86.4,22338],[86.4,22412],[86.4,22490],[86.4,22574],[86.4,22649],[86.4,22739],[86.4,22816],[86.4,22892],[86.4,22986],[86.4,23059],[86.4,23144],[86.4,23225],[86.4,23311],[86.4,23386],[86.4,23468],[86.4,23552],[86.4,23633],[86.4,23716],[85.7,23801],[85.3,23885],[84.8,23967],[84.6,24039],[84.5,24115],[84.5,24192],[84.5,24268],[84.5,24343],[86.3,24421],[91.7,24503],[94.5,24581],[95.2,24665],[95.5,24739],[95.7,24812],[96.4,24884],[97.2,24959],[97.8,25043],[98.4,25116],[99.1,25192],[99.5,25270],[99.6,25347],[99.8,25420],[99.8,25492],[99.8,25567],[99.8,25642],[99.8,25716],[99.9,25793],[99.9,25866],[99.9,25944],[99.9,26016],[99.9,26094],[99.9,26165],[99.9,26249],[99.9,26321],[99.9,26396],[99.9,26467],[99.9,26543],[99.9,26616],[99.8,26699],[99.7,26773]]",869.111,874.4964,50.52083333,3.7857,"[{""rating"":50.520833333333336,""responseTime"":3.7857000000178687}]",space,4.6617,,874.4964,Not at all,0,874.4978,,,[],,0,1,1,1,1,audio/Narrative7Situation1.wav,audio/Narrative8Situation1.wav,audio/Narrative5Situation1.wav,audio/Narrative6Situation1.wav,2,5,5,2,,,,,,,,,,,,,,,,,,,,,,,,,,,,,,,,,,,,,,,
,,,,,663a5d3e48441f253cc57071,2025-07-07_16h53.45.500,group3.4_multiperson,2023.2.2,Win32,16,686c2ebf0248f13bef9af11f,686c32184a9a635a73cd83b6,,,,,,,,,,,,,,,,,,,,,,,,,,,,,874.4979,2,audio/Narrative6Situation2.wav,877.5003,,877.5003,906.1302,"[[999,0],[999,82],[999,162],[999,232],[999,305],[999,378],[999,457],[999,526],[999,606],[999,679],[999,752],[999,824],[46.4,900],[46.7,982],[47,1054],[47.1,1131],[47.2,1211],[47.2,1283],[47.2,1355],[47.1,1428],[47,1504],[47,1576],[47,1654],[46.9,1725],[46.8,1799],[46.4,1880],[45.6,1955],[44.7,2035],[43,2116],[41.6,2198],[40.9,2273],[39.9,2347],[37.8,2423],[33.2,2521],[27.9,2606],[22.7,2684],[17.9,2763],[14.4,2842],[11.7,2921],[9.1,3006],[7.5,3080],[6.5,3156],[5.8,3230],[5.1,3305],[4.9,3387],[4.9,3470],[4.9,3543],[4.9,3610],[4.9,3687],[5,3765],[5.1,3842],[5.2,3913],[5.2,3989],[5.2,4063],[5.4,4144],[7.5,4219],[9.8,4295],[12,4370],[14.6,4453],[17.2,4531],[19.2,4612],[23.8,4691],[28.9,4771],[32.7,4845],[36.4,4932],[40,5007],[43.3,5081],[45.7,5154],[47.3,5228],[48.6,5303],[50,5376],[50.9,5450],[52.3,5524],[54.1,5603],[55.4,5679],[56.8,5757],[59.1,5831],[62.5,5908],[67.5,5989],[74.1,6070],[79.2,6144],[82.9,6218],[86.4,6295],[89.6,6369],[93,6455],[94.4,6529],[95,6603],[95.9,6675],[96.3,6749],[96.7,6821],[97.3,6893],[97.9,6973],[98.2,7052],[98.4,7126],[98.4,7206],[98.4,7276],[98.4,7349],[98.4,7424],[98.4,7499],[98.4,7573],[98.5,7655],[99.5,7738],[100,7813],[100,7892],[100,7970],[100,8054],[100,8130],[100,8201],[100,8275],[100,8350],[100,8436],[100,8508],[100,8587],[99.9,8660],[98.4,8736],[97.7,8812],[97.3,8892],[97.2,8965],[97.1,9041],[96.8,9118],[96.7,9192],[96.7,9264],[96.7,9348],[96.7,9429],[97,9502],[97.3,9576],[97.5,9656],[97.6,9735],[97.8,9818],[98,9892],[98.2,9966],[98.6,10040],[98.6,10114],[98.6,10193],[98.6,10264],[98.6,10343],[98.5,10419],[97.1,10498],[95.4,10578],[94.1,10656],[93.2,10723],[92.5,10796],[91.4,10872],[90.4,10949],[90.1,11025],[89.5,11098],[88.9,11170],[88.6,11248],[88.4,11321],[88.4,11406],[88.4,11478],[88.4,11553],[88.4,11627],[88.2,11700],[87.8,11774],[87.7,11854],[87.7,11927],[87.3,12000],[86.7,12072],[85.8,12148],[85.4,12225],[85.1,12301],[85,12376],[85,12451],[85,12530],[85,12604],[85,12680],[85,12763],[85,12846],[85,12919],[85,13003],[85,13070],[85,13146],[85,13220],[85,13294],[85,13369],[85,13441],[85.3,13516],[85.8,13589],[86.3,13661],[86.6,13751],[86.9,13832],[87.3,13915],[87.9,13990],[89.1,14074],[91,14167],[93.5,14244],[95.6,14327],[97.2,14404],[98.1,14479],[98.6,14552],[99.3,14630],[99.6,14703],[100,14775],[100,14849],[100,14930],[100,15010],[100,15082],[100,15156],[100,15228],[100,15300],[100,15374],[100,15455],[100,15527],[100,15599],[100,15671],[100,15754],[100,15835],[100,15909],[100,15982],[100,16060],[100,16133],[100,16206],[100,16280],[100,16357],[100,16430],[100,16504],[100,16576],[100,16649],[100,16722],[100,16797],[100,16870],[100,16941],[100,17017],[100,17091],[100,17162],[100,17242],[100,17316],[100,17388],[100,17465],[100,17539],[100,17618],[100,17708],[100,17788],[100,17861],[100,17934],[100,18016],[100,18093],[100,18172],[100,18245],[100,18317],[100,18392],[100,18469],[100,18544],[100,18623],[100,18702],[100,18779],[100,18857],[100,18928],[100,19001],[100,19084],[100,19166],[100,19239],[100,19306],[100,19383],[100,19460],[100,19539],[100,19617],[100,19690],[100,19773],[100,19847],[100,19920],[100,19992],[100,20071],[100,20142],[100,20216],[100,20295],[100,20367],[100,20447],[100,20527],[100,20600],[100,20681],[100,20760],[100,20843],[100,20920],[100,20990],[100,21072],[100,21147],[100,21220],[100,21293],[100,21365],[100,21437],[100,21510],[100,21582],[100,21659],[100,21732],[100,21806],[100,21877],[100,21954],[100,22033],[100,22111],[100,22186],[100,22261],[100,22334],[100,22411],[100,22488],[100,22565],[100,22649],[100,22722],[100,22801],[100,22877],[100,22956],[100,23032],[100,23117],[100,23193],[100,23276],[100,23351],[100,23426],[100,23504],[100,23576],[100,23652],[100,23726],[100,23802],[100,23883],[100,23960],[100,24032],[100,24104],[100,24178],[100,24261],[100,24338],[100,24413],[100,24499],[100,24572],[100,24650],[100,24730],[100,24803],[100,24877],[100,24949],[100,25023],[100,25096],[100,25169],[100,25240],[100,25312],[100,25385],[100,25462],[100,25535],[100,25611],[100,25685],[100,25758],[100,25830],[100,25913],[100,25989],[100,26061],[100,26142],[100,26214],[100,26287],[100,26354],[100,26427],[100,26510],[100,26574],[100,26646],[100,26719],[100,26793],[100,26865],[100,26939],[100,27019],[100,27103],[100,27187],[100,27261],[100,27332],[100,27410],[100,27486],[100,27565],[100,27639],[100,27716],[100,27794],[100,27874],[100,27953],[100,28029],[100,28102],[100,28175],[100,28251],[100,28323],[100,28409],[100,28482],[100,28554],[100,28629]]",906.1304,910.285,99.27083333,2.5078,"[{""rating"":99.27083333333333,""responseTime"":2.507800000011912}]",space,3.4734,0.0077,910.285,Definitely yes,100,910.2864,,,[],,0,2,2,2,1,audio/Narrative7Situation2.wav,audio/Narrative8Situation2.wav,audio/Narrative5Situation2.wav,audio/Narrative6Situation2.wav,3,3,3,3,,,,,,,,,,,,,,,,,,,,,,,,,,,,,,,,,,,,,,,
,,,,,663a5d3e48441f253cc57071,2025-07-07_16h53.45.500,group3.4_multiperson,2023.2.2,Win32,16,686c2ebf0248f13bef9af11f,686c32184a9a635a73cd83b6,,,,,,,,,,,,,,,,,,,,,,,,,,,,,910.2865,2,audio/Narrative6Situation3.wav,915.3549,,915.355,928.0875,"[[999,0],[999,80],[999,150],[999,233],[999,308],[999,381],[999,462],[999,536],[999,610],[999,685],[999,759],[999,834],[999,914],[999,988],[999,1062],[999,1142],[999,1218],[999,1292],[999,1368],[999,1442],[999,1525],[95.5,1604],[96,1678],[96,1759],[96,1834],[96,1906],[96,1981],[96,2063],[95.9,2143],[95.9,2216],[95.7,2289],[95.6,2364],[95.2,2436],[95,2510],[94.9,2585],[94.3,2663],[91.7,2744],[87.1,2828],[84.7,2906],[84.4,2986],[84,3066],[83.4,3142],[82.4,3222],[80.5,3303],[78.2,3383],[75.5,3461],[73.9,3534],[72.2,3604],[68.8,3674],[64,3746],[58.8,3819],[55.2,3895],[53,3970],[51.7,4042],[50.5,4115],[50.2,4189],[50.1,4262],[50.1,4331],[50.1,4406],[50.1,4479],[49.9,4565],[49.9,4638],[49.9,4717],[49.8,4799],[49.8,4872],[49.8,4947],[49.8,5025],[49.8,5099],[49.8,5171],[49.8,5236],[49.8,5308],[49.8,5381],[49.8,5456],[49.8,5530],[49.8,5604],[49.8,5683],[49.8,5759],[49.8,5845],[49.8,5934],[49.8,6016],[49.9,6101],[49.9,6176],[49.9,6260],[49.9,6334],[49.9,6418],[49.9,6491],[49.9,6566],[50,6639],[50.5,6713],[53.6,6789],[59.1,6863],[62.8,6940],[64.5,7015],[66.4,7095],[68.9,7171],[72.6,7246],[76.3,7330],[77.7,7405],[79.5,7480],[82.4,7554],[85.8,7628],[87.4,7704],[88.6,7779],[90.1,7852],[92.5,7936],[94.1,8010],[94.7,8092],[95,8170],[95.6,8244],[96.4,8316],[97.3,8390],[98.3,8464],[99.2,8536],[99.4,8610],[99.4,8683],[99.7,8759],[99.8,8824],[99.8,8898],[99.8,8981],[99.8,9055],[99.8,9130],[99.8,9211],[99.8,9284],[99.8,9356],[99.8,9427],[99.8,9508],[99.9,9603],[99.9,9680],[99.9,9767],[99.9,9842],[100,9915],[100,9990],[100,10064],[100,10147],[100,10219],[100,10309],[100,10391],[100,10467],[100,10543],[100,10610],[100,10688],[100,10759],[100,10832],[100,10913],[100,10992],[100,11066],[100,11149],[100,11222],[100,11296],[99.8,11369],[99.7,11446],[99.6,11518],[99.6,11592],[99.6,11665],[99.6,11752],[99.6,11824],[99.6,11899],[99.6,11984],[99.6,12055],[99.6,12134],[99.6,12210],[99.6,12291],[99.6,12363],[99.6,12437],[99.6,12511],[99.6,12586],[99.6,12659],[99.6,12732]]",928.0876,935.8014,99.58333333,0.9516,"[{""rating"":99.58333333333333,""responseTime"":0.9515999999939595}]",space,7.0041,,935.8014,Not at all,0,935.8027,,,[],,0,3,3,3,1,audio/Narrative7Situation3.wav,audio/Narrative8Situation3.wav,audio/Narrative5Situation3.wav,audio/Narrative6Situation3.wav,8,4,3,5,,,,,,,,,,,,,,,,,,,,,,,,,,,,,,,,,,,,,,,
,,,,,663a5d3e48441f253cc57071,2025-07-07_16h53.45.500,group3.4_multiperson,2023.2.2,Win32,16,686c2ebf0248f13bef9af11f,686c32184a9a635a73cd83b6,,,,,,,,,,,,,,,,,,,,,,,,,,,,,935.8028,2,audio/Narrative6Situation4.wav,937.8515,,937.8516,950.6499,"[[999,0],[999,73],[999,145],[999,217],[999,293],[999,374],[999,452],[999,528],[999,602],[999,674],[999,747],[999,820],[999,891],[999,973],[77,1049],[70.8,1123],[70.1,1198],[70.1,1272],[71.6,1350],[72.9,1429],[72.9,1501],[73,1576],[73,1652],[73,1725],[70.4,1799],[64.5,1874],[62,1949],[62,2030],[62,2114],[62,2190],[62,2262],[60.5,2337],[51.1,2413],[47.4,2493],[46.3,2569],[43.4,2646],[41.1,2720],[35.3,2805],[31.5,2881],[30.1,2956],[28.8,3037],[28.6,3111],[28.4,3185],[26.8,3270],[26.5,3354],[26.5,3430],[26.6,3507],[30,3583],[40.5,3679],[45.1,3754],[46.1,3832],[46.4,3908],[46.8,3982],[50.3,4061],[52.3,4140],[53.3,4218],[56.1,4298],[59.6,4371],[65,4449],[72.6,4523],[76.8,4598],[77.1,4673],[77.5,4746],[77.5,4821],[77.5,4899],[77.6,4972],[77.6,5048],[77.6,5127],[77.6,5199],[77.6,5283],[77.6,5353],[77.4,5430],[76.6,5505],[67.6,5590],[65.1,5664],[62.7,5739],[61.4,5812],[56.9,5887],[52.9,5961],[51.6,6035],[51.6,6109],[51.6,6189],[51.4,6266],[51.4,6338],[51.4,6420],[51.4,6496],[51.4,6569],[52.3,6651],[52.9,6725],[52.9,6798],[52.9,6879],[52.9,6949],[52.9,7027],[52.9,7104],[52.9,7181],[52.9,7263],[52.9,7334],[52.9,7413],[52.9,7504],[52.9,7577],[53.4,7661],[53.5,7735],[53.5,7808],[53.5,7890],[53.5,7963],[53.5,8029],[53.5,8112],[51.7,8198],[51.5,8275],[51.5,8345],[51.5,8418],[51.7,8490],[52.1,8565],[52.2,8641],[52.2,8715],[52.2,8788],[52.2,8862],[52.2,8936],[52.2,9035],[52.2,9108],[52.2,9180],[52.2,9257],[52.2,9337],[52.2,9416],[52.2,9494],[52.2,9568],[52.2,9649],[52.2,9722],[52.2,9794],[52.2,9866],[52.2,9939],[52.2,10011],[52.2,10093],[52.2,10168],[52.8,10241],[54.6,10312],[56.1,10387],[57,10470],[58.5,10550],[60.3,10624],[61.6,10705],[62.7,10783],[64,10856],[66,10931],[72,11019],[78.5,11095],[81.9,11170],[83.2,11243],[84.5,11316],[85.9,11391],[88.4,11469],[91,11550],[94.3,11633],[97.7,11714],[100,11789],[100,11863],[100,11945],[100,12015],[100,12091],[100,12169],[100,12247],[100,12321],[100,12398],[100,12473],[100,12555],[100,12632],[100,12706],[100,12798]]",950.65,954.376,77.1875,2.9374,"[{""rating"":80.9375,""responseTime"":1.0108000000119546},{""rating"":77.1875,""responseTime"":2.937400000005937}]",space,3.054,,954.3761,Definitely yes,100,954.3774,,,[],,0,4,4,4,1,audio/Narrative7Situation4.wav,audio/Narrative8Situation4.wav,audio/Narrative5Situation4.wav,audio/Narrative6Situation4.wav,3,3,1,2,,,,,,,,,,,,,,,,,,,,,,,,,,,,,,,,,,,,,,,
,,,,,663a5d3e48441f253cc57071,2025-07-07_16h53.45.500,group3.4_multiperson,2023.2.2,Win32,16,686c2ebf0248f13bef9af11f,686c32184a9a635a73cd83b6,,,,,,,,,,,,,,,,,,,,,,,,,,,,,954.3775,2,audio/Narrative6Situation5.wav,956.3983,,956.3983,964.569,"[[999,0],[999,75],[57.4,143],[61.1,217],[66.4,293],[70.8,379],[72.6,464],[72.6,544],[72.6,625],[72.5,698],[66.5,772],[51.7,851],[50.5,925],[50.3,997],[51.6,1079],[62.6,1152],[76.9,1227],[77.6,1302],[77.8,1376],[77.8,1451],[77.8,1527],[77.8,1601],[77.8,1682],[77.8,1750],[77.7,1825],[77.7,1903],[77.7,1979],[77.7,2062],[77.7,2133],[77.7,2210],[78.1,2281],[78.6,2358],[78.8,2430],[78.8,2502],[79.1,2574],[81.1,2649],[85.3,2722],[92.2,2807],[95.6,2896],[97.8,2970],[99.4,3047],[99.5,3121],[99.5,3201],[99.5,3283],[99.5,3355],[99.5,3429],[99.5,3516],[100,3600],[100,3678],[100,3751],[100,3826],[100,3903],[100,3982],[100,4055],[100,4131],[100,4215],[100,4294],[100,4366],[100,4440],[100,4514],[100,4592],[100,4669],[100,4752],[100,4837],[100,4916],[100,5000],[100,5072],[100,5150],[100,5223],[100,5299],[100,5379],[100,5450],[100,5525],[100,5599],[100,5674],[100,5758],[100,5831],[100,5907],[100,5984],[100,6059],[100,6139],[100,6213],[100,6292],[100,6363],[100,6435],[100,6509],[100,6581],[100,6654],[100,6726],[100,6809],[100,6889],[100,6969],[100,7043],[100,7118],[100,7191],[100,7270],[100,7345],[100,7419],[100,7492],[100,7567],[100,7634],[100,7706],[100,7786],[100,7860],[100,7941],[100,8016],[100,8097],[100,8170]]",964.5691,968.5855,99.16666667,0.9226,"[{""rating"":99.16666666666667,""responseTime"":0.9226000000238628}]",space,3.2961,,968.5855,Partially,50,968.5869,,,[],,0,5,5,5,1,audio/Narrative7Situation5.wav,audio/Narrative8Situation5.wav,audio/Narrative5Situation5.wav,audio/Narrative6Situation5.wav,5,2,5,2,,,,,,,,,,,,,,,,,,,,,,,,,,,,,,,,,,,,,,,
,,,,,663a5d3e48441f253cc57071,2025-07-07_16h53.45.500,group3.4_multiperson,2023.2.2,Win32,16,686c2ebf0248f13bef9af11f,686c32184a9a635a73cd83b6,,,,,,,,,,,,,,,,,,,,,,,,,,,,,968.587,2,audio/Narrative6Situation6.wav,970.6564,,970.6564,981.8999,"[[96.4,86],[96,162],[95.8,236],[95.7,316],[95.7,389],[95.8,464],[95.8,541],[95.8,616],[95.8,697],[94.9,779],[91.1,853],[90,928],[89.9,1002],[89.7,1077],[89.6,1159],[89.6,1233],[89.6,1309],[89.6,1383],[89.7,1457],[89.8,1529],[89.8,1604],[89.8,1677],[89.8,1748],[89.8,1816],[89.8,1888],[90.2,1962],[90.4,2033],[99.5,2926],[98.8,3002],[99,3086],[99,3160],[99,3231],[99.6,3310],[99.7,3391],[99.8,3465],[99.9,3538],[100,3613],[100,3684],[100,3757],[100,3829],[100,3904],[100,3976],[100,4050],[100,4131],[100,4213],[100,4290],[100,4366],[100,4442],[100,4521],[100,4601],[100,4677],[100,4763],[100,4846],[100,4920],[100,4999],[100,5074],[100,5158],[100,5230],[100,5305],[100,5373],[100,5457],[100,5534],[100,5607],[100,5680],[100,5757],[100,5831],[100,5917],[100,5993],[100,6067],[100,6140],[100,6220],[100,6287],[100,6373],[100,6445],[100,6521],[100,6603],[100,6675],[100,6747],[100,6828],[100,6899],[100,6977],[100,7051],[100,7123],[100,7196],[100,7269],[100,7350],[100,7422],[100,7500],[100,7576],[100,7654],[100,7727],[100,7805],[100,7880],[100,7954],[100,8030],[100,8111],[100,8185],[100,8256],[100,8330],[100,8409],[100,8484],[100,8558],[100,8638],[100,8712],[100,8793],[100,8875],[100,8948],[100,9020],[100,9092],[100,9165],[100,9236],[100,9316],[100,9408],[100,9497],[100,9573],[100,9652],[100,9726],[100,9802],[100,9877],[100,9953],[100,10032],[100,10107],[100,10180],[100,10253],[100,10327],[100,10400],[100,10486],[100,10562],[100,10643],[100,10718],[100,10791],[100,10864],[100,10939],[100,11013],[100,11089],[100,11165],[100,11243]]",981.9001,984.2312,99.6875,0.8636,"[{""rating"":99.6875,""responseTime"":0.86360000002378}]",space,1.6269,,984.2313,Not at all,0,984.2329,,,[],,0,6,6,6,1,audio/Narrative7Situation6.wav,audio/Narrative8Situation6.wav,audio/Narrative5Situation6.wav,audio/Narrative6Situation6.wav,3,2,3,2,,,,,,,,,,,,,,,,,,,,,,,,,,,,,,,,,,,,,,,
,,,,,663a5d3e48441f253cc57071,2025-07-07_16h53.45.500,group3.4_multiperson,2023.2.2,Win32,16,686c2ebf0248f13bef9af11f,686c32184a9a635a73cd83b6,,,,,,,,,,,,,,,,,,,,,,,,,,,,,984.2331,2,audio/Narrative6Situation7.wav,989.2499,,989.25,1014.248,"[[95.4,856],[97.9,947],[99.5,1028],[100,1113],[100,1187],[100,1265],[100,1338],[99.7,1418],[99.1,1492],[98.6,1570],[98.3,1650],[98.2,1722],[97.9,1808],[97.3,1881],[96.7,1962],[95.8,2037],[95.1,2111],[94.5,2188],[94.4,2273],[93.8,2356],[92.6,2431],[91.6,2516],[89.6,2593],[83.5,2666],[76.9,2747],[71.5,2822],[67.4,2905],[63.2,2979],[60.2,3059],[57.7,3134],[54.5,3209],[50.9,3284],[48.4,3358],[46.4,3433],[44.9,3506],[43.3,3581],[40.7,3662],[36.8,3736],[34.4,3810],[32.9,3891],[31.8,3974],[30.9,4050],[30.2,4123],[29.6,4199],[29.1,4273],[29,4348],[28.9,4422],[28.9,4499],[28.9,4581],[28.9,4655],[29,4727],[30.1,4801],[30.1,4874],[30.1,4947],[30.1,5020],[30.1,5093],[30.1,5166],[30.1,5240],[30.1,5314],[30,5387],[25,5463],[17.4,5544],[12.5,5618],[10,5706],[9.2,5789],[7.8,5870],[4.1,5945],[1.9,6027],[0.8,6102],[0.2,6179],[0.2,6259],[0.4,6334],[0.5,6415],[0.5,6493],[0.7,6577],[1,6656],[1,6728],[1,6802],[1,6872],[1.6,6944],[3.4,7017],[6.1,7092],[12.9,7168],[19.9,7254],[22.9,7329],[25.6,7410],[32,7489],[37.9,7564],[42.6,7641],[48.2,7715],[53.9,7789],[59.3,7863],[62.7,7934],[63.8,8008],[65.6,8085],[66.7,8158],[68.9,8232],[70.3,8305],[71,8378],[72.7,8451],[72.8,8531],[73,8605],[73.9,8690],[74.5,8765],[77,8841],[80.6,8923],[82.7,8996],[83.4,9080],[83.4,9154],[84,9227],[85,9301],[85.4,9383],[85.7,9458],[86.1,9533],[86.1,9608],[86.1,9682],[86.1,9765],[86.1,9838],[86.1,9909],[86.3,9982],[86.3,10055],[86.3,10126],[86.3,10206],[86.3,10289],[86.3,10362],[86.3,10435],[86.3,10511],[86.3,10585],[85.9,10677],[85.9,10757],[85.9,10840],[85.9,10928],[85.9,11004],[85.9,11085],[85.9,11159],[85.9,11242],[85.9,11316],[85.9,11389],[85.9,11466],[85.9,11540],[85.9,11615],[85.9,11694],[85.9,11767],[85.9,11852],[85.9,11929],[85.9,12003],[85.8,12079],[85.8,12157],[85.8,12234],[85.8,12307],[85.8,12386],[85.8,12464],[85.8,12541],[85.8,12614],[85.8,12689],[85.8,12762],[85.8,12837],[86.1,12911],[88,12986],[89.1,13071],[90.3,13149],[91.6,13223],[92.6,13297],[93.1,13369],[93.2,13442],[93.5,13516],[93.6,13588],[94.1,13667],[94.7,13740],[95.3,13813],[95.8,13894],[96.4,13967],[96.6,14044],[96.8,14121],[97.3,14200],[97.5,14272],[97.5,14345],[97.5,14418],[97.5,14503],[97.9,14578],[98,14653],[98.3,14736],[98.4,14817],[98.4,14891],[98.5,14970],[98.5,15044],[98.5,15117],[98.5,15189],[98.5,15273],[98.5,15351],[98.5,15425],[98.8,15500],[99.2,15573],[99.4,15656],[99.4,15741],[99.4,15814],[99.4,15895],[99.4,15969],[99.4,16042],[99.4,16130],[99.4,16203],[99.4,16276],[99.4,16347],[99.4,16432],[99.4,16508],[99.4,16598],[99.4,16672],[99.4,16754],[99.4,16834],[99.4,16915],[99.4,16989],[99.4,17061],[99.4,17144],[99.4,17218],[99.4,17301],[99.4,17378],[99.4,17450],[99.4,17524],[99.4,17599],[99.4,17673],[99.4,17753],[99.4,17828],[99.4,17903],[99.4,17976],[99.4,18054],[99.4,18128],[99.4,18206],[99.4,18279],[99.4,18350],[99.4,18423],[99.4,18494],[99.4,18577],[99.4,18649],[99.4,18722],[99.4,18795],[99.4,18868],[99.4,18941],[99.4,19022],[99.4,19094],[99.4,19167],[99.4,19251],[99.4,19327],[99.4,19399],[99.4,19473],[99.2,19546],[99,19617],[99,19691],[99,19772],[99,19850],[99,19928],[99,20001],[99,20080],[99,20156],[99,20230],[99,20312],[99,20377],[99,20448],[99,20525],[99,20604],[99,20682],[99,20755],[99,20837],[99,20917],[99,20998],[99,21075],[99,21147],[98.3,21222],[98,21305],[97.9,21391],[97.9,21465],[97.9,21547],[97.9,21620],[97.9,21695],[97.9,21779],[97.9,21859],[97.9,21932],[97.7,22015],[97.7,22098],[97.7,22172],[97.7,22245],[97.5,22321],[97.1,22392],[96.5,22475],[96.4,22557],[96.4,22642],[96.4,22717],[96.1,22792],[96.1,22865],[95.6,22935],[94.4,23010],[94.2,23092],[94.2,23171],[94.2,23244],[94.2,23316],[94.2,23398],[94.2,23470],[94.2,23544],[94.2,23616],[94.2,23689],[94.2,23761],[94.2,23841],[94.2,23914],[94.2,23996],[94.2,24076],[94.2,24148],[94.2,24233],[94.2,24306],[94.2,24387],[94.2,24460],[94.4,24532],[94.7,24608],[95.1,24690],[95.2,24764],[95.2,24837],[95.2,24917],[95.2,24998]]",1014.2482,1019.6309,89.27083333,3.6886,"[{""rating"":95.20833333333334,""responseTime"":1.8040999999939231},{""rating"":91.35416666666667,""responseTime"":3.1152999999823123},{""rating"":89.27083333333333,""responseTime"":3.6885999999941532}]",space,4.6814,,1019.6309,Definitely yes,100,1019.6324,,,[],,0,7,7,7,1,audio/Narrative7Situation7.wav,audio/Narrative8Situation7.wav,audio/Narrative5Situation7.wav,audio/Narrative6Situation7.wav,5,3,4,5,,,,,,,,,,,,,,,,,,,,,,,,,,,,,,,,,,,,,,,
,,,,,663a5d3e48441f253cc57071,2025-07-07_16h53.45.500,group3.4_multiperson,2023.2.2,Win32,16,686c2ebf0248f13bef9af11f,686c32184a9a635a73cd83b6,,,,,,,,,,,,,,,,,,,,,,,,,,,,,1019.6325,2,audio/Narrative6Situation8.wav,1024.6613,,1024.6614,1031.7139,"[[999,0],[999,74],[999,150],[999,224],[999,296],[999,376],[54,457],[51.4,548],[50.8,627],[50.5,703],[50.5,781],[50.4,864],[50.4,944],[50.4,1026],[50.6,1105],[50.9,1179],[51.1,1254],[51.3,1327],[51.7,1404],[52.2,1493],[53.2,1577],[54.9,1660],[57.1,1734],[59.1,1819],[60.1,1893],[60.3,1974],[60.4,2048],[60.9,2138],[61.7,2218],[61.7,2295],[61.6,2374],[60.4,2448],[57.9,2524],[56,2602],[54.3,2682],[52.7,2755],[51.9,2828],[51,2902],[50.5,2974],[50.4,3054],[50.4,3135],[50.4,3210],[50.3,3285],[50.3,3359],[50.3,3441],[50.3,3512],[49.2,3597],[45,3669],[39.7,3744],[35.4,3829],[32.3,3903],[30.8,3978],[29.6,4047],[27.5,4121],[23.3,4204],[20.3,4279],[18.6,4352],[17.7,4415],[16.8,4497],[16,4575],[15.5,4652],[14.9,4727],[14.5,4799],[14.1,4874],[13.8,4946],[13.1,5021],[11.9,5102],[11.4,5175],[11.3,5257],[11.1,5352],[10.9,5431],[10.6,5508],[10.5,5589],[10.5,5672],[10.5,5741],[10.5,5819],[10,5895],[9.3,5981],[8.8,6055],[8.4,6131],[7.9,6207],[7.2,6286],[6,6362],[4.6,6437],[3.4,6511],[2.7,6589],[2,6667],[1.4,6741],[1.1,6817],[1.1,6893],[1.1,6979],[1.1,7052]]",1031.714,1037.3508,0.208333333,2.4135,"[{""rating"":0.2083333333333326,""responseTime"":2.4134999999998854}]",space,4.9106,,1037.3508,Definitely yes,100,1037.3518,,,[],,0,8,8,8,1,audio/Narrative7Situation8.wav,audio/Narrative8Situation8.wav,audio/Narrative5Situation8.wav,audio/Narrative6Situation8.wav,2,3,3,5,,,,,,,,,,,,,,,,,,,,,,,,,,,,,,,,,,,,,,,
,,,,,663a5d3e48441f253cc57071,2025-07-07_16h53.45.500,group3.4_multiperson,2023.2.2,Win32,16,686c2ebf0248f13bef9af11f,686c32184a9a635a73cd83b6,,,,,,,,,,,,,,,,,,,,,,,,,,,,,1037.3519,2,audio/Narrative6Situation9.wav,1041.3719,,1041.372,1051.4942,"[[999,0],[999,75],[999,148],[999,220],[999,316],[999,393],[999,476],[999,547],[999,620],[999,699],[999,773],[999,846],[999,921],[999,987],[999,1071],[999,1147],[999,1221],[999,1293],[999,1365],[999,1438],[999,1513],[999,1594],[999,1668],[999,1742],[999,1818],[999,1894],[25.9,1972],[22.3,2050],[21.9,2132],[22.1,2219],[22.6,2291],[22.8,2365],[22.9,2437],[22.9,2512],[22.9,2590],[22.9,2663],[22.9,2742],[22.9,2816],[23,2889],[23,2970],[23,3044],[24.1,3123],[25.2,3196],[26,3269],[26.4,3350],[26.5,3424],[26.8,3504],[26.9,3583],[26.9,3657],[26.7,3735],[21.7,3815],[10,3900],[6.5,3985],[6.3,4060],[6.1,4133],[5.8,4216],[5.3,4298],[4.8,4374],[4,4455],[2.9,4540],[2.8,4618],[2.8,4699],[2.8,4772],[2.8,4847],[2.8,4927],[2.8,5004],[3.4,5079],[4.4,5154],[4.6,5232],[4.6,5305],[4.6,5378],[4.6,5452],[4.6,5527],[3.2,5602],[3.1,5676],[2.9,5751],[2.4,5835],[1.6,5911],[1.1,5984],[0.9,6058],[0.5,6138],[0.3,6220],[0.1,6303]]",1051.4943,1055.3877,0.416666667,1.9396,"[{""rating"":0.4166666666666652,""responseTime"":1.9395999999940159}]",space,3.1594,,1055.3879,Partially,50,1055.3891,,,[],,0,9,9,9,1,audio/Narrative7Situation9.wav,audio/Narrative8Situation9.wav,audio/Narrative5Situation9.wav,audio/Narrative6Situation9.wav,2,3,3,4,,,,,,,,,,,,,,,,,,,,,,,,,,,,,,,,,,,,,,,
,,,,,663a5d3e48441f253cc57071,2025-07-07_16h53.45.500,group3.4_multiperson,2023.2.2,Win32,16,686c2ebf0248f13bef9af11f,686c32184a9a635a73cd83b6,,,,,,,,,,,,,,,,,,,,,,,,,,,,,1055.3892,2,audio/Narrative5Situation1.wav,1060.4205,,1060.4206,1073.9186,"[[42.5,74],[42.4,148],[42.4,223],[42.4,295],[42.4,377],[42.4,455],[42.3,530],[42.3,609],[42.3,689],[42.3,762],[41.7,840],[41.4,932],[41.3,1018],[41.3,1098],[41,1183],[40.9,1266],[40.2,1347],[37.7,1431],[32.6,1506],[27.2,1584],[25.4,1662],[25.1,1740],[24.9,1813],[25,1885],[29.9,1966],[31.1,2041],[31.6,2113],[32,2185],[33.3,2262],[34.7,2344],[37.9,2418],[39.7,2493],[39.8,2566],[39.2,2639],[34.3,2713],[31.4,2791],[30.7,2870],[30.6,2943],[30.6,3018],[30.6,3095],[30.6,3168],[30.6,3246],[30.6,3319],[30.6,3398],[30.6,3473],[30.6,3545],[30.6,3617],[30.6,3688],[30.6,3768],[30.6,3843],[30.6,3914],[30.6,3991],[30.6,4073],[30.6,4149],[30.6,4236],[30.6,4311],[30.6,4391],[30.6,4463],[30.6,4557],[30.6,4639],[30.6,4719],[30.6,4800],[30.6,4877],[30.6,4954],[30.6,5028],[30.6,5101],[30.6,5177],[30.6,5254],[30.6,5327],[30.6,5409],[30.6,5483],[30.6,5568],[30.6,5642],[30.6,5715],[30.6,5791],[30.6,5878],[30.6,5951],[30.6,6023],[30.6,6097],[30.6,6174],[30.6,6260],[30.6,6334],[30.6,6407],[30.5,6487],[30.4,6572],[30.4,6645],[30.4,6718],[29.4,6791],[29.4,6868],[29.4,6948],[29.4,7030],[29.4,7105],[29.4,7178],[29.4,7251],[29.4,7325],[29.4,7397],[29.4,7475],[29.4,7547],[29.4,7624],[29.4,7702],[29.4,7775],[29.4,7855],[29.4,7928],[29.4,8006],[29.4,8078],[29.1,8151],[29.2,8224],[29.1,8303],[29,8378],[29.1,8452],[29.7,8528],[30.2,8607],[30.2,8678],[30.2,8751],[30.7,8823],[31.1,8897],[31.1,8977],[31.1,9049],[31.1,9125],[31.3,9198],[31.7,9282],[32.5,9356],[34.1,9430],[35.5,9509],[37.2,9586],[38.2,9659],[39.3,9746],[40.5,9823],[41.6,9903],[42.9,9979],[44.5,10056],[46.1,10130],[47.2,10204],[47.2,10279],[47.5,10355],[47.7,10432],[47.8,10514],[48.3,10600],[49.3,10683],[49.9,10758],[50.4,10844],[50.7,10920],[51.1,11001],[51.7,11085],[52,11161],[52.4,11232],[52.7,11306],[53.2,11387],[53.8,11461],[54.4,11544],[55,11617],[56.4,11686],[56.8,11762],[56.8,11839],[56.8,11922],[57,11995],[57.1,12069],[57.1,12148],[57.3,12222],[58.4,12295],[59.9,12377],[62.4,12453],[64.8,12525],[67,12598],[68.4,12671],[69.1,12745],[69.7,12820],[69.9,12894],[70.2,12972],[70.6,13045],[71.1,13118],[72.2,13191],[73.2,13266],[73.6,13341],[73.9,13414],[73.9,13497]]",1073.9186,1080.9242,67.39583333,5.8373,"[{""rating"":62.083333333333336,""responseTime"":1.5602000000178577},{""rating"":65,""responseTime"":5.517100000023902},{""rating"":67.39583333333333,""responseTime"":5.837300000011965}]",space,6.2784,,1080.9242,Partially,50,1085.0718,50,3.091,"[{""rating"":50,""responseTime"":3.091000000000122}]",space,0,10,10,10,1,audio/Narrative8Situation1.wav,audio/Narrative7Situation1.wav,audio/Narrative6Situation1.wav,audio/Narrative5Situation1.wav,5,2,2,5,,,3.4449,,,,,,,,,,,,,,,,,,,,,,,,,,,,,,,,,,,,
,,,,,663a5d3e48441f253cc57071,2025-07-07_16h53.45.500,group3.4_multiperson,2023.2.2,Win32,16,686c2ebf0248f13bef9af11f,686c32184a9a635a73cd83b6,,,,,,,,,,,,,,,,,,,,,,,,,,,,,1085.0721,2,audio/Narrative5Situation2.wav,1088.1407,,1088.1407,1117.7106,"[[48.5,83],[48.9,156],[49.1,229],[49.2,303],[49.3,382],[49.6,456],[49.8,536],[49.8,609],[49.8,682],[49.8,761],[49.7,838],[49.7,913],[49.7,993],[49.7,1066],[49.7,1132],[49.7,1207],[49.7,1282],[49.6,1363],[49.6,1436],[49.6,1508],[49.6,1580],[49.6,1661],[49.6,1734],[49.3,1818],[49.2,1900],[49.2,1984],[49.2,2058],[49.2,2137],[49.2,2213],[49.3,2295],[49.5,2369],[49.9,2443],[50.7,2520],[52.4,2595],[55.1,2671],[57.5,2754],[58.8,2826],[60.1,2905],[61.9,2992],[62.9,3069],[63.6,3149],[64.3,3226],[64.4,3311],[64.7,3386],[64.8,3461],[64.8,3545],[64.8,3617],[64.8,3690],[64.8,3764],[64.8,3845],[64.8,3923],[64.8,4007],[64.8,4078],[64.8,4151],[64.8,4229],[64.8,4302],[64.8,4376],[64.8,4453],[64.8,4526],[64.8,4600],[64.8,4675],[64.8,4748],[64.8,4822],[64.8,4897],[64.8,4971],[64.9,5045],[64.9,5118],[64.9,5192],[64.9,5264],[64.9,5337],[64.9,5409],[64.9,5486],[65.6,5559],[66.4,5633],[68.5,5707],[72.3,5781],[77.6,5854],[82,5931],[85.1,6009],[88.1,6086],[91.5,6161],[95.2,6242],[98.1,6317],[100,6398],[100,6472],[100,6544],[100,6625],[100,6698],[100,6777],[100,6852],[100,6926],[100,7001],[100,7071],[100,7150],[100,7224],[100,7301],[100,7379],[100,7455],[100,7530],[100,7605],[100,7678],[99.4,7753],[99.4,7827],[99.4,7899],[99.4,7977],[99.4,8063],[99.4,8141],[99.4,8204],[100,8279],[100,8359],[100,8433],[100,8518],[100,8590],[100,8664],[100,8761],[100,8837],[100,8918],[100,8990],[100,9064],[100,9139],[100,9225],[100,9297],[100,9380],[100,9456],[100,9529],[100,9605],[100,9676],[100,9750],[100,9831],[100,9908],[100,9984],[100,10056],[100,10134],[100,10206],[100,10279],[100,10352],[100,10424],[100,10495],[100,10570],[100,10647],[100,10719],[100,10803],[100,10882],[100,10957],[100,11030],[100,11103],[100,11179],[100,11252],[100,11335],[100,11414],[100,11488],[100,11561],[100,11635],[100,11717],[100,11797],[100,11881],[100,11955],[100,12037],[100,12113],[100,12191],[100,12265],[100,12339],[100,12427],[100,12497],[100,12570],[100,12643],[100,12720],[100,12800],[100,12885],[100,12966],[100,13039],[100,13114],[100,13189],[100,13263],[100,13343],[100,13417],[100,13500],[100,13573],[100,13647],[100,13719],[100,13796],[100,13882],[100,13959],[100,14032],[100,14106],[100,14187],[100,14267],[100,14340],[100,14419],[100,14493],[100,14570],[100,14647],[100,14719],[100,14791],[100,14865],[100,14938],[100,15015],[100,15087],[100,15160],[100,15239],[100,15304],[100,15375],[100,15448],[100,15521],[100,15594],[100,15668],[100,15750],[100,15822],[100,15904],[100,15978],[100,16051],[100,16126],[100,16200],[100,16277],[100,16351],[100,16425],[100,16500],[100,16574],[100,16651],[100,16723],[100,16806],[100,16883],[100,16967],[100,17047],[100,17137],[100,17218],[100,17302],[100,17378],[100,17459],[100,17541],[100,17615],[100,17688],[100,17768],[100,17851],[100,17923],[100,17996],[100,18072],[100,18147],[100,18231],[100,18309],[100,18386],[100,18463],[100,18538],[100,18627],[100,18700],[100,18778],[100,18853],[100,18928],[100,19002],[100,19074],[100,19151],[100,19233],[100,19304],[100,19378],[100,19451],[100,19525],[100,19597],[100,19677],[100,19752],[100,19830],[100,19900],[100,19973],[100,20047],[100,20124],[100,20207],[100,20285],[100,20358],[100,20429],[100,20506],[100,20578],[100,20657],[100,20730],[100,20801],[100,20877],[100,20962],[100,21035],[100,21110],[100,21182],[100,21255],[100,21328],[100,21402],[100,21482],[100,21563],[100,21636],[100,21710],[100,21798],[100,21882],[100,21967],[100,22040],[100,22116],[100,22190],[100,22270],[100,22349],[100,22422],[100,22504],[100,22576],[100,22652],[100,22723],[100,22800],[100,22873],[100,22947],[100,23027],[100,23101],[100,23178],[100,23252],[100,23325],[100,23400],[100,23477],[100,23551],[100,23629],[100,23708],[100,23781],[100,23861],[100,23934],[100,24007],[100,24080],[100,24155],[100,24229],[100,24302],[100,24380],[100,24461],[100,24538],[100,24611],[100,24683],[100,24760],[100,24833],[100,24905],[100,24978],[100,25057],[100,25131],[100,25204],[100,25278],[100,25352],[100,25425],[100,25498],[100,25575],[100,25648],[100,25731],[100,25813],[100,25886],[100,25967],[100,26045],[100,26125],[100,26210],[100,26288],[100,26359],[100,26432],[100,26505],[100,26578],[100,26652],[100,26724],[100,26806],[100,26886],[100,26963],[100,27038],[100,27121],[100,27202],[100,27276],[100,27351],[100,27434],[100,27507],[100,27587],[100,27661],[100,27735],[100,27814],[100,27887],[100,27961],[100,28035],[100,28113],[100,28186],[100,28253],[100,28334],[100,28417],[100,28502],[100,28581],[99.9,28657],[99.9,28732],[99.9,28806],[99.8,28892],[99.7,28967],[99.7,29040],[99.7,29116],[99.7,29195],[99.8,29269],[100,29345],[100,29421],[100,29495],[100,29569]]",1117.7107,1124.9879,98.75,1.414,"[{""rating"":98.75,""responseTime"":1.4139999999999873}]",space,6.5596,,1124.988,Partially,50,1124.9888,,,[],,0,11,11,11,1,audio/Narrative8Situation2.wav,audio/Narrative7Situation2.wav,audio/Narrative6Situation2.wav,audio/Narrative5Situation2.wav,3,3,3,3,,,,,,,,,,,,,,,,,,,,,,,,,,,,,,,,,,,,,,,
