consent.started,consent.stopped,consentResponse.keys,consentResponse.rt,consentResponse.duration,participantID,date,expName,psychopyVersion,OS,frameRate,STUDY_ID,SESSION_ID,opening1.started,opening1.stopped,keyEndingOpening1.keys,keyEndingOpening1.rt,keyEndingOpening1.duration,volumeAdjust.started,volumeAdjust.stopped,endingAdjust.keys,endingAdjust.rt,endingAdjust.duration,opening2.started,opening2.stopped,keyEndingOpening.keys,keyEndingOpening.rt,keyEndingOpening.duration,mouse.x,mouse.y,mouse.leftButton,mouse.midButton,mouse.rightButton,mouse.time,instructionLoop.thisRepN,instructionLoop.thisTrialN,instructionLoop.thisN,instructionLoop.thisIndex,instructionLoop.ran,readyForAudio.started,readyForAudio.stopped,fixation.started,run,audio_played,fixation.stopped,endPractice.keys,audioPre.started,audioPre.stopped,continuousResponses_audio,intRating.started,intRating.stopped,intQuestionSlider.response,intQuestionSlider.rt,intQuestionSlider.history,confirmResponse.keys,confirmResponse.rt,confirmResponse.duration,catchQuestion.started,catch_label,catch_value,catchQuestion.stopped,catchQuestionSlider.response,catchQuestionSlider.rt,catchQuestionSlider.history,confirmResponse_2.keys,audioRunLoop.thisRepN,audioRunLoop.thisTrialN,audioRunLoop.thisN,audioRunLoop.thisIndex,audioRunLoop.ran,conditions1_1,conditions2_1,conditions1_2,conditions2_2,dur1_1,dur2_1,dur1_2,dur2_2,endPractice.rt,endPractice.duration,confirmResponse_2.rt,confirmResponse_2.duration,runIntervalBreak.started,runIntervalBreak.stopped,endingBreakKey.keys,endingBreakKey.rt,endingBreakKey.duration,connection.started,connection.stopped,connectionEnding.keys,connectionEnding.rt,connectionEnding.duration,readyForText.started,readyForText.stopped,textPre.started,run_dup,textPre.stopped,continuousResponses_text,textRunLoop.thisRepN,textRunLoop.thisTrialN,textRunLoop.thisN,textRunLoop.thisIndex,textRunLoop.ran,text1_1,text1_2,text2_1,text2_2,runBreakText.started,runBreakText.stopped,endingBreakKey_2.keys,endingBreakKey_2.rt,endingBreakKey_2.duration,ending.started,ending.stopped,endingEnding.keys,endingEnding.rt,endingEnding.duration
0.0001,268.6139,y,268.2995,,663c0a95bceed7450360f00e,2025-07-07_22h38.33.183,group3.4_multiperson,2023.2.2,Win32,60.60606061,686c2ebf0248f13bef9af11f,686c928e9344fd9b792c7144,,,,,,,,,,,,,,,,,,,,,,,,,,,,,,,,,,,,,,,,,,,,,,,,,,,,,,,,,,,,,,,,,,,,,,,,,,,,,,,,,,,,,,,,,,,,,,,,,,,,,,,,
,,,,,663c0a95bceed7450360f00e,2025-07-07_22h38.33.183,group3.4_multiperson,2023.2.2,Win32,60.60606061,686c2ebf0248f13bef9af11f,686c928e9344fd9b792c7144,268.6142,280.2759,space,11.6241,,,,,,,,,,,,,,,,,,,,,,,,,,,,,,,,,,,,,,,,,,,,,,,,,,,,,,,,,,,,,,,,,,,,,,,,,,,,,,,,,,,,,,,,,,,,,,,,,,,,
,,,,,663c0a95bceed7450360f00e,2025-07-07_22h38.33.183,group3.4_multiperson,2023.2.2,Win32,60.60606061,686c2ebf0248f13bef9af11f,686c928e9344fd9b792c7144,,,,,,280.276,299.2459,space,18.6546,,,,,,,,,,,,,,,,,,,,,,,,,,,,,,,,,,,,,,,,,,,,,,,,,,,,,,,,,,,,,,,,,,,,,,,,,,,,,,,,,,,,,,,,,,,,,,,
,,,,,663c0a95bceed7450360f00e,2025-07-07_22h38.33.183,group3.4_multiperson,2023.2.2,Win32,60.60606061,686c2ebf0248f13bef9af11f,686c928e9344fd9b792c7144,,,,,,,,,,,299.2481,369.9511,space,70.6731,,[],[],[],[],[],[],0,0,0,0,1,,,,,,,,,,,,,,,,,,,,,,,,,,,,,,,,,,,,,,,,,,,,,,,,,,,,,,,,,,,,,,,,,,,,,,,,,,,,,,
,,,,,663c0a95bceed7450360f00e,2025-07-07_22h38.33.183,group3.4_multiperson,2023.2.2,Win32,60.60606061,686c2ebf0248f13bef9af11f,686c928e9344fd9b792c7144,,,,,,,,,,,369.9514,413.2785,space,43.28,,[],[],[],[],[],[],1,0,1,0,1,,,,,,,,,,,,,,,,,,,,,,,,,,,,,,,,,,,,,,,,,,,,,,,,,,,,,,,,,,,,,,,,,,,,,,,,,,,,,,
,,,,,663c0a95bceed7450360f00e,2025-07-07_22h38.33.183,group3.4_multiperson,2023.2.2,Win32,60.60606061,686c2ebf0248f13bef9af11f,686c928e9344fd9b792c7144,,,,,,,,,,,413.2788,437.3697,space,24.0707,,[],[],[],[],[],[],2,0,2,0,1,,,,,,,,,,,,,,,,,,,,,,,,,,,,,,,,,,,,,,,,,,,,,,,,,,,,,,,,,,,,,,,,,,,,,,,,,,,,,,
,,,,,663c0a95bceed7450360f00e,2025-07-07_22h38.33.183,group3.4_multiperson,2023.2.2,Win32,60.60606061,686c2ebf0248f13bef9af11f,686c928e9344fd9b792c7144,,,,,,,,,,,437.3698,466.9671,space,29.5779,,[],[],[],[],[],[],3,0,3,0,1,,,,,,,,,,,,,,,,,,,,,,,,,,,,,,,,,,,,,,,,,,,,,,,,,,,,,,,,,,,,,,,,,,,,,,,,,,,,,,
,,,,,663c0a95bceed7450360f00e,2025-07-07_22h38.33.183,group3.4_multiperson,2023.2.2,Win32,60.60606061,686c2ebf0248f13bef9af11f,686c928e9344fd9b792c7144,,,,,,,,,,,466.9673,545.8806,space,78.9045,,[],[],[],[],[],[],4,0,4,0,1,,,,,,,,,,,,,,,,,,,,,,,,,,,,,,,,,,,,,,,,,,,,,,,,,,,,,,,,,,,,,,,,,,,,,,,,,,,,,,
,,,,,663c0a95bceed7450360f00e,2025-07-07_22h38.33.183,group3.4_multiperson,2023.2.2,Win32,60.60606061,686c2ebf0248f13bef9af11f,686c928e9344fd9b792c7144,,,,,,,,,,,545.8809,569.3048,space,23.403,,[],[],[],[],[],[],5,0,5,0,1,,,,,,,,,,,,,,,,,,,,,,,,,,,,,,,,,,,,,,,,,,,,,,,,,,,,,,,,,,,,,,,,,,,,,,,,,,,,,,
,,,,,663c0a95bceed7450360f00e,2025-07-07_22h38.33.183,group3.4_multiperson,2023.2.2,Win32,60.60606061,686c2ebf0248f13bef9af11f,686c928e9344fd9b792c7144,,,,,,,,,,,,,,,,,,,,,,,,,,,569.3061,571.8744,571.8842,1,audio/Narrative13Situation2.wav,573.8928,,573.8929,603.6398,"[[999,1],[999,83],[999,166],[999,250],[999,333],[999,417],[999,500],[999,583],[999,667],[999,750],[999,834],[999,917],[999,1000],[999,1084],[999,1167],[999,1250],[999,1334],[999,1417],[999,1501],[999,1584],[999,1668],[999,1751],[999,1834],[999,1918],[999,2001],[999,2085],[999,2168],[999,2252],[999,2335],[999,2418],[999,2502],[999,2585],[999,2668],[999,2752],[999,2835],[999,2919],[999,3002],[999,3086],[999,3169],[999,3253],[999,3336],[999,3419],[999,3503],[999,3587],[999,3670],[999,3753],[999,3837],[999,3920],[999,4003],[999,4087],[999,4170],[999,4253],[999,4337],[999,4420],[999,4504],[999,4587],[999,4671],[999,4754],[999,4838],[999,4921],[999,5004],[999,5088],[999,5171],[999,5255],[999,5338],[999,5421],[999,5505],[999,5588],[999,5672],[11.4,5755],[10.8,5838],[10.8,5922],[13.6,6506],[12.4,6589],[12.4,6673],[19,6756],[30.1,6840],[30.9,6923],[30.9,7006],[30.4,7090],[22.5,7173],[21.4,7257],[21.4,7340],[22.6,7423],[25.5,7507],[27.3,7590],[27.9,7674],[30.2,7757],[33.6,7841],[33.6,7924],[33.6,8007],[33.6,8091],[33.6,8175],[31.1,8258],[29.3,8341],[27.6,8425],[22.9,8508],[21.3,8591],[25.2,8675],[32.5,8758],[32.5,8841],[32.5,8925],[34.7,9008],[37.9,9092],[43.9,9175],[45.1,9259],[48.6,9342],[48.9,9426],[48.9,9509],[49.2,9592],[49.2,9676],[49.2,9759],[65.4,9843],[78.5,9926],[78.5,10009],[80.2,10093],[81.1,10177],[81.1,10260],[81.1,10343],[81.1,10426],[80.9,10510],[68.2,10594],[55.9,10677],[52.6,10760],[52.6,10844],[52.6,10927],[55.6,11011],[69.6,11094],[69.6,11177],[53.7,11261],[43.9,11344],[43.9,11428],[43.9,11511],[43.9,11594],[49.9,11678],[51.8,11761],[51.8,11845],[55.2,11928],[75.3,12012],[88.9,12095],[90.3,12178],[90.3,12262],[92.5,12345],[94.4,12429],[94.4,12512],[94.4,12596],[88,12679],[76.9,12762],[71,12846],[54.3,12929],[46.4,13012],[46.4,13096],[46.8,13180],[48.8,13263],[49.1,13346],[49.1,13430],[49.1,13513],[49.1,13596],[49.1,13680],[49.1,13763],[49.1,13847],[49.1,13930],[49.1,14014],[49.1,14097],[49.1,14180],[49.1,14264],[49.1,14347],[49.1,14430],[49.1,14514],[49.1,14597],[49.3,14681],[65.3,14764],[83.7,14848],[86.8,14931],[86.8,15014],[86.8,15098],[86.8,15181],[86.8,15265],[89.4,15348],[89.4,15432],[89.4,15515],[89.4,15599],[89.4,15682],[88.7,15765],[88.7,15849],[86.8,15932],[86.8,16016],[86.8,16099],[86.8,16182],[85.6,16266],[85.4,16349],[85.4,16433],[85.1,16516],[81.1,16600],[81.1,16683],[81.1,16766],[80.9,16850],[75.5,16933],[74.4,17017],[74.1,17100],[71.4,17183],[71.4,17267],[71.4,17350],[71.4,17434],[71.4,17517],[71.4,17601],[71.4,17684],[71.4,17767],[71.4,17851],[71.4,17934],[71.4,18018],[71.4,18101],[71.4,18185],[68.8,18268],[65.6,18351],[62.7,18435],[59.9,18518],[59.5,18601],[59.4,18685],[57.4,18768],[50.9,18852],[49.5,18935],[49.3,19019],[49.1,19102],[49.1,19185],[49.1,19269],[49.1,19352],[49.1,19436],[49.1,19519],[49.1,19603],[49.1,19686],[49.1,19769],[49.1,19853],[49.1,19936],[49.1,20020],[49.1,20103],[49.1,20187],[49.1,20270],[49.1,20353],[49.1,20437],[49.1,20520],[49.1,20604],[49.1,20687],[49.1,20770],[49.1,20854],[49.1,20937],[49.1,21021],[49.1,21104],[49.1,21188],[49.1,21271],[49.1,21354],[49.1,21438],[41.1,21521],[40.6,21605],[40.5,21688],[35.6,21772],[33.2,21855],[30.1,21938],[26.2,22022],[23.3,22105],[20.9,22189],[17.4,22272],[15.7,22355],[12,22439],[12,22522],[11.5,22606],[10,22689],[8.4,22773],[8,22856],[5.8,22939],[5.8,23023],[5.8,23106],[5.7,23190],[4.7,23273],[2.6,23356],[2.3,23440],[2.3,23523],[2.3,23607],[2.3,23690],[2.3,23773],[2.3,23857],[2.3,23940],[2.3,24024],[2.3,24108],[2.3,24191],[2.3,24274],[2.4,24357],[2.4,24441],[2.4,24524],[3.3,24608],[3.9,24691],[3.9,24774],[4.6,24858],[6.4,24942],[6.4,25025],[6.4,25108],[6.4,25192],[6.4,25275],[6.4,25358],[4.8,25442],[3,25525],[3,25609],[6.1,25692],[20.8,25776],[28.3,25859],[38.8,25942],[46.8,26026],[48.7,26109],[53,26193],[53,26276],[53,26360],[51.7,26443],[51.1,26526],[50.2,26610],[50.1,26693],[50.1,26777],[49.7,26860],[49.7,26943],[49.7,27027],[49.7,27110],[49.7,27194],[49.7,27277],[49.7,27360],[49.7,27444],[49.7,27527],[49.7,27611],[49.7,27694],[49.7,27778],[49.7,27861],[49.7,27944],[49.7,28028],[49.7,28111],[49.7,28195],[49.7,28278],[49.7,28362],[49.7,28445],[49.7,28528],[49.7,28612],[49.7,28695],[49.7,28779],[49.7,28862],[49.7,28945],[49.7,29029],[49.7,29112],[49.7,29196],[49.7,29279],[49.7,29363],[49.7,29446],[49.7,29529],[49.7,29613],[49.7,29696]]",603.64,616.8033,48.78774029,9.799,"[{""rating"":48.78774029022996,""responseTime"":9.798999999999978}]",space,12.6351,,616.8034,Partially,50,616.8059,,,[],,0,0,0,0,1,audio/Narrative13Situation2.wav,audio/Narrative13Situation2.wav,audio/Narrative13Situation2.wav,audio/Narrative13Situation2.wav,2,2,2,2,,,,,,,,,,,,,,,,,,,,,,,,,,,,,,,,,,,,,,,
,,,,,663c0a95bceed7450360f00e,2025-07-07_22h38.33.183,group3.4_multiperson,2023.2.2,Win32,60.60606061,686c2ebf0248f13bef9af11f,686c928e9344fd9b792c7144,,,,,,,,,,,,,,,,,,,,,,,,,,,,,616.8061,1,audio/Narrative7Situation1.wav,619.9565,space,619.9565,675.8303,"[[999,0],[999,83],[999,166],[999,250],[999,333],[999,416],[999,500],[999,583],[999,667],[999,750],[999,834],[999,917],[999,1000],[999,1084],[999,1167],[999,1251],[999,1334],[999,1417],[999,1501],[999,1584],[999,1668],[999,1751],[999,1835],[999,1918],[999,2001],[999,2085],[999,2168],[50,2252],[51.4,2335],[51.4,2418],[49.7,2502],[49.7,2585],[49.7,2669],[49.7,2752],[49.7,2836],[49.7,2919],[49.7,3002],[49.7,3086],[49.7,3169],[49.7,3253],[49.7,3336],[49.7,3419],[49.7,3503],[49.7,3586],[49.7,3670],[49.7,3754],[49.7,3837],[49.7,3920],[49.7,4003],[49.7,4087],[49.7,4170],[49.7,4254],[49.7,4337],[49.7,4421],[49.7,4504],[49.7,4588],[49.7,4671],[49.7,4754],[46.5,4838],[16.7,4921],[14.1,5004],[8.2,5088],[2.6,5171],[2.6,5255],[2.6,5338],[2.6,5422],[2.6,5505],[2.6,5588],[2.6,5672],[3.1,5755],[4,5839],[4,5922],[4.4,6005],[4.4,6089],[4.4,6172],[4.4,6256],[3.5,6339],[2.2,6423],[1.8,6506],[1.2,6589],[1.2,6673],[1.2,6756],[1.2,6840],[1,6923],[0.9,7007],[0.6,7090],[0.1,7173],[0.1,7257],[0.1,7340],[0.1,7424],[0.1,7507],[0.1,7590],[0.1,7674],[0.2,7757],[3,7841],[3,7924],[3,8008],[3,8091],[3,8174],[3,8258],[3,8341],[3,8425],[3,8508],[2.8,8591],[2.5,8675],[2.1,8758],[2.1,8842],[4.4,8925],[13.9,9009],[28.3,9092],[43.5,9176],[54,9259],[54.3,9342],[54.3,9426],[54.3,9509],[54.3,9592],[54.3,9676],[50.9,9759],[50.7,9843],[50.7,9926],[50.4,10010],[50.4,10093],[50.2,10176],[50.2,10260],[50.2,10344],[50.2,10427],[50.2,10510],[50.2,10594],[50.2,10677],[50.2,10760],[50.2,10844],[50.2,10927],[50.2,11011],[50.2,11094],[50.2,11177],[50.2,11261],[50.2,11344],[50.2,11428],[50.2,11511],[50.2,11595],[50.2,11678],[50.2,11762],[50.2,11845],[50.2,11928],[50.2,12012],[50.2,12095],[50.2,12178],[50.2,12262],[50.2,12345],[50.2,12429],[50.2,12512],[50.2,12595],[53,12679],[53,12762],[53,12846],[53,12929],[53,13013],[53,13096],[53,13179],[50.4,13263],[50.4,13346],[49.5,13430],[49.5,13513],[49.5,13597],[49.5,13680],[49.8,13763],[53.4,13847],[53.4,13930],[53.4,14014],[53.4,14097],[51.7,14181],[49.7,14264],[49.7,14347],[49.7,14431],[49.8,14514],[50.2,14598],[50.2,14681],[50.2,14764],[50.2,14848],[50.2,14931],[50.2,15015],[50.2,15098],[50.2,15182],[50.2,15265],[50.2,15348],[50.2,15432],[50.2,15515],[50.2,15599],[50.2,15682],[50.2,15765],[50.2,15849],[50.2,15932],[50.2,16016],[50.2,16099],[50.2,16183],[50.2,16266],[50.2,16350],[50.2,16433],[50.2,16516],[50.2,16600],[47.1,16683],[43.9,16767],[26.4,16850],[6.8,16933],[5.8,17017],[5.8,17100],[1.5,17184],[1.4,17267],[1.4,17350],[1.4,17434],[1.4,17517],[1.4,17601],[1.4,17684],[1.4,17768],[1.4,17851],[1.2,17934],[0.4,18018],[0.2,18101],[0.2,18185],[0.2,18268],[0.2,18351],[0.2,18435],[0.2,18518],[0.2,18602],[0.2,18685],[0.2,18769],[0.2,18852],[0.2,18935],[0.2,19019],[0.2,19102],[0.2,19186],[0.2,19269],[0.2,19353],[0.2,19436],[0.3,19519],[11.1,19603],[26.5,19686],[38.9,19770],[45,19853],[48.2,19936],[48.9,20020],[48.9,20103],[48.9,20187],[51.5,20270],[57.2,20354],[67.1,20437],[70.1,20520],[81,20604],[87.8,20687],[92,20771],[93.6,20854],[95.7,20937],[99.8,21021],[100,21104],[100,21188],[100,21271],[100,21355],[99.6,21438],[99,21522],[99,21605],[99,21688],[99,21772],[99,21855],[99,21938],[92.7,22022],[81.7,22105],[81.7,22189],[81.7,22272],[84.3,22356],[94.1,22439],[96.7,22523],[100,22606],[100,22689],[100,22773],[100,22856],[100,22939],[100,23023],[100,23106],[100,23190],[100,23273],[100,23357],[100,23440],[100,23524],[100,23607],[100,23690],[100,23774],[100,23857],[100,23941],[100,24024],[100,24108],[100,24191],[100,24274],[100,24358],[100,24441],[100,24525],[100,24608],[100,24691],[100,24775],[100,24859],[100,24942],[100,25025],[100,25109],[100,25192],[100,25275],[100,25359],[100,25442],[100,25525],[100,25609],[100,25692],[100,25776],[100,25859],[100,25943],[100,26026],[100,26109],[100,26193],[100,26277],[100,26360],[100,26443],[100,26527],[100,26610],[100,26693],[100,26777],[100,26860],[100,26944],[100,27027],[100,27110],[100,27194],[100,27277],[100,27361],[100,27444],[100,27528],[100,27611],[100,27694],[100,27778],[100,27862],[100,27945],[100,28028],[100,28111],[100,28195],[100,28278],[100,28362],[100,28445],[100,28529],[100,28612],[100,28696],[100,28779],[100,28862],[100,28946],[100,29029],[100,29113],[100,29196],[100,29279],[100,29363],[100,29446],[100,29529],[100,29613],[100,29697],[100,29780],[100,29863],[100,29947],[100,30030],[100,30114],[100,30197],[100,30280],[100,30364],[100,30447],[100,30531],[100,30614],[100,30698],[100,30781],[100,30864],[100,30948],[100,31031],[100,31115],[100,31198],[100,31281],[100,31365],[100,31449],[100,31532],[100,31615],[100,31699],[100,31782],[100,31865],[100,31949],[100,32032],[100,32116],[100,32199],[100,32282],[100,32366],[100,32449],[100,32533],[100,32616],[100,32700],[100,32783],[100,32866],[100,32950],[100,33033],[100,33117],[100,33200],[100,33283],[100,33367],[100,33450],[100,33534],[100,33617],[100,33701],[100,33784],[100,33867],[100,33951],[100,34034],[100,34118],[100,34201],[100,34284],[100,34368],[100,34451],[100,34535],[100,34618],[100,34702],[100,34785],[100,34868],[100,34952],[100,35035],[100,35119],[100,35202],[100,35286],[100,35369],[100,35452],[100,35536],[100,35619],[100,35702],[100,35786],[100,35869],[100,35953],[100,36036],[100,36120],[100,36203],[100,36287],[100,36370],[100,36453],[100,36537],[100,36620],[100,36704],[100,36787],[100,36870],[100,36954],[100,37037],[100,37121],[100,37204],[100,37287],[100,37371],[100,37454],[100,37538],[100,37621],[100,37705],[100,37788],[100,37871],[100,37955],[100,38038],[100,38122],[100,38205],[100,38288],[100,38372],[100,38455],[100,38539],[100,38622],[100,38706],[100,38789],[100,38872],[100,38956],[100,39039],[100,39123],[100,39206],[100,39290],[100,39373],[100,39456],[100,39540],[100,39623],[100,39707],[100,39790],[100,39873],[100,39957],[100,40040],[100,40124],[100,40207],[100,40291],[100,40374],[100,40457],[100,40541],[100,40625],[100,40708],[100,40791],[100,40875],[100,40958],[100,41041],[100,41125],[100,41208],[100,41292],[100,41375],[100,41458],[100,41542],[100,41625],[100,41709],[100,41792],[100,41875],[100,41959],[100,42042],[100,42126],[100,42209],[100,42293],[100,42376],[100,42459],[100,42543],[100,42626],[100,42710],[100,42793],[100,42877],[100,42960],[100,43043],[100,43127],[100,43210],[100,43294],[100,43377],[100,43460],[100,43544],[100,43627],[100,43711],[100,43794],[100,43878],[100,43961],[100,44044],[100,44128],[100,44211],[100,44295],[100,44378],[100,44461],[100,44545],[100,44628],[100,44712],[100,44795],[100,44879],[100,44962],[100,45045],[100,45129],[100,45212],[100,45296],[100,45379],[100,45463],[100,45546],[100,45629],[100,45713],[100,45796],[100,45880],[100,45963],[100,46047],[100,46130],[100,46213],[100,46297],[100,46380],[100,46464],[100,46547],[100,46630],[100,46714],[100,46797],[100,46881],[100,46964],[100,47047],[100,47131],[100,47214],[100,47298],[100,47381],[100,47465],[100,47548],[100,47631],[100,47715],[100,47798],[100,47882],[100,47965],[100,48049],[100,48132],[100,48215],[100,48299],[100,48382],[100,48466],[100,48549],[100,48633],[100,48716],[100,48799],[100,48883],[100,48966],[100,49050],[100,49133],[100,49216],[100,49300],[100,49383],[100,49467],[100,49550],[100,49634],[100,49717],[100,49800],[100,49884],[100,49967],[100,50051],[100,50134],[100,50217],[100,50301],[100,50384],[100,50468],[100,50551],[100,50634],[100,50718],[100,50801],[100,50885],[100,50969],[100,51052],[100,51135],[100,51218],[100,51302],[100,51385],[100,51469],[100,51552],[100,51635],[100,51719],[100,51802],[100,51886],[100,51970],[100,52053],[100,52136],[100,52219],[100,52303],[100,52386],[100,52470],[100,52553],[100,52637],[100,52720],[100,52803],[100,52887],[100,52970],[100,53054],[100,53137],[100,53221],[100,53304],[100,53387],[100,53471],[100,53554],[100,53638],[100,53721],[100,53804],[100,53888],[100,53971],[100,54055],[100,54138],[100,54221],[100,54305],[100,54388],[100,54472],[100,54555],[100,54639],[100,54722],[100,54805],[100,54889],[100,54972],[100,55056],[100,55139],[100,55222],[100,55306],[100,55389],[100,55473],[85.6,55556],[84,55640],[88.8,55723],[100,55807]]",675.8305,683.2378,99.27462084,4.5099,"[{""rating"":99.27462083697219,""responseTime"":4.509899999976142}]",space,6.8812,,683.2378,Definitely yes,100,683.2398,,,[],,0,1,1,1,1,audio/Narrative7Situation1.wav,audio/Narrative8Situation1.wav,audio/Narrative5Situation1.wav,audio/Narrative6Situation1.wav,2,5,5,2,3.1368,,,,,,,,,,,,,,,,,,,,,,,,,,,,,,,,,,,,,,
,,,,,663c0a95bceed7450360f00e,2025-07-07_22h38.33.183,group3.4_multiperson,2023.2.2,Win32,60.60606061,686c2ebf0248f13bef9af11f,686c928e9344fd9b792c7144,,,,,,,,,,,,,,,,,,,,,,,,,,,,,683.2399,1,audio/Narrative7Situation2.wav,686.241,,686.241,693.7153,"[[999,0],[999,83],[999,166],[999,250],[999,333],[999,416],[999,500],[999,583],[999,667],[999,750],[999,834],[999,917],[999,1000],[999,1084],[999,1167],[999,1251],[999,1334],[999,1418],[999,1501],[999,1584],[999,1668],[999,1751],[999,1835],[63.5,1918],[83.8,2002],[94.7,2085],[100,2168],[100,2252],[100,2335],[100,2419],[100,2502],[100,2585],[100,2669],[100,2752],[100,2836],[100,2919],[100,3002],[100,3086],[100,3170],[100,3253],[100,3336],[100,3420],[100,3503],[100,3586],[100,3670],[100,3753],[100,3837],[100,3920],[100,4003],[100,4087],[100,4170],[100,4254],[100,4337],[100,4421],[100,4504],[100,4587],[100,4671],[100,4754],[100,4838],[100,4921],[100,5005],[100,5088],[100,5171],[100,5255],[100,5338],[100,5422],[100,5505],[100,5588],[100,5672],[100,5756],[100,5839],[100,5922],[100,6005],[100,6089],[100,6172],[100,6256],[100,6339],[100,6423],[100,6506],[100,6589],[100,6673],[100,6756],[100,6840],[100,6923],[100,7007],[100,7090],[100,7173],[100,7257],[100,7340],[100,7424]]",693.7154,697.5862,100,2.6539,"[{""rating"":98.33776327631712,""responseTime"":1.7383000000119182},{""rating"":100,""responseTime"":2.653900000035719}]",space,3.3446,,697.5862,Partially,50,697.5881,,,[],,0,2,2,2,1,audio/Narrative7Situation2.wav,audio/Narrative8Situation2.wav,audio/Narrative5Situation2.wav,audio/Narrative6Situation2.wav,3,3,3,3,,,,,,,,,,,,,,,,,,,,,,,,,,,,,,,,,,,,,,,
,,,,,663c0a95bceed7450360f00e,2025-07-07_22h38.33.183,group3.4_multiperson,2023.2.2,Win32,60.60606061,686c2ebf0248f13bef9af11f,686c928e9344fd9b792c7144,,,,,,,,,,,,,,,,,,,,,,,,,,,,,697.5882,1,audio/Narrative7Situation3.wav,705.5941,,705.5942,714.8372,"[[999,0],[999,83],[999,166],[999,250],[999,333],[999,416],[999,500],[999,583],[999,667],[999,750],[999,833],[999,917],[999,1000],[999,1084],[999,1167],[999,1251],[999,1334],[999,1417],[999,1501],[999,1584],[98.6,1668],[100,1751],[100,1834],[100,1918],[100,2002],[100,2085],[100,2168],[100,2252],[100,2335],[100,2419],[100,2502],[100,2585],[98.8,2669],[93.1,2752],[92.9,2835],[92.9,2919],[92.9,3002],[95.3,3086],[100,3169],[100,3253],[100,3337],[100,3419],[100,3503],[100,3586],[100,3670],[100,3753],[100,3837],[100,3920],[100,4003],[100,4087],[100,4171],[100,4254],[100,4337],[100,4421],[100,4504],[100,4587],[100,4671],[100,4754],[100,4837],[100,4921],[100,5004],[100,5088],[100,5171],[100,5255],[100,5338],[100,5422],[100,5505],[100,5588],[100,5672],[100,5755],[100,5839],[100,5922],[100,6005],[100,6089],[100,6173],[100,6256],[100,6339],[100,6423],[100,6506],[100,6590],[100,6673],[100,6756],[100,6840],[100,6923],[100,7006],[100,7090],[100,7173],[100,7257],[100,7340],[100,7424],[100,7507],[100,7591],[100,7674],[100,7757],[100,7841],[100,7924],[100,8007],[100,8091],[95,8174],[93.7,8258],[93.7,8341],[93.7,8425],[93.7,8508],[93.7,8591],[92.9,8675],[92.9,8758],[92.9,8842],[92.7,8925],[90.1,9008],[90.1,9092],[90.1,9175]]",714.8373,717.4729,49.3082271,1.6031,"[{""rating"":49.308227099117026,""responseTime"":1.6031000000239146}]",space,2.1124,,717.4729,Definitely yes,100,717.4747,,,[],,0,3,3,3,1,audio/Narrative7Situation3.wav,audio/Narrative8Situation3.wav,audio/Narrative5Situation3.wav,audio/Narrative6Situation3.wav,8,4,3,5,,,,,,,,,,,,,,,,,,,,,,,,,,,,,,,,,,,,,,,
,,,,,663c0a95bceed7450360f00e,2025-07-07_22h38.33.183,group3.4_multiperson,2023.2.2,Win32,60.60606061,686c2ebf0248f13bef9af11f,686c928e9344fd9b792c7144,,,,,,,,,,,,,,,,,,,,,,,,,,,,,717.4748,1,audio/Narrative7Situation4.wav,720.4762,,720.4763,732.2048,"[[999,0],[999,82],[999,166],[999,250],[999,333],[999,416],[999,500],[999,583],[999,666],[999,750],[999,833],[999,917],[999,1000],[999,1084],[999,1167],[999,1251],[999,1334],[50.5,1417],[50.5,1501],[50.5,1584],[50.5,1668],[50.4,1751],[50.4,1835],[46.5,1918],[20.3,2001],[11.1,2085],[9.7,2585],[8.4,2669],[2.5,2752],[2.5,2835],[3.8,2919],[4.5,3002],[4.5,3086],[4.5,3169],[4.5,3252],[4.5,3336],[4.5,3420],[5.5,3503],[6,3586],[16.9,3670],[24.2,3753],[24.2,3836],[24.2,3920],[24.2,4003],[24.2,4087],[24.2,4170],[24.2,4253],[24.2,4337],[24.2,4421],[24.2,4504],[24.2,4587],[24.2,4671],[20.2,4754],[10.3,4837],[1.6,4921]]",732.2049,737.6272,0,4.2552,"[{""rating"":2.6729140968205387,""responseTime"":3.4662000000477065},{""rating"":0,""responseTime"":4.255200000047694}]",space,4.897,,737.6273,Partially,50,737.629,,,[],,0,4,4,4,1,audio/Narrative7Situation4.wav,audio/Narrative8Situation4.wav,audio/Narrative5Situation4.wav,audio/Narrative6Situation4.wav,3,3,1,2,,,,,,,,,,,,,,,,,,,,,,,,,,,,,,,,,,,,,,,
,,,,,663c0a95bceed7450360f00e,2025-07-07_22h38.33.183,group3.4_multiperson,2023.2.2,Win32,60.60606061,686c2ebf0248f13bef9af11f,686c928e9344fd9b792c7144,,,,,,,,,,,,,,,,,,,,,,,,,,,,,737.6291,1,audio/Narrative7Situation5.wav,742.632,,742.6321,751.1074,"[[999,0],[999,83],[999,166],[999,250],[999,333],[999,416],[999,500],[999,583],[999,667],[999,750],[999,833],[999,917],[999,1000],[999,1084],[999,1167],[999,1251],[999,1334],[999,1417],[999,1501],[999,1584],[999,1668],[999,1751],[48.6,1835],[48.6,1918],[48.6,2001],[48.6,2085],[47.6,2168],[45.5,2252],[39.1,2335],[38,2418],[38.7,2502],[45.1,2585],[47.6,2669],[48.8,2752],[48.8,2836],[48.8,2919],[48.8,3003],[48.8,3086],[49.3,3169],[49.4,3253],[49.4,3336],[49.4,3419],[49.8,3503],[69.2,3586],[90.1,3670],[100,3753],[100,3837],[100,3920],[100,4004],[100,4087],[100,4170],[100,4254],[100,4337],[100,4420],[100,4504],[100,4587],[100,4671],[100,5088],[100,5171],[100,5255],[100,5338],[100,5421],[100,5505],[100,5588],[100,5672],[100,5755],[100,5839],[100,5922],[100,6006],[100,6089],[100,6172],[100,6256],[100,6339],[100,6423],[100,6506],[100,6589],[100,6673],[100,6756],[100,6840],[100,6923],[100,7007],[100,7090],[100,7174],[100,7257],[100,7340],[100,7424],[100,7507],[100,7590],[100,7674],[100,7757],[100,7841],[100,7924],[100,8008],[100,8091],[100,8175],[100,8258],[100,8341],[100,8425]]",751.1075,753.6432,100,1.9868,"[{""rating"":98.85824158732163,""responseTime"":1.1998999999761963},{""rating"":100,""responseTime"":1.9867999999523818}]",space,2.0043,,753.6433,Partially,50,753.6446,,,[],,0,5,5,5,1,audio/Narrative7Situation5.wav,audio/Narrative8Situation5.wav,audio/Narrative5Situation5.wav,audio/Narrative6Situation5.wav,5,2,5,2,,,,,,,,,,,,,,,,,,,,,,,,,,,,,,,,,,,,,,,
,,,,,663c0a95bceed7450360f00e,2025-07-07_22h38.33.183,group3.4_multiperson,2023.2.2,Win32,60.60606061,686c2ebf0248f13bef9af11f,686c928e9344fd9b792c7144,,,,,,,,,,,,,,,,,,,,,,,,,,,,,753.6447,1,audio/Narrative7Situation6.wav,756.6463,,756.6464,766.6066,"[[999,0],[999,83],[999,166],[999,250],[999,333],[999,416],[999,500],[999,583],[999,667],[999,750],[999,833],[999,917],[999,1000],[999,1084],[61.6,1167],[79.1,1251],[91.9,1334],[91.9,1418],[96.3,1501],[100,1584],[100,1668],[100,1751],[100,1835],[100,1918],[100,2002],[100,2085],[100,2168],[100,2252],[100,2335],[100,2419],[100,2502],[100,2585],[100,2669],[100,2752],[100,2836],[100,2919],[100,3003],[100,3086],[100,3170],[100,3253],[100,3336],[100,3420],[100,3503],[100,3586],[100,3670],[100,3753],[100,3837],[100,3920],[100,4004],[100,4087],[100,4170],[100,4254],[100,4338],[100,4421],[100,4504],[100,4587],[100,4671],[100,4754],[100,4838],[100,4921],[100,5004],[100,5088],[100,5172],[100,5255],[100,5338],[100,5422],[100,5505],[100,5588],[100,5672],[100,5755],[100,5839],[100,5922],[100,6005],[100,6089],[100,6172],[100,6256],[100,6340],[100,6423],[100,6506],[100,6590],[100,6673],[100,6756],[100,6840],[100,6923],[100,7006],[100,7090],[100,7173],[100,7257],[100,7340],[100,7424],[100,7507],[100,7590],[100,7674],[100,7758],[100,7841],[100,7924],[100,8008],[100,8091],[100,8174],[100,8258],[100,8341],[100,8425],[100,8508],[100,8591],[100,8675],[100,8758],[100,8842],[100,8925],[100,9009],[100,9092],[100,9176],[100,9259],[100,9342],[100,9426],[100,9509],[100,9593],[100,9676],[100,9759],[100,9843],[100,9926]]",766.6067,770.2435,100,3.1761,"[{""rating"":94.6943811077554,""responseTime"":2.2980999999641654},{""rating"":100,""responseTime"":3.176099999964208}]",space,3.1146,,770.2436,Partially,50,770.2448,,,[],,0,6,6,6,1,audio/Narrative7Situation6.wav,audio/Narrative8Situation6.wav,audio/Narrative5Situation6.wav,audio/Narrative6Situation6.wav,3,2,3,2,,,,,,,,,,,,,,,,,,,,,,,,,,,,,,,,,,,,,,,
,,,,,663c0a95bceed7450360f00e,2025-07-07_22h38.33.183,group3.4_multiperson,2023.2.2,Win32,60.60606061,686c2ebf0248f13bef9af11f,686c928e9344fd9b792c7144,,,,,,,,,,,,,,,,,,,,,,,,,,,,,770.245,1,audio/Narrative7Situation7.wav,775.249,,775.2491,792.433,"[[999,0],[999,82],[999,166],[999,249],[999,333],[999,416],[999,500],[999,583],[999,667],[999,750],[999,833],[999,917],[999,1000],[49.3,1083],[49.7,1167],[50.3,1250],[54.7,1334],[69,1417],[82.7,1501],[93,1584],[97.3,1668],[100,1751],[100,1834],[100,1918],[100,2001],[100,2085],[100,2168],[100,2251],[100,2335],[100,2418],[100,2502],[100,2585],[100,2668],[100,2752],[100,2836],[100,2919],[100,3002],[100,3086],[100,3169],[100,3252],[100,3336],[100,3419],[100,3503],[100,3586],[100,3670],[100,3753],[100,3836],[100,3920],[100,4003],[100,4086],[100,4170],[100,4253],[100,4337],[100,4420],[100,4504],[100,4587],[100,4670],[100,4754],[100,4838],[100,4921],[100,5004],[100,5088],[100,5171],[100,5255],[100,5338],[100,5421],[100,5505],[100,5588],[100,5672],[100,5755],[100,5838],[100,5922],[100,6005],[100,6088],[100,6172],[100,6256],[100,6339],[100,6422],[100,6506],[100,6589],[100,6673],[100,6756],[100,6839],[100,6924],[100,7006],[95.7,7090],[92.3,7173],[92.3,7256],[92.3,7340],[92.3,7423],[92.3,7507],[92.3,7590],[92.3,7674],[92.3,7757],[92.3,7840],[92.3,7924],[92.3,8008],[92.3,8091],[92.3,8174],[92.3,8258],[92.3,8341],[92.3,8425],[92.3,8508],[92.3,8591],[92.3,8675],[92.3,8758],[93.1,8841],[95.1,8925],[97,9008],[99.6,9092],[100,9175],[100,9259],[100,9342],[100,9926],[100,10010],[100,10093],[100,10176],[100,10260],[100,10343],[100,10426],[100,10510],[100,10593],[100,10677],[100,10760],[100,10843],[100,10927],[100,16349],[100,16432],[100,16516],[100,16600],[100,16683],[100,16766],[100,16850],[100,16933],[100,17016],[100,17100],[100,17183]]",792.433,797.4714,100,4.7854,"[{""rating"":99.79511614374181,""responseTime"":2.04019999998809},{""rating"":100,""responseTime"":4.785400000035679}]",space,4.5052,,797.4715,Definitely yes,100,797.4729,,,[],,0,7,7,7,1,audio/Narrative7Situation7.wav,audio/Narrative8Situation7.wav,audio/Narrative5Situation7.wav,audio/Narrative6Situation7.wav,5,3,4,5,,,,,,,,,,,,,,,,,,,,,,,,,,,,,,,,,,,,,,,
,,,,,663c0a95bceed7450360f00e,2025-07-07_22h38.33.183,group3.4_multiperson,2023.2.2,Win32,60.60606061,686c2ebf0248f13bef9af11f,686c928e9344fd9b792c7144,,,,,,,,,,,,,,,,,,,,,,,,,,,,,797.4731,1,audio/Narrative7Situation8.wav,799.4735,,799.4735,809.4843,"[[82.4,750],[67,834],[63.1,917],[53.2,1000],[53.2,1084],[48.5,1167],[44.7,1251],[45.1,1334],[72.9,1418],[84.7,1501],[84.7,1585],[84.7,1668],[89.8,1751],[100,1835],[100,1918],[100,2001],[100,2085],[100,2168],[100,2252],[99.5,2335],[99.5,2418],[99.5,2502],[99.5,2586],[99.8,2669],[100,2752],[100,2836],[100,2919],[100,3002],[100,3086],[100,3169],[100,3253],[100,3336],[100,3419],[100,3503],[100,3586],[100,3670],[100,3753],[100,3837],[100,3920],[100,4003],[100,4087],[100,4170],[100,4254],[100,4337],[100,4421],[100,4504],[100,4587],[100,4671],[100,4754],[100,4838],[100,4921],[100,5005],[100,5088],[100,5172],[100,5255],[100,5338],[100,5422],[100,5505],[100,5588],[100,5672],[100,5756],[100,5839],[100,5922],[100,6006],[100,6089],[100,6172],[100,6256],[100,6339],[100,6423],[100,6506],[100,6589],[100,6673],[100,6756],[100,6840],[100,6923],[100,7007],[100,7090],[100,7173],[100,7257],[100,7341],[100,7424],[100,7507],[100,7591],[100,7674],[100,7757],[100,7841],[100,7924],[100,8007],[100,8091],[100,8174],[100,8258],[100,8341],[100,8425],[100,8508],[100,8592],[100,8675],[100,8758],[100,8842],[100,8925],[100,9009],[100,9092],[100,9176],[100,9259],[100,9342],[100,9426],[100,9509],[100,9593],[100,9676],[100,9759],[100,9843],[100,9926],[100,10010]]",809.4843,811.7862,100,1.5266,"[{""rating"":99.58691802103397,""responseTime"":0.889400000035721},{""rating"":100,""responseTime"":1.526600000023791}]",space,1.7553,,811.7862,Partially,50,817.4088,49.62051579,4.9923,"[{""rating"":49.620515785296234,""responseTime"":4.992300000011937}]",space,0,8,8,8,1,audio/Narrative7Situation8.wav,audio/Narrative8Situation8.wav,audio/Narrative5Situation8.wav,audio/Narrative6Situation8.wav,2,3,3,5,,,5.089,,,,,,,,,,,,,,,,,,,,,,,,,,,,,,,,,,,,
,,,,,663c0a95bceed7450360f00e,2025-07-07_22h38.33.183,group3.4_multiperson,2023.2.2,Win32,60.60606061,686c2ebf0248f13bef9af11f,686c928e9344fd9b792c7144,,,,,,,,,,,,,,,,,,,,,,,,,,,,,817.4091,1,audio/Narrative7Situation9.wav,819.4106,,819.4106,828.0362,"[[999,0],[999,83],[999,166],[999,250],[999,333],[999,417],[999,500],[999,583],[999,667],[999,750],[999,834],[999,917],[999,1000],[999,1084],[999,1167],[999,1251],[999,1334],[999,1418],[999,1501],[43.6,1584],[46.3,1668],[55.1,1751],[67.4,2335],[65.3,2419],[65.3,2502],[65.4,2585],[60.8,2669],[57.5,2752],[54.5,2836],[50.9,2919],[50.2,3003],[49.3,3086],[49.3,3169],[49.3,3253],[49.3,3336],[49.7,3420],[72,3503],[96.1,3586],[97,3670],[97,3753],[97,3837],[100,3920],[100,4003],[100,4087],[100,4170],[100,4254],[100,4338],[100,4421],[100,4504],[100,4587],[100,4671],[100,4754],[100,4838],[100,4921],[100,5004],[100,5088],[100,5171],[100,5255],[100,5338],[100,5422],[100,5505],[100,5588],[100,5672],[100,5755],[100,5839],[100,5922],[100,6006],[100,6089],[100,6172],[100,6256],[100,6339],[100,6423],[100,6507],[100,6590],[100,6673],[100,6757],[100,6840],[100,6924],[100,7007],[100,7090],[100,7173],[100,7257],[100,7340],[100,7424],[100,7507],[100,7590],[100,7674],[100,7758],[100,7841],[100,7924],[100,8008],[100,8091],[100,8175],[100,8258],[100,8341],[100,8425],[100,8508],[100,8591]]",828.0362,831.2726,100,2.4162,"[{""rating"":98.54594440325984,""responseTime"":1.2609999999999673},{""rating"":100,""responseTime"":2.4161999999880663}]",space,2.7095,,831.2727,Definitely yes,100,831.2743,,,[],,0,9,9,9,1,audio/Narrative7Situation9.wav,audio/Narrative8Situation9.wav,audio/Narrative5Situation9.wav,audio/Narrative6Situation9.wav,2,3,3,4,,,,,,,,,,,,,,,,,,,,,,,,,,,,,,,,,,,,,,,
,,,,,663c0a95bceed7450360f00e,2025-07-07_22h38.33.183,group3.4_multiperson,2023.2.2,Win32,60.60606061,686c2ebf0248f13bef9af11f,686c928e9344fd9b792c7144,,,,,,,,,,,,,,,,,,,,,,,,,,,,,831.2744,1,audio/Narrative8Situation1.wav,836.2782,,836.2782,852.2109,"[[51.8,1083],[51.8,1167],[51.8,1250],[51.6,1334],[50.9,1417],[50.4,1501],[50.2,1584],[50.2,1668],[50.2,1751],[50.2,1834],[50.2,1918],[50.2,2001],[50.2,2084],[50.2,2168],[50.2,2252],[50.2,2335],[50.2,2418],[50.2,2502],[50.2,2585],[50.2,2668],[50.2,2752],[50.2,2835],[50.2,2919],[50.2,3002],[50.2,3085],[50.2,3169],[58.2,3252],[58.8,3336],[59,3420],[59,3503],[59,3586],[59,3669],[59,3753],[59,3836],[59,3920],[59,4003],[55.2,4087],[53.6,4170],[52.2,4253],[51.9,4337],[51.2,4420],[50.9,4504],[50.2,4587],[50.2,4671],[50.2,4754],[50.2,4837],[50.2,4921],[50.2,5004],[50.2,5088],[50.2,5171],[50.2,5254],[50.2,5338],[50.2,5421],[50.2,5505],[50.2,5588],[50.2,5672],[50.2,5755],[50.2,5839],[50.2,5922],[50.2,6005],[50.2,6089],[50.2,6172],[50.2,6255],[50.2,6339],[50.2,6422],[50.2,6506],[50.2,6589],[50.2,6673],[50.2,6756],[50.2,6840],[50.2,6923],[50.2,7006],[50.2,7090],[50.2,7173],[50.2,7257],[50.2,7340],[50.2,7423],[50.2,7507],[50.2,7591],[50.2,7673],[50.2,7757],[50.2,7841],[50.2,7924],[50.2,8007],[50.2,8091],[50.2,8174],[50.2,8257],[50.2,8341],[50.2,8424],[50.2,8508],[50.2,8591],[50.2,8675],[50.2,8758],[50.2,8842],[50.2,8925],[50.2,9008],[50.2,9092],[50.2,9175],[50.2,9259],[50.2,9342],[50.2,9425],[50.2,9509],[50.2,9592],[50.2,9676],[50.2,9759],[54.9,9842],[65.4,9926],[78.8,10009],[82.6,10093],[87.9,10176],[93.1,10260],[97.1,10343],[100,10426],[100,10510],[100,10593],[100,10677],[100,10761],[100,10843],[100,10927],[100,11010],[100,11094],[100,11177],[100,11260],[100,11344],[99.4,11427],[99.1,11511],[99.1,11594],[99.1,11678],[99.1,11761],[99.1,11845],[99.1,11928],[99.1,12012],[99.1,12095],[99.3,12178],[99.9,12262],[100,12345],[100,12428],[100,12512],[100,12595],[100,12679],[100,12762],[100,12846],[100,12929],[100,13012],[100,13096],[100,13179],[100,13263],[100,13346],[100,13429],[100,13513],[100,13596],[100,13680],[100,13763],[100,13847],[100,13930],[100,14013],[100,14097],[100,14181],[100,14264],[100,14348],[100,14430],[100,14514],[100,14598],[100,14682],[100,14764],[100,14848],[100,14931],[100,15014],[100,15098],[100,15182],[100,15264],[100,15348],[100,15432],[100,15515],[100,15598],[100,15682],[100,15765],[100,15849],[100,15932]]",852.2109,857.9672,81.47409774,3.5631,"[{""rating"":81.47409774169668,""responseTime"":3.5631000000238373}]",space,5.2223,,857.9673,Partially,50,857.9688,,,[],,0,10,10,10,1,audio/Narrative8Situation1.wav,audio/Narrative7Situation1.wav,audio/Narrative6Situation1.wav,audio/Narrative5Situation1.wav,5,2,2,5,,,,,,,,,,,,,,,,,,,,,,,,,,,,,,,,,,,,,,,
,,,,,663c0a95bceed7450360f00e,2025-07-07_22h38.33.183,group3.4_multiperson,2023.2.2,Win32,60.60606061,686c2ebf0248f13bef9af11f,686c928e9344fd9b792c7144,,,,,,,,,,,,,,,,,,,,,,,,,,,,,857.9689,1,audio/Narrative8Situation2.wav,860.9697,,860.9697,871.0803,"[[96.7,250],[86.6,917],[92,1001],[97.3,1084],[98.9,1167],[98.9,1251],[98.9,1334],[99.1,1418],[99.2,1501],[99.4,1584],[99.6,1668],[100,1751],[100,1835],[100,1918],[100,2001],[100,2085],[100,2168],[100,2252],[100,2335],[100,2418],[100,2502],[100,2586],[100,2669],[100,2752],[100,2836],[100,2919],[100,3002],[100,3086],[100,3170],[100,3253],[100,3337],[100,3420],[100,3503],[100,3587],[100,3670],[100,3753],[100,3837],[100,3920],[100,4003],[100,4087],[100,4170],[100,4254],[100,4338],[100,4421],[100,4504],[100,4587],[100,4671],[100,4754],[82.8,4838],[66.1,4921],[46.3,5005],[35.8,5088],[17.7,5171],[13,5255],[7.5,5338],[1.5,6089],[3.3,6173],[5.1,6256],[1.2,6339],[9,9676],[22.7,9759],[38.9,9843],[40.6,9927],[41,10010],[43.2,10093]]",871.0805,874.2502,28.28069259,2.3341,"[{""rating"":28.280692587047827,""responseTime"":2.3341000000237955}]",space,2.6492,,874.2503,Definitely yes,100,874.2519,,,[],,0,11,11,11,1,audio/Narrative8Situation2.wav,audio/Narrative7Situation2.wav,audio/Narrative6Situation2.wav,audio/Narrative5Situation2.wav,3,3,3,3,,,,,,,,,,,,,,,,,,,,,,,,,,,,,,,,,,,,,,,
,,,,,663c0a95bceed7450360f00e,2025-07-07_22h38.33.183,group3.4_multiperson,2023.2.2,Win32,60.60606061,686c2ebf0248f13bef9af11f,686c928e9344fd9b792c7144,,,,,,,,,,,,,,,,,,,,,,,,,,,,,874.2521,1,audio/Narrative8Situation3.wav,878.254,,878.2541,900.6271,"[[34,1000],[39.8,1084],[47.9,1167],[48.2,1251],[48.2,1335],[48.2,1418],[48.2,1501],[48.2,1584],[48.2,1668],[48.2,1751],[48.2,1835],[48.4,1918],[48.6,2001],[48.6,2085],[48.6,2168],[48.6,2252],[48.6,2335],[48.6,2419],[31.7,2502],[20,2585],[12.9,2669],[12.9,2753],[18.9,2836],[43.7,2919],[50.8,3003],[53.8,3086],[53.9,3169],[73.4,3253],[83.5,3336],[83.5,3419],[83.5,3503],[83.5,3586],[83.4,3670],[75.6,3753],[75.5,3837],[75.5,3920],[75.5,4004],[75.5,4087],[75.5,4170],[75.5,4254],[75.5,4337],[75.5,4421],[75.5,4504],[75.5,4587],[75.5,4671],[75.5,4754],[75.5,4838],[75.5,4921],[75.5,5004],[75.5,5088],[75.5,5171],[75.5,5255],[75.5,5338],[75.5,5422],[75.5,5505],[75.5,5588],[75.5,5672],[75.5,5755],[75.5,5839],[75.5,5922],[75.5,6005],[75.5,6089],[75.5,6173],[75.5,6256],[75.5,6339],[75.5,6423],[75.5,6507],[75.5,6589],[75.5,6673],[75.5,6756],[75.5,6840],[75.5,6923],[75.5,7007],[75.5,7090],[75.5,7173],[75.5,7257],[75.5,7340],[75.5,7424],[75.5,7507],[75.5,7591],[75.5,7674],[75.5,7758],[75.5,7841],[75.5,7924],[75.5,8008],[75.5,8091],[75.5,8174],[75.5,8258],[75.5,8341],[75.5,8425],[75.5,8508],[75.5,8591],[75.5,8675],[75.5,8758],[75.5,8842],[75.5,8925],[75.5,9009],[75.5,9092],[75.5,9175],[75.5,9259],[75.5,9342],[75.5,9426],[75.5,9509],[75.5,9593],[75.5,9676],[75.5,9759],[75.5,9843],[75.5,9926],[75.5,10010],[75.5,10093],[75.5,10177],[75.5,10260],[75.5,10343],[75.5,10427],[75.5,10510],[75.5,10594],[75.5,10677],[75.5,10760],[75.5,10844],[75.5,10927],[75.5,11011],[75.5,11094],[75.5,11177],[75.5,11261],[75.5,11344],[75.5,11428],[75.5,11511],[75.5,11595],[75.5,11678],[75.5,11761],[75.5,11845],[75.5,11928],[75.5,12012],[75.5,12095],[75.5,12178],[75.5,12262],[75.5,12346],[75.8,12429],[76,12512],[76,12596],[76,12679],[76,12763],[76,12846],[76,12929],[76,13013],[76,13096],[76,13179],[76,13263],[76,13347],[76,13430],[76,13514],[76,13597],[76,13680],[76,13764],[76,13847],[76,13930],[76,14014],[76,14097],[76,14181],[76,14264],[76,14347],[76,14431],[76,14515],[76,14598],[76,14682],[76,14765],[76,14848],[76,14931],[76,15015],[76,15098],[77.9,15182],[79.4,15265],[79.5,15348],[82.2,15432],[82.5,15515],[82.5,15599],[82.5,15682],[82.5,15766],[84.2,15849],[84.2,15932],[84.2,16016],[84.2,16099],[84.2,16183],[84.2,16266],[84.2,16350],[84.2,16433],[84.2,16516],[84.2,16600],[84.2,16683],[84.2,16767],[84.2,16850],[84.2,16934],[84.2,17017],[84.2,17100],[84.2,17184],[84.2,17267],[84.2,17351],[84.2,17434],[84.2,17517],[84.2,17601],[84.2,17684],[84.2,17768],[84.2,17851],[84.2,17935],[84.2,18018],[84.2,18101],[84.2,18185],[84.2,18268],[84.2,18351],[84.2,18435],[84.2,18518],[84.2,18602],[84.2,18686],[84.2,18769],[84.2,18852],[84.2,18936],[84.2,19019],[84.2,19102],[84.2,19186],[84.2,19269],[84.2,19353],[84.2,19436],[84.2,19519],[84.2,19603],[84.2,19686],[84.2,19770],[84.2,19853],[84.2,19937],[84.2,20020],[84.2,20103],[84.2,20187],[84.2,20270],[84.2,20354],[84.2,20437],[84.2,20520],[84.2,20604],[84.2,20687],[84.2,20771],[84.2,20855],[84.2,20938],[84.2,21021],[84.2,21104],[84.2,21188],[84.2,21271],[84.2,21355],[84.2,21438],[84.2,21522],[84.2,21605],[84.2,21688],[84.2,21772],[84.2,21855],[84.2,21938],[84.2,22022],[84.2,22105],[84.2,22189],[84.2,22272],[84.2,22356]]",900.6271,903.7305,82.93145061,1.7538,"[{""rating"":82.9314506091214,""responseTime"":1.7538000000118927}]",space,2.5838,,903.7305,Partially,50,903.7321,,,[],,0,12,12,12,1,audio/Narrative8Situation3.wav,audio/Narrative7Situation3.wav,audio/Narrative6Situation3.wav,audio/Narrative5Situation3.wav,4,8,5,3,,,,,,,,,,,,,,,,,,,,,,,,,,,,,,,,,,,,,,,
,,,,,663c0a95bceed7450360f00e,2025-07-07_22h38.33.183,group3.4_multiperson,2023.2.2,Win32,60.60606061,686c2ebf0248f13bef9af11f,686c928e9344fd9b792c7144,,,,,,,,,,,,,,,,,,,,,,,,,,,,,903.7322,1,audio/Narrative8Situation4.wav,906.7333,,906.7333,920.8978,"[[999,0],[999,83],[999,166],[999,250],[999,333],[999,417],[999,500],[51.5,583],[49.1,667],[48.3,750],[47.6,834],[47.6,917],[47.6,1000],[47.6,1084],[47.6,1167],[47.6,1250],[47.6,1334],[47.6,1417],[47.6,1501],[47.6,1584],[47.8,1668],[49.4,1751],[50.9,1835],[50.9,1918],[50.9,2001],[50.9,2085],[50.9,2168],[50.9,2252],[50.9,2335],[50.9,2418],[50.9,2502],[50.9,2585],[52.3,2669],[60.8,2752],[65.5,2836],[67.5,2919],[71.5,3003],[74.2,3086],[78.3,3169],[85.4,3253],[95.1,3336],[100,3420],[100,3503],[100,3586],[100,3670],[100,3753],[100,3837],[100,3920],[100,4003],[100,4087],[100,4170],[100,4254],[100,4337],[100,4421],[100,4504],[100,4587],[100,4671],[100,4755],[100,4838],[100,4921],[100,5005],[100,5088],[100,5171],[100,5255],[100,5338],[100,5421],[100,5505],[100,5588],[100,5672],[100,5755],[100,5839],[100,5922],[100,6006],[100,6089],[100,6173],[100,6256],[100,6339],[100,6423],[100,6506],[100,6590],[100,6673],[100,6756],[100,6840],[100,6923],[100,7007],[100,7090],[100,7174],[100,7257],[100,7340],[100,7424],[100,7507],[100,7590],[100,7674],[100,7757],[100,7841],[100,7924],[100,8008],[100,8091],[100,8175],[100,8258],[100,8341],[100,8425],[100,8508],[100,8591],[100,8675],[100,8758],[100,8842],[100,8926],[100,9009],[100,9092],[100,9175],[100,9259],[100,9342],[100,9426],[100,9509],[100,9592],[100,9676],[100,9759],[100,9843],[100,9927],[100,10010],[100,10093],[100,10176],[100,10260],[100,10343],[100,10427],[100,10510],[100,10593],[100,10677],[100,10760],[100,10844],[100,10927],[100,11011],[100,11094],[100,11177],[100,11261],[100,11344],[100,11428],[100,11511],[100,11595],[100,11678],[100,11761],[100,11845],[100,11928],[100,12012],[100,12095],[100,12178],[100,12262],[100,12345],[100,12429],[100,12512],[100,12596],[100,12679],[100,12762],[100,12846],[100,12929],[100,13013],[100,13096],[100,13180],[100,13263],[100,13346],[100,13430],[100,13514],[100,13597],[100,13680],[100,13764],[100,13847],[100,13930],[100,14014],[100,14097]]",920.8978,924.7683,100,3.0769,"[{""rating"":99.37871989832612,""responseTime"":2.2069999999999936},{""rating"":100,""responseTime"":3.076900000035721}]",space,3.3448,,924.7684,Not at all,0,924.7703,,,[],,0,13,13,13,1,audio/Narrative8Situation4.wav,audio/Narrative7Situation4.wav,audio/Narrative6Situation4.wav,audio/Narrative5Situation4.wav,3,3,2,1,,,,,,,,,,,,,,,,,,,,,,,,,,,,,,,,,,,,,,,
,,,,,663c0a95bceed7450360f00e,2025-07-07_22h38.33.183,group3.4_multiperson,2023.2.2,Win32,60.60606061,686c2ebf0248f13bef9af11f,686c928e9344fd9b792c7144,,,,,,,,,,,,,,,,,,,,,,,,,,,,,924.7705,1,audio/Narrative8Situation5.wav,926.787,,926.7871,935.0289,"[[100,5505],[100,5588],[100,5672],[100,5755],[100,5839],[100,5922],[100,6006],[100,6089],[100,6173],[100,6256],[100,6339],[100,6423],[100,6506],[100,6589],[100,6673],[100,6756],[100,6840],[100,6923],[100,7006],[100,7090],[100,7173],[100,7257],[100,7340],[100,7424],[100,7507],[100,7591],[100,7674],[100,7757],[100,7841],[100,7924],[100,8008],[100,8091],[100,8174]]",935.029,936.8311,100,1.5162,"[{""rating"":99.06643971002947,""responseTime"":0.8631999999880691},{""rating"":100,""responseTime"":1.516199999988089}]",space,1.2697,,936.8311,Definitely yes,100,936.8327,,,[],,0,14,14,14,1,audio/Narrative8Situation5.wav,audio/Narrative7Situation5.wav,audio/Narrative6Situation5.wav,audio/Narrative5Situation5.wav,2,5,2,5,,,,,,,,,,,,,,,,,,,,,,,,,,,,,,,,,,,,,,,
,,,,,663c0a95bceed7450360f00e,2025-07-07_22h38.33.183,group3.4_multiperson,2023.2.2,Win32,60.60606061,686c2ebf0248f13bef9af11f,686c928e9344fd9b792c7144,,,,,,,,,,,,,,,,,,,,,,,,,,,,,936.8329,1,audio/Narrative8Situation6.wav,938.833,,938.833,945.3061,"[[999,0],[999,83],[999,166],[999,249],[999,333],[94.5,416],[95.7,500],[97.7,583],[97.7,666],[97.7,750],[97.7,833],[100,917],[100,1000],[100,1084],[100,1167],[100,1250],[100,1334],[100,1417],[100,1501],[100,1584],[100,1668],[100,1751],[100,1834],[100,1918],[100,2001],[100,2085],[100,2168],[100,2251],[100,2335],[100,2418],[100,2502],[100,2586],[100,2669],[100,2752],[100,2835],[100,2919],[100,3002],[100,3086],[100,3169],[100,3253],[100,3336],[100,3420],[100,3503],[100,3586],[100,3670],[100,3753],[100,3836],[100,3920],[100,4003],[100,4087],[100,4170],[100,4254],[100,4337],[100,4420],[100,4504],[100,4587],[100,4671],[100,4754],[100,4838],[100,4921],[100,5004],[100,5088],[100,5171],[100,5255],[100,5338],[100,5421],[100,5505],[100,5588],[100,5672],[100,5755],[100,5839],[100,5922],[100,6005],[100,6089],[100,6172],[100,6256],[100,6339],[100,6422]]",945.3061,947.4583,100,1.5209,"[{""rating"":97.296789658543,""responseTime"":0.8464000000358283},{""rating"":100,""responseTime"":1.5209000000357946}]",space,1.6322,,947.4583,Partially,50,947.4599,,,[],,0,15,15,15,1,audio/Narrative8Situation6.wav,audio/Narrative7Situation6.wav,audio/Narrative6Situation6.wav,audio/Narrative5Situation6.wav,2,3,2,3,,,,,,,,,,,,,,,,,,,,,,,,,,,,,,,,,,,,,,,
,,,,,663c0a95bceed7450360f00e,2025-07-07_22h38.33.183,group3.4_multiperson,2023.2.2,Win32,60.60606061,686c2ebf0248f13bef9af11f,686c928e9344fd9b792c7144,,,,,,,,,,,,,,,,,,,,,,,,,,,,,947.46,1,audio/Narrative8Situation7.wav,950.4613,,950.4613,962.5402,"[[999,0],[999,83],[999,166],[999,250],[999,333],[76.9,416],[81.6,500],[91.4,583],[91.9,667],[93.7,750],[100,834],[100,917],[100,1000],[100,1084],[98.3,1167],[96,1251],[96,1334],[96,1417],[96,1501],[96,1584],[94.3,1668],[94.3,1751],[94.3,1835],[90.8,1918],[85.8,2002],[83.8,2085],[80.1,2168],[77.8,2252],[77.8,2335],[77.8,2419],[77.8,2502],[77.8,2585],[77.8,2669],[77.8,2752],[84.5,2836],[97.1,2919],[99.9,3002],[100,3086],[100,3169],[100,3253],[100,3336],[100,3420],[100,3503],[100,3586],[100,3670],[100,3753],[100,3837],[100,3920],[100,4003],[100,4087],[100,4170],[100,4254],[100,4337],[100,4420],[100,4504],[100,4587],[100,4671],[100,4754],[100,4838],[100,4921],[100,5005],[100,5088],[100,5172],[100,5255],[100,5338],[100,5422],[100,5505],[100,5588],[100,5672],[100,5755],[100,5839],[100,5922],[100,6006],[100,6089],[100,6172],[100,6256],[100,6339],[100,6423],[100,6506],[100,6589],[100,6673],[100,6756],[100,6840],[100,6923],[100,7007],[100,7090],[100,7173],[100,7257],[100,7340],[100,7424],[100,7507],[100,7590],[100,7674],[100,7758],[100,7841],[100,7924],[100,8008],[100,8091],[100,8174],[100,8258],[100,8342],[100,8425],[100,8508],[100,8592],[100,8675],[100,8758],[100,8842],[100,8925],[100,9009],[100,9092],[100,9175],[100,9259],[100,9342],[100,9426],[100,9509],[100,9593],[100,9676],[100,9759],[100,9843],[100,9926],[100,10010],[100,10093],[100,10176],[100,10260],[100,10343],[100,10427],[100,10510],[100,10594],[100,10677],[100,10761],[100,10844],[100,10928],[100,11011],[100,11094],[100,11177],[100,11261],[100,11344],[100,11428],[100,11511],[100,11594],[100,11678],[100,11761]]",962.5404,965.0097,100,1.9505,"[{""rating"":99.37871989832612,""responseTime"":1.0871999999881155},{""rating"":100,""responseTime"":1.9505000000000337}]",space,1.9475,,965.0097,Not at all,0,965.0115,,,[],,0,16,16,16,1,audio/Narrative8Situation7.wav,audio/Narrative7Situation7.wav,audio/Narrative6Situation7.wav,audio/Narrative5Situation7.wav,3,5,5,4,,,,,,,,,,,,,,,,,,,,,,,,,,,,,,,,,,,,,,,
,,,,,663c0a95bceed7450360f00e,2025-07-07_22h38.33.183,group3.4_multiperson,2023.2.2,Win32,60.60606061,686c2ebf0248f13bef9af11f,686c928e9344fd9b792c7144,,,,,,,,,,,,,,,,,,,,,,,,,,,,,965.0115,1,audio/Narrative8Situation8.wav,968.0126,,968.0126,980.8591,"[[999,0],[999,83],[999,166],[999,250],[999,333],[87.7,416],[88.7,500],[91.9,583],[99.1,667],[100,750],[100,833],[100,917],[100,1000],[100,1084],[100,1167],[100,1251],[100,1334],[100,1418],[100,1501],[100,1584],[100,1668],[100,1751],[100,1834],[100,1918],[100,2001],[100,2085],[100,2168],[100,2252],[100,2335],[100,2419],[100,2502],[100,2585],[100,2669],[100,2752],[100,2836],[100,2919],[100,3002],[100,3086],[100,3169],[100,3253],[100,3336],[100,3420],[100,3503],[100,3586],[100,3670],[100,3753],[100,3837],[100,3920],[100,4003],[100,4087],[100,4170],[100,4254],[100,4337],[100,4421],[100,4504],[100,4588],[100,4671],[100,4754],[100,4838],[100,4921],[100,5005],[100,5088],[100,5171],[100,5255],[100,5338],[100,5422],[100,5505],[100,5588],[100,5672],[100,5755],[100,5839],[100,5922],[100,6005],[100,6089],[100,6172],[100,6256],[100,6339],[100,6423],[100,6506],[100,6589],[100,6673],[100,6756],[100,6840],[100,6923],[100,7007],[100,7090],[100,7173],[100,7257],[100,7340],[100,7424],[100,7507],[100,7591],[100,7674],[100,7758],[100,7841],[100,7924],[100,8008],[100,8091],[100,8174],[100,8258],[100,8341],[100,8425],[100,8508],[100,8591],[100,8675],[100,8758],[100,8842],[100,8925],[100,9009],[100,9092],[100,9175],[100,9259],[100,9342],[100,9426],[100,9509],[100,9593],[100,9676],[100,9759],[100,9843],[100,9927],[100,10010],[100,10093],[100,10177],[100,10260],[100,10343],[100,10427],[100,10510],[100,10594],[100,10677],[100,10760],[100,10844],[100,10928],[100,11011],[100,11094],[100,11177],[100,11261],[100,11344],[100,11428],[100,11511],[100,11595],[100,11678],[100,11761],[100,11845],[100,11928],[100,12012],[100,12095],[100,12178],[100,12262],[100,12345],[100,12429],[100,12512],[100,12596],[100,12679],[100,12762],[100,12846]]",980.8592,982.828,100,1.6842,"[{""rating"":99.37871989832612,""responseTime"":1.002199999988079},{""rating"":100,""responseTime"":1.6841999999880954}]",space,1.4502,,982.8281,Partially,50,982.8298,,,[],,0,17,17,17,1,audio/Narrative8Situation8.wav,audio/Narrative7Situation8.wav,audio/Narrative6Situation8.wav,audio/Narrative5Situation8.wav,3,2,5,3,,,,,,,,,,,,,,,,,,,,,,,,,,,,,,,,,,,,,,,
,,,,,663c0a95bceed7450360f00e,2025-07-07_22h38.33.183,group3.4_multiperson,2023.2.2,Win32,60.60606061,686c2ebf0248f13bef9af11f,686c928e9344fd9b792c7144,,,,,,,,,,,,,,,,,,,,,,,,,,,,,982.83,1,audio/Narrative8Situation9.wav,985.8308,,985.8308,997.1423,"[[999,0],[999,83],[999,166],[999,250],[999,333],[999,417],[98.4,500],[99.8,583],[99.8,667],[99.8,750],[99.8,834],[99.8,917],[99.8,1001],[99.9,1084],[100,1167],[100,1251],[100,1334],[100,1418],[100,1501],[100,1584],[100,1668],[100,1751],[100,1835],[100,1918],[100,2001],[100,2085],[100,2168],[100,2252],[100,2335],[100,2419],[100,2502],[100,2586],[100,2669],[100,2752],[100,2836],[100,2919],[100,3003],[100,3086],[100,3169],[100,3253],[100,3336],[100,3420],[100,3503],[100,3586],[100,3670],[100,3753],[100,3837],[100,3920],[100,4004],[100,4087],[100,4170],[100,4254],[100,4337],[100,4421],[100,4504],[100,4587],[100,4671],[100,4754],[100,4838],[100,4921],[100,5005],[100,5088],[100,5172],[100,5255],[100,5338],[100,5422],[100,5505],[100,5589],[100,5672],[100,5755],[100,5839],[100,5922],[100,6006],[100,6089],[100,6172],[100,6256],[100,6339],[100,6423],[100,6506],[100,6590],[100,6673],[100,6756],[100,6840],[100,6923],[100,7007],[100,7090],[100,7174],[100,7257],[100,7340],[100,7424],[100,7507],[100,7591],[100,7674],[100,7757],[100,7841],[100,7924],[100,8008],[100,8091],[100,8174],[100,8258],[100,8341],[100,8425],[100,8508],[100,8592],[100,8675],[100,8758],[100,8842],[100,8925],[100,9009],[100,9092],[100,9176],[100,9259],[100,9342],[100,9426],[100,9509],[100,9593],[100,9676],[100,9759],[100,9843],[100,9926],[100,10010],[100,10093],[100,10177],[100,10260],[100,10344],[100,10427],[100,10510],[100,10594],[100,10677],[100,10761],[100,10844],[100,10927],[100,11011],[100,11094],[100,11178],[100,11261]]",997.1425,999.7617,100,2.1793,"[{""rating"":99.48281895968006,""responseTime"":1.3310999999641808},{""rating"":100,""responseTime"":2.1792999999522635}]",space,2.0985,,999.7617,Definitely yes,100,999.7633,,,[],,0,18,18,18,1,audio/Narrative8Situation9.wav,audio/Narrative7Situation9.wav,audio/Narrative6Situation9.wav,audio/Narrative5Situation9.wav,3,2,4,3,,,,,,,,,,,,,,,,,,,,,,,,,,,,,,,,,,,,,,,
,,,,,663c0a95bceed7450360f00e,2025-07-07_22h38.33.183,group3.4_multiperson,2023.2.2,Win32,60.60606061,686c2ebf0248f13bef9af11f,686c928e9344fd9b792c7144,,,,,,,,,,,,,,,,,,,,,,,,,,,1004.0002,1006.5687,1006.5751,2,audio/Narrative13Situation2.wav,1006.5752,,1006.5752,1036.3328,"[[999,0],[999,76],[999,160],[999,243],[999,327],[999,410],[999,493],[999,577],[999,660],[999,744],[999,827],[999,910],[999,994],[999,1077],[999,1161],[999,1244],[999,1328],[999,1411],[82,1494],[82.8,1578],[86.8,1661],[87.3,1745],[93.4,1828],[99.7,1911],[99.7,1995],[99.7,2078],[100,2162],[100,2245],[97,2329],[87,2412],[84.5,2495],[84.5,2579],[84.5,2669],[84.5,2751],[84.5,2835],[84.5,2919],[84.5,3002],[84.5,3085],[84.5,3163],[84.5,3246],[84.5,3330],[84.5,3413],[84.5,3497],[86.6,3580],[98.2,3663],[98.8,3747],[98.8,3830],[98.8,3914],[98.8,3997],[98.8,4080],[99.1,4164],[99.7,4247],[100,4331],[100,4414],[100,4497],[100,4581],[100,4664],[100,4748],[100,4831],[100,4915],[100,4998],[100,5081],[100,5165],[100,5248],[97.3,5332],[95.8,5415],[94.4,5499],[91.3,5582],[90.7,5665],[88.2,5749],[85.1,5832],[81.7,5916],[78.8,5999],[78.5,6082],[78.5,6166],[78.5,6250],[78.5,6333],[78.5,6416],[78.5,6500],[78.8,6583],[85.1,6666],[85.1,6750],[85.1,6833],[85.1,6917],[85.1,7000],[85.1,7083],[85.1,7167],[85.1,7250],[85.1,7334],[85.1,7418],[85.1,7500],[87.1,7584],[87.1,7667],[87.1,7751],[87.1,7834],[87.1,7918],[92.1,8001],[96,8084],[100,8168],[100,8251],[100,8335],[100,8418],[100,8502],[100,8585],[100,8668],[100,8752],[100,8835],[99.3,8919],[98.8,9002],[98.8,9086],[98.8,9169],[98.8,9253],[98.8,9336],[100,9419],[100,9503],[100,9586],[100,9669],[100,9753],[100,9836],[100,9920],[100,10003],[100,10087],[100,10170],[100,10253],[100,10337],[100,10420],[100,10504],[100,10587],[100,10670],[100,10754],[100,10837],[100,10921],[100,11004],[100,11088],[100,11171],[100,11254],[100,11338],[100,11421],[100,11505],[100,11588],[100,11671],[100,11755],[100,11839],[100,11922],[100,12005],[100,12089],[100,12172],[100,12255],[100,12339],[100,12422],[100,12506],[100,12589],[100,12672],[100,12756],[100,12840],[100,12923],[100,13006],[100,13090],[100,13173],[100,13256],[100,13340],[100,13423],[100,13507],[100,13590],[100,13673],[100,13757],[100,13840],[100,13924],[100,14007],[100,14091],[100,14174],[100,14257],[100,14341],[100,14424],[100,14508],[100,14591],[100,14674],[100,14758],[100,14841],[100,14925],[100,15008],[100,15092],[100,15175],[100,15259],[100,15342],[100,15425],[100,15509],[100,15592],[100,15676],[100,15759],[100,15842],[100,15926],[100,16009],[100,16093],[100,16176],[100,16260],[100,16343],[100,16426],[100,16510],[100,16593],[100,16677],[100,16760],[100,16843],[100,16927],[100,17010],[100,17094],[100,17177],[100,17260],[100,17344],[100,17427],[100,17511],[100,17594],[100,17678],[100,17761],[100,17844],[100,17928],[100,18011],[100,18095],[100,18178],[100,18262],[100,18345],[100,18429],[100,18512],[100,18595],[100,18679],[100,18762],[100,18846],[100,18929],[100,19012],[100,19096],[100,19179],[100,19263],[100,19346],[100,19429],[100,19513],[100,19596],[100,19680],[100,19763],[100,19847],[100,19930],[100,20013],[100,20097],[100,20180],[100,20264],[100,20347],[100,20431],[100,20514],[100,20597],[100,20681],[100,20764],[100,20848],[100,20931],[100,21015],[100,21098],[100,21181],[100,21265],[100,21348],[100,21431],[100,21515],[100,21598],[100,21682],[100,21765],[100,21849],[100,21932],[100,22015],[100,22099],[100,22182],[100,22266],[100,22349],[100,22432],[100,22516],[100,22600],[100,22683],[100,22766],[100,22850],[100,22933],[100,23016],[100,23100],[100,23184],[100,23267],[100,23350],[100,23433],[100,23517],[100,23600],[100,23684],[100,23767],[100,23851],[100,23934],[100,24018],[100,24101],[100,24185],[100,24268],[100,24351],[100,24435],[100,24518],[100,24601],[98.6,24685],[94.2,24768],[85.8,24852],[80.3,24935],[71.8,25019],[66.5,25102],[65,25185],[65,25269],[64.8,25352],[61.1,25436],[61.1,25519],[61.6,25603],[67.5,25686],[72.7,25769],[74.3,25853],[75.9,25936],[75.9,26020],[75.9,26103],[75.9,26186],[75.9,26270],[75.9,26353],[75.9,26437],[75.9,26520],[75.9,26603],[77.9,26687],[77.9,26770],[77.9,26854],[77.9,26937],[77.9,27021],[77.9,27104],[77.9,27187],[77.9,27271],[77.9,27354],[77.9,27438],[77.9,27521],[77.9,27604],[77.9,27688],[77.9,27771],[77.9,27855],[77.9,27938],[77.9,28022],[77.9,28105],[77.9,28189],[77.9,28272],[77.9,28355],[77.9,28439],[77.9,28522],[77.9,28606],[77.9,28689],[77.9,28772],[77.9,28856],[77.9,28939],[77.9,29023],[77.9,29106],[77.9,29189],[77.9,29273],[77.9,29356],[77.9,29440],[77.9,29523],[77.9,29607],[77.9,29690]]",1036.333,1036.3341,,,[],,,,1036.3341,Definitely yes,100,1036.3347,,,[],,0,0,0,0,1,audio/Narrative13Situation2.wav,audio/Narrative13Situation2.wav,audio/Narrative13Situation2.wav,audio/Narrative13Situation2.wav,2,2,2,2,,,,,999.7635,1004,space,3.7054,,,,,,,,,,,,,,,,,,,,,,,,,,,,,,,
,,,,,663c0a95bceed7450360f00e,2025-07-07_22h38.33.183,group3.4_multiperson,2023.2.2,Win32,60.60606061,686c2ebf0248f13bef9af11f,686c928e9344fd9b792c7144,,,,,,,,,,,,,,,,,,,,,,,,,,,,,1036.3347,2,audio/Narrative5Situation1.wav,1041.3374,,1041.3375,1054.618,"[[74.1,1585],[76.3,1668],[76.7,1751],[76.7,1835],[76.7,1918],[76.7,2002],[76.7,2085],[82,2168],[87.7,2252],[92.6,2335],[93.6,2419],[96.6,2502],[98.3,2586],[99.7,2669],[99.7,2752],[99.9,2836],[100,2919],[100,3003],[100,3086],[100,3169],[100,3253],[100,3336],[100,3420],[100,3503],[100,3586],[100,3670],[100,3754],[100,3837],[100,3920],[100,4004],[100,4087],[100,4170],[100,4254],[100,4338],[100,4421],[100,4504],[100,4587],[100,4671],[100,4754],[100,4838],[100,4921],[100,5005],[100,5089],[100,5172],[100,5255],[100,5338],[100,5422],[100,5505],[100,5589],[100,5672],[100,5755],[100,5839],[100,5922],[100,6006],[100,6089],[100,6173],[100,6256],[100,6339],[100,6423],[100,6506],[100,6590],[100,6673],[100,6756],[100,6840],[100,6923],[100,7007],[100,7090],[100,7174],[100,7257],[100,7340],[100,7424],[100,7507],[100,7591],[100,7674],[100,7758],[100,7841],[100,7924],[100,8008],[100,8091],[100,8175],[100,8258],[100,8341],[100,8425],[100,8508],[100,8592],[100,8675],[100,8759],[100,8842],[100,8926],[100,9009],[100,9092],[100,9176],[100,9259],[100,9342],[100,9426],[100,9509],[100,9593],[100,9676],[100,9759],[100,9843],[100,9926],[100,10010],[100,10093],[100,10177],[100,10260],[100,10343],[100,10427],[100,10510],[100,10594],[100,10677],[100,10760],[100,10844],[100,10928],[98.3,11011],[98.3,11094],[98.3,11178],[98.3,11261],[98.1,11345],[87.5,11428],[85.9,11512],[85.9,11595],[85.9,11678],[85.9,11762],[85.9,11845],[85.9,11928],[85.9,12012],[85.9,12095],[85.9,12179],[85.9,12262],[85.9,12346],[85.9,12429],[85.9,12512],[85.9,12596],[85.9,12679],[85.9,12763],[85.9,12846],[85.9,12929],[85.9,13013],[84.9,13096],[82.4,13180],[81.4,13263]]",1054.618,1059.3894,78.35119388,1.5781,"[{""rating"":78.35119388413946,""responseTime"":1.5780999999642518}]",space,4.2457,,1059.3895,Partially,50,1067.9816,49.82870541,6.7592,"[{""rating"":50.24509315765467,""responseTime"":5.109300000011899},{""rating"":49.4123176625884,""responseTime"":6.054600000023811},{""rating"":49.82870541012153,""responseTime"":6.7591999999879135}]",space,0,1,1,1,1,audio/Narrative7Situation1.wav,audio/Narrative8Situation1.wav,audio/Narrative5Situation1.wav,audio/Narrative6Situation1.wav,2,5,5,2,,,8.0657,,,,,,,,,,,,,,,,,,,,,,,,,,,,,,,,,,,,
,,,,,663c0a95bceed7450360f00e,2025-07-07_22h38.33.183,group3.4_multiperson,2023.2.2,Win32,60.60606061,686c2ebf0248f13bef9af11f,686c928e9344fd9b792c7144,,,,,,,,,,,,,,,,,,,,,,,,,,,,,1067.9819,2,audio/Narrative5Situation2.wav,1070.9849,,1070.9849,1100.4482,"[[999,0],[999,82],[999,166],[999,249],[999,333],[999,416],[999,500],[999,583],[999,666],[999,750],[999,833],[999,917],[999,1000],[999,1084],[55.4,1167],[54.5,1250],[54.9,1334],[54.9,1417],[54.9,1501],[54.9,1584],[54.9,1668],[54.9,1751],[55,1834],[58.7,1918],[61.2,2001],[61.2,2085],[63.4,2168],[66.3,2251],[66.3,2335],[66.3,2418],[66.3,2502],[66.3,2585],[66.3,2668],[66.3,2752],[71.6,2835],[72.4,2919],[72.4,3002],[75.7,3086],[75.8,3169],[78.9,3253],[79,3336],[79,3419],[79,3503],[79,3586],[79,3669],[79,3753],[79,3836],[80,3920],[80.7,4003],[80.7,4087],[80.7,4170],[80.7,4253],[80.7,4337],[86.1,4420],[87.2,4504],[91,4587],[91,4671],[91,4754],[91,4837],[91,4921],[91.1,5004],[94.7,5088],[94.7,5171],[94.7,5255],[94.7,5338],[94.7,5421],[94.7,5505],[94.7,5588],[94.7,5672],[94.7,5755],[94.7,5839],[94.7,5922],[94.7,6005],[94.7,6089],[94.7,6172],[94.7,6255],[94.7,6339],[94.7,6422],[94.7,6506],[94.4,6589],[94.1,6673],[94.1,6756],[94.1,6840],[94.1,6923],[94.1,7006],[94.1,7090],[94.1,7173],[94.1,7256],[94.1,7340],[94.1,7423],[94.1,7507],[94.1,7590],[94.1,7674],[94.1,7757],[94.1,7841],[94.1,7924],[94.1,8007],[94.1,8091],[94.1,8174],[94.1,8258],[94.1,8341],[94.1,8424],[94.1,8508],[94.1,8592],[94.1,8675],[94.1,8758],[95,8841],[97.6,8925],[98.8,9008],[99.3,9092],[100,9175],[100,9259],[100,9342],[100,9425],[100,9509],[100,9592],[100,9676],[100,9759],[100,9843],[100,9926],[100,10009],[100,10093],[100,10176],[100,10260],[100,10343],[100,10426],[100,10510],[100,10593],[100,10677],[100,10760],[100,10844],[100,10927],[100,11010],[100,11094],[100,11177],[100,11261],[100,11344],[100,11427],[100,11511],[100,11594],[100,11678],[100,11761],[100,11845],[100,11928],[100,12011],[100,12095],[100,12178],[100,12262],[100,12345],[100,12429],[100,12512],[100,12596],[100,12679],[100,12762],[100,12846],[100,12929],[100,13012],[100,13096],[100,13179],[100,13263],[100,13346],[100,13430],[100,13513],[100,13596],[100,13680],[100,13763],[100,13847],[100,13930],[100,14013],[100,14097],[100,14180],[100,14264],[100,14347],[100,14431],[100,14514],[100,14597],[100,14681],[100,14764],[100,14848],[100,14931],[100,15014],[100,15098],[100,15182],[100,15265],[100,15348],[100,15432],[100,15515],[100,15598],[100,15682],[100,15765],[100,15849],[100,15932],[100,16015],[100,16099],[100,16182],[100,16266],[100,16349],[100,16433],[100,16516],[100,16599],[100,16683],[100,16766],[100,16850],[100,16933],[100,17016],[100,17100],[100,17183],[100,17267],[100,17350],[100,17434],[100,17517],[100,17601],[100,17684],[100,17767],[100,17851],[100,17934],[100,18018],[100,18101],[100,18184],[100,18268],[100,18351],[100,18435],[100,18518],[100,18602],[100,18685],[100,18768],[100,18852],[100,18935],[100,19019],[100,19102],[100,19185],[100,19269],[100,19352],[100,19436],[100,19519],[100,19602],[100,19686],[100,19769],[100,19853],[100,19936],[100,20020],[100,20103],[100,20186],[100,20270],[100,20353],[100,20437],[100,20520],[100,20603],[100,20687],[100,20771],[100,20854],[100,20937],[100,21021],[100,21104],[100,21188],[100,21271],[100,21354],[100,21438],[100,21521],[100,21605],[100,21688],[100,21771],[100,21855],[100,21938],[100,22022],[100,22105],[100,22189],[100,22272],[100,22355],[100,22439],[100,22522],[100,22605],[100,22689],[100,22772],[100,22856],[100,22939],[100,23023],[100,23106],[100,23190],[100,23273],[100,23356],[100,23440],[100,23523],[100,23607],[100,23690],[100,23773],[100,23857],[100,23940],[100,24024],[100,24107],[100,24191],[100,24274],[100,24357],[100,24441],[100,24524],[100,24608],[100,24691],[100,24774],[100,24858],[100,24942],[100,25025],[100,25108],[100,25192],[100,25275],[100,25359],[100,25442],[100,25525],[100,25609],[100,25692],[100,25775],[100,25859],[100,25942],[100,26026],[100,26109],[100,26193],[100,26276],[100,26359],[100,26443],[100,26526],[100,26610],[100,26693],[100,26776],[100,26860],[100,26943],[100,27027],[100,27110],[100,27194],[100,27277],[100,27360],[100,27444],[100,27527],[100,27611],[100,27694],[100,27778],[100,27861],[100,27944],[95.3,28278],[98.8,28361],[100,28612],[100,28695],[100,28778],[100,28862],[100,28945],[100,29029],[100,29112],[100,29196],[100,29279],[100,29362],[100,29446]]",1100.4483,1102.35,100,1.672,"[{""rating"":96.88041040889242,""responseTime"":1.0192000000477037},{""rating"":100,""responseTime"":1.6720000000000255}]",space,1.3735,,1102.35,Partially,50,1102.3509,,,[],,0,2,2,2,1,audio/Narrative7Situation2.wav,audio/Narrative8Situation2.wav,audio/Narrative5Situation2.wav,audio/Narrative6Situation2.wav,3,3,3,3,,,,,,,,,,,,,,,,,,,,,,,,,,,,,,,,,,,,,,,
,,,,,663c0a95bceed7450360f00e,2025-07-07_22h38.33.183,group3.4_multiperson,2023.2.2,Win32,60.60606061,686c2ebf0248f13bef9af11f,686c928e9344fd9b792c7144,,,,,,,,,,,,,,,,,,,,,,,,,,,,,1102.3511,2,audio/Narrative5Situation3.wav,1105.353,,1105.3531,1119.2507,"[[999,0],[999,83],[999,166],[999,250],[999,333],[999,416],[999,500],[999,583],[999,667],[999,751],[999,834],[999,917],[999,1000],[999,1084],[999,1167],[999,1251],[999,1334],[999,1418],[73.2,1501],[81.2,1585],[86.3,1668],[86.3,1751],[86.8,1835],[89.7,1918],[93.9,2001],[99.2,2085],[100,2168],[100,2252],[100,2335],[100,2419],[100,2502],[100,2585],[100,2669],[100,2752],[100,2836],[100,2919],[100,3003],[100,3086],[100,3170],[100,3253],[100,3336],[100,3420],[100,3503],[100,3587],[100,3670],[100,3753],[100,3837],[100,3920],[100,4004],[100,4087],[100,4170],[100,4254],[100,4337],[100,4421],[100,4504],[100,4588],[100,4671],[100,4754],[100,4838],[100,4921],[100,5005],[100,5088],[100,5171],[100,5255],[100,5338],[100,5422],[100,5505],[100,5588],[100,5672],[100,5755],[100,5839],[100,5922],[100,6006],[100,6089],[100,6172],[100,6256],[100,6339],[100,6423],[100,6506],[100,6590],[100,6673],[100,6756],[100,6840],[100,6923],[100,7006],[100,7090],[100,7173],[100,7257],[100,7340],[100,7424],[100,7507],[100,7591],[100,7674],[100,7757],[100,7841],[100,7924],[100,8008],[100,8091],[100,8174],[100,8258],[100,8342],[100,8425],[100,8508],[100,8592],[100,8675],[100,8758],[100,8842],[100,8925],[100,9009],[100,9092],[100,9176],[100,9259],[100,9342],[100,9426],[100,9509],[100,9593],[100,9676],[100,9759],[100,9843],[100,9926],[100,10010],[100,10093],[100,10176],[100,10260],[100,10343],[100,10427],[100,10510],[100,10594],[100,10677],[100,10760],[100,10844],[100,10927],[100,11011],[100,11094],[100,11178],[100,11261],[100,11344],[100,11428],[100,11511],[100,11595],[100,11678],[100,11761],[100,11845],[100,11928],[100,12012],[100,12095],[100,12179],[100,12262],[100,12345],[100,12429],[100,12512],[100,12596],[100,12679],[100,12763],[100,12846],[100,12929],[100,13013],[100,13096],[100,13180],[100,13263],[100,13346],[100,13430],[100,13513],[100,13597],[100,13680],[100,13764],[100,13847]]",1119.2509,1121.503,100,2.0321,"[{""rating"":99.89921520509574,""responseTime"":1.3803999999761345},{""rating"":100,""responseTime"":2.0320999999642027}]",space,1.7326,,1121.5031,Partially,50,1121.5041,,,[],,0,3,3,3,1,audio/Narrative7Situation3.wav,audio/Narrative8Situation3.wav,audio/Narrative5Situation3.wav,audio/Narrative6Situation3.wav,8,4,3,5,,,,,,,,,,,,,,,,,,,,,,,,,,,,,,,,,,,,,,,
,,,,,663c0a95bceed7450360f00e,2025-07-07_22h38.33.183,group3.4_multiperson,2023.2.2,Win32,60.60606061,686c2ebf0248f13bef9af11f,686c928e9344fd9b792c7144,,,,,,,,,,,,,,,,,,,,,,,,,,,,,1121.5043,2,audio/Narrative5Situation4.wav,1122.5205,,1122.5205,1142.9085,"[[100,1418],[99,1501],[97.5,1585],[97.5,1668],[97.6,1751],[98.4,1835],[99.4,1918],[99.7,2001],[99.7,2085],[99.7,2168],[100,2252],[100,2335],[100,2419],[100,2502],[100,2586],[100,2669],[100,2752],[100,2836],[100,2919],[100,3003],[100,3086],[100,3169],[100,3253],[100,3337],[100,3420],[100,3503],[100,3587],[100,3670],[100,3753],[100,3837],[100,3920],[100,4004],[100,4087],[100,4170],[100,4254],[100,4337],[100,4421],[100,4504],[100,4588],[100,4671],[100,4754],[100,4838],[100,4921],[100,5005],[100,5088],[100,5171],[100,5255],[100,5338],[100,5422],[100,5506],[100,5589],[100,5673],[100,5755],[100,5839],[100,5923],[100,6006],[100,6089],[100,6173],[100,6256],[100,6339],[100,6423],[100,6506],[100,6590],[100,6673],[100,6757],[100,6840],[100,6923],[100,7007],[100,7090],[100,7174],[100,7257],[100,7340],[100,7424],[100,7507],[100,7591],[100,7674],[100,7758],[100,7841],[100,7924],[100,8008],[100,8091],[100,8175],[100,8258],[100,8341],[100,8425],[100,8508],[100,8592],[100,8675],[100,8758],[100,8842],[100,8925],[100,9009],[100,9092],[100,9176],[100,9259],[100,9342],[100,9426],[100,9509],[100,9593],[100,9676],[100,9760],[100,9843],[100,9926],[100,10010],[100,10093],[100,10177],[100,10260],[100,10343],[100,10427],[100,10510],[100,10594],[100,10677],[100,10760],[100,10844],[100,10927],[100,11011],[100,11094],[100,11178],[100,11261],[100,11345],[100,11428],[100,11511],[100,11595],[100,11678],[100,11761],[100,11845],[100,11928],[100,12012],[100,12096],[100,12179],[100,12262],[100,12346],[100,12429],[100,12512],[100,12596],[100,12679],[100,12763],[100,12846],[100,12929],[100,13013],[100,13096],[100,13180],[100,13263],[100,13347],[100,13430],[100,13513],[100,13597],[100,13680],[100,13764],[100,13847],[100,13931],[100,17100],[100,17184],[100,17267],[100,17351],[100,17434],[100,17518],[100,17601],[100,17684],[100,17768],[100,17851],[100,17935],[100,18018],[100,18101],[100,18185],[100,18268],[100,18352],[100,18435],[100,18519],[100,18602],[100,18686],[100,18769],[100,18852],[100,18936],[100,19019],[100,19102],[100,19186],[100,19269],[100,19353],[100,19436],[100,19519],[100,19603],[100,19687],[100,19770],[100,19853],[100,19937],[100,20020],[100,20104],[100,20187],[100,20270],[100,20354]]",1142.9087,1148.2639,100,2.7729,"[{""rating"":98.33776327631712,""responseTime"":1.9329000000357155},{""rating"":100,""responseTime"":2.7729000000356336}]",space,4.8192,,1148.264,Not at all,0,1148.2657,,,[],,0,4,4,4,1,audio/Narrative7Situation4.wav,audio/Narrative8Situation4.wav,audio/Narrative5Situation4.wav,audio/Narrative6Situation4.wav,3,3,1,2,,,,,,,,,,,,,,,,,,,,,,,,,,,,,,,,,,,,,,,
,,,,,663c0a95bceed7450360f00e,2025-07-07_22h38.33.183,group3.4_multiperson,2023.2.2,Win32,60.60606061,686c2ebf0248f13bef9af11f,686c928e9344fd9b792c7144,,,,,,,,,,,,,,,,,,,,,,,,,,,,,1148.2659,2,audio/Narrative5Situation5.wav,1153.269,,1153.269,1168.7012,"[[63.9,667],[65.5,750],[65.9,833],[65.9,917],[69.8,1000],[84.1,1084],[89.8,1167],[94.2,1250],[94.2,1334],[94.2,1417],[96.7,1501],[97,1584],[97,1668],[97,1751],[97,1834],[97,1918],[97.6,2001],[99.9,2085],[99.9,2168],[99.9,2251],[99.9,2335],[99.9,2418],[99.9,2502],[99.9,2585],[99.9,2669],[100,2752],[100,2836],[100,2919],[100,3002],[100,3086],[100,3169],[100,3252],[100,3336],[100,3420],[100,3503],[100,3586],[100,3670],[100,3753],[100,3836],[100,3920],[100,4003],[100,4087],[100,4170],[100,4253],[100,4337],[100,4420],[100,4504],[100,4587],[100,4671],[100,4754],[100,4837],[100,4921],[100,5005],[100,5088],[100,5171],[100,5255],[100,5338],[100,5422],[100,5505],[100,5588],[100,5672],[100,5755],[100,5839],[100,5922],[100,6006],[100,6089],[100,6172],[100,6256],[100,6339],[100,6423],[100,6506],[100,6590],[100,6673],[100,6756],[100,6840],[100,6923],[100,7006],[100,7090],[100,7173],[100,7257],[100,7340],[100,7423],[100,7507],[100,7590],[100,7674],[100,7758],[100,7841],[100,7924],[100,8008],[100,8091],[100,8174],[100,8258],[100,8341],[100,8424],[100,8508],[100,8591],[100,8675],[100,8758],[100,8842],[100,8925],[100,9008],[100,9092],[100,9175],[100,9259],[100,9342],[100,9426],[100,9509],[100,9593],[100,9676],[100,9759],[100,9843],[100,9926],[100,10010],[100,10093],[100,10177],[100,10260],[100,10343],[100,10427],[100,10510],[100,10594],[100,10677],[100,10760],[100,10844],[100,10927],[100,11010],[100,11094],[100,11178],[100,11261],[100,11344],[100,11428],[100,11511],[100,11595],[100,11678],[100,11761],[100,11845],[100,11928],[100,12012],[100,12095],[100,12179],[100,12262],[100,12345],[100,12429],[100,12512],[100,12596],[100,12679],[100,12762],[100,12846],[100,12929],[100,13012],[100,13096],[100,13179],[100,13263],[100,13347],[100,13430],[100,13513],[100,13597],[100,13680],[100,13763],[100,13847],[100,13930],[100,14013],[100,14097],[100,14180],[100,14264],[100,14347],[100,14431],[100,14514],[100,14598],[100,14681],[100,14765],[100,14848],[100,14931],[100,15015],[100,15098],[100,15181],[100,15265],[100,15348],[100,15432]]",1168.7013,1178.7281,0,9.299,"[{""rating"":99.06643971002947,""responseTime"":1.8216000000236363},{""rating"":100,""responseTime"":2.436900000035621},{""rating"":48.68364122887605,""responseTime"":5.263900000035619},{""rating"":19.848868317620177,""responseTime"":6.328999999999951},{""rating"":0.6950786694500721,""responseTime"":8.653999999999996},{""rating"":0,""responseTime"":9.298999999999978}]",space,9.4965,,1178.7282,Not at all,0,1178.7293,,,[],,0,5,5,5,1,audio/Narrative7Situation5.wav,audio/Narrative8Situation5.wav,audio/Narrative5Situation5.wav,audio/Narrative6Situation5.wav,5,2,5,2,,,,,,,,,,,,,,,,,,,,,,,,,,,,,,,,,,,,,,,
,,,,,663c0a95bceed7450360f00e,2025-07-07_22h38.33.183,group3.4_multiperson,2023.2.2,Win32,60.60606061,686c2ebf0248f13bef9af11f,686c928e9344fd9b792c7144,,,,,,,,,,,,,,,,,,,,,,,,,,,,,1178.7295,2,audio/Narrative5Situation6.wav,1181.7311,,1181.7312,1187.4036,"[[999,0],[999,83],[999,166],[999,250],[999,333],[22,417],[8,500],[2.5,583],[0.1,667],[0.1,750],[0.1,834],[0.1,917],[0.1,1000],[0.1,1084],[0.1,1167],[0.1,1251],[0.1,1334],[0.1,1418],[5.6,1918],[17.7,2002],[25.2,2085],[31.2,2168],[35.1,2252],[39.4,2335],[41.9,2419],[48.2,2502],[48.6,2586],[56,2669],[60.6,2752],[67.9,2836],[74.3,2919],[79.4,3002],[79.4,3086],[79.4,3169],[79.4,3253],[79.4,3336],[79.4,3420],[79.4,3503],[79.4,3587],[79.4,3670],[79.4,3753],[79.4,3837],[79.4,3920],[79.3,4004],[79.2,4087],[79.2,4170],[79.2,4254],[78.5,4337],[78,4421],[78,4504],[78,4588],[78,4671],[78,4755],[78,4838],[78,4921],[78,5005],[78,5088],[78,5171],[78,5255],[78,5338],[78,5422],[78,5505],[78,5589],[78,5672]]",1187.4038,1189.8729,73.97913528,2.1033,"[{""rating"":73.97913528186538,""responseTime"":2.103300000012041}]",space,1.9443,,1189.8729,Not at all,0,1189.874,,,[],,0,6,6,6,1,audio/Narrative7Situation6.wav,audio/Narrative8Situation6.wav,audio/Narrative5Situation6.wav,audio/Narrative6Situation6.wav,3,2,3,2,,,,,,,,,,,,,,,,,,,,,,,,,,,,,,,,,,,,,,,
,,,,,663c0a95bceed7450360f00e,2025-07-07_22h38.33.183,group3.4_multiperson,2023.2.2,Win32,60.60606061,686c2ebf0248f13bef9af11f,686c928e9344fd9b792c7144,,,,,,,,,,,,,,,,,,,,,,,,,,,,,1189.8742,2,audio/Narrative5Situation7.wav,1193.877,,1193.877,1214.9153,"[[999,0],[999,83],[999,166],[999,250],[999,333],[999,417],[999,500],[999,583],[999,667],[999,750],[999,834],[999,917],[999,1000],[999,1084],[999,1167],[64.4,1251],[66.4,1334],[71.8,1418],[72.8,1501],[72.8,1584],[72.9,1668],[72.9,1751],[72.9,1835],[72.9,1918],[72.9,2001],[72.9,2085],[72.9,2168],[72.9,2252],[72.9,2335],[72.9,2419],[72.9,2502],[72.9,2585],[72.9,2669],[72.9,2752],[72.9,2836],[72.9,2919],[72.9,3003],[72.9,3086],[72.9,3170],[72.9,3253],[72.9,3336],[73.3,3420],[73.6,3503],[73.6,3586],[73.6,3670],[73.6,3753],[73.6,3837],[73.6,3920],[73.6,4004],[73.6,4087],[73.6,4170],[73.6,4254],[73.7,4337],[73.8,4421],[73.8,4504],[73.8,4587],[73.8,4671],[73.8,4754],[73.8,4838],[73.8,4921],[73.9,5005],[73.9,5088],[73.9,5172],[73.9,5255],[73.9,5338],[73.9,5422],[73.9,5505],[73.9,5588],[73.9,5672],[73.9,5755],[73.9,5839],[73.9,5922],[73.9,6006],[73.9,6089],[73.9,6172],[73.9,6256],[73.9,6339],[73.9,6423],[73.9,6506],[73.9,6590],[73.9,6673],[73.9,6756],[73.9,6840],[73.9,6923],[73.9,7007],[73.9,7090],[73.9,7173],[73.9,7257],[73.9,7340],[73.9,7424],[73.9,7507],[73.9,7591],[73.9,7674],[73.9,7757],[73.9,7841],[73.9,7924],[73.9,8008],[73.9,8091],[73.9,8174],[73.9,8258],[73.9,8341],[73.9,8425],[73.9,8508],[73.9,8592],[73.9,8675],[73.9,8758],[73.9,8842],[73.9,8925],[73.9,9009],[73.9,9092],[73.9,9176],[73.9,9259],[73.9,9343],[73.9,9426],[73.9,9509],[73.9,9593],[73.9,9676],[73.9,9759],[73.9,9843],[73.9,9927],[73.9,10010],[73.9,10093],[73.9,10176],[73.9,10260],[73.9,10343],[73.9,10427],[73.9,10511],[73.9,10594],[73.9,10677],[73.9,10760],[73.9,10844],[73.9,10928],[73.9,11011],[73.9,11094],[73.9,11178],[73.9,11261],[73.9,11344],[73.9,11428],[73.9,11511],[73.9,11595],[73.9,11678],[73.9,11762],[73.9,11845],[73.9,11928],[73.9,12012],[73.9,12095],[73.9,12179],[73.9,12262],[73.9,12345],[73.9,12429],[73.9,12513],[73.9,12596],[73.9,12679],[73.9,12762],[73.9,12846],[73.9,12930],[73.9,13013],[73.9,13096],[73.9,13180],[73.9,13263],[73.9,13346],[73.9,13430],[73.9,13513],[73.9,13597],[73.9,13680],[73.9,13763],[73.9,13847],[73.9,13930],[73.9,14014],[73.9,14097],[73.9,14181],[73.9,14264],[73.9,14348],[73.9,14431],[73.9,14514],[73.9,14598],[73.9,14681],[73.9,14765],[73.9,14848],[73.9,14932],[73.9,15015],[73.9,15099],[73.9,15182],[73.9,15265],[73.9,15349],[73.9,15432],[73.9,15515],[73.9,15599],[73.9,15682],[73.9,15766],[73.9,15849],[73.9,15932],[73.9,16016],[73.9,16099],[73.9,16183],[73.9,16267],[73.9,16350],[73.9,16433],[73.9,16516],[73.9,16600],[73.9,16683],[73.9,16767],[73.9,16850],[73.9,16933],[73.9,17017],[73.9,17101],[73.9,17184],[73.9,17267],[73.9,17351],[73.9,17434],[73.9,17518],[73.9,17601],[73.9,17684],[73.9,17768],[73.9,17851],[73.9,17934],[73.9,18018],[73.9,18101],[73.9,18185],[73.9,18268],[73.9,18352],[73.9,18435],[73.9,18518],[73.9,18602],[73.9,18685],[73.9,18769],[73.9,18852],[73.9,18936],[73.9,19019],[73.9,19103],[73.9,19186],[73.9,19269],[73.9,19353],[73.9,19436],[73.9,19520],[73.9,19603],[73.9,19686],[73.9,19770],[73.9,19853],[73.9,19936],[73.9,20020],[73.9,20103],[73.9,20187],[73.9,20270],[73.9,20354],[73.9,20437],[73.9,20521],[73.9,20604],[73.9,20687],[73.9,20771],[73.9,20854],[73.9,20937],[73.9,21021]]",1214.9154,1221.9391,27.03153784,5.6951,"[{""rating"":0.4868847956835065,""responseTime"":3.7590000000000146},{""rating"":0,""responseTime"":4.532199999988052},{""rating"":27.031537842330977,""responseTime"":5.6951000000237855}]",space,6.4907,,1221.9391,Definitely yes,100,1221.9408,,,[],,0,7,7,7,1,audio/Narrative7Situation7.wav,audio/Narrative8Situation7.wav,audio/Narrative5Situation7.wav,audio/Narrative6Situation7.wav,5,3,4,5,,,,,,,,,,,,,,,,,,,,,,,,,,,,,,,,,,,,,,,
,,,,,663c0a95bceed7450360f00e,2025-07-07_22h38.33.183,group3.4_multiperson,2023.2.2,Win32,60.60606061,686c2ebf0248f13bef9af11f,686c928e9344fd9b792c7144,,,,,,,,,,,,,,,,,,,,,,,,,,,,,1221.941,2,audio/Narrative5Situation8.wav,1224.942,,1224.9421,1233.7511,"[[999,0],[999,83],[999,166],[999,250],[999,334],[999,416],[999,500],[999,583],[999,667],[999,750],[45.4,834],[40.8,917],[40.8,1000],[40.8,1084],[40.1,1168],[39.8,1251],[39.8,1334],[32.4,1418],[28.7,1501],[27.3,1584],[27.3,1668],[21.3,1751],[19.8,1835],[19.8,1918],[19.8,2001],[19.8,2085],[19.8,2168],[19.8,2252],[19.8,2335],[19.8,2419],[23.2,2502],[24.1,2586],[24.1,2669],[24.1,2752],[30.9,2836],[41.6,2919],[48.6,3003],[48.6,3086],[48.6,3169],[48.6,3253],[48.6,3336],[48.6,3420],[48.6,3503],[49.2,3586],[49.9,3670],[49.9,3753],[49.9,3837],[49.9,3920],[49.9,4004],[49.9,4087],[49.9,4170],[49.9,4254],[49.9,4337],[50,4421],[50,4504],[50,4587],[50,4671],[50,4754],[50,4838],[50,4921],[50,5005],[48,5088],[48,5171],[48,5255],[48,5338],[48,5422],[48.1,5505],[48.2,5589],[48.6,5672],[48.8,5756],[49.7,5839],[49.8,5922],[49.8,6006],[49.8,6089],[49.8,6173],[49,6256],[48.9,6339],[48.9,6423],[48.9,6506],[48.9,6589],[48.9,6673],[48.9,6757],[48.9,6840],[48.9,6923],[48.9,7007],[49.1,7090],[49.2,7173],[49.4,7257],[49.4,7340],[49.4,7424],[49.4,7507],[49.4,7590],[49.4,7674],[49.4,7758],[49.4,7841],[49.4,7924],[49.4,8008],[49.4,8091],[49.4,8175],[49.4,8259],[49.4,8341],[49.4,8425],[49.4,8508],[49.4,8592],[49.4,8675],[49.4,8758]]",1233.7512,1236.3205,49.62051579,1.7166,"[{""rating"":49.620515785296234,""responseTime"":1.7165999999642736}]",space,2.0471,,1236.3206,Definitely yes,100,1236.3215,,,[],,0,8,8,8,1,audio/Narrative7Situation8.wav,audio/Narrative8Situation8.wav,audio/Narrative5Situation8.wav,audio/Narrative6Situation8.wav,2,3,3,5,,,,,,,,,,,,,,,,,,,,,,,,,,,,,,,,,,,,,,,
,,,,,663c0a95bceed7450360f00e,2025-07-07_22h38.33.183,group3.4_multiperson,2023.2.2,Win32,60.60606061,686c2ebf0248f13bef9af11f,686c928e9344fd9b792c7144,,,,,,,,,,,,,,,,,,,,,,,,,,,,,1236.3217,2,audio/Narrative5Situation9.wav,1239.3234,,1239.3234,1278.8639,"[[999,0],[999,83],[999,166],[999,250],[999,333],[999,417],[999,500],[999,584],[999,667],[999,750],[51.9,834],[51.6,917],[51.5,1000],[51.5,1084],[51.5,1167],[51.5,1251],[51.5,1334],[50.9,1418],[50.9,1501],[50.9,1585],[50.9,1668],[50.9,1751],[51,1835],[51.2,1918],[51.2,2002],[51.2,2085],[51.2,2168],[51.2,2252],[51.2,2335],[56.5,2419],[72.7,2502],[84.6,2586],[88.2,2669],[88.2,2753],[89.8,2836],[89.8,2919],[89.8,3003],[89.8,3086],[89.8,3169],[91.9,3253],[94.5,3336],[100,3420],[100,3503],[100,3587],[100,3670],[100,3754],[100,3837],[100,3920],[100,4004],[100,4087],[100,4170],[100,4254],[100,4337],[100,4421],[100,4504],[100,4587],[100,4671],[100,4755],[100,4838],[100,4921],[100,5005],[100,5088],[100,5172],[100,5255],[100,5338],[100,5422],[100,5505],[100,5589],[100,5672],[100,5755],[100,5839],[100,5922],[100,6006],[100,6089],[100,6173],[100,6256],[100,6339],[100,6423],[100,6506],[100,6590],[100,6673],[100,6756],[100,6840],[100,6923],[100,7007],[100,7090],[100,7173],[100,7257],[100,7340],[100,7424],[100,7507],[100,7591],[100,7674],[100,7758],[100,7841],[100,7924],[100,8008],[100,8091],[100,8175],[100,8258],[100,8341],[100,8425],[100,8508],[100,8592],[100,8675],[100,8758],[100,8842],[100,8925],[100,9009],[100,9093],[100,9175],[100,9259],[100,9343],[100,9426],[100,9509],[100,9593],[100,9676],[100,9759],[100,9843],[100,9926],[100,10010],[100,10093],[100,10177],[100,10260],[100,10344],[100,10427],[100,10510],[100,10594],[100,10677],[100,10761],[100,10844],[100,10927],[100,11011],[100,11095],[100,11178],[100,11261],[100,11345],[100,11428],[100,11512],[100,11595],[100,11678],[100,11762],[100,11845],[100,11928],[100,12012],[100,12096],[100,12179],[100,12262],[100,12346],[100,12429],[100,12512],[100,12596],[100,12679],[100,12763],[100,12846],[100,12929],[100,13013],[100,13096],[100,13180],[100,13263],[100,13346],[100,13430],[100,13513],[100,13597],[100,13680],[100,13764],[100,13847],[100,13930],[100,14014],[100,14097],[100,14181],[100,14264],[100,14347],[100,14431],[100,14515],[100,14598],[100,14681],[100,14765],[100,14848],[100,14931],[100,15015],[100,15098],[100,15182],[100,15265],[100,15348],[100,15432],[100,15516],[100,15599],[100,15682],[100,15766],[100,15849],[100,15932],[100,16016],[100,16099],[100,16183],[100,16266],[100,16350],[100,16433],[100,16517],[100,16600],[100,16684],[100,16767],[100,16850],[100,16934],[100,17017],[100,17100],[100,17184],[100,17267],[100,17351],[100,17434],[100,17517],[100,17601],[100,17684],[100,17768],[100,17851],[100,17935],[100,18018],[100,18101],[100,18185],[100,18268],[100,18352],[100,18435],[100,18518],[100,18602],[100,18685],[100,18769],[100,18852],[100,18936],[100,19019],[100,19102],[100,19186],[100,19269],[100,19353],[100,19436],[100,19519],[100,19603],[100,19687],[100,19770],[100,19853],[100,19937],[100,20020],[100,20103],[100,20187],[100,20270],[100,20354],[100,20437],[100,20521],[100,20604],[100,20688],[100,20771],[100,20854],[100,20938],[100,21021],[100,21104],[100,21188],[100,21271],[100,21355],[100,21438],[100,21522],[100,21605],[100,21688],[100,21772],[100,21855],[100,21939],[100,22022],[100,22106],[100,22189],[100,22272],[100,22356],[100,22439],[100,22523],[100,22606],[100,22689],[100,22773],[100,22856],[100,22940],[100,23023],[100,23107],[100,23190],[100,23273],[100,23357],[100,23440],[100,23524],[100,23607],[100,23690],[100,23774],[100,23857],[100,23941],[100,24024],[100,24108],[100,24191],[100,24274],[100,24358],[100,24441],[100,24525],[100,24608],[100,24692],[100,24775],[100,24858],[100,24942],[100,25025],[100,25108],[100,25192],[100,25276],[100,25359],[100,25442],[100,25526],[100,25609],[100,25693],[100,25776],[100,25859],[100,25943],[100,26026],[100,26110],[100,26193],[100,26277],[100,26360],[100,26443],[100,26527],[100,26610],[100,26694],[100,26777],[100,26860],[100,26944],[100,27027],[100,27111],[100,27194],[100,27278],[100,27361],[100,27444],[100,27528],[100,27611],[100,27695],[100,27778],[100,27861],[100,27945],[100,28028],[100,28112],[100,28195],[100,28278],[100,28362],[100,28445],[100,28529],[100,28612],[100,28696],[100,28779],[100,28862],[100,28946],[100,29029],[100,29113],[100,29197],[100,29280],[100,29363],[100,29446],[100,29530],[100,29613],[100,29697],[100,29780],[100,29863],[100,29947],[100,30030],[100,30114],[100,30197],[100,30281],[100,30364],[100,30447],[100,30531],[100,30614],[100,30698],[100,30781],[100,30864],[100,30948],[100,31031],[100,31115],[100,31198],[100,31282],[100,31365],[100,31448],[100,31532],[100,31615],[100,31699],[100,31782],[100,31865],[100,31949],[100,32032],[100,32116],[100,32199],[100,32283],[100,32366],[100,32449],[100,32533],[100,32616],[100,32700],[100,32783],[100,32867],[100,32950],[100,33033],[100,33117],[100,33200],[100,33284],[100,33367],[100,33451],[100,33534],[100,33617],[100,33701],[100,33784],[100,33867],[100,33951],[100,34034],[100,34118],[100,34201],[100,34285],[100,34368],[100,34452],[100,34535],[100,34618],[100,34702],[100,34785],[100,34868],[100,34952],[100,35035],[100,35119],[100,35202],[100,35286],[100,35369],[100,35453],[100,35536],[100,35619],[100,35703],[100,35786],[100,35870],[100,35953],[100,36036],[100,36120],[100,36203],[100,36287],[100,36370],[100,36454],[100,36537],[100,36620],[100,36704],[100,36787],[100,36871],[100,36954],[100,37037],[100,37121],[100,37204],[100,37288],[100,37371],[100,37455],[100,37538],[100,37621],[100,37705],[100,37788],[100,37871],[100,37955],[100,38038],[100,38122],[100,38205],[100,38289],[100,38372],[100,38456],[100,38539],[100,38622],[100,38706],[100,38789],[100,38873],[100,38956],[100,39039],[100,39123],[100,39207],[100,39290],[100,39373],[100,39457],[100,39540]]",1278.8641,1281.066,100,1.9878,"[{""rating"":98.33776327631712,""responseTime"":1.3430000000000746},{""rating"":100,""responseTime"":1.98780000001193}]",space,1.6708,,1281.0661,Partially,50,1281.0677,,,[],,0,9,9,9,1,audio/Narrative7Situation9.wav,audio/Narrative8Situation9.wav,audio/Narrative5Situation9.wav,audio/Narrative6Situation9.wav,2,3,3,4,,,,,,,,,,,,,,,,,,,,,,,,,,,,,,,,,,,,,,,
,,,,,663c0a95bceed7450360f00e,2025-07-07_22h38.33.183,group3.4_multiperson,2023.2.2,Win32,60.60606061,686c2ebf0248f13bef9af11f,686c928e9344fd9b792c7144,,,,,,,,,,,,,,,,,,,,,,,,,,,,,1281.0678,2,audio/Narrative6Situation1.wav,1283.0682,,1283.0682,1309.6454,"[[999,0],[999,83],[999,166],[999,250],[999,333],[999,417],[999,500],[999,583],[999,667],[999,750],[999,834],[999,917],[999,1000],[999,1084],[999,1167],[999,1251],[999,1334],[999,1418],[999,1501],[999,1585],[999,1668],[999,1751],[999,1835],[999,1918],[999,2001],[999,2085],[999,2169],[999,2252],[999,2335],[999,2419],[999,2502],[999,2586],[999,2669],[999,2752],[999,2836],[999,2919],[999,3003],[999,3086],[999,3170],[43.6,3253],[42.2,3336],[42.2,3420],[42.2,3503],[42.2,3586],[43.4,3670],[43.4,3753],[45.3,4421],[47.2,4504],[49.4,4587],[56.6,4671],[56.6,4754],[52.7,4838],[49.1,4921],[49.1,5005],[49.1,5088],[49.1,5172],[49.1,5255],[49.1,5338],[49.3,5422],[49.9,5505],[49.9,5589],[49.9,5672],[49.9,5755],[49.9,5839],[49.9,5922],[49.9,6006],[49.5,6089],[49.5,6172],[49.5,6256],[49.5,6339],[49.5,6423],[49.5,6506],[49.5,6590],[49.5,6673],[49.5,6756],[49.5,6840],[49.5,6923],[49.5,7007],[49.5,7090],[49.5,7173],[49.5,7257],[49.5,7340],[49.5,7424],[49.5,7507],[49.5,7591],[49.5,7674],[49.5,7758],[49.5,7841],[49.5,7924],[49.5,8008],[49.5,8091],[49.5,8174],[49.5,8258],[49.5,8341],[49.5,8425],[49.5,8508],[49.5,8592],[49.5,8675],[49.5,8758],[49.5,8842],[49.5,8925],[49.5,9009],[49.5,9092],[49.5,9175],[49.7,9259],[49.7,9342],[49.7,9426],[49.7,9509],[49.7,9593],[49.7,9676],[49.7,9759],[49.7,9843],[49.7,9926],[49.7,10010],[49.7,10093],[49.7,10176],[49.7,10260],[49.7,10344],[49.7,10427],[49.7,10510],[49.7,10594],[49.7,10677],[49.7,10760],[49.7,10844],[49.7,10927],[49.7,11011],[49.7,11094],[49.7,11178],[49.7,11261],[49.7,11345],[49.7,11428],[49.7,11512],[49.7,11595],[49.7,11678],[49.7,11761],[49.7,11845],[49.7,11929],[49.7,12012],[49.7,12095],[49.7,12179],[49.7,12262],[49.7,12345],[49.7,12429],[49.7,12512],[49.7,12596],[49.7,12679],[49.7,12762],[49.7,12846],[49.7,12929],[49.7,13013],[49.7,13096],[49.7,13180],[49.7,13263],[49.7,13346],[49.7,13430],[49.7,13513],[49.7,13597],[49.7,13680],[49.7,13764],[49.7,13847],[49.7,13931],[49.7,14014],[49.7,14097],[49.7,14181],[49.7,14264],[49.7,14347],[49.7,14431],[49.7,14514],[49.7,14598],[49.7,14682],[49.7,14765],[49.7,14848],[49.7,14932],[49.7,15015],[49.7,15098],[49.7,15182],[49.7,15265],[49.7,15349],[49.9,15432],[50.7,15515],[57.7,15599],[59.2,15682],[61.4,15766],[61.6,15849],[61.4,15932],[47.9,16016],[47.9,16099],[47.9,16183],[49.8,16266],[51.8,16349],[52,16433],[51.9,16517],[49.5,16600],[49.5,16683],[49.7,16767],[51.4,16850],[51.4,16933],[51.4,17017],[51.4,17100],[51.4,17184],[51.4,17267],[50.2,17351],[49.9,17434],[49.9,17517],[49.9,17601],[50.4,17684],[50.9,17768],[50.9,17851],[50.9,17934],[50.9,18018],[50.9,18101],[50.9,18185],[50.9,18268],[50.9,18352],[50.9,18435],[50.9,18518],[50.9,18602],[50.9,18685],[50.9,18769],[50.9,18852],[50.9,18935],[28.1,19019],[7.5,19102],[7,19186],[7,19269],[7,19353],[6.8,19436],[6.8,19520],[6.8,19603],[6.8,19686],[6.6,19770],[0.2,19853],[0.9,20771],[0.9,20854],[0.9,20938],[0.9,21021],[1.4,21105],[13.8,21188],[25,21271],[30.9,21355],[31.4,21438],[31.6,21521],[42.2,21605],[42.6,21688],[44.7,21772],[47.8,21855],[51.8,21939],[51.8,22022],[52,22105],[52.3,22189],[61.2,22272],[61.2,22356],[61.2,22439],[61.2,22522],[68.6,22606],[72.6,22689],[72.6,22773],[72.6,22856],[72.6,22940],[72.6,23023],[72.6,23106],[72.6,23190],[72.6,23273],[72.6,23357],[73.2,23440],[74.9,23524],[75.4,23607],[76.2,23690],[81.6,23774],[89.8,23857],[100,23941],[100,24024],[100,24107],[88.4,24191],[76.6,24274],[73.1,24358],[73.1,24441],[73.1,24525],[73.1,24608],[73.2,24692],[81.5,24775],[82.2,24858],[82.7,24942],[82.7,25025],[82.7,25108],[87.7,25192],[90.3,25275],[90.3,25359],[90.3,25442],[90.2,25526],[89.1,25609],[88.6,25693],[88.1,25776],[87.9,25860],[87.9,25943],[87.1,26026],[86.8,26110],[86.8,26193],[86.8,26276],[86.8,26360],[86.8,26443],[86.8,26527]]",1309.6455,1312.4317,86.05434597,2.0623,"[{""rating"":86.05434596879607,""responseTime"":2.0622999999523017}]",space,2.2589,,1312.4317,Definitely yes,100,1312.4333,,,[],,0,10,10,10,1,audio/Narrative8Situation1.wav,audio/Narrative7Situation1.wav,audio/Narrative6Situation1.wav,audio/Narrative5Situation1.wav,5,2,2,5,,,,,,,,,,,,,,,,,,,,,,,,,,,,,,,,,,,,,,,
,,,,,663c0a95bceed7450360f00e,2025-07-07_22h38.33.183,group3.4_multiperson,2023.2.2,Win32,60.60606061,686c2ebf0248f13bef9af11f,686c928e9344fd9b792c7144,,,,,,,,,,,,,,,,,,,,,,,,,,,,,1312.4335,2,audio/Narrative6Situation2.wav,1315.4347,,1315.4347,1343.9307,"[[999,0],[999,83],[999,166],[999,250],[999,333],[999,416],[999,500],[999,583],[49.9,667],[49.1,750],[49.7,834],[49.9,917],[49.9,1000],[49.9,1084],[50.2,1167],[50.2,1251],[50.2,1334],[50.2,1417],[56.2,1501],[63.5,1584],[76.4,1668],[80.9,1751],[92.7,1835],[100,1918],[100,2001],[100,2085],[100,2168],[100,2252],[100,2335],[97.9,2419],[97.6,2502],[97.3,2585],[97.3,2669],[97.3,2752],[97.6,2836],[97.6,2919],[97.7,3002],[100,3086],[100,3169],[100,3253],[100,3336],[100,3419],[100,3503],[100,3586],[100,3670],[100,3753],[100,3837],[100,3920],[100,4003],[100,4087],[100,4170],[100,4254],[100,4337],[100,4420],[100,4504],[100,4587],[100,4671],[100,4754],[100,4837],[100,4921],[100,5005],[100,5088],[100,5171],[100,5255],[100,5338],[100,5422],[100,5505],[100,5588],[100,5672],[100,5755],[100,5839],[100,5922],[100,6006],[100,6089],[100,6172],[100,6256],[100,6339],[100,6423],[100,6506],[100,6589],[100,6673],[100,6756],[100,6840],[100,6923],[100,7007],[100,7090],[100,7174],[100,7257],[100,7340],[100,7424],[100,7507],[100,7590],[100,7674],[100,7757],[100,7841],[100,7924],[100,8008],[100,8091],[100,8174],[100,8258],[100,8341],[100,8425],[100,8508],[100,8591],[100,8675],[100,8758],[100,8842],[100,8925],[100,9009],[100,9092],[100,9175],[100,9259],[100,9342],[100,9426],[100,9509],[100,9593],[100,9676],[100,9759],[100,9843],[100,9926],[100,10010],[100,10093],[100,10176],[100,10260],[100,10343],[100,10427],[100,10510],[100,10594],[100,10677],[100,10760],[100,10844],[100,10927],[100,11011],[100,11094],[100,11177],[100,11261],[100,11344],[100,11428],[100,11511],[100,11595],[100,11678],[100,11761],[100,11845],[100,11928],[100,12012],[100,12095],[100,12178],[100,12262],[100,12345],[100,12429],[100,12512],[100,12596],[100,12679],[100,12762],[100,12846],[100,12929],[100,13013],[100,13096],[100,13179],[100,13263],[100,13346],[100,13430],[100,13513],[100,13596],[100,13680],[100,13763],[100,13847],[100,13930],[100,14014],[100,14097],[100,14181],[100,14264],[100,14347],[100,14431],[100,14514],[100,14598],[100,14681],[100,14765],[100,14848],[100,14931],[100,15015],[100,15098],[100,15182],[100,15265],[100,15348],[100,15432],[100,15515],[100,15599],[100,15682],[100,15765],[100,15849],[100,15932],[100,16016],[100,16099],[100,16183],[100,16266],[100,16349],[100,16433],[100,16516],[100,16600],[100,16683],[100,16766],[100,16850],[100,16933],[100,17017],[100,17100],[100,17184],[100,17267],[100,17350],[100,17434],[100,17517],[100,17601],[100,17684],[100,17768],[100,17851],[100,17935],[100,18018],[100,18101],[100,18185],[100,18268],[100,18352],[100,18435],[100,18518],[100,18602],[100,18685],[100,18769],[100,18852],[100,18935],[100,19019],[100,19102],[100,19186],[100,19269],[100,19352],[100,19436],[100,19519],[100,19603],[100,19686],[100,19770],[100,19853],[100,19936],[100,20020],[100,20104],[100,20187],[100,20270],[100,20354],[100,20437],[100,20520],[100,20604],[100,20687],[100,20771],[100,20854],[100,20938],[100,21021],[100,21105],[100,21188],[100,21271],[100,21355],[100,21438],[100,21521],[100,21605],[100,21688],[100,21772],[100,21855],[100,21938],[100,22022],[100,22105],[100,22189],[100,22272],[100,22356],[100,22439],[100,22522],[100,22606],[100,22689],[100,22773],[100,22856],[100,22939],[100,23023],[100,23106],[100,23190],[100,23273],[100,23357],[100,23440],[100,23523],[100,23607],[100,23690],[100,23774],[100,23857],[100,23941],[100,24024],[100,24107],[100,24191],[100,24275],[100,24358],[100,24441],[100,24525],[100,24608],[100,24691],[100,24775],[100,24858],[100,24942],[100,25025],[100,25108],[100,25192],[100,25275],[100,25359],[100,25442],[100,25525],[100,25609],[100,25692],[100,25776],[100,25859],[100,25943],[100,26026],[100,26109],[100,26193],[100,26276],[100,26360],[100,26443],[100,26527],[100,26610],[100,26693],[100,26777],[100,26860],[100,26944],[100,27027],[100,27110],[100,27194],[100,27277],[100,27361],[100,27444],[100,27528],[100,27611],[100,27694],[100,27778],[100,27861],[100,27945],[100,28028],[100,28111],[100,28195],[100,28279],[100,28362],[100,28445]]",1343.9307,1346.383,100,2.301,"[{""rating"":99.58691802103397,""responseTime"":1.6479999999999109},{""rating"":100,""responseTime"":2.300999999999931}]",space,1.9247,,1346.3831,Not at all,0,1346.3843,,,[],,0,11,11,11,1,audio/Narrative8Situation2.wav,audio/Narrative7Situation2.wav,audio/Narrative6Situation2.wav,audio/Narrative5Situation2.wav,3,3,3,3,,,,,,,,,,,,,,,,,,,,,,,,,,,,,,,,,,,,,,,
,,,,,663c0a95bceed7450360f00e,2025-07-07_22h38.33.183,group3.4_multiperson,2023.2.2,Win32,60.60606061,686c2ebf0248f13bef9af11f,686c928e9344fd9b792c7144,,,,,,,,,,,,,,,,,,,,,,,,,,,,,1346.3844,2,audio/Narrative6Situation3.wav,1351.3881,,1351.3881,1364.0012,"[[999,0],[999,83],[999,166],[999,250],[999,333],[999,417],[999,500],[999,584],[999,667],[999,751],[999,834],[999,917],[999,1001],[60.9,1084],[60.9,1167],[60.9,1251],[62.1,1334],[85.2,1418],[99.6,1501],[99.6,1585],[99.7,1668],[99.7,1751],[100,1835],[100,1918],[100,2002],[100,2085],[100,2168],[100,2252],[100,2335],[100,2419],[100,2502],[100,2586],[100,2669],[100,2752],[100,2836],[100,2919],[100,3003],[100,3086],[100,3169],[100,3253],[100,3336],[100,3420],[100,3503],[100,3586],[100,3670],[100,3753],[100,3837],[100,3920],[100,4004],[100,4087],[100,4171],[100,4254],[100,4337],[100,4421],[100,4504],[100,4587],[100,4671],[100,4754],[100,4838],[100,4922],[100,5005],[100,5088],[100,5172],[100,5255],[100,5338],[100,5422],[100,5505],[100,5588],[100,5672],[100,5755],[100,5839],[100,5922],[100,6006],[100,6089],[100,6173],[100,6256],[100,6339],[100,6423],[100,6506],[100,6589],[100,6673],[100,6756],[100,6840],[100,6923],[100,7007],[100,7090],[100,7173],[100,7257],[100,7340],[100,7424],[100,7507],[100,7591],[100,7674],[100,7757],[100,7841],[100,7924],[100,8008],[100,8091],[100,8175],[100,8258],[100,8342],[100,8425],[100,8508],[100,8592],[100,8675],[100,8759],[100,8842],[100,8925],[100,9009],[100,9092],[100,9176],[100,9259],[100,9342],[100,9426],[100,9509],[100,9593],[100,9676],[100,9760],[100,9843],[100,9926],[100,10010],[100,10093],[100,10177],[100,10260],[100,10343],[100,10427],[100,10510],[100,10594],[100,10677],[100,10761],[100,10844],[100,10927],[100,11011],[100,11094],[100,11178],[100,11261],[100,11344],[100,11428],[100,11512],[100,11595],[100,11678],[100,11762],[100,11845],[100,11928],[100,12012],[100,12095],[100,12179],[100,12262],[100,12346],[100,12429],[100,12512],[100,12596]]",1364.0013,1365.87,100,1.6861,"[{""rating"":99.27462083697219,""responseTime"":0.995700000047691},{""rating"":100,""responseTime"":1.686100000023771}]",space,1.3381,,1365.87,Not at all,0,1365.871,,,[],,0,12,12,12,1,audio/Narrative8Situation3.wav,audio/Narrative7Situation3.wav,audio/Narrative6Situation3.wav,audio/Narrative5Situation3.wav,4,8,5,3,,,,,,,,,,,,,,,,,,,,,,,,,,,,,,,,,,,,,,,
,,,,,663c0a95bceed7450360f00e,2025-07-07_22h38.33.183,group3.4_multiperson,2023.2.2,Win32,60.60606061,686c2ebf0248f13bef9af11f,686c928e9344fd9b792c7144,,,,,,,,,,,,,,,,,,,,,,,,,,,,,1365.8712,2,audio/Narrative6Situation4.wav,1367.8717,,1367.8717,1380.4845,"[[80.7,417],[90.8,500],[92.9,583],[92.9,667],[92.9,750],[92.9,834],[95.2,917],[98.2,1000],[100,1084],[100,1167],[100,1251],[100,1334],[100,1418],[100,1501],[100,1584],[100,1668],[100,1751],[100,1835],[100,1918],[100,2002],[100,2085],[92.8,2168],[80.8,2252],[67.1,2335],[50.6,2419],[41.7,2502],[36.3,2586],[31,2669],[32.7,2752],[32.7,2836],[32.7,2919],[31.8,3002],[23.6,3086],[14,3169],[11.5,3253],[11.5,3336],[12.8,3420],[21.6,3503],[34.9,3586],[46,3670],[46.5,3753],[47.8,3837],[48.2,3920],[48.4,4004],[48.8,4087],[50.5,4170],[50.7,4254],[50.7,4337],[50.7,4421],[50.5,4504],[49.7,4588],[49.7,4671],[49.7,4754],[49.7,4838],[49.7,4921],[49.7,5004],[49.7,5088],[49.7,5171],[49.7,5255],[49.7,5338],[49.7,5422],[49.7,5505],[49.7,5588],[49.7,5672],[49.7,5755],[49.7,5839],[49.7,5922],[49.7,6006],[49.7,6089],[49.7,6172],[49.7,6256],[49.7,6339],[49.7,6423],[49.7,6506],[49.7,6589],[49.7,6673],[49.7,6756],[49.7,6840],[49.7,6923],[49.7,7007],[49.7,7090],[49.7,7173],[49.7,7257],[49.7,7340],[49.7,7424],[49.7,7507],[49.7,7591],[49.7,7674],[49.7,7758],[49.5,7841],[49.5,7924],[49.5,8008],[49.5,8091],[49.5,8174],[49.5,8258],[49.5,8342],[49.5,8425],[49.5,8508],[49.5,8592],[49.5,8675],[49.5,8758],[49.5,8842],[49.5,8925],[49.5,9009],[49.5,9092],[49.5,9176],[49.5,9259],[49.5,9342],[49.5,9426],[49.5,9509],[49.5,9593],[49.5,9676],[49.5,9759],[49.5,9843],[49.5,9926],[49.5,10009],[49.5,10093],[49.8,10177],[59.1,10260],[76.2,10343],[86.2,10427],[88.5,10510],[88.5,10594],[88.5,10677],[92.9,10760],[97.2,10844],[97.2,10928],[97.2,11011],[97.2,11094],[97.2,11178],[97.2,11261],[98.6,11344],[100,11428],[100,11511],[100,11595],[100,11678],[100,11761],[100,11845],[100,11928],[100,12012],[100,12095],[100,12179],[100,12262],[100,12345],[100,12429],[100,12512],[100,12596]]",1380.4847,1382.5868,100,1.465,"[{""rating"":98.85824158732163,""responseTime"":0.9481000000237145},{""rating"":100,""responseTime"":1.4649999999999181}]",space,1.5834,,1382.5868,Definitely yes,100,1382.5883,,,[],,0,13,13,13,1,audio/Narrative8Situation4.wav,audio/Narrative7Situation4.wav,audio/Narrative6Situation4.wav,audio/Narrative5Situation4.wav,3,3,2,1,,,,,,,,,,,,,,,,,,,,,,,,,,,,,,,,,,,,,,,
