consent.started,consent.stopped,consentResponse.keys,consentResponse.rt,consentResponse.duration,participantID,date,expName,psychopyVersion,OS,frameRate,STUDY_ID,SESSION_ID,opening1.started,opening1.stopped,keyEndingOpening1.keys,keyEndingOpening1.rt,keyEndingOpening1.duration,volumeAdjust.started,volumeAdjust.stopped,endingAdjust.keys,endingAdjust.rt,endingAdjust.duration,opening2.started,opening2.stopped,keyEndingOpening.keys,keyEndingOpening.rt,keyEndingOpening.duration,mouse.x,mouse.y,mouse.leftButton,mouse.midButton,mouse.rightButton,mouse.time,instructionLoop.thisRepN,instructionLoop.thisTrialN,instructionLoop.thisN,instructionLoop.thisIndex,instructionLoop.ran,readyForAudio.started,readyForAudio.stopped,fixation.started,run,audio_played,fixation.stopped,endPractice.keys,audioPre.started,audioPre.stopped,continuousResponses_audio,intRating.started,intRating.stopped,intQuestionSlider.response,intQuestionSlider.rt,intQuestionSlider.history,confirmResponse.keys,confirmResponse.rt,confirmResponse.duration,catchQuestion.started,catch_label,catch_value,catchQuestion.stopped,catchQuestionSlider.response,catchQuestionSlider.rt,catchQuestionSlider.history,confirmResponse_2.keys,audioRunLoop.thisRepN,audioRunLoop.thisTrialN,audioRunLoop.thisN,audioRunLoop.thisIndex,audioRunLoop.ran,conditions1_1,conditions2_1,conditions1_2,conditions2_2,dur1_1,dur2_1,dur1_2,dur2_2,endPractice.rt,endPractice.duration,confirmResponse_2.rt,confirmResponse_2.duration,runIntervalBreak.started,runIntervalBreak.stopped,endingBreakKey.keys,endingBreakKey.rt,endingBreakKey.duration,connection.started,connection.stopped,connectionEnding.keys,connectionEnding.rt,connectionEnding.duration,readyForText.started,readyForText.stopped,textPre.started,run_dup,textPre.stopped,continuousResponses_text,textRunLoop.thisRepN,textRunLoop.thisTrialN,textRunLoop.thisN,textRunLoop.thisIndex,textRunLoop.ran,text1_1,text1_2,text2_1,text2_2,runBreakText.started,runBreakText.stopped,endingBreakKey_2.keys,endingBreakKey_2.rt,endingBreakKey_2.duration,ending.started,ending.stopped,endingEnding.keys,endingEnding.rt,endingEnding.duration
0.0002,6.9772,y,6.652,,6655e4f304ea91b8ecb46edc,2025-07-07_21h59.05.784,group3.4_multiperson,2023.2.2,Win32,60.24096386,686c2ebf0248f13bef9af11f,686c7b02a931d7cfcd6c9f36,,,,,,,,,,,,,,,,,,,,,,,,,,,,,,,,,,,,,,,,,,,,,,,,,,,,,,,,,,,,,,,,,,,,,,,,,,,,,,,,,,,,,,,,,,,,,,,,,,,,,,,,
,,,,,6655e4f304ea91b8ecb46edc,2025-07-07_21h59.05.784,group3.4_multiperson,2023.2.2,Win32,60.24096386,686c2ebf0248f13bef9af11f,686c7b02a931d7cfcd6c9f36,6.9776,17.2103,space,10.1951,,,,,,,,,,,,,,,,,,,,,,,,,,,,,,,,,,,,,,,,,,,,,,,,,,,,,,,,,,,,,,,,,,,,,,,,,,,,,,,,,,,,,,,,,,,,,,,,,,,,
,,,,,6655e4f304ea91b8ecb46edc,2025-07-07_21h59.05.784,group3.4_multiperson,2023.2.2,Win32,60.24096386,686c2ebf0248f13bef9af11f,686c7b02a931d7cfcd6c9f36,,,,,,17.2105,47.5104,space,29.969,,,,,,,,,,,,,,,,,,,,,,,,,,,,,,,,,,,,,,,,,,,,,,,,,,,,,,,,,,,,,,,,,,,,,,,,,,,,,,,,,,,,,,,,,,,,,,,
,,,,,6655e4f304ea91b8ecb46edc,2025-07-07_21h59.05.784,group3.4_multiperson,2023.2.2,Win32,60.24096386,686c2ebf0248f13bef9af11f,686c7b02a931d7cfcd6c9f36,,,,,,,,,,,47.5144,69.8106,space,22.2757,,[],[],[],[],[],[],0,0,0,0,1,,,,,,,,,,,,,,,,,,,,,,,,,,,,,,,,,,,,,,,,,,,,,,,,,,,,,,,,,,,,,,,,,,,,,,,,,,,,,,
,,,,,6655e4f304ea91b8ecb46edc,2025-07-07_21h59.05.784,group3.4_multiperson,2023.2.2,Win32,60.24096386,686c2ebf0248f13bef9af11f,686c7b02a931d7cfcd6c9f36,,,,,,,,,,,69.8113,113.761,space,43.8883,,[],[],[],[],[],[],1,0,1,0,1,,,,,,,,,,,,,,,,,,,,,,,,,,,,,,,,,,,,,,,,,,,,,,,,,,,,,,,,,,,,,,,,,,,,,,,,,,,,,,
,,,,,6655e4f304ea91b8ecb46edc,2025-07-07_21h59.05.784,group3.4_multiperson,2023.2.2,Win32,60.24096386,686c2ebf0248f13bef9af11f,686c7b02a931d7cfcd6c9f36,,,,,,,,,,,113.7614,141.9933,space,28.2006,,[],[],[],[],[],[],2,0,2,0,1,,,,,,,,,,,,,,,,,,,,,,,,,,,,,,,,,,,,,,,,,,,,,,,,,,,,,,,,,,,,,,,,,,,,,,,,,,,,,,
,,,,,6655e4f304ea91b8ecb46edc,2025-07-07_21h59.05.784,group3.4_multiperson,2023.2.2,Win32,60.24096386,686c2ebf0248f13bef9af11f,686c7b02a931d7cfcd6c9f36,,,,,,,,,,,141.9936,165.8102,space,23.8033,,[],[],[],[],[],[],3,0,3,0,1,,,,,,,,,,,,,,,,,,,,,,,,,,,,,,,,,,,,,,,,,,,,,,,,,,,,,,,,,,,,,,,,,,,,,,,,,,,,,,
,,,,,6655e4f304ea91b8ecb46edc,2025-07-07_21h59.05.784,group3.4_multiperson,2023.2.2,Win32,60.24096386,686c2ebf0248f13bef9af11f,686c7b02a931d7cfcd6c9f36,,,,,,,,,,,165.8105,181.1933,space,15.3628,,[],[],[],[],[],[],4,0,4,0,1,,,,,,,,,,,,,,,,,,,,,,,,,,,,,,,,,,,,,,,,,,,,,,,,,,,,,,,,,,,,,,,,,,,,,,,,,,,,,,
,,,,,6655e4f304ea91b8ecb46edc,2025-07-07_21h59.05.784,group3.4_multiperson,2023.2.2,Win32,60.24096386,686c2ebf0248f13bef9af11f,686c7b02a931d7cfcd6c9f36,,,,,,,,,,,181.1936,201.9767,space,20.762,,[],[],[],[],[],[],5,0,5,0,1,,,,,,,,,,,,,,,,,,,,,,,,,,,,,,,,,,,,,,,,,,,,,,,,,,,,,,,,,,,,,,,,,,,,,,,,,,,,,,
,,,,,6655e4f304ea91b8ecb46edc,2025-07-07_21h59.05.784,group3.4_multiperson,2023.2.2,Win32,60.24096386,686c2ebf0248f13bef9af11f,686c7b02a931d7cfcd6c9f36,,,,,,,,,,,,,,,,,,,,,,,,,,,201.9794,204.5601,204.5743,1,audio/Narrative13Situation2.wav,206.5768,,206.5769,236.3268,"[[999,0],[999,82],[999,166],[999,249],[999,332],[999,416],[999,499],[999,582],[999,666],[999,749],[999,833],[999,916],[999,999],[999,1082],[999,1166],[999,1249],[999,1333],[999,1416],[999,1499],[999,1583],[999,1666],[999,1749],[999,1832],[999,1916],[999,1999],[999,2083],[999,2166],[999,2249],[999,2333],[999,2416],[999,2499],[999,2583],[999,2666],[999,2749],[999,2832],[999,2916],[999,2999],[999,3082],[999,3166],[50.2,3249],[50.4,3333],[50.7,3416],[50.7,3499],[50.7,3582],[50.7,3666],[50.8,3749],[50.8,3832],[50.8,3915],[50.8,3999],[50.8,4082],[50.8,4166],[50.3,4249],[49.8,4333],[49.7,4416],[49.7,4499],[49.7,4582],[49.7,4666],[49.7,4749],[49.7,4833],[49.7,4916],[49.7,4999],[49.7,5082],[49.7,5166],[49.7,5249],[49.7,5332],[49.7,5416],[49.7,5499],[49.7,5582],[49.7,5666],[49.7,5749],[49.7,5832],[49.7,5916],[49.7,5999],[49.7,6082],[49.7,6166],[49.7,6249],[49.7,6332],[49.7,6416],[49.7,6499],[49.7,6582],[49.7,6666],[49.7,6749],[49.7,6832],[49.7,6916],[49.7,6999],[50,7083],[50,7166],[50.1,7249],[51.4,7332],[52.2,7416],[54,7499],[54.1,7583],[54.3,7666],[54.7,7749],[54.7,7832],[54.7,7916],[54.7,7999],[54.7,8082],[54.6,8166],[54.5,8249],[54.5,8332],[54.1,8416],[53.1,8499],[53,8583],[51.7,8666],[51.6,8749],[51.6,8832],[52.4,8916],[56.5,8999],[57.9,9083],[60.1,9166],[63.2,9249],[64,9332],[64.7,9416],[65.6,9499],[65.6,9582],[65.6,9666],[65.6,9749],[65.6,9832],[67.3,9916],[69.9,9999],[72.2,10083],[72.2,10166],[72.2,10249],[72.2,10332],[72.2,10416],[72.2,10499],[59.1,10583],[51.7,10666],[51,10749],[49.7,10833],[46.9,10916],[44.4,10999],[43.5,11083],[41.4,11166],[39.1,11249],[39.1,11332],[39.1,11416],[39.1,11499],[39.1,11582],[39.1,11666],[39.1,11749],[36.3,11833],[33.8,11916],[33,11999],[32.5,12082],[32.5,12166],[31.1,12249],[29.1,12332],[29.1,12416],[29.1,12499],[29.1,12582],[26.8,12666],[26.7,12749],[25.2,12833],[24.1,12916],[23.4,12999],[23.4,13082],[23.4,13166],[23.4,13249],[23.4,13332],[23.4,13416],[23.4,13499],[23.4,13582],[23.4,13666],[23.4,13749],[23.4,13832],[23.4,13916],[23.4,13999],[23.4,14083],[23.4,14166],[23.4,14249],[23.4,14332],[23.4,14416],[23.4,14499],[23.4,14582],[23.4,14666],[23.4,14749],[23.4,14832],[23.4,14916],[23.2,14999],[22.1,15082],[12.5,15749],[12.5,15832],[12.5,15916],[12.5,15999],[12.1,16083],[12.7,16166],[16,16249],[16.5,16332],[16.5,16416],[16.5,16499],[16.4,16582],[16.4,16666],[14.2,16749],[13.9,16832],[13.9,16916],[13.9,16999],[13.9,17082],[13.9,17166],[13.9,17249],[13.9,17332],[13.9,17416],[13.9,17499],[13.9,17582],[13.9,17666],[13.9,17749],[13.9,17832],[13.9,17916],[13.9,17999],[13.9,18082],[13.9,18166],[13.9,18249],[13.9,18332],[13.9,18416],[13.9,18500],[13.9,18582],[13.9,18666],[13.9,18749],[13.9,18832],[13.9,18916],[13.9,18999],[13.9,19082],[13.9,19166],[13.9,19249],[13.9,19332],[13.9,19416],[13.9,19499],[13.9,19582],[13.9,19666],[13.9,19749],[13.9,19832],[13.9,19916],[13.9,19999],[13.9,20082],[13.9,20166],[13.9,20249],[13.9,20332],[13.9,20416],[13.9,20499],[13.9,20582],[13.9,20666],[13.9,20749],[13.9,20832],[13.9,20916],[13.9,20999],[13.9,21082],[13.9,21166],[13.9,21249],[13.9,21332],[13.9,21416],[13.9,21499],[13.9,21582],[13.9,21666],[13.9,21750],[13.9,21832],[13.9,21916],[13.9,21999],[13.9,22083],[13.9,22166],[13.9,22249],[13.9,22332],[13.9,22416],[13.9,22499],[13.9,22582],[13.9,22666],[13.9,22749],[13.9,22832],[13.9,22916],[13.9,22999],[13.9,23082],[13.9,23166],[13.9,23249],[13.9,23332],[13.9,23416],[13.9,23499],[13.9,23582],[13.9,23666],[13.9,23749],[13.9,23832],[13.9,23916],[13.9,23999],[13.9,24082],[13.9,24166],[13.9,24249],[13.9,24332],[13.9,24416],[13.9,24499],[13.9,24582],[13.9,24666],[13.9,24749],[13.9,24832],[13.9,24916],[13.9,24999],[13.9,25082],[13.9,25166],[13.9,25249],[13.9,25332],[13.9,25416],[13.9,25499],[13.9,25582],[13.9,25666],[13.9,25749],[13.9,25832],[13.9,25916],[13.9,25999],[14.3,26083],[18.3,26166],[21,26249],[26.3,26333],[34.1,26416],[43.1,26499],[46.1,26582],[46.1,26666],[46.1,26749],[46.1,26832],[46.1,26916],[46.1,26999],[47.1,27082],[48.1,27166],[51.1,27249],[53,27332],[55.1,27416],[56.6,27499],[56.6,27582],[56.9,27666],[58.6,27749],[58.8,27832],[58.8,27916],[58.8,27999],[58.8,28082],[58.8,28166],[58.8,28249],[58.8,28332],[58.8,28416],[58.3,28499],[58.3,28582],[58.3,28666],[59,28749],[65.5,28833],[69.4,28916],[69.4,28999],[69.4,29082],[69.7,29166],[69.7,29249],[69.8,29333],[70.9,29416],[71,29499],[71.8,29583],[75,29666],[75.9,29749]]",236.3271,245.0268,59.375,6.7124,"[{""rating"":52.39583333333333,""responseTime"":5.508299999999849},{""rating"":59.375,""responseTime"":6.712399999999491}]",space,8.1508,,245.027,Partially,50,245.0302,,,[],,0,0,0,0,1,audio/Narrative13Situation2.wav,audio/Narrative13Situation2.wav,audio/Narrative13Situation2.wav,audio/Narrative13Situation2.wav,2,2,2,2,,,,,,,,,,,,,,,,,,,,,,,,,,,,,,,,,,,,,,,
,,,,,6655e4f304ea91b8ecb46edc,2025-07-07_21h59.05.784,group3.4_multiperson,2023.2.2,Win32,60.24096386,686c2ebf0248f13bef9af11f,686c7b02a931d7cfcd6c9f36,,,,,,,,,,,,,,,,,,,,,,,,,,,,,245.0304,1,audio/Narrative7Situation1.wav,247.8101,space,247.8101,303.71,"[[999,1],[999,83],[999,166],[999,249],[999,333],[999,416],[999,499],[999,583],[999,667],[999,750],[999,833],[999,916],[999,1000],[999,1083],[999,1166],[999,1249],[999,1333],[999,1416],[999,1499],[66.8,1583],[66.8,1666],[66.7,1750],[66.6,1833],[67,1916],[67.4,1999],[67.8,2083],[67.8,2166],[67.8,2249],[67.8,2333],[67.8,2416],[67.8,2499],[67.8,2583],[67.8,2666],[67.8,2749],[67.8,2833],[67.8,2916],[67.8,2999],[67.8,3083],[67.8,3166],[67.8,3249],[67.8,3333],[67.8,3416],[67.8,3499],[67.8,3583],[67.8,3666],[67.8,3749],[67.8,3833],[67.8,3916],[67.8,3999],[67.8,4083],[67.8,4166],[67.8,4249],[67.8,4333],[67.8,4416],[67.8,4499],[67.8,4583],[67.8,4666],[67.8,4749],[67.8,4833],[72.2,4916],[75.1,5000],[79.2,5083],[79.7,5166],[79.8,5250],[85.2,5333],[86.6,5416],[86.6,5499],[86.6,5583],[86.6,5666],[86.6,5749],[86.1,5833],[85.5,5916],[85.5,5999],[85.5,6083],[85.5,6166],[85.5,6249],[85.5,6333],[85.5,6416],[85.5,6499],[85.5,6583],[85.5,6667],[85.5,6749],[80.3,6833],[80.3,6916],[80.3,6999],[80.3,7083],[80.3,7166],[80.3,7249],[80.3,7333],[80.3,7416],[80.3,7499],[80.3,7583],[80.3,7666],[80.3,7749],[80.3,7833],[80.3,7916],[80.3,7999],[80.3,8083],[80.3,8166],[80.3,8249],[80.3,8333],[80.3,8416],[80.3,8499],[80.3,8583],[80.3,8666],[80.3,8749],[80.3,8833],[80.3,8916],[80.3,8999],[80.3,9083],[81.9,9166],[82.3,9249],[82.3,9333],[82.3,9416],[82.3,9499],[82.3,9583],[82.3,9666],[82.3,9749],[82.3,9833],[82.3,9916],[82.3,9999],[82.3,10083],[82.3,10166],[82.3,10249],[82.3,10333],[82.3,10416],[82.3,10499],[82.3,10583],[82.3,10666],[82.3,10749],[82.3,10833],[82.3,10916],[82.3,10999],[82.3,11083],[82.3,11166],[82.3,11249],[82.3,11333],[82.3,11416],[82.3,11499],[82.3,11583],[82.3,11666],[82.3,11749],[82.3,11833],[82.3,11916],[82.3,11999],[82.3,12083],[82.3,12166],[82.3,12249],[82.3,12333],[82.3,12416],[82.3,12499],[82.3,12582],[82.3,12666],[82.3,12749],[82.3,12833],[82.3,12916],[82.3,12999],[82.3,13083],[82.3,13166],[82.3,13249],[82.3,13333],[82.3,13416],[82.3,13499],[82.3,13583],[82.3,13666],[82.3,13749],[82.3,13833],[82.3,13916],[82.3,13999],[82.3,14083],[82.3,14166],[82.3,14249],[82.3,14333],[82.3,14416],[82.3,14499],[82.3,14583],[82.3,14666],[82.3,14749],[82.3,14833],[82.3,14916],[82.3,14999],[82.3,15083],[82.3,15166],[82.3,15249],[82.3,15333],[82.3,15416],[82.3,15499],[82.3,15583],[82.3,15666],[82.3,15749],[82.3,15833],[82.3,15916],[82.3,15999],[82.3,16083],[82.3,16166],[82.3,16249],[82.3,16333],[82.3,16416],[82.3,16499],[82.3,16583],[82.3,16666],[82.3,16749],[82.3,16833],[82.3,16916],[82.3,16999],[82.3,17083],[82.3,17166],[82.3,17250],[82.3,17333],[82.3,17416],[82.3,17499],[82.3,17583],[82.3,17666],[82.3,17749],[82.3,17833],[82.3,17916],[82.3,17999],[82.3,18083],[82.3,18166],[82.3,18249],[82.3,18333],[82.3,18416],[82.3,18499],[82.3,18583],[82.3,18666],[82.3,18749],[82.3,18833],[82.3,18916],[82.3,18999],[82.3,19083],[82.3,19166],[82.3,19249],[82.3,19333],[82.3,19416],[82.3,19499],[82.3,19583],[82.3,19666],[82.3,19749],[82.3,19833],[82.3,19916],[82.3,19999],[82.3,20083],[82.3,20166],[82.3,20249],[82.3,20333],[82.3,20416],[82.3,20499],[82.3,20583],[82.3,20666],[82.3,20749],[82.3,20833],[82.3,20916],[82.3,20999],[82.3,21083],[82.3,21166],[82.3,21249],[82.3,21333],[82.3,21416],[82.3,21499],[87.5,21583],[91.4,21666],[93.1,21749],[93.1,21833],[93.1,21916],[93.1,21999],[93.1,22083],[93.1,22166],[93.1,22249],[93.1,22333],[93.1,22416],[93.1,22499],[93.1,22583],[93.1,22667],[93.1,22749],[93.1,22833],[93.2,22916],[94,22999],[94,23083],[94,23166],[94.4,23249],[94.4,23333],[94.4,23416],[94.4,23499],[94.4,23583],[94.4,23666],[94.4,23749],[94.4,23833],[94.4,23916],[94.4,23999],[94.4,24083],[94.4,24166],[94.4,24249],[94.4,24333],[94.4,24417],[94.4,24499],[94.4,24583],[94.4,24666],[94.4,24749],[94.4,24833],[94.4,24916],[94.4,24999],[94.4,25083],[94.4,25166],[94.4,25249],[94.4,25333],[94.4,25416],[94.4,25499],[94.4,25583],[94.4,25666],[94.4,25749],[94.4,25833],[94.5,25916],[94.5,25999],[94.5,26083],[94.5,26166],[94.5,26249],[94.5,26333],[94.5,26416],[94.5,26499],[97.9,26583],[100,26666],[100,26749],[100,26833],[100,26916],[100,26999],[100,27083],[100,27166],[100,27249],[100,27333],[100,27416],[100,27499],[100,27583],[100,27666],[100,27749],[100,27833],[100,27916],[100,27999],[100,28083],[100,28166],[100,28249],[100,28333],[100,28416],[100,28499],[100,28583],[100,28666],[100,28749],[100,28833],[100,28916],[100,28999],[100,29083],[100,29166],[100,29249],[100,29333],[100,29416],[100,29499],[100,29583],[100,29666],[100,29749],[100,29833],[100,29916],[100,29999],[100,30083],[100,30166],[100,30249],[100,30333],[100,30416],[100,30499],[100,30583],[100,30666],[100,30749],[100,30833],[100,30916],[100,31000],[100,31083],[100,31166],[100,31249],[100,31333],[100,31416],[100,31499],[100,31583],[100,31666],[100,31749],[100,31833],[100,31916],[100,31999],[100,32083],[100,32166],[100,32249],[100,32333],[100,32416],[100,32499],[100,32583],[100,32666],[100,32749],[100,32833],[100,32916],[100,32999],[100,33083],[100,33166],[100,33250],[100,33333],[100,33416],[100,33499],[100,33583],[100,33666],[100,33749],[100,33833],[100,33916],[100,33999],[100,34083],[100,34166],[100,34249],[100,34333],[100,34416],[100,34499],[100,34583],[100,34666],[100,34749],[100,34833],[100,34916],[100,34999],[100,35083],[100,35166],[100,35249],[100,35333],[100,35416],[100,35499],[100,35583],[100,35666],[100,35749],[100,35833],[100,35916],[100,35999],[100,36083],[100,36166],[100,36249],[100,36333],[100,36416],[100,36499],[100,36583],[100,36666],[100,36749],[100,36833],[100,36916],[100,36999],[100,37083],[100,37171],[100,37249],[100,37333],[100,37416],[100,37499],[100,37583],[100,37666],[100,37749],[100,37833],[100,37916],[100,37999],[100,38082],[100,38166],[100,38249],[100,38333],[100,38416],[100,38499],[100,38583],[100,38666],[100,38749],[100,38832],[100,38916],[100,38999],[100,39083],[100,39166],[100,39249],[100,39333],[100,39416],[100,39499],[100,39583],[100,39666],[100,39749],[100,39833],[100,39916],[100,39999],[100,40083],[100,40166],[100,40249],[100,40333],[100,40416],[100,40499],[100,40583],[100,40666],[100,40749],[100,40833],[100,40916],[100,40999],[100,41083],[100,41166],[100,41249],[100,41333],[100,41416],[100,41499],[100,41583],[100,41666],[100,41749],[100,41833],[100,41916],[100,41999],[100,42083],[100,42166],[100,42249],[100,42333],[100,42416],[100,42499],[100,42583],[100,42667],[100,42749],[100,42833],[100,42916],[100,42999],[100,43083],[100,43166],[100,43249],[100,43333],[100,43416],[100,43500],[100,43583],[100,43666],[100,43749],[100,43833],[100,43916],[100,43999],[100,44083],[100,44166],[100,44249],[100,44333],[100,44416],[100,44499],[100,44583],[100,44666],[100,44749],[100,44833],[100,44916],[100,44999],[100,45083],[100,45166],[100,45249],[100,45333],[100,45416],[100,45499],[100,45583],[100,45666],[100,45749],[100,45832],[100,45916],[100,45999],[100,46083],[100,46166],[100,46249],[100,46333],[100,46416],[100,46499],[100,46583],[100,46666],[100,46749],[100,46833],[100,46916],[100,46999],[100,47083],[100,47166],[100,47249],[100,47333],[100,47416],[100,47499],[100,47583],[100,47666],[100,47749],[100,47833],[100,47916],[100,47999],[100,48083],[100,48166],[100,48249],[100,48333],[100,48416],[100,48499],[100,48583],[100,48666],[100,48749],[100,48833],[100,48916],[100,48999],[100,49083],[100,49166],[100,49249],[100,49333],[100,49416],[100,49499],[100,49583],[100,49666],[100,49749],[100,49833],[100,49916],[100,49999],[100,50083],[100,50166],[100,50249],[100,50333],[100,50416],[100,50499],[100,50583],[100,50666],[100,50749],[100,50833],[100,50916],[100,50999],[100,51083],[100,51166],[100,51249],[100,51333],[100,51416],[100,51499],[100,51583],[100,51666],[100,51749],[100,51833],[100,51916],[100,51999],[100,52083],[100,52166],[100,52249],[100,52333],[100,52416],[100,52499],[100,52583],[100,52666],[100,52749],[100,52833],[100,52916],[100,52999],[100,53083],[100,53166],[100,53249],[100,53332],[100,53416],[100,53499],[100,53583],[100,53666],[100,53749],[100,53833],[100,53916],[100,53999],[100,54083],[100,54166],[100,54249],[100,54333],[100,54416],[100,54499],[100,54583],[100,54666],[100,54749],[100,54833],[100,54916],[100,54999],[100,55083],[100,55166],[100,55249],[100,55333],[100,55416],[100,55499],[100,55583],[100,55666],[100,55749],[100,55833]]",303.7101,310.8933,99.89583333,1.69,"[{""rating"":99.89583333333334,""responseTime"":1.6900000000000546}]",space,6.6342,,310.8934,Not at all,0,310.8965,,,[],,0,1,1,1,1,audio/Narrative7Situation1.wav,audio/Narrative8Situation1.wav,audio/Narrative5Situation1.wav,audio/Narrative6Situation1.wav,2,5,5,2,2.7594,,,,,,,,,,,,,,,,,,,,,,,,,,,,,,,,,,,,,,
,,,,,6655e4f304ea91b8ecb46edc,2025-07-07_21h59.05.784,group3.4_multiperson,2023.2.2,Win32,60.24096386,686c2ebf0248f13bef9af11f,686c7b02a931d7cfcd6c9f36,,,,,,,,,,,,,,,,,,,,,,,,,,,,,310.8967,1,audio/Narrative7Situation2.wav,313.9099,,313.9099,321.3766,"[[999,0],[96.8,83],[95.9,166],[85.9,250],[71.1,333],[71.1,416],[71.1,499],[71.1,583],[63.8,667],[61.5,750],[61.4,834],[61.4,916],[61.3,1000],[61.3,1083],[61.3,1166],[61.3,1249],[61.3,1333],[61.3,1416],[61.3,1500],[61.3,1583],[61.3,1666],[61.3,1750],[61.3,1833],[61.3,1916],[61.3,2000],[61.3,2083],[61.3,2166],[61.3,2249],[61.3,2333],[61.3,2416],[61.3,2499],[61.7,2583],[71.6,2666],[89.3,2750],[89.9,2833],[93.4,2916],[97.1,3000],[99.4,3083],[100,3166],[100,3250],[100,3333],[100,3416],[100,3499],[100,3583],[100,3666],[100,3750],[100,3833],[100,3916],[100,3999],[100,4083],[100,4166],[100,4249],[100,4333],[100,4416],[100,4500],[100,4583],[100,4666],[100,4749],[100,4833],[100,4916],[100,5000],[100,5083],[100,5166],[100,5250],[100,5333],[100,5416],[100,5499],[100,5583],[100,5666],[100,5749],[100,5833],[100,5916],[100,6000],[100,6083],[100,6166],[100,6250],[100,6333],[100,6416],[100,6499],[100,6583],[100,6666],[100,6749],[100,6833],[100,6916],[100,6999],[100,7083],[100,7166],[100,7250],[100,7333],[100,7416]]",321.3767,325.2934,99.47916667,2.0396,"[{""rating"":99.47916666666667,""responseTime"":2.0396000000005188}]",space,3.3722,,325.2935,Not at all,0,325.2961,,,[],,0,2,2,2,1,audio/Narrative7Situation2.wav,audio/Narrative8Situation2.wav,audio/Narrative5Situation2.wav,audio/Narrative6Situation2.wav,3,3,3,3,,,,,,,,,,,,,,,,,,,,,,,,,,,,,,,,,,,,,,,
,,,,,6655e4f304ea91b8ecb46edc,2025-07-07_21h59.05.784,group3.4_multiperson,2023.2.2,Win32,60.24096386,686c2ebf0248f13bef9af11f,686c7b02a931d7cfcd6c9f36,,,,,,,,,,,,,,,,,,,,,,,,,,,,,325.2963,1,audio/Narrative7Situation3.wav,333.31,,333.31,342.578,"[[69.1,1000],[64.4,1083],[64.4,1166],[64.9,1250],[74.6,1333],[77.4,1416],[83.2,1500],[92.7,1583],[95.3,1666],[99.2,1750],[100,1833]]",342.5785,351.0433,57.1875,6.959,"[{""rating"":64.47916666666667,""responseTime"":5.837200000000166},{""rating"":57.1875,""responseTime"":6.959000000000003}]",space,7.9176,,351.0433,Partially,50,351.0464,,,[],,0,3,3,3,1,audio/Narrative7Situation3.wav,audio/Narrative8Situation3.wav,audio/Narrative5Situation3.wav,audio/Narrative6Situation3.wav,8,4,3,5,,,,,,,,,,,,,,,,,,,,,,,,,,,,,,,,,,,,,,,
,,,,,6655e4f304ea91b8ecb46edc,2025-07-07_21h59.05.784,group3.4_multiperson,2023.2.2,Win32,60.24096386,686c2ebf0248f13bef9af11f,686c7b02a931d7cfcd6c9f36,,,,,,,,,,,,,,,,,,,,,,,,,,,,,351.0465,1,audio/Narrative7Situation4.wav,354.0598,,354.0599,365.7935,"[[999,0],[999,83],[999,166],[999,250],[999,333],[999,416],[999,500],[999,583],[999,667],[999,750],[999,834],[999,916],[999,999],[999,1083],[999,1166],[999,1250],[999,1333],[999,1416],[999,1499],[999,1583],[999,1666],[999,1750],[999,1833],[999,1916],[999,2000],[999,2083],[999,2166],[51.8,2250],[48.5,2666],[47.5,2750],[47.5,2833],[49.3,2916],[50,3000],[50.1,3083],[50.1,3166],[50.1,3249],[50.1,3333],[50.1,3416],[50.1,3500],[50.1,3583],[50.1,3666],[50.1,3749],[50.1,3833],[50.1,3916],[50.1,3999],[50.1,4083],[50.1,4166],[50.1,4250],[50.1,4333],[50.1,4416],[50.1,4500],[48.8,4583],[46.6,4666],[40.1,4750],[15.4,4833],[8.3,4916],[8.3,5000],[8.3,5083],[8.3,5166],[8.3,5249],[8.3,5333],[8.3,5416],[8.3,5500],[8.3,5583],[8.3,5666],[8.3,5750],[8.3,5833],[8.3,5916],[8.3,5999],[8.3,6083],[8.3,6166],[8.3,6250],[8.3,6333],[8.3,6416],[8.3,6500],[8.3,6583],[8.3,6666],[8.3,6750],[8.3,6833],[8.3,6916],[8.3,7000],[8.3,7083],[8.3,7166],[8.3,7250],[8.3,7333],[8.3,7416],[8.3,7499],[8.3,7583],[7.5,7666],[5,7750],[1.7,7833]]",365.7936,368.81,0.3125,2.0125,"[{""rating"":0.3124999999999989,""responseTime"":2.0124999999999886}]",space,2.4678,,368.8101,Definitely yes,100,368.8131,,,[],,0,4,4,4,1,audio/Narrative7Situation4.wav,audio/Narrative8Situation4.wav,audio/Narrative5Situation4.wav,audio/Narrative6Situation4.wav,3,3,1,2,,,,,,,,,,,,,,,,,,,,,,,,,,,,,,,,,,,,,,,
,,,,,6655e4f304ea91b8ecb46edc,2025-07-07_21h59.05.784,group3.4_multiperson,2023.2.2,Win32,60.24096386,686c2ebf0248f13bef9af11f,686c7b02a931d7cfcd6c9f36,,,,,,,,,,,,,,,,,,,,,,,,,,,,,368.8132,1,audio/Narrative7Situation5.wav,373.8268,,373.8268,382.3268,"[[52.2,1333],[52.2,1416],[52.2,1499],[48.8,1583],[43.2,1666],[39.3,1749],[35,1833],[23.1,1916],[13.9,1999],[8.3,2083],[2.7,2166],[1.8,3583],[6.9,3666],[13,3749],[44.7,5083],[46.8,5166],[50.3,5250],[50.3,5333],[52.5,5416],[53.1,5499],[54.7,5583],[56.3,5666],[57.1,5749],[57.4,5833],[59.2,5916],[60.1,5999],[61.9,6083],[63.9,6166],[63.9,6249],[63.9,6332],[63.9,6416],[63.9,6499],[63.9,6583],[64.6,6666],[64.7,6749],[64.7,6833],[64.7,6916],[64.7,6999],[64.7,7083],[64.7,7166],[64.7,7249],[64.7,7333],[64.7,7416],[64.7,7499],[64.7,7583],[64.7,7666],[64.7,7749],[64.7,7833],[64.7,7916],[64.7,7999],[66.7,8083],[75.9,8166],[92.2,8249],[100,8333],[100,8416],[100,8499]]",382.3269,387.0433,77.60416667,3.4622,"[{""rating"":77.60416666666667,""responseTime"":3.4622000000001663}]",space,4.1672,,387.0435,Not at all,0,387.0463,,,[],,0,5,5,5,1,audio/Narrative7Situation5.wav,audio/Narrative8Situation5.wav,audio/Narrative5Situation5.wav,audio/Narrative6Situation5.wav,5,2,5,2,,,,,,,,,,,,,,,,,,,,,,,,,,,,,,,,,,,,,,,
,,,,,6655e4f304ea91b8ecb46edc,2025-07-07_21h59.05.784,group3.4_multiperson,2023.2.2,Win32,60.24096386,686c2ebf0248f13bef9af11f,686c7b02a931d7cfcd6c9f36,,,,,,,,,,,,,,,,,,,,,,,,,,,,,387.0465,1,audio/Narrative7Situation6.wav,390.0599,,390.0599,400.0267,"[[999,0],[999,83],[999,166],[999,250],[999,333],[999,416],[999,499],[999,583],[999,667],[999,750],[999,834],[999,916],[999,1000],[999,1083],[999,1166],[999,1250],[999,1333],[999,1416],[999,1500],[999,1583],[999,1666],[999,1750],[84.2,1833],[89.1,1916],[94.7,2000],[100,2083],[100,2166],[100,2250],[100,2333],[100,2416],[100,2500],[100,2583],[100,2666],[100,2750],[100,2833],[100,2916],[100,3000],[100,3083],[100,3166],[100,3249],[100,3333],[100,3416],[100,3500],[100,3583],[100,3666],[100,3750],[100,3833],[100,3916],[100,4000],[100,4083],[100,4166],[100,4249],[100,4333],[100,4416],[100,4500],[100,4583],[100,4666],[100,4750],[100,4833],[100,4916],[100,4999],[100,5083],[100,5166],[100,5249],[100,5333],[100,5416],[100,5500],[100,5583],[100,5666],[100,5749],[100,5833],[100,5916],[100,6000],[100,6083],[100,6166],[100,6249],[100,6333],[100,6416],[100,6500],[100,6583],[100,6666],[100,6750],[100,6833],[100,6916],[100,7000],[100,7083],[100,7166],[100,7249],[100,7333],[100,7416],[100,7499],[100,7583],[100,7666],[100,7749],[100,7833],[100,7916],[100,8000],[100,8083],[100,8166],[100,8249],[100,8333],[100,8416],[100,8500],[100,8583],[100,8666],[100,8750],[100,8833],[100,8916],[100,9000],[100,9083],[100,9166],[100,9250],[100,9333],[100,9416],[100,9500],[100,9583],[100,9666],[100,9750],[100,9833],[100,9916]]",400.0269,402.4267,99.375,1.4894,"[{""rating"":99.375,""responseTime"":1.489400000000387}]",space,1.8745,,402.4267,Definitely yes,100,402.4295,,,[],,0,6,6,6,1,audio/Narrative7Situation6.wav,audio/Narrative8Situation6.wav,audio/Narrative5Situation6.wav,audio/Narrative6Situation6.wav,3,2,3,2,,,,,,,,,,,,,,,,,,,,,,,,,,,,,,,,,,,,,,,
,,,,,6655e4f304ea91b8ecb46edc,2025-07-07_21h59.05.784,group3.4_multiperson,2023.2.2,Win32,60.24096386,686c2ebf0248f13bef9af11f,686c7b02a931d7cfcd6c9f36,,,,,,,,,,,,,,,,,,,,,,,,,,,,,402.4296,1,audio/Narrative7Situation7.wav,407.4434,,407.4434,424.6267,"[[90.5,999],[85.9,1083],[84.6,1166],[78.8,1250],[76,1333],[76,1416],[76,1500],[76,1583],[76,1666],[68,1749],[53.1,1833],[53,1916],[59.7,1999],[87,2083],[100,2166],[100,2249],[100,2333],[100,2416],[100,2500],[100,2583],[100,2666],[100,2749],[99.9,2833],[99.9,2916],[99.9,2999],[99.9,3083],[99.9,3166],[99.9,3249],[99.9,3333],[99.9,3416],[99.9,3499],[99.9,3583],[99.9,3666],[99.9,3750],[99.9,3833],[99.9,3916],[99.9,3999],[99.9,4083],[99.9,4166],[99.9,4249],[99.9,4333],[99.9,4416],[99.9,4499],[99.9,4583],[99.9,4666],[99.9,4749],[99.9,4833],[99.9,4916],[99.9,4999],[99.9,5084],[99.9,5166],[99.9,5249],[99.9,5333],[99.9,5416],[99.9,5499],[99.9,5583],[99.9,5666],[99.9,5749],[99.9,5833],[99.9,5916],[99.9,5999],[99.9,6083],[99.9,6166],[99.9,6249],[99.9,6333],[99.9,6416],[99.9,6499],[99.9,6583],[99.9,6666],[99.9,6749],[99.9,6833],[99.9,6916],[99.9,6999],[99.9,7083],[99.9,7166],[99.9,7250],[99.9,7333],[99.9,7416],[99.9,7499],[99.9,7583],[99.9,7666],[99.9,7749],[99.9,7833],[99.9,7916],[99.9,7999],[99.9,8083],[99.9,8166],[99.9,8249],[99.9,8333],[99.9,8416],[99.9,8499],[99.9,8583],[99.9,8666],[99.9,8750],[99.9,8833],[99.9,8916],[99.9,8999],[99.9,9083],[99.9,9166],[99.9,9250],[99.9,9333],[99.9,9416],[99.9,9499],[99.9,9583],[99.9,9666],[99.9,9749],[99.9,9833],[99.9,9916],[99.9,9999],[99.9,10083],[99.9,10166],[99.9,10249],[99.9,10333],[99.9,10416],[99.9,10499],[99.9,10583],[99.9,10666],[99.9,10749],[99.9,10833],[99.9,10916],[99.9,10999],[99.9,11083],[99.9,11166],[99.9,11249],[99.9,11333],[99.9,11416],[99.9,11499],[99.9,11584],[99.9,11666],[99.9,11749],[99.9,11833],[99.9,11916],[99.9,11999],[99.9,12083],[99.9,12166],[99.9,12249],[99.9,12333],[99.9,12416],[99.9,12499],[99.9,12583],[99.9,12666],[99.9,12749],[99.9,12833],[99.9,12916],[99.9,12999],[99.9,13083],[99.9,13166],[99.9,13249],[99.9,13333],[99.9,13416],[99.9,13499],[99.9,13583],[99.9,13666],[99.9,13749],[99.9,13833],[99.9,13916],[99.9,13999],[99.9,14083],[99.9,14166],[99.9,14249],[99.9,14333],[99.9,14416],[99.9,14499],[99.9,14583],[99.9,14666],[99.9,14749],[99.9,14833],[99.9,14916],[99.9,14999],[99.9,15083],[99.9,15166],[99.9,15249],[99.9,15333],[99.9,15416],[99.9,15499],[99.9,15583],[99.9,15666],[99.9,15749],[99.9,15833],[99.9,15916],[99.9,15999],[99.9,16083],[99.9,16166],[99.9,16249],[99.9,16333],[99.9,16416],[99.9,16499],[99.9,16583],[99.9,16666],[99.9,16749],[99.9,16833],[99.9,16916],[99.9,16999],[99.9,17083],[99.9,17166]]",424.6268,427.46,99.58333333,1.3267,"[{""rating"":99.58333333333333,""responseTime"":1.3266999999992777}]",space,2.2839,,427.4601,Definitely yes,100,427.4622,,,[],,0,7,7,7,1,audio/Narrative7Situation7.wav,audio/Narrative8Situation7.wav,audio/Narrative5Situation7.wav,audio/Narrative6Situation7.wav,5,3,4,5,,,,,,,,,,,,,,,,,,,,,,,,,,,,,,,,,,,,,,,
,,,,,6655e4f304ea91b8ecb46edc,2025-07-07_21h59.05.784,group3.4_multiperson,2023.2.2,Win32,60.24096386,686c2ebf0248f13bef9af11f,686c7b02a931d7cfcd6c9f36,,,,,,,,,,,,,,,,,,,,,,,,,,,,,427.4624,1,audio/Narrative7Situation8.wav,429.4765,,429.4765,439.4934,"[[99.6,1500],[99.1,1583],[99.1,1666],[99.1,1750],[99,1833],[99,1916],[99,2000],[99,2083],[99.4,2167],[99.5,2250],[100,2333],[100,2416],[100,2500],[100,2583],[100,2666],[100,2749],[100,2833],[100,2916],[100,3000],[100,3083],[100,3166],[100,3250],[100,3333],[100,3416],[100,3500],[100,3583],[100,3666],[100,3750],[100,3833],[100,3916],[100,4000],[100,4083],[100,4166],[100,4250],[100,4333],[100,4416],[100,4500],[100,4583],[100,4666],[100,4750],[100,4833],[100,4916],[100,4999],[100,5083],[100,5166],[100,5250],[100,5333],[100,5416],[100,5499],[100,5583],[100,5666],[100,5749],[100,5833],[100,5916],[100,6000],[100,6083],[100,6166],[100,6249],[100,6333],[100,6416],[100,6499],[100,6583],[100,6666],[100,6750],[100,6833],[100,6916],[100,7000],[100,7083],[100,7166],[100,7250],[100,7333],[100,7416],[100,7499],[100,7583],[100,7666],[100,7750],[100,7833],[100,7916],[100,8000],[100,8083],[100,8166],[100,8250],[100,8333],[100,8416],[100,8500],[100,8583],[100,8666],[100,8749],[100,8833],[100,8916],[100,9000],[100,9083],[100,9166],[100,9250],[100,9333],[100,9416],[100,9500],[100,9583],[100,9666],[100,9750],[100,9833],[100,9916],[100,10000]]",439.4934,442.91,99.375,2.4395,"[{""rating"":99.375,""responseTime"":2.4395000000000095}]",space,2.8676,,442.91,Not at all,0,442.9127,,,[],,0,8,8,8,1,audio/Narrative7Situation8.wav,audio/Narrative8Situation8.wav,audio/Narrative5Situation8.wav,audio/Narrative6Situation8.wav,2,3,3,5,,,,,,,,,,,,,,,,,,,,,,,,,,,,,,,,,,,,,,,
,,,,,6655e4f304ea91b8ecb46edc,2025-07-07_21h59.05.784,group3.4_multiperson,2023.2.2,Win32,60.24096386,686c2ebf0248f13bef9af11f,686c7b02a931d7cfcd6c9f36,,,,,,,,,,,,,,,,,,,,,,,,,,,,,442.9128,1,audio/Narrative7Situation9.wav,444.9264,,444.9264,453.5435,"[[98.3,1250],[98.2,1333],[98.2,1416],[98.5,1500],[98.9,1583],[99.7,1667],[100,1750],[100,1833],[100,1916],[100,2000],[100,2083],[100,2166],[100,2250],[100,2333],[100,2416],[100,2500],[100,2583],[100,2666],[100,2750],[100,2833],[100,2917],[100,3000],[100,3083],[100,3166],[100,3250],[100,3333],[100,3416],[100,3500],[100,3583],[100,3666],[100,3751],[100,3833],[100,3916],[100,4000],[100,4083],[100,4166],[100,4250],[100,4333],[100,4416],[100,4500],[100,4583],[100,4666],[100,4750],[100,4833],[100,4917],[100,5000],[100,5083],[100,5166],[100,5250],[100,5333],[100,5416],[100,5500],[100,5583],[100,5666],[100,5750],[100,5833],[100,5916],[100,6000],[100,6083],[100,6166],[100,6250],[100,6333],[100,6416],[100,6500],[100,6583],[100,6666],[100,6750],[100,6833],[100,6916],[100,7000],[100,7083],[100,7166],[100,7250],[100,7333],[100,7416],[100,7500],[100,7583],[100,7666],[100,7750],[100,7833],[100,7916],[100,8000],[100,8083],[100,8166],[100,8250],[100,8333],[100,8416],[100,8500],[100,8583]]",453.5436,460.7767,99.375,3.3137,"[{""rating"":99.375,""responseTime"":3.3137000000001535}]",space,6.6855,,460.7767,Not at all,0,460.7786,,,[],,0,9,9,9,1,audio/Narrative7Situation9.wav,audio/Narrative8Situation9.wav,audio/Narrative5Situation9.wav,audio/Narrative6Situation9.wav,2,3,3,4,,,,,,,,,,,,,,,,,,,,,,,,,,,,,,,,,,,,,,,
,,,,,6655e4f304ea91b8ecb46edc,2025-07-07_21h59.05.784,group3.4_multiperson,2023.2.2,Win32,60.24096386,686c2ebf0248f13bef9af11f,686c7b02a931d7cfcd6c9f36,,,,,,,,,,,,,,,,,,,,,,,,,,,,,460.7791,1,audio/Narrative8Situation1.wav,465.7933,,465.7934,481.7268,"[[98.8,3083],[53.9,3750],[53,3833],[52.2,3916],[51.8,4000],[49.9,4083],[45.8,4166],[40.2,4250],[40.2,4333],[40.2,4416],[40.2,4499],[39.7,4583],[39.6,4666],[39.6,4749],[39.6,4833],[39.6,4916],[39.6,4999],[39.6,5082],[39.6,5166],[39.6,5249],[39.6,5333],[39.6,5416],[39.6,5499],[39.6,5583],[39.6,5666],[39.6,5749],[39.6,5832],[39.6,5916],[39.6,5999],[39.6,6083],[39.6,6166],[39.6,6249],[37.4,6333],[19.7,6416],[19.2,6499],[17.4,6583],[7.8,6666],[6.3,6749],[6.3,6833],[6.3,6916],[6.3,6999],[6.3,7082],[5.7,7166],[5.7,7249],[5.7,7333],[5.5,7416],[2.3,7500],[2.2,7583],[2.2,7666],[2.2,7749],[2.2,7833],[2.2,7916],[2.2,7999],[2.2,8083],[2.2,8166],[2.2,8249],[2.2,8333],[2.2,8416],[2.2,8499],[2.2,8583],[2.2,8666],[2.2,8749],[2.2,8833],[2.2,8916],[2.2,8999],[2.2,9083],[2.2,9166],[2.2,9249],[2.2,9333],[2.2,9416],[2.2,9499],[2.2,9583],[2.2,9666],[2.2,9749],[2.2,9833],[2.2,9916],[2.2,9999],[2.2,10083],[2.2,10166],[2.2,10249],[2.2,10332],[2.2,10416],[2.2,10499],[2.2,10583],[2.2,10666],[2.2,10749],[2.2,10833],[2.2,10916],[2.2,10999],[2.2,11083],[2.2,11166],[2.2,11249],[2.2,11333],[2.2,11416],[2.2,11499],[2.2,11582],[2.2,11666],[2.2,11749],[2.2,11833],[2.2,11916],[2.2,11999],[2.2,12083],[2.2,12166],[2.2,12249],[2.2,12333],[2.2,12416],[2.2,12499],[2.2,12583],[2.2,12666],[2.2,12749],[2.2,12833],[2.2,12916],[2.2,12999],[2.2,13083],[2.2,13166],[2.2,13249],[2.2,13333],[2.2,13416],[2.2,13499],[2.2,13583],[2.2,13666],[2.2,13749],[2.2,13832],[2.2,13916],[2.2,13999],[2.2,14083],[2.2,14166],[2.2,14249],[2.2,14333],[2.2,14416],[2.2,14499],[2.2,14583],[2.2,14666],[2.2,14749],[2.2,14833],[2.2,14916],[5.5,14999],[7.3,15083],[11.9,15166],[25.9,15249],[31.9,15333],[32.8,15416],[33.1,15499],[34,15583],[34.4,15666],[35,15749],[35,15833],[35,15916]]",481.7269,485.61,22.29166667,2.8723,"[{""rating"":22.291666666666664,""responseTime"":2.8722999999997683}]",space,3.3343,,485.61,Definitely yes,100,485.6133,,,[],,0,10,10,10,1,audio/Narrative8Situation1.wav,audio/Narrative7Situation1.wav,audio/Narrative6Situation1.wav,audio/Narrative5Situation1.wav,5,2,2,5,,,,,,,,,,,,,,,,,,,,,,,,,,,,,,,,,,,,,,,
,,,,,6655e4f304ea91b8ecb46edc,2025-07-07_21h59.05.784,group3.4_multiperson,2023.2.2,Win32,60.24096386,686c2ebf0248f13bef9af11f,686c7b02a931d7cfcd6c9f36,,,,,,,,,,,,,,,,,,,,,,,,,,,,,485.6136,1,audio/Narrative8Situation2.wav,488.6266,,488.6266,498.76,"[[26.3,3166],[27.3,3250],[27.4,3333],[28.5,3416],[39.2,3500],[68.4,3583],[83.3,3666],[83.3,3750],[83.3,3833],[83.8,3916],[84.4,4000],[74.4,4083],[25.1,4166],[9.2,4250],[8.9,4333],[8.6,4416],[8.6,4500],[8.3,4583],[8.1,4666],[5.2,4749],[1.6,4833],[1.6,4916],[1.6,4999],[1.6,5083],[1.6,5166],[1.6,5249],[1.6,5333],[0.3,6083],[0.3,6166],[0.3,6249],[1,6333],[1,6416],[1.1,6500],[1.5,6583],[1.5,6666],[1.5,6749],[1.5,6832],[1.5,6916],[1.5,7000],[1.5,7083],[1.5,7166],[1.5,7249],[1.5,7333],[1.5,7416],[1.5,7499],[0.5,7583]]",498.7601,502.6266,0,2.8998,"[{""rating"":0,""responseTime"":2.8998000000007096}]",space,3.3175,,502.6266,Partially,50,502.6296,,,[],,0,11,11,11,1,audio/Narrative8Situation2.wav,audio/Narrative7Situation2.wav,audio/Narrative6Situation2.wav,audio/Narrative5Situation2.wav,3,3,3,3,,,,,,,,,,,,,,,,,,,,,,,,,,,,,,,,,,,,,,,
,,,,,6655e4f304ea91b8ecb46edc,2025-07-07_21h59.05.784,group3.4_multiperson,2023.2.2,Win32,60.24096386,686c2ebf0248f13bef9af11f,686c7b02a931d7cfcd6c9f36,,,,,,,,,,,,,,,,,,,,,,,,,,,,,502.6298,1,audio/Narrative8Situation3.wav,506.6434,,506.6434,529.0267,"[[999,0],[999,83],[999,166],[999,249],[999,333],[999,416],[999,499],[999,583],[999,666],[999,750],[999,833],[999,916],[999,999],[999,1083],[999,1166],[999,1250],[10.5,1333],[9.2,1416],[8.1,1499],[5.9,1583],[4.8,1666],[2.3,1749],[0.7,1833],[0.7,1916],[0.7,1999],[0.7,2083],[0.7,2166],[0.7,2250],[0.7,2333],[0.7,2416],[0.7,2500],[0.7,2583],[0.7,2666],[0.7,2749],[0.7,2833],[0.7,2916],[0.7,2999],[0.7,3083],[0.7,3166],[0.7,3249],[0.7,3333],[0.7,3416],[0.7,3499],[0.7,3583],[0.7,3666],[0.7,3749],[0.7,3833],[0.7,3916],[0.7,3999],[0.7,4083],[0.7,4166],[0.7,4250],[0.7,4333],[0.7,4416],[0.7,4499],[0.7,4583],[0.7,4666],[0.7,4749],[0.7,4833],[0.7,4916],[0.7,4999],[1.1,5083],[9.1,5166],[20,5250],[36.6,5333],[48,5416],[57.6,5499],[65.2,5583],[73.1,5666],[80,5750],[86,5833],[91.3,5916],[92.8,5999],[92.9,6083],[92.9,6166],[92.9,6249],[92.9,6333],[92.9,6416],[92.9,6499],[90.8,6583],[89.7,6666],[86.8,6750],[82.8,6833],[76.3,6916],[73.6,6999],[73.6,7083],[73.6,7166],[73.6,7249],[73.6,7333],[73.6,7416],[73.6,7499],[73.6,7583],[73.6,7666],[73.6,7749],[73.6,7833],[73.6,7916],[73,7999],[71.7,8083],[71.7,8166],[70.4,8250],[54.7,8333],[50.4,8416],[49.3,8500],[43.6,8583],[43.5,8666],[43.5,8749],[43.5,8833],[43.5,8916],[43.5,8999],[43.5,9083],[43.8,9166],[43.8,9249],[43.8,9333],[43.8,9416],[44.9,9499],[44.9,9583],[44.9,9666],[44.9,9749],[44.9,9833],[44.9,9916],[44.9,9999],[44.9,10083],[44.9,10166],[44.9,10249],[41.8,10333],[35,10416],[33.5,10500],[18,10583],[6.3,10666],[2.7,10749],[3.1,11000],[6.4,11083],[9.2,11166],[10.6,11250],[11.9,11333],[20.9,11416],[26.1,11500],[35.9,11999],[35.9,12083],[36.5,12166],[39.8,12249],[40.8,12333],[42.8,12416],[45.5,12500],[45.5,12583],[45.5,12666],[47.1,12750],[47.1,12833],[47,12916],[47,12999],[47,13083],[47,13166],[46.5,13249],[46.5,13333],[46.5,13416],[46.5,13499],[46.5,13583],[46.5,13666],[46.5,13749],[46.5,13833],[46.5,13916],[46.5,13999],[46.5,14083],[46.5,14166],[46.5,14249],[46.5,14332],[46.5,14416],[46.5,14499],[46.5,14582],[46.5,14666],[46.5,14749],[46.5,14833],[46.5,14916],[46.5,14999],[46.5,15083],[46.5,15166],[46.5,15249],[46.5,15333],[46.5,15416],[46.5,15499],[46.1,15583],[46.1,15666],[46.1,15749],[46.1,15833],[45.3,15916],[44.7,15999],[44.7,16083],[44.7,16166],[44.7,16249],[44.7,16333],[44.7,16416],[44.7,16499],[46.5,16583],[46.5,16666],[46.5,16749],[46.1,16833],[45.8,16916],[46.8,16999],[48.6,17083],[48.6,17166],[50.2,17249],[50.7,17333],[50.7,17416],[50.7,17499],[50.7,17583],[50.3,17666],[49.4,17750],[49.4,17833],[49.4,17916],[49.4,17999],[49.4,18083],[49.2,18166],[49.2,18249],[49.2,18333],[49.2,18416],[49.2,18499],[49.2,18583],[49.2,18666],[49.2,18749],[49.2,18833],[49.1,18916],[49.7,18999],[49.9,19083],[49.9,19166],[49.9,19249],[49.9,19333],[49.9,19416],[49.9,19500],[49.9,19583],[49.9,19666],[49.9,19749],[49.9,19833],[49.9,19916],[49.9,19999],[49.9,20083],[49.9,20166],[49.9,20249],[49.9,20333],[49.9,20416],[49.9,20499],[49.9,20583],[49.9,20666],[49.9,20749],[49.9,20833],[49.9,20916],[49.9,20999],[49.9,21083],[49.9,21166],[49.9,21250],[49.9,21333],[49.9,21416],[49.9,21499],[49.9,21583],[49.9,21666],[49.9,21749],[49.9,21833],[48.6,21916],[48.4,21999],[47.4,22083],[45.9,22166],[45.7,22249],[45.6,22334]]",529.0268,531.9098,41.97916667,1.6963,"[{""rating"":41.979166666666664,""responseTime"":1.6962999999998374}]",space,2.3379,,531.9099,Not at all,0,538.9767,0.416666667,4.5813,"[{""rating"":0.4166666666666652,""responseTime"":4.581299999999828}]",space,0,12,12,12,1,audio/Narrative8Situation3.wav,audio/Narrative7Situation3.wav,audio/Narrative6Situation3.wav,audio/Narrative5Situation3.wav,4,8,5,3,,,6.5351,,,,,,,,,,,,,,,,,,,,,,,,,,,,,,,,,,,,
,,,,,6655e4f304ea91b8ecb46edc,2025-07-07_21h59.05.784,group3.4_multiperson,2023.2.2,Win32,60.24096386,686c2ebf0248f13bef9af11f,686c7b02a931d7cfcd6c9f36,,,,,,,,,,,,,,,,,,,,,,,,,,,,,538.977,1,audio/Narrative8Situation4.wav,541.9934,,541.9934,556.1768,"[[27.9,2166],[32.3,2250],[36.1,2334],[40.2,2416],[47.2,2499],[47.2,2583],[47.2,2666],[45.6,2750],[28.3,2833],[23.3,2916],[20.3,3000],[9.5,3083],[9.1,3166],[21.7,3249],[96.3,3833],[94.2,3916],[94.2,3999],[99.6,4083],[100,4166],[100,4249],[100,4333],[100,4416],[100,4499],[100,4583],[100,4666],[100,4749],[100,4833],[100,4916],[100,4999],[100,5083],[100,5166],[100,5249],[100,5333],[100,5416],[100,5499],[100,5583],[100,5666],[100,5749],[100,5833],[100,5916],[100,5999],[100,6083],[100,6166],[100,6249],[100,6333],[100,6416],[100,6499],[100,6583],[100,6666],[100,6749],[100,6833],[100,6916],[100,6999],[100,7084],[100,7166],[100,7249],[100,7333],[100,7416],[100,7499],[100,7582],[100,7666],[100,7749],[100,7833],[100,7916],[100,7999],[100,8083],[100,8166],[100,8250],[100,8333],[100,8416],[100,8500],[100,8583],[100,8666],[100,8749],[100,8833],[100,8916],[100,8999],[100,9083],[100,9166],[100,9249],[100,9333],[100,9416],[100,9500],[100,9916],[99.8,10000],[99.8,10083],[99.8,10166],[99.8,10249],[99.7,10332],[99.5,10416],[99.5,10499],[99.9,10583],[100,10666],[100,10749],[100,10833],[100,10916],[100,10999],[100,11083],[100,11166],[100,11249],[100,11333],[100,11416],[100,11499],[100,11583],[100,11666],[100,11749],[100,11833],[100,11916],[100,11999],[100,12083],[100,12166],[100,12249],[100,12332],[100,12416],[100,12499],[100,12583],[100,12666],[100,12749],[100,12833],[100,12916],[100,12999],[100,13083],[100,13166],[100,13249],[100,13333],[100,13416],[100,13499],[100,13583],[100,13666],[100,13749],[100,13832],[100,13916],[100,13999],[100,14083],[100,14166]]",556.1769,561.5434,98.85416667,1.3223,"[{""rating"":98.85416666666667,""responseTime"":1.3222999999998137}]",space,4.8172,,561.5435,Partially,50,561.5466,,,[],,0,13,13,13,1,audio/Narrative8Situation4.wav,audio/Narrative7Situation4.wav,audio/Narrative6Situation4.wav,audio/Narrative5Situation4.wav,3,3,2,1,,,,,,,,,,,,,,,,,,,,,,,,,,,,,,,,,,,,,,,
,,,,,6655e4f304ea91b8ecb46edc,2025-07-07_21h59.05.784,group3.4_multiperson,2023.2.2,Win32,60.24096386,686c2ebf0248f13bef9af11f,686c7b02a931d7cfcd6c9f36,,,,,,,,,,,,,,,,,,,,,,,,,,,,,561.5468,1,audio/Narrative8Situation5.wav,563.56,,563.5601,571.8099,"[[99,1999],[100,2083],[100,2166],[100,2250],[99.4,2333],[99.4,2416],[99.4,2499],[99.4,2583],[99.4,2666],[99.2,2749],[99.2,2833],[99.2,2916],[99.2,2999],[99.2,3083],[99.2,3166],[99.2,3249],[99.2,3333],[99.2,3416],[99.2,3499],[99.2,3583],[99.2,3666],[99.2,3749],[99.2,3833],[99.2,3916],[99.2,3999],[99.2,4083],[99.2,4166],[99.2,4249],[99.2,4333],[99.2,4416],[99.2,4499],[99.2,4583],[99.2,4666],[99.2,4749],[99.2,4833],[99.2,4916],[99.2,5000],[99.2,5083],[99.2,5166],[99.2,5249],[99.2,5332],[99.2,5416],[99.2,5499],[99.2,5582],[99.2,5666],[99.2,5749],[99.2,5833],[99.2,5916],[99.2,5999],[99.2,6083],[99.2,6166],[99.2,6249],[99.2,6332],[99.2,6416],[99.2,6500],[99.2,6583],[99.2,6666],[99.2,6749],[99.2,6833],[99.2,6916],[99.2,6999],[99.2,7083],[99.2,7166],[99.2,7249],[99.2,7333],[99.2,7416],[99.2,7499],[99.2,7583],[99.2,7666],[99.2,7749],[99.2,7833],[99.2,7916],[99.2,7999],[99.2,8083],[99.2,8166],[99.2,8249]]",571.81,574.3267,99.27083333,1.4897,"[{""rating"":99.27083333333333,""responseTime"":1.489700000000198}]",space,1.9709,,574.3268,Partially,50,574.3291,,,[],,0,14,14,14,1,audio/Narrative8Situation5.wav,audio/Narrative7Situation5.wav,audio/Narrative6Situation5.wav,audio/Narrative5Situation5.wav,2,5,2,5,,,,,,,,,,,,,,,,,,,,,,,,,,,,,,,,,,,,,,,
,,,,,6655e4f304ea91b8ecb46edc,2025-07-07_21h59.05.784,group3.4_multiperson,2023.2.2,Win32,60.24096386,686c2ebf0248f13bef9af11f,686c7b02a931d7cfcd6c9f36,,,,,,,,,,,,,,,,,,,,,,,,,,,,,574.3293,1,audio/Narrative8Situation6.wav,576.3433,,576.3433,582.8267,"[[98.1,750],[94.1,834],[94.1,916],[100,1416],[100,1500],[99.6,1583],[99.4,1666],[99.4,1750],[100,1833],[100,1916],[100,2000],[100,2083],[100,2166],[100,2250],[100,2333],[100,2416],[100,2500],[100,2583],[100,2666],[100,2750],[100,2833],[100,2916],[100,2999],[100,3083],[100,3166],[100,3249],[100,3333],[100,3416],[100,3499],[100,3583],[100,3666],[100,3749],[100,3833],[100,3916],[100,4000],[100,4083],[100,4166],[100,4250],[100,4333],[100,4416],[100,4500],[100,4583],[100,4666],[100,4750],[100,4833],[100,4916],[100,4999],[100,5083],[100,5166],[100,5250],[100,5333],[100,5416],[100,5500],[100,5583],[100,5666],[100,5750],[100,5833],[100,5916],[100,6000],[100,6083],[100,6166],[100,6250],[100,6333],[100,6416]]",582.8268,588.7933,99.47916667,2.5099,"[{""rating"":99.47916666666667,""responseTime"":2.5098999999994476}]",space,5.4255,,588.7934,Definitely yes,100,588.7962,,,[],,0,15,15,15,1,audio/Narrative8Situation6.wav,audio/Narrative7Situation6.wav,audio/Narrative6Situation6.wav,audio/Narrative5Situation6.wav,2,3,2,3,,,,,,,,,,,,,,,,,,,,,,,,,,,,,,,,,,,,,,,
,,,,,6655e4f304ea91b8ecb46edc,2025-07-07_21h59.05.784,group3.4_multiperson,2023.2.2,Win32,60.24096386,686c2ebf0248f13bef9af11f,686c7b02a931d7cfcd6c9f36,,,,,,,,,,,,,,,,,,,,,,,,,,,,,588.7962,1,audio/Narrative8Situation7.wav,591.8099,,591.8099,603.9102,"[[100,1166],[100,1250],[100,1333],[100,1416],[100,1499],[100,1583],[100,1666],[89.2,1750],[65.8,1833],[56.4,1917],[54.4,2000],[49.1,2083],[36.1,2166],[34.4,2250],[34.6,2333],[34.9,2416],[34.9,2500],[33.4,2583],[31.1,2666],[30.9,2750],[38.2,2833],[65.1,2916],[66.3,3000],[63.2,3083],[59.5,3166],[66.6,3250],[82.6,3333],[83.3,3416],[80.3,3500],[73.1,3583],[65.6,3666],[57.5,3750],[54.5,3833],[52.5,3916],[51.3,4000],[50.8,4083],[51.5,4166],[60.4,4250],[77.6,4333],[80.5,4416],[82.5,4500],[84.9,4583],[85,4666],[85,4750],[85,4833],[85,4916],[85,5000],[85,5083],[85,5166],[85,5250],[85,5333],[85,5416],[85,5500],[85,5583],[85,5666],[85,5750],[85,5833],[85,5916],[85,5999],[85,6083],[85,6166],[85,6249],[85,6333],[85,6416],[85,6500],[85,6583],[85,6666],[85,6750],[85,6833],[85,6916],[85,7000],[85,7083],[85,7166],[85,7250],[85,7333],[85,7416],[85,7500],[85,7583],[85,7666],[85,7750],[85,7833],[85,7916],[85,8000],[85,8083],[84.6,8167],[84.6,8249],[84.6,8333],[84.6,8416],[84.5,8500],[84.7,8583],[89.4,8666],[100,8750],[100,8833],[100,8916],[100,9000],[100,9083],[100,9166],[100,9249],[100,9333],[100,9416],[100,9500],[100,9583],[100,9666],[100,9750],[100,9833],[100,9916],[100,10000],[100,10083],[100,10166],[100,10250],[100,10333],[100,10416],[100,10500],[100,10583],[100,10666],[100,10750],[100,10833],[100,10916],[100,11000],[100,11083],[100,11166],[100,11250],[100,11333],[100,11416],[100,11499],[100,11583],[100,11668],[100,11750],[100,11833],[100,11916],[100,11999],[100,12083]]",603.9102,606.36,99.27083333,1.4247,"[{""rating"":99.27083333333333,""responseTime"":1.4247000000001435}]",space,1.9112,,606.36,Not at all,0,606.3627,,,[],,0,16,16,16,1,audio/Narrative8Situation7.wav,audio/Narrative7Situation7.wav,audio/Narrative6Situation7.wav,audio/Narrative5Situation7.wav,3,5,5,4,,,,,,,,,,,,,,,,,,,,,,,,,,,,,,,,,,,,,,,
,,,,,6655e4f304ea91b8ecb46edc,2025-07-07_21h59.05.784,group3.4_multiperson,2023.2.2,Win32,60.24096386,686c2ebf0248f13bef9af11f,686c7b02a931d7cfcd6c9f36,,,,,,,,,,,,,,,,,,,,,,,,,,,,,606.3629,1,audio/Narrative8Situation8.wav,609.3766,,609.3766,622.2435,"[[99.1,1000],[97.2,1416],[95.3,1500],[95.3,1583],[95.3,1666],[95.3,1749],[95.3,1833],[95.2,1916],[95.6,2000],[96.9,2083],[96.9,2166],[96.9,2250],[98.3,2333],[99.3,2416],[99.3,2500],[99.3,2583],[99.3,2666],[99.3,2750],[99.3,2833],[99.3,2916],[99.3,2999],[99.3,3083],[99.3,3166],[99.3,3249],[99.3,3333],[99.3,3416],[99.3,3499],[99.3,3583],[99.3,3666],[99.3,3750],[99.3,3833],[99.3,3916],[99.3,3999],[99.3,4083],[99.3,4166],[99.3,4250],[99.3,4333],[99.3,4416],[99.3,4499],[99.3,4583],[99.3,4666],[99.3,4749],[99.3,4833],[99.3,4916],[99.3,5000],[99.3,5083],[99.3,5166],[99.3,5250],[99.3,5333],[99.3,5416],[99.3,5499],[99.3,5583],[99.3,5666],[99.3,5750],[99.3,5833],[99.3,5916],[99.3,5999],[99.3,6083],[99.3,6166],[99.3,6250],[99.3,6333],[99.3,6416],[99.3,6500],[99.3,6583],[99.3,6666],[99.3,6749],[99.3,6833],[99.3,6916],[99.3,7000],[99.3,7083],[99.3,7166],[99.3,7249],[99.3,7333],[99.3,7416],[99.3,7499],[99.3,7583],[99.3,7666],[99.3,7750],[99.3,7833],[99.3,7916],[99.3,7999],[99.3,8083],[99.3,8166],[99.3,8250],[99.3,8333],[99.3,8416],[99.3,8500],[99.3,8583],[99.3,8666],[99.3,8749],[99.3,8833],[99.3,8916],[99.3,9000],[99.3,9083],[99.3,9166],[99.3,9249],[99.3,9333],[99.3,9416],[99.3,9499],[99.3,9583],[99.3,9666],[99.3,9750],[99.3,9833],[99.3,9916],[99.3,9999],[99.3,10083],[99.3,10166],[99.3,10249],[99.3,10333],[99.3,10416],[99.3,10499],[99.3,10583],[99.3,10666],[99.3,10750],[99.3,10833],[99.3,10916],[99.3,10999],[99,11083],[99,11166],[99,11250],[99,11333],[99,11416],[99,11500],[97.9,11583],[97.8,11666],[97.4,11750],[97.3,11833],[97.3,11916],[97.5,12000],[99.3,12083],[99.4,12166],[99.4,12250],[99.7,12333],[99.7,12416],[99.7,12499],[99.7,12583],[99.7,12666],[99.7,12750],[99.8,12833]]",622.2436,624.5434,98.64583333,1.0904,"[{""rating"":98.64583333333333,""responseTime"":1.0903999999994767}]",space,1.7506,,624.5434,Definitely yes,100,624.5462,,,[],,0,17,17,17,1,audio/Narrative8Situation8.wav,audio/Narrative7Situation8.wav,audio/Narrative6Situation8.wav,audio/Narrative5Situation8.wav,3,2,5,3,,,,,,,,,,,,,,,,,,,,,,,,,,,,,,,,,,,,,,,
,,,,,6655e4f304ea91b8ecb46edc,2025-07-07_21h59.05.784,group3.4_multiperson,2023.2.2,Win32,60.24096386,686c2ebf0248f13bef9af11f,686c7b02a931d7cfcd6c9f36,,,,,,,,,,,,,,,,,,,,,,,,,,,,,624.5464,1,audio/Narrative8Situation9.wav,627.56,,627.5601,638.8933,"[[100,751],[97,1583],[96.8,1666],[97.3,1749],[99.1,1833],[99.1,1916],[99.1,1999],[99.1,2083],[99.1,2166],[99.3,2250],[99.3,2333],[99.3,2416],[99.3,2499],[99.3,2583],[99.3,2666],[99.3,2749],[99.3,2833],[99.3,2916],[99.3,2999],[99.3,3083],[99.3,3166],[99.3,3249],[99.3,3333],[99.3,3416],[99.3,3499],[99.3,3583],[99.3,3666],[99.3,3749],[99.3,3833],[99.3,3916],[99.3,3999],[99.3,4083],[99.3,4166],[99.3,4249],[99.3,4333],[99.3,4416],[99.3,4499],[99.3,4583],[99.3,4666],[99.3,4749],[99.3,4833],[99.3,4916],[99.3,4999],[99.3,5083],[99.3,5166],[99.3,5249],[99.3,5333],[99.3,5416],[99.3,5499],[99.3,5583],[99.3,5666],[99.3,5749],[99.3,5833],[99.3,5916],[99.3,5999],[99.3,6083],[99.3,6166],[99.3,6249],[99.3,6333],[99.3,6416],[99.3,6499],[99.3,6583],[99.3,6666],[99.3,6749],[99.3,6833],[99.3,6916],[99.3,6999],[99.3,7083],[99.3,7166],[99.3,7249],[99.3,7333],[99.3,7416],[99.3,7499],[99.3,7583],[99.3,7666],[99.3,7749],[99.3,7833],[99.3,7916],[99.3,7999],[99.3,8083],[99.3,8166],[99.3,8249],[99.3,8333],[99.3,8416],[99.3,8499],[99.3,8583],[99.3,8666],[99.3,8749],[99.3,8832],[99.3,8916],[99.3,8999],[99.3,9083],[99.3,9166],[99.3,9249],[99.3,9332],[99.3,9416],[99.3,9499],[99.3,9583],[99.3,9666],[99.3,9749],[99.3,9833],[99.3,9916],[99.3,9999],[99.3,10083],[99.3,10166],[99.3,10249],[99.3,10333],[99.3,10416],[99.3,10499],[99.3,10583],[99.3,10666],[99.3,10749],[99.3,10833],[99.3,10916],[99.3,10999],[99.3,11083],[99.3,11166],[99.3,11249],[99.3,11333]]",638.8934,641.0099,99.16666667,1.3235,"[{""rating"":99.16666666666667,""responseTime"":1.323500000000081}]",space,1.5679,,641.01,Definitely yes,100,641.0113,,,[],,0,18,18,18,1,audio/Narrative8Situation9.wav,audio/Narrative7Situation9.wav,audio/Narrative6Situation9.wav,audio/Narrative5Situation9.wav,3,2,4,3,,,,,,,,,,,,,,,,,,,,,,,,,,,,,,,,,,,,,,,
,,,,,6655e4f304ea91b8ecb46edc,2025-07-07_21h59.05.784,group3.4_multiperson,2023.2.2,Win32,60.24096386,686c2ebf0248f13bef9af11f,686c7b02a931d7cfcd6c9f36,,,,,,,,,,,,,,,,,,,,,,,,,,,654.4772,657.0601,657.0688,2,audio/Narrative13Situation2.wav,657.0689,,657.0689,686.8105,"[[98.8,2491],[96.6,2574],[96.7,2657],[99.9,2741],[100,2824],[100,2907],[100,2991],[99.3,3074],[89.1,3157],[78.1,3241],[70.2,3324],[62.3,3407],[57.5,3491],[54.9,3574],[44.7,3657],[39.5,3741],[39.5,3824],[39.5,3907],[39.5,3990],[39.5,4074],[39.5,4157],[39.5,4240],[39.5,4324],[39.5,4407],[39.5,4491],[39.5,4574],[39.5,4657],[39.5,4740],[39.5,4824],[39.5,4907],[39.5,4990],[39.5,5074],[39.5,5157],[39.5,5241],[39.5,5324],[39.5,5407],[39.5,5490],[39.5,5574],[39.5,5657],[39.5,5740],[39.5,5824],[39.5,5907],[39.5,5990],[39.5,6074],[39.5,6157],[40.4,6241],[44.3,6324],[52.8,6409],[57.6,6491],[57.8,6574],[57.8,6657],[56.9,6740],[55.2,6824],[49.2,6907],[41.4,6991],[41.1,7074],[40.8,7157],[38,7241],[31.1,7324],[30.5,7407],[30.1,7491],[31.9,7574],[31.9,7657],[31.9,7740],[31.9,7824],[31.9,7907],[31.9,7990],[31.9,8074],[31.5,8157],[31.5,8240],[31.5,8324],[30.6,8407],[20.1,8491],[17.8,8574],[17.8,8657],[17.8,8740],[17.8,8824],[17.8,8907],[17.8,8991],[17.8,9074],[17.8,9157],[17.8,9240],[17.8,9324],[17.8,9407],[17.8,9490],[17.8,9574],[16.7,9657],[16.3,9741],[12.5,9824],[9.4,9907],[2.7,9991],[2.6,10074],[2.6,10157],[2.6,10241],[2.6,10324],[2.6,10407],[2.6,10490],[2.6,10574],[3.6,10657],[3.8,10741],[6,10824],[9.6,10908],[10.8,10991],[10.8,11074],[10.8,11157],[10.8,11241],[10.8,11324],[10.8,11407],[10.8,11491],[10.8,11574],[10.8,11657],[10.8,11740],[10.8,11824],[10.8,11907],[10.8,11991],[10.8,12074],[10.8,12157],[10.8,12241],[10.8,12324],[10.8,12407],[10.8,12490],[10.8,12574],[10.8,12657],[10.8,12741],[10.8,12824],[10.8,12907],[10.8,12990],[10.8,13074],[10.8,13157],[10.8,13241],[10.8,13324],[10.8,13407],[10.8,13490],[10.8,13574],[10.8,13657],[10.8,13741],[10.8,13824],[10.8,13907],[10.8,13990],[10.8,14074],[10.8,14157],[10.8,14240],[11.1,14324],[16.1,14908],[12.3,14991],[11.3,15074],[11.3,15157],[11.3,15240],[11.3,15324],[11.3,15407],[11.3,15490],[11.3,15574],[11.3,15657],[11.3,15740],[11.3,15824],[11.3,15907],[11.3,15990],[11.3,16074],[11.3,16157],[11.3,16240],[11.3,16324],[11.3,16407],[11.3,16490],[11.3,16574],[11.3,16657],[11.3,16741],[11.3,16824],[11.3,16907],[11.3,16990],[11.3,17074],[11.3,17157],[11.3,17241],[11.3,17324],[8.4,17407],[8.4,17490],[8.4,17574],[8.4,17657],[8.4,17741],[8.4,17824],[8.4,17907],[8.4,17990],[8.4,18074],[8.4,18157],[8.4,18240],[8.4,18324],[8.4,18407],[8.4,18491],[8.4,18574],[8.4,18657],[8.4,18740],[8.4,18824],[8.4,18907],[8.4,18990],[8.4,19074],[8.4,19157],[8.4,19241],[8.4,19324],[8.4,19407],[8.4,19491],[8.4,19574],[8.4,19657],[8.4,19741],[8.4,19824],[8.4,19907],[8.4,19991],[8.4,20074],[8.4,20157],[8.4,20240],[8.4,20324],[8.4,20407],[8.4,20490],[8.4,20574],[8.4,20658],[8.4,20741],[8.4,20824],[8.4,20907],[8.4,20990],[8.4,21074],[8.4,21157],[8.4,21240],[8.4,21324],[8.4,21407],[8.4,21491],[8.4,21574],[8.4,21657],[8.4,21741],[8.4,21824],[8.4,21907],[8.4,21990],[8.4,22074],[8.4,22157],[8.4,22240],[8.4,22324],[8.4,22407],[8.4,22491],[8.4,22574],[8.4,22657],[8.4,22741],[8.4,22824],[8.4,22907],[7.7,22991]]",686.8107,686.8131,,,[],,,,686.8132,Partially,50,686.8142,,,[],,0,0,0,0,1,audio/Narrative13Situation2.wav,audio/Narrative13Situation2.wav,audio/Narrative13Situation2.wav,audio/Narrative13Situation2.wav,2,2,2,2,,,,,641.0122,654.477,space,12.9338,,,,,,,,,,,,,,,,,,,,,,,,,,,,,,,
,,,,,6655e4f304ea91b8ecb46edc,2025-07-07_21h59.05.784,group3.4_multiperson,2023.2.2,Win32,60.24096386,686c2ebf0248f13bef9af11f,686c7b02a931d7cfcd6c9f36,,,,,,,,,,,,,,,,,,,,,,,,,,,,,686.8144,2,audio/Narrative5Situation1.wav,691.8266,,691.8267,705.1267,"[[35,249],[30.7,333],[29.6,416],[45.4,750],[48.1,833],[48.1,917],[48.1,999],[48,1083],[48,1166],[48,1249],[48,1333],[47.1,1416],[47.1,1499],[47.1,1583],[47.1,1666],[47.1,1749],[47.1,1833],[47.1,1916],[47.1,1999],[47.1,2083],[47.1,2166],[47.1,2249],[47.1,2333],[47.1,2416],[47.1,2499],[47.1,2583],[47.1,2666],[45.5,2750],[45.5,2833],[45.3,2916],[45.3,2999],[45.3,3083],[45.3,3166],[44.3,3250],[43.4,3333],[42.4,3416],[42.4,3499],[44,3583],[50,3666],[51.7,3749],[52.3,3833],[53.4,3916],[53.4,3999],[53.4,4083],[52,4166],[49.9,4250],[49,4333],[48.8,4416],[48.8,4499],[48.8,4583],[48.8,4666],[48.8,4749],[48.8,4833],[49.7,4916],[50.4,4999],[50.4,5083],[50.4,5166],[50.4,5249],[50.4,5333],[50.4,5416],[50.4,5499],[50.4,5583],[50.5,5666],[47.8,5750],[47.7,5833],[47.7,5916],[47.7,5999],[47.7,6083],[47.7,6166],[47.7,6249],[47.7,6333],[47.7,6416],[47.7,6499],[47.7,6583],[47.7,6666],[51.4,6749],[52.3,6833],[54.1,6916],[56.3,6999],[65.5,7083],[73,7166],[73,7249],[73.2,7333],[76.4,7416],[76.9,7499],[75.5,7583],[75.5,7666],[76.8,7750],[76.4,7833],[75.5,7916],[75.5,7999],[73.9,8083],[70.4,8166],[64.6,8249],[64.6,8333],[64.6,8416],[62.6,8499],[62.8,8583],[69.1,8666],[69.3,8749],[69.3,8833],[69.4,8916],[69.4,8999],[69.4,9083],[69.4,9166],[69.2,9250],[65.8,9333],[65.8,9416],[65.8,9499],[65.8,9583],[65.8,9666],[65.8,9749],[62.1,9833],[51.4,9916],[50.3,9999],[49.2,10083],[45.2,10166],[36.8,11000],[38.2,11083],[41.1,11166],[43,11249],[45.8,11333],[50.1,11416],[53.4,11500],[54.3,11583],[54.3,11666],[54.3,11749],[54.5,11833],[54.5,11916],[52.4,12000],[50.8,12083],[50.8,12166],[52.2,12250],[54.2,12333],[54.4,12416],[56.1,12500],[57.5,12583],[57.9,12666],[58.2,12750],[58.5,12833],[60,12916],[62,13000],[62.5,13083],[64.2,13166],[66.1,13249]]",705.1268,708.0267,70.20833333,0.7562,"[{""rating"":70.20833333333334,""responseTime"":0.756200000000149}]",space,2.3578,,708.0268,Partially,50,708.0289,,,[],,0,1,1,1,1,audio/Narrative7Situation1.wav,audio/Narrative8Situation1.wav,audio/Narrative5Situation1.wav,audio/Narrative6Situation1.wav,2,5,5,2,,,,,,,,,,,,,,,,,,,,,,,,,,,,,,,,,,,,,,,
,,,,,6655e4f304ea91b8ecb46edc,2025-07-07_21h59.05.784,group3.4_multiperson,2023.2.2,Win32,60.24096386,686c2ebf0248f13bef9af11f,686c7b02a931d7cfcd6c9f36,,,,,,,,,,,,,,,,,,,,,,,,,,,,,708.0293,2,audio/Narrative5Situation2.wav,711.0433,,711.0434,740.5102,"[[999,0],[999,83],[999,166],[999,249],[999,333],[999,416],[999,499],[999,583],[999,666],[999,750],[999,833],[999,916],[999,999],[999,1083],[999,1166],[999,1249],[999,1333],[999,1416],[55.8,1500],[56,1583],[56.4,1666],[56.8,1749],[59.6,1833],[73.5,1916],[81,1999],[81.1,2083],[81.4,2166],[81.4,2250],[81.4,2333],[81.4,2416],[81.4,2499],[81.4,2583],[81.4,2666],[81.4,2749],[81.4,2833],[81.4,2916],[81.4,2999],[81.4,3083],[81.4,3166],[81.4,3249],[81.4,3333],[81.4,3416],[81.4,3500],[81.4,3583],[81.4,3666],[81.4,3749],[81.4,3833],[81.4,3916],[81.4,3999],[81.4,4083],[81.4,4166],[81.4,4250],[81.4,4333],[81.4,4416],[81.4,4499],[81.4,4583],[81.4,4666],[81.4,4749],[81.4,4833],[81.4,4916],[81.4,5000],[81.4,5083],[81.4,5166],[81.4,5249],[81.4,5333],[81.4,5416],[81.4,5499],[81.4,5583],[81.4,5666],[81.4,5749],[81.4,5833],[81.4,5916],[81.4,5999],[81.4,6083],[81.4,6166],[81.4,6250],[81.4,6333],[81.4,6416],[81.4,6499],[81.4,6583],[81.4,6666],[81.4,6749],[81.4,6833],[81.4,6916],[81.4,6999],[81.4,7083],[81.4,7166],[81.4,7249],[81.4,7333],[81.4,7416],[81.4,7499],[81.4,7583],[81.4,7666],[81.4,7749],[81.4,7833],[81.5,7916],[90.2,7999],[92.2,8083],[92.2,8166],[92.4,8250],[93.4,8333],[93.4,8416],[93.1,8500],[93,8583],[93,8666],[93,8749],[93,8833],[93,8916],[93,8999],[92.9,9083],[94.1,9166],[94.3,9250],[96.6,9333],[97.2,9416],[97.2,9499],[97.3,9583],[97.3,9666],[97.3,9750],[97.3,9833],[97.3,9916],[97.3,9999],[97.3,10083],[97.3,10166],[97.3,10249],[97.3,10333],[97.3,10416],[97.3,10500],[97.3,10583],[97.3,10666],[97.3,10749],[97.3,10833],[97.3,10916],[97.3,10999],[97.3,11083],[97.3,11166],[97.3,11249],[97.3,11333],[97.3,11416],[97.3,11499],[97.3,11583],[97.3,11666],[97.3,11750],[97.3,11833],[97.3,11916],[97.3,11999],[97.3,12083],[97.3,12166],[97.3,12249],[97.3,12333],[97.3,12416],[97.3,12499],[97.3,12583],[97.3,12666],[97.3,12749],[97.3,12833],[97.3,12916],[97.3,12999],[97.3,13083],[97.3,13166],[97.3,13249],[97.3,13333],[97.3,13416],[97.3,13499],[97.3,13583],[97.3,13666],[97.3,13750],[97.3,13833],[97.3,13916],[97.3,14000],[97.3,14083],[97.3,14166],[97.3,14249],[97.3,14333],[97.3,14416],[97.3,14499],[97.3,14583],[97.3,14666],[97.3,14749],[97.3,14833],[97.3,14916],[97.3,14999],[97.3,15083],[97.3,15166],[97.3,15249],[97.3,15333],[97.3,15416],[97.3,15500],[97.3,15583],[97.3,15666],[97.3,15749],[97.3,15833],[97.3,15916],[97.3,15999],[97.3,16083],[97.3,16166],[97.3,16249],[97.3,16333],[97.3,16416],[97.3,16500],[97.3,16583],[97.3,16666],[97.3,16749],[97.3,16834],[97.3,16916],[97.3,16999],[97.3,17083],[97.3,17166],[97.3,17249],[97.3,17333],[97.3,17416],[97.3,17499],[97.3,17583],[97.3,17666],[97.3,17749],[97.3,17834],[97.3,17916],[97.3,17999],[97.3,18082],[97.3,18166],[97.3,18249],[97.3,18333],[97.3,18416],[97.3,18500],[97.3,18583],[97.3,18666],[97.3,18749],[97.3,18833],[97.3,18916],[94.5,19000],[94.3,19083],[94.3,19166],[92.4,19250],[92.3,19333],[92.3,19416],[92.3,19499],[92.3,19583],[92.3,19666],[92.3,19750],[92.3,19833],[92.3,19916],[92.3,19999],[92.3,20083],[92.3,20166],[92.3,20249],[92.3,20333],[92.3,20416],[92.3,20499],[92.3,20583],[92.3,20666],[92.3,20749],[92.3,20833],[92.3,20916],[92.3,20999],[92.3,21083],[92.3,21166],[92.3,21249],[92.3,21333],[92.3,21416],[92.3,21500],[92.3,21583],[92.3,21666],[92.3,21750],[92.3,21833],[92.3,21916],[92.3,21999],[92.3,22083],[92.3,22166],[92.3,22249],[92.3,22333],[92.3,22416],[92.3,22500],[92.3,22583],[92.3,22666],[92.3,22749],[92.3,22833],[92.3,22916],[92.3,22999],[92.3,23083],[92.3,23166],[94.1,23250],[97.2,23333],[97.9,23416],[98.5,23499],[98.5,23582],[98.5,23666],[98.5,23749],[98.5,23833],[98.5,23916],[98.5,23999],[98.5,24083],[98.5,24166],[98.5,24249],[98.5,24333],[98.5,24416],[98.5,24500],[98.5,24583],[98.5,24666],[98.5,24749],[98.5,24833],[98.5,24916],[98.5,24999],[98.5,25083],[98.5,25166],[98.5,25249],[98.5,25333],[98.5,25416],[98.5,25499],[98.5,25583],[98.5,25666],[98.5,25749],[98.5,25833],[98.5,25916],[98.5,25999],[98.5,26083],[98.5,26166],[98.5,26250],[98.5,26333],[98.5,26416],[98.5,26499],[98.5,26583],[98.5,26666],[98.5,26749],[98.5,26833],[98.5,26916],[98.5,27000],[98.5,27083],[98.5,27166],[98.5,27250],[98.5,27333],[98.5,27416],[98.5,27499],[98.5,27583],[98.5,27666],[98.5,27749],[98.5,27834],[98.5,27916],[98.5,27999],[98.5,28083],[98.5,28166],[98.5,28249],[98.5,28333],[98.5,28416],[98.5,28499],[98.5,28583],[98.5,28666],[98.5,28749],[98.5,28832],[98.5,28916],[98.5,28999],[98.5,29083],[98.5,29166],[98.5,29249],[98.5,29333],[98.5,29416]]",740.5104,743.2767,94.0625,1.3493,"[{""rating"":94.0625,""responseTime"":1.3492999999997437}]",space,2.2171,,743.2768,Partially,50,743.2791,,,[],,0,2,2,2,1,audio/Narrative7Situation2.wav,audio/Narrative8Situation2.wav,audio/Narrative5Situation2.wav,audio/Narrative6Situation2.wav,3,3,3,3,,,,,,,,,,,,,,,,,,,,,,,,,,,,,,,,,,,,,,,
,,,,,6655e4f304ea91b8ecb46edc,2025-07-07_21h59.05.784,group3.4_multiperson,2023.2.2,Win32,60.24096386,686c2ebf0248f13bef9af11f,686c7b02a931d7cfcd6c9f36,,,,,,,,,,,,,,,,,,,,,,,,,,,,,743.2793,2,audio/Narrative5Situation3.wav,746.2933,,746.2933,760.1935,"[[94,3083],[100,3750],[100,3833],[100,3916],[100,3999],[100,4083],[100,4166],[97.6,4250],[97.6,4333],[98.8,4416],[99.4,4500],[99.4,4583],[99.4,4666],[99.4,4749],[99.4,4833],[99.4,4916],[99.4,5000],[99.4,5083],[99.4,5166],[99.4,5250],[99.4,5333],[99.4,5416],[99.4,5500],[99.4,5583],[99.4,5666],[99.4,5749],[99.4,5833],[99.4,5916],[99.4,6000],[99.4,6083],[99.4,6166],[99.4,6250],[99.4,6333],[99.4,6416],[99.4,6499],[99.4,6583],[99.4,6666],[99.4,6750],[99.4,6833],[99.4,6916],[99.4,6999],[99.4,7083],[99.4,7166],[99.4,7250],[99.4,7333],[99.4,7416],[99.4,7500],[99.4,7583],[99.4,7666],[99.4,7750],[99.4,7833],[99.4,7916],[99.4,8000],[99.4,8083],[99.4,8166],[99.4,8250],[99.4,8333],[99.4,8416],[99.4,8499],[99.4,8583],[99.4,8666],[99.4,8750],[99.4,8833],[99.4,8916],[99.4,9000],[99.4,9083],[99.4,9166],[99.4,9250],[99.4,9333],[99.4,9416],[99.4,9500],[99.4,9583],[99.4,9666],[99.4,9750],[99.4,9833],[99.4,9916],[99.4,10000],[99.4,10083],[99.4,10166],[99.4,10250],[99.4,10333],[99.4,10416],[99.4,10500],[99.4,10583],[99.4,10666],[99.4,10750],[99.4,10833],[99.4,10916],[99.4,11000],[99.4,11083],[99.4,11166],[99.4,11250],[99.4,11333],[99.4,11416],[99.4,11500],[99.4,11583],[99.4,11666],[99.4,11750],[99.4,11835],[99.4,11916],[99.4,12000],[99.4,12083],[99.4,12166],[99.4,12250],[99.4,12333],[99.4,12416],[99.4,12500],[99.4,12583],[99.4,12666],[99.4,12750],[99.4,12833],[99.4,12916],[99.4,13000],[99.4,13083],[99.4,13166],[99.4,13249],[99.4,13333],[99.4,13416],[99.4,13500],[99.4,13583],[99.4,13666],[99.4,13750],[99.4,13833]]",760.1935,762.4101,98.85416667,0.9115,"[{""rating"":98.85416666666667,""responseTime"":0.9114999999999327}]",space,1.6678,,762.4102,Not at all,0,762.4131,,,[],,0,3,3,3,1,audio/Narrative7Situation3.wav,audio/Narrative8Situation3.wav,audio/Narrative5Situation3.wav,audio/Narrative6Situation3.wav,8,4,3,5,,,,,,,,,,,,,,,,,,,,,,,,,,,,,,,,,,,,,,,
,,,,,6655e4f304ea91b8ecb46edc,2025-07-07_21h59.05.784,group3.4_multiperson,2023.2.2,Win32,60.24096386,686c2ebf0248f13bef9af11f,686c7b02a931d7cfcd6c9f36,,,,,,,,,,,,,,,,,,,,,,,,,,,,,762.4132,2,audio/Narrative5Situation4.wav,763.4266,,763.4267,783.8268,"[[999,0],[999,83],[999,166],[999,250],[999,333],[999,416],[999,500],[78.1,583],[78.1,667],[77.9,750],[77.8,833],[77.8,916],[77.8,1000],[77.8,1083],[77.8,1166],[77.8,1249],[77.8,1333],[77.8,1416],[77.8,1499],[77.8,1583],[77.8,1666],[77.8,1750],[77.8,1833],[77.8,1916],[77.8,2000],[74.9,2083],[74.9,2166],[74.9,2249],[74.9,2333],[74.9,2416],[74.9,2500],[76.8,2583],[81.7,2666],[98.9,3166],[100,3249],[100,3333],[99.5,3416],[99.2,3499],[99,3583],[98.9,3666],[97.7,3750],[96.5,3833],[96.4,3916],[95.3,4000],[68.5,4083],[57,4166],[53.9,4250],[43.6,4333],[31.1,4416],[20.2,4500],[11.9,4583],[8.4,4666],[6.6,4750],[5.9,4833],[5.8,4916],[5.8,5000],[5.8,5083],[5.8,5166],[5.8,5249],[5.8,5333],[5.8,5416],[5.8,5499],[5.8,5583],[5.8,5666],[5.8,5750],[5.8,5833],[5.8,5916],[5.8,5999],[5.8,6083],[5.8,6166],[5.8,6249],[5.8,6333],[5.8,6416],[5.8,6499],[5.8,6583],[5.8,6666],[5.8,6749],[5.8,6833],[5.8,6916],[5.8,6999],[5.8,7083],[5.8,7166],[5.8,7249],[5.8,7333],[5.8,7416],[5.8,7499],[5.8,7583],[5.8,7666],[5.8,7749],[5.8,7833],[5.8,7916],[5.8,7999],[5.8,8083],[5.8,8166],[5.8,8249],[5.8,8333],[5.8,8416],[5.8,8499],[5.8,8583],[5.8,8666],[5.8,8749],[5.8,8833],[5.8,8916],[5.8,8999],[5.8,9083],[5.8,9166],[8.3,9249],[8.6,9333],[15.8,9416],[21,9500],[23,9583],[28.1,9666],[36.1,9750],[41.9,9833],[51.8,9916],[67,9999],[80.9,10083],[77.2,10666],[76.4,10749],[75,10833],[74.6,10916],[74.6,10999],[74.6,11083],[74.6,11166],[74.6,11249],[74.6,11333],[74.6,11416],[74.6,11500],[74.6,11583],[74.6,11666],[74.6,11750],[74.6,11833],[74.6,11916],[74.6,12000],[74.6,12083],[74.6,12166],[74.6,12249],[74.6,12333],[74.6,12416],[74.6,12499],[74.6,12583],[74.6,12666],[74.6,12749],[74.6,12833],[74.6,12916],[74.6,12999],[74.6,13083],[74.6,13166],[74.6,13249],[74.6,13333],[74.6,13416],[74.6,13499],[74.6,13583],[74.6,13666],[74.6,13750],[74.6,13833],[74.6,13916],[74.6,13999],[74.6,14083],[74.6,14166],[74.6,14249],[74.6,14333],[74.6,14416],[74.6,14499],[74.6,14583],[74.6,14666],[74.6,14749],[74.6,14833],[74.6,14916],[74.6,14999],[74.6,15083],[74.6,15166],[74.6,15249],[74.6,15333],[74.6,15416],[74.6,15499],[74.6,15583],[74.6,15666],[74.6,15749],[74.6,15833],[74.6,15916],[74.6,15999],[74.6,16083],[74.6,16166],[74.6,16249],[74.6,16333],[74.6,16416],[74.6,16500],[74.6,16583],[74.6,16666],[74.6,16749],[74.6,16833],[74.6,16916],[74.6,16999],[74.6,17083],[74.6,17166],[74.6,17249],[74.6,17333],[74.6,17416],[74.6,17500],[74.6,17583],[74.6,17666],[74.6,17750],[74.6,17833],[74.6,17916],[74.6,17999],[74.6,18083],[74.6,18166],[74.6,18249],[74.6,18333],[74.6,18416],[74.6,18499],[74.6,18583],[74.6,18666],[74.6,18750],[74.6,18833],[74.6,18916],[74.6,18999],[74.6,19083],[74.6,19166],[74.6,19249],[74.6,19333],[74.6,19416],[74.6,19499],[74.6,19583],[74.6,19666],[74.6,19749],[74.6,19833],[74.6,19916],[74.6,20000],[74.6,20083],[74.6,20166],[74.6,20249],[74.6,20333]]",783.8268,785.91,96.14583333,1.0259,"[{""rating"":96.14583333333333,""responseTime"":1.0258999999994103}]",space,1.5372,,785.9101,Definitely yes,100,785.9127,,,[],,0,4,4,4,1,audio/Narrative7Situation4.wav,audio/Narrative8Situation4.wav,audio/Narrative5Situation4.wav,audio/Narrative6Situation4.wav,3,3,1,2,,,,,,,,,,,,,,,,,,,,,,,,,,,,,,,,,,,,,,,
,,,,,6655e4f304ea91b8ecb46edc,2025-07-07_21h59.05.784,group3.4_multiperson,2023.2.2,Win32,60.24096386,686c2ebf0248f13bef9af11f,686c7b02a931d7cfcd6c9f36,,,,,,,,,,,,,,,,,,,,,,,,,,,,,785.9129,2,audio/Narrative5Situation5.wav,790.9268,,790.9268,806.3601,"[[96.3,249],[96.3,333],[96.3,416],[96.3,500],[96.3,583],[96.3,667],[96.3,750],[96.3,833],[94.5,916],[93.5,999],[93.5,1083],[93.1,1166],[91.7,1250],[91.7,1333],[93.4,1416],[94.2,1500],[95.5,1583],[95.5,1666],[95.5,1749],[94.5,1833],[93.9,1916],[94.5,2000],[98.3,2083],[98.3,2166],[98.3,2249],[98.3,2333],[98.3,2416],[98.4,2499],[98.2,2583],[98.2,2666],[97.3,2749],[96.3,2833],[96.3,2916],[96.3,2999],[96.3,3083],[96.3,3166],[96.3,3249],[96.3,3333],[96.3,3416],[96.3,3499],[96.3,3583],[96.3,3666],[96.3,3749],[96.3,3833],[96.3,3916],[75.8,3999],[46.5,4083],[38.8,4166],[38.8,4250],[38.8,4333],[32.8,4416],[27.3,4499],[19.9,4583],[19.4,4666],[18.1,4750],[16.4,4833],[16.4,4916],[16.4,4999],[16.7,5083],[16.7,5166],[16.7,5249],[16.7,5333],[16.7,5416],[16.7,5499],[16.7,5583],[16.7,5666],[16.7,5749],[16.7,5833],[16.7,5916],[16.7,5999],[16.7,6083],[16.7,6166],[16.7,6249],[15.4,6333],[14.4,6416],[14.4,6499],[14.4,6583],[14.3,6666],[11.3,6749],[11.3,6833],[11.3,6916],[11.3,7000],[11.3,7083],[11.3,7166],[11.3,7249],[11.3,7333],[11.3,7416],[11.3,7499],[8,7583],[8,7666],[7.5,7750],[7.3,7833],[7.3,7916],[7.3,7999],[7.3,8083],[7.3,8166],[7.3,8249],[7.2,8333],[7.2,8416],[7.2,8499],[7.2,8583],[7.2,8666],[7.2,8749],[7.2,8833],[7.2,8916],[7.2,8999],[7.2,9083],[7.2,9166],[7.2,9249],[7.2,9333],[7.2,9416],[7.2,9499],[7.2,9583],[7.2,9666],[7.2,9749],[7.2,9833],[7.2,9916],[7.2,9999],[7.2,10083],[7.2,10166],[7.2,10249],[7.2,10333],[7.2,10416],[7.2,10499],[7.2,10583],[7.2,10666],[7.2,10749],[7.2,10833],[7.2,10916],[7.2,10999],[7.2,11083],[7.2,11166],[7.2,11249],[7.2,11333],[7.2,11416],[7.2,11499],[7.2,11583],[7.2,11666],[7.2,11749],[7.2,11833],[7.2,11916],[7.2,11999],[7.2,12083],[7.2,12166],[7.2,12249],[7.2,12333],[7.2,12416],[7.2,12499],[7.2,12583],[7.2,12666],[7.2,12749],[7.2,12833],[7.2,12916],[7.2,12999],[7.2,13083],[7.2,13166],[7.2,13249],[7.2,13333],[7.2,13416],[7.2,13499],[7.2,13583],[7.2,13666],[7.2,13749],[7.2,13833],[7.2,13916],[7.2,13999],[7.2,14083],[7.2,14166],[7.2,14249],[7.2,14333],[7.2,14416],[7.2,14499],[7.2,14583],[7.2,14666],[7.2,14749],[7.2,14833],[7.2,14916],[7.2,14999],[7.2,15083],[7.2,15166],[7.2,15249],[8.4,15333],[8.8,15416]]",806.3601,808.56,8.541666667,1.3129,"[{""rating"":8.541666666666664,""responseTime"":1.312900000000468}]",space,1.6503,,808.5601,Definitely yes,100,808.5622,,,[],,0,5,5,5,1,audio/Narrative7Situation5.wav,audio/Narrative8Situation5.wav,audio/Narrative5Situation5.wav,audio/Narrative6Situation5.wav,5,2,5,2,,,,,,,,,,,,,,,,,,,,,,,,,,,,,,,,,,,,,,,
,,,,,6655e4f304ea91b8ecb46edc,2025-07-07_21h59.05.784,group3.4_multiperson,2023.2.2,Win32,60.24096386,686c2ebf0248f13bef9af11f,686c7b02a931d7cfcd6c9f36,,,,,,,,,,,,,,,,,,,,,,,,,,,,,808.5625,2,audio/Narrative5Situation6.wav,811.5767,,811.5768,817.26,"[[7.9,918],[5.7,1000],[23.5,1500],[22.4,1583],[18.1,1666],[16.8,1749],[16.8,1832],[21,1916],[23.2,1999],[24,2083],[25.5,2166],[25.5,2249],[25.5,2333],[25.5,2416],[25.5,2499],[25.5,2582],[25.5,2666],[25.5,2749],[25.5,2833],[25.5,2916],[25.5,2999],[25.5,3083],[25.5,3166],[25.9,3250],[34.4,3333],[44.4,3416],[45,3500],[45.8,3583],[48.2,3666],[50.8,3750],[54.2,3833],[56.6,3916],[56.6,3999],[56.6,4083],[56.6,4166],[56.6,4249],[56.6,4332],[56.6,4416],[56.7,4500],[57.9,4583],[58,4666],[58,4749],[58,4833],[57.5,4916],[55,5000],[53.6,5083],[52.7,5166],[52.7,5250],[52.1,5333],[50.8,5416],[50.8,5499],[50.8,5583],[50.8,5666]]",817.2601,820.46,24.6875,2.3969,"[{""rating"":24.6875,""responseTime"":2.3969000000003007}]",space,2.6498,,820.46,Definitely yes,100,820.4621,,,[],,0,6,6,6,1,audio/Narrative7Situation6.wav,audio/Narrative8Situation6.wav,audio/Narrative5Situation6.wav,audio/Narrative6Situation6.wav,3,2,3,2,,,,,,,,,,,,,,,,,,,,,,,,,,,,,,,,,,,,,,,
,,,,,6655e4f304ea91b8ecb46edc,2025-07-07_21h59.05.784,group3.4_multiperson,2023.2.2,Win32,60.24096386,686c2ebf0248f13bef9af11f,686c7b02a931d7cfcd6c9f36,,,,,,,,,,,,,,,,,,,,,,,,,,,,,820.4626,2,audio/Narrative5Situation7.wav,824.4768,,824.4768,845.5433,"[[30.7,834],[33.6,916],[34.2,999],[36.1,1083],[36.1,1166],[36.1,1249],[39.9,1333],[52.7,1416],[57.2,1499],[57.2,1583],[57.2,1666],[57.2,1749],[57.5,1833],[57.5,1916],[57.5,2000],[57.5,2083],[57.5,2166],[57.5,2249],[57.5,2333],[57.5,2416],[57.5,2499],[57.5,2583],[57.5,2666],[57.5,2749],[57.5,2833],[57.5,2916],[57.5,2999],[57.5,3083],[57.5,3166],[57.5,3249],[57.5,3333],[57.5,3416],[57.5,3499],[57.5,3583],[57.5,3666],[57.5,3749],[57.5,3833],[57.5,3916],[57.5,3999],[57.5,4083],[57.5,4166],[57.1,4250],[55,4333],[48.3,4416],[41.5,4499],[40.4,4583],[38.4,4666],[35.2,4749],[29.6,4833],[26.3,4916],[22.7,5000],[22.7,5083],[22.7,5166],[22.7,5249],[22.7,5333],[26.9,5416],[33.2,5500],[34,5583],[34,5666],[34,5749],[39.5,5833],[42.2,5916],[45.5,5999],[47.8,6083],[51.1,6166],[51.6,6250],[51.6,6333],[51.6,6416],[54.1,6500],[54.3,6583],[54.3,6666],[53,6749],[52.8,6833],[52,6916],[52,6999],[52,7082],[50.7,7166],[50.7,7249],[50.7,7333],[50.6,7416],[49.9,7499],[49.9,7583],[49.9,7666],[49.9,7749],[49.9,7833],[49.9,7916],[49.9,8000],[49.9,8083],[49.9,8166],[49.9,8249],[49.9,8333],[49.9,8416],[49.9,8499],[49.9,8583],[49.9,8666],[49.9,8749],[49.9,8833],[49.9,8916],[49.9,8999],[49.9,9083],[49.9,9166],[49.9,9249],[49.9,9333],[49.9,9416],[49.9,9499],[49.9,9583],[49.9,9666],[49.9,9749],[49.9,9832],[49.9,9916],[49.9,9999],[49.9,10083],[49.9,10166],[49.9,10249],[49.9,10333],[49.9,10416],[49.9,10499],[49.9,10583],[49.9,10666],[49.9,10749],[49.9,10833],[49.9,10916],[49.9,10999],[49.9,11083],[49.9,11166],[49.9,11249],[49.9,11333],[49.9,11416],[49.9,11499],[49.9,11583],[49.9,11666],[49.9,11749],[49.9,11833],[49.9,11916],[49.9,11999],[49.9,12083],[49.9,12166],[49.9,12249],[49.9,12333],[49.9,12416],[49.9,12499],[49.9,12583],[49.9,12666],[49.9,12749],[49.9,12833],[49.9,12916],[49.9,12999],[49.9,13083],[49.9,13166],[49.9,13249],[49.9,13332],[49.9,13416],[49.9,13499],[49.9,13583],[49.9,13666],[49.9,13749],[49.9,13833],[49.9,13916],[49.9,13999],[49.9,14083],[49.9,14166],[49.9,14249],[49.9,14332],[49.9,14416],[49.9,14499],[49.9,14583],[49.9,14666],[49.9,14749],[49.9,14833],[49.9,14916],[49.9,14999],[49.9,15083],[49.9,15166],[49.9,15249],[49.9,15333],[49.9,15416],[49.9,15499],[49.9,15583],[49.9,15666],[49.9,15749],[49.9,15833],[49.9,15916],[49.9,15999],[49.9,16083],[49.9,16166],[49.9,16249],[49.9,16333],[49.9,16416],[49.9,16499],[49.9,16583],[49.9,16666],[49.9,16749],[49.9,16833],[49.9,16916],[49.9,16999],[49.9,17083],[49.9,17166],[49.9,17249],[49.9,17332],[49.9,17416],[49.9,17500],[49.9,17583],[49.9,17666],[49.9,17749],[49.9,17833],[49.9,17916],[49.9,17999],[49.9,18083],[49.9,18166],[49.9,18249],[49.9,18333],[49.9,18416],[49.9,18499],[49.9,18583],[49.9,18666],[49.9,18749],[49.9,18833],[49.9,18916],[49.9,18999],[49.9,19083],[49.9,19166],[49.9,19249],[49.9,19333],[49.9,19416],[49.9,19499],[49.9,19583],[49.9,19666],[49.9,19749],[49.9,19833],[49.9,19916],[49.9,19999],[49.9,20083],[49.9,20166],[49.9,20249],[49.9,20333],[49.9,20416],[49.9,20499],[49.9,20583],[49.9,20666],[49.9,20749],[49.9,20833],[49.9,20916],[46.3,21000]]",845.5434,848.5268,16.875,1.8891,"[{""rating"":26.770833333333332,""responseTime"":1.3489000000002989},{""rating"":16.875,""responseTime"":1.8890999999995302}]",space,2.4505,,848.5268,Partially,50,848.5295,,,[],,0,7,7,7,1,audio/Narrative7Situation7.wav,audio/Narrative8Situation7.wav,audio/Narrative5Situation7.wav,audio/Narrative6Situation7.wav,5,3,4,5,,,,,,,,,,,,,,,,,,,,,,,,,,,,,,,,,,,,,,,
,,,,,6655e4f304ea91b8ecb46edc,2025-07-07_21h59.05.784,group3.4_multiperson,2023.2.2,Win32,60.24096386,686c2ebf0248f13bef9af11f,686c7b02a931d7cfcd6c9f36,,,,,,,,,,,,,,,,,,,,,,,,,,,,,848.5297,2,audio/Narrative5Situation8.wav,851.5434,,851.5434,860.3602,"[[999,0],[999,83],[999,166],[999,249],[999,333],[999,416],[999,500],[999,583],[999,667],[999,751],[999,833],[999,918],[999,999],[33.1,1083],[31.3,1166],[31.1,1250],[31.1,1333],[34.3,1416],[37.9,1500],[38,1583],[35.9,1666],[28.2,1750],[23.2,1833],[20,1916],[19.3,1999],[19.3,2083],[20.4,2166],[31.8,2249],[52.9,2333],[55.5,2416],[55.6,2500],[56.6,2583],[59,2666],[63.6,2750],[67.1,2833],[67.1,2916],[67.1,3000],[67.1,3083],[67.1,3166],[67.1,3249],[67.1,3333],[67.1,3416],[67.1,3499],[67.1,3583],[67.1,3666],[67.1,3749],[67.1,3833],[67.1,3916],[67.2,3999],[67.2,4083],[67.2,4166],[67.2,4249],[67.2,4333],[67.2,4416],[67.2,4499],[67.2,4583],[67.2,4666],[67.2,4749],[67.2,4833],[67.2,4916],[67.2,4999],[67.2,5083],[67.2,5166],[67.2,5249],[67.2,5333],[67.2,5416],[67.2,5499],[67.2,5583],[67.2,5666],[67.2,5749],[67.2,5833],[67.2,5916],[67.2,6000],[67.2,6083],[67.2,6166],[67.2,6249],[67.2,6333],[67.2,6416],[67.2,6499],[67.2,6583],[67.2,6666],[67.2,6750],[67.2,6833],[67.2,6916],[67.2,6999],[67.2,7083],[67.2,7166],[67.2,7250],[67.2,7333],[67.2,7416],[67.2,7499],[67.2,7583],[67.2,7666],[67.2,7749],[67.2,7833],[67.2,7916],[67.2,7999],[67.2,8083],[66.9,8166],[54.6,8250],[43.6,8333],[38.5,8416],[32,8500],[22.8,8583],[15.2,8666],[15.6,8750]]",860.3603,864.4434,37.60416667,3.4127,"[{""rating"":18.125000000000004,""responseTime"":0.8560000000001082},{""rating"":37.604166666666664,""responseTime"":3.4127000000002}]",space,3.5342,,864.4435,Not at all,0,864.4464,,,[],,0,8,8,8,1,audio/Narrative7Situation8.wav,audio/Narrative8Situation8.wav,audio/Narrative5Situation8.wav,audio/Narrative6Situation8.wav,2,3,3,5,,,,,,,,,,,,,,,,,,,,,,,,,,,,,,,,,,,,,,,
,,,,,6655e4f304ea91b8ecb46edc,2025-07-07_21h59.05.784,group3.4_multiperson,2023.2.2,Win32,60.24096386,686c2ebf0248f13bef9af11f,686c7b02a931d7cfcd6c9f36,,,,,,,,,,,,,,,,,,,,,,,,,,,,,864.4466,2,audio/Narrative5Situation9.wav,867.4601,,867.4601,907.0102,"[[38.1,1250],[38.1,1333],[38.1,1416],[38.1,1499],[38.1,1583],[38.1,1666],[38.1,1749],[38.1,1833],[38.1,1916],[38.1,1999],[39.5,2083],[51.4,2166],[55.8,2249],[55.8,2333],[55.2,2416],[59.2,2500],[69.8,2583],[92.6,2666],[95,2749],[99.8,2833],[100,2916],[100,2999],[100,3083],[99.9,3166],[99.2,3250],[98.5,3333],[98.5,3416],[98.5,3500],[98.5,3583],[98.5,3666],[98.5,3750],[98.5,3833],[98.5,3916],[98.5,3999],[98.5,4083],[98.5,4166],[98.5,4250],[98.5,4333],[98.5,4416],[98.5,4499],[98.5,4583],[98.5,4666],[98.5,4749],[98.5,4833],[98.5,4916],[98.5,4999],[98.5,5083],[98.5,5166],[98.5,5249],[98.5,5333],[98.5,5416],[98.5,5499],[98.5,5583],[98.5,5666],[98.5,5749],[98.5,5833],[98.5,5916],[98.5,5999],[98.5,6083],[98.5,6166],[98.5,6249],[98.5,6333],[98.5,6416],[98.5,6499],[98.5,6583],[98.5,6666],[98.5,6750],[98.5,6833],[98.5,6916],[98.5,7000],[98.5,7083],[98.5,7166],[98.5,7249],[98.5,7333],[98.5,7416],[98.5,7499],[98.5,7583],[98.5,7666],[98.5,7749],[98.5,7833],[98.5,7916],[98.5,7999],[98.5,8083],[98.5,8166],[98.5,8250],[98.5,8333],[98.5,8416],[98.5,8499],[98.5,8583],[98.5,8666],[98.5,8749],[98.5,8833],[98.5,8916],[98.5,8999],[98.5,9083],[98.5,9166],[98.5,9249],[98.5,9333],[98.5,9416],[98.5,9500],[98.5,9582],[98.5,9666],[98.5,9749],[98.5,9833],[98.5,9916],[98.5,9999],[98.5,10083],[98.5,10166],[98.5,10249],[98.5,10333],[98.5,10416],[98.5,10499],[98.5,10583],[98.5,10666],[98.5,10749],[98.5,10833],[98.5,10916],[98.5,10999],[98.5,11083],[98.5,11166],[98.5,11250],[98.5,11333],[98.5,11416],[98.5,11499],[98.5,11583],[98.5,11666],[98.5,11749],[98.5,11833],[98.5,11916],[98.5,11999],[98.5,12083],[98.5,12166],[98.5,12249],[98.5,12333],[98.5,12416],[98.5,12499],[98.5,12582],[98.5,12666],[98.5,12749],[98.5,12833],[98.5,12916],[98.5,12999],[98.5,13083],[98.5,13166],[98.5,13249],[98.5,13333],[98.5,13416],[98.5,13499],[98.5,13583],[98.5,13666],[98.5,13749],[98.5,13833],[98.5,13916],[98.5,13999],[98.5,14083],[98.5,14166],[98.5,14249],[98.5,14333],[98.5,14416],[98.5,14499],[98.5,14583],[98.5,14666],[98.5,14749],[98.5,14833],[98.5,14916],[98.5,14999],[98.5,15083],[98.5,15166],[98.5,15249],[98.5,15333],[98.5,15416],[98.5,15499],[98.5,15583],[98.5,15666],[98.5,15749],[98.5,15833],[98.5,15916],[98.5,15999],[98.5,16083],[98.5,16166],[98.5,16249],[98.5,16333],[98.5,16416],[98.5,16499],[98.5,16583],[98.5,16666],[98.5,16749],[98.2,16833],[96.6,16916],[96.6,16999],[96.6,17083],[96.5,17166],[96.5,17249],[96.5,17333],[96.5,17416],[96.5,17499],[96.5,17583],[96.5,17666],[96.5,17750],[96.5,17832],[96.5,17916],[96.5,17999],[96.5,18083],[96.5,18166],[96.5,18249],[96.5,18333],[96.5,18416],[96.5,18499],[96.5,18583],[96.5,18666],[96.5,18749],[96.5,18833],[96.5,18916],[96.5,18999],[96.5,19083],[96.5,19166],[96.5,19249],[96.5,19333],[96.5,19416],[96.5,19499],[96.5,19583],[96.5,19666],[96.5,19749],[96.5,19833],[96.5,19916],[96.5,19999],[96.5,20083],[96.5,20166],[96.5,20249],[96.5,20333],[96.5,20416],[96.5,20499],[96.5,20583],[96.5,20666],[96.5,20749],[96.5,20833],[96.5,20916],[96.5,20999],[96.5,21083],[96.5,21166],[96.5,21249],[96.5,21333],[96.5,21416],[95.7,21500],[91.6,21583],[90.5,21666],[89.3,21750],[89.1,21833],[88.9,21916],[88.9,21999],[88.9,22083],[88.9,22166],[88.9,22249],[88.9,22333],[88.9,22416],[88.9,22499],[88.9,22583],[88.9,22666],[88.9,22750],[88.9,22833],[88.9,22916],[88.9,22999],[88.9,23083],[88.9,23166],[88.9,23249],[88.9,23333],[88.9,23416],[88.9,23500],[88.9,23583],[88.9,23666],[88.9,23749],[88.9,23833],[88.9,23916],[88.9,23999],[88.9,24083],[88.9,24166],[88.9,24249],[88.9,24333],[88.9,24416],[88.9,24499],[88.9,24583],[88.9,24667],[88.9,24749],[88.9,24833],[88.9,24916],[88.9,24999],[88.9,25083],[88.9,25166],[88.9,25249],[88.9,25333],[88.9,25416],[88.9,25499],[88.9,25583],[88.9,25666],[88.9,25749],[88.9,25832],[88.9,25916],[88.9,25999],[88.9,26083],[88.9,26166],[88.9,26249],[88.9,26333],[88.9,26416],[88.9,26499],[88.9,26583],[88.9,26666],[88.9,26749],[88.9,26833],[88.9,26916],[88.9,26999],[88.9,27083],[88.9,27166],[88.9,27249],[88.9,27333],[88.9,27416],[88.9,27500],[88.9,27583],[88.9,27666],[88.9,27750],[88.9,27833],[88.9,27916],[88.9,27999],[88.9,28083],[88.9,28166],[88.9,28249],[88.9,28333],[88.9,28416],[88.9,28499],[88.9,28583],[88.9,28666],[88.9,28749],[88.9,28833],[88.9,28916],[88.9,28999],[88.9,29083],[88.9,29166],[88.9,29249],[88.9,29333],[88.9,29416],[92.2,29499],[92.3,29583],[93.3,29669],[95.1,29750],[96.5,29832],[97.2,29916],[97.3,29999],[97.3,30083],[97.3,30166],[97.3,30249],[97.3,30333],[97.3,30416],[97.3,30499],[97.3,30583],[97.3,30666],[97.3,30749],[97.3,30833],[97.3,30916],[97.3,30999],[97.3,31083],[97.3,31166],[97.3,31249],[97.3,31333],[97.3,31416],[97.3,31499],[97.3,31583],[97.3,31666],[97.3,31749],[97.3,31833],[97.3,31916],[97.3,32000],[97.3,32082],[97.3,32166],[97.3,32249],[97.3,32333],[97.3,32416],[97.3,32499],[97.3,32583],[97.3,32666],[97.3,32749],[97.3,32833],[97.3,32916],[97.3,32999],[97.3,33083],[97.3,33166],[97.3,33249],[97.3,33333],[97.3,33416],[97.3,33500],[97.3,33583],[97.3,33666],[97.3,33749],[97.3,33833],[97.3,33916],[97.3,33999],[97.3,34083],[97.3,34166],[97.3,34249],[97.3,34333],[97.3,34416],[97.3,34500],[97.3,34583],[97.3,34666],[97.3,34750],[97.3,34833],[97.3,34916],[97.3,34999],[97.3,35083],[97.3,35166],[97.3,35249],[97.3,35333],[97.3,35416],[97.3,35499],[97.3,35583],[97.3,35666],[97.3,35749],[97.3,35833],[97.3,35916],[97.3,35999],[97.3,36083],[97.3,36166],[97.3,36250],[97.3,36333],[97.3,36416],[97.3,36499],[97.3,36583],[97.3,36666],[97.3,36749],[97.3,36833],[97.3,36916],[97.3,37000],[97.3,37083],[97.3,37166],[97.3,37249],[97.3,37333],[97.3,37416],[97.3,37499],[97.3,37583],[97.3,37666],[97.3,37749],[97.3,37833],[97.3,37916],[97.3,37999],[97.3,38083],[97.3,38166],[97.3,38249],[97.3,38333],[97.3,38416],[97.3,38499],[97.3,38582],[97.3,38666],[97.3,38749],[97.3,38833],[97.3,38916],[97.3,38999],[97.3,39083],[97.3,39166],[97.3,39249],[97.3,39333],[97.3,39416],[97.3,39499]]",907.0102,912.8769,57.5,5.5262,"[{""rating"":75.41666666666667,""responseTime"":1.905999999999949},{""rating"":61.66666666666667,""responseTime"":4.363299999999754},{""rating"":57.49999999999999,""responseTime"":5.526200000000131}]",space,5.3406,,912.8769,Definitely yes,100,912.8798,,,[],,0,9,9,9,1,audio/Narrative7Situation9.wav,audio/Narrative8Situation9.wav,audio/Narrative5Situation9.wav,audio/Narrative6Situation9.wav,2,3,3,4,,,,,,,,,,,,,,,,,,,,,,,,,,,,,,,,,,,,,,,
,,,,,6655e4f304ea91b8ecb46edc,2025-07-07_21h59.05.784,group3.4_multiperson,2023.2.2,Win32,60.24096386,686c2ebf0248f13bef9af11f,686c7b02a931d7cfcd6c9f36,,,,,,,,,,,,,,,,,,,,,,,,,,,,,912.8799,2,audio/Narrative6Situation1.wav,914.8934,,914.8935,941.4766,"[[999,0],[999,83],[999,166],[999,249],[999,333],[999,416],[999,499],[999,583],[999,667],[999,750],[999,833],[999,916],[999,999],[999,1083],[999,1166],[999,1249],[67,1333],[65.6,1416],[65.4,1499],[67.1,1583],[68.1,1666],[68.2,1750],[68.2,1833],[68.2,1916],[68.2,1999],[68.2,2083],[85.3,2166],[86.5,2249],[86.5,2333],[86.5,2416],[86.5,2499],[86.5,2583],[86.5,2666],[86.5,2749],[86.5,2833],[86.3,2916],[81.3,3000],[61.3,3083],[55.8,3166],[54.5,3250],[51.1,3333],[50,3416],[48.1,3500],[47.3,3583],[44,3666],[43.1,3749],[42.4,3833],[39.8,3916],[35.4,4000],[35.4,4083],[27.9,4166],[26.4,4249],[26.4,4333],[25.3,4416],[22.4,4500],[22.4,4583],[22.4,4666],[22.4,4749],[22.4,4833],[22.4,4916],[22.4,4999],[22.4,5083],[22.4,5166],[22.4,5249],[22.4,5333],[22.4,5416],[22.4,5499],[22.4,5583],[22.4,5666],[22.4,5749],[22.4,5833],[22.4,5916],[22.4,5999],[22.4,6083],[22.4,6166],[22.4,6249],[22.4,6333],[22.4,6416],[22.4,6499],[22.4,6583],[22.4,6666],[22.4,6749],[22.4,6833],[22.4,6916],[22.4,6999],[22.4,7083],[22.4,7166],[22.4,7249],[22.4,7334],[22.4,7416],[22.4,7499],[22.4,7583],[22.4,7666],[22.4,7749],[22.4,7833],[22.4,7916],[22.4,7999],[22.4,8083],[22.4,8166],[22.4,8249],[22.4,8333],[22.4,8416],[22.4,8500],[22.4,8583],[22.4,8666],[22.4,8749],[22.4,8833],[22.4,8916],[22.4,8999],[22.4,9083],[22.4,9166],[22.4,9249],[22.4,9333],[22.4,9416],[22.4,9499],[22.4,9583],[22.4,9666],[22.4,9749],[22.4,9833],[22.4,9916],[22.4,9999],[22.4,10083],[22.4,10166],[22.4,10249],[22.4,10333],[22.4,10416],[22.4,10499],[22.4,10583],[22.4,10666],[22.4,10749],[22.4,10833],[22.4,10916],[22.4,10999],[22.4,11083],[22.4,11166],[22.4,11249],[22.4,11333],[22.4,11416],[21.6,11499],[19.3,11583],[17.8,11666],[16.4,11749],[13.6,11833],[13.1,11916],[10.7,11999],[10.5,12083],[7.9,12166],[5.6,12249],[5,12333],[4.5,12416],[4.5,12499],[4.5,12583],[4.5,12666],[4.5,12749],[4.5,12833],[4.5,12916],[4.5,12999],[4.5,13083],[4.5,13166],[4.5,13249],[4.5,13333],[4.5,13416],[4.5,13499],[4.5,13583],[4.5,13666],[4.5,13749],[4.5,13833],[4.5,13916],[4.5,13999],[4.5,14083],[4.5,14166],[4.5,14249],[4.5,14333],[4.5,14416],[4.5,14499],[4.5,14583],[4.5,14666],[4.5,14749],[4.5,14833],[4.5,14916],[4.5,14999],[4.5,15083],[4.5,15166],[4.5,15249],[4.5,15333],[4.5,15416],[4.5,15499],[4.5,15582],[4.5,15666],[4.5,15749],[4.5,15833],[4.5,15916],[4.5,15999],[4.5,16083],[4.5,16166],[4.5,16249],[4.5,16333],[4.5,16416],[4.5,16499],[4.5,16583],[4.5,16666],[4.5,16749],[4.5,16833],[4.5,16916],[4.5,16999],[4.5,17083],[4.5,17166],[4.5,17249],[4.5,17333],[4.5,17416],[4.5,17499],[4.5,17583],[4.5,17666],[4.5,17749],[4.5,17833],[4.5,17916],[4.5,17999],[4.5,18083],[4.5,18166],[4.5,18249],[4.5,18333],[4.5,18416],[4.5,18499],[4.5,18583],[4.5,18666],[4.5,18749],[4.5,18833],[4.5,18916],[4.5,18999],[4.5,19083],[4.5,19166],[4.5,19249],[4.5,19333],[4.5,19416],[4.5,19499],[4.5,19583],[4.5,19666],[4.5,19749],[4.5,19833],[4.5,19916],[4.5,19999],[4.5,20083],[4.5,20166],[4.5,20250],[4.5,20333],[4.5,20416],[4.5,20499],[4.5,20583],[4.5,20666],[4.5,20749],[4.5,20833],[4.5,20916],[4.5,20999],[4.5,21083],[4.5,21166],[4.5,21249],[4.5,21333],[4.5,21416],[4.5,21499],[4.5,21583],[4.5,21666],[4.5,21749],[4.5,21833],[4.5,21916],[6.3,21999],[7.5,22083],[7.9,22166],[9,22250],[12.6,22333],[22.8,22416],[34.2,22499],[34.3,22583],[34.3,22666],[34.3,22749],[34.6,22833],[40.7,22916],[43.2,22999],[43.2,23083],[43.2,23166],[43.2,23249],[43.6,23333],[44.2,23416],[44.2,23499],[46.7,23583],[52.4,23666],[52.6,23749],[52.6,23833],[52.6,23916],[52.6,23999],[52.6,24083],[52.6,24166],[52.6,24249],[52.6,24333],[57.9,24416],[71.3,24500],[80,24583],[84.8,24666],[89.7,24750],[94.9,24833],[94.9,24916],[96.1,25000],[100,25083],[100,25166],[100,25249],[100,25333],[98.9,25416],[95.3,25499],[95.3,25583],[95.3,25666],[95.3,25749],[95.9,25833],[96.4,25916],[97,25999],[97.1,26083],[97.1,26166],[97.1,26249],[97.1,26332],[97.1,26416],[97.1,26499],[97.1,26583]]",941.4768,944.8765,90.41666667,2.7728,"[{""rating"":97.08333333333333,""responseTime"":0.7315999999996166},{""rating"":90.41666666666667,""responseTime"":2.7727999999998474}]",space,2.851,,944.8766,Not at all,0,953.9934,0,8.5726,"[{""rating"":2.812500000000001,""responseTime"":7.181599999999662},{""rating"":0,""responseTime"":8.572599999999625}]",space,0,10,10,10,1,audio/Narrative8Situation1.wav,audio/Narrative7Situation1.wav,audio/Narrative6Situation1.wav,audio/Narrative5Situation1.wav,5,2,2,5,,,8.5681,,,,,,,,,,,,,,,,,,,,,,,,,,,,,,,,,,,,
,,,,,6655e4f304ea91b8ecb46edc,2025-07-07_21h59.05.784,group3.4_multiperson,2023.2.2,Win32,60.24096386,686c2ebf0248f13bef9af11f,686c7b02a931d7cfcd6c9f36,,,,,,,,,,,,,,,,,,,,,,,,,,,,,953.9937,2,audio/Narrative6Situation2.wav,957.0099,,957.0099,985.5268,"[[93.2,5333],[94,5416],[94.2,5500],[95.4,5583],[96.1,5668],[97.6,5750],[99.4,5833],[99.6,5916],[99.6,5999],[99.6,6083],[99.2,6166],[99,6250],[98.3,6333],[98.2,6416],[98.2,6500],[98.2,6583],[98.2,6666],[98.2,6750],[98.2,6833],[98.2,6916],[98.2,7000],[98.2,7083],[98.2,7166],[98.2,7250],[98.2,7333],[98.2,7416],[98.2,7500],[98.2,7583],[98.2,7666],[98.2,7750],[98.2,7833],[98.2,7916],[98.2,8000],[98.2,8083],[98.2,8166],[98.2,8250],[98.2,8333],[98.2,8416],[98.2,8500],[98.2,8583],[98.2,8666],[98.2,8750],[98.2,8833],[98.2,8916],[98.2,9000],[98.2,9083],[98.2,9166],[98.2,9250],[98.2,9333],[98.2,9416],[98.2,9500],[98.2,9583],[98.2,9666],[98.2,9750],[98.2,9833],[98.2,9916],[98.2,10000],[98.2,10083],[98.2,10166],[98.2,10250],[98.2,10333],[98.2,10416],[98.2,10500],[98.2,10583],[98.2,10666],[98.2,10750],[98.2,10833],[98.2,10916],[98.2,11000],[98.2,11083],[98.2,11166],[98.2,11250],[98.2,11333],[98.2,11416],[98.2,11500],[98.2,11583],[98.2,11666],[98.2,11750],[98.2,11833],[98.2,11916],[98.2,12000],[98.2,12083],[98.2,12166],[98.2,12250],[98.2,12333],[98.2,12416],[98.2,12500],[98.2,12583],[98.2,12666],[98.2,12750],[98.2,12833],[98.2,12916],[98.2,13000],[98.2,13083],[98.2,13166],[98.2,13249],[98.2,13333],[98.2,13416],[98.2,13500],[98.2,13583],[98.2,13666],[98.2,13750],[98.2,13833],[98.2,13916],[98.2,14000],[98.2,14083],[98.2,14166],[98.2,14250],[98.2,14333],[98.2,14416],[98.2,14500],[98.2,14583],[98.2,14666],[98.2,14750],[98.2,14833],[98.2,14916],[98.2,15000],[98.2,15083],[98.2,15166],[98.2,15250],[98.2,15333],[98.2,15416],[98.2,15500],[98.2,15583],[98.2,15666],[98.2,15750],[98.2,15833],[98.2,15916],[98.2,16000],[98.2,16083],[98.2,16166],[98.2,16250],[98.2,16333],[98.2,16416],[98.2,16500],[98.2,16583],[98.2,16666],[98.2,16750],[98.2,16833],[98.2,16916],[98.2,17000],[98.2,17083],[98.2,17166],[98.2,17250],[98.2,17333],[98.2,17416],[98.2,17500],[98.2,17583],[98.2,17666],[98.2,17749],[98.2,17833],[98.2,17916],[98.2,18000],[98.2,18083],[98.2,18166],[98.2,18250],[98.2,18333],[98.2,18416],[98.2,18500],[98.2,18583],[98.2,18666],[98.2,18750],[98.2,18833],[98.2,18916],[98.2,19000],[98.2,19083],[98.2,19166],[98.2,19250],[98.2,19333],[98.2,19416],[98.2,19500],[98.2,19583],[98.2,19666],[98.2,19750],[98.2,19833],[98.2,19916],[98.2,20000],[98.2,20083],[98.2,20166],[98.2,20250],[98.2,20333],[98.2,20416],[98.2,20500],[98.2,20583],[98.2,20666],[98.2,20750],[98.2,20833],[98.2,20916],[98.2,21000],[98.2,21083],[98.2,21166],[98.2,21250],[98.2,21333],[98.2,21416],[98.2,21500],[98.2,21583],[98.2,21666],[98.2,21750],[98.2,21833],[98.2,21916],[98.2,22000],[98.2,22083],[98.2,22166],[98.2,22250],[98.2,22333],[98.2,22416],[98.2,22500],[98.2,22583],[98.2,22666],[98.2,22750],[98.2,22833],[98.2,22916],[98.2,23000],[98.2,23083],[98.2,23166],[98.2,23250],[98.2,23333],[98.2,23416],[98.2,23500],[98.2,23583],[98.2,23666],[98.2,23750],[98.2,23833],[98.2,23916],[98.2,24000],[98.2,24083],[98.2,24166],[98.2,24250],[98.2,24333],[98.2,24416],[98.2,24500],[98.2,24583],[98.2,24666],[98.2,24750],[98.2,24833],[98.2,24916],[98.2,25000],[98.2,25083],[98.2,25166],[98.2,25250],[98.2,25333],[98.2,25416],[98.2,25500],[98.2,25583],[98.2,25666],[98.2,25750],[98.2,25833],[98.2,25916],[98.2,26000],[98.2,26083],[98.2,26166],[98.2,26250],[98.2,26333],[98.2,26416],[98.2,26500],[98.2,26583],[98.2,26666],[98.2,26750],[98.2,26833],[98.2,26916],[98.2,27000],[98.2,27083],[98.2,27166],[98.2,27250],[98.2,27333],[98.2,27416],[98.2,27500],[98.2,27583],[98.2,27666],[98.2,27750],[98.2,27833],[98.2,27916],[98.2,28000],[98.2,28083],[98.2,28166],[98.2,28250],[98.2,28333],[98.2,28416],[98.2,28500]]",985.5269,987.5767,98.22916667,0.9235,"[{""rating"":98.22916666666667,""responseTime"":0.9235000000001037}]",space,1.5101,,987.5768,Partially,50,987.5795,,,[],,0,11,11,11,1,audio/Narrative8Situation2.wav,audio/Narrative7Situation2.wav,audio/Narrative6Situation2.wav,audio/Narrative5Situation2.wav,3,3,3,3,,,,,,,,,,,,,,,,,,,,,,,,,,,,,,,,,,,,,,,
,,,,,6655e4f304ea91b8ecb46edc,2025-07-07_21h59.05.784,group3.4_multiperson,2023.2.2,Win32,60.24096386,686c2ebf0248f13bef9af11f,686c7b02a931d7cfcd6c9f36,,,,,,,,,,,,,,,,,,,,,,,,,,,,,987.5797,2,audio/Narrative6Situation3.wav,992.5933,,992.5935,1005.2103,"[[97.7,2083],[97.9,2166],[98,2249],[97.8,2333],[97.5,2416],[97.5,2499],[97.5,2583],[97.5,2666],[97.5,2749],[96.9,2833],[96.9,2916],[96.9,2999],[96.9,3083],[96.9,3166],[96.9,3249],[96.9,3333],[96.9,3416],[96.9,3499],[96.9,3583],[96.9,3666],[96.9,3749],[96.9,3833],[96.9,3916],[96.9,3999],[96.9,4083],[96.9,4166],[96.9,4250],[96.9,4333],[96.9,4416],[96.9,4500],[96.9,4583],[96.9,4666],[96.9,4749],[96.9,4833],[96.9,4916],[96.9,5000],[96.9,5083],[96.9,5166],[96.9,5249],[96.9,5333],[96.9,5416],[96.9,5499],[96.9,5583],[96.9,5666],[96.9,5750],[96.9,5833],[96.9,5916],[96.9,5999],[96.9,6083],[96.9,6166],[96.9,6249],[96.9,6333],[96.9,6416],[96.9,6500],[96.9,6583],[96.9,6666],[96.9,6749],[96.9,6833],[96.9,6916],[96.9,7000],[96.9,7083],[96.9,7166],[96.9,7250],[96.9,7333],[96.9,7416],[96.9,7499],[96.9,7583],[96.9,7666],[96.9,7749],[96.9,7833],[96.9,7916],[96.9,7999],[96.9,8083],[96.9,8166],[96.9,8249],[96.9,8333],[96.9,8416],[96.9,8500],[96.9,8583],[96.9,8666],[96.9,8749],[96.9,8833],[96.9,8916],[96.9,8999],[96.9,9083],[96.9,9166],[96.9,9249],[93.2,9333],[73.3,9416],[51.8,10333],[50.9,10416],[50.7,10500],[49.8,10583],[49.8,10666],[49.8,10750],[49.8,10833],[49.8,10916],[49.8,10999],[49.8,11083],[49.8,11166],[49.8,11249],[49.8,11333],[49.8,11416],[49.8,11499],[49.8,11583],[49.8,11666],[49.8,11750],[49.8,11833],[49.8,11916],[49.8,12000],[49.8,12083],[49.8,12166],[49.8,12249],[49.8,12333],[50,12416],[54.3,12500],[57.1,12583]]",1005.2104,1008.5601,73.33333333,1.7399,"[{""rating"":73.33333333333334,""responseTime"":1.7399000000002616}]",space,2.8005,,1008.5601,Partially,50,1008.5622,,,[],,0,12,12,12,1,audio/Narrative8Situation3.wav,audio/Narrative7Situation3.wav,audio/Narrative6Situation3.wav,audio/Narrative5Situation3.wav,4,8,5,3,,,,,,,,,,,,,,,,,,,,,,,,,,,,,,,,,,,,,,,
,,,,,6655e4f304ea91b8ecb46edc,2025-07-07_21h59.05.784,group3.4_multiperson,2023.2.2,Win32,60.24096386,686c2ebf0248f13bef9af11f,686c7b02a931d7cfcd6c9f36,,,,,,,,,,,,,,,,,,,,,,,,,,,,,1008.5624,2,audio/Narrative6Situation4.wav,1010.5766,,1010.5766,1023.1934,"[[62.2,916],[62.1,1000],[65.8,1083],[71.6,1166],[72.6,1249],[72.2,1333],[70.8,1417],[67.2,1500],[61.4,1583],[60,1666],[52.1,1750],[42.3,1833],[37.7,1916],[30.7,2000],[29.7,2083],[25.9,2166],[23.1,2250],[22.6,2333],[19.8,2416],[19.7,2500],[18.9,2583],[16.3,2666],[16.3,2749],[16.3,2833],[16.3,2916],[16.3,3000],[16.3,3083],[16.3,3166],[16.3,3250],[16.3,3333],[16.3,3416],[16.3,3500],[16.3,3583],[16.3,3666],[16.3,3750],[16.3,3833],[16.3,3916],[16.3,4000],[16.3,4083],[16.3,4166],[16.3,4250],[16.3,4333],[16.3,4416],[16.3,4500],[16.3,4583],[16.3,4666],[16.3,4750],[16.3,4833],[16.3,4916],[16.3,5000],[16.3,5083],[16.3,5166],[16.3,5249],[16.3,5333],[21.3,5417],[26.5,5500],[36,5583],[43.1,5666],[43.8,5750],[49.5,5833],[49.5,5916],[50.9,6000],[53.4,6083],[56.7,6166],[58.9,6249],[58.9,6333],[58.9,6416],[58.9,6500],[58.9,6583],[58.9,6666],[58.9,6750],[58.9,6833],[58.9,6916],[58.9,7000],[58.9,7083],[58.9,7166],[58.9,7250],[58.9,7333],[58.9,7416],[58.9,7500],[58.9,7583],[58.9,7666],[58.9,7750],[58.9,7833],[58.9,7916],[58.9,8000],[58.9,8083],[58.9,8166],[58.9,8250],[54.8,8333],[53.8,8416],[53.8,8500],[52.6,8583],[52.3,8666],[47.2,8750],[47.2,8833],[47.1,8916],[45.1,9000],[44.5,9083],[44.5,9166],[44.5,9250],[44.5,9333],[44.5,9416],[44.5,9500],[44.5,9583],[44.5,9666],[44.5,9750],[44.5,9833],[44.5,9916],[44.5,10000],[44.5,10083],[44.5,10166],[44.5,10250],[44.5,10333],[44.5,10416],[44.5,10499],[44.5,10583],[44.5,10666],[44.5,10750],[44.5,10833],[44.5,10916],[44.5,10999],[44.5,11083],[44.5,11166],[44.5,11250],[44.5,11333],[44.5,11416],[44.5,11499],[44.5,11583],[44.5,11666],[44.5,11750],[44.5,11833],[44.5,11916],[44.5,12000],[44.5,12083],[44.5,12166],[44.5,12250],[44.5,12333],[44.5,12416],[44.5,12500],[44.5,12583]]",1023.1935,1025.4767,52.8125,1.2409,"[{""rating"":52.81249999999999,""responseTime"":1.240900000000238}]",space,1.7339,,1025.4769,Definitely yes,100,1025.4797,,,[],,0,13,13,13,1,audio/Narrative8Situation4.wav,audio/Narrative7Situation4.wav,audio/Narrative6Situation4.wav,audio/Narrative5Situation4.wav,3,3,2,1,,,,,,,,,,,,,,,,,,,,,,,,,,,,,,,,,,,,,,,
,,,,,6655e4f304ea91b8ecb46edc,2025-07-07_21h59.05.784,group3.4_multiperson,2023.2.2,Win32,60.24096386,686c2ebf0248f13bef9af11f,686c7b02a931d7cfcd6c9f36,,,,,,,,,,,,,,,,,,,,,,,,,,,,,1025.4797,2,audio/Narrative6Situation5.wav,1027.4932,,1027.4932,1035.4601,"[[52.9,500],[53,583],[64.8,667],[73.6,750],[75.4,834],[77.9,917],[81.1,1000],[84.9,1083],[94.5,1166],[96,1250],[96,1333],[96,1416],[96,1500],[96.1,1583],[96.1,1666],[96.4,1750],[97.2,1833],[97.2,1916],[97.2,2000],[97.2,2083],[97.2,2166],[97.2,2250],[97.2,2333],[97.2,2416],[98.3,2500],[98.4,2583],[98.4,2666],[98.4,2750],[98.4,2833],[98.4,2916],[98.4,3000],[98.4,3083],[98.4,3166],[98.4,3250],[98.4,3333],[98.4,3416],[98.4,3500],[98.4,3583],[98.4,3666],[98.4,3750],[98.4,3833],[98.4,3916],[98.4,4000],[98.4,4083],[98.4,4166],[98.4,4250],[98.4,4333],[98.4,4416],[98.4,4500],[98.4,4583],[98.4,4666],[98.4,4750],[98.4,4833],[98.4,4916],[98.4,5000],[98.4,5083],[98.4,5166],[98.4,5250],[98.4,5333],[98.4,5416],[98.4,5500],[98.4,5583],[98.4,5666],[98.4,5750],[98.4,5833],[98.4,5916],[98.4,6000],[98.4,6083],[98.4,6166],[98.4,6250],[98.4,6333],[98.4,6416],[98.4,6500],[98.4,6583],[98.4,6666],[98.4,6750],[98.4,6833],[98.4,6916],[98.4,7000],[98.4,7083],[98.4,7166],[98.4,7250],[98.4,7333],[98.4,7416],[98.4,7500],[98.4,7583],[98.4,7666],[98.4,7750],[98.4,7833],[98.4,7916]]",1035.4602,1038.4934,98.4375,1.697,"[{""rating"":98.4375,""responseTime"":1.6970000000001164}]",space,2.4888,,1038.4935,Definitely yes,100,1038.4956,,,[],,0,14,14,14,1,audio/Narrative8Situation5.wav,audio/Narrative7Situation5.wav,audio/Narrative6Situation5.wav,audio/Narrative5Situation5.wav,2,5,2,5,,,,,,,,,,,,,,,,,,,,,,,,,,,,,,,,,,,,,,,
,,,,,6655e4f304ea91b8ecb46edc,2025-07-07_21h59.05.784,group3.4_multiperson,2023.2.2,Win32,60.24096386,686c2ebf0248f13bef9af11f,686c7b02a931d7cfcd6c9f36,,,,,,,,,,,,,,,,,,,,,,,,,,,,,1038.4959,2,audio/Narrative6Situation6.wav,1040.5102,,1040.5103,1051.5935,"[[82.9,5916],[78.9,6083],[84.7,6166],[90.2,6249],[97.9,6333],[99.8,6416],[99.8,6499],[99.8,6582],[100,6666],[100,6749],[99.8,6833],[99.8,6916],[99.1,6999],[99,7083],[99,7166],[99,7249],[99,7332],[99,7416],[99,7499],[99,7582],[99,7666],[99,7749],[99,7832],[99,7916],[99,7999],[99,8083],[99,8166],[99,8249],[99,8332],[99,8416],[99,8499],[99,8583],[99,8666],[99,8749],[99,8832],[99,8916],[99,8999],[99,9082],[99,9166],[99,9250],[99,9332],[99,9416],[99,9499],[99,9582],[99,9666],[99,9749],[99,9832],[99,9916],[99,9999],[99,10082],[99,10166],[99,10249],[99,10332],[99,10416],[99,10499],[99,10582],[99,10666],[99,10749],[99,10832],[99,10916],[99,10999],[99,11082]]",1051.5935,1054.5101,97.5,1.6084,"[{""rating"":97.5,""responseTime"":1.608400000000529}]",space,2.3712,,1054.5101,Not at all,0,1054.5128,,,[],,0,15,15,15,1,audio/Narrative8Situation6.wav,audio/Narrative7Situation6.wav,audio/Narrative6Situation6.wav,audio/Narrative5Situation6.wav,2,3,2,3,,,,,,,,,,,,,,,,,,,,,,,,,,,,,,,,,,,,,,,
