consent.started,consent.stopped,consentResponse.keys,consentResponse.rt,consentResponse.duration,participantID,date,expName,psychopyVersion,OS,frameRate,STUDY_ID,SESSION_ID,opening1.started,opening1.stopped,keyEndingOpening1.keys,keyEndingOpening1.rt,keyEndingOpening1.duration,volumeAdjust.started,volumeAdjust.stopped,endingAdjust.keys,endingAdjust.rt,endingAdjust.duration,opening2.started,opening2.stopped,keyEndingOpening.keys,keyEndingOpening.rt,keyEndingOpening.duration,mouse.x,mouse.y,mouse.leftButton,mouse.midButton,mouse.rightButton,mouse.time,instructionLoop.thisRepN,instructionLoop.thisTrialN,instructionLoop.thisN,instructionLoop.thisIndex,instructionLoop.ran,readyForAudio.started,readyForAudio.stopped,fixation.started,run,audio_played,fixation.stopped,endPractice.keys,audioPre.started,audioPre.stopped,continuousResponses_audio,intRating.started,intRating.stopped,intQuestionSlider.response,intQuestionSlider.rt,intQuestionSlider.history,confirmResponse.keys,confirmResponse.rt,confirmResponse.duration,catchQuestion.started,catch_label,catch_value,catchQuestion.stopped,catchQuestionSlider.response,catchQuestionSlider.rt,catchQuestionSlider.history,confirmResponse_2.keys,audioRunLoop.thisRepN,audioRunLoop.thisTrialN,audioRunLoop.thisN,audioRunLoop.thisIndex,audioRunLoop.ran,conditions1_1,conditions2_1,conditions1_2,conditions2_2,dur1_1,dur2_1,dur1_2,dur2_2,endPractice.rt,endPractice.duration,confirmResponse_2.rt,confirmResponse_2.duration,runIntervalBreak.started,runIntervalBreak.stopped,endingBreakKey.keys,endingBreakKey.rt,endingBreakKey.duration,connection.started,connection.stopped,connectionEnding.keys,connectionEnding.rt,connectionEnding.duration,readyForText.started,readyForText.stopped,textPre.started,run_dup,textPre.stopped,continuousResponses_text,textRunLoop.thisRepN,textRunLoop.thisTrialN,textRunLoop.thisN,textRunLoop.thisIndex,textRunLoop.ran,text1_1,text1_2,text2_1,text2_2,runBreakText.started,runBreakText.stopped,endingBreakKey_2.keys,endingBreakKey_2.rt,endingBreakKey_2.duration,ending.started,ending.stopped,endingEnding.keys,endingEnding.rt,endingEnding.duration
0.0006,24.5413,y,24.2192,,66553eb5f10b5700001d20de,2025-07-07_21h01.58.818,group3.4_multiperson,2023.2.2,MacIntel,59.99880002,686c2ebf0248f13bef9af11f,686c7b7b82ee3ad1c3c95969,,,,,,,,,,,,,,,,,,,,,,,,,,,,,,,,,,,,,,,,,,,,,,,,,,,,,,,,,,,,,,,,,,,,,,,,,,,,,,,,,,,,,,,,,,,,,,,,,,,,,,,,
,,,,,66553eb5f10b5700001d20de,2025-07-07_21h01.58.818,group3.4_multiperson,2023.2.2,MacIntel,59.99880002,686c2ebf0248f13bef9af11f,686c7b7b82ee3ad1c3c95969,24.5419,40.3608,space,15.7691,,,,,,,,,,,,,,,,,,,,,,,,,,,,,,,,,,,,,,,,,,,,,,,,,,,,,,,,,,,,,,,,,,,,,,,,,,,,,,,,,,,,,,,,,,,,,,,,,,,,
,,,,,66553eb5f10b5700001d20de,2025-07-07_21h01.58.818,group3.4_multiperson,2023.2.2,MacIntel,59.99880002,686c2ebf0248f13bef9af11f,686c7b7b82ee3ad1c3c95969,,,,,,40.3614,56.6614,space,15.9681,,,,,,,,,,,,,,,,,,,,,,,,,,,,,,,,,,,,,,,,,,,,,,,,,,,,,,,,,,,,,,,,,,,,,,,,,,,,,,,,,,,,,,,,,,,,,,,
,,,,,66553eb5f10b5700001d20de,2025-07-07_21h01.58.818,group3.4_multiperson,2023.2.2,MacIntel,59.99880002,686c2ebf0248f13bef9af11f,686c7b7b82ee3ad1c3c95969,,,,,,,,,,,56.6714,69.2984,space,12.6007,,[],[],[],[],[],[],0,0,0,0,1,,,,,,,,,,,,,,,,,,,,,,,,,,,,,,,,,,,,,,,,,,,,,,,,,,,,,,,,,,,,,,,,,,,,,,,,,,,,,,
,,,,,66553eb5f10b5700001d20de,2025-07-07_21h01.58.818,group3.4_multiperson,2023.2.2,MacIntel,59.99880002,686c2ebf0248f13bef9af11f,686c7b7b82ee3ad1c3c95969,,,,,,,,,,,69.2993,78.9626,space,9.4336,,[],[],[],[],[],[],1,0,1,0,1,,,,,,,,,,,,,,,,,,,,,,,,,,,,,,,,,,,,,,,,,,,,,,,,,,,,,,,,,,,,,,,,,,,,,,,,,,,,,,
,,,,,66553eb5f10b5700001d20de,2025-07-07_21h01.58.818,group3.4_multiperson,2023.2.2,MacIntel,59.99880002,686c2ebf0248f13bef9af11f,686c7b7b82ee3ad1c3c95969,,,,,,,,,,,78.9637,93.3788,space,14.3542,,[],[],[],[],[],[],2,0,2,0,1,,,,,,,,,,,,,,,,,,,,,,,,,,,,,,,,,,,,,,,,,,,,,,,,,,,,,,,,,,,,,,,,,,,,,,,,,,,,,,
,,,,,66553eb5f10b5700001d20de,2025-07-07_21h01.58.818,group3.4_multiperson,2023.2.2,MacIntel,59.99880002,686c2ebf0248f13bef9af11f,686c7b7b82ee3ad1c3c95969,,,,,,,,,,,93.3797,122.5825,space,29.1668,,[],[],[],[],[],[],3,0,3,0,1,,,,,,,,,,,,,,,,,,,,,,,,,,,,,,,,,,,,,,,,,,,,,,,,,,,,,,,,,,,,,,,,,,,,,,,,,,,,,,
,,,,,66553eb5f10b5700001d20de,2025-07-07_21h01.58.818,group3.4_multiperson,2023.2.2,MacIntel,59.99880002,686c2ebf0248f13bef9af11f,686c7b7b82ee3ad1c3c95969,,,,,,,,,,,122.583,144.3822,space,21.7748,,[],[],[],[],[],[],4,0,4,0,1,,,,,,,,,,,,,,,,,,,,,,,,,,,,,,,,,,,,,,,,,,,,,,,,,,,,,,,,,,,,,,,,,,,,,,,,,,,,,,
,,,,,66553eb5f10b5700001d20de,2025-07-07_21h01.58.818,group3.4_multiperson,2023.2.2,MacIntel,59.99880002,686c2ebf0248f13bef9af11f,686c7b7b82ee3ad1c3c95969,,,,,,,,,,,144.3828,150.6675,space,6.257,,[],[],[],[],[],[],5,0,5,0,1,,,,,,,,,,,,,,,,,,,,,,,,,,,,,,,,,,,,,,,,,,,,,,,,,,,,,,,,,,,,,,,,,,,,,,,,,,,,,,
,,,,,66553eb5f10b5700001d20de,2025-07-07_21h01.58.818,group3.4_multiperson,2023.2.2,MacIntel,59.99880002,686c2ebf0248f13bef9af11f,686c7b7b82ee3ad1c3c95969,,,,,,,,,,,,,,,,,,,,,,,,,,,150.6738,153.2509,153.2879,1,audio/Narrative13Situation2.wav,155.2996,,155.2999,185.0547,"[[999,2],[999,134],[999,219],[999,302],[999,385],[999,466],[999,551],[999,634],[999,719],[999,801],[999,884],[999,969],[999,1050],[999,1133],[999,1218],[999,1300],[999,1382],[999,1466],[999,1552],[999,1636],[999,1716],[999,1799],[999,1882],[999,1968],[45.6,2051],[46.7,2134],[47.2,2220],[48,2301],[48.3,2384],[48.3,2467],[48.3,2550],[48.3,2635],[48.3,2718],[48.2,2800],[48.1,2884],[48.1,2967],[48,3049],[48,3136],[47.9,3218],[47.8,3302],[47.7,3386],[47.7,3467],[47.6,3552],[47.6,3633],[47.6,3718],[47.6,3802],[47.6,3886],[47.6,3970],[47.6,4052],[47.6,4135],[47.6,4218],[47.6,4302],[47.6,4384],[47.7,4469],[47.8,4554],[47.9,4634],[47.9,4719],[48,4800],[48,4884],[48,4967],[48.1,5050],[48.2,5134],[48.3,5218],[48.5,5300],[49.3,5384],[50.8,5468],[52.1,5554],[52.7,5637],[53.7,5721],[54.9,5803],[55.4,5885],[55.7,5967],[56,6052],[56.2,6136],[56.7,6219],[57.4,6306],[57.9,6385],[58.5,6468],[58.6,6550],[58.8,6637],[59.1,6718],[59.4,6803],[59.7,6885],[60,6967],[60.6,7053],[61.4,7135],[62.2,7219],[63.6,7301],[65,7384],[66,7467],[66,7552],[66,7633],[66,7717],[66,7802],[68.5,7885],[70.9,7968],[74.1,8052],[75.8,8136],[75.9,8219],[75.9,8301],[75.9,8384],[75.9,8469],[80.1,8551],[86.4,8638],[89.3,8718],[92.2,8802],[96.5,8885]]",185.0552,195.3739,99.6110026,7.6399,"[{""rating"":99.61100260416667,""responseTime"":7.639900000095366}]",space,9.7699,,195.3743,Not at all,0,195.4004,,,[],,0,0,0,0,1,audio/Narrative13Situation2.wav,audio/Narrative13Situation2.wav,audio/Narrative13Situation2.wav,audio/Narrative13Situation2.wav,2,2,2,2,,,,,,,,,,,,,,,,,,,,,,,,,,,,,,,,,,,,,,,
,,,,,66553eb5f10b5700001d20de,2025-07-07_21h01.58.818,group3.4_multiperson,2023.2.2,MacIntel,59.99880002,686c2ebf0248f13bef9af11f,686c7b7b82ee3ad1c3c95969,,,,,,,,,,,,,,,,,,,,,,,,,,,,,195.401,1,audio/Narrative7Situation1.wav,198.9562,space,198.9565,254.8609,"[[999,2],[999,97],[999,182],[999,266],[999,347],[999,431],[999,513],[999,595],[999,681],[999,765],[999,847],[999,931],[999,1015],[999,1095],[999,1180],[999,1264],[999,1345],[999,1429],[999,1513],[999,1598],[999,1682],[999,1763],[999,1848],[999,1929],[999,2014],[999,2098],[999,2182],[999,2263],[999,2346],[999,2432],[999,2519],[999,2595],[999,2681],[999,2765],[999,2847],[999,2930],[999,3014],[999,3100],[999,3180],[999,3265],[65.2,3349],[65.9,3430],[67.2,3514],[68.4,3597],[68.6,3679],[68.8,3764],[73,3848],[76.9,3933],[78.9,4016],[79.4,4096],[79.4,4181],[79.4,4263],[79.4,4347],[81.7,4432],[83.1,4516],[84.2,4597],[87.2,4681],[88.9,4765],[90.8,4847],[94.8,4932],[97.5,5017],[99.7,5101],[100,5181],[100,5264],[100,5349],[100,5430],[100,5513],[100,5595],[100,5682],[100,5762],[100,5846],[100,5931],[100,6014],[100,6097],[100,6180],[100,6265],[100,6347],[100,6430],[100,6512],[100,6597],[100,6680],[100,6765],[100,6849],[100,6933],[100,7014],[100,7098],[100,7180],[100,7264],[100,7348],[100,7433],[100,7514],[100,7597],[100,7680],[100,7763],[100,7847],[100,7931],[100,8015],[100,8096],[100,8181],[100,8262],[100,8346],[100,8432],[100,8514],[100,8596],[100,8681],[100,8764],[100,8846],[100,8932],[100,9014],[100,9097],[100,9180],[100,9267],[100,9348],[100,9430],[100,9515],[100,9598],[100,9681],[100,9767],[100,9847],[100,9931],[100,10016],[100,10097],[100,10180],[100,10265],[100,10349],[100,10430],[100,10515],[100,10599],[100,10679],[100,10764],[100,10848],[100,10933],[100,11014],[100,11097],[100,11182],[100,11264],[100,11347],[100,11432],[100,11515],[100,11601],[100,11682],[100,11765],[100,11850],[100,11931],[100,12015],[100,12100],[100,12181],[100,12264],[100,12350],[100,12432],[100,12514],[100,12599],[100,12682],[100,12764],[100,12848],[100,12932],[100,13017],[100,13098],[100,13182],[100,13267],[100,13348],[100,13431],[100,13514],[100,13600],[100,13681],[100,13766],[100,13847],[100,13930],[100,14015],[100,14098],[100,14180],[100,14265],[100,14349],[100,14430],[100,14514],[100,14599],[100,14681],[100,14765],[100,14849],[100,14933],[100,15014],[100,15096],[100,15182],[100,15263],[100,15348],[100,15431],[100,15516],[100,15599],[100,15681],[100,15765],[100,15846],[100,15931],[100,16014],[100,16097],[100,16182],[100,16265],[100,16349],[100,16433],[100,16517],[100,16598],[100,16682],[100,16763],[100,16848],[100,16932],[100,17013],[100,17098],[100,17181],[100,17266],[100,17347],[100,17431],[100,17516],[100,17597],[100,17681],[100,17765],[100,17849],[100,17934],[100,18015],[100,18097],[100,18180],[100,18265],[100,18346],[100,18433],[100,18517],[100,18598],[100,18682],[100,18763],[100,18848],[100,18932],[100,19013],[100,19097],[100,19180],[100,19265],[100,19350],[100,19431],[100,19514],[100,19600],[100,19680],[100,19764],[100,19849],[100,19933],[100,20016],[100,20099],[100,20181],[100,20268],[100,20348],[100,20432],[100,20514],[100,20598],[100,20681],[100,20766],[100,20848],[100,20931],[100,21014],[100,21099],[100,21183],[100,21265],[100,21349],[100,21431],[100,21515],[100,21599],[100,21681],[100,21765],[100,21848],[100,21934],[100,22016],[100,22098],[100,22183],[100,22266],[100,22347],[100,22432],[100,22516],[100,22598],[100,22682],[100,22766],[100,22847],[100,22931],[100,23015],[100,23100],[100,23181],[100,23265],[100,23349],[100,23433],[100,23515],[100,23598],[100,23683],[100,23765],[100,23848],[100,23933],[100,24013],[100,24098],[100,24181],[100,24267],[100,24350],[100,24432],[100,24515],[100,24598],[100,24681],[100,24766],[100,24850],[100,24935],[100,25016],[100,25098],[100,25180],[100,25265],[100,25349],[100,25434],[100,25515],[100,25598],[100,25681],[100,25764],[100,25848],[100,25930],[100,26014],[100,26097],[100,26182],[100,26264],[100,26347],[100,26432],[100,26515],[100,26600],[100,26682],[100,26765],[100,26848],[100,26931],[100,27015],[100,27097],[100,27181],[100,27265],[100,27349],[100,27431],[100,27515],[100,27599],[100,27683],[100,27764],[100,27850],[100,27932],[100,28015],[100,28099],[100,28180],[100,28266],[100,28350],[100,28430],[100,28516],[100,28600],[100,28681],[100,28764],[100,28847],[100,28934],[100,29015],[100,29099],[100,29180],[100,29265],[100,29349],[100,29433],[100,29515],[100,29598],[100,29683],[100,29764],[100,29847],[100,29932],[100,30015],[100,30101],[100,30183],[100,30265],[100,30351],[100,30432],[100,30515],[100,30600],[100,30683],[100,30765],[100,30851],[100,30931],[100,31015],[100,31099],[100,31183],[100,31265],[100,31349],[100,31432],[100,31517],[100,31601],[100,31682],[100,31767],[100,31848],[100,31932],[100,32016],[100,32100],[100,32185],[100,32267],[100,32350],[100,32431],[100,32516],[100,32599],[100,32681],[100,32765],[100,32849],[100,32934],[100,33017],[100,33099],[100,33182],[100,33267],[100,33352],[100,33433],[100,33517],[100,33599],[100,33683],[100,33766],[100,33851],[100,33932],[100,34014],[100,34100],[100,34184],[100,34265],[100,34348],[100,34434],[100,34515],[100,34599],[100,34682],[100,34764],[100,34849],[100,34933],[100,35018],[100,35101],[100,35182],[100,35267],[100,35348],[100,35432],[100,35517],[100,35601],[100,35681],[100,35767],[100,35850],[100,35932],[100,36016],[100,36097],[100,36182],[100,36266],[100,36349],[100,36435],[100,36515],[100,36599],[100,36684],[100,36767],[100,36850],[100,36931],[100,37017],[100,37098],[100,37183],[100,37267],[100,37351],[100,37432],[100,37516],[100,37601],[100,37681],[100,37766],[100,37848],[100,37934],[100,38014],[100,38098],[100,38182],[100,38264],[100,38350],[100,38433],[100,38514],[100,38598],[100,38683],[100,38768],[100,38849],[100,38933],[100,39015],[100,39099],[100,39181],[100,39267],[100,39351],[100,39436],[100,39516],[100,39600],[100,39682],[100,39769],[100,39850],[100,39935],[100,40016],[100,40100],[100,40182],[100,40267],[100,40348],[100,40434],[100,40518],[100,40598],[100,40683],[100,40767],[100,40849],[100,40933],[100,41017],[100,41102],[100,41181],[100,41266],[100,41351],[100,41435],[100,41516],[100,41600],[100,41682],[100,41765],[100,41850],[100,41935],[100,42016],[100,42100],[100,42184],[100,42268],[100,42349],[100,42433],[100,42516],[100,42601],[100,42683],[100,42767],[100,42850],[100,42931],[100,43017],[100,43101],[100,43182],[100,43267],[100,43350],[100,43435],[100,43516],[100,43602],[100,43684],[100,43766],[100,43849],[100,43934],[100,44018],[100,44102],[100,44184],[100,44266],[100,44352],[100,44433],[100,44517],[100,44602],[100,44686],[100,44767],[100,44850],[100,44933],[100,45018],[100,45099],[100,45185],[100,45268],[100,45348],[100,45434],[100,45515],[100,45600],[100,45684],[100,45765],[100,45850],[100,45933],[100,46017],[100,46100],[100,46183],[100,46268],[100,46349],[100,46433],[100,46517],[100,46601],[100,46682],[100,46767],[100,46848],[100,46932],[100,47017],[100,47101],[100,47185],[100,47266],[100,47350],[100,47435],[100,47516],[100,47600],[100,47684],[100,47765],[100,47848],[100,47934],[100,48018],[100,48098],[100,48183],[100,48266],[100,48349],[100,48435],[100,48516],[100,48601],[100,48686],[100,48765],[100,48851],[100,48932],[100,49016],[100,49100],[100,49184],[100,49269],[100,49350],[100,49433],[100,49515],[100,49600],[100,49683],[100,49768],[100,49850],[100,49932],[100,50018],[100,50102],[100,50183],[100,50268],[100,50351],[100,50435],[100,50517],[100,50601],[100,50682],[100,50767],[100,50849],[100,50934],[100,51016],[100,51100],[100,51185],[100,51268],[100,51350],[100,51434],[100,51518],[100,51599],[100,51684],[100,51767],[100,51853],[100,51933],[100,52016],[100,52102],[100,52183],[100,52271],[100,52351],[100,52435],[100,52517],[100,52601],[100,52684],[100,52766],[100,52853],[100,52933],[100,53017],[100,53100],[100,53184],[100,53269],[100,53352],[100,53435],[100,53518],[100,53602],[100,53683],[100,53766],[100,53849],[100,53937],[100,54018],[100,54100],[100,54183],[100,54267],[100,54349],[100,54435],[100,54517],[100,54601],[100,54683],[100,54768],[100,54849],[100,54934],[100,55017],[100,55100],[100,55184],[100,55267],[100,55350],[100,55437],[100,55518],[100,55601],[100,55682],[100,55765],[100,55853]]",254.8615,260.5751,99.45583767,4.445,"[{""rating"":99.45583767361111,""responseTime"":4.444999999999993}]",space,5.1823,,260.5752,Not at all,0,260.595,,,[],,0,1,1,1,1,audio/Narrative7Situation1.wav,audio/Narrative8Situation1.wav,audio/Narrative5Situation1.wav,audio/Narrative6Situation1.wav,2,5,5,2,3.5285,,,,,,,,,,,,,,,,,,,,,,,,,,,,,,,,,,,,,,
,,,,,66553eb5f10b5700001d20de,2025-07-07_21h01.58.818,group3.4_multiperson,2023.2.2,MacIntel,59.99880002,686c2ebf0248f13bef9af11f,686c7b7b82ee3ad1c3c95969,,,,,,,,,,,,,,,,,,,,,,,,,,,,,260.5955,1,audio/Narrative7Situation2.wav,263.6096,,263.6098,271.0946,"[[999,1],[999,80],[999,165],[999,249],[999,333],[999,414],[999,498],[999,582],[999,665],[999,749],[999,833],[999,917],[999,997],[999,1081],[999,1166],[999,1250],[999,1331],[999,1417],[999,1497],[999,1581],[999,1665],[999,1748],[999,1831],[999,1913],[999,2002],[999,2083],[999,2165],[999,2248],[999,2333],[999,2418],[999,2498],[999,2584],[999,2668],[999,2751],[999,2835],[999,2914],[999,2998],[999,3084],[999,3165],[999,3247],[999,3333],[999,3414],[70.1,3500],[68.3,3582],[68.3,3664],[70.5,3752],[72.7,3831],[75.1,3914],[75.7,3999],[75.7,4081],[75.7,4163],[81.6,4249],[88.7,4330],[90.2,4418],[90.4,4498],[90.4,4581],[90.4,4666],[90.4,4747],[90.4,4834],[90.4,4916],[90.4,4999],[90.4,5080],[92.1,5166],[95.4,5250],[98.6,5336],[99.7,5415],[100,5500],[100,5586],[100,5665],[100,5749],[100,5836],[100,5915],[100,5998],[100,6083],[100,6166],[100,6251],[100,6333],[100,6416],[100,6501],[100,6582],[100,6665],[100,6751],[100,6831],[100,6915],[100,7000],[100,7081],[100,7165],[100,7250],[100,7331],[100,7418]]",271.095,274.2094,99.63107639,1.9904,"[{""rating"":99.63107638888889,""responseTime"":1.9903999996185462}]",space,2.5664,,274.2095,Definitely yes,100,274.2295,,,[],,0,2,2,2,1,audio/Narrative7Situation2.wav,audio/Narrative8Situation2.wav,audio/Narrative5Situation2.wav,audio/Narrative6Situation2.wav,3,3,3,3,,,,,,,,,,,,,,,,,,,,,,,,,,,,,,,,,,,,,,,
,,,,,66553eb5f10b5700001d20de,2025-07-07_21h01.58.818,group3.4_multiperson,2023.2.2,MacIntel,59.99880002,686c2ebf0248f13bef9af11f,686c7b7b82ee3ad1c3c95969,,,,,,,,,,,,,,,,,,,,,,,,,,,,,274.2301,1,audio/Narrative7Situation3.wav,282.2434,,282.2434,291.4952,"[[999,1],[999,84],[999,168],[999,250],[999,333],[999,414],[999,499],[999,583],[999,669],[999,749],[999,836],[999,917],[999,998],[999,1082],[999,1167],[999,1249],[999,1331],[999,1416],[999,1499],[999,1584],[999,1669],[999,1751],[999,1835],[999,1915],[999,2002],[999,2086],[999,2167],[999,2253],[999,2334],[999,2420],[999,2500],[999,2583],[49.8,2668],[50,2752],[50,2833],[49.9,2916],[49.9,3001],[49.9,3082],[49.9,3165],[49.9,3250],[49.9,3333],[49.9,3419],[49.9,3498],[49.9,3583],[49.9,3666],[49.9,3750],[49.9,3833],[49.9,3918],[49.9,4000],[49.9,4082],[49.9,4166],[49.9,4249],[49.9,4332],[49.9,4417],[49.9,4498],[49.9,4581],[49.9,4667],[49.9,4750],[49.9,4831],[49.9,4916],[49.9,4999],[49.9,5085],[49.9,5166],[49.9,5250],[49.9,5331],[49.9,5415],[49.9,5498],[49.9,5582],[49.9,5665],[49.9,5749],[49.9,5833],[49.9,5917],[49.9,5998],[49.9,6083],[49.9,6166],[49.9,6252],[49.9,6333],[49.9,6416],[49.9,6499],[49.9,6582],[49.9,6665],[50.3,6752],[51,6836],[54.6,6917],[62.6,7002],[64.2,7083],[64.2,7166],[64.2,7250],[70.8,7336],[77.9,7416],[78.1,7499],[78.1,7583],[81.8,7666],[90.8,7750],[91.4,7836],[91.4,7917],[91.4,8001],[94.2,8086],[97.2,8169],[99.8,8250],[100,8333],[100,8418],[100,8502],[100,8586],[100,8667],[100,8750],[100,8831],[100,8918],[100,9003],[100,9084],[100,9168],[100,9251]]",291.4963,294.0095,99.78786892,1.5239,"[{""rating"":99.78786892361111,""responseTime"":1.5239000000953524}]",space,1.9681,,294.0096,Not at all,0,294.0304,,,[],,0,3,3,3,1,audio/Narrative7Situation3.wav,audio/Narrative8Situation3.wav,audio/Narrative5Situation3.wav,audio/Narrative6Situation3.wav,8,4,3,5,,,,,,,,,,,,,,,,,,,,,,,,,,,,,,,,,,,,,,,
,,,,,66553eb5f10b5700001d20de,2025-07-07_21h01.58.818,group3.4_multiperson,2023.2.2,MacIntel,59.99880002,686c2ebf0248f13bef9af11f,686c7b7b82ee3ad1c3c95969,,,,,,,,,,,,,,,,,,,,,,,,,,,,,294.0311,1,audio/Narrative7Situation4.wav,297.0437,,297.0438,308.7796,"[[999,0],[999,83],[999,166],[999,252],[999,333],[999,416],[999,501],[999,582],[999,666],[999,752],[999,835],[999,915],[999,1000],[999,1084],[999,1168],[999,1250],[999,1333],[999,1415],[999,1499],[999,1583],[999,1665],[999,1749],[999,1833],[999,1918],[999,1999],[999,2083],[999,2168],[999,2251],[999,2335],[999,2418],[999,2500],[999,2585],[999,2666],[999,2750],[999,2835],[999,2916],[999,3003],[999,3084],[999,3165],[999,3249],[999,3334],[999,3417],[999,3502],[999,3583],[999,3666],[999,3750],[999,3831],[999,3915],[999,4001],[999,4086],[999,4170],[999,4254],[999,4335],[999,4416],[999,4502],[999,4582],[999,4665],[999,4750],[999,4834],[999,4918],[999,5000],[999,5083],[999,5168],[999,5250],[999,5336],[999,5419],[999,5500],[999,5583],[999,5668],[999,5749],[61.2,5834],[57.9,5918],[56.6,6003],[55.7,6084],[54.5,6167],[53.9,6251],[53.3,6336],[53,6417],[52.8,6501],[52.5,6585],[52.4,6665],[52.4,6748],[52.4,6834],[52.4,6917],[52.4,6999],[52.4,7084],[52.4,7168],[52.4,7250],[52.4,7333],[52.4,7416],[52.4,7502],[52.4,7583],[52.4,7667],[52.4,7751],[52.4,7835],[52.4,7918],[52.4,8002],[52.4,8085],[52.6,8165],[53.4,8251],[51.8,8335],[46.1,8422],[43.2,8501],[41.8,8583],[41.3,8670],[41.3,8750],[41.3,8836],[41.3,8918],[41.3,9002],[40.5,9083],[35.5,9168],[29.6,9252],[27,9336],[26.9,9418],[26.9,9501],[26.9,9586],[26.9,9667],[26.9,9750],[26.9,9832],[26.9,9917],[26.9,10001],[26.9,10085],[26.9,10166],[26.9,10250],[26.9,10334],[26.9,10416],[26.9,10499],[26.9,10584],[26.9,10668],[26.9,10749],[26.9,10834],[26.9,10917],[26.9,11002],[26.9,11082],[26.9,11167],[26.9,11252],[26.9,11336],[26.9,11417],[26.9,11502],[26.9,11585],[26.9,11666]]",308.7799,311.5153,15.36024306,1.4086,"[{""rating"":15.360243055555555,""responseTime"":1.4085999999045953}]",space,2.1848,,311.5157,Not at all,0,311.5328,,,[],,0,4,4,4,1,audio/Narrative7Situation4.wav,audio/Narrative8Situation4.wav,audio/Narrative5Situation4.wav,audio/Narrative6Situation4.wav,3,3,1,2,,,,,,,,,,,,,,,,,,,,,,,,,,,,,,,,,,,,,,,
,,,,,66553eb5f10b5700001d20de,2025-07-07_21h01.58.818,group3.4_multiperson,2023.2.2,MacIntel,59.99880002,686c2ebf0248f13bef9af11f,686c7b7b82ee3ad1c3c95969,,,,,,,,,,,,,,,,,,,,,,,,,,,,,311.5333,1,audio/Narrative7Situation5.wav,316.5451,,316.5453,325.0152,"[[999,1],[999,83],[999,168],[999,252],[999,333],[999,417],[999,501],[999,585],[999,668],[999,751],[999,836],[999,917],[999,999],[999,1082],[999,1166],[999,1249],[999,1334],[999,1418],[999,1503],[999,1584],[999,1668],[999,1750],[999,1834],[999,1917],[999,2001],[999,2083],[999,2166],[999,2249],[999,2333],[999,2417],[999,2502],[999,2582],[48.9,2666],[48.3,2751],[48.3,2835],[48.3,2920],[48.3,3001],[48.3,3084],[48.3,3169],[48.3,3250],[48.3,3334],[48.2,3416],[48,3502],[48,3583],[48,3668],[47.9,3753],[47.8,3832],[47.7,3918],[47.6,4001],[47.6,4083],[47.6,4167],[47.6,4251],[47.6,4332],[47.6,4417],[47.6,4501],[47.6,4585],[47.6,4667],[47.9,4751],[49.3,4836],[51.4,4917],[52.5,5002],[52.9,5086],[53.5,5169],[54.2,5249],[54.6,5335],[55,5416],[55.2,5499],[55.5,5585],[55.8,5668],[56.3,5750],[56.8,5837],[56.9,5919],[57.3,6004],[57.4,6084],[57.8,6166],[58.6,6252],[58.8,6337],[59,6417],[60,6502],[61.3,6588],[61.7,6666],[61.7,6751],[61.7,6833],[61.7,6919],[61.7,7000],[61.7,7083],[61.7,7169],[61.7,7250],[61.7,7334],[61.7,7418],[61.7,7502],[61.7,7583],[61.7,7668],[61.7,7751],[61.7,7836],[61.7,7918],[61.7,8001],[61.7,8082],[61.7,8167],[61.7,8250],[61.7,8332],[61.7,8417]]",325.0158,327.5633,82.90798611,1.839,"[{""rating"":82.90798611111111,""responseTime"":1.8389999999999986}]",space,2.0097,,327.5634,Partially,50,327.5869,,,[],,0,5,5,5,1,audio/Narrative7Situation5.wav,audio/Narrative8Situation5.wav,audio/Narrative5Situation5.wav,audio/Narrative6Situation5.wav,5,2,5,2,,,,,,,,,,,,,,,,,,,,,,,,,,,,,,,,,,,,,,,
,,,,,66553eb5f10b5700001d20de,2025-07-07_21h01.58.818,group3.4_multiperson,2023.2.2,MacIntel,59.99880002,686c2ebf0248f13bef9af11f,686c7b7b82ee3ad1c3c95969,,,,,,,,,,,,,,,,,,,,,,,,,,,,,327.5873,1,audio/Narrative7Situation6.wav,330.5962,,330.5963,340.5665,"[[999,0],[999,84],[999,166],[999,248],[999,333],[999,416],[999,501],[999,583],[999,667],[999,752],[999,834],[999,916],[999,1002],[999,1085],[999,1166],[999,1250],[999,1333],[999,1418],[999,1500],[999,1583],[999,1668],[999,1751],[999,1833],[999,1915],[999,1999],[999,2083],[999,2167],[999,2250],[999,2331],[999,2417],[999,2501],[999,2585],[999,2667],[999,2751],[999,2837],[999,2917],[96.9,3001],[97.4,3085],[97.4,3169],[97.4,3254],[97.4,3334],[97.4,3417],[98.2,3500],[99.3,3584],[99.6,3668],[99.6,3750],[99.6,3833],[99.6,3916],[99.6,3998],[99.6,4084],[99.6,4166],[99.6,4251],[99.6,4333],[99.6,4420],[99.6,4501],[99.6,4585],[99.7,4667],[99.9,4751],[99.9,4835],[99.9,4916],[99.9,5000],[99.9,5084],[99.9,5168],[99.9,5250],[99.9,5333],[99.9,5415],[99.9,5502],[99.9,5581],[99.9,5668],[99.9,5749],[99.9,5832],[99.9,5917],[99.9,6001],[99.9,6082],[99.9,6167],[99.9,6251],[99.9,6335],[99.9,6417],[99.9,6500],[99.9,6585],[99.9,6666],[99.9,6750],[99.9,6834],[99.9,6919],[99.9,7003],[99.9,7085],[99.9,7168],[99.9,7250],[99.9,7332],[99.9,7418],[99.9,7498],[99.9,7585],[99.9,7666],[99.9,7752],[99.9,7833],[99.9,7915],[99.9,8001],[99.9,8085],[99.9,8166],[99.9,8251],[99.9,8335],[99.9,8419],[99.9,8500],[99.9,8584],[99.9,8669],[99.9,8750],[99.9,8833],[99.9,8918],[99.9,9000],[99.9,9083],[99.9,9168],[99.8,9249],[99.8,9333],[99.8,9418],[99.8,9503],[99.8,9582],[99.8,9667],[99.8,9751],[99.8,9832],[99.8,9917]]",340.5671,342.0494,99.69672309,0.9095,"[{""rating"":99.69672309027777,""responseTime"":0.9095000000000368}]",space,0.9391,,342.0496,Partially,50,342.0656,,,[],,0,6,6,6,1,audio/Narrative7Situation6.wav,audio/Narrative8Situation6.wav,audio/Narrative5Situation6.wav,audio/Narrative6Situation6.wav,3,2,3,2,,,,,,,,,,,,,,,,,,,,,,,,,,,,,,,,,,,,,,,
,,,,,66553eb5f10b5700001d20de,2025-07-07_21h01.58.818,group3.4_multiperson,2023.2.2,MacIntel,59.99880002,686c2ebf0248f13bef9af11f,686c7b7b82ee3ad1c3c95969,,,,,,,,,,,,,,,,,,,,,,,,,,,,,342.066,1,audio/Narrative7Situation7.wav,347.0823,,347.0824,364.2834,"[[96.5,1332],[91,1418],[86,1498],[83.8,1582],[83.6,1664],[83.6,1750],[83.6,1831],[83.6,1914],[83.6,2000],[83.6,2083],[83.8,2165],[83.9,2249],[83.9,2333],[84.7,2419],[86.2,2501],[88,2582],[91.1,2665],[94.5,2749],[96.8,2832],[98.7,2917],[99.6,2998],[100,3082],[100,3166],[100,3252],[100,3331],[100,3418],[100,3498],[100,3580],[100,3665],[100,3749],[100,3834],[100,3917],[100,3998],[100,4080],[100,4166],[100,4248],[100,4334],[100,4414],[100,4497],[100,4582],[100,4666],[100,4751],[100,4832],[100,4913],[100,5001],[100,5080],[100,5165],[100,5246],[100,5332],[100,5415],[100,5500],[100,5583],[100,5665],[100,5749],[100,5833],[100,5917],[100,6001],[100,6082],[100,6165],[100,6250],[100,6332],[100,6417],[100,6498],[100,6582],[100,6667],[100,6747],[100,6831],[100,6916],[100,7000],[100,7084],[100,7166],[100,7249],[100,7330],[100,7415],[100,7498],[100,7580],[100,7665],[100,7748],[100,7834],[100,7916],[100,7997],[100,8082],[100,8167],[100,8247],[100,8332],[100,8416],[100,8498],[100,8582],[100,8666],[100,8747],[100,8832],[100,8915],[100,9000],[100,9081],[100,9165],[100,9250],[100,9331],[100,9415],[100,9499],[100,9583],[100,9667],[100,9749],[100,9833],[100,9914],[100,9998],[100,10081],[100,10167],[100,10250],[100,10332],[100,10416],[100,10498],[100,10582],[100,10666],[100,10747],[100,10830],[100,10915],[100,10998],[100,11084],[100,11165],[100,11248],[100,11334],[100,11415],[100,11498],[100,11583],[100,11664],[100,11747],[100,11833],[100,11916],[100,12001],[100,12084],[100,12167],[100,12251],[100,12334],[100,12416],[100,12501],[100,12581],[100,12665],[100,12751],[100,12831],[100,12917],[100,13000],[100,13083],[100,13168],[100,13249],[100,13333],[100,13415],[100,13499],[100,13582],[100,13668],[100,13748],[100,13832],[100,13914],[100,14000],[100,14081],[100,14166],[100,14250],[100,14332],[100,14416],[100,14500],[100,14585],[100,14666],[100,14750],[100,14831],[100,14915],[100,14998],[100,15084],[100,15165],[100,15249],[100,15333],[100,15417],[100,15499],[100,15583],[100,15666],[100,15750],[100,15832],[100,15916],[100,15997],[100,16082],[100,16165],[100,16251],[100,16334],[100,16414],[100,16500],[100,16585],[100,16665],[100,16752],[100,16834],[100,16919],[100,17001],[100,17086],[100,17169]]",364.2837,365.4683,99.42545573,0.7931,"[{""rating"":99.42545572916667,""responseTime"":0.7930999999046549}]",space,0.6356,,365.4689,Definitely yes,100,365.4853,,,[],,0,7,7,7,1,audio/Narrative7Situation7.wav,audio/Narrative8Situation7.wav,audio/Narrative5Situation7.wav,audio/Narrative6Situation7.wav,5,3,4,5,,,,,,,,,,,,,,,,,,,,,,,,,,,,,,,,,,,,,,,
,,,,,66553eb5f10b5700001d20de,2025-07-07_21h01.58.818,group3.4_multiperson,2023.2.2,MacIntel,59.99880002,686c2ebf0248f13bef9af11f,686c7b7b82ee3ad1c3c95969,,,,,,,,,,,,,,,,,,,,,,,,,,,,,365.4857,1,audio/Narrative7Situation8.wav,367.4976,,367.4976,377.5176,"[[99.3,1918],[98.9,2003],[98.9,2085],[98.9,2168],[99,2252],[99,2333],[99.2,2417],[99.9,2502],[100,2583],[100,2668],[100,2751],[100,2837],[100,2918],[100,3004],[100,3087],[100,3171],[100,3250],[100,3335],[100,3419],[100,3503],[100,3585],[100,3668],[100,3753],[100,3837],[100,3920],[100,4000],[100,4083],[100,4167],[100,4253],[100,4336],[100,4417],[100,4502],[100,4586],[100,4668],[100,4752],[100,4835],[100,4921],[100,5001],[100,5084],[100,5170],[100,5251],[100,5334],[100,5419],[100,5501],[100,5584],[100,5669],[100,5754],[100,5833],[100,5918],[100,6000],[100,6084],[100,6168],[100,6253],[100,6337],[100,6418],[100,6501],[100,6584],[100,6666],[100,6751],[100,6833],[100,6920],[100,7000],[100,7085],[100,7169],[100,7250],[100,7335],[100,7419],[100,7503],[100,7587],[100,7668],[100,7753],[100,7833],[100,7918],[100,8002],[100,8083],[100,8167],[100,8252],[100,8336],[100,8421],[100,8504],[100,8586],[100,8670],[100,8751],[100,8834],[100,8920],[100,9001],[100,9084],[100,9169],[100,9253],[100,9334],[100,9419],[100,9502],[100,9584],[100,9668],[100,9752],[100,9837],[100,9919],[100,10001]]",377.5184,379.5184,99.64192708,1.1683,"[{""rating"":99.64192708333333,""responseTime"":1.1683000001907544}]",space,1.4672,,379.5186,Not at all,0,379.5334,,,[],,0,8,8,8,1,audio/Narrative7Situation8.wav,audio/Narrative8Situation8.wav,audio/Narrative5Situation8.wav,audio/Narrative6Situation8.wav,2,3,3,5,,,,,,,,,,,,,,,,,,,,,,,,,,,,,,,,,,,,,,,
,,,,,66553eb5f10b5700001d20de,2025-07-07_21h01.58.818,group3.4_multiperson,2023.2.2,MacIntel,59.99880002,686c2ebf0248f13bef9af11f,686c7b7b82ee3ad1c3c95969,,,,,,,,,,,,,,,,,,,,,,,,,,,,,379.5338,1,audio/Narrative7Situation9.wav,381.5494,,381.5494,390.184,"[[999,0],[999,83],[999,168],[999,249],[999,331],[999,417],[999,499],[999,586],[999,668],[999,752],[999,833],[999,916],[999,1000],[999,1085],[999,1166],[999,1250],[999,1335],[999,1416],[999,1502],[999,1584],[999,1665],[999,1750],[999,1834],[999,1916],[999,1999],[999,2085],[999,2166],[999,2252],[999,2335],[999,2416],[999,2501],[999,2585],[999,2665],[999,2751],[999,2835],[999,2915],[999,3001],[999,3082],[999,3169],[999,3250],[999,3333],[999,3416],[999,3500],[999,3583],[999,3666],[999,3750],[999,3832],[999,3915],[999,3999],[999,4083],[93.1,4169],[92.9,4251],[93.2,4333],[93.5,4417],[93.6,4500],[95.1,4586],[97.3,4671],[98.7,4749],[99.8,4837],[100,4918],[100,5001],[100,5088],[100,5168],[100,5250],[100,5332],[100,5417],[100,5502],[100,5584],[100,5667],[100,5752],[100,5833],[100,5917],[100,6003],[100,6083],[100,6170],[100,6251],[100,6334],[100,6415],[100,6501],[100,6582],[100,6669],[100,6751],[100,6833],[100,6919],[100,7000],[100,7084],[100,7169],[100,7250],[100,7334],[100,7418],[100,7501],[100,7586],[100,7668],[100,7752],[100,7836],[100,7918],[100,8000],[100,8082],[100,8167],[100,8251],[100,8338],[100,8422],[100,8501],[100,8587]]",390.1842,391.5177,99.48459201,0.7924,"[{""rating"":99.48459201388889,""responseTime"":0.7924000000953129}]",space,0.7993,,391.5177,Partially,50,391.5332,,,[],,0,9,9,9,1,audio/Narrative7Situation9.wav,audio/Narrative8Situation9.wav,audio/Narrative5Situation9.wav,audio/Narrative6Situation9.wav,2,3,3,4,,,,,,,,,,,,,,,,,,,,,,,,,,,,,,,,,,,,,,,
,,,,,66553eb5f10b5700001d20de,2025-07-07_21h01.58.818,group3.4_multiperson,2023.2.2,MacIntel,59.99880002,686c2ebf0248f13bef9af11f,686c7b7b82ee3ad1c3c95969,,,,,,,,,,,,,,,,,,,,,,,,,,,,,391.5336,1,audio/Narrative8Situation1.wav,396.5347,,396.5348,412.4521,"[[99.2,2082],[98.8,2165],[93.2,3017],[93.3,3099],[93.3,3185],[93.1,3264],[93.1,3348],[94.8,3434],[96.8,3517],[97.9,3598],[98.5,3684],[98.8,3766],[99.3,3849],[99.8,3933],[100,4016],[100,4098],[100,4184],[100,4266],[100,4351],[100,4433],[100,4516],[100,4600],[100,4682],[100,4765],[100,4849],[100,4932],[100,5015],[100,5099],[100,5181],[100,5267],[100,5350],[100,5432],[100,5517],[100,5601],[100,5682],[100,5764],[100,5851],[100,5931],[100,6015],[100,6099],[100,6181],[100,6267],[100,6349],[100,6432],[100,6515],[100,6599],[100,6684],[100,6765],[100,6849],[100,6932],[100,7016],[100,7099],[100,7181],[100,7267],[100,7349],[100,7432],[100,7514],[100,7599],[100,7684],[100,7765],[100,7851],[100,7933],[100,8015],[100,8100],[100,8182],[100,8271],[100,8350],[100,8432],[100,8514],[100,8599],[100,8682],[100,8768],[100,8850],[100,8933],[100,9017],[100,9098],[100,9182],[100,9267],[100,9351],[100,9431],[100,9517],[100,9601],[100,9682],[100,9765],[100,9849],[100,9935],[100,10016],[100,10099],[100,10184],[100,10266],[100,10348],[100,10431],[100,10515],[100,10602],[100,10683],[100,10766],[100,10848],[100,10933],[100,11015],[100,11101],[100,11182],[100,11265],[100,11351],[100,11434],[100,11516],[100,11599],[100,11683],[100,11764],[100,11850],[100,11933],[100,12015],[100,12100],[100,12182],[100,12265],[100,12349],[100,12432],[100,12518],[100,12598],[100,12682],[100,12766],[100,12850],[100,12934],[100,13017],[100,13100],[100,13183],[100,13266],[100,13348],[100,13432],[100,13515],[100,13600],[100,13682],[100,13766],[100,13849],[100,13932],[100,14017],[100,14099],[100,14184],[100,14267],[100,14349],[100,14433],[100,14517],[100,14602],[100,14683],[100,14767],[100,14848],[100,14932],[100,15015],[100,15100],[100,15182],[100,15266],[100,15351],[100,15432],[100,15516],[100,15600],[100,15682],[100,15769],[100,15850]]",412.4525,414.0873,99.48784722,1.1085,"[{""rating"":99.48784722222221,""responseTime"":1.1084999999999923}]",space,1.0873,,414.0876,Definitely yes,100,414.1081,,,[],,0,10,10,10,1,audio/Narrative8Situation1.wav,audio/Narrative7Situation1.wav,audio/Narrative6Situation1.wav,audio/Narrative5Situation1.wav,5,2,2,5,,,,,,,,,,,,,,,,,,,,,,,,,,,,,,,,,,,,,,,
,,,,,66553eb5f10b5700001d20de,2025-07-07_21h01.58.818,group3.4_multiperson,2023.2.2,MacIntel,59.99880002,686c2ebf0248f13bef9af11f,686c7b7b82ee3ad1c3c95969,,,,,,,,,,,,,,,,,,,,,,,,,,,,,414.1088,1,audio/Narrative8Situation2.wav,417.1186,,417.1187,427.241,"[[99.5,2752],[99.5,2836],[99.5,2921],[99.5,2998],[99.5,3082],[99.5,3167],[99.5,3250],[99.5,3335],[99.5,3416],[99.5,3499],[99.5,3584],[99.5,3666],[99.5,3751],[99.5,3836],[99.5,3918],[99.5,4004],[99.5,4084],[99.5,4167],[99.5,4252],[99.5,4333],[99.5,4415],[99.5,4502],[99.5,4583],[99.5,4666],[99.5,4751],[99.5,4832],[99.5,4916],[99.5,5001],[99.5,5082],[99.5,5166],[99.5,5250],[99.5,5334],[99.5,5417],[99.5,5501],[99.5,5583],[99.4,5666],[99.4,5751],[99.4,5833],[99.4,5916],[99.4,6000],[99.4,6082],[99.4,6166],[99.4,6250],[99.4,6336],[99.4,6417],[99.4,6501],[99.4,6583],[99.3,6667],[99.3,6751],[99.3,6835],[99.3,6917],[99.3,6999],[99.3,7085],[99.3,7166],[99.3,7250],[99.3,7334],[99.3,7418],[99.3,7500],[99.3,7584],[99.3,7668],[99.3,7748],[99.3,7835],[99.3,7916],[99.3,7998],[99.3,8084],[99.3,8167],[99.3,8249],[99.3,8333],[99.3,8417],[99.3,8500],[99.3,8585],[99.3,8665],[99.3,8751],[99.3,8835],[99.3,8916],[99.3,9000],[99.3,9084],[99.3,9165],[99.3,9250],[99.3,9334],[99.3,9418],[99.2,9500],[99.2,9583],[99.2,9666],[98.9,9750],[98.6,9834],[97.3,9918],[94.7,10003],[92.7,10083]]",427.2413,429.0366,89.23448351,0.8706,"[{""rating"":89.23448350694446,""responseTime"":0.8705999999046412}]",space,1.2498,,429.0368,Partially,50,429.0582,,,[],,0,11,11,11,1,audio/Narrative8Situation2.wav,audio/Narrative7Situation2.wav,audio/Narrative6Situation2.wav,audio/Narrative5Situation2.wav,3,3,3,3,,,,,,,,,,,,,,,,,,,,,,,,,,,,,,,,,,,,,,,
,,,,,66553eb5f10b5700001d20de,2025-07-07_21h01.58.818,group3.4_multiperson,2023.2.2,MacIntel,59.99880002,686c2ebf0248f13bef9af11f,686c7b7b82ee3ad1c3c95969,,,,,,,,,,,,,,,,,,,,,,,,,,,,,429.0586,1,audio/Narrative8Situation3.wav,433.0695,,433.0695,455.4542,"[[999,0],[999,83],[999,167],[999,250],[999,332],[999,419],[999,499],[999,582],[999,666],[999,750],[999,832],[999,918],[999,1000],[999,1082],[999,1168],[999,1248],[999,1334],[999,1416],[999,1499],[999,1583],[999,1668],[999,1750],[999,1836],[999,1916],[999,2000],[999,2085],[999,2169],[999,2250],[999,2334],[999,2416],[999,2500],[999,2582],[999,2667],[999,2750],[999,2833],[999,2916],[999,3000],[999,3082],[999,3168],[999,3252],[999,3333],[999,3418],[999,3501],[999,3582],[999,3665],[999,3751],[999,3833],[999,3917],[999,4000],[999,4085],[999,4166],[999,4250],[999,4334],[999,4416],[999,4500],[999,4583],[999,4668],[999,4753],[999,4834],[999,4915],[999,5001],[999,5084],[999,5167],[999,5249],[999,5335],[999,5417],[999,5499],[999,5583],[999,5670],[999,5750],[999,5835],[999,5917],[999,5999],[999,6083],[999,6165],[999,6250],[999,6333],[999,6417],[999,6500],[999,6584],[999,6667],[999,6749],[999,6834],[999,6918],[999,6999],[999,7084],[999,7168],[999,7251],[999,7333],[999,7417],[999,7500],[999,7585],[999,7667],[999,7751],[999,7832],[999,7916],[999,8000],[999,8085],[999,8168],[999,8252],[999,8334],[999,8418],[999,8500],[999,8584],[999,8667],[999,8752],[999,8836],[999,8917],[999,9000],[999,9086],[999,9167],[999,9250],[999,9333],[999,9417],[999,9501],[999,9584],[999,9668],[999,9751],[999,9836],[999,9918],[999,10000],[999,10084],[999,10166],[999,10250],[999,10334],[999,10418],[999,10502],[999,10584],[999,10668],[999,10751],[999,10834],[999,10920],[999,11001],[999,11084],[999,11167],[999,11252],[999,11333],[999,11419],[999,11500],[999,11585],[999,11666],[999,11752],[999,11835],[999,11916],[999,12000],[999,12084],[999,12168],[999,12253],[999,12334],[999,12417],[999,12502],[999,12583],[999,12668],[999,12752],[999,12833],[999,12918],[999,13001],[999,13085],[999,13168],[999,13249],[999,13335],[999,13416],[999,13501],[999,13584],[999,13668],[999,13753],[999,13834],[999,13918],[999,14000],[999,14084],[999,14168],[999,14250],[999,14334],[999,14418],[999,14502],[999,14583],[999,14668],[999,14750],[999,14834],[999,14918],[999,15000],[74.2,15087],[73.8,15167],[73.7,15251],[73.7,15337],[77.7,15417],[90.8,15505],[97.2,15585],[100,15669],[100,15750],[100,15833],[100,15917],[100,16003],[100,16086],[100,16168],[100,16249],[100,16334],[100,16421],[100,16502],[100,16585],[100,16672],[100,16752],[100,16835],[100,16920],[100,17002],[100,17087],[100,17168],[100,17251],[100,17335],[100,17419],[100,17503],[100,17584],[100,17668],[100,17751],[100,17836],[100,17918],[100,18002],[100,18084],[100,18168],[100,18251],[100,18333],[100,18418],[100,18501],[100,18586],[100,18667],[100,18751],[100,18833],[100,18917],[100,19003],[100,19085],[100,19166],[100,19254],[100,19335],[100,19418],[100,19503],[100,19584],[100,19667],[100,19751],[100,19834],[100,19918],[100,20002],[100,20084],[100,20166],[100,20252],[100,20333],[100,20417],[100,20501],[100,20585],[100,20668],[100,20750],[100,20834],[100,20918],[100,21001],[100,21084],[100,21169],[100,21252],[100,21335],[100,21419],[100,21502],[100,21583],[100,21666],[100,21754],[100,21838],[100,21918],[100,22002],[100,22087],[100,22168],[100,22251],[100,22336]]",455.4545,457.1384,99.69563802,0.827,"[{""rating"":99.69563802083333,""responseTime"":0.8269999999999982}]",space,1.1395,,457.1385,Definitely yes,100,457.1597,,,[],,0,12,12,12,1,audio/Narrative8Situation3.wav,audio/Narrative7Situation3.wav,audio/Narrative6Situation3.wav,audio/Narrative5Situation3.wav,4,8,5,3,,,,,,,,,,,,,,,,,,,,,,,,,,,,,,,,,,,,,,,
,,,,,66553eb5f10b5700001d20de,2025-07-07_21h01.58.818,group3.4_multiperson,2023.2.2,MacIntel,59.99880002,686c2ebf0248f13bef9af11f,686c7b7b82ee3ad1c3c95969,,,,,,,,,,,,,,,,,,,,,,,,,,,,,457.1601,1,audio/Narrative8Situation4.wav,460.1719,,460.172,474.3736,"[[96.6,7919],[98.4,7999],[99.5,8086],[100,8165],[100,8250],[100,8336],[100,8415],[100,8498],[100,8581],[100,8666],[100,8749],[100,8835],[100,8916],[100,9000],[100,9084],[100,9166],[100,9248],[100,9334],[100,9417],[100,9498],[100,9583],[100,9667],[100,9752],[100,9833],[100,9916],[100,10000],[100,10083],[100,10166],[100,10251],[100,10332],[100,10417],[100,10500],[100,10584],[100,10665],[100,10752],[100,10833],[100,10918],[100,11000],[100,11083],[100,11168],[100,11250],[100,11333],[100,11416],[100,11499],[100,11584],[100,11667],[100,11751],[100,11836],[100,11915],[100,12001],[100,12083],[100,12165],[100,12250],[100,12332],[100,12416],[100,12499],[100,12583],[100,12666],[100,12750],[100,12834],[100,12919],[100,13000],[100,13084],[100,13168],[100,13253],[100,13333],[100,13417],[100,13502],[100,13585],[100,13666],[100,13752],[100,13835],[100,13916],[100,14001],[100,14085],[100,14170]]",474.3739,476.4411,99.69672309,0.8925,"[{""rating"":99.69672309027777,""responseTime"":0.8925000000000409}]",space,1.5329,,476.4412,Partially,50,476.4626,,,[],,0,13,13,13,1,audio/Narrative8Situation4.wav,audio/Narrative7Situation4.wav,audio/Narrative6Situation4.wav,audio/Narrative5Situation4.wav,3,3,2,1,,,,,,,,,,,,,,,,,,,,,,,,,,,,,,,,,,,,,,,
,,,,,66553eb5f10b5700001d20de,2025-07-07_21h01.58.818,group3.4_multiperson,2023.2.2,MacIntel,59.99880002,686c2ebf0248f13bef9af11f,686c7b7b82ee3ad1c3c95969,,,,,,,,,,,,,,,,,,,,,,,,,,,,,476.4629,1,audio/Narrative8Situation5.wav,478.4714,,478.4714,486.724,"[[64.1,1752],[71.5,1834],[78.4,1919],[80.9,2001],[84.5,2086],[93.7,2169],[97.8,2250],[97.8,2334],[97.8,2416],[98.7,2501],[100,2583],[100,2668],[100,2751],[100,2836],[100,2917],[100,3001],[100,3083],[100,3168],[100,3251],[100,3335],[100,3418],[100,3503],[100,3585],[100,3671],[100,3750],[100,3837],[100,3918],[100,4003],[100,4084],[100,4168],[100,4250],[100,4336],[100,4421],[100,4500],[100,4586],[100,4667],[100,4751],[100,4833],[100,4920],[100,5002],[100,5084],[100,5166],[100,5251],[100,5334],[100,5419],[100,5503],[100,5584],[100,5669],[100,5752],[100,5833],[100,5918],[100,6002],[100,6087],[100,6169],[100,6251],[100,6334],[100,6420],[100,6500],[100,6587],[100,6667],[100,6753],[100,6834],[100,6918],[100,7000],[100,7087],[100,7167],[100,7250],[100,7335],[100,7418],[100,7500],[100,7587],[100,7668],[100,7753],[100,7836],[100,7922],[100,8003],[100,8085],[100,8168],[100,8252]]",486.7242,488.2744,99.89095052,0.8762,"[{""rating"":99.89095052083333,""responseTime"":0.8762000002861328}]",space,1.0002,,488.2745,Partially,50,498.041,49.95713976,5.6094,"[{""rating"":49.95713975694444,""responseTime"":5.60940000009532}]",space,0,14,14,14,1,audio/Narrative8Situation5.wav,audio/Narrative7Situation5.wav,audio/Narrative6Situation5.wav,audio/Narrative5Situation5.wav,2,5,2,5,,,9.2217,,,,,,,,,,,,,,,,,,,,,,,,,,,,,,,,,,,,
,,,,,66553eb5f10b5700001d20de,2025-07-07_21h01.58.818,group3.4_multiperson,2023.2.2,MacIntel,59.99880002,686c2ebf0248f13bef9af11f,686c7b7b82ee3ad1c3c95969,,,,,,,,,,,,,,,,,,,,,,,,,,,,,498.0416,1,audio/Narrative8Situation6.wav,500.058,,500.058,506.5423,[],506.5425,511.1113,70.17144097,1.8255,"[{""rating"":70.17144097222221,""responseTime"":1.82549999999992}]",space,4.0181,,511.1114,Partially,50,511.125,,,[],,0,15,15,15,1,audio/Narrative8Situation6.wav,audio/Narrative7Situation6.wav,audio/Narrative6Situation6.wav,audio/Narrative5Situation6.wav,2,3,2,3,,,,,,,,,,,,,,,,,,,,,,,,,,,,,,,,,,,,,,,
,,,,,66553eb5f10b5700001d20de,2025-07-07_21h01.58.818,group3.4_multiperson,2023.2.2,MacIntel,59.99880002,686c2ebf0248f13bef9af11f,686c7b7b82ee3ad1c3c95969,,,,,,,,,,,,,,,,,,,,,,,,,,,,,511.1254,1,audio/Narrative8Situation7.wav,514.1263,,514.1264,526.2277,"[[70.1,2583],[70.1,2665],[70.1,2751],[70.1,2832],[70.1,2916],[70.1,3000],[70.1,3082],[70.1,3168],[70.1,3247],[70.1,3331],[70.1,3416],[70.1,3498],[70.6,3585],[74.4,3666],[80.8,3749],[89.3,3834],[93.1,3916],[97.1,4002],[100,4084],[100,4165],[100,4248],[100,4333],[100,4414],[100,4499],[100,4582],[100,4666],[100,4747],[100,4832],[100,4915],[100,4998],[100,5082],[100,5168],[100,5250],[100,5333],[100,5417],[100,5500],[100,5583],[100,5668],[100,5750],[100,5833],[100,5917],[100,5999],[100,6084],[100,6167],[100,6248],[100,6332],[100,6417],[100,6500],[100,6584],[100,6664],[100,6749],[100,6832],[100,6916],[100,7000],[100,7085],[100,7168],[100,7249],[100,7332],[100,7414],[100,7499],[100,7582],[100,7667],[100,7749],[100,7832],[100,7917],[100,8002],[100,8083],[100,8166],[100,8249],[100,8333],[100,8415],[100,8498],[100,8585],[100,8666],[100,8750],[100,8832],[100,8916],[100,9000],[100,9084],[100,9164],[100,9250],[100,9333],[100,9414],[100,9499],[100,9582],[100,9668],[100,9749],[100,9833],[100,9917],[100,10001],[100,10082],[100,10169],[100,10250],[100,10332],[100,10416],[100,10498],[100,10582],[100,10666],[100,10749],[100,10831],[100,10918],[100,11000],[100,11084],[100,11168],[100,11253],[100,11334],[100,11417],[100,11504],[100,11582],[100,11668],[100,11749],[100,11833],[100,11916],[100,12001],[100,12083]]",526.2281,528.2098,99.82096354,0.7138,"[{""rating"":99.82096354166667,""responseTime"":0.7138000001907585}]",space,1.4561,,528.21,Partially,50,528.2247,,,[],,0,16,16,16,1,audio/Narrative8Situation7.wav,audio/Narrative7Situation7.wav,audio/Narrative6Situation7.wav,audio/Narrative5Situation7.wav,3,5,5,4,,,,,,,,,,,,,,,,,,,,,,,,,,,,,,,,,,,,,,,
,,,,,66553eb5f10b5700001d20de,2025-07-07_21h01.58.818,group3.4_multiperson,2023.2.2,MacIntel,59.99880002,686c2ebf0248f13bef9af11f,686c7b7b82ee3ad1c3c95969,,,,,,,,,,,,,,,,,,,,,,,,,,,,,528.225,1,audio/Narrative8Situation8.wav,531.2262,,531.2262,544.0952,"[[99.2,12502],[98.9,12585],[98.9,12668],[98.9,12752],[98.9,12834]]",544.0954,545.9431,99.00716146,0.2413,"[{""rating"":99.00716145833333,""responseTime"":0.24129999971387406}]",space,1.3022,,545.9431,Definitely yes,100,545.9626,,,[],,0,17,17,17,1,audio/Narrative8Situation8.wav,audio/Narrative7Situation8.wav,audio/Narrative6Situation8.wav,audio/Narrative5Situation8.wav,3,2,5,3,,,,,,,,,,,,,,,,,,,,,,,,,,,,,,,,,,,,,,,
,,,,,66553eb5f10b5700001d20de,2025-07-07_21h01.58.818,group3.4_multiperson,2023.2.2,MacIntel,59.99880002,686c2ebf0248f13bef9af11f,686c7b7b82ee3ad1c3c95969,,,,,,,,,,,,,,,,,,,,,,,,,,,,,545.9635,1,audio/Narrative8Situation9.wav,548.9766,,548.9766,560.2965,"[[98,5171],[98.6,5253],[98.8,5335],[99,5418],[99,5503],[99,5584],[99,5667],[99,5752],[99.3,5833],[99.7,5922],[100,6002],[100,6084],[100,6167],[100,6251],[100,6334],[100,6422],[100,6502],[100,6583],[100,6668],[100,6754],[100,6834],[100,6919],[100,7002],[100,7088],[100,7167],[100,7254],[100,7334],[100,7418],[100,7502],[100,7583],[100,7668],[100,7753],[100,7834],[100,7918],[100,8001],[100,8086],[100,8167],[100,8254],[100,8334],[100,8419],[100,8501],[100,8585],[100,8669],[100,8750],[100,8835],[100,8918],[100,9003],[100,9085],[100,9168],[100,9253],[100,9334],[100,9417],[100,9500],[100,9583],[100,9671],[100,9752],[100,9836],[100,9920],[100,10002],[100,10085],[100,10168],[100,10251],[100,10334],[100,10418],[100,10501],[100,10585],[100,10668],[100,10753],[100,10834],[100,10918],[100,11002],[100,11085],[100,11168],[100,11252]]",560.2967,562.3981,99.18728299,1.124,"[{""rating"":99.18728298611111,""responseTime"":1.1240000000000236}]",space,1.5707,,562.3982,Definitely yes,100,562.4123,,,[],,0,18,18,18,1,audio/Narrative8Situation9.wav,audio/Narrative7Situation9.wav,audio/Narrative6Situation9.wav,audio/Narrative5Situation9.wav,3,2,4,3,,,,,,,,,,,,,,,,,,,,,,,,,,,,,,,,,,,,,,,
,,,,,66553eb5f10b5700001d20de,2025-07-07_21h01.58.818,group3.4_multiperson,2023.2.2,MacIntel,59.99880002,686c2ebf0248f13bef9af11f,686c7b7b82ee3ad1c3c95969,,,,,,,,,,,,,,,,,,,,,,,,,,,565.7804,568.3611,568.3815,2,audio/Narrative13Situation2.wav,568.3816,,568.3818,598.147,"[[95.4,3165],[93.9,3246],[92.2,3330],[89.7,3414],[87.9,3498],[85.4,3584],[80.7,3665],[77.6,3747],[76.4,3832],[76.4,3915],[76.4,3998],[76.4,4081],[75.9,4163],[72.6,4250],[69.6,4333],[67.7,4415],[66.5,4502],[66,4581],[64.4,4665],[62.6,4746],[61.8,4831],[61.7,4914],[61.7,4996],[61.7,5079],[61.7,5167],[61.7,5246],[59.7,5333],[58.1,5413],[57.5,5498],[57.3,5581],[57.1,5663],[56.5,5750],[55.5,5833],[54.5,5916],[54,6000],[53.5,6081],[53,6166],[52.1,6247],[51.1,6330],[50.6,6413],[50.5,6497],[50.5,6580],[50.6,6665],[50.6,6748],[50.6,6833],[50.6,6914],[50.6,6998],[50.6,7079],[50.6,7166],[50.6,7247],[50.6,7332],[50.6,7413],[50.6,7497],[50.6,7581],[50.6,7664],[50.6,7750],[50.6,7831],[50.6,7913],[50.6,8000],[50.6,8081],[50.6,8164],[50.6,8246],[54.1,8331],[60.5,8413],[63.4,8500],[64.9,8582],[67.1,8665],[70,8749],[72,8833],[73.4,8914],[73.4,8998],[73.4,9081],[73.4,9163],[73.7,9248],[80.1,9332],[86.1,9413],[87.4,9497],[87.4,9581],[87.4,9666],[90.2,9748],[95.5,9830],[96.5,9917],[99.4,9997],[100,10080],[100,10166],[100,10248],[100,10330],[100,10413],[100,10499],[100,10579],[100,10665],[100,10748],[100,10831],[100,10916],[100,10996],[100,11082],[100,11165],[100,11247],[100,11332],[100,11415],[100,11500],[100,11581],[100,11664],[100,11750],[100,11834],[100,11914],[100,11999],[100,12081],[100,12167],[100,12247],[100,12333],[100,12413],[100,12499],[100,12583],[100,12665],[100,12749],[100,12832],[100,12914],[100,12998],[100,13081],[100,13166],[100,13248],[100,13331],[100,13413],[100,13500],[100,13581],[100,13666],[100,13747],[100,13831],[100,13918],[100,13999],[100,14084],[100,14165],[100,14249],[100,14333],[99.9,14414],[99.8,14498],[99.8,14580],[99.8,14667],[99.8,14746],[99.8,14831],[99.8,14913],[99.8,14997],[99.8,15082],[99.9,15165],[100,15251],[100,15332],[100,15416],[100,15500],[100,15584],[100,15665],[100,15749],[100,15833],[100,15918],[100,16000],[100,16084],[100,16164],[100,16246],[100,16330],[100,16417],[100,16498],[100,16582],[100,16666],[100,16748],[100,16831],[100,16916],[100,16997],[100,17080],[100,17165],[100,17248],[100,17330],[100,17413],[100,17499],[100,17581],[100,17665],[100,17749],[100,17832],[100,17915],[100,17998],[100,18083],[100,18163],[100,18248],[100,18331],[100,18416],[100,18501],[100,18582],[100,18663],[100,18747],[100,18832],[100,18915],[100,19000],[100,19081],[100,19165],[100,19247],[100,19331],[100,19415],[100,19499],[100,19583],[100,19668],[100,19747],[100,19830],[100,19915],[100,19997],[100,20082],[100,20164],[100,20248],[100,20332],[100,20416],[100,20498],[100,20584],[100,20666],[100,20748],[100,20831],[100,20916],[100,20997],[100,21081],[100,21165],[100,21248],[100,21330],[100,21415],[100,21499],[100,21580],[100,21666],[100,21748],[100,21832],[100,21914],[100,21998],[100,22083],[100,22165],[100,22248],[100,22331],[100,22418],[100,22500],[100,22582],[100,22665],[100,22748],[100,22834],[100,22915],[100,23000],[100,23083],[100,23167],[100,23249],[100,23332],[100,23416],[100,23499],[100,23582],[100,23667],[100,23747],[100,23830],[100,23917],[100,23998],[100,24082],[100,24165],[100,24250],[100,24332],[100,24416],[100,24497],[100,24580],[100,24666],[100,24748],[100,24830],[100,24915],[100,24999],[100,25080],[100,25168],[100,25249],[100,25333],[100,25417],[100,25498],[100,25583],[100,25667],[100,25748],[100,25833],[100,25914],[100,25997],[100,26082],[100,26165],[100,26247],[100,26333],[100,26417],[100,26500],[100,26584],[100,26665],[100,26750],[100,26832],[100,26915],[100,26998],[100,27083],[100,27165],[100,27249],[100,27333],[100,27416],[100,27499],[100,27582],[100,27664],[100,27748],[100,27832],[100,27914],[100,27998],[100,28085],[100,28164],[100,28250],[100,28331],[100,28416],[100,28499],[100,28581],[100,28665],[100,28749],[100,28831],[100,28918],[100,28999],[100,29084],[100,29166],[100,29254],[100,29333],[100,29417],[100,29499],[100,29581],[100,29667],[100,29749]]",598.1473,598.1612,,,[],,,,598.1612,Not at all,0,598.18,,,[],,0,0,0,0,1,audio/Narrative13Situation2.wav,audio/Narrative13Situation2.wav,audio/Narrative13Situation2.wav,audio/Narrative13Situation2.wav,2,2,2,2,,,,,562.4133,565.7797,space,2.8344,,,,,,,,,,,,,,,,,,,,,,,,,,,,,,,
,,,,,66553eb5f10b5700001d20de,2025-07-07_21h01.58.818,group3.4_multiperson,2023.2.2,MacIntel,59.99880002,686c2ebf0248f13bef9af11f,686c7b7b82ee3ad1c3c95969,,,,,,,,,,,,,,,,,,,,,,,,,,,,,598.1803,2,audio/Narrative5Situation1.wav,603.1813,,603.1814,616.4979,"[[100,3667],[98.7,3752],[98.6,3833],[98.6,3917],[98.7,4002],[99.2,4083],[99.6,4166],[100,4251],[100,4337],[100,4417],[100,4500],[100,4584],[100,4667],[100,4750],[100,4834],[100,4918],[100,5000],[100,5083],[100,5168],[100,5252],[100,5333],[100,5418],[100,5501],[100,5582],[100,5667],[100,5749],[100,5832],[100,5915],[100,5998],[100,6082],[100,6169],[100,6250],[100,6332],[100,6419],[100,6499],[100,6583],[100,6668],[100,6753],[100,6836],[100,6916],[100,7003],[100,7084],[100,7167],[100,7252],[100,7333],[100,7417],[100,7502],[100,7583],[100,7667],[100,7751],[100,7832],[100,7918],[100,8001],[100,8085],[100,8167],[100,8250],[100,8333],[100,8419],[100,8500],[100,8584],[100,8668],[100,8753],[100,8833],[100,8917],[100,8999],[100,9082],[100,9165],[100,9251],[100,9333],[100,9417],[100,9501],[100,9583],[100,9667],[100,9750],[100,9833],[100,9917],[100,9999],[100,10085],[100,10168],[100,10249],[100,10332],[100,10416],[100,10500],[100,10584],[100,10667],[100,10749],[100,10834],[100,10918],[100,10999],[100,11084],[100,11167],[100,11252],[100,11335],[100,11417],[100,11502],[100,11584],[100,11667],[100,11751],[100,11834],[100,11917],[100,12000],[100,12084],[100,12168],[100,12253],[100,12334],[100,12416],[100,12500],[100,12584],[100,12667],[100,12749],[100,12833],[100,12918],[100,13000],[100,13086],[100,13166],[100,13250]]",616.4981,618.8023,99.62510851,0.9942,"[{""rating"":99.62510850694444,""responseTime"":0.9941999998093252}]",space,1.7713,,618.8024,Definitely yes,100,618.8236,,,[],,0,1,1,1,1,audio/Narrative7Situation1.wav,audio/Narrative8Situation1.wav,audio/Narrative5Situation1.wav,audio/Narrative6Situation1.wav,2,5,5,2,,,,,,,,,,,,,,,,,,,,,,,,,,,,,,,,,,,,,,,
,,,,,66553eb5f10b5700001d20de,2025-07-07_21h01.58.818,group3.4_multiperson,2023.2.2,MacIntel,59.99880002,686c2ebf0248f13bef9af11f,686c7b7b82ee3ad1c3c95969,,,,,,,,,,,,,,,,,,,,,,,,,,,,,618.824,2,audio/Narrative5Situation2.wav,621.8334,,621.8335,651.3015,"[[98.9,2846],[98.8,2918],[98.7,2999],[98.6,3084],[98.6,3166],[98.6,3248],[98.6,3333],[98.6,3417],[98.6,3498],[98.8,3581],[99,3666],[99.2,3748],[99.3,3834],[99.4,3917],[99.5,4000],[99.6,4082],[99.7,4166],[99.8,4248],[99.8,4333],[99.8,4415],[99.9,4500],[100,4581],[100,4665],[100,4749],[100,4833],[100,4914],[100,4999],[100,5082],[100,5166],[100,5251],[100,5331],[100,5414],[100,5498],[100,5581],[100,5667],[100,5748],[100,5832],[100,5916],[100,6000],[100,6081],[100,6166],[100,6250],[100,6334],[100,6415],[100,6499],[100,6584],[100,6667],[100,6749],[100,6831],[100,6915],[100,6998],[100,7081],[100,7167],[100,7248],[100,7333],[100,7416],[100,7499],[100,7582],[100,7664],[100,7748],[100,7832],[100,7915],[100,8000],[100,8081],[100,8165],[100,8250],[100,8333],[100,8418],[100,8500],[100,8583],[100,8668],[100,8749],[100,8833],[100,8917],[100,9000],[100,9082],[100,9164],[100,9251],[100,9332],[100,9415],[100,9499],[100,9582],[100,9666],[100,9749],[100,9832],[100,9916],[100,9999],[100,10084],[100,10167],[100,10249],[100,10331],[100,10418],[100,10501],[100,10584],[100,10666],[100,10748],[100,10833],[100,10917],[100,10999],[100,11085],[100,11167],[100,11249],[100,11334],[100,11416],[100,11501],[100,11583],[100,11665],[100,11750],[100,11833],[100,11916],[100,12000],[100,12084],[100,12166],[100,12250],[100,12332],[100,12418],[100,12499],[100,12583],[100,12665],[100,12749],[100,12833],[100,12915],[100,12998],[100,13083],[100,13166],[100,13250],[100,13332],[100,13417],[100,13499],[100,13584],[100,13666],[100,13749],[100,13834],[100,13915],[100,13999],[100,14081],[100,14165],[100,14249],[100,14333],[100,14416],[100,14499],[100,14583],[100,14666],[100,14749],[100,14832],[100,14916],[100,15001],[100,15085],[100,15165],[100,15248],[100,15332],[100,15415],[100,15498],[100,15584],[100,15669],[100,15750],[100,15834],[100,15915],[100,15999],[100,16085],[100,16168],[100,16249],[100,16332],[100,16418],[100,16499],[100,16582],[100,16666],[100,16751],[100,16832],[100,16917],[100,17000],[100,17085],[100,17169],[100,17248],[100,17334],[100,17416],[100,17499],[100,17584],[100,17665],[100,17749],[100,17834],[100,17918],[100,17999],[100,18082],[100,18166],[100,18250],[100,18332],[100,18416],[100,18501],[100,18583],[100,18670],[100,18750],[100,18832],[100,18915],[100,19001],[100,19084],[100,19169],[100,19250],[100,19333],[100,19418],[100,19500],[100,19583],[100,19667],[100,19749],[100,19833],[100,19916],[100,20002],[100,20083],[100,20167],[100,20251],[100,20333],[100,20416],[100,20500],[100,20586],[100,20667],[100,20751],[100,20835],[100,20916],[100,21000],[100,21083],[100,21166],[100,21250],[100,21334],[100,21418],[100,21500],[100,21584],[100,21668],[100,21752],[100,21834],[100,21917],[100,22002],[100,22083],[100,22167],[100,22251],[100,22333],[100,22417],[100,22502],[100,22585],[100,22668],[100,22751],[100,22833],[100,22917],[100,23000],[100,23084],[100,23169],[100,23250],[100,23334],[100,23416],[100,23502],[100,23583],[100,23666],[100,23749],[100,23836],[100,23916],[100,23999],[100,24084],[100,24168],[100,24250],[100,24334],[100,24417],[100,24500],[100,24583],[100,24666],[100,24749],[100,24835],[100,24916],[100,24999],[100,25084],[100,25169],[100,25252],[100,25334],[100,25417],[100,25499],[100,25584],[100,25667],[100,25752],[100,25836],[100,25917],[100,26001],[100,26085],[100,26170],[100,26251],[100,26335],[100,26419],[100,26501],[100,26584],[100,26668],[100,26749],[100,26834],[100,26919],[100,27000],[100,27084],[100,27168],[100,27250],[100,27334],[100,27418],[100,27502],[100,27586],[100,27668],[100,27751],[100,27833],[100,27916],[100,27999],[100,28086],[100,28166],[100,28251],[100,28335],[100,28419],[100,28504],[100,28585],[100,28668],[100,28753],[100,28834],[100,28917],[100,29001],[100,29084],[100,29167],[100,29250],[100,29336],[100,29417]]",651.3019,653.8349,99.44118924,1.7425,"[{""rating"":99.44118923611111,""responseTime"":1.74249999999995}]",space,2.0014,,653.8351,Partially,50,653.859,,,[],,0,2,2,2,1,audio/Narrative7Situation2.wav,audio/Narrative8Situation2.wav,audio/Narrative5Situation2.wav,audio/Narrative6Situation2.wav,3,3,3,3,,,,,,,,,,,,,,,,,,,,,,,,,,,,,,,,,,,,,,,
,,,,,66553eb5f10b5700001d20de,2025-07-07_21h01.58.818,group3.4_multiperson,2023.2.2,MacIntel,59.99880002,686c2ebf0248f13bef9af11f,686c7b7b82ee3ad1c3c95969,,,,,,,,,,,,,,,,,,,,,,,,,,,,,653.8594,2,audio/Narrative5Situation3.wav,656.8683,,656.8684,670.7859,"[[99.4,13334],[99.5,13417],[99.7,13502],[99.8,13583],[99.8,13666],[99.8,13751],[99.8,13834],[99.8,13917]]",670.786,672.9715,99.72927517,0.8587,"[{""rating"":99.72927517361111,""responseTime"":0.8586999998092324}]",space,1.6519,,672.9716,Not at all,0,672.9927,,,[],,0,3,3,3,1,audio/Narrative7Situation3.wav,audio/Narrative8Situation3.wav,audio/Narrative5Situation3.wav,audio/Narrative6Situation3.wav,8,4,3,5,,,,,,,,,,,,,,,,,,,,,,,,,,,,,,,,,,,,,,,
,,,,,66553eb5f10b5700001d20de,2025-07-07_21h01.58.818,group3.4_multiperson,2023.2.2,MacIntel,59.99880002,686c2ebf0248f13bef9af11f,686c7b7b82ee3ad1c3c95969,,,,,,,,,,,,,,,,,,,,,,,,,,,,,672.9932,2,audio/Narrative5Situation4.wav,674.003,,674.0031,694.4048,"[[99.4,13419],[99.4,13500],[99.4,13584],[99.4,13669],[99.4,13750],[99.4,13834],[99.4,13918],[99.4,14001],[99.2,14084],[99.1,14168],[99.1,14252],[99.1,14334],[99.1,14417],[99.1,14501],[99.1,14583],[99.1,14666],[99.1,14751],[99.1,14835],[99.3,14916],[100,15001],[100,15084],[100,15166],[100,15251],[100,15335],[100,15416],[100,15500],[100,15583],[100,15667],[100,15750],[100,15836],[100,15918],[100,16000],[100,16082],[100,16168],[100,16250],[100,16334],[100,16417],[100,16501],[100,16584],[100,16671],[100,16751],[100,16834],[100,16916],[100,17000],[100,17085],[100,17167],[100,17249],[100,17334],[100,17418],[100,17500],[100,17584],[100,17667],[100,17749],[100,17836],[100,17916],[100,18002],[100,18084],[100,18167],[100,18250],[100,18337],[100,18416],[100,18500],[100,18586],[100,18667],[100,18751],[100,18835],[100,18917],[100,19001],[100,19084],[100,19169],[100,19253],[100,19333],[100,19417],[100,19502],[100,19584],[100,19668],[100,19750],[100,19837],[100,19918],[100,20001],[100,20083],[100,20168],[99.9,20251],[99.9,20336]]",694.4051,696.3536,99.58658854,1.0486,"[{""rating"":99.58658854166667,""responseTime"":1.0485999999045816}]",space,1.3992,,696.3537,Not at all,0,696.3684,,,[],,0,4,4,4,1,audio/Narrative7Situation4.wav,audio/Narrative8Situation4.wav,audio/Narrative5Situation4.wav,audio/Narrative6Situation4.wav,3,3,1,2,,,,,,,,,,,,,,,,,,,,,,,,,,,,,,,,,,,,,,,
,,,,,66553eb5f10b5700001d20de,2025-07-07_21h01.58.818,group3.4_multiperson,2023.2.2,MacIntel,59.99880002,686c2ebf0248f13bef9af11f,686c7b7b82ee3ad1c3c95969,,,,,,,,,,,,,,,,,,,,,,,,,,,,,696.3687,2,audio/Narrative5Situation5.wav,701.3716,,701.3716,716.8074,"[[99.6,3917],[98.6,3999],[98.1,4084],[97.9,4168],[97.9,4252],[97.9,4333],[98.6,4416],[99.6,4499],[100,4586],[100,4666],[100,4751],[100,4833],[100,4917],[100,4999],[100,5082],[100,5170],[100,5250],[100,5335],[100,5415],[100,5500],[100,5583],[100,5667],[100,5750],[100,5834],[100,5918],[100,6001],[100,6085],[100,6166],[100,6249],[100,6332],[100,6416],[100,6501],[100,6582],[100,6667],[100,6750],[100,6833],[100,6916],[100,7000],[100,7083],[100,7165],[100,7250],[100,7335],[100,7418],[100,7502],[100,7584],[100,7668],[100,7750],[100,7834],[100,7917],[100,7999],[100,8084],[100,8166],[100,8249],[100,8336],[100,8418],[100,8500],[100,8583],[100,8665],[100,8751],[100,8832],[100,8918],[100,9000],[100,9083],[100,9166],[100,9250],[100,9334],[100,9417],[100,9500],[100,9587],[100,9668],[100,9752],[100,9833],[100,9918],[100,10002],[100,10086],[100,10166],[100,10250],[100,10336],[100,10417],[100,10499],[100,10585],[100,10667],[100,10750],[100,10835],[100,10919],[100,11002],[100,11085],[100,11168],[100,11253],[100,11334],[100,11417],[100,11502],[100,11584],[100,11667],[100,11752],[100,11833],[100,11916],[100,12002],[100,12083],[100,12167],[100,12250],[100,12335],[100,12417],[100,12501],[100,12583],[100,12667],[100,12751],[100,12834],[100,12919],[100,13000],[100,13084],[100,13168],[100,13250],[100,13337],[100,13418],[100,13502],[100,13585],[100,13668],[100,13749],[100,13834],[100,13918],[100,13999],[100,14082],[100,14166],[100,14250],[100,14336],[100,14416],[100,14501],[100,14585],[100,14668],[100,14749],[100,14835],[100,14918],[100,15000],[100,15084],[100,15167],[100,15251],[100,15336],[100,15418]]",716.8076,718.4381,99.27951389,0.8791,"[{""rating"":99.27951388888889,""responseTime"":0.8790999999046107}]",space,1.0879,,718.4382,Definitely yes,100,718.4599,,,[],,0,5,5,5,1,audio/Narrative7Situation5.wav,audio/Narrative8Situation5.wav,audio/Narrative5Situation5.wav,audio/Narrative6Situation5.wav,5,2,5,2,,,,,,,,,,,,,,,,,,,,,,,,,,,,,,,,,,,,,,,
,,,,,66553eb5f10b5700001d20de,2025-07-07_21h01.58.818,group3.4_multiperson,2023.2.2,MacIntel,59.99880002,686c2ebf0248f13bef9af11f,686c7b7b82ee3ad1c3c95969,,,,,,,,,,,,,,,,,,,,,,,,,,,,,718.4602,2,audio/Narrative5Situation6.wav,721.4733,,721.4733,727.1568,[],727.157,731.9908,99.23882378,1.4118,"[{""rating"":99.23882378472221,""responseTime"":1.411799999713935}]",space,4.3048,,731.9909,Partially,50,732.0133,,,[],,0,6,6,6,1,audio/Narrative7Situation6.wav,audio/Narrative8Situation6.wav,audio/Narrative5Situation6.wav,audio/Narrative6Situation6.wav,3,2,3,2,,,,,,,,,,,,,,,,,,,,,,,,,,,,,,,,,,,,,,,
,,,,,66553eb5f10b5700001d20de,2025-07-07_21h01.58.818,group3.4_multiperson,2023.2.2,MacIntel,59.99880002,686c2ebf0248f13bef9af11f,686c7b7b82ee3ad1c3c95969,,,,,,,,,,,,,,,,,,,,,,,,,,,,,732.0136,2,audio/Narrative5Situation7.wav,736.025,,736.025,757.0756,"[[98.2,4832],[97.8,4917],[97.6,4999],[97.6,5082],[97.6,5166],[97.6,5249],[97.7,5335],[97.9,5418],[98.1,5500],[98.5,5584],[99.1,5666],[99.5,5749],[99.8,5834],[100,5918],[100,5999],[100,6083],[100,6166],[100,6247],[100,6333],[100,6418],[100,6497],[100,6582],[100,6666],[100,6750],[100,6832],[100,6914],[100,7001],[100,7084],[100,7168],[100,7250],[100,7333],[100,7415],[100,7499],[100,7583],[100,7668],[100,7749],[100,7832],[100,7916],[100,7997],[100,8082],[100,8165],[100,8248],[100,8334],[100,8417],[100,8498],[100,8582],[100,8665],[100,8750],[100,8831],[100,8917],[100,9000],[100,9081],[100,9166],[100,9249],[100,9334],[100,9416],[100,9499],[100,9582],[100,9667],[100,9748],[100,9833],[100,9917],[100,9999],[100,10083],[100,10164],[100,10248],[100,10332],[100,10415],[100,10499],[100,10582],[100,10666],[100,10749],[100,10834],[100,10914],[100,11000],[100,11083],[100,11165],[100,11249],[100,11333],[100,11418],[100,11499],[100,11582],[100,11667],[100,11749],[100,11832],[100,11917],[100,11998],[100,12086],[100,12167],[100,12250],[100,12335],[100,12416],[100,12499],[100,12581],[100,12666],[100,12750],[100,12832],[100,12915],[100,13000],[100,13084],[100,13166],[100,13248],[100,13333],[100,13417],[100,13502],[100,13581],[100,13666],[100,13749],[100,13833],[100,13915],[100,14001],[100,14081],[100,14165],[100,14251],[100,14333],[100,14416],[100,14500],[100,14584],[100,14668],[100,14750],[100,14832],[100,14918],[100,15000],[100,15082],[100,15168],[100,15249],[100,15333],[100,15417],[100,15500],[100,15585],[100,15667],[100,15751],[100,15832],[100,15915],[100,16001],[100,16083],[100,16166],[100,16250],[100,16333],[100,16416],[100,16500],[100,16584],[100,16665],[100,16753],[100,16834],[100,16918],[100,17002],[100,17082],[100,17168],[100,17252],[100,17333],[100,17417],[100,17499],[100,17583],[100,17666],[100,17750],[100,17832],[100,17916],[100,18000],[100,18082],[100,18166],[100,18250],[100,18333],[100,18416],[100,18500],[100,18583],[100,18666],[100,18750],[100,18834],[100,18919],[100,18998],[100,19083],[100,19167],[100,19249],[100,19333],[100,19417],[100,19501],[100,19584],[100,19667],[100,19748],[100,19833],[100,19916],[100,20000],[100,20085],[100,20166],[100,20250],[100,20333],[100,20418],[100,20499],[100,20584],[100,20668],[100,20749],[100,20833],[100,20918],[100,20999]]",757.0759,763.0093,99.58333333,1.1081,"[{""rating"":99.58333333333333,""responseTime"":1.1080999999046526}]",space,5.3834,,763.0093,Not at all,0,763.0312,,,[],,0,7,7,7,1,audio/Narrative7Situation7.wav,audio/Narrative8Situation7.wav,audio/Narrative5Situation7.wav,audio/Narrative6Situation7.wav,5,3,4,5,,,,,,,,,,,,,,,,,,,,,,,,,,,,,,,,,,,,,,,
,,,,,66553eb5f10b5700001d20de,2025-07-07_21h01.58.818,group3.4_multiperson,2023.2.2,MacIntel,59.99880002,686c2ebf0248f13bef9af11f,686c7b7b82ee3ad1c3c95969,,,,,,,,,,,,,,,,,,,,,,,,,,,,,763.0317,2,audio/Narrative5Situation8.wav,766.043,,766.043,774.8437,"[[99.1,4083],[98.6,4167],[98.5,4251],[98.5,4331],[98.5,4415],[98.5,4499],[98.5,4585],[98.8,4667],[99.4,4749],[100,4835],[100,4915],[100,4999],[100,5085],[100,5170],[100,5249],[100,5332],[100,5417],[100,5499],[100,5584],[100,5666],[100,5752],[100,5833],[100,5916],[100,6000],[100,6083],[100,6167],[100,6251],[100,6336],[100,6416],[100,6501],[100,6584],[100,6670],[100,6750],[100,6834],[100,6916],[100,7000],[100,7083],[100,7167],[100,7250],[100,7333],[100,7418],[100,7502],[100,7583],[100,7667],[100,7751],[100,7832],[100,7917],[100,8001],[100,8085],[100,8167],[100,8250],[100,8335],[100,8416],[100,8500],[100,8585],[100,8669],[100,8750]]",774.8439,780.8433,100,5.1596,"[{""rating"":98.81022135416666,""responseTime"":4.125900000095385},{""rating"":100,""responseTime"":5.159600000381488}]",space,5.4691,,780.8434,Definitely yes,100,780.8658,,,[],,0,8,8,8,1,audio/Narrative7Situation8.wav,audio/Narrative8Situation8.wav,audio/Narrative5Situation8.wav,audio/Narrative6Situation8.wav,2,3,3,5,,,,,,,,,,,,,,,,,,,,,,,,,,,,,,,,,,,,,,,
,,,,,66553eb5f10b5700001d20de,2025-07-07_21h01.58.818,group3.4_multiperson,2023.2.2,MacIntel,59.99880002,686c2ebf0248f13bef9af11f,686c7b7b82ee3ad1c3c95969,,,,,,,,,,,,,,,,,,,,,,,,,,,,,780.8662,2,audio/Narrative5Situation9.wav,783.8783,,783.8785,823.4454,"[[999,0],[999,82],[999,165],[999,249],[999,333],[999,415],[999,498],[999,583],[999,664],[999,747],[999,830],[999,916],[999,997],[999,1082],[999,1166],[999,1247],[999,1332],[999,1415],[999,1498],[999,1581],[999,1665],[999,1750],[999,1833],[999,1915],[999,1999],[999,2083],[999,2165],[999,2249],[999,2333],[999,2415],[999,2498],[999,2582],[999,2664],[999,2749],[999,2832],[999,2917],[999,3000],[999,3081],[999,3165],[999,3250],[999,3330],[999,3416],[999,3499],[999,3580],[999,3665],[999,3749],[999,3831],[999,3916],[999,4000],[999,4080],[999,4164],[999,4247],[999,4333],[999,4414],[999,4499],[999,4582],[999,4665],[999,4747],[999,4832],[999,4915],[999,4997],[999,5082],[999,5164],[999,5250],[999,5334],[999,5415],[999,5500],[999,5581],[999,5666],[999,5749],[999,5833],[999,5918],[999,5999],[999,6082],[999,6165],[999,6249],[999,6332],[999,6416],[999,6501],[999,6582],[999,6666],[999,6750],[999,6833],[999,6916],[999,6998],[999,7082],[999,7166],[999,7248],[999,7333],[999,7415],[999,7499],[999,7585],[999,7668],[999,7749],[999,7832],[999,7915],[999,7999],[999,8083],[999,8167],[999,8249],[999,8334],[999,8415],[999,8500],[999,8584],[999,8666],[999,8749],[999,8832],[999,8916],[999,9000],[999,9085],[999,9165],[999,9250],[999,9333],[999,9414],[999,9499],[999,9582],[999,9665],[999,9752],[999,9832],[999,9917],[999,9999],[999,10082],[999,10164],[999,10250],[999,10331],[999,10418],[999,10500],[999,10582],[999,10666],[999,10749],[999,10832],[999,10916],[999,11002],[999,11083],[999,11165],[999,11249],[999,11331],[999,11415],[999,11502],[999,11583],[999,11667],[999,11748],[999,11833],[999,11916],[999,12000],[999,12083],[999,12165],[999,12248],[999,12333],[999,12416],[999,12499],[999,12582],[999,12668],[999,12750],[999,12834],[999,12916],[999,13000],[999,13084],[999,13168],[999,13249],[999,13333],[999,13416],[999,13499],[999,13583],[999,13667],[999,13749],[999,13831],[999,13917],[999,14001],[999,14085],[999,14165],[999,14249],[999,14331],[999,14416],[999,14500],[999,14583],[999,14666],[999,14749],[999,14831],[999,14916],[999,14998],[999,15084],[999,15167],[999,15252],[999,15333],[999,15417],[999,15498],[999,15583],[999,15666],[999,15750],[999,15833],[999,15916],[999,16001],[999,16082],[999,16166],[999,16249],[999,16334],[999,16415],[999,16500],[999,16583],[999,16665],[999,16750],[999,16833],[999,16917],[999,17002],[999,17083],[999,17168],[999,17252],[999,17333],[999,17417],[999,17501],[999,17583],[999,17667],[999,17749],[999,17832],[999,17917],[999,17999],[999,18083],[999,18166],[999,18250],[999,18334],[999,18418],[999,18500],[999,18584],[999,18668],[999,18748],[999,18834],[999,18916],[999,18999],[999,19083],[999,19166],[999,19248],[999,19333],[999,19416],[999,19502],[999,19583],[999,19666],[999,19751],[999,19833],[999,19915],[999,20000],[999,20085],[999,20166],[999,20251],[999,20333],[999,20419],[999,20500],[999,20583],[999,20668],[999,20750],[999,20833],[999,20918],[999,20999],[999,21083],[999,21165],[999,21251],[999,21333],[999,21417],[999,21500],[999,21585],[999,21667],[999,21750],[999,21832],[999,21916],[999,22000],[999,22085],[999,22166],[999,22250],[999,22333],[999,22416],[999,22498],[999,22584],[999,22666],[999,22748],[999,22833],[999,22915],[999,22998],[999,23083],[999,23166],[999,23250],[999,23332],[999,23415],[999,23500],[999,23585],[999,23669],[999,23750],[999,23833],[999,23915],[999,24000],[999,24083],[999,24165],[999,24250],[999,24333],[999,24415],[999,24502],[999,24583],[999,24667],[999,24751],[999,24836],[999,24915],[999,24999],[999,25082],[999,25167],[999,25250],[999,25332],[999,25417],[999,25500],[999,25582],[999,25669],[999,25750],[999,25833],[999,25917],[999,26003],[999,26082],[999,26173],[999,26249],[999,26336],[999,26419],[999,26502],[999,26584],[999,26667],[999,26752],[999,26833],[999,26917],[999,27001],[999,27085],[999,27167],[999,27251],[999,27333],[999,27417],[999,27500],[999,27584],[999,27666],[999,27750],[999,27835],[999,27918],[999,28002],[999,28083],[999,28168],[999,28249],[999,28335],[999,28419],[999,28501],[999,28582],[999,28667],[999,28753],[999,28835],[999,28920],[999,29000],[999,29084],[999,29167],[999,29250],[999,29334],[999,29416],[999,29499],[999,29584],[999,29668],[999,29753],[999,29834],[999,29918],[999,30000],[999,30084],[999,30167],[999,30249],[999,30333],[999,30417],[999,30499],[999,30583],[999,30667],[999,30751],[999,30835],[999,30919],[999,31001],[999,31084],[999,31169],[999,31251],[999,31332],[999,31419],[999,31500],[999,31584],[999,31668],[999,31753],[999,31835],[999,31916],[999,32002],[999,32084],[999,32167],[999,32252],[999,32334],[999,32418],[999,32500],[999,32583],[999,32667],[999,32749],[999,32832],[999,32920],[999,33000],[999,33085],[999,33168],[999,33251],[999,33334],[999,33417],[999,33500],[999,33584],[999,33667],[999,33752],[999,33836],[999,33917],[999,34000],[999,34084],[999,34167],[999,34250],[999,34336],[999,34416],[999,34501],[999,34585],[999,34666],[999,34751],[999,34835],[999,34919],[999,35003],[999,35085],[999,35169],[999,35250],[999,35333],[999,35418],[999,35501],[999,35583],[999,35668],[999,35752],[999,35836],[999,35918],[999,36001],[999,36083],[999,36167],[999,36251],[999,36334],[999,36420],[999,36501],[999,36585],[999,36667],[999,36751],[999,36835],[999,36919],[999,37000],[999,37084],[999,37168],[999,37250],[999,37334],[999,37417],[999,37501],[999,37586],[999,37667],[999,37752],[999,37836],[999,37917],[999,38003],[999,38086],[999,38171],[999,38252],[999,38334],[999,38420],[999,38501],[999,38583],[999,38669],[999,38753],[999,38834],[999,38920],[999,39000],[999,39084],[999,39168],[999,39251],[999,39333],[999,39418],[999,39502]]",823.4456,828.129,100,3.463,"[{""rating"":99.22309027777779,""responseTime"":2.509200000286114},{""rating"":100,""responseTime"":3.4629999999999654}]",space,4.1555,,828.1291,Definitely yes,100,828.1426,,,[],,0,9,9,9,1,audio/Narrative7Situation9.wav,audio/Narrative8Situation9.wav,audio/Narrative5Situation9.wav,audio/Narrative6Situation9.wav,2,3,3,4,,,,,,,,,,,,,,,,,,,,,,,,,,,,,,,,,,,,,,,
,,,,,66553eb5f10b5700001d20de,2025-07-07_21h01.58.818,group3.4_multiperson,2023.2.2,MacIntel,59.99880002,686c2ebf0248f13bef9af11f,686c7b7b82ee3ad1c3c95969,,,,,,,,,,,,,,,,,,,,,,,,,,,,,828.143,2,audio/Narrative6Situation1.wav,830.1472,,830.1473,856.7343,"[[100,5998],[100,6083],[100,6167],[100,6249],[100,6335],[100,6416],[100,6501],[99.6,6584],[99.2,6666],[99.2,6748],[99.2,6833],[99.2,6916],[100,6999],[100,7087],[100,7166],[100,7250],[100,7334],[100,7418],[100,7501],[100,7585],[100,7667],[100,7751],[100,7835],[100,7917],[100,8001],[100,8083],[100,8165],[100,8250],[100,8332],[100,8419],[100,8500],[100,8585],[100,8666],[100,8750],[100,8834],[100,8915],[100,9002],[100,9084],[100,9168],[100,9252],[100,9334],[100,9417],[100,9502],[100,9583],[100,9667],[100,9748],[100,9835],[100,9915],[100,10001],[100,10082],[100,10165],[100,10250],[100,10335],[100,10415],[100,10500],[100,10584],[100,10669],[100,10750],[100,10834],[100,10918],[100,11002],[100,11083],[100,11168],[100,11252],[100,11333],[100,11416],[100,11501],[100,11582],[100,11667],[100,11751],[100,11834],[100,11917],[100,12000],[100,12085],[100,12166],[100,12250],[100,12333],[100,12416],[100,12503],[100,12584],[100,12668],[100,12749],[100,12834],[100,12916],[100,13002],[100,13084],[100,13167],[100,13251],[100,13334],[100,13417],[100,13499],[100,13583],[100,13670],[100,13751],[100,13833],[100,13920],[100,14001],[100,14082],[100,14169],[100,14250],[100,14334],[100,14419],[100,14503],[100,14584],[100,14668],[100,14752],[100,14837],[100,14918],[100,15002],[100,15082],[100,15167],[100,15250],[100,15336],[100,15417],[100,15500],[100,15583],[100,15669],[100,15750],[100,15835],[100,15918],[100,16000],[100,16083],[100,16166],[100,16250],[100,16334],[100,16418],[100,16499],[100,16584],[100,16668],[100,16750],[100,16834],[100,16916],[100,17002],[100,17083],[100,17167],[100,17251],[100,17333],[100,17418],[100,17501],[100,17585],[100,17666],[100,17751],[100,17834],[100,17916],[100,18001],[100,18084],[100,18169],[100,18250],[100,18334],[100,18417],[100,18500],[100,18586],[100,18667],[100,18751],[100,18835],[100,18918],[100,19001],[100,19084],[100,19167],[100,19250],[100,19336],[100,19416],[100,19501],[100,19585],[100,19666],[100,19749],[100,19835],[100,19918],[100,20000],[100,20084],[100,20168],[100,20249],[100,20333],[100,20419],[100,20503],[100,20584],[100,20667],[100,20750],[100,20833],[100,20917],[100,21003],[100,21084],[100,21171],[100,21254],[100,21335],[100,21416],[100,21501],[100,21585],[100,21667],[100,21753],[100,21834],[100,21916],[100,22000],[100,22087],[100,22167],[100,22252],[100,22333],[100,22418],[100,22502],[100,22588],[100,22668],[100,22751],[100,22833],[100,22916],[100,23000],[100,23085],[100,23169],[100,23250],[100,23334],[100,23419],[100,23504],[100,23583],[100,23668],[100,23753],[100,23833],[100,23919],[100,24003],[100,24084],[100,24168],[100,24252],[100,24333],[100,24417],[100,24502],[100,24585],[100,24671],[100,24751],[100,24835],[100,24917],[100,25001],[100,25084],[100,25170],[100,25252],[100,25334],[100,25519],[100,25602],[100,25684],[100,25768],[100,25851],[100,25934],[100,26020],[100,26101],[100,26186],[100,26269],[100,26351],[100,26433],[100,26519]]",856.7349,858.867,99.11512587,1.0727,"[{""rating"":99.11512586805556,""responseTime"":1.0726999998091742}]",space,1.5895,,858.8672,Partially,50,858.8908,,,[],,0,10,10,10,1,audio/Narrative8Situation1.wav,audio/Narrative7Situation1.wav,audio/Narrative6Situation1.wav,audio/Narrative5Situation1.wav,5,2,2,5,,,,,,,,,,,,,,,,,,,,,,,,,,,,,,,,,,,,,,,
,,,,,66553eb5f10b5700001d20de,2025-07-07_21h01.58.818,group3.4_multiperson,2023.2.2,MacIntel,59.99880002,686c2ebf0248f13bef9af11f,686c7b7b82ee3ad1c3c95969,,,,,,,,,,,,,,,,,,,,,,,,,,,,,858.8912,2,audio/Narrative6Situation2.wav,861.9004,,861.9004,890.4015,"[[99.3,25084],[99.9,25169],[100,25252],[100,25332],[100,25416],[100,25501],[100,25583],[100,25667],[100,25753],[100,25834],[100,25919],[100,26002],[100,26084],[100,26168],[100,26251],[100,26332],[100,26416],[100,26499],[100,26584],[100,26668],[100,26750],[100,26834],[100,26917],[100,27001],[100,27086],[100,27167],[100,27252],[100,27332],[100,27418],[100,27500],[100,27582],[100,27667],[100,27750],[100,27834],[100,27917],[100,27999],[100,28082],[100,28168],[100,28249],[100,28332],[100,28417],[100,28500]]",890.4019,894.0682,99.35058594,2.6739,"[{""rating"":99.3505859375,""responseTime"":2.6739000000953865}]",space,3.1187,,894.0684,Definitely yes,100,894.089,,,[],,0,11,11,11,1,audio/Narrative8Situation2.wav,audio/Narrative7Situation2.wav,audio/Narrative6Situation2.wav,audio/Narrative5Situation2.wav,3,3,3,3,,,,,,,,,,,,,,,,,,,,,,,,,,,,,,,,,,,,,,,
,,,,,66553eb5f10b5700001d20de,2025-07-07_21h01.58.818,group3.4_multiperson,2023.2.2,MacIntel,59.99880002,686c2ebf0248f13bef9af11f,686c7b7b82ee3ad1c3c95969,,,,,,,,,,,,,,,,,,,,,,,,,,,,,894.0894,2,audio/Narrative6Situation3.wav,899.1006,,899.1006,911.7363,"[[99.3,5335],[99,5420],[97.8,5501],[96.7,5585],[96.4,5669],[96.4,5751],[96.4,5834],[96.4,5918],[96.4,6002],[96.4,6084],[96.4,6166],[96.4,6253],[96.4,6333],[96.4,6418],[96.4,6501],[96.4,6587],[96.4,6668],[96.4,6754],[96.4,6836],[96.4,6918],[96.4,7003],[97.4,7084],[98.8,7168],[99.3,7255],[99.8,7333],[100,7417],[100,7500],[100,7586],[100,7667],[100,7753],[100,7834],[100,7917],[100,8003],[100,8083],[100,8168],[100,8252],[100,8333],[100,8417],[100,8501],[100,8586],[100,8670],[100,8751],[100,8835],[100,8917],[100,9004],[100,9085],[100,9170],[100,9253],[100,9335],[100,9417],[100,9503],[100,9585],[100,9667],[100,9752],[100,9834],[100,9918],[100,10001],[100,10083],[100,10167],[100,10251],[100,10334],[100,10417],[100,10500],[100,10584],[100,10667],[100,10754],[100,10835],[100,10917],[100,11001],[100,11086],[100,11167],[100,11250],[100,11335],[100,11418],[100,11501],[100,11588],[100,11668],[100,11752],[100,11834],[100,11918],[100,12001],[100,12084],[100,12171],[100,12252],[100,12335],[100,12417],[100,12501],[100,12585]]",911.7366,914.539,92.00086806,1.6648,"[{""rating"":92.00086805555556,""responseTime"":1.6647999997139777}]",space,2.249,,914.5392,Partially,50,914.5574,,,[],,0,12,12,12,1,audio/Narrative8Situation3.wav,audio/Narrative7Situation3.wav,audio/Narrative6Situation3.wav,audio/Narrative5Situation3.wav,4,8,5,3,,,,,,,,,,,,,,,,,,,,,,,,,,,,,,,,,,,,,,,
,,,,,66553eb5f10b5700001d20de,2025-07-07_21h01.58.818,group3.4_multiperson,2023.2.2,MacIntel,59.99880002,686c2ebf0248f13bef9af11f,686c7b7b82ee3ad1c3c95969,,,,,,,,,,,,,,,,,,,,,,,,,,,,,914.5578,2,audio/Narrative6Situation4.wav,916.5692,,916.5692,929.1714,"[[999,0],[999,83],[999,167],[999,248],[999,335],[999,415],[999,501],[999,584],[999,667],[999,751],[999,832],[999,916],[999,1001],[999,1086],[999,1169],[999,1251],[999,1334],[999,1418],[999,1500],[999,1583],[999,1668],[999,1749],[999,1833],[999,1918],[999,1999],[999,2082],[999,2167],[999,2250],[999,2336],[999,2417],[999,2501],[999,2582],[999,2667],[999,2750],[999,2833],[999,2918],[999,2999],[999,3084],[999,3169],[999,3253],[999,3332],[999,3418],[999,3499],[999,3584],[999,3667],[999,3751],[999,3832],[999,3917],[999,4001],[999,4084],[999,4166],[999,4251],[999,4335],[999,4416],[999,4501],[999,4584],[999,4669],[999,4749],[999,4834],[999,4917],[999,5001],[999,5084],[999,5167],[999,5250],[999,5336],[999,5418],[999,5501],[999,5584],[999,5668],[999,5751],[999,5834],[999,5917],[999,6001],[999,6084],[999,6169],[999,6251],[999,6333],[999,6417],[999,6501],[999,6585],[999,6666],[999,6750],[999,6834],[999,6918],[999,6999],[999,7088],[999,7168],[999,7251],[999,7334],[999,7418],[999,7502],[999,7587],[999,7668],[69.3,7750],[70,7833],[70.8,7922],[71,8001],[71,8083],[71,8167],[72,8254],[73.1,8334],[74.6,8420],[75.2,8501],[75.2,8584],[75.2,8667],[75.2,8750],[75.2,8834],[75.2,8919],[78.9,9004],[83.4,9086],[84.6,9168],[84.6,9252],[84.6,9337],[84.6,9418],[86.1,9504],[95.3,9583],[97.2,9670],[97.3,9751],[97.3,9836],[97.3,9918],[99,10001],[100,10083],[100,10169],[100,10251],[100,10335],[100,10417],[100,10503],[100,10585],[100,10668],[100,10753],[100,10834],[100,10917],[100,11002],[100,11084],[100,11169],[100,11252],[100,11336],[100,11416],[100,11501],[100,11586],[100,11667],[100,11751],[100,11835],[100,11920],[100,12002],[100,12085],[100,12170],[100,12251],[100,12333],[100,12420],[100,12501],[100,12584]]",929.1716,930.4695,99.72113715,0.7079,"[{""rating"":99.72113715277777,""responseTime"":0.7079000000953783}]",space,0.7685,,930.4696,Definitely yes,100,930.4914,,,[],,0,13,13,13,1,audio/Narrative8Situation4.wav,audio/Narrative7Situation4.wav,audio/Narrative6Situation4.wav,audio/Narrative5Situation4.wav,3,3,2,1,,,,,,,,,,,,,,,,,,,,,,,,,,,,,,,,,,,,,,,
,,,,,66553eb5f10b5700001d20de,2025-07-07_21h01.58.818,group3.4_multiperson,2023.2.2,MacIntel,59.99880002,686c2ebf0248f13bef9af11f,686c7b7b82ee3ad1c3c95969,,,,,,,,,,,,,,,,,,,,,,,,,,,,,930.4918,2,audio/Narrative6Situation5.wav,932.507,,932.5072,940.4887,[],940.4889,942.0207,99.53450521,0.8264,"[{""rating"":99.53450520833333,""responseTime"":0.8264000000954184}]",space,0.9869,,942.0208,Not at all,0,942.0423,,,[],,0,14,14,14,1,audio/Narrative8Situation5.wav,audio/Narrative7Situation5.wav,audio/Narrative6Situation5.wav,audio/Narrative5Situation5.wav,2,5,2,5,,,,,,,,,,,,,,,,,,,,,,,,,,,,,,,,,,,,,,,
,,,,,66553eb5f10b5700001d20de,2025-07-07_21h01.58.818,group3.4_multiperson,2023.2.2,MacIntel,59.99880002,686c2ebf0248f13bef9af11f,686c7b7b82ee3ad1c3c95969,,,,,,,,,,,,,,,,,,,,,,,,,,,,,942.0427,2,audio/Narrative6Situation6.wav,944.0552,,944.0553,955.1403,"[[99.6,9253],[99.7,9333],[99.7,9418],[99.7,9501],[99.7,9583],[99.7,9668],[99.7,9751],[99.7,9837],[99.8,9918],[99.8,10004],[99.8,10086],[99.8,10167],[99.8,10251],[99.8,10333],[99.8,10417],[99.8,10501],[99.8,10585],[99.8,10669],[99.8,10750],[99.8,10834],[99.8,10918],[99.8,10999],[99.8,11084]]",955.1404,957.5228,99.42165799,1.9082,"[{""rating"":99.42165798611111,""responseTime"":1.9081999998091987}]",space,1.8363,,957.5229,Not at all,0,957.5369,,,[],,0,15,15,15,1,audio/Narrative8Situation6.wav,audio/Narrative7Situation6.wav,audio/Narrative6Situation6.wav,audio/Narrative5Situation6.wav,2,3,2,3,,,,,,,,,,,,,,,,,,,,,,,,,,,,,,,,,,,,,,,
,,,,,66553eb5f10b5700001d20de,2025-07-07_21h01.58.818,group3.4_multiperson,2023.2.2,MacIntel,59.99880002,686c2ebf0248f13bef9af11f,686c7b7b82ee3ad1c3c95969,,,,,,,,,,,,,,,,,,,,,,,,,,,,,957.5374,2,audio/Narrative6Situation7.wav,962.5395,,962.5396,987.3914,"[[99.4,21585],[99.4,21667],[99.3,21753],[99.3,21834],[99,21918],[98.8,22004],[98.8,22084],[98.6,22167],[98.6,22252],[98.6,22334],[98.6,22416],[98.6,22503],[98.6,22583],[98.6,22667],[98.6,22752],[97.9,22835],[97.6,22917],[97.5,23001],[97.5,23084],[97.5,23169],[97.5,23250],[97.5,23334],[97.4,23419],[97.2,23501],[97.2,23584],[97.2,23668],[97.2,23750],[97.2,23837],[97.2,23918],[97.2,24001],[97.2,24086],[97.2,24166],[97.2,24250],[97.2,24334],[95.6,24417],[93,24501],[91.1,24589],[89.7,24667],[88.1,24750],[87.8,24835]]",987.3915,988.8928,86.49142795,0.7929,"[{""rating"":86.49142795138889,""responseTime"":0.792900000095301}]",space,0.9664,,988.8928,Not at all,0,988.9061,,,[],,0,16,16,16,1,audio/Narrative8Situation7.wav,audio/Narrative7Situation7.wav,audio/Narrative6Situation7.wav,audio/Narrative5Situation7.wav,3,5,5,4,,,,,,,,,,,,,,,,,,,,,,,,,,,,,,,,,,,,,,,
,,,,,66553eb5f10b5700001d20de,2025-07-07_21h01.58.818,group3.4_multiperson,2023.2.2,MacIntel,59.99880002,686c2ebf0248f13bef9af11f,686c7b7b82ee3ad1c3c95969,,,,,,,,,,,,,,,,,,,,,,,,,,,,,988.9065,2,audio/Narrative6Situation8.wav,993.9085,,993.9086,1000.7757,"[[86.1,6418],[85.8,6501],[85.6,6587],[85.5,6668],[85.4,6750],[85.4,6835]]",1000.7759,1006.8593,0.193684896,2.5747,"[{""rating"":0.1936848958333348,""responseTime"":2.5746999998093543}]",space,5.5352,,1006.8595,Definitely yes,100,1006.8805,,,[],,0,17,17,17,1,audio/Narrative8Situation8.wav,audio/Narrative7Situation8.wav,audio/Narrative6Situation8.wav,audio/Narrative5Situation8.wav,3,2,5,3,,,,,,,,,,,,,,,,,,,,,,,,,,,,,,,,,,,,,,,
,,,,,66553eb5f10b5700001d20de,2025-07-07_21h01.58.818,group3.4_multiperson,2023.2.2,MacIntel,59.99880002,686c2ebf0248f13bef9af11f,686c7b7b82ee3ad1c3c95969,,,,,,,,,,,,,,,,,,,,,,,,,,,,,1006.8809,2,audio/Narrative6Situation9.wav,1010.8939,,1010.8941,1020.8439,"[[0,9082],[2.2,9165],[2.7,9250],[2.7,9332],[2.3,9419],[2.3,9500],[2.3,9582],[2.3,9668],[2.3,9749],[2.3,9833],[1.8,9915]]",1020.8442,1022.7938,0.570746528,1.0098,"[{""rating"":0.5707465277777768,""responseTime"":1.0098000001905802}]",space,1.4097,,1022.7939,Partially,50,1037.5303,49.94900174,12.0913,"[{""rating"":49.94900173611111,""responseTime"":12.091299999713783}]",space,0,18,18,18,1,audio/Narrative8Situation9.wav,audio/Narrative7Situation9.wav,audio/Narrative6Situation9.wav,audio/Narrative5Situation9.wav,3,2,4,3,,,14.1879,,,,,,,,,,,,,,,,,,,,,,,,,,,,,,,,,,,,
,,,,,66553eb5f10b5700001d20de,2025-07-07_21h01.58.818,group3.4_multiperson,2023.2.2,MacIntel,59.99880002,686c2ebf0248f13bef9af11f,686c7b7b82ee3ad1c3c95969,,,,,,,,,,,,,,,,,,,,,,,,,,,,,,,,,,,,,,,,,,,,,,,,,,,,,,,,,,,,,,,,,,,,,,1037.5314,1039.0771,space,1.0183,,1039.0775,1050.7818,space,11.3722,,,,,,,,,,,,,,,,,,,,,,,,,,
,,,,,66553eb5f10b5700001d20de,2025-07-07_21h01.58.818,group3.4_multiperson,2023.2.2,MacIntel,59.99880002,686c2ebf0248f13bef9af11f,686c7b7b82ee3ad1c3c95969,,,,,,,,,,,,,,,,,,,,,,,,,,,,,1053.3863,1,audio/Narrative8Situation9.wav,1055.396,,,,,1087.2693,1091.1151,50.05045573,2.7948,"[{""rating"":36.872287326388886,""responseTime"":1.5364000000954547},{""rating"":50.050455729166664,""responseTime"":2.7948000001908895}]",space,3.3091,,1091.1153,Not at all,0,1091.1356,,,[],,,,,,,,,,,2,2,2,2,,,,,,,,,,,,,,,1050.7852,1053.3629,1055.3965,3,1087.2689,"[[49.8,7933],[49.5,8016],[49.3,8099],[49.3,8183],[49.3,8268],[49.3,8352],[49.3,8432],[49.3,8516],[49.3,8600],[49.3,8685],[49.2,8770],[48.8,8851],[47.9,8933],[45.6,9017],[43.4,9099],[40.5,9182],[37.9,9265],[35.8,9352],[34.3,9433],[33.5,9516],[33.4,9598],[33.4,9683],[33.4,9766],[33.4,9849],[33.4,9932],[33.4,10016],[33.4,10098],[33.4,10183],[33.4,10267],[33,10350],[31.8,10433],[30.6,10517],[29.5,10600],[29.1,10686],[29,10766],[29,10850],[29,10934],[28.9,11017],[28.9,11100],[28.9,11186],[28.9,11266],[28.9,11348],[28.9,11436],[28.9,11515],[28.9,11598],[28.9,11683],[28.9,11766],[28.8,11850],[28.7,11933],[28.6,12018],[28.2,12099],[27.5,12183],[26.4,12265],[25.8,12350],[25.7,12435],[25.7,12515],[25.7,12600],[25.7,12683],[25.7,12768],[25.7,12850],[25.7,12936],[25.2,13019],[24.1,13100],[23.3,13182],[22.4,13267],[21.8,13349],[21.6,13433],[21.6,13517],[21.6,13602],[21.6,13683],[21.6,13766],[21.6,13849],[21.6,13936],[21.6,14017],[21.6,14099],[21.6,14185],[21.6,14267],[21.6,14350],[21.6,14434],[21.6,14515],[21.6,14600],[21.6,14683],[21.6,14766],[21.6,14849],[21.6,14933],[21.6,15015],[21.6,15102],[21.6,15185],[21.6,15267],[21.6,15348],[21.6,15434],[21.6,15515],[21.6,15599],[21.6,15683],[21.6,15767],[21.6,15851],[21.6,15936],[21.6,16015],[21.6,16100],[21.6,16186],[21.6,16266],[21.6,16350],[21.6,16434],[21.6,16517],[21.6,16600],[21.6,16683],[21.6,16767],[21.6,16849],[21.6,16936],[21.6,17018],[21.6,17103],[21.6,17183],[21.6,17267],[21.6,17349],[21.6,17434],[21.6,17517],[21.6,17600],[21.6,17686],[21.6,17767],[21.6,17850],[21.6,17935],[21.6,18017],[21.6,18100],[21.6,18184],[21.6,18267],[21.6,18350],[21.6,18434],[21.6,18516],[21.6,18602],[21.6,18684],[21.6,18768],[21.6,18852],[21.3,18934],[19.4,19017],[18,19102],[17,19185],[16.1,19267],[14.9,19350],[14,19434],[13.8,19519],[13.8,19600],[13.8,19684],[13.8,19768],[11.6,19850],[8.7,19934],[7.1,20017],[5.9,20100],[5.4,20187],[5.4,20269],[5.4,20350],[5.4,20432],[5.4,20518],[5.4,20600],[5.4,20683],[5.4,20766],[5.4,20850],[5.4,20934],[5.3,21017],[5.2,21100],[5,21184],[4.9,21268],[4.8,21349],[4.8,21437],[4.8,21517],[4.8,21600],[4.8,21685],[4.8,21767],[4.8,21849],[4.8,21934],[4.8,22016],[4.8,22099],[4.8,22184],[4.8,22267],[4.8,22349],[4.8,22434],[4.8,22516],[4.8,22601],[4.8,22682],[4.8,22766],[4.8,22852],[4.8,22933],[4.8,23016],[4.8,23101],[4.8,23183],[4.8,23267],[4.8,23351],[4.8,23433],[4.8,23517],[4.8,23600],[4.8,23684],[4.8,23768],[4.8,23850],[4.8,23933],[4.8,24016],[4.8,24101],[4.8,24184],[4.8,24268],[4.8,24349],[4.8,24436],[4.8,24519],[4.8,24599],[4.8,24686],[4.8,24768],[4.8,24850],[4.8,24936],[4.8,25017],[4.8,25099],[4.8,25186],[4.8,25268],[4.8,25349],[4.8,25435],[4.8,25516],[4.8,25603],[4.8,25683],[4.8,25766],[4.8,25851],[4.8,25934],[4.8,26016],[4.8,26103],[4.8,26184],[4.8,26267],[4.8,26352],[4.8,26435],[4.8,26517],[4.8,26602],[4.8,26686],[4.8,26770],[4.8,26851],[4.8,26933],[4.8,27016],[4.8,27101],[4.8,27184],[4.8,27270],[4.8,27351],[4.8,27434],[4.8,27516],[4.8,27601],[4.8,27686],[4.8,27769],[4.8,27851],[4.8,27933],[4.8,28020],[4.8,28103],[4.8,28186],[4.8,28268],[4.8,28350],[4.8,28437],[4.8,28518],[4.8,28601],[4.8,28684],[5.1,28772],[7.9,28851],[10.1,28936],[10.6,29017],[10.8,29104],[11.8,29184],[13.6,29267],[14.8,29353],[15.2,29435],[15.2,29516],[15.2,29602],[15.2,29683],[15.2,29766],[15.2,29851],[15.2,29934],[15.2,30016],[15.3,30102],[15.7,30184],[16.3,30266],[16.7,30350],[17.2,30437],[17.6,30521],[17.7,30601],[17.8,30687],[17.8,30770],[17.8,30852],[17.8,30937],[17.8,31018],[17.8,31100],[17.8,31183],[17.8,31269],[17.8,31350],[17.8,31435],[17.8,31519],[17.8,31600],[17.8,31687],[17.8,31768],[17.8,31850]]",0,0,0,0,1,"Larry had recently lost his family, job and home, and was now living on his own in the park. He had most of his belongings, including some clothes, a blanket, and his mother’s special necklace. His family had been very important to him and he felt as though he did not have much going for him. One of his first days in the park he came across a family that did not have much food and looked very cold. He decided to give them some of his food and his blanket.","Larry had recently lost his family, job and home, and was now living on his own in the park. He had most of his belongings, including some clothes, a blanket, and his mother’s special necklace. His family had been very important to him and he felt as though he did not have much going for him. One of his first days in the park he came across a family that did not have much food and looked very cold. He decided to give them some of his food and his blanket.","Larry had recently lost his family, job and home, and was now living on his own in the park. He had most of his belongings, including some clothes, a blanket, and his mother’s special necklace. His family had been very important to him and he felt as though he did not have much going for him. One of his first days in the park he came across a family that did not have much food and looked very cold. He decided to give them some of his food and his blanket.","Larry had recently lost his family, job and home, and was now living on his own in the park. He had most of his belongings, including some clothes, a blanket, and his mother’s special necklace. His family had been very important to him and he felt as though he did not have much going for him. One of his first days in the park he came across a family that did not have much food and looked very cold. He decided to give them some of his food and his blanket.",,,,,,,,,,
,,,,,66553eb5f10b5700001d20de,2025-07-07_21h01.58.818,group3.4_multiperson,2023.2.2,MacIntel,59.99880002,686c2ebf0248f13bef9af11f,686c7b7b82ee3ad1c3c95969,,,,,,,,,,,,,,,,,,,,,,,,,,,,,1091.1368,1,audio/Narrative8Situation9.wav,1093.7337,space,,,,1127.2834,1130.1831,80.7047526,1.592,"[{""rating"":80.70475260416667,""responseTime"":1.5920000000000982}]",space,2.3539,,1130.1833,Partially,50,1130.2024,,,[],,,,,,,,,,,6,2,3,9,2.581,,,,,,,,,,,,,,,,1093.7339,3,1127.2832,"[[48.3,5347],[44.8,5435],[43.8,5514],[42.8,5598],[41.9,5681],[40.6,5764],[39.7,5847],[39.5,5931],[39.4,6017],[39.4,6098],[39.4,6184],[39.4,6266],[39.4,6347],[39.4,6430],[39.4,6515],[38.8,6597],[38.2,6681],[37.7,6764],[37.5,6847],[37.3,6934],[37.2,7015],[37.2,7099],[37.2,7180],[37.2,7263],[37.2,7349],[37.2,7430],[37.2,7513],[37.2,7597],[37.2,7680],[37.2,7764],[37.2,7848],[37.2,7932],[37.2,8014],[37.2,8100],[37.2,8184],[37.2,8264],[37.2,8350],[37.2,8432],[37.2,8515],[37.2,8600],[37.2,8681],[37.2,8765],[37.2,8848],[37.2,8935],[37.2,9016],[36.5,9098],[33.8,9181],[31.5,9265],[30.3,9348],[29.5,9434],[29.1,9516],[29.1,9600],[29.1,9682],[29.1,9766],[29.1,9848],[28.9,9933],[27,10014],[26,10099],[25.7,10182],[25,10266],[24.1,10349],[23.3,10434],[22.7,10516],[22.3,10601],[22,10684],[21.9,10765],[21.9,10851],[21.8,10934],[21.5,11015],[21,11102],[20.7,11186],[20.7,11266],[20.7,11350],[20.7,11433],[20.7,11515],[20.7,11599],[20.7,11683],[21.5,11764],[24.3,11851],[26,11932],[26.8,12014],[26.9,12100],[26.9,12181],[26.9,12268],[28.3,12348],[32.6,12433],[33.1,12515],[33.1,12598],[33.1,12685],[33.1,12768],[33.1,12848],[33.1,12931],[33.1,13017],[33.1,13099],[33.1,13181],[33.1,13264],[33.1,13348],[33.1,13432],[33.1,13517],[33.1,13597],[33.1,13685],[33.1,13766],[33.1,13849],[33.5,13933],[34.7,14016],[35.9,14098],[37.2,14181],[37.7,14265],[37.7,14347],[37.7,14433],[37.7,14515],[40.1,14600],[42,14682],[43.1,14770],[43.3,14847],[43.3,14932],[43.3,15017],[43.3,15099],[44.4,15183],[45.6,15265],[46.7,15351],[47.3,15433],[47.3,15515],[47.3,15597],[47.3,15684],[47.3,15765],[47.3,15847],[47.3,15933],[47.6,16015],[48.3,16099],[48.5,16185],[48.6,16265],[48.7,16349],[48.8,16432],[48.9,16514],[49,16599],[49.1,16680],[49.1,16767],[49.1,16848],[49.1,16933],[49.1,17017],[49.1,17098],[49.1,17181],[49.1,17264],[49.1,17348],[49.1,17437],[49.1,17514],[49.1,17599],[49.1,17684],[49.1,17766],[49.1,17849],[49.1,17934],[49.1,18017],[49.1,18099],[49.1,18181],[49.1,18265],[49.1,18349],[49.1,18433],[49.1,18516],[50,18599],[51.4,18681],[52.4,18765],[52.9,18848],[53,18932],[53,19017],[53,19099],[53,19184],[53,19264],[53,19350],[53,19431],[53,19515],[53,19600],[53.6,19684],[54.1,19766],[54.7,19867],[55,19948],[55.4,20033],[65.5,23369],[66.8,23452],[67.9,23533],[68,23617],[68.1,23699],[68.1,23781],[68.1,23866],[68.1,23948],[68.1,24033],[68.1,24116],[68.1,24201],[68.1,24285],[68.1,24366],[68.1,24448],[68.1,24534],[68.1,24616],[68.1,24699],[68.1,24784],[68.1,24865],[68.1,24948],[68.1,25034],[68.1,25115],[68.1,25199],[68.1,25285],[68.1,25367],[68.1,25452],[68.1,25533],[68.1,25615],[68.1,25701],[68.1,25781],[68.1,25866],[68.1,25951],[68.1,26031],[68.1,26115],[68.1,26200],[68.1,26281],[68.1,26369],[68.1,26450],[68.1,26536],[68.1,26617],[68.1,26702],[68.1,26783],[68.1,26868],[68.1,26950],[68.1,27035],[68.1,27118],[68.1,27198],[68.1,27281],[68.1,27367],[68.1,27448],[68.1,27531],[68.1,27617],[68.1,27698],[68.1,27781],[68.1,27866],[68.1,27952],[68.1,28033],[68.1,28118],[68.1,28200],[68.1,28284],[68.1,28366],[68.1,28451],[68.1,28532],[68.1,28617],[68.1,28700],[68.1,28783],[68.1,28865],[68.1,28952],[68.1,29034],[68.1,29115],[68.1,29201],[68.1,29283],[68.1,29368],[68.1,29450],[68.1,29532],[68.1,29618],[68.1,29700],[68.1,29783],[68.1,29865],[68.1,29950],[68.1,30035],[68.1,30118],[68.1,30200],[68.1,30283],[68.1,30367],[68.1,30452],[68.1,30532],[68.1,30617],[68.1,30699],[68.1,30786],[68.1,30868],[68.1,30950],[68.1,31035],[68.1,31117],[68.1,31202],[68.1,31285],[68.1,31366],[68.1,31448],[68.7,31532],[69.3,31621],[70.2,31699],[71.2,31784],[71.7,31866],[72.3,31949],[72.8,32035],[73.5,32116],[74.6,32199],[75.1,32286],[75.1,32368],[75.3,32449],[75.6,32533],[76.2,32619],[76.8,32703],[77,32782],[76.9,32866],[76.9,32951],[76.9,33033],[76.9,33115],[76.9,33200],[76.9,33286],[76.9,33367],[76.9,33451],[76.9,33533]]",0,1,1,1,1,"It was just another Sunday afternoon for Lucy, she was on her way to the farmer's market to pick up some produce. When she arrived at the old train depot that housed the market, she noticed two men fighting on the steps. Before she could call for help, one of the men crumpled to his knees. The other man dropped an object that appeared to be a knife and ran off. When Lucy approached the crime scene she realized that the man who had been murdered was the Mayor and that he had a gunshot wound.","One day at work, Margaret walked up to her partner, Al, to ask him to talk to the chief of staff at the local hospital where she worked as a nurse.","Luke always thought of himself as an honest man. That's why during his evening jog around the swamp, he pondered his recent affair with the receptionist at work. Luke looked up at the sky and asked God why he was so weak and unfaithful. He thought of the impact this would have on his family and told God of his conflicted feelings toward telling his wife Marta.","Linda and Amy had been best friends since kindergarten, they even found homes on the same street in the forest on the edge of town. Their biggest fight had been over who gets the bigger slice of cake, until Amy married Dan. Linda loathed Dan, she thought he was manipulative and had a violent temper. She only put up with him because Amy loved him. ",,,,,,,,,,
