consent.started,consent.stopped,consentResponse.keys,consentResponse.rt,consentResponse.duration,participantID,date,expName,psychopyVersion,OS,frameRate,STUDY_ID,SESSION_ID,opening1.started,opening1.stopped,keyEndingOpening1.keys,keyEndingOpening1.rt,keyEndingOpening1.duration,volumeAdjust.started,volumeAdjust.stopped,endingAdjust.keys,endingAdjust.rt,endingAdjust.duration,opening2.started,opening2.stopped,keyEndingOpening.keys,keyEndingOpening.rt,keyEndingOpening.duration,mouse.x,mouse.y,mouse.leftButton,mouse.midButton,mouse.rightButton,mouse.time,instructionLoop.thisRepN,instructionLoop.thisTrialN,instructionLoop.thisN,instructionLoop.thisIndex,instructionLoop.ran,readyForAudio.started,readyForAudio.stopped,fixation.started,run,audio_played,fixation.stopped,endPractice.keys,audioPre.started,audioPre.stopped,continuousResponses_audio,intRating.started,intRating.stopped,intQuestionSlider.response,intQuestionSlider.rt,intQuestionSlider.history,confirmResponse.keys,confirmResponse.rt,confirmResponse.duration,catchQuestion.started,catch_label,catch_value,catchQuestion.stopped,catchQuestionSlider.response,catchQuestionSlider.rt,catchQuestionSlider.history,confirmResponse_2.keys,audioRunLoop.thisRepN,audioRunLoop.thisTrialN,audioRunLoop.thisN,audioRunLoop.thisIndex,audioRunLoop.ran,conditions1_1,conditions2_1,conditions1_2,conditions2_2,dur1_1,dur2_1,dur1_2,dur2_2,endPractice.rt,endPractice.duration,confirmResponse_2.rt,confirmResponse_2.duration,runIntervalBreak.started,runIntervalBreak.stopped,endingBreakKey.keys,endingBreakKey.rt,endingBreakKey.duration,connection.started,connection.stopped,connectionEnding.keys,connectionEnding.rt,connectionEnding.duration,readyForText.started,readyForText.stopped,textPre.started,run_dup,textPre.stopped,continuousResponses_text,textRunLoop.thisRepN,textRunLoop.thisTrialN,textRunLoop.thisN,textRunLoop.thisIndex,textRunLoop.ran,text1_1,text1_2,text2_1,text2_2,runBreakText.started,runBreakText.stopped,endingBreakKey_2.keys,endingBreakKey_2.rt,endingBreakKey_2.duration,ending.started,ending.stopped,endingEnding.keys,endingEnding.rt,endingEnding.duration
0.0001,7.0233,y,6.7169,,6673188102ed2340e6e813ff,2025-07-07_23h20.18.253,group3.4_multiperson,2023.2.2,Win32,113.6363636,686c2ebf0248f13bef9af11f,686c8e5a215910a865954bf7,,,,,,,,,,,,,,,,,,,,,,,,,,,,,,,,,,,,,,,,,,,,,,,,,,,,,,,,,,,,,,,,,,,,,,,,,,,,,,,,,,,,,,,,,,,,,,,,,,,,,,,,
,,,,,6673188102ed2340e6e813ff,2025-07-07_23h20.18.253,group3.4_multiperson,2023.2.2,Win32,113.6363636,686c2ebf0248f13bef9af11f,686c8e5a215910a865954bf7,7.0234,10.9211,space,3.882,,,,,,,,,,,,,,,,,,,,,,,,,,,,,,,,,,,,,,,,,,,,,,,,,,,,,,,,,,,,,,,,,,,,,,,,,,,,,,,,,,,,,,,,,,,,,,,,,,,,
,,,,,6673188102ed2340e6e813ff,2025-07-07_23h20.18.253,group3.4_multiperson,2023.2.2,Win32,113.6363636,686c2ebf0248f13bef9af11f,686c8e5a215910a865954bf7,,,,,,10.9212,19.9288,space,8.6981,,,,,,,,,,,,,,,,,,,,,,,,,,,,,,,,,,,,,,,,,,,,,,,,,,,,,,,,,,,,,,,,,,,,,,,,,,,,,,,,,,,,,,,,,,,,,,,
,,,,,6673188102ed2340e6e813ff,2025-07-07_23h20.18.253,group3.4_multiperson,2023.2.2,Win32,113.6363636,686c2ebf0248f13bef9af11f,686c8e5a215910a865954bf7,,,,,,,,,,,19.9305,29.1593,space,9.221,,[],[],[],[],[],[],0,0,0,0,1,,,,,,,,,,,,,,,,,,,,,,,,,,,,,,,,,,,,,,,,,,,,,,,,,,,,,,,,,,,,,,,,,,,,,,,,,,,,,,
,,,,,6673188102ed2340e6e813ff,2025-07-07_23h20.18.253,group3.4_multiperson,2023.2.2,Win32,113.6363636,686c2ebf0248f13bef9af11f,686c8e5a215910a865954bf7,,,,,,,,,,,29.1595,42.1567,space,12.9571,,[],[],[],[],[],[],1,0,1,0,1,,,,,,,,,,,,,,,,,,,,,,,,,,,,,,,,,,,,,,,,,,,,,,,,,,,,,,,,,,,,,,,,,,,,,,,,,,,,,,
,,,,,6673188102ed2340e6e813ff,2025-07-07_23h20.18.253,group3.4_multiperson,2023.2.2,Win32,113.6363636,686c2ebf0248f13bef9af11f,686c8e5a215910a865954bf7,,,,,,,,,,,42.1568,48.666,space,6.4923,,[],[],[],[],[],[],2,0,2,0,1,,,,,,,,,,,,,,,,,,,,,,,,,,,,,,,,,,,,,,,,,,,,,,,,,,,,,,,,,,,,,,,,,,,,,,,,,,,,,,
,,,,,6673188102ed2340e6e813ff,2025-07-07_23h20.18.253,group3.4_multiperson,2023.2.2,Win32,113.6363636,686c2ebf0248f13bef9af11f,686c8e5a215910a865954bf7,,,,,,,,,,,48.6662,68.7615,space,20.0854,,[],[],[],[],[],[],3,0,3,0,1,,,,,,,,,,,,,,,,,,,,,,,,,,,,,,,,,,,,,,,,,,,,,,,,,,,,,,,,,,,,,,,,,,,,,,,,,,,,,,
,,,,,6673188102ed2340e6e813ff,2025-07-07_23h20.18.253,group3.4_multiperson,2023.2.2,Win32,113.6363636,686c2ebf0248f13bef9af11f,686c8e5a215910a865954bf7,,,,,,,,,,,68.7616,84.519,space,15.7507,,[],[],[],[],[],[],4,0,4,0,1,,,,,,,,,,,,,,,,,,,,,,,,,,,,,,,,,,,,,,,,,,,,,,,,,,,,,,,,,,,,,,,,,,,,,,,,,,,,,,
,,,,,6673188102ed2340e6e813ff,2025-07-07_23h20.18.253,group3.4_multiperson,2023.2.2,Win32,113.6363636,686c2ebf0248f13bef9af11f,686c8e5a215910a865954bf7,,,,,,,,,,,84.5191,91.5205,space,6.994,,[],[],[],[],[],[],5,0,5,0,1,,,,,,,,,,,,,,,,,,,,,,,,,,,,,,,,,,,,,,,,,,,,,,,,,,,,,,,,,,,,,,,,,,,,,,,,,,,,,,
,,,,,6673188102ed2340e6e813ff,2025-07-07_23h20.18.253,group3.4_multiperson,2023.2.2,Win32,113.6363636,686c2ebf0248f13bef9af11f,686c8e5a215910a865954bf7,,,,,,,,,,,,,,,,,,,,,,,,,,,91.5214,94.0981,94.1053,1,audio/Narrative13Situation2.wav,96.1101,,96.1102,125.8419,"[[54.2,6338],[60.6,6390],[68.8,6441],[73.3,6493],[75.2,6544],[82.6,6596],[88.9,6647],[91.5,6698],[94.1,6750],[96.1,6801],[97.6,6853],[97,6903],[97,6955],[97,7006],[97,7058],[97,7109],[97,7161],[97,7212],[97.3,7264],[97.9,7316],[97.9,7366],[97.9,7418],[97.9,7469],[97.9,7521],[97.9,7572],[98.1,7624],[98.7,7676],[98.9,7727],[99.1,7778],[99.1,7829],[99.3,7881],[99.4,7932],[99.5,7984],[99.8,8035],[99.8,8087],[99.8,8138],[99.8,8189],[99.8,8241],[99.8,8292],[99.8,8344],[99.8,8395],[99.8,8447],[99.8,8498],[99.8,8549],[99.8,8601],[99.8,8652],[99.8,8704],[99.8,8755],[99.8,8807],[99.8,8858],[99.8,8910],[99.8,8961],[99.8,9013],[99.8,9064],[99.8,9116],[99.8,9167],[99.8,9218],[99.8,9270],[99.8,9321],[99.8,9372],[99.8,9424],[99.8,9475],[99.8,9527],[99.8,9580],[99.8,9630],[99.8,9681],[99.8,9733],[99.8,9784],[99.8,9835],[99.8,9887],[99.8,9938],[99.8,9990],[99.8,10042],[99.8,10093],[99.8,10144],[99.8,10196],[99.8,10247],[99.8,10298],[99.8,10350],[99.8,10401],[99.8,10453],[99.8,10504],[99.8,10556],[99.8,10607],[99.8,10661],[99.8,10710],[99.8,10761],[99.8,10813],[99.8,10864],[99.8,10916],[99.8,10967],[99.8,11019],[99.8,11070],[99.8,11122],[99.8,11173],[99.8,11224],[99.8,11276],[99.8,11327],[99.8,11379],[99.8,11430],[99.8,11482],[99.8,11533],[99.8,11585],[99.8,11636],[99.8,11687],[99.8,11739],[99.8,11791],[99.8,11842],[99.8,11893],[99.8,11944],[99.8,11996],[99.8,12047],[99.8,12099],[99.8,12150],[99.8,12202],[99.8,12253],[99.8,12304],[99.8,12356],[99.8,12408],[99.8,12459],[99.8,12510],[99.8,12562],[99.8,12613],[99.8,12665],[99.8,12716],[99.8,12768],[99.8,12819],[99.8,12870],[99.8,12922],[99.8,12973],[99.8,13025],[99.8,13076],[99.8,13128],[99.8,13179],[99.8,13230],[99.8,13282],[99.8,13333],[99.8,13385],[99.8,13436],[99.8,13488],[99.8,13539],[99.8,13591],[99.8,13642],[99.8,13693],[99.8,13745],[99.8,13797],[99.8,13848],[99.8,13899],[99.8,13951],[99.8,14002],[99.8,14054],[99.8,14105],[99.8,14156],[99.8,14208],[99.8,14259],[99.8,14311],[99.8,14362],[99.8,14414],[99.8,14465],[99.8,14519],[99.8,14568],[99.8,14619],[99.8,14671],[99.8,14722],[99.8,14774],[99.8,14825],[99.8,14876],[99.8,14928],[99.8,14979],[99.8,15031],[99.8,15082],[99.8,15134],[99.8,15186],[99.8,15237],[99.8,15288],[99.8,15339],[99.8,15391],[99.8,15442],[99.8,15494],[99.8,15545],[99.8,15597],[99.8,15648],[99.8,15700],[99.8,15751],[99.8,15802],[99.8,15854],[99.8,15905],[99.8,15957],[99.8,16008],[99.8,16060],[99.8,16111],[99.8,16163],[99.8,16214],[99.8,16266],[99.8,16317],[99.8,16368],[99.8,16420],[99.8,16471],[99.8,16523],[99.8,16574],[99.8,16625],[99.8,16677],[99.8,16729],[99.8,16780],[99.8,16831],[99.8,16883],[99.8,16934],[99.8,16985],[99.8,17037],[99.8,17088],[99.8,17140],[99.8,17191],[99.8,17243],[99.8,17294],[99.8,17346],[99.8,17397],[99.8,17449],[99.8,17500],[99.8,17551],[99.8,17603],[99.8,17654],[99.8,17706],[99.8,17757],[99.8,17809],[99.8,17860],[99.8,17911],[99.8,17963],[99.8,18014],[99.8,18066],[99.8,18117],[99.8,18169],[99.8,18220],[99.8,18271],[99.8,18323],[99.8,18374],[99.8,18426],[99.8,18477],[99.8,18529],[99.8,18580],[99.8,18632],[99.8,18683],[99.8,18735],[99.8,18786],[99.8,18837],[99.8,18889],[99.8,18941],[99.8,18992],[99.8,19043],[99.8,19095],[99.8,19146],[99.8,19197],[99.8,19249],[99.8,19300],[99.8,19352],[99.8,19403],[99.8,19455],[99.8,19506],[99.8,19560],[99.8,19609],[99.8,19660],[99.8,19712],[99.8,19763],[99.8,19815],[99.8,19866],[99.8,19918],[99.8,19969],[99.8,20021],[99.8,20072],[99.8,20123],[99.8,20175],[99.8,20226],[99.8,20278],[99.8,20329],[99.8,20381],[99.8,20432],[99.8,20483],[99.8,20535],[99.8,20586],[99.8,20638],[99.8,20689],[99.8,20741],[99.8,20792],[99.8,20843],[99.8,20895],[99.8,20946],[99.8,20998],[99.8,21049],[99.8,21101],[99.8,21152],[99.8,21204],[99.8,21255],[99.8,21306],[99.8,21358],[99.8,21409],[99.8,21461],[99.8,21513],[99.8,21564],[99.8,21615],[99.8,21667],[99.8,21718],[99.8,21769],[99.8,21821],[99.8,21872],[99.8,21924],[99.8,21976],[99.8,22027],[99.8,22078],[99.8,22130],[99.8,22181],[99.8,22232],[99.8,22284],[99.8,22335],[99.8,22387],[99.8,22438],[99.8,22489],[99.8,22541],[99.8,22592],[99.8,22644],[99.8,22695],[99.8,22747],[99.8,22798],[99.8,22850],[99.8,22901],[99.8,22952],[99.8,23004],[99.8,23056],[99.8,23107],[99.8,23158],[99.8,23210],[99.8,23261],[99.8,23313],[99.8,23364],[99.8,23415],[99.8,23467],[99.8,23518],[99.8,23570],[99.8,23621],[99.8,23673],[99.8,23724],[99.8,23775],[99.8,23827],[99.8,23879],[99.8,23930],[99.8,23981],[99.8,24033],[99.8,24084],[99.8,24136],[99.8,24187],[99.8,24238],[99.8,24290],[99.8,24341],[99.8,24393],[99.8,24444],[99.8,24496],[99.8,24547],[99.8,24599],[99.8,24650],[99.8,24701],[99.8,24753],[99.8,24805],[99.8,24856],[99.8,24907],[99.8,24959],[99.8,25010],[99.8,25061],[99.8,25113],[99.8,25164],[99.8,25216],[99.8,25267],[99.8,25319],[99.8,25370],[99.8,25422],[99.8,25473],[99.8,25524],[99.8,25576],[99.8,25628],[99.8,25679],[99.8,25730],[99.8,25782],[99.8,25833],[99.8,25885],[99.8,25936],[99.8,25988],[99.8,26039],[99.8,26090],[99.8,26142],[99.8,26193],[99.8,26245],[99.8,26296],[99.8,26347],[99.8,26402],[99.8,26450],[99.8,26502],[99.8,26553],[99.8,26605],[99.8,26656],[99.8,26708],[99.8,26759],[99.8,26810],[99.8,26862],[99.8,26913],[99.8,26965],[99.8,27017],[99.8,27068],[99.8,27119],[99.8,27171],[99.8,27222],[99.8,27274],[99.8,27325],[99.8,27376],[99.8,27428],[99.8,27479],[99.8,27530],[99.8,27582],[99.8,27633],[99.8,27685],[99.8,27736],[99.8,27788],[99.8,27840],[99.8,27891],[99.8,27942],[99.8,27993],[99.8,28045],[99.8,28096],[99.8,28148],[99.8,28199],[99.8,28251],[99.8,28302],[99.8,28354],[99.8,28405],[99.8,28457],[99.8,28508],[99.8,28560],[99.8,28611],[99.8,28662],[99.8,28714],[99.8,28765],[99.8,28816],[99.8,28868],[99.8,28920],[99.8,28971],[99.8,29022],[99.8,29074],[99.8,29125],[99.8,29177],[99.8,29228],[99.8,29280],[99.8,29331],[99.8,29382],[99.8,29434],[99.8,29486],[99.8,29537],[99.8,29588],[99.8,29640],[99.8,29691]]",125.842,136.3582,99.59302326,4.0481,"[{""rating"":99.59302325581396,""responseTime"":4.048100000143052}]",space,10.0042,,136.3583,Partially,50,136.3599,,,[],,0,0,0,0,1,audio/Narrative13Situation2.wav,audio/Narrative13Situation2.wav,audio/Narrative13Situation2.wav,audio/Narrative13Situation2.wav,2,2,2,2,,,,,,,,,,,,,,,,,,,,,,,,,,,,,,,,,,,,,,,
,,,,,6673188102ed2340e6e813ff,2025-07-07_23h20.18.253,group3.4_multiperson,2023.2.2,Win32,113.6363636,686c2ebf0248f13bef9af11f,686c8e5a215910a865954bf7,,,,,,,,,,,,,,,,,,,,,,,,,,,,,136.36,1,audio/Narrative8Situation1.wav,138.2214,space,138.2214,154.1275,"[[999,0],[999,51],[999,102],[999,154],[999,206],[999,257],[999,308],[999,360],[999,411],[999,462],[999,514],[999,565],[999,617],[999,668],[999,719],[999,771],[999,823],[999,874],[999,926],[999,977],[999,1028],[999,1080],[999,1131],[999,1183],[999,1235],[999,1287],[999,1340],[999,1388],[999,1440],[999,1492],[65.1,1543],[88,1903],[96.5,1955],[100,2006],[99.1,2058],[97.7,2110],[97.4,2160],[98.4,2212],[100,2263],[100,2315],[100,2366],[100,2417],[100,2469],[100,2520],[100,2571],[100,2623],[100,2674],[100,2726],[100,2777],[100,2829],[100,2881],[100,2932],[100,2983],[100,3034],[100,3086],[100,3137],[100,3189],[100,3241],[100,3292],[100,3343],[100,3394],[100,3446],[100,3498],[100,3549],[100,3600],[100,3652],[100,3703],[100,3754],[100,3807],[100,3858],[100,3909],[100,3960],[100,4012],[100,4063],[100,4115],[100,4166],[100,4217],[100,4269],[100,4320],[100,4372],[100,4424],[100,4475],[100,4526],[100,4578],[100,4629],[100,4682],[100,4732],[100,4784],[100,4835],[100,4886],[100,4938],[100,4989],[100,5040],[100,5092],[100,5143],[100,5195],[100,5247],[100,5298],[100,5349],[100,5401],[100,5452],[100,5503],[100,5555],[100,5606],[100,5658],[100,5709],[100,5761],[100,5812],[100,5864],[100,5915],[100,5966],[100,6018],[100,6069],[100,6121],[100,6172],[100,6224],[100,6275],[100,6327],[100,6378],[100,6429],[100,6481],[100,6533],[100,6584],[100,6635],[100,6687],[100,6738],[100,6789],[100,6841],[100,6892],[100,6944],[100,6995],[100,7047],[100,7098],[100,7149],[100,7201],[100,7252],[100,7304],[100,7355],[100,7407],[100,7459],[100,7510],[100,7562],[100,7613],[100,7664],[100,7715],[100,7767],[100,7818],[100,7870],[100,7921],[100,7973],[100,8024],[100,8075],[100,8127],[100,8179],[100,8230],[100,8282],[100,8333],[100,8384],[100,8435],[100,8487],[100,8538],[100,8590],[100,8641],[100,8693],[100,8744],[100,8796],[100,8847],[100,8898],[100,8950],[100,9001],[100,9053],[100,9104],[100,9156],[100,9207],[100,9259],[100,9310],[100,9361],[100,9413],[100,9465],[100,9516],[100,9567],[100,9619],[100,9670],[100,9722],[100,9773],[100,9824],[100,9876],[100,9927],[100,9979],[100,10031],[100,10081],[100,10133],[100,10184],[100,10236],[100,10288],[100,10339],[100,10390],[100,10442],[100,10493],[100,10545],[100,10596],[100,10647],[100,10699],[100,10750],[100,10802],[100,10853],[100,10905],[100,10956],[100,11008],[100,11059],[100,11110],[100,11162],[100,11213],[100,11265],[100,11316],[100,11367],[100,11419],[100,11470],[100,11522],[100,11573],[100,11625],[100,11676],[100,11728],[100,11780],[100,11830],[100,11882],[100,11934],[100,11985],[100,12036],[100,12088],[100,12140],[100,12190],[100,12242],[100,12293],[100,12345],[100,12396],[100,12448],[100,12500],[100,12551],[100,12602],[100,12653],[100,12705],[100,12756],[100,12808],[100,12859],[100,12911],[100,12962],[100,13014],[100,13065],[100,13117],[100,13168],[100,13219],[100,13271],[100,13322],[100,13374],[100,13426],[100,13477],[100,13528],[100,13579],[100,13631],[100,13682],[100,13734],[100,13786],[100,13837],[100,13888],[100,13939],[100,13991],[100,14043],[100,14094],[100,14145],[100,14197],[100,14248],[100,14300],[100,14351],[100,14403],[100,14454],[100,14505],[100,14557],[100,14608],[100,14660],[100,14711],[100,14762],[100,14814],[100,14865],[100,14917],[100,14969],[100,15020],[100,15071],[100,15123],[100,15174],[100,15225],[100,15277],[100,15329],[100,15380],[100,15431],[100,15483],[100,15534],[100,15586],[100,15637],[100,15688],[100,15740],[100,15791],[100,15843],[100,15894]]",154.1276,157.5293,99.76744186,1.9073,"[{""rating"":99.76744186046511,""responseTime"":1.907299999952329}]",space,2.8865,,157.5293,Partially,50,157.53,,,[],,0,1,1,1,1,audio/Narrative7Situation1.wav,audio/Narrative8Situation1.wav,audio/Narrative5Situation1.wav,audio/Narrative6Situation1.wav,2,5,5,2,1.8516,,,,,,,,,,,,,,,,,,,,,,,,,,,,,,,,,,,,,,
,,,,,6673188102ed2340e6e813ff,2025-07-07_23h20.18.253,group3.4_multiperson,2023.2.2,Win32,113.6363636,686c2ebf0248f13bef9af11f,686c8e5a215910a865954bf7,,,,,,,,,,,,,,,,,,,,,,,,,,,,,157.5302,1,audio/Narrative8Situation2.wav,160.5349,,160.5349,170.6343,"[[999,0],[999,50],[999,102],[999,153],[999,205],[999,257],[999,308],[999,360],[83.4,411],[88.7,463],[88.7,514],[91.2,566],[97.6,617],[97.9,668],[98,719],[98.2,771],[98.4,823],[98.4,874],[98.4,926],[98.4,976],[98.4,1028],[98.4,1079],[98.4,1131],[98.4,1182],[98.4,1234],[98.3,1286],[99.7,1594],[99.3,1646],[99.7,1697],[99.9,1748],[100,1800],[100,1851],[100,1902],[100,1954],[100,2005],[100,2057],[100,2108],[100,2159],[100,2211],[100,2262],[100,2314],[100,2367],[100,2417],[100,2468],[100,2520],[100,2571],[100,2622],[100,2674],[100,2725],[100,2777],[100,2828],[100,2880],[100,2931],[100,2983],[100,3034],[100,3086],[100,3140],[100,3189],[100,3240],[100,3291],[100,3343],[100,3394],[100,3445],[100,3497],[100,3548],[100,3600],[100,3651],[100,3703],[100,3754],[100,3806],[100,3857],[100,3908],[100,3960],[100,4012],[100,4063],[100,4114],[100,4166],[100,4217],[100,4269],[100,4320],[100,4372],[100,4423],[100,4474],[100,4526],[100,4577],[100,4629],[100,4680],[100,4731],[100,4783],[100,4835],[100,4886],[100,4937],[100,4989],[100,5040],[100,5092],[100,5144],[100,5195],[100,5246],[100,5297],[100,5349],[100,5400],[100,5452],[100,5503],[100,5555],[100,5606],[100,5657],[100,5709],[100,5760],[100,5812],[100,5864],[100,5915],[100,5966],[100,6018],[100,6070],[100,6121],[100,6172],[100,6223],[100,6275],[100,6326],[100,6378],[100,6429],[100,6480],[100,6532],[100,6583],[100,6635],[100,6686],[100,6738],[100,6789],[100,6841],[100,6892],[100,6943],[100,6995],[100,7046],[100,7098],[100,7150],[100,7200],[100,7252],[100,7304],[100,7355],[100,7406],[100,7458],[100,7509],[100,7561],[100,7612],[100,7664],[100,7715],[100,7766],[100,7818],[100,7869],[100,7921],[100,7973],[100,8024],[100,8075],[100,8127],[100,8178],[100,8230],[100,8281],[100,8333],[100,8384],[100,8435],[100,8486],[100,8538],[100,8590],[100,8641],[100,8693],[100,8744],[100,8795],[100,8847],[100,8898],[100,8950],[100,9001],[100,9052],[100,9104],[100,9155],[100,9207],[100,9259],[100,9310],[100,9361],[100,9412],[100,9464],[100,9515],[100,9567],[100,9618],[100,9670],[100,9721],[100,9772],[100,9824],[100,9876],[100,9927],[100,9978],[97.4,10031],[86.9,10084]]",170.6344,174.3773,98.19767442,1.8417,"[{""rating"":98.19767441860465,""responseTime"":1.8417000000476662}]",space,3.2245,,174.3774,Definitely yes,100,174.379,,,[],,0,2,2,2,1,audio/Narrative7Situation2.wav,audio/Narrative8Situation2.wav,audio/Narrative5Situation2.wav,audio/Narrative6Situation2.wav,3,3,3,3,,,,,,,,,,,,,,,,,,,,,,,,,,,,,,,,,,,,,,,
,,,,,6673188102ed2340e6e813ff,2025-07-07_23h20.18.253,group3.4_multiperson,2023.2.2,Win32,113.6363636,686c2ebf0248f13bef9af11f,686c8e5a215910a865954bf7,,,,,,,,,,,,,,,,,,,,,,,,,,,,,174.3791,1,audio/Narrative8Situation3.wav,178.3839,,178.3839,200.749,"[[99.1,22125],[100,22176]]",200.749,202.7317,99.24418605,0.9758,"[{""rating"":99.24418604651163,""responseTime"":0.9757999999523008}]",space,1.4658,,202.7318,Not at all,0,202.733,,,[],,0,3,3,3,1,audio/Narrative7Situation3.wav,audio/Narrative8Situation3.wav,audio/Narrative5Situation3.wav,audio/Narrative6Situation3.wav,8,4,3,5,,,,,,,,,,,,,,,,,,,,,,,,,,,,,,,,,,,,,,,
,,,,,6673188102ed2340e6e813ff,2025-07-07_23h20.18.253,group3.4_multiperson,2023.2.2,Win32,113.6363636,686c2ebf0248f13bef9af11f,686c8e5a215910a865954bf7,,,,,,,,,,,,,,,,,,,,,,,,,,,,,202.733,1,audio/Narrative8Situation4.wav,205.7381,,205.7381,219.8953,[],219.8954,225.3877,99.47674419,4.5611,"[{""rating"":99.4767441860465,""responseTime"":4.561100000143057}]",space,4.9738,,225.3878,Partially,50,234.4251,50.11627907,6.6616,"[{""rating"":98.43023255813954,""responseTime"":4.007399999856943},{""rating"":50.116279069767444,""responseTime"":6.661599999904638}]",space,0,4,4,4,1,audio/Narrative7Situation4.wav,audio/Narrative8Situation4.wav,audio/Narrative5Situation4.wav,audio/Narrative6Situation4.wav,3,3,1,2,,,8.5288,,,,,,,,,,,,,,,,,,,,,,,,,,,,,,,,,,,,
,,,,,6673188102ed2340e6e813ff,2025-07-07_23h20.18.253,group3.4_multiperson,2023.2.2,Win32,113.6363636,686c2ebf0248f13bef9af11f,686c8e5a215910a865954bf7,,,,,,,,,,,,,,,,,,,,,,,,,,,,,234.4253,1,audio/Narrative8Situation5.wav,236.43,,236.4301,244.6547,"[[999,0],[999,51],[999,102],[999,154],[999,205],[999,257],[999,308],[999,360],[999,411],[999,462],[999,516],[999,565],[999,617],[999,668],[999,720],[999,771],[999,822],[999,874],[999,925],[999,977],[999,1028],[999,1080],[999,1131],[999,1182],[999,1234],[999,1285],[999,1337],[999,1388],[999,1440],[999,1491],[999,1543],[999,1594],[999,1646],[999,1697],[999,1748],[999,1800],[999,1851],[999,1903],[999,1954],[999,2006],[999,2057],[999,2109],[999,2160],[999,2211],[999,2263],[999,2314],[999,2366],[999,2417],[999,2468],[999,2520],[999,2571],[999,2623],[999,2674],[999,2726],[999,2777],[999,2829],[999,2880],[999,2932],[999,2984],[999,3034],[999,3086],[999,3138],[999,3189],[999,3241],[999,3292],[999,3343],[999,3394],[999,3446],[999,3497],[999,3549],[999,3600],[999,3652],[999,3703],[999,3754],[999,3806],[999,3857],[999,3909],[999,3960],[999,4012],[999,4063],[999,4115],[999,4166],[999,4218],[999,4269],[999,4321],[999,4372],[999,4423],[999,4475],[999,4526],[999,4577],[999,4629],[999,4680],[999,4732],[999,4783],[999,4836],[999,4886],[999,4938],[999,4989],[999,5040],[999,5092],[999,5143],[999,5195],[999,5246],[999,5298],[999,5349],[999,5401],[999,5452],[999,5503],[999,5555],[999,5606],[999,5658],[999,5709],[999,5760],[999,5812],[999,5864],[999,5915],[999,5966],[999,6018],[999,6070],[999,6121],[999,6172],[999,6224],[999,6275],[999,6326],[999,6378],[999,6429],[999,6481],[999,6532],[999,6584],[999,6635],[999,6687],[999,6738],[999,6789],[999,6841],[999,6892],[999,6944],[999,6995],[999,7047],[999,7098],[999,7149],[999,7201],[999,7252],[999,7304],[999,7355],[999,7407],[999,7458],[999,7510],[999,7561],[999,7612],[999,7664],[999,7715],[999,7767],[999,7818],[999,7870],[999,7921],[999,7973],[999,8024],[999,8075],[999,8127],[999,8195]]",244.6548,252.2505,98.08139535,4.3601,"[{""rating"":98.0813953488372,""responseTime"":4.3600999999046905}]",space,7.0835,,252.2505,Not at all,0,252.2516,,,[],,0,5,5,5,1,audio/Narrative7Situation5.wav,audio/Narrative8Situation5.wav,audio/Narrative5Situation5.wav,audio/Narrative6Situation5.wav,5,2,5,2,,,,,,,,,,,,,,,,,,,,,,,,,,,,,,,,,,,,,,,
,,,,,6673188102ed2340e6e813ff,2025-07-07_23h20.18.253,group3.4_multiperson,2023.2.2,Win32,113.6363636,686c2ebf0248f13bef9af11f,686c8e5a215910a865954bf7,,,,,,,,,,,,,,,,,,,,,,,,,,,,,252.2517,1,audio/Narrative8Situation6.wav,254.2566,,254.2566,260.7093,[],260.7094,264.1044,99.53488372,2.4007,"[{""rating"":99.53488372093024,""responseTime"":2.4007000000477206}]",space,2.8832,,264.1044,Not at all,0,264.1051,,,[],,0,6,6,6,1,audio/Narrative7Situation6.wav,audio/Narrative8Situation6.wav,audio/Narrative5Situation6.wav,audio/Narrative6Situation6.wav,3,2,3,2,,,,,,,,,,,,,,,,,,,,,,,,,,,,,,,,,,,,,,,
,,,,,6673188102ed2340e6e813ff,2025-07-07_23h20.18.253,group3.4_multiperson,2023.2.2,Win32,113.6363636,686c2ebf0248f13bef9af11f,686c8e5a215910a865954bf7,,,,,,,,,,,,,,,,,,,,,,,,,,,,,264.1052,1,audio/Narrative8Situation7.wav,267.1107,,267.1107,279.1759,"[[999,0],[999,51],[999,102],[999,154],[999,205],[999,257],[999,308],[999,359],[999,411],[999,462],[999,514],[999,565],[999,617],[999,668],[999,720],[999,771],[999,822],[999,874],[999,925],[999,977],[999,1028],[999,1079],[999,1131],[999,1182],[999,1234],[999,1286],[999,1337],[999,1388],[999,1440],[999,1491],[999,1543],[999,1594],[999,1646],[999,1697],[999,1748],[999,1800],[999,1851],[999,1903],[999,1954],[999,2005],[999,2057],[999,2108],[999,2160],[999,2211],[999,2263],[999,2314],[999,2365],[999,2417],[999,2468],[999,2520],[999,2571],[999,2623],[999,2674],[999,2726],[999,2778],[999,2828],[999,2880],[999,2931],[999,2983],[999,3034],[999,3086],[999,3138],[999,3189],[999,3240],[999,3291],[999,3343],[999,3394],[999,3446],[999,3497],[999,3549],[999,3600],[999,3652],[999,3703],[999,3754],[999,3806],[999,3857],[999,3909],[999,3960],[999,4012],[999,4063],[999,4115],[999,4166],[999,4217],[999,4269],[999,4320],[999,4372],[999,4423],[999,4475],[999,4526],[999,4578],[999,4629],[999,4683],[999,4732],[999,4783],[999,4835],[999,4886],[999,4938],[999,4990],[999,5040],[999,5092],[999,5143],[999,5195],[999,5247],[999,5298],[999,5349],[999,5400],[999,5452],[999,5503],[999,5555],[999,5606],[999,5658],[999,5709],[999,5760],[999,5812],[999,5864],[999,5915],[999,5967],[999,6018],[999,6069],[999,6121],[999,6172],[999,6223],[999,6275],[999,6326],[999,6378],[999,6430],[999,6481],[999,6533],[999,6584],[999,6635],[999,6687],[999,6738],[999,6789],[999,6841],[999,6892],[999,6944],[999,6995],[999,7047],[999,7098],[999,7149],[999,7201],[999,7252],[999,7304],[999,7355],[999,7407],[999,7458],[999,7509],[999,7561],[999,7612],[999,7664],[999,7715],[999,7767],[999,7819],[999,7870],[999,7921],[999,7972],[999,8024],[999,8076],[999,8127],[999,8178],[999,8230],[999,8281],[999,8332],[999,8384],[999,8436],[999,8487],[999,8538],[999,8590],[999,8641],[999,8693],[999,8744],[999,8795],[999,8847],[999,8898],[999,8950],[999,9001],[999,9053],[999,9104],[999,9156],[999,9207],[999,9259],[999,9310],[999,9361],[999,9413],[999,9464],[999,9516],[999,9567],[999,9618],[999,9670],[999,9721],[999,9773],[999,9824],[999,9876],[999,9927],[999,9979],[999,10030],[999,10081],[999,10133],[999,10184],[999,10236],[999,10288],[999,10339],[999,10390],[999,10442],[999,10493],[999,10544],[999,10596],[999,10647],[999,10699],[999,10750],[999,10802],[999,10853],[999,10905],[999,10956],[999,11007],[999,11059],[999,11110],[999,11162],[999,11213],[999,11265],[999,11316],[999,11367],[999,11419],[999,11471],[999,11522],[999,11573],[999,11625],[999,11676],[999,11728],[999,11779],[999,11830],[999,11882],[999,11933],[999,11985],[999,12036]]",279.176,282.7885,99.88372093,1.9538,"[{""rating"":99.88372093023256,""responseTime"":1.9537999999523663}]",space,3.095,,282.7885,Not at all,0,282.7892,,,[],,0,7,7,7,1,audio/Narrative7Situation7.wav,audio/Narrative8Situation7.wav,audio/Narrative5Situation7.wav,audio/Narrative6Situation7.wav,5,3,4,5,,,,,,,,,,,,,,,,,,,,,,,,,,,,,,,,,,,,,,,
,,,,,6673188102ed2340e6e813ff,2025-07-07_23h20.18.253,group3.4_multiperson,2023.2.2,Win32,113.6363636,686c2ebf0248f13bef9af11f,686c8e5a215910a865954bf7,,,,,,,,,,,,,,,,,,,,,,,,,,,,,282.7894,1,audio/Narrative8Situation8.wav,285.7945,,285.7945,298.632,"[[71.6,12190],[71.6,12242],[71.6,12293],[71.6,12345],[71.6,12396],[71.6,12448],[71.6,12499],[71.6,12550],[72.2,12603],[77.2,12654],[86.2,12706],[93.7,12757]]",298.632,301.2322,99.70930233,1.3237,"[{""rating"":99.70930232558139,""responseTime"":1.3237000000476655}]",space,2.0876,,301.2322,Partially,50,301.2332,,,[],,0,8,8,8,1,audio/Narrative7Situation8.wav,audio/Narrative8Situation8.wav,audio/Narrative5Situation8.wav,audio/Narrative6Situation8.wav,2,3,3,5,,,,,,,,,,,,,,,,,,,,,,,,,,,,,,,,,,,,,,,
,,,,,6673188102ed2340e6e813ff,2025-07-07_23h20.18.253,group3.4_multiperson,2023.2.2,Win32,113.6363636,686c2ebf0248f13bef9af11f,686c8e5a215910a865954bf7,,,,,,,,,,,,,,,,,,,,,,,,,,,,,301.2333,1,audio/Narrative8Situation9.wav,304.2335,,304.2335,315.532,[],315.532,317.8811,99.36046512,1.2182,"[{""rating"":99.36046511627907,""responseTime"":1.2182000000476592}]",space,1.833,,317.8811,Definitely yes,100,317.882,,,[],,0,9,9,9,1,audio/Narrative7Situation9.wav,audio/Narrative8Situation9.wav,audio/Narrative5Situation9.wav,audio/Narrative6Situation9.wav,2,3,3,4,,,,,,,,,,,,,,,,,,,,,,,,,,,,,,,,,,,,,,,
,,,,,6673188102ed2340e6e813ff,2025-07-07_23h20.18.253,group3.4_multiperson,2023.2.2,Win32,113.6363636,686c2ebf0248f13bef9af11f,686c8e5a215910a865954bf7,,,,,,,,,,,,,,,,,,,,,,,,,,,,,317.8821,1,audio/Narrative7Situation1.wav,319.8871,,319.8871,375.7557,"[[100,38425],[100,38476],[100,38528],[100,38581],[100,38631],[100,38682],[99.4,38734],[99,38786],[99,38836],[99.4,38888],[100,38939],[100,38990],[100,39042],[100,39093],[100,39145],[100,39196],[100,39247],[100,39299],[100,39350],[100,39402],[100,39453],[100,39505],[100,39556],[100,39608],[100,39659],[100,39711],[100,39762],[100,39813],[100,39865],[100,39917],[100,39968],[100,40019],[100,40071],[100,40122],[100,40173],[100,40225],[100,40277],[100,40328],[100,40379],[100,40431],[100,40482],[100,40533],[100,40585],[100,40636],[100,40688],[100,40740],[100,40791],[100,40842],[100,40894],[100,40945],[100,40996],[100,41048],[100,41099],[100,41151],[100,41202],[100,41254],[100,41305],[100,41357],[100,41408],[100,41460],[100,41511],[100,41562],[100,41614],[100,41665],[100,41717],[100,41768],[100,41819],[100,41871],[100,41923],[100,41974],[100,42025],[100,42077],[100,42128],[100,42180],[100,42231],[100,42283],[100,42334],[100,42385],[100,42437],[100,42488],[100,42540],[100,42591],[100,42643],[100,42694],[100,42745],[100,42797],[100,42849],[100,42900],[100,42951],[100,43002],[100,43054],[100,43105],[100,43157],[100,43209],[100,43260],[100,43311],[100,43363],[100,43414],[100,43466],[100,43517],[100,43568],[100,43620],[100,43671],[100,43723],[100,43774],[100,43826],[100,43877],[100,43928],[100,43980],[100,44031],[100,44083],[100,44134],[100,44186],[100,44237],[100,44288],[100,44340],[100,44391],[100,44443],[100,44494],[100,44546],[100,44597],[100,44649],[100,44700],[100,44752],[100,44803],[100,44854],[100,44906],[100,44957],[100,45009],[100,45060],[100,45112],[100,45163],[100,45214],[100,45266],[100,45317],[100,45369],[100,45421],[100,45472],[100,45525],[100,45574],[100,45626],[100,45678],[100,45729],[100,45780],[100,45832],[100,45884],[100,45935],[100,45986],[100,46037],[100,46089],[100,46140],[100,46192],[100,46244],[100,46295],[100,46346],[100,46398],[100,46449],[100,46501],[100,46552],[100,46603],[100,46655],[100,46706],[100,46758],[100,46809],[100,46860],[100,46912],[100,46963],[100,47015],[100,47066],[100,47118],[100,47169],[100,47221],[100,47272],[100,47323],[100,47375],[100,47426],[100,47478],[100,47529],[100,47581],[100,47632],[100,47684],[100,47735],[100,47786],[100,47838],[100,47890],[100,47941],[100,47992],[100,48044],[100,48095],[100,48147],[100,48198],[100,48249],[100,48301],[100,48352],[100,48404],[100,48456],[100,48507],[100,48558],[100,48610],[100,48661],[100,48712],[100,48764],[100,48815],[100,48867],[100,48918],[100,48970],[100,49021],[100,49072],[100,49124],[100,49175],[100,49227],[100,49278],[100,49330],[100,49381],[100,49432],[100,49484],[100,49535],[100,49587],[100,49638],[100,49690],[100,49741],[100,49793],[100,49844],[100,49895],[100,49947],[100,49998],[100,50050],[100,50101],[100,50153],[100,50204],[100,50255],[100,50307],[100,50358],[100,50410],[100,50461],[100,50513],[100,50564],[100,50616],[100,50667],[100,50718],[100,50770],[100,50821],[100,50873],[100,50924],[100,50976],[100,51027],[100,51079],[100,51130],[100,51181],[100,51233],[100,51284],[100,51336],[100,51387],[100,51439],[100,51490],[100,51541],[100,51593],[100,51644],[100,51696],[100,51747],[100,51799],[100,51851],[100,51901],[100,51953],[100,52004],[100,52057],[100,52108],[100,52159],[100,52210],[100,52262],[100,52313],[100,52365],[100,52416],[100,52467],[100,52519],[100,52570],[100,52622],[100,52674],[100,52725],[100,52776],[100,52827],[100,52879],[100,52930],[100,52983],[100,53033],[100,53085],[100,53136],[100,53187],[100,53239],[100,53290],[100,53342],[100,53393],[100,53445],[100,53496],[100,53548],[100,53599],[100,53653],[100,53702],[100,53753],[100,53805],[100,53857],[100,53908],[100,53959],[100,54011],[100,54062],[100,54113],[100,54165],[100,54216],[100,54268],[100,54319],[100,54371],[100,54422],[100,54473],[100,54525],[100,54577],[100,54628],[100,54679],[100,54731],[100,54782],[100,54834],[100,54885],[100,54937],[100,54988],[100,55039],[100,55091],[100,55142],[100,55194],[100,55245],[100,55297],[100,55348],[100,55399],[100,55451],[100,55502],[100,55556],[100,55605],[100,55657],[100,55708],[100,55760],[100,55811],[100,55863]]",375.7558,384.4722,99.88372093,1.929,"[{""rating"":99.88372093023256,""responseTime"":1.9289999999999736}]",space,8.2044,,384.4722,Not at all,0,384.4733,,,[],,0,10,10,10,1,audio/Narrative8Situation1.wav,audio/Narrative7Situation1.wav,audio/Narrative6Situation1.wav,audio/Narrative5Situation1.wav,5,2,2,5,,,,,,,,,,,,,,,,,,,,,,,,,,,,,,,,,,,,,,,
,,,,,6673188102ed2340e6e813ff,2025-07-07_23h20.18.253,group3.4_multiperson,2023.2.2,Win32,113.6363636,686c2ebf0248f13bef9af11f,686c8e5a215910a865954bf7,,,,,,,,,,,,,,,,,,,,,,,,,,,,,384.4734,1,audio/Narrative7Situation2.wav,387.4786,,387.4786,394.9367,[],394.9368,399.309,75.98837209,3.6491,"[{""rating"":99.4186046511628,""responseTime"":1.5454999999999472},{""rating"":89.18604651162792,""responseTime"":2.4429999999999836},{""rating"":75.98837209302324,""responseTime"":3.6490999999045926}]",space,3.8573,,399.309,Partially,50,399.31,,,[],,0,11,11,11,1,audio/Narrative8Situation2.wav,audio/Narrative7Situation2.wav,audio/Narrative6Situation2.wav,audio/Narrative5Situation2.wav,3,3,3,3,,,,,,,,,,,,,,,,,,,,,,,,,,,,,,,,,,,,,,,
,,,,,6673188102ed2340e6e813ff,2025-07-07_23h20.18.253,group3.4_multiperson,2023.2.2,Win32,113.6363636,686c2ebf0248f13bef9af11f,686c8e5a215910a865954bf7,,,,,,,,,,,,,,,,,,,,,,,,,,,,,399.3101,1,audio/Narrative7Situation3.wav,407.3107,,407.3108,416.5469,[],416.547,421.297,73.43023256,2.4981,"[{""rating"":73.43023255813954,""responseTime"":2.498099999904639}]",space,4.2371,,421.297,Partially,50,421.2976,,,[],,0,12,12,12,1,audio/Narrative8Situation3.wav,audio/Narrative7Situation3.wav,audio/Narrative6Situation3.wav,audio/Narrative5Situation3.wav,4,8,5,3,,,,,,,,,,,,,,,,,,,,,,,,,,,,,,,,,,,,,,,
,,,,,6673188102ed2340e6e813ff,2025-07-07_23h20.18.253,group3.4_multiperson,2023.2.2,Win32,113.6363636,686c2ebf0248f13bef9af11f,686c8e5a215910a865954bf7,,,,,,,,,,,,,,,,,,,,,,,,,,,,,421.2977,1,audio/Narrative7Situation4.wav,424.3028,,424.3028,436.0085,[],436.0085,442.1693,0.290697674,1.4715,"[{""rating"":0.29069767441860517,""responseTime"":1.4714999999999918}]",space,5.6496,,442.1693,Partially,50,442.17,,,[],,0,13,13,13,1,audio/Narrative8Situation4.wav,audio/Narrative7Situation4.wav,audio/Narrative6Situation4.wav,audio/Narrative5Situation4.wav,3,3,2,1,,,,,,,,,,,,,,,,,,,,,,,,,,,,,,,,,,,,,,,
,,,,,6673188102ed2340e6e813ff,2025-07-07_23h20.18.253,group3.4_multiperson,2023.2.2,Win32,113.6363636,686c2ebf0248f13bef9af11f,686c8e5a215910a865954bf7,,,,,,,,,,,,,,,,,,,,,,,,,,,,,442.1701,1,audio/Narrative7Situation5.wav,447.1708,,447.1708,455.6348,[],455.6349,497.4381,50.05813953,2.5658,"[{""rating"":50.058139534883715,""responseTime"":2.565800000190734}]",space,41.2875,,497.4381,Definitely yes,100,497.4392,,,[],,0,14,14,14,1,audio/Narrative8Situation5.wav,audio/Narrative7Situation5.wav,audio/Narrative6Situation5.wav,audio/Narrative5Situation5.wav,2,5,2,5,,,,,,,,,,,,,,,,,,,,,,,,,,,,,,,,,,,,,,,
,,,,,6673188102ed2340e6e813ff,2025-07-07_23h20.18.253,group3.4_multiperson,2023.2.2,Win32,113.6363636,686c2ebf0248f13bef9af11f,686c8e5a215910a865954bf7,,,,,,,,,,,,,,,,,,,,,,,,,,,,,497.4392,1,audio/Narrative7Situation6.wav,500.444,,500.444,510.4003,[],510.4004,515.1671,100,3.0066,"[{""rating"":99.01162790697676,""responseTime"":2.191000000000031},{""rating"":100,""responseTime"":3.0066000001430666}]",space,4.2495,,515.1671,Definitely yes,100,515.1678,,,[],,0,15,15,15,1,audio/Narrative8Situation6.wav,audio/Narrative7Situation6.wav,audio/Narrative6Situation6.wav,audio/Narrative5Situation6.wav,2,3,2,3,,,,,,,,,,,,,,,,,,,,,,,,,,,,,,,,,,,,,,,
,,,,,6673188102ed2340e6e813ff,2025-07-07_23h20.18.253,group3.4_multiperson,2023.2.2,Win32,113.6363636,686c2ebf0248f13bef9af11f,686c8e5a215910a865954bf7,,,,,,,,,,,,,,,,,,,,,,,,,,,,,515.1679,1,audio/Narrative7Situation7.wav,520.1681,,520.1681,537.3201,"[[999,0],[999,51],[999,103],[999,156],[999,205],[999,257],[999,308],[999,360],[999,412],[999,463],[999,514],[999,565],[999,617],[999,668],[999,720],[999,771],[999,822],[999,874],[999,926],[999,977],[999,1028],[999,1080],[999,1131],[999,1182],[999,1234],[999,1285],[999,1337],[999,1388],[999,1440],[999,1491],[999,1543],[999,1594],[999,1645],[999,1697],[999,1748],[999,1800],[999,1852],[999,1903],[999,1954],[999,2006],[999,2057],[999,2108],[999,2160],[999,2211],[999,2263],[999,2314],[999,2366],[999,2417],[999,2468],[999,2520],[999,2572],[999,2623],[999,2674],[100,2726],[100,2778],[100,2829],[100,2880],[100,2931],[100,2983],[100,3034],[100,3086],[100,3138],[100,3189],[100,3240],[100,3291],[100,3343],[100,3394],[100,3446],[100,3498],[100,3549],[100,3600],[100,3652],[100,3703],[100,3755],[100,3806],[100,3857],[100,3909],[100,3960],[100,4012],[100,4063],[100,4115],[100,4166],[100,4217],[100,4269],[100,4321],[100,4372],[100,4424],[100,4475],[100,4526],[100,4577],[100,4629],[100,4681],[100,4732],[100,4784],[100,4835],[100,4886],[100,4938],[100,4989],[100,5040],[100,5092],[100,5143],[100,5195],[100,5246],[100,5298],[100,5349],[100,5401],[100,5452],[100,5503],[100,5555],[100,5607],[100,5658],[100,5710],[100,5760],[100,5812],[100,5863],[100,5915],[100,5967],[100,6018],[100,6069],[100,6121],[100,6172],[100,6224],[100,6275],[100,6327],[100,6378],[100,6429],[100,6481],[100,6533],[100,6584],[100,6635],[100,6686],[100,6738],[100,6789],[100,6841],[100,6892],[100,6944],[100,6995],[100,7046],[100,7098],[100,7149],[100,7201],[100,7252],[100,7304],[100,7355],[100,7407],[100,7458],[100,7510],[100,7561],[100,7612],[100,7664],[100,7716],[100,7767],[100,7818],[100,7870],[100,7921],[100,7972],[100,8024],[100,8075],[100,8127],[100,8179],[100,8230],[100,8281],[100,8332],[100,8384],[100,8435],[100,8487],[100,8538],[100,8590],[100,8641],[100,8693],[100,8745],[100,8796],[100,8847],[100,8898],[100,8950],[100,9002],[100,9053],[100,9104],[100,9155],[100,9207],[100,9259],[100,9310],[100,9362],[100,9413],[100,9464],[100,9516],[100,9567],[100,9618],[100,9670],[100,9721],[100,9773],[100,9824],[100,9876],[100,9928],[100,9979],[100,10030],[100,10081],[100,10133],[100,10184],[100,10236],[100,10288],[100,10339],[100,10390],[100,10442],[100,10493],[100,10544],[100,10596],[100,10647],[100,10699],[100,10750],[100,10802],[100,10853],[100,10904],[100,10956],[100,11009],[100,11059],[100,11110],[100,11162],[100,11213],[100,11265],[100,11316],[100,11367],[100,11420],[100,11470],[100,11522],[100,11573],[100,11625],[100,11676],[100,11727],[100,11779],[100,11830],[100,11882],[100,11933],[100,11985],[100,12036],[100,12088],[100,12139],[100,12191],[100,12242],[100,12293],[100,12345],[100,12396],[100,12448],[100,12499],[100,12550],[100,12602],[100,12653],[100,12705],[100,12757],[100,12808],[100,12859],[100,12911],[100,12962],[100,13013],[100,13065],[100,13116],[100,13168],[100,13219],[100,13271],[100,13322],[100,13374],[100,13425],[100,13477],[100,13528],[100,13580],[100,13631],[100,13682],[100,13734],[100,13785],[100,13836],[100,13888],[100,13939],[100,13991],[100,14043],[100,14094],[100,14145],[100,14197],[100,14248],[100,14300],[100,14351],[100,14403],[100,14454],[100,14505],[100,14557],[100,14608],[100,14660],[100,14711],[100,14762],[100,14814],[100,14866],[100,14917],[100,14969],[100,15020],[100,15071],[100,15122],[100,15174],[100,15226],[100,15277],[100,15329],[100,15380],[100,15431],[100,15483],[100,15534],[100,15586],[100,15637],[100,15688],[100,15740],[100,15791],[100,15843],[100,15894],[100,15945],[100,15997],[100,16049],[100,16101],[100,16151],[100,16203],[100,16255],[100,16306],[100,16357],[100,16408],[100,16460],[100,16512],[100,16563],[100,16614],[100,16666],[100,16717],[100,16769],[100,16820],[100,16872],[100,16923],[100,16974],[100,17026],[100,17077],[100,17129]]",537.3202,545.2876,100,4.3116,"[{""rating"":98.25581395348837,""responseTime"":3.7437999999522162},{""rating"":100,""responseTime"":4.311600000143017}]",space,7.4553,,545.2876,Partially,50,545.2885,,,[],,0,16,16,16,1,audio/Narrative8Situation7.wav,audio/Narrative7Situation7.wav,audio/Narrative6Situation7.wav,audio/Narrative5Situation7.wav,3,5,5,4,,,,,,,,,,,,,,,,,,,,,,,,,,,,,,,,,,,,,,,
,,,,,6673188102ed2340e6e813ff,2025-07-07_23h20.18.253,group3.4_multiperson,2023.2.2,Win32,113.6363636,686c2ebf0248f13bef9af11f,686c8e5a215910a865954bf7,,,,,,,,,,,,,,,,,,,,,,,,,,,,,545.2887,1,audio/Narrative7Situation8.wav,547.2936,,547.2936,557.2956,[],557.2956,560.9482,99.53488372,2.9266,"[{""rating"":99.53488372093024,""responseTime"":2.9265999999046244}]",space,3.14,,560.9482,Partially,50,560.9487,,,[],,0,17,17,17,1,audio/Narrative8Situation8.wav,audio/Narrative7Situation8.wav,audio/Narrative6Situation8.wav,audio/Narrative5Situation8.wav,3,2,5,3,,,,,,,,,,,,,,,,,,,,,,,,,,,,,,,,,,,,,,,
,,,,,6673188102ed2340e6e813ff,2025-07-07_23h20.18.253,group3.4_multiperson,2023.2.2,Win32,113.6363636,686c2ebf0248f13bef9af11f,686c8e5a215910a865954bf7,,,,,,,,,,,,,,,,,,,,,,,,,,,,,560.9488,1,audio/Narrative7Situation9.wav,562.954,,562.954,571.5614,[],571.5615,574.4478,99.76744186,1.8542,"[{""rating"":99.76744186046511,""responseTime"":1.85420000004774}]",space,2.3765,,574.4478,Partially,50,574.4484,,,[],,0,18,18,18,1,audio/Narrative8Situation9.wav,audio/Narrative7Situation9.wav,audio/Narrative6Situation9.wav,audio/Narrative5Situation9.wav,3,2,4,3,,,,,,,,,,,,,,,,,,,,,,,,,,,,,,,,,,,,,,,
,,,,,6673188102ed2340e6e813ff,2025-07-07_23h20.18.253,group3.4_multiperson,2023.2.2,Win32,113.6363636,686c2ebf0248f13bef9af11f,686c8e5a215910a865954bf7,,,,,,,,,,,,,,,,,,,,,,,,,,,584.7872,587.3646,587.3695,2,audio/Narrative13Situation2.wav,587.3696,,587.3696,617.1021,"[[92.8,25715],[94.9,25766],[98.5,25818],[99.2,25868],[99.2,25920],[99.2,25971],[99.2,26023],[99.2,26074],[99.2,26126],[99.2,26177],[99.2,26229],[99.2,26280],[99.2,26331],[99.2,26383],[99.2,26434],[99.2,26486],[98.4,26537],[96.3,26589],[95.6,26641],[90.6,26692],[79.7,26743],[74.9,26795],[74.9,26846],[75,26897],[75.2,26949],[75.2,27000],[75.4,27052],[75.5,27103],[75.5,27154],[75.5,27206],[75.5,27257],[75.5,27309],[75.5,27361],[75.5,27412],[75.5,27463],[75.5,27514],[75.5,27566],[75.5,27617],[75.5,27669],[75.5,27720],[75.5,27772],[75.5,27823],[80,27875],[85.9,27927],[90.9,27979],[95.8,28030],[100,28081],[100,28132],[100,28184],[100,28235],[100,28286],[100,28338],[100,28389],[100,28441],[100,28492],[100,28543],[100,28595],[100,28647],[100,28698],[100,28749],[99.3,28801],[99.3,28852],[98.8,28904],[98.7,28955],[98.7,29006],[98.7,29058],[98.7,29109],[98.7,29161],[98.7,29212],[98.7,29264],[98.7,29315],[98.7,29369],[98.7,29418],[98.7,29469],[98.7,29522],[98.7,29572],[98.7,29623],[98.7,29675],[98.7,29727]]",617.1022,617.1028,,,[],,,,617.1028,Definitely yes,100,617.1035,,,[],,0,0,0,0,1,audio/Narrative13Situation2.wav,audio/Narrative13Situation2.wav,audio/Narrative13Situation2.wav,audio/Narrative13Situation2.wav,2,2,2,2,,,,,574.4486,584.7871,space,9.8309,,,,,,,,,,,,,,,,,,,,,,,,,,,,,,,
,,,,,6673188102ed2340e6e813ff,2025-07-07_23h20.18.253,group3.4_multiperson,2023.2.2,Win32,113.6363636,686c2ebf0248f13bef9af11f,686c8e5a215910a865954bf7,,,,,,,,,,,,,,,,,,,,,,,,,,,,,617.1036,2,audio/Narrative6Situation1.wav,619.1083,,619.1083,645.6742,"[[100,874],[100,926],[100,977],[100,1028],[100,1080],[100,1131],[100,1182],[100,1234],[100,1285],[100,1338],[100,1388],[100,1440],[100,1492],[100,1543],[100,1594],[100,1645],[100,1697],[100,1749],[100,1800],[100,1851],[100,1903],[100,1954],[100,2005],[100,2057],[100,2108],[100,2160],[100,2212],[100,2263],[100,2315],[100,2366],[100,2417],[100,2468],[100,2520],[100,2572],[100,2623],[100,2674],[100,2726],[100,2777],[100,2829],[100,2880],[100,2931],[100,2983],[100,3034],[100,3086],[100,3138],[100,3189],[100,3240],[100,3292],[98.2,3344],[91.2,3395],[83,3447],[78.1,3498],[76.9,3549],[76.5,3600],[75.8,3652],[73.6,3704],[69.9,3755],[67.3,3807],[65.8,3858],[63.8,3909],[60.2,3961],[57.2,4012],[55.8,4064],[55.3,4115],[54.8,4166],[53.5,4218],[51,4269],[50.9,4887],[50.8,4938],[49.3,4990],[46.2,5041],[41.2,5092],[36.5,5144],[35.3,5195],[35.3,5246],[35.3,5298],[35.3,5350],[35.3,5401],[35.6,5452],[35.6,5503],[35.6,5555],[35.6,5606],[35.8,5659],[35.9,5709],[36.4,5761],[37.3,5813],[37.6,5864],[37.7,5915],[37.7,5967],[37.7,6018],[37.7,6069],[37.7,6121],[37.3,6173],[36.9,6224],[36.7,6275],[36.7,6326],[36.7,6378],[36.7,6429],[36.7,6481],[36.7,6532],[36.7,6584],[36.7,6635],[36.7,6687],[36.7,6738],[36.7,6789],[36.7,6841],[36.7,6892],[36.7,6944],[36.7,6995],[36.7,7047],[36.7,7098],[36.7,7150],[36.7,7201],[36.7,7252],[36.7,7304],[36.7,7355],[36.7,7407],[36.7,7458],[36.7,7509],[36.7,7561],[36.7,7613],[36.7,7664],[36.7,7715],[36.7,7767],[36.7,7818],[36.7,7870],[36.7,7924],[36.7,7972],[36.7,8024],[36.7,8075],[36.7,8127],[36.7,8179],[36.7,8230],[36.7,8281],[36.7,8332],[36.7,8384],[38,8436],[40,8487],[43.8,8539],[46.9,8590],[51.5,8642],[57.3,8693],[62.6,8746],[65.8,8796],[67.1,8847],[68.1,8899],[68.5,8951],[69.7,9004],[70.1,9053],[70.1,9105],[70.1,9156],[70.1,9207],[70.1,9259],[70.1,9310],[70.1,9362],[70.1,9413],[70.1,9464],[70.1,9516],[70.1,9567],[70.1,9619],[70.1,9670],[70.1,9722],[70.1,9773],[70.1,9824],[70.1,9876],[70.1,9927],[70.1,9979],[70.1,10030],[70.1,10081],[70.1,10133],[70.1,10184],[70.1,10236],[70.1,10287],[70.1,10339],[70.1,10390],[70.1,10442],[70.1,10493],[70.1,10544],[70.1,10596],[70.1,10647],[70.1,10699],[70.1,10750],[70.3,10802],[72.8,10854],[74,10905],[75.3,10957],[77,11008],[79.5,11059],[82.2,11111],[83.7,11162],[84.2,11214],[85.2,11265],[85.9,11317],[86.7,11368],[87.2,11419],[87.2,11470],[87.2,11522],[87.2,11573],[87.2,11625],[87.2,11676],[87.2,11727],[87.2,11779],[87.2,11830],[87.2,11882],[87.2,11933],[87.2,11985],[87.2,12036],[87.2,12088],[87.2,12139],[87.2,12191],[87.2,12242],[87.2,12293],[87.2,12345],[87.2,12396],[87.2,12448],[87.2,12499],[87.2,12551],[87.2,12602],[90.3,12654],[93.6,12705],[95,12758],[95.9,12808],[95.2,13837],[94.5,13889],[93.8,13940],[93.8,13991],[93.8,14042],[93.8,14094],[93.8,14145],[93.8,14197],[93.8,14248],[93.8,14300],[93.8,14351],[93.8,14403],[93.8,14454],[93.8,14505],[93.8,14557],[93.8,14610],[93.8,14660],[93.8,14711],[93.8,14763],[93.8,14814],[93.8,14865],[93.8,14917],[93.8,14968],[93.8,15020],[93.8,15071],[93.8,15123],[93.8,15174],[93.8,15225],[93.8,15277],[93.8,15328],[93.8,15380],[93.8,15431],[93.8,15483],[93.8,15534],[93.8,15586],[93.8,15637],[93.8,15688],[93.8,15740],[93.8,15791],[93.8,15843],[93.8,15894],[93.8,15946],[93.8,15997],[93.8,16048],[93.8,16100],[93.8,16152],[93.8,16203],[93.8,16254],[93.8,16306],[93.8,16357],[93.8,16409],[93.8,16460],[93.8,16511],[93.8,16563],[93.8,16614],[93.8,16666],[93.8,16717],[93.8,16770],[93.8,16820],[93.8,16871],[93.8,16923],[93.8,16974],[93.8,17026],[93.8,17077],[93.8,17129],[93.8,17180],[93.8,17231],[93.8,17283],[93.8,17334],[93.8,17386],[93.8,17437],[93.8,17489],[93.8,17540],[93.8,17592],[93.8,17643],[93.8,17695],[93.8,17746],[93.8,17798],[93.8,17849],[93.8,17900],[93.8,17952],[93.8,18003],[93.8,18054],[93.8,18106],[93.8,18158],[93.8,18209],[93.8,18260],[93.8,18312],[93.8,18363],[93.8,18415],[93.8,18466],[93.8,18518],[93.8,18569],[93.8,18620],[93.8,18672],[93.8,18724],[93.8,18775],[93.8,18826],[93.8,18878],[93.8,18929],[93.8,18980],[93.8,19032],[93.8,19084],[93.8,19135],[93.8,19186],[93.8,19238],[93.8,19289],[93.8,19341],[93.8,19392],[93.8,19443],[93.8,19495],[93.8,19546],[93.8,19598],[93.8,19649],[93.8,19701],[93.8,19752],[93.8,19803],[93.8,19855],[93.8,19906],[93.8,19958],[93.8,20009],[93.8,20061],[93.8,20112],[93.8,20163],[93.8,20215],[93.8,20266],[93.8,20318],[93.8,20369],[93.8,20421],[93.8,20472],[93.8,20524],[93.8,20575],[93.8,20626],[93.8,20678],[93.8,20729],[93.8,20781],[93.8,20832],[93.8,20884],[93.8,20935],[93.8,20987],[93.8,21038],[93.8,21090],[93.8,21141],[93.8,21193],[93.8,21244],[93.8,21295],[93.8,21347],[93.8,21399],[93.8,21450],[93.8,21501],[93.8,21552],[93.8,21604],[93.8,21655],[93.8,21707],[93.8,21758],[93.8,21810],[93.8,21861],[93.8,21913],[93.8,21964],[93.8,22015],[93.8,22067],[93.8,22118],[93.8,22170],[93.8,22221],[93.8,22273],[93.8,22324],[93.8,22375],[93.8,22427],[93.8,22478],[93.8,22530],[93.8,22581],[93.8,22633],[93.8,22684],[93.8,22735],[93.8,22787],[93.8,22838],[93.8,22890],[93.8,22941],[93.8,22993],[93.8,23044],[93.8,23096],[93.8,23147],[93.8,23198],[93.8,23250],[93.8,23301],[93.8,23353],[93.8,23404],[93.8,23456],[93.8,23508],[93.8,23559],[93.8,23610],[93.8,23661],[93.8,23713],[93.8,23764],[93.8,23816],[93.8,23867],[93.8,23919],[93.8,23971],[93.8,24022],[93.8,24073],[93.8,24124],[93.8,24178],[93.8,24227],[93.8,24279],[93.8,24330],[93.8,24382],[93.8,24433],[93.8,24485],[93.8,24536],[93.8,24588],[93.8,24639],[93.8,24690],[93.8,24742],[93.8,24793],[93.8,24845],[93.8,24896],[93.8,24948],[93.8,24999],[93.8,25050],[93.8,25102],[93.8,25153],[93.8,25205],[94.3,25256],[98,25308],[99.9,25360],[100,25412],[100,25462],[100,25513],[100,25565],[100,25616],[100,25668],[100,25719],[100,25770],[100,25822],[100,25873],[100,25925],[100,25976],[100,26028],[100,26079],[100,26130],[100,26182],[100,26233],[100,26285],[100,26336],[100,26388],[100,26439],[100,26491],[100,26542]]",645.6743,649.5545,99.65116279,1.6012,"[{""rating"":99.65116279069768,""responseTime"":1.6012000000476974}]",space,3.365,,649.5545,Definitely yes,100,649.5552,,,[],,0,1,1,1,1,audio/Narrative7Situation1.wav,audio/Narrative8Situation1.wav,audio/Narrative5Situation1.wav,audio/Narrative6Situation1.wav,2,5,5,2,,,,,,,,,,,,,,,,,,,,,,,,,,,,,,,,,,,,,,,
,,,,,6673188102ed2340e6e813ff,2025-07-07_23h20.18.253,group3.4_multiperson,2023.2.2,Win32,113.6363636,686c2ebf0248f13bef9af11f,686c8e5a215910a865954bf7,,,,,,,,,,,,,,,,,,,,,,,,,,,,,649.5553,2,audio/Narrative6Situation2.wav,652.5609,,652.5609,681.041,"[[100,8899],[100,8950],[100,9002],[100,9053],[100,9105],[100,9156],[100,9208],[100,9259],[99.8,9310],[99.8,9361],[98.8,9413],[97.7,9464],[97.7,9516],[97.7,9567],[100,9619],[100,9671],[100,9721],[100,9773],[100,9824],[100,9876],[100,9927],[100,9979],[100,10030],[100,10082],[100,10133],[100,10184],[100,10236],[100,10287],[100,10339],[100,10390],[100,10442],[100,10493],[100,10544],[100,10596],[100,10648],[100,10699],[100,10750],[100,10802],[100,10853],[100,10905],[100,10956],[100,11007],[100,11059],[100,11110],[100,11162],[100,11213],[100,11265],[100,11316],[100,11367],[100,11419],[100,11471],[100,11522],[100,11573],[100,11625],[100,11676],[100,11728],[100,11779],[100,11830],[100,11882],[100,11934],[100,11985],[100,12036],[100,12088],[100,12139],[100,12191],[100,12242],[100,12293],[100,12345],[100,12397],[100,12448],[100,12500],[100,12551],[100,12602],[100,12653],[100,12705],[100,12756],[100,12808],[100,12860],[100,12911],[100,12962],[100,13014],[100,13065],[100,13116],[100,13168],[100,13219],[100,13271],[100,13323],[100,13374],[100,13425],[100,13477],[100,13528],[100,13580],[100,13631],[100,13682],[100,13734],[100,13785],[100,13837],[100,13888],[100,13939],[100,13991],[100,14042],[100,14094],[100,14146],[100,14197],[100,14248],[100,14300],[100,14351],[100,14403],[100,14454],[100,14505],[100,14557],[100,14608],[100,14660],[100,14712],[100,14763],[100,14814],[100,14866],[100,14918],[100,14969],[100,15020],[100,15071],[100,15122],[100,15174],[100,15225],[100,15277],[100,15328],[100,15380],[100,15431],[100,15483],[100,15534],[100,15586],[100,15637],[100,15688],[100,15740],[100,15791],[100,15843],[100,15894],[100,15946],[100,15997],[100,16048],[100,16100],[100,16151],[100,16203],[100,16254],[100,16306],[100,16357],[100,16408],[100,16460],[100,16511],[100,16563],[100,16614],[100,16666],[100,16717],[100,16769],[100,16820],[100,16871],[100,16923],[100,16974],[100,17026],[100,17078],[100,17129],[100,17181],[100,17232],[100,17283],[100,17334],[100,17386],[100,17437],[100,17489],[100,17540],[100,17592],[100,17643],[100,17695],[100,17746],[100,17797],[100,17849],[100,17900],[100,17952],[100,18003],[100,18055],[100,18106],[100,18158],[100,18209],[100,18260],[100,18312],[100,18363],[100,18415],[100,18466],[100,18517],[100,18569],[100,18620],[100,18672],[100,18724],[100,18775],[100,18826],[100,18878],[100,18929],[100,18981],[100,19032],[100,19083],[100,19135],[100,19186],[100,19238],[100,19289],[100,19341],[100,19392],[100,19443],[100,19495],[100,19546],[100,19598],[100,19650],[100,19701],[100,19752],[100,19804],[100,19855],[100,19906],[100,19958],[100,20009],[100,20061],[100,20112],[100,20164],[100,20215],[100,20267],[100,20318],[100,20369],[100,20421],[100,20472],[100,20524],[100,20575],[100,20627],[100,20678],[100,20729],[100,20781],[100,20832],[100,20884],[100,20935],[100,20987],[100,21038],[100,21089],[100,21141],[100,21193],[100,21244],[100,21295],[100,21347],[100,21398],[100,21449],[100,21501],[100,21553],[100,21604],[100,21655],[100,21707],[100,21758],[100,21810],[100,21861],[100,21913],[100,21964],[100,22015],[100,22067],[100,22119],[100,22170],[100,22221],[100,22272],[100,22324],[100,22375],[100,22427],[100,22478],[100,22530],[100,22581],[100,22633],[100,22684],[100,22738],[100,22787],[100,22838],[100,22890],[100,22941],[100,22993],[100,23045],[100,23096],[100,23147],[100,23198],[100,23250],[100,23301],[100,23353],[100,23404],[100,23456],[100,23507],[100,23559],[100,23610],[100,23662],[100,23713],[100,23764],[100,23816],[100,23867],[100,23919],[100,23970],[100,24021],[100,24073],[100,24124],[100,24176],[100,24227],[100,24279],[100,24331],[100,24381],[100,24433],[100,24484],[100,24536],[100,24588],[100,24639],[100,24690],[100,24742],[100,24793],[100,24845],[100,24896],[100,24947],[100,24999],[100,25050],[100,25102],[100,25153],[100,25205],[100,25256],[100,25307],[100,25359],[100,25410],[100,25462],[100,25513],[100,25565],[100,25616],[100,25668],[100,25719],[100,25770],[100,25822],[100,25874],[100,25925],[100,25976],[100,26028],[100,26079],[100,26130],[100,26182],[100,26233],[100,26285],[100,26336],[100,26389],[100,26440],[100,26491],[100,26542],[100,26593],[100,26645],[100,26696],[100,26748],[100,26799],[100,26851],[100,26902],[100,26954],[100,27005],[100,27056],[100,27108],[100,27159],[100,27211],[100,27262],[100,27314],[100,27365],[100,27417],[100,27468],[100,27519],[100,27571],[100,27622],[100,27674],[100,27725],[100,27777],[100,27828],[100,27879],[100,27931],[100,27982],[100,28034],[100,28085],[100,28137],[100,28188],[100,28240],[100,28291],[100,28342],[100,28394],[100,28445]]",681.0411,685.768,98.95348837,1.6847,"[{""rating"":98.95348837209302,""responseTime"":1.6847000000476555}]",space,4.2173,,685.768,Partially,50,692.5691,49.94186047,2.7674,"[{""rating"":49.94186046511628,""responseTime"":2.7674000000953356}]",space,0,2,2,2,1,audio/Narrative7Situation2.wav,audio/Narrative8Situation2.wav,audio/Narrative5Situation2.wav,audio/Narrative6Situation2.wav,3,3,3,3,,,6.2895,,,,,,,,,,,,,,,,,,,,,,,,,,,,,,,,,,,,
,,,,,6673188102ed2340e6e813ff,2025-07-07_23h20.18.253,group3.4_multiperson,2023.2.2,Win32,113.6363636,686c2ebf0248f13bef9af11f,686c8e5a215910a865954bf7,,,,,,,,,,,,,,,,,,,,,,,,,,,,,692.5692,2,audio/Narrative6Situation3.wav,697.5704,,697.5704,710.1616,"[[999,0],[999,51],[999,102],[999,153],[999,206],[999,256],[999,308],[999,359],[999,411],[999,462],[999,514],[999,566],[999,616],[999,668],[999,719],[999,771],[999,822],[999,874],[999,925],[999,976],[999,1028],[999,1079],[999,1131],[999,1182],[999,1234],[999,1286],[999,1336],[999,1388],[999,1439],[999,1491],[999,1542],[999,1594],[999,1645],[999,1697],[999,1749],[999,1800],[999,1851],[999,1902],[999,1954],[999,2005],[999,2057],[999,2108],[999,2160],[999,2211],[999,2262],[999,2314],[999,2366],[999,2417],[999,2468],[999,2520],[999,2571],[999,2622],[999,2675],[999,2726],[100,2777],[100,2831],[100,2880],[67.3,3189],[67.4,3240],[64,3292],[58.7,3343],[54.8,3394],[52.5,3446],[50.6,3498],[49.5,3549],[48.8,3600],[49.6,3652],[49.8,3703],[49.9,3754],[49.9,3806],[49.9,3857],[49.9,3908],[49.9,3960],[49.9,4011],[49.9,4063],[49.9,4114],[49.9,4166],[49.9,4217],[49.9,4269],[49.9,4320],[49.9,4371],[49.9,4423],[49.9,4474],[49.9,4526],[49.9,4577],[49.9,4629],[49.9,4680],[49.9,4731],[49.9,4783],[49.9,4834],[49.9,4886],[49.9,4937],[49.9,4989],[49.9,5040],[49.9,5092],[49.9,5143],[49.9,5195],[49.9,5246],[49.9,5297],[49.9,5349],[49.9,5400],[49.9,5452],[49.9,5503],[49.9,5555],[49.9,5606],[49.9,5657],[49.9,5709],[49.9,5761],[49.9,5812],[49.9,5864],[49.9,5915],[49.9,5966],[49.9,6018],[49.9,6069],[49.9,6120],[49.9,6172],[49.9,6224],[49.9,6275],[49.9,6326],[49.9,6378],[49.9,6429],[49.9,6480],[49.9,6532],[49.9,6583],[49.9,6635],[49.9,6686],[49.9,6738],[49.9,6790],[49.9,6841],[49.9,6892],[49.9,6943],[49.9,6995],[49.9,7047],[49.9,7098],[49.9,7149],[49.9,7201],[49.9,7252],[49.9,7304],[49.9,7355],[49.9,7406],[49.9,7458],[49.9,7509],[49.8,7561],[49.8,7612],[49.7,7664],[49.7,7718],[49.7,7767],[49.7,7818],[49.7,7869],[49.6,7921],[49.6,7973],[49.5,8024],[49.5,8075],[49.5,8127],[49.5,8178],[49.5,8229],[49.5,8282],[49.5,8332],[49.5,8384],[49.5,8435],[49.5,8487],[49.5,8538],[49.5,8590],[49.5,8641],[49.5,8692],[49.5,8744],[49.5,8795],[49.5,8847],[49.5,8898],[49.5,8950],[49.5,9001],[49.5,9052],[49.5,9104],[49.5,9155],[49.5,9207],[49.5,9258],[49.5,9310],[49.5,9361],[49.5,9413],[49.5,9464],[49.5,9515],[49.5,9567],[49.5,9618],[49.5,9670],[49.5,9721],[49.5,9773],[49.5,9824],[49.5,9876],[49.5,9927],[49.5,9978],[49.5,10030],[49.5,10081],[49.5,10133],[49.5,10184],[49.5,10235],[49.5,10287],[49.5,10338],[49.5,10390],[49.5,10442],[49.5,10493],[49.5,10544],[49.5,10596],[49.5,10647],[49.5,10699],[49.5,10751],[49.5,10801],[49.5,10853],[49.5,10905],[49.5,10956],[49.4,11007],[49.4,11059],[49.4,11110],[49.4,11162],[49.4,11213],[49.4,11264],[49.4,11316],[49.3,11367],[49.3,11419],[49.3,11470],[49.3,11521],[49.3,11573],[49.3,11624],[49.3,11676],[49.3,11728],[49.3,11779],[49.3,11830],[49.3,11882],[49.3,11933],[49.3,11984],[49.3,12036],[49.3,12088],[49.3,12139],[49.3,12190],[49.3,12242],[49.3,12293],[49.3,12345],[49.3,12396],[50.2,12448],[52.2,12500]]",710.1617,713.288,83.89534884,2.0328,"[{""rating"":83.8953488372093,""responseTime"":2.032799999952317}]",space,2.6117,,713.288,Not at all,0,713.289,,,[],,0,3,3,3,1,audio/Narrative7Situation3.wav,audio/Narrative8Situation3.wav,audio/Narrative5Situation3.wav,audio/Narrative6Situation3.wav,8,4,3,5,,,,,,,,,,,,,,,,,,,,,,,,,,,,,,,,,,,,,,,
,,,,,6673188102ed2340e6e813ff,2025-07-07_23h20.18.253,group3.4_multiperson,2023.2.2,Win32,113.6363636,686c2ebf0248f13bef9af11f,686c8e5a215910a865954bf7,,,,,,,,,,,,,,,,,,,,,,,,,,,,,713.2891,2,audio/Narrative6Situation4.wav,715.294,,715.294,727.8906,"[[82.9,565],[76.6,617],[70,668],[70.6,720],[76.5,926],[69,977],[67.1,1029],[66.3,1080],[65.6,1131],[65.6,1182],[65.6,1234],[65.6,1285],[65.6,1337],[65.6,1388],[65.6,1439],[65.6,1491],[65.6,1543],[65.6,1594],[65.6,1645],[65.6,1697],[65.6,1748],[65.6,1799],[65.6,1851],[65.6,1902],[65.6,1954],[65.6,2006],[65.6,2057],[65.6,2108],[65.6,2160],[65.6,2211],[65.6,2263],[65.6,2314],[65.6,2365],[65.6,2417],[65.6,2468],[65.6,2520],[65.6,2571],[65.6,2623],[65.6,2674],[65.6,2725],[65.6,2777],[66.8,2829],[69.4,2880],[73.1,2932],[79.4,2983],[86.1,3035],[93,3086],[99.4,3138],[100,3189],[100,3240]]",727.8906,731.0397,98.77906977,2.2655,"[{""rating"":98.77906976744187,""responseTime"":2.2654999999999745}]",space,2.6366,,731.0398,Not at all,0,731.0403,,,[],,0,4,4,4,1,audio/Narrative7Situation4.wav,audio/Narrative8Situation4.wav,audio/Narrative5Situation4.wav,audio/Narrative6Situation4.wav,3,3,1,2,,,,,,,,,,,,,,,,,,,,,,,,,,,,,,,,,,,,,,,
,,,,,6673188102ed2340e6e813ff,2025-07-07_23h20.18.253,group3.4_multiperson,2023.2.2,Win32,113.6363636,686c2ebf0248f13bef9af11f,686c8e5a215910a865954bf7,,,,,,,,,,,,,,,,,,,,,,,,,,,,,731.0405,2,audio/Narrative6Situation5.wav,733.0462,,733.0462,740.9847,[],740.9847,745.8373,74.76744186,4.02,"[{""rating"":74.76744186046511,""responseTime"":4.019999999999982}]",space,4.3426,,745.8374,Partially,50,745.8383,,,[],,0,5,5,5,1,audio/Narrative7Situation5.wav,audio/Narrative8Situation5.wav,audio/Narrative5Situation5.wav,audio/Narrative6Situation5.wav,5,2,5,2,,,,,,,,,,,,,,,,,,,,,,,,,,,,,,,,,,,,,,,
,,,,,6673188102ed2340e6e813ff,2025-07-07_23h20.18.253,group3.4_multiperson,2023.2.2,Win32,113.6363636,686c2ebf0248f13bef9af11f,686c8e5a215910a865954bf7,,,,,,,,,,,,,,,,,,,,,,,,,,,,,745.8384,2,audio/Narrative6Situation6.wav,747.8432,,747.8432,758.9031,"[[75.6,10854],[80.3,10905]]",758.9031,760.892,99.76744186,1.0983,"[{""rating"":99.76744186046511,""responseTime"":1.0982999999522463}]",space,1.4771,,760.892,Not at all,0,760.8929,,,[],,0,6,6,6,1,audio/Narrative7Situation6.wav,audio/Narrative8Situation6.wav,audio/Narrative5Situation6.wav,audio/Narrative6Situation6.wav,3,2,3,2,,,,,,,,,,,,,,,,,,,,,,,,,,,,,,,,,,,,,,,
,,,,,6673188102ed2340e6e813ff,2025-07-07_23h20.18.253,group3.4_multiperson,2023.2.2,Win32,113.6363636,686c2ebf0248f13bef9af11f,686c8e5a215910a865954bf7,,,,,,,,,,,,,,,,,,,,,,,,,,,,,760.8931,2,audio/Narrative6Situation7.wav,765.8986,,765.8986,790.7323,"[[97.5,24182],[96.9,24439],[97,24491],[97.8,24542],[98.5,24593],[98.5,24645],[99,24698],[99.3,24747],[99.4,24799]]",790.7324,794.676,99.47674419,2.6519,"[{""rating"":99.4767441860465,""responseTime"":2.6519000000953383}]",space,3.4242,,794.676,Partially,50,794.677,,,[],,0,7,7,7,1,audio/Narrative7Situation7.wav,audio/Narrative8Situation7.wav,audio/Narrative5Situation7.wav,audio/Narrative6Situation7.wav,5,3,4,5,,,,,,,,,,,,,,,,,,,,,,,,,,,,,,,,,,,,,,,
,,,,,6673188102ed2340e6e813ff,2025-07-07_23h20.18.253,group3.4_multiperson,2023.2.2,Win32,113.6363636,686c2ebf0248f13bef9af11f,686c8e5a215910a865954bf7,,,,,,,,,,,,,,,,,,,,,,,,,,,,,794.6771,2,audio/Narrative6Situation8.wav,799.6824,,799.6824,806.518,[],806.518,810.5361,17.3255814,1.9515,"[{""rating"":17.325581395348838,""responseTime"":1.95150000000001}]",space,3.5026,,810.5361,Partially,50,810.5366,,,[],,0,8,8,8,1,audio/Narrative7Situation8.wav,audio/Narrative8Situation8.wav,audio/Narrative5Situation8.wav,audio/Narrative6Situation8.wav,2,3,3,5,,,,,,,,,,,,,,,,,,,,,,,,,,,,,,,,,,,,,,,
,,,,,6673188102ed2340e6e813ff,2025-07-07_23h20.18.253,group3.4_multiperson,2023.2.2,Win32,113.6363636,686c2ebf0248f13bef9af11f,686c8e5a215910a865954bf7,,,,,,,,,,,,,,,,,,,,,,,,,,,,,810.5368,2,audio/Narrative6Situation9.wav,814.5369,,814.5369,824.4645,"[[999,0],[999,51],[999,103],[999,154],[999,205],[999,257],[999,308],[999,359],[999,411],[999,462],[999,514],[999,565],[999,617],[999,669],[999,720],[999,771],[999,822],[999,874],[999,925],[999,977],[999,1028],[999,1080],[999,1131],[999,1182],[999,1234],[999,1285],[999,1337],[999,1388],[999,1440],[999,1491],[999,1543],[999,1594],[999,1645],[999,1697],[999,1748],[999,1800],[999,1851],[999,1903],[999,1954],[999,2006],[999,2057],[999,2109],[999,2160],[999,2211],[999,2263],[999,2314],[999,2366],[999,2417],[999,2469],[999,2520],[999,2571],[999,2623],[999,2674],[999,2726],[999,2777],[999,2829],[999,2880],[999,2931],[999,2983],[999,3034],[999,3086],[999,3137],[999,3189],[999,3240],[999,3292],[999,3343],[999,3394],[999,3446],[999,3497],[999,3549],[999,3600],[999,3652],[999,3703],[999,3754],[999,3806],[999,3858],[999,3909],[999,3960],[999,4012],[999,4063],[999,4115],[999,4166],[999,4217],[999,4269],[999,4320],[999,4372],[999,4423],[999,4475],[999,4526],[999,4577],[999,4629],[999,4680],[999,4732],[999,4783],[999,4835],[999,4886],[999,4938],[999,4989],[999,5040],[999,5092],[999,5144],[999,5195],[999,5246],[999,5298],[999,5349],[999,5401],[999,5452],[999,5503],[999,5555],[999,5606],[999,5658],[999,5710],[999,5761],[999,5812],[999,5863],[999,5915],[999,5967],[999,6018],[999,6069],[999,6121],[999,6172],[999,6224],[999,6275],[999,6327],[999,6378],[999,6429],[999,6481],[999,6532],[999,6584],[999,6636],[999,6687],[999,6738],[999,6790],[999,6841],[999,6892],[999,6946],[999,6995],[999,7047],[999,7098],[999,7149],[999,7201],[999,7252],[999,7304],[999,7355],[999,7407],[999,7458],[999,7510],[999,7561],[999,7612],[999,7664],[999,7715],[999,7767],[999,7818],[999,7870],[999,7921],[999,7972],[999,8024],[999,8075],[999,8127],[999,8178],[999,8230],[999,8281],[999,8333],[999,8384],[999,8436],[999,8487],[999,8538],[999,8590],[999,8641],[999,8693],[999,8745],[999,8796],[999,8847],[999,8898],[999,8950],[999,9001],[999,9053],[999,9104],[999,9156],[999,9207],[999,9258],[999,9310],[999,9361],[999,9413],[999,9464],[999,9516],[999,9567],[999,9619],[999,9670],[999,9721],[999,9773],[999,9824],[999,9876],[999,9927]]",824.4646,827.0598,51.80232558,1.3959,"[{""rating"":51.80232558139535,""responseTime"":1.3959000000953665}]",space,2.0826,,827.0598,Not at all,0,827.0609,,,[],,0,9,9,9,1,audio/Narrative7Situation9.wav,audio/Narrative8Situation9.wav,audio/Narrative5Situation9.wav,audio/Narrative6Situation9.wav,2,3,3,4,,,,,,,,,,,,,,,,,,,,,,,,,,,,,,,,,,,,,,,
,,,,,6673188102ed2340e6e813ff,2025-07-07_23h20.18.253,group3.4_multiperson,2023.2.2,Win32,113.6363636,686c2ebf0248f13bef9af11f,686c8e5a215910a865954bf7,,,,,,,,,,,,,,,,,,,,,,,,,,,,,827.0609,2,audio/Narrative5Situation1.wav,832.0665,,832.0665,845.332,"[[55.4,12659],[84.9,12968],[86.9,13019],[88.1,13071],[88.5,13122],[89.6,13174],[91.6,13227]]",845.332,849.1043,99.41860465,1.2984,"[{""rating"":99.4186046511628,""responseTime"":1.2983999998568834}]",space,3.2622,,849.1043,Partially,50,849.1053,,,[],,0,10,10,10,1,audio/Narrative8Situation1.wav,audio/Narrative7Situation1.wav,audio/Narrative6Situation1.wav,audio/Narrative5Situation1.wav,5,2,2,5,,,,,,,,,,,,,,,,,,,,,,,,,,,,,,,,,,,,,,,
,,,,,6673188102ed2340e6e813ff,2025-07-07_23h20.18.253,group3.4_multiperson,2023.2.2,Win32,113.6363636,686c2ebf0248f13bef9af11f,686c8e5a215910a865954bf7,,,,,,,,,,,,,,,,,,,,,,,,,,,,,849.1054,2,audio/Narrative5Situation2.wav,852.1102,,852.1102,881.5507,"[[999,0],[999,51],[999,102],[999,154],[999,205],[999,257],[999,308],[999,360],[999,411],[999,463],[999,514],[999,565],[999,617],[999,668],[999,720],[999,771],[999,822],[999,874],[999,925],[999,977],[999,1029],[999,1080],[999,1131],[999,1183],[999,1234],[999,1286],[999,1337],[999,1388],[999,1440],[999,1491],[999,1543],[999,1594],[999,1646],[999,1697],[999,1748],[999,1800],[999,1851],[999,1903],[999,1954],[999,2005],[999,2057],[999,2109],[999,2160],[999,2212],[999,2263],[999,2314],[999,2366],[999,2417],[999,2468],[999,2520],[999,2571],[999,2623],[999,2674],[999,2726],[999,2777],[999,2828],[999,2880],[999,2932],[999,2983],[999,3034],[999,3086],[999,3137],[999,3189],[999,3240],[999,3292],[999,3343],[999,3396],[999,3446],[999,3498],[999,3549],[999,3600],[999,3652],[999,3703],[999,3755],[999,3806],[999,3858],[999,3909],[999,3960],[999,4012],[999,4063],[999,4115],[999,4166],[999,4217],[999,4269],[999,4320],[999,4372],[999,4424],[999,4475],[999,4526],[999,4577],[999,4629],[999,4680],[999,4732],[999,4783],[999,4835],[999,4886],[999,4938],[999,4990],[999,5040],[999,5092],[999,5143],[999,5195],[999,5246],[999,5299],[999,5349],[999,5401],[999,5452],[999,5503],[999,5556],[999,5607],[999,5658],[999,5709],[999,5761],[999,5812],[999,5863],[999,5915],[999,5967],[999,6018],[999,6069],[999,6121],[999,6172],[999,6224],[999,6276],[999,6326],[999,6378],[999,6429],[999,6481],[999,6532],[999,6584],[999,6635],[999,6687],[999,6738],[999,6790],[999,6841],[999,6893],[999,6944],[999,6995],[999,7047],[999,7098],[999,7150],[999,7201],[999,7253],[999,7304],[999,7355],[999,7407],[999,7458],[999,7510],[999,7561],[999,7612],[999,7664],[999,7715],[999,7768],[999,7819],[999,7870],[999,7921],[999,7972],[999,8024],[999,8075],[999,8127],[999,8178],[999,8230],[999,8281],[999,8333],[999,8384],[999,8436],[999,8487],[999,8538],[999,8590],[999,8641],[999,8693],[999,8744],[999,8795],[999,8847],[999,8898],[999,8950],[999,9001],[999,9053],[999,9104],[999,9156],[999,9207],[999,9260],[999,9310],[999,9361],[999,9413],[999,9464],[999,9516],[999,9567],[999,9619],[999,9670],[999,9722],[999,9773],[999,9824],[999,9876],[999,9928],[999,9979],[999,10030],[999,10082],[999,10133],[999,10184],[999,10236],[999,10288],[999,10339],[999,10390],[999,10442],[999,10493],[999,10544],[999,10596],[999,10647],[999,10699],[999,10750],[999,10802],[999,10853],[999,10905],[999,10956],[999,11007],[999,11059],[999,11110],[999,11162],[999,11213],[999,11265],[999,11316],[999,11367],[999,11419],[999,11470],[999,11522],[999,11573],[999,11625],[999,11676],[999,11728],[999,11779],[999,11830],[999,11882],[999,11933],[999,11985],[999,12036],[999,12088],[999,12139],[999,12191],[999,12242],[999,12293],[999,12345],[999,12396],[999,12448],[999,12500],[999,12550],[999,12602],[999,12653],[999,12705],[999,12756],[999,12808],[999,12860],[999,12911],[999,12962],[999,13014],[999,13065],[999,13117],[999,13168],[999,13219],[999,13271],[999,13322],[999,13374],[999,13425],[999,13476],[999,13528],[999,13580],[999,13631],[999,13682],[999,13734],[999,13785],[999,13837],[999,13888],[999,13940],[999,13991],[999,14043],[999,14094],[999,14145],[999,14197],[999,14248],[999,14300],[999,14351],[999,14402],[999,14454],[999,14505],[999,14557],[999,14608],[999,14660],[999,14711],[999,14762],[999,14814],[999,14865],[999,14917],[999,14969],[999,15020],[999,15072],[999,15123],[999,15174],[999,15225],[999,15277],[999,15329],[999,15381],[88.8,15432],[85.8,15483],[86,15534],[86.9,15586],[88,15637],[88.2,15689],[89.2,15740],[90,15792],[91.3,15843],[93,15895],[94.2,15946],[95.3,15998],[96.5,16048],[98.3,16101],[99.6,16152],[100,16203],[100,16254],[100,16306],[99.9,16357],[99.9,16409],[99.9,16460],[99.9,16511],[99.9,16563],[99.9,16614],[99.9,16666],[99.9,16717],[99.9,16769],[99.9,16820],[99.9,16871],[99.9,16923],[99.9,16974],[99.9,17026],[99.9,17077],[99.9,17129],[99.9,17180],[99.9,17231],[99.9,17283],[99.9,17334],[99.9,17386],[99.9,17438],[99.9,17489],[99.9,17540],[99.9,17592],[99.9,17643],[99.9,17694],[99.9,17746],[99.9,17798],[99.9,17849],[99.9,17900],[99.9,17952],[99.9,18003],[99.9,18055],[99.9,18106],[99.9,18157],[99.9,18209],[99.9,18260],[99.9,18312],[99.9,18364],[99.9,18415],[99.9,18466],[99.9,18518],[99.9,18569],[99.9,18620],[99.9,18672],[99.9,18723],[99.9,18775],[99.9,18826],[99.9,18878],[99.9,18929],[99.9,18980],[99.9,19032],[99.9,19083],[99.9,19135],[99.9,19186],[99.9,19238],[99.9,19289],[99.9,19341],[99.9,19392],[99.9,19443],[99.9,19495],[99.9,19546],[99.9,19598],[99.9,19649],[99.9,19701],[99.9,19752],[99.9,19803],[99.9,19855],[99.9,19906],[99.9,19958],[99.9,20009],[99.9,20061],[99.9,20112],[99.9,20163],[99.9,20215],[99.9,20266],[99.9,20318],[99.9,20369],[99.9,20421],[99.9,20472],[99.9,20524],[99.9,20575],[99.9,20626],[99.9,20678],[99.9,20730],[99.9,20781],[99.9,20833],[99.9,20884],[99.9,20935],[99.9,20987],[99.9,21038],[99.9,21090],[99.9,21141],[99.9,21193],[99.9,21244],[99.9,21295],[99.9,21347],[99.9,21398],[99.9,21450],[99.9,21501],[99.9,21552],[99.9,21604],[99.9,21655],[99.9,21707],[99.9,21758],[99.9,21810],[99.9,21861],[99.9,21913],[99.9,21964],[99.9,22016],[99.9,22067],[99.9,22118],[99.9,22170],[99.9,22221],[99.9,22273],[99.9,22324],[99.9,22375],[99.9,22427],[99.9,22478],[99.9,22530],[99.9,22581],[99.9,22633],[99.9,22684],[99.9,22735],[99.9,22787],[99.9,22838],[99.9,22891],[99.9,22942],[99.9,22993],[99.9,23045],[99.9,23096],[99.9,23147],[99.9,23198],[99.9,23250],[99.9,23301],[99.9,23353],[99.9,23404],[99.9,23456],[99.9,23508],[99.9,23559],[99.9,23610],[99.9,23662],[99.9,23713],[99.9,23765],[99.9,23817],[99.9,23869],[99.9,23919],[99.9,23971],[99.9,24021],[99.9,24073],[99.9,24124],[99.9,24177],[99.9,24227],[99.9,24279],[99.9,24330],[99.9,24382],[99.9,24433],[99.9,24485],[99.9,24536],[99.9,24587],[99.9,24639],[99.9,24690],[99.9,24742],[99.9,24793],[99.9,24845],[99.9,24896],[99.9,24947],[99.9,24999],[99.9,25050],[99.9,25102],[99.9,25154],[99.9,25205],[99.9,25256],[99.9,25307],[99.9,25359],[99.9,25411],[99.9,25462],[99.9,25513],[99.9,25565],[99.9,25616],[99.9,25668],[99.9,25719],[99.9,25771],[99.9,25822],[99.9,25873],[99.9,25925],[99.9,25976],[99.9,26028],[99.9,26079],[99.9,26131],[99.9,26182],[99.9,26233],[99.9,26285],[99.9,26337],[99.9,26388],[99.9,26439],[99.9,26508],[99.9,26559],[99.9,26611],[99.9,26662],[99.9,26713],[99.9,26765],[99.9,26818],[99.9,26868],[99.9,26919],[99.9,26971],[99.9,27022],[99.9,27074],[99.9,27125],[99.9,27177],[99.9,27228],[99.9,27279],[99.9,27331],[99.9,27382],[99.9,27434],[99.9,27485],[99.9,27537],[99.9,27588],[99.9,27639],[99.9,27691],[99.9,27742],[99.9,27794],[99.9,27845],[99.9,27897],[99.9,27948],[99.9,28000],[99.9,28051],[99.9,28102],[99.9,28154],[99.9,28206],[99.9,28257],[99.9,28308],[99.9,28360],[99.9,28411],[99.9,28463],[99.9,28514],[99.9,28565],[99.9,28617],[99.9,28668],[99.9,28720],[99.9,28771],[99.9,28823],[99.9,28874],[99.9,28925],[99.9,28977],[99.9,29028],[99.9,29080],[99.9,29131],[99.9,29183],[99.9,29234],[99.9,29285],[99.8,29337],[99.8,29388],[99.8,29440]]",881.5507,884.7228,99.41860465,2.3779,"[{""rating"":99.4186046511628,""responseTime"":2.377899999856936}]",space,2.6538,,884.7228,Partially,50,884.7233,,,[],,0,11,11,11,1,audio/Narrative8Situation2.wav,audio/Narrative7Situation2.wav,audio/Narrative6Situation2.wav,audio/Narrative5Situation2.wav,3,3,3,3,,,,,,,,,,,,,,,,,,,,,,,,,,,,,,,,,,,,,,,
,,,,,6673188102ed2340e6e813ff,2025-07-07_23h20.18.253,group3.4_multiperson,2023.2.2,Win32,113.6363636,686c2ebf0248f13bef9af11f,686c8e5a215910a865954bf7,,,,,,,,,,,,,,,,,,,,,,,,,,,,,884.7234,2,audio/Narrative5Situation3.wav,887.7236,,887.7236,901.6127,"[[99.6,13733],[100,13785],[100,13837]]",901.6127,903.9212,98.6627907,0.8854,"[{""rating"":98.66279069767442,""responseTime"":0.8854000000953874}]",space,1.798,,903.9213,Partially,50,903.9219,,,[],,0,12,12,12,1,audio/Narrative8Situation3.wav,audio/Narrative7Situation3.wav,audio/Narrative6Situation3.wav,audio/Narrative5Situation3.wav,4,8,5,3,,,,,,,,,,,,,,,,,,,,,,,,,,,,,,,,,,,,,,,
,,,,,6673188102ed2340e6e813ff,2025-07-07_23h20.18.253,group3.4_multiperson,2023.2.2,Win32,113.6363636,686c2ebf0248f13bef9af11f,686c8e5a215910a865954bf7,,,,,,,,,,,,,,,,,,,,,,,,,,,,,903.922,2,audio/Narrative5Situation4.wav,904.9267,,904.9267,925.2972,"[[98.5,10288],[97.9,10341],[98.5,10391],[100,10442],[100,10545],[100,10597],[100,10648],[100,10699],[99.4,10751],[98.1,10802],[98.1,10853],[98.1,10905],[98.1,10956],[98.1,11007],[98.8,11059],[99.4,11110],[99.8,11162],[99.9,11213],[99.9,11265],[99.9,11316],[99.9,11368],[99.9,11419],[99.9,11470],[99.9,11522],[99.9,11573],[99.9,11625],[99.9,11676],[99.9,11728],[99.9,11779],[99.9,11831],[99.9,11883],[99.9,11934],[99.9,11985],[99.9,12036],[99.9,12088],[99.9,12139],[99.9,12190],[99.9,12242],[99.9,12294],[99.9,12345],[99.9,12396],[99.9,12448],[99.9,12499],[99.9,12551],[99.9,12602],[99.9,12653],[99.9,12705],[99.9,12756],[99.9,12808],[99.9,12860],[99.9,12911],[99.9,12962],[99.9,13014],[99.9,13065],[99.9,13116],[99.9,13168],[99.9,13220],[99.9,13271],[99.9,13323],[99.9,13374],[99.9,13425],[99.9,13477],[99.9,13528],[99.9,13580],[99.9,13631],[99.9,13682],[99.9,13734],[99.9,13785],[99.9,13837],[99.9,13888],[99.9,13939],[99.9,13991],[99.9,14042],[99.9,14094],[99.9,14145],[99.9,14197],[99.9,14248],[99.9,14299],[99.9,14351],[99.9,14402],[99.9,14454],[99.9,14505],[99.9,14557],[99.9,14608],[99.9,14660],[99.9,14711],[99.9,14763],[99.9,14814],[99.9,14865],[99.9,14917],[99.9,14968],[99.9,15020],[99.9,15072],[99.9,15123],[99.9,15174],[99.9,15225],[99.9,15277],[99.9,15328],[99.9,15380],[99.9,15431],[99.9,15483],[99.9,15534],[99.9,15586],[99.9,15637],[99.9,15688],[99.9,15740],[99.9,15791],[99.9,15843],[99.9,15894],[99.9,15946],[99.9,15997],[99.9,16048],[99.9,16100],[99.9,16151],[99.9,16203],[99.9,16254],[99.9,16306],[99.9,16357],[99.9,16409],[99.9,16460],[99.9,16511],[99.9,16563],[99.9,16614],[99.9,16666],[99.9,16717],[99.9,16769],[99.9,16820],[99.9,16871],[99.9,16924],[99.9,16975],[99.9,17026],[99.9,17077],[99.9,17129],[99.9,17180],[99.9,17232],[99.9,17283],[99.9,17335],[99.9,17386],[99.9,17437],[99.9,17490],[99.9,17540],[99.9,17592],[99.9,17643],[99.9,17694],[99.9,17746],[99.9,17797],[99.9,17849],[99.9,17901],[99.9,17952],[99.9,18003],[99.9,18055],[99.9,18106],[99.9,18158],[99.9,18209],[99.9,18260],[99.9,18312],[99.9,18363],[99.9,18416],[99.9,18466],[99.9,18517],[99.9,18569],[99.9,18620],[99.9,18672],[99.9,18724],[99.9,18775],[99.9,18826],[99.9,18877],[99.9,18929],[99.9,18980],[99.9,19032],[99.9,19083],[99.9,19135],[99.9,19186],[99.9,19238],[99.9,19289],[99.9,19341],[99.9,19392],[99.9,19443],[99.9,19495],[99.9,19546],[99.9,19598],[99.9,19649],[99.9,19701],[99.9,19752],[99.9,19803],[99.9,19855],[99.9,19907],[99.9,19958],[99.9,20009],[99.9,20061],[99.9,20112],[100,20164],[95.9,20370]]",925.2973,927.9833,99.36046512,1.1972,"[{""rating"":99.36046511627907,""responseTime"":1.1972000000475873}]",space,2.172,,927.9833,Partially,50,927.984,,,[],,0,13,13,13,1,audio/Narrative8Situation4.wav,audio/Narrative7Situation4.wav,audio/Narrative6Situation4.wav,audio/Narrative5Situation4.wav,3,3,2,1,,,,,,,,,,,,,,,,,,,,,,,,,,,,,,,,,,,,,,,
,,,,,6673188102ed2340e6e813ff,2025-07-07_23h20.18.253,group3.4_multiperson,2023.2.2,Win32,113.6363636,686c2ebf0248f13bef9af11f,686c8e5a215910a865954bf7,,,,,,,,,,,,,,,,,,,,,,,,,,,,,927.984,2,audio/Narrative5Situation5.wav,932.9895,,932.9896,948.3928,"[[98.5,11317],[95,11574],[97.6,11625],[98.5,11677],[98.9,11728],[99.5,11780],[99.7,11830],[99.7,11883],[99.7,11933],[99.7,11985],[99.7,12037],[99.7,12088],[99.7,12139],[99.7,12191],[99.7,12242],[99.7,12296],[99.7,12345],[99.7,12396],[99.7,12448],[99.7,12499],[99.7,12551],[99.7,12602],[99.7,12653],[99.7,12705],[99.7,12756],[92.4,12808],[40.5,12962],[38.8,13014],[35.9,13066],[23.6,13169],[20.1,13220],[16.5,13271],[13.1,13323],[13,13374],[13,13426],[13,13477],[13,13528],[13,13580],[13,13631],[13,13682],[13,13734],[13,13785],[13,13837],[13,13888],[13,13940],[13,13991],[13,14042],[13,14094],[13,14145],[13,14197],[13,14248],[13,14300],[13,14351],[13,14403],[13,14454],[13,14505],[13,14557],[14.7,14609],[20.6,14660],[28.4,14712],[33.7,14763],[34.7,14814],[34.9,14865],[34.9,14917],[34.9,14968],[34.9,15020],[34.9,15071],[34.9,15123],[34.9,15174],[34.9,15226],[34.9,15277],[34.9,15329],[34.9,15380]]",948.3928,950.8737,27.90697674,1.6364,"[{""rating"":27.906976744186046,""responseTime"":1.6364000000953638}]",space,1.9659,,950.8737,Partially,50,950.8745,,,[],,0,14,14,14,1,audio/Narrative8Situation5.wav,audio/Narrative7Situation5.wav,audio/Narrative6Situation5.wav,audio/Narrative5Situation5.wav,2,5,2,5,,,,,,,,,,,,,,,,,,,,,,,,,,,,,,,,,,,,,,,
,,,,,6673188102ed2340e6e813ff,2025-07-07_23h20.18.253,group3.4_multiperson,2023.2.2,Win32,113.6363636,686c2ebf0248f13bef9af11f,686c8e5a215910a865954bf7,,,,,,,,,,,,,,,,,,,,,,,,,,,,,950.8746,2,audio/Narrative5Situation6.wav,953.8796,,953.8796,959.5379,"[[39.1,669],[43.4,720],[47.5,771],[48.8,823],[64.1,1389],[60.1,1440],[57.7,1492],[56.5,1543],[55.3,1595],[54.8,1647],[53.6,1697],[53.1,1748],[53.1,1800],[53.1,1851],[53.1,1903],[53.1,1955],[53.1,2005],[53.1,2057],[53.1,2108],[53.1,2160],[53.1,2211],[54.2,2263],[61.3,2315],[74.3,2366],[87,2418],[97.2,2469],[100,2520],[100,2572],[100,2623],[100,2675],[100,2726],[100,2777],[100,2828],[100,2880],[100,2932],[100,2983],[98.5,3035],[98.1,3086],[98.1,3137],[98.1,3189],[98.1,3240],[98.3,3292],[99.4,3343],[99.5,3395],[99.5,3446],[99.5,3497],[99.5,3549],[99.5,3600],[99.5,3652],[99.5,3703],[99.5,3754],[99.5,3807],[99.5,3857],[99.5,3909],[99.5,3960],[99.5,4012],[99.5,4063],[99.5,4114],[99.5,4166],[99.5,4218],[99.5,4269],[99.5,4320],[99.5,4372],[99.5,4423],[99.5,4475],[99.5,4526],[99.5,4579],[99.5,4629],[99.5,4680],[99.5,4732],[99.5,4784],[99.5,4835],[99.5,4886],[99.5,4937],[99.5,4989],[99.5,5040],[99.5,5092],[99.5,5146],[99.5,5195],[99.5,5246],[99.5,5298],[99.5,5349],[99.5,5400],[99.5,5452],[99.5,5503],[99.5,5555],[99.5,5606],[99.5,5658]]",959.5379,961.7901,99.47674419,1.3575,"[{""rating"":99.4767441860465,""responseTime"":1.357499999999959}]",space,1.7391,,961.7901,Definitely yes,100,961.791,,,[],,0,15,15,15,1,audio/Narrative8Situation6.wav,audio/Narrative7Situation6.wav,audio/Narrative6Situation6.wav,audio/Narrative5Situation6.wav,2,3,2,3,,,,,,,,,,,,,,,,,,,,,,,,,,,,,,,,,,,,,,,
,,,,,6673188102ed2340e6e813ff,2025-07-07_23h20.18.253,group3.4_multiperson,2023.2.2,Win32,113.6363636,686c2ebf0248f13bef9af11f,686c8e5a215910a865954bf7,,,,,,,,,,,,,,,,,,,,,,,,,,,,,961.7911,2,audio/Narrative5Situation7.wav,965.7963,,965.7963,986.8182,"[[45.1,54],[47.1,103],[49.7,154],[52.2,206],[52.4,257],[53,309],[53.3,360],[53.3,411],[53.3,462],[53.1,514],[52.3,566],[50.5,617],[49.8,668],[49.8,720],[49.8,771],[49.8,822],[49.8,874],[49.8,925],[49.8,977],[49.8,1028],[49.8,1080],[50.2,1132],[50.3,1182],[50.3,1234],[50.3,1285],[50.3,1337],[50.3,1388],[50.3,1440],[50.3,1492],[50.3,1543],[50.3,1594],[50.3,1645],[50.3,1697],[50.3,1749],[50.3,1800],[50.3,1852],[50.3,1903],[50.3,1954],[50.3,2006],[50.3,2057],[50.3,2109],[50.3,2160],[50.3,2211],[50.3,2263],[50.3,2314],[50.3,2366],[50.3,2417],[50.3,2469],[50.3,2520],[50.3,2571],[50.3,2623],[50.3,2675],[50.3,2726],[50.3,2777],[50.3,2829],[50.3,2880],[50.3,2931],[50.3,2983],[50.3,3034],[50.3,3086],[50.3,3137],[50.3,3189],[50.3,3240],[50.3,3292],[50.3,3343],[50.3,3394],[50.3,3446],[50.3,3497],[50.3,3549],[50.3,3600],[50.3,3652],[50.3,3704],[50.3,3754],[50.3,3806],[50.3,3857],[50.3,3909],[50.3,3960],[50.3,4012],[50.3,4063],[50.3,4115],[50.3,4166],[50.3,4218],[50.3,4269],[50.3,4320],[50.3,4372],[50.3,4423],[50.3,4475],[50.3,4526],[50.3,4578],[50.3,4629],[50.3,4680],[50.3,4732],[50.3,4784],[50.3,4835],[50.3,4886],[50.3,4938],[50.3,4989],[50.3,5041],[50.3,5092],[50.3,5143],[50.3,5195],[50.3,5246],[50.3,5298],[50.3,5349],[50.3,5401],[50.3,5452],[50.3,5504],[51.2,5556],[53,5607],[54.7,5658],[55.6,5710],[58.1,5761],[59.9,5813],[60.9,5864],[62,5915],[63.4,5967],[64.9,6018],[65.9,6070],[66.8,6121],[67.7,6173],[68.1,6224],[68.2,6275],[68.4,6326],[68.7,6378],[68.8,6429],[68.9,6481],[68.9,6533],[68.9,6584],[68.9,6635],[68.9,6687],[68.9,6738],[68.9,6790],[69.1,6841],[69.3,6892],[69.4,6944],[69.5,6996],[69.8,7047],[69.8,7098],[70.2,7150],[70.9,7201],[71.2,7252],[71.4,7304],[71.7,7356],[71.8,7407],[72.3,7458],[72.8,7510],[73.1,7562],[73.4,7613],[73.6,7664],[73.6,7716],[73.6,7767],[73.6,7818],[73.6,7870],[73.6,7921],[73.6,7973],[73.6,8024],[73.6,8075],[73.6,8127],[73.6,8178],[73.6,8230],[73.6,8281],[73.6,8333],[73.6,8384],[73.6,8435],[73.6,8487],[73.6,8538],[73.6,8590],[73.6,8642],[73.5,8693],[73.4,8744],[73.4,8796],[73.4,8847],[73.4,8899],[73.4,8950],[73.4,9002],[73.4,9053],[73.4,9104],[73.3,9156],[73.2,9207],[73.1,9260],[73.1,9310],[73.1,9361],[73,9413],[73,9464],[73,9516],[73,9567],[73,9619],[73,9670],[73,9721],[72.6,9774],[71.7,9825],[67.6,9876],[57.2,9928],[42.3,9979],[27.5,10031],[20.2,10082],[19.8,10133],[19.8,10184],[19.8,10236],[19.8,10287],[19.8,10339],[19.8,10390],[19.8,10442],[19.8,10493],[19.8,10545],[19.8,10596],[19.8,10647],[19.8,10699],[19.8,10750],[19.8,10802],[19.8,10853],[19.8,10905],[19.8,10956],[19.8,11007],[19.8,11059],[19.8,11110],[19.8,11162],[19.8,11213],[19.8,11265],[19.8,11316],[19.8,11367],[19.8,11419],[19.8,11470],[19.8,11522],[19.8,11573],[19.8,11625],[19.8,11677],[19.8,11727],[19.8,11779],[19.8,11830],[19.8,11882],[19.8,11934],[19.8,11985],[19.8,12036],[19.8,12088],[19.8,12139],[19.8,12191],[19.8,12242],[19.8,12294],[19.8,12345],[19.8,12396],[19.8,12448],[19.8,12499],[19.8,12551],[19.8,12602],[19.8,12653],[19.8,12705],[19.8,12757],[19.8,12808],[19.8,12859],[19.8,12911],[19.8,12962],[19.8,13014],[19.8,13065],[19.8,13116],[19.8,13168],[19.8,13220],[19.8,13271],[19.8,13322],[19.8,13374],[19.8,13425],[19.8,13476],[19.8,13528],[19.8,13580],[19.8,13631],[19.8,13683],[19.8,13734],[19.8,13785],[19.8,13837],[19.8,13888],[19.8,13940],[19.8,13991],[19.8,14043],[19.8,14094],[19.8,14146],[19.8,14197],[19.8,14248],[19.8,14302],[19.8,14351],[19.8,14403],[19.8,14454],[19.8,14506],[19.8,14557],[19.8,14608],[19.8,14660],[19.8,14711],[19.8,14763],[19.8,14814],[19.8,14868],[19.8,14917],[19.8,14968],[19.8,15020],[19.8,15071],[19.8,15123],[19.8,15174],[19.8,15226],[19.8,15277],[19.8,15328],[19.8,15380],[19.8,15431],[19.8,15483],[19.8,15534],[19.8,15586],[19.8,15637],[19.8,15688],[19.8,15740],[19.8,15791],[19.8,15843],[19.8,15894],[19.8,15946],[19.8,15998],[19.8,16048],[19.8,16100],[19.8,16151],[19.8,16203],[19.8,16254],[19.8,16306],[19.8,16357],[19.8,16409],[19.8,16460],[19.8,16511],[19.8,16563],[19.8,16614],[19.8,16666],[19.8,16717],[19.8,16769],[19.8,16820],[19.8,16871],[19.8,16923],[19.8,16974],[19.8,17026],[19.8,17077],[19.8,17129],[19.8,17181],[19.8,17232],[19.8,17283],[19.8,17335],[19.8,17386],[19.8,17437],[19.8,17489],[19.8,17540],[19.8,17592],[19.8,17643],[19.8,17694],[19.8,17746],[19.8,17797],[19.8,17849],[19.8,17900],[19.8,17952],[19.8,18003],[19.8,18055],[19.8,18106],[19.8,18157],[19.8,18209],[19.8,18260],[19.8,18312],[19.8,18364],[19.8,18415],[19.8,18466],[19.8,18518],[19.8,18569],[19.8,18620],[19.8,18672],[19.8,18723],[19.8,18775],[19.8,18826],[19.8,18878],[19.8,18929],[19.8,18980],[19.8,19032],[19.8,19083],[19.8,19135],[19.8,19187],[19.8,19238],[19.8,19289],[19.8,19341],[19.8,19392],[19.8,19443],[19.8,19495],[19.8,19549],[19.8,19598],[19.8,19649],[19.8,19701],[19.8,19752],[19.8,19804],[19.8,19855],[19.8,19906],[19.8,19958],[19.8,20009],[19.8,20061],[19.8,20112],[19.8,20164],[19.8,20215],[19.8,20267],[19.8,20318],[19.8,20369],[19.8,20421],[19.8,20472],[19.8,20524],[19.8,20575],[19.8,20626],[19.8,20678],[19.8,20730],[19.8,20781],[19.8,20832],[19.8,20884],[19.8,20935],[19.8,20987]]",986.8182,989.0872,19.76744186,0.3827,"[{""rating"":19.76744186046512,""responseTime"":0.3826999998092333}]",space,1.7545,,989.0872,Not at all,0,989.0881,,,[],,0,16,16,16,1,audio/Narrative8Situation7.wav,audio/Narrative7Situation7.wav,audio/Narrative6Situation7.wav,audio/Narrative5Situation7.wav,3,5,5,4,,,,,,,,,,,,,,,,,,,,,,,,,,,,,,,,,,,,,,,
,,,,,6673188102ed2340e6e813ff,2025-07-07_23h20.18.253,group3.4_multiperson,2023.2.2,Win32,113.6363636,686c2ebf0248f13bef9af11f,686c8e5a215910a865954bf7,,,,,,,,,,,,,,,,,,,,,,,,,,,,,989.0883,2,audio/Narrative5Situation8.wav,992.0931,,992.0931,1000.8949,"[[999,0],[999,51],[999,103],[999,154],[999,206],[999,257],[999,308],[999,360],[999,411],[999,463],[999,514],[999,565],[999,617],[999,669],[999,720],[55.3,772],[51.7,823],[50.2,875],[50,925],[50,977],[50,1029],[50,1080],[50.4,1132],[51,1183],[51.5,1235],[51.6,1285],[51.6,1338],[51.6,1388],[51.6,1440],[51.6,1491],[51.6,1543],[51.6,1594],[51.6,1645],[51.6,1697],[51.6,1748],[51.6,1800],[51.6,1851],[51.6,1903],[51.6,1954],[51.6,2006],[51.6,2058],[51.6,2108],[51.6,2160],[51.6,2211],[51.6,2263],[51.6,2314],[51.6,2366],[51.6,2418],[51.6,2469],[51.6,2520],[51.6,2571],[51.6,2623],[51.6,2674],[51.6,2726],[51.6,2777],[51.6,2829],[51.6,2880],[51.6,2932],[51.6,2983],[51.6,3035],[51.6,3086],[51.6,3137],[51.6,3189],[51.6,3240],[51.6,3292],[51.6,3343],[51.6,3394],[51.6,3446],[51.6,3497],[51.6,3549],[51.6,3600],[51.6,3652],[51.6,3703],[51.6,3754],[51.6,3806],[51.6,3857],[51.6,3909],[51.6,3960],[51.6,4012],[51.6,4063],[51.6,4115],[51.6,4166],[51.6,4218],[51.6,4269],[51.6,4320],[51.6,4372],[51.6,4423],[51.6,4475],[51.6,4526],[51.6,4578],[51.6,4629],[51.6,4680],[51.6,4732],[51.6,4783],[51.6,4835],[51.6,4886],[51.6,4938],[51.6,4989],[51.6,5040],[51.6,5092],[51.6,5143],[51.6,5195],[51.6,5247],[51.6,5298],[51.6,5349],[51.6,5401],[51.6,5452],[51.6,5504],[51.6,5555],[51.6,5606],[51.6,5658],[51.6,5709],[51.6,5761],[51.6,5812],[51.6,5864],[51.6,5915],[51.6,5966],[51.6,6018],[51.6,6069],[51.6,6121],[51.6,6172],[51.6,6224],[51.6,6275],[51.6,6326],[51.6,6378],[51.6,6429],[51.6,6481],[51.6,6532],[51.6,6584],[51.6,6635],[51.6,6687],[51.6,6738],[51.6,6789],[51.6,6841],[51.6,6892],[51.6,6944],[51.6,6995],[51.6,7047],[51.6,7098],[51.6,7149],[51.6,7201],[51.6,7252],[51.6,7304],[51.6,7356],[51.6,7407],[51.6,7458],[51.6,7510],[51.6,7561],[51.6,7612],[51.6,7664],[51.6,7715],[51.6,7767],[51.6,7818],[51.6,7870],[51.6,7921],[51.6,7973],[51.6,8024],[51.6,8075],[51.6,8127],[51.6,8178],[51.6,8230],[51.6,8281],[51.6,8333],[51.6,8384],[51.6,8435],[51.6,8487],[51.6,8538],[51.6,8590],[51.6,8642],[51.6,8693],[51.6,8746],[51.6,8796]]",1000.895,1004.1641,0.23255814,1.877,"[{""rating"":0.23255813953488302,""responseTime"":1.8769999999999527}]",space,2.7499,,1004.1641,Definitely yes,100,1004.1652,,,[],,0,17,17,17,1,audio/Narrative8Situation8.wav,audio/Narrative7Situation8.wav,audio/Narrative6Situation8.wav,audio/Narrative5Situation8.wav,3,2,5,3,,,,,,,,,,,,,,,,,,,,,,,,,,,,,,,,,,,,,,,
,,,,,6673188102ed2340e6e813ff,2025-07-07_23h20.18.253,group3.4_multiperson,2023.2.2,Win32,113.6363636,686c2ebf0248f13bef9af11f,686c8e5a215910a865954bf7,,,,,,,,,,,,,,,,,,,,,,,,,,,,,1004.1653,2,audio/Narrative5Situation9.wav,1007.1705,,1007.1705,1046.6929,"[[999,0],[999,51],[999,103],[999,154],[999,206],[999,257],[999,308],[999,359],[999,411],[999,462],[999,514],[999,565],[999,617],[999,668],[999,720],[999,771],[999,823],[999,875],[999,926],[999,978],[999,1029],[999,1080],[999,1132],[999,1183],[999,1234],[999,1286],[999,1337],[999,1388],[999,1440],[999,1492],[53.5,1543],[53.4,1594],[53.4,1646],[53.4,1697],[53.4,1748],[53.4,1800],[53.4,1851],[53.3,1903],[51.7,1955],[47.7,2006],[41.4,2058],[37.5,2109],[36.1,2162],[34.2,2212],[32.4,2263],[29.8,2315],[28.5,2366],[28.4,2417],[28.4,2469],[28.4,2520],[28.4,2572],[28.4,2623],[28.4,2674],[28.4,2726],[28.4,2777],[28.4,2829],[28.4,2880],[28.4,2932],[28.4,2983],[28.4,3034],[28.4,3086],[28.4,3137],[28.4,3189],[28.4,3240],[28.4,3291],[28.4,3343],[28.4,3394],[28.4,3446],[28.4,3497],[28.4,3549],[28.4,3600],[28.4,3651],[28.4,3703],[28.4,3755],[28.4,3806],[28.4,3858],[28.3,3909],[28.3,3960],[28.3,4012],[28.3,4063],[28.3,4115],[28.3,4166],[28.3,4217],[28.3,4269],[28.3,4320],[28.3,4372],[28.3,4423],[28.3,4475],[28.3,4526],[28.3,4577],[28.3,4629],[28.3,4680],[28.3,4732],[28.3,4784],[28.3,4835],[28.3,4886],[28.3,4938],[28.3,4989],[28.3,5040],[28.3,5092],[28.3,5144],[28.3,5195],[28.3,5246],[28.3,5298],[28.6,5352],[31.8,5401],[37.8,5453],[44.2,5504],[49.4,5555],[52.8,5607],[57.9,5658],[64.7,5710],[72.6,5761],[80.3,5813],[85.2,5864],[88.8,5916],[91,5967],[94.1,6021],[96.4,6070],[99.7,6121],[100,6173],[100,6224],[100,6275],[100,6326],[100,6378],[100,6429],[100,6481],[100,6532],[100,6584],[100,6635],[100,6686],[100,6738],[100,6789],[100,6841],[100,6893],[100,6944],[100,6995],[100,7047],[100,7098],[100,7150],[100,7201],[100,7252],[100,7304],[100,7355],[100,7407],[100,7458],[100,7510],[100,7561],[100,7612],[100,7664],[100,7715],[100,7767],[100,7818],[100,7870],[100,7921],[100,7972],[100,8024],[100,8075],[100,8127],[100,8178],[100,8230],[100,8281],[100,8333],[100,8384],[100,8436],[100,8487],[100,8538],[100,8590],[100,8641],[100,8693],[100,8744],[100,8795],[100,8847],[100,8898],[100,8950],[100,9001],[100,9053],[100,9104],[100,9156],[100,9207],[100,9258],[100,9310],[100,9361],[100,9413],[100,9464],[100,9516],[100,9568],[100,9619],[100,9670],[100,9721],[100,9773],[100,9824],[100,9876],[100,9927],[100,9979],[100,10030],[100,10082],[100,10133],[100,10184],[100,10238],[100,10288],[100,10339],[100,10390],[100,10442],[100,10493],[100,10544],[100,10596],[100,10647],[100,10699],[100,10750],[100,10802],[100,10853],[100,10905],[100,10956],[100,11007],[100,11059],[100,11111],[100,11162],[100,11213],[100,11265],[100,11316],[99.9,11367],[99.9,11419],[99.9,11470],[99.9,11522],[99.9,11573],[99.9,11625],[99.9,11676],[99.9,11727],[99.9,11779],[99.9,11830],[99.9,11882],[99.9,11933],[99.9,11985],[99.9,12036],[99.9,12088],[99.9,12139],[99.9,12191],[99.9,12242],[99.9,12293],[99.9,12345],[99.9,12396],[99.9,12448],[99.9,12499],[99.9,12551],[99.9,12602],[99.9,12653],[99.9,12705],[99.9,12756],[99.9,12808],[99.9,12859],[99.9,12911],[99.9,12962],[99.9,13014],[99.9,13065],[99.9,13116],[99.9,13168],[99.9,13219],[99.9,13271],[99.9,13322],[99.9,13374],[99.9,13425],[99.9,13476],[99.9,13528],[99.9,13579],[99.9,13631],[99.9,13682],[99.9,13734],[99.9,13785],[99.9,13836],[99.9,13888],[99.9,13939],[99.9,13991],[99.9,14042],[99.9,14094],[99.9,14145],[99.9,14197],[99.9,14248],[99.9,14299],[99.9,14351],[99.9,14402],[99.9,14454],[99.9,14505],[99.9,14557],[99.9,14608],[99.9,14660],[99.9,14711],[99.9,14762],[99.9,14814],[99.9,14865],[99.9,14917],[99.9,14968],[99.9,15020],[99.9,15071],[99.9,15123],[99.9,15174],[99.9,15226],[99.9,15277],[99.9,15328],[99.9,15380],[99.9,15432],[99.9,15483],[99.9,15534],[99.9,15585],[99.9,15637],[99.9,15688],[99.9,15740],[99.9,15792],[99.9,15843],[99.9,15894],[99.9,15945],[99.9,15997],[99.9,16049],[99.9,16100],[99.9,16151],[99.9,16203],[99.9,16254],[99.9,16306],[99.9,16357],[99.9,16408],[99.9,16460],[99.9,16512],[99.8,16563],[99.8,16614],[99.8,16666],[99.8,16717],[99.8,16769],[99.8,16820],[99.8,16871],[99.8,16923],[99.8,16975],[99.8,17026],[99.8,17077],[99.8,17129],[99.8,17180],[99.8,17231],[99.8,17283],[99.8,17334],[99.8,17386],[99.8,17438],[99.8,17489],[99.8,17540],[99.8,17592],[99.8,17643],[99.8,17695],[99.8,17746],[99.8,17797],[99.8,17849],[99.8,17901],[99.8,17952],[99.8,18003],[99.8,18055],[99.8,18106],[99.8,18157],[99.8,18209],[99.8,18260],[99.8,18312],[99.8,18363],[99.8,18415],[99.8,18466],[99.8,18517],[99.8,18569],[99.8,18620],[99.8,18672],[99.8,18723],[99.8,18775],[99.8,18826],[99.8,18877],[99.8,18929],[99.8,18980],[99.8,19032],[99.8,19083],[99.8,19135],[99.8,19186],[99.8,19238],[99.6,19289],[99.6,19340],[99.6,19392],[99.6,19443],[99.6,19495],[99.6,19546],[99.6,19598],[99.6,19651],[99.6,19701],[99.6,19752],[99.6,19803],[99.6,19855],[99.6,19906],[99.6,19958],[99.6,20009],[99.6,20061],[99.6,20112],[99.6,20164],[99.6,20215],[99.6,20266],[99.6,20318],[99.6,20370],[99.6,20421],[99.6,20472],[99.6,20524],[99.6,20575],[99.6,20626],[99.6,20678],[99.6,20729],[99.6,20781],[99.6,20832],[99.6,20884],[99.6,20935],[99.6,20986],[99.6,21039],[99.6,21090],[99.6,21141],[99.6,21193],[99.6,21244],[99.6,21295],[99.6,21347],[99.6,21398],[99.6,21450],[99.6,21501],[99.6,21552],[99.6,21604],[99.6,21655],[99.6,21707],[99.6,21759],[99.6,21810],[99.6,21861],[99.6,21912],[99.6,21964],[99.6,22015],[99.6,22067],[99.6,22118],[99.6,22170],[99.6,22221],[99.6,22273],[99.6,22324],[99.6,22375],[99.6,22427],[99.6,22478],[99.6,22530],[99.6,22581],[99.6,22633],[99.6,22684],[99.6,22735],[99.6,22787],[99.6,22838],[99.6,22890],[99.6,22941],[99.6,22993],[99.6,23044],[99.6,23095],[99.6,23147],[99.6,23199],[99.6,23250],[99.6,23301],[99.6,23353],[99.6,23404],[99.6,23456],[99.6,23508],[99.6,23559],[99.6,23610],[99.6,23662],[99.6,23713],[99.6,23765],[99.6,23816],[99.6,23867],[99.6,23919],[99.6,23970],[99.3,24021],[99.3,24073],[99.3,24124],[99.3,24176],[99.3,24227],[99.3,24279],[99.3,24330],[99.3,24382],[99.3,24433],[99.3,24484],[99.3,24536],[99.3,24587],[99.3,24639],[99.3,24690],[99.3,24742],[99.3,24793],[99.3,24845],[99.3,24896],[99.3,24947],[99.3,24999],[99.3,25050],[99.3,25102],[99.3,25154],[99.3,25204],[99.3,25256],[99.3,25307],[99.3,25359],[99.3,25410],[99.3,25462],[99.3,25513],[99.3,25565],[99.3,25616],[99.3,25667],[99.3,25719],[99.3,25771],[99.3,25822],[99.3,25873],[99.3,25925],[99.3,25976],[99.3,26028],[99.3,26079],[99.3,26130],[99.3,26182],[99.3,26234],[99.3,26285],[99.3,26336],[99.3,26388],[99.3,26439],[99.3,26491],[99.3,26542],[99.3,26593],[99.3,26645],[99.3,26697],[99.3,26748],[99.3,26799],[99.3,26851],[99.3,26902],[99.3,26954],[99.3,27005],[99.3,27057],[99.3,27108],[99.3,27159],[99.3,27211],[99.3,27262],[99.3,27313],[99.3,27365],[99.3,27416],[99.3,27468],[99.3,27519],[99.3,27571],[99.3,27622],[99.3,27674],[99.3,27725],[99.3,27776],[99.3,27828],[99.3,27879],[99.3,27931],[99.3,27982],[99.3,28034],[99.3,28085],[99.3,28137],[99.3,28188],[99.3,28240],[99.3,28291],[99.3,28342],[99.3,28394],[99.3,28445],[99.3,28497],[99.3,28548],[99.3,28600],[99.3,28651],[99.3,28702],[99.3,28754],[99.3,28805],[99.3,28857],[99.3,28908],[99.3,28960],[99.3,29011],[99.3,29063],[99.3,29114],[99.3,29165],[99.3,29217],[99.3,29268],[99.3,29320],[99.3,29371],[99.3,29426],[99.3,29474],[99.3,29525],[99.3,29577],[99.3,29629],[99.3,29680],[99.3,29731],[99.3,29783],[99.3,29834],[99.3,29886],[99.3,29954],[99.3,30005],[99.3,30057],[99.3,30108],[99.3,30160],[99.3,30211],[99.3,30263],[99.3,30315],[99.3,30366],[99.3,30417],[99.3,30468],[99.3,30520],[99.3,30571],[99.3,30623],[99.3,30674],[99.3,30726],[99.3,30777],[99.3,30829],[99.3,30880],[99.3,30932],[99.3,30983],[99.3,31034],[99.3,31086],[99.3,31137],[99.3,31189],[99.3,31240],[99.3,31291],[99.3,31343],[99.3,31394],[99.3,31447],[99.3,31497],[99.3,31549],[99.3,31603],[99.3,31651],[99.3,31703],[99.3,31754],[99.3,31806],[99.3,31857],[99.3,31909],[99.3,31960],[99.3,32012],[99.3,32063],[99.3,32114],[99.3,32166],[99.3,32217],[99.3,32269],[99.3,32320],[99.3,32372],[99.3,32423],[99.3,32477],[99.3,32526],[99.3,32577],[99.3,32629],[99.3,32680],[99.3,32732],[99.3,32784],[99.3,32835],[99.3,32886],[99.3,32938],[99.3,32989],[99.3,33041],[99.3,33092],[99.3,33143],[99.3,33195],[99.3,33246],[99.3,33299],[99.3,33349],[99.3,33401],[99.3,33452],[99.3,33503],[99.3,33555],[99.3,33606],[99.3,33658],[99.3,33709],[99.3,33761],[99.3,33812],[99.3,33863],[99.3,33915],[99.3,33966],[99.3,34018],[99.3,34069],[99.3,34121],[99.3,34172],[99.3,34224],[99.3,34275],[99.3,34327],[99.3,34378],[99.3,34429],[99.3,34481],[99.3,34532],[99.3,34584],[99.3,34635],[99.3,34686],[99.3,34738],[99.3,34789],[99.3,34841],[99.3,34892],[99.3,34944],[99.3,34995],[99.3,35047],[99.3,35098],[99.3,35150],[99.3,35201],[99.3,35252],[99.3,35304],[99.3,35356],[99.3,35407],[99.3,35458],[99.3,35510],[99.3,35561],[99.3,35613],[99.3,35664],[99.3,35715],[99.3,35767],[99.3,35818],[99.3,35870],[99.3,35921],[99.2,35973],[99.2,36024],[99.2,36075],[99.2,36127],[99.2,36178],[99.2,36230],[99.2,36281],[99.2,36333],[99.2,36384],[99.2,36435],[99.2,36487],[99.2,36538],[99.2,36590],[99.2,36641],[99.2,36693],[99.2,36744],[99.2,36795],[99.2,36847],[99.2,36898],[99.2,36950],[99.2,37001],[99.2,37053],[99.2,37104],[99.2,37156],[99.2,37207],[99.2,37258],[99.2,37310],[99.2,37361],[99.2,37413],[99.2,37464],[99.2,37516],[99.2,37567],[99.2,37619],[99.2,37670],[99.2,37721],[99.2,37773],[99.2,37824],[99.2,37876],[99.2,37927],[99.2,37979],[99.2,38030],[99.2,38081],[99.2,38133],[99.2,38184],[99.2,38236],[99.2,38287],[99.2,38339],[99.2,38390],[99.2,38441],[99.2,38493],[99.2,38544],[99.2,38596],[99.2,38647],[99.2,38699],[99.2,38750],[99.2,38802],[99.2,38853],[99.2,38905],[99.2,38956],[99.2,39008],[99.2,39059],[99.2,39110],[99.2,39162],[99.2,39213],[99.2,39265],[99.2,39317],[99.2,39367],[99.2,39419],[99.2,39470],[99.2,39522]]",1046.693,1050.6728,99.70930233,2.3973,"[{""rating"":99.70930232558139,""responseTime"":2.397299999952338}]",space,3.469,,1050.6728,Not at all,0,1050.6737,,,[],,0,18,18,18,1,audio/Narrative8Situation9.wav,audio/Narrative7Situation9.wav,audio/Narrative6Situation9.wav,audio/Narrative5Situation9.wav,3,2,4,3,,,,,,,,,,,,,,,,,,,,,,,,,,,,,,,,,,,,,,,
,,,,,6673188102ed2340e6e813ff,2025-07-07_23h20.18.253,group3.4_multiperson,2023.2.2,Win32,113.6363636,686c2ebf0248f13bef9af11f,686c8e5a215910a865954bf7,,,,,,,,,,,,,,,,,,,,,,,,,,,,,,,,,,,,,,,,,,,,,,,,,,,,,,,,,,,,,,,,,,,,,,1050.6738,1064.1995,space,13.0217,,1064.1996,1077.3971,space,12.8933,,,,,,,,,,,,,,,,,,,,,,,,,,
