consent.started,consent.stopped,consentResponse.keys,consentResponse.rt,consentResponse.duration,participantID,date,expName,psychopyVersion,OS,frameRate,STUDY_ID,SESSION_ID,opening1.started,opening1.stopped,keyEndingOpening1.keys,keyEndingOpening1.rt,keyEndingOpening1.duration,volumeAdjust.started,volumeAdjust.stopped,endingAdjust.keys,endingAdjust.rt,endingAdjust.duration,opening2.started,opening2.stopped,keyEndingOpening.keys,keyEndingOpening.rt,keyEndingOpening.duration,mouse.x,mouse.y,mouse.leftButton,mouse.midButton,mouse.rightButton,mouse.time,instructionLoop.thisRepN,instructionLoop.thisTrialN,instructionLoop.thisN,instructionLoop.thisIndex,instructionLoop.ran,readyForAudio.started,readyForAudio.stopped,fixation.started,run,audio_played,fixation.stopped,endPractice.keys,audioPre.started,audioPre.stopped,continuousResponses_audio,intRating.started,intRating.stopped,intQuestionSlider.response,intQuestionSlider.rt,intQuestionSlider.history,confirmResponse.keys,confirmResponse.rt,confirmResponse.duration,catchQuestion.started,catch_label,catch_value,catchQuestion.stopped,catchQuestionSlider.response,catchQuestionSlider.rt,catchQuestionSlider.history,confirmResponse_2.keys,audioRunLoop.thisRepN,audioRunLoop.thisTrialN,audioRunLoop.thisN,audioRunLoop.thisIndex,audioRunLoop.ran,conditions1_1,conditions2_1,conditions1_2,conditions2_2,dur1_1,dur2_1,dur1_2,dur2_2,endPractice.rt,endPractice.duration,confirmResponse_2.rt,confirmResponse_2.duration,runIntervalBreak.started,runIntervalBreak.stopped,endingBreakKey.keys,endingBreakKey.rt,endingBreakKey.duration,connection.started,connection.stopped,connectionEnding.keys,connectionEnding.rt,connectionEnding.duration,readyForText.started,readyForText.stopped,textPre.started,run_dup,textPre.stopped,continuousResponses_text,textRunLoop.thisRepN,textRunLoop.thisTrialN,textRunLoop.thisN,textRunLoop.thisIndex,textRunLoop.ran,text1_1,text1_2,text2_1,text2_2,runBreakText.started,runBreakText.stopped,endingBreakKey_2.keys,endingBreakKey_2.rt,endingBreakKey_2.duration,ending.started,ending.stopped,endingEnding.keys,endingEnding.rt,endingEnding.duration
0.0002,5.9912,y,5.687,,66823a439b3e59a13b37a28f,2025-07-07_20h32.13.379,group3.4_multiperson,2023.2.2,Win32,166.6666667,686c2ebf0248f13bef9af11f,686c912332026250d29b08de,,,,,,,,,,,,,,,,,,,,,,,,,,,,,,,,,,,,,,,,,,,,,,,,,,,,,,,,,,,,,,,,,,,,,,,,,,,,,,,,,,,,,,,,,,,,,,,,,,,,,,,,
,,,,,66823a439b3e59a13b37a28f,2025-07-07_20h32.13.379,group3.4_multiperson,2023.2.2,Win32,166.6666667,686c2ebf0248f13bef9af11f,686c912332026250d29b08de,5.9914,18.9545,space,12.9427,,,,,,,,,,,,,,,,,,,,,,,,,,,,,,,,,,,,,,,,,,,,,,,,,,,,,,,,,,,,,,,,,,,,,,,,,,,,,,,,,,,,,,,,,,,,,,,,,,,,
,,,,,66823a439b3e59a13b37a28f,2025-07-07_20h32.13.379,group3.4_multiperson,2023.2.2,Win32,166.6666667,686c2ebf0248f13bef9af11f,686c912332026250d29b08de,,,,,,18.9546,32.5603,space,13.2991,,,,,,,,,,,,,,,,,,,,,,,,,,,,,,,,,,,,,,,,,,,,,,,,,,,,,,,,,,,,,,,,,,,,,,,,,,,,,,,,,,,,,,,,,,,,,,,
,,,,,66823a439b3e59a13b37a28f,2025-07-07_20h32.13.379,group3.4_multiperson,2023.2.2,Win32,166.6666667,686c2ebf0248f13bef9af11f,686c912332026250d29b08de,,,,,,,,,,,32.5628,42.4526,space,9.8786,,[],[],[],[],[],[],0,0,0,0,1,,,,,,,,,,,,,,,,,,,,,,,,,,,,,,,,,,,,,,,,,,,,,,,,,,,,,,,,,,,,,,,,,,,,,,,,,,,,,,
,,,,,66823a439b3e59a13b37a28f,2025-07-07_20h32.13.379,group3.4_multiperson,2023.2.2,Win32,166.6666667,686c2ebf0248f13bef9af11f,686c912332026250d29b08de,,,,,,,,,,,42.4528,65.6264,space,23.1176,,[],[],[],[],[],[],1,0,1,0,1,,,,,,,,,,,,,,,,,,,,,,,,,,,,,,,,,,,,,,,,,,,,,,,,,,,,,,,,,,,,,,,,,,,,,,,,,,,,,,
,,,,,66823a439b3e59a13b37a28f,2025-07-07_20h32.13.379,group3.4_multiperson,2023.2.2,Win32,166.6666667,686c2ebf0248f13bef9af11f,686c912332026250d29b08de,,,,,,,,,,,65.6265,88.3714,space,22.7195,,[],[],[],[],[],[],2,0,2,0,1,,,,,,,,,,,,,,,,,,,,,,,,,,,,,,,,,,,,,,,,,,,,,,,,,,,,,,,,,,,,,,,,,,,,,,,,,,,,,,
,,,,,66823a439b3e59a13b37a28f,2025-07-07_20h32.13.379,group3.4_multiperson,2023.2.2,Win32,166.6666667,686c2ebf0248f13bef9af11f,686c912332026250d29b08de,,,,,,,,,,,88.3715,241.1627,space,152.7794,,[],[],[],[],[],[],3,0,3,0,1,,,,,,,,,,,,,,,,,,,,,,,,,,,,,,,,,,,,,,,,,,,,,,,,,,,,,,,,,,,,,,,,,,,,,,,,,,,,,,
,,,,,66823a439b3e59a13b37a28f,2025-07-07_20h32.13.379,group3.4_multiperson,2023.2.2,Win32,166.6666667,686c2ebf0248f13bef9af11f,686c912332026250d29b08de,,,,,,,,,,,241.163,252.4171,space,11.2442,,[],[],[],[],[],[],4,0,4,0,1,,,,,,,,,,,,,,,,,,,,,,,,,,,,,,,,,,,,,,,,,,,,,,,,,,,,,,,,,,,,,,,,,,,,,,,,,,,,,,
,,,,,66823a439b3e59a13b37a28f,2025-07-07_20h32.13.379,group3.4_multiperson,2023.2.2,Win32,166.6666667,686c2ebf0248f13bef9af11f,686c912332026250d29b08de,,,,,,,,,,,252.4173,261.1986,space,8.7749,,[],[],[],[],[],[],5,0,5,0,1,,,,,,,,,,,,,,,,,,,,,,,,,,,,,,,,,,,,,,,,,,,,,,,,,,,,,,,,,,,,,,,,,,,,,,,,,,,,,,
,,,,,66823a439b3e59a13b37a28f,2025-07-07_20h32.13.379,group3.4_multiperson,2023.2.2,Win32,166.6666667,686c2ebf0248f13bef9af11f,686c912332026250d29b08de,,,,,,,,,,,,,,,,,,,,,,,,,,,261.1996,263.7805,263.7925,1,audio/Narrative13Situation2.wav,265.7928,,265.7928,295.5195,"[[28.3,106],[28.4,187],[28.6,276],[29.3,357],[29.3,442],[29.3,527],[29.3,612],[29.3,696],[29.3,781],[29,868],[29.1,953],[29.7,1036],[30.3,1122],[30.3,1205],[31.9,1290],[33.8,1377],[34,1462],[34.6,1545],[35.6,1629],[36,1715],[36.5,1799],[36.5,1884],[36.5,1971],[36.5,2055],[36.5,2139],[36.5,2223],[35.8,2312],[35.8,2393],[35.7,2478],[35.7,2563],[35.7,2648],[35.7,2733],[36.1,2817],[36.1,2902],[37.2,2987],[37.2,3072],[37.6,3159],[39.1,3244],[42,3328],[42.5,3411],[50.1,3498],[51.5,3583],[52.4,3666],[52.4,3751],[52.4,3835],[52.6,3920],[54.2,4005],[56.4,4092],[56.5,4177],[56.5,4260],[55.8,4347],[55.3,4429],[54,4514],[53.5,4599],[53.5,4684],[53.5,4769],[53.5,4854],[53.5,4939],[53.5,5023],[54.5,5110],[56,5195],[60.2,5280],[66.3,5365],[68.2,5447],[72.6,5532],[72.6,5619],[72.6,5702],[72.6,5787],[72.6,5872],[72.6,5957],[72.6,6042],[72.6,6126],[72.6,6211],[72.6,6296],[72.6,6381],[72.6,6466],[72.6,6551],[72.6,6636],[72.6,6720],[72.6,6805],[72.6,6890],[72.6,6975],[72.6,7060],[72.6,7144],[72.6,7229],[73.6,7316],[75,7399],[76.1,7486],[78.6,7571],[79.9,7656],[81.1,7741],[84.3,7825],[86.6,7910],[87.5,7993],[87.6,8078],[87.6,8163],[87.6,8247],[87.6,8332],[87.6,8417],[87.6,8502],[91.4,8587],[92.2,8674],[94.2,8760],[96,8845],[98,8930],[99.7,9011],[100,9100],[100,9181],[100,9266],[100,9351],[100,9435],[100,9520],[100,9605],[100,9690],[100,9776],[100,9861],[100,9944],[100,10029],[100,10114],[100,10199],[100,10286],[100,10369],[100,10454],[100,10538],[100,10624],[100,10708],[100,10795],[100,10878],[100,10963],[100,11047],[100,11132],[100,11217],[100,11302],[100,11387],[100,11472],[100,11557],[100,11641],[100,11726],[100,11811],[100,11896],[100,11981],[100,12066],[100,12150],[100,12235],[100,12321],[100,12405],[100,12490],[100,12575],[100,12661],[100,12744],[100,12829],[100,12914],[100,12999],[100,13084],[100,13168],[100,13254],[100,13338],[100,13423],[100,13508],[100,13593],[100,13678],[100,13763],[100,13847],[100,13932],[100,14017],[100,14102],[100,14187],[100,14272],[100,14357],[100,14441],[100,14526],[100,14611],[100,14697],[100,14781],[100,14866],[100,14951],[100,15037],[100,15120],[100,15205],[100,15290],[100,15375],[100,15459],[100,15544],[100,15629],[100,15714],[100,15799],[100,15884],[100,15969],[100,16053],[100,16138],[100,16223],[100,16308],[100,16393],[100,16478],[100,16562],[100,16647],[100,16732],[100,16817],[100,16902],[100,16987],[100,17072],[100,17156],[100,17241],[100,17326],[100,17411],[100,17496],[100,17581],[100,17666],[100,17750],[100,17835],[100,17920],[100,18005],[100,18090],[100,18175],[100,18259],[100,18344],[100,18429],[100,18514],[100,18599],[100,18684],[100,18769],[100,18853],[100,18938],[100,19023],[100,19108],[100,19193],[100,19278],[100,19362],[100,19447],[100,19532],[100,19617],[100,19702],[100,19787],[100,19872],[100,19956],[100,20041],[100,20126],[100,20211],[100,20296],[100,20381],[100,20466],[100,20550],[100,20635],[100,20720],[100,20805],[100,20890],[82.8,20976],[62.2,21061],[54,21146],[49.1,21231],[44.3,21316],[43.3,21399],[35.9,21486],[27.8,21571],[16.7,21655],[8.2,21740],[3,21825],[2.7,21908],[1.3,21993],[1.3,22078],[1.3,22163],[1.3,22247],[1.3,22332],[1.3,22417],[1.9,22505],[2,22587],[2.4,22672],[2.7,22756],[3.1,22841],[3.2,22926],[3.5,23011],[4.6,23098],[9.5,23182],[23.8,23267],[32.2,23352],[33.4,23435],[50.5,23522],[53.8,23607],[53.8,23689],[55,23776],[55,23859],[55,23944],[55,24029],[55,24114],[55,24199],[55,24284],[55,24369],[55,24453],[55,24538],[55,24623],[55,24708],[55,24793],[55,24878],[55,24962],[55,25047],[55,25132],[55,25217],[55,25302],[55,25387],[55,25471],[54.6,25558],[51.1,25643],[48.9,25726],[48.1,25811],[45.2,25898],[45,25980],[45,26067],[46.6,26152],[49.1,26237],[50.1,26320],[50.2,26405],[50.2,26490],[50.2,26574],[50.3,26659],[50.5,26744],[50.5,26829],[50.5,26914],[50.5,26999],[50.5,27084],[50.5,27168],[50.5,27253],[50.5,27338],[50.5,27427],[50.5,27508],[50.5,27593],[50.5,27677],[50.5,27762],[50.5,27847],[50.5,27932],[50.5,28017],[50.5,28102],[50.5,28187],[50.5,28271],[50.5,28356],[50.5,28441],[50.5,28526],[50.8,28613],[50.8,28696],[50.8,28781],[51.3,28865],[51.7,28950],[51.7,29035],[51.7,29120],[52.4,29205],[52.5,29290],[52.5,29375],[52.5,29459],[52.5,29544],[52.5,29629],[52.5,29714]]",295.5197,300.9738,50.41666667,3.1222,"[{""rating"":50.416666666666664,""responseTime"":3.1222000000030334}]",space,4.9413,,300.974,Not at all,0,300.9765,,,[],,0,0,0,0,1,audio/Narrative13Situation2.wav,audio/Narrative13Situation2.wav,audio/Narrative13Situation2.wav,audio/Narrative13Situation2.wav,2,2,2,2,,,,,,,,,,,,,,,,,,,,,,,,,,,,,,,,,,,,,,,
,,,,,66823a439b3e59a13b37a28f,2025-07-07_20h32.13.379,group3.4_multiperson,2023.2.2,Win32,166.6666667,686c2ebf0248f13bef9af11f,686c912332026250d29b08de,,,,,,,,,,,,,,,,,,,,,,,,,,,,,300.9766,1,audio/Narrative7Situation1.wav,303.3858,space,303.3858,359.2516,"[[999,0],[999,84],[999,169],[999,254],[999,339],[999,424],[999,509],[999,593],[999,678],[999,763],[999,848],[999,933],[999,1018],[999,1103],[999,1187],[999,1272],[999,1359],[52.5,1442],[50.8,1528],[50.6,1611],[50.6,1696],[50.6,1781],[50.6,1866],[50.6,1953],[51.7,2038],[53.6,2122],[53.6,2205],[53.6,2290],[53.6,2377],[53.6,2460],[53.9,2547],[53.9,2630],[53.9,2714],[53.9,2799],[54.5,2884],[55.5,2973],[55.5,3054],[59,3143],[59.6,3224],[59.6,3308],[58.1,3395],[55.7,3478],[55.7,3563],[55.7,3648],[53.5,3735],[52.4,3818],[49.7,3902],[49.7,3987],[49.7,4072],[49.7,4157],[49.7,4244],[49.7,4327],[49.7,4412],[49.7,4496],[49.7,4581],[49.7,4666],[49.7,4751],[49.7,4837],[49.7,4921],[49.7,5005],[49.7,5090],[49.7,5175],[49.7,5260],[49.7,5345],[49.7,5430],[49.7,5514],[50.9,5599],[50.9,5684],[50.9,5769],[50.9,5854],[50.9,5939],[51.8,6024],[52.7,6108],[52.8,6193],[52.8,6278],[52.8,6363],[52.8,6448],[52.8,6533],[52.8,6618],[52.8,6702],[52.8,6787],[52.8,6872],[52.8,6957],[52.8,7042],[52.8,7127],[52.8,7211],[52.8,7296],[52.8,7381],[52.8,7466],[52.8,7551],[52.8,7636],[52.8,7721],[52.8,7805],[52.8,7890],[52.8,7975],[70.2,8062],[82,8147],[85.1,8229],[85.1,8314],[85.1,8399],[85.1,8484],[99.7,8571],[100,8654],[100,8740],[100,8824],[100,8908],[100,8993],[100,9078],[100,9163],[100,9248],[100,9333],[100,9418],[100,9502],[100,9588],[100,9672],[100,9757],[100,9842],[100,9927],[100,10011],[100,10096],[100,10181],[100,10266],[100,10351],[100,10436],[100,10520],[100,10605],[100,10690],[100,10775],[100,10860],[100,10945],[100,11029],[100,11114],[100,11199],[100,11284],[100,11369],[100,11454],[100,11540],[100,11630],[100,11715],[100,11799],[100,11884],[100,11969],[100,12054],[100,12139],[100,12223],[100,12308],[100,12393],[100,12479],[100,12563],[100,12648],[100,12733],[100,12819],[100,12902],[100,12987],[100,13074],[100,13157],[100,13242],[100,13327],[100,13411],[100,13496],[100,13581],[100,13666],[100,13751],[100,13836],[100,13920],[100,14005],[100,14090],[100,14175],[100,14260],[100,14345],[100,14430],[100,14514],[100,14599],[100,14684],[100,14769],[100,14854],[100,14939],[100,15024],[100,15108],[100,15194],[100,15278],[100,15363],[100,15448],[100,15533],[100,15619],[100,15702],[99.8,15787],[99.8,15872],[99.8,15957],[99.8,16042],[99.8,16126],[99.8,16211],[99.8,16296],[99.8,16381],[99.8,16468],[99.8,16551],[99.8,16635],[99.8,16720],[99.8,16805],[99.8,16890],[99.8,16975],[99.5,17060],[99.5,17145],[99.5,17229],[99.5,17316],[99.5,17399],[99.5,17484],[99.5,17569],[99.5,17654],[99.5,17740],[99.5,17823],[99.5,17908],[99.5,17995],[99.5,18078],[99.5,18163],[99.5,18247],[99.5,18333],[99.5,18417],[99.5,18502],[99.5,18587],[99.5,18672],[99.5,18757],[99.5,18842],[99.5,18926],[99.5,19011],[99.5,19096],[99.5,19181],[99.5,19266],[99.5,19354],[99.5,19436],[99.5,19522],[99.5,19605],[99.5,19690],[99.5,19775],[99.2,19861],[99,19945],[99,20029],[99,20114],[99,20199],[99,20284],[99,20369],[99,20454],[99,20539],[99,20623],[100,20710],[100,20793],[100,20878],[100,20963],[100,21049],[100,21132],[100,21217],[100,21302],[100,21387],[100,21472],[100,21557],[100,21642],[100,21726],[100,21811],[100,21896],[100,21981],[100,22066],[100,22151],[100,22235],[100,22320],[100,22405],[100,22490],[100,22575],[100,22660],[100,22745],[100,22829],[100,22914],[100,22999],[100,23084],[100,23169],[100,23254],[100,23338],[100,23423],[100,23508],[100,23593],[100,23678],[100,23763],[100,23848],[100,23932],[100,24017],[100,24102],[100,24189],[100,24272],[100,24357],[100,24441],[100,24526],[100,24611],[100,24696],[100,24781],[100,24866],[100,24950],[100,25035],[100,25120],[100,25205],[100,25290],[100,25375],[100,25460],[100,25546],[100,25629],[100,25715],[100,25799],[100,25884],[100,25969],[100,26053],[100,26139],[100,26223],[100,26308],[100,26393],[100,26478],[100,26563],[100,26648],[100,26732],[100,26817],[100,26902],[100,26987],[100,27072],[100,27157],[100,27241],[100,27326],[100,27411],[100,27496],[100,27581],[100,27666],[100,27751],[100,27835],[100,27922],[100,28005],[100,28090],[100,28175],[100,28260],[100,28344],[100,28429],[100,28514],[100,28599],[100,28684],[100,28769],[100,28853],[100,28939],[100,29023],[100,29108],[100,29193],[100,29278],[100,29363],[100,29447],[100,29532],[100,29617],[100,29702],[100,29787],[100,29872],[100,29957],[100,30041],[100,30126],[100,30211],[100,30296],[100,30381],[100,30466],[100,30550],[100,30635],[100,30720],[100,30805],[100,30890],[100,30975],[100,31060],[100,31144],[100,31229],[100,31314],[100,31399],[100,31484],[100,31569],[100,31653],[100,31738],[100,31823],[100,31908],[100,31993],[100,32078],[100,32163],[100,32247],[100,32334],[100,32417],[100,32502],[100,32587],[100,32672],[100,32757],[100,32841],[100,32926],[100,33011],[100,33098],[100,33181],[100,33265],[100,33351],[100,33435],[100,33520],[100,33605],[100,33690],[100,33774],[100,33860],[100,33944],[100,34029],[100,34114],[100,34199],[100,34284],[100,34369],[100,34453],[100,34538],[100,34623],[100,34708],[100,34793],[100,34878],[100,34962],[100,35047],[100,35134],[100,35217],[100,35302],[100,35387],[100,35472],[100,35556],[100,35641],[100,35726],[100,35811],[100,35896],[100,35981],[100,36066],[100,36150],[100,36235],[100,36320],[100,36405],[100,36490],[100,36575],[100,36659],[100,36744],[100,36829],[100,36914],[100,36999],[100,37084],[100,37169],[100,37253],[100,37338],[100,37423],[100,37508],[100,37593],[100,37678],[100,37762],[100,37847],[100,37932],[100,38017],[100,38102],[100,38188],[100,38272],[100,38356],[100,38441],[100,38526],[100,38611],[100,38696],[100,38781],[100,38867],[100,38950],[100,39035],[100,39120],[100,39205],[100,39290],[100,39375],[100,39459],[100,39544],[100,39629],[100,39714],[100,39799],[100,39884],[100,39968],[100,40053],[100,40140],[100,40225],[100,40308],[100,40393],[100,40478],[100,40562],[100,40647],[100,40732],[100,40817],[100,40902],[100,40987],[100,41072],[100,41156],[100,41241],[100,41326],[100,41411],[100,41496],[100,41581],[100,41666],[100,41750],[100,41835],[100,41920],[100,42005],[100,42091],[100,42174],[100,42259],[100,42344],[100,42429],[100,42514],[100,42599],[100,42684],[100,42769],[100,42853],[100,42938],[100,43023],[100,43108],[100,43193],[100,43278],[100,43363],[100,43447],[100,43532],[100,43617],[100,43702],[100,43787],[100,43872],[100,43956],[100,44041],[100,44126],[100,44211],[100,44296],[100,44380],[100,44465],[100,44550],[100,44635],[100,44720],[100,44805],[100,44890],[100,44974],[100,45059],[100,45146],[100,45229],[100,45314],[100,45399],[100,45484],[100,45568],[100,45653],[100,45738],[100,45823],[100,45908],[100,45993],[100,46077],[100,46162],[100,46247],[100,46334],[100,46417],[100,46502],[100,46586],[100,46671],[100,46756],[100,46841],[100,46926],[100,47011],[100,47096],[100,47180],[100,47265],[100,47350],[100,47435],[100,47520],[100,47605],[100,47690],[100,47774],[100,47859],[100,47944],[100,48029],[100,48114],[100,48199],[100,48284],[100,48368],[100,48453],[100,48538],[100,48623],[100,48708],[100,48794],[100,48877],[100,48962],[100,49047],[100,49132],[100,49217],[100,49302],[100,49387],[100,49471],[100,49556],[100,49641],[100,49726],[100,49811],[100,49895],[100,49980],[100,50065],[100,50150],[100,50235],[100,50320],[100,50405],[100,50493],[100,50574],[100,50659],[100,50744],[100,50829],[100,50914],[100,50999],[100,51083],[100,51168],[100,51253],[100,51338],[100,51423],[100,51508],[100,51592],[100,51677],[100,51762],[100,51847],[100,51932],[100,52017],[100,52102],[100,52186],[100,52271],[100,52356],[100,52441],[100,52526],[100,52611],[100,52696],[100,52780],[100,52865],[100,52950],[100,53035],[100,53120],[100,53205],[100,53289],[100,53374],[100,53459],[100,53544],[100,53629],[100,53714],[100,53798],[100,53883],[100,53968],[100,54053],[100,54138],[100,54223],[100,54307],[100,54393],[100,54477],[100,54562],[100,54647],[100,54732],[100,54817],[100,54901],[100,54986],[100,55071],[100,55156],[100,55241],[100,55326],[100,55411],[100,55495],[100,55580],[100,55665],[100,55750],[100,55835]]",359.2517,364.5864,99.6875,3.1046,"[{""rating"":99.6875,""responseTime"":3.104600000001483}]",space,4.8182,,364.5865,Definitely yes,100,364.5885,,,[],,0,1,1,1,1,audio/Narrative7Situation1.wav,audio/Narrative8Situation1.wav,audio/Narrative5Situation1.wav,audio/Narrative6Situation1.wav,2,5,5,2,2.3981,,,,,,,,,,,,,,,,,,,,,,,,,,,,,,,,,,,,,,
,,,,,66823a439b3e59a13b37a28f,2025-07-07_20h32.13.379,group3.4_multiperson,2023.2.2,Win32,166.6666667,686c2ebf0248f13bef9af11f,686c912332026250d29b08de,,,,,,,,,,,,,,,,,,,,,,,,,,,,,364.5886,1,audio/Narrative7Situation2.wav,367.5908,,367.5908,375.0487,"[[100,2121],[100,2207],[99.3,2290],[99.3,2375],[99.3,2460],[99.4,2545],[100,2633],[100,2718],[100,2799],[100,2884],[100,2969],[100,3054],[100,3139],[100,3224],[100,3309],[100,3393],[100,3478],[100,3563],[100,3648],[100,3733],[100,3817],[100,3902],[100,3987],[100,4072],[100,4157],[100,4242],[100,4327],[100,4411],[100,4496],[100,4581],[100,4666],[100,4751],[100,4836],[100,4921],[100,5005],[100,5090],[100,5175],[100,5260],[100,5345],[100,5430],[100,5514],[100,5599],[100,5684],[100,5769],[100,5854],[100,5939],[100,6024],[100,6108],[100,6193],[100,6278],[100,6363],[100,6448],[100,6533],[100,6617],[100,6702],[100,6787],[100,6874],[100,6957],[100,7042],[100,7127],[100,7211],[100,7296],[100,7381]]",375.0488,380.3421,100,4.5737,"[{""rating"":98.4375,""responseTime"":3.7636000000014747},{""rating"":100,""responseTime"":4.57369999999554}]",space,4.7779,,380.3421,Definitely yes,100,385.8147,100,3.7513,"[{""rating"":99.47916666666667,""responseTime"":2.9893999999985112},{""rating"":100,""responseTime"":3.7513000000044485}]",space,0,2,2,2,1,audio/Narrative7Situation2.wav,audio/Narrative8Situation2.wav,audio/Narrative5Situation2.wav,audio/Narrative6Situation2.wav,3,3,3,3,,,4.9617,,,,,,,,,,,,,,,,,,,,,,,,,,,,,,,,,,,,
,,,,,66823a439b3e59a13b37a28f,2025-07-07_20h32.13.379,group3.4_multiperson,2023.2.2,Win32,166.6666667,686c2ebf0248f13bef9af11f,686c912332026250d29b08de,,,,,,,,,,,,,,,,,,,,,,,,,,,,,385.8148,1,audio/Narrative7Situation3.wav,393.8206,,393.8206,403.0568,"[[999,0],[999,84],[999,169],[999,254],[999,339],[999,424],[999,509],[999,593],[999,678],[999,763],[999,850],[999,935],[999,1020],[999,1103],[999,1187],[96.9,1274],[99.3,1357],[99.3,1442],[99.3,1527],[99.3,1612],[99.3,1696],[99.3,1781],[99.4,1866],[100,1955],[100,2040],[100,2121],[100,2205],[100,2290],[100,2375],[100,2460],[100,2545],[100,2630],[100,2715],[100,2800],[100,2884],[100,2969],[100,3054],[100,3139],[100,3224],[100,3308],[100,3393],[100,3478],[100,3563],[100,3648],[100,3733],[100,3818],[100,3902],[100,3987],[100,4072],[100,4157],[100,4242],[100,4327],[100,4412],[100,4497],[100,4581],[100,4666],[100,4751],[100,4836],[100,4922],[100,5006],[100,5090],[100,5175],[100,5260],[100,5345],[100,5430],[100,5515],[100,5599],[100,5684],[100,5769],[100,5854],[100,5939],[100,6024],[100,6108],[100,6193],[100,6278],[100,6363],[100,6448],[100,6533],[100,6618],[100,6702],[100,6787],[100,6872],[100,6957],[100,7042],[100,7127],[100,7212],[100,7296],[100,7381],[100,7466],[100,7553],[100,7636],[100,7721],[100,7805],[100,7890],[100,7975],[100,8060],[100,8145],[100,8230],[100,8314],[100,8399],[100,8484],[100,8569],[100,8654],[100,8739],[100,8824],[100,8908],[100,8993],[100,9078],[100,9163]]",403.0569,411.9657,76.77083333,7.5831,"[{""rating"":49.47916666666667,""responseTime"":4.657699999995543},{""rating"":76.77083333333333,""responseTime"":7.583099999994033}]",space,8.3962,,411.9657,Partially,50,411.9672,,,[],,0,3,3,3,1,audio/Narrative7Situation3.wav,audio/Narrative8Situation3.wav,audio/Narrative5Situation3.wav,audio/Narrative6Situation3.wav,8,4,3,5,,,,,,,,,,,,,,,,,,,,,,,,,,,,,,,,,,,,,,,
,,,,,66823a439b3e59a13b37a28f,2025-07-07_20h32.13.379,group3.4_multiperson,2023.2.2,Win32,166.6666667,686c2ebf0248f13bef9af11f,686c912332026250d29b08de,,,,,,,,,,,,,,,,,,,,,,,,,,,,,411.9674,1,audio/Narrative7Situation4.wav,414.9717,,414.9717,426.6826,"[[84.4,11456],[82.8,11541],[82.5,11624],[87.5,11710]]",426.6828,431.2946,0,3.0617,"[{""rating"":0.9375000000000022,""responseTime"":2.4207000000030234},{""rating"":0,""responseTime"":3.061700000002986}]",space,4.0945,,431.2946,Not at all,0,431.296,,,[],,0,4,4,4,1,audio/Narrative7Situation4.wav,audio/Narrative8Situation4.wav,audio/Narrative5Situation4.wav,audio/Narrative6Situation4.wav,3,3,1,2,,,,,,,,,,,,,,,,,,,,,,,,,,,,,,,,,,,,,,,
,,,,,66823a439b3e59a13b37a28f,2025-07-07_20h32.13.379,group3.4_multiperson,2023.2.2,Win32,166.6666667,686c2ebf0248f13bef9af11f,686c912332026250d29b08de,,,,,,,,,,,,,,,,,,,,,,,,,,,,,431.2961,1,audio/Narrative7Situation5.wav,436.2986,,436.2987,444.7653,"[[999,0],[999,85],[999,169],[999,254],[999,339],[999,425],[999,510],[49.8,594],[49.9,678],[49.9,763],[49.9,850],[49.9,933],[48.6,1019],[37,1104],[34.2,1189],[33.8,1272],[33.6,1357],[33.6,1442],[35.4,1530],[47.3,1613],[54.8,1701],[54.8,1781],[54.8,1866],[51.8,1953],[50.8,2036],[50.4,2121],[50.4,2205],[50.4,2290],[50.4,2375],[50.4,2460],[52.7,2547],[63.5,2632],[75.8,2716],[82.7,2799],[85.3,2884],[87.7,2969],[87.8,3054],[87.7,3139],[88.3,3224],[91.1,3308],[92.5,3397],[92,3482],[86.4,3567],[80.9,3652],[80.5,3733],[80.5,3817],[80.5,3902],[80.5,3987],[80.5,4072],[80.5,4157],[80.5,4242],[80.5,4327],[80.5,4411],[80.5,4496],[80.5,4581],[80.5,4666],[80.5,4751],[80.5,4836],[80.5,4920],[80.5,5005],[80.5,5090],[80.5,5175],[80.5,5260],[80.5,5345],[80.5,5430],[80.5,5514],[80.5,5600],[80.5,5684],[80.5,5769],[80.5,5854],[80.5,5939],[81.9,6026],[83.4,6108],[84.8,6195],[87.3,6280],[92.3,6365],[92.4,6448],[93,6533],[93.2,6617],[93.2,6702],[93.2,6789],[93.3,6872],[93.8,6957],[98.9,7044],[100,7128],[100,7211],[100,7296],[100,7381],[100,7466],[100,7551],[100,7636],[100,7721],[100,7805],[100,7890],[100,7975],[100,8060],[100,8145],[100,8230],[100,8314],[100,8399]]",444.7654,451.6863,75.72916667,5.8513,"[{""rating"":99.16666666666667,""responseTime"":1.706100000001527},{""rating"":100,""responseTime"":4.138500000000022},{""rating"":75.72916666666667,""responseTime"":5.851299999997025}]",space,6.4079,,451.6864,Not at all,0,451.6872,,,[],,0,5,5,5,1,audio/Narrative7Situation5.wav,audio/Narrative8Situation5.wav,audio/Narrative5Situation5.wav,audio/Narrative6Situation5.wav,5,2,5,2,,,,,,,,,,,,,,,,,,,,,,,,,,,,,,,,,,,,,,,
,,,,,66823a439b3e59a13b37a28f,2025-07-07_20h32.13.379,group3.4_multiperson,2023.2.2,Win32,166.6666667,686c2ebf0248f13bef9af11f,686c912332026250d29b08de,,,,,,,,,,,,,,,,,,,,,,,,,,,,,451.6874,1,audio/Narrative7Situation6.wav,454.6922,,454.6923,464.6515,"[[57.1,171],[57.1,256],[57.1,339],[55.1,424],[54.8,509],[54.8,593],[54.8,678],[54.4,763],[53.2,848],[53,933],[54.8,1021],[62.9,1106],[78.4,1189],[85.6,1274],[85.8,1357],[86.7,1444],[88.3,1529],[89,1612],[89,1697],[89.3,1781],[89.4,1866],[90,1951],[92.3,2038],[93.3,2122],[95.7,2207],[100,2292],[100,2375],[100,2460],[100,2545],[100,2632],[100,2715],[100,2800],[100,2884],[100,2969],[100,3054],[100,3139],[100,3224],[100,3309],[100,3393],[100,3478],[100,3563],[100,3648],[100,3733],[100,3818],[100,3902],[100,3987],[100,4073],[100,4157],[100,4242],[100,4327],[100,4411],[100,4496],[100,4581],[100,4666],[100,4751],[100,4836],[100,4921],[100,5005],[100,5090],[100,5175],[100,5260],[100,5345],[100,5430],[100,5514],[100,5600],[100,5684],[100,5769],[100,5854],[100,5939],[100,6024],[100,6108],[100,6193],[100,6278],[100,6363],[100,6448],[100,6533],[100,6617],[100,6703],[100,6787],[100,6872],[100,6957],[100,7042],[100,7127],[100,7211],[100,7296],[100,7381],[100,7466],[100,7551],[100,7636],[100,7724],[100,7805],[100,7890],[100,7975],[100,8060],[100,8145],[100,8233],[100,8316],[100,8400],[100,8484],[100,8569],[100,8654],[100,8739],[100,8825],[100,8909],[100,8993],[100,9078],[100,9163],[100,9248],[100,9333],[100,9418],[100,9502],[100,9587],[100,9674],[100,9757],[100,9842],[100,9927]]",464.6515,472.8738,100,7.2487,"[{""rating"":81.875,""responseTime"":4.629899999998486},{""rating"":91.04166666666667,""responseTime"":5.479100000001495},{""rating"":100,""responseTime"":7.248700000002941}]",space,7.7139,,472.8739,Definitely yes,100,472.8753,,,[],,0,6,6,6,1,audio/Narrative7Situation6.wav,audio/Narrative8Situation6.wav,audio/Narrative5Situation6.wav,audio/Narrative6Situation6.wav,3,2,3,2,,,,,,,,,,,,,,,,,,,,,,,,,,,,,,,,,,,,,,,
,,,,,66823a439b3e59a13b37a28f,2025-07-07_20h32.13.379,group3.4_multiperson,2023.2.2,Win32,166.6666667,686c2ebf0248f13bef9af11f,686c912332026250d29b08de,,,,,,,,,,,,,,,,,,,,,,,,,,,,,472.8754,1,audio/Narrative7Situation7.wav,477.8797,,477.8797,495.0371,"[[92,5177],[88.9,5262],[88.6,5345],[87.6,5432],[87.6,5515],[87.6,5599],[89.8,5688],[95,5773],[95.5,5854],[95.5,5939],[95.5,6024],[95.5,6108],[95.9,6195],[96,6278],[97,6365],[99.6,6450],[99.9,6533],[100,6618],[100,6702],[100,6787],[100,6874],[100,6957],[100,7042],[100,7127],[100,7212],[100,7296],[100,7381],[100,7466],[100,7551],[100,7636],[100,7721],[100,7805],[100,7890],[100,7975],[100,8060],[100,8145],[100,8230],[100,8315],[100,8399],[100,8484],[100,8569],[100,8654],[100,8740],[100,8824],[100,8909],[100,8993],[100,9078],[100,9163],[100,9248],[100,9333],[100,9417],[100,9502],[100,9587],[100,9672],[100,9759],[100,9842],[100,9927],[100,10012],[100,10096],[100,10181],[100,10266],[100,10351],[100,10436],[100,10521],[100,10605],[100,10690],[100,10775],[100,10860],[100,10945],[100,11030],[100,11116],[100,11199],[100,11284],[100,11369],[100,11454],[100,11539],[100,11624],[100,11708],[100,11793],[100,11878],[100,11963],[100,12048],[100,12133],[100,12218],[100,12302],[100,12387],[100,12472],[100,12557],[100,12642],[100,12726],[100,12811],[100,12900],[100,12981],[100,13066],[100,13151],[100,13236],[100,13320],[100,13405],[100,13490],[100,13575],[100,13660],[100,13745],[100,13830],[100,13914],[100,13999],[100,14084],[100,14169],[100,14254],[100,14339],[100,14423],[100,14508],[100,14593],[100,14678],[100,14763],[100,14848],[100,14933],[100,15017],[100,15102],[100,15187],[100,15272],[100,15359],[100,15442],[100,15527],[100,15611],[100,15696],[100,15781],[100,15866],[100,15951],[100,16037],[100,16120],[100,16205],[100,16290],[100,16375],[100,16460],[100,16545],[100,16629],[100,16714],[100,16799],[100,16886],[100,16969],[100,17056],[100,17139]]",495.0372,498.8976,100,3.0621,"[{""rating"":99.27083333333333,""responseTime"":2.0413999999984753},{""rating"":100,""responseTime"":3.0621000000014647}]",space,3.3441,,498.8977,Partially,50,498.8991,,,[],,0,7,7,7,1,audio/Narrative7Situation7.wav,audio/Narrative8Situation7.wav,audio/Narrative5Situation7.wav,audio/Narrative6Situation7.wav,5,3,4,5,,,,,,,,,,,,,,,,,,,,,,,,,,,,,,,,,,,,,,,
,,,,,66823a439b3e59a13b37a28f,2025-07-07_20h32.13.379,group3.4_multiperson,2023.2.2,Win32,166.6666667,686c2ebf0248f13bef9af11f,686c912332026250d29b08de,,,,,,,,,,,,,,,,,,,,,,,,,,,,,498.8993,1,audio/Narrative7Situation8.wav,500.9036,,500.9036,510.9095,"[[100,2377],[99.9,2462],[99.9,2545],[98.2,2630],[98.2,2715],[98.2,2800],[98.2,2884],[98.2,2969],[98.2,3054],[99,3139],[99,3224],[99,3309],[99,3393],[99,3478],[99,3563],[94.3,3652],[63.2,3737],[52.8,3820],[52.5,3903],[52.5,3987],[52.5,4072],[52.5,4157],[54,4244],[55,4327],[55,4412],[55,4496],[55.1,4581],[79.3,4668],[97.4,4753],[100,4836],[100,4921],[100,5006],[100,5090],[100,5175],[100,5262],[100,5345],[100,5430],[100,5515],[100,5599],[100,5684],[100,5769],[100,5854],[100,5939],[100,6024],[100,6108],[100,6193],[100,6278],[100,6363],[100,6448],[100,6533],[100,6618],[100,6702],[100,6787],[100,6872],[100,6957],[100,7042],[100,7127],[100,7211],[100,7296],[100,7381],[100,7466],[100,7551],[100,7636],[100,7721],[100,7805],[100,7890],[100,7975],[100,8060],[100,8145],[100,8230],[100,8317],[100,8399],[100,8484],[100,8569],[100,8654],[100,8739],[100,8824],[100,8909],[100,8993],[100,9078],[100,9163],[100,9248],[100,9333],[100,9418],[100,9502],[99.5,9587],[99.5,9672],[99.5,9757],[99.5,9842],[99.5,9927]]",510.9097,513.1094,99.47916667,0.5485,"[{""rating"":99.47916666666667,""responseTime"":0.54849999999999}]",space,1.686,,513.1095,Not at all,0,513.1109,,,[],,0,8,8,8,1,audio/Narrative7Situation8.wav,audio/Narrative8Situation8.wav,audio/Narrative5Situation8.wav,audio/Narrative6Situation8.wav,2,3,3,5,,,,,,,,,,,,,,,,,,,,,,,,,,,,,,,,,,,,,,,
,,,,,66823a439b3e59a13b37a28f,2025-07-07_20h32.13.379,group3.4_multiperson,2023.2.2,Win32,166.6666667,686c2ebf0248f13bef9af11f,686c912332026250d29b08de,,,,,,,,,,,,,,,,,,,,,,,,,,,,,513.111,1,audio/Narrative7Situation9.wav,515.1155,,515.1155,523.7277,"[[999,0],[999,84],[999,169],[999,254],[999,339],[999,424],[999,509],[999,593],[999,678],[999,765],[999,848],[999,936],[999,1018],[999,1103],[999,1187],[999,1276],[999,1357],[999,1442],[999,1527],[999,1612],[999,1696],[999,1781],[999,1866],[999,1951],[999,2036],[999,2121],[999,2206],[999,2290],[999,2375],[999,2460],[999,2545],[999,2630],[999,2714],[999,2799],[999,2884],[999,2969],[999,3054],[999,3141],[100,3819],[100,3902],[100,3987],[100,4072],[100,4157],[100,4242],[100,4327],[100,4412],[100,4496],[100,4581],[100,4666],[100,4751],[100,4836],[100,4921],[100,5006],[100,5090],[100,5175],[100,5260],[100,5346],[100,5430],[100,5514],[100,5599],[100,5684],[100,5769],[100,5854],[100,5939],[100,6024],[100,6109],[100,6193],[100,6278],[100,6363],[100,6448],[100,6533],[100,6618],[100,6702],[100,6787],[100,6872],[100,6957],[100,7043],[100,7127],[100,7212],[100,7296],[100,7382],[100,7467],[100,7551],[100,7636],[100,7721],[100,7805],[100,7890],[100,7975],[100,8060],[100,8145],[100,8230],[100,8314],[100,8399],[100,8484],[100,8569]]",523.7277,530.7273,100,6.478,"[{""rating"":98.95833333333333,""responseTime"":5.961399999998434},{""rating"":100,""responseTime"":6.477999999999952}]",space,6.4859,,530.7274,Not at all,0,530.7281,,,[],,0,9,9,9,1,audio/Narrative7Situation9.wav,audio/Narrative8Situation9.wav,audio/Narrative5Situation9.wav,audio/Narrative6Situation9.wav,2,3,3,4,,,,,,,,,,,,,,,,,,,,,,,,,,,,,,,,,,,,,,,
,,,,,66823a439b3e59a13b37a28f,2025-07-07_20h32.13.379,group3.4_multiperson,2023.2.2,Win32,166.6666667,686c2ebf0248f13bef9af11f,686c912332026250d29b08de,,,,,,,,,,,,,,,,,,,,,,,,,,,,,530.7283,1,audio/Narrative8Situation1.wav,535.7334,,535.7335,551.6422,"[[100,6112],[100,6195],[99.3,6278],[82.2,6365],[76.3,6450],[72.4,6534],[72.4,6617],[72.4,6704],[72.4,6787],[72.4,6872],[72.4,6957],[72.4,7042],[72.4,7128],[72.4,7211],[72.4,7296],[72.4,7381],[72.4,7468],[72.4,7551],[72.4,7637],[72.4,7720],[72.4,7806],[72.4,7890],[72.4,7975],[72.4,8060],[72.4,8145],[72.4,8230],[72.4,8318],[72.4,8399],[72.4,8484],[72.4,8569],[72.4,8654],[72.4,8739],[72.4,8824],[72.4,8908],[79.2,8995],[85.5,9080],[97.2,9165],[98.9,9250],[100,9333],[100,9419],[100,9504],[100,9587],[100,9672],[100,9757],[100,9842],[100,9928],[100,10011],[100,10096],[100,10181],[100,10266],[100,10352],[100,10435],[100,10520],[100,10605],[100,10690],[100,10775],[100,10862],[100,10947],[100,11030],[100,11114],[100,11199],[100,11284],[100,11369],[100,11454],[100,11538],[100,11623],[100,11708],[100,11793],[100,11878],[100,11963],[100,12048],[100,12133],[100,12219],[100,12302],[100,12387],[100,12472],[100,12557],[100,12641],[100,12726],[100,12811],[100,12896],[100,12981],[100,13066],[100,13151],[100,13235],[100,13320],[100,13405],[100,13490],[100,13577],[100,13660],[100,13745],[100,13829],[100,13914],[100,13999],[100,14084],[100,14169],[100,14254],[100,14339],[100,14423],[100,14508],[100,14593],[100,14678],[100,14763],[100,14847],[100,14932],[100,15017],[100,15104],[100,15187],[100,15272],[100,15357],[100,15442],[100,15526],[100,15611],[100,15696],[100,15781],[100,15866]]",551.6423,555.4057,99.79166667,2.9043,"[{""rating"":99.79166666666667,""responseTime"":2.904299999997079}]",space,3.2526,,555.4058,Not at all,0,555.4068,,,[],,0,10,10,10,1,audio/Narrative8Situation1.wav,audio/Narrative7Situation1.wav,audio/Narrative6Situation1.wav,audio/Narrative5Situation1.wav,5,2,2,5,,,,,,,,,,,,,,,,,,,,,,,,,,,,,,,,,,,,,,,
,,,,,66823a439b3e59a13b37a28f,2025-07-07_20h32.13.379,group3.4_multiperson,2023.2.2,Win32,166.6666667,686c2ebf0248f13bef9af11f,686c912332026250d29b08de,,,,,,,,,,,,,,,,,,,,,,,,,,,,,555.4069,1,audio/Narrative8Situation2.wav,558.4118,,558.4118,568.5104,"[[97.7,1528],[97.7,1611],[96.5,1696],[96.9,1781],[100,1868],[100,1952],[100,2036],[100,2120],[100,2206],[100,2290],[100,2375],[100,2460],[100,2545],[100,2630],[100,2715],[100,2799],[100,2884],[100,2969],[100,3054],[100,3139],[100,3224],[100,3308],[100,3393],[100,3478],[100,3563],[100,3648],[100,3733],[100,3817],[100,3902],[100,3987],[100,4072],[100,4157],[100,4242],[100,4327],[100,4411],[100,4496],[100,4582],[100,4666],[100,4751],[100,4836],[100,4921],[100,5009],[100,5090],[100,5175],[100,5260],[100,5346],[100,5430],[100,5514],[100,5599],[100,5684],[100,5769],[100,5856],[100,5939],[100,6024],[100,6108],[100,6193],[100,6278],[100,6363],[100,6448],[100,6533],[100,6617],[100,6702],[100,6787],[100,6872],[100,6957],[100,7042],[100,7127],[100,7211],[100,7296],[100,7381],[100,7470],[100,7551],[100,7636],[100,7721],[100,7805],[100,7890],[100,7975],[100,8060],[100,8145],[100,8230],[100,8314],[100,8399],[100,8484],[100,8569],[100,8654],[100,8739],[100,8823],[100,8910],[100,8993],[100,9078],[100,9163],[100,9248],[100,9333],[100,9418],[100,9502],[100,9587],[100,9672],[100,9757],[100,9842],[100,9927],[100,10015],[100,10098]]",568.5104,572.3327,0.520833333,2.4021,"[{""rating"":0.5208333333333315,""responseTime"":2.402099999993993}]",space,3.313,,572.3328,Partially,50,572.3342,,,[],,0,11,11,11,1,audio/Narrative8Situation2.wav,audio/Narrative7Situation2.wav,audio/Narrative6Situation2.wav,audio/Narrative5Situation2.wav,3,3,3,3,,,,,,,,,,,,,,,,,,,,,,,,,,,,,,,,,,,,,,,
,,,,,66823a439b3e59a13b37a28f,2025-07-07_20h32.13.379,group3.4_multiperson,2023.2.2,Win32,166.6666667,686c2ebf0248f13bef9af11f,686c912332026250d29b08de,,,,,,,,,,,,,,,,,,,,,,,,,,,,,572.3343,1,audio/Narrative8Situation3.wav,576.3387,,576.3387,598.6996,"[[999,0],[999,84],[999,170],[999,254],[999,339],[999,424],[999,509],[999,593],[999,678],[999,763],[999,848],[999,933],[999,1018],[999,1102],[999,1187],[999,1272],[999,1357],[999,1442],[999,1527],[999,1612],[999,1696],[999,1781],[999,1866],[999,1951],[999,2036],[999,2121],[999,2207],[999,2290],[999,2375],[999,2460],[999,2545],[999,2630],[999,2715],[999,2800],[999,2884],[999,2969],[999,3054],[999,3139],[999,3224],[999,3309],[999,3395],[999,3478],[999,3566],[999,3648],[999,3733],[999,3818],[999,3904],[999,3987],[999,4072],[999,4157],[999,4242],[999,4327],[999,4412],[999,4497],[999,4581],[999,4666],[999,4751],[999,4836],[999,4921],[999,5005],[999,5090],[999,5175],[999,5260],[999,5345],[999,5430],[999,5514],[999,5599],[999,5684],[999,5769],[999,5854],[999,5939],[999,6024],[999,6109],[999,6193],[999,6278],[999,6363],[999,6448],[999,6533],[999,6618],[999,6702],[999,6787],[999,6872],[999,6957],[999,7042],[999,7127],[999,7211],[999,7296],[999,7381],[999,7466],[999,7551],[999,7636],[999,7721],[999,7805],[999,7890],[999,7975],[999,8060],[999,8145],[999,8230],[999,8314],[999,8399],[999,8484],[999,8569],[999,8657],[999,8741],[999,8824],[82.9,8910],[85,8995],[85,9078],[85,9163],[90.1,9250],[91.9,9333],[100,9419],[100,9504],[100,9587],[100,9672],[100,9759],[100,9842],[100,9927],[100,10013],[100,10096],[100,10181],[100,10266],[100,10351],[100,10436],[100,10521],[100,10605],[100,10690],[100,10777],[100,10860],[100,10945],[100,11030],[100,11115],[100,11199],[100,11284],[100,11369],[100,11454],[100,11539],[100,11624],[100,11709],[100,11793],[100,11878],[100,11963],[100,12050],[100,12133],[100,12218],[100,12302],[100,12387],[100,12472],[100,12557],[100,12642],[100,12727],[100,12811],[100,12896],[100,12981],[100,13066],[100,13151],[100,13236],[100,13321],[100,13405],[100,13490],[100,13575],[100,13660],[100,13745],[100,13830],[100,13914],[100,13999],[100,14084],[100,14169],[100,14254],[100,14339],[100,14423],[100,14508],[100,14593],[100,14678],[100,14763],[100,14848],[100,14933],[100,15017],[100,15102],[100,15187],[100,15272],[100,15357],[100,15442],[100,15526],[100,15611],[100,15696],[100,15781],[100,15866],[100,15951],[100,16036],[100,16120],[100,16205],[100,16290],[100,16375],[100,16460],[100,16545],[100,16629],[100,16714],[100,16799],[100,16884],[100,16969],[100,17054],[100,17139],[100,17223],[100,17308],[100,17393],[100,17478],[100,17563],[100,17648],[100,17733],[100,17817],[100,17902],[100,17987],[100,18072],[100,18157],[100,18242],[100,18327],[100,18411],[100,18496],[100,18581],[100,18668],[100,18751],[100,18836],[100,18921],[100,19005],[100,19090],[100,19175],[100,19260],[100,19345],[100,19430],[100,19516],[100,19599],[100,19684],[100,19769],[100,19854],[100,19939],[100,20023],[100,20108],[100,20193],[100,20278],[100,20363],[100,20448],[100,20533],[100,20617],[100,20702],[100,20787],[100,20872],[100,20959],[100,21042],[100,21126],[100,21213],[100,21296],[100,21381],[100,21466],[100,21551],[100,21635],[100,21720],[100,21805],[100,21890],[100,21975],[100,22062],[100,22144],[100,22230],[100,22314]]",598.6996,602.9929,100,3.5857,"[{""rating"":98.85416666666667,""responseTime"":2.591799999996965},{""rating"":100,""responseTime"":3.58570000000293}]",space,3.7759,,602.9929,Partially,50,602.9937,,,[],,0,12,12,12,1,audio/Narrative8Situation3.wav,audio/Narrative7Situation3.wav,audio/Narrative6Situation3.wav,audio/Narrative5Situation3.wav,4,8,5,3,,,,,,,,,,,,,,,,,,,,,,,,,,,,,,,,,,,,,,,
,,,,,66823a439b3e59a13b37a28f,2025-07-07_20h32.13.379,group3.4_multiperson,2023.2.2,Win32,166.6666667,686c2ebf0248f13bef9af11f,686c912332026250d29b08de,,,,,,,,,,,,,,,,,,,,,,,,,,,,,602.9937,1,audio/Narrative8Situation4.wav,605.9958,,605.9958,620.1501,"[[999,0],[999,85],[999,168],[999,251],[999,338],[999,423],[40.5,507],[43.1,592],[45.7,677],[45.7,760],[47.8,846],[51.6,932],[52.4,1015],[52.4,1099],[52.4,1184],[52.4,1269],[52.4,1354],[51.8,1441],[51.3,1524],[51,1609],[51,1695],[51,1778],[51,1865],[49.9,1948],[49.9,2033],[49.9,2118],[49.9,2202],[49.9,2287],[50.8,2374],[51.1,2459],[51.1,2542],[51.7,2629],[63.4,2713],[69.3,2797],[91.3,2883],[93.2,2968],[94.8,3053],[95.5,3138],[100,3222],[100,3305],[100,3390],[100,3475],[100,3562],[100,3645],[100,3731],[100,3815],[100,3899],[100,3984],[100,4069],[100,4154],[100,4239],[100,4326],[100,4408],[100,4493],[100,4578],[100,4663],[100,4748],[100,4833],[100,4918],[100,5004],[100,5087],[100,5174],[100,5257],[100,5342],[100,5427],[100,5512],[100,5596],[100,5681],[100,5766],[100,5851],[99.8,5938],[99.8,6021],[99.8,6105],[99.8,6190],[99.8,6275],[99.7,6360],[99.7,6445],[99.7,6530],[99.7,6615],[99.7,6699],[99.7,6788],[99.7,6869],[99.7,6954],[99.7,7039],[99.7,7124],[99.7,7208],[99.7,7293],[99.7,7378],[99.7,7463],[99.7,7548],[99.7,7633],[99.7,7718],[99.7,7802],[99.7,7887],[99.7,7974],[99.7,8057],[99.7,8142],[99.7,8227],[99.7,8312],[99.7,8396],[99.7,8481],[99.7,8566],[99.7,8651],[99.7,8736],[99.7,8821],[99.7,8905],[99.7,8994],[98.1,9079],[96.1,9160],[94.6,9247],[93.2,9331],[92,9416],[91.9,9499],[90.5,9586],[89.9,9669],[89.3,9754],[89.2,9839],[89.2,9924],[89.2,10010],[89.8,10095],[93.3,10180],[96.5,10265],[100,10350],[100,10434],[100,10517],[100,10602],[100,10687],[100,10774],[100,10857],[100,10943],[100,11027],[100,11111],[100,11196],[100,11281],[100,11366],[100,11451],[100,11536],[100,11620],[100,11705],[100,11790],[100,11875],[100,11960],[100,12045],[100,12130],[100,12214],[100,12299],[100,12386],[100,12469],[100,12554],[100,12640],[100,12725],[100,12808],[100,12893],[100,12978],[100,13063],[100,13148],[100,13233],[100,13318],[98.4,13406],[97.9,13490],[97.9,13575],[97.9,13657],[97.9,13742],[97.9,13826],[100,13913],[100,13998],[100,14083]]",620.1502,622.3501,100,1.9794,"[{""rating"":99.0625,""responseTime"":1.3612000000030093},{""rating"":100,""responseTime"":1.9793999999985772}]",space,1.6869,,622.3501,Definitely yes,100,622.3517,,,[],,0,13,13,13,1,audio/Narrative8Situation4.wav,audio/Narrative7Situation4.wav,audio/Narrative6Situation4.wav,audio/Narrative5Situation4.wav,3,3,2,1,,,,,,,,,,,,,,,,,,,,,,,,,,,,,,,,,,,,,,,
,,,,,66823a439b3e59a13b37a28f,2025-07-07_20h32.13.379,group3.4_multiperson,2023.2.2,Win32,166.6666667,686c2ebf0248f13bef9af11f,686c912332026250d29b08de,,,,,,,,,,,,,,,,,,,,,,,,,,,,,622.3518,1,audio/Narrative8Situation5.wav,624.3561,,624.3562,632.5901,"[[100,1359],[100,1442],[100,1527],[100,1611],[100,1696],[100,1783],[100,1866],[100,1951],[100,2036],[100,2122],[100,2205],[100,2292],[100,2375],[100,2460],[100,2545],[100,2630],[100,2715],[100,2799],[100,2884],[100,2969],[100,3054],[100,3139],[100,3224],[100,3308],[100,3393],[100,3478],[100,3563],[100,3652],[100,3736],[100,3817],[100,3902],[100,3987],[100,4072],[100,4157],[100,4242],[100,4326],[100,4411],[100,4496],[100,4581],[100,4666],[100,4751],[100,4836],[100,4920],[100,5005],[100,5090],[100,5175],[100,5260],[100,5345],[100,5429],[100,5514],[100,5599],[100,5684],[100,5769],[100,5854],[100,5939],[100,6024],[100,6108],[100,6197],[100,6278],[100,6363],[100,6448],[100,6533],[100,6617],[100,6702],[100,6787],[100,6872],[100,6957],[100,7042],[100,7126],[100,7211],[100,7296],[100,7381],[100,7466],[100,7551],[100,7636],[100,7720],[100,7805],[100,7890],[100,7977],[100,8060],[100,8145],[100,8233]]",632.5901,634.7559,99.47916667,1.2705,"[{""rating"":99.47916666666667,""responseTime"":1.27049999999997}]",space,1.6578,,634.7559,Partially,50,634.7572,,,[],,0,14,14,14,1,audio/Narrative8Situation5.wav,audio/Narrative7Situation5.wav,audio/Narrative6Situation5.wav,audio/Narrative5Situation5.wav,2,5,2,5,,,,,,,,,,,,,,,,,,,,,,,,,,,,,,,,,,,,,,,
,,,,,66823a439b3e59a13b37a28f,2025-07-07_20h32.13.379,group3.4_multiperson,2023.2.2,Win32,166.6666667,686c2ebf0248f13bef9af11f,686c912332026250d29b08de,,,,,,,,,,,,,,,,,,,,,,,,,,,,,634.7574,1,audio/Narrative8Situation6.wav,636.7619,,636.7619,643.2103,[],643.2104,648.392,99.47916667,4.2201,"[{""rating"":99.47916666666667,""responseTime"":4.220099999993977}]",space,4.671,,648.392,Partially,50,648.3928,,,[],,0,15,15,15,1,audio/Narrative8Situation6.wav,audio/Narrative7Situation6.wav,audio/Narrative6Situation6.wav,audio/Narrative5Situation6.wav,2,3,2,3,,,,,,,,,,,,,,,,,,,,,,,,,,,,,,,,,,,,,,,
,,,,,66823a439b3e59a13b37a28f,2025-07-07_20h32.13.379,group3.4_multiperson,2023.2.2,Win32,166.6666667,686c2ebf0248f13bef9af11f,686c912332026250d29b08de,,,,,,,,,,,,,,,,,,,,,,,,,,,,,648.393,1,audio/Narrative8Situation7.wav,651.398,,651.3981,663.4654,"[[88.5,10211],[90.5,10296],[96.1,10381],[97.2,10473],[100,10557],[100,10642],[100,10727],[100,10811],[100,10896],[100,10981],[100,11066],[100,11151],[100,11236],[100,11321],[100,11405],[100,11490],[100,11575],[100,11660],[100,11745],[100,11830],[100,11914],[100,11999]]",663.4655,667.1977,100,2.6869,"[{""rating"":99.16666666666667,""responseTime"":2.182600000001571},{""rating"":100,""responseTime"":2.6869000000059486}]",space,3.2192,,667.1978,Not at all,0,667.1992,,,[],,0,16,16,16,1,audio/Narrative8Situation7.wav,audio/Narrative7Situation7.wav,audio/Narrative6Situation7.wav,audio/Narrative5Situation7.wav,3,5,5,4,,,,,,,,,,,,,,,,,,,,,,,,,,,,,,,,,,,,,,,
,,,,,66823a439b3e59a13b37a28f,2025-07-07_20h32.13.379,group3.4_multiperson,2023.2.2,Win32,166.6666667,686c2ebf0248f13bef9af11f,686c912332026250d29b08de,,,,,,,,,,,,,,,,,,,,,,,,,,,,,667.1993,1,audio/Narrative8Situation8.wav,670.2038,,670.2038,683.04,[],683.0401,686.1187,99.27083333,1.5843,"[{""rating"":99.27083333333333,""responseTime"":1.5843000000045322}]",space,2.5654,,686.1187,Definitely yes,100,686.1201,,,[],,0,17,17,17,1,audio/Narrative8Situation8.wav,audio/Narrative7Situation8.wav,audio/Narrative6Situation8.wav,audio/Narrative5Situation8.wav,3,2,5,3,,,,,,,,,,,,,,,,,,,,,,,,,,,,,,,,,,,,,,,
,,,,,66823a439b3e59a13b37a28f,2025-07-07_20h32.13.379,group3.4_multiperson,2023.2.2,Win32,166.6666667,686c2ebf0248f13bef9af11f,686c912332026250d29b08de,,,,,,,,,,,,,,,,,,,,,,,,,,,,,686.1203,1,audio/Narrative8Situation9.wav,689.1246,,689.1246,700.4214,"[[99.6,4415],[100,4497],[100,4581],[100,4668],[99.7,4753],[99.6,4836],[99.6,4921],[99.6,5006],[99.6,5090],[99.6,5175],[99.6,5262],[99.6,5345],[99.6,5430],[99.6,5515],[99.6,5600],[99.6,5684],[99.6,5769],[99.6,5854],[99.6,5939],[99.6,6024],[99.6,6109],[99.6,6193],[99.6,6278],[99.6,6363],[99.6,6448],[99.6,6533],[99.6,6618],[99.6,6704],[99.6,6787],[99.6,6872],[99.6,6957],[99.6,7042],[99.6,7127],[99.6,7212],[99.6,7298],[99.6,7382],[99.6,7466],[99.6,7551],[99.6,7636],[99.6,7721],[99.6,7806],[99.6,7890],[99.6,7977],[99.6,8062],[99.6,8145],[99.6,8230],[99.6,8315],[99.6,8399],[99.6,8484],[99.6,8569],[99.6,8654],[99.6,8739],[99.6,8824],[99.6,8909],[99.6,8993],[99.6,9080],[99.6,9163],[99.6,9248],[99.6,9333],[99.6,9418],[99.6,9502],[99.6,9587],[99.6,9672],[99.6,9757],[99.6,9842],[99.6,9929],[99.6,10012],[99.6,10098],[99.6,10181],[99.6,10266],[99.6,10351],[99.6,10436],[99.6,10521],[99.6,10605],[99.6,10690],[99.6,10775],[99.6,10860],[99.6,10945],[99.6,11030],[99.6,11115],[99.6,11199],[99.6,11287]]",700.4216,707.4456,100,6.1616,"[{""rating"":99.47916666666667,""responseTime"":5.643800000004376},{""rating"":100,""responseTime"":6.1616000000013855}]",space,6.5116,,707.4456,Not at all,0,707.4469,,,[],,0,18,18,18,1,audio/Narrative8Situation9.wav,audio/Narrative7Situation9.wav,audio/Narrative6Situation9.wav,audio/Narrative5Situation9.wav,3,2,4,3,,,,,,,,,,,,,,,,,,,,,,,,,,,,,,,,,,,,,,,
,,,,,66823a439b3e59a13b37a28f,2025-07-07_20h32.13.379,group3.4_multiperson,2023.2.2,Win32,166.6666667,686c2ebf0248f13bef9af11f,686c912332026250d29b08de,,,,,,,,,,,,,,,,,,,,,,,,,,,753.2091,755.7903,755.7979,2,audio/Narrative13Situation2.wav,755.7979,,755.798,785.5292,"[[100,5515],[100,5599],[100,5684],[100,5767],[100,5852],[100,5937],[100,6022],[100,6107],[100,6192],[100,6276],[100,6361],[100,6446],[100,6531],[100,6616],[100,6701],[100,6785],[100,6870],[100,6955],[100,7040],[100,7125],[100,7210],[100,7295],[100,7379],[100,7464],[100,7549],[100,7634],[100,7719],[100,7804],[100,7889],[100,7973],[100,8058],[100,8143],[100,8228],[100,8313],[100,8398],[100,8482],[100,8567],[100,8652],[100,8737],[100,8822],[100,8907],[100,8992],[100,9076],[100,9161],[100,9246],[100,9331],[100,9416],[100,9501],[100,9586],[100,9670],[100,9755],[100,9842],[100,9925],[100,10010],[100,10096],[100,10179],[100,10264],[100,10349],[100,10434],[100,10519],[100,10604],[100,10688],[100,10773],[100,10858],[100,10943],[100,11028],[100,11113],[100,11197],[100,11282],[100,11367],[100,11452],[100,11537],[100,11622],[100,11707],[100,11791],[100,11876],[100,11963],[100,12046],[100,12131],[100,12216],[100,12301],[100,12385],[100,12472],[100,12555],[100,12640],[100,12725],[100,12810],[100,12894],[100,12979],[100,13064],[100,13153],[100,13234],[100,13319],[100,13403],[100,13488],[100,13575],[100,13660],[100,13743],[100,13830],[100,13913],[100,13997],[100,14082],[100,14167],[100,14252],[100,14337],[100,14422],[100,14507],[100,14591],[100,14676],[100,14761],[100,14846],[100,14931],[100,15016],[100,15101],[100,15185],[100,15270],[100,15355],[100,15443],[100,15527],[100,15610],[100,15694],[100,15779],[100,15864],[100,15949],[100,16034],[100,16119],[100,16203],[100,16288],[100,16373],[100,16458],[100,16543],[100,16628],[100,16713],[100,16798],[100,16882],[100,16967],[100,17052],[100,17137],[100,17222],[100,17307],[100,17391],[100,17476],[100,17561],[100,17646],[100,17731],[100,17816],[100,17900],[100,17985],[100,18070],[100,18155],[100,18240],[100,18328],[100,18410],[100,18494],[100,18579],[100,18664],[100,18749],[100,18834],[100,18919],[100,19004],[100,19088],[100,19173],[100,19258],[100,19344],[100,19429],[100,19512],[100,19597],[100,19682],[100,19767],[100,19852],[100,19937],[100,20022],[100,20106],[100,20191],[100,20276],[100,20361],[100,20446],[100,20531],[100,20616],[100,20700],[100,20785],[100,20870],[100,20955],[100,21042],[100,21125],[100,21209],[100,21294],[100,21379],[100,21464],[100,21550],[100,21634],[100,21718],[100,21803],[100,21888],[100,21973],[100,22058],[100,22143],[100,22229],[100,22312],[100,22397],[100,22482],[100,22567],[100,22655],[100,22740],[100,22822],[100,22906],[100,22991],[100,23076],[100,23161],[100,23246],[100,23331],[100,23415],[100,23500],[100,23587],[100,23670],[100,23756],[94.6,24264],[98.2,24351],[99.1,24436],[99.8,24519],[100,24603],[100,24688],[100,24773],[99,24862],[85.8,24947],[64.6,25029],[43.2,25114],[30.5,25199],[24.3,25282],[3.1,25369],[0.9,25454],[0.9,25878],[3.3,25963],[6.3,26048],[8,26133],[9.9,26217],[12.5,26300],[15.9,26385],[17.8,26472],[18.1,26555],[18.2,26640],[18.2,26726],[18.2,26809],[18.2,26894],[18.2,26979],[18.2,27064],[18.2,27149],[18.2,27234],[18.2,27318],[19.9,27403],[20,27488],[20.2,27575],[20.8,27658],[20.8,27743],[20.8,27827],[20.8,27912],[20.8,27997],[20.8,28082],[20.8,28167],[20.8,28252],[20.8,28337],[20.8,28422],[20.8,28506],[20.8,28591],[20.8,28676],[20.8,28761],[20.8,28846],[20.8,28930],[20.8,29016],[20.8,29104],[20.8,29185],[20.8,29274],[20.8,29355],[20.8,29440],[20.8,29525],[20.8,29610],[20.8,29694]]",785.5293,785.5303,,,[],,,,785.5303,Partially,50,785.5313,,,[],,0,0,0,0,1,audio/Narrative13Situation2.wav,audio/Narrative13Situation2.wav,audio/Narrative13Situation2.wav,audio/Narrative13Situation2.wav,2,2,2,2,,,,,707.4472,753.2089,space,45.2557,,,,,,,,,,,,,,,,,,,,,,,,,,,,,,,
,,,,,66823a439b3e59a13b37a28f,2025-07-07_20h32.13.379,group3.4_multiperson,2023.2.2,Win32,166.6666667,686c2ebf0248f13bef9af11f,686c912332026250d29b08de,,,,,,,,,,,,,,,,,,,,,,,,,,,,,785.5315,2,audio/Narrative5Situation1.wav,790.5352,,790.5352,803.8016,"[[25.8,595],[44.5,680],[67.6,765],[74.6,848],[82,933],[82,1018],[82,1103],[80,1187],[78.9,1274],[78.5,1357],[75.3,1442],[75.3,1527],[77,1613],[79.7,1700],[83.2,1785],[84.7,1866],[98.6,1953],[100,2038],[100,2121],[100,2205],[100,2290],[100,2375],[100,2460],[100,2545],[100,2630],[99.9,2715],[99.8,2799],[99.8,2885],[99.8,2969],[99.8,3054],[96.9,3141],[87.8,3225],[84.6,3308],[84.6,3393],[83,3480],[60.6,3565],[57.6,3651],[57.6,3733],[57.6,3817],[57.5,3902],[56.3,3987],[56.5,4072],[56.7,4157],[56.7,4242],[56.7,4327],[56.7,4411],[56.7,4496],[57.8,4583],[73.8,4668],[97.9,4753],[98.5,4837],[98.5,4920],[98.9,5005],[98.9,5090],[98.9,5175],[98.9,5260],[98.9,5345],[98.9,5430],[99.3,5514],[99.3,5599],[99.3,5684],[99.3,5769],[99.9,5854],[99.9,5939],[98.6,6024],[98.6,6108],[98.6,6193],[98.6,6282],[98.6,6363],[98.6,6448],[98.6,6534],[98.6,6618],[98.6,6702],[98.6,6787],[98.6,6872],[98.6,6957],[98.6,7043],[98.6,7127],[98.6,7211],[98.6,7296],[98.6,7381],[98.6,7466],[98.6,7552],[98.6,7635],[98.6,7722],[98.6,7805],[98.6,7890],[98.6,7975],[98.6,8060],[98.6,8145],[98.6,8229],[98.6,8314],[98.6,8399],[98.6,8484],[98.6,8572],[98.6,8654],[98.6,8740],[98.6,8824],[98.6,8908],[98.6,8993],[98.6,9078],[98.6,9163],[98.6,9248],[98.6,9333],[98.6,9419],[98.6,9502],[98.6,9587],[98.6,9672],[98.6,9759],[98.6,9842],[98.6,9927],[98.6,10011],[98.6,10096],[98.6,10181],[98.6,10266],[98.6,10351],[98.6,10436],[98.6,10521],[98.6,10605],[98.6,10690],[98.6,10775],[98.6,10860],[98.6,10945],[98.6,11029],[98.6,11114],[98.6,11199],[98.6,11284],[98.6,11369],[98.6,11454],[98.6,11539],[98.6,11623],[98.6,11708],[98.6,11793],[98.6,11878],[98.6,11963],[98.6,12048],[98.6,12132],[98.6,12217],[98.6,12302],[98.6,12387],[98.6,12472],[98.6,12557],[98.6,12642],[98.6,12726],[98.6,12811],[98.6,12896],[98.6,12981],[98.6,13066],[98.6,13151],[98.6,13235]]",803.8017,807.8621,99.375,3.3467,"[{""rating"":99.375,""responseTime"":3.346699999995508}]",space,3.5477,,807.8621,Definitely yes,100,807.8634,,,[],,0,1,1,1,1,audio/Narrative7Situation1.wav,audio/Narrative8Situation1.wav,audio/Narrative5Situation1.wav,audio/Narrative6Situation1.wav,2,5,5,2,,,,,,,,,,,,,,,,,,,,,,,,,,,,,,,,,,,,,,,
,,,,,66823a439b3e59a13b37a28f,2025-07-07_20h32.13.379,group3.4_multiperson,2023.2.2,Win32,166.6666667,686c2ebf0248f13bef9af11f,686c912332026250d29b08de,,,,,,,,,,,,,,,,,,,,,,,,,,,,,807.8636,2,audio/Narrative5Situation2.wav,810.8681,,810.8681,840.3102,"[[93.6,15783],[96.3,15866],[96.3,15951],[98,16037],[99.9,16122],[99.9,16205],[99.9,16290],[99.9,16375],[99.9,16460],[99.9,16545],[99.9,16629],[100,16714],[98.9,16801],[99,16884],[99,16969],[99,17054],[98.9,17140],[98.6,17224],[98.2,17308],[97.7,17393],[97.5,17478],[97.1,17563],[96.9,17648],[96.6,17733],[96.3,17817],[96.1,17902],[96.1,17987],[96.1,18072],[96.1,18157],[96.1,18242],[96.1,18326],[96.1,18411],[96.1,18496],[95.7,18585],[95.3,18666],[94.9,18751],[94.5,18839],[94,18923],[93.5,19005],[92.9,19090],[91.8,19175],[91,19260],[90.8,19345],[90.3,19431],[90.3,19514],[90.3,19599],[90.3,19684],[90.3,19769],[90.3,19854],[90.3,19938],[90.3,20023],[90.3,20108],[90.3,20193],[90.3,20278],[90.3,20363],[90.3,20448],[90.3,20532],[90.3,20617],[90.3,20702],[90.3,20787],[90.3,20875],[89.5,20960],[89.4,21042],[89.3,21130],[89.2,21211],[89.2,21296],[89.1,21381],[89.1,21466],[89,21551],[89,21637],[89,21720],[89,21805],[89,21890],[89,21975],[89,22060],[89,22144],[89,22229],[89,22314],[89,22399],[89,22484],[88.4,22571],[88.3,22654],[87.6,22738],[87.4,22823],[87.4,22908],[87.3,22993],[87.3,23078],[87.3,23163],[87.3,23248],[87.3,23332],[87.3,23417],[87.3,23502],[87.3,23587],[87.3,23672],[87.3,23757],[87.3,23843],[87.3,23926],[87.3,24011],[87.3,24096],[87.3,24181],[87.3,24266],[87.3,24351],[87.3,24436],[87.3,24520],[87.3,24605],[87.3,24690],[87.3,24775],[87.3,24860],[87.3,24946],[87.3,25029],[87.3,25114],[87.3,25199],[87.3,25284],[87.3,25369],[87.3,25457],[87.3,25538],[87.3,25623],[87.3,25708],[87.3,25793],[87.3,25879],[87.3,25963],[87.3,26048],[87.3,26132],[87.3,26217],[87.3,26302],[98.8,26389],[100,26474],[100,26557],[100,26642],[100,26726],[100,26811],[100,26896],[100,26981],[100,27066],[100,27151],[100,27235],[100,27322],[100,27405],[100,27490],[90.6,27577],[71,27662],[60,27744],[50.8,27833],[44.5,27918],[35.7,28003],[35.7,28084],[32.3,28171],[26.7,28254],[20.5,28339],[17.9,28425],[16.1,28508],[16,28593],[16,28678],[16,28764],[16,28847],[16,28932],[16,29017],[16,29102],[16,29187],[16,29272],[16,29356],[16,29441]]",840.3103,842.813,23.02083333,0.953,"[{""rating"":23.020833333333336,""responseTime"":0.9529999999999745}]",space,1.9877,,842.8131,Definitely yes,100,842.8139,,,[],,0,2,2,2,1,audio/Narrative7Situation2.wav,audio/Narrative8Situation2.wav,audio/Narrative5Situation2.wav,audio/Narrative6Situation2.wav,3,3,3,3,,,,,,,,,,,,,,,,,,,,,,,,,,,,,,,,,,,,,,,
,,,,,66823a439b3e59a13b37a28f,2025-07-07_20h32.13.379,group3.4_multiperson,2023.2.2,Win32,166.6666667,686c2ebf0248f13bef9af11f,686c912332026250d29b08de,,,,,,,,,,,,,,,,,,,,,,,,,,,,,842.814,2,audio/Narrative5Situation3.wav,845.819,,845.819,859.7098,"[[999,0],[999,84],[999,169],[999,254],[999,339],[999,424],[999,509],[999,595],[999,678],[999,763],[999,848],[999,933],[999,1018],[999,1102],[999,1187],[999,1272],[999,1357],[999,1442],[999,1527],[999,1611],[999,1696],[999,1781],[999,1866],[999,1951],[999,2036],[999,2121],[999,2206],[999,2290],[999,2375],[999,2460],[999,2545],[999,2630],[999,2715],[999,2799],[999,2884],[999,2969],[999,3054],[999,3139],[999,3224],[999,3310],[999,3395],[999,3480],[92.6,3565],[92.6,3648],[97.9,3735],[100,3820],[100,3902],[100,3987],[100,4072],[100,4157],[100,4242],[100,4330],[100,4412],[100,4496],[100,4581],[100,4666],[100,4751],[100,4836],[100,4922],[100,5005],[100,5090],[100,5175],[100,5260],[100,5345],[100,5430],[100,5514],[100,5599],[100,5684],[100,5769],[100,5854],[100,5940],[100,6025],[100,6109],[100,6193],[100,6278],[100,6363],[100,6448],[100,6533],[100,6618],[100,6702],[100,6791],[100,6872],[100,6957],[100,7045],[100,7127],[100,7211],[100,7296],[100,7381],[100,7466],[100,7551],[100,7636],[100,7721],[100,7805],[100,7890],[100,7975],[100,8060],[100,8145],[100,8230],[100,8314],[100,8399],[100,8484],[100,8569],[100,8656],[100,8739],[100,8823],[100,8908],[100,8993],[100,9078],[100,9163],[100,9248],[100,9333],[100,9418],[100,9503],[100,9587],[100,9672],[100,9757],[100,9842],[100,9927],[100,10011],[100,10096],[100,10181],[100,10268],[100,10351],[100,10436],[100,10520],[100,10605],[100,10690],[100,10775],[100,10860],[100,10945],[100,11030],[100,11114],[100,11199],[100,11286],[100,11369],[100,11454],[100,11539],[100,11624],[100,11708],[100,11793],[100,11878],[100,11963],[100,12048],[100,12133],[100,12217],[100,12304],[100,12387],[100,12472],[100,12557],[100,12642],[100,12727],[100,12811],[100,12896],[100,12981],[100,13067],[100,13151],[100,13236],[100,13321],[100,13405],[100,13490],[100,13575],[100,13660],[100,13745],[100,13830]]",859.7099,861.9308,99.89583333,0.9737,"[{""rating"":99.89583333333334,""responseTime"":0.9736999999955742}]",space,1.7054,,861.9309,Partially,50,861.9325,,,[],,0,3,3,3,1,audio/Narrative7Situation3.wav,audio/Narrative8Situation3.wav,audio/Narrative5Situation3.wav,audio/Narrative6Situation3.wav,8,4,3,5,,,,,,,,,,,,,,,,,,,,,,,,,,,,,,,,,,,,,,,
,,,,,66823a439b3e59a13b37a28f,2025-07-07_20h32.13.379,group3.4_multiperson,2023.2.2,Win32,166.6666667,686c2ebf0248f13bef9af11f,686c912332026250d29b08de,,,,,,,,,,,,,,,,,,,,,,,,,,,,,861.9327,2,audio/Narrative5Situation4.wav,862.9338,,862.9338,883.3049,"[[98.9,1698],[97.5,1783],[97.5,1866],[97.9,1951],[100,2038],[100,2121],[100,2206],[100,2290],[100,2375],[100,2460],[100,2545],[100,2630],[100,2715],[100,2800],[100,2884],[100,2969],[100,3054],[100,3139],[100,3224],[100,3309],[100,3394],[100,3478],[100,3563],[100,3648],[100,3733],[100,3821],[100,3906],[100,3989],[100,4072],[100,4159],[100,4242],[100,4327],[100,4412],[100,4496],[100,4581],[100,4666],[100,4751],[100,4836],[100,4921],[100,5006],[100,5090],[100,5175],[100,5261],[100,5345],[100,5430],[100,5515],[100,5599],[100,5684],[100,5769],[100,5854],[100,5939],[100,6024],[100,6108],[100,6193],[100,6280],[100,6363],[100,6448],[100,6533],[100,6618],[100,6702],[100,6787],[100,6872],[100,6957],[100,7042],[100,7127],[100,7213],[100,7296],[100,7381],[100,7466],[100,7551],[100,7636],[100,7721],[100,7805],[100,7890],[100,7975],[100,8060],[100,8145],[100,8230],[100,8315],[100,8400],[100,8484],[100,8569],[100,8654],[100,8739],[100,8824],[100,8908],[100,8993],[100,9078],[100,9163],[100,9248],[100,9333],[100,9418],[100,9503],[100,9587],[100,9672],[100,9757],[100,9842],[100,9927],[100,10012],[100,10096],[100,10181],[100,10266],[100,10351],[100,10439],[100,10521],[100,10605],[100,10690],[100,10775],[100,10860],[100,10945],[100,11030],[100,11115],[100,11199],[100,11284],[100,11369],[100,11454],[100,11539],[100,11624],[100,11708],[100,11793],[100,11878],[100,11963],[100,12048],[100,12133],[100,12218],[100,12302],[100,12387],[100,12472],[100,12557],[100,12642],[100,12727],[100,12812],[100,12896],[100,12981],[100,13066],[100,13154],[100,13236],[100,13321],[98.8,13405],[98.8,13490],[98.8,13575],[99.8,13662],[100,13745],[100,13830],[100,13915],[100,13999],[100,14084],[100,14169],[100,14254],[100,14339],[100,14424],[100,14508],[100,14593],[100,14678],[100,14765],[100,14848],[100,14933],[100,15017],[100,15102],[100,15187],[100,15272],[100,15360],[100,15442],[100,15527],[100,15612],[100,15696],[100,15781],[100,15866],[100,15951],[100,16036],[100,16121],[100,16205],[100,16290],[100,16377],[100,16460],[100,16545],[100,16630],[100,16715],[100,16799],[100,16884],[100,16971],[100,17054],[100,17139],[100,17224],[100,17308],[100,17393],[100,17482],[100,17563],[100,17648],[100,17736],[100,17817],[100,17902],[100,17987],[100,18072],[100,18157],[100,18242],[100,18327],[100,18411],[100,18498],[100,18581],[100,18666],[100,18751],[100,18837],[100,18920],[100,19005],[100,19090],[100,19175],[100,19260],[100,19346],[100,19430],[100,19516],[100,19601],[100,19684],[100,19769],[100,19854],[100,19939],[100,20023],[100,20108],[100,20193],[100,20278],[100,20363]]",883.305,886.2122,100,2.2844,"[{""rating"":99.27083333333333,""responseTime"":1.6683000000044785},{""rating"":100,""responseTime"":2.284399999998527}]",space,2.3982,,886.2123,Definitely yes,100,886.2135,,,[],,0,4,4,4,1,audio/Narrative7Situation4.wav,audio/Narrative8Situation4.wav,audio/Narrative5Situation4.wav,audio/Narrative6Situation4.wav,3,3,1,2,,,,,,,,,,,,,,,,,,,,,,,,,,,,,,,,,,,,,,,
,,,,,66823a439b3e59a13b37a28f,2025-07-07_20h32.13.379,group3.4_multiperson,2023.2.2,Win32,166.6666667,686c2ebf0248f13bef9af11f,686c912332026250d29b08de,,,,,,,,,,,,,,,,,,,,,,,,,,,,,886.2137,2,audio/Narrative5Situation5.wav,891.2186,,891.2186,906.6258,"[[98.8,765],[86.5,851],[85.8,932],[85.8,1021],[91.7,1106],[98,1191],[100,1274],[100,1356],[100,1442],[100,1526],[100,1611],[100,1696],[100,1781],[100,1866],[100,1951],[100,2035],[100,2120],[100,2205],[100,2290],[100,2375],[100,2460],[100,2544],[100,2629],[100,2714],[100,2799],[100,2884],[100,2969],[100,3053],[100,3139],[100,3223],[100,3308],[100,3393],[100,3478],[100,3563],[100,3648],[100,3732],[100,3817],[100,3902],[100,3989],[100,4072],[100,4158],[100,4241],[100,4326],[100,4411],[100,4496],[100,4581],[100,4666],[100,4751],[100,4836],[100,4920],[100,5005],[100,5090],[14.1,5770],[11.4,5855],[11.4,5940],[11.4,6023],[11.4,6108],[10.9,6193],[10.9,6278],[9.1,6365],[6.6,6449],[6.3,6532],[6.1,6619],[6.1,6704],[6.1,6787],[6.1,6872],[6.1,6958],[7.7,7043],[21.5,7128],[22.5,7211],[22.5,7296],[22.5,7381],[22.5,7466],[22.5,7550],[22.5,7635],[22.5,7720],[22.5,7805],[22.5,7890],[22.5,7975],[22.5,8061],[22.5,8146],[22.5,8229],[22.5,8316],[22.5,8401],[22.5,8484],[22.5,8569],[22.5,8653],[22.5,8738],[22.5,8823],[22.5,8908],[22.5,8993],[22.5,9078],[22.5,9163],[22.5,9247],[22.5,9332],[22.5,9417],[22.5,9502],[22.5,9587],[22.5,9672],[22.5,9756],[22.5,9841],[22.5,9926],[22.5,10011],[22.5,10096],[22.5,10181],[22.5,10266],[22.5,10351],[22.5,10435],[22.5,10520],[22.5,10605],[22.5,10690],[22.5,10776],[22.5,10860],[22.5,10944],[22.5,11029],[22.5,11114],[22.5,11199],[22.5,11284],[22.5,11369],[22.5,11453],[22.5,11538],[22.5,11623],[22.5,11708],[22.5,11793],[22.5,11878],[22.5,11962],[22.5,12047],[22.5,12132],[22.5,12217],[22.5,12306],[22.5,12387],[22.5,12472],[22.5,12557],[22.5,12641],[22.5,12726],[22.5,12811],[22.5,12896],[22.5,12981],[22.5,13066],[22.5,13150],[22.5,13235],[22.5,13320],[22.5,13405],[22.5,13492],[22.5,13575],[22.5,13659],[22.5,13744],[22.5,13829],[22.5,13914],[22.5,13999],[22.5,14086],[22.5,14168],[22.5,14253],[22.5,14339],[22.5,14423],[22.5,14508],[22.5,14593],[22.5,14678],[22.5,14762],[22.5,14847],[22.5,14932],[22.5,15017],[22.5,15102],[22.5,15187],[13.3,15274],[13.3,15356]]",906.6259,909.2301,0.104166667,1.739,"[{""rating"":0.1041666666666663,""responseTime"":1.7390000000000327}]",space,2.0868,,909.2301,Definitely yes,100,909.2309,,,[],,0,5,5,5,1,audio/Narrative7Situation5.wav,audio/Narrative8Situation5.wav,audio/Narrative5Situation5.wav,audio/Narrative6Situation5.wav,5,2,5,2,,,,,,,,,,,,,,,,,,,,,,,,,,,,,,,,,,,,,,,
,,,,,66823a439b3e59a13b37a28f,2025-07-07_20h32.13.379,group3.4_multiperson,2023.2.2,Win32,166.6666667,686c2ebf0248f13bef9af11f,686c912332026250d29b08de,,,,,,,,,,,,,,,,,,,,,,,,,,,,,909.2311,2,audio/Narrative5Situation6.wav,912.236,,912.236,917.8965,"[[1.3,1274],[2.4,1357],[3.5,1444],[3.5,1527],[11.8,1614],[20.9,1698],[32.9,1783],[54.2,1868],[68.2,1953],[68.2,2036],[80.5,2123],[84.7,2207],[84.7,2290],[84.7,2375],[84.7,2460],[84.7,2545],[84.7,2630],[84.7,2715],[86,2803],[86.1,2884],[86.3,2969],[86.3,3054],[88.3,3139],[88.3,3224],[88.3,3310],[88.3,3393],[88.3,3478],[88.3,3563],[88.3,3648],[88.3,3733],[88.4,3819],[88.4,3903],[88.4,3987],[88.4,4072],[88.4,4157],[88.4,4242],[88.4,4327],[88.4,4412],[88.4,4496],[88.4,4581],[88.4,4666],[88.4,4751],[88.4,4836],[88.4,4921],[88.5,5005],[88.5,5090],[88.5,5175],[88.5,5260],[88.5,5345],[88.5,5430],[88.5,5514],[88.5,5599]]",917.8966,920.2073,99.89583333,1.3047,"[{""rating"":99.89583333333334,""responseTime"":1.3047000000029811}]",space,1.7967,,920.2074,Not at all,0,920.2087,,,[],,0,6,6,6,1,audio/Narrative7Situation6.wav,audio/Narrative8Situation6.wav,audio/Narrative5Situation6.wav,audio/Narrative6Situation6.wav,3,2,3,2,,,,,,,,,,,,,,,,,,,,,,,,,,,,,,,,,,,,,,,
,,,,,66823a439b3e59a13b37a28f,2025-07-07_20h32.13.379,group3.4_multiperson,2023.2.2,Win32,166.6666667,686c2ebf0248f13bef9af11f,686c912332026250d29b08de,,,,,,,,,,,,,,,,,,,,,,,,,,,,,920.2088,2,audio/Narrative5Situation7.wav,924.2115,,924.2115,945.2295,"[[99.2,1527],[98.3,1612],[98.3,1697],[98.3,1781],[100,1868],[100,1951],[100,2036],[100,2121],[100,2206],[100,2290],[100,2375],[100,2460],[100,2545],[100,2630],[100,2715],[100,2799],[100,2884],[100,2969],[100,3056],[100,3139],[100,3226],[100,3308],[100,3394],[100,3480],[100,3563],[100,3649],[100,3735],[100,3818],[100,3903],[100,3987],[100,4072],[100,4157],[100,4242],[100,4327],[100,4413],[100,4496],[100,4581],[100,4666],[100,4751],[100,4836],[100,4923],[100,5006],[100,5090],[100,5175],[100,5260],[100,5346],[100,5430],[100,5515],[100,5600],[100,5684],[100,5769],[100,5854],[100,5941],[99.3,6024],[98.2,6110],[93.4,6195],[92.7,6278],[92.7,6363],[92.7,6448],[91.5,6535],[88.4,6618],[85.7,6704],[76.5,6789],[67.6,6872],[65.8,6961],[65.8,7042],[65.8,7130],[65.5,7216],[64.7,7298],[62.5,7381],[56,7468],[55.9,7551],[55.9,7636],[55.9,7721],[55.9,7805],[55.8,7890],[52.1,7975],[51.8,8062],[51.8,8145],[53.1,8232],[65.8,8316],[82.5,8399],[82.5,8484],[89.3,8569],[90.4,8656],[90.6,8739],[88.3,8826],[83.1,8908],[77.2,8993],[75.6,9078],[72.6,9167],[70.7,9251],[70.5,9334],[70.5,9418],[70.5,9502],[70.5,9589],[70.5,9672],[70.5,9757],[70.5,9842],[70.5,9927],[70.5,10011],[70.5,10096],[70.5,10181],[70.5,10266],[70.5,10351],[70.5,10436],[70.5,10521],[70.5,10607],[70.5,10690],[70.5,10775],[70.5,10860],[70.5,10945],[70.5,11030],[70.5,11115],[70.5,11199],[70.5,11284],[70.5,11369],[70.5,11454],[70.5,11539],[70.7,11625],[70.9,11709],[72.5,11795],[74.8,11878],[74.9,11965],[74.9,12048],[74.9,12132],[74.9,12217],[74.9,12302],[74.9,12387],[74.9,12472],[74.9,12557],[74.9,12642],[74.9,12727],[74.9,12812],[74.9,12896],[74.9,12981],[74.9,13066],[74.9,13151],[74.9,13236],[74.9,13321],[74.9,13405],[74.9,13490],[74.9,13575],[74.9,13664],[74.9,13745],[74.9,13830],[74.9,13915],[74.9,13999],[74.9,14084],[74.9,14171],[74.9,14254],[74.9,14339],[74.9,14424],[74.9,14508],[74.9,14593],[75.2,14678],[76,14763],[77.8,14850],[78.2,14934],[78.9,15018],[79.1,15102],[79.1,15187],[79.1,15272],[76.1,15359],[73.6,15444],[73.1,15527],[72.2,15611],[71.8,15696],[71.8,15785],[71.6,15866],[66.5,15955],[55.7,16038],[52.2,16120],[50.6,16207],[49.2,16290],[48.9,16375],[48.9,16460],[48.9,16545],[48.9,16630],[48.9,16714],[49.5,16799],[49.5,16884],[49.5,16969],[49.5,17054],[49.5,17139],[49.5,17224],[49.5,17308],[49.5,17393],[48.8,17478],[46.9,17565],[41.7,17650],[41.7,17732],[31.7,17821],[30.3,17906],[29.8,17987],[29.5,18075],[29.5,18157],[29.5,18242],[32.8,18328],[41.8,18413],[51.1,18498],[51.4,18581],[51.4,18666],[51.4,18751],[51.4,18836],[50.8,18922],[49.6,19007],[48.8,19092],[48.6,19175],[48.6,19260],[48.6,19345],[48.6,19429],[48.6,19516],[48.6,19599],[48.6,19686],[48.6,19769],[18.3,20363],[18.3,20449],[18.6,20534],[18.8,20617],[18.8,20702],[18.8,20787],[18.8,20872],[18.8,20957]]",945.2296,947.2736,14.58333333,1.1604,"[{""rating"":16.041666666666664,""responseTime"":0.8156000000014956},{""rating"":14.583333333333332,""responseTime"":1.1603999999985035}]",space,1.5282,,947.2736,Definitely yes,100,947.2749,,,[],,0,7,7,7,1,audio/Narrative7Situation7.wav,audio/Narrative8Situation7.wav,audio/Narrative5Situation7.wav,audio/Narrative6Situation7.wav,5,3,4,5,,,,,,,,,,,,,,,,,,,,,,,,,,,,,,,,,,,,,,,
,,,,,66823a439b3e59a13b37a28f,2025-07-07_20h32.13.379,group3.4_multiperson,2023.2.2,Win32,166.6666667,686c2ebf0248f13bef9af11f,686c912332026250d29b08de,,,,,,,,,,,,,,,,,,,,,,,,,,,,,947.275,2,audio/Narrative5Situation8.wav,950.2778,,950.2779,959.0797,"[[24.4,1274],[30.1,1357],[37,1442],[38.8,1529],[48.9,1613],[60,1698],[66.4,1783],[68.8,1866],[83.2,1953],[85.4,2036],[87.1,2123],[87.8,2205],[87.8,2290],[87.8,2375],[87.8,2460],[87.8,2546],[87.8,2630],[87.8,2715],[87.8,2799],[87.8,2884],[87.8,2971],[87.8,3054],[87.8,3139],[87.8,3224],[87.8,3308],[87.8,3393],[87.8,3478],[87.8,3563],[87.8,3648],[87.8,3733],[87.8,3819],[87.8,3902],[87.8,3987],[87.8,4072],[87.8,4157],[87.8,4242],[87.8,4328],[87.8,4411],[87.8,4496],[87.8,4581],[87.8,4666],[87.8,4753],[87.8,4836],[87.8,4921],[87.8,5005],[87.8,5092],[87.8,5175],[87.8,5260],[87.8,5345],[87.8,5430],[87.8,5514],[87.8,5599],[87.8,5684],[87.8,5769],[87.8,5854],[87.8,5939],[87.8,6023],[87.8,6108],[87.8,6193],[87.8,6278],[87.8,6365],[87.8,6448],[87.8,6533],[87.8,6619],[87.8,6702],[87.8,6787],[87.8,6872],[87.8,6957],[87.8,7042],[87.8,7127],[87.8,7211],[87.8,7296],[87.8,7381],[87.8,7466],[87.8,7551],[87.8,7636],[87.8,7721],[87.8,7805],[87.8,7890],[87.8,7979],[87.8,8060],[87.8,8145],[91.6,8231],[96.4,8316],[98.5,8401],[99.8,8484],[99.8,8569],[80,8656],[51.7,8741]]",959.0797,961.7816,23.95833333,1.7394,"[{""rating"":43.541666666666664,""responseTime"":0.9608999999984462},{""rating"":23.958333333333332,""responseTime"":1.7393999999984544}]",space,2.1897,,961.7818,Not at all,0,965.0958,0,2.4061,"[{""rating"":0,""responseTime"":2.4061000000015156}]",space,0,8,8,8,1,audio/Narrative7Situation8.wav,audio/Narrative8Situation8.wav,audio/Narrative5Situation8.wav,audio/Narrative6Situation8.wav,2,3,3,5,,,2.8016,,,,,,,,,,,,,,,,,,,,,,,,,,,,,,,,,,,,
,,,,,66823a439b3e59a13b37a28f,2025-07-07_20h32.13.379,group3.4_multiperson,2023.2.2,Win32,166.6666667,686c2ebf0248f13bef9af11f,686c912332026250d29b08de,,,,,,,,,,,,,,,,,,,,,,,,,,,,,965.096,2,audio/Narrative5Situation9.wav,968.1017,,968.1018,1007.6222,"[[3.5,1361],[9,1446],[11.7,1527],[63,1615],[77.9,1953],[78.6,2036],[85,2123],[91.6,2208],[100,2292],[100,2375],[100,2460],[100,2545],[100,2631],[100,2715],[100,2800],[100,2884],[100,2969],[100,3054],[100,3139],[100,3224],[100,3309],[100,3393],[100,3482],[100,3565],[100,3648],[100,3733],[100,3818],[100,3903],[100,3987],[100,4072],[100,4157],[100,4242],[100,4327],[100,4412],[100,4496],[100,4581],[100,4666],[100,4751],[100,4836],[100,4921],[100,5006],[100,5090],[100,5175],[100,5260],[100,5345],[100,5430],[100,5515],[100,5599],[100,5684],[100,5769],[100,5854],[100,5939],[100,6027],[100,6108],[100,6193],[100,6278],[100,6363],[100,6448],[100,6533],[100,6618],[100,6702],[100,6787],[100,6872],[100,6957],[100,7042],[100,7127],[100,7211],[100,7296],[100,7381],[100,7466],[100,7551],[100,7636],[100,7721],[100,7805],[100,7890],[100,7975],[100,8060],[100,8145],[100,8230],[100,8314],[100,8399],[100,8484],[100,8569],[100,8656],[100,8739],[100,8824],[100,8908],[100,8995],[100,9078],[100,9163],[100,9248],[100,9333],[100,9417],[100,9502],[100,9587],[100,9672],[100,9757],[100,9842],[100,9927],[100,10011],[100,10096],[100,10181],[100,10266],[100,10351],[100,10439],[100,10521],[100,10605],[100,10690],[100,10775],[100,10860],[100,10945],[100,11030],[100,11114],[100,11199],[100,11284],[100,11369],[100,11454],[100,11538],[100,11625],[100,11708],[100,11793],[100,11878],[100,11963],[100,12048],[100,12133],[100,12217],[100,12302],[100,12387],[100,12472],[100,12557],[100,12642],[100,12727],[100,12811],[100,12896],[100,12981],[100,13066],[100,13151],[100,13235],[100,13320],[100,13405],[100,13490],[100,13575],[100,13662],[100,13745],[100,13829],[100,13914],[100,13999],[100,14084],[100,14169],[100,14254],[100,14339],[100,14423],[100,14508],[100,14593],[100,14678],[100,14763],[100,14848],[100,14932],[100,15017],[100,15102],[100,15187],[100,15275],[100,15357],[100,15442],[100,15526],[100,15611],[100,15696],[100,15781],[100,15866],[100,15951],[100,16037],[100,16122],[100,16205],[100,16292],[100,16375],[100,16460],[100,16545],[100,16629],[100,16714],[100,16799],[100,16884],[100,16969],[100,17054],[100,17139],[100,17223],[100,17308],[100,17393],[100,17478],[100,17563],[100,17649],[100,17733],[100,17817],[100,17902],[100,17987],[100,18074],[100,18157],[100,18242],[100,18326],[100,18411],[100,18496],[100,18581],[100,18666],[100,18751],[100,18835],[100,18920],[100,19005],[100,19090],[100,19175],[100,19260],[100,19345],[100,19429],[100,19514],[100,19599],[100,19684],[100,19769],[100,19854],[100,19939],[100,20023],[100,20108],[100,20193],[100,20278],[100,20363],[100,20448],[100,20532],[100,20617],[100,20702],[100,20789],[100,20872],[100,20957],[100,21042],[100,21126],[100,21211],[100,21296],[100,21381],[100,21466],[100,21551],[100,21635],[100,21720],[100,21805],[100,21890],[100,21975],[100,22060],[100,22148],[100,22229],[100,22314],[100,22399],[100,22484],[100,22569],[100,22655],[100,22739],[100,22823],[100,22908],[100,22993],[100,23078],[100,23163],[100,23248],[100,23332],[100,23417],[100,23502],[100,23587],[100,23672],[100,23757],[100,23843],[100,23926],[100,24011],[100,24097],[100,24181],[100,24266],[100,24350],[100,24435],[100,24520],[100,24605],[100,24690],[100,24777],[100,24860],[100,24945],[100,25029],[100,25114],[100,25199],[100,25284],[100,25369],[100,25455],[100,25538],[100,25623],[100,25708],[100,25793],[100,25878],[100,25963],[100,26049],[100,26132],[100,26217],[100,26302],[100,26387],[100,26472],[100,26557],[100,26641],[100,26726],[100,26811],[100,26896],[100,26981],[100,27066],[100,27151],[100,27236],[100,27320],[100,27405],[100,27490],[100,27575],[100,27660],[100,27744],[100,27829],[100,27914],[100,27999],[100,28084],[100,28169],[100,28253],[100,28338],[100,28425],[100,28508],[100,28593],[100,28678],[100,28763],[100,28848],[100,28932],[100,29017],[100,29102],[100,29190],[100,29272],[100,29357],[100,29441],[100,29526],[100,29611],[100,29696],[100,29781],[100,29866],[100,29950],[100,30035],[100,30120],[100,30205],[100,30290],[100,30375],[100,30460],[100,30545],[100,30629],[100,30714],[100,30799],[100,30884],[100,30969],[100,31054],[100,31138],[100,31223],[100,31308],[100,31393],[100,31478],[100,31562],[100,31647],[100,31732],[100,31817],[100,31902],[100,31988],[100,32072],[100,32157],[100,32241],[100,32326],[100,32411],[100,32496],[100,32581],[100,32666],[100,32750],[100,32835],[100,32920],[100,33005],[100,33090],[100,33175],[100,33259],[100,33344],[100,33429],[100,33514],[100,33601],[100,33684],[100,33769],[100,33854],[100,33938],[100,34023],[100,34108],[100,34193],[100,34278],[100,34363],[100,34447],[100,34532],[100,34617],[100,34702],[100,34787],[100,34872],[100,34956],[100,35043],[100,35126],[100,35211],[100,35296],[100,35381],[100,35465],[100,35550],[100,35635],[100,35720],[100,35805],[100,35890],[100,35975],[100,36060],[100,36144],[100,36229],[100,36314],[100,36402],[100,36484],[100,36568],[100,36653],[100,36738],[100,36823],[100,36908],[100,36993],[100,37078],[100,37162],[97.4,37249],[71.7,37334],[67.9,37417],[67.9,37502],[67.9,37587],[67.9,37672],[67.9,37756],[67.9,37841],[65.3,37928],[63.2,38011],[61.3,38096],[61.3,38182],[61.3,38266],[61.3,38350],[62.4,38439],[64.8,38520],[69.9,38609],[70.1,38690],[70.1,38775],[70.1,38859],[70.1,38944],[70.1,39029],[70.1,39114],[70.1,39199],[70.1,39284],[70.1,39368],[70.1,39453]]",1007.6224,1010.4707,100,1.6257,"[{""rating"":85.41666666666667,""responseTime"":1.00289999999859},{""rating"":100,""responseTime"":1.6256999999955042}]",space,2.3286,,1010.4707,Definitely yes,100,1010.4721,,,[],,0,9,9,9,1,audio/Narrative7Situation9.wav,audio/Narrative8Situation9.wav,audio/Narrative5Situation9.wav,audio/Narrative6Situation9.wav,2,3,3,4,,,,,,,,,,,,,,,,,,,,,,,,,,,,,,,,,,,,,,,
,,,,,66823a439b3e59a13b37a28f,2025-07-07_20h32.13.379,group3.4_multiperson,2023.2.2,Win32,166.6666667,686c2ebf0248f13bef9af11f,686c912332026250d29b08de,,,,,,,,,,,,,,,,,,,,,,,,,,,,,1010.4723,2,audio/Narrative6Situation1.wav,1012.4768,,1012.4768,1039.04,"[[90.5,4244],[84.1,4328],[50.6,4498],[33.4,5005],[33,5090],[32.7,5177],[32.6,5260],[32.6,5345],[40.2,5430],[61.7,5515],[62.1,5599],[62.2,5684],[62.2,5769],[65.2,5854],[86.1,5942],[86.1,6024],[91.1,6108],[89.9,6195],[89.7,6278],[89.7,6363],[89.4,6448],[89.4,6533],[87.1,6617],[87.1,6702],[87.1,6787],[87.1,6872],[87.1,6957],[87.1,7042],[87.1,7127],[87.1,7211],[87.1,7296],[87.1,7381],[87.1,7466],[87.1,7551],[87.1,7636],[87.1,7720],[87.1,7805],[87.1,7890],[87.1,7975],[87.1,8060],[87.1,8145],[87.1,8229],[87.1,8315],[87.1,8399],[87.1,8484],[87.1,8569],[87.1,8654],[87.1,8739],[87.1,8824],[87.1,8908],[87.1,8993],[87.1,9078],[87.1,9163],[87.1,9248],[87.1,9333],[87.1,9419],[87.1,9502],[87.1,9587],[87.1,9672],[87.1,9757],[87.1,9842],[87.1,9927],[87.1,10011],[87.1,10096],[87.1,10181],[87.1,10266],[87.1,10351],[87.1,10439],[87.1,10520],[87.1,10605],[87.1,10690],[87.1,10775],[87.1,10860],[87.1,10945],[87.1,11031],[87.1,11114],[87.1,11199],[87.1,11284],[87.1,11369],[87.1,11454],[87.1,11539],[87.1,11623],[87.1,11708],[87.1,11793],[87.1,11878],[87.1,11963],[87.1,12048],[87.1,12133],[87.1,12217],[87.1,12302],[87.1,12387],[87.1,12472],[87.1,12557],[87.1,12642],[87.1,12727],[87.1,12811],[87.1,12900],[87.1,12981],[87.1,13066],[85.2,13151],[55.5,13238],[53.3,13322],[53.2,13405],[52.8,13492],[47.2,13577],[46.8,13660],[46.5,13745],[46.5,13829],[47.4,13916],[47.7,13999],[40,14086],[26.5,14169],[24.7,14256],[24.7,14339],[24.7,14423],[24.7,14508],[24.7,14593],[24.7,14678],[24.7,14763],[24.7,14848],[24.7,14932],[24.7,15017],[24.7,15102],[24.7,15187],[24.7,15272],[24.7,15357],[24.7,15442],[24.7,15527],[24.7,15611],[24.7,15696],[24.7,15781],[24.7,15866],[24.7,15951],[25.5,16036],[27.4,16122],[28.1,16205],[28.3,16290],[28.3,16376],[28.3,16460],[28.3,16546],[28.3,16631],[28.3,16714],[28.3,16799],[28.3,16884],[28.3,16969],[28.3,17055],[28.3,17140],[28.3,17223],[28.3,17308],[28.3,17393],[28.3,17478],[28.3,17563],[28.3,17648],[28.3,17732],[28.3,17817],[28.3,17902],[28.3,17987],[28.3,18072],[28.3,18157],[28.3,18241],[28.3,18327],[28.3,18411],[28.3,18496],[28.3,18581],[28.3,18666],[28.3,18751],[28.3,18835],[28.3,18920],[28.3,19005],[28.3,19090],[28.3,19175],[28.3,19260],[28.3,19345],[28.3,19430],[28.3,19514],[28.3,19599],[28.3,19684],[28.3,19769],[28.3,19854],[28.3,19939],[28.3,20023],[28.3,20108],[28.3,20193],[28.3,20278],[28.3,20363],[28.3,20448],[28.3,20532],[28.3,20617],[28.3,20702],[28.3,20787],[28.3,20872],[28.6,20957],[28.6,21041],[28.6,21126],[28.6,21211],[28.6,21296],[28.6,21381],[28.6,21467],[28.6,21551],[28.6,21635],[28.6,21720],[28.3,21805],[28.1,21890],[27.7,21975],[27.5,22060],[26.9,22148],[26.9,22229],[26.9,22314],[26.9,22399],[26.9,22486],[26.9,22569],[26.9,22654],[26.9,22739],[26.9,22823],[26.9,22908],[26.9,22993],[26.9,23078],[26.9,23163],[26.9,23248],[26.9,23333],[26.9,23417],[26.9,23502],[26.9,23587],[26.9,23672],[26.9,23757],[30.1,23843],[44.8,23926],[73.6,24013],[84.1,24098],[87.5,24181],[85.1,24269],[82.4,24351],[81,24435],[76.6,24524],[76.6,24605],[76.6,24690],[76.6,24775],[76.6,24860],[76.6,24944],[76.6,25029],[76.6,25116],[76.6,25199],[76.6,25284],[76.6,25369],[76.6,25453],[76.6,25538],[76.6,25623],[76.6,25708],[76.6,25793],[76.6,25878],[76.6,25963],[76.6,26047],[76.6,26132],[76.6,26217],[76.6,26302],[76.6,26387],[76.6,26472],[76.6,26557]]",1039.0401,1040.9247,99.47916667,1.165,"[{""rating"":99.47916666666667,""responseTime"":1.1649999999999636}]",space,1.3729,,1040.9248,Partially,50,1040.926,,,[],,0,10,10,10,1,audio/Narrative8Situation1.wav,audio/Narrative7Situation1.wav,audio/Narrative6Situation1.wav,audio/Narrative5Situation1.wav,5,2,2,5,,,,,,,,,,,,,,,,,,,,,,,,,,,,,,,,,,,,,,,
,,,,,66823a439b3e59a13b37a28f,2025-07-07_20h32.13.379,group3.4_multiperson,2023.2.2,Win32,166.6666667,686c2ebf0248f13bef9af11f,686c912332026250d29b08de,,,,,,,,,,,,,,,,,,,,,,,,,,,,,1040.9261,2,audio/Narrative6Situation2.wav,1043.9308,,1043.9308,1072.4173,"[[91.6,1444],[81.1,1529],[69,1613],[67.6,1698],[67.6,1781],[64.8,1868],[55.2,1953],[53.2,2036],[53.2,2121],[59.9,2210],[59.9,2290],[84.4,2379],[84.8,2460],[84.8,2545],[84.8,2630],[84.3,2714],[84.3,2799],[84.3,2884],[84.3,2969],[84.3,3054],[84.3,3139],[84.3,3224],[84.3,3308],[84.3,3393],[84.3,3478],[84.3,3563],[84.3,3648],[84.3,3733],[84.3,3817],[84.3,3903],[84.3,3987],[84.3,4072],[84.3,4157],[84.3,4242],[84.3,4327],[84.3,4411],[84.3,4496],[84.3,4581],[84.3,4666],[84.3,4751],[84.3,4836],[84.3,4921],[84.3,5005],[84.3,5090],[84.3,5175],[84.3,5260],[84.3,5345],[84.3,5430],[84.3,5515],[84.3,5599],[84.3,5684],[84.3,5769],[84.3,5854],[84.3,5939],[84.3,6024],[84.3,6109],[84.3,6193],[84.3,6280],[84.3,6363],[84.3,6448],[84.3,6533],[84.3,6618],[84.3,6702],[84.3,6787],[84.3,6872],[84.3,6957],[84.3,7042],[84.3,7127],[84.3,7211],[84.3,7296],[84.3,7381],[84.3,7466],[84.3,7551],[84.3,7636],[84.3,7721],[84.3,7805],[84.3,7890],[84.3,7975],[84.3,8060],[84.3,8145],[84.3,8230],[84.3,8315],[84.3,8399],[84.3,8484],[84.3,8569],[84.3,8654],[84.3,8739],[84.3,8824],[84.3,8908],[84.3,8995],[84.3,9082],[84.3,9163],[84.3,9248],[84.3,9333],[84.3,9417],[84.3,9502],[84.3,9587],[84.3,9672],[84.3,9757],[84.3,9842],[84.3,9927],[84.3,10011],[84.3,10096],[84.3,10181],[84.3,10266],[84.3,10351],[84.3,10436],[84.3,10521],[84.3,10605],[84.3,10690],[84.3,10775],[84.3,10860],[84.3,10945],[84.3,11030],[84.3,11115],[84.3,11199],[84.3,11284],[84.3,11369],[84.3,11454],[84.3,11542],[84.3,11624],[84.3,11708],[84.3,11793],[84.3,11878],[84.3,11963],[84.3,12048],[84.3,12133],[84.3,12217],[84.3,12302],[84.3,12387],[84.3,12472],[84.3,12557],[84.3,12642],[95,12728],[100,12813],[100,12896],[100,12981],[100,13066],[100,13151],[100,13236],[100,13321],[100,13407],[100,13490],[100,13577],[100,13660],[100,13745],[100,13830],[100,13917],[100,13999],[100,14084],[100,14169],[100,14254],[100,14339],[100,14423],[100,14508],[100,14593],[100,14678],[100,14763],[100,14849],[100,14933],[100,15017],[100,15102],[100,15187],[100,15272],[100,15357],[100,15443],[100,15526],[100,15611],[100,15696],[97.6,15783],[79.8,15868],[73.4,15952],[69.7,16037],[69.5,16120],[91.4,16209],[100,16290],[100,16375],[100,16460],[100,16547],[100,16629],[99.1,16714],[99.1,16799],[99.1,16884],[99.1,16969],[99.8,17054],[100,17139],[100,17224],[100,17308],[100,17393],[100,17478],[100,17563],[100,17648],[100,17733],[100,17819],[100,17902],[100,17989],[100,18072],[100,18157],[100,18242],[100,18326],[100,18411],[100,18496],[100,18581],[100,18666],[100,18751],[100,18835],[100,18920],[100,19005],[100,19090],[100,19175],[100,19260],[100,19345],[100,19429],[100,19514],[100,19601],[100,19684],[100,19769],[100,19854],[100,19939],[100,20023],[100,20108],[100,20193],[100,20278],[100,20363],[100,20448],[100,20533],[100,20617],[100,20702],[100,20787],[100,20875],[100,20957],[100,21042],[100,21126],[100,21211],[100,21296],[100,21381],[100,21466],[100,21551],[100,21636],[100,21720],[100,21805],[100,21890],[100,21975],[100,22060],[100,22144],[100,22230],[100,22314],[100,22399],[100,22484],[100,22569],[100,22654],[100,22738],[100,22823],[100,22908],[100,22993],[100,23078],[100,23163],[100,23247],[100,23332],[100,23417],[100,23502],[100,23587],[100,23672],[100,23757],[100,23841],[100,23926],[100,24011],[100,24096],[100,24181],[100,24266],[100,24350],[100,24435],[100,24520],[100,24607],[100,24690],[100,24775],[100,24860],[100,24945],[100,25029],[100,25114],[100,25199],[100,25284],[100,25369],[100,25454],[100,25538],[100,25623],[100,25708],[100,25793],[100,25878],[100,25963],[100,26048],[100,26132],[100,26217],[100,26302],[100,26387],[100,26472],[100,26557],[100,26642],[100,26726],[100,26811],[100,26896],[100,26981],[100,27066],[100,27151],[100,27235],[100,27320],[100,27405],[100,27490],[100,27575],[100,27660],[100,27744],[100,27829],[100,27914],[100,27999],[100,28084],[100,28169],[100,28254],[100,28338],[100,28423]]",1072.4174,1074.7182,99.375,1.3951,"[{""rating"":99.375,""responseTime"":1.395100000001321}]",space,1.7899,,1074.7182,Definitely yes,100,1074.7195,,,[],,0,11,11,11,1,audio/Narrative8Situation2.wav,audio/Narrative7Situation2.wav,audio/Narrative6Situation2.wav,audio/Narrative5Situation2.wav,3,3,3,3,,,,,,,,,,,,,,,,,,,,,,,,,,,,,,,,,,,,,,,
,,,,,66823a439b3e59a13b37a28f,2025-07-07_20h32.13.379,group3.4_multiperson,2023.2.2,Win32,166.6666667,686c2ebf0248f13bef9af11f,686c912332026250d29b08de,,,,,,,,,,,,,,,,,,,,,,,,,,,,,1074.7196,2,audio/Narrative6Situation3.wav,1079.7241,,1079.7242,1092.3181,"[[97.4,10777],[91.7,10861],[89.9,10947],[88.2,11030],[88.1,11118],[87.7,11199],[70.1,11288],[63,11880],[65.9,11963],[66,12048],[66.1,12133],[66.4,12217],[70.3,12302],[70.3,12387],[70.3,12472],[70.3,12557]]",1092.3182,1096.6389,100,4.1241,"[{""rating"":75.52083333333333,""responseTime"":0.984000000000151},{""rating"":75.52083333333333,""responseTime"":1.4255000000000564},{""rating"":100,""responseTime"":4.12410000000159}]",space,3.807,,1096.6389,Definitely yes,100,1096.6397,,,[],,0,12,12,12,1,audio/Narrative8Situation3.wav,audio/Narrative7Situation3.wav,audio/Narrative6Situation3.wav,audio/Narrative5Situation3.wav,4,8,5,3,,,,,,,,,,,,,,,,,,,,,,,,,,,,,,,,,,,,,,,
,,,,,66823a439b3e59a13b37a28f,2025-07-07_20h32.13.379,group3.4_multiperson,2023.2.2,Win32,166.6666667,686c2ebf0248f13bef9af11f,686c912332026250d29b08de,,,,,,,,,,,,,,,,,,,,,,,,,,,,,1096.6398,2,audio/Narrative6Situation4.wav,1098.645,,1098.645,1111.2388,"[[100,1104],[94.6,1189],[94.6,1272],[94.6,1357],[97.1,1445],[100,1530],[100,1612],[100,1696],[96.5,1783],[76.5,1868],[65.9,1953],[57.8,2036],[49.2,2123],[44.3,2207],[38.3,2292],[29.4,2377],[24.1,2460],[22.8,2545],[22.8,2630],[22.8,2714],[22.8,2799],[22.8,2884],[22.8,2969],[22.8,3054],[22.8,3139],[22.8,3225],[24.3,3310],[45.6,3395],[65.9,3480],[65.9,3563],[77.2,3648],[78,3736],[79.5,3821],[79.6,3904],[79.8,3987],[79.8,4072],[79.8,4157],[79.8,4242],[79.8,4327],[79.8,4412],[79.8,4496],[79.8,4581],[79.8,4666],[79.8,4751],[79.8,4836],[79.8,4921],[79.8,5006],[79.8,5090],[79.8,5177],[79.8,5260],[79.8,5345],[79.8,5430],[79.8,5515],[79.8,5599],[79.8,5684],[79.8,5769],[79.8,5854],[95.6,5942],[100,6027],[100,6108],[100,6193],[100,6278],[100,6363],[100,6448],[100,6533],[100,6617],[100,6702],[100,6787],[100,6872],[100,6957],[100,7042],[100,7126],[100,7211],[100,7296],[100,7381],[100,7468],[100,7551],[100,7636],[100,7721],[100,7805],[100,7890],[100,7975],[100,8060],[100,8145],[100,8230],[100,8315],[100,8399],[100,8484],[100,8569],[100,8655],[100,8739],[100,8824],[100,8908],[100,8993],[100,9078],[100,9163],[100,9248],[100,9333],[100,9417],[100,9502],[100,9587],[100,9672],[100,9757],[100,9842],[100,9927],[100,10011],[100,10096],[100,10181],[100,10266],[100,10351],[100,10436],[100,10521],[100,10605],[100,10690],[100,10775],[100,10860],[100,10945],[100,11029],[100,11115],[100,11199],[100,11284],[100,11369],[100,11455],[100,11539],[100,11624],[100,11708],[100,11793],[100,11878],[100,11963],[100,12048],[100,12133],[100,12217],[100,12302],[100,12387],[100,12472],[100,12557]]",1111.2389,1116.6205,99.0625,4.4285,"[{""rating"":99.0625,""responseTime"":4.4284999999999854}]",space,4.8689,,1116.6205,Partially,50,1116.6222,,,[],,0,13,13,13,1,audio/Narrative8Situation4.wav,audio/Narrative7Situation4.wav,audio/Narrative6Situation4.wav,audio/Narrative5Situation4.wav,3,3,2,1,,,,,,,,,,,,,,,,,,,,,,,,,,,,,,,,,,,,,,,
,,,,,66823a439b3e59a13b37a28f,2025-07-07_20h32.13.379,group3.4_multiperson,2023.2.2,Win32,166.6666667,686c2ebf0248f13bef9af11f,686c912332026250d29b08de,,,,,,,,,,,,,,,,,,,,,,,,,,,,,1116.6224,2,audio/Narrative6Situation5.wav,1118.6264,,1118.6264,1126.5658,"[[65.4,3226],[99.1,3904],[99.6,3989],[100,4072],[100,4157],[100,4242],[100,4327],[100,4412],[100,4497],[100,4581],[100,4666],[100,4751],[100,4836],[100,4921],[100,5005],[100,5090],[100,5175],[100,5260],[100,5345],[100,5430],[100,5514],[100,5599],[100,5684],[100,5769],[100,5854],[100,5939],[100,6024],[100,6108],[100,6193],[100,6278],[100,6363],[100,6448],[100,6533],[100,6618],[100,6702],[100,6787],[100,6872],[100,6957],[100,7042],[100,7127],[100,7211],[100,7298],[100,7381],[100,7466],[100,7551],[100,7637],[100,7721],[100,7806],[100,7890]]",1126.5659,1129.5961,99.27083333,2.1043,"[{""rating"":99.27083333333333,""responseTime"":2.1042999999970107}]",space,2.5197,,1129.5961,Definitely yes,100,1129.5973,,,[],,0,14,14,14,1,audio/Narrative8Situation5.wav,audio/Narrative7Situation5.wav,audio/Narrative6Situation5.wav,audio/Narrative5Situation5.wav,2,5,2,5,,,,,,,,,,,,,,,,,,,,,,,,,,,,,,,,,,,,,,,
,,,,,66823a439b3e59a13b37a28f,2025-07-07_20h32.13.379,group3.4_multiperson,2023.2.2,Win32,166.6666667,686c2ebf0248f13bef9af11f,686c912332026250d29b08de,,,,,,,,,,,,,,,,,,,,,,,,,,,,,1129.5975,2,audio/Narrative6Situation6.wav,1131.602,,1131.6021,1142.6624,"[[999,0],[999,84],[999,169],[999,254],[999,339],[999,424],[999,509],[999,593],[999,678],[999,763],[999,848],[999,933],[999,1018],[999,1102],[999,1187],[999,1272],[999,1357],[999,1442],[999,1527],[999,1612],[999,1696],[999,1781],[999,1866],[999,1951],[999,2036],[999,2121],[999,2206],[999,2290],[999,2375],[999,2460],[999,2545],[999,2630],[999,2714],[999,2799],[999,2884],[999,2969],[999,3054],[999,3139],[999,3224],[999,3309],[999,3393],[999,3478],[999,3563],[999,3648],[999,3733],[999,3817],[999,3902],[999,3987],[999,4072],[999,4159],[999,4242],[999,4327],[999,4411],[999,4496],[999,4581],[999,4666],[999,4751],[999,4836],[999,4921],[999,5005],[999,5090],[999,5175],[999,5260],[999,5345],[999,5430],[999,5514],[999,5599],[999,5684],[999,5769],[999,5854],[999,5939],[999,6023],[999,6108],[999,6193],[999,6278],[999,6363],[999,6448],[999,6533],[999,6618],[999,6702],[999,6787],[999,6876],[999,6957],[999,7042],[999,7127],[999,7211],[999,7296],[999,7381],[999,7466],[999,7551],[999,7636],[999,7721],[999,7805],[999,7890],[999,7975],[999,8060],[999,8145],[999,8230],[999,8314],[999,8399],[999,8484],[999,8569],[999,8654],[999,8739],[999,8824],[999,8908],[999,8993],[999,9078],[999,9163],[999,9248],[999,9333],[999,9417],[999,9502],[999,9587],[999,9672],[999,9757],[999,9842],[999,9926],[999,10011],[999,10096],[999,10181],[999,10266],[999,10351],[999,10436],[999,10521],[999,10605],[999,10690],[999,10775],[999,10860],[999,10945],[999,11029]]",1142.6625,1146.8927,99.375,3.1869,"[{""rating"":99.375,""responseTime"":3.186899999998559}]",space,3.7152,,1146.8927,Definitely yes,100,1146.8937,,,[],,0,15,15,15,1,audio/Narrative8Situation6.wav,audio/Narrative7Situation6.wav,audio/Narrative6Situation6.wav,audio/Narrative5Situation6.wav,2,3,2,3,,,,,,,,,,,,,,,,,,,,,,,,,,,,,,,,,,,,,,,
,,,,,66823a439b3e59a13b37a28f,2025-07-07_20h32.13.379,group3.4_multiperson,2023.2.2,Win32,166.6666667,686c2ebf0248f13bef9af11f,686c912332026250d29b08de,,,,,,,,,,,,,,,,,,,,,,,,,,,,,1146.8939,2,audio/Narrative6Situation7.wav,1151.8986,,1151.8986,1176.7366,"[[80.9,16207],[75.8,16292],[71.9,16377],[71.1,16460],[71.1,16545],[72.3,16630],[72.7,16714],[73.5,16801],[74.5,16884],[79,16971],[80.6,17056],[80.6,17138],[80.6,17223],[80.6,17308],[80.6,17393],[80.6,17478],[80.6,17563],[80.6,17648],[80.6,17733],[80.6,17817],[80.6,17902],[79.5,17989],[77.5,18074],[77.5,18157],[75.4,18242],[75.4,18327],[75.4,18411],[75.4,18496],[75.4,18581],[75.4,18666],[75.4,18751],[75.4,18836],[75.4,18920],[75.4,19005],[75.4,19092],[75.4,19175],[75.4,19260],[75.4,19345],[75.4,19429],[75.4,19514],[75.4,19603],[75.4,19684],[75.4,19769],[75.4,19854],[75.4,19938],[75.4,20023],[75.4,20108],[75.4,20193],[75.4,20278],[75.4,20363],[75.4,20448],[75.4,20532],[75.4,20617],[75.4,20702],[75.4,20787],[75.4,20872],[75.4,20957],[75.4,21042],[75.4,21126],[75.4,21213],[75.4,21296],[75.9,21383],[76.4,21468],[77.3,21553],[77.9,21635],[77.9,21720],[78,21805],[78,21890],[78,21975],[78,22063],[78,22148],[78,22229],[78,22314],[78,22399],[78,22486],[78,22569],[78,22654],[78,22739],[78,22823],[78,22908],[78,22993],[78,23078],[78,23163],[78,23249],[78,23332],[78,23417],[78,23502],[78,23587],[78,23672],[78,23756],[78,23841],[78,23926],[78,24011],[78,24096],[78,24181],[78,24266],[78,24351],[79.2,24439],[81.1,24523],[81.5,24605],[81.7,24690],[82.1,24775]]",1176.7366,1180.4679,97.91666667,2.8176,"[{""rating"":96.97916666666666,""responseTime"":1.0782999999971707},{""rating"":97.91666666666667,""responseTime"":2.8176000000014483}]",space,3.2225,,1180.4679,Not at all,0,1180.4692,,,[],,0,16,16,16,1,audio/Narrative8Situation7.wav,audio/Narrative7Situation7.wav,audio/Narrative6Situation7.wav,audio/Narrative5Situation7.wav,3,5,5,4,,,,,,,,,,,,,,,,,,,,,,,,,,,,,,,,,,,,,,,
,,,,,66823a439b3e59a13b37a28f,2025-07-07_20h32.13.379,group3.4_multiperson,2023.2.2,Win32,166.6666667,686c2ebf0248f13bef9af11f,686c912332026250d29b08de,,,,,,,,,,,,,,,,,,,,,,,,,,,,,1180.4694,2,audio/Narrative6Situation8.wav,1185.4739,,1185.474,1192.3101,"[[999,0],[999,84],[999,169],[999,254],[999,342],[999,423],[999,508],[999,593],[999,678],[999,763],[999,848],[999,933],[999,1018],[999,1102],[999,1187],[999,1272],[999,1357],[999,1442],[999,1527],[999,1611],[999,1696],[999,1781],[999,1866],[999,1951],[999,2036],[999,2120],[999,2205],[999,2290],[999,2375],[999,2460],[999,2545],[999,2630],[999,2714],[999,2799],[999,2884],[999,2969],[999,3054],[999,3139],[999,3224],[999,3308],[999,3393],[999,3478],[999,3563],[999,3648],[999,3733],[999,3817],[999,3902],[999,3987],[999,4072],[999,4157],[999,4242],[999,4326],[999,4411],[999,4496],[999,4581],[999,4666],[999,4751],[999,4836],[999,4920],[999,5005],[999,5090],[999,5175],[999,5260],[999,5345],[999,5430],[999,5514],[999,5599],[999,5686],[999,5769],[999,5854],[999,5939],[999,6023],[999,6108],[999,6193],[999,6278],[999,6363],[999,6448],[999,6533],[999,6617],[999,6702],[999,6787]]",1192.3101,1199.1524,12.5,5.9712,"[{""rating"":0.5208333333333315,""responseTime"":2.623499999999922},{""rating"":30,""responseTime"":4.586999999999989},{""rating"":12.5,""responseTime"":5.971200000002909}]",space,6.3259,,1199.1524,Partially,50,1199.1538,,,[],,0,17,17,17,1,audio/Narrative8Situation8.wav,audio/Narrative7Situation8.wav,audio/Narrative6Situation8.wav,audio/Narrative5Situation8.wav,3,2,5,3,,,,,,,,,,,,,,,,,,,,,,,,,,,,,,,,,,,,,,,
,,,,,66823a439b3e59a13b37a28f,2025-07-07_20h32.13.379,group3.4_multiperson,2023.2.2,Win32,166.6666667,686c2ebf0248f13bef9af11f,686c912332026250d29b08de,,,,,,,,,,,,,,,,,,,,,,,,,,,,,1199.154,2,audio/Narrative6Situation9.wav,1203.1583,,1203.1583,1213.0855,"[[9.1,6702],[8.6,6789],[0.2,9163],[0.2,9250],[1,9333],[2.2,9418],[3.1,9502],[3.1,9589],[3.1,9672],[1.8,9759],[0.8,9842]]",1213.0856,1216.7762,0,2.9968,"[{""rating"":0.8333333333333359,""responseTime"":2.4757000000029166},{""rating"":0,""responseTime"":2.9968000000044412}]",space,3.1758,,1216.7763,Partially,50,1216.7773,,,[],,0,18,18,18,1,audio/Narrative8Situation9.wav,audio/Narrative7Situation9.wav,audio/Narrative6Situation9.wav,audio/Narrative5Situation9.wav,3,2,4,3,,,,,,,,,,,,,,,,,,,,,,,,,,,,,,,,,,,,,,,
,,,,,66823a439b3e59a13b37a28f,2025-07-07_20h32.13.379,group3.4_multiperson,2023.2.2,Win32,166.6666667,686c2ebf0248f13bef9af11f,686c912332026250d29b08de,,,,,,,,,,,,,,,,,,,,,,,,,,,,,,,,,,,,,,,,,,,,,,,,,,,,,,,,,,,,,,,,,,,,,,1216.7773,1261.8908,space,44.6052,,1261.891,1317.2173,space,55.0191,,,,,,,,,,,,,,,,,,,,,,,,,,
,,,,,66823a439b3e59a13b37a28f,2025-07-07_20h32.13.379,group3.4_multiperson,2023.2.2,Win32,166.6666667,686c2ebf0248f13bef9af11f,686c912332026250d29b08de,,,,,,,,,,,,,,,,,,,,,,,,,,,,,1319.8061,1,audio/Narrative8Situation9.wav,1321.8108,,,,,1353.6529,1357.3921,50.41666667,2.9774,"[{""rating"":65.52083333333334,""responseTime"":1.530999999999949},{""rating"":50.416666666666664,""responseTime"":2.977399999998397}]",space,3.2244,,1357.3921,Not at all,0,1357.3936,,,[],,,,,,,,,,,2,2,2,2,,,,,,,,,,,,,,,1317.2183,1319.7989,1321.811,3,1353.6529,"[[999,0],[999,84],[999,169],[999,254],[999,339],[999,423],[999,508],[999,595],[999,680],[999,765],[999,850],[999,934],[999,1018],[999,1104],[48.2,1189],[48.5,1272],[48.5,1359],[48.1,1444],[48.1,1527],[47.5,1612],[47.5,1696],[47.5,1781],[47.5,1866],[47.5,1951],[47.5,2036],[47.5,2120],[47.5,2209],[47.5,2290],[47.5,2375],[47.5,2460],[47.5,2545],[45.3,2632],[40.6,2716],[30.6,2801],[24.2,2886],[17.7,2971],[17.2,3054],[10.5,3141],[7.9,3225],[5.5,3310],[4.4,3395],[0.2,3480],[0.1,3563],[3.5,4500],[4.1,4581],[22.7,4668],[44.2,4753],[70.6,4838],[78.5,4923],[78.8,5007],[77.7,5090],[22.5,5177],[10.1,5262],[7.1,5347],[0.1,5431],[16.1,21892],[31.9,21975],[51.5,22062],[66.1,22146],[73.4,22231],[74.5,22316],[74.7,22399],[74.7,22484],[74.7,22569],[74.7,22653],[74.7,22738],[74.7,22823],[74.7,22908],[74.7,22993],[74.7,23078],[74.7,23163],[74.7,23248],[74.7,23332],[74.7,23417],[80,23502],[90.8,23589],[91.1,23672],[92.3,23758],[94.7,23843],[97.6,23928],[99.2,24011],[99.2,24097],[100,24182],[100,24266],[100,24351],[100,24435],[100,24520],[100,24605],[100,24690],[100,24775],[100,24860],[100,24944],[100,25029],[100,25114],[100,25199],[100,25287],[100,25370],[100,25453],[100,25538],[100,25623],[100,25708],[100,25793],[100,25878],[100,25962],[100,26048],[100,26132],[100,26217],[100,26302],[100,26387],[100,26472],[100,26556],[100,26641],[100,26727],[100,26811],[100,26896],[100,26981],[100,27066],[100,27150],[100,27235],[100,27320],[100,27405],[100,27490],[100,27575],[100,27659],[100,27744],[100,27829],[100,27914],[100,27999],[100,28084],[100,28169],[100,28253],[100,28338],[100,28423],[100,28508],[100,28593],[100,28678],[100,28763],[100,28849],[100,28932],[100,29017],[100,29102],[100,29188],[100,29273],[100,29356],[100,29441],[100,29530],[100,29611],[100,29696],[100,29781],[100,29866],[100,29951],[100,30035],[100,30120],[100,30205],[100,30290],[100,30375],[100,30459],[100,30544],[100,30629],[100,30716],[100,30800],[100,30884],[100,30969],[100,31053],[100,31138],[100,31223],[100,31308],[100,31393],[100,31478],[100,31563],[100,31649],[100,31732],[100,31817]]",0,0,0,0,1,"Larry had recently lost his family, job and home, and was now living on his own in the park. He had most of his belongings, including some clothes, a blanket, and his mother’s special necklace. His family had been very important to him and he felt as though he did not have much going for him. One of his first days in the park he came across a family that did not have much food and looked very cold. He decided to give them some of his food and his blanket.","Larry had recently lost his family, job and home, and was now living on his own in the park. He had most of his belongings, including some clothes, a blanket, and his mother’s special necklace. His family had been very important to him and he felt as though he did not have much going for him. One of his first days in the park he came across a family that did not have much food and looked very cold. He decided to give them some of his food and his blanket.","Larry had recently lost his family, job and home, and was now living on his own in the park. He had most of his belongings, including some clothes, a blanket, and his mother’s special necklace. His family had been very important to him and he felt as though he did not have much going for him. One of his first days in the park he came across a family that did not have much food and looked very cold. He decided to give them some of his food and his blanket.","Larry had recently lost his family, job and home, and was now living on his own in the park. He had most of his belongings, including some clothes, a blanket, and his mother’s special necklace. His family had been very important to him and he felt as though he did not have much going for him. One of his first days in the park he came across a family that did not have much food and looked very cold. He decided to give them some of his food and his blanket.",,,,,,,,,,
