consent.started,consent.stopped,consentResponse.keys,consentResponse.rt,consentResponse.duration,participantID,date,expName,psychopyVersion,OS,frameRate,STUDY_ID,SESSION_ID,opening1.started,opening1.stopped,keyEndingOpening1.keys,keyEndingOpening1.rt,keyEndingOpening1.duration,volumeAdjust.started,volumeAdjust.stopped,endingAdjust.keys,endingAdjust.rt,endingAdjust.duration,opening2.started,opening2.stopped,keyEndingOpening.keys,keyEndingOpening.rt,keyEndingOpening.duration,mouse.x,mouse.y,mouse.leftButton,mouse.midButton,mouse.rightButton,mouse.time,instructionLoop.thisRepN,instructionLoop.thisTrialN,instructionLoop.thisN,instructionLoop.thisIndex,instructionLoop.ran,readyForAudio.started,readyForAudio.stopped,fixation.started,run,audio_played,fixation.stopped,endPractice.keys,audioPre.started,audioPre.stopped,continuousResponses_audio,intRating.started,intRating.stopped,intQuestionSlider.response,intQuestionSlider.rt,intQuestionSlider.history,confirmResponse.keys,confirmResponse.rt,confirmResponse.duration,catchQuestion.started,catch_label,catch_value,catchQuestion.stopped,catchQuestionSlider.response,catchQuestionSlider.rt,catchQuestionSlider.history,confirmResponse_2.keys,audioRunLoop.thisRepN,audioRunLoop.thisTrialN,audioRunLoop.thisN,audioRunLoop.thisIndex,audioRunLoop.ran,conditions1_1,conditions2_1,conditions1_2,conditions2_2,dur1_1,dur2_1,dur1_2,dur2_2,endPractice.rt,endPractice.duration,confirmResponse_2.rt,confirmResponse_2.duration,runIntervalBreak.started,runIntervalBreak.stopped,endingBreakKey.keys,connection.started,connection.stopped,connectionEnding.keys,connectionEnding.rt,connectionEnding.duration,readyForText.started,readyForText.stopped,textPre.started,run_dup,textPre.stopped,continuousResponses_text,textRunLoop.thisRepN,textRunLoop.thisTrialN,textRunLoop.thisN,textRunLoop.thisIndex,textRunLoop.ran,text1_1,text1_2,text2_1,text2_2,runBreakText.started,runBreakText.stopped,endingBreakKey_2.keys,endingBreakKey_2.rt,endingBreakKey_2.duration,ending.started,ending.stopped,endingEnding.keys,endingEnding.rt,endingEnding.duration
0.0001,16.4499,y,16.1449,,66943e29675c6778f0a3ac7f,2025-07-07_19h00.34.771,group3.4_multiperson,2023.2.2,Win32,370.3703704,686c2ebf0248f13bef9af11f,686c7b961ceba6cd3c1648a0,,,,,,,,,,,,,,,,,,,,,,,,,,,,,,,,,,,,,,,,,,,,,,,,,,,,,,,,,,,,,,,,,,,,,,,,,,,,,,,,,,,,,,,,,,,,,,,,,,,,,,
,,,,,66943e29675c6778f0a3ac7f,2025-07-07_19h00.34.771,group3.4_multiperson,2023.2.2,Win32,370.3703704,686c2ebf0248f13bef9af11f,686c7b961ceba6cd3c1648a0,16.4499,23.6114,space,7.1532,,,,,,,,,,,,,,,,,,,,,,,,,,,,,,,,,,,,,,,,,,,,,,,,,,,,,,,,,,,,,,,,,,,,,,,,,,,,,,,,,,,,,,,,,,,,,,,,,,
,,,,,66943e29675c6778f0a3ac7f,2025-07-07_19h00.34.771,group3.4_multiperson,2023.2.2,Win32,370.3703704,686c2ebf0248f13bef9af11f,686c7b961ceba6cd3c1648a0,,,,,,23.6114,37.9009,space,13.9827,,,,,,,,,,,,,,,,,,,,,,,,,,,,,,,,,,,,,,,,,,,,,,,,,,,,,,,,,,,,,,,,,,,,,,,,,,,,,,,,,,,,,,,,,,,,,
,,,,,66943e29675c6778f0a3ac7f,2025-07-07_19h00.34.771,group3.4_multiperson,2023.2.2,Win32,370.3703704,686c2ebf0248f13bef9af11f,686c7b961ceba6cd3c1648a0,,,,,,,,,,,37.9023,48.5182,space,10.6115,,[],[],[],[],[],[],0,0,0,0,1,,,,,,,,,,,,,,,,,,,,,,,,,,,,,,,,,,,,,,,,,,,,,,,,,,,,,,,,,,,,,,,,,,,,,,,,,,,,
,,,,,66943e29675c6778f0a3ac7f,2025-07-07_19h00.34.771,group3.4_multiperson,2023.2.2,Win32,370.3703704,686c2ebf0248f13bef9af11f,686c7b961ceba6cd3c1648a0,,,,,,,,,,,48.5184,76.2721,space,27.7166,,[],[],[],[],[],[],1,0,1,0,1,,,,,,,,,,,,,,,,,,,,,,,,,,,,,,,,,,,,,,,,,,,,,,,,,,,,,,,,,,,,,,,,,,,,,,,,,,,,
,,,,,66943e29675c6778f0a3ac7f,2025-07-07_19h00.34.771,group3.4_multiperson,2023.2.2,Win32,370.3703704,686c2ebf0248f13bef9af11f,686c7b961ceba6cd3c1648a0,,,,,,,,,,,76.2722,99.1343,space,22.8476,,[],[],[],[],[],[],2,0,2,0,1,,,,,,,,,,,,,,,,,,,,,,,,,,,,,,,,,,,,,,,,,,,,,,,,,,,,,,,,,,,,,,,,,,,,,,,,,,,,
,,,,,66943e29675c6778f0a3ac7f,2025-07-07_19h00.34.771,group3.4_multiperson,2023.2.2,Win32,370.3703704,686c2ebf0248f13bef9af11f,686c7b961ceba6cd3c1648a0,,,,,,,,,,,99.1345,119.8491,space,20.7092,,[],[],[],[],[],[],3,0,3,0,1,,,,,,,,,,,,,,,,,,,,,,,,,,,,,,,,,,,,,,,,,,,,,,,,,,,,,,,,,,,,,,,,,,,,,,,,,,,,
,,,,,66943e29675c6778f0a3ac7f,2025-07-07_19h00.34.771,group3.4_multiperson,2023.2.2,Win32,370.3703704,686c2ebf0248f13bef9af11f,686c7b961ceba6cd3c1648a0,,,,,,,,,,,119.8493,136.2361,space,16.3828,,[],[],[],[],[],[],4,0,4,0,1,,,,,,,,,,,,,,,,,,,,,,,,,,,,,,,,,,,,,,,,,,,,,,,,,,,,,,,,,,,,,,,,,,,,,,,,,,,,
,,,,,66943e29675c6778f0a3ac7f,2025-07-07_19h00.34.771,group3.4_multiperson,2023.2.2,Win32,370.3703704,686c2ebf0248f13bef9af11f,686c7b961ceba6cd3c1648a0,,,,,,,,,,,136.2363,156.9353,space,20.6948,,[],[],[],[],[],[],5,0,5,0,1,,,,,,,,,,,,,,,,,,,,,,,,,,,,,,,,,,,,,,,,,,,,,,,,,,,,,,,,,,,,,,,,,,,,,,,,,,,,
,,,,,66943e29675c6778f0a3ac7f,2025-07-07_19h00.34.771,group3.4_multiperson,2023.2.2,Win32,370.3703704,686c2ebf0248f13bef9af11f,686c7b961ceba6cd3c1648a0,,,,,,,,,,,,,,,,,,,,,,,,,,,156.936,159.5149,159.5218,1,audio/Narrative13Situation2.wav,161.5233,,161.5234,191.2443,"[[999,0],[999,97],[999,183],[999,269],[999,355],[999,441],[999,527],[999,613],[999,699],[999,786],[999,872],[999,958],[999,1044],[999,1130],[999,1216],[999,1303],[999,1388],[999,1475],[999,1561],[999,1647],[999,1733],[999,1819],[999,1905],[999,1992],[999,2077],[999,2163],[999,2250],[999,2336],[999,2422],[999,2508],[999,2594],[999,2680],[999,2766],[999,2852],[999,2938],[999,3025],[999,3111],[999,3197],[999,3283],[999,3369],[999,3455],[999,3541],[999,3627],[999,3713],[999,3800],[999,3886],[999,3972],[999,4058],[999,4145],[999,4230],[999,4317],[999,4402],[999,4489],[999,4575],[999,4661],[999,4748],[999,4834],[999,4919],[999,5005],[999,5091],[999,5178],[999,5264],[999,5350],[999,5436],[999,5523],[999,5609],[999,5695],[999,5781],[999,5866],[999,5952],[999,6038],[999,6125],[999,6211],[999,6297],[999,6383],[999,6470],[999,6555],[999,6642],[999,6728],[999,6814],[999,6900],[999,6986],[999,7072],[999,7159],[999,7244],[999,7330],[999,7416],[999,7502],[999,7588],[999,7675],[999,7761],[999,7847],[999,7933],[999,8019],[999,8106],[999,8192],[999,8278],[999,8365],[999,8450],[96.2,8537],[98,8622],[98.2,8708],[98.2,8794],[98.9,8881],[100,8967],[100,9053],[100,9139],[100,9225],[100,9312],[100,9397],[100,9483],[100,9569],[100,9656],[100,9741],[100,9828],[100,9914],[100,10000],[100,10088],[100,10172],[100,10258],[100,10344],[100,10430],[100,10517],[100,10603],[100,10689],[100,10775],[100,10862],[100,10947],[100,11034],[100,11119],[100,11206],[100,11292],[100,11378],[100,11464],[100,11550],[100,11636],[100,11722],[100,11809],[100,11895],[100,11980],[100,12067],[100,12153],[100,12239],[100,12325],[100,12411],[100,12497],[100,12584],[100,12670],[100,12756],[100,12842],[100,12928],[100,13014],[100,13100],[100,13186],[100,13272],[100,13358],[100,13445],[100,13531],[100,13617],[100,13703],[100,13789],[100,13875],[100,13961],[100,14047],[100,14133],[100,14219],[100,14306],[100,14392],[100,14478],[100,14564],[100,14650],[100,14737],[100,14822],[100,14908],[100,14995],[100,15081],[100,15167],[100,15253],[100,15339],[100,15425],[100,15511],[100,15597],[100,15683],[100,15770],[100,15856],[100,15942],[100,16028],[100,16115],[100,16200],[100,16287],[100,16372],[100,16459],[100,16544],[100,16631],[100,16717],[100,16803],[100,16889],[100,16976],[100,17061],[100,17147],[100,17234],[100,17320],[100,17408],[100,17492],[100,17578],[100,17664],[100,17750],[100,17836],[100,17922],[100,18008],[100,18095],[100,18181],[100,18267],[100,18353],[100,18439],[100,18525],[100,18611],[100,18697],[100,18784],[100,18870],[100,18956],[100,19042],[100,19129],[100,19214],[100,19301],[100,19386],[100,19473],[100,19559],[100,19645],[100,19731],[100,19817],[100,19904],[100,19989],[100,20075],[100,20162],[100,20247],[100,20334],[100,20420],[100,20506],[100,20593],[100,20678],[100,20764],[100,20850],[100,20937],[100,21022],[100,21109],[100,21195],[100,21281],[100,21367],[100,21453],[100,21539],[100,21625],[100,21711],[100,21798],[100,21884],[100,21971],[100,22056],[100,22142],[100,22228],[100,22314],[100,22400],[100,22486],[100,22573],[100,22659],[100,22745],[100,22831],[100,22917],[100,23003],[100,23089],[100,23176],[100,23262],[100,23348],[100,23434],[100,23520],[100,23606],[100,23692],[100,23778],[100,23864],[100,23950],[100,24038],[100,24123],[100,24209],[100,24295],[100,24381],[100,24467],[100,24553],[100,24639],[100,24726],[100,24812],[100,24898],[100,24984],[100,25070],[100,25157],[100,25242],[100,25328],[100,25415],[100,25501],[100,25587],[100,25674],[100,25759],[100,25845],[100,25931],[100,26017],[100,26103],[100,26191],[100,26276],[100,26362],[100,26449],[100,26534],[100,26620],[100,26706],[100,26792],[100,26878],[100,26966],[100,27051],[100,27137],[100,27223],[100,27309],[100,27395],[100,27481],[100,27567],[100,27653],[100,27740],[100,27826],[100,27912],[99.7,27998],[99.7,28084],[99.7,28170],[99.3,28256],[99.2,28342],[99.2,28429],[99.2,28515],[99.2,28601],[99.2,28687],[99,28774],[98.8,28859],[98.8,28946],[98.7,29031],[98.7,29117],[98.7,29204],[98.7,29290],[98.7,29376],[98.7,29462],[98.7,29548],[98.7,29634],[98.7,29720]]",191.2445,205.4394,100,10.6176,"[{""rating"":99.6875,""responseTime"":9.37299999999999},{""rating"":100,""responseTime"":10.617600000008935}]",space,13.6879,,205.4395,Partially,50,205.441,,,[],,0,0,0,0,1,audio/Narrative13Situation2.wav,audio/Narrative13Situation2.wav,audio/Narrative13Situation2.wav,audio/Narrative13Situation2.wav,2,2,2,2,,,,,,,,,,,,,,,,,,,,,,,,,,,,,,,,,,,,,
,,,,,66943e29675c6778f0a3ac7f,2025-07-07_19h00.34.771,group3.4_multiperson,2023.2.2,Win32,370.3703704,686c2ebf0248f13bef9af11f,686c7b961ceba6cd3c1648a0,,,,,,,,,,,,,,,,,,,,,,,,,,,,,205.441,1,audio/Narrative8Situation1.wav,211.7451,space,211.7453,227.6432,"[[999,0],[999,85],[999,171],[999,258],[999,344],[999,430],[999,516],[999,602],[999,688],[999,774],[999,860],[999,947],[999,1033],[999,1119],[999,1205],[999,1291],[999,1377],[999,1463],[999,1549],[999,1635],[999,1722],[999,1808],[999,1894],[999,1980],[999,2066],[999,2152],[999,2239],[999,2324],[999,2411],[999,2497],[999,2583],[999,2669],[999,2755],[999,2845],[999,2930],[999,3016],[999,3102],[999,3188],[999,3275],[999,3361],[999,3447],[999,3533],[999,3619],[999,3705],[999,3791],[999,3878],[999,3963],[999,4050],[999,4136],[999,4222],[999,4310],[999,4394],[999,4480],[999,4566],[999,4653],[999,4738],[999,4825],[999,4913],[999,5000],[999,5086],[999,5172],[999,5258],[50.5,5344],[50.3,5430],[50.3,5516],[50.2,5603],[50.1,5691],[50.1,5775],[50.1,5861],[50.1,5947],[50.1,6033],[50.1,6119],[50.1,6205],[50.1,6291],[50.1,6377],[50.1,6463],[50.1,6550],[50.1,6636],[50.1,6722],[50.1,6811],[50.1,6900],[50.1,6986],[50.1,7072],[50.1,7159],[50.1,7244],[50.1,7330],[50.1,7416],[50.1,7502],[50.1,7588],[50.1,7675],[50.1,7761],[50.1,7847],[50.1,7933],[50.1,8019],[50.1,8105],[50.1,8192],[50.1,8277],[50.1,8364],[50.1,8450],[50.1,8537],[50.1,8622],[50.1,8708],[50.1,8794],[50.1,8880],[50.1,8966],[50.1,9052],[50.1,9139],[50.1,9225],[50.1,9311],[50.1,9397],[50.1,9484],[50.1,9569],[50.1,9655],[50.1,9741],[50.1,9828],[50.1,9914],[50.1,10000],[50.1,10086],[50.1,10172],[50.1,10258],[50.1,10344],[50.1,10430],[50.1,10516],[50.2,10603],[50.4,10689],[50.5,10775],[50.7,10861],[50.9,10947],[51.1,11033],[51.6,11119],[52.5,11205],[54.1,11292],[55.8,11377],[56.1,11464],[57.3,11551],[57.7,11636],[58.4,11722],[58.8,11808],[59.1,11894],[59.4,11980],[59.8,12067],[60.2,12153],[60.2,12239],[60.3,12325],[60.4,12412],[60.6,12497],[60.6,12583],[60.6,12669],[60.6,12755],[60.6,12841],[60.6,12928],[60.6,13014],[60.6,13100],[61.1,13186],[61.1,13272],[61.1,13359],[61.1,13444],[61.1,13531],[61.1,13617],[61.1,13703],[61.1,13789],[61.1,13875],[61.1,13961],[61.1,14048],[61.1,14133],[61.2,14221],[61.3,14305],[61.3,14392],[61.3,14478],[61.4,14564],[61.6,14652],[61.7,14736],[62,14822],[62.2,14908],[62.4,14994],[62.6,15081],[62.7,15167],[62.7,15253],[62.7,15339],[62.7,15425],[62.7,15511],[62.7,15597],[62.7,15683],[62.7,15769],[62.7,15856]]",227.6433,242.5362,82.8125,10.7157,"[{""rating"":82.8125,""responseTime"":10.715700000002983}]",space,14.3868,,242.5362,Definitely yes,100,242.5374,,,[],,0,1,1,1,1,audio/Narrative7Situation1.wav,audio/Narrative8Situation1.wav,audio/Narrative5Situation1.wav,audio/Narrative6Situation1.wav,2,5,5,2,6.2987,,,,,,,,,,,,,,,,,,,,,,,,,,,,,,,,,,,,
,,,,,66943e29675c6778f0a3ac7f,2025-07-07_19h00.34.771,group3.4_multiperson,2023.2.2,Win32,370.3703704,686c2ebf0248f13bef9af11f,686c7b961ceba6cd3c1648a0,,,,,,,,,,,,,,,,,,,,,,,,,,,,,242.5375,1,audio/Narrative8Situation2.wav,245.5389,,245.539,255.6277,"[[999,0],[999,85],[999,172],[48,257],[45.5,344],[40.6,430],[56.4,1205],[49.1,1290],[50.1,1377],[49.8,1463],[49.8,1549],[49.5,1635],[49.7,1721],[49.7,1807],[49.8,1894],[49.8,1979],[49.8,2066],[49.8,2152],[49.8,2238],[49.8,2324],[49.8,2410],[48.3,2496],[48.2,2582],[48.2,2668],[48.2,2754],[48.2,2841],[47.3,2928],[38.8,3013],[14.8,3100],[3.7,3186],[3.3,3271],[2.3,3358]]",255.6278,259.0529,0.15625,1.096,"[{""rating"":0.15625000000000222,""responseTime"":1.0960000000000036}]",space,2.9194,,259.0529,Partially,50,270.1069,50.46875,6.1822,"[{""rating"":49.84375,""responseTime"":3.4283999999910293},{""rating"":50.46874999999999,""responseTime"":6.182200000002979}]",space,0,2,2,2,1,audio/Narrative7Situation2.wav,audio/Narrative8Situation2.wav,audio/Narrative5Situation2.wav,audio/Narrative6Situation2.wav,3,3,3,3,,,10.5472,,,,,,,,,,,,,,,,,,,,,,,,,,,,,,,,,,
,,,,,66943e29675c6778f0a3ac7f,2025-07-07_19h00.34.771,group3.4_multiperson,2023.2.2,Win32,370.3703704,686c2ebf0248f13bef9af11f,686c7b961ceba6cd3c1648a0,,,,,,,,,,,,,,,,,,,,,,,,,,,,,270.107,1,audio/Narrative8Situation3.wav,274.1091,,274.1091,296.4602,"[[999,0],[999,86],[999,172],[999,258],[999,344],[999,430],[999,516],[999,603],[999,689],[999,775],[999,861],[999,947],[999,1033],[999,1119],[999,1205],[999,1291],[999,1377],[999,1463],[999,1550],[999,1636],[999,1722],[999,1808],[999,1894],[999,1980],[999,2067],[999,2152],[999,2238],[999,2325],[999,2411],[999,2497],[999,2583],[999,2669],[999,2755],[999,2841],[999,2927],[999,3014],[999,3100],[999,3186],[999,3273],[999,3358],[999,3445],[999,3530],[999,3617],[999,3703],[999,3789],[999,3875],[999,3962],[999,4047],[999,4134],[999,4219],[999,4306],[999,4392],[999,4479],[999,4564],[999,4650],[999,4737],[999,4822],[999,4908],[999,4996],[999,5083],[999,5167],[999,5253],[0.4,5339],[0.2,7061],[0.2,7147],[0.3,7233],[0.4,7319],[0.4,7405],[0.4,7492],[0.4,7578],[0.4,7664],[1.2,8097],[2.1,8183],[4.5,8270],[5.3,8355],[6.5,8442],[9.1,8529],[13,8614],[15.7,8701],[16.6,8786],[17.7,8873],[18.4,8958],[19.7,9045],[21,9131],[22.7,9217],[23.3,9303],[25.4,9390],[33,9476],[39,9562],[39.2,9647],[39.4,9734],[39.7,9819],[40.2,9906],[41.1,9992],[41.3,10078],[42.7,10165],[43.9,10250],[44.1,10336],[44.1,10422],[44.1,10508],[43.8,10595],[42.4,10681],[42,10767],[41.8,10854],[41.3,10940],[40.6,11025],[40.6,11111],[41.3,11198],[43.1,11283],[43.4,11370],[44.5,11456],[45.8,11543],[46,11629],[46.8,11715],[47.7,11800],[49.1,11886],[49.8,11972],[49.9,12059],[50.2,12145],[50.2,12231],[50.2,12317],[50.2,12403],[50.2,12489],[50.2,12576],[50.2,12661],[50.2,12747],[50.4,12834],[50.6,12920],[50.9,13006],[50.9,13092],[50.6,13178],[50.5,13264],[50.5,13350],[50.5,13436],[50.5,13522],[49.1,13609],[48.7,13695],[48.6,13781],[48.6,13867],[48.8,13954],[50.1,14039],[50.1,14125],[50.1,14211],[50.1,14297],[49.9,14384],[49.5,14470],[49.5,14556],[49.3,14642],[49.3,14728],[49.3,14814],[49.3,14900],[49.4,14987],[49.4,15073],[49.7,15159],[49.7,15245],[49.8,15331],[50.2,15417],[50.2,15503],[50.2,15589],[50.2,15675],[49.9,15761],[49.9,15848],[49.9,15934],[49.9,16020],[49.9,16106],[49.9,16192],[49.8,16278],[49.8,16364],[49.8,16451],[49.8,16536],[49.8,16623],[49.8,16709],[49.8,16795],[49.8,16881],[49.8,16967],[49.8,17053],[49.8,17139],[49.8,17225],[49.3,17312],[49.2,17398],[48.8,17484],[48.8,17570],[48.8,17656],[48.8,17742],[48.8,17828],[48.8,17914],[48.8,18000],[48.8,18086],[48.8,18173],[48.8,18259],[48.8,18345],[48.8,18431],[48.8,18517],[48.8,18603],[48.8,18689],[48.8,18776],[48.8,18862],[48.8,18948],[48.8,19034],[48.8,19120],[48.8,19207],[48.8,19292],[48.8,19378],[48.8,19464],[48.8,19550],[48.8,19637],[48.8,19723],[48.8,19809],[48.8,19895],[48.8,19981],[48.8,20068],[48.8,20153],[48.7,20239],[48.7,20325],[48.7,20412],[48.5,20498],[48.5,20584],[48.5,20670],[48.5,20756],[48.5,20842],[48.5,20928],[48.5,21015],[48.5,21101],[48.5,21187],[48.5,21273],[48.5,21359],[48.5,21445],[48.5,21531],[48.5,21617],[48.5,21704],[48.5,21789],[48.5,21876],[48.5,21962],[48.5,22048],[48.5,22134],[48.5,22221],[48.5,22306]]",296.4603,317.3168,100,20.089,"[{""rating"":49.765625,""responseTime"":12.693200000003003},{""rating"":100,""responseTime"":20.089}]",space,20.3493,,317.3169,Partially,50,317.3176,,,[],,0,3,3,3,1,audio/Narrative7Situation3.wav,audio/Narrative8Situation3.wav,audio/Narrative5Situation3.wav,audio/Narrative6Situation3.wav,8,4,3,5,,,,,,,,,,,,,,,,,,,,,,,,,,,,,,,,,,,,,
,,,,,66943e29675c6778f0a3ac7f,2025-07-07_19h00.34.771,group3.4_multiperson,2023.2.2,Win32,370.3703704,686c2ebf0248f13bef9af11f,686c7b961ceba6cd3c1648a0,,,,,,,,,,,,,,,,,,,,,,,,,,,,,317.3177,1,audio/Narrative8Situation4.wav,320.3198,,320.3198,334.4676,"[[999,0],[999,86],[999,172],[999,258],[999,344],[999,430],[999,516],[999,602],[999,688],[999,775],[999,860],[999,947],[999,1033],[999,1119],[999,1205],[999,1291],[999,1377],[999,1463],[999,1549],[999,1636],[999,1722],[999,1808],[999,1894],[999,1980],[999,2066],[999,2152],[999,2238],[999,2324],[999,2411],[999,2497],[999,2583],[999,2669],[999,2755],[999,2841],[999,2927],[999,3013],[999,3100],[999,3186],[999,3272],[999,3358],[999,3444],[999,3530],[52.3,3616],[52.3,3702],[52.3,3788],[51.4,3875],[51.3,3961],[51.3,4047],[50.9,4133],[50.6,4219],[50.6,4305],[50.5,4391],[50.5,4477],[50.5,4564],[50.5,4650],[50.5,4736],[50.5,4822],[50.5,4908],[50.5,4994],[50.5,5080],[50.5,5166],[50.5,5252],[50.5,5338],[50.5,5425],[50.5,5511],[50.7,5597],[50.7,5683],[50.7,5769],[50.7,5855],[50.7,5941],[50.7,6027],[50.7,6114],[50.7,6200],[51,6286],[51.6,6372],[53.3,6458],[55.2,6544],[57.4,6630],[61.4,6716],[64.9,6802],[67.3,6889],[69.7,6975],[73,7061],[75.9,7147],[76.3,7233],[77.4,7319],[79,7405],[81.7,7491],[83.8,7578],[84.6,7664],[86,7750],[87,7836],[88.2,7922],[89,8008],[89.1,8094],[89.8,8180],[90.8,8266],[92.3,8353],[93.4,8439],[94.4,8525],[95.8,8611],[97.7,8697],[97.7,8783],[98.4,8869],[99.3,8955],[99.6,9042],[99.6,9127],[99.7,9214],[100,9300],[100,9386],[100,9472],[100,9558],[100,9644],[100,9730],[100,9817],[100,9903],[100,9989],[100,10075],[100,10161],[100,10247],[100,10333],[100,10419],[100,10505],[100,10591],[100,10678],[100,10764],[100,10850],[100,10936],[100,11022],[100,11108],[100,11194],[100,11281],[100,11367],[100,11453],[100,11539],[100,11625],[100,11711],[100,11797],[100,11883],[100,11969],[100,12055],[100,12141],[100,12228],[100,12314],[100,12400],[100,12486],[100,12572],[100,12658],[100,12744],[100,12831],[100,12917],[100,13003],[100,13089],[100,13175],[100,13261],[100,13347],[100,13433],[100,13519],[100,13606],[100,13692],[100,13778],[100,13864],[100,13950],[100,14036],[100,14122]]",334.4676,342.8375,99.921875,7.2436,"[{""rating"":99.921875,""responseTime"":7.243599999994046}]",space,7.865,,342.8375,Not at all,0,342.8386,,,[],,0,4,4,4,1,audio/Narrative7Situation4.wav,audio/Narrative8Situation4.wav,audio/Narrative5Situation4.wav,audio/Narrative6Situation4.wav,3,3,1,2,,,,,,,,,,,,,,,,,,,,,,,,,,,,,,,,,,,,,
,,,,,66943e29675c6778f0a3ac7f,2025-07-07_19h00.34.771,group3.4_multiperson,2023.2.2,Win32,370.3703704,686c2ebf0248f13bef9af11f,686c7b961ceba6cd3c1648a0,,,,,,,,,,,,,,,,,,,,,,,,,,,,,342.8386,1,audio/Narrative8Situation5.wav,344.8402,,344.8402,353.0573,"[[999,0],[999,86],[999,172],[999,258],[999,344],[999,430],[999,516],[999,602],[999,689],[999,775],[999,861],[999,947],[999,1033],[999,1119],[999,1205],[999,1291],[999,1377],[999,1463],[999,1550],[999,1636],[999,1722],[999,1808],[999,1894],[999,1980],[999,2066],[999,2152],[999,2239],[999,2325],[999,2411],[999,2497],[999,2583],[999,2669],[999,2755],[999,2841],[999,2927],[999,3014],[999,3100],[999,3186],[999,3272],[999,3358],[999,3444],[52.8,3530],[52.7,3616],[51.3,3703],[51.3,3789],[51.3,3875],[55.9,3961],[64.7,4047],[64.8,4133],[68.7,4219],[69.9,4305],[69.9,4391],[71.6,4478],[72,4564],[73.4,4650],[75.1,4736],[75.1,4822],[74.1,4908],[74.1,4994],[74.4,5080],[80.4,5167],[83.7,5253],[84.5,5339],[85.8,5425],[85.8,5511],[86.1,5597],[86.1,5683],[86.1,5769],[86.1,5855],[86.1,5942],[86.4,6028],[87.2,6114],[87.7,6200],[95.1,6286],[100,6372],[100,6458],[100,6544],[100,6630],[100,6717],[100,6803],[99.7,6889],[99.7,6975],[99.7,7061],[99.8,7147],[100,7233],[100,7319],[100,7406],[100,7492],[100,7578],[100,7664],[100,7750],[100,7836],[100,7922],[100,8008],[100,8094],[100,8181]]",353.0574,359.341,99.609375,3.8857,"[{""rating"":99.609375,""responseTime"":3.8857000000029984}]",space,5.7794,,359.341,Definitely yes,100,359.3418,,,[],,0,5,5,5,1,audio/Narrative7Situation5.wav,audio/Narrative8Situation5.wav,audio/Narrative5Situation5.wav,audio/Narrative6Situation5.wav,5,2,5,2,,,,,,,,,,,,,,,,,,,,,,,,,,,,,,,,,,,,,
,,,,,66943e29675c6778f0a3ac7f,2025-07-07_19h00.34.771,group3.4_multiperson,2023.2.2,Win32,370.3703704,686c2ebf0248f13bef9af11f,686c7b961ceba6cd3c1648a0,,,,,,,,,,,,,,,,,,,,,,,,,,,,,359.3419,1,audio/Narrative8Situation6.wav,361.3439,,361.344,367.7859,"[[999,0],[999,85],[999,172],[999,258],[999,344],[999,430],[999,516],[999,602],[999,689],[999,775],[999,860],[999,947],[999,1033],[999,1119],[999,1205],[999,1291],[999,1377],[999,1463],[999,1550],[999,1635],[999,1722],[999,1808],[999,1894],[999,1980],[999,2066],[999,2152],[999,2238],[999,2324],[999,2411],[999,2497],[999,2583],[999,2669],[999,2755],[999,2841],[999,2927],[999,3013],[999,3100],[999,3186],[999,3272],[999,3358],[999,3444],[999,3530],[999,3616],[999,3702],[999,3788],[999,3875],[999,3961],[999,4047],[999,4133],[57.6,4219],[54.5,4305],[53.9,4391],[53.8,4477],[53.1,4563],[51.5,4650],[51.3,4736],[51.3,4822],[51.6,4908],[51.7,4994],[51.6,5080],[51.6,5166],[51.3,5252],[49.1,5338],[46.2,5425],[39.2,5511],[30.2,5597],[21.5,5683],[8.4,5769]]",367.786,392.1258,22.03125,14.8515,"[{""rating"":22.031250000000004,""responseTime"":14.851499999999987}]",space,23.833,,392.1259,Definitely yes,100,392.1266,,,[],,0,6,6,6,1,audio/Narrative7Situation6.wav,audio/Narrative8Situation6.wav,audio/Narrative5Situation6.wav,audio/Narrative6Situation6.wav,3,2,3,2,,,,,,,,,,,,,,,,,,,,,,,,,,,,,,,,,,,,,
,,,,,66943e29675c6778f0a3ac7f,2025-07-07_19h00.34.771,group3.4_multiperson,2023.2.2,Win32,370.3703704,686c2ebf0248f13bef9af11f,686c7b961ceba6cd3c1648a0,,,,,,,,,,,,,,,,,,,,,,,,,,,,,392.1267,1,audio/Narrative8Situation7.wav,395.1287,,395.1287,407.1858,"[[999,0],[999,86],[999,172],[999,258],[999,344],[999,430],[999,516],[999,602],[999,689],[999,775],[999,861],[999,947],[999,1033],[999,1119],[999,1205],[999,1291],[999,1377],[999,1463],[999,1550],[999,1636],[999,1722],[999,1808],[999,1894],[999,1980],[999,2066],[999,2152],[999,2238],[999,2325],[999,2411],[999,2497],[999,2583],[999,2669],[999,2755],[999,2841],[999,2927],[999,3014],[999,3100],[999,3186],[999,3272],[999,3358],[999,3444],[999,3530],[999,3616],[999,3702],[999,3789],[999,3875],[999,3961],[999,4047],[999,4133],[999,4219],[999,4305],[999,4391],[999,4478],[999,4564],[999,4651],[999,4737],[999,4823],[999,4912],[999,4998],[999,5084],[999,5170],[999,5256],[999,5342],[999,5428],[999,5514],[999,5601],[999,5687],[999,5773],[999,5859],[999,5945],[999,6031],[999,6117],[999,6203],[999,6289],[999,6376],[999,6462],[999,6548],[999,6634],[999,6720],[999,6806],[26.6,6892],[26.5,6979],[29.4,7065],[40,7151],[48.6,7237],[48.6,7323],[49.3,7409],[49.3,7495],[49.5,7581],[49.5,7667],[49.5,7754],[49.9,7840],[50.2,7926],[50.4,8012],[50.5,8098],[50.5,8185],[50.5,8271],[51.6,8356],[53.8,8442],[53.8,8528],[54.1,8615],[60.8,8701],[64.3,8787],[71.1,8873],[72.1,8959],[73.4,9045],[73.9,9131],[75.7,9219],[84.1,9304],[84.1,9390],[85.1,9476],[87.1,9562],[94.1,9648],[96.3,9734],[97.7,9820],[98.3,9906],[98.5,9992],[99,10079],[99.8,10165],[99.8,10251],[99.8,10337],[99.9,10423],[100,10509],[100,10595],[100,10681],[100,10768],[100,10854],[100,10940],[100,11026],[100,11112],[100,11198],[100,11285],[100,11370],[100,11456],[100,11543],[100,11629],[100,11715],[100,11801],[100,11887],[100,11973]]",407.1858,410.1025,100,2.0695,"[{""rating"":99.296875,""responseTime"":1.3834000000059632},{""rating"":100,""responseTime"":2.069500000000005}]",space,2.4102,,410.1026,Not at all,0,410.1033,,,[],,0,7,7,7,1,audio/Narrative7Situation7.wav,audio/Narrative8Situation7.wav,audio/Narrative5Situation7.wav,audio/Narrative6Situation7.wav,5,3,4,5,,,,,,,,,,,,,,,,,,,,,,,,,,,,,,,,,,,,,
,,,,,66943e29675c6778f0a3ac7f,2025-07-07_19h00.34.771,group3.4_multiperson,2023.2.2,Win32,370.3703704,686c2ebf0248f13bef9af11f,686c7b961ceba6cd3c1648a0,,,,,,,,,,,,,,,,,,,,,,,,,,,,,410.1034,1,audio/Narrative8Situation8.wav,413.1053,,413.1053,425.9303,"[[999,0],[999,86],[999,172],[999,258],[999,345],[999,430],[999,516],[999,602],[999,690],[999,774],[999,861],[999,947],[999,1034],[999,1119],[999,1206],[999,1293],[999,1380],[999,1466],[999,1552],[999,1638],[999,1724],[999,1810],[999,1896],[999,1983],[999,2069],[999,2154],[999,2241],[999,2327],[999,2413],[999,2499],[999,2585],[999,2671],[999,2757],[999,2843],[999,2929],[999,3016],[999,3102],[999,3189],[999,3275],[999,3361],[999,3446],[999,3533],[999,3619],[999,3705],[999,3791],[999,3877],[999,3963],[999,4049],[999,4135],[999,4221],[999,4308],[0.3,4393],[0.2,4480],[0.2,4566],[0.2,6892],[9.3,6978],[22.8,7065],[30.5,7150],[39,7236],[45.3,7322],[46.5,7407],[47,7494],[48.4,7581],[49.1,7666],[49.1,7754],[49.4,7839],[49.8,7924],[50.3,8010],[50.3,8096],[50.3,8182],[49.9,8269],[49.7,8355],[49.7,8441],[49.7,8527],[49.7,8613],[49.7,8699],[49.7,8785],[50.2,8871],[51.5,8957],[52.3,9044],[52.9,9130],[54.1,9216],[56.3,9302],[59.1,9389],[63.5,9475],[70.5,9561],[77.9,9647],[85.9,9734],[95.7,9819],[100,9906],[100,9991],[100,10077],[100,10163],[100,10249],[100,10335],[100,10421],[100,10508],[100,10594],[100,10680],[100,10766],[100,10853],[100,10938],[100,11024],[100,11110],[100,11197],[100,11283],[100,11369],[100,11455],[100,11541],[100,11627],[100,11714],[100,11800],[100,11886],[100,11973],[100,12058],[100,12144],[100,12230],[100,12316],[100,12402],[100,12488],[100,12574],[100,12661],[100,12747]]",425.9303,427.4156,99.84375,1.1925,"[{""rating"":99.84375,""responseTime"":1.1924999999999955}]",space,0.9759,,427.4157,Definitely yes,100,427.4167,,,[],,0,8,8,8,1,audio/Narrative7Situation8.wav,audio/Narrative8Situation8.wav,audio/Narrative5Situation8.wav,audio/Narrative6Situation8.wav,2,3,3,5,,,,,,,,,,,,,,,,,,,,,,,,,,,,,,,,,,,,,
,,,,,66943e29675c6778f0a3ac7f,2025-07-07_19h00.34.771,group3.4_multiperson,2023.2.2,Win32,370.3703704,686c2ebf0248f13bef9af11f,686c7b961ceba6cd3c1648a0,,,,,,,,,,,,,,,,,,,,,,,,,,,,,427.4167,1,audio/Narrative8Situation9.wav,430.4171,,430.4171,441.7059,"[[999,0],[999,85],[999,172],[999,257],[999,344],[999,430],[999,517],[999,602],[999,688],[999,775],[999,861],[999,946],[999,1032],[999,1118],[999,1204],[999,1291],[999,1377],[999,1463],[999,1549],[999,1635],[999,1721],[999,1807],[999,1893],[999,1980],[999,2066],[999,2152],[999,2238],[999,2324],[999,2410],[999,2496],[999,2582],[999,2668],[999,2755],[999,2841],[999,2927],[999,3013],[999,3099],[999,3185],[999,3272],[999,3357],[999,3444],[999,3530],[999,3617],[999,3703],[999,3788],[999,3874],[999,3960],[999,4046],[999,4132],[999,4218],[999,4305],[999,4391],[999,4477],[999,4563],[999,4649],[999,4735],[999,4822],[999,4908],[999,4994],[999,5080],[999,5166],[999,5253],[999,5338],[999,5424],[999,5510],[999,5597],[999,5683],[999,5769],[999,5856],[999,5941],[999,6028],[94.1,6114],[97.1,6199],[97.2,6285],[98.7,6372],[100,6458],[100,6544],[100,6630],[100,6716],[100,6803],[100,6888],[100,6974],[100,7060],[100,7146],[100,7233],[100,7319],[100,7405],[100,7491],[100,7577],[100,7663],[100,7750],[100,7836],[100,7922],[100,8008],[100,8094],[100,8180],[100,8266],[100,8352],[100,8438],[100,8524],[100,8610],[100,8697],[100,8783],[100,8869],[100,8955],[100,9041],[100,9127],[100,9213],[100,9300],[100,9385],[100,9472],[100,9558],[100,9644],[100,9730],[100,9816],[100,9903],[100,9988],[100,10074],[100,10161],[100,10247],[100,10333],[100,10419],[100,10506],[100,10591],[100,10677],[100,10763],[100,10849],[100,10936],[100,11022],[100,11108],[100,11195],[100,11280]]",441.706,445.1347,100,3.0036,"[{""rating"":99.21875,""responseTime"":2.2305000000000064},{""rating"":100,""responseTime"":3.0036000000089302}]",space,2.9234,,445.1347,Not at all,0,445.1355,,,[],,0,9,9,9,1,audio/Narrative7Situation9.wav,audio/Narrative8Situation9.wav,audio/Narrative5Situation9.wav,audio/Narrative6Situation9.wav,2,3,3,4,,,,,,,,,,,,,,,,,,,,,,,,,,,,,,,,,,,,,
,,,,,66943e29675c6778f0a3ac7f,2025-07-07_19h00.34.771,group3.4_multiperson,2023.2.2,Win32,370.3703704,686c2ebf0248f13bef9af11f,686c7b961ceba6cd3c1648a0,,,,,,,,,,,,,,,,,,,,,,,,,,,,,445.1356,1,audio/Narrative7Situation1.wav,447.1367,,447.1367,502.9921,"[[999,0],[999,86],[999,173],[999,258],[999,345],[999,431],[999,517],[999,602],[999,689],[999,775],[999,861],[999,948],[999,1033],[999,1119],[999,1205],[999,1292],[999,1378],[999,1464],[999,1550],[999,1636],[999,1722],[999,1809],[999,1895],[999,1980],[999,2066],[999,2152],[999,2239],[999,2325],[999,2411],[999,2497],[999,2583],[999,2669],[999,2756],[999,2841],[999,2927],[999,3014],[999,3100],[999,3186],[999,3273],[999,3359],[47.9,3445],[48.1,3530],[48.1,3616],[48.4,3703],[48.5,3789],[48.8,3875],[49.1,3962],[49.3,4047],[49.8,4134],[49.8,4219],[49.8,4306],[49.8,4391],[49.8,4478],[49.8,4564],[49.8,4650],[49.8,4736],[49.8,4822],[49.8,4908],[49.8,4994],[49.8,5080],[49.8,5166],[49.8,5253],[49.8,5339],[49.8,5425],[49.8,5511],[49.8,5597],[49.8,5683],[49.8,5769],[49.8,5855],[49.8,5942],[49.8,6028],[49.8,6114],[49.8,6200],[49.8,6286],[49.8,6372],[49.8,6458],[49.8,6544],[49.8,6630],[49.8,6717],[49.8,6803],[49.8,6889],[49.8,6975],[49.8,7062],[49.8,7147],[49.8,7233],[49.8,7319],[49.8,7406],[49.8,7492],[49.8,7578],[49.8,7664],[49.8,7750],[49.8,7836],[49.8,7923],[49.8,8008],[49.8,8094],[49.9,8180],[50,8267],[50.4,8353],[50.7,8439],[51,8525],[54.5,8612],[55.2,8697],[56.6,8784],[58.5,8870],[59.8,8956],[61.5,9042],[63.9,9129],[67.3,9215],[69.3,9301],[69.8,9386],[70,9472],[70.6,9558],[71.4,9644],[73,9731],[74.8,9817],[74.9,9903],[74.9,9989],[74.9,10075],[74.9,10161],[75.2,10247],[78.4,10334],[79.1,10420],[80.3,10506],[81.8,10593],[84.5,10678],[88.2,10765],[90.4,10851],[93.3,10937],[95.8,11023],[96.4,11108],[96.4,11194],[96.6,11281],[97.3,11367],[98.3,11453],[98.4,11539],[98.7,11625],[99,11712],[99.5,11797],[99.6,11884],[100,11970],[100,12056],[100,12142],[100,12228],[100,12314],[100,12400],[100,12486],[100,12572],[100,12659],[100,12745],[100,12831],[100,12917],[100,13003],[100,13090],[100,13175],[100,13261],[100,13347],[100,13434],[100,13522],[100,13606],[100,13692],[100,13778],[100,13864],[100,13950],[100,14036],[100,14123],[100,14209],[100,14295],[100,14381],[100,14467],[100,14553],[100,14639],[100,14725],[100,14811],[100,14897],[100,14984],[100,15070],[100,15156],[100,15242],[100,15328],[100,15414],[100,15500],[100,15586],[100,15672],[100,15759],[100,15845],[100,15931],[100,16017],[100,16103],[100,16189],[100,16275],[100,16361],[100,16448],[100,16534],[100,16620],[100,16706],[100,16792],[100,16878],[100,16964],[100,17050],[100,17136],[100,17223],[100,17309],[100,17395],[100,17481],[100,17567],[100,17653],[100,17739],[100,17825],[100,17912],[100,17998],[100,18084],[100,18170],[100,18256],[100,18342],[100,18428],[100,18515],[100,18600],[100,18687],[100,18773],[100,18859],[100,18945],[100,19031],[100,19117],[100,19203],[100,19289],[100,19375],[100,19462],[100,19548],[100,19634],[100,19720],[100,19806],[100,19893],[100,19978],[100,20065],[100,20151],[100,20237],[100,20323],[100,20409],[100,20495],[100,20581],[100,20667],[100,20753],[100,20839],[100,20926],[100,21012],[100,21098],[100,21184],[100,21270],[100,21356],[100,21443],[100,21528],[100,21614],[100,21701],[100,21787],[100,21873],[100,21959],[100,22046],[100,22131],[100,22217],[100,22303],[100,22389],[100,22476],[100,22562],[100,22648],[100,22735],[100,22820],[100,22907],[100,22992],[100,23078],[100,23165],[100,23251],[100,23339],[100,23423],[100,23509],[100,23595],[100,23681],[100,23767],[100,23853],[100,23939],[100,24026],[100,24112],[100,24199],[100,24284],[100,24370],[100,24456],[100,24542],[100,24628],[100,24715],[100,24801],[100,24887],[100,24973],[100,25059],[100,25145],[100,25232],[100,25317],[100,25403],[100,25490],[100,25576],[100,25662],[100,25748],[100,25834],[100,25920],[100,26006],[100,26092],[100,26179],[100,26265],[100,26351],[100,26437],[100,26523],[100,26609],[100,26695],[100,26781],[100,26867],[100,26954],[100,27040],[100,27126],[100,27212],[100,27298],[100,27384],[100,27470],[100,27556],[100,27643],[100,27729],[100,27815],[100,27901],[100,27987],[100,28073],[100,28159],[100,28245],[100,28331],[100,28417],[100,28504],[100,28590],[100,28676],[100,28762],[100,28848],[100,28934],[100,29020],[100,29106],[100,29193],[100,29279],[100,29365],[100,29451],[100,29537],[100,29623],[100,29709],[100,29795],[100,29882],[100,29968],[100,30054],[100,30140],[100,30226],[100,30312],[100,30399],[100,30484],[100,30571],[100,30657],[100,30743],[100,30829],[100,30915],[100,31001],[100,31087],[100,31173],[100,31259],[100,31345],[100,31432],[100,31518],[100,31604],[100,31690],[100,31776],[100,31862],[100,31949],[100,32035],[100,32121],[100,32207],[100,32293],[100,32379],[100,32465],[100,32551],[100,32637],[100,32723],[100,32809],[100,32896],[100,32983],[100,33068],[100,33154],[100,33240],[100,33326],[100,33412],[100,33498],[100,33584],[100,33670],[100,33757],[100,33843],[100,33929],[100,34015],[100,34101],[100,34188],[100,34273],[100,34359],[100,34446],[100,34532],[100,34618],[100,34704],[100,34790],[100,34876],[100,34962],[100,35048],[100,35135],[100,35221],[100,35307],[100,35393],[100,35480],[100,35565],[100,35651],[100,35737],[100,35823],[100,35910],[100,35996],[100,36082],[100,36168],[100,36254],[100,36340],[100,36426],[100,36512],[100,36598],[100,36685],[100,36771],[100,36857],[100,36943],[100,37029],[100,37115],[100,37201],[100,37288],[100,37374],[100,37460],[100,37546],[100,37632],[100,37718],[100,37804],[100,37891],[100,37976],[100,38063],[100,38149],[100,38235],[100,38321],[100,38407],[100,38493],[100,38579],[100,38665],[100,38751],[100,38837],[100,38924],[100,39010],[100,39096],[100,39182],[100,39268],[100,39355],[100,39441],[100,39526],[100,39613],[100,39699],[100,39785],[100,39871],[100,39958],[100,40043],[100,40129],[100,40215],[100,40302],[100,40388],[100,40474],[100,40560],[100,40646],[100,40732],[100,40818],[100,40904],[100,40990],[100,41076],[100,41163],[100,41249],[100,41335],[100,41422],[100,41507],[100,41593],[100,41679],[100,41766],[100,41852],[100,41938],[100,42024],[100,42110],[100,42196],[100,42283],[100,42368],[100,42454],[100,42540],[100,42627],[100,42713],[100,42799],[100,42885],[100,42971],[100,43057],[100,43143],[100,43230],[100,43317],[100,43401],[100,43488],[100,43574],[100,43661],[100,43747],[100,43832],[100,43918],[100,44004],[100,44090],[100,44177],[100,44263],[100,44349],[100,44435],[100,44521],[100,44607],[100,44694],[100,44779],[100,44866],[100,44952],[100,45038],[100,45124],[100,45210],[100,45296],[100,45382],[100,45468],[100,45554],[100,45641],[100,45727],[100,45813],[100,45899],[100,45985],[100,46072],[100,46157],[100,46244],[100,46329],[100,46416],[100,46502],[100,46588],[100,46674],[100,46760],[100,46846],[100,46932],[100,47019],[100,47105],[100,47191],[100,47277],[100,47363],[100,47449],[100,47535],[100,47621],[100,47707],[100,47794],[100,47880],[100,47966],[100,48052],[100,48138],[100,48225],[100,48310],[100,48397],[100,48482],[100,48568],[100,48655],[100,48741],[100,48828],[100,48913],[100,49000],[100,49085],[100,49171],[100,49257],[100,49343],[100,49430],[100,49516],[100,49602],[100,49688],[100,49774],[100,49860],[100,49946],[100,50032],[100,50118],[100,50205],[100,50291],[100,50377],[100,50463],[100,50549],[100,50635],[100,50721],[100,50808],[100,50894],[100,50980],[100,51066],[100,51153],[100,51238],[100,51324],[100,51410],[100,51496],[100,51583],[100,51669],[100,51755],[100,51841],[100,51927],[100,52013],[100,52099],[100,52186],[100,52271],[100,52358],[100,52444],[100,52530],[100,52616],[100,52702],[100,52789],[100,52874],[100,52960],[100,53046],[100,53133],[100,53219],[100,53305],[100,53391],[100,53478],[100,53563],[100,53649],[100,53735],[100,53822],[100,53908],[100,53994],[100,54081],[100,54166],[100,54252],[100,54338],[100,54424],[100,54511],[100,54597],[100,54683],[100,54769],[100,54855],[100,54941],[100,55027],[100,55113],[100,55200],[100,55286],[100,55372],[100,55458],[100,55544],[100,55630],[100,55716],[100,55802]]",502.9922,506.8813,100,3.2394,"[{""rating"":99.6875,""responseTime"":2.706400000006056},{""rating"":100,""responseTime"":3.2394000000059577}]",space,3.3811,,506.8813,Definitely yes,100,506.8823,,,[],,0,10,10,10,1,audio/Narrative8Situation1.wav,audio/Narrative7Situation1.wav,audio/Narrative6Situation1.wav,audio/Narrative5Situation1.wav,5,2,2,5,,,,,,,,,,,,,,,,,,,,,,,,,,,,,,,,,,,,,
,,,,,66943e29675c6778f0a3ac7f,2025-07-07_19h00.34.771,group3.4_multiperson,2023.2.2,Win32,370.3703704,686c2ebf0248f13bef9af11f,686c7b961ceba6cd3c1648a0,,,,,,,,,,,,,,,,,,,,,,,,,,,,,506.8823,1,audio/Narrative7Situation2.wav,509.8841,,509.8841,517.3353,"[[999,0],[999,86],[999,173],[999,259],[999,344],[999,430],[999,516],[999,602],[999,688],[999,775],[999,861],[999,947],[999,1033],[999,1120],[999,1205],[999,1292],[999,1378],[999,1464],[999,1550],[999,1637],[999,1723],[999,1808],[999,1894],[999,1981],[999,2067],[999,2153],[999,2239],[999,2325],[999,2411],[999,2498],[999,2584],[999,2670],[24.4,2756],[24.8,2841],[25.1,2927],[27.3,3014],[30.7,3100],[32,3187],[34.9,3273],[39.5,3359],[46.1,3445],[47.5,3530],[47.5,3616],[48.4,3703],[48.8,3789],[49,3875],[49.1,3961],[49.5,4047],[49.5,4133],[49.5,4220],[49.5,4305],[49.8,4391],[50.5,4478],[54.5,4564],[57.4,4651],[58,4736],[58,4822],[58.4,4908],[58.8,4994],[59.1,5081],[59.6,5166],[60.1,5253],[60.7,5339],[61.1,5425],[62.9,5512],[69.1,5598],[73.3,5683],[73.4,5769],[75.2,5855],[75.5,5942],[75.5,6028],[75.5,6114],[75.5,6200],[75.5,6287],[75.5,6372],[75.5,6458],[75.5,6544],[75.5,6630],[75.5,6717],[75.6,6803],[75.6,6889],[75.6,6975],[75.5,7061],[75.5,7147],[75.5,7233],[77.8,7322],[85.1,7406]]",517.3354,519.993,99.921875,1.2572,"[{""rating"":99.921875,""responseTime"":1.2572000000030812}]",space,2.1514,,519.993,Partially,50,519.9938,,,[],,0,11,11,11,1,audio/Narrative8Situation2.wav,audio/Narrative7Situation2.wav,audio/Narrative6Situation2.wav,audio/Narrative5Situation2.wav,3,3,3,3,,,,,,,,,,,,,,,,,,,,,,,,,,,,,,,,,,,,,
,,,,,66943e29675c6778f0a3ac7f,2025-07-07_19h00.34.771,group3.4_multiperson,2023.2.2,Win32,370.3703704,686c2ebf0248f13bef9af11f,686c7b961ceba6cd3c1648a0,,,,,,,,,,,,,,,,,,,,,,,,,,,,,519.9939,1,audio/Narrative7Situation3.wav,527.9939,,527.9939,537.2243,"[[999,0],[999,85],[999,171],[999,257],[999,344],[999,429],[999,515],[999,602],[999,688],[999,774],[999,860],[999,946],[999,1032],[999,1118],[999,1204],[999,1291],[999,1377],[999,1463],[999,1549],[999,1635],[999,1721],[999,1807],[999,1894],[999,1979],[999,2066],[999,2152],[999,2238],[999,2324],[999,2410],[999,2496],[999,2582],[999,2669],[999,2755],[999,2841],[999,2927],[999,3013],[999,3100],[999,3185],[999,3271],[999,3357],[999,3443],[999,3530],[999,3616],[999,3702],[999,3788],[999,3874],[999,3960],[999,4046],[999,4132],[999,4221],[999,4305],[999,4391],[999,4477],[999,4564],[999,4650],[0.9,4738],[0.5,4825],[1.7,4910],[1.7,4996],[1.5,5083],[2.6,5171],[6.9,5255],[10.7,5342],[13.9,5428],[17.3,5513],[23,5599],[33.1,5686],[41.1,5772],[43.4,5857],[45.9,5944],[47.5,6031],[49.8,6116],[50.2,6202],[50.2,6288],[50.2,6374],[50.6,6460],[53.7,6546],[55.5,6633],[58.2,6719],[61.7,6806],[65.2,6892],[69.5,6978],[72.7,7063],[72.8,7149],[72.8,7235],[72.8,7322],[73,7408],[73,7494],[73,7580],[73,7666],[73,7752],[73,7838],[73,7925],[73,8010],[73,8096],[73,8183],[73,8269],[73,8355],[73,8441],[73,8527],[73,8613],[73.3,8699],[73.5,8785],[74.2,8872],[74.9,8958],[75.5,9044],[77.5,9131],[78.1,9216]]",537.2243,550.8869,50.078125,12.8209,"[{""rating"":99.6875,""responseTime"":2.9867000000029975},{""rating"":50.07812499999999,""responseTime"":12.820900000005963}]",space,13.1564,,550.8869,Definitely yes,100,550.8876,,,[],,0,12,12,12,1,audio/Narrative8Situation3.wav,audio/Narrative7Situation3.wav,audio/Narrative6Situation3.wav,audio/Narrative5Situation3.wav,4,8,5,3,,,,,,,,,,,,,,,,,,,,,,,,,,,,,,,,,,,,,
,,,,,66943e29675c6778f0a3ac7f,2025-07-07_19h00.34.771,group3.4_multiperson,2023.2.2,Win32,370.3703704,686c2ebf0248f13bef9af11f,686c7b961ceba6cd3c1648a0,,,,,,,,,,,,,,,,,,,,,,,,,,,,,550.8878,1,audio/Narrative7Situation4.wav,553.8889,,553.8889,565.5839,"[[999,0],[999,86],[999,172],[999,258],[999,344],[999,430],[999,516],[999,602],[999,688],[999,774],[999,861],[999,947],[999,1033],[999,1119],[999,1206],[999,1291],[999,1377],[999,1463],[999,1550],[999,1636],[999,1722],[999,1809],[999,1895],[999,1980],[999,2066],[999,2152],[999,2238],[999,2325],[999,2411],[999,2497],[999,2583],[999,2670],[999,2756],[999,2841],[999,2927],[999,3014],[999,3100],[999,3186],[999,3272],[999,3358],[999,3444],[999,3530],[999,3616],[999,3702],[999,3791],[999,3877],[999,3964],[999,4050],[999,4136],[999,4222],[999,4308],[999,4394],[999,4480],[999,4566],[999,4653],[999,4739],[999,4825],[999,4911],[999,4997],[999,5084],[999,5169],[999,5256],[999,5341],[999,5428],[999,5514],[999,5600],[999,5687],[999,5772],[999,5858],[999,5944],[999,6030],[999,6116],[999,6203],[999,6289],[999,6375],[999,6461],[999,6547],[999,6633],[999,6719],[999,6805],[999,6894],[999,6978],[999,7064],[999,7151],[999,7236],[999,7323],[999,7409],[999,7495],[999,7581],[2.6,7667],[1.5,7753],[1.1,7839],[1,7925],[0.8,8011]]",565.584,567.8462,0,1.7659,"[{""rating"":0.9375000000000022,""responseTime"":1.2147000000029493},{""rating"":0,""responseTime"":1.7659000000058995}]",space,1.7557,,567.8462,Definitely yes,100,567.8467,,,[],,0,13,13,13,1,audio/Narrative8Situation4.wav,audio/Narrative7Situation4.wav,audio/Narrative6Situation4.wav,audio/Narrative5Situation4.wav,3,3,2,1,,,,,,,,,,,,,,,,,,,,,,,,,,,,,,,,,,,,,
,,,,,66943e29675c6778f0a3ac7f,2025-07-07_19h00.34.771,group3.4_multiperson,2023.2.2,Win32,370.3703704,686c2ebf0248f13bef9af11f,686c7b961ceba6cd3c1648a0,,,,,,,,,,,,,,,,,,,,,,,,,,,,,567.8468,1,audio/Narrative7Situation5.wav,572.8481,,572.8482,581.3069,"[[999,0],[999,86],[999,172],[999,259],[999,344],[999,430],[999,516],[999,602],[999,688],[999,774],[999,861],[999,947],[999,1033],[999,1119],[999,1205],[999,1291],[999,1377],[999,1463],[999,1550],[999,1636],[999,1722],[999,1808],[999,1894],[999,1981],[999,2067],[999,2153],[999,2238],[999,2324],[999,2411],[999,2497],[999,2583],[999,2669],[999,2755],[999,2842],[999,2927],[999,3014],[999,3100],[999,3186],[999,3272],[44.3,3359],[48.9,3445],[49.2,3532],[49.5,3616],[50.5,3702],[50.9,3789],[50.8,3875],[50.7,3961],[50.6,4047],[50.5,4133],[50.4,4220],[50.4,4305],[50.4,4391],[50.4,4477],[50.4,4563],[50.4,4650],[50,4736],[49.8,4822],[49.8,4908],[49.8,4994],[49.8,5080],[49.8,5166],[49.8,5252],[49.8,5339],[49.8,5425],[49.8,5511],[50,5599],[50,5683],[50.7,5769],[51.7,5855],[53.1,5942],[54.5,6028],[55.5,6114],[56.5,6200],[56.6,6286],[57.5,6372],[58.7,6459],[61.1,6544],[61.5,6630],[63,6717],[65.4,6803],[66.2,6889],[67.7,6975],[69,7061],[69.6,7147],[70.7,7233],[71.6,7320],[72.3,7405],[73.1,7493],[73.4,7578],[73.8,7664],[74.5,7750],[75,7836],[75.2,7923],[75.4,8008],[75.7,8094],[75.7,8180],[75.7,8267],[75.7,8353],[75.7,8439]]",581.307,587.0718,62.109375,4.2689,"[{""rating"":62.109375,""responseTime"":4.268900000005942}]",space,5.2577,,587.0718,Not at all,0,587.0726,,,[],,0,14,14,14,1,audio/Narrative8Situation5.wav,audio/Narrative7Situation5.wav,audio/Narrative6Situation5.wav,audio/Narrative5Situation5.wav,2,5,2,5,,,,,,,,,,,,,,,,,,,,,,,,,,,,,,,,,,,,,
,,,,,66943e29675c6778f0a3ac7f,2025-07-07_19h00.34.771,group3.4_multiperson,2023.2.2,Win32,370.3703704,686c2ebf0248f13bef9af11f,686c7b961ceba6cd3c1648a0,,,,,,,,,,,,,,,,,,,,,,,,,,,,,587.0727,1,audio/Narrative7Situation6.wav,590.0746,,590.0746,600.0217,"[[999,0],[999,85],[999,171],[999,257],[999,343],[999,429],[999,515],[999,602],[999,688],[999,774],[999,860],[999,946],[999,1032],[999,1118],[999,1205],[999,1291],[999,1377],[999,1463],[999,1549],[999,1635],[999,1721],[999,1807],[999,1893],[999,1980],[999,2066],[999,2152],[999,2238],[999,2324],[999,2410],[999,2496],[999,2582],[999,2668],[999,2754],[999,2841],[999,2927],[999,3013],[999,3099],[999,3185],[999,3271],[999,3357],[999,3443],[999,3530],[999,3616],[999,3702],[999,3788],[999,3874],[999,3960],[999,4046],[999,4132],[999,4219],[999,4305],[999,4391],[999,4477],[999,4563],[999,4649],[999,4735],[999,4821],[999,4908],[999,4994],[999,5080],[999,5166],[999,5252],[999,5339],[999,5424],[999,5510],[999,5597],[999,5682],[999,5769],[999,5855],[999,5941],[999,6027],[999,6114],[999,6200],[999,6286],[999,6371],[999,6457],[999,6544],[999,6630],[999,6716],[999,6802],[999,6888],[999,6974],[999,7060],[999,7147],[999,7233],[999,7319],[999,7405],[999,7491],[999,7577],[999,7663],[999,7749],[999,7835],[999,7922],[999,8008],[999,8095],[51.7,8181],[51.6,8266],[51.6,8352],[51.3,8438],[50.9,8524],[50.8,8610],[50.7,8697],[50.7,8783],[50.7,8869],[50.7,8955],[50.6,9041],[50.6,9127],[50.6,9213],[50.6,9300],[50.6,9385],[50.6,9472],[50.6,9558],[50.6,9644],[50.6,9730],[50.6,9816],[50.6,9902]]",600.0217,605.949,89.53125,5.5376,"[{""rating"":89.53125,""responseTime"":5.537599999994086}]",space,5.4222,,605.949,Definitely yes,100,605.9499,,,[],,0,15,15,15,1,audio/Narrative8Situation6.wav,audio/Narrative7Situation6.wav,audio/Narrative6Situation6.wav,audio/Narrative5Situation6.wav,2,3,2,3,,,,,,,,,,,,,,,,,,,,,,,,,,,,,,,,,,,,,
,,,,,66943e29675c6778f0a3ac7f,2025-07-07_19h00.34.771,group3.4_multiperson,2023.2.2,Win32,370.3703704,686c2ebf0248f13bef9af11f,686c7b961ceba6cd3c1648a0,,,,,,,,,,,,,,,,,,,,,,,,,,,,,605.9499,1,audio/Narrative7Situation7.wav,610.95,,610.95,628.0952,"[[49.7,2927],[49.4,3014],[49,3100],[48.8,3186],[47.4,3273],[37.2,3358],[10.1,3445],[1.6,3531],[1.6,3616],[0.8,3702],[0.6,3788],[1.9,4134],[11.7,4220],[21.9,4306],[29.1,4392],[39.5,4480],[46.6,4564],[47.3,4650],[49.2,4736],[50.3,4822],[50.3,4908],[50.3,4994],[50.2,5080],[49.8,5167],[49.4,5253],[49.1,5339],[49,5425],[48.7,5511],[48.6,5597],[48.6,5683],[48.6,5770],[48.6,5855],[48.8,5941],[49.1,6028],[49.1,6114],[49.1,6200],[49.2,6286],[49.2,6372],[49.2,6458],[49.2,6544],[49.2,6630],[49.2,6716],[49.1,6802],[49.1,6889],[49.1,6975],[49.1,7061],[49.1,7147],[49.1,7233],[49.1,7319],[49.5,7406],[52,7492],[59.8,7578],[68.5,7665],[70.9,7750],[76.5,7836],[76.5,7922],[75.4,8010],[74.9,8094],[74.9,8180],[75,8267],[75,8353],[75.1,8439],[75.1,8525],[75.1,8611],[75.1,8697],[75.1,8783],[75.1,8869],[75.1,8956],[75.1,9042],[75.1,9128],[75.1,9214],[75.1,9300],[75.1,9386],[75.1,9472],[75,9558],[75,9644],[74.9,9730],[74.8,9817],[74.8,9903],[74.8,9989],[74.8,10075],[74.8,10161],[74.8,10247],[74.8,10333],[74.8,10419],[74.8,10505],[74.8,10592],[74.8,10678],[74.8,10764],[74.8,10850],[74.8,10936],[74.8,11022],[74.8,11108],[74.8,11194],[74.8,11281],[74.8,11367],[74.8,11453],[74.8,11539],[74.8,11625],[74.8,11711],[74.8,11797],[74.8,11883],[74.8,11969],[74.8,12056],[74.8,12142],[74.8,12228],[74.8,12314],[74.8,12400],[74.8,12486],[74.8,12572],[74.8,12659],[74.8,12745],[74.8,12831],[74.9,12917],[75.2,13003],[75.3,13089],[75.5,13175],[75.7,13261],[75.8,13348],[75.8,13433],[75.8,13519],[75.8,13606],[75.8,13692],[75.8,13778],[75.9,13864],[77.1,13951],[78,14036],[78.6,14124],[79.6,14209],[81.6,14295],[82.3,14381],[83.5,14467],[84,14554],[84.2,14639],[84.3,14726],[84.3,14811],[84.3,14900],[84.3,14986],[84.3,15072],[84.3,15159],[84.3,15245],[84.3,15331],[84.3,15417],[84.3,15504],[84.3,15589],[84.3,15675],[84.3,15761],[84.3,15847],[84.3,15934],[84.3,16020],[84.3,16106],[84.3,16192],[84.3,16278],[84.3,16364],[84.3,16451],[84.3,16536],[84.3,16623],[84.1,16709],[83,16795],[82.5,16882],[82.1,16967],[82.7,17053],[83.2,17139]]",628.0953,633.966,100,5.5676,"[{""rating"":100,""responseTime"":5.567599999994059}]",space,5.3667,,633.966,Definitely yes,100,633.9665,,,[],,0,16,16,16,1,audio/Narrative8Situation7.wav,audio/Narrative7Situation7.wav,audio/Narrative6Situation7.wav,audio/Narrative5Situation7.wav,3,5,5,4,,,,,,,,,,,,,,,,,,,,,,,,,,,,,,,,,,,,,
,,,,,66943e29675c6778f0a3ac7f,2025-07-07_19h00.34.771,group3.4_multiperson,2023.2.2,Win32,370.3703704,686c2ebf0248f13bef9af11f,686c7b961ceba6cd3c1648a0,,,,,,,,,,,,,,,,,,,,,,,,,,,,,633.9666,1,audio/Narrative7Situation8.wav,635.9679,,635.9679,645.9627,"[[999,0],[999,86],[999,172],[999,258],[999,344],[999,430],[999,516],[999,602],[999,688],[999,774],[999,860],[999,947],[999,1033],[999,1119],[999,1205],[999,1291],[999,1377],[999,1463],[999,1549],[999,1635],[999,1722],[999,1808],[999,1895],[999,1980],[999,2066],[999,2152],[999,2238],[999,2325],[999,2411],[999,2497],[999,2583],[999,2670],[999,2755],[999,2841],[999,2928],[999,3014],[74,3100],[73.4,3186],[73.4,3272],[73.4,3358],[73.9,3445],[78.8,3531],[86,3617],[89.5,3703],[93.3,3789],[95.8,3875],[95.9,3961],[95.9,4047],[96.5,4134],[96.6,4219],[96.6,4305],[97.3,4392],[97.9,4477],[98,4564],[98,4650],[98,4736],[98.2,4822],[98.9,4908],[99.2,4994],[99.2,5081],[99.2,5166],[99.5,5253],[100,5340],[100,5425],[100,5511],[100,5597],[100,5683],[100,5769],[100,5855],[100,5941],[100,6028],[100,6114],[100,6200],[100,6286],[100,6372],[100,6458],[100,6544],[100,6630],[100,6716],[100,6802],[100,6889],[100,6975],[100,7061],[100,7147],[100,7233],[100,7320],[100,7405],[100,7492],[100,7577],[100,7664],[100,7750],[100,7836],[100,7923],[100,8008],[100,8094],[100,8180],[100,8266],[100,8353],[100,8440],[100,8525],[100,8611],[100,8697],[100,8783],[100,8869],[100,8955],[100,9042],[100,9128],[100,9214],[100,9300],[100,9386],[100,9473],[100,9558],[100,9644],[100,9730],[100,9817],[100,9903],[100,9989]]",645.9628,648.4786,100,1.9968,"[{""rating"":99.53125,""responseTime"":1.4412000000030503},{""rating"":100,""responseTime"":1.9967999999970516}]",space,2.0032,,648.4786,Definitely yes,100,648.4791,,,[],,0,17,17,17,1,audio/Narrative8Situation8.wav,audio/Narrative7Situation8.wav,audio/Narrative6Situation8.wav,audio/Narrative5Situation8.wav,3,2,5,3,,,,,,,,,,,,,,,,,,,,,,,,,,,,,,,,,,,,,
,,,,,66943e29675c6778f0a3ac7f,2025-07-07_19h00.34.771,group3.4_multiperson,2023.2.2,Win32,370.3703704,686c2ebf0248f13bef9af11f,686c7b961ceba6cd3c1648a0,,,,,,,,,,,,,,,,,,,,,,,,,,,,,648.4792,1,audio/Narrative7Situation9.wav,650.4798,,650.4798,659.0829,"[[999,0],[999,85],[999,172],[999,258],[999,344],[999,430],[999,516],[999,602],[999,688],[999,774],[999,861],[999,947],[999,1033],[999,1120],[999,1205],[999,1291],[999,1377],[999,1463],[999,1549],[999,1635],[999,1722],[999,1810],[999,1894],[999,1980],[999,2066],[999,2152],[999,2238],[999,2324],[999,2410],[999,2497],[999,2583],[999,2669],[999,2755],[999,2841],[999,2927],[999,3013],[999,3100],[999,3186],[999,3272],[999,3359],[999,3444],[49.5,3531],[49.5,3616],[49.5,3702],[49.5,3788],[49.5,3875],[49.5,3961],[49.5,4047],[49.6,4133],[49.6,4219],[49.6,4305],[49.6,4391],[49.6,4477],[49.8,4564],[52,4650],[54.8,4738],[56,4822],[58,4909],[64,4995],[69.8,5080],[74.5,5167],[79.8,5252],[86.3,5339],[88.7,5425],[92,5511],[93.4,5598],[93.5,5683],[93.5,5769],[93.5,5855],[100,5942],[100,6027],[100,6114],[100,6200],[100,6286],[100,6372],[100,6458],[100,6544],[100,6630],[100,6716],[100,6803],[99.9,6889],[87.5,6976],[66.7,7062],[66.3,7148],[73.8,7234],[90.2,7319],[91.6,7406],[91.3,7491],[90.6,7577],[87.7,7664],[87.5,7751],[87.5,7836],[87.3,7922],[87.3,8008],[87.3,8094],[87.3,8180],[87.3,8266],[87.3,8352],[87.3,8439],[87.3,8525]]",659.0829,661.5226,100,2.0518,"[{""rating"":100,""responseTime"":2.0517999999970016}]",space,1.9309,,661.5226,Not at all,0,661.5236,,,[],,0,18,18,18,1,audio/Narrative8Situation9.wav,audio/Narrative7Situation9.wav,audio/Narrative6Situation9.wav,audio/Narrative5Situation9.wav,3,2,4,3,,,,,,,,,,,,,,,,,,,,,,,,,,,,,,,,,,,,,
,,,,,66943e29675c6778f0a3ac7f,2025-07-07_19h00.34.771,group3.4_multiperson,2023.2.2,Win32,370.3703704,686c2ebf0248f13bef9af11f,686c7b961ceba6cd3c1648a0,,,,,,,,,,,,,,,,,,,,,,,,,,,721.522,724.1025,724.1067,2,audio/Narrative13Situation2.wav,724.1067,,724.1067,753.8289,"[[999,0],[999,87],[999,173],[999,259],[999,345],[999,431],[999,518],[999,604],[999,690],[999,776],[999,862],[999,948],[999,1034],[999,1120],[999,1206],[999,1293],[999,1379],[999,1465],[999,1551],[999,1637],[999,1723],[999,1809],[999,1895],[999,1982],[999,2068],[999,2154],[999,2240],[999,2326],[999,2412],[999,2498],[999,2584],[999,2671],[999,2757],[999,2843],[999,2929],[999,3015],[999,3101],[999,3187],[999,3273],[999,3359],[999,3445],[999,3532],[999,3618],[999,3704],[999,3790],[999,3876],[999,3962],[999,4048],[999,4134],[999,4220],[999,4307],[999,4393],[999,4479],[999,4565],[999,4651],[999,4737],[999,4823],[999,4909],[999,4996],[999,5082],[999,5168],[999,5255],[999,5340],[999,5426],[999,5512],[999,5598],[999,5684],[999,5771],[999,5857],[999,5943],[999,6029],[999,6115],[999,6202],[999,6288],[999,6373],[999,6460],[999,6546],[999,6633],[999,6718],[999,6804],[999,6890],[999,6976],[999,7062],[999,7148],[999,7234],[999,7321],[999,7407],[999,7494],[999,7579],[999,7665],[999,7751],[999,7837],[999,7923],[999,8010],[999,8096],[999,8182],[999,8268],[999,8354],[999,8440],[999,8527],[999,8613],[999,8699],[51.9,8785],[53.8,8871],[53.1,8958],[52.1,9043],[52.6,9130],[60.6,9216],[84.9,9302],[95.9,9388],[97,9474],[97.2,9561],[98,9646],[98.9,9732],[99.1,9818],[99.6,9905],[99.6,9990],[99.6,10076],[99.6,10162],[99.6,10249],[99.1,10335],[98.9,10421],[98.9,10507],[98.9,10593],[98.9,10679],[98.9,10765],[98.9,10851],[98.9,10937],[98.9,11024],[99,11111],[99,11196],[99,11282],[99,11368],[99,11454],[99,11541],[99,11626],[99,11714],[99,11799],[99,11885],[99.1,11971],[99.1,12057],[99.1,12143],[99.1,12229],[99.1,12315],[99.1,12401],[99.1,12488],[99.1,12575],[99.1,12660],[99.1,12746],[99.1,12832],[99.1,12918],[99.1,13004],[99.1,13090],[99.1,13177],[99.1,13263],[99.1,13349],[99.1,13435],[99.1,13521],[99.1,13607],[99.1,13693],[99.1,13779],[99,13865],[99,13951],[99,14038],[99,14124],[99,14210],[99,14296],[99,14382],[99,14468],[99,14554],[99,14641],[99,14727],[99,14813],[99,14899],[99,14985],[98.9,15071],[98.9,15157],[98.9,15243],[98.9,15329],[98.9,15415],[98.9,15502],[98.9,15588],[98.9,15674],[98.9,15760],[98.9,15846],[98.9,15932],[98.9,16018],[98.9,16104],[98.9,16191],[99.1,16278],[99.7,16363],[100,16449],[100,16536],[100,16621],[100,16707],[100,16793],[100,16882],[100,16966],[100,17052],[100,17138],[100,17224],[100,17310],[100,17397],[100,17483],[100,17569],[100,17654],[100,17741],[100,17827],[100,17913],[100,17999],[100,18085],[100,18171],[100,18258],[100,18344],[100,18430],[100,18516],[100,18602],[100,18688],[100,18774],[100,18861],[100,18947],[100,19032],[100,19118],[100,19205],[100,19291],[100,19377],[100,19463],[100,19549],[100,19635],[100,19721],[100,19807],[100,19894],[100,19980],[100,20066],[100,20152],[100,20238],[100,20324],[100,20410],[100,20496],[100,20582],[100,20669],[100,20755],[100,20841],[100,20927],[100,21014],[100,21099],[100,21185],[100,21271],[100,21357],[100,21444],[100,21530],[100,21616],[100,21705],[100,21791],[100,21877],[100,21963],[100,22049],[100,22135],[100,22221],[100,22307],[100,22394],[100,22480],[100,22566],[100,22652],[100,22738],[100,22824],[100,22910],[100,22996],[100,23083],[100,23169],[100,23256],[100,23341],[100,23427],[100,23513],[100,23599],[100,23685],[100,23771],[100,23858],[100,23944],[100,24030],[100,24116],[100,24202],[100,24288],[100,24374],[100,24461],[100,24547],[100,24633],[100,24719],[100,24805],[100,24892],[100,24977],[100,25063],[100,25149],[100,25235],[100,25322],[100,25408],[100,25494],[100,25580],[100,25666],[100,25752],[100,25838],[100,25925],[100,26010],[100,26097],[100,26183],[100,26271],[100,26355],[100,26441],[100,26527],[100,26613],[100,26699],[100,26785],[100,26872],[100,26958],[100,27044],[100,27130],[100,27216],[100,27302],[100,27388],[100,27474],[100,27560],[100,27647],[100,27733],[100,27819],[100,27905],[100,27991],[100,28077],[100,28163],[100,28249],[100,28336],[100,28422],[100,28508],[100,28594],[100,28680],[100,28766],[100,28853],[100,28938],[100,29024],[100,29111],[100,29197],[100,29283],[100,29370],[100,29455],[100,29541],[100,29627],[100,29714]]",753.829,753.8295,,,[],,,,753.8295,Not at all,0,753.8299,,,[],,0,0,0,0,1,audio/Narrative13Situation2.wav,audio/Narrative13Situation2.wav,audio/Narrative13Situation2.wav,audio/Narrative13Situation2.wav,2,2,2,2,,,,,661.5237,721.5219,,,,,,,,,,,,,,,,,,,,,,,,,,,,,,,
,,,,,66943e29675c6778f0a3ac7f,2025-07-07_19h00.34.771,group3.4_multiperson,2023.2.2,Win32,370.3703704,686c2ebf0248f13bef9af11f,686c7b961ceba6cd3c1648a0,,,,,,,,,,,,,,,,,,,,,,,,,,,,,753.83,2,audio/Narrative6Situation1.wav,755.8325,,755.8325,782.3885,"[[999,0],[999,86],[999,172],[999,258],[999,344],[82.7,432],[83.8,515],[83.4,601],[83.1,688],[86.8,775],[94.6,861],[100,947],[100,1032],[99.7,1118],[88.4,1205],[70.2,1291],[58.8,1377],[55.2,1464],[51.6,1549],[51.3,1635],[51.3,1721],[50.9,1807],[50.6,1893],[50.6,1979],[50.6,2066],[50.5,2152],[50.1,2238],[50.1,2324],[50.1,2410],[50.1,2496],[50.1,2582],[50.1,2668],[50.1,2754],[50.1,2841],[50.1,2927],[50.1,3013],[49.5,3100],[40.3,3186],[21.3,3273],[12.2,3358],[10.2,3444],[3.7,3530],[2.5,3615],[2.5,3702],[2.6,3788],[6.4,3875],[15.2,3961],[24.5,4047],[36.2,4133],[38.2,4219],[40.4,4305],[45,4391],[47.9,4477],[48.2,4563],[48.2,4649],[48.3,4735],[48.7,4822],[49.1,4907],[49.1,4994],[49.2,5080],[49.7,5166],[49.8,5252],[49.9,5338],[50.1,5424],[53.9,5511],[59.3,5597],[67.6,5683],[73.8,5769],[74.5,5855],[77,5941],[80.9,6028],[86.2,6114],[95.5,6200],[96.6,6285],[96.9,6372],[98.7,6458],[99.5,6543],[100,6630],[100,6716],[100,6802],[100,6888],[100,6974],[100,7060],[98.8,7146],[98.8,7232],[98.8,7318],[98.8,7405],[98.8,7491],[98.8,7577],[100,7664],[100,7749],[100,7835],[100,7921],[100,8007],[100,8093],[100,8180],[100,8266],[100,8352],[100,8438],[100,8524],[100,8610],[100,8697],[100,8783],[100,8869],[100,8955],[100,9041],[100,9127],[100,9213],[100,9299],[100,9385],[100,9471],[100,9557],[100,9644],[100,9730],[100,9816],[100,9902],[100,9989],[100,10074],[100,10160],[100,10246],[100,10333],[100,10419],[100,10505],[100,10591],[100,10677],[100,10763],[100,10849],[100,10936],[100,11021],[100,11107],[100,11194],[100,11280],[100,11366],[100,11452],[100,11538],[100,11624],[100,11710],[100,11797],[100,11883],[100,11969],[100,12056],[100,12141],[100,12227],[100,12313],[100,12399],[100,12485],[100,12572],[100,12658],[100,12744],[100,12830],[100,12916],[100,13002],[100,13088],[100,13174],[100,13260],[100,13347],[100,13433],[100,13519],[100,13605],[100,13691],[100,13777],[100,13864],[100,13949],[100,14035],[100,14122],[100,14208],[100,14294],[100,14380],[100,14466],[100,14552],[100,14639],[100,14724],[100,14811],[100,14897],[100,14983],[100,15069],[100,15155],[100,15241],[100,15327],[100,15413],[100,15499],[100,15586],[100,15672],[100,15758],[100,15844],[100,15930],[100,16016],[100,16102],[100,16189],[100,16275],[100,16361],[100,16449],[100,16533],[100,16619],[100,16705],[100,16791],[100,16878],[100,16963],[100,17049],[100,17136],[100,17222],[100,17308],[100,17394],[100,17480],[100,17566],[100,17652],[100,17739],[100,17825],[100,17911],[100,17997],[100,18083],[100,18169],[100,18255],[100,18341],[100,18427],[100,18514],[100,18600],[100,18686],[100,18772],[100,18858],[100,18944],[100,19030],[100,19116],[100,19202],[100,19288],[100,19376],[100,19461],[100,19547],[100,19634],[100,19719],[100,19806],[100,19891],[100,19977],[100,20064],[100,20150],[100,20236],[100,20322],[100,20408],[100,20494],[100,20580],[100,20666],[100,20752],[100,20839],[100,20925],[100,21011],[100,21097],[100,21183],[100,21269],[100,21355],[100,21441],[100,21528],[100,21614],[100,21700],[100,21786],[100,21872],[100,21959],[100,22044],[100,22130],[100,22217],[99.9,22302],[99.9,22389],[100,22476],[100,22561],[100,22647],[100,22733],[100,22819],[100,22905],[100,22992],[99.5,23077],[100,23164],[100,23250],[100,23337],[100,23422],[100,23508],[100,23594],[100,23680],[100,23766],[100,23853],[100,23939],[100,24025],[100,24111],[100,24197],[100,24283],[100,24369],[100,24456],[100,24542],[100,24628],[100,24714],[100,24800],[100,24887],[100,24972],[100,25058],[100,25144],[100,25231],[100,25317],[100,25403],[100,25489],[100,25575],[100,25661],[100,25747],[100,25833],[100,25919],[100,26005],[100,26092],[100,26178],[100,26264],[100,26350],[100,26436],[100,26522]]",782.3886,786.8888,100,3.507,"[{""rating"":99.765625,""responseTime"":2.6100000000000136},{""rating"":100,""responseTime"":3.507000000000062}]",space,3.9923,,786.8888,Definitely yes,100,786.8897,,,[],,0,1,1,1,1,audio/Narrative7Situation1.wav,audio/Narrative8Situation1.wav,audio/Narrative5Situation1.wav,audio/Narrative6Situation1.wav,2,5,5,2,,,,,,,,,,,,,,,,,,,,,,,,,,,,,,,,,,,,,
,,,,,66943e29675c6778f0a3ac7f,2025-07-07_19h00.34.771,group3.4_multiperson,2023.2.2,Win32,370.3703704,686c2ebf0248f13bef9af11f,686c7b961ceba6cd3c1648a0,,,,,,,,,,,,,,,,,,,,,,,,,,,,,786.8898,2,audio/Narrative6Situation2.wav,789.8917,,789.8917,818.3624,"[[999,0],[999,86],[999,172],[999,258],[999,344],[999,430],[999,516],[999,602],[999,689],[999,775],[999,861],[999,947],[999,1033],[999,1119],[999,1205],[999,1291],[999,1377],[999,1463],[999,1549],[999,1636],[999,1722],[999,1808],[999,1894],[999,1980],[999,2066],[999,2152],[999,2238],[999,2325],[999,2411],[999,2497],[999,2583],[999,2669],[999,2755],[999,2841],[999,2927],[999,3014],[999,3100],[999,3186],[999,3272],[999,3358],[999,3444],[999,3530],[999,3616],[999,3702],[999,3789],[999,3875],[999,3961],[999,4047],[999,4134],[999,4220],[999,4306],[999,4392],[999,4478],[999,4564],[999,4651],[999,4737],[999,4823],[999,4909],[47.3,4995],[47.3,5081],[48.6,5167],[50.5,5253],[50.5,5339],[50.2,5425],[50.2,5513],[50.2,5598],[51.6,5684],[56.3,5770],[68.7,5859],[73.2,5945],[80.2,6030],[84.4,6117],[87.8,6202],[92.2,6289],[95.9,6376],[96.5,6461],[96.6,6548],[96.9,6634],[97.3,6720],[97.9,6805],[98.7,6891],[100,6978],[100,7064],[100,7150],[100,7236],[100,7323],[100,7408],[100,7495],[100,7580],[100,7667],[100,7753],[100,7839],[100,7925],[100,8011],[100,8097],[100,8183],[100,8269],[100,8356],[100,8442],[100,8528],[100,8614],[100,8701],[100,8786],[100,8872],[100,8958],[100,9044],[100,9130],[100,9217],[100,9303],[100,9389],[100,9476],[100,9561],[100,9647],[100,9734],[100,9819],[100,9905],[100,9992],[100,10078],[100,10164],[100,10250],[100,10336],[100,10422],[100,10508],[100,10595],[100,10680],[100,10767],[100,10853],[100,10939],[100,11025],[100,11111],[100,11197],[100,11284],[100,11370],[100,11456],[100,11542],[100,11628],[100,11715],[100,11800],[100,11886],[100,11973],[100,12058],[100,12144],[100,12231],[100,12317],[100,12403],[100,12489],[100,12575],[100,12661],[100,12747],[100,12833],[100,12919],[100,13006],[100,13092],[100,13178],[100,13264],[100,13350],[100,13436],[100,13522],[100,13609],[100,13695],[100,13781],[100,13867],[100,13954],[100,14041],[100,14125],[100,14211],[100,14297],[100,14384],[100,14470],[100,14556],[100,14642],[100,14728],[100,14814],[100,14901],[100,14987],[100,15072],[100,15159],[100,15245],[100,15331],[100,15417],[100,15504],[100,15589],[100,15675],[100,15761],[100,15847],[100,15933],[100,16020],[100,16107]]",818.3625,822.5523,99.84375,1.6784,"[{""rating"":99.84375,""responseTime"":1.6783999999910293}]",space,3.6836,,822.5524,Partially,50,822.5531,,,[],,0,2,2,2,1,audio/Narrative7Situation2.wav,audio/Narrative8Situation2.wav,audio/Narrative5Situation2.wav,audio/Narrative6Situation2.wav,3,3,3,3,,,,,,,,,,,,,,,,,,,,,,,,,,,,,,,,,,,,,
,,,,,66943e29675c6778f0a3ac7f,2025-07-07_19h00.34.771,group3.4_multiperson,2023.2.2,Win32,370.3703704,686c2ebf0248f13bef9af11f,686c7b961ceba6cd3c1648a0,,,,,,,,,,,,,,,,,,,,,,,,,,,,,822.5532,2,audio/Narrative6Situation3.wav,827.5546,,827.5546,840.144,"[[999,0],[999,86],[999,172],[999,258],[999,344],[999,430],[999,516],[999,602],[999,688],[999,774],[999,861],[999,947],[999,1033],[999,1119],[999,1205],[999,1291],[999,1377],[999,1463],[999,1549],[999,1636],[999,1722],[999,1808],[999,1894],[999,1980],[999,2066],[999,2152],[999,2239],[999,2325],[999,2411],[999,2497],[999,2584],[999,2670],[999,2756],[999,2842],[999,2927],[999,3014],[999,3100],[999,3186],[999,3272],[999,3358],[999,3444],[999,3530],[999,3616],[999,3703],[999,3788],[999,3875],[999,3961],[999,4047],[999,4133],[999,4219],[999,4305],[999,4391],[999,4477],[999,4564],[999,4650],[999,4736],[999,4822],[999,4908],[999,4995],[999,5080],[999,5166],[999,5252],[999,5338],[999,5425],[999,5511],[999,5597],[999,5683],[999,5769],[999,5855],[999,5942],[999,6028],[999,6114],[999,6200],[999,6286],[999,6372],[999,6458],[999,6544],[999,6630],[999,6716],[999,6802],[999,6889],[999,6975],[999,7062],[999,7148],[999,7234],[999,7319],[999,7405],[999,7491],[999,7577],[999,7664],[999,7751],[999,7837],[999,7922],[92.3,8009],[96,8094],[96.1,8180],[96.3,8266],[98.4,8353],[99.5,8439],[99.6,8525],[99.7,8612],[99.7,8697],[99.8,8783],[100,8869],[100,8955],[100,9042],[100,9128],[100,9214],[100,9300],[100,9387],[100,9473],[100,9559],[100,9903],[100,9990],[100,11023],[100,11884]]",840.144,843.1199,100,1.8164,"[{""rating"":99.765625,""responseTime"":1.2814000000059877},{""rating"":100,""responseTime"":1.816400000005956}]",space,2.4715,,843.1199,Definitely yes,100,843.1208,,,[],,0,3,3,3,1,audio/Narrative7Situation3.wav,audio/Narrative8Situation3.wav,audio/Narrative5Situation3.wav,audio/Narrative6Situation3.wav,8,4,3,5,,,,,,,,,,,,,,,,,,,,,,,,,,,,,,,,,,,,,
,,,,,66943e29675c6778f0a3ac7f,2025-07-07_19h00.34.771,group3.4_multiperson,2023.2.2,Win32,370.3703704,686c2ebf0248f13bef9af11f,686c7b961ceba6cd3c1648a0,,,,,,,,,,,,,,,,,,,,,,,,,,,,,843.1209,2,audio/Narrative6Situation4.wav,845.122,,845.122,857.7088,"[[999,0],[999,86],[999,172],[999,260],[999,345],[999,430],[999,516],[999,602],[999,688],[999,774],[999,861],[999,948],[999,1035],[999,1120],[999,1206],[999,1292],[999,1378],[999,1465],[999,1550],[999,1636],[999,1723],[999,1809],[999,1895],[999,1980],[999,2067],[999,2153],[999,2239],[999,2325],[999,2414],[999,2500],[999,2586],[999,2672],[999,2758],[999,2845],[999,2931],[999,3017],[999,3103],[999,3189],[999,3275],[999,3361],[999,3448],[999,3534],[999,3620],[999,3706],[999,3792],[999,3878],[999,3964],[999,4051],[999,4137],[999,4223],[999,4309],[999,4395],[999,4480],[999,4567],[999,4653],[999,4739],[999,4826],[999,4912],[999,4997],[999,5084],[999,5170],[999,5257],[999,5342],[999,5429],[999,5514],[999,5601],[999,5687],[999,5773],[999,5859],[999,5944],[999,6030],[999,6117],[999,6203],[999,6289],[999,6376],[999,6462],[999,6548],[999,6634],[999,6720],[999,6806],[999,6892],[999,6978],[999,7065],[999,7151],[999,7237],[999,7324],[999,7409],[999,7495],[999,7581],[999,7667],[999,7753],[999,7840],[999,7926],[999,8012],[999,8098],[999,8184],[999,8270],[999,8355],[999,8442],[999,8528],[999,8615],[999,8700],[999,8787],[999,8873],[999,8959],[999,9045],[999,9132],[999,9217],[999,9304],[999,9389],[999,9476],[999,9562],[999,9648],[999,9736],[999,9822],[999,9908],[999,9995],[999,10081],[999,10167],[999,10254],[999,10340],[999,10426],[999,10512],[999,10598],[999,10684],[999,10769],[999,10856],[999,10942],[999,11028],[999,11115],[999,11201],[999,11287],[999,11373],[999,11459],[999,11545],[999,11633],[999,11717],[999,11804],[999,11890],[999,11976],[999,12063],[999,12148],[999,12234],[999,12320],[50.3,12406],[50.3,12492],[50.3,12578]]",857.7088,865.7571,100,6.64,"[{""rating"":99.84375,""responseTime"":6.077399999991144},{""rating"":100,""responseTime"":6.639999999999986}]",space,7.5395,,865.7571,Definitely yes,100,865.7577,,,[],,0,4,4,4,1,audio/Narrative7Situation4.wav,audio/Narrative8Situation4.wav,audio/Narrative5Situation4.wav,audio/Narrative6Situation4.wav,3,3,1,2,,,,,,,,,,,,,,,,,,,,,,,,,,,,,,,,,,,,,
,,,,,66943e29675c6778f0a3ac7f,2025-07-07_19h00.34.771,group3.4_multiperson,2023.2.2,Win32,370.3703704,686c2ebf0248f13bef9af11f,686c7b961ceba6cd3c1648a0,,,,,,,,,,,,,,,,,,,,,,,,,,,,,865.7579,2,audio/Narrative6Situation5.wav,867.7592,,867.7592,875.6875,"[[999,0],[999,86],[999,172],[999,259],[999,345],[999,431],[999,517],[999,602],[999,689],[999,775],[999,862],[999,947],[999,1034],[999,1120],[999,1205],[999,1292],[999,1377],[999,1463],[999,1550],[999,1636],[999,1722],[999,1808],[999,1894],[999,1980],[999,2066],[999,2153],[999,2239],[999,2325],[999,2411],[52,2497],[56.6,2584],[58.4,2670],[69.1,2756],[86.5,2842],[100,2927],[100,3014],[100,3100],[100,3186],[100,3272],[100,3358],[100,3444],[100,3530],[100,3617],[100,3703],[100,3789]]",875.6875,879.8515,100,3.7211,"[{""rating"":100,""responseTime"":3.1295999999939568},{""rating"":100,""responseTime"":3.721099999993953}]",space,3.6585,,879.8515,Partially,50,879.8521,,,[],,0,5,5,5,1,audio/Narrative7Situation5.wav,audio/Narrative8Situation5.wav,audio/Narrative5Situation5.wav,audio/Narrative6Situation5.wav,5,2,5,2,,,,,,,,,,,,,,,,,,,,,,,,,,,,,,,,,,,,,
,,,,,66943e29675c6778f0a3ac7f,2025-07-07_19h00.34.771,group3.4_multiperson,2023.2.2,Win32,370.3703704,686c2ebf0248f13bef9af11f,686c7b961ceba6cd3c1648a0,,,,,,,,,,,,,,,,,,,,,,,,,,,,,879.8522,2,audio/Narrative6Situation6.wav,881.8543,,881.8543,892.9049,"[[999,0],[999,86],[999,172],[999,258],[999,344],[999,432],[999,516],[999,602],[999,688],[999,775],[999,861],[999,947],[999,1034],[999,1120],[999,1205],[999,1291],[999,1377],[999,1463],[999,1550],[999,1636],[999,1722],[999,1809],[999,1895],[999,1981],[999,2066],[999,2153],[999,2238],[999,2325],[999,2413],[999,2500],[999,2586],[999,2672],[999,2759],[999,2844],[999,2930],[57.5,3017],[54.1,3102],[53.9,3189],[57.7,3275],[68.3,3362],[81.6,3448],[92,3534],[100,3620],[100,3705],[100,3791],[100,3877],[100,3963],[100,4050],[100,4136],[100,4223],[100,4308],[100,4394],[100,4480],[100,4566],[100,4653],[100,4739],[100,4825],[100,4911],[100,4997],[100,5083],[100,5169],[100,5255],[100,5341],[100,5427],[100,5514],[100,5600],[100,5686],[100,5774],[100,5858],[100,5944],[100,6030],[100,6116],[100,6202],[100,6289],[100,6375],[100,6461],[100,6547],[100,6633],[100,6719],[100,6805],[100,6892],[100,6978],[100,7064],[100,7150],[100,7236],[100,7322],[100,7408],[100,7497],[100,7581]]",892.905,896.5133,100,2.3648,"[{""rating"":100,""responseTime"":1.8874999999999318},{""rating"":100,""responseTime"":2.3647999999969898}]",space,3.1019,,896.5133,Definitely yes,100,896.5141,,,[],,0,6,6,6,1,audio/Narrative7Situation6.wav,audio/Narrative8Situation6.wav,audio/Narrative5Situation6.wav,audio/Narrative6Situation6.wav,3,2,3,2,,,,,,,,,,,,,,,,,,,,,,,,,,,,,,,,,,,,,
,,,,,66943e29675c6778f0a3ac7f,2025-07-07_19h00.34.771,group3.4_multiperson,2023.2.2,Win32,370.3703704,686c2ebf0248f13bef9af11f,686c7b961ceba6cd3c1648a0,,,,,,,,,,,,,,,,,,,,,,,,,,,,,896.5142,2,audio/Narrative6Situation7.wav,901.5163,,901.5164,926.3433,"[[999,0],[999,86],[999,172],[999,258],[999,344],[999,430],[999,516],[999,602],[999,688],[999,775],[999,860],[999,947],[999,1033],[999,1119],[999,1205],[999,1291],[999,1377],[999,1463],[999,1550],[999,1636],[999,1722],[999,1808],[999,1894],[999,1980],[999,2066],[999,2152],[999,2238],[999,2325],[999,2411],[999,2497],[999,2583],[999,2669],[999,2755],[999,2841],[999,2928],[999,3014],[999,3100],[999,3186],[999,3272],[999,3359],[999,3445],[999,3531],[999,3617],[999,3703],[999,3789],[999,3875],[999,3961],[999,4048],[999,4134],[999,4219],[999,4305],[999,4392],[999,4478],[999,4564],[999,4650],[999,4736],[999,4822],[999,4909],[999,4994],[999,5080],[999,5166],[999,5253],[999,5339],[999,5425],[999,5511],[999,5597],[999,5683],[999,5769],[999,5855],[999,5941],[999,6027],[999,6114],[999,6200],[999,6286],[999,6372],[999,6458],[999,6544],[999,6630],[999,6716],[999,6802],[999,6889],[999,6975],[999,7061],[999,7147],[999,7233],[999,7319],[999,7405],[999,7492],[49.5,7578],[49.4,7664],[49.3,7750],[50.1,7837],[54.1,7923],[60.9,8009],[68.8,8095],[80,8181],[97,8267],[100,8353],[100,8439],[100,8525],[100,8611],[100,8697],[100,8784],[100,8869],[100,8956],[100,9042],[100,9128],[100,9387],[100,9473],[100,9558],[100,9730]]",926.3433,929.8815,100,2.2621,"[{""rating"":99.765625,""responseTime"":1.824800000011919},{""rating"":100,""responseTime"":2.2621000000090135}]",space,3.031,,929.8815,Partially,50,929.8823,,,[],,0,7,7,7,1,audio/Narrative7Situation7.wav,audio/Narrative8Situation7.wav,audio/Narrative5Situation7.wav,audio/Narrative6Situation7.wav,5,3,4,5,,,,,,,,,,,,,,,,,,,,,,,,,,,,,,,,,,,,,
,,,,,66943e29675c6778f0a3ac7f,2025-07-07_19h00.34.771,group3.4_multiperson,2023.2.2,Win32,370.3703704,686c2ebf0248f13bef9af11f,686c7b961ceba6cd3c1648a0,,,,,,,,,,,,,,,,,,,,,,,,,,,,,929.8824,2,audio/Narrative6Situation8.wav,934.8846,,934.8846,941.7099,"[[999,0],[999,86],[999,172],[999,258],[999,344],[999,430],[999,516],[999,602],[999,689],[999,775],[999,861],[999,947],[999,1033],[999,1119],[999,1205],[999,1291],[999,1377],[999,1463],[999,1550],[999,1636],[999,1722],[999,1808],[999,1894],[999,1980],[999,2066],[999,2152],[999,2238],[999,2325],[999,2411],[999,2497],[999,2583],[999,2669],[999,2755],[999,2841],[999,2927],[999,3014],[999,3100],[999,3186],[999,3272],[999,3358],[999,3444],[999,3530],[999,3616],[999,3703],[999,3789],[999,3875],[999,3961],[999,4047],[999,4133],[999,4219],[999,4305],[999,4391],[999,4478],[999,4564],[999,4650],[2.3,4736],[1.7,4822],[1.6,4908],[0.5,4994],[0.4,5080],[0.3,5166],[0.2,5253]]",941.7099,944.0294,0,0.8493,"[{""rating"":0,""responseTime"":0.8492999999970152}]",space,1.8142,,944.0295,Partially,50,944.0299,,,[],,0,8,8,8,1,audio/Narrative7Situation8.wav,audio/Narrative8Situation8.wav,audio/Narrative5Situation8.wav,audio/Narrative6Situation8.wav,2,3,3,5,,,,,,,,,,,,,,,,,,,,,,,,,,,,,,,,,,,,,
,,,,,66943e29675c6778f0a3ac7f,2025-07-07_19h00.34.771,group3.4_multiperson,2023.2.2,Win32,370.3703704,686c2ebf0248f13bef9af11f,686c7b961ceba6cd3c1648a0,,,,,,,,,,,,,,,,,,,,,,,,,,,,,944.03,2,audio/Narrative6Situation9.wav,948.0324,,948.0324,957.9551,"[[999,0],[999,86],[999,172],[999,258],[999,344],[999,430],[999,516],[999,602],[999,689],[999,775],[999,861],[999,947],[999,1033],[999,1119],[999,1205],[999,1291],[999,1377],[999,1463],[999,1550],[999,1636],[999,1722],[999,1808],[999,1894],[999,1980],[999,2066],[999,2152],[999,2238],[999,2325],[999,2411],[999,2497],[999,2583],[999,2669],[999,2755],[999,2841],[999,2927],[999,3014],[999,3100],[999,3186],[999,3272],[999,3358],[999,3444],[999,3530],[999,3616],[999,3702],[999,3789],[999,3875],[999,3961],[999,4047],[999,4133],[999,4219],[999,4305],[999,4391],[999,4477],[999,4564],[999,4650],[999,4736],[999,4822],[999,4908],[999,4995],[999,5080],[999,5166],[999,5252],[999,5339],[999,5425]]",957.9551,961.0525,0,1.95,"[{""rating"":0.4687500000000011,""responseTime"":1.3054000000059887},{""rating"":0,""responseTime"":1.9500000000000455}]",space,2.592,,961.0525,Definitely yes,100,961.0533,,,[],,0,9,9,9,1,audio/Narrative7Situation9.wav,audio/Narrative8Situation9.wav,audio/Narrative5Situation9.wav,audio/Narrative6Situation9.wav,2,3,3,4,,,,,,,,,,,,,,,,,,,,,,,,,,,,,,,,,,,,,
,,,,,66943e29675c6778f0a3ac7f,2025-07-07_19h00.34.771,group3.4_multiperson,2023.2.2,Win32,370.3703704,686c2ebf0248f13bef9af11f,686c7b961ceba6cd3c1648a0,,,,,,,,,,,,,,,,,,,,,,,,,,,,,961.0534,2,audio/Narrative5Situation1.wav,966.0555,,966.0555,979.3118,"[[999,0],[999,86],[999,172],[999,258],[999,344],[999,430],[999,516],[999,602],[999,689],[999,775],[999,861],[999,947],[999,1033],[999,1119],[999,1205],[999,1291],[999,1377],[999,1464],[999,1550],[999,1636],[999,1722],[999,1808],[999,1894],[999,1980],[999,2066],[999,2152],[999,2238],[999,2325],[999,2411],[999,2497],[999,2583],[999,2669],[999,2755],[999,2841],[999,2927],[999,3014],[999,3100],[999,3186],[999,3272],[999,3358],[999,3444],[999,3530],[999,3616],[999,3702],[999,3788],[999,3875],[999,3961],[999,4047],[999,4133],[999,4219],[999,4305],[999,4391],[999,4478],[999,4564],[999,4650],[999,4736],[999,4822],[999,4908],[999,4994],[999,5080],[999,5166],[999,5253],[999,5339],[999,5425],[999,5511],[999,5597],[999,5683],[999,5769],[999,5855],[999,5941],[999,6028],[999,6114],[999,6200],[999,6286],[999,6372],[999,6458],[999,6544],[999,6630],[999,6716],[999,6803],[999,6889],[0.9,6975],[0.8,7061],[0.7,7147],[0.5,7233],[1.3,9300],[6.2,9386],[12.4,9472],[15.8,9558],[15.9,9644],[16.3,9730],[16.8,9817],[17.4,9903],[18,9989],[18,10075],[18,10161],[18,10247],[18.7,10333],[20.2,10419],[22.2,10505],[23,10592],[23,10678],[23,10764],[23.3,10850],[23.9,10936],[25.2,11022],[27.6,11108],[34.2,11195],[39.1,11281],[41.6,11367],[43,11453],[44.1,11539],[45.5,11625],[46.5,11711],[47.6,11797],[48,11883],[49.1,11970],[49.2,12056],[49.2,12142],[49.3,12228],[49.9,12314],[49.9,12400],[49.9,12486],[49.9,12572],[49.9,12658],[49.9,12745],[49.9,12831],[49.9,12917],[49.9,13003],[49.9,13089],[49.9,13175]]",979.3118,983.9202,79.296875,3.601,"[{""rating"":79.296875,""responseTime"":3.600999999999999}]",space,4.1004,,983.9202,Definitely yes,100,983.9207,,,[],,0,10,10,10,1,audio/Narrative8Situation1.wav,audio/Narrative7Situation1.wav,audio/Narrative6Situation1.wav,audio/Narrative5Situation1.wav,5,2,2,5,,,,,,,,,,,,,,,,,,,,,,,,,,,,,,,,,,,,,
,,,,,66943e29675c6778f0a3ac7f,2025-07-07_19h00.34.771,group3.4_multiperson,2023.2.2,Win32,370.3703704,686c2ebf0248f13bef9af11f,686c7b961ceba6cd3c1648a0,,,,,,,,,,,,,,,,,,,,,,,,,,,,,983.9208,2,audio/Narrative5Situation2.wav,986.9233,,986.9233,1016.3586,"[[999,0],[999,94],[999,180],[999,266],[999,352],[999,439],[999,524],[999,610],[999,697],[999,783],[999,869],[999,955],[999,1041],[999,1127],[999,1213],[999,1300],[999,1386],[999,1472],[999,1558],[999,1644],[999,1730],[999,1816],[999,1902],[999,1988],[999,2074],[999,2161],[999,2247],[999,2333],[999,2420],[999,2506],[999,2591],[999,2678],[999,2764],[999,2849],[999,2936],[999,3022],[999,3108],[999,3194],[999,3280],[999,3366],[999,3452],[999,3538],[999,3625],[999,3711],[999,3797],[999,3884],[999,3969],[999,4055],[999,4142],[999,4227],[999,4313],[999,4400],[999,4486],[999,4572],[999,4658],[999,4744],[999,4830],[999,4916],[999,5002],[999,5088],[999,5174],[999,5261],[999,5347],[999,5433],[999,5519],[999,5605],[999,5691],[999,5777],[999,5863],[999,5950],[999,6036],[999,6122],[999,6208],[999,6294],[999,6380],[999,6467],[999,6552],[999,6638],[999,6725],[999,6811],[999,6897],[999,6983],[999,7069],[999,7156],[999,7241],[999,7327],[999,7413],[999,7500],[999,7586],[999,7672],[999,7758],[999,7844],[999,7930],[999,8016],[999,8102],[999,8189],[999,8275],[999,8361],[999,8447],[999,8533],[999,8619],[999,8705],[999,8791],[999,8877],[999,8964],[999,9050],[999,9136],[999,9223],[999,9309],[999,9395],[999,9480],[999,9566],[999,9655],[999,9739],[999,9825],[999,9911],[999,9998],[46.3,10084],[47.3,10169],[48.4,10256],[49.1,10342],[49.6,10427],[49.6,10514],[49.6,10600],[49.6,10686],[49.6,10772],[49.6,10858],[49.6,10944],[49.6,11030],[49.6,11116],[49.6,11203],[49.7,11289],[49.7,11375],[49.7,11461],[49.7,11547],[49.7,11634],[49.7,11719],[49.7,11806],[49.7,11891],[49.7,11978],[49.7,12064],[49.9,12150],[50.6,12236],[53.4,12323],[58.3,12409],[64.7,12495],[70.2,12581],[73.4,12667],[75.4,12753],[77.1,12839],[77.7,12925],[77.8,13011],[78.4,13097],[78.5,13183],[79.1,13270],[80.5,13358],[83.5,13442],[90.2,13528],[94.1,13615],[94.8,13700],[95.9,13787],[97.3,13873],[97.8,13959],[98.1,14044],[98.8,14130],[99.2,14217],[99.5,14303],[99.7,14389],[100,14475],[100,14561],[100,14647],[100,14733],[100,14819],[100,14905],[100,14992],[100,15078],[100,15164],[100,15250],[100,15336],[100,15422],[100,15508],[100,15594],[100,15680],[100,15767],[100,15853],[100,15940],[100,16025],[100,16111],[100,16197],[100,16283],[100,16370],[100,16456],[100,16542],[100,16628],[100,16714],[100,16801],[100,16886],[100,16972],[100,17058],[100,17144],[100,17231],[100,17317],[100,17403],[100,17489],[100,17575],[100,17661],[100,17747],[100,17833],[100,17919],[100,18006],[100,18092],[100,18178],[100,18265],[100,18350],[100,18436],[100,18522],[100,18608],[100,18695],[100,18781],[100,18867],[100,18953],[100,19039],[100,19125],[100,19212],[100,19297],[100,19383],[100,19470],[100,19556],[100,19642],[100,19728],[100,19814],[100,19900],[100,19986],[100,20072],[100,20159],[100,20245],[100,20331],[100,20417],[100,20503],[100,20589],[100,20675],[100,20761],[100,20847],[100,20934],[100,21020],[100,21106],[100,21192],[100,21278],[100,21364],[100,21450],[100,21536],[100,21622],[100,21709],[100,21797],[100,21881],[100,21967],[100,22053],[100,22139],[100,22225],[100,22311],[100,22397],[100,22484],[100,22570],[100,22656],[100,22742],[100,22828],[100,22914],[100,23000],[100,23086],[100,23173],[100,23259],[100,23345],[100,23433],[100,23517],[100,23603],[100,23689],[100,23775],[100,23861],[100,23948],[100,24034],[100,24120],[100,24206],[100,24292],[100,24378],[100,24465],[100,24550],[100,24636],[100,24723],[100,24809],[100,24895],[100,24981],[100,25067],[100,25153],[100,25239],[100,25325],[100,25412],[100,25498],[100,25584],[100,25670],[100,25756],[100,25843],[100,25929],[100,26014],[100,26101],[100,26187],[100,26273],[100,26359],[100,26446],[100,26531],[100,26617],[100,26703],[100,26789],[100,26876],[100,26962],[100,27048],[100,27134],[100,27220],[100,27306],[100,27392],[100,27478],[100,27564],[100,27651],[100,27737],[100,27823],[100,27909],[100,27995],[100,28081],[100,28167],[100,28254],[100,28339],[100,28426],[100,28512],[100,28598],[100,28684],[100,28770],[100,28857],[100,28942],[100,29029],[100,29115],[100,29201],[100,29287],[100,29374]]",1016.3586,1018.5052,100,1.5447,"[{""rating"":99.84375,""responseTime"":0.5935999999940123},{""rating"":100,""responseTime"":1.5447000000028765}]",space,1.6407,,1018.5052,Not at all,0,1018.506,,,[],,0,11,11,11,1,audio/Narrative8Situation2.wav,audio/Narrative7Situation2.wav,audio/Narrative6Situation2.wav,audio/Narrative5Situation2.wav,3,3,3,3,,,,,,,,,,,,,,,,,,,,,,,,,,,,,,,,,,,,,
,,,,,66943e29675c6778f0a3ac7f,2025-07-07_19h00.34.771,group3.4_multiperson,2023.2.2,Win32,370.3703704,686c2ebf0248f13bef9af11f,686c7b961ceba6cd3c1648a0,,,,,,,,,,,,,,,,,,,,,,,,,,,,,1018.5061,2,audio/Narrative5Situation3.wav,1021.5081,,1021.5081,1035.3921,"[[999,0],[999,86],[999,172],[999,258],[999,344],[999,430],[999,516],[999,603],[999,688],[999,775],[999,862],[999,947],[999,1033],[999,1119],[999,1205],[999,1293],[999,1377],[999,1463],[999,1549],[999,1636],[999,1722],[999,1809],[999,1894],[999,1980],[999,2067],[999,2152],[999,2238],[999,2325],[999,2411],[999,2497],[999,2583],[999,2669],[999,2755],[999,2841],[999,2927],[999,3014],[999,3100],[999,3186],[999,3272],[999,3358],[999,3444],[999,3530],[999,3616],[999,3702],[999,3789],[999,3875],[999,3961],[999,4047],[999,4133],[999,4219],[999,4305],[999,4391],[999,4478],[999,4564],[999,4650],[999,4736],[999,4822],[999,4908],[999,4994],[999,5080],[49.2,5166],[49.7,5252],[50.2,5339],[50.5,5425],[51.2,5511],[63.4,5597],[92.7,5683],[100,5769],[100,5855],[100,5941],[100,6028],[100,6114],[100,6200],[100,6286],[100,6372],[100,6458],[100,6544],[100,6631],[100,6717],[100,6803],[100,6889],[100,6975],[100,7061],[100,7147],[100,7233],[100,7319],[100,7405],[100,7491],[100,7578],[100,7664],[100,7750],[100,7836],[100,7922],[100,8008],[100,8094],[100,8180],[100,8267],[100,8353],[100,8439],[100,8525],[100,8611],[100,8697],[100,8783],[100,8869],[100,8956],[100,9041],[100,9128],[100,9214],[100,9300],[100,9386],[100,9472],[100,9558],[100,9644],[100,9730],[100,9817],[100,9903],[100,9989],[100,10075],[100,10161],[100,10247],[100,10333],[100,10420],[100,10506],[100,10592],[100,10678],[100,10764],[100,10850],[100,10936],[100,11022],[100,11108],[100,11194],[100,11280],[100,11367],[100,11453],[100,11539],[100,11625],[100,11711],[100,11797],[100,11883],[100,11970],[100,12056],[100,12142],[100,12228],[100,12314],[100,12400],[100,12486],[100,12572],[100,12658],[100,12745],[100,12831],[100,12917],[100,13003],[100,13089],[100,13175],[100,13261],[100,13347],[100,13433],[100,13519],[100,13606],[100,13693],[100,13778],[100,13864]]",1035.3922,1037.3838,100,1.7825,"[{""rating"":98.984375,""responseTime"":0.7622000000028493},{""rating"":100,""responseTime"":1.1039000000059787},{""rating"":100,""responseTime"":1.7825000000000273}]",space,1.4842,,1037.3838,Not at all,0,1037.3843,,,[],,0,12,12,12,1,audio/Narrative8Situation3.wav,audio/Narrative7Situation3.wav,audio/Narrative6Situation3.wav,audio/Narrative5Situation3.wav,4,8,5,3,,,,,,,,,,,,,,,,,,,,,,,,,,,,,,,,,,,,,
,,,,,66943e29675c6778f0a3ac7f,2025-07-07_19h00.34.771,group3.4_multiperson,2023.2.2,Win32,370.3703704,686c2ebf0248f13bef9af11f,686c7b961ceba6cd3c1648a0,,,,,,,,,,,,,,,,,,,,,,,,,,,,,1037.3844,2,audio/Narrative5Situation4.wav,1038.3867,,1038.3867,1058.7487,"[[999,0],[999,86],[999,172],[999,258],[999,344],[999,430],[999,516],[999,603],[999,689],[999,775],[999,861],[999,947],[999,1033],[999,1119],[999,1205],[999,1291],[999,1377],[999,1463],[999,1550],[999,1636],[999,1722],[999,1808],[999,1894],[999,1980],[999,2066],[999,2152],[999,2239],[999,2325],[999,2411],[999,2497],[999,2583],[999,2669],[999,2755],[999,2841],[50.5,2927],[51.3,3014],[51.3,3099],[51.2,3186],[50.8,3272],[50.7,3358],[50.7,3444],[50.7,3530],[50.7,3616],[50.7,3702],[50.7,3788],[50.7,3875],[50.7,3961],[50.7,4047],[50.7,4133],[50.7,4219],[50.7,4305],[50.7,4391],[50.5,4477],[50.5,4564],[50.5,4650],[50.5,4736],[50.5,4822],[50.5,4908],[50.5,4994],[50.5,5080],[50.5,5166],[50.5,5252],[50.5,5338],[50.5,5425],[50.5,5511],[50.5,5597],[50.5,5683],[50.5,5769],[50.5,5855],[50.5,5942],[50.5,6027],[50.5,6114],[50.5,6200],[50.5,6286],[50.5,6372],[50.5,6458],[50.5,6544],[50.5,6630],[50.5,6716],[50.5,6802],[50.5,6889],[50.5,6975],[50.5,7061],[50.5,7147],[50.5,7233],[50.5,7319],[50.5,7405],[50.5,7491],[50.5,7578],[50.5,7664],[50.5,7750],[42.3,7837],[21.7,7923],[14.3,8009],[15.2,8097],[29.1,8181],[40.1,8267],[44.1,8353],[46.1,8440],[46.6,8526],[47.2,8612],[47.3,8698],[47.7,8784],[48,8870],[48.4,8956],[48.7,9042],[48.8,9128],[48.9,9214],[49.1,9301],[49.1,9387],[49.3,9473],[49.3,9559],[49.3,9645],[49.4,9731],[49.5,9817],[49.5,9903],[49.5,9990],[49.5,10076],[49.8,10162],[49.8,10248],[49.8,10334],[49.8,10420],[49.8,10507],[49.8,10592],[49.8,10678],[49.8,10764],[49.8,10851],[49.8,10937],[49.8,11023],[49.8,11109],[49.8,11196],[49.9,11281],[56.7,11367],[74.3,11454],[93,11540],[96.5,11626],[96.5,11712],[97.2,11798],[99.1,11884],[100,11970],[100,12056],[100,12142],[100,12229],[100,12315],[100,12401],[100,12487],[100,12573],[100,12659],[100,12745],[100,12831],[100,12917],[100,13004],[100,13091],[100,13176],[100,13262],[100,13348],[100,13434],[100,13520],[100,13606],[100,13692],[100,13778],[100,13865],[100,13951],[100,14038],[100,14123],[100,14209],[100,14295],[100,14381],[100,14468],[100,14554],[100,14640],[100,14726],[100,14812],[100,14898],[100,14984],[100,15071],[100,15156],[100,15242],[100,15329],[100,15415],[99.7,15501],[99.2,15587],[99.1,15673],[98.8,15767],[98.8,15853],[98.8,15939],[98.8,16025],[98.8,16111],[98.8,16197],[98.8,16284],[98.7,16369],[98.7,16456],[98.6,16542],[98.4,16628],[98.4,16714],[98.4,16800],[98.4,16886],[98.1,16972],[97.9,17061],[97.7,17145],[97.7,17231],[97.7,17317],[97.6,17403],[97.6,17489],[97.6,17575],[97.6,17661],[97.6,17747],[97.6,17834],[97.6,17920],[97.5,18006],[97.3,18092],[97.3,18178],[97.3,18265],[97.2,18350],[97.1,18436],[97.1,18522],[97.1,18609],[97.1,18695],[97.1,18781],[97.1,18867],[97.1,18953],[97.1,19039],[97.4,19125],[100,19211],[100,19298],[100,19384],[100,19470],[100,19556],[100,19643],[100,19728],[100,19814],[100,19900],[100,19986],[100,20073],[100,20159],[100,20246],[100,20331]]",1058.7488,1061.8356,100,2.5103,"[{""rating"":100,""responseTime"":2.5102999999969597}]",space,2.5822,,1061.8357,Not at all,0,1061.8361,,,[],,0,13,13,13,1,audio/Narrative8Situation4.wav,audio/Narrative7Situation4.wav,audio/Narrative6Situation4.wav,audio/Narrative5Situation4.wav,3,3,2,1,,,,,,,,,,,,,,,,,,,,,,,,,,,,,,,,,,,,,
,,,,,66943e29675c6778f0a3ac7f,2025-07-07_19h00.34.771,group3.4_multiperson,2023.2.2,Win32,370.3703704,686c2ebf0248f13bef9af11f,686c7b961ceba6cd3c1648a0,,,,,,,,,,,,,,,,,,,,,,,,,,,,,1061.8363,2,audio/Narrative5Situation5.wav,1066.8379,,1066.8379,1082.2332,"[[999,0],[999,86],[999,172],[999,258],[999,344],[999,430],[999,517],[999,602],[999,688],[999,775],[999,861],[999,947],[999,1033],[999,1119],[999,1205],[999,1291],[999,1378],[999,1463],[999,1550],[999,1636],[999,1722],[999,1808],[999,1894],[999,1980],[999,2066],[999,2152],[999,2239],[999,2325],[999,2411],[999,2497],[999,2583],[999,2669],[999,2756],[999,2841],[999,2927],[999,3014],[999,3100],[999,3186],[999,3272],[999,3358],[999,3444],[999,3530],[999,3616],[999,3702],[999,3789],[999,3875],[999,3961],[999,4047],[999,4133],[999,4219],[999,4306],[999,4392],[999,4478],[999,4564],[999,4650],[999,4736],[999,4822],[999,4908],[999,4994],[999,5080],[999,5166],[999,5252],[999,5339],[999,5425],[999,5511],[999,5597],[999,5683],[999,5769],[999,5855],[999,5942],[999,6028],[999,6114],[999,6200],[999,6286],[999,6372],[999,6458],[999,6544],[999,6630],[999,6717],[999,6803],[999,6890],[999,6976],[999,7062],[999,7148],[999,7233],[999,7320],[999,7406],[999,7492],[999,7579],[999,7664],[999,7751],[0.2,10850],[0.2,10936],[0.2,11022],[0.2,11108],[0.2,11194],[0.2,11281],[0.2,11367],[0.1,11453],[0.1,11539],[0.1,11625],[0.1,11711],[0.1,11797],[0.1,11883],[0.1,11970],[0.1,12056],[0.1,12142],[0.1,12228],[15.9,14725],[38.8,14812],[41.4,14897],[46.2,14984],[49.1,15156],[50.6,15242],[50.6,15328]]",1082.2332,1090.7898,10.9375,7.6262,"[{""rating"":10.9375,""responseTime"":7.626200000003109}]",space,8.0512,,1090.7898,Partially,50,1095.9004,49.765625,3.6086,"[{""rating"":49.765625,""responseTime"":3.6085999999941123}]",space,0,14,14,14,1,audio/Narrative8Situation5.wav,audio/Narrative7Situation5.wav,audio/Narrative6Situation5.wav,audio/Narrative5Situation5.wav,2,5,2,5,,,4.604,,,,,,,,,,,,,,,,,,,,,,,,,,,,,,,,,,
,,,,,66943e29675c6778f0a3ac7f,2025-07-07_19h00.34.771,group3.4_multiperson,2023.2.2,Win32,370.3703704,686c2ebf0248f13bef9af11f,686c7b961ceba6cd3c1648a0,,,,,,,,,,,,,,,,,,,,,,,,,,,,,1095.9006,2,audio/Narrative5Situation6.wav,1098.9006,,1098.9006,1104.548,"[[999,0],[999,86],[999,172],[999,258],[999,344],[999,430],[999,516],[999,602],[999,689],[999,775],[999,861],[999,947],[999,1033],[999,1119],[999,1205],[999,1291],[999,1377],[999,1464],[999,1550],[999,1636],[999,1722],[999,1808],[999,1894],[999,1980],[999,2066],[999,2152],[999,2238],[999,2325],[999,2411],[999,2497],[999,2583],[999,2669],[999,2755],[999,2841],[999,2927],[999,3014],[999,3100],[999,3186],[999,3272],[999,3358],[999,3444],[999,3530],[999,3616],[999,3702],[999,3789],[999,3875],[999,3961],[999,4047],[999,4133],[999,4219],[999,4305],[999,4391],[999,4478],[999,4564],[999,4650],[999,4736],[999,4822],[999,4908],[999,4994],[999,5080],[999,5166],[999,5252],[999,5339],[999,5425],[999,5511],[999,5597]]",1104.5481,1114.2068,100,9.4433,"[{""rating"":50,""responseTime"":2.3432000000029802},{""rating"":100,""responseTime"":9.443299999996952}]",space,9.1529,,1114.2069,Definitely yes,100,1114.2078,,,[],,0,15,15,15,1,audio/Narrative8Situation6.wav,audio/Narrative7Situation6.wav,audio/Narrative6Situation6.wav,audio/Narrative5Situation6.wav,2,3,2,3,,,,,,,,,,,,,,,,,,,,,,,,,,,,,,,,,,,,,
,,,,,66943e29675c6778f0a3ac7f,2025-07-07_19h00.34.771,group3.4_multiperson,2023.2.2,Win32,370.3703704,686c2ebf0248f13bef9af11f,686c7b961ceba6cd3c1648a0,,,,,,,,,,,,,,,,,,,,,,,,,,,,,1114.2078,2,audio/Narrative5Situation7.wav,1118.2098,,1118.2098,1139.2191,"[[999,0],[999,86],[999,172],[999,258],[999,344],[999,431],[999,517],[999,603],[999,689],[999,775],[999,862],[999,948],[999,1034],[999,1120],[999,1206],[999,1292],[999,1380],[999,1464],[999,1550],[999,1636],[999,1723],[999,1809],[999,1895],[999,1981],[999,2067],[999,2153],[999,2240],[999,2325],[999,2412],[999,2498],[999,2584],[999,2670],[999,2756],[999,2842],[999,2928],[999,3014],[999,3101],[999,3187],[999,3273],[50.3,3359],[50.2,3445],[50.2,3531],[50.4,3617],[50.4,3703],[50.4,3789],[50.4,3875],[50.4,3962],[50.3,4048],[50.3,4134],[50.1,4220],[50.1,4306],[50,4392],[49.9,4478],[49.9,4564],[49.9,4650],[49.9,4737],[49.8,4823],[49.8,4909],[49.6,4995],[49.5,5081],[49.5,5167],[49.5,5253],[49.5,5339],[49.5,5425],[49.5,5512],[49.5,5598],[49.5,5684],[49.5,5770],[49.5,5856],[49.5,5944],[49.5,6030],[49.5,6117],[49.5,6202],[49.6,6289],[49.7,6375],[49.8,6461],[49.9,6547],[49.8,6633],[49.8,6719],[49.8,6805],[49.8,6892],[49.8,6978],[49.8,7064],[49.7,7151],[49.8,7236],[49.8,7322],[49.8,7409],[50,7494],[50,7580],[50,7667],[50,7753],[50,7839],[50,7925],[50,8011],[50,8097],[50.2,8183],[50.2,8269],[50.2,8355],[50.2,8442],[50.2,8528],[50.2,8614],[50.2,8700],[50.2,8786],[50.2,8872],[50.2,8958],[50.2,9044],[50.2,9130],[50.2,9217],[50.9,9303],[50.9,9389],[51.4,9476],[51.7,9562],[51.7,9647],[52.1,9734],[52.2,9819],[52.2,9906],[52.5,9992],[52.5,10078],[52.8,10164],[53,10250],[53,10337],[53,10422],[53,10509],[53,10595],[53,10681],[53,10767],[53,10853],[53,10939],[53,11026],[53.3,11112],[53.3,11197],[53.3,11283],[53.3,11369],[53.3,11456],[53.3,11542],[53.3,11628],[53.3,11714],[53.5,11800],[53.5,11886],[53.7,11972],[53.9,12059],[53.9,12144],[54.3,12231],[54.4,12317],[54.4,12403],[54.5,12489],[54.7,12575],[55,12662],[55,12747],[56.6,12834],[60.9,12920],[63.6,13006],[65.4,13093],[68.8,13179],[70.2,13264],[71.6,13351],[73,13436],[73,13522],[73.4,13609],[73.8,13695],[74.2,13781],[75,13867],[74.9,13954],[74.9,14039],[74.9,14125],[74.8,14212],[74.8,14297],[73.9,14384],[73.7,14470],[73.7,14556],[73.5,14642],[73.5,14728],[73.5,14815],[73.5,14901],[73.5,14987],[73.5,15072],[73.5,15159],[73.5,15245],[73.5,15331],[73.5,15417],[73.5,15503],[73.5,15590],[75.2,15676],[76.4,15761],[77.8,15848],[81.4,15934],[86.9,16022],[92.7,16107],[96.9,16193],[97,16278],[97,16364],[97,16450],[97,16536],[97.3,16624],[98,16709],[99.2,16795],[99.8,16882],[99.9,16967],[100,17053],[100,17139],[100,17225],[100,17311],[100,17398],[100,17484],[100,17570],[100,17656],[100,17742],[100,17828],[100,17914],[100,18000],[100,18086],[100,18173],[100,18259],[100,18345],[100,18431],[100,18517],[100,18603],[100,18689],[100,18775],[100,18861],[100,18948],[100,19034],[100,19120],[100,19206],[100,19292],[100,19378],[100,19464],[100,19550],[100,19637],[100,19723],[100,19809],[100,19895],[100,19981],[100,20067],[100,20154],[99.8,20239],[94.8,20326],[76.6,20412],[62.4,20499],[61.6,20584],[61.6,20670],[61.6,20756],[61.6,20843],[61.6,20928]]",1139.2192,1141.0415,50.3125,1.3259,"[{""rating"":49.0625,""responseTime"":0.7885999999939486},{""rating"":50.31250000000001,""responseTime"":1.3259000000059586}]",space,1.3127,,1141.0415,Not at all,0,1141.0424,,,[],,0,16,16,16,1,audio/Narrative8Situation7.wav,audio/Narrative7Situation7.wav,audio/Narrative6Situation7.wav,audio/Narrative5Situation7.wav,3,5,5,4,,,,,,,,,,,,,,,,,,,,,,,,,,,,,,,,,,,,,
,,,,,66943e29675c6778f0a3ac7f,2025-07-07_19h00.34.771,group3.4_multiperson,2023.2.2,Win32,370.3703704,686c2ebf0248f13bef9af11f,686c7b961ceba6cd3c1648a0,,,,,,,,,,,,,,,,,,,,,,,,,,,,,1141.0424,2,audio/Narrative5Situation8.wav,1144.0451,,1144.0451,1152.8422,"[[999,0],[999,85],[999,171],[999,257],[999,344],[999,429],[999,516],[999,602],[999,688],[999,775],[999,860],[999,946],[999,1032],[999,1119],[999,1204],[999,1291],[999,1376],[999,1463],[999,1549],[999,1635],[999,1722],[999,1808],[999,1894],[999,1979],[999,2066],[999,2152],[999,2239],[58.8,2325],[73.9,2669],[79.1,2754],[78.5,2842],[67.7,2927],[54,3014],[47.7,3100],[45.1,3186],[44.9,3271],[47.3,3358],[47.8,3443],[48,3529],[48.5,3616],[49.1,3704],[49.3,3788],[49.5,3875],[49.7,3960],[49.7,4046],[49.7,4132],[49.7,4218],[49.7,4305],[49.7,4391],[49.7,4477],[49.7,4563],[49.6,4650],[49.5,4736],[49.5,4821],[49.5,4908],[49.5,4993],[49.5,5079],[49.5,5166],[49.5,5252],[49.5,5338],[49.5,5424],[49.4,5510],[49.2,5596],[49.1,5682],[49.1,5769],[49,5855],[48.8,5941],[48.8,6027],[48.7,6113],[48.6,6200],[48.4,6286],[48.3,6371],[48.1,6458],[48.1,6544],[48.1,6630],[48,6716],[48,6802],[48,6888],[48,6974],[47.8,7061],[47.7,7146],[47.7,7232],[47.7,7319],[47.7,7405],[47.7,7491],[47.7,7577],[47.7,7663],[47.7,7749],[47.7,7835],[47.7,7922],[47.7,8008],[47.7,8094],[48.2,8181],[49.8,8267],[50.5,8352],[50.5,8438],[50.5,8524],[50.3,8610],[50.2,8696],[50.1,8782]]",1152.8423,1157.7144,0,2.8509,"[{""rating"":0,""responseTime"":2.850900000005822}]",space,4.3622,,1157.7144,Partially,50,1157.7154,,,[],,0,17,17,17,1,audio/Narrative8Situation8.wav,audio/Narrative7Situation8.wav,audio/Narrative6Situation8.wav,audio/Narrative5Situation8.wav,3,2,5,3,,,,,,,,,,,,,,,,,,,,,,,,,,,,,,,,,,,,,
