consent.started,consent.stopped,consentResponse.keys,consentResponse.rt,consentResponse.duration,participantID,date,expName,psychopyVersion,OS,frameRate,STUDY_ID,SESSION_ID,opening1.started,opening1.stopped,keyEndingOpening1.keys,keyEndingOpening1.rt,keyEndingOpening1.duration,volumeAdjust.started,volumeAdjust.stopped,endingAdjust.keys,endingAdjust.rt,endingAdjust.duration,opening2.started,opening2.stopped,keyEndingOpening.keys,keyEndingOpening.rt,keyEndingOpening.duration,mouse.x,mouse.y,mouse.leftButton,mouse.midButton,mouse.rightButton,mouse.time,instructionLoop.thisRepN,instructionLoop.thisTrialN,instructionLoop.thisN,instructionLoop.thisIndex,instructionLoop.ran,readyForAudio.started,readyForAudio.stopped,fixation.started,run,audio_played,fixation.stopped,endPractice.keys,audioPre.started,audioPre.stopped,continuousResponses_audio,intRating.started,intRating.stopped,intQuestionSlider.response,intQuestionSlider.rt,intQuestionSlider.history,confirmResponse.keys,confirmResponse.rt,confirmResponse.duration,catchQuestion.started,catch_label,catch_value,catchQuestion.stopped,catchQuestionSlider.response,catchQuestionSlider.rt,catchQuestionSlider.history,confirmResponse_2.keys,audioRunLoop.thisRepN,audioRunLoop.thisTrialN,audioRunLoop.thisN,audioRunLoop.thisIndex,audioRunLoop.ran,conditions1_1,conditions2_1,conditions1_2,conditions2_2,dur1_1,dur2_1,dur1_2,dur2_2,endPractice.rt,endPractice.duration,confirmResponse_2.rt,confirmResponse_2.duration,runIntervalBreak.started,runIntervalBreak.stopped,endingBreakKey.keys,endingBreakKey.rt,endingBreakKey.duration,connection.started,connection.stopped,connectionEnding.keys,connectionEnding.rt,connectionEnding.duration,readyForText.started,readyForText.stopped,textPre.started,run_dup,textPre.stopped,continuousResponses_text,textRunLoop.thisRepN,textRunLoop.thisTrialN,textRunLoop.thisN,textRunLoop.thisIndex,textRunLoop.ran,text1_1,text1_2,text2_1,text2_2,runBreakText.started,runBreakText.stopped,endingBreakKey_2.keys,endingBreakKey_2.rt,endingBreakKey_2.duration,ending.started,ending.stopped,endingEnding.keys,endingEnding.rt,endingEnding.duration
1E-04,12.9022,y,12.5881,,66971a9cabd2bff3e5f60595,2025-07-07_21h58.47.832,group3.4_multiperson,2023.2.2,Win32,60.24096386,686c2ebf0248f13bef9af11f,686c8e823e04a3c9ac2a5633,,,,,,,,,,,,,,,,,,,,,,,,,,,,,,,,,,,,,,,,,,,,,,,,,,,,,,,,,,,,,,,,,,,,,,,,,,,,,,,,,,,,,,,,,,,,,,,,,,,,,,,,
,,,,,66971a9cabd2bff3e5f60595,2025-07-07_21h58.47.832,group3.4_multiperson,2023.2.2,Win32,60.24096386,686c2ebf0248f13bef9af11f,686c8e823e04a3c9ac2a5633,12.903,15.4588,space,2.495,,,,,,,,,,,,,,,,,,,,,,,,,,,,,,,,,,,,,,,,,,,,,,,,,,,,,,,,,,,,,,,,,,,,,,,,,,,,,,,,,,,,,,,,,,,,,,,,,,,,
,,,,,66971a9cabd2bff3e5f60595,2025-07-07_21h58.47.832,group3.4_multiperson,2023.2.2,Win32,60.24096386,686c2ebf0248f13bef9af11f,686c8e823e04a3c9ac2a5633,,,,,,15.4594,63.7185,space,47.9313,,,,,,,,,,,,,,,,,,,,,,,,,,,,,,,,,,,,,,,,,,,,,,,,,,,,,,,,,,,,,,,,,,,,,,,,,,,,,,,,,,,,,,,,,,,,,,,
,,,,,66971a9cabd2bff3e5f60595,2025-07-07_21h58.47.832,group3.4_multiperson,2023.2.2,Win32,60.24096386,686c2ebf0248f13bef9af11f,686c8e823e04a3c9ac2a5633,,,,,,,,,,,63.7264,66.7009,space,2.9554,,[],[],[],[],[],[],0,0,0,0,1,,,,,,,,,,,,,,,,,,,,,,,,,,,,,,,,,,,,,,,,,,,,,,,,,,,,,,,,,,,,,,,,,,,,,,,,,,,,,,
,,,,,66971a9cabd2bff3e5f60595,2025-07-07_21h58.47.832,group3.4_multiperson,2023.2.2,Win32,60.24096386,686c2ebf0248f13bef9af11f,686c8e823e04a3c9ac2a5633,,,,,,,,,,,66.7026,69.947,space,3.1517,,[],[],[],[],[],[],1,0,1,0,1,,,,,,,,,,,,,,,,,,,,,,,,,,,,,,,,,,,,,,,,,,,,,,,,,,,,,,,,,,,,,,,,,,,,,,,,,,,,,,
,,,,,66971a9cabd2bff3e5f60595,2025-07-07_21h58.47.832,group3.4_multiperson,2023.2.2,Win32,60.24096386,686c2ebf0248f13bef9af11f,686c8e823e04a3c9ac2a5633,,,,,,,,,,,69.9479,71.7955,space,1.7929,,[],[],[],[],[],[],2,0,2,0,1,,,,,,,,,,,,,,,,,,,,,,,,,,,,,,,,,,,,,,,,,,,,,,,,,,,,,,,,,,,,,,,,,,,,,,,,,,,,,,
,,,,,66971a9cabd2bff3e5f60595,2025-07-07_21h58.47.832,group3.4_multiperson,2023.2.2,Win32,60.24096386,686c2ebf0248f13bef9af11f,686c8e823e04a3c9ac2a5633,,,,,,,,,,,71.7965,74.227,space,2.4008,,[],[],[],[],[],[],3,0,3,0,1,,,,,,,,,,,,,,,,,,,,,,,,,,,,,,,,,,,,,,,,,,,,,,,,,,,,,,,,,,,,,,,,,,,,,,,,,,,,,,
,,,,,66971a9cabd2bff3e5f60595,2025-07-07_21h58.47.832,group3.4_multiperson,2023.2.2,Win32,60.24096386,686c2ebf0248f13bef9af11f,686c8e823e04a3c9ac2a5633,,,,,,,,,,,74.2279,88.1318,space,13.8671,,[],[],[],[],[],[],4,0,4,0,1,,,,,,,,,,,,,,,,,,,,,,,,,,,,,,,,,,,,,,,,,,,,,,,,,,,,,,,,,,,,,,,,,,,,,,,,,,,,,,
,,,,,66971a9cabd2bff3e5f60595,2025-07-07_21h58.47.832,group3.4_multiperson,2023.2.2,Win32,60.24096386,686c2ebf0248f13bef9af11f,686c8e823e04a3c9ac2a5633,,,,,,,,,,,88.1329,90.5471,space,2.3825,,[],[],[],[],[],[],5,0,5,0,1,,,,,,,,,,,,,,,,,,,,,,,,,,,,,,,,,,,,,,,,,,,,,,,,,,,,,,,,,,,,,,,,,,,,,,,,,,,,,,
,,,,,66971a9cabd2bff3e5f60595,2025-07-07_21h58.47.832,group3.4_multiperson,2023.2.2,Win32,60.24096386,686c2ebf0248f13bef9af11f,686c8e823e04a3c9ac2a5633,,,,,,,,,,,,,,,,,,,,,,,,,,,90.5532,93.128,93.1722,1,audio/Narrative13Situation2.wav,95.1765,,95.1768,124.9361,"[[55.6,3712],[100,13288],[100,13371],[99.8,13455],[99.6,13537],[99.7,13620],[99.7,13704],[99.7,13787],[99.9,13871],[99.9,13953],[99.9,14037],[99.9,14120],[99.9,14203],[99.9,14286],[99.9,14370],[99.9,14453],[99.9,14536],[99.9,14620],[99.9,14703],[99.9,14786],[99.9,14870],[99.9,14953],[99.9,15036],[99.9,15119],[99.9,15203],[99.9,15286],[99.9,15369],[99.9,15453],[99.9,15536],[99.9,15619],[99.9,15702],[99.9,15786],[99.9,15869],[99.9,15952],[100,16035],[100,16119],[100,16202],[100,16285],[100,16369],[100,16452],[100,16535],[100,16618],[100,16701],[100,16785],[100,16868],[100,16951],[100,17034],[100,17118],[100,17201],[100,17284],[100,17368],[100,17451],[100,17534],[100,17617],[100,17701],[100,17784],[100,17867],[100,17950],[100,18034],[100,18117],[100,18200],[100,18283],[100,18367],[100,18450],[100,18533],[100,18617],[100,18700],[100,18783],[100,18866],[100,18950],[100,19033],[100,19116],[100,19199],[100,19283],[100,19366],[100,19449],[100,19532],[100,19616],[100,19699],[100,19782],[100,19865],[100,19949],[100,20032],[100,20115],[100,20199],[100,20282],[100,20365],[100,20448],[100,20532],[100,20615],[100,20698],[100,20782],[100,20865],[100,20948],[100,21031],[100,21115],[100,21198],[100,21281],[100,21364],[100,21448],[100,21531],[100,21614],[100,21697],[100,21781],[100,21864],[100,21947],[100,22030],[100,22114],[100,22197],[100,22280],[100,22363],[100,22447],[100,22530],[100,22613],[100,22697],[100,22780],[100,22863],[100,22946],[100,23029],[100,23113],[100,23196],[100,23279],[100,23363],[100,23446],[100,23529],[100,23612],[100,23696],[100,23779],[100,23862],[100,23945],[100,24029],[100,24112],[100,24195],[100,24279],[100,24362],[100,24445],[100,24528],[100,24611],[100,24694],[100,24778],[100,24861],[100,24944],[100,25027],[100,25111],[100,25194],[100,25278],[100,25361],[100,25444],[100,25528],[100,28276]]",124.9366,127.2505,100,1.2364,"[{""rating"":100,""responseTime"":1.2364000000059718}]",space,1.7572,,127.2516,Definitely yes,100,127.2619,,,[],,0,0,0,0,1,audio/Narrative13Situation2.wav,audio/Narrative13Situation2.wav,audio/Narrative13Situation2.wav,audio/Narrative13Situation2.wav,2,2,2,2,,,,,,,,,,,,,,,,,,,,,,,,,,,,,,,,,,,,,,,
,,,,,66971a9cabd2bff3e5f60595,2025-07-07_21h58.47.832,group3.4_multiperson,2023.2.2,Win32,60.24096386,686c2ebf0248f13bef9af11f,686c8e823e04a3c9ac2a5633,,,,,,,,,,,,,,,,,,,,,,,,,,,,,127.2624,1,audio/Narrative8Situation1.wav,129.3479,space,129.348,145.2847,"[[999,2],[999,82],[999,166],[999,249],[999,332],[999,415],[999,498],[999,582],[999,665],[999,748],[999,832],[999,915],[999,998],[999,1082],[999,1164],[999,1248],[999,1331],[999,1415],[999,1498],[999,1581],[999,1664],[999,1748],[999,1831],[999,1914],[999,1998],[999,2081],[999,2164],[999,2248],[999,2330],[999,2414],[999,2497],[999,2580],[999,2664],[999,2747],[999,2830],[999,2913],[999,2997],[999,3080],[999,3163],[999,3247],[999,3330],[999,3413],[999,3496],[999,3580],[999,3663],[999,3746],[999,3830],[999,3913],[999,3996],[999,4079],[999,4162],[999,4246],[999,4329],[999,4412],[999,4496],[999,4579],[999,4662],[999,4745],[999,4828],[999,4912],[999,4995],[999,5078],[999,5162],[999,5245],[999,5328],[999,5412],[999,5495],[999,5578],[999,5661],[99.3,5745],[99.1,5827],[98.9,5911],[98.8,5994],[98.8,6078],[98.8,6161],[98.8,6244],[98.8,6327],[98.8,6411],[98.8,6494],[98.8,6577],[98.8,6661],[98.8,6744],[98.6,6827],[98.5,6910],[98.5,6993],[98.3,7077],[98.3,7160],[98.2,7243],[98.2,7326],[98.2,7410],[98.1,7493],[98.1,7577],[98,7660],[98,7743],[98,7826],[98,7909],[98,7992],[98,8076],[98,8159],[98,8242],[98,8326],[98,8409],[97.9,8492],[96.8,8576],[95.1,8659],[92.2,8742],[88.4,8825],[85.7,8908],[85.5,8992],[85.5,9075],[85.5,9158],[85.5,9242],[85.5,9325],[85.5,9408],[85.5,9491],[85.5,9575],[85.5,9658],[57.9,9992],[54.5,10075],[53.1,10158],[51.5,10241],[51.5,10324],[51.1,10408],[51.1,10491],[51,10574],[50.7,10658],[50.5,10741],[49.8,10824],[48.9,10908],[47.6,10991],[46.6,11074],[44.7,11157],[42.9,11240],[41.4,11324],[39.3,11407],[38.3,11490],[35.6,11573],[29.8,11656],[21.2,11740],[17.9,11823],[16.8,11907],[15.4,11989],[14.8,12073],[14.5,12156],[14.5,12239],[14.5,12323],[15.4,12406],[17.7,12489],[33.2,12823],[44.8,12906],[51.2,12989],[52.2,13072],[52.8,13155],[52.8,13238],[52.8,13321],[52.8,13405],[52.8,13488],[52.9,13572],[52.9,13654],[52.9,13738],[52.9,13821],[52.9,13905],[52.9,13988],[52.9,14071],[52.9,14154],[52.9,14238],[52.9,14321],[52.9,14404],[52.9,14488],[52.9,14571],[52.9,14654],[52.9,14737],[52.9,14820],[52.9,14903],[52.9,14988],[52.9,15070],[52.9,15154],[52.9,15237],[52.9,15320],[52.9,15403],[52.9,15486],[52.6,15570],[51.3,15653]]",145.285,150.7468,100,4.005,"[{""rating"":1.0217363414050162,""responseTime"":1.5955000000000155},{""rating"":100,""responseTime"":4.0049999999999955}]",space,4.9122,,150.7469,Partially,50,150.7533,,,[],,0,1,1,1,1,audio/Narrative7Situation1.wav,audio/Narrative8Situation1.wav,audio/Narrative5Situation1.wav,audio/Narrative6Situation1.wav,2,5,5,2,2.0533,,,,,,,,,,,,,,,,,,,,,,,,,,,,,,,,,,,,,,
,,,,,66971a9cabd2bff3e5f60595,2025-07-07_21h58.47.832,group3.4_multiperson,2023.2.2,Win32,60.24096386,686c2ebf0248f13bef9af11f,686c8e823e04a3c9ac2a5633,,,,,,,,,,,,,,,,,,,,,,,,,,,,,150.7538,1,audio/Narrative8Situation2.wav,153.761,,153.7611,163.8861,"[[999,1],[999,83],[999,166],[999,249],[999,332],[999,415],[999,499],[999,582],[999,665],[999,749],[999,832],[999,915],[999,999],[999,1082],[999,1165],[999,1248],[999,1332],[999,1415],[49.3,1499],[51.5,1582],[53.3,1664],[53.3,1748],[53.3,1831],[53.6,1915],[53.6,1998],[53.7,2081],[53.9,2165],[54,2248],[54.3,2331],[54.3,2414],[54.3,2497],[54.4,2580],[54.4,2664],[54.4,2747],[54.4,2830],[54.4,2914],[54.4,2997],[54.4,3080],[54.6,3163],[54.7,3246],[54.7,3330],[49.6,6578],[43.3,6661],[28.9,6744],[23.4,6827],[23.3,6910],[24.8,6995],[30.3,7077],[30.5,7160],[28.7,7243],[21.3,7328],[8.6,7411],[2.5,7494]]",163.8865,166.4841,0,1.1768,"[{""rating"":0,""responseTime"":1.176800000011923}]",space,2.0558,,166.4843,Definitely yes,100,166.491,,,[],,0,2,2,2,1,audio/Narrative7Situation2.wav,audio/Narrative8Situation2.wav,audio/Narrative5Situation2.wav,audio/Narrative6Situation2.wav,3,3,3,3,,,,,,,,,,,,,,,,,,,,,,,,,,,,,,,,,,,,,,,
,,,,,66971a9cabd2bff3e5f60595,2025-07-07_21h58.47.832,group3.4_multiperson,2023.2.2,Win32,60.24096386,686c2ebf0248f13bef9af11f,686c8e823e04a3c9ac2a5633,,,,,,,,,,,,,,,,,,,,,,,,,,,,,166.4914,1,audio/Narrative8Situation3.wav,170.4973,,170.4973,192.8793,"[[999,0],[999,82],[999,166],[999,249],[999,332],[999,415],[999,499],[999,582],[999,666],[999,749],[999,832],[999,915],[999,999],[999,1082],[999,1165],[999,1248],[999,1332],[999,1415],[999,1498],[999,1582],[72.4,1665],[76.6,1748],[81.3,1831],[82.7,1914],[83,1998],[82.6,2081],[82.6,2164],[86.5,2248],[88.1,2331],[89.8,2414],[91.8,2498],[92.4,2581],[92.4,2664],[92.4,2747],[92.4,2830],[92.4,2914],[92.5,2997],[92.5,3080],[92.5,3163],[92.5,3246],[92.5,3330],[92.5,3413],[92.5,3497],[92.5,3580],[92.5,3663],[92.5,3746],[92.5,3829],[92.5,3913],[92.5,3996],[92.5,4079],[92.5,4162],[92.5,4246],[92.5,4329],[92.5,4413],[92.5,4496],[92.5,4579],[92.5,4662],[92.5,4746],[92.5,4829],[92.5,4912],[92.5,4995],[92.5,5079],[92.5,5161],[92.5,5245],[92.5,5328],[92.5,5412],[92.5,5495],[92.5,5578],[92.5,5662],[92.5,5745],[92.5,5828],[92.5,5911],[92.5,5995],[92.5,6078],[92.5,6162],[92.5,6244],[92.5,6328],[92.5,6410],[92.5,6494],[92.5,6577],[92.7,6661],[95.7,6744],[99.3,6827],[100,6911],[100,6994],[100,7077],[100,7161],[100,7244],[100,7327],[100,7410],[100,7493],[100,7577],[100,7660],[100,7743],[100,7826],[100,7909],[100,7993],[100,8076],[100,8159],[100,8243],[100,8326],[100,8409],[100,8492],[100,8576],[100,8659],[100,8742],[100,8825],[100,8909],[100,8992],[100,9075],[100,9158],[100,9242],[100,9325],[100,9408],[100,9492],[100,9575],[100,9658],[100,9741],[100,9825],[100,9908],[100,9991],[100,10074],[100,10158],[100,10241],[100,10324],[100,10408],[100,10491],[100,10574],[100,10657],[100,10741],[100,10824],[100,10907],[100,10990],[100,11073],[100,11157],[100,11240],[100,11323],[100,11407],[100,11490],[100,11573],[100,11656],[100,11740],[100,11823],[100,11906],[100,11989],[100,12073],[100,12156],[100,12239],[100,12323],[100,12406],[100,12489],[100,12572],[100,12656],[100,12739],[100,12822],[100,12906],[100,12989],[100,13072],[100,13155],[100,13239],[100,13322],[100,13405],[100,13488],[100,13572],[100,13655],[100,13738],[100,13821],[100,13905],[100,13988],[100,14071],[100,14155],[100,14238],[100,14321],[100,14404],[100,14488],[100,14571],[100,14654],[100,14738],[100,14821],[100,14904],[100,14987],[100,15070],[100,15154],[100,15237],[100,15320],[100,15403],[100,15487],[100,15570],[100,15653],[100,15736],[100,15820],[100,15903],[100,15986],[100,16069],[100,16153],[100,16236],[100,16319],[100,16403],[100,16486],[100,16569],[100,16652],[100,16736],[100,16819],[100,16902],[100,16985],[100,17068],[100,17152],[100,17235],[100,17318],[100,17402],[100,17485],[100,17568],[100,17652],[100,17735],[100,17818],[100,17901],[100,17985],[100,18068],[100,18151],[100,18234],[100,18318],[100,18401],[100,18484],[100,18567],[100,18651],[100,18734],[100,18817],[100,18901],[100,18984],[100,19067],[100,19150],[100,19233],[100,19317],[100,19400],[100,19483],[100,19567],[100,19650],[100,19733],[100,19817],[100,19900],[100,19983],[100,20066],[100,20149],[100,20233],[100,20316],[100,20399],[100,20483],[100,20566],[100,20649],[100,20732],[100,20816],[100,20899],[100,20982],[100,21066],[100,21149],[100,21232],[100,21315],[100,21398],[100,21482],[100,21565],[100,21648],[100,21731],[100,21815],[100,21898],[100,21981],[100,22064],[100,22148],[100,22231],[100,22314]]",192.8796,195.9599,100,2.6038,"[{""rating"":99.83729424551512,""responseTime"":1.1368999999910727},{""rating"":100,""responseTime"":1.953000000000003},{""rating"":100,""responseTime"":2.6037999999970225}]",space,2.5319,,195.9601,Not at all,0,195.9673,,,[],,0,3,3,3,1,audio/Narrative7Situation3.wav,audio/Narrative8Situation3.wav,audio/Narrative5Situation3.wav,audio/Narrative6Situation3.wav,8,4,3,5,,,,,,,,,,,,,,,,,,,,,,,,,,,,,,,,,,,,,,,
,,,,,66971a9cabd2bff3e5f60595,2025-07-07_21h58.47.832,group3.4_multiperson,2023.2.2,Win32,60.24096386,686c2ebf0248f13bef9af11f,686c8e823e04a3c9ac2a5633,,,,,,,,,,,,,,,,,,,,,,,,,,,,,195.9677,1,audio/Narrative8Situation4.wav,198.9741,,198.9742,213.1627,"[[100,832],[53.9,1332],[54.3,1415],[55,1498],[55.6,1581],[55.6,1665],[55.6,1748],[55.6,1831],[55.8,1915],[55.8,1997],[55.8,2081],[55.8,2164],[55.8,2248],[55.8,2330],[55.8,2414],[55.8,2497],[55.8,2580],[55.8,2663],[55.8,2747],[55.8,2830],[55.8,2913],[58.9,5162],[61.4,5245],[64.1,5328],[71.2,5411],[77.2,5495],[84.3,5578],[87.1,5661],[92.9,5745],[98.9,5827],[100,5911],[100,5994],[100,6077],[100,6161],[100,6245],[100,6327],[100,6410],[100,6494],[100,6577],[100,6660],[100,6744],[100,6827],[100,6910],[100,6994],[100,7076],[100,7160],[100,7243],[100,7326],[100,7410],[100,7493],[100,7576],[100,7660],[100,7743],[100,7826],[100,7909],[100,7992],[100,8075],[100,8158],[100,8242],[100,8326],[100,8409],[100,8492],[100,8575],[100,8659],[100,8742],[100,8825],[100,8908],[100,8992],[100,9075],[100,9158],[100,9241],[100,9325],[100,9408],[100,9491],[100,9574],[100,9658],[100,9741],[100,9824],[100,9908],[100,9991],[100,10074],[100,10157],[100,10241],[100,10324],[100,10407],[100,10491],[100,10574],[100,10657],[100,10740],[100,10823],[100,10907],[100,10990],[100,11073],[100,11156],[100,11240],[100,11323],[100,11406],[100,11490],[100,11573],[100,11656],[100,11740],[100,11823],[100,11906],[100,11990],[100,12072],[100,12156],[100,12239],[100,12322],[100,12406],[100,12489],[100,12572],[100,12655],[100,12739],[100,12822],[100,12905],[100,12989],[100,13072],[100,13155],[100,13238],[100,13321],[100,13404],[100,13488],[100,13572],[100,13654],[100,13738],[100,13821],[100,13905],[100,13988],[100,14071],[100,14154]]",213.163,215.2269,99.52492105,0.8766,"[{""rating"":99.52492104658364,""responseTime"":0.8766000000089207}]",space,1.5241,,215.2269,Not at all,0,215.2293,,,[],,0,4,4,4,1,audio/Narrative7Situation4.wav,audio/Narrative8Situation4.wav,audio/Narrative5Situation4.wav,audio/Narrative6Situation4.wav,3,3,1,2,,,,,,,,,,,,,,,,,,,,,,,,,,,,,,,,,,,,,,,
,,,,,66971a9cabd2bff3e5f60595,2025-07-07_21h58.47.832,group3.4_multiperson,2023.2.2,Win32,60.24096386,686c2ebf0248f13bef9af11f,686c8e823e04a3c9ac2a5633,,,,,,,,,,,,,,,,,,,,,,,,,,,,,215.2299,1,audio/Narrative8Situation5.wav,217.2421,,217.2421,225.5024,"[[95.5,833],[47.7,1499],[47.8,1581],[48.2,1665],[49.6,1748],[53.7,1831],[66.3,1915],[81.7,1998],[90.3,2081],[94.6,2165],[98.8,2247],[100,2331],[100,2414],[100,2497],[100,2581],[100,2664],[100,2747],[100,2831],[100,2914],[100,2997],[100,3080],[100,3164],[100,3247],[100,3330],[100,3413],[100,3497],[100,3580],[100,3663],[100,3747],[100,3830],[100,3913],[100,3996],[100,4080],[100,4163],[100,4246],[100,4329],[100,4413],[100,4496],[100,4579],[100,4662],[100,4746],[100,4829],[100,4912],[100,4995],[100,5079],[100,5162],[100,5245],[100,5328],[100,5412],[100,5495],[100,5578],[100,5662],[100,5745],[100,5828],[100,5911],[100,5994],[100,6078],[100,6161],[100,6244],[100,6328],[100,6411],[100,6494],[100,6578],[100,6661],[100,6744],[100,6827],[100,6911],[100,6994],[100,7077],[100,7160],[100,7243],[100,7327],[100,7410],[100,7493],[100,7577],[100,7660],[100,7743],[100,7827],[100,7910],[100,7993],[100,8076],[100,8159],[100,8243]]",225.5027,227.567,100,1.6045,"[{""rating"":98.79604548256734,""responseTime"":0.9709000000059689},{""rating"":100,""responseTime"":1.6045000000000016}]",space,1.5188,,227.5673,Not at all,0,227.5739,,,[],,0,5,5,5,1,audio/Narrative7Situation5.wav,audio/Narrative8Situation5.wav,audio/Narrative5Situation5.wav,audio/Narrative6Situation5.wav,5,2,5,2,,,,,,,,,,,,,,,,,,,,,,,,,,,,,,,,,,,,,,,
,,,,,66971a9cabd2bff3e5f60595,2025-07-07_21h58.47.832,group3.4_multiperson,2023.2.2,Win32,60.24096386,686c2ebf0248f13bef9af11f,686c8e823e04a3c9ac2a5633,,,,,,,,,,,,,,,,,,,,,,,,,,,,,227.5746,1,audio/Narrative8Situation6.wav,229.5821,,229.5822,236.0605,"[[99.6,666],[92.2,749],[86.2,833],[82,916],[78.6,999],[74.7,1082],[70.7,1166],[70.5,1249],[69.6,1332],[67.9,1415],[67.6,1498],[67.8,1581],[70,1665],[75.1,1748],[79.8,1831],[82.9,1915],[85.1,1998],[88.5,2081],[100,2414],[100,2497],[100,2581],[100,2664],[100,2747],[100,2830],[100,2913],[100,2997],[100,3080],[100,3163],[100,3247],[100,3330],[100,3413],[100,3497],[100,3580],[100,3663],[100,3746],[100,3830],[100,3913],[100,3996],[100,4079],[100,4163],[100,4246],[100,4329],[100,4412],[100,4496],[100,4579],[100,4662],[100,4745],[100,4829],[100,4912],[100,4995],[100,5079],[100,5162],[100,5245],[100,5328],[100,5412],[100,5495],[100,5578],[100,5662],[100,5744],[100,5828],[100,5911],[100,5994],[100,6078],[100,6161],[100,6244],[100,6327],[100,6411]]",236.0606,238.6913,100,2.2033,"[{""rating"":100,""responseTime"":2.2032999999970286}]",space,2.0902,,238.6915,Not at all,0,238.6959,,,[],,0,6,6,6,1,audio/Narrative7Situation6.wav,audio/Narrative8Situation6.wav,audio/Narrative5Situation6.wav,audio/Narrative6Situation6.wav,3,2,3,2,,,,,,,,,,,,,,,,,,,,,,,,,,,,,,,,,,,,,,,
,,,,,66971a9cabd2bff3e5f60595,2025-07-07_21h58.47.832,group3.4_multiperson,2023.2.2,Win32,60.24096386,686c2ebf0248f13bef9af11f,686c8e823e04a3c9ac2a5633,,,,,,,,,,,,,,,,,,,,,,,,,,,,,238.6965,1,audio/Narrative8Situation7.wav,241.7056,,241.7057,253.796,"[[999,1],[999,82],[999,166],[999,249],[999,332],[999,415],[999,499],[999,582],[999,665],[999,749],[999,832],[999,915],[71.3,998],[70.1,1082],[69.1,1165],[66.7,1248],[65.6,1332],[65.4,1415],[65.4,1498],[65.3,1581],[65.3,1664],[65.3,1748],[65.3,1831],[65.3,1914],[65.3,1998],[65.3,2081],[65.3,2164],[65.3,2247],[65.3,2331],[65.3,2414],[65.3,2497],[65.4,2581],[65.5,2664],[65.5,2747],[65.7,2830],[74.8,2914],[83.8,2997],[84.9,3080],[87.8,3163],[90.7,3246],[92.8,3330],[94.6,3414],[97,3497],[97.7,3580],[98.2,3663],[98.3,3746],[98.6,3829],[98.9,3913],[99,3996],[99,4079],[99,4162],[99,4246],[99,4329],[99,4412],[99,4496],[99,4579],[99,4662],[99,4745],[99,4828],[99,4912],[99,4995],[99,5078],[99,5162],[99,5245],[99,5328],[99,5411],[99,5495],[99,5578],[99,5661],[99,5745],[99,5828],[99,5911],[99,5994],[99,6077],[99,6161],[99,6244],[99,6327],[99,6410],[99,6494],[99,6577],[99,6660],[99,6744],[99,6827],[99,6910],[99,6993],[99,7077],[99,7160],[99,7243],[99,7326],[99,7410],[99,7493],[99,7576],[99,7660],[99,7743],[99,7826],[99,7909],[99,7993],[99,8076],[99,8159],[99,8242],[99,8326],[99,8409],[99,8492],[99,8575],[99,8659],[99,8742],[99,8825],[99,8909],[99,8992],[99,9075],[99,9158],[99,9242],[99,9325],[99,9408],[99,9491],[99,9575],[99,9658],[99,9741],[99,9824],[99,9908],[99,9991],[99,10074],[99,10157],[99,10241],[99,10324],[99,10407],[99,10490],[99,10574],[99,10657],[99,10740],[99,10824],[99,10907],[99,10990],[99,11073],[99,11157],[99,11240],[99,11323],[99.1,11407],[99.1,11490],[99.1,11573],[99.1,11657],[99.1,11740],[99.4,11823],[100,11906],[100,11990],[100,12073]]",253.7962,255.7108,100,1.5356,"[{""rating"":100,""responseTime"":1.5355999999940195}]",space,1.3648,,255.7109,Not at all,0,255.7148,,,[],,0,7,7,7,1,audio/Narrative7Situation7.wav,audio/Narrative8Situation7.wav,audio/Narrative5Situation7.wav,audio/Narrative6Situation7.wav,5,3,4,5,,,,,,,,,,,,,,,,,,,,,,,,,,,,,,,,,,,,,,,
,,,,,66971a9cabd2bff3e5f60595,2025-07-07_21h58.47.832,group3.4_multiperson,2023.2.2,Win32,60.24096386,686c2ebf0248f13bef9af11f,686c8e823e04a3c9ac2a5633,,,,,,,,,,,,,,,,,,,,,,,,,,,,,255.7156,1,audio/Narrative8Situation8.wav,258.725,,258.7251,271.5809,"[[999,1],[999,82],[999,166],[999,249],[999,332],[999,415],[999,499],[999,583],[80.2,671],[69.5,1171],[59.1,1255],[53,1338],[52.8,1415],[52.7,1499],[47,1587],[46.4,1665],[46.4,1747],[46.5,1831],[47.1,1914],[49.4,2004],[51.5,2087],[53,2165],[59.8,2255],[70.4,2337],[84.2,2414],[93.5,2504],[95.2,2588],[98,2670],[100,2755],[100,2830],[100,2913],[100,2996],[100,3080],[100,3163],[100,3247],[100,3330],[100,3413],[100,3496],[100,3580],[100,3663],[100,3746],[100,3829],[100,3913],[100,3996],[100,4079],[100,4163],[100,4246],[100,4329],[100,4412],[100,4495],[100,4579],[100,4662],[100,4745],[100,4828],[100,4912],[100,4995],[100,5078],[100,5161],[100,5245],[100,5334],[100,5411],[100,5495],[100,5577],[100,5661],[100,5744],[100,5828],[100,5911],[100,5994],[100,6077],[100,6161],[100,6244],[100,6327],[100,6410],[100,6494],[100,6577],[100,6661],[100,6744],[100,6827],[100,6910],[100,6993],[100,7077],[100,7160],[100,7243],[100,7327],[100,7410],[100,7493],[100,7576],[100,7660],[100,7743],[100,7826],[100,7909],[100,7992],[100,8076],[100,8159],[100,8242],[100,8326],[100,8408],[100,8492],[100,8575],[100,8659],[100,8742],[100,8826],[100,8908],[100,8992],[100,9075],[100,9158],[100,9241],[100,9325],[100,9408],[100,9491],[100,9575],[100,9658],[100,9741],[100,9824],[100,9908],[100,9991],[100,10074],[100,10158],[100,10241],[100,10324],[100,10407],[100,10490],[100,10574],[100,10657],[100,10741],[100,10823],[100,10907],[100,10990],[100,11074],[100,11164],[99.8,11241],[99.4,11323],[99.4,11407],[99.4,11490],[99.4,11573],[99.4,11656],[99.7,11749],[100,11829],[100,11906],[100,11989],[100,12072],[100,12155],[100,12239],[100,12322],[100,12405],[100,12489],[100,12572],[100,12663],[100,12739],[100,12822]]",271.5814,273.3838,100,1.5695,"[{""rating"":99.31666271427702,""responseTime"":0.7373999999910552},{""rating"":100,""responseTime"":1.569500000000005}]",space,1.2632,,273.3839,Partially,50,273.3908,,,[],,0,8,8,8,1,audio/Narrative7Situation8.wav,audio/Narrative8Situation8.wav,audio/Narrative5Situation8.wav,audio/Narrative6Situation8.wav,2,3,3,5,,,,,,,,,,,,,,,,,,,,,,,,,,,,,,,,,,,,,,,
,,,,,66971a9cabd2bff3e5f60595,2025-07-07_21h58.47.832,group3.4_multiperson,2023.2.2,Win32,60.24096386,686c2ebf0248f13bef9af11f,686c8e823e04a3c9ac2a5633,,,,,,,,,,,,,,,,,,,,,,,,,,,,,273.3914,1,audio/Narrative8Situation9.wav,276.3943,,276.3944,287.7347,"[[100,832],[97.8,915],[92.5,1006],[84,1088],[77.7,1254],[74.7,1332],[70.9,1421],[67.8,1505],[63.3,1587],[60.1,1671],[60.1,1747],[60.1,1831],[60.2,1914],[60.1,1998],[50.3,2086],[44.1,2171],[43.8,2247],[45.3,2336],[53.4,2420],[64.8,2503],[67.8,2587],[70,2669],[98.9,3585],[100,3668],[100,3751],[100,3829],[100,3912],[100,4001],[100,4079],[100,4162],[100,4245],[100,4328],[100,4411],[100,4495],[100,4578],[100,4661],[100,4745],[100,4828],[100,4918],[100,4995],[100,5078],[100,5161],[100,5245],[100,5327],[100,5411],[100,5494],[100,5577],[100,5661],[100,5744],[100,5827],[100,5910],[100,5994],[100,6077],[100,6160],[100,6243],[100,6326],[100,6410],[100,6494],[100,6576],[100,6660],[100,6743],[100,6826],[100,6910],[100,6993],[100,7076],[100,7160],[100,7243],[100,7326],[100,7410],[100,7492],[100,7576],[100,7659],[100,7742],[100,7826],[100,7909],[100,7992],[100,8075],[100,8159],[100,8242],[100,8325],[100,8409],[100,8492],[100,8575],[100,8658],[100,8741],[100,8825],[100,8908],[100,8991],[100,9075],[100,9158],[100,9241],[100,9324],[100,9408],[100,9491],[100,9574],[100,9657],[100,9741],[100,9824],[100,9907],[100,9990],[100,10074],[100,10157],[100,10240],[100,10323],[100,10407],[100,10491],[100,10573],[100,10657],[100,10740],[100,10823],[100,10914],[100,10990],[100,11073],[100,11156],[100,11245],[100,11323]]",287.7351,289.7494,99.42079188,1.7712,"[{""rating"":99.31666271427702,""responseTime"":1.079999999999984},{""rating"":99.42079188043033,""responseTime"":1.7712000000029775}]",space,1.4609,,289.7497,Not at all,0,289.7571,,,[],,0,9,9,9,1,audio/Narrative7Situation9.wav,audio/Narrative8Situation9.wav,audio/Narrative5Situation9.wav,audio/Narrative6Situation9.wav,2,3,3,4,,,,,,,,,,,,,,,,,,,,,,,,,,,,,,,,,,,,,,,
,,,,,66971a9cabd2bff3e5f60595,2025-07-07_21h58.47.832,group3.4_multiperson,2023.2.2,Win32,60.24096386,686c2ebf0248f13bef9af11f,686c8e823e04a3c9ac2a5633,,,,,,,,,,,,,,,,,,,,,,,,,,,,,289.7576,1,audio/Narrative7Situation1.wav,291.7644,,291.7647,347.6533,"[[99.6,1165],[98.3,1255],[93.4,1339],[83.6,1423],[73.4,1505],[62.1,1587],[58.7,1664],[58.4,1748],[61.9,2914],[65.3,3003],[66.7,3080],[100,3502],[100,3585],[100,3671],[100,3752],[100,3829],[100,3913],[100,3996],[100,4079],[100,4163],[100,4251],[100,4329],[100,4412],[100,4495],[100,4579],[100,4662],[100,4746],[100,4829],[100,4911],[100,4995],[100,5078],[100,5162],[100,5245],[100,5328],[100,5411],[100,5495],[100,5578],[100,5661],[100,5744],[100,5828],[100,5911],[100,5994],[100,6077],[100,6161],[100,6244],[100,6327],[100,6411],[100,6494],[100,6577],[100,6660],[100,6744],[100,6827],[100,6910],[100,6993],[100,7082],[100,7160],[100,7243],[100,7326],[100,7410],[100,7493],[100,7576],[100,7660],[100,7743],[100,7826],[100,7909],[100,7992],[100,8076],[100,8159],[100,8242],[100,8325],[100,8409],[100,8492],[100,8581],[100,8658],[100,8742],[100,8825],[100,8908],[100,8992],[100,9075],[100,9158],[100,9241],[100,9325],[100,9408],[100,9491],[100,9576],[100,9658],[100,9741],[100,9824],[100,9908],[100,9991],[100,10074],[100,10157],[100,10241],[100,10324],[100,10407],[100,10491],[100,10574],[100,10657],[100,10740],[100,10824],[100,10906],[100,10990],[100,11073],[100,11156],[100,11240],[100,11323],[100,11406],[100,11490],[100,11573],[100,11656],[100,11739],[100,11823],[100,11906],[100,11989],[100,12072],[100,12156],[100,12239],[100,12322],[100,12411],[100,12489],[100,12572],[100,12655],[100,12739],[100,12822],[100,12905],[100,12989],[100,13071],[100,13155],[100,13238],[100,13321],[100,13404],[100,13488],[100,13571],[100,13655],[100,13738],[100,13821],[100,13904],[100,13988],[100,14070],[100,14154],[100,14237],[100,14320],[100,14403],[100,14493],[100,14570],[100,14654],[100,14737],[100,14820],[100,14903],[100,14987],[100,15070],[100,15153],[100,15237],[100,15319],[100,15403],[100,15486],[100,15570],[100,15653],[100,15736],[100,15819],[100,15903],[100,15986],[100,16069],[100,16152],[100,16236],[100,16319],[100,16402],[100,16486],[100,16569],[100,16652],[100,16735],[100,16819],[100,16902],[100,16985],[100,17069],[100,17151],[100,17235],[100,17318],[100,17401],[100,17485],[100,17568],[100,17651],[100,17735],[100,17818],[100,17901],[100,17985],[100,18067],[100,18151],[100,18234],[100,18317],[100,18401],[100,18491],[100,18567],[100,18651],[100,18734],[100,18817],[100,18900],[100,18983],[100,19067],[100,19150],[100,19233],[100,19317],[100,19400],[100,19483],[100,19566],[100,19650],[100,19733],[100,19816],[100,19900],[100,19983],[100,20066],[100,20149],[100,20233],[100,20316],[100,20399],[100,20482],[100,20565],[100,20655],[100,20732],[100,20815],[100,20898],[100,20982],[100,21065],[100,21148],[100,21231],[100,21315],[100,21398],[100,21481],[100,21565],[100,21648],[100,21731],[100,21814],[100,21898],[100,21981],[100,22064],[100,22148],[100,22231],[100,22314],[100,22397],[100,22480],[100,22564],[100,22647],[100,22730],[100,22814],[100,22897],[100,22981],[100,23064],[100,23146],[100,23230],[100,23313],[100,23397],[100,23480],[100,23563],[100,23646],[100,23730],[100,23813],[100,23896],[100,23979],[100,24063],[100,24146],[100,24229],[100,24313],[100,24396],[100,24479],[100,24562],[100,24645],[100,24729],[100,24812],[100,24896],[100,24978],[100,25062],[100,25145],[100,25229],[100,25311],[100,25395],[100,25478],[100,25561],[100,25645],[100,25728],[100,25811],[100,25894],[100,25978],[100,26061],[100,26145],[100,26227],[100,26311],[100,26394],[100,26477],[100,26561],[100,26644],[100,26727],[100,26810],[100,26894],[100,26980],[100,27060],[100,27144],[100,27227],[100,27310],[100,27393],[100,27477],[100,27560],[100,27643],[100,27727],[100,27810],[100,27893],[100,27976],[100,28060],[100,28143],[100,28226],[100,28309],[100,28393],[100,28476],[100,28559],[100,28642],[100,28725],[100,28809],[100,28892],[100,28976],[100,29059],[100,29141],[100,29225],[100,29309],[100,29391],[100,29475],[100,29558],[100,29641],[100,29725],[100,29808],[100,29891],[100,29975],[100,30058],[100,30141],[100,30224],[100,30307],[100,30391],[100,30474],[100,30557],[100,30641],[100,30724],[100,30807],[100,30890],[100,30974],[100,31057],[100,31140],[100,31223],[100,31307],[100,31390],[100,31473],[100,31556],[100,31640],[100,31723],[100,31806],[100,31890],[100,31973],[100,32056],[100,32139],[100,32223],[100,32305],[100,32389],[100,32472],[100,32556],[100,32639],[100,32722],[100,32805],[100,32889],[100,32972],[100,33055],[100,33139],[100,33222],[100,33305],[100,33388],[100,33471],[100,33555],[100,33638],[100,33721],[100,33805],[100,33888],[100,33971],[100,34055],[100,34138],[100,34227],[100,34304],[100,34387],[100,34471],[100,34554],[100,34637],[100,34721],[100,34804],[100,34887],[100,34970],[100,35054],[100,35137],[100,35220],[100,35303],[100,35386],[100,35469],[100,35553],[100,35636],[100,35720],[100,35803],[100,35886],[100,35970],[100,36053],[100,36136],[100,36219],[100,36303],[100,36385],[100,36469],[100,36552],[100,36635],[100,36719],[100,36802],[100,36885],[100,36969],[100,37052],[100,37135],[100,37218],[100,37302],[100,37385],[100,37468],[100,37552],[100,37635],[100,37718],[100,37801],[100,37884],[100,37968],[100,38051],[100,38134],[100,38218],[100,38301],[100,38384],[100,38468],[100,38551],[100,38634],[100,38717],[100,38801],[100,38884],[100,38967],[100,39050],[100,39134],[100,39217],[100,39300],[100,39383],[100,39466],[100,39550],[100,39633],[100,39716],[100,39800],[100,39883],[100,39966],[100,40049],[100,40133],[100,40216],[100,40299],[100,40383],[100,40466],[100,40549],[100,40632],[100,40715],[100,40799],[100,40882],[100,40965],[100,41049],[100,41132],[100,41215],[100,41299],[100,41382],[100,41465],[100,41548],[100,41631],[100,41715],[100,41798],[100,41881],[100,41965],[100,42048],[100,42131],[100,42215],[100,42298],[100,42381],[100,42464],[100,42547],[100,42631],[100,42714],[100,42797],[100,42881],[100,42964],[100,43047],[100,43131],[100,43214],[100,43297],[100,43380],[100,43463],[100,43547],[100,43630],[100,43713],[100,43796],[100,43880],[100,43963],[100,44046],[100,44129],[100,44213],[100,44296],[100,44379],[100,44463],[100,44546],[100,44629],[100,44712],[100,44795],[100,44879],[100,44962],[100,45045],[100,45129],[100,45212],[100,45295],[100,45378],[100,45462],[100,45545],[100,45628],[100,45711],[100,45795],[100,45878],[100,45961],[100,46045],[100,46128],[100,46211],[100,46294],[100,46377],[100,46461],[100,46544],[100,46627],[100,46711],[100,46795],[100,46877],[100,46961],[100,47044],[100,47127],[100,47211],[100,47294],[100,47377],[100,47460],[100,47543],[100,47627],[100,47710],[100,47793],[100,47876],[100,47960],[100,48043],[100,48126],[100,48210],[100,48293],[100,48376],[100,48459],[100,48543],[100,48626],[100,48709],[100,48792],[100,48876],[100,48959],[100,49042],[100,49125],[100,49208],[100,49292],[100,49375],[100,49459],[100,49542],[100,49626],[100,49708],[100,49791],[100,49875],[100,49958],[100,50041],[100,50125],[100,50208],[100,50291],[100,50374],[100,50457],[100,50541],[100,50624],[100,50708],[100,50791],[100,50874],[100,50957],[100,51041],[100,51124],[100,51207],[100,51290],[100,51373],[100,51457],[100,51540],[100,51623],[100,51707],[100,51790],[100,51873],[100,51963],[100,52040],[100,52123],[100,52206],[100,52290],[100,52373],[100,52456],[100,52539],[100,52622],[100,52706],[100,52789],[100,52872],[100,52955],[100,53039],[100,53122],[100,53205],[100,53288],[100,53372],[100,53455],[100,53538],[100,53621],[100,53705],[100,53788],[100,53871],[100,53955],[100,54038],[100,54121],[100,54204],[100,54288],[100,54371],[100,54454],[100,54538],[100,54621],[100,54704],[100,54787],[100,54871],[100,54954],[100,55037],[100,55120],[100,55204],[100,55287],[100,55370],[100,55454],[100,55537],[100,55620],[100,55703],[100,55786],[100,55870]]",347.6539,349.6837,100,1.4038,"[{""rating"":100,""responseTime"":1.4038000000119268}]",space,1.4749,,349.6839,Definitely yes,100,349.692,,,[],,0,10,10,10,1,audio/Narrative8Situation1.wav,audio/Narrative7Situation1.wav,audio/Narrative6Situation1.wav,audio/Narrative5Situation1.wav,5,2,2,5,,,,,,,,,,,,,,,,,,,,,,,,,,,,,,,,,,,,,,,
,,,,,66971a9cabd2bff3e5f60595,2025-07-07_21h58.47.832,group3.4_multiperson,2023.2.2,Win32,60.24096386,686c2ebf0248f13bef9af11f,686c8e823e04a3c9ac2a5633,,,,,,,,,,,,,,,,,,,,,,,,,,,,,349.6926,1,audio/Narrative7Situation2.wav,352.6975,,352.6977,360.1918,"[[999,1],[999,82],[999,166],[999,249],[999,332],[999,416],[999,499],[999,583],[999,666],[999,749],[999,832],[999,915],[999,1007],[999,1088],[999,1173],[999,1255],[999,1339],[65.4,1421],[58.8,1505],[53.5,1587],[48.8,1671],[48.5,1748],[48.9,1831],[48.9,1914],[48.9,1997],[50.1,2088],[50.7,2171],[51.5,2256],[52.2,2337],[55.9,2414],[68,2504],[75.5,2587],[84.2,2671],[93.1,2756],[100,2837],[100,2913],[100,2997],[100,3080],[100,3164],[100,3247],[100,3330],[100,3413],[100,3497],[100,3580],[100,3663],[100,3746],[100,3829],[100,3913],[100,3996],[100,4079],[100,4162],[100,4246],[100,4329],[100,4418],[100,4496],[100,4579],[100,4669],[100,4745],[100,4828],[100,4912],[100,4995],[100,5078],[100,5161],[100,5245],[100,5328],[100,5419],[100,5495],[100,5578],[100,5662],[100,5744],[100,5827],[100,5911],[100,5995],[100,6077],[100,6161],[100,6244],[100,6327],[100,6410],[100,6494],[100,6577],[100,6660],[100,6743],[100,6827],[100,6910],[100,6993],[100,7082],[100,7166],[100,7250],[100,7332],[100,7416],[100,7493]]",360.1923,362.014,100,1.1374,"[{""rating"":100,""responseTime"":1.1374000000059254}]",space,1.2782,,362.0141,Partially,50,362.0192,,,[],,0,11,11,11,1,audio/Narrative8Situation2.wav,audio/Narrative7Situation2.wav,audio/Narrative6Situation2.wav,audio/Narrative5Situation2.wav,3,3,3,3,,,,,,,,,,,,,,,,,,,,,,,,,,,,,,,,,,,,,,,
,,,,,66971a9cabd2bff3e5f60595,2025-07-07_21h58.47.832,group3.4_multiperson,2023.2.2,Win32,60.24096386,686c2ebf0248f13bef9af11f,686c8e823e04a3c9ac2a5633,,,,,,,,,,,,,,,,,,,,,,,,,,,,,362.0197,1,audio/Narrative7Situation3.wav,370.0333,,370.0335,379.2924,"[[87,1331],[86.5,1421],[86.5,1505],[86.7,1581],[88,1671],[91.1,1749],[91.5,1831],[92.8,1914],[94.9,2001],[97.2,2087],[97.8,2170],[97.9,2247],[97.9,2332],[98,2414],[98,2497],[98,2581],[98.1,2664],[98.1,2747],[98.1,2831],[98.7,2921],[99.7,2997],[99.9,3080],[99.9,3163],[99.9,3247],[99.4,3330],[97.7,3420],[97.4,3505],[97.4,3580],[97.4,3663],[97.4,3746],[97.4,3829],[97.4,3913],[97.4,3996],[97.4,4079],[97.4,4162],[97.4,4246],[97.4,4329],[97.4,4412],[97.4,4496],[97.4,4579],[97.4,4662],[97.4,4745],[97.4,4829],[97.4,4912],[97.4,4995],[97.3,5079],[97.3,5162],[97.3,5245],[97.3,5328],[97.3,5412],[97.3,5495],[98.1,5584],[98.7,5661],[100,5754],[100,5828],[100,5911],[100,5994],[100,6077],[100,6161],[100,6244],[100,6327],[100,6411],[100,6494],[100,6577],[100,6660],[100,6744],[100,6833],[100,6910],[100,6993],[100,7077],[100,7160],[100,7243],[100,7327],[100,7410],[100,7493],[100,7576],[100,7659],[100,7743],[100,7826],[100,7909],[100,7992],[100,8076],[100,8159],[100,8242],[100,8326],[100,8409],[100,8492],[100,8576],[100,8659],[100,8742],[100,8825],[100,8909],[100,8992],[100,9075],[100,9158],[100,9242]]",379.2928,381.1078,100,1.5632,"[{""rating"":99.52492104658364,""responseTime"":0.87409999999403},{""rating"":100,""responseTime"":1.5631999999881145}]",space,1.2737,,381.108,Partially,50,381.1131,,,[],,0,12,12,12,1,audio/Narrative8Situation3.wav,audio/Narrative7Situation3.wav,audio/Narrative6Situation3.wav,audio/Narrative5Situation3.wav,4,8,5,3,,,,,,,,,,,,,,,,,,,,,,,,,,,,,,,,,,,,,,,
,,,,,66971a9cabd2bff3e5f60595,2025-07-07_21h58.47.832,group3.4_multiperson,2023.2.2,Win32,60.24096386,686c2ebf0248f13bef9af11f,686c8e823e04a3c9ac2a5633,,,,,,,,,,,,,,,,,,,,,,,,,,,,,381.1137,1,audio/Narrative7Situation4.wav,384.125,,384.1251,395.8627,"[[97.7,164],[100,247],[100,329],[100,413],[100,496],[100,579],[100,662],[100,745],[100,829],[100,919],[81.5,1418],[73,1502],[71.3,1584],[69.5,1669],[66.1,1751],[56.4,1834],[50.2,1917],[46.8,1994],[46.8,2078],[48.1,2169],[58.1,2251],[69.7,2334],[80.1,2417],[85.9,2501],[98.2,2584],[100,2666],[100,2744],[100,2827],[100,2910],[100,2993],[100,3083],[100,3165],[100,3245],[100,3327],[100,3417],[100,3493],[100,3583],[100,3666],[100,3744],[100,3826],[100,3909],[100,3992],[100,4076],[100,4165],[100,4248],[100,4326],[100,4409],[100,4492],[100,4575],[100,4659],[100,4742],[100,4825],[99.6,4917],[88.9,4999],[79.5,5076],[64.7,5165],[56.5,5249],[52.7,5325],[50.2,5415],[41.1,5498],[27.9,5576],[22.1,5664],[22.1,5741],[22.1,5825],[22.1,5908],[18.2,5997],[8.7,6080],[4.1,6165],[1.3,6242]]",395.863,399.4926,0,2.4875,"[{""rating"":0,""responseTime"":2.4874999999999545}]",space,3.0847,,399.4927,Partially,50,399.4977,,,[],,0,13,13,13,1,audio/Narrative8Situation4.wav,audio/Narrative7Situation4.wav,audio/Narrative6Situation4.wav,audio/Narrative5Situation4.wav,3,3,2,1,,,,,,,,,,,,,,,,,,,,,,,,,,,,,,,,,,,,,,,
,,,,,66971a9cabd2bff3e5f60595,2025-07-07_21h58.47.832,group3.4_multiperson,2023.2.2,Win32,60.24096386,686c2ebf0248f13bef9af11f,686c8e823e04a3c9ac2a5633,,,,,,,,,,,,,,,,,,,,,,,,,,,,,399.4984,1,audio/Narrative7Situation5.wav,404.5048,,404.505,412.9993,"[[999,1],[999,82],[999,165],[999,249],[999,332],[999,416],[999,499],[999,582],[999,665],[999,755],[50.3,838],[49.7,915],[49.7,998],[53.8,1088],[62.6,1172],[72.7,1249],[93.1,1755],[95.4,1832],[95.6,1914],[96.1,1998],[96.3,2081],[96.4,2164],[96.4,2248],[96.4,2331],[96.4,2415],[96.4,2497],[96.4,2581],[96.4,2664],[96.4,2747],[96.4,2830],[96.4,2914],[96.4,2997],[96.4,3080],[96.5,3170],[97.2,3252],[100,3336],[100,3413],[100,3502],[100,3580],[100,3663],[100,3746],[100,3830],[100,3913],[100,3996],[100,4079],[100,4163],[100,4253],[100,4329],[100,4413],[100,4496],[100,4579],[100,4662],[100,4746],[100,4829],[100,4912],[100,4995],[100,5079],[100,5162],[100,5251],[100,5328],[100,5412],[100,5495],[100,5578],[100,5661],[100,5745],[100,5828],[100,5911],[100,5995],[100,6079],[98.1,6167],[92.2,6251],[79.1,6334],[59.5,6418],[41.3,6500],[35.4,6584],[26,6667],[21.3,6750],[22.8,6834],[22.8,6910],[22.8,6994],[21.3,7086],[7.1,7167],[2.6,7249],[2.1,7327]]",412.9997,434.1808,100,19.2373,"[{""rating"":100,""responseTime"":19.237299999996992}]",space,20.6374,,434.181,Not at all,0,434.188,,,[],,0,14,14,14,1,audio/Narrative8Situation5.wav,audio/Narrative7Situation5.wav,audio/Narrative6Situation5.wav,audio/Narrative5Situation5.wav,2,5,2,5,,,,,,,,,,,,,,,,,,,,,,,,,,,,,,,,,,,,,,,
,,,,,66971a9cabd2bff3e5f60595,2025-07-07_21h58.47.832,group3.4_multiperson,2023.2.2,Win32,60.24096386,686c2ebf0248f13bef9af11f,686c8e823e04a3c9ac2a5633,,,,,,,,,,,,,,,,,,,,,,,,,,,,,434.1885,1,audio/Narrative7Situation6.wav,437.1949,,437.195,447.1779,"[[72.6,250],[72.6,332],[72.7,423],[72.7,499],[72.7,582],[72.7,665],[72.7,748],[72.7,832],[72.8,924],[72.8,998],[73.4,1089],[75,1172],[77.1,1255],[77.2,1331],[76.6,1423],[71,1505],[69.8,1587],[69.8,1665],[69.8,1748],[69.8,1831],[69.8,1914],[69.9,2005],[69.9,2081],[69.9,2164],[69.9,2247],[69.9,2331],[70,2414],[70,2497],[70,2580],[70,2664],[70,2747],[70,2830],[70,2913],[70,2997],[70,3080],[70,3163],[70,3247],[70,3330],[70,3413],[70,3496],[70,3580],[70,3670],[70,3746],[70,3830],[70,3913],[70,3996],[70,4079],[70,4163],[70.2,4245],[70.3,4329],[70.3,4412],[70.6,4504],[70.6,4585],[70.7,4663],[70.7,4745],[70.7,4829],[70.8,4912],[70.8,4995],[70.8,5078],[70.8,5162],[70.8,5245],[70.8,5328],[70.8,5411],[70.8,5495],[70.8,5578],[70.8,5661],[70.8,5745],[70.8,5828],[70.8,5911],[70.8,5995],[70.8,6077],[70.8,6161],[70.8,6247],[70.8,6327],[70.8,6411],[70.8,6494],[70.8,6577],[70.8,6660],[70.8,6744],[70.8,6827],[70.8,6910],[70.8,6994],[70.8,7077],[70.8,7160],[70.8,7243],[70.8,7327],[70.8,7410],[70.8,7493],[70.8,7576],[70.9,7660],[70.9,7743],[70.9,7826],[70.9,7909],[70.9,7993],[70.9,8076],[70.9,8159],[70.9,8242],[70.9,8326],[70.9,8409],[70.9,8492],[70.9,8576],[70.9,8659],[70.9,8742],[70.9,8825],[70.9,8909],[70.9,8992],[70.9,9075],[70.9,9158],[70.9,9241],[70.9,9325],[70.9,9408],[70.9,9491],[70.9,9581],[70.9,9658],[70.9,9741],[70.9,9825],[71.7,9908]]",447.1783,450.6338,99.31666271,1.6476,"[{""rating"":99.31666271427702,""responseTime"":1.6476000000089357}]",space,2.9034,,450.6339,Partially,50,450.6381,,,[],,0,15,15,15,1,audio/Narrative8Situation6.wav,audio/Narrative7Situation6.wav,audio/Narrative6Situation6.wav,audio/Narrative5Situation6.wav,2,3,2,3,,,,,,,,,,,,,,,,,,,,,,,,,,,,,,,,,,,,,,,
,,,,,66971a9cabd2bff3e5f60595,2025-07-07_21h58.47.832,group3.4_multiperson,2023.2.2,Win32,60.24096386,686c2ebf0248f13bef9af11f,686c8e823e04a3c9ac2a5633,,,,,,,,,,,,,,,,,,,,,,,,,,,,,450.6384,1,audio/Narrative7Situation7.wav,455.6464,,455.6466,472.8498,"[[100,1172],[63.9,1837],[61.4,1914],[61.4,1998],[61.3,2080],[60.2,2171],[59.8,2247],[59.8,2331],[59.8,2414],[59.8,2497],[59.8,2580],[60,2671],[64.1,2753],[85.6,2837],[92.1,2913],[93.6,3003],[98.4,3086],[100,3169],[100,3247],[100,3330],[100,3413],[100,3496],[100,3579],[100,3663],[100,3746],[100,3829],[100,3912],[100,3996],[100,4079],[100,4163],[100,4246],[100,4329],[100,4412],[100,4496],[100,4579],[100,4662],[100,4745],[100,4829],[100,4912],[100,4995],[100,5078],[100,5162],[100,5245],[100,5328],[100,5411],[100,5495],[100,5578],[100,5661],[100,5745],[100,5828],[100,5911],[100,5994],[100,6078],[100,6161],[100,6244],[100,6327],[100,6411],[100,6494],[100,6577],[100,6660],[100,6744],[100,6827],[100,6910],[100,6994],[100,7077],[100,7160],[100,7243],[100,7326],[100,7409],[100,7493],[100,7576],[100,7659],[100,7743],[100,7826],[100,7909],[100,7993],[100,8076],[100,8159],[100,8242],[100,8326],[100,8409],[100,8492],[100,8576],[100,8659],[100,8742],[100,8825],[100,8909],[100,8992],[100,9075],[100,9158],[100,9242],[100,9325],[100,9408],[100,9491],[100,9575],[100,9658],[100,9741],[100,9824],[100,9908],[100,9991],[100,10074],[100,10158],[100,10241],[100,10324],[100,10407],[100,10491],[100,10574],[100,10663],[100,10740],[100,10823],[100,10907],[100,10990],[100,11073],[100,11157],[100,11240],[100,11324],[100,11406],[100,11490],[100,11579],[97.8,11662],[95.5,11741],[97.5,11829],[98.1,11912],[98.6,11989],[98.7,12073],[100,12156],[100,12239],[100,12322],[100,12406],[100,12489],[100,12572],[100,12656],[100,12746],[100,12822],[100,12912],[100,12988],[100,13072],[100,13155],[100,13238],[100,13322],[100,13405],[100,13488],[100,13571],[100,13655],[100,13738],[100,13821],[100,13912],[100,13988],[100,14071],[100,14154],[100,14238],[100,14321],[100,14404],[100,14487],[100,14571],[100,14654],[100,14737],[100,14820],[100,14904],[100,14987],[100,15070],[100,15153],[100,15237],[100,15320],[100,15403],[100,15486],[100,15570],[100,15653],[100,15736],[100,15819],[100,15903],[100,15986],[100,16069],[100,16153],[100,16236],[100,16319],[100,16402],[100,16485],[100,16569],[100,16652],[100,16735],[100,16819],[100,16902],[100,16985],[100,17069],[100,17151]]",472.8503,475.7693,100,1.9685,"[{""rating"":98.48365798410738,""responseTime"":1.2460000000000377},{""rating"":100,""responseTime"":1.968500000000006}]",space,2.3815,,475.7695,Partially,50,475.7734,,,[],,0,16,16,16,1,audio/Narrative8Situation7.wav,audio/Narrative7Situation7.wav,audio/Narrative6Situation7.wav,audio/Narrative5Situation7.wav,3,5,5,4,,,,,,,,,,,,,,,,,,,,,,,,,,,,,,,,,,,,,,,
,,,,,66971a9cabd2bff3e5f60595,2025-07-07_21h58.47.832,group3.4_multiperson,2023.2.2,Win32,60.24096386,686c2ebf0248f13bef9af11f,686c8e823e04a3c9ac2a5633,,,,,,,,,,,,,,,,,,,,,,,,,,,,,475.7741,1,audio/Narrative7Situation8.wav,477.778,,477.778,487.8031,"[[999,0],[999,83],[999,166],[999,250],[999,333],[999,416],[999,499],[999,582],[999,683],[999,769],[999,849],[999,932],[999,1015],[999,1102],[999,1187],[999,1267],[999,1348],[999,1433],[999,1515],[999,1599],[999,1698],[999,1781],[999,1865],[999,1948],[999,2031],[999,2115],[999,2198],[999,2281],[999,2364],[999,2447],[999,2531],[999,2614],[999,2697],[999,2781],[999,2863],[999,2947],[999,3030],[999,3113],[999,3197],[999,3280],[999,3364],[999,3446],[999,3530],[999,3613],[999,3696],[999,3779],[999,3863],[999,3946],[999,4029],[999,4113],[999,4196],[999,4279],[999,4362],[999,4446],[999,4529],[999,4612],[999,4696],[999,4779],[999,4862],[999,4946],[999,5029],[999,5112],[999,5196],[999,5278],[999,5362],[999,5446],[999,5528],[999,5612],[999,5695],[999,5786],[999,5861],[999,5945],[999,6028],[999,6111],[999,6194],[999,6278],[999,6361],[999,6444],[999,6527],[999,6611],[999,6694],[999,6778],[999,6861],[999,6944],[999,7028],[999,7110],[58.9,7194],[63.6,7444],[68.5,7527],[73.6,7611],[82,7694],[97.6,7777],[100,7861],[100,7943],[100,8026],[100,8109],[100,8193],[100,8277],[100,8359],[100,8442],[100,8526],[100,8609],[100,8693],[100,8776],[100,8859],[100,8942],[100,9025],[100,9109],[100,9192],[100,9281],[100,9375],[100,9458],[100,9542],[100,9625],[100,9708],[100,9791],[100,9875],[100,9958]]",487.8035,489.7412,100,1.5043,"[{""rating"":99.52492104658364,""responseTime"":1.038499999999999},{""rating"":100,""responseTime"":1.504299999996988}]",space,1.3833,,489.7413,Partially,50,500.3773,49.85683169,8.3145,"[{""rating"":49.64857335892606,""responseTime"":6.578000000000031},{""rating"":49.856831691232685,""responseTime"":8.31450000000001}]",space,0,17,17,17,1,audio/Narrative8Situation8.wav,audio/Narrative7Situation8.wav,audio/Narrative6Situation8.wav,audio/Narrative5Situation8.wav,3,2,5,3,,,10.0944,,,,,,,,,,,,,,,,,,,,,,,,,,,,,,,,,,,,
,,,,,66971a9cabd2bff3e5f60595,2025-07-07_21h58.47.832,group3.4_multiperson,2023.2.2,Win32,60.24096386,686c2ebf0248f13bef9af11f,686c8e823e04a3c9ac2a5633,,,,,,,,,,,,,,,,,,,,,,,,,,,,,500.3784,1,audio/Narrative7Situation9.wav,502.3822,,502.3823,511.0179,"[[70.2,75],[70.3,158],[70.6,250],[70.6,325],[70.6,408],[70.6,491],[70.6,574],[70.6,658],[70.6,741],[70.6,824],[71,908],[71.9,999],[75.6,1080],[76,1157],[76.2,1248],[76.5,1326],[83,1408],[100,1665],[100,1740],[100,1823],[100,1907],[100,1991],[100,2073],[100,2156],[100,2240],[100,2323],[100,2407],[100,2489],[100,2573],[100,2656],[100,2739],[100,2823],[100,2906],[100,2989],[100,3072],[100,3156],[100,3239],[100,3322],[100,3405],[100,3489],[100,3572],[100,3655],[100,3738],[100,3829],[100,3905],[100,3994],[100,4079],[100,4155],[100,4238],[100,4322],[100,4405],[100,4488],[100,4571],[100,4654],[100,4743],[100,4821],[100,4904],[100,4987],[100,5071],[100,5154],[100,5237],[100,5320],[100,5404],[100,5492],[100,5570],[100,5653],[100,5737],[100,5820],[100,5903],[100,5987],[100,6070],[100,6153],[100,6237],[100,6320],[100,6403],[100,6486],[100,6570],[100,6653],[100,6736],[100,6819],[100,6903],[100,6986],[100,7069],[100,7152],[100,7243],[100,7319],[100,7402],[100,7486],[100,7569],[100,7652],[100,7735],[100,7819],[100,7902],[100,7985],[100,8068],[100,8152],[100,8235],[100,8319],[100,8402],[100,8484],[100,8568]]",511.0183,512.9161,100,1.6204,"[{""rating"":100,""responseTime"":1.6204000000059295}]",space,1.3507,,512.9163,Definitely yes,100,512.9236,,,[],,0,18,18,18,1,audio/Narrative8Situation9.wav,audio/Narrative7Situation9.wav,audio/Narrative6Situation9.wav,audio/Narrative5Situation9.wav,3,2,4,3,,,,,,,,,,,,,,,,,,,,,,,,,,,,,,,,,,,,,,,
,,,,,66971a9cabd2bff3e5f60595,2025-07-07_21h58.47.832,group3.4_multiperson,2023.2.2,Win32,60.24096386,686c2ebf0248f13bef9af11f,686c8e823e04a3c9ac2a5633,,,,,,,,,,,,,,,,,,,,,,,,,,,515.465,518.0452,518.069,2,audio/Narrative13Situation2.wav,518.0691,,518.0691,547.8206,"[[999,0],[999,75],[999,159],[999,242],[999,325],[999,408],[999,492],[999,575],[999,658],[999,741],[999,825],[999,908],[999,991],[999,1074],[999,1157],[999,1241],[999,1324],[999,1407],[999,1491],[999,1574],[999,1657],[999,1741],[999,1824],[999,1907],[999,1990],[999,2073],[999,2157],[999,2240],[999,2324],[999,2406],[999,2490],[999,2573],[999,2656],[999,2740],[999,2823],[999,2906],[999,2990],[999,3072],[999,3157],[999,3239],[999,3322],[999,3405],[999,3488],[999,3572],[999,3655],[999,3739],[999,3822],[999,3905],[999,3989],[999,4072],[999,4155],[999,4238],[999,4322],[999,4405],[80.3,4488],[84.5,4572],[90.7,4655],[91.6,4738],[94,4822],[97.2,4904],[100,4988],[100,5071],[100,5154],[100,5238],[100,5321],[100,5404],[100,5487],[100,5571],[100,5654],[100,5737],[100,5820],[100,5904],[100,5987],[100,6070],[100,6154],[100,6237],[100,6320],[100,6403],[100,6487],[100,6570],[100,6653],[100,6736],[100,6820],[100,6903],[100,6986],[100,7070],[100,7153],[100,7236],[100,7319],[100,7402],[100,7486],[100,7569],[100,7652],[100,7735],[100,7819],[100,7902],[100,7985],[100,8069],[100,8152],[100,8235],[100,8318],[100,8402],[100,8485],[100,8568],[100,8651],[100,8735],[100,8818],[100,8901],[100,8984],[100,9068],[100,9151],[100,9235],[100,9317],[100,9401],[100,9484],[100,9567],[100,9651],[100,9734],[100,9817],[100,9901],[100,9984],[100,10067],[100,10150],[100,10233],[100,10317],[100,10400],[100,10483],[100,10566],[100,10650],[100,10733],[100,10816],[100,10899],[100,10984],[100,11066],[100,11149],[100,11233],[100,11316],[100,11399],[100,11482],[100,11566],[100,11649],[100,11732],[100,11815],[100,11899],[100,11982],[100,12065],[100,12149],[100,12232],[100,12315],[100,12399],[100,12482],[100,12565],[100,12648],[100,12731],[100,12815],[100,12898],[100,12981],[100,13064],[100,13148],[100,13231],[100,13314],[100,13397],[100,13481],[100,13564],[100,13647],[100,13731],[100,13814],[100,13897],[100,13980],[100,14064],[100,14147],[100,14230],[100,14314],[100,14397],[100,14480],[100,14563],[100,14646],[100,14730],[100,14813],[100,14896],[100,14980],[100,15063],[100,15146],[100,15229],[100,15313],[100,15396],[100,15479],[100,15563],[100,15646],[100,15729],[100,15812],[100,15895],[100,15979],[100,16062],[100,16145],[100,16229],[100,16312],[100,16395],[100,16478],[100,16562],[100,16644],[100,16728],[100,16811],[100,16894],[100,16978],[100,17061],[100,17145],[100,17228],[100,17311],[100,17394],[100,17477],[100,17561],[100,17644],[100,17727],[100,17811],[100,17894],[100,17977],[100,18061],[100,18144],[100,18227],[100,18310],[100,18393],[100,18477],[100,18560],[100,18644],[100,18727],[100,18810],[100,18893],[100,18976],[100,19060],[100,19143],[100,19226],[100,19309],[100,19393],[100,19476],[100,19559],[100,19642],[100,19726],[100,19809],[100,19892],[100,19976],[100,20059],[100,20142],[100,20225],[100,20308],[100,20392],[100,20475],[100,20558],[100,20642],[100,20725],[100,20808],[100,20891],[100,20975],[100,21058],[100,21141],[100,21225],[100,21308],[100,21391],[100,21474],[100,21558],[100,21641],[100,21724],[100,21807],[100,21891],[100,21974],[100,22057],[100,22140],[100,22224],[100,22307],[100,22390],[100,22474],[100,22557],[100,22640],[100,22723],[100,22807],[100,22890],[100,22973],[100,23056],[100,23140],[100,23223],[100,23307],[100,23389],[100,23473],[100,23556],[100,23639],[100,23722],[100,23805],[100,23888],[100,23972],[100,24055],[100,24138],[100,24221],[100,24305],[100,24388],[100,24471],[100,24554],[100,24638],[100,24721],[100,24804],[100,24888],[100,24971],[100,25054],[100,25137],[100,25221],[100,25304],[100,25387],[100,25470],[100,25554],[100,25637],[100,25721],[100,25804],[100,25887],[100,25971],[100,26054],[100,26137],[100,26221],[100,26303],[100,26387],[100,26470],[100,26554],[100,26636],[100,26721],[100,26803],[100,26886],[100,26970],[100,27053],[100,27136],[100,27220],[100,27303],[100,27386],[100,27469],[100,27552],[100,27636],[100,27719],[100,27802],[100,27886],[100,27969],[100,28052],[100,28135],[100,28219],[100,28302],[100,28385],[100,28468],[100,28552],[100,28635],[100,28718],[100,28802],[100,28885],[100,28968],[100,29051],[100,29135],[100,29218],[100,29301],[100,29384],[100,29467],[100,29551],[100,29634],[100,29717]]",547.8209,547.8261,,,[],,,,547.8262,Not at all,0,547.8305,,,[],,0,0,0,0,1,audio/Narrative13Situation2.wav,audio/Narrative13Situation2.wav,audio/Narrative13Situation2.wav,audio/Narrative13Situation2.wav,2,2,2,2,,,,,512.9247,515.4642,space,2.0156,,,,,,,,,,,,,,,,,,,,,,,,,,,,,,,
,,,,,66971a9cabd2bff3e5f60595,2025-07-07_21h58.47.832,group3.4_multiperson,2023.2.2,Win32,60.24096386,686c2ebf0248f13bef9af11f,686c8e823e04a3c9ac2a5633,,,,,,,,,,,,,,,,,,,,,,,,,,,,,547.8308,2,audio/Narrative6Situation1.wav,549.8357,,549.8358,576.4299,"[[999,0],[999,82],[999,165],[999,249],[999,332],[999,415],[999,499],[999,582],[999,666],[999,748],[999,832],[999,915],[999,998],[999,1082],[999,1165],[999,1248],[999,1331],[999,1414],[999,1498],[999,1581],[999,1664],[999,1748],[999,1831],[999,1914],[999,1998],[999,2081],[75.7,2164],[79.9,3163],[82.8,3247],[87.2,3330],[96.3,3413],[97.4,3580],[98,3663],[99,3746],[99.3,3829],[100,3912],[100,3996],[100,4080],[100,4162],[100,4246],[100,4329],[100,4412],[100,4495],[100,4579],[100,4662],[100,4745],[100,4828],[100,4912],[100,4995],[100,5078],[100,5162],[100,5245],[100,5328],[100,5411],[100,5495],[100,5578],[100,5661],[100,5744],[100,5828],[100,5911],[100,5994],[100,6078],[100,6160],[100,6244],[100,6327],[100,6410],[100,6494],[100,6577],[100,6660],[100,6744],[100,6827],[100,6910],[100,6994],[100,7077],[100,7160],[100,7243],[100,7326],[98.7,8075],[98.7,8159],[98.7,8242],[98.7,8326],[98.7,8409],[98.7,8492],[98.7,8576],[99.4,8659],[99.7,8742],[100,8825],[100,8908],[100,8992],[100,9075],[100,9158],[100,9242],[100,9325],[100,9408],[100,9491],[100,9575],[100,9658],[100,9741],[100,9824],[100,9908],[100,9991],[100,10074],[100,10157],[100,10241],[100,10324],[100,10407],[100,10490],[100,10574],[100,10657],[100,10740],[100,10823],[100,10907],[100,10990],[100,11073],[100,11157],[100,11240],[100,11323],[100,11406],[100,11490],[100,11573],[100,11656],[100,11739],[100,11823],[100,11906],[100,11990],[100,12073],[100,12156],[100,12239],[100,12322],[100,12406],[100,12489],[100,12572],[100,12655],[100,12738],[100,12822],[100,12906],[100,12988],[100,13072],[100,13155],[100,13238],[100,13322],[100,13405],[100,13488],[100,13571],[100,13654],[100,13738],[100,13821],[100,13904],[100,13987],[100,14071],[100,14154],[100,14237],[100,14320],[100,14404],[100,14487],[100,14570],[100,14654],[100,14737],[100,14820],[100,14904],[100,14987],[100,15070],[100,15153],[100,15236],[100,15320],[100,15403],[100,15486],[100,15570],[100,15653],[100,15736],[100,15820],[100,15903],[100,15986],[100,16069],[100,16153],[100,16236],[100,16319],[100,16402],[100,16486],[100,16569],[100,16652],[100,16735],[100,16819],[100,16902],[100,16985],[100,17068],[100,17152],[100,17235],[100,17318],[100,17402],[100,17485],[100,17568],[100,17651],[100,17734],[100,17818],[100,17901],[100,17984],[100,18068],[100,18151],[100,18234],[100,18318],[100,18400],[100,18484],[100,18567],[100,18650],[100,18734],[100,18817],[100,18900],[100,18983],[100,19067],[100,19150],[100,19234],[100,19317],[100,19400],[100,19483],[100,19566],[100,19650],[100,19733],[100,19816],[100,19900],[100,19983],[100,20066],[100,20149],[100,20233],[100,20316],[100,20399],[100,20482],[100,20566],[100,20649],[100,20732],[100,20815],[100,20899],[100,20982],[100,21065],[100,21148],[100,21231],[100,21315],[100,21398],[100,21481],[100,21565],[100,21648],[100,21731],[100,21814],[100,21898],[100,21981],[100,22064],[100,22148],[100,22231],[100,22314],[100,22397],[100,22481],[100,22564],[100,22647],[100,22730],[100,22814],[100,22897],[100,22980],[100,23064],[100,23147],[100,23230],[100,23313],[100,23397],[100,23480],[100,23563],[100,23646],[100,23730],[100,23813],[100,23896],[100,23980],[100,24063],[100,24146],[100,24230],[100,24313],[100,24396],[100,24479],[100,24562],[100,24646],[100,24729],[100,24812],[100,24895],[100,24979],[100,25062],[100,25145],[100,25228],[100,25312],[100,25395],[100,25478],[100,25562],[100,25644],[100,25728],[100,25811],[100,25894],[100,25978],[100,26061],[100,26144],[100,26228],[100,26311],[100,26394],[100,26477],[100,26560]]",576.4302,579.7945,100,2.6861,"[{""rating"":100,""responseTime"":2.6861000000089916}]",space,2.8157,,579.7947,Not at all,0,579.7998,,,[],,0,1,1,1,1,audio/Narrative7Situation1.wav,audio/Narrative8Situation1.wav,audio/Narrative5Situation1.wav,audio/Narrative6Situation1.wav,2,5,5,2,,,,,,,,,,,,,,,,,,,,,,,,,,,,,,,,,,,,,,,
,,,,,66971a9cabd2bff3e5f60595,2025-07-07_21h58.47.832,group3.4_multiperson,2023.2.2,Win32,60.24096386,686c2ebf0248f13bef9af11f,686c8e823e04a3c9ac2a5633,,,,,,,,,,,,,,,,,,,,,,,,,,,,,579.8004,2,audio/Narrative6Situation2.wav,582.8084,,582.8085,611.3185,"[[999,0],[999,83],[999,166],[999,250],[999,332],[999,416],[999,499],[95.6,583],[95.5,666],[95.3,750],[95.3,832],[95.5,915],[95.8,999],[95.8,1081],[95.9,1165],[95.9,1248],[96.2,1332],[96.5,1415],[96.7,1498],[97.1,1582],[97.4,1665],[97.4,1748],[97.4,1831],[97.4,1914],[97.4,1998],[97.4,2081],[97.4,2164],[97.4,2247],[97.4,2331],[97.4,2414],[97.4,2497],[97.4,2580],[97.4,2664],[97.4,2747],[97.4,2830],[97.4,2913],[97.4,2997],[97.4,3080],[97.4,3164],[97.4,3247],[97.4,3330],[97.4,3413],[97.4,3497],[97.4,3580],[97.4,3663],[97.4,3746],[97.4,3829],[97.4,3913],[97.5,3997],[98.1,4079],[98.7,4163],[98.7,4246],[99.2,4329],[100,4413],[100,4496],[100,4579],[100,4662],[100,4745],[100,4829],[100,4912],[100,4995],[100,5078],[100,5162],[100,5245],[100,5328],[100,5412],[100,5495],[100,5578],[100,5661],[100,5745],[100,5828],[100,5911],[100,5995],[100,6078],[100,6161],[100,6244],[100,6327],[100,6411],[100,6494],[100,6577],[100,6661],[100,6744],[100,6827],[100,6910],[100,6994],[100,7077],[100,7160],[100,7243],[100,7327],[100,7410],[100,7493],[100,7577],[100,7660],[100,7743],[100,7826],[100,7909],[100,7993],[100,8076],[100,8159],[100,8243],[100,8326],[100,8409],[100,8492],[100,8576],[100,8659],[100,8742],[100,8825],[100,8909],[100,8992],[100,9075],[100,9158],[100,9242],[100,9325],[100,9408],[100,9491],[100,9575],[100,9658],[100,9741],[100,9825],[100,9908],[100,9992],[100,10074],[100,10157],[100,10241],[100,10324],[100,10407],[100,10491],[100,10574],[100,10657],[100,10741],[100,10824],[100,10907],[100,10990],[100,11073],[100,11157],[100,11240],[100,11323],[100,11407],[100,11490],[100,11573],[100,11657],[100,11740],[100,11823],[100,11906],[100,11989],[100,12073],[100,12156],[100,12239],[100,12323],[100,12406],[100,12489],[100,12572],[100,12655],[100,12739],[100,12822],[100,12905],[100,12989],[100,13072],[100,13155],[100,13239],[100,13322],[100,13405],[100,13488],[100,13572],[100,13654],[100,13738],[100,13821],[100,13904],[100,13988],[100,14071],[100,14154],[100,14237],[100,14321],[100,14404],[100,14487],[100,14571],[100,14654],[100,14737],[100,14821],[100,14904],[100,14987],[100,15070],[100,15154],[100,15237],[100,15320],[100,15403],[100,15487],[100,15570],[100,15653],[100,15736],[100,15819],[100,15903],[100,15986],[100,16070],[100,16153],[100,16236],[100,16319],[100,16402],[100,16486],[100,16569],[100,16652],[100,16735],[100,16819],[100,16902],[100,16986],[100,17069],[100,17152],[100,17235],[100,17318],[100,17401],[100,17485],[100,17568],[100,17651],[100,17735],[100,17818],[100,17901],[100,17985],[100,18068],[100,18151],[100,18234],[100,18318],[100,18401],[100,18484],[100,18567],[100,18651],[100,18734],[100,18817],[100,18900],[100,18984],[100,19067],[100,19150],[100,19234],[100,19317],[100,19400],[100,19484],[100,19567],[100,19650],[100,19733],[100,19816],[100,19900],[100,19983],[100,20066],[100,20149],[100,20233],[100,20316],[100,20399],[100,20482],[100,20566],[100,20649],[100,20732],[100,20816],[100,20899],[100,20982],[100,21065],[100,21149],[100,21232],[100,21315],[100,21398],[100,21482],[100,21565],[100,21648],[100,21731],[100,21815],[100,21898],[100,21981],[100,22065],[100,22148],[100,22231],[100,22314],[100,22397],[100,22481],[100,22564],[100,22647],[100,22731],[100,22814],[100,22897],[100,22981],[100,23064],[100,23147],[100,23230],[99.8,23313],[99.8,23397],[99.6,23480],[99.6,23563],[99.4,23646],[99.4,23729],[98.6,23813],[94.9,23896],[91.1,23979],[88.9,24062],[87.6,24146],[86.8,24229],[85.4,24313],[85.4,24396],[85.4,24479],[85.6,24563],[88,24646],[96.7,24729],[97.2,24812],[98,24895],[100,24979],[100,25062],[100,25145],[100,25229],[100,25312],[100,25395],[100,25478],[100,25562],[100,25645],[100,25728],[100,25811],[100,25895],[100,25978],[100,26061],[100,26145],[100,26228],[100,26311],[100,26394],[100,26477],[100,26561],[100,26644],[100,26727],[100,26811],[100,26894],[100,26977],[100,27060],[100,27145],[100,27227],[100,27310],[100,27394],[100,27477],[100,27560],[100,27643],[100,27726],[100,27810],[100,27893],[99.9,27976],[99.9,28059],[99.9,28143],[99.9,28226],[99.8,28309],[99.8,28392],[99.8,28476]]",611.3191,613.4834,99.52492105,0.7355,"[{""rating"":99.52492104658364,""responseTime"":0.7355000000000018}]",space,1.617,,613.4836,Not at all,0,613.4886,,,[],,0,2,2,2,1,audio/Narrative7Situation2.wav,audio/Narrative8Situation2.wav,audio/Narrative5Situation2.wav,audio/Narrative6Situation2.wav,3,3,3,3,,,,,,,,,,,,,,,,,,,,,,,,,,,,,,,,,,,,,,,
,,,,,66971a9cabd2bff3e5f60595,2025-07-07_21h58.47.832,group3.4_multiperson,2023.2.2,Win32,60.24096386,686c2ebf0248f13bef9af11f,686c8e823e04a3c9ac2a5633,,,,,,,,,,,,,,,,,,,,,,,,,,,,,613.4893,2,audio/Narrative6Situation3.wav,618.4961,,618.4964,631.1192,"[[99.1,1498],[92.1,1587],[81.6,1673],[68.4,1754],[57.3,1839],[50.4,1921],[44.6,2004],[43.9,2080],[43.9,2164],[43.9,2247],[43.9,2330],[43.9,2413],[43.9,2497],[43.9,2580],[43.8,2672],[43.8,2747],[43.8,2830],[43.8,2913],[43.8,2996],[43.8,3080],[43.8,3163],[43.8,3246],[43.8,3329],[43.8,3413],[43.8,3496],[43.8,3579],[43.8,3662],[43.8,3746],[43.8,3829],[43.8,3912],[43.8,3995],[43.8,4079],[43.8,4169],[43.8,4245],[43.8,4329],[43.8,4412],[43.8,4495],[43.8,4578],[43.8,4662],[43.8,4745],[43.8,4828],[43.8,4911],[43.8,4995],[43.8,5078],[43.8,5161],[43.8,5245],[43.8,5328],[43.8,5411],[43.8,5494],[44.9,5584],[52.5,5661],[60,5751],[61.2,5834],[61.7,5917],[65.8,6000],[73.4,6086],[82.9,6167],[94.7,6250],[95.8,6327],[97.1,6416],[97.2,6494],[97.5,6577],[97.5,6660],[97.5,6743],[97.5,6827],[97.5,6917],[97.5,6993],[97.5,7076],[97.9,7169],[98.9,7244],[99.9,7326],[100,7409],[100,7499],[100,7581],[100,7659],[100,7742],[100,7826],[100,7909],[100,7992],[100,8075],[100,8160],[100,8242],[100,8326],[100,8409],[100,8492],[100,8574],[100,8658],[100,8741],[100,8824],[100,8908],[100,8991],[100,9074],[100,9158],[100,9241],[100,9330],[100,9408],[100,9491],[100,9574],[100,9657],[100,9741],[100,9824],[100,9907],[100,9990],[100,10074],[100,10157],[100,10240],[100,10323],[100,10407],[100,10490],[100,10574],[100,10657],[100,10740],[100,10824],[100,10907],[100,10990],[100,11073],[100,11156],[100,11239],[100,11323],[100,11406],[100,11489],[100,11572],[100,11656],[100,11739],[100,11830],[100,11906],[100,11989],[100,12072],[100,12156],[100,12238],[100,12322],[100,12405],[100,12489],[100,12572]]",631.1196,633.8333,100,1.8859,"[{""rating"":100,""responseTime"":1.885900000005904}]",space,2.1728,,633.8335,Definitely yes,100,633.8399,,,[],,0,3,3,3,1,audio/Narrative7Situation3.wav,audio/Narrative8Situation3.wav,audio/Narrative5Situation3.wav,audio/Narrative6Situation3.wav,8,4,3,5,,,,,,,,,,,,,,,,,,,,,,,,,,,,,,,,,,,,,,,
,,,,,66971a9cabd2bff3e5f60595,2025-07-07_21h58.47.832,group3.4_multiperson,2023.2.2,Win32,60.24096386,686c2ebf0248f13bef9af11f,686c8e823e04a3c9ac2a5633,,,,,,,,,,,,,,,,,,,,,,,,,,,,,633.8404,2,audio/Narrative6Situation4.wav,635.8484,,635.8486,648.4715,"[[999,1],[999,82],[999,166],[999,249],[999,332],[999,416],[999,498],[999,582],[999,671],[999,749],[999,838],[999,921],[47.8,1005],[12.1,1255],[12.5,1338],[13.1,1422],[17.7,1498],[32.7,1581],[51.2,1754],[55.1,1831],[55.7,1914],[55.9,1998],[56.5,2089],[60,2170],[64.9,2254],[81.3,2336],[86.5,2422],[86.5,2496],[86.5,2580],[86.5,2671],[90.5,2754],[100,2836],[100,2913],[100,2996],[100,3080],[100,3163],[100,3247],[100,3330],[100,3413],[100,3496],[100,3579],[100,3663],[100,3746],[100,3829],[100,3913],[100,3996],[100,4079],[100,4162],[100,4246],[100,4329],[100,4412],[100,4495],[100,4579],[100,4662],[100,4745],[100,4828],[100,4912],[100,4995],[100,5078],[100,5161],[100,5245],[100,5329],[100,5411],[100,5495],[100,5578],[100,5661],[100,5744],[100,5827],[100,5911],[100,5994],[100,6077],[100,6161],[100,6244],[100,6327],[100,6410],[100,6494],[100,6577],[100,6668],[100,6743],[100,6827],[100,6910],[100,6993],[100,7077],[100,7160],[100,7243],[100,7326],[100,7409],[100,7493],[100,7576],[100,7659],[100,7742],[100,7826],[100,7909],[100,7992],[100,8076],[100,8159],[100,8242],[100,8325],[100,8408],[100,8492],[100,8575],[100,8659],[100,8742],[100,8825],[100,8908],[100,8992],[100,9075],[100,9158],[100,9242],[100,9325],[100,9408],[100,9491],[100,9575],[100,9658],[100,9741],[100,9824],[100,9908],[100,9991],[100,10074],[100,10157],[100,10240],[100,10324],[100,10413],[100,10490],[100,10574],[100,10656],[100,10740],[100,10823],[100,10907],[100,10990],[100,11073],[100,11157],[100,11240],[100,11323],[100,11407],[100,11490],[100,11573],[100,11656],[100,11739],[100,11822],[100,11905],[100,11989],[100,12078],[100,12156],[100,12239],[100,12322],[100,12405],[100,12489],[100,12572]]",648.4719,650.7696,100,1.4694,"[{""rating"":100,""responseTime"":1.469399999991083}]",space,1.7501,,650.7698,Not at all,0,650.7773,,,[],,0,4,4,4,1,audio/Narrative7Situation4.wav,audio/Narrative8Situation4.wav,audio/Narrative5Situation4.wav,audio/Narrative6Situation4.wav,3,3,1,2,,,,,,,,,,,,,,,,,,,,,,,,,,,,,,,,,,,,,,,
,,,,,66971a9cabd2bff3e5f60595,2025-07-07_21h58.47.832,group3.4_multiperson,2023.2.2,Win32,60.24096386,686c2ebf0248f13bef9af11f,686c8e823e04a3c9ac2a5633,,,,,,,,,,,,,,,,,,,,,,,,,,,,,650.7782,2,audio/Narrative6Situation5.wav,652.7841,,652.7842,660.7445,"[[77.1,174],[77.4,257],[77.4,332],[77.4,416],[77.4,499],[77.4,582],[77.4,666],[77.4,749],[77.4,832],[77.4,915],[64,999],[30,1089],[30.2,1166],[32.9,1256],[38.4,1338],[47.8,1419],[48.6,1498],[48.6,1581],[48.7,1666],[48.7,1748],[48.7,1831],[50.4,1921],[64,2006],[75.6,2087],[81.4,2171],[82.7,2248],[91.5,2337],[97.4,2421],[100,2506],[100,2581],[100,2664],[100,2748],[100,2830],[100,2914],[100,2997],[100,3080],[100,3163],[100,3247],[100,3330],[100,3413],[100,3497],[100,3580],[100,3663],[100,3746],[100,3830],[100,3915],[100,3996],[100,4079],[100,4162],[100,4246],[100,4329],[100,4413],[100,4495],[100,4579],[100,4662],[100,4746],[100,4829],[100,4912],[100,4995],[100,5079],[100,5162],[100,5245],[100,5328],[100,5412],[100,5495],[100,5578],[100,5661],[100,5745],[100,5828],[100,5911],[100,5995],[100,6078],[100,6161],[100,6244],[100,6327],[100,6410],[100,6494],[100,6577],[100,6660],[100,6744],[100,6827],[100,6911],[100,6994],[100,7077],[100,7160],[100,7244],[100,7327],[100,7410],[100,7493],[100,7577],[100,7660],[100,7743],[100,7826],[100,7909]]",660.7451,664.4081,100,2.5195,"[{""rating"":99.73317937889026,""responseTime"":1.3206999999880509},{""rating"":100,""responseTime"":2.5194999999999936}]",space,3.1223,,664.4082,Not at all,0,664.4124,,,[],,0,5,5,5,1,audio/Narrative7Situation5.wav,audio/Narrative8Situation5.wav,audio/Narrative5Situation5.wav,audio/Narrative6Situation5.wav,5,2,5,2,,,,,,,,,,,,,,,,,,,,,,,,,,,,,,,,,,,,,,,
,,,,,66971a9cabd2bff3e5f60595,2025-07-07_21h58.47.832,group3.4_multiperson,2023.2.2,Win32,60.24096386,686c2ebf0248f13bef9af11f,686c8e823e04a3c9ac2a5633,,,,,,,,,,,,,,,,,,,,,,,,,,,,,664.4129,2,audio/Narrative6Situation6.wav,666.4235,,666.4236,677.5145,"[[93.4,1005],[87,1090],[75.1,1171],[74.6,1248],[74.6,1331],[73.6,1415],[59.1,1505],[54.7,1581],[54.7,1664],[54.6,1748],[54.5,1832],[54.5,1914],[54.3,1998],[52.6,2087],[52,2170],[52,2247],[55.1,2331],[73.6,2422],[82,2503],[85.5,2581],[90.7,2671],[93.9,2752],[94.3,2831],[97,2920],[97.1,2996],[97.2,3089],[97.2,3163],[97.7,3254],[98.1,3329],[98.3,3413],[98.3,3496],[98.9,3580],[99.7,3669],[100,3752],[100,3829],[100,3912],[100,3996],[100,4079],[100,4162],[100,4245],[100,4328],[100,4412],[100,4495],[100,4578],[100,4662],[100,4748],[100,4828],[100,4912],[100,4995],[100,5078],[100,5161],[100,5244],[100,5327],[100,5411],[100,5495],[100,5584],[100,5661],[100,5744],[100,5834],[100,5911],[100,5994],[100,6077],[100,6167],[100,6249],[100,6327],[100,6410],[100,6494],[100,6577],[100,6660],[100,6744],[100,6826],[100,6910],[100,6993],[100,7077],[100,7160],[100,7243],[100,7326],[100,7410],[100,7493],[100,7576],[100,7659],[100,7743],[100,7826],[100,7909],[100,7992],[100,8076],[100,8159],[100,8242],[100,8325],[100,8409],[100,8492],[100,8575],[100,8658],[100,8742],[100,8825],[100,8908],[100,8993],[100,9075],[100,9161],[100,9248],[100,9324],[100,9408],[100,9491],[100,9575],[100,9658],[100,9741],[100,9824],[100,9908],[100,9990],[100,10074],[100,10157],[100,10240],[100,10324],[100,10407],[100,10490],[100,10574],[100,10657],[100,10740],[100,10823],[100,10907],[100,10990],[100,11073]]",677.515,680.1121,100,1.903,"[{""rating"":99.21254784765212,""responseTime"":1.2367000000028838},{""rating"":100,""responseTime"":1.9029999999999063}]",space,2.0494,,680.1122,Partially,50,680.1187,,,[],,0,6,6,6,1,audio/Narrative7Situation6.wav,audio/Narrative8Situation6.wav,audio/Narrative5Situation6.wav,audio/Narrative6Situation6.wav,3,2,3,2,,,,,,,,,,,,,,,,,,,,,,,,,,,,,,,,,,,,,,,
,,,,,66971a9cabd2bff3e5f60595,2025-07-07_21h58.47.832,group3.4_multiperson,2023.2.2,Win32,60.24096386,686c2ebf0248f13bef9af11f,686c8e823e04a3c9ac2a5633,,,,,,,,,,,,,,,,,,,,,,,,,,,,,680.1191,2,audio/Narrative6Situation7.wav,685.1258,,685.126,709.9876,"[[80.5,1004],[79.3,1080],[79.3,1163],[79.3,1247],[77.3,1336],[64.5,1420],[55.3,1502],[46.3,1587],[55.2,2335],[92.8,3252],[92.9,3329],[93.8,3419],[94.1,3495],[97.1,3585],[98.7,3661],[98.7,3745],[98.9,3829],[98.9,3911],[98.9,3995],[98.8,4080],[90.3,4163],[72.4,4250],[69,4327],[68.8,4418],[67,4501],[61.4,4578],[56.2,4667],[55.8,4746],[54.1,4835],[53.9,4910],[53.6,4994],[53,5078],[51.1,5166],[51,5246],[50.8,5333],[50.8,5410],[50.8,5493],[50.8,5576],[50.8,5659],[50.8,5743],[50.8,5826],[50.8,5910],[50.8,5993],[50.8,6076],[50.8,6159],[50.8,6244],[51.1,6334],[51.2,6409],[51.2,6492],[51.2,6575],[52.1,6666],[66,6750],[100,6999],[100,7082],[100,7159],[100,7242],[100,7325],[100,7408],[100,7491],[100,7575],[100,7658],[100,7742],[100,7824],[100,7907],[100,7991],[100,8074],[100,8164],[100,8247],[100,8830],[99.8,8907],[99.4,8993],[99.3,9080],[99.3,9157],[99.3,9241],[99.9,9324],[100,9413],[100,9490],[100,9573],[100,9656],[100,9740],[100,9823],[100,9912],[100,9989],[100,10073],[100,10156],[100,10239],[100,10323],[100,10406],[100,10489],[100,10573],[100,10655],[100,10746],[100,10822],[100,10905],[100,10989],[100,11072],[100,11155],[100,11245],[100,11322],[100,11405],[100,11488],[100,11571],[100,11654],[100,11738],[100,11822],[100,11905],[100,11988],[100,12078],[100,12154],[100,12238],[100,12321],[100,12404],[100,12487],[100,12571],[100,12654],[100,12743],[100,12820],[100,12904],[100,12987],[100,13070],[100,13154],[100,13237],[100,13320],[100,13403],[100,13487],[100,13570],[100,13653],[100,13736],[100,13819],[100,13903],[100,13986],[100,14069],[100,14153],[100,14242],[100,14320],[100,14403],[100,14486],[100,14569],[100,14652],[100,14736],[100,14819],[100,14902],[100,14985],[100,15069],[100,15152],[100,15235],[100,15318],[100,15402],[100,15485],[100,15568],[100,15652],[100,15735],[100,15818],[100,15901],[100,15985],[100,16068],[100,16151],[100,16234],[100,16318],[100,16401],[100,16484],[100,16568],[100,16650],[100,16734],[100,16817],[100,16900],[100,16984],[100,17067],[100,17150],[100,17234],[100,17317],[100,17400],[100,17483],[100,17566],[100,17650],[100,17733],[100,17816],[100,17900],[100,17983],[100,18067],[100,18149],[100,18233],[100,18317],[100,18399],[100,18483],[100,18566],[100,18649],[100,18732],[100,18815],[100,18899],[100,18982],[100,19066],[100,19149],[100,19232],[100,19315],[100,19399],[100,19482],[100,19565],[100,19648],[100,19732],[100,19815],[100,19898],[100,19981],[100,20065],[100,20148],[100,20231],[100,20315],[100,20398],[100,20481],[100,20564],[100,20648],[100,20738],[100,20814],[100,20903],[100,20987],[100,21064],[100,21147],[100,21238],[100,21313],[100,21403],[100,21486],[100,21563],[100,21647],[100,21730],[100,21813],[100,21896],[100,21980],[100,22063],[100,22146],[100,22229],[100,22313],[100,22396],[100,22479],[100,22563],[100,22646],[100,22729],[100,22812],[100,22896],[100,22979],[100,23062],[100,23145],[100,23229],[100,23312],[100,23395],[100,23479],[100,23563],[100,23645],[100,23728],[100,23812],[100,23895],[100,23978],[100,24062],[100,24145],[100,24228],[100,24311],[100,24394],[100,24477],[100,24561],[100,24644],[100,24727],[100,24810]]",709.9882,712.8683,100,2.1028,"[{""rating"":100,""responseTime"":2.102800000011939}]",space,2.3369,,712.8686,Definitely yes,100,712.8755,,,[],,0,7,7,7,1,audio/Narrative7Situation7.wav,audio/Narrative8Situation7.wav,audio/Narrative5Situation7.wav,audio/Narrative6Situation7.wav,5,3,4,5,,,,,,,,,,,,,,,,,,,,,,,,,,,,,,,,,,,,,,,
,,,,,66971a9cabd2bff3e5f60595,2025-07-07_21h58.47.832,group3.4_multiperson,2023.2.2,Win32,60.24096386,686c2ebf0248f13bef9af11f,686c8e823e04a3c9ac2a5633,,,,,,,,,,,,,,,,,,,,,,,,,,,,,712.8762,2,audio/Narrative6Situation8.wav,717.8821,,717.8821,724.7588,"[[78.7,81],[78.7,164],[78.7,248],[78.7,331],[78.7,414],[78.7,498],[78.7,581],[78.7,664],[78.7,748],[78.7,831],[78.9,914],[78.9,997],[78.9,1080],[78.9,1163],[78.9,1247],[78.9,1330],[78.9,1413],[78.9,1497],[78.9,1580],[78.9,1664],[79.3,1746],[80.2,1836],[80.3,1915],[80.3,1996],[80.3,2080],[80.3,2163],[80.3,2246],[80.3,2329],[80.3,2413],[80.3,2496],[80.8,2586],[81.2,2663],[81.7,2753],[89.3,6415],[100,6501],[100,6576],[100,6666],[98.8,6749],[98,6833]]",724.7591,733.0185,0.50110481,4.9341,"[{""rating"":0.5011048101668969,""responseTime"":4.934099999994032}]",space,7.7103,,733.0187,Definitely yes,100,733.0226,,,[],,0,8,8,8,1,audio/Narrative7Situation8.wav,audio/Narrative8Situation8.wav,audio/Narrative5Situation8.wav,audio/Narrative6Situation8.wav,2,3,3,5,,,,,,,,,,,,,,,,,,,,,,,,,,,,,,,,,,,,,,,
,,,,,66971a9cabd2bff3e5f60595,2025-07-07_21h58.47.832,group3.4_multiperson,2023.2.2,Win32,60.24096386,686c2ebf0248f13bef9af11f,686c8e823e04a3c9ac2a5633,,,,,,,,,,,,,,,,,,,,,,,,,,,,,733.023,2,audio/Narrative6Situation9.wav,737.0319,,737.032,747.014,"[[999,1],[999,82],[999,165],[999,249],[999,332],[999,416],[999,499],[999,582],[999,665],[999,748],[999,832],[999,922],[999,1007],[999,1088],[999,1171],[999,1256],[999,1339],[999,1421],[999,1504],[999,1587],[47.3,1671],[47.1,1755],[46.9,1831],[46.9,1914],[46.6,1999],[38.7,2081],[35.2,2170],[28.5,2254],[23.4,2339],[18.6,2421],[11.8,2504],[8.2,2581],[0.9,2754],[0.4,2831],[0.5,2920],[0.9,3003],[1.6,3086],[3.3,3170],[3.5,3246],[3.5,3330],[3.6,3413],[3.6,3496],[3.6,3580],[3.7,3663],[3.7,3746],[3.7,3830],[3.7,3913],[3.7,3996],[3.7,4079],[3.9,4162],[3.9,4246],[3.9,4336],[3.9,4413],[3.9,4495],[4.1,4579],[4.3,4662],[4.4,4745],[4.4,4829],[4.4,4912],[4.4,4995],[4.4,5078],[4.4,5162],[4.4,5245],[4.4,5328],[4.4,5411],[4.4,5495],[4.4,5578],[4.4,5661],[4.4,5744],[4.4,5828],[4.4,5911],[4.4,5994],[4.4,6077],[4.4,6161],[4.4,6244],[4.4,6328],[4.4,6411],[4.6,6494],[4.6,6577],[4.6,6660],[4.6,6743],[4.6,6827],[4.6,6910],[5,7002],[6.3,7078],[9.5,7166],[13.5,7250],[19.3,7327],[22.2,7416],[22.2,7493],[22.2,7576],[22.2,7659],[22.2,7743],[22.2,7826],[22.2,7909],[24.5,7993],[61.6,8582],[57,8659],[53.6,8750],[52.7,8832],[52.3,8914],[52.3,8992],[52.3,9075],[52.3,9158],[52.3,9242],[52.1,9325],[52.1,9408],[52.1,9491],[52.1,9575],[52.1,9658],[51.8,9742],[43.1,9831],[24.3,9915]]",747.0142,753.4518,0,2.9634,"[{""rating"":0.9176071752517057,""responseTime"":2.121399999991013},{""rating"":0,""responseTime"":2.963399999991111}]",space,5.8978,,753.4521,Definitely yes,100,753.4568,,,[],,0,9,9,9,1,audio/Narrative7Situation9.wav,audio/Narrative8Situation9.wav,audio/Narrative5Situation9.wav,audio/Narrative6Situation9.wav,2,3,3,4,,,,,,,,,,,,,,,,,,,,,,,,,,,,,,,,,,,,,,,
,,,,,66971a9cabd2bff3e5f60595,2025-07-07_21h58.47.832,group3.4_multiperson,2023.2.2,Win32,60.24096386,686c2ebf0248f13bef9af11f,686c8e823e04a3c9ac2a5633,,,,,,,,,,,,,,,,,,,,,,,,,,,,,753.4576,2,audio/Narrative5Situation1.wav,758.4641,,758.4643,771.7539,"[[999,1],[999,84],[999,166],[999,249],[999,332],[999,416],[999,499],[999,583],[999,666],[999,749],[999,839],[999,922],[999,999],[44.4,1081],[47.2,1172],[48.9,1248],[53.2,1339],[53.7,1415],[53.7,1498],[53.7,1581],[53.7,1664],[53.7,1748],[53.7,1831],[53.7,1915],[53.7,1997],[53.7,2081],[53.7,2164],[53.7,2247],[53.7,2331],[53.7,2414],[53.7,2497],[53.7,2580],[53.7,2664],[53.8,2747],[53.8,2830],[53.6,2914],[52.2,3003],[49.8,3087],[44.6,3170],[40.1,3253],[55.5,3420],[64.1,3503],[81.5,3586],[89.3,3663],[89.8,3747],[94.3,3830],[98.1,3919],[99.3,4002],[99.7,4079],[99.7,4162],[99.7,4245],[99.7,4329],[99.7,4412],[99.9,4496],[99.9,4579],[99.9,4662],[99.9,4746],[99.9,4828],[99.9,4912],[99.9,4995],[99.9,5079],[99.9,5162],[99.9,5245],[99.9,5329],[99.9,5411],[99.9,5495],[99.9,5578],[99.9,5661],[99.9,5745],[99.9,5828],[99.9,5911],[99.9,5995],[99.9,6077],[99.9,6161],[99.9,6244],[99.9,6328],[99.9,6411],[99.9,6494],[99.9,6578],[99.9,6660],[99.9,6744],[99.9,6827],[99.9,6910],[99.9,6994],[99.9,7083],[99.9,7160],[99.9,7243],[99.9,7326],[99.9,7410],[99.9,7493],[99.9,7576],[99.9,7660],[99.9,7743],[99.9,7826],[99.9,7909],[99.9,7993],[99.9,8079],[99.9,8159],[99.9,8242],[99.9,8326],[99.9,8409],[99.9,8492],[99.9,8576],[99.9,8666],[99.9,8742],[99.9,8825],[99.9,8908],[99.9,8992],[99.9,9075],[99.9,9158],[99.9,9241],[99.9,9325],[99.9,9408],[99.9,9491],[99.9,9575],[99.9,9658],[99.9,9742],[99.9,9825],[99.9,9908],[99.9,9991],[99.9,10074],[99.9,10157],[99.9,10241],[99.9,10324],[99.9,10407],[99.9,10491],[99.9,10574],[99.9,10657],[99.9,10740],[99.9,10824],[99.9,10907],[99.9,10990],[99.9,11073],[99.9,11157],[100,11240],[100,11323],[100,11406],[100,11490],[100,11573],[100,11656],[100,11740],[100,11823],[100,11906],[100,11990],[100,12073],[100,12156],[100,12239],[100,12323],[100,12406],[100,12489],[100,12572],[100,12656],[100,12739],[100,12822],[100,12905],[100,12989],[100,13072],[100,13155],[100,13238]]",771.7544,775.4748,100,2.086,"[{""rating"":100,""responseTime"":2.0860000000000127}]",space,3.1659,,775.4749,Partially,50,775.4803,,,[],,0,10,10,10,1,audio/Narrative8Situation1.wav,audio/Narrative7Situation1.wav,audio/Narrative6Situation1.wav,audio/Narrative5Situation1.wav,5,2,2,5,,,,,,,,,,,,,,,,,,,,,,,,,,,,,,,,,,,,,,,
,,,,,66971a9cabd2bff3e5f60595,2025-07-07_21h58.47.832,group3.4_multiperson,2023.2.2,Win32,60.24096386,686c2ebf0248f13bef9af11f,686c8e823e04a3c9ac2a5633,,,,,,,,,,,,,,,,,,,,,,,,,,,,,775.4807,2,audio/Narrative5Situation2.wav,778.4812,,778.4813,807.9571,"[[97.3,2920],[96.4,2997],[96.4,3087],[96.7,3170],[97.8,3255],[97.8,3329],[97.8,3413],[97.8,3496],[97.8,3579],[99.4,3671],[100,3746],[100,3829],[100,3920],[100,3995],[99.2,4085],[99.2,4162],[99.2,4246],[99.2,4329],[99.2,4412],[99.2,4495],[99.2,4579],[99.2,4662],[99.2,4745],[99.2,4828],[99.2,4912],[99.2,4995],[99.2,5078],[99.2,5161],[99.2,5245],[99.2,5328],[99.2,5411],[99.2,5494],[99.2,5578],[99.2,5661],[99.2,5744],[99.2,5828],[99.2,5911],[99.2,5994],[99.2,6078],[99.2,6161],[99.2,6244],[99.2,6327],[99.2,6410],[99.2,6494],[99.2,6577],[99.2,6660],[99.2,6744],[99.2,6827],[99.2,6910],[99.2,6994],[99.2,7077],[99.2,7160],[99.2,7243],[99.2,7327],[99.2,7410],[99.2,7494],[99.2,7576],[99.2,7659],[99.2,7743],[99.2,7826],[99.2,7909],[99.2,7992],[99.2,8076],[99.2,8159],[99.2,8242],[99.2,8326],[99.2,8409],[99.2,8492],[99.2,8575],[99.2,8659],[99.2,8742],[99.2,8825],[99.2,8909],[99.2,8999],[99.2,9075],[99.2,9158],[99.2,9241],[99.2,9324],[99.2,9408],[99.2,9491],[99.2,9580],[99.2,9657],[99.2,9741],[99.2,9824],[99.2,9908],[99.2,9991],[99.2,10074],[99.2,10157],[99.2,10241],[99.2,10323],[99.2,10407],[99.2,10490],[99.2,10574],[99.2,10657],[99.2,10740],[99.2,10824],[99.2,10907],[99.2,10990],[99.2,11073],[99.2,11157],[99.2,11240],[99.2,11323],[99.2,11407],[99.2,11490],[99.2,11573],[99.2,11657],[99.2,11740],[99.2,11823],[99.2,11906],[99.2,11989],[99.2,12073],[99.2,12156],[99.2,12239],[99.2,12322],[99.2,12406],[99.2,12489],[99.2,12572],[99.2,12655],[99.2,12739],[99.2,12822],[99.2,12905],[99.2,12988],[99.2,13072],[99.2,13155],[99.2,13238],[99.2,13321],[99.2,13405],[99.2,13488],[99.2,13571],[99.2,13654],[99.2,13737],[99.2,13821],[99.2,13904],[99.2,13988],[99.2,14071],[99.2,14154],[99.2,14238],[99.2,14321],[99.2,14404],[99.2,14487],[99.2,14571],[99.2,14654],[99.2,14737],[99.2,14820],[99.2,14904],[99.2,14987],[99.2,15070],[99.2,15153],[99.2,15237],[99.2,15320],[99.2,15403],[99.2,15486],[99.2,15570],[99.2,15653],[99.2,15736],[99.2,15819],[99.2,15903],[99.2,15986],[99.2,16069],[99.2,16153],[99.2,16235],[99.2,16319],[99.2,16402],[99.2,16486],[99.2,16569],[99.2,16652],[99.2,16735],[99.2,16818],[99.2,16902],[99.2,16985],[99.2,17069],[99.2,17152],[99.2,17235],[99.2,17318],[99.2,17402],[99.2,17485],[99.2,17568],[99.2,17651],[99.2,17734],[99.2,17825],[99.2,17901],[99.2,17984],[99.2,18068],[99.2,18151],[99.2,18234],[99.2,18317],[99.2,18401],[99.2,18484],[99.2,18567],[99.2,18650],[99.2,18734],[99.2,18817],[99.2,18900],[99.2,18983],[99.2,19067],[99.2,19150],[99.2,19233],[99.2,19317],[99.2,19399],[99.2,19483],[99.2,19566],[99.2,19655],[99.2,19733],[99.2,19816],[99.2,19899],[99.2,19983],[99.2,20066],[99.2,20149],[99.2,20232],[99.2,20316],[99.2,20399],[99.2,20482],[99.2,20565],[99.2,20649],[98,20740],[95.2,20815],[95.2,20899],[96.2,20991],[98,21065],[98.1,21149],[98.4,21232],[98.4,21315],[98.4,21398],[98.4,21481],[98.4,21564],[98.6,21649],[98.6,21731],[98.7,21814],[98.7,21898],[99.3,21989],[99.6,22064],[99.6,22148],[99.6,22231],[99.6,22314],[99.6,22397],[99.6,22480],[99.6,22564],[99.7,22648],[99.7,22730],[99.7,22814],[99.7,22897],[99.7,22980],[99.7,23064],[99.7,23147],[99.7,23230],[99.7,23313],[99.7,23396],[99.7,23480],[99.7,23563],[99.7,23646],[99.7,23729],[99.7,23813],[99.7,23896],[99.7,23979],[99.7,24063],[99.7,24146],[99.7,24229],[99.7,24313],[99.7,24396],[99.7,24479],[99.7,24562],[99.7,24645],[99.7,24729],[99.7,24812],[99.7,24902],[99.7,24979],[99.7,25062],[99.7,25145],[99.7,25229],[99.7,25311],[99.7,25395],[99.7,25478],[99.7,25561],[99.7,25644],[99.7,25728],[99.7,25811],[100,25894],[100,25979],[100,26061],[100,26144],[100,26228],[100,26312],[100,26394],[100,26477],[100,26560],[100,26644],[100,26727],[100,26810],[100,26894],[100,26977],[100,27060],[100,27144],[100,27227],[100,27310],[100,27394],[100,27477],[100,27560],[100,27643],[100,27726],[100,27810],[100,27893],[100,27976],[100,28059],[100,28143],[100,28226],[100,28309],[100,28393],[100,28476],[100,28559],[100,28643],[100,28726],[100,28809],[100,28892],[100,28975],[100,29058],[100,29142],[100,29225],[100,29308],[100,29391],[100,29475]]",807.9576,819.7476,99.42079188,8.0347,"[{""rating"":99.42079188043033,""responseTime"":8.034700000003}]",space,11.2424,,819.7478,Definitely yes,100,819.7567,,,[],,0,11,11,11,1,audio/Narrative8Situation2.wav,audio/Narrative7Situation2.wav,audio/Narrative6Situation2.wav,audio/Narrative5Situation2.wav,3,3,3,3,,,,,,,,,,,,,,,,,,,,,,,,,,,,,,,,,,,,,,,
,,,,,66971a9cabd2bff3e5f60595,2025-07-07_21h58.47.832,group3.4_multiperson,2023.2.2,Win32,60.24096386,686c2ebf0248f13bef9af11f,686c8e823e04a3c9ac2a5633,,,,,,,,,,,,,,,,,,,,,,,,,,,,,819.7573,2,audio/Narrative5Situation3.wav,822.7607,,822.7607,836.6665,"[[99.2,1000],[98.5,1082],[96.4,1173],[91.8,1257],[90.4,1342],[85.4,1422],[83.9,1499],[83.9,1582],[83.8,1665],[83.8,1756],[83.8,1832],[82.7,1915],[78.3,2005],[71,2088],[62.6,2172],[60.3,2248],[60.2,2339],[59.6,2422],[56.7,2504],[54.9,2582],[53.8,2665],[52.3,2754],[50.5,2839],[48.3,2921],[48.2,2998],[58,3087],[75.7,3171],[86.7,3253],[89.1,3331],[95.3,3421],[99.2,3504],[100,3581],[100,3670],[100,3747],[100,3836],[100,3921],[100,3997],[100,4085],[99.8,4164],[99.1,4247],[98.9,4330],[98.9,4413],[98.9,4496],[98.9,4579],[98.9,4663],[98.9,4746],[98.9,4829],[98.9,4913],[98.9,4996],[98.9,5079],[98.9,5162],[98.9,5245],[98.9,5329],[98.9,5412],[98.9,5502],[98.9,5579],[98.9,5662],[98.9,5745],[98.9,5829],[98.9,5912],[98.9,5995],[98.9,6079],[98.9,6161],[98.9,6245],[98.9,6328],[98.9,6411],[98.9,6495],[98.9,6578],[98.9,6661],[98.9,6744],[98.9,6828],[98.9,6911],[98.9,6995],[98.9,7078],[98.9,7161],[98.9,7244],[98.9,7327],[98.9,7411],[98.8,7495],[100,7586],[100,7666],[100,7744],[100,7827],[100,7917],[100,7993],[100,8078],[100,8167],[100,8245],[99.1,8326],[99.1,8410],[98.9,8494],[98.5,8585],[97.6,8665],[97.5,8744],[97.5,8826],[97.5,8909],[97.5,8999],[98.8,9084],[100,9166],[100,9242],[100,9326],[100,9409],[100,9492],[100,9576],[100,9659],[100,9742],[100,9825],[100,9909],[100,9992],[100,10075],[100,10158],[100,10241],[100,10325],[100,10408],[100,10491],[100,10575],[100,10658],[100,10748],[100,10824],[100,10908],[100,10991],[100,11074],[100,11158],[100,11241],[100,11324],[100,11407],[100,11491],[100,11574],[100,11657],[100,11740],[100,11824],[100,11907],[100,11996],[100,12073],[100,12157],[100,12240],[100,12323],[100,12406],[100,12490],[100,12573],[100,12656],[100,12740],[100,12823],[100,12906],[100,12989],[100,13073],[100,13156],[100,13239],[100,13322],[100,13406],[100,13489],[100,13572],[100,13655],[100,13739],[100,13822],[100,13905]]",836.6669,841.2629,100,2.5536,"[{""rating"":99.73317937889026,""responseTime"":1.9092999999970743},{""rating"":100,""responseTime"":2.5535999999940486}]",space,4.0479,,841.2631,Definitely yes,100,841.2677,,,[],,0,12,12,12,1,audio/Narrative8Situation3.wav,audio/Narrative7Situation3.wav,audio/Narrative6Situation3.wav,audio/Narrative5Situation3.wav,4,8,5,3,,,,,,,,,,,,,,,,,,,,,,,,,,,,,,,,,,,,,,,
,,,,,66971a9cabd2bff3e5f60595,2025-07-07_21h58.47.832,group3.4_multiperson,2023.2.2,Win32,60.24096386,686c2ebf0248f13bef9af11f,686c8e823e04a3c9ac2a5633,,,,,,,,,,,,,,,,,,,,,,,,,,,,,841.2683,2,audio/Narrative5Situation4.wav,842.2788,,842.279,862.6787,"[[100,2920],[100,2996],[100,3080],[100,3170],[95.9,3248],[88.4,3338],[87.7,3413],[87.6,3504],[86.4,3586],[86,3664],[79.1,3753],[71.7,3835],[68.9,3917],[62.9,4002],[59.9,4085],[56.7,4169],[53.2,4253],[53.2,4328],[42,4413],[0.1,5335],[0.3,5417],[0.3,5501],[0.1,5585],[3.2,9661],[4.1,9747],[10.3,9830],[21.5,9914],[35.6,9997],[48.7,10081],[54.9,10164],[55.5,10240],[55.5,10324],[55.6,10415],[57.1,10497],[63.5,10580],[73.4,10664],[82.4,10741],[88.4,10831],[92.2,10913],[93,10990],[94,11080],[95.9,11164],[97,11248],[99.2,11330],[100,11406],[100,11489],[100,11573],[100,11656],[100,11739],[100,11823],[100,11906],[100,11989],[100,12073],[100,12156],[100,12239],[100,12322],[100,12406],[100,12491],[100,12572],[100,12655],[100,12738],[100,12822],[100,12905],[100,12988],[100,13071],[100,13156],[100,13245],[100,13321],[99.9,13405],[99.9,13488],[99.9,13571],[99.9,13655],[99.9,13738],[99.9,13821],[99.9,13904],[99.9,13988],[99.9,14071],[99.9,14154],[99.9,14237],[99.9,14320],[99.9,14404],[99.9,14487],[99.9,14570],[99.9,14654],[99.9,14737],[99.9,14820],[99.9,14903],[99.9,14986],[99.9,15070],[99.9,15153],[99.9,15236],[99.9,15320],[99.9,15403],[99.9,15487],[99.9,15570],[99.9,15653],[99.9,15736],[100,15821],[100,15909],[100,15986],[100,16069],[100,16152],[100,16236],[100,16319],[100,16402],[100,16485],[100,16569],[100,16652],[100,16735],[100,16818],[100,16902],[100,16985],[100,17068],[100,17152],[100,17235],[100,17318],[100,17401],[100,17485],[100,17568],[100,17651],[100,17735],[100,17818],[100,17901],[100,17984],[100,18067],[100,18151],[100,18234],[100,18317],[100,18400],[100,18484],[100,18567],[100,18650],[100,18734],[100,18824],[100,18900],[100,18983],[100,19067],[100,19150],[100,19234],[100,19323],[100,19399],[100,19483],[100,19566],[100,19650],[100,19733],[100,19823],[100,19899],[100,19982],[100,20066],[100,20149],[100,20232],[100,20316],[100,20399]]",862.6791,864.5439,100,1.5208,"[{""rating"":100,""responseTime"":1.5207999999969388}]",space,1.3009,,864.544,Not at all,0,864.5514,,,[],,0,13,13,13,1,audio/Narrative8Situation4.wav,audio/Narrative7Situation4.wav,audio/Narrative6Situation4.wav,audio/Narrative5Situation4.wav,3,3,2,1,,,,,,,,,,,,,,,,,,,,,,,,,,,,,,,,,,,,,,,
,,,,,66971a9cabd2bff3e5f60595,2025-07-07_21h58.47.832,group3.4_multiperson,2023.2.2,Win32,60.24096386,686c2ebf0248f13bef9af11f,686c8e823e04a3c9ac2a5633,,,,,,,,,,,,,,,,,,,,,,,,,,,,,864.5519,2,audio/Narrative5Situation5.wav,869.5558,,869.556,884.9769,"[[999,0],[999,83],[999,166],[999,250],[999,332],[999,416],[999,500],[999,582],[999,672],[39.1,755],[33.2,839],[31,916],[31,999],[30.7,1083],[8.6,1422],[4.7,1499],[4.1,1582],[3.2,1672],[3.2,1748],[3,1832],[2.6,1921],[1.1,2006],[0.7,2087],[0.1,2171]]",884.9773,887.7913,0,1.9544,"[{""rating"":0,""responseTime"":1.9543999999910966}]",space,2.2655,,887.7915,Partially,50,895.3182,49.75269538,5.0316,"[{""rating"":49.75269537531515,""responseTime"":5.031599999994}]",space,0,14,14,14,1,audio/Narrative8Situation5.wav,audio/Narrative7Situation5.wav,audio/Narrative6Situation5.wav,audio/Narrative5Situation5.wav,2,5,2,5,,,6.9802,,,,,,,,,,,,,,,,,,,,,,,,,,,,,,,,,,,,
,,,,,66971a9cabd2bff3e5f60595,2025-07-07_21h58.47.832,group3.4_multiperson,2023.2.2,Win32,60.24096386,686c2ebf0248f13bef9af11f,686c8e823e04a3c9ac2a5633,,,,,,,,,,,,,,,,,,,,,,,,,,,,,895.3193,2,audio/Narrative5Situation6.wav,898.333,,898.3331,904.0112,"[[999,2],[999,82],[999,166],[999,248],[999,340],[999,415],[999,500],[999,582],[999,665],[999,749],[999,834],[999,921],[999,998],[999,1082],[999,1170],[999,1249],[70.9,1338],[69.1,1421],[68.8,1504],[68.5,1581],[68.5,1664],[68.3,1748],[71.5,1838],[86.2,1920],[92.7,2004],[95.5,2087],[97.1,2164],[97.4,2248],[99.8,2337],[100,2419],[100,2497],[100,2580],[100,2663],[100,2747],[100,2830],[100,2913],[100,2997],[100,3081],[100,3163],[100,3246],[100,3329],[100,3412],[100,3495],[100,3579],[100,3662],[100,3746],[100,3833],[100,3912],[100,3995],[100,4079],[100,4162],[100,4245],[100,4329],[100,4413],[100,4495],[100,4578],[100,4662],[100,4745],[100,4828],[100,4912],[100,4995],[100,5078],[100,5161],[100,5245],[100,5327],[100,5411],[100,5494],[100,5578],[100,5661]]",904.0116,906.6089,100,2.3407,"[{""rating"":100,""responseTime"":2.3406999999880327}]",space,2.0548,,906.6091,Not at all,0,906.6155,,,[],,0,15,15,15,1,audio/Narrative8Situation6.wav,audio/Narrative7Situation6.wav,audio/Narrative6Situation6.wav,audio/Narrative5Situation6.wav,2,3,2,3,,,,,,,,,,,,,,,,,,,,,,,,,,,,,,,,,,,,,,,
,,,,,66971a9cabd2bff3e5f60595,2025-07-07_21h58.47.832,group3.4_multiperson,2023.2.2,Win32,60.24096386,686c2ebf0248f13bef9af11f,686c8e823e04a3c9ac2a5633,,,,,,,,,,,,,,,,,,,,,,,,,,,,,906.6161,2,audio/Narrative5Situation7.wav,910.6271,,910.6272,931.6558,"[[999,0],[999,83],[999,161],[999,245],[999,328],[999,411],[999,494],[999,578],[999,661],[999,744],[999,828],[999,915],[45.7,1000],[53.2,1082],[54.7,1164],[54.7,1244],[55.2,1327],[49.3,1415],[32.1,1494],[18.4,1582],[17.7,1660],[17.7,1743],[17.7,1826],[23.7,1915],[87.3,2665],[87.8,2744],[89.7,2826],[93.3,3081],[99.4,3164],[100,3247],[100,3331],[100,3408],[100,3492],[100,3575],[100,3658],[100,3742],[100,3825],[100,3908],[100,3992],[100,4075],[100,4158],[100,4241],[100,4325],[100,4408],[100,4491],[100,4574],[100,4658],[100,4741],[100,4824],[100,4908],[100,4990],[100,5074],[100,5157],[100,5241],[100,5323],[100,5407],[100,5491],[100,5573],[100,5657],[100,5740],[100,5823],[100,5907],[100,5990],[100,6073],[100,6156],[100,6240],[100,6322],[100,6406],[100,6489],[100,6572],[100,6656],[100,6739],[100,6822],[100,6906],[100,6989],[100,7072],[100,7155],[100,7238],[100,7322],[100,7405],[100,7488],[100,7572],[100,7655],[100,7739],[100,7822],[100,7905],[100,7988],[100,8071],[100,8155],[100,8238],[100,8321],[100,8404],[100,8488],[100,8571],[100,8654],[100,8738],[100,8820],[100,8904],[100,8987],[100,9071],[100,9154],[100,9237],[100,9320],[100,9403],[100,9487],[100,9570],[100,9653],[100,9737],[100,9820],[100,9903],[100,9987],[100,10070],[100,10160],[100,10236],[100,10320],[100,10403],[100,10486],[100,10569],[100,10653],[100,10736],[100,10819],[100,10902],[100,10986],[100,11069],[100,11152],[100,11236],[100,11318],[100,11402],[100,11485],[100,11568],[100,11652],[100,11735],[100,11818],[100,11902],[100,11985],[100,12068],[100,12151],[100,12241],[100,12318],[100,12401],[100,12485],[100,12568],[100,12651],[100,12734],[100,12817],[100,12901],[100,12984],[100,13067],[100,13150],[100,13240],[100,13323],[100,13400],[100,13484],[100,13567],[100,13650],[100,13733],[100,13817],[100,13900],[100,13983],[100,14066],[100,14150],[100,14233],[100,14317],[100,14399],[100,14484],[100,14566],[100,14649],[100,14733],[100,14816],[100,14899],[100,14989],[100,15066],[100,15149],[100,15232],[100,15315],[100,15398],[100,15482],[100,15565],[100,15649],[100,15732],[100,15815],[100,15898],[100,15982],[100,16065],[100,16154],[100,16231],[100,16314],[100,16398],[100,16481],[100,16572],[100,16648],[100,16731],[100,16814],[100,16897],[100,16981],[100,17064],[100,17147],[100,17231],[100,17314],[100,17397],[100,17480],[100,17563],[100,17647],[100,17730],[100,17813],[100,17897],[100,17980],[100,18063],[100,18146],[100,18229],[100,18313],[100,18396],[100,18479],[100,18563],[100,18646],[100,18729],[100,18812],[100,18896],[100,18979],[100,19062],[100,19146],[100,19229],[100,19312],[100,19395],[100,19478],[100,19562],[100,19645],[100,19728],[100,19811],[100,19895],[100,19979],[100,20061],[100,20145],[100,20228],[100,20311],[100,20394],[100,20478],[100,20561],[100,20644],[100,20728],[100,20811],[100,20894],[100,20978]]",931.6565,933.8038,100,1.7196,"[{""rating"":100,""responseTime"":1.7195999999941023}]",space,1.5997,,933.8042,Definitely yes,100,933.8113,,,[],,0,16,16,16,1,audio/Narrative8Situation7.wav,audio/Narrative7Situation7.wav,audio/Narrative6Situation7.wav,audio/Narrative5Situation7.wav,3,5,5,4,,,,,,,,,,,,,,,,,,,,,,,,,,,,,,,,,,,,,,,
,,,,,66971a9cabd2bff3e5f60595,2025-07-07_21h58.47.832,group3.4_multiperson,2023.2.2,Win32,60.24096386,686c2ebf0248f13bef9af11f,686c8e823e04a3c9ac2a5633,,,,,,,,,,,,,,,,,,,,,,,,,,,,,933.812,2,audio/Narrative5Situation8.wav,936.8177,,936.818,945.6435,"[[999,1],[999,88],[999,171],[999,249],[999,338],[999,421],[999,506],[999,589],[999,671],[999,756],[999,837],[75.1,923],[75.1,998],[75.1,1081],[75.1,1165],[89.6,2504],[100,2753],[100,2830],[100,2913],[100,2996],[100,3086],[100,3163],[100,3253],[98.1,3336],[96.3,3412],[96.3,3496],[96.3,3579],[96,3663],[95.7,3746],[95.7,3829],[95.7,3912],[95.7,3996],[93.1,4085],[74.4,4169],[62,4252],[48.4,4337],[34.5,4419],[14.6,4502],[4.8,4585],[3.5,4662],[3.2,4746],[0.2,4829],[0.1,7409],[0.1,7493],[0.2,7576],[0.2,7659],[0.2,7743],[0.2,7826],[0.2,7909],[0.2,7992],[0.2,8075],[0.2,8159],[0.2,8242],[0.2,8326],[0.2,8408],[0.1,8492],[0.1,8575],[0.1,8658],[0.1,8742],[0.1,8825]]",945.6438,947.6756,0.084602445,1.222,"[{""rating"":0.08460244508208814,""responseTime"":0.22800000000006548},{""rating"":0.08460244508208814,""responseTime"":1.2220000000000937}]",space,1.4922,,947.6759,Definitely yes,100,947.6809,,,[],,0,17,17,17,1,audio/Narrative8Situation8.wav,audio/Narrative7Situation8.wav,audio/Narrative6Situation8.wav,audio/Narrative5Situation8.wav,3,2,5,3,,,,,,,,,,,,,,,,,,,,,,,,,,,,,,,,,,,,,,,
