consent.started,consent.stopped,consentResponse.keys,consentResponse.rt,consentResponse.duration,participantID,date,expName,psychopyVersion,OS,frameRate,STUDY_ID,SESSION_ID,opening1.started,opening1.stopped,keyEndingOpening1.keys,keyEndingOpening1.rt,keyEndingOpening1.duration,volumeAdjust.started,volumeAdjust.stopped,endingAdjust.keys,endingAdjust.rt,endingAdjust.duration,opening2.started,opening2.stopped,keyEndingOpening.keys,keyEndingOpening.rt,keyEndingOpening.duration,mouse.x,mouse.y,mouse.leftButton,mouse.midButton,mouse.rightButton,mouse.time,instructionLoop.thisRepN,instructionLoop.thisTrialN,instructionLoop.thisN,instructionLoop.thisIndex,instructionLoop.ran,readyForAudio.started,readyForAudio.stopped,fixation.started,run,audio_played,fixation.stopped,endPractice.keys,audioPre.started,audioPre.stopped,continuousResponses_audio,intRating.started,intRating.stopped,intQuestionSlider.response,intQuestionSlider.rt,intQuestionSlider.history,confirmResponse.keys,confirmResponse.rt,confirmResponse.duration,catchQuestion.started,catch_label,catch_value,catchQuestion.stopped,catchQuestionSlider.response,catchQuestionSlider.rt,catchQuestionSlider.history,confirmResponse_2.keys,audioRunLoop.thisRepN,audioRunLoop.thisTrialN,audioRunLoop.thisN,audioRunLoop.thisIndex,audioRunLoop.ran,conditions1_1,conditions2_1,conditions1_2,conditions2_2,dur1_1,dur2_1,dur1_2,dur2_2,endPractice.rt,endPractice.duration,confirmResponse_2.rt,confirmResponse_2.duration,runIntervalBreak.started,runIntervalBreak.stopped,endingBreakKey.keys,endingBreakKey.rt,endingBreakKey.duration,connection.started,connection.stopped,connectionEnding.keys,connectionEnding.rt,connectionEnding.duration,readyForText.started,readyForText.stopped,textPre.started,run_dup,textPre.stopped,continuousResponses_text,textRunLoop.thisRepN,textRunLoop.thisTrialN,textRunLoop.thisN,textRunLoop.thisIndex,textRunLoop.ran,text1_1,text1_2,text2_1,text2_2,runBreakText.started,runBreakText.stopped,endingBreakKey_2.keys,endingBreakKey_2.rt,endingBreakKey_2.duration,ending.started,ending.stopped,endingEnding.keys,endingEnding.rt,endingEnding.duration
0.0002,17.0545,y,16.7135,,66a48261758e59c5f2dd8ceb,2025-07-07_22h54.07.705,group3.4_multiperson,2023.2.2,Win32,59.88023952,686c2ebf0248f13bef9af11f,686c8841e8475ef4da42a883,,,,,,,,,,,,,,,,,,,,,,,,,,,,,,,,,,,,,,,,,,,,,,,,,,,,,,,,,,,,,,,,,,,,,,,,,,,,,,,,,,,,,,,,,,,,,,,,,,,,,,,,
,,,,,66a48261758e59c5f2dd8ceb,2025-07-07_22h54.07.705,group3.4_multiperson,2023.2.2,Win32,59.88023952,686c2ebf0248f13bef9af11f,686c8841e8475ef4da42a883,17.0546,18.6091,space,1.5329,,,,,,,,,,,,,,,,,,,,,,,,,,,,,,,,,,,,,,,,,,,,,,,,,,,,,,,,,,,,,,,,,,,,,,,,,,,,,,,,,,,,,,,,,,,,,,,,,,,,
,,,,,66a48261758e59c5f2dd8ceb,2025-07-07_22h54.07.705,group3.4_multiperson,2023.2.2,Win32,59.88023952,686c2ebf0248f13bef9af11f,686c8841e8475ef4da42a883,,,,,,18.6092,30.7371,space,11.7959,,,,,,,,,,,,,,,,,,,,,,,,,,,,,,,,,,,,,,,,,,,,,,,,,,,,,,,,,,,,,,,,,,,,,,,,,,,,,,,,,,,,,,,,,,,,,,,
,,,,,66a48261758e59c5f2dd8ceb,2025-07-07_22h54.07.705,group3.4_multiperson,2023.2.2,Win32,59.88023952,686c2ebf0248f13bef9af11f,686c8841e8475ef4da42a883,,,,,,,,,,,30.7395,94.6062,space,63.847,,[],[],[],[],[],[],0,0,0,0,1,,,,,,,,,,,,,,,,,,,,,,,,,,,,,,,,,,,,,,,,,,,,,,,,,,,,,,,,,,,,,,,,,,,,,,,,,,,,,,
,,,,,66a48261758e59c5f2dd8ceb,2025-07-07_22h54.07.705,group3.4_multiperson,2023.2.2,Win32,59.88023952,686c2ebf0248f13bef9af11f,686c8841e8475ef4da42a883,,,,,,,,,,,94.6068,110.1325,space,15.461,,[],[],[],[],[],[],1,0,1,0,1,,,,,,,,,,,,,,,,,,,,,,,,,,,,,,,,,,,,,,,,,,,,,,,,,,,,,,,,,,,,,,,,,,,,,,,,,,,,,,
,,,,,66a48261758e59c5f2dd8ceb,2025-07-07_22h54.07.705,group3.4_multiperson,2023.2.2,Win32,59.88023952,686c2ebf0248f13bef9af11f,686c8841e8475ef4da42a883,,,,,,,,,,,110.1331,119.0462,space,8.8803,,[],[],[],[],[],[],2,0,2,0,1,,,,,,,,,,,,,,,,,,,,,,,,,,,,,,,,,,,,,,,,,,,,,,,,,,,,,,,,,,,,,,,,,,,,,,,,,,,,,,
,,,,,66a48261758e59c5f2dd8ceb,2025-07-07_22h54.07.705,group3.4_multiperson,2023.2.2,Win32,59.88023952,686c2ebf0248f13bef9af11f,686c8841e8475ef4da42a883,,,,,,,,,,,119.0466,130.4077,space,11.3353,,[],[],[],[],[],[],3,0,3,0,1,,,,,,,,,,,,,,,,,,,,,,,,,,,,,,,,,,,,,,,,,,,,,,,,,,,,,,,,,,,,,,,,,,,,,,,,,,,,,,
,,,,,66a48261758e59c5f2dd8ceb,2025-07-07_22h54.07.705,group3.4_multiperson,2023.2.2,Win32,59.88023952,686c2ebf0248f13bef9af11f,686c8841e8475ef4da42a883,,,,,,,,,,,130.4081,139.5047,space,9.0636,,[],[],[],[],[],[],4,0,4,0,1,,,,,,,,,,,,,,,,,,,,,,,,,,,,,,,,,,,,,,,,,,,,,,,,,,,,,,,,,,,,,,,,,,,,,,,,,,,,,,
,,,,,66a48261758e59c5f2dd8ceb,2025-07-07_22h54.07.705,group3.4_multiperson,2023.2.2,Win32,59.88023952,686c2ebf0248f13bef9af11f,686c8841e8475ef4da42a883,,,,,,,,,,,139.5056,147.7007,space,8.1665,,[],[],[],[],[],[],5,0,5,0,1,,,,,,,,,,,,,,,,,,,,,,,,,,,,,,,,,,,,,,,,,,,,,,,,,,,,,,,,,,,,,,,,,,,,,,,,,,,,,,
,,,,,66a48261758e59c5f2dd8ceb,2025-07-07_22h54.07.705,group3.4_multiperson,2023.2.2,Win32,59.88023952,686c2ebf0248f13bef9af11f,686c8841e8475ef4da42a883,,,,,,,,,,,,,,,,,,,,,,,,,,,147.7029,150.2834,150.2984,1,audio/Narrative13Situation2.wav,152.2993,,152.2996,182.0581,"[[999,2],[999,89],[999,165],[999,253],[999,339],[999,415],[999,498],[999,582],[999,665],[999,749],[999,832],[999,916],[999,1004],[999,1081],[999,1170],[999,1253],[999,1336],[999,1420],[999,1503],[999,1586],[999,1665],[999,1748],[999,1831],[999,1915],[999,2002],[999,2086],[999,2164],[999,2247],[999,2330],[999,2414],[999,2498],[999,2581],[999,2664],[999,2747],[999,2836],[999,2920],[50.4,3002],[50.2,3081],[49.9,3164],[49.9,3252],[49.9,3330],[49.7,3414],[49.7,3497],[49.7,3585],[49.7,3664],[49.7,3747],[49.7,3830],[49.7,3918],[49.7,3997],[49.7,4080],[49.7,4163],[49.7,4247],[49.7,4330],[52.1,4419],[52.4,4497],[52.9,4580],[54.1,4663],[54.9,4751],[56.3,4835],[58.3,4918],[59.1,4996],[59.3,5080],[59.7,5164],[59.9,5251],[60.2,5334],[60.3,5413],[60.7,5502],[62.5,5584],[63.8,5668],[64.1,5751],[64.6,5830],[64.7,5913],[64.7,5999],[64.7,6079],[64.7,6167],[64.7,6252],[63.2,6334],[61.8,6417],[61.7,6500],[61.7,6584],[61.5,6662],[61.5,6751],[61.5,6834],[61.5,6917],[61.4,7000],[61,7080],[59.9,7162],[59.6,7251],[59.5,7329],[59.5,7417],[59.5,7495],[59.5,7579],[59.5,7668],[59.5,7745],[59.5,7833],[59.5,7912],[59.5,8000],[59.5,8082],[59.5,8167],[59.5,8245],[59.5,8333],[59.5,8416],[59.5,8495],[59.5,8578],[59.5,8666],[59.5,8750],[59.5,8828],[59.5,8912],[59.5,8995],[62.7,9078],[66.3,9161],[68.2,9250],[72.6,9328],[77.4,9416],[80.6,9494],[85.2,9578],[88,9666],[89.4,9747],[89.7,9828],[89.7,9915],[90.3,9994],[92,10078],[93.8,10165],[95.9,10251],[96.5,10332],[96.5,10415],[96.5,10498],[95.7,10578],[94.9,10661],[94.8,10744],[94.6,10827],[94.6,10911],[94.6,10994],[94.6,11077],[94.6,11165],[94.6,11249],[94.6,11332],[94.6,11411],[94.6,11499],[94.6,11580],[94.6,11666],[94.6,11749],[94.6,11827],[94.6,11916],[94.6,11998],[94.6,12078],[94.6,12165],[94.6,12243],[94.6,12327],[94.6,12410],[94.6,12493],[94.6,12581],[94.6,12665],[94.6,12743],[94.6,12832],[94.6,12910],[94.6,12993],[94.6,13082],[94.6,13165],[94.6,13243],[94.6,13331],[94.6,13410],[94.6,13493],[94.6,13581],[94.6,13660],[94.6,13743],[94.6,13830],[94.6,13914],[94.6,13998],[94.6,14076],[94.6,14161],[94.6,14248],[94.6,14326],[94.6,14413],[94.6,14498],[94.6,14581],[94.6,14663],[94.6,14747],[94.6,14826],[94.6,14909],[94.6,14992],[94.6,15076],[94.6,15165],[94.6,15248],[94.6,15325],[94.6,15409],[94.6,15492],[94.6,15581],[94.6,15658],[94.6,15747],[94.6,15831],[94.6,15912],[94.6,15992],[94.6,16079],[93,16163],[82.5,16247],[79.9,16331],[79.8,16413],[79.8,16492],[72.1,16581],[62.3,16658],[54.2,16747],[45.8,16825],[39.2,16914],[37,16997],[36.7,17081],[36.5,17158],[36.4,17242],[36,17325],[36,17408],[36,17491],[36,17579],[36,17663],[36,17746],[34.8,17830],[34,17913],[33.5,17991],[33.2,18074],[32.6,18158],[32,18246],[31.8,18330],[31.4,18408],[30.4,18496],[29.8,18579],[29.5,18662],[29.5,18740],[29.5,18824],[29.5,18912],[29.5,18996],[29.5,19080],[29.5,19162],[29.5,19241],[29.5,19329],[29.5,19411],[29.5,19495],[28.6,19579],[28.4,19657],[28.4,19746],[28.4,19824],[28.4,19907],[28.4,19995],[28.4,20074],[28.4,20157],[28.4,20240],[28.4,20328],[28.4,20412],[28.4,20495],[28.4,20574],[28.4,20657],[28.4,20740],[28.4,20827],[28.4,20912],[28.4,20990],[28.4,21079],[28.4,21157],[28.4,21240],[28.4,21323],[28.4,21406],[28.4,21490],[28.4,21578],[28.4,21656],[28.4,21741],[28.4,21823],[28.4,21912],[28.4,21990],[28.4,22078],[25.5,22156],[23.5,22245],[23.2,22328],[22.7,22411],[21.7,22495],[21.1,22572],[21,22661],[21,22739],[21,22827],[21,22906],[21,22989],[21,23073],[21.4,23161],[24.4,23239],[31.5,23323],[40.2,23406],[44.9,23494],[49.4,23578],[52.3,23661],[54.6,23739],[58,23827],[61.3,23911],[62.2,23988],[62.4,24072],[62.4,24155],[63.4,24243],[64.1,24328],[64.2,24411],[64.2,24493],[64.2,24576],[64.2,24655],[64.2,24742],[64.2,24821],[64.2,24911],[64.2,24988],[64.2,25077],[64.2,25161],[64.2,25244],[64.2,25322],[64.2,25405],[64.2,25488],[64.2,25576],[64.2,25659],[64.2,25743],[64.2,25825],[64.2,25904],[64.2,25988],[64.2,26077],[64.2,26160],[64.2,26238],[64.2,26326],[64.2,26410],[64.2,26491],[64.2,26571],[64.2,26654],[65.2,26738],[66.3,26821],[67.2,26910],[67.7,26992],[68.1,27075],[70,27154],[72.7,27242],[74.8,27325],[75.3,27404],[76.1,27492],[76.5,27570],[78.1,27659],[80.6,27742],[84.7,27824],[87.5,27909],[87.8,27987],[88.1,28070],[88.3,28154],[88.6,28237],[89.1,28325],[89.6,28404],[90,28492],[90,28570],[90,28653],[90,28737],[90,28820],[90,28903],[90,28986],[90,29070],[90,29153],[90,29236],[90,29320],[90,29403],[90,29486],[90,29570],[90,29658],[90,29736]]",182.0584,188.9507,53.85416985,4.9528,"[{""rating"":53.854169845581055,""responseTime"":4.952800000071505}]",space,6.3383,,188.9511,Partially,50,188.9555,,,[],,0,0,0,0,1,audio/Narrative13Situation2.wav,audio/Narrative13Situation2.wav,audio/Narrative13Situation2.wav,audio/Narrative13Situation2.wav,2,2,2,2,,,,,,,,,,,,,,,,,,,,,,,,,,,,,,,,,,,,,,,
,,,,,66a48261758e59c5f2dd8ceb,2025-07-07_22h54.07.705,group3.4_multiperson,2023.2.2,Win32,59.88023952,686c2ebf0248f13bef9af11f,686c8841e8475ef4da42a883,,,,,,,,,,,,,,,,,,,,,,,,,,,,,188.9558,1,audio/Narrative7Situation1.wav,190.6167,space,190.6167,246.5103,"[[999,0],[999,87],[999,171],[999,253],[999,332],[999,415],[999,504],[999,582],[999,665],[999,748],[999,832],[999,916],[999,1003],[999,1087],[53.6,1165],[53.6,1253],[52.9,1337],[51.4,1419],[51,1499],[51,1581],[51,1670],[51,1748],[51,1832],[51,1915],[51,1998],[51,2086],[51,2164],[51,2248],[51,2331],[51,2414],[51,2498],[51,2581],[51,2664],[50.9,2748],[50.8,2831],[50.8,2914],[50.7,2997],[50.7,3081],[50.7,3164],[50.7,3248],[50.7,3331],[50.7,3414],[50.7,3497],[50.7,3581],[50.7,3664],[50.7,3753],[50.7,3834],[50.7,3914],[50.7,3997],[52.9,4085],[56.6,4169],[60,4252],[60.6,4336],[61.4,4414],[65.3,4501],[67.5,4583],[68.4,4668],[69,4752],[70.3,4836],[70.8,4919],[72.1,4997],[72.6,5086],[72.8,5164],[72.8,5251],[72.8,5330],[72.8,5416],[72.8,5502],[72.8,5584],[72.8,5668],[72.8,5747],[72.8,5830],[72.8,5919],[72.8,5997],[72.8,6080],[72.8,6163],[72.8,6252],[72.8,6335],[72.8,6413],[72.8,6496],[72.8,6579],[72.8,6668],[72.8,6750],[72.8,6829],[72.8,6916],[72.8,6996],[72.8,7080],[72.8,7168],[72.8,7246],[72.8,7335],[72.8,7417],[72.8,7496],[72.8,7584],[72.8,7668],[72.8,7746],[72.8,7829],[72.8,7912],[72.8,7996],[72.8,8079],[72.8,8162],[72.8,8245],[72.8,8334],[72.8,8414],[72.8,8500],[72.8,8579],[72.8,8662],[72.9,8750],[73,8834],[73.1,8912],[73.4,8995],[73.8,9084],[73.8,9162],[73.8,9245],[74.1,9328],[74.1,9417],[74.3,9500],[74.3,9584],[74.4,9662],[74.7,9745],[74.7,9833],[74.8,9911],[74.9,10000],[75.3,10078],[78,10161],[81.3,10250],[82.1,10328],[82.5,10411],[82.6,10494],[82.6,10582],[82.6,10661],[82.6,10744],[82.6,10828],[82.4,10917],[82.1,11001],[82,11084],[82,11166],[82,11249],[82,11327],[82,11411],[82,11494],[82,11577],[82,11661],[82,11744],[82,11827],[82.5,11911],[83.6,11999],[84.1,12078],[84.3,12167],[84.9,12244],[85.3,12333],[85.3,12411],[85.5,12494],[85.8,12577],[85.9,12665],[85.9,12744],[85.9,12827],[85.9,12916],[85.9,12994],[85.9,13077],[85.9,13166],[85.9,13244],[85.9,13327],[85.9,13415],[85.9,13495],[85.9,13581],[85.9,13665],[85.9,13744],[85.9,13827],[86,13915],[85.9,13998],[85.7,14077],[85.7,14160],[85.7,14243],[85.7,14332],[85.7,14415],[85.7,14493],[85.7,14582],[85.7,14659],[85.7,14743],[85.7,14826],[85.7,14915],[85.7,14994],[85.7,15076],[85.7,15165],[85.7,15243],[85.7,15331],[85.7,15410],[85.7,15493],[85.7,15581],[85.7,15659],[85.7,15743],[85.7,15826],[85.7,15909],[85.7,15998],[85.7,16076],[85.7,16159],[85.7,16242],[85.7,16325],[85.7,16409],[85.7,16492],[85.7,16580],[85.7,16659],[85.7,16742],[85.7,16831],[85.7,16909],[85.7,16996],[85.7,17076],[85.7,17158],[85.7,17246],[85.7,17329],[85.7,17408],[85.7,17496],[85.7,17580],[85.7,17663],[85.7,17747],[85.4,17830],[85.1,17914],[84.9,17992],[84.9,18080],[84.9,18162],[84.8,18247],[84.6,18325],[84.5,18414],[84.5,18497],[84.5,18575],[84.5,18658],[84.5,18741],[84.5,18824],[84.5,18908],[84.5,18991],[84.5,19075],[83.8,19158],[75,19246],[58.2,19330],[34.3,19745],[32,19824],[31.3,19913],[42.8,19996],[54.4,20079],[57.9,20163],[59.9,20241],[63,20329],[63.6,20407],[64.8,20496],[67.2,20579],[67.8,20662],[68.4,20740],[69.2,20828],[69.4,20912],[69.4,20990],[69.4,21074],[69.4,21157],[69.4,21241],[69.4,21324],[69.4,21407],[69.4,21490],[69.4,21574],[69.4,21657],[69.4,21745],[69.6,21824],[69.7,21906],[69.7,21990],[69.7,22078],[70,22161],[70.2,22245],[70.3,22324],[71.3,22412],[71.6,22490],[71.6,22578],[71.6,22656],[71.9,22745],[72.2,22823],[72.9,22911],[73.1,22995],[74.1,23078],[75,23161],[75,23245],[75.2,23324],[75.2,23406],[75.2,23489],[75.2,23578],[75.2,23661],[76.8,23739],[77.8,23828],[78.1,23906],[78.1,23989],[78.4,24078],[78.8,24161],[78.8,24239],[79.4,24327],[79.6,24411],[79.7,24488],[80,24577],[80,24661],[80.2,24739],[80.2,24822],[80.2,24910],[80.2,24988],[80.2,25072],[80.2,25155],[80.3,25238],[81.5,25326],[81.9,25405],[81.9,25488],[81.9,25572],[81.9,25660],[81.9,25738],[81.9,25822],[81.9,25909],[81.9,25994],[81.9,26071],[81.9,26155],[81.9,26242],[81.9,26322],[81.9,26405],[81.9,26488],[81.9,26577],[81.9,26660],[81.9,26742],[81.9,26821],[81.9,26905],[81.9,26988],[81.9,27071],[81.9,27154],[81.9,27238],[81.9,27321],[81.9,27409],[81.9,27492],[81.9,27571],[81.9,27654],[81.9,27737],[81.9,27825],[81.9,27905],[81.9,27992],[81.9,28071],[81.9,28158],[81.9,28243],[81.9,28325],[81.9,28404],[81.9,28488],[81.9,28570],[81.9,28654],[81.9,28742],[81.9,28821],[81.9,28904],[81.9,28987],[81.9,29070],[81.9,29154],[81.9,29237],[81.9,29326],[81.9,29409],[81.9,29487],[81.9,29576],[81.9,29654],[81.9,29739],[81.9,29820],[81.9,29908],[81.9,29989],[81.9,30070],[81.9,30158],[81.9,30240],[81.9,30320],[81.9,30408],[81.9,30486],[81.9,30569],[81.9,30653],[81.9,30736],[81.9,30819],[81.9,30908],[81.9,30986],[81.9,31070],[81.9,31157],[81.9,31236],[81.9,31319],[81.9,31403],[81.9,31486],[81.9,31574],[81.9,31653],[81.9,31736],[81.9,31819],[81.9,31903],[81.9,31990],[81.9,32069],[81.9,32152],[81.9,32236],[81.9,32324],[81.9,32402],[81.9,32486],[81.9,32569],[81.9,32657],[81.9,32735],[81.7,32823],[81.4,32907],[81.4,32985],[81.4,33068],[81.1,33157],[81,33240],[80.9,33319],[80.8,33402],[80.8,33490],[80.8,33568],[80.8,33656],[80.8,33735],[80.8,33818],[80.8,33907],[80.8,33989],[80.8,34074],[80.8,34152],[81.5,34235],[83.2,34318],[85.6,34407],[86.8,34491],[88,34574],[90.1,34657],[91.9,34740],[94.3,34823],[96.5,34907],[98.2,34990],[100,35073],[100,35157],[100,35239],[100,35318],[100,35407],[100,35490],[100,35573],[100,35655],[100,35734],[100,35817],[100,35901],[100,35985],[100,36073],[100,36151],[100,36234],[100,36323],[100,36400],[100,36485],[100,36567],[100,36651],[100,36738],[100,36821],[100,36900],[100,36985],[100,37067],[100,37151],[100,37238],[100,37317],[100,37405],[100,37484],[100,37567],[100,37655],[100,37738],[100,37816],[100,37900],[100,37983],[100,38070],[100,38156],[100,38234],[100,38323],[100,38400],[100,38483],[100,38566],[100,38655],[100,38733],[100,38822],[100,38905],[100,38983],[100,39066],[100,39155],[100,39233],[100,39316],[100,39405],[100,39483],[100,39566],[100,39649],[100,39733],[100,39816],[100,39899],[100,39982],[100,40066],[100,40153],[100,40238],[100,40316],[100,40399],[100,40482],[100,40566],[100,40653],[100,40732],[100,40815],[100,40904],[100,40982],[100,41065],[100,41154],[100,41232],[100,41320],[100,41404],[100,41482],[100,41565],[100,41648],[100,41732],[100,41820],[100,41903],[100,41982],[100,42070],[100,42154],[100,42231],[100,42315],[100,42404],[100,42487],[100,42569],[100,42648],[100,42731],[100,42815],[100,42898],[100,42981],[100,43070],[100,43152],[100,43232],[100,43315],[100,43398],[100,43487],[100,43570],[100,43653],[100,43731],[100,43819],[100,43903],[100,43981],[100,44065],[100,44154],[100,44231],[100,44315],[100,44397],[100,44486],[100,44565],[100,44647],[100,44734],[100,44814],[100,44897],[100,44981],[100,45064],[100,45147],[100,45235],[100,45319],[100,45403],[100,45480],[100,45564],[100,45647],[100,45736],[100,45814],[100,45897],[100,45985],[100,46063],[100,46151],[100,46235],[100,46314],[100,46397],[100,46484],[100,46563],[100,46652],[100,46730],[100,46813],[100,46896],[100,46980],[100,47063],[100,47146],[100,47235],[100,47318],[100,47401],[100,47485],[100,47567],[100,47646],[100,47736],[100,47812],[100,47901],[100,47979],[100,48063],[100,48151],[100,48235],[100,48317],[100,48396],[100,48479],[100,48568],[100,48650],[100,48729],[100,48817],[100,48899],[100,48984],[100,49063],[100,49145],[100,49229],[100,49312],[100,49401],[100,49479],[100,49563],[100,49645],[100,49734],[100,49812],[100,49900],[100,49981],[100,50066],[100,50150],[100,50229],[100,50317],[100,50395],[100,50484],[100,50562],[100,50645],[100,50728],[100,50811],[100,50899],[100,50978],[100,51061],[100,51145],[100,51228],[100,51317],[100,51395],[100,51482],[100,51561],[100,51645],[100,51732],[100,51816],[100,51895],[100,51978],[100,52061],[100,52145],[100,52227],[100,52311],[100,52395],[100,52477],[100,52566],[100,52645],[100,52728],[100,52816],[100,52894],[100,52977],[100,53066],[100,53144],[100,53227],[100,53311],[100,53398],[100,53482],[100,53566],[100,53644],[100,53727],[100,53816],[100,53894],[100,53981],[100,54060],[100,54143],[100,54232],[100,54310],[100,54393],[100,54476],[100,54560],[100,54648],[100,54726],[100,54815],[100,54893],[100,54981],[100,55066],[100,55149],[100,55226],[100,55316],[100,55393],[100,55476],[100,55560],[100,55646],[100,55732],[100,55809],[100,55893]]",246.5107,249.1594,87.60416985,2.1022,"[{""rating"":87.60416984558105,""responseTime"":2.102199999928473}]",space,2.1285,,249.1595,Not at all,0,249.1624,,,[],,0,1,1,1,1,audio/Narrative7Situation1.wav,audio/Narrative8Situation1.wav,audio/Narrative5Situation1.wav,audio/Narrative6Situation1.wav,2,5,5,2,1.6375,,,,,,,,,,,,,,,,,,,,,,,,,,,,,,,,,,,,,,
,,,,,66a48261758e59c5f2dd8ceb,2025-07-07_22h54.07.705,group3.4_multiperson,2023.2.2,Win32,59.88023952,686c2ebf0248f13bef9af11f,686c8841e8475ef4da42a883,,,,,,,,,,,,,,,,,,,,,,,,,,,,,249.1625,1,audio/Narrative7Situation2.wav,252.1749,,252.175,259.6717,"[[999,0],[999,82],[999,166],[999,248],[999,337],[999,420],[999,503],[999,586],[999,665],[999,748],[999,831],[999,915],[47,1003],[47.4,1087],[49.3,1169],[49.7,1253],[49.7,1331],[49.7,1419],[49.7,1498],[49.7,1581],[49.7,1664],[49.7,1748],[49.7,1832],[49.7,1919],[49.7,2002],[49.7,2081],[49.7,2165],[49.7,2248],[49.7,2331],[49.7,2420],[50.9,2498],[54.8,2581],[55.8,2670],[55.9,2747],[55.9,2835],[55.9,2919],[55.9,2997],[55.9,3086],[55.9,3164],[59.9,3252],[66.7,3336],[72.5,3419],[78.9,3497],[90.9,3586],[100,3668],[100,3752],[100,3831],[100,3914],[100,3997],[100,4080],[100,4168],[100,4247],[100,4335],[100,4419],[100,4502],[100,4581],[100,4663],[100,4752],[100,4830],[100,4913],[100,4997],[100,5084],[100,5168],[100,5247],[100,5330],[100,5413],[100,5502],[100,5580],[100,5663],[100,5746],[100,5830],[100,5917],[100,5996],[100,6080],[100,6163],[100,6246],[100,6334],[100,6417],[100,6496],[100,6579],[100,6663],[100,6750],[100,6829],[100,6916],[100,7000],[100,7084],[100,7163],[100,7251],[100,7329],[100,7417],[100,7496]]",259.6719,262.9924,98.85416985,2.3379,"[{""rating"":98.85416984558105,""responseTime"":2.337899999976173}]",space,2.7819,,262.9925,Not at all,0,262.9951,,,[],,0,2,2,2,1,audio/Narrative7Situation2.wav,audio/Narrative8Situation2.wav,audio/Narrative5Situation2.wav,audio/Narrative6Situation2.wav,3,3,3,3,,,,,,,,,,,,,,,,,,,,,,,,,,,,,,,,,,,,,,,
,,,,,66a48261758e59c5f2dd8ceb,2025-07-07_22h54.07.705,group3.4_multiperson,2023.2.2,Win32,59.88023952,686c2ebf0248f13bef9af11f,686c8841e8475ef4da42a883,,,,,,,,,,,,,,,,,,,,,,,,,,,,,262.9955,1,audio/Narrative7Situation3.wav,271.0048,,271.0048,280.2835,"[[999,0],[999,78],[999,161],[999,245],[999,328],[999,411],[999,499],[999,580],[999,661],[999,744],[999,832],[999,911],[999,994],[999,1082],[999,1166],[999,1249],[999,1332],[999,1415],[999,1494],[999,1577],[999,1666],[999,1744],[999,1827],[999,1914],[999,1997],[999,2080],[50.1,2165],[48.9,2248],[45.7,2327],[42.4,2415],[41.5,2494],[39.2,2577],[36,2660],[35.9,2743],[35.9,2832],[35.9,2910],[35.9,2998],[35.9,3077],[35.9,3160],[35.9,3243],[35.9,3327],[36.3,3410],[36.7,3498],[37.2,3577],[37.6,3659],[37.7,3748],[37.8,3831],[38.1,3914],[38.4,3998],[38.6,4076],[38.6,4164],[38.6,4243],[38.6,4329],[38.6,4409],[38.6,4493],[38.6,4576],[38.6,4659],[38.6,4747],[38.6,4831],[38.6,4914],[40,4998],[40.8,5080],[42,5159],[48.6,5247],[61.8,5331],[71.6,5409],[72.1,5495],[73.2,5580],[76.8,5664],[79.9,5748],[88.1,5831],[93.3,5914],[93.8,5992],[93.8,6075],[93.6,6164],[93.3,6246],[93.2,6325],[93.2,6409],[93.2,6492],[93,6575],[93,6658],[93,6742],[93,6825],[93,6908],[93,6997],[93,7075],[93,7158],[93,7244],[93,7330],[93,7413],[93,7496],[93,7575],[93,7663],[93,7741],[93,7825],[93,7908],[93,7996],[93,8080],[93,8158],[93,8241],[93,8329],[93,8408],[93,8491],[93,8574],[93,8661],[93,8741],[93,8829],[93,8908],[93,8991],[93,9079],[93,9163],[93,9246]]",280.2837,282.9784,57.08333969,2.3305,"[{""rating"":57.0833396911621,""responseTime"":2.330500000000029}]",space,2.1511,,282.9784,Partially,50,282.9812,,,[],,0,3,3,3,1,audio/Narrative7Situation3.wav,audio/Narrative8Situation3.wav,audio/Narrative5Situation3.wav,audio/Narrative6Situation3.wav,8,4,3,5,,,,,,,,,,,,,,,,,,,,,,,,,,,,,,,,,,,,,,,
,,,,,66a48261758e59c5f2dd8ceb,2025-07-07_22h54.07.705,group3.4_multiperson,2023.2.2,Win32,59.88023952,686c2ebf0248f13bef9af11f,686c8841e8475ef4da42a883,,,,,,,,,,,,,,,,,,,,,,,,,,,,,282.9813,1,audio/Narrative7Situation4.wav,285.9943,,285.9944,297.7232,"[[56.5,1254],[54.9,1337],[53.6,1420],[52,1504],[51.1,1581],[50.4,1670],[50,1748],[49.8,1836],[49.8,1915],[49.8,2003],[49.8,2088],[49.8,2170],[49.8,2248],[49.8,2336],[49.8,2419],[49.8,2499],[49.8,2586],[49.8,2665],[49.8,2748],[49.8,2831],[49.8,2914],[49.8,2998],[49.8,3081],[50,3164],[54.9,3248],[57.4,3331],[59.4,3420],[60.9,3500],[63.1,3586],[65.1,3668],[65.6,3753],[65.8,3835],[65.8,3914],[65.8,4002],[62.6,4085],[60.2,4169],[56.3,4247],[54.2,4336],[53,4420],[51.5,4502],[51,4580],[50.4,4663],[50.2,4752],[50.2,4830],[50.2,4919],[50.2,4997],[38,5080],[28.5,5163],[26.5,5251],[25.1,5336],[17.6,5413],[11.5,5497],[10.2,5580],[10.2,5663],[10.2,5752],[10.2,5835],[10,5913],[9.2,6002],[9,6085],[8.6,6163],[7.6,6246],[6.5,6336],[5.4,6413],[4.6,6497],[4.2,6585],[3.5,6663],[2.9,6750],[2.4,6835],[2.3,6913],[2.1,7001],[1.9,7079],[1.4,7162],[0.9,7246],[0.8,7335],[0.5,7413],[0.3,10000],[0.6,10078],[1.3,10167],[2.1,10251],[2.6,10329],[3.1,10417],[3.3,10500],[3.6,10581],[4.6,10667],[5,10744],[5.2,10828],[5.2,10911],[5.2,10995],[5.2,11083],[5.2,11161],[5.2,11249],[5.2,11328],[17.2,11416],[31.4,11500],[35.1,11579],[39,11666]]",297.7235,300.3947,6.875,2.3446,"[{""rating"":6.874999999999998,""responseTime"":2.3445999999046307}]",space,2.1284,,300.3948,Partially,50,304.3407,49.79166985,3.5817,"[{""rating"":49.791669845581055,""responseTime"":3.5816999999284462}]",space,0,4,4,4,1,audio/Narrative7Situation4.wav,audio/Narrative8Situation4.wav,audio/Narrative5Situation4.wav,audio/Narrative6Situation4.wav,3,3,1,2,,,3.4152,,,,,,,,,,,,,,,,,,,,,,,,,,,,,,,,,,,,
,,,,,66a48261758e59c5f2dd8ceb,2025-07-07_22h54.07.705,group3.4_multiperson,2023.2.2,Win32,59.88023952,686c2ebf0248f13bef9af11f,686c8841e8475ef4da42a883,,,,,,,,,,,,,,,,,,,,,,,,,,,,,304.3412,1,audio/Narrative7Situation5.wav,309.3508,,309.3509,317.8689,"[[49.6,1837],[49.6,1915],[49.6,2003],[49.6,2088],[49.6,2165],[49.7,2248],[49.7,2333],[49.7,2419],[49.7,2504],[49.4,2582],[41.5,2670],[40.1,2754],[40.1,2832],[45.3,2915],[52.6,3003],[57.8,3087],[61.1,3170],[64.6,3248],[68.4,3337],[69.3,3420],[69.4,3498],[69.4,3586],[75,3670],[76.8,3755],[76.9,3834],[76.9,3915],[76.9,4003],[76.9,4087],[76.9,4165],[76.9,4248],[76.9,4331],[76.9,4414],[77.4,4498],[78.1,4585],[78.6,4669],[78.8,4747],[79.1,4831],[79.2,4919],[79.2,4997],[79.2,5085],[78.9,5167],[77.6,5252],[77,5336],[76.7,5419],[75.5,5502],[75.1,5580],[74.8,5664],[74.8,5747],[74.8,5830],[74.8,5913],[74.6,5997],[74.5,6080],[74.5,6164],[74.5,6247],[74.5,6330],[74.5,6416],[74.5,6497],[74.4,6585],[74.4,6663],[74.4,6747],[74.2,6835],[74.2,6917],[74.2,7002],[74.2,7080],[74.2,7163],[74.2,7251],[74.2,7330],[74.2,7419],[74.2,7501],[74.2,7580],[74.2,7663],[74.2,7746],[74.2,7830],[74.2,7918],[74.2,7997],[74.2,8079],[74.2,8163],[74.2,8246],[74.2,8330],[74.2,8416],[74.2,8496]]",317.869,319.0369,73.95833969,0.7571,"[{""rating"":73.95833969116211,""responseTime"":0.7571000000238541}]",space,0.6179,,319.037,Partially,50,319.0385,,,[],,0,5,5,5,1,audio/Narrative7Situation5.wav,audio/Narrative8Situation5.wav,audio/Narrative5Situation5.wav,audio/Narrative6Situation5.wav,5,2,5,2,,,,,,,,,,,,,,,,,,,,,,,,,,,,,,,,,,,,,,,
,,,,,66a48261758e59c5f2dd8ceb,2025-07-07_22h54.07.705,group3.4_multiperson,2023.2.2,Win32,59.88023952,686c2ebf0248f13bef9af11f,686c8841e8475ef4da42a883,,,,,,,,,,,,,,,,,,,,,,,,,,,,,319.0388,1,audio/Narrative7Situation6.wav,322.0459,,322.046,332.0455,"[[70.2,753],[55.8,998],[55.1,1082],[54,1171],[53.6,1249],[53.3,1338],[52.3,1420],[50.8,1504],[50.4,1582],[50.4,1665],[52.1,1753],[62.2,1838],[71.6,1915],[79.5,1998],[86.7,2082],[93.3,2170],[93.9,2254],[93.9,2337],[93.9,2420],[100,2504],[100,2587],[100,2670],[100,2753],[100,2836],[100,2919],[100,3003],[100,3081],[100,3164],[100,3253],[100,3331],[100,3415],[100,3502],[100,3587],[100,3665],[100,3749],[100,3831],[100,3919],[100,4003],[100,4086],[100,4164],[100,4252],[100,4337],[100,4418],[100,4498],[100,4586],[100,4670],[100,4752],[100,4835],[100,4914],[100,4997],[100,5081],[100,5164],[100,5247],[100,5334],[100,5418],[100,5497],[100,5580],[100,5664],[100,5747],[100,5830],[100,5919],[100,5998],[100,6080],[100,6163],[100,6247],[100,6330],[100,6419],[100,6497],[100,6580],[100,6668],[100,6747],[100,6830],[100,6913],[100,6997],[100,7080],[100,7168],[100,7247],[100,7335],[100,7413],[100,7502],[100,7583],[100,7663],[100,7746],[100,7833],[100,7913],[100,7996],[100,8084],[100,8163],[100,8246],[100,8329],[100,8418],[100,8499],[100,8585],[100,8662],[100,8746],[100,8833],[100,8913],[100,8996],[100,9084],[100,9163],[100,9246],[100,9329],[100,9418],[100,9496],[100,9578],[100,9662],[100,9746],[100,9834],[100,9917],[100,9999]]",332.0455,334.7462,99.47916985,1.8171,"[{""rating"":99.47916984558105,""responseTime"":1.8171000000237996}]",space,2.1787,,334.7464,Definitely yes,100,334.749,,,[],,0,6,6,6,1,audio/Narrative7Situation6.wav,audio/Narrative8Situation6.wav,audio/Narrative5Situation6.wav,audio/Narrative6Situation6.wav,3,2,3,2,,,,,,,,,,,,,,,,,,,,,,,,,,,,,,,,,,,,,,,
,,,,,66a48261758e59c5f2dd8ceb,2025-07-07_22h54.07.705,group3.4_multiperson,2023.2.2,Win32,59.88023952,686c2ebf0248f13bef9af11f,686c8841e8475ef4da42a883,,,,,,,,,,,,,,,,,,,,,,,,,,,,,334.7492,1,audio/Narrative7Situation7.wav,339.7555,,339.7556,356.9485,"[[999,0],[999,88],[999,170],[999,249],[999,338],[999,416],[999,499],[999,582],[999,666],[999,754],[999,832],[999,915],[999,1004],[999,1087],[999,1165],[999,1249],[999,1336],[54.8,1415],[61.8,1498],[76.5,1588],[84.6,1665],[85.3,1748],[85.3,1836],[85.3,1915],[85.4,2003],[85.4,2087],[85.1,2165],[85,2248],[84.8,2331],[84.6,2414],[84.5,2498],[84.5,2582],[84.5,2665],[84.5,2748],[84.5,2831],[84.5,2920],[84.5,2998],[84.5,3086],[84.5,3164],[84.5,3252],[84.5,3331],[84.5,3414],[84.5,3497],[84.5,3581],[84.5,3664],[84.5,3748],[84.5,3831],[84.5,3914],[84.5,3998],[84.5,4081],[84.5,4169],[84.5,4253],[84.5,4331],[84.5,4414],[84.5,4497],[84.5,4580],[84.5,4669],[84.5,4752],[84.5,4830],[84.5,4913],[84.5,4997],[84.5,5080],[84.5,5163],[84.5,5247],[84.5,5330],[84.5,5413],[84.5,5497],[84.5,5580],[84.5,5669],[84.5,5747],[84.5,5835],[84.5,5914],[84.5,5997],[84.5,6080],[84.5,6163],[84.5,6247],[84.5,6334],[84.5,6413],[84.5,6497],[84.5,6580],[84.5,6663],[84.5,6751],[84.5,6829],[84.5,6913],[84.5,6996],[84.5,7085],[84.5,7169],[84.5,7246],[84.5,7335],[84.5,7419],[84.5,7496],[84.5,7579],[84.5,7662],[84.5,7750],[84.5,7830],[84.5,7912],[85.1,8000],[89.5,8084],[90.9,8168],[91.3,8246],[92.4,8334],[94.2,8418],[95.9,8501],[96.3,8584],[96.9,8668],[98.6,8751],[99.4,8834],[99.9,8917],[100,8995],[100,9084],[100,9162],[100,9245],[100,9334],[100,9412],[100,9500],[100,9578],[100,9661],[100,9745],[100,9828],[100,9915],[100,9995],[100,10078],[100,10167],[100,10250],[100,10328],[100,10411],[100,10494],[100,10583],[100,10661],[100,10744],[100,10828],[100,10911],[100,10994],[100,11078],[100,11161],[100,11249],[100,11328],[100,11411],[100,11500],[100,11581],[100,11661],[100,11744],[100,11828],[100,11911],[100,11994],[100,12078],[100,12161],[100,12244],[100,12327],[100,12411],[100,12499],[100,12577],[100,12660],[100,12748],[100,12832],[100,12915],[100,12997],[100,13082],[100,13160],[100,13244],[100,13327],[100,13415],[100,13498],[100,13577],[100,13660],[100,13743],[100,13829],[100,13910],[100,13998],[100,14076],[100,14163],[100,14243],[100,14327],[100,14410],[100,14493],[100,14576],[100,14659],[100,14743],[100,14826],[100,14914],[100,14993],[100,15076],[100,15163],[100,15243],[100,15326],[100,15410],[100,15493],[100,15576],[100,15659],[100,15742],[100,15826],[100,15914],[100,15992],[100,16076],[100,16159],[100,16247],[100,16329],[100,16412],[100,16495],[100,16576],[100,16659],[100,16742],[100,16825],[100,16908],[100,16992],[100,17081],[100,17163]]",356.9487,360.2847,99.0625,2.6214,"[{""rating"":99.0625,""responseTime"":2.621399999976177}]",space,2.8077,,360.2848,Partially,50,360.2865,,,[],,0,7,7,7,1,audio/Narrative7Situation7.wav,audio/Narrative8Situation7.wav,audio/Narrative5Situation7.wav,audio/Narrative6Situation7.wav,5,3,4,5,,,,,,,,,,,,,,,,,,,,,,,,,,,,,,,,,,,,,,,
,,,,,66a48261758e59c5f2dd8ceb,2025-07-07_22h54.07.705,group3.4_multiperson,2023.2.2,Win32,59.88023952,686c2ebf0248f13bef9af11f,686c8841e8475ef4da42a883,,,,,,,,,,,,,,,,,,,,,,,,,,,,,360.2866,1,audio/Narrative7Situation8.wav,362.2959,,362.296,372.3257,"[[98,2670],[97.6,2748],[97.4,2832],[97.5,2920],[98.4,3001],[99.1,3086],[99.6,3170],[100,3248],[100,3332],[100,3419],[100,3498],[100,3581],[100,3670],[100,3748],[100,3832],[100,3915],[100,3998],[100,4081],[100,4169],[100,4248],[100,4331],[100,4420],[100,4503],[100,4584],[100,4670],[100,4753],[100,4831],[100,4914],[100,4997],[100,5081],[100,5164],[100,5248],[100,5331],[100,5414],[100,5497],[100,5580],[100,5663],[100,5747],[100,5835],[100,5918],[100,5999],[100,6086],[100,6170],[100,6247],[100,6330],[100,6419],[100,6497],[100,6580],[100,6663],[100,6747],[100,6834],[100,6913],[100,6997],[100,7083],[100,7164],[100,7246],[100,7334],[100,7420],[100,7496],[100,7580],[100,7669],[100,7746],[100,7830],[100,7913],[100,7996],[100,8079],[100,8163],[100,8251],[100,8334],[100,8412],[100,8496],[100,8579],[100,8663],[100,8750],[100,8834],[100,8912],[100,9000],[100,9085],[100,9162],[100,9246],[100,9329],[100,9412],[100,9496],[100,9582],[100,9662],[100,9749],[100,9833],[100,9913],[100,9995]]",372.3258,373.7139,99.16666985,0.7895,"[{""rating"":99.16666984558105,""responseTime"":0.7894999999999754}]",space,0.8448,,373.7139,Definitely yes,100,373.7174,,,[],,0,8,8,8,1,audio/Narrative7Situation8.wav,audio/Narrative8Situation8.wav,audio/Narrative5Situation8.wav,audio/Narrative6Situation8.wav,2,3,3,5,,,,,,,,,,,,,,,,,,,,,,,,,,,,,,,,,,,,,,,
,,,,,66a48261758e59c5f2dd8ceb,2025-07-07_22h54.07.705,group3.4_multiperson,2023.2.2,Win32,59.88023952,686c2ebf0248f13bef9af11f,686c8841e8475ef4da42a883,,,,,,,,,,,,,,,,,,,,,,,,,,,,,373.7177,1,audio/Narrative7Situation9.wav,375.7244,,375.7245,384.3767,"[[97.2,2752],[96.4,2836],[96.4,2915],[96.6,2997],[96.8,3080],[98,3170],[98.4,3248],[98.8,3330],[99,3414],[99,3497],[99,3583],[99,3664],[99,3747],[99,3831],[99,3914],[99,4002],[99,4081],[99,4168],[99,4251],[99,4330],[99,4413],[99,4497],[99,4580],[99,4663],[99,4752],[99,4835],[99,4913],[99,5001],[99,5085],[99,5164],[99,5247],[99,5330],[99,5413],[99,5496],[99,5580],[99,5663],[99,5752],[99,5835],[99,5916],[99,5996],[99,6085],[99,6163],[99,6246],[99,6332],[99,6413],[99,6502],[99,6580],[99,6663],[99,6752],[99,6830],[99,6913],[99,6996],[99,7079],[99,7162],[99,7245],[99,7329],[99,7412],[99,7495],[99,7580],[99,7662],[99,7751],[99,7829],[99,7912],[99,8001],[99,8079],[99,8168],[99,8245],[99,8329],[99,8412],[99,8500],[99,8578]]",384.3769,389.3849,98.95833969,4.6455,"[{""rating"":98.95833969116211,""responseTime"":4.64549999999997}]",space,4.4708,,389.385,Not at all,0,389.3875,,,[],,0,9,9,9,1,audio/Narrative7Situation9.wav,audio/Narrative8Situation9.wav,audio/Narrative5Situation9.wav,audio/Narrative6Situation9.wav,2,3,3,4,,,,,,,,,,,,,,,,,,,,,,,,,,,,,,,,,,,,,,,
,,,,,66a48261758e59c5f2dd8ceb,2025-07-07_22h54.07.705,group3.4_multiperson,2023.2.2,Win32,59.88023952,686c2ebf0248f13bef9af11f,686c8841e8475ef4da42a883,,,,,,,,,,,,,,,,,,,,,,,,,,,,,389.3876,1,audio/Narrative8Situation1.wav,394.4001,,394.4001,410.3431,"[[999,0],[999,87],[999,165],[999,248],[999,332],[999,421],[999,504],[999,587],[999,670],[999,748],[48.8,832],[48.8,920],[48.8,998],[49,1087],[49.2,1166],[49.4,1252],[49.4,1337],[49.4,1415],[49.4,1502],[49.4,1587],[49.4,1665],[49.4,1748],[52.1,1831],[53.3,1919],[53.3,1998],[53.3,2081],[53.3,2164],[53.3,2248],[53.4,2336],[53.4,2419],[53.9,2503],[54.4,2587],[54.7,2665],[54.7,2751],[54.7,2831],[54.7,2915],[54.7,2997],[54.7,3086],[54.7,3168],[54.7,3248],[54.7,3331],[54.7,3420],[56.3,3502],[56.6,3586],[56.9,3669],[56.9,3747],[56.9,3831],[56.9,3914],[56.9,3997],[56.9,4080],[56.9,4164],[56.9,4252],[56.9,4335],[56.9,4414],[56.9,4497],[56.9,4580],[56.9,4664],[56.9,4747],[56.9,4830],[56.9,4918],[56.9,4999],[56.9,5085],[56.9,5164],[56.9,5247],[56.9,5330],[56.9,5413],[56.9,5501],[56.9,5580],[56.9,5663],[56.9,5747],[56.9,5830],[56.9,5918],[56.9,5996],[56.9,6079],[56.9,6163],[56.9,6246],[56.9,6329],[56.9,6413],[56.9,6496],[56.9,6579],[56.9,6663],[56.9,6746],[56.9,6833],[56.9,6918],[56.9,6997],[56.9,7080],[56.9,7163],[56.9,7247],[56.9,7330],[56.9,7413],[56.9,7496],[56.9,7579],[56.9,7668],[56.9,7746],[56.9,7829],[56.9,7912],[56.9,7995],[56.9,8085],[56.9,8162],[56.9,8250],[56.9,8329],[56.9,8412],[56.9,8496],[56.9,8579],[56.9,8662],[56.9,8751],[56.9,8829],[56.9,8912],[56.9,8995],[56.9,9078],[56.9,9162],[56.9,9250],[56.9,9328],[56.9,9411],[56.9,9500],[56.9,9583],[56.9,9665],[56.9,9745],[56.9,9828],[56.9,9912],[56.9,9995],[56.9,10083],[57,10166],[57.1,10244],[57.7,10328],[58.3,10415],[58.4,10499],[58.4,10578],[58.4,10666],[58.4,10745],[58.4,10827],[58.4,10911],[58.4,10995],[58.4,11082],[58.4,11161],[58.4,11244],[58.4,11327],[58.4,11411],[58.4,11494],[58.4,11577],[58.4,11665],[58.4,11744],[58.4,11827],[58.4,11917],[58.4,11994],[58.4,12081],[58.4,12161],[58.4,12244],[58.4,12327],[58.4,12410],[58.4,12498],[58.4,12577],[58.4,12665],[58.4,12743],[58.4,12827],[58.4,12915],[58.4,12999],[58.4,13077],[58.4,13160],[58.4,13244],[58.4,13326],[58.4,13410],[58.4,13493],[58.4,13576],[58.4,13660],[58.4,13743],[58.4,13832],[61.1,13910],[63.3,13993],[65.2,14081],[67.3,14165],[69.9,14248],[70.6,14326],[72.6,14415],[76.7,14493],[79.7,14581],[80.5,14660],[80.6,14743],[80.6,14831],[80.6,14914],[80.6,14992],[80.6,15076],[80.6,15159],[80.6,15248],[80.6,15325],[80.6,15409],[80.6,15492],[80.6,15580],[80.6,15664],[80.6,15742],[80.6,15826],[80.6,15909]]",410.3433,412.6293,67.29166985,1.4417,"[{""rating"":67.29166984558105,""responseTime"":1.4417000000476605}]",space,1.7336,,412.6294,Definitely yes,100,412.632,,,[],,0,10,10,10,1,audio/Narrative8Situation1.wav,audio/Narrative7Situation1.wav,audio/Narrative6Situation1.wav,audio/Narrative5Situation1.wav,5,2,2,5,,,,,,,,,,,,,,,,,,,,,,,,,,,,,,,,,,,,,,,
,,,,,66a48261758e59c5f2dd8ceb,2025-07-07_22h54.07.705,group3.4_multiperson,2023.2.2,Win32,59.88023952,686c2ebf0248f13bef9af11f,686c8841e8475ef4da42a883,,,,,,,,,,,,,,,,,,,,,,,,,,,,,412.6323,1,audio/Narrative8Situation2.wav,415.6408,,415.6408,425.7538,"[[999,0],[999,83],[999,172],[999,256],[999,332],[999,419],[999,505],[999,582],[999,667],[999,749],[999,833],[999,922],[999,1004],[999,1087],[999,1170],[49.3,1249],[49.6,1332],[49.7,1415],[49.8,1504],[49.8,1582],[49.8,1669],[49.8,1748],[49.8,1832],[49.8,1915],[49.8,1998],[49.8,2082],[49.8,2170],[49.8,2253],[49.8,2332],[49.8,2415],[49.8,2503],[49.8,2581],[49.8,2665],[49.8,2751],[49.8,2831],[56.5,2917],[59.7,3003],[60,3081],[60.2,3170],[60.9,3253],[62.2,3336],[64.1,3420],[65.6,3503],[65.8,3581],[65.9,3665],[65.9,3753],[63.8,3837],[49.8,3915],[32.6,4002],[28.9,4084],[28.5,4169],[28.3,4247],[27.2,4336],[26,4418],[24.2,4502],[22.3,4580],[20.4,4669],[18.3,4752],[17.7,4836],[17.7,4915],[17.7,5003],[17.7,5081],[17.7,5164],[17.7,5251],[17.7,5330],[16.4,5419],[15.7,5497],[15.5,5585],[15.4,5664],[15.4,5747],[15.4,5835],[15.4,5918],[15.4,5997],[15.4,6085],[15.4,6164],[15.4,6252],[15.5,6331],[15.6,6418],[15.6,6501],[15.9,6580],[15.9,6663],[15.9,6747],[16.1,6830],[16.5,6918],[17.2,6997],[17.5,7086],[17.6,7163],[17.6,7247],[17.6,7329],[17.6,7413],[17.6,7496],[17.6,7579],[17.6,7663],[17.6,7749],[17.6,7830],[17.6,7913],[17.6,8001],[17.6,8085],[17.6,8162],[17.6,8246],[17.6,8329],[17.6,8412],[17.6,8495],[17.6,8583],[17.6,8662],[17.6,8751],[17.6,8834],[17.6,8913],[17.6,9000],[17.6,9079],[17.6,9162],[17.5,9245],[17.5,9334],[17.5,9412],[17.5,9500],[17.5,9579],[17.5,9662],[17.5,9745],[17.5,9834],[17.5,9917],[17.5,10001],[17.5,10078]]",425.754,427.586,17.39583492,1.0227,"[{""rating"":17.395834922790527,""responseTime"":1.0227000000477346}]",space,1.2957,,427.5861,Definitely yes,100,427.5874,,,[],,0,11,11,11,1,audio/Narrative8Situation2.wav,audio/Narrative7Situation2.wav,audio/Narrative6Situation2.wav,audio/Narrative5Situation2.wav,3,3,3,3,,,,,,,,,,,,,,,,,,,,,,,,,,,,,,,,,,,,,,,
,,,,,66a48261758e59c5f2dd8ceb,2025-07-07_22h54.07.705,group3.4_multiperson,2023.2.2,Win32,59.88023952,686c2ebf0248f13bef9af11f,686c8841e8475ef4da42a883,,,,,,,,,,,,,,,,,,,,,,,,,,,,,427.5876,1,audio/Narrative8Situation3.wav,431.6013,,431.6013,454.0089,"[[999,0],[999,87],[999,166],[999,249],[999,332],[999,415],[999,498],[999,582],[999,670],[999,755],[999,837],[50.7,915],[50.7,1004],[50.6,1087],[50.5,1165],[50.5,1249],[50.5,1332],[50.5,1415],[50.5,1498],[50.5,1581],[50.5,1669],[50.5,1753],[50.5,1836],[50.5,1919],[50.5,2003],[50.5,2085],[50.5,2164],[50.5,2248],[50.5,2335],[50.5,2415],[50.5,2498],[50.5,2581],[50.5,2667],[50.5,2748],[50.5,2836],[50.5,2919],[50.5,2998],[50.5,3081],[50.5,3169],[50.5,3253],[50.5,3335],[50.5,3414],[50.5,3497],[50.5,3584],[50.5,3669],[50.5,3747],[50.5,3831],[50.5,3918],[50.5,3998],[50.5,4081],[50.5,4168],[50.5,4247],[50.5,4331],[50.5,4418],[50.5,4502],[50.5,4585],[50.5,4669],[50.5,4747],[50.5,4835],[50.5,4915],[50.5,5002],[50.5,5080],[50.5,5163],[50.5,5247],[50.5,5330],[50.5,5413],[50.5,5500],[50.5,5580],[50.5,5668],[50.5,5747],[50.5,5830],[50.5,5918],[50.5,5996],[50.5,6084],[50.5,6163],[50.5,6247],[50.5,6335],[50.5,6417],[50.5,6501],[50.1,6580],[48.1,6667],[46.4,6752],[46,6835],[45.8,6918],[44.5,7001],[44.2,7079],[49.6,7163],[56.5,7252],[57.5,7335],[57.8,7413],[57.7,7496],[50,7585],[44.5,7667],[42.7,7751],[41,7829],[40.4,7913],[43.3,8001],[62.3,8084],[74.2,8667],[67.6,8746],[66,8833],[65.7,8917],[65.7,8995],[66.6,9084],[68.3,9162],[69.1,9250],[69.4,9328],[69.9,9417],[70,9500],[70.8,9584],[72.5,9667],[74.1,9750],[75.3,9833],[75.6,9917],[75.8,9999],[75.8,10084],[75.8,10162],[75.8,10245],[75.8,10328],[75.8,10412],[75.8,10495],[75.8,10578],[75.8,10666],[75.8,10750],[75.8,10828],[75.8,10917],[75.8,10997],[75.8,11077],[75.8,11161],[75.8,11244],[75.8,11332],[75.8,11411],[75.8,11499],[75.8,11583],[75.8,11661],[75.8,11749],[75.8,11833],[75.8,11914],[75.8,11999],[75.8,12077],[75.8,12160],[75.8,12244],[75.8,12327],[75.8,12411],[75.8,12499],[75.8,12577],[75.8,12661],[75.8,12744],[75.8,12827],[75.8,12910],[75.8,12994],[75.8,13077],[75.8,13165],[75.8,13248],[75.8,13327],[75.8,13410],[75.8,13494],[75.8,13582],[75.8,13660],[75.8,13743],[75.8,13827],[75.8,13915],[75.8,13993],[75.8,14076],[75.8,14160],[75.8,14243],[75.8,14326],[75.8,14410],[75.8,14493],[75.8,14576],[75.8,14664],[75.8,14743],[75.8,14826],[75.8,14909],[75.8,14993],[75.8,15076],[75.8,15159],[75.8,15244],[75.8,15326],[75.8,15409],[75.8,15493],[75.8,15581],[75.8,15665],[75.8,15747],[75.8,15830],[75.8,15909],[75.8,15992],[75.8,16076],[75.8,16159],[75.8,16248],[75.8,16325],[75.8,16409],[75.8,16498],[75.8,16576],[75.8,16659],[75.8,16742],[75.8,16831],[75.8,16909],[75.8,16992],[75.8,17075],[75.8,17158],[75.8,17242],[75.8,17325],[75.8,17411],[75.8,17495],[75.8,17578],[75.8,17658],[75.8,17742],[75.8,17830],[75.8,17913],[75.8,17991],[75.8,18075],[75.8,18163],[75.8,18241],[75.8,18325],[75.8,18408],[78.8,18496],[80,18580],[80.3,18663],[80.6,18741],[81.5,18830],[82.4,18908],[83.3,18996],[84.4,19077],[85,19158],[85.3,19241],[85.3,19324],[85.3,19408],[85.3,19497],[85.3,19574],[85.3,19658],[85.3,19746],[85.3,19824],[85.3,19911],[85.3,19991],[85.3,20075],[85.3,20157],[85.3,20241],[85.3,20324],[85.3,20412],[85.3,20490],[85.3,20579],[85.3,20662],[85.3,20746],[85.3,20824],[85.3,20907],[85.3,20991],[85.3,21079],[85.3,21157],[85.3,21245],[85.3,21329],[85.3,21411],[85.3,21490],[85.3,21574],[85.3,21657],[85.3,21745],[85.3,21823],[85.3,21907],[85.3,21990],[85.3,22073],[85.3,22156],[85.3,22240],[85.3,22329],[85.3,22407]]",454.0091,458.6614,84.0625,0.9367,"[{""rating"":84.0625,""responseTime"":0.9366999999284644}]",space,4.087,,458.6616,Partially,50,458.664,,,[],,0,12,12,12,1,audio/Narrative8Situation3.wav,audio/Narrative7Situation3.wav,audio/Narrative6Situation3.wav,audio/Narrative5Situation3.wav,4,8,5,3,,,,,,,,,,,,,,,,,,,,,,,,,,,,,,,,,,,,,,,
,,,,,66a48261758e59c5f2dd8ceb,2025-07-07_22h54.07.705,group3.4_multiperson,2023.2.2,Win32,59.88023952,686c2ebf0248f13bef9af11f,686c8841e8475ef4da42a883,,,,,,,,,,,,,,,,,,,,,,,,,,,,,458.6642,1,audio/Narrative8Situation4.wav,461.6765,,461.6766,475.8546,"[[74.9,1415],[72.7,1499],[68,1583],[58.3,1827],[53.8,1915],[50.1,1999],[49.1,2077],[48.9,2164],[48.9,2243],[48.9,2327],[48.9,2410],[48.9,2493],[48.9,2577],[48.9,2660],[48.9,2743],[48.9,2827],[48.9,2910],[48.9,2993],[48.9,3077],[48.9,3160],[48.9,3243],[48.9,3326],[48.9,3415],[48.9,3493],[48.9,3576],[48.9,3659],[48.9,3743],[48.9,3826],[48.9,3909],[48.9,3993],[48.9,4076],[48.9,4160],[48.9,4243],[48.9,4326],[48.9,4409],[48.9,4493],[48.9,4576],[48.9,4663],[48.9,4746],[48.9,4826],[48.9,4909],[48.9,4997],[48.9,5076],[48.9,5159],[48.9,5242],[48.9,5330],[48.9,5409],[48.9,5492],[48.9,5580],[48.9,5663],[48.9,5742],[51,5830],[57.6,5914],[63.5,5997],[67.1,6081],[72.2,6159],[78.8,6246],[85.4,6331],[88.4,6413],[92,6492],[95.5,6580],[99.1,6665],[100,6742],[100,6830],[100,6908],[100,6991],[100,7075],[100,7158],[100,7245],[100,7325],[100,7408],[100,7492],[100,7581],[100,7658],[100,7745],[100,7829],[100,7908],[100,7997],[100,8080],[100,8164],[100,8246],[100,8329],[100,8413],[100,8496],[100,8578],[100,8662],[100,8741],[100,8824],[100,8908],[100,8997],[100,9080],[100,9157],[100,9245],[100,9324],[100,9408],[100,9496],[100,9579],[100,9662],[100,9744],[100,9824],[100,9907],[100,9994],[100,10074],[100,10157],[100,10240],[100,10324],[100,10407],[100,10490],[100,10573],[100,10657],[100,10745],[100,10823],[100,10907],[100,10991],[100,11079],[100,11162],[100,11245],[100,11324],[100,11406],[100,11490],[100,11579],[100,11657],[100,11744],[100,11823],[100,11906],[100,11995],[100,12078],[100,12156],[100,12239],[100,12323],[100,12406],[100,12490],[100,12573],[100,12661],[100,12742],[100,12828],[100,12910],[100,12994],[100,13078],[100,13162],[100,13239],[100,13323],[100,13406],[100,13489],[100,13577],[100,13656],[100,13740],[100,13828],[100,13910],[100,13989],[100,14078],[100,14160]]",475.8547,482.1687,85.20833969,5.6858,"[{""rating"":85.20833969116211,""responseTime"":5.685799999952337}]",space,5.7533,,482.1688,Not at all,0,482.1711,,,[],,0,13,13,13,1,audio/Narrative8Situation4.wav,audio/Narrative7Situation4.wav,audio/Narrative6Situation4.wav,audio/Narrative5Situation4.wav,3,3,2,1,,,,,,,,,,,,,,,,,,,,,,,,,,,,,,,,,,,,,,,
,,,,,66a48261758e59c5f2dd8ceb,2025-07-07_22h54.07.705,group3.4_multiperson,2023.2.2,Win32,59.88023952,686c2ebf0248f13bef9af11f,686c8841e8475ef4da42a883,,,,,,,,,,,,,,,,,,,,,,,,,,,,,482.1713,1,audio/Narrative8Situation5.wav,484.1792,,484.1792,492.4588,"[[86.3,5747],[87.8,5831],[88.4,5919],[88.8,6002],[88.8,6081],[89.8,6164],[91.6,6251],[92.7,6335],[93.1,6413],[93.4,6497],[93.4,6585],[93.3,6669],[93.2,6747],[93.2,6835],[93,6919],[92.7,7002],[92.6,7080],[92.6,7168],[92.4,7246],[92.4,7330],[92.4,7413],[92.4,7501],[92.4,7580],[92.4,7663],[92.4,7746],[92.4,7830],[92.4,7918],[92.4,7996],[92.4,8079],[92.4,8169],[92.3,8246]]",492.4589,493.5143,91.77083969,0.7597,"[{""rating"":91.77083969116211,""responseTime"":0.7596999999285003}]",space,0.5168,,493.5144,Partially,50,493.5174,,,[],,0,14,14,14,1,audio/Narrative8Situation5.wav,audio/Narrative7Situation5.wav,audio/Narrative6Situation5.wav,audio/Narrative5Situation5.wav,2,5,2,5,,,,,,,,,,,,,,,,,,,,,,,,,,,,,,,,,,,,,,,
,,,,,66a48261758e59c5f2dd8ceb,2025-07-07_22h54.07.705,group3.4_multiperson,2023.2.2,Win32,59.88023952,686c2ebf0248f13bef9af11f,686c8841e8475ef4da42a883,,,,,,,,,,,,,,,,,,,,,,,,,,,,,493.5176,1,audio/Narrative8Situation6.wav,495.5283,,495.5283,502.028,"[[79.9,746],[56.7,834],[54.8,912],[58.2,1000],[66,1084],[75.5,1162],[81.7,1250],[83.1,1332],[83.8,1416],[85.8,1500],[86.1,1584],[86.1,1666],[86.1,1750],[86.1,1828],[86.1,1912],[86.1,2000],[86.1,2083],[86.1,2165],[86.1,2245],[86.1,2333],[86.1,2417],[86.1,2499],[86.1,2578],[86.1,2662],[86.1,2748],[86.1,2829],[86.1,2911],[86.1,2995],[86.1,3078],[86.1,3161],[86.1,3250],[86.1,3328],[86.1,3411],[86.1,3499],[86.1,3579],[86.1,3666],[86.1,3749],[86.1,3827],[86.1,3911],[86.1,3994],[86.1,4077],[86.1,4161],[86.1,4244],[86.1,4327],[86.1,4415],[86.1,4499],[86.1,4577],[86.1,4664],[86.1,4748],[86.1,4827],[86.1,4910],[86.1,4994],[86.1,5077],[86.1,5160],[86.1,5248],[86.1,5327],[86.1,5415],[86.1,5494],[86.1,5577],[86.1,5666],[86.1,5744],[86.1,5831],[86.1,5915],[86.1,5993],[86.1,6077],[86.1,6165],[86.1,6243],[86.1,6330],[86.1,6415],[86.1,6499]]",502.0281,504.059,86.14583969,1.4972,"[{""rating"":86.14583969116211,""responseTime"":1.4971999999285117}]",space,1.495,,504.0591,Definitely yes,100,504.0616,,,[],,0,15,15,15,1,audio/Narrative8Situation6.wav,audio/Narrative7Situation6.wav,audio/Narrative6Situation6.wav,audio/Narrative5Situation6.wav,2,3,2,3,,,,,,,,,,,,,,,,,,,,,,,,,,,,,,,,,,,,,,,
,,,,,66a48261758e59c5f2dd8ceb,2025-07-07_22h54.07.705,group3.4_multiperson,2023.2.2,Win32,59.88023952,686c2ebf0248f13bef9af11f,686c8841e8475ef4da42a883,,,,,,,,,,,,,,,,,,,,,,,,,,,,,504.0618,1,audio/Narrative8Situation7.wav,507.0748,,507.0748,519.1696,"[[83.8,827],[82,912],[81.8,994],[81.8,1082],[81.8,1161],[81.8,1244],[81.8,1332],[81.8,1410],[81.8,1494],[81.8,1577],[81.8,1665],[81.8,1744],[81.8,1827],[81.8,1913],[81.8,1993],[78.4,2077],[72.4,2166],[62.2,2249],[55.9,2331],[55.7,2410],[55.4,2498],[53.9,2577],[52.6,2664],[52.1,2748],[52,2832],[57.3,2915],[77.9,3248],[84.9,3333],[88.1,3410],[88.4,3498],[88.4,3576],[88.9,3659],[90,3743],[90.7,3826],[90.9,3914],[90.9,3993],[91.5,4076],[92.2,4159],[92.8,4243],[93.1,4331],[93.8,4409],[94,4496],[94.1,4578],[94.5,4665],[94.6,4743],[94.6,4829],[94.6,4913],[94.6,4992],[94.6,5081],[94.6,5159],[94.6,5247],[94.6,5331],[94.6,5409],[94.6,5497],[94.6,5575],[94.6,5663],[94.6,5747],[94.6,5825],[94.6,5908],[94.6,5992],[94.6,6080],[94.6,6164],[94.6,6247],[94.6,6325],[94.6,6409],[94.6,6498],[94.6,6581],[94.6,6658],[94.6,6742],[94.6,6825],[94.6,6913],[94.6,6996],[94.6,7078],[94.6,7163],[94.6,7246],[94.6,7330],[94.6,7408],[94.6,7497],[94.6,7575],[94.6,7658],[94.6,7744],[94.6,7824],[94.6,7913],[94.6,7991],[94.6,8078],[94.6,8158],[94.6,8245],[94.6,8324],[94.6,8408],[94.6,8496],[94.6,8574],[94.6,8663],[94.6,8745],[94.6,8830],[94.6,8907],[94.6,8996],[94.6,9079],[94.6,9158],[94.6,9241],[94.6,9324],[94.6,9407],[94.6,9495],[94.6,9573],[94.6,9657],[94.6,9740],[94.6,9823],[94.6,9910],[94.6,9990],[94.6,10073],[94.6,10162],[94.6,10245],[94.6,10329],[94.6,10412],[94.6,10490],[94.6,10579],[94.6,10657],[94.6,10745],[94.6,10824],[94.6,10906],[94.6,10995],[94.6,11078],[94.6,11157],[94.6,11240],[94.6,11323],[94.6,11406],[94.6,11490],[94.6,11578],[94.6,11656],[94.6,11744],[94.6,11823],[94.6,11912],[94.6,11995],[94.6,12073]]",519.1697,524.3188,95.9375,2.8817,"[{""rating"":95.9375,""responseTime"":2.8816999999284008}]",space,4.6162,,524.3189,Not at all,0,524.3211,,,[],,0,16,16,16,1,audio/Narrative8Situation7.wav,audio/Narrative7Situation7.wav,audio/Narrative6Situation7.wav,audio/Narrative5Situation7.wav,3,5,5,4,,,,,,,,,,,,,,,,,,,,,,,,,,,,,,,,,,,,,,,
,,,,,66a48261758e59c5f2dd8ceb,2025-07-07_22h54.07.705,group3.4_multiperson,2023.2.2,Win32,59.88023952,686c2ebf0248f13bef9af11f,686c8841e8475ef4da42a883,,,,,,,,,,,,,,,,,,,,,,,,,,,,,524.3213,1,audio/Narrative8Situation8.wav,527.3287,,527.3287,540.1946,"[[999,1],[999,88],[999,171],[999,253],[999,332],[999,421],[999,499],[999,587],[999,669],[999,750],[999,837],[999,916],[999,999],[999,1082],[999,1170],[999,1253],[999,1336],[85.3,1420],[85.2,1503],[84.3,1587],[82.3,1668],[80.8,1754],[79.5,1831],[78.9,1920],[78.5,1998],[78.2,2081],[78,2170],[78,2248],[78,2331],[78,2415],[78,2498],[78,2586],[78,2664],[78,2753],[78,2834],[78,2920],[78,2997],[78,3086],[78,3164],[78,3247],[78,3331],[78.1,3418],[78.4,3497],[79.3,3586],[80,3670],[80.6,3753],[80.9,3831],[81.1,3914],[81.1,4002],[81.1,4080],[81.1,4164],[81.1,4247],[81.3,4335],[81.3,4414],[81.6,4502],[81.8,4580],[81.8,4664],[81.8,4747],[81.9,4831],[81.9,4913],[81.9,5001],[81.9,5080],[81.9,5164],[82.1,5251],[82.2,5335],[82.2,5413],[82.2,5496],[82.2,5580],[82.2,5667],[82.2,5752],[82.2,5835],[82.2,5919],[82.2,6001],[82.2,6080],[82.2,6168],[82.2,6252],[82.2,6330],[82.2,6417],[82.1,6496],[82.1,6585],[82,6669],[82,6750],[82,6829],[82,6918],[82,6996],[82,7079],[82,7162],[82,7246],[82,7329],[82,7417],[82,7495],[82,7579],[82,7667],[82,7745],[82,7829],[82,7912],[82,8000],[82,8079],[82,8162],[82,8246],[82,8330],[82,8412],[82,8496],[82,8584],[82,8666],[82,8750],[82,8830],[82,8914],[82,9000],[82,9079],[82,9162],[82,9250],[82,9332],[82,9412],[82,9500],[82,9583],[82,9667],[82,9750],[82,9829],[82,9911],[82,10000],[82,10078],[82,10162],[82,10245],[82,10329],[82,10416],[82,10495],[82,10578],[82,10661],[81.8,10749],[81.8,10832],[81.8,10916],[81.8,10994],[81.8,11083],[81.8,11161],[81.8,11249],[81.8,11332],[81.8,11416],[81.8,11494],[81.8,11577],[81.8,11660],[81.8,11747],[81.8,11827],[81.8,11911],[81.8,11994],[81.8,12081],[81.8,12165],[81.8,12249],[81.8,12327],[81.8,12415],[81.8,12498],[81.8,12577],[81.8,12661],[81.8,12750],[81.8,12827]]",540.1946,542.595,82.5,1.5347,"[{""rating"":82.5,""responseTime"":1.5346999999284208}]",space,1.8653,,542.5951,Partially,50,542.5975,,,[],,0,17,17,17,1,audio/Narrative8Situation8.wav,audio/Narrative7Situation8.wav,audio/Narrative6Situation8.wav,audio/Narrative5Situation8.wav,3,2,5,3,,,,,,,,,,,,,,,,,,,,,,,,,,,,,,,,,,,,,,,
,,,,,66a48261758e59c5f2dd8ceb,2025-07-07_22h54.07.705,group3.4_multiperson,2023.2.2,Win32,59.88023952,686c2ebf0248f13bef9af11f,686c8841e8475ef4da42a883,,,,,,,,,,,,,,,,,,,,,,,,,,,,,542.5977,1,audio/Narrative8Situation9.wav,545.6041,,545.6042,556.9223,"[[81.4,4414],[81,4498],[81.9,4581],[84.1,4668],[86.9,4752],[93.3,4836],[97.2,4914],[100,5001],[100,5086],[100,5164],[100,5251],[100,5336],[100,5417],[100,5502],[100,5586],[100,5669],[100,5747],[100,5835],[100,5914],[100,6001],[100,6080],[100,6169],[100,6247],[100,6330],[100,6413],[100,6497],[100,6585],[100,6668],[100,6746],[100,6834],[100,6913],[100,6996],[100,7080],[100,7163],[100,7246],[100,7330],[100,7413],[100,7496],[100,7585],[100,7663],[100,7749],[100,7830],[100,7913],[100,7996],[100,8084],[100,8168],[100,8246],[100,8329],[100,8418],[100,8495],[100,8584],[100,8668],[100,8746],[100,8835],[100,8918],[100,9001],[100,9085],[100,9166],[100,9246],[100,9329],[100,9416],[100,9502],[100,9579],[100,9662],[100,9746],[100,9834],[100,9912],[100,10000],[100,10078],[100,10162],[100,10245],[100,10329],[100,10417],[100,10495],[100,10578],[100,10662],[100,10749],[100,10828],[100,10912],[100,10999],[100,11078],[100,11164],[100,11244]]",556.9223,560.5701,99.58333969,3.3959,"[{""rating"":99.58333969116211,""responseTime"":3.3959000000953665}]",space,3.1111,,560.5702,Partially,50,560.5723,,,[],,0,18,18,18,1,audio/Narrative8Situation9.wav,audio/Narrative7Situation9.wav,audio/Narrative6Situation9.wav,audio/Narrative5Situation9.wav,3,2,4,3,,,,,,,,,,,,,,,,,,,,,,,,,,,,,,,,,,,,,,,
,,,,,66a48261758e59c5f2dd8ceb,2025-07-07_22h54.07.705,group3.4_multiperson,2023.2.2,Win32,59.88023952,686c2ebf0248f13bef9af11f,686c8841e8475ef4da42a883,,,,,,,,,,,,,,,,,,,,,,,,,,,564.3135,566.8954,566.9036,2,audio/Narrative13Situation2.wav,566.9036,,566.9037,596.6499,"[[95.3,1246],[84.5,1329],[65.5,1408],[57.6,1496],[52,1579],[48.5,1662],[48.3,1745],[49.4,1829],[49.6,1907],[49.6,1995],[49.6,2074],[49.6,2157],[49.6,2240],[49.6,2324],[49.6,2411],[49.6,2495],[49.6,2573],[49.6,2656],[49.6,2740],[49.6,2824],[49.6,2907],[49.6,2990],[49.6,3079],[49.6,3162],[49.6,3240],[51.1,3328],[51.5,3407],[51.5,3490],[51.7,3578],[52.6,3657],[54.7,3740],[55.6,3827],[55.9,3906],[55.9,3994],[56.8,4078],[57.1,4161],[57.4,4244],[57.7,4323],[57.8,4406],[58,4495],[58.4,4578],[58.8,4658],[58.8,4744],[58.8,4822],[58.8,4905],[58.8,4995],[58.8,5072],[59,5161],[60.6,5243],[61.9,5327],[62.5,5405],[62.7,5494],[62.7,5573],[62.8,5656],[62.8,5743],[62.8,5822],[62.8,5906],[62.8,5993],[62.8,6073],[62.8,6161],[62.8,6244],[62.8,6326],[62.8,6406],[62.8,6493],[62.8,6577],[62.8,6656],[62.8,6738],[62.8,6822],[62.8,6910],[62.8,6988],[62.8,7072],[62.8,7155],[62.8,7243],[62.8,7325],[62.8,7405],[62.8,7493],[62.8,7576],[62.8,7659],[62.8,7743],[62.8,7822],[62.8,7905],[62.8,7988],[62.8,8077],[62.8,8155],[62.8,8238],[62.8,8326],[62.8,8409],[62.8,8493],[62.8,8577],[62.8,8654],[62.8,8738],[62.8,8827],[62.8,8910],[62.8,8988],[62.8,9075],[62.8,9159],[62.8,9243],[62.8,9325],[62.8,9404],[62.8,9487],[62.8,9570],[62.8,9660],[62.8,9741],[62.8,9821],[62.8,9903],[62.8,9992],[62.8,10075],[62.8,10158],[62.8,10242],[62.8,10326],[62.8,10409],[62.8,10492],[62.8,10575],[62.8,10653],[62.8,10742],[62.8,10825],[62.8,10903],[62.8,10987],[62.8,11070],[62.8,11153],[62.8,11237],[62.8,11320],[62.8,11403],[62.8,11486],[62.8,11573],[62.8,11653],[62.8,11736],[62.8,11825],[62.8,11903],[62.8,11991],[62.8,12070],[62.8,12158],[62.8,12240],[62.8,12319],[62.8,12406],[62.8,12486],[62.8,12575],[62.8,12657],[62.8,12736],[62.8,12824],[62.8,12903],[62.8,12990],[62.8,13075],[62.8,13153],[62.8,13240],[62.8,13319],[62.8,13407],[62.8,13485],[62.8,13574],[62.8,13657],[62.8,13735],[62.8,13819],[62.8,13902],[62.8,13985],[62.8,14069],[62.8,14152],[62.8,14236],[62.8,14322],[62.8,14407],[62.8,14485],[62.8,14568],[62.8,14656],[62.8,14735],[62.8,14818],[62.8,14906],[62.8,14985],[62.8,15068],[62.8,15157],[62.8,15236],[58.1,15323],[46.1,15406],[33.9,15489],[30.5,15573],[29.2,15651],[27.5,15740],[26.7,15818],[26.4,15901],[25.7,15989],[24.2,16073],[23.9,16151],[23.5,16240],[23,16321],[22.4,16407],[22.1,16489],[22.1,16567],[22.1,16656],[22.1,16735],[22.1,16817],[22,16906],[21.4,16989],[19.4,17073],[17.7,17156],[16.8,17239],[16.1,17322],[15.8,17401],[15,17489],[13.9,17572],[13.6,17650],[13,17739],[12,17817],[11.5,17906],[11.4,17984],[11.4,18072],[11.4,18150],[11.4,18238],[11.4,18317],[11.4,18404],[11.4,18484],[11.4,18567],[11.4,18655],[9.2,18734],[7.9,18822],[7.7,18900],[7.7,18983],[7.7,19067],[6.1,19150],[1.5,19238],[0.1,19321],[2.2,20821],[3.1,20905],[4.3,20988],[6.1,21066],[7.5,21155],[8.1,21238],[9.4,21321],[11.8,21399],[13,21487],[15.1,21570],[20.5,21654],[41.3,22070],[43.4,22154],[46,22232],[49.1,22316],[54.7,22402],[58.6,22487],[61.8,22572],[63.1,22654],[64.6,22737],[65,22815],[65.8,22904],[65.9,22986],[66.3,23069],[66.3,23153],[66.3,23237],[66.3,23315],[66.3,23398],[66.3,23481],[66.3,23565],[66.3,23648],[66.3,23735],[66.3,23818],[66.3,23903],[66.3,23981],[66.3,24066],[66.3,24147],[66.3,24236],[66.3,24315],[66.6,24404],[66.9,24487],[67.7,24569],[67.8,24647],[67.8,24735],[67.8,24819],[68.3,24897],[71.6,24986],[71.9,25070],[73.2,25152],[73.4,25231],[74,25315],[74.7,25398],[75.3,25486],[75.5,25569],[75.9,25652],[76.1,25734],[76.5,25814],[76.6,25902],[76.9,25981],[76.9,26064],[76.9,26147],[76.9,26230],[76.9,26314],[76.9,26402],[76.9,26480],[76.9,26569],[74.2,26652],[70.3,26736],[67.3,26819],[65.4,26896],[63.5,26986],[62.7,27068],[60,27152],[58.6,27236],[57.9,27319],[57.1,27396],[56.5,27480],[56.1,27569],[55.7,27647],[55.5,27730],[55.4,27813],[55.2,27896],[54.8,27984],[54.2,28068],[53.2,28146],[52.9,28235],[51.3,28313],[50.1,28401],[49.9,28480],[49.8,28567],[49.8,28646],[49.8,28733],[49.8,28813],[49.8,28900],[49.8,28979],[49.8,29067],[49.8,29151],[49.8,29229],[49.8,29312],[49.8,29396],[49.8,29479],[49.8,29563],[49.8,29646],[49.8,29729]]",596.6501,596.6514,,,[],,,,596.6515,Definitely yes,100,596.6527,,,[],,0,0,0,0,1,audio/Narrative13Situation2.wav,audio/Narrative13Situation2.wav,audio/Narrative13Situation2.wav,audio/Narrative13Situation2.wav,2,2,2,2,,,,,560.5727,564.3133,space,3.2273,,,,,,,,,,,,,,,,,,,,,,,,,,,,,,,
,,,,,66a48261758e59c5f2dd8ceb,2025-07-07_22h54.07.705,group3.4_multiperson,2023.2.2,Win32,59.88023952,686c2ebf0248f13bef9af11f,686c8841e8475ef4da42a883,,,,,,,,,,,,,,,,,,,,,,,,,,,,,596.6529,2,audio/Narrative5Situation1.wav,601.6644,,601.6646,614.959,"[[49.3,2915],[50.8,3336],[50.8,3419],[50.8,3503],[50.8,3581],[50.8,3664],[50.8,3752],[50.8,3831],[50.8,3914],[50.9,3998],[52.2,4081],[53.5,4169],[54.1,4253],[54.7,4337],[55,4419],[55.6,4502],[56.4,4586],[57.1,4665],[57.5,4751],[57.8,4831],[58.1,4915],[58.4,4997],[59.7,5087],[60.2,5164],[60.3,5247],[60.3,5335],[60.3,5413],[60.3,5502],[60.3,5580],[60.3,5664],[60.3,5747],[60.3,5835],[60.3,5913],[60.3,5996],[60.3,6086],[60.3,6169],[60.3,6246],[60.3,6336],[60.3,6418],[60.3,6502],[60.3,6580],[60.3,6664],[60.3,6749],[60.9,6835],[61.6,6916],[62.3,6997],[62.4,7085],[62.5,7168],[62.5,7246],[62.5,7329],[61.8,7418],[61.5,7496],[59.6,7584],[58.1,7668],[57.3,7746],[56.7,7829],[56.4,7913],[56.1,7999],[56.1,8079],[56.1,8163],[56,8251],[55.7,8329],[54.8,8418],[54.6,8500],[54.5,8583],[54.5,8665],[54.3,8750],[54.3,8829],[54.3,8912],[54.3,8996],[54.3,9084],[54.3,9166],[54.2,9246],[54,9328],[53.9,9416],[53.5,9500],[53.5,9578],[53.5,9667],[53.5,9745],[54.1,9833],[55,9917],[56.8,10000],[58.5,10084],[60.7,10167],[62.2,10250],[65.4,10333],[67.5,10412],[72,10500],[75.8,10584],[79.3,10661],[81.4,10748],[82.8,10831],[85.3,10916],[86.9,11000],[88.1,11083],[88.6,11166],[90.3,11250],[91.1,11333],[91.6,11416],[91.9,11494],[91.9,11578],[91.9,11665],[91.9,11744],[91.9,11827],[91.9,11915],[91.9,12000],[91.9,12078],[91.9,12166],[91.9,12245],[91.9,12327],[91.9,12415],[91.9,12494],[91.9,12578],[91.9,12666],[91.9,12750],[91.9,12833],[91.9,12916],[91.9,12998],[91.9,13081],[91.9,13160],[91.9,13244]]",614.9594,617.696,71.5625,1.3599,"[{""rating"":71.5625,""responseTime"":1.3598999999761645}]",space,2.2115,,617.696,Definitely yes,100,617.6972,,,[],,0,1,1,1,1,audio/Narrative7Situation1.wav,audio/Narrative8Situation1.wav,audio/Narrative5Situation1.wav,audio/Narrative6Situation1.wav,2,5,5,2,,,,,,,,,,,,,,,,,,,,,,,,,,,,,,,,,,,,,,,
,,,,,66a48261758e59c5f2dd8ceb,2025-07-07_22h54.07.705,group3.4_multiperson,2023.2.2,Win32,59.88023952,686c2ebf0248f13bef9af11f,686c8841e8475ef4da42a883,,,,,,,,,,,,,,,,,,,,,,,,,,,,,617.6974,2,audio/Narrative5Situation2.wav,620.707,,620.707,650.1826,"[[999,0],[999,87],[999,165],[999,249],[999,337],[999,416],[999,503],[999,587],[999,670],[999,749],[999,832],[999,915],[999,998],[999,1083],[999,1168],[999,1253],[999,1335],[999,1418],[999,1499],[999,1582],[999,1666],[999,1748],[999,1832],[999,1921],[999,1999],[999,2082],[999,2165],[999,2254],[999,2336],[999,2414],[999,2503],[999,2581],[999,2670],[999,2748],[999,2831],[999,2919],[999,2998],[999,3087],[999,3164],[999,3248],[999,3337],[999,3415],[999,3503],[999,3581],[999,3664],[999,3748],[999,3836],[999,3919],[999,3997],[999,4081],[999,4164],[999,4247],[999,4331],[999,4418],[999,4499],[999,4585],[999,4664],[999,4747],[73,4836],[74.3,4919],[74.7,5003],[75,5080],[76.3,5169],[77.5,5253],[77.7,5330],[77.8,5413],[77.8,5497],[77.8,5580],[77.8,5663],[77.8,5752],[77.8,5831],[77.8,5914],[77.8,5997],[77.8,6080],[77.8,6168],[77.8,6252],[77.8,6330],[77.8,6413],[77.8,6496],[77.8,6585],[77.8,6663],[77.8,6751],[77.8,6830],[77.8,6913],[77.8,6996],[77.8,7079],[77.8,7162],[77.8,7246],[77.8,7333],[77.8,7415],[77.8,7496],[77.8,7583],[77.8,7663],[77.8,7749],[77.8,7834],[77.8,7918],[77.8,7996],[77.8,8079],[77.8,8163],[77.8,8251],[77.8,8332],[77.8,8414],[77.8,8502],[77.8,8584],[77.8,8663],[77.8,8751],[77.8,8834],[77.8,8913],[77.8,8996],[78.1,9084],[78.4,9162],[78.4,9245],[78.4,9334],[78.4,9413],[78.6,9500],[78.6,9578],[78.6,9662],[79,9750],[79.1,9829],[79.4,9912],[79.7,10000],[79.7,10084],[79.7,10166],[79.7,10245],[79.7,10328],[79.7,10415],[79.7,10495],[79.7,10578],[79.7,10662],[79.7,10745],[79.7,10828],[79.7,10912],[79.7,10999],[79.7,11077],[79.7,11162],[79.7,11245],[79.7,11327],[79.7,11411],[79.7,11494],[79.6,11583],[79.2,11661],[76.5,11750],[75.5,11832],[74.8,11911],[74.5,11999],[74.2,12077],[73.5,12166],[73,12244],[72.6,12333],[72.1,12416],[72,12494],[72.5,12577],[76.7,12666],[81.6,12748],[85.5,12833],[89.2,12915],[91.6,12999],[92.2,13084],[92.2,13160],[92.2,13249],[92.4,13333],[93.4,13414],[94.6,13493],[96.3,13577],[98.1,13665],[99.1,13748],[99.7,13832],[100,13914],[100,13994],[100,14076],[100,14160],[100,14244],[100,14331],[100,14410],[100,14498],[100,14581],[100,14660],[100,14748],[100,14826],[100,14915],[100,14998],[100,15082],[100,15164],[100,15243],[100,15326],[100,15409],[100,15497],[100,15576],[100,15665],[100,15743],[100,15826],[100,15915],[100,15997],[100,16081],[100,16164],[100,16243],[100,16325],[100,16415],[100,16493],[100,16576],[100,16659],[100,16747],[100,16825],[100,16914],[100,16997],[100,17080],[100,17159],[100,17247],[100,17325],[100,17414],[100,17497],[100,17575],[100,17659],[100,17742],[100,17825],[100,17908],[100,17992],[100,18075],[100,18159],[100,18242],[100,18325],[100,18414],[100,18491],[100,18575],[100,18663],[100,18747],[100,18830],[100,18908],[100,18996],[100,19075],[100,19158],[100,19245],[100,19329],[100,19412],[100,19491],[100,19574],[100,19658],[100,19741],[100,19829],[100,19907],[100,19991],[100,20080],[100,20160],[100,20245],[100,20324],[100,20412],[100,20496],[100,20579],[100,20663],[100,20741],[100,20824],[100,20912],[100,20995],[100,21074],[100,21157],[100,21244],[100,21324],[100,21413],[100,21490],[100,21579],[100,21661],[100,21740],[100,21823],[100,21907],[100,21990],[100,22074],[100,22162],[100,22245],[100,22323],[100,22411],[100,22495],[100,22577],[100,22661],[100,22740],[100,22828],[100,22911],[100,22989],[100,23074],[100,23161],[100,23240],[100,23328],[100,23406],[100,23495],[100,23573],[100,23659],[100,23739],[100,23823],[100,23911],[100,23995],[100,24077],[100,24156],[100,24239],[100,24323],[100,24411],[100,24494],[100,24573],[100,24661],[100,24745],[100,24828],[100,24911],[100,24994],[100,25072],[100,25160],[100,25242],[100,25328],[100,25405],[100,25495],[100,25572],[100,25660],[100,25738],[100,25826],[100,25911],[100,25988],[100,26072],[100,26159],[100,26243],[100,26327],[100,26405],[100,26488],[100,26572],[100,26655],[100,26738],[100,26821],[100,26910],[100,26994],[100,27071],[100,27159],[100,27244],[100,27322],[100,27405],[100,27494],[100,27571],[100,27659],[100,27738],[100,27821],[100,27904],[100,27993],[100,28071],[100,28155],[100,28238],[100,28326],[100,28404],[100,28491],[100,28571],[100,28659],[100,28741],[100,28821],[100,28904],[100,28992],[100,29071],[100,29153],[100,29242],[100,29321],[100,29404]]",650.1829,652.9487,91.25,1.5651,"[{""rating"":91.25,""responseTime"":1.5651000000239037}]",space,2.2336,,652.9489,Partially,50,652.9518,,,[],,0,2,2,2,1,audio/Narrative7Situation2.wav,audio/Narrative8Situation2.wav,audio/Narrative5Situation2.wav,audio/Narrative6Situation2.wav,3,3,3,3,,,,,,,,,,,,,,,,,,,,,,,,,,,,,,,,,,,,,,,
,,,,,66a48261758e59c5f2dd8ceb,2025-07-07_22h54.07.705,group3.4_multiperson,2023.2.2,Win32,59.88023952,686c2ebf0248f13bef9af11f,686c8841e8475ef4da42a883,,,,,,,,,,,,,,,,,,,,,,,,,,,,,652.952,2,audio/Narrative5Situation3.wav,655.9637,,655.9638,669.8703,"[[52.1,83],[50.2,165],[49.5,249],[49.3,328],[49.3,415],[49,499],[48.9,577],[48.9,666],[48.9,748],[48.9,832],[48.9,916],[48.9,999],[48.9,1081],[48.9,1166],[48.9,1244],[48.9,1331],[48.9,1416],[48.9,1498],[48.9,1582],[48.9,1666],[48.9,1749],[37.5,1832],[27.4,1915],[22.1,1994],[20.6,2082],[19.3,2160],[17.8,2249],[17.1,2327],[16.7,2410],[16.4,2493],[17.7,2582],[41.6,2665],[55.1,2748],[59.2,2827],[61.6,2915],[64.1,2999],[66.6,3081],[68.8,3166],[69.5,3248],[69.7,3327],[70.2,3414],[70.5,3493],[70.6,3581],[70.6,3665],[70.6,3749],[70.6,3832],[70.6,3909],[70.6,3993],[70.6,4077],[70.6,4159],[70.6,4243],[70.6,4330],[70.6,4409],[70.6,4498],[70.6,4576],[70.6,4659],[70.6,4747],[70.6,4827],[70.6,4909],[70.6,4998],[70.6,5081],[70.6,5159],[70.6,5242],[70.6,5326],[70.6,5409],[70.6,5492],[70.6,5576],[70.6,5659],[70.6,5748],[70.6,5826],[70.6,5909],[70.6,5997],[70.6,6076],[70.6,6164],[70.6,6248],[70.6,6330],[70.6,6409],[70.6,6496],[70.6,6579],[70.6,6658],[70.6,6745],[70.6,6825],[70.6,6909],[70.6,6991],[70.6,7075],[70.6,7159],[70.6,7247],[70.6,7329],[70.6,7412],[70.6,7492],[70.6,7575],[70.6,7663],[70.6,7741],[70.6,7825],[70.6,7913],[70.6,7991],[70.6,8080],[70.6,8162],[70.6,8247],[70.6,8329],[70.6,8413],[70.6,8491],[70.6,8574],[70.6,8661],[70.6,8741],[70.6,8827],[70.6,8912],[70.6,8990],[70.6,9078],[70.6,9158],[70.6,9241],[70.6,9324],[70.6,9407],[70.6,9490],[71.3,9579],[71.9,9657],[72.5,9746],[73,9829],[73.4,9910],[73.8,9996],[73.8,10074],[73.8,10159],[73.8,10240],[73.8,10324],[73.8,10411],[73.8,10490],[74.4,10577],[76.6,10662],[77.6,10746],[77.8,10823],[77.8,10911],[77.9,10994],[77.9,11078],[77.9,11156],[77.9,11245],[77.9,11328],[77.9,11410],[77.9,11490],[77.9,11579],[77.9,11657],[77.9,11739],[77.9,11828],[77.9,11906],[77.9,11989],[77.9,12078],[77.9,12156],[77.9,12244],[77.9,12328],[77.9,12411],[77.9,12490],[77.9,12578],[77.9,12660],[77.9,12739],[77.9,12822],[77.9,12911],[77.9,12989],[77.9,13077],[77.9,13156],[77.9,13239],[77.9,13322],[77.9,13406],[77.9,13489],[77.9,13577],[77.9,13661],[77.9,13739],[77.9,13822],[77.9,13905]]",669.8706,671.2746,81.04166985,0.8794,"[{""rating"":81.04166984558105,""responseTime"":0.8793999999761581}]",space,0.8669,,671.2747,Definitely yes,100,671.2768,,,[],,0,3,3,3,1,audio/Narrative7Situation3.wav,audio/Narrative8Situation3.wav,audio/Narrative5Situation3.wav,audio/Narrative6Situation3.wav,8,4,3,5,,,,,,,,,,,,,,,,,,,,,,,,,,,,,,,,,,,,,,,
,,,,,66a48261758e59c5f2dd8ceb,2025-07-07_22h54.07.705,group3.4_multiperson,2023.2.2,Win32,59.88023952,686c2ebf0248f13bef9af11f,686c8841e8475ef4da42a883,,,,,,,,,,,,,,,,,,,,,,,,,,,,,671.277,2,audio/Narrative5Situation4.wav,672.286,,672.286,692.6829,"[[81.1,2081],[87.8,2165],[88.1,2253],[88.1,2335],[88.1,2415],[88.1,2498],[88.1,2585],[88.1,2665],[88.1,2753],[88.1,2831],[88.1,2915],[88.1,2998],[88.1,3081],[88.1,3165],[88.1,3252],[88.1,3331],[88.1,3419],[88.1,3503],[88.1,3586],[88.1,3664],[88.1,3747],[88.1,3835],[88.1,3919],[88.1,3997],[88.1,4086],[88.1,4164],[88.1,4252],[88.1,4330],[88.1,4414],[88.1,4497],[88.1,4580],[88.1,4664],[88.1,4753],[88.1,4834],[88.1,4913],[88.1,5001],[88.1,5080],[88.1,5163],[88.1,5247],[88.1,5330],[88.1,5413],[88.1,5501],[88.1,5580],[88.1,5663],[88.1,5752],[88.1,5830],[88.1,5913],[88.1,6001],[88.1,6080],[88.1,6163],[88.1,6246],[88.1,6330],[88.1,6413],[88.1,6500],[88.1,6580],[88.1,6663],[88.1,6746],[88.1,6835],[88.1,6912],[88.1,7000],[88.1,7079],[88.1,7162],[88.1,7249],[88.1,7335],[88.1,7417],[88.1,7496],[88.1,7583],[88.1,7668],[88.1,7746],[88.1,7829],[88.1,7918],[88.1,7995],[88.1,8079],[88.1,8162],[88.1,8249],[88.1,8328],[88.1,8412],[88.1,8501],[88.1,8579],[88.1,8662],[88.1,8750],[88.1,8833],[88.1,8912],[88.1,8995],[88.1,9078],[88.1,9162],[88.1,9249],[88.1,9332],[88.1,9412],[88.1,9495],[88.1,9578],[88.1,9662],[88.1,9750],[88.1,9828],[88.1,9911],[88.1,9995],[88.1,10078],[88.1,10162],[88.1,10245],[88.1,10328],[88.1,10416],[88.1,10495],[88.1,10583],[88.1,10661],[88.1,10749],[88.1,10833],[88.1,10911],[88.1,10994],[88.1,11082],[88.1,11161],[88.1,11249],[88.1,11333],[88.1,11411],[88.1,11496],[88.1,11580],[88.1,11661],[88.1,11745],[88.1,11827],[88.1,11911],[88.1,12000],[88.1,12083],[88.1,12161],[88.1,12249],[88.1,12327],[88.1,12410],[88.1,12499],[88.1,12582],[88.1,12665],[88.1,12744],[88.1,12832],[88.1,12913],[88.1,12993],[88.1,13081],[88.1,13160],[88.1,13244],[88.1,13329],[88.1,13410],[88.1,13499],[88.1,13576],[88.1,13665],[88.1,13744],[88.1,13832],[88.1,13910],[88.1,13993],[88.1,14082],[88.1,14160],[88.1,14243],[88.1,14331],[88.1,14410],[88.1,14497],[88.1,14576],[88.1,14665],[88.1,14748],[88.1,14831],[88.1,14910],[88.1,14993],[88.1,15076],[88.1,15159],[88.1,15245],[88.1,15326],[88.1,15409],[88.1,15493],[88.1,15576],[88.1,15664],[88.1,15743],[88.1,15826],[88.1,15909],[88.1,15992],[88.1,16076],[88.1,16162],[92.8,16247],[94.6,16330],[96.1,16415],[97.2,16492],[98.8,16576],[99.7,16664],[100,16747],[100,16825],[100,16909],[100,16992],[100,17080],[100,17158],[100,17242],[100,17325],[100,17408],[100,17492],[100,17575],[100,17659],[100,17747],[100,17825],[100,17908],[100,17997],[100,18076],[100,18158],[100,18247],[100,18330],[100,18408],[100,18496],[100,18578],[100,18658],[100,18746],[100,18825],[100,18908],[100,18991],[100,19075],[100,19163],[100,19241],[100,19324],[100,19408],[100,19491],[100,19575],[100,19657],[100,19741],[100,19825],[100,19907],[100,19996],[100,20075],[100,20157],[100,20241],[100,20325]]",692.683,694.4267,93.33333969,1.4505,"[{""rating"":93.33333969116211,""responseTime"":1.4505000000000337}]",space,1.2032,,694.4268,Definitely yes,100,694.4287,,,[],,0,4,4,4,1,audio/Narrative7Situation4.wav,audio/Narrative8Situation4.wav,audio/Narrative5Situation4.wav,audio/Narrative6Situation4.wav,3,3,1,2,,,,,,,,,,,,,,,,,,,,,,,,,,,,,,,,,,,,,,,
,,,,,66a48261758e59c5f2dd8ceb,2025-07-07_22h54.07.705,group3.4_multiperson,2023.2.2,Win32,59.88023952,686c2ebf0248f13bef9af11f,686c8841e8475ef4da42a883,,,,,,,,,,,,,,,,,,,,,,,,,,,,,694.429,2,audio/Narrative5Situation5.wav,699.4294,,699.4294,714.8552,"[[68,661],[62.9,744],[56.1,832],[53.4,911],[51.7,1000],[50.7,1083],[50.4,1160],[50.4,1243],[50.4,1333],[50.4,1410],[50.4,1499],[50.4,1582],[50.4,1660],[50.4,1744],[50.4,1833],[50.4,1913],[49.9,1993],[49.2,2080],[49,2160],[48.9,2243],[48.9,2326],[48.9,2410],[48.9,2493],[49.7,2577],[50,2660],[50,2748],[46.7,2826],[44.1,2915],[42.9,2993],[46,3076],[52,3164],[56.5,3247],[57.8,3332],[57.5,3410],[38.8,3497],[28.6,3583],[27.4,3665],[26.4,3749],[22.6,3826],[19.2,3910],[17.4,3998],[16.4,4079],[16,4159],[14.8,4247],[12.9,4326],[12,4414],[11.4,4497],[11.1,4575],[11,4659],[10.7,4745],[10.7,4831],[10.5,4914],[10.4,4992],[10.3,5080],[10.3,5163],[10.2,5243],[10.2,5331],[10.2,5414],[10.2,5492],[10.2,5581],[10.2,5659],[10.2,5742],[10.2,5825],[10.2,5914],[10.2,5992],[10.2,6080],[10.2,6163],[10.2,6248],[10.2,6325],[10.2,6408],[10.2,6491],[10.2,6575],[10.2,6659],[10.2,6742],[10.2,6825],[10.2,6913],[10.2,6996],[10.2,7075],[10.2,7163],[10.2,7242],[10.2,7329],[10.2,7408],[10.2,7492],[10.2,7574],[10.2,7663],[10.2,7745],[10.2,7824],[10.2,7913],[10.2,7996],[10.2,8079],[10.2,8158],[10.2,8245],[10.2,8330],[10.2,8407],[10.2,8494],[10.2,8579],[10.2,8662],[10.2,8741],[10.2,8824],[10.2,8913],[10.2,8995],[10.2,9078],[10.2,9157],[10.2,9241],[10.2,9329],[10.2,9407],[10.2,9490],[10.2,9574],[10.2,9657],[10.2,9740],[10.2,9828],[10.2,9911],[10.2,9990],[10.2,10073],[10.2,10156],[10.2,10240],[10.2,10328],[10.2,10406],[10.2,10494],[10.2,10573],[10.2,10657],[10.2,10740],[10.2,10823],[10.2,10906],[10.2,10995],[10.2,11078],[10.2,11160],[10.2,11240],[10.2,11325],[10.2,11406],[10.2,11490],[10.2,11577],[10.2,11657],[10.2,11739],[10.2,11823],[10.2,11906],[10.2,11989],[10.2,12073],[10.2,12159],[10.2,12239],[10.2,12326],[10.2,12406],[10.2,12494],[10.2,12578],[10.2,12656],[10.2,12739],[10.2,12822],[10.2,12906],[10.2,12993],[10.2,13072],[10.2,13155],[10.2,13239],[10.3,13323],[10.6,13405],[10.9,13489],[10.9,13572],[11,13662],[11.5,13739],[11.6,13827],[11.9,13905],[11.9,13988],[12,14076],[12,14155],[12.1,14244],[12.2,14322],[12.2,14410],[12.2,14488],[12.2,14572],[12.2,14655],[12.2,14738],[12.2,14822],[12.2,14905],[12.2,14993],[12.2,15077],[12.2,15155],[12.2,15243],[12.2,15321],[12.2,15405]]",714.8552,716.8052,10.9375,1.4831,"[{""rating"":10.9375,""responseTime"":1.48310000002391}]",space,1.3931,,716.8053,Definitely yes,100,716.8067,,,[],,0,5,5,5,1,audio/Narrative7Situation5.wav,audio/Narrative8Situation5.wav,audio/Narrative5Situation5.wav,audio/Narrative6Situation5.wav,5,2,5,2,,,,,,,,,,,,,,,,,,,,,,,,,,,,,,,,,,,,,,,
,,,,,66a48261758e59c5f2dd8ceb,2025-07-07_22h54.07.705,group3.4_multiperson,2023.2.2,Win32,59.88023952,686c2ebf0248f13bef9af11f,686c8841e8475ef4da42a883,,,,,,,,,,,,,,,,,,,,,,,,,,,,,716.8069,2,audio/Narrative5Situation6.wav,719.8156,,719.8156,725.5041,"[[999,0],[999,83],[999,171],[999,250],[999,333],[999,416],[999,500],[999,583],[999,671],[999,755],[999,838],[999,921],[999,1004],[999,1087],[56,1173],[56.4,1250],[55.7,1332],[50.5,1416],[49.8,1499],[49.2,1590],[49.2,1666],[49.2,1749],[49.2,1838],[49.2,1916],[49.2,2005],[49.2,2082],[49.2,2165],[49.2,2248],[49.2,2332],[49.2,2420],[49,2499],[49,2587],[49,2666],[49,2753],[49,2832],[49,2915],[49,2999],[49,3087],[49,3165],[49.1,3253],[49.1,3331],[49.1,3415],[49.1,3499],[49.1,3582],[49.1,3665],[49.1,3748],[49.1,3837],[49.1,3919],[49.1,4003],[49.1,4087],[49.1,4170],[49.1,4248],[49.1,4332],[49.1,4419],[49.1,4498],[49.1,4581],[49.1,4664],[49,4747],[49,4836],[48.9,4919],[48.5,5002],[43.9,5087],[41.3,5170],[40.4,5252],[39.8,5331],[39.6,5419],[39.6,5498],[39.3,5581],[38.3,5665]]",725.5042,727.7631,65.72916985,1.9467,"[{""rating"":65.72916984558105,""responseTime"":1.9466999999284553}]",space,1.7185,,727.7632,Not at all,0,727.7658,,,[],,0,6,6,6,1,audio/Narrative7Situation6.wav,audio/Narrative8Situation6.wav,audio/Narrative5Situation6.wav,audio/Narrative6Situation6.wav,3,2,3,2,,,,,,,,,,,,,,,,,,,,,,,,,,,,,,,,,,,,,,,
,,,,,66a48261758e59c5f2dd8ceb,2025-07-07_22h54.07.705,group3.4_multiperson,2023.2.2,Win32,59.88023952,686c2ebf0248f13bef9af11f,686c8841e8475ef4da42a883,,,,,,,,,,,,,,,,,,,,,,,,,,,,,727.7661,2,audio/Narrative5Situation7.wav,731.7777,,731.7778,752.8247,"[[999,0],[999,84],[999,166],[999,253],[999,333],[999,422],[999,505],[999,583],[999,670],[999,749],[999,832],[999,916],[999,999],[999,1087],[999,1166],[999,1249],[59.9,1336],[71.7,1421],[78.8,1505],[80.3,1585],[80.3,1665],[81,1754],[83.4,1837],[84.3,1920],[84.4,1998],[84.6,2082],[84.6,2168],[84.6,2254],[84.6,2332],[84.6,2415],[84.6,2499],[84.6,2582],[84.6,2665],[84.6,2753],[84.6,2832],[84.6,2918],[84.6,2998],[84.6,3087],[84.6,3169],[84.6,3252],[84.6,3336],[84.6,3414],[84.6,3498],[84.6,3584],[84.6,3664],[84.6,3748],[84.6,3832],[84.6,3920],[84.6,4003],[84.6,4081],[84.6,4169],[84.6,4248],[84.6,4331],[84.6,4414],[84.6,4500],[84.6,4586],[84.6,4669],[84.7,4753],[85,4831],[85.1,4915],[85.2,5003],[85.4,5085],[85.4,5165],[85.4,5251],[85.4,5336],[85.4,5419],[85.4,5497],[85.4,5584],[85.4,5668],[85.4,5747],[85.4,5835],[85.4,5914],[85.4,6002],[85.4,6086],[85.4,6169],[85.4,6247],[85.4,6336],[85.4,6419],[85.4,6497],[85.4,6580],[85.4,6664],[85.4,6747],[85.4,6835],[85.4,6917],[85.4,6996],[85.4,7086],[85.4,7164],[85.4,7253],[85.4,7330],[85.4,7418],[85.4,7496],[85.4,7580],[85.4,7668],[85.4,7751],[85.4,7835],[85.4,7918],[85.4,8002],[85.4,8084],[85.4,8168],[85.4,8246],[85.4,8329],[85.4,8418],[85.4,8496],[85.4,8584],[85.4,8662],[85.4,8746],[85.4,8834],[85.4,8913],[85.4,9001],[85.4,9086],[85.4,9162],[85.4,9246],[85.4,9329],[85.4,9418],[85.4,9501],[85.4,9585],[85.4,9662],[85.4,9745],[85.4,9833],[85.4,9912],[85.4,10001],[85.4,10083],[85.4,10162],[85.4,10251],[85.4,10329],[85.4,10417],[85.4,10500],[85.4,10581],[85.6,10667],[85.8,10750],[85.9,10832],[86,10912],[86.6,11000],[86.9,11084],[86.9,11161],[87.3,11250],[87.8,11335],[88.6,11417],[89.4,11500],[89.7,11584],[90,11661],[90,11744],[90,11828],[90,11911],[90.3,11995],[90.3,12078],[90.5,12167],[90.6,12245],[90.6,12332],[90.6,12417],[90.6,12499],[90.6,12577],[90.6,12667],[90.6,12745],[90.6,12827],[90.6,12911],[90.6,12999],[90.6,13082],[90.6,13166],[90.8,13249],[90.9,13333],[91.3,13416],[91.3,13494],[91.5,13577],[91.5,13660],[91.8,13749],[91.8,13831],[91.8,13915],[91.8,13994],[91.8,14077],[91.8,14160],[92.1,14244],[92.5,14327],[93,14410],[93.1,14493],[93.1,14576],[93.1,14660],[93.1,14744],[93.1,14827],[93.1,14910],[93.1,14994],[93.1,15076],[93.1,15160],[93.1,15243],[93.1,15327],[93.1,15414],[93.1,15493],[93.1,15576],[93.1,15660],[93.1,15743],[93.1,15830],[93.1,15914],[93.1,15998],[93.1,16077],[93.1,16160],[93.1,16247],[93.1,16331],[93.1,16409],[93.1,16497],[93.1,16576],[93.1,16659],[93.1,16747],[93.1,16825],[93.1,16909],[93.1,16992],[93.1,17076],[93.1,17159],[93.1,17247],[93.1,17326],[93.1,17409],[93.1,17492],[93.1,17576],[93.1,17659],[93.1,17742],[93.1,17830],[93.1,17909],[93.1,17992],[93.1,18075],[93.1,18159],[93.1,18242],[93.1,18325],[93.1,18414],[93.1,18496],[93.1,18580],[93.1,18659],[93.1,18741],[93.1,18825],[93.1,18909],[93.1,18995],[93.1,19080],[93.1,19158],[93.1,19247],[93.1,19325],[93.1,19408],[93.1,19491],[93.1,19575],[93.1,19658],[93.1,19747],[93.1,19825],[93.1,19908],[93.1,19991],[93.1,20075],[93.1,20158],[93.1,20241],[93.1,20327],[93.1,20414],[93.1,20491],[93.1,20575],[93.1,20658],[93.1,20741],[93.1,20828],[93.1,20907],[93.1,20991]]",752.8248,755.5735,84.58333969,2.3145,"[{""rating"":93.33333969116211,""responseTime"":0.9147000000476737},{""rating"":84.58333969116211,""responseTime"":2.3144999999999527}]",space,2.1872,,755.5738,Definitely yes,100,755.5751,,,[],,0,7,7,7,1,audio/Narrative7Situation7.wav,audio/Narrative8Situation7.wav,audio/Narrative5Situation7.wav,audio/Narrative6Situation7.wav,5,3,4,5,,,,,,,,,,,,,,,,,,,,,,,,,,,,,,,,,,,,,,,
,,,,,66a48261758e59c5f2dd8ceb,2025-07-07_22h54.07.705,group3.4_multiperson,2023.2.2,Win32,59.88023952,686c2ebf0248f13bef9af11f,686c8841e8475ef4da42a883,,,,,,,,,,,,,,,,,,,,,,,,,,,,,755.5752,2,audio/Narrative5Situation8.wav,758.5833,,758.5833,767.4018,"[[71.7,1088],[60.4,1171],[54.6,1254],[52.3,1337],[51.8,1415],[51.7,1499],[51.7,1586],[51.7,1665],[52,1749],[53.6,1837],[53.8,1920],[52.4,1999],[51.5,2087],[51.4,2170],[51.9,2253],[56.6,2337],[61.6,2420],[62.2,2504],[62.2,2582],[62.2,2666],[62.2,2749],[62.2,2837],[62.2,2915],[62.2,2999],[62.2,3082],[62.2,3165],[62.2,3248],[62.2,3332],[62.2,3416],[62.2,3498],[62.2,3581],[62.2,3665],[62.2,3748],[62.2,3831],[62.2,3915],[62.2,3998],[62.2,4081],[62.2,4164],[62.2,4248],[62.2,4331],[62.2,4415],[62.2,4498],[62.2,4587],[62.2,4664],[62.2,4748],[62.2,4831],[62.2,4921],[62.2,4997],[62.2,5081],[62.2,5164],[62.2,5248],[62.2,5331],[62.2,5414],[62.2,5498],[62.2,5585],[62.2,5669],[62.2,5752],[62.2,5835],[63.3,5919],[64,5997],[64.3,6081],[64.3,6164],[64.3,6247],[64.3,6331],[64.3,6414],[64.3,6497],[64.3,6580],[64.3,6663],[64.3,6746],[64.3,6830],[64.3,6914],[64.3,6996],[64.3,7080],[64.3,7163],[64.3,7247],[64.3,7333],[64.3,7413],[64.3,7497],[64.3,7580],[64.3,7669],[64.3,7751],[64.3,7830],[64.3,7913],[64.3,7996],[64.3,8079],[64.3,8163],[64.3,8252],[64.3,8334],[64.3,8418],[65.3,8496],[66.8,8580],[67.5,8668],[67.8,8746]]",767.4021,770.4846,54.6875,1.7531,"[{""rating"":54.6875,""responseTime"":1.7531000000238919}]",space,2.5193,,770.4846,Partially,50,770.4878,,,[],,0,8,8,8,1,audio/Narrative7Situation8.wav,audio/Narrative8Situation8.wav,audio/Narrative5Situation8.wav,audio/Narrative6Situation8.wav,2,3,3,5,,,,,,,,,,,,,,,,,,,,,,,,,,,,,,,,,,,,,,,
,,,,,66a48261758e59c5f2dd8ceb,2025-07-07_22h54.07.705,group3.4_multiperson,2023.2.2,Win32,59.88023952,686c2ebf0248f13bef9af11f,686c8841e8475ef4da42a883,,,,,,,,,,,,,,,,,,,,,,,,,,,,,770.4879,2,audio/Narrative5Situation9.wav,773.4983,,773.4984,813.0449,"[[52.9,916],[49.5,1000],[48.9,1083],[48.5,1161],[48.5,1244],[48.5,1327],[50.8,1416],[58.1,1499],[68.3,1583],[74,1666],[77.4,1745],[83.9,1827],[93,1911],[99.2,1999],[100,2077],[100,2166],[100,2250],[100,2327],[100,2410],[100,2498],[100,2577],[100,2661],[100,2749],[100,2827],[100,2916],[100,2994],[100,3077],[100,3160],[100,3244],[100,3327],[100,3410],[100,3493],[100,3582],[100,3665],[100,3743],[100,3831],[100,3914],[100,3998],[100,4081],[100,4160],[100,4248],[100,4326],[100,4413],[100,4498],[100,4577],[100,4660],[100,4743],[100,4826],[100,4915],[100,4998],[100,5081],[100,5160],[100,5247],[100,5326],[100,5409],[100,5492],[100,5579],[100,5664],[100,5743],[100,5826],[100,5915],[100,5992],[100,6076],[100,6159],[100,6246],[100,6326],[100,6413],[100,6492],[100,6576],[100,6659],[100,6742],[100,6825],[100,6909],[100,6997],[100,7075],[100,7159],[100,7242],[100,7325],[100,7409],[100,7497],[100,7575],[100,7663],[100,7742],[100,7825],[100,7914],[100,7997],[100,8079],[100,8158],[100,8241],[100,8325],[100,8408],[100,8491],[100,8580],[100,8658],[100,8746],[100,8825],[100,8908],[100,8996],[100,9079],[100,9163],[100,9241],[100,9325],[100,9408],[100,9491],[100,9579],[100,9664],[100,9746],[100,9825],[100,9908],[100,9991],[100,10074],[100,10157],[100,10246],[100,10324],[100,10408],[100,10496],[100,10574],[100,10657],[100,10740],[100,10828],[100,10912],[100,10996],[100,11074],[100,11157],[100,11246],[100,11324],[100,11412],[100,11490],[100,11574],[100,11657],[100,11746],[100,11823],[100,11907],[100,11995],[100,12073],[100,12162],[100,12240],[100,12328],[100,12412],[100,12494],[100,12573],[100,12656],[100,12745],[100,12823],[100,12906],[100,12989],[100,13078],[100,13156],[100,13242],[100,13328],[100,13406],[100,13494],[100,13573],[100,13661],[100,13745],[100,13822],[100,13906],[100,13989],[100,14072],[100,14156],[100,14245],[100,14322],[100,14406],[100,14489],[100,14577],[100,14655],[100,14739],[100,14822],[100,14905],[100,14989],[100,15077],[100,15156],[100,15242],[100,15327],[100,15411],[100,15488],[100,15572],[100,15660],[100,15739],[100,15827],[100,15906],[100,15989],[100,16072],[100,16155],[100,16243],[100,16322],[100,16410],[100,16494],[100,16571],[100,16655],[100,16743],[100,16822],[100,16908],[100,16992],[100,17071],[100,17155],[100,17242],[100,17321],[100,17404],[100,17492],[100,17576],[100,17655],[100,17742],[100,17825],[100,17905],[100,17988],[100,18071],[100,18154],[100,18238],[100,18325],[100,18405],[100,18493],[100,18571],[100,18655],[100,18737],[100,18820],[100,18904],[100,18988],[100,19075],[100,19154],[100,19237],[100,19326],[100,19408],[100,19487],[100,19570],[100,19658],[100,19740],[100,19820],[100,19904],[100,19987],[100,20070],[100,20159],[100,20242],[100,20326],[100,20404],[100,20487],[100,20575],[100,20658],[100,20736],[100,20823],[100,20908],[100,20986],[100,21075],[100,21157],[100,21236],[100,21325],[100,21403],[100,21486],[100,21569],[100,21653],[100,21736],[100,21819],[100,21903],[100,21990],[100,22069],[100,22153],[100,22236],[100,22319],[100,22402],[100,22490],[100,22575],[100,22657],[100,22735],[100,22819],[100,22902],[100,22985],[100,23073],[100,23157],[100,23235],[100,23325],[100,23407],[100,23488],[100,23574],[100,23652],[100,23735],[100,23818],[100,23907],[100,23985],[100,24071],[100,24152],[100,24235],[100,24319],[100,24402],[100,24489],[100,24574],[100,24652],[100,24736],[100,24818],[100,24902],[100,24990],[100,25068],[100,25156],[100,25235],[100,25318],[100,25406],[100,25485],[100,25568],[100,25655],[100,25735],[100,25822],[100,25901],[100,25989],[100,26072],[100,26151],[100,26235],[100,26318],[100,26406],[100,26484],[100,26568],[100,26651],[100,26734],[100,26817],[100,26906],[100,26984],[100,27067],[100,27156],[100,27234],[100,27322],[100,27401],[100,27487],[100,27572],[100,27651],[100,27734],[100,27817],[100,27900],[100,27984],[100,28067],[100,28153],[100,28234],[100,28317],[100,28400],[100,28487],[100,28572],[100,28650],[100,28733],[100,28817],[100,28900],[100,28983],[100,29072],[100,29150],[100,29233],[100,29316],[100,29400],[100,29488],[100,29566],[100,29656],[100,29737],[100,29821],[100,29905],[100,29983],[100,30071],[100,30149],[100,30233],[100,30316],[100,30404],[100,30483],[100,30571],[100,30649],[100,30732],[100,30821],[100,30905],[100,30988],[100,31066],[100,31153],[100,31232],[100,31316],[100,31399],[100,31485],[100,31571],[100,31649],[100,31732],[100,31816],[100,31904],[100,31982],[100,32065],[100,32153],[100,32232],[100,32315],[100,32398],[100,32481],[100,32566],[100,32648],[100,32735],[100,32815],[100,32898],[100,32981],[100,33065],[100,33153],[100,33236],[100,33315],[100,33398],[100,33485],[100,33570],[100,33648],[100,33737],[100,33815],[100,33898],[100,33981],[100,34065],[100,34148],[100,34236],[100,34315],[100,34401],[100,34485],[100,34565],[100,34647],[100,34731],[100,34814],[100,34901],[100,34987],[100,35068],[98.6,35152],[89.2,35235],[80.3,35319],[77,35402],[75.8,35486],[71.8,35568],[66.1,35652],[63.6,35736],[63,35814],[62.9,35902],[62.9,35986],[62.6,36064],[62.4,36147],[62.1,36230],[61.7,36319],[60.9,36402],[60.4,36486],[59.9,36568],[59.5,36651],[59.5,36735],[59.5,36813],[59.5,36897],[59.5,36985],[59.5,37063],[54.4,37151],[53.2,37235],[53,37313],[52.7,37396],[52.7,37480],[52.6,37563],[51.4,37651],[48.9,37730],[46,37813],[45.1,37901],[44.8,37980],[44.5,38063],[44.2,38146],[44.2,38229],[43.9,38313],[43.9,38396],[43.9,38479],[43.9,38563],[43.9,38650],[43.9,38729],[43.9,38812],[43.9,38900],[43.9,38979],[43.9,39062],[43.9,39146],[43.9,39229],[43.9,39312],[43.9,39396],[43.9,39479]]",813.0455,814.7605,82.29166985,1.348,"[{""rating"":82.29166984558105,""responseTime"":1.3479999999999563}]",space,1.1839,,814.7606,Not at all,0,814.7621,,,[],,0,9,9,9,1,audio/Narrative7Situation9.wav,audio/Narrative8Situation9.wav,audio/Narrative5Situation9.wav,audio/Narrative6Situation9.wav,2,3,3,4,,,,,,,,,,,,,,,,,,,,,,,,,,,,,,,,,,,,,,,
,,,,,66a48261758e59c5f2dd8ceb,2025-07-07_22h54.07.705,group3.4_multiperson,2023.2.2,Win32,59.88023952,686c2ebf0248f13bef9af11f,686c8841e8475ef4da42a883,,,,,,,,,,,,,,,,,,,,,,,,,,,,,814.7623,2,audio/Narrative6Situation1.wav,816.7766,,816.7766,843.3483,"[[75.9,1170],[64.5,1248],[59.8,1332],[56.6,1420],[52.8,1499],[49.3,1587],[47.7,1670],[40.4,1754],[26.4,1836],[25.7,1915],[25.7,1998],[25.7,2081],[29.3,2171],[46.6,2253],[58.9,2337],[64.1,2415],[64.6,2503],[64.2,2587],[64.2,2670],[66.3,2754],[69.1,2838],[69.7,2914],[69.7,2998],[55.6,3081],[49.2,3170],[48.6,3253],[48.3,3336],[48.3,3420],[48.3,3502],[48.3,3581],[48.3,3668],[44.3,3753],[38,3837],[34.7,3914],[33.5,3997],[33,4081],[32.9,4169],[38.5,4251],[42,4331],[46.1,4414],[47.7,4497],[48.1,4580],[48.8,4669],[49,4747],[49,4830],[49,4919],[49,4998],[49,5085],[49,5168],[50.1,5247],[66.1,5335],[78,5418],[82.1,5497],[84.9,5586],[90,5668],[98.3,5752],[100,5835],[100,5917],[100,5997],[100,6080],[100,6163],[100,6247],[100,6335],[100,6418],[100,6499],[100,6580],[100,6663],[100,6751],[100,6830],[100,6918],[100,7000],[100,7080],[100,7163],[100,7246],[100,7329],[100,7413],[100,7497],[100,7579],[100,7668],[100,7746],[100,7830],[100,7918],[100,7996],[100,8085],[100,8162],[100,8246],[100,8329],[100,8412],[97.7,8500],[89.3,8584],[87.6,8665],[87.6,8746],[87.6,8829],[86.8,8917],[81.6,9000],[77.4,9084],[77,9162],[76.7,9250],[76.5,9333],[76.4,9412],[76.4,9500],[76.4,9583],[76.4,9668],[76.4,9750],[76.4,9828],[72,10000],[70.8,10083],[70.4,10161],[69.5,10250],[68.2,10329],[66.8,10412],[66,10495],[65.7,10578],[65.4,10665],[65.4,10744],[65.4,10828],[65.4,10912],[65.4,10999],[65.4,11078],[65.4,11167],[65.4,11244],[65.4,11328],[34.3,11994],[34.2,12081],[33.9,12160],[33.3,12249],[31.8,12333],[30.5,12416],[29,12499],[26.5,12582],[26.1,12665],[26.1,12744],[26.1,12827],[26.1,12911],[25.6,12999],[21.4,13082],[20.2,13166],[20.1,13244],[19.5,13332],[19.2,13415],[18.9,13499],[18.6,13582],[18.2,13660],[17.6,13743],[17.3,13827],[17.3,13915],[16.8,13998],[16.4,14077],[16.1,14160],[15.9,14243],[15.7,14331],[14.6,14410],[13.9,14499],[13.6,14578],[13.2,14660],[13,14743],[12.9,14830],[12.9,14910],[12.9,14993],[12.9,15079],[12.9,15160],[12.9,15243],[12.9,15326],[12.9,15413],[12.9,15495],[12.9,15581],[12.9,15659],[12.9,15743],[12.9,15826],[12.9,15914],[12.9,15996],[12.9,16076],[12.9,16159],[12.9,16242],[12.9,16326],[12.9,16409],[12.9,16498],[12.9,16581],[12.9,16659],[12.9,16742],[12.9,16825],[12.9,16913],[12.9,16997],[12.9,17075],[12.9,17159],[12.9,17242],[12.9,17325],[12.9,17413],[12.9,17492],[12.9,17575],[12.9,17663],[12.9,17742],[14.6,17825],[14.7,17908],[15,17992],[15,18080],[15,18163],[15,18241],[15,18329],[15,18412],[15,18492],[15,18575],[15,18663],[15,18747],[15,18825],[15,18910],[15,18994],[15,19075],[15,19158],[15.2,19241],[15.3,19329],[15.3,19408],[15.3,19491],[15.3,19580],[13.8,19663],[12,19746],[10.5,19829],[8.9,19912],[7.4,19996],[5.7,20080],[2.1,20162],[0.7,20246],[0.1,20324],[1.5,20996],[5.6,21074],[12.9,21162],[17.5,21245],[20.2,21329],[26.8,21414],[32.3,21495],[36.4,21580],[40.5,21663],[43,21746],[45,21829],[46.6,21907],[49.5,21990],[51.1,22078],[52.4,22162],[53.6,22245],[54.4,22328],[56.3,22412],[57.6,22495],[58.9,22578],[60,22662],[60.5,22745],[62.3,22828],[64.3,22906],[66.8,22989],[69.5,23073],[70.9,23162],[72.2,23245],[72.5,23322],[72.5,23409],[72.5,23494],[72.5,23578],[72.5,23656],[72.5,23745],[72.5,23828],[72.5,23906],[72.5,23989],[72.5,24073],[72.5,24156],[72.5,24239],[72.5,24322],[72.5,24406],[72.5,24493],[73,24572],[73.6,24660],[74.1,24740],[74.4,24828],[74.6,24905],[74.6,24989],[74.7,25072],[74.7,25155],[74.7,25239],[74.7,25322],[74.7,25409],[74.7,25488],[74.7,25572],[74.7,25659],[74.9,25739],[74.9,25822],[74.9,25905],[74.9,25989],[74.9,26072],[74.9,26155],[74.9,26238],[74.9,26322],[74.9,26405],[74.9,26493],[74.9,26571]]",843.3484,845.4646,41.5625,1.7205,"[{""rating"":41.5625,""responseTime"":1.7205000000000155}]",space,1.5823,,845.4648,Not at all,0,845.4662,,,[],,0,10,10,10,1,audio/Narrative8Situation1.wav,audio/Narrative7Situation1.wav,audio/Narrative6Situation1.wav,audio/Narrative5Situation1.wav,5,2,2,5,,,,,,,,,,,,,,,,,,,,,,,,,,,,,,,,,,,,,,,
,,,,,66a48261758e59c5f2dd8ceb,2025-07-07_22h54.07.705,group3.4_multiperson,2023.2.2,Win32,59.88023952,686c2ebf0248f13bef9af11f,686c8841e8475ef4da42a883,,,,,,,,,,,,,,,,,,,,,,,,,,,,,845.4664,2,audio/Narrative6Situation2.wav,848.4679,,848.468,876.9891,"[[45.2,916],[50.3,999],[51.8,1078],[53.8,1161],[56,1249],[59.7,1332],[64.9,1416],[69.9,1494],[73.3,1577],[75.3,1661],[76.6,1744],[78.1,1832],[79.1,1917],[79.6,1999],[79.9,2078],[79.9,2166],[79.9,2244],[79.9,2333],[79.9,2410],[79.9,2499],[79.9,2582],[79.9,2660],[79.9,2747],[79.9,2827],[79.9,2910],[79.9,2997],[79.9,3076],[79.9,3160],[79.9,3243],[79.9,3327],[79.9,3410],[79.9,3498],[79.9,3577],[79.9,3660],[79.9,3743],[79.9,3827],[79.9,3914],[79.9,3993],[79.9,4077],[79.9,4160],[79.9,4244],[79.9,4326],[79.9,4410],[79.9,4499],[79.9,4576],[79.9,4664],[79.9,4743],[79.9,4826],[79.9,4909],[79.9,4992],[79.9,5080],[79.9,5159],[79.9,5242],[79.9,5326],[79.9,5409],[79.9,5492],[79.9,5576],[80,5659],[80.3,5742],[80.3,5826],[80.3,5909],[80.3,5998],[80.4,6075],[80.4,6161],[80.4,6242],[80.4,6331],[80.4,6409],[80.4,6492],[80.4,6580],[80.4,6659],[80.4,6742],[80.4,6825],[80.4,6909],[80.4,6992],[80.4,7075],[80.4,7158],[80.5,7242],[80.6,7326],[80.6,7408],[80.6,7497],[80.6,7575],[80.6,7658],[80.6,7741],[80.6,7825],[80.6,7909],[80.6,7996],[80.6,8075],[80.6,8163],[80.6,8241],[80.6,8325],[80.6,8408],[80.6,8494],[80.6,8574],[80.6,8658],[80.6,8741],[80.6,8828],[80.6,8913],[80.6,8991],[80.6,9074],[80.6,9158],[80.6,9241],[80.6,9324],[80.5,9407],[80.5,9491],[80.5,9574],[80.5,9663],[80.5,9742],[80.5,9824],[80.5,9907],[80.5,9991],[80.5,10074],[80.5,10163],[80.5,10241],[80.5,10328],[80.5,10407],[80.5,10490],[80.5,10574],[80.5,10657],[80.5,10740],[80.5,10824],[80.5,10907],[80.5,10990],[80.5,11074],[80.5,11157],[80.5,11240],[80.5,11328],[80.5,11407],[80.5,11490],[80.5,11573],[80.5,11656],[80.4,11740],[80.4,11823],[80.4,11906],[80.4,11990],[80.4,12073],[80.4,12156],[80.4,12240],[80.4,12328],[80.3,12406],[80.3,12490],[80.3,12573],[80.3,12656],[80.3,12744],[80.3,12823],[80.6,12911],[83.3,12993],[85,13078],[86.8,13156],[87.8,13245],[89.1,13322],[90,13411],[90.6,13489],[91.6,13577],[92.2,13660],[92.5,13739],[93.4,13827],[93.8,13905],[94.1,13993],[95,14078],[95.3,14156],[95.6,14245],[95.9,14328],[96.6,14410],[97.4,14494],[97.8,14572],[98.1,14656],[98.3,14744],[98.4,14822],[98.9,14909],[99.1,14994],[99.1,15075],[99.3,15155],[99.4,15239],[99.6,15327],[99.6,15405],[99.6,15488],[99.6,15571],[99.6,15655],[99.6,15738],[99.6,15822],[99.6,15905],[99.6,15988],[99.6,16072],[99.6,16159],[99.6,16238],[99.6,16321],[99.6,16405],[99.6,16488],[99.6,16571],[99.6,16660],[99.6,16738],[99.6,16821],[99.6,16905],[99.6,16988],[99.6,17071],[99.6,17159],[99.6,17238],[99.6,17321],[99.6,17404],[99.6,17488],[99.6,17575],[99.6,17654],[99.6,17737],[99.6,17820],[99.6,17908],[99.6,17987],[99.6,18070],[99.6,18154],[99.6,18237],[99.6,18325],[99.6,18403],[99.6,18487],[99.6,18570],[99.6,18653],[99.6,18737],[99.6,18820],[99.6,18903],[99.6,18990],[99.6,19075],[99.6,19158],[99.6,19241],[99.6,19323],[99.6,19408],[99.6,19486],[99.6,19570],[99.6,19653],[99.6,19736],[99.6,19819],[99.6,19903],[99.6,19986],[99.6,20069],[99.6,20156],[99.6,20241],[99.6,20324],[99.6,20407],[99.6,20486],[99.6,20570],[99.6,20658],[99.6,20737],[99.6,20819],[99.6,20908],[99.6,20986],[99.6,21069],[99.6,21157],[99.6,21236],[99.6,21324],[99.6,21407],[99.6,21488],[99.6,21569],[99.6,21657],[99.6,21740],[99.6,21819],[99.6,21905],[99.6,21986],[99.6,22074],[99.6,22152],[99.6,22237],[99.6,22323],[99.6,22406],[99.6,22490],[99.6,22573],[99.6,22656],[99.6,22735],[99.6,22823],[99.6,22907],[99.6,22985],[99.6,23073],[99.6,23155],[99.6,23235],[99.6,23324],[99.6,23402],[99.6,23485],[99.6,23571],[99.6,23652],[99.6,23735],[99.6,23823],[99.6,23901],[99.6,23989],[99.6,24068],[99.6,24156],[99.6,24239],[99.6,24318],[99.6,24401],[99.6,24485],[99.6,24568],[99.6,24651],[99.6,24735],[99.6,24818],[99.6,24901],[99.6,24984],[99.6,25072],[99.6,25151],[99.6,25235],[99.6,25321],[99.6,25401],[99.6,25484],[99.6,25568],[99.6,25651],[99.6,25734],[99.6,25817],[99.6,25901],[99.6,25988],[99.6,26067],[99.6,26155],[99.6,26234],[99.6,26321],[99.6,26400],[99.6,26488],[99.6,26567],[99.6,26651],[99.6,26734],[99.6,26817],[99.6,26900],[99.6,26983],[99.6,27071],[99.6,27150],[99.6,27239],[99.6,27317],[99.6,27400],[99.6,27488],[99.6,27571],[99.6,27650],[99.6,27733],[99.6,27816],[99.6,27900],[99.6,27987],[99.6,28072],[99.6,28155],[99.6,28233],[99.6,28316],[99.6,28405],[99.6,28488]]",876.9891,879.3177,96.04166985,1.8409,"[{""rating"":99.58333969116211,""responseTime"":0.9332999999522826},{""rating"":96.04166984558105,""responseTime"":1.840899999976159}]",space,1.7704,,879.3179,Definitely yes,100,879.3192,,,[],,0,11,11,11,1,audio/Narrative8Situation2.wav,audio/Narrative7Situation2.wav,audio/Narrative6Situation2.wav,audio/Narrative5Situation2.wav,3,3,3,3,,,,,,,,,,,,,,,,,,,,,,,,,,,,,,,,,,,,,,,
,,,,,66a48261758e59c5f2dd8ceb,2025-07-07_22h54.07.705,group3.4_multiperson,2023.2.2,Win32,59.88023952,686c2ebf0248f13bef9af11f,686c8841e8475ef4da42a883,,,,,,,,,,,,,,,,,,,,,,,,,,,,,879.3193,2,audio/Narrative6Situation3.wav,884.32,,884.32,896.9437,"[[999,0],[999,78],[999,161],[999,244],[999,332],[999,416],[999,495],[999,577],[999,665],[999,749],[56.3,833],[54.8,916],[53.2,994],[52.4,1082],[51.5,1161],[50.4,1244],[49.8,1332],[49.5,1416],[49.5,1499],[49.5,1582],[49.5,1660],[49.5,1748],[49.5,1827],[49.5,1910],[49.5,1995],[49.5,2082],[49.5,2160],[49.5,2243],[49.5,2332],[49.5,2411],[49.5,2499],[49.5,2577],[49.5,2666],[49.5,2744],[49.7,2827],[50,2910],[50.2,2993],[50.5,3082],[50.5,3166],[50.5,3243],[50.5,3327],[50.5,3410],[50.4,3498],[50.4,3581],[50.4,3660],[50.4,3743],[50.4,3831],[51.6,3910],[52.5,3998],[53.4,4081],[54.1,4159],[54.6,4243],[55.5,4330],[57.6,4415],[58.4,4493],[58.6,4576],[58.8,4659],[58.8,4747],[58.6,4832],[57.3,4913],[53.6,4998],[47.5,5081],[41.5,5165],[39.7,5248],[36.4,5331],[35.1,5414],[35.1,5492],[35.1,5580],[35.1,5664],[35.1,5742],[35.1,5831],[35.1,5909],[35.1,5992],[35.1,6076],[35.1,6164],[35.1,6242],[35.1,6325],[35.1,6412],[35.1,6492],[35.1,6575],[35.1,6661],[35.1,6742],[35.1,6830],[35.1,6908],[35.1,6992],[35.1,7081],[35.1,7165],[35.1,7242],[45.4,7328],[55.1,7413],[64.4,7663],[69.7,7747],[73.4,7830],[75.4,7908],[77.4,7992],[80,8080],[82.5,8158],[83.1,8246],[83.6,8325],[84.5,8408],[85.6,8496],[85.9,8574],[86.6,8658],[86.8,8741],[87.1,8824],[87.5,8913],[87.8,8997],[88,9075],[88,9158],[88,9246],[88,9324],[88,9408],[88,9491],[88,9574],[88,9663],[88,9747],[88,9824],[88,9908],[88,9991],[88,10079],[88,10162],[88,10241],[88,10327],[88,10407],[88,10491],[88,10574],[88,10657],[88,10745],[88,10823],[88,10911],[88,10997],[88,11074],[88,11157],[88,11240],[88,11323],[88,11406],[88,11496],[88,11573],[88,11657],[88,11745],[88,11828],[88,11912],[88,11990],[88,12073],[88,12157],[88,12239],[88,12323],[88,12406],[88,12490],[88,12573]]",896.9439,899.1971,80.20833969,1.8697,"[{""rating"":88.02083969116211,""responseTime"":1.1622999999523245},{""rating"":80.20833969116211,""responseTime"":1.869700000047601}]",space,1.6995,,899.1971,Not at all,0,899.1986,,,[],,0,12,12,12,1,audio/Narrative8Situation3.wav,audio/Narrative7Situation3.wav,audio/Narrative6Situation3.wav,audio/Narrative5Situation3.wav,4,8,5,3,,,,,,,,,,,,,,,,,,,,,,,,,,,,,,,,,,,,,,,
,,,,,66a48261758e59c5f2dd8ceb,2025-07-07_22h54.07.705,group3.4_multiperson,2023.2.2,Win32,59.88023952,686c2ebf0248f13bef9af11f,686c8841e8475ef4da42a883,,,,,,,,,,,,,,,,,,,,,,,,,,,,,899.1988,2,audio/Narrative6Situation4.wav,901.2137,,901.2137,913.8264,"[[78,827],[63.3,915],[57.6,993],[54.9,1082],[53.9,1166],[52.7,1244],[52.2,1333],[51.3,1415],[50.4,1494],[50.1,1577],[49.8,1664],[49.8,1743],[49.8,1832],[49.8,1910],[49.8,1998],[49.8,2076],[49.8,2160],[49.8,2247],[49.8,2326],[49.8,2414],[49.8,2493],[49.8,2581],[49.8,2664],[49.8,2747],[49.8,2832],[49.8,2909],[49.8,2996],[49.8,3081],[49.8,3160],[49.8,3243],[49.9,3326],[50.2,3414],[50.4,3498],[50.4,3581],[50.4,3659],[50.4,3743],[50.4,3831],[50.4,3909],[50.4,3998],[50.4,4081],[50.4,4159],[50.4,4242],[50.4,4330],[50.4,4409],[50.4,4497],[50.4,4576],[50.4,4659],[50.4,4747],[50.4,4828],[50.4,4909],[50.4,4993],[50.4,5075],[50.4,5158],[50.4,5242],[50.4,5325],[50.4,5413],[50.4,5492],[50.4,5575],[50.4,5658],[50.4,5742],[50.4,5828],[50.4,5909],[50.4,5992],[50.4,6080],[50.4,6158],[50.4,6242],[50.5,6325],[51.3,6414],[51.8,6497],[52.1,6580],[52.2,6658],[52.5,6741],[53.1,6825],[53.6,6914],[54.3,6992],[55,7074],[55.5,7158],[56.1,7245],[56.7,7324],[57.1,7413],[57.2,7491],[57.5,7574],[57.8,7658],[58.4,7746],[59.1,7830],[59.9,7913],[60.5,7996],[60.9,8074],[61.1,8162],[61.3,8240],[61.3,8324],[61.6,8407],[61.9,8490],[62.3,8578],[62.5,8662],[62.7,8740],[62.8,8823],[62.8,8911],[62.8,8990],[62.8,9074],[62.8,9160],[62.8,9240],[62.8,9328],[62.8,9412],[62.8,9490],[62.8,9578],[62.8,9662],[62.8,9740],[62.8,9823],[62.8,9906],[62.8,9990],[62.8,10078],[62.8,10162],[62.8,10240],[62.8,10323],[62.8,10406],[62.8,10490],[62.8,10577],[62.8,10661],[62.8,10745],[62.8,10828],[62.8,10906],[62.8,10990],[62.8,11073],[62.8,11161],[62.8,11239],[62.8,11323],[62.8,11406],[63.1,11495],[63.4,11578],[63.8,11662],[63.8,11744],[64,11828],[64.1,11906],[64.1,11994],[64.1,12077],[64.3,12156],[64.4,12243],[65,12327],[65.8,12406],[66.3,12494],[66.6,12572]]",913.8265,917.3685,63.54166985,3.2175,"[{""rating"":63.54166984558105,""responseTime"":3.2174999999999727}]",space,2.9922,,917.3687,Not at all,0,917.3705,,,[],,0,13,13,13,1,audio/Narrative8Situation4.wav,audio/Narrative7Situation4.wav,audio/Narrative6Situation4.wav,audio/Narrative5Situation4.wav,3,3,2,1,,,,,,,,,,,,,,,,,,,,,,,,,,,,,,,,,,,,,,,
