consent.started,consent.stopped,consentResponse.keys,consentResponse.rt,consentResponse.duration,participantID,date,expName,psychopyVersion,OS,frameRate,STUDY_ID,SESSION_ID,opening1.started,opening1.stopped,keyEndingOpening1.keys,keyEndingOpening1.rt,keyEndingOpening1.duration,volumeAdjust.started,volumeAdjust.stopped,endingAdjust.keys,endingAdjust.rt,endingAdjust.duration,opening2.started,opening2.stopped,keyEndingOpening.keys,keyEndingOpening.rt,keyEndingOpening.duration,mouse.x,mouse.y,mouse.leftButton,mouse.midButton,mouse.rightButton,mouse.time,instructionLoop.thisRepN,instructionLoop.thisTrialN,instructionLoop.thisN,instructionLoop.thisIndex,instructionLoop.ran,readyForAudio.started,readyForAudio.stopped,fixation.started,run,audio_played,fixation.stopped,endPractice.keys,audioPre.started,audioPre.stopped,continuousResponses_audio,intRating.started,intRating.stopped,intQuestionSlider.response,intQuestionSlider.rt,intQuestionSlider.history,confirmResponse.keys,confirmResponse.rt,confirmResponse.duration,catchQuestion.started,catch_label,catch_value,catchQuestion.stopped,catchQuestionSlider.response,catchQuestionSlider.rt,catchQuestionSlider.history,confirmResponse_2.keys,audioRunLoop.thisRepN,audioRunLoop.thisTrialN,audioRunLoop.thisN,audioRunLoop.thisIndex,audioRunLoop.ran,conditions1_1,conditions2_1,conditions1_2,conditions2_2,dur1_1,dur2_1,dur1_2,dur2_2,endPractice.rt,endPractice.duration,confirmResponse_2.rt,confirmResponse_2.duration,runIntervalBreak.started,runIntervalBreak.stopped,endingBreakKey.keys,endingBreakKey.rt,endingBreakKey.duration,connection.started,connection.stopped,connectionEnding.keys,connectionEnding.rt,connectionEnding.duration,readyForText.started,readyForText.stopped,textPre.started,run_dup,textPre.stopped,continuousResponses_text,textRunLoop.thisRepN,textRunLoop.thisTrialN,textRunLoop.thisN,textRunLoop.thisIndex,textRunLoop.ran,text1_1,text1_2,text2_1,text2_2,runBreakText.started,runBreakText.stopped,endingBreakKey_2.keys,endingBreakKey_2.rt,endingBreakKey_2.duration,ending.started,ending.stopped,endingEnding.keys,endingEnding.rt,endingEnding.duration
0.0002,13.0222,y,12.7054,,66aa8a00cb81056a0cdb9216,2025-07-07_13h44.21.365,group3.4_multiperson,2023.2.2,MacIntel,59.88023952,686c2ebf0248f13bef9af11f,686c3168b653625bb7d7d39c,,,,,,,,,,,,,,,,,,,,,,,,,,,,,,,,,,,,,,,,,,,,,,,,,,,,,,,,,,,,,,,,,,,,,,,,,,,,,,,,,,,,,,,,,,,,,,,,,,,,,,,,
,,,,,66aa8a00cb81056a0cdb9216,2025-07-07_13h44.21.365,group3.4_multiperson,2023.2.2,MacIntel,59.88023952,686c2ebf0248f13bef9af11f,686c3168b653625bb7d7d39c,13.0224,16.2229,space,3.1605,,,,,,,,,,,,,,,,,,,,,,,,,,,,,,,,,,,,,,,,,,,,,,,,,,,,,,,,,,,,,,,,,,,,,,,,,,,,,,,,,,,,,,,,,,,,,,,,,,,,
,,,,,66aa8a00cb81056a0cdb9216,2025-07-07_13h44.21.365,group3.4_multiperson,2023.2.2,MacIntel,59.88023952,686c2ebf0248f13bef9af11f,686c3168b653625bb7d7d39c,,,,,,16.2231,30.1893,space,13.6373,,,,,,,,,,,,,,,,,,,,,,,,,,,,,,,,,,,,,,,,,,,,,,,,,,,,,,,,,,,,,,,,,,,,,,,,,,,,,,,,,,,,,,,,,,,,,,,
,,,,,66aa8a00cb81056a0cdb9216,2025-07-07_13h44.21.365,group3.4_multiperson,2023.2.2,MacIntel,59.88023952,686c2ebf0248f13bef9af11f,686c3168b653625bb7d7d39c,,,,,,,,,,,30.196,37.1902,space,6.9782,,[],[],[],[],[],[],0,0,0,0,1,,,,,,,,,,,,,,,,,,,,,,,,,,,,,,,,,,,,,,,,,,,,,,,,,,,,,,,,,,,,,,,,,,,,,,,,,,,,,,
,,,,,66aa8a00cb81056a0cdb9216,2025-07-07_13h44.21.365,group3.4_multiperson,2023.2.2,MacIntel,59.88023952,686c2ebf0248f13bef9af11f,686c3168b653625bb7d7d39c,,,,,,,,,,,37.1911,49.5728,space,12.3291,,[],[],[],[],[],[],1,0,1,0,1,,,,,,,,,,,,,,,,,,,,,,,,,,,,,,,,,,,,,,,,,,,,,,,,,,,,,,,,,,,,,,,,,,,,,,,,,,,,,,
,,,,,66aa8a00cb81056a0cdb9216,2025-07-07_13h44.21.365,group3.4_multiperson,2023.2.2,MacIntel,59.88023952,686c2ebf0248f13bef9af11f,686c3168b653625bb7d7d39c,,,,,,,,,,,49.5736,60.0904,space,10.4892,,[],[],[],[],[],[],2,0,2,0,1,,,,,,,,,,,,,,,,,,,,,,,,,,,,,,,,,,,,,,,,,,,,,,,,,,,,,,,,,,,,,,,,,,,,,,,,,,,,,,
,,,,,66aa8a00cb81056a0cdb9216,2025-07-07_13h44.21.365,group3.4_multiperson,2023.2.2,MacIntel,59.88023952,686c2ebf0248f13bef9af11f,686c3168b653625bb7d7d39c,,,,,,,,,,,60.0912,72.4901,space,12.3681,,[],[],[],[],[],[],3,0,3,0,1,,,,,,,,,,,,,,,,,,,,,,,,,,,,,,,,,,,,,,,,,,,,,,,,,,,,,,,,,,,,,,,,,,,,,,,,,,,,,,
,,,,,66aa8a00cb81056a0cdb9216,2025-07-07_13h44.21.365,group3.4_multiperson,2023.2.2,MacIntel,59.88023952,686c2ebf0248f13bef9af11f,686c3168b653625bb7d7d39c,,,,,,,,,,,72.4906,79.0075,space,6.4944,,[],[],[],[],[],[],4,0,4,0,1,,,,,,,,,,,,,,,,,,,,,,,,,,,,,,,,,,,,,,,,,,,,,,,,,,,,,,,,,,,,,,,,,,,,,,,,,,,,,,
,,,,,66aa8a00cb81056a0cdb9216,2025-07-07_13h44.21.365,group3.4_multiperson,2023.2.2,MacIntel,59.88023952,686c2ebf0248f13bef9af11f,686c3168b653625bb7d7d39c,,,,,,,,,,,79.0081,87.8072,space,8.7741,,[],[],[],[],[],[],5,0,5,0,1,,,,,,,,,,,,,,,,,,,,,,,,,,,,,,,,,,,,,,,,,,,,,,,,,,,,,,,,,,,,,,,,,,,,,,,,,,,,,,
,,,,,66aa8a00cb81056a0cdb9216,2025-07-07_13h44.21.365,group3.4_multiperson,2023.2.2,MacIntel,59.88023952,686c2ebf0248f13bef9af11f,686c3168b653625bb7d7d39c,,,,,,,,,,,,,,,,,,,,,,,,,,,87.8115,90.3907,90.4156,1,audio/Narrative13Situation2.wav,92.4236,,92.4238,122.1582,"[[84.8,916],[79.1,1000],[50.9,1916],[50.8,2000],[50.6,2084],[50.2,2167],[50.2,2250],[50.1,2333],[49.9,2417],[49.9,2499],[49.9,2583],[50,2666],[50,2750],[50,2833],[50,2917],[50,2999],[50,3083],[50,3167],[50,3250],[50,3332],[50,3417],[50,3499],[50,3583],[50,3666],[50,3749],[50,3833],[50,3917],[50,4000],[50.6,4084],[52.6,4167],[54.3,4249],[56.3,4334],[57.8,4416],[58.5,4500],[58.6,4582],[58.7,4666],[58.7,4750],[58.7,4833],[58.9,4916],[58.9,5000],[58.9,5083],[58.9,5167],[58.9,5249],[58.9,5333],[58.9,5417],[58.9,5500],[58.9,5582],[58.9,5666],[58.9,5750],[58.9,5833],[58.9,5916],[58.9,6000],[58.9,6082],[58.9,6166],[58.9,6250],[58.9,6333],[58.9,6416],[58.9,6500],[58.9,6583],[58.9,6666],[58.9,6750],[58.9,6833],[58.9,6917],[58.9,7000],[58.9,7083],[58.9,7167],[58.9,7249],[58.9,7332],[58.9,7417],[58.9,7500],[58.9,7583],[58.9,7666],[58.9,7750],[58.9,7833],[58.9,7916],[58.9,8000],[58.9,8083],[58.9,8167],[58.9,8249],[58.9,8332],[58.9,8417],[58.9,8499],[58.9,8584],[58.9,8667],[58.9,8750],[58.9,8833],[58.9,8917],[58.9,9000],[58.9,9083],[58.9,9167],[58.9,9250],[58.9,9332],[58.9,9417],[58.9,9500],[58.9,9583],[58.9,9667],[58.9,9749],[58.9,9833],[58.9,9917],[58.9,9999],[58.9,10083],[58.9,10166],[58.9,10250],[58.9,10334],[58.9,10416],[58.9,10500],[58.9,10583],[58.9,10667],[58.9,10750],[58.9,10833],[58.9,10917],[58.9,11000],[58.9,11082],[58.9,11167],[58.9,11250],[58.9,11333],[58.9,11416],[58.9,11500],[58.9,11583],[58.9,11666],[58.9,11750],[58.9,11833],[58.9,11916],[58.9,12000],[58.9,12083],[58.9,12167],[58.9,12250],[58.9,12333],[58.9,12417],[58.9,12500],[58.9,12583],[58.9,12667],[58.9,12750],[58.9,12834],[58.9,12916],[58.9,13000],[58.9,13084],[58.9,13166],[58.9,13250],[58.9,13334],[58.9,13417],[58.9,13500],[58.9,13584],[58.9,13667],[58.9,13750],[58.9,13833],[58.9,13917],[58.9,14000],[58.9,14084],[58.9,14167],[58.9,14250],[58.9,14334],[58.9,14417],[58.9,14500],[58.9,14583],[58.9,14666],[58.9,14749],[58.9,14834],[58.9,14916],[58.9,14999],[58.9,15083],[58.9,15167],[58.4,15250],[55.3,15333],[51.5,15417],[47.2,15500],[41.3,15583],[35.3,15666],[32.8,15750],[31.5,15833],[30,15916],[28.7,16000],[27.8,16084],[27.4,16167],[27.4,16250],[27.4,16333],[27.4,16417],[27.4,16500],[27.4,16584],[27.4,16667],[27.4,16750],[27.4,16833],[27.4,16916],[27.4,17000],[27.6,17082],[29.5,17167],[30.1,17251],[30.1,17333],[30.2,17417],[30.2,17500],[30.2,17583],[30.2,17667],[30.2,17749],[30.2,17834],[30.2,17917],[30.2,18000],[30.2,18084],[30.2,18167],[30.2,18250],[30.2,18333],[30.2,18417],[30.2,18500],[30.2,18584],[30.2,18667],[30.2,18750],[30.2,18833],[30.2,18917],[30.2,19000],[33.6,19084],[52.6,19166],[56.7,19250],[57.7,19333],[64.6,19417],[66.4,19500],[66.7,19584],[66.8,19666],[67.2,19750],[67.8,19833],[67.8,19916],[67.9,20000],[69.2,20084],[69.5,20166],[69.6,20250],[69.6,20333],[69.6,20417],[69.6,20499],[69.6,20584],[69.6,20667],[69.6,20750],[69.6,20834],[69.6,20917],[69.6,21000],[69.6,21084],[69.6,21167],[69.6,21251],[69.6,21333],[69.6,21417],[69.6,21501],[68.5,21583],[68.2,21667],[68,21750],[65.8,21834],[44.1,21917],[32.7,22000],[32,22084],[28.6,22167],[25.2,22250],[25.2,22334],[25.2,22417],[25.2,22500],[25.2,22583],[25.2,22667],[25.2,22751],[25.2,22833],[25.2,22917],[25.2,23000],[25.2,23084],[25.2,23167],[25.2,23249],[25.2,23333],[25.2,23416],[25.2,23500],[25.2,23584],[25.2,23667],[25.2,23750],[25.2,23834],[25.2,23917],[25.2,24000],[25.2,24084],[25.2,24167],[25.2,24250],[25.2,24334],[25.2,24417],[34.9,24501],[69.2,24584],[73,24667],[73.1,24751],[73.2,24834],[73.2,24916],[73.2,25000],[73.2,25084],[73.2,25167],[73.2,25250],[73.2,25333],[73.2,25417],[73.2,25500],[73.2,25583],[73.2,25667],[73.2,25750],[73.2,25834],[73.2,25917],[73.2,26000],[73.2,26084],[73.2,26167],[73.2,26251],[73.2,26333],[73.2,26417],[73.2,26500],[73.2,26584],[72.3,26668],[77.2,26751],[100,27918],[100,28001],[100,28084],[100,28167],[100,28249],[100,28334],[100,28417],[100,28500],[100,28584],[100,28667],[100,28751],[100,28833],[100,28917],[100,29000],[100,29083],[100,29167],[100,29250],[80.8,29334],[70.1,29418],[58.5,29499],[52.8,29583],[51.9,29667]]",122.1584,134.2581,49.96582031,10.8461,"[{""rating"":49.9658203125,""responseTime"":10.846099999994038}]",space,11.5517,,134.2587,Definitely yes,100,134.2637,,,[],,0,0,0,0,1,audio/Narrative13Situation2.wav,audio/Narrative13Situation2.wav,audio/Narrative13Situation2.wav,audio/Narrative13Situation2.wav,2,2,2,2,,,,,,,,,,,,,,,,,,,,,,,,,,,,,,,,,,,,,,,
,,,,,66aa8a00cb81056a0cdb9216,2025-07-07_13h44.21.365,group3.4_multiperson,2023.2.2,MacIntel,59.88023952,686c2ebf0248f13bef9af11f,686c3168b653625bb7d7d39c,,,,,,,,,,,,,,,,,,,,,,,,,,,,,134.264,1,audio/Narrative7Situation1.wav,136.2087,space,136.2087,192.1101,"[[50.2,1499],[50.3,1582],[50.2,1833],[50.2,1916],[50.2,1999],[50.2,2083],[50.2,2166],[50.2,2249],[50.2,2333],[50.2,2415],[63.5,3666],[64.4,3749],[64.6,3833],[64.7,3916],[65.9,3999],[67.9,4083],[68.1,4166],[68.1,4249],[68.1,4333],[68.1,4416],[68.1,4499],[68.1,4583],[68.1,4665],[68.1,4750],[68.1,4833],[68.1,4916],[68.1,5000],[68.1,5083],[68.1,5166],[68.1,5249],[68.1,5332],[68.1,5416],[68.1,5499],[68.1,5583],[68.1,5666],[68.1,5750],[68.1,5833],[68.1,5916],[68.1,5999],[68.1,6082],[68.1,6166],[68.1,6249],[68.1,6333],[68.1,6415],[68.1,6499],[68.1,6583],[68.1,6666],[68.1,6749],[68.1,6833],[68.1,6916],[68.1,7000],[68.1,7083],[68.1,7166],[68.1,7250],[68.1,7333],[68.1,7416],[68.1,7500],[68.1,7583],[68.1,7667],[68.1,7749],[68.1,7833],[68.1,7916],[68.1,8000],[68.1,8083],[68.1,8166],[68.1,8249],[68.1,8333],[68.1,8416],[68.1,8499],[68.1,8582],[68.1,8665],[68.1,8749],[68.1,8832],[68.1,8916],[68.1,9000],[68.1,9082],[68.1,9165],[68.1,9250],[69.2,9333],[69.6,9416],[70,9499],[70.6,9583],[70.8,9667],[70.8,9749],[70.8,9832],[70.8,9916],[70.8,9999],[71,10082],[73.5,10165],[75,10250],[75.1,10333],[75.1,10416],[75.1,10500],[75.1,10583],[75.1,10666],[75.1,10749],[75.1,10832],[75.1,10916],[75.1,10999],[75.1,11083],[75.1,11166],[75.1,11250],[75.1,11333],[75.1,11416],[75.1,11500],[75.1,11582],[75.1,11665],[75.1,11750],[75.1,11833],[75.1,11916],[75.1,11999],[75.1,12083],[75.1,12165],[75.1,12250],[75.1,12333],[75.1,12416],[75.1,12500],[75.1,12583],[75.1,12666],[75.1,12750],[75.1,12833],[75.1,12916],[75.1,13000],[75.1,13083],[75.1,13166],[75.1,13250],[75.1,13333],[75.1,13417],[75.1,13500],[75.1,13582],[75.1,13666],[75.1,13750],[75.1,13833],[75.1,13916],[75.1,14000],[75.1,14083],[75.1,14166],[75.1,14249],[75.1,14333],[75.1,14417],[75.1,14499],[75.1,14583],[75.1,14666],[75.1,14750],[75.1,14832],[75.1,14916],[75.1,15000],[75.1,15083],[75.1,15165],[75.1,15249],[75.1,15332],[75.1,15416],[75.1,15500],[75.1,15582],[75.1,15666],[75.1,15750],[75.1,15833],[75.1,15916],[75.1,16000],[75.1,16083],[75.1,16166],[75.1,16250],[75.1,16333],[75.1,16416],[75.1,16500],[75.1,16583],[75.1,16667],[75.1,16749],[75.1,16833],[75.1,16917],[75.1,16999],[75.1,17082],[75.1,17166],[75.1,17249],[75.1,17333],[75.1,17416],[75.1,17498],[75.1,17582],[75.1,17665],[64.5,17750],[39,17833],[31.6,17916],[28.7,18000],[26.6,18083],[26.3,18166],[26.3,18249],[26.3,18333],[26.3,18417],[26.3,18500],[26.3,18583],[26.3,18666],[26.3,18750],[26.3,18833],[26.3,18917],[26.3,19000],[26.3,19083],[26.3,19166],[26.3,19248],[26.3,19333],[26.3,19415],[26.3,19500],[29.7,19583],[47.1,19667],[75.9,19750],[84.1,19833],[84.6,19916],[85.8,19999],[85.9,20083],[85.9,20167],[85.9,20250],[86.1,20332],[99.4,20416],[100,20500],[100,20584],[100,20666],[100,20749],[100,20833],[100,20917],[100,21000],[100,21083],[100,21165],[100,21250],[100,21333],[100,21415],[100,21499],[100,21583],[100,21667],[100,21750],[100,21833],[100,21917],[100,22000],[100,22083],[100,22167],[100,22249],[100,22333],[100,22416],[100,22500],[100,22583],[100,22667],[100,22749],[100,22833],[100,22916],[100,22999],[100,23083],[100,23167],[100,23250],[100,23333],[100,23417],[100,23499],[100,23583],[100,23666],[100,23750],[100,23832],[100,23917],[100,24000],[100,24083],[100,24167],[100,24250],[100,24333],[100,24416],[100,24500],[100,24583],[100,24666],[100,24750],[100,24833],[100,24916],[100,25000],[100,25083],[100,25167],[100,25250],[100,25333],[100,25416],[100,25500],[100,25583],[100,25667],[100,25750],[100,25834],[100,25917],[100,26000],[100,26083],[100,26167],[100,26249],[100,26333],[100,26417],[100,26500],[100,26583],[100,26667],[100,26750],[100,26833],[100,26916],[100,26999],[100,27083],[100,27167],[100,27250],[100,27332],[100,27417],[100,27500],[100,27582],[100,27667],[100,27750],[100,27833],[100,27917],[100,27999],[100,28082],[100,28167],[100,28250],[100,28333],[100,28416],[100,28500],[100,28584],[100,28667],[100,28750],[100,28832],[100,28917],[100,28999],[100,29084],[100,29166],[100,29249],[100,29334],[100,29417],[100,29500],[100,29583],[100,29666],[100,29750],[100,29833],[100,29917],[100,30000],[100,30083],[100,30166],[100,30250],[100,30332],[100,30417],[100,30500],[100,30583],[100,30666],[100,30750],[100,30834],[100,30917],[100,31000],[100,31083],[100,31167],[100,31250],[100,31333],[100,31417],[100,31500],[100,31584],[100,31667],[100,31750],[100,31833],[100,31917],[100,32000],[100,32083],[100,32167],[100,32250],[100,32333],[100,32417],[100,32500],[100,32583],[100,32667],[100,32750],[100,32832],[100,32916],[100,33000],[100,33084],[100,33167],[100,33250],[100,33334],[100,33417],[100,33500],[100,33584],[100,33667],[100,33750],[100,33834],[100,33917],[100,33999],[100,34084],[100,34167],[100,34249],[100,34333],[100,34417],[100,34500],[100,34583],[100,34667],[100,34750],[100,34833],[100,34916],[100,35000],[100,35083],[100,35167],[100,35250],[100,35334],[100,35416],[100,35500],[100,35584],[100,35667],[100,35749],[100,35833],[100,35916],[100,36000],[100,36084],[100,36166],[100,36249],[100,36333],[100,36416],[100,36500],[100,36584],[100,36666],[100,36750],[100,36833],[100,36917],[100,37000],[100,37084],[100,37166],[100,37249],[100,37334],[100,37417],[100,37500],[100,37584],[100,37667],[100,37750],[100,37833],[100,37917],[100,38000],[100,38084],[100,38167],[100,38250],[100,38333],[100,38417],[100,38500],[100,38583],[100,38667],[100,38750],[100,38834],[100,38917],[100,38999],[100,39084],[100,39167],[100,39250],[100,39334],[100,39417],[100,39499],[100,39584],[100,39666],[100,39750],[100,39833],[100,39917],[100,40000],[100,40083],[100,40166],[100,40249],[100,40334],[100,40417],[100,40500],[100,40583],[100,40667],[100,40749],[100,40834],[100,40917],[100,41000],[100,41084],[100,41167],[100,41249],[100,41334],[100,41417],[100,41501],[100,41584],[100,41666],[100,41751],[100,41834],[100,41917],[100,42000],[100,42084],[100,42167],[100,42250],[100,42334],[100,42417],[100,42501],[100,42584],[100,42667],[100,42750],[100,42834],[100,42917],[100,43000],[100,43084],[100,43167],[100,43250],[100,43334],[100,43417],[100,43501],[100,43584],[100,43667],[100,43750],[100,43834],[100,43917],[100,43999],[100,44083],[100,44167],[100,44250],[100,44334],[100,44417],[100,44501],[100,44584],[100,44667],[100,44750],[100,44834],[100,44917],[100,45000],[100,45084],[100,45167],[100,45250],[100,45334],[100,45417],[100,45501],[100,45584],[100,45667],[100,45751],[100,45834],[100,45917],[100,46001],[100,46083],[100,46167],[100,46251],[100,46334],[100,46417],[100,46500],[100,46584],[100,46667],[100,46751],[100,46834],[100,46917],[100,47001],[100,47084],[100,47167],[100,47249],[100,47333],[100,47417],[100,47501],[100,47584],[100,47667],[100,47751],[100,47833],[100,47917],[100,48001],[100,48084],[100,48167],[100,48251],[100,48334],[100,48417],[100,48501],[100,48584],[100,48667],[100,48751],[100,48834],[100,48917],[100,49001],[100,49084],[100,49166],[100,49251],[100,49334],[100,49417],[100,49501],[100,49584],[100,49667],[100,49751],[100,49834],[100,49917],[100,50000],[100,50084],[100,50167],[100,50251],[100,50333],[100,50417],[100,50500],[100,50583],[100,50666],[100,50751],[100,50834],[100,50917],[100,51001],[100,51084],[100,51167],[100,51251],[100,51334],[100,51417],[100,51501],[100,51584],[100,51667],[100,51751],[100,51834],[100,51917],[100,52001],[100,52084],[100,52167],[100,52251],[100,52334],[100,52417],[100,52501],[100,52583],[100,52667],[100,52750],[100,52834],[100,52917],[100,53001],[100,53083],[100,53167],[100,53251],[100,53334],[100,53416],[100,53501],[100,53584],[100,53667],[100,53751],[100,53834],[100,53917],[100,54001],[100,54084],[100,54166],[100,54251],[100,54334],[100,54417],[100,54500],[100,54584],[100,54667],[100,54750],[100,54834],[100,54917],[100,55000],[100,55084],[100,55167],[100,55250],[100,55334],[100,55417],[100,55501],[100,55584],[100,55667],[100,55751],[100,55834]]",192.1106,197.9605,99.7531467,4.613,"[{""rating"":99.75314670138889,""responseTime"":4.6129999999999995}]",space,5.3022,,197.9607,Definitely yes,100,197.9639,,,[],,0,1,1,1,1,audio/Narrative7Situation1.wav,audio/Narrative8Situation1.wav,audio/Narrative5Situation1.wav,audio/Narrative6Situation1.wav,2,5,5,2,1.916,,,,,,,,,,,,,,,,,,,,,,,,,,,,,,,,,,,,,,
,,,,,66aa8a00cb81056a0cdb9216,2025-07-07_13h44.21.365,group3.4_multiperson,2023.2.2,MacIntel,59.88023952,686c2ebf0248f13bef9af11f,686c3168b653625bb7d7d39c,,,,,,,,,,,,,,,,,,,,,,,,,,,,,197.9644,1,audio/Narrative7Situation2.wav,200.977,,200.9771,208.4609,"[[999,1],[999,82],[999,166],[999,249],[999,332],[999,416],[999,499],[999,582],[999,665],[999,749],[999,832],[999,915],[49.7,999],[49.9,1082],[49.9,1166],[50,1249],[50,1332],[50,1416],[50,1499],[50,1582],[50,1665],[50,1749],[50,1832],[50,1915],[50,1999],[50,2083],[50,2166],[50,2250],[50,2332],[50,2416],[50,2498],[50.1,2583],[54.5,2666],[61.4,2750],[68.7,2833],[73.6,2915],[75.9,3000],[76.4,3083],[76.4,3166],[82.1,3249],[94.1,3332],[96.8,3415],[96.8,3499],[96.8,3582],[96.8,3666],[98.3,3750],[100,3833],[100,3916],[100,3999],[100,4083],[100,4166],[100,4248],[100,4333],[100,4416],[100,4499],[100,4583],[100,4666],[100,4749],[100,4833],[100,4916],[100,5000],[100,5083],[100,5166],[100,5250],[100,5333],[100,5416],[100,5499],[100,5583],[100,5666],[100,5750],[100,5833],[100,5916],[100,5999],[100,6082],[100,6166],[100,6249],[100,6333],[100,6416],[100,6499],[100,6583],[100,6666],[100,6748],[100,6832],[100,6916],[100,6999],[100,7083],[100,7166],[100,7249],[100,7333],[100,7416]]",208.4611,213.9274,99.50683594,4.03,"[{""rating"":99.5068359375,""responseTime"":4.03000000000003}]",space,4.9159,,213.9275,Definitely yes,100,213.9308,,,[],,0,2,2,2,1,audio/Narrative7Situation2.wav,audio/Narrative8Situation2.wav,audio/Narrative5Situation2.wav,audio/Narrative6Situation2.wav,3,3,3,3,,,,,,,,,,,,,,,,,,,,,,,,,,,,,,,,,,,,,,,
,,,,,66aa8a00cb81056a0cdb9216,2025-07-07_13h44.21.365,group3.4_multiperson,2023.2.2,MacIntel,59.88023952,686c2ebf0248f13bef9af11f,686c3168b653625bb7d7d39c,,,,,,,,,,,,,,,,,,,,,,,,,,,,,213.9313,1,audio/Narrative7Situation3.wav,221.9443,,221.9443,231.1942,"[[999,0],[48.5,82],[49.1,1166],[49.4,1249],[49.7,1332],[50.4,1416],[50.5,1499],[50.5,1582],[50.5,1665],[50.5,1749],[50.5,1832],[50.5,1915],[50.5,1999],[45.1,2083],[42.8,2165],[42.5,2250],[42.3,2332],[42.2,2416],[42.1,2499],[42.1,2582],[42.1,2665],[42.1,2748],[42.1,2833],[42,2916],[32.9,2999],[28,3082],[27.8,3166],[27.8,3249],[27.8,3333],[27.8,3416],[27.8,3500],[27.8,3582],[27.8,3665],[27.8,3749],[27.8,3832],[27.8,3915],[27.8,3999],[27.8,4083],[26.4,4166],[16.9,4248],[11.2,4332],[4.2,4416],[2,5583],[92.4,6332],[93.7,6416],[100,6499],[100,6582],[100,6666],[100,6749],[100,6831],[100,6915],[100,6998],[100,7082],[100,7166],[100,7249],[100,7333],[100,7416],[100,7499],[100,7583],[100,7665],[100,7750],[100,7833],[100,7916],[100,7999],[100,8083],[100,8166],[100,8250],[100,8332],[100,8416],[100,8500],[100,8583],[100,8666],[100,8749],[100,8832],[100,8916],[100,8999],[100,9083],[100,9166],[100,9249]]",231.1944,235.0279,49.87792969,2.3966,"[{""rating"":49.8779296875,""responseTime"":2.3965999999940664}]",space,3.2895,,235.0281,Not at all,0,235.0323,,,[],,0,3,3,3,1,audio/Narrative7Situation3.wav,audio/Narrative8Situation3.wav,audio/Narrative5Situation3.wav,audio/Narrative6Situation3.wav,8,4,3,5,,,,,,,,,,,,,,,,,,,,,,,,,,,,,,,,,,,,,,,
,,,,,66aa8a00cb81056a0cdb9216,2025-07-07_13h44.21.365,group3.4_multiperson,2023.2.2,MacIntel,59.88023952,686c2ebf0248f13bef9af11f,686c3168b653625bb7d7d39c,,,,,,,,,,,,,,,,,,,,,,,,,,,,,235.0326,1,audio/Narrative7Situation4.wav,238.0446,,238.0447,249.7783,"[[48.2,832],[48.7,916],[48.9,999],[49.8,1081],[49.9,1165],[49.9,1249],[49.9,1333],[49.9,1416],[49.9,1499],[49.9,1581],[49.9,1666],[49.9,1749],[49.9,1833],[49.9,1916],[49.9,1999],[49.9,2083],[49.9,2166],[49.9,2249],[49.9,2333],[49.9,2416],[49.9,2499],[49.9,2583],[49.9,2666],[49.9,2748],[49.9,2832],[49.9,2916],[49.9,2999],[49.9,3083],[49.9,3166],[49.9,3249],[49.9,3332],[49.9,3416],[49.9,3498],[49.9,3582],[49.9,3666],[49.9,3749],[49.9,3832],[49.9,3916],[49.9,3999],[49.9,4082],[48.8,4166],[46.3,4250],[45.1,4332],[44.9,4415],[44.9,4499],[44.9,4582],[44.9,4666],[44.9,4749],[44.9,4833],[44.3,4916],[7.7,4999]]",249.7786,252.4946,0.627712674,2.049,"[{""rating"":0.6277126736111138,""responseTime"":2.048999999999978}]",space,2.1658,,252.4948,Definitely yes,100,252.5001,,,[],,0,4,4,4,1,audio/Narrative7Situation4.wav,audio/Narrative8Situation4.wav,audio/Narrative5Situation4.wav,audio/Narrative6Situation4.wav,3,3,1,2,,,,,,,,,,,,,,,,,,,,,,,,,,,,,,,,,,,,,,,
,,,,,66aa8a00cb81056a0cdb9216,2025-07-07_13h44.21.365,group3.4_multiperson,2023.2.2,MacIntel,59.88023952,686c2ebf0248f13bef9af11f,686c3168b653625bb7d7d39c,,,,,,,,,,,,,,,,,,,,,,,,,,,,,252.5004,1,audio/Narrative7Situation5.wav,257.5117,,257.5118,266.012,"[[999,0],[999,83],[999,166],[999,249],[999,332],[999,416],[999,499],[999,583],[999,666],[999,749],[999,832],[999,915],[999,999],[999,1083],[999,1166],[999,1249],[999,1332],[999,1416],[999,1499],[999,1582],[999,1666],[999,1750],[49.7,1833],[50.1,1916],[50.3,1999],[50.4,2083],[50.4,2166],[50.4,2249],[50.4,2332],[50.4,2415],[50.4,2499],[50.4,2583],[50.4,2666],[50.4,2749],[50.4,2833],[50.4,2916],[50.4,2999],[54,3083],[58,3166],[60,3249],[63.5,3333],[73.2,3415],[84.3,3499],[85.6,3583],[85.6,3665],[85.6,3749],[85.6,3833],[85.6,3916],[85.6,4000],[85.6,4083],[85.6,4165],[85.6,4249],[85.6,4333],[85.6,4416],[85.6,4499],[85.6,4583],[85.6,4666],[85.6,4749],[85.6,4832],[85.6,4916],[85.6,4999],[85.6,5083],[85.6,5166],[85.6,5249],[85.6,5333],[85.6,5416],[85.6,5500],[85.6,5583],[85.6,5666],[85.6,5749],[85.6,5832],[85.6,5916],[85.6,6000],[85.6,6083],[85.6,6166],[85.6,6249],[85.6,6333],[85.6,6415],[85.6,6498],[85.6,6582],[85.6,6665],[85.6,6749],[85.6,6833],[85.6,6916],[85.6,7000],[85.6,7083],[85.6,7165],[85.6,7249],[85.6,7332],[85.6,7416],[85.6,7499],[85.6,7582],[85.6,7666],[85.6,7749],[85.6,7832],[85.6,7916],[85.6,7999],[85.6,8082],[85.6,8166],[85.6,8249],[85.6,8333],[85.6,8416],[85.6,8499]]",266.0123,271.6457,99.55512153,2.3823,"[{""rating"":99.55512152777779,""responseTime"":2.3822999999821377}]",space,5.0848,,271.6458,Not at all,0,280.3119,0.062934028,7.2122,"[{""rating"":0.0629340277777779,""responseTime"":7.212200000017845}]",space,0,5,5,5,1,audio/Narrative7Situation5.wav,audio/Narrative8Situation5.wav,audio/Narrative5Situation5.wav,audio/Narrative6Situation5.wav,5,2,5,2,,,8.1189,,,,,,,,,,,,,,,,,,,,,,,,,,,,,,,,,,,,
,,,,,66aa8a00cb81056a0cdb9216,2025-07-07_13h44.21.365,group3.4_multiperson,2023.2.2,MacIntel,59.88023952,686c2ebf0248f13bef9af11f,686c3168b653625bb7d7d39c,,,,,,,,,,,,,,,,,,,,,,,,,,,,,280.3126,1,audio/Narrative7Situation6.wav,283.3289,,283.3291,293.3122,"[[999,0],[999,82],[999,165],[999,249],[999,332],[999,416],[999,499],[999,583],[999,666],[999,749],[51.3,832],[51.1,915],[51,1000],[50.8,1082],[50.6,1166],[50.6,1249],[50.5,1333],[50.6,1416],[70.1,1499],[84.4,1582],[89.8,1666],[89.8,1749],[89.8,1832],[89.8,1915],[100,1999],[100,2082],[100,2165],[100,2249],[100,2333],[100,2415],[100,2500],[100,2582],[100,2666],[100,2748],[100,2832],[100,2916],[100,2999],[100,3083],[100,3166],[100,3249],[100,3333],[100,3416],[100,3499],[100,3582],[100,3666],[100,3749],[100,3832],[100,3916],[100,4000],[100,4082],[100,4166],[100,4249],[100,4333],[100,4415],[100,4500],[100,4582],[100,4666],[100,4749],[100,4832],[100,4916],[100,4999],[100,5082],[100,5166],[100,5249],[100,5333],[100,5416],[100,5499],[100,5582],[100,5665],[100,5749],[100,5832],[100,5915],[100,5999],[100,6082],[100,6165],[100,6249],[100,6332],[100,6415],[100,6500],[100,6583],[100,6665],[100,6749],[100,6833],[100,6916],[100,6999],[100,7083],[100,7165],[100,7250],[100,7333],[100,7416],[100,7499],[100,7583],[100,7666],[100,7750],[100,7832],[100,7916],[100,8000],[100,8082],[100,8166],[100,8250],[100,8333],[100,8415],[100,8500],[100,8583],[100,8666],[100,8750],[100,8833],[100,8916],[100,8999],[100,9083],[100,9166],[100,9249],[100,9333],[100,9416],[100,9499],[100,9583],[100,9666],[100,9749],[100,9832],[100,9916]]",293.3124,295.596,99.71028646,1.6977,"[{""rating"":99.71028645833333,""responseTime"":1.6977000000178464}]",space,1.7583,,295.5962,Not at all,0,295.5992,,,[],,0,6,6,6,1,audio/Narrative7Situation6.wav,audio/Narrative8Situation6.wav,audio/Narrative5Situation6.wav,audio/Narrative6Situation6.wav,3,2,3,2,,,,,,,,,,,,,,,,,,,,,,,,,,,,,,,,,,,,,,,
,,,,,66aa8a00cb81056a0cdb9216,2025-07-07_13h44.21.365,group3.4_multiperson,2023.2.2,MacIntel,59.88023952,686c2ebf0248f13bef9af11f,686c3168b653625bb7d7d39c,,,,,,,,,,,,,,,,,,,,,,,,,,,,,295.5995,1,audio/Narrative7Situation7.wav,300.6129,,300.6129,317.7958,"[[50.1,748],[49.9,832],[49.9,916],[49.8,999],[49.8,1082],[49.8,1166],[49.8,1249],[49.8,1333],[49.8,1415],[49.8,1499],[49.8,1583],[49.8,1666],[49.8,1749],[49.8,1833],[50,1916],[54.8,1999],[58,2082],[60.3,2166],[61.6,2249],[62.1,2333],[62.2,2415],[62.2,2499],[62.2,2583],[62.2,2665],[62.2,2749],[62.2,2833],[62.2,2916],[62.2,2999],[62.2,3083],[62.2,3165],[62.2,3249],[62.2,3332],[62.2,3416],[62.2,3499],[62.2,3583],[62.2,3666],[62.2,3748],[62.2,3833],[62.2,3915],[62.2,3999],[62.2,4083],[62.2,4166],[62.2,4249],[62.2,4333],[62.2,4416],[62.2,4499],[62.2,4583],[62.2,4666],[62.2,4749],[62.7,4833],[79.1,5083],[79.8,5166],[84.4,5249],[90.2,5334],[90.7,5415],[90.7,5499],[90.7,5582],[92,5666],[97.5,5749],[99.1,5833],[99.6,5916],[99.8,5999],[100,6082],[100,6165],[100,6249],[100,6333],[100,6416],[100,6498],[100,6582],[100,6666],[100,6749],[100,6832],[100,6915],[100,6999],[100,7082],[100,7166],[100,7249],[100,7333],[100,7416],[100,7499],[100,7582],[100,7666],[100,7749],[100,7832],[100,7915],[100,7999],[100,8082],[100,8166],[100,8249],[100,8332],[100,8415],[100,8499],[100,8582],[100,8666],[100,8748],[100,8832],[100,8916],[100,8999],[100,9082],[100,9166],[100,9249],[100,9333],[100,9416],[100,9498],[100,9583],[100,9666],[100,9750],[100,9832],[100,9916],[100,10000],[100,10083],[100,10166],[100,10249],[100,10332],[100,10416],[100,10499],[100,10582],[100,10666],[100,10750],[100,10833],[100,10915],[100,10999],[100,11083],[100,11166],[100,11249],[100,11333],[100,11416],[100,11500],[100,11583],[100,11665],[100,11750],[100,11833],[100,11916],[100,12000],[100,12083],[100,12166],[100,12249],[100,12333],[100,12416],[100,12499],[100,12583],[100,12666],[100,12750],[100,12833],[100,12916],[100,12999],[100,13082],[100,13165],[100,13250],[100,13332],[100,13415],[100,13500],[100,13583],[100,13666],[100,13749],[100,13833],[100,13916],[100,14000],[100,14083],[100,14166],[100,14249],[100,14332],[100,14415],[100,14500],[100,14583],[100,14666],[100,14749],[100,14833],[100,14916],[100,15000],[100,15083],[100,15166],[100,15250],[100,15333],[100,15416],[100,15500],[100,15583],[100,15666],[100,15750],[100,15833],[100,15916],[100,15999],[100,16083],[100,16166],[100,16250],[100,16333],[100,16416],[100,16499],[100,16582],[100,16666],[100,16749],[100,16833],[100,16916],[100,16999],[100,17083],[100,17165]]",317.796,321.0634,99.95605469,2.3978,"[{""rating"":99.9560546875,""responseTime"":2.397800000011898}]",space,2.7352,,321.0635,Definitely yes,100,321.0683,,,[],,0,7,7,7,1,audio/Narrative7Situation7.wav,audio/Narrative8Situation7.wav,audio/Narrative5Situation7.wav,audio/Narrative6Situation7.wav,5,3,4,5,,,,,,,,,,,,,,,,,,,,,,,,,,,,,,,,,,,,,,,
,,,,,66aa8a00cb81056a0cdb9216,2025-07-07_13h44.21.365,group3.4_multiperson,2023.2.2,MacIntel,59.88023952,686c2ebf0248f13bef9af11f,686c3168b653625bb7d7d39c,,,,,,,,,,,,,,,,,,,,,,,,,,,,,321.0686,1,audio/Narrative7Situation8.wav,323.079,,323.0791,333.1138,"[[999,0],[999,84],[999,166],[999,250],[999,334],[999,417],[999,500],[999,584],[999,667],[50.6,750],[50.7,833],[50.7,916],[50.7,1000],[50.7,1084],[50.7,1166],[50.7,1250],[50.3,1334],[50,1417],[50,1500],[50,1584],[57.5,1667],[68.1,1751],[70.4,1832],[71.6,1917],[72.7,2000],[72.9,2084],[72.9,2167],[72.9,2250],[72.9,2333],[72.9,2417],[72.9,2500],[72.9,2584],[72.9,2667],[72.9,2751],[72.9,2834],[72.9,2917],[72.9,3000],[72.9,3084],[72.9,3167],[72.9,3250],[72.9,3334],[72.9,3416],[72.9,3500],[72.9,3584],[72.9,3667],[72.9,3751],[72.9,3834],[72.9,3917],[72.9,4000],[72.9,4084],[72.9,4166],[72.9,4250],[72.9,4334],[72.9,4417],[72.9,4499],[72.9,4584],[72.9,4667],[72.9,4750],[72.9,4834],[72.9,4917],[72.9,5000],[72.9,5084],[72.9,5167],[72.9,5250],[72.9,5334],[72.9,5417],[72.9,5500],[72.9,5583],[72.9,5667],[72.9,5750],[72.9,5834],[72.9,5917],[72.9,6000],[72.9,6083],[72.9,6167],[72.9,6250],[72.9,6333],[72.9,6417],[72.9,6500],[72.9,6584],[72.9,6667],[72.9,6750],[72.9,6834],[72.9,6917],[72.9,7000],[72.9,7084],[72.9,7166],[72.9,7250],[72.9,7334],[72.9,7417],[72.9,7500],[72.9,7583],[72.9,7667],[72.9,7751],[72.9,7833],[72.9,7917],[72.9,8000],[72.9,8083],[72.9,8167],[72.9,8250],[72.9,8334],[72.9,8417],[72.9,8500],[72.9,8584],[72.9,8667],[72.9,8750],[72.9,8834],[72.9,8917],[72.9,9000],[72.9,9083],[72.9,9167],[72.9,9250],[72.9,9334],[72.9,9416],[72.9,9500],[72.9,9583],[72.9,9667],[72.9,9751],[72.9,9834],[72.9,9917],[72.9,10000]]",333.114,336.8465,70.5219184,2.505,"[{""rating"":70.52191840277777,""responseTime"":2.5049999999999955}]",space,3.1876,,336.8465,Partially,50,336.8478,,,[],,0,8,8,8,1,audio/Narrative7Situation8.wav,audio/Narrative8Situation8.wav,audio/Narrative5Situation8.wav,audio/Narrative6Situation8.wav,2,3,3,5,,,,,,,,,,,,,,,,,,,,,,,,,,,,,,,,,,,,,,,
,,,,,66aa8a00cb81056a0cdb9216,2025-07-07_13h44.21.365,group3.4_multiperson,2023.2.2,MacIntel,59.88023952,686c2ebf0248f13bef9af11f,686c3168b653625bb7d7d39c,,,,,,,,,,,,,,,,,,,,,,,,,,,,,336.848,1,audio/Narrative7Situation9.wav,338.8633,,338.8633,347.4809,"[[999,0],[999,83],[999,166],[999,250],[999,333],[999,416],[999,499],[999,584],[49.4,666],[49.4,750],[49.5,833],[49.8,917],[49.8,999],[49.8,1083],[49.8,1167],[49.8,1250],[49.8,1333],[49.8,1416],[52.3,1499],[95,1583],[100,1666],[100,1750],[100,1833],[100,1916],[100,1999],[100,2083],[100,2165],[100,2250],[100,2332],[100,2417],[100,2500],[100,2583],[100,2667],[100,2750],[100,2833],[100,2916],[100,2999],[100,3083],[100,3167],[100,3250],[100,3333],[100,3417],[100,3500],[100,3583],[100,3667],[100,3749],[100,3832],[100,3917],[100,4000],[100,4083],[100,4166],[100,4249],[100,4333],[100,4415],[100,4499],[100,4583],[100,4666],[100,4750],[100,4833],[100,4916],[100,4999],[100,5082],[100,5167],[100,5250],[100,5333],[100,5417],[100,5500],[100,5583],[100,5667],[100,5750],[100,5833],[100,5916],[100,6000],[100,6083],[100,6165],[100,6249],[100,6332],[100,6415],[100,6499],[100,6583],[100,6667],[100,6750],[100,6833],[100,6916],[100,6999],[100,7082],[100,7167],[100,7250],[100,7333],[100,7416],[100,7500],[100,7583],[100,7667],[100,7750],[100,7833],[100,7917],[100,8000],[100,8083],[100,8167],[100,8250],[100,8333],[100,8417],[100,8500],[100,8583]]",347.4812,351.9298,99.93543837,2.9117,"[{""rating"":99.93543836805556,""responseTime"":2.911700000017902}]",space,3.9033,,351.93,Not at all,0,351.9339,,,[],,0,9,9,9,1,audio/Narrative7Situation9.wav,audio/Narrative8Situation9.wav,audio/Narrative5Situation9.wav,audio/Narrative6Situation9.wav,2,3,3,4,,,,,,,,,,,,,,,,,,,,,,,,,,,,,,,,,,,,,,,
,,,,,66aa8a00cb81056a0cdb9216,2025-07-07_13h44.21.365,group3.4_multiperson,2023.2.2,MacIntel,59.88023952,686c2ebf0248f13bef9af11f,686c3168b653625bb7d7d39c,,,,,,,,,,,,,,,,,,,,,,,,,,,,,351.9342,1,audio/Narrative8Situation1.wav,356.9474,,356.9476,372.8812,"[[71.7,749],[55.5,833],[52.5,916],[52.3,1000],[51.4,1083],[49.2,1166],[49.2,1249],[49.2,1333],[49.2,1416],[49.2,1498],[49.2,1582],[49.2,1666],[49.2,1749],[49.2,1833],[49.2,1915],[49.2,1998],[49.2,2082],[49.2,2166],[49.2,2249],[49.2,2333],[49.2,2416],[49.2,2499],[49.2,2582],[49.2,2666],[49.2,2749],[49.2,2833],[49.2,2916],[49.2,2999],[49.2,3083],[49.2,3166],[49.2,3249],[49.2,3333],[49.2,3416],[49.2,3500],[49.2,3583],[49.2,3666],[49.2,3749],[49.2,3833],[49.2,3915],[49.2,3999],[49.2,4083],[49.2,4165],[49.2,4249],[49.2,4333],[49.2,4416],[49.2,4499],[49.2,4583],[49.2,4666],[49.2,4749],[49.2,4833],[49.2,4916],[49.2,5000],[49.2,5082],[49.2,5166],[49.2,5249],[49.2,5332],[49.2,5416],[49.2,5499],[49.2,5583],[49.2,5666],[49.2,5750],[49.2,5833],[49.2,5916],[49.2,5999],[49.2,6082],[49.2,6166],[49.2,6249],[49.2,6333],[49.2,6416],[49.2,6500],[49.2,6583],[49.2,6666],[49.2,6749],[49.2,6832],[49.2,6916],[49.2,6999],[49.2,7083],[49.2,7165],[49.2,7249],[49.2,7333],[49.2,7416],[49.2,7499],[49.2,7583],[49.2,7666],[49.2,7749],[49.2,7832],[49.2,7916],[49.2,7999],[49.2,8083],[49.2,8166],[49.2,8248],[49.2,8333],[49.2,8416],[49.2,8500],[49.2,8582],[49.2,8666],[49.2,8749],[49.2,8833],[49.2,8916],[49.2,8999],[49.2,9082],[49.2,9166],[49.2,9250],[49.2,9332],[49.2,9416],[49.2,9500],[49.2,9582],[49.2,9666],[67,9749],[100,9833],[100,9916],[100,10000],[100,10083],[100,10166],[100,10250],[100,10333],[100,10416],[100,10500],[100,10583],[100,10665],[100,10750],[100,10832],[100,10916],[100,11000],[100,11083],[100,11165],[100,11250],[100,11332],[100,11416],[100,11500],[100,11583],[100,11667],[100,11750],[100,11833],[100,11916],[100,12000],[100,12083],[100,12166],[100,12250],[100,12333],[100,12415],[100,12500],[100,12582],[100,12666],[100,12750],[100,12832],[100,12916],[100,13000],[100,13083],[100,13166],[100,13249],[100,13333],[100,13416],[100,13498],[100,13582],[100,13666],[100,13749],[100,13833],[100,13916],[100,13998],[100,14083],[100,14166],[100,14250],[100,14333],[100,14416],[100,14500],[100,14582],[100,14666],[100,14750],[100,14833],[100,14916],[100,15000],[100,15083],[100,15166],[100,15250],[100,15333],[100,15415],[100,15500],[100,15583],[100,15666],[100,15750],[100,15833],[100,15916]]",372.8817,379.4148,88.58615451,5.7491,"[{""rating"":88.58615451388889,""responseTime"":5.74909999999403}]",space,5.9846,,379.4148,Partially,50,379.4196,,,[],,0,10,10,10,1,audio/Narrative8Situation1.wav,audio/Narrative7Situation1.wav,audio/Narrative6Situation1.wav,audio/Narrative5Situation1.wav,5,2,2,5,,,,,,,,,,,,,,,,,,,,,,,,,,,,,,,,,,,,,,,
,,,,,66aa8a00cb81056a0cdb9216,2025-07-07_13h44.21.365,group3.4_multiperson,2023.2.2,MacIntel,59.88023952,686c2ebf0248f13bef9af11f,686c3168b653625bb7d7d39c,,,,,,,,,,,,,,,,,,,,,,,,,,,,,379.4199,1,audio/Narrative8Situation2.wav,382.4309,,382.4311,392.5485,"[[999,0],[999,83],[999,166],[999,249],[999,333],[999,415],[999,499],[48.6,584],[48.6,833],[49.8,916],[49.9,999],[49.9,1083],[49.9,1166],[49.9,1249],[49.9,1333],[49.9,1416],[49.9,1500],[49.9,1583],[49.9,1665],[49.9,1750],[49.9,1833],[49.9,1917],[49.9,2000],[49.9,2083],[49.9,2166],[49.9,2250],[50.1,2332],[50.1,2417],[50.1,2500],[50.1,2582],[50.1,2667],[50.1,2750],[50.1,2833],[50.1,2915],[50.1,3000],[50.1,3083],[50.1,3167],[50.1,3250],[50.1,3332],[50.1,3416],[50.1,3500],[50.1,3582],[50.1,3666],[50.1,3750],[50.1,3833],[50.1,3916],[50.1,3999],[50.1,4083],[50.1,4167],[50.1,4249],[50.1,4333],[50.1,4417],[50.1,4500],[50.1,4582],[49.9,4667],[49.8,4750],[49.7,4834],[49.7,4916],[49.7,5000],[49.7,5083],[49.7,5166],[49.7,5250],[49.7,5333],[49.7,5416],[49.7,5500],[48.1,5583],[41,5667],[25.3,5750],[14.7,5834],[11.7,5917],[11.3,5999],[11.3,6083],[11.3,6167],[11.3,6250],[11.2,6334],[11.2,6416],[11.2,6499],[11.2,6583],[11.2,6667],[11.2,6750],[11.2,6833],[11.2,6917],[11.2,7000],[11.2,7083],[11.2,7167],[11.2,7250],[11.2,7333],[11.2,7416],[11.2,7499],[11.2,7583],[11.2,7667],[11.2,7749],[11.2,7833],[11.2,7916],[11.2,8000],[11.2,8083],[11.2,8167],[11.2,8250],[11.2,8332],[11.2,8417],[11.2,8500],[11.2,8584],[11.2,8667],[11.2,8750],[11.2,8832],[11.2,8917],[11.2,8999],[11.2,9083],[11.2,9167],[11.2,9250],[11.2,9332],[11.2,9417],[11.2,9500],[11.2,9583],[11.2,9667],[11.2,9750],[11.2,9834],[11.2,9916],[11.2,10000],[11.2,10083]]",392.5486,396.3484,0,2.3982,"[{""rating"":0,""responseTime"":2.39820000001788}]",space,3.2515,,396.3485,Partially,50,396.3512,,,[],,0,11,11,11,1,audio/Narrative8Situation2.wav,audio/Narrative7Situation2.wav,audio/Narrative6Situation2.wav,audio/Narrative5Situation2.wav,3,3,3,3,,,,,,,,,,,,,,,,,,,,,,,,,,,,,,,,,,,,,,,
,,,,,66aa8a00cb81056a0cdb9216,2025-07-07_13h44.21.365,group3.4_multiperson,2023.2.2,MacIntel,59.88023952,686c2ebf0248f13bef9af11f,686c3168b653625bb7d7d39c,,,,,,,,,,,,,,,,,,,,,,,,,,,,,396.3515,1,audio/Narrative8Situation3.wav,400.3648,,400.3648,422.7325,"[[999,0],[999,83],[999,166],[999,249],[999,333],[999,415],[999,499],[999,583],[999,666],[999,750],[50.8,833],[50.1,916],[50,999],[50,1083],[50,1166],[50,1250],[50,1333],[50,1416],[50,1500],[50,1583],[50,1667],[50,1750],[50,1833],[50,1916],[50,2000],[50,2082],[50,2166],[50,2250],[50,2333],[50,2416],[50,2500],[50,2583],[50,2666],[50,2750],[74.5,2834],[100,2915],[100,4166],[100,4249],[90.6,4333],[88.7,4416],[86.6,4500],[83.4,4583],[82.4,4665],[82.4,4750],[82.4,4832],[82.4,4916],[82.4,5000],[82.4,5083],[82.4,5167],[82.4,5249],[82.4,5334],[82.4,5416],[82.4,5500],[82.4,5583],[82.4,5667],[82.4,5750],[82.4,5833],[82.4,5916],[82.4,5999],[82.4,6083],[82.4,6167],[82.4,6250],[82,6333],[81.5,6417],[81.5,6499],[81.5,6583],[81.5,6666],[81.5,6750],[81.5,6833],[81.2,6917],[80.9,7000],[80.4,7083],[79.6,7166],[79.3,7250],[79.3,7333],[79.3,7416],[79.3,7500],[79.3,7582],[79.3,7666],[79.3,7750],[79.3,7832],[79.3,7916],[79.3,8000],[79.3,8083],[79.3,8166],[79.3,8250],[79.3,8334],[79.3,8417],[79.3,8500],[79.3,8584],[79.3,8667],[79.3,8750],[79.3,8833],[79.3,8916],[79.3,8999],[79.3,9082],[79.3,9167],[79.3,9250],[79.3,9333],[79.3,9417],[79.3,9500],[79.3,9582],[79.3,9667],[79.3,9750],[79.3,9833],[79.3,9917],[79.3,9999],[79.3,10084],[79.3,10166],[79.3,10250],[79.3,10334],[79.3,10417],[79.3,10500],[79.3,10584],[79.3,10667],[79.3,10750],[79.3,10834],[79.3,10917],[79.3,11000],[79.3,11084],[79.3,11167],[79.3,11250],[79.3,11334],[79.3,11417],[79.3,11500],[79.3,11584],[79.3,11667],[79.3,11750],[79.3,11833],[79.3,11917],[79.3,12000],[79.3,12084],[79.3,12166],[79.3,12250],[79.3,12334],[79.3,12417],[79.3,12500],[79.3,12584],[79.3,12667],[79.3,12750],[79.3,12833],[79.3,12916],[79.3,13000],[79.3,13084],[79.3,13167],[79.3,13250],[79.3,13332],[79.3,13417],[79.3,13500],[79.3,13583],[79.3,13666],[79.3,13750],[79.3,13834],[79.3,13917],[79.3,14000],[79.3,14084],[79.3,14167],[79.3,14250],[79.3,14332],[79.3,14416],[79.3,14500],[79.3,14584],[79.3,14666],[79.3,14750],[79.3,14834],[79.3,14917],[79.3,15000],[79.3,15084],[79.3,15167],[79.3,15250],[79.3,15333],[79.3,15417],[79.3,15500],[79.3,15584],[69.9,15667],[64.5,15749],[63.2,15833],[62.1,15917],[59.9,16000],[58.1,16083],[57.2,16167],[56.9,16250],[56.9,16334],[56.9,16417],[56.9,16500],[56.9,16583],[56.9,16666],[56.9,16750],[56.9,16834],[56.9,16917],[56.9,17000],[56.9,17084],[56.9,17167],[56.9,17249],[56.9,17334],[56.9,17416],[56.9,17500],[56.9,17583],[56.9,17667],[56.9,17750],[56.9,17834],[56.9,17917],[56.9,18000],[56.9,18084],[56.9,18167],[56.9,18250],[56.9,18334],[56.9,18417],[56.9,18500],[56.9,18584],[56.9,18666],[56.9,18750],[56.9,18833],[56.9,18917],[56.9,19000],[56.9,19083],[56.9,19167],[56.9,19250],[56.9,19333],[56.9,19417],[56.9,19499],[56.9,19584],[56.9,19666],[56.9,19750],[56.9,19834],[56.9,19916],[56.9,20000],[56.9,20084],[56.9,20167],[56.9,20250],[56.9,20334],[56.9,20416],[56.9,20500],[56.9,20584],[56.9,20667],[56.9,20750],[56.9,20834],[56.9,20917],[56.9,21000],[56.9,21083],[56.9,21167],[56.9,21250],[56.9,21333],[56.9,21417],[56.9,21500],[56.9,21583],[56.9,21667],[56.9,21750],[56.9,21833],[56.9,21917],[56.9,22000],[56.9,22084],[56.9,22167],[56.9,22251],[56.9,22334]]",422.7328,426.3159,67.76421441,2.5979,"[{""rating"":67.76421440972223,""responseTime"":2.59790000000595}]",space,3.0306,,426.3161,Partially,50,426.3181,,,[],,0,12,12,12,1,audio/Narrative8Situation3.wav,audio/Narrative7Situation3.wav,audio/Narrative6Situation3.wav,audio/Narrative5Situation3.wav,4,8,5,3,,,,,,,,,,,,,,,,,,,,,,,,,,,,,,,,,,,,,,,
,,,,,66aa8a00cb81056a0cdb9216,2025-07-07_13h44.21.365,group3.4_multiperson,2023.2.2,MacIntel,59.88023952,686c2ebf0248f13bef9af11f,686c3168b653625bb7d7d39c,,,,,,,,,,,,,,,,,,,,,,,,,,,,,426.3184,1,audio/Narrative8Situation4.wav,429.3316,,429.3317,443.4992,"[[999,0],[999,82],[999,167],[999,250],[999,333],[999,417],[999,500],[999,583],[999,666],[999,749],[50.1,833],[49.5,917],[49.5,1000],[49.5,1083],[49.5,1167],[49.5,1250],[49.5,1334],[49.5,1420],[49.5,1500],[49.5,1583],[49.5,1667],[49.5,1750],[49.5,1834],[49.5,1916],[49.5,2000],[49.5,2084],[49.5,2166],[49.5,2250],[49.5,2333],[49.5,2417],[49.5,2500],[49.5,2583],[49.5,2667],[49.5,2750],[49.5,2834],[49.5,2917],[49.5,3001],[50,3084],[50.3,3167],[50.3,3251],[50.5,3333],[52.9,3416],[57,3500],[60,3583],[62.8,3667],[68.2,3751],[78.3,3834],[79.6,3917],[79.6,4000],[79.6,4084],[100,4166]]",443.4995,446.5332,99.23502604,1.5202,"[{""rating"":99.23502604166667,""responseTime"":1.5202000000178373}]",space,2.4921,,446.5334,Definitely yes,100,446.5381,,,[],,0,13,13,13,1,audio/Narrative8Situation4.wav,audio/Narrative7Situation4.wav,audio/Narrative6Situation4.wav,audio/Narrative5Situation4.wav,3,3,2,1,,,,,,,,,,,,,,,,,,,,,,,,,,,,,,,,,,,,,,,
,,,,,66aa8a00cb81056a0cdb9216,2025-07-07_13h44.21.365,group3.4_multiperson,2023.2.2,MacIntel,59.88023952,686c2ebf0248f13bef9af11f,686c3168b653625bb7d7d39c,,,,,,,,,,,,,,,,,,,,,,,,,,,,,446.5384,1,audio/Narrative8Situation5.wav,448.5498,,448.5499,456.7835,"[[999,0],[999,83],[999,166],[999,249],[999,332],[999,416],[999,499],[999,583],[999,666],[999,749],[999,833],[999,915],[999,998],[999,1083],[999,1166],[999,1249],[999,1333],[999,1416],[999,1500],[999,1582],[999,1666],[999,1749],[999,1833],[999,1916],[49.4,1998],[49.8,2082],[49.8,2166],[49.8,2249],[49.8,2333],[49.8,2415],[49.8,2499],[49.8,2582],[49.8,2665],[49.8,2749],[49.8,2833],[49.8,2916],[49.8,2999],[49.8,3082],[49.8,3166],[49.8,3250],[49.8,3333],[72,3416],[100,3499],[100,3582],[100,3665],[100,3750],[100,3833],[100,3915],[100,3999],[100,4083],[100,4166],[100,4249],[100,4333],[100,4416],[100,4499],[100,4583],[100,4666],[100,4749],[100,4833],[100,4916],[100,5000],[100,5083],[100,5166],[100,5249],[100,5333],[100,5416],[100,5499],[100,5583],[100,5665],[100,5749],[100,5833],[100,5916],[100,6000],[100,6082],[100,6166],[100,6249],[100,6333],[100,6416],[100,6499],[100,6583],[100,6665],[100,6749],[100,6833],[100,6916],[100,7000],[100,7083],[100,7166],[100,7249],[100,7333],[100,7416],[100,7499],[100,7582],[100,7665],[100,7749],[100,7833],[100,7916],[100,8000],[100,8082],[100,8166]]",456.7838,458.7491,99.375,1.364,"[{""rating"":99.375,""responseTime"":1.3640000000000327}]",space,1.418,,458.7492,Not at all,0,458.7531,,,[],,0,14,14,14,1,audio/Narrative8Situation5.wav,audio/Narrative7Situation5.wav,audio/Narrative6Situation5.wav,audio/Narrative5Situation5.wav,2,5,2,5,,,,,,,,,,,,,,,,,,,,,,,,,,,,,,,,,,,,,,,
,,,,,66aa8a00cb81056a0cdb9216,2025-07-07_13h44.21.365,group3.4_multiperson,2023.2.2,MacIntel,59.88023952,686c2ebf0248f13bef9af11f,686c3168b653625bb7d7d39c,,,,,,,,,,,,,,,,,,,,,,,,,,,,,458.7535,1,audio/Narrative8Situation6.wav,460.7663,,460.7663,467.2338,"[[999,0],[999,83],[999,166],[999,249],[999,333],[999,416],[999,500],[999,583],[999,665],[999,750],[999,833],[51.3,915],[51.1,1000],[51,1083],[50.9,1166],[50.9,1249],[50.9,1334],[50.9,1417],[50.9,1500],[50.9,1583],[50.9,1666],[50.9,1749],[50.9,1832],[50.9,1916],[50.9,1999],[55.2,2083],[71.1,2167],[83.4,2250],[84.2,2333],[84.2,2416],[84.2,2500],[84.2,2582],[85.8,2666],[97,2750],[98.8,2834],[98.8,2916],[98.8,3000],[98.8,3083],[98.8,3167],[98.8,3250],[98.8,3333],[98.8,3416],[98.8,3500],[98.8,3583],[98.8,3667],[98.8,3750],[98.8,3834],[98.8,3917],[98.8,4000],[98.8,4083],[98.8,4167],[98.8,4250],[98.8,4333],[98.8,4416],[98.8,4499],[98.8,4583],[98.8,4667],[98.8,4750],[98.8,4833],[98.8,4916],[98.8,5000],[98.8,5083],[98.8,5167],[98.8,5250],[98.8,5333],[98.8,5417],[98.8,5499],[98.8,5583],[98.8,5667],[98.8,5750],[98.8,5832],[98.8,5916],[98.8,5999],[98.8,6083],[98.8,6166],[98.8,6249],[98.8,6333],[98.8,6417]]",467.234,472.2161,99.78624132,4.0131,"[{""rating"":99.78624131944444,""responseTime"":4.013099999993983}]",space,4.4352,,472.2162,Definitely yes,100,472.2203,,,[],,0,15,15,15,1,audio/Narrative8Situation6.wav,audio/Narrative7Situation6.wav,audio/Narrative6Situation6.wav,audio/Narrative5Situation6.wav,2,3,2,3,,,,,,,,,,,,,,,,,,,,,,,,,,,,,,,,,,,,,,,
,,,,,66aa8a00cb81056a0cdb9216,2025-07-07_13h44.21.365,group3.4_multiperson,2023.2.2,MacIntel,59.88023952,686c2ebf0248f13bef9af11f,686c3168b653625bb7d7d39c,,,,,,,,,,,,,,,,,,,,,,,,,,,,,472.2206,1,audio/Narrative8Situation7.wav,475.2338,,475.2338,487.3342,"[[999,0],[999,83],[999,166],[999,249],[999,332],[999,416],[999,499],[999,582],[999,665],[999,749],[999,832],[999,916],[999,999],[999,1083],[999,1165],[999,1250],[999,1333],[999,1416],[999,1499],[999,1583],[999,1666],[999,1748],[999,1832],[999,1916],[999,1999],[51.8,2082],[51.1,2166],[50.8,2248],[50.6,2333],[50.6,2416],[50.6,2499],[50.6,2583],[50.6,2666],[50.6,2750],[50.6,2833],[50.6,2915],[50.6,2999],[50.6,3083],[50.6,3166],[50.6,3250],[50.6,3333],[50.6,3415],[55.2,3499],[61.2,3583],[63.8,3666],[65.2,3749],[65.7,3832],[66.1,3916],[66.4,3999],[66.5,4083],[66.5,4166],[66.5,4249],[66.5,4333],[66.5,4416],[66.5,4500],[66.5,4582],[66.5,4666],[66.5,4748],[66.5,4833],[66.5,4916],[66.5,5000],[66.5,5083],[66.5,5165],[66.5,5250],[66.5,5333],[66.5,5416],[66.5,5500],[66.5,5582],[66.5,5666],[66.5,5750],[66.5,5832],[66.5,5916],[66.5,6000],[66.5,6082],[66.5,6166],[66.5,6250],[66.5,6333],[66.5,6416],[66.5,6499],[66.5,6583],[66.5,6666],[66.5,6750],[66.5,6833],[66.5,6916],[66.5,7000],[66.5,7083],[66.5,7166],[66.5,7249],[66.5,7333],[66.5,7416],[66.5,7500],[66.5,7582],[66.5,7666],[66.5,7748],[66.5,7833],[66.6,7916],[68.9,7999],[71.1,8082],[72.1,8165],[72.9,8249],[73.2,8332],[73.2,8415],[73.4,8500],[74,8583],[75.2,8666],[75.7,8750],[75.7,8833],[75.7,8916],[75.7,9000],[75.7,9083],[75.7,9166],[77.1,9249],[79,9333],[79.4,9416],[79.4,9500],[79.4,9583],[79.4,9666],[79.4,9750],[79.4,9833],[79.4,9916],[79.4,9999],[79.4,10083],[79.4,10166],[79.4,10249],[79.4,10333],[80.7,10416],[81.1,10498],[81.4,10583],[81.9,10666],[84.1,10749],[87.5,10833],[91,10916],[96.9,10999],[100,11083],[100,11166],[100,11250],[100,11333],[100,11417],[100,11500],[100,11583],[100,11666],[100,11749],[100,11833],[100,11915],[100,12000],[100,12083]]",487.3345,489.7176,99.76888021,1.6144,"[{""rating"":99.76888020833333,""responseTime"":1.6144000000059577}]",space,1.8413,,489.7177,Not at all,0,489.7217,,,[],,0,16,16,16,1,audio/Narrative8Situation7.wav,audio/Narrative7Situation7.wav,audio/Narrative6Situation7.wav,audio/Narrative5Situation7.wav,3,5,5,4,,,,,,,,,,,,,,,,,,,,,,,,,,,,,,,,,,,,,,,
,,,,,66aa8a00cb81056a0cdb9216,2025-07-07_13h44.21.365,group3.4_multiperson,2023.2.2,MacIntel,59.88023952,686c2ebf0248f13bef9af11f,686c3168b653625bb7d7d39c,,,,,,,,,,,,,,,,,,,,,,,,,,,,,489.7219,1,audio/Narrative8Situation8.wav,492.7341,,492.7341,505.6014,"[[999,0],[999,83],[999,167],[56.7,249],[55.2,333],[55.1,416],[53.9,499],[52,583],[51.7,666],[51.6,749],[51.6,833],[51.6,915],[51.6,1000],[52.2,1083],[53.4,1166],[53.8,1249],[53.8,1332],[53.8,1416],[53.8,1500],[53.8,1583],[53.7,1666],[53.4,1749],[52.5,1833],[51.2,1916],[50.6,1999],[50.5,2083],[50.3,2166],[50,2250],[49.9,2332],[49.9,2416],[49.9,2500],[49.9,2582],[49.9,2666],[49.9,2750],[49.9,2833],[49.9,2916],[49.9,2999],[49.9,3083],[49.9,3166],[49.9,3250],[49.9,3332],[49.9,3416],[49.9,3499],[49.9,3583],[49.9,3665],[49.9,3749],[49.9,3833],[49.9,3916],[49.9,4000],[49.9,4083],[49.9,4166],[49.9,4250],[49.9,4333],[49.9,4416],[49.9,4499],[49.9,4583],[49.9,4666],[49.9,4750],[49.9,4833],[49.9,4915],[49.9,5000],[49.9,5082],[49.9,5165],[49.9,5249],[49.9,5333],[49.9,5416],[49.9,5500],[49.9,5583],[49.9,5666],[49.9,5750],[49.9,5833],[49.9,5915],[49.9,6000],[49.9,6083],[49.9,6167],[49.9,6249],[53.4,6333],[85.5,6416],[96.1,6500],[96.9,6582],[96.9,6666],[96.9,6749],[96.9,6832],[96.9,6916],[96.9,6999],[96.9,7083],[96.9,7165],[96.9,7250],[96.9,7332],[96.9,7416],[96.9,7500],[96.9,7583],[96.9,7665],[96.9,7750],[96.9,7833],[96.9,7917],[96.9,8000],[96.9,8083],[96.9,8166],[96.9,8250],[96.9,8333],[96.9,8416],[96.9,8500],[96.9,8583],[96.9,8666],[96.9,8749],[96.9,8833],[96.9,8916],[96.9,9000],[96.9,9083],[96.9,9167],[96.9,9249],[96.9,9332],[96.9,9416],[96.9,9499],[96.9,9583],[96.9,9666],[96.9,9750],[96.9,9833],[96.9,9917],[96.9,10000],[96.9,10083],[96.9,10167],[96.9,10250],[96.9,10332],[96.9,10415],[96.9,10500],[96.9,10583],[96.9,10667],[96.9,10750],[96.9,10833],[96.9,10917],[96.9,11000],[96.9,11083],[96.9,11166],[96.9,11250],[96.9,11333],[96.9,11416],[96.9,11500],[96.9,11583],[96.9,11666],[96.9,11750],[96.9,11833],[96.9,11917],[96.9,11999],[96.9,12083],[96.9,12166],[96.9,12249],[96.9,12333],[96.9,12416],[96.9,12500],[96.9,12583],[96.9,12667],[96.9,12750],[96.9,12833]]",505.6016,509.3682,96.27061632,1.0959,"[{""rating"":96.27061631944444,""responseTime"":1.0959000000059405}]",space,3.2195,,509.3684,Partially,50,509.3722,,,[],,0,17,17,17,1,audio/Narrative8Situation8.wav,audio/Narrative7Situation8.wav,audio/Narrative6Situation8.wav,audio/Narrative5Situation8.wav,3,2,5,3,,,,,,,,,,,,,,,,,,,,,,,,,,,,,,,,,,,,,,,
,,,,,66aa8a00cb81056a0cdb9216,2025-07-07_13h44.21.365,group3.4_multiperson,2023.2.2,MacIntel,59.88023952,686c2ebf0248f13bef9af11f,686c3168b653625bb7d7d39c,,,,,,,,,,,,,,,,,,,,,,,,,,,,,509.3726,1,audio/Narrative8Situation9.wav,512.3848,,512.3849,523.7021,"[[999,0],[999,83],[999,165],[999,249],[999,333],[999,415],[999,499],[999,582],[999,665],[999,749],[999,833],[49.9,916],[49.9,1000],[49.9,1082],[49.9,1166],[49.9,1249],[49.9,1331],[49.9,1416],[49.9,1499],[49.9,1582],[49.9,1666],[49.9,1748],[50.2,1832],[52.7,1915],[53.5,1999],[53.7,2082],[53.8,2166],[53.9,2249],[53.9,2333],[54.2,2416],[54.5,2499],[54.9,2582],[55.2,2666],[55.2,2749],[55.2,2832],[55.2,2916],[55.2,2999],[55.2,3083],[55.2,3166],[55.2,3249],[55.2,3333],[55.2,3416],[55.2,3499],[55.2,3583],[55.2,3666],[55.2,3750],[55.8,3832],[56,3916],[56.1,3999],[56.3,4082],[56.7,4166],[57.1,4249],[57.6,4332],[57.8,4416],[57.9,4500],[58,4582],[58.1,4666],[58.5,4750],[59.1,4833],[59.7,4915],[62.6,4999],[71.7,5082],[82.3,5165],[87.3,5249],[87.9,5333],[87.9,5416],[87.9,5499],[91.9,5583],[100,5666],[100,5750],[100,5833],[100,5916],[100,5999],[100,6082],[100,6166],[100,6250],[100,6332],[100,6415],[100,6500],[100,6583],[100,6665],[100,6749],[100,6833],[100,6915],[100,6999],[100,7083],[100,7165],[100,7250],[100,7333],[100,7416],[100,7499],[100,7583],[100,7665],[100,7749],[100,7833],[100,7915],[100,7999],[100,8082],[100,8166],[100,8250],[100,8333],[100,8416],[100,8500],[100,8583],[100,8666],[100,8750],[100,8833],[100,8916],[100,9000],[100,9082],[100,9166],[100,9250],[100,9332],[100,9416],[100,9499],[100,9583],[100,9666],[100,9749],[100,9833],[100,9916],[100,9999],[100,10083],[100,10166],[100,10250],[100,10332],[100,10416],[100,10499],[100,10582],[100,10665],[100,10750],[100,10833],[100,10916],[100,10998],[100,11083],[100,11166],[100,11249]]",523.7024,526.8012,99.62890625,2.6707,"[{""rating"":99.62890625,""responseTime"":2.6706999999880736}]",space,2.5533,,526.8014,Not at all,0,526.8046,,,[],,0,18,18,18,1,audio/Narrative8Situation9.wav,audio/Narrative7Situation9.wav,audio/Narrative6Situation9.wav,audio/Narrative5Situation9.wav,3,2,4,3,,,,,,,,,,,,,,,,,,,,,,,,,,,,,,,,,,,,,,,
,,,,,66aa8a00cb81056a0cdb9216,2025-07-07_13h44.21.365,group3.4_multiperson,2023.2.2,MacIntel,59.88023952,686c2ebf0248f13bef9af11f,686c3168b653625bb7d7d39c,,,,,,,,,,,,,,,,,,,,,,,,,,,586.8042,589.3866,589.4044,2,audio/Narrative13Situation2.wav,589.4045,,589.4045,619.1544,"[[999,0],[999,64],[999,148],[999,230],[999,315],[999,397],[999,481],[999,564],[999,648],[999,730],[999,815],[999,898],[999,981],[999,1064],[999,1147],[999,1231],[999,1315],[999,1398],[999,1481],[999,1564],[999,1648],[999,1732],[999,1815],[999,1898],[999,1982],[999,2065],[999,2147],[999,2232],[999,2314],[999,2398],[999,2481],[999,2565],[999,2648],[999,2732],[999,2814],[999,2898],[999,2981],[999,3065],[999,3148],[999,3232],[999,3315],[999,3399],[999,3482],[999,3565],[999,3648],[999,3732],[999,3815],[999,3898],[999,3982],[999,4065],[999,4148],[999,4232],[999,4315],[999,4399],[999,4482],[999,4565],[999,4648],[999,4732],[999,4815],[999,4898],[999,4982],[999,5064],[999,5147],[999,5232],[999,5314],[999,5397],[999,5482],[999,5565],[999,5648],[999,5732],[999,5814],[999,5898],[999,5982],[999,6064],[999,6148],[999,6232],[999,6315],[999,6399],[999,6482],[999,6565],[999,6648],[999,6731],[999,6815],[999,6898],[999,6981],[999,7065],[999,7148],[999,7232],[999,7314],[999,7399],[999,7482],[999,7565],[999,7649],[999,7731],[999,7814],[999,7897],[999,7982],[999,8065],[999,8148],[999,8232],[999,8314],[999,8399],[999,8482],[999,8565],[999,8648],[999,8731],[999,8815],[999,8898],[999,8982],[999,9064],[999,9148],[999,9232],[999,9315],[999,9399],[999,9482],[999,9565],[999,9648],[999,9732],[999,9814],[999,9898],[999,9981],[999,10065],[999,10148],[999,10232],[999,10314],[999,10398],[999,10481],[999,10564],[999,10648],[999,10732],[999,10815],[999,10899],[999,10982],[999,11065],[999,11149],[999,11232],[999,11314],[999,11398],[999,11482],[999,11564],[999,11648],[999,11731],[999,11815],[999,11898],[999,11981],[999,12064],[999,12148],[999,12231],[999,12314],[999,12397],[999,12480],[999,12564],[999,12648],[999,12731],[999,12815],[999,12898],[999,12981],[999,13065],[999,13148],[999,13231],[999,13314],[999,13398],[999,13481],[999,13565],[999,13648],[999,13731],[999,13815],[999,13899],[999,13982],[999,14065],[999,14148],[999,14232],[999,14315],[999,14398],[999,14482],[999,14565],[999,14649],[999,14731],[999,14815],[999,14898],[999,14982],[999,15065],[999,15149],[999,15231],[999,15315],[999,15398],[999,15482],[999,15565],[999,15649],[999,15731],[999,15815],[999,15899],[999,15982],[999,16065],[999,16149],[999,16231],[999,16315],[999,16398],[999,16482],[999,16564],[999,16649],[999,16732],[999,16815],[999,16899],[999,16982],[999,17065],[999,17149],[999,17232],[999,17314],[999,17398],[999,17482],[999,17565],[999,17649],[999,17732],[999,17815],[999,17898],[999,17982],[999,18065],[999,18149],[999,18232],[999,18316],[999,18399],[999,18482],[999,18565],[999,18648],[999,18732],[999,18815],[999,18899],[999,18981],[999,19065],[999,19149],[999,19232],[999,19315],[999,19397],[999,19482],[999,19565],[999,19649],[999,19732],[999,19815],[999,19899],[63.8,19982],[64,20065],[65,20149],[69.8,20232],[71.3,20315],[71.3,20397],[71.3,20482],[71.3,20565],[71.3,20649],[71.3,20732],[71.3,20815],[71.3,20899],[71.3,20981],[71.3,21064],[71.3,21148],[71.3,21232],[71.3,21316],[71.3,21399],[71.3,21482],[71.3,21565],[71.3,21648],[54.3,21732],[20,25399],[19.9,25482],[19.9,25564],[19.7,25648],[19.7,25732],[19.7,25816],[19.7,25898],[19.7,25982],[19.7,26065],[19.7,26149],[19.7,26232],[19.7,26316],[19.7,26397],[19.7,26482],[19.7,26566],[19.7,26648],[19.7,26731],[19.7,26814],[19.7,26899],[19.7,26982],[19.7,27064],[19.7,27149],[19.7,27231],[19.7,27316],[19.7,27399],[19.7,27481],[19.7,27565],[19.7,27648],[19.7,27732],[19.7,27815],[19.7,27899],[19.7,27982],[19.7,28066],[19.7,28148],[19.7,28232],[19.7,28314],[19.7,28399],[19.7,28481],[19.7,28565],[19.7,28649],[19.7,28732],[19.7,28815],[19.7,28898],[19.7,28981],[19.7,29066],[19.7,29149],[19.7,29232],[19.7,29315],[19.7,29399],[19.7,29481],[19.7,29565],[19.7,29649],[19.7,29732]]",619.1553,619.1596,,,[],,,,619.1596,Partially,50,619.1625,,,[],,0,0,0,0,1,audio/Narrative13Situation2.wav,audio/Narrative13Situation2.wav,audio/Narrative13Situation2.wav,audio/Narrative13Situation2.wav,2,2,2,2,,,,,526.8054,586.8036,,,,,,,,,,,,,,,,,,,,,,,,,,,,,,,,,
,,,,,66aa8a00cb81056a0cdb9216,2025-07-07_13h44.21.365,group3.4_multiperson,2023.2.2,MacIntel,59.88023952,686c2ebf0248f13bef9af11f,686c3168b653625bb7d7d39c,,,,,,,,,,,,,,,,,,,,,,,,,,,,,619.1628,2,audio/Narrative5Situation1.wav,624.1711,,624.1713,637.4715,"[[999,0],[999,82],[999,165],[999,249],[999,332],[999,416],[999,499],[999,582],[999,665],[999,749],[999,832],[999,915],[999,999],[49.9,1082],[49.9,1166],[49.9,1249],[49.9,1332],[49.9,1416],[49.9,1498],[49.9,1582],[49.9,1666],[49.9,1748],[49.9,1832],[49.9,1915],[49.9,1999],[49.9,2082],[49.9,2166],[49.9,2249],[49.9,2332],[49.9,2416],[49.9,2499],[49.9,2582],[49.9,2666],[49.9,2749],[49.9,2832],[49.9,2915],[49.9,2999],[49.9,3082],[49.9,3166],[49.9,3249],[49.9,3332],[49.9,3415],[49.9,3499],[49.9,3581],[49.9,3665],[49.9,3749],[49.9,3831],[49.9,3916],[49.9,3998],[49.9,4082],[49.9,4166],[49.9,4249],[49.9,4332],[49.9,4415],[49.9,4498],[49.9,4582],[49.9,4666],[49.9,4749],[49.9,4832],[49.9,4915],[49.9,4999],[49.9,5082],[49.9,5165],[49.9,5249],[49.9,5332],[53.8,5415],[58.5,5498],[60.9,5582],[62.5,5666],[63.5,5749],[64.3,5831],[64.8,5915],[64.9,5999],[64.9,6082],[64.9,6165],[64.9,6249],[64.9,6332],[64.9,6416],[64.9,6499],[64.9,6582],[64.9,6665],[64.9,6748],[64.9,6831],[64.9,6915],[64.9,6998],[64.9,7082],[64.9,7165],[64.9,7249],[64.9,7332],[64.9,7415],[64.9,7499],[64.9,7582],[64.9,7666],[64.9,7748],[64.9,7832],[64.9,7915],[64.9,7999],[64.9,8082],[64.9,8164],[64.9,8248],[64.9,8331],[64.9,8414],[64.9,8498],[64.9,8581],[64.9,8665],[64.9,8749],[64.9,8831],[64.9,8915],[64.9,8999],[64.9,9082],[64.9,9166],[64.9,9249],[64.9,9332],[64.9,9415],[64.9,9499],[64.9,9582],[64.9,9666],[64.9,9748],[64.9,9832],[64.9,9916],[64.9,9999],[64.9,10083],[64.9,10166],[64.9,10249],[64.9,10333],[64.9,10415],[64.9,10499],[64.9,10582],[64.9,10665],[64.9,10749],[64.9,10832],[64.9,10916],[64.9,10999],[64.9,11083],[64.9,11165],[64.9,11249],[64.9,11333],[64.9,11416],[64.9,11499],[64.9,11582],[64.9,11665],[64.9,11748],[64.9,11832],[64.9,11915],[64.9,11999],[64.9,12082],[64.9,12166],[64.9,12249],[64.9,12333],[64.9,12416],[64.9,12499],[64.9,12582],[64.9,12666],[64.9,12749],[64.9,12832],[64.9,12915],[64.9,12999],[64.9,13083],[64.9,13165],[64.9,13248]]",637.4718,640.3381,57.5764974,1.5287,"[{""rating"":57.576497395833336,""responseTime"":1.5286999999881346}]",space,2.3203,,640.3382,Partially,50,640.3409,,,[],,0,1,1,1,1,audio/Narrative7Situation1.wav,audio/Narrative8Situation1.wav,audio/Narrative5Situation1.wav,audio/Narrative6Situation1.wav,2,5,5,2,,,,,,,,,,,,,,,,,,,,,,,,,,,,,,,,,,,,,,,
,,,,,66aa8a00cb81056a0cdb9216,2025-07-07_13h44.21.365,group3.4_multiperson,2023.2.2,MacIntel,59.88023952,686c2ebf0248f13bef9af11f,686c3168b653625bb7d7d39c,,,,,,,,,,,,,,,,,,,,,,,,,,,,,640.3414,2,audio/Narrative5Situation2.wav,643.3543,,643.3543,672.8221,"[[999,0],[999,83],[999,166],[999,249],[999,333],[999,416],[999,499],[999,583],[999,665],[999,750],[50.1,833],[49.9,916],[49.6,1000],[49.6,1083],[49.6,1165],[49.6,1250],[49.6,1333],[49.6,1416],[49.6,1499],[49.6,1583],[49.6,1666],[49.6,1750],[49.6,1833],[49.6,1916],[49.6,1998],[49.6,2083],[49.6,2166],[51.1,2250],[54.9,2332],[57.8,2416],[59.8,2500],[61.2,2583],[62.7,2665],[63.5,2750],[64.5,2833],[65.2,2916],[66.7,3000],[67.7,3083],[68,3166],[68,3249],[68,3332],[68,3416],[68,3500],[68,3583],[68,3667],[68,3749],[68,3833],[68,3916],[68,3999],[68,4083],[68,4167],[68,4250],[68,4333],[68,4415],[68,4500],[68,4583],[68,4665],[68.1,4749],[68.4,4833],[68.7,4917],[68.7,4999],[68.7,5083],[68.7,5167],[68.7,5250],[68.7,5332],[68.7,5416],[68.7,5500],[68.7,5583],[68.7,5667],[68.7,5750],[68.7,5833],[68.7,5917],[68.7,5999],[68.7,6083],[68.7,6167],[68.7,6250],[68.7,6333],[68.7,6416],[68.7,6500],[68.7,6583],[68.7,6666],[68.7,6750],[68.7,6833],[68.7,6917],[68.7,7000],[68.7,7083],[68.7,7166],[68.7,7249],[68.7,7333],[68.7,7416],[68.7,7499],[68.7,7583],[68.7,7666],[68.7,7750],[68.7,7833],[68.7,7917],[68.7,8000],[68.7,8083],[67.4,8167],[66.3,8250],[66.2,8333],[66.1,8417],[66.1,8500],[66.1,8583],[66.1,8667],[66.1,8749],[66.1,8833],[66.1,8917],[66.1,9000],[66.1,9083],[66.1,9166],[66.1,9250],[66.8,9333],[67.2,9416],[67.4,9500],[67.5,9583],[67.6,9666],[67.8,9750],[68.2,9833],[68.6,9916],[69.1,10000],[69.4,10083],[69.5,10166],[69.5,10249],[69.5,10332],[69.5,10417],[69.5,10500],[69.5,10583],[69.5,10667],[69.5,10750],[69.5,10833],[69.5,10917],[69.8,10999],[70.2,11083],[70.9,11166],[72.2,11250],[73.2,11333],[73.6,11416],[74,11500],[74.4,11584],[75.3,11665],[76.4,11750],[77.3,11834],[77.9,11917],[79,12000],[80.1,12083],[80.5,12167],[80.5,12250],[80.5,12333],[80.5,12415],[80.5,12499],[80.5,12582],[80.5,12667],[80.5,12750],[80.5,12833],[80.5,12916],[80.5,13000],[80.5,13082],[80.5,13166],[80.5,13250],[80.5,13333],[80.5,13416],[80.5,13499],[80.5,13583],[80.5,13667],[80.8,13750],[81.1,13834],[81.6,13916],[82,14000],[82.2,14083],[82.3,14167],[82.4,14250],[82.6,14334],[82.7,14416],[82.7,14500],[82.7,14583],[82.7,14667],[82.7,14750],[82.7,14833],[82.7,14917],[82.7,14999],[82.7,15083],[82.7,15167],[82.7,15250],[82.7,15333],[82.7,15417],[82.7,15500],[83.2,15583],[83.5,15666],[83.8,15750],[84,15833],[84.1,15917],[84.1,16000],[84.1,16084],[84.1,16167],[84.1,16250],[84.1,16334],[84.1,16416],[84.1,16500],[84.1,16583],[84.1,16667],[84.1,16750],[84.1,16834],[84.1,16916],[84.1,17000],[84.1,17083],[84.1,17167],[84.1,17249],[84.1,17334],[84.1,17417],[84.1,17500],[84.1,17584],[84.1,17667],[84.1,17750],[84.1,17834],[84.1,17916],[84.1,18000],[84.1,18083],[84.1,18167],[84.1,18249],[84.1,18333],[84.2,18417],[84.4,18500],[84.7,18584],[84.8,18666],[85,18750],[85.2,18833],[85.4,18916],[85.5,19000],[85.6,19083],[85.8,19167],[85.9,19250],[86,19333],[86,19417],[85.6,19500],[85.6,19583],[85.6,19666],[85.6,19750],[85.6,19834],[85.6,19917],[85.6,20000],[85.6,20084],[85.6,20167],[85.6,20250],[85.6,20333],[85.6,20416],[85.6,20500],[85.6,20584],[85.6,20667],[85.6,20750],[85.6,20833],[85.6,20917],[85.6,21000],[85.6,21084],[85.6,21167],[85.6,21250],[85.6,21333],[85.6,21417],[85.6,21499],[85.6,21584],[85.6,21667],[85.6,21749],[85.6,21834],[85.6,21917],[85.6,22001],[85.6,22084],[85.6,22167],[85.6,22250],[85.6,22334],[85.6,22417],[85.6,22499],[85.6,22584],[85.6,22667],[85.6,22751],[85.6,22834],[85.6,22917],[85.6,23000],[85.6,23083],[85.6,23167],[85.6,23250],[85.6,23334],[85.6,23416],[85.6,23500],[85.6,23583],[85.6,23667],[85.6,23749],[85.6,23834],[85.6,23917],[85.6,24000],[85.6,24084],[85.6,24167],[85.6,24250],[85.6,24334],[85.6,24417],[85.6,24499],[85.6,24584],[85.6,24667],[85.6,24751],[85.6,24834],[85.6,24917],[85.6,25000],[85.6,25084],[85.6,25166],[85.6,25249],[85.6,25334],[85.6,25416],[85.6,25500],[85.6,25584],[85.6,25667],[85.6,25750],[85.6,25834],[85.6,25916],[85.6,26000],[85.6,26084],[85.6,26167],[85.6,26249],[85.6,26334],[85.6,26417],[85.6,26500],[85.6,26583],[85.6,26667],[85.6,26750],[85.6,26834],[85.6,26917],[85.6,27000],[85.6,27084],[85.6,27166],[85.6,27250],[85.6,27334],[85.6,27417],[85.6,27500],[85.6,27584],[85.6,27667],[85.6,27750],[85.6,27833],[85.6,27917],[85.6,28000],[85.6,28083],[85.6,28167],[85.6,28251],[85.6,28333],[85.7,28417],[85.7,28500],[85.7,28584],[81.2,28666],[75.6,28749],[71.6,28834],[70,28917],[70,29000],[70,29084],[65,29167],[37.4,29251],[30.2,29334],[30,29417]]",672.8227,675.3722,60.5485026,1.8461,"[{""rating"":60.548502604166664,""responseTime"":1.8460999999940668}]",space,2.0035,,675.3724,Not at all,0,675.3779,,,[],,0,2,2,2,1,audio/Narrative7Situation2.wav,audio/Narrative8Situation2.wav,audio/Narrative5Situation2.wav,audio/Narrative6Situation2.wav,3,3,3,3,,,,,,,,,,,,,,,,,,,,,,,,,,,,,,,,,,,,,,,
,,,,,66aa8a00cb81056a0cdb9216,2025-07-07_13h44.21.365,group3.4_multiperson,2023.2.2,MacIntel,59.88023952,686c2ebf0248f13bef9af11f,686c3168b653625bb7d7d39c,,,,,,,,,,,,,,,,,,,,,,,,,,,,,675.3783,2,audio/Narrative5Situation3.wav,678.3892,,678.3893,692.3052,"[[45.6,666],[49.8,748],[51.2,832],[51.3,915],[51.3,999],[51.3,1082],[51.3,1166],[51.1,1249],[50.8,1333],[50.7,1415],[50.6,1498],[50.5,1582],[50.5,1666],[50.5,1749],[50.5,1832],[50.5,1916],[50.5,1998],[50.5,2082],[50.5,2165],[50.5,2249],[50.5,2331],[49.8,2416],[49.4,2498],[48.8,2581],[40,2665],[35.2,2750],[38.5,2832],[59.4,2916],[64.7,2999],[66.2,3082],[67.3,3165],[67.9,3248],[68.1,3332],[68.1,3416],[68.1,3498],[68.1,3582],[68.1,3666],[68.1,3749],[68.1,3832],[68.1,3916],[68.1,3999],[68.1,4082],[68.1,4166],[68.1,4248],[68.1,4332],[68.1,4416],[68.1,4499],[68.1,4582],[68.1,4665],[68.1,4749],[68.1,4832],[68.1,4916],[68.1,4999],[68.1,5082],[68.1,5166],[68.1,5248],[68.1,5332],[68.1,5416],[68.1,5499],[68.1,5581],[68.1,5665],[68.1,5749],[68.1,5832],[68.1,5916],[68.1,5999],[68.1,6082],[68.1,6166],[68.1,6249],[68.1,6332],[68.1,6416],[68.1,6499],[68.1,6582],[68.1,6666],[68.1,6749],[68.1,6833],[68.1,6916],[68.1,6999],[68.1,7082],[68.1,7165],[68.1,7249],[68.1,7331],[68.1,7416],[68.1,7499],[68.1,7581],[68.1,7665],[68.1,7749],[68.1,7832],[68.1,7916],[68.1,7999],[68.1,8082],[68.1,8166],[68.1,8248],[68.1,8333],[68.9,8415],[72,8500],[74.6,8582],[76.2,8665],[77.8,8750],[78.6,8832],[79,8916],[79,8998],[79,9082],[79,9166],[79,9249],[79,9332],[79,9416],[79,9499],[79,9582],[79,9666],[79,9749],[79,9832],[79,9916],[79,9999],[79,10083],[79,10165],[79,10249],[79,10333],[79,10416],[79,10499],[79,10583],[79,10666],[79,10749],[79,10833],[79,10916],[79,10999],[79,11082],[79,11166],[79,11249],[79,11331],[79,11416],[79,11499],[79,11582],[79,11666],[79,11749],[79,11833],[79,11916],[79,11999],[79,12083],[79,12165],[79,12249],[79,12333],[79,12416],[79,12498],[79,12583],[79,12666],[79,12749],[79,12833],[79,12916],[79,12999],[79,13082],[79,13166],[79,13249],[79,13332],[79,13416],[79,13498],[79,13583],[79,13666],[79,13749],[79,13833],[79,13915]]",692.3054,697.5061,80.39659288,4.8643,"[{""rating"":100,""responseTime"":2.01480000001186},{""rating"":80.39659288194446,""responseTime"":4.8643000000118946}]",space,4.6537,,697.5062,Not at all,0,697.5089,,,[],,0,3,3,3,1,audio/Narrative7Situation3.wav,audio/Narrative8Situation3.wav,audio/Narrative5Situation3.wav,audio/Narrative6Situation3.wav,8,4,3,5,,,,,,,,,,,,,,,,,,,,,,,,,,,,,,,,,,,,,,,
,,,,,66aa8a00cb81056a0cdb9216,2025-07-07_13h44.21.365,group3.4_multiperson,2023.2.2,MacIntel,59.88023952,686c2ebf0248f13bef9af11f,686c3168b653625bb7d7d39c,,,,,,,,,,,,,,,,,,,,,,,,,,,,,697.5093,2,audio/Narrative5Situation4.wav,698.5223,,698.5223,718.9234,"[[999,0],[999,82],[999,166],[999,250],[999,332],[999,416],[999,499],[999,583],[999,666],[999,749],[999,833],[999,916],[999,1000],[999,1083],[999,1166],[999,1250],[999,1333],[999,1416],[999,1500],[999,1583],[50.7,1666],[50.6,1750],[50.6,1832],[50.5,1916],[50.5,2000],[50.5,2083],[50.5,2167],[50.5,2250],[50.5,2333],[50.5,2417],[50.5,2500],[50.5,2583],[50.5,2666],[50.5,2749],[54.8,2833],[59.2,2916],[61.7,3000],[65.1,3083],[67.4,3166],[67.8,3250],[67.8,3333],[67.8,3417],[67.8,3500],[67.8,3583],[67.8,3666],[67.8,3750],[67.8,3833],[67.8,3916],[67.8,4000],[67.8,4083],[67.8,4167],[67.8,4249],[67.8,4332],[67.8,4416],[67.8,4499],[67.8,4583],[67.8,4666],[67.8,4750],[66.1,4833],[60,4916],[56.3,5000],[54,5083],[51.7,5165],[50.7,5250],[50.2,5334],[49.1,5416],[47.6,5500],[45.9,5583],[44.4,5667],[44.4,5749],[44.4,5833],[44.4,5916],[44.4,6000],[42.1,6083],[39.4,6166],[38.9,6249],[38.7,6332],[38.2,6416],[37.7,6499],[37.5,6583],[37.4,6667],[37.1,6749],[36.7,6832],[36,6915],[34.8,7000],[33.8,7083],[33.2,7167],[32.6,7250],[31.9,7334],[31.3,7417],[30.9,7499],[30.5,7583],[30.1,7666],[29.9,7750],[29.8,7834],[29.7,7915],[29.7,8000],[29.6,8083],[29.5,8167],[29.2,8250],[29,8333],[29,8417],[29,8499],[29,8583],[29,8667],[29,8750],[30.1,8833],[47.1,8916],[64.7,9000],[80.7,9083],[86.1,9167],[86.1,9250],[86.1,9333],[86.1,9417],[86.1,9500],[86.1,9583],[86.1,9666],[86.1,9750],[86.1,9833],[86.1,9917],[86.1,10000],[86.1,10082],[86.1,10167],[86.1,10249],[86.1,10333],[86.1,10416],[86.1,10499],[86.1,10583],[86.1,10666],[86.1,10749],[86.1,10833],[86.1,10917],[86.1,10999],[86.1,11083],[86.1,11167],[86.1,11250],[86.1,11333],[86.1,11417],[86.1,11500],[86.1,11583],[86.1,11667],[86.1,11750],[86.1,11833],[86.1,11917],[86.1,12000],[86.1,12083],[86.1,12167],[86.1,12249],[86.1,12333],[86.1,12417],[86.1,12499],[86.1,12584],[86.1,12667],[86.1,12750],[86.1,12834],[86.1,12917],[86.1,12999],[86.1,13083],[86.1,13167],[86.1,13250],[86.1,13333],[86.1,13416],[86.1,13500],[86.1,13583],[86.1,13667],[86.1,13750],[86.1,13833],[86.1,13916],[86.1,14000],[86.1,14083],[86.1,14167],[86.1,14250],[86.1,14333],[86.1,14417],[86.1,14500],[86.1,14583],[86.1,14666],[86.1,14750],[86.1,14834],[86.1,14917],[86.1,14999],[86.1,15083],[86.1,15167],[86.1,15250],[86.1,15334],[86.1,15417],[86.1,15500],[86.1,15583],[86.1,15667],[86.1,15750],[86.1,15833],[86.1,15917],[86.1,16000],[86.1,16084],[86.1,16167],[86.1,16250],[86.1,16334],[86.1,16416],[86.1,16500],[86.1,16584],[86.1,16667],[86.1,16750],[86.1,16834],[86.1,16917],[86.1,16999],[86.1,17083],[86.1,17166],[86.1,17250],[86.1,17333],[87,17417],[88.4,17501],[89.6,17584],[90,17667],[90.6,17750],[91.6,17834],[93.1,17917],[94.3,18000],[96.4,18083],[97.3,18167],[97.6,18250],[97.7,18334],[97.8,18417],[97.9,18500],[98.1,18583],[99,18666],[99.4,18750],[99.5,18833],[99.5,18917],[99.5,19000],[99.5,19083],[99.5,19167],[99.5,19250],[99.5,19334],[99.5,19417],[99.5,19500],[99.5,19584],[99.5,19667],[99.5,19750],[99.5,19834],[99.5,19917],[99.5,20000],[99.5,20084],[99.5,20167],[99.5,20250],[99.5,20334]]",718.9237,721.6901,49.55295139,2.1556,"[{""rating"":49.552951388888886,""responseTime"":2.15560000002381}]",space,2.2254,,721.6903,Definitely yes,100,721.6947,,,[],,0,4,4,4,1,audio/Narrative7Situation4.wav,audio/Narrative8Situation4.wav,audio/Narrative5Situation4.wav,audio/Narrative6Situation4.wav,3,3,1,2,,,,,,,,,,,,,,,,,,,,,,,,,,,,,,,,,,,,,,,
,,,,,66aa8a00cb81056a0cdb9216,2025-07-07_13h44.21.365,group3.4_multiperson,2023.2.2,MacIntel,59.88023952,686c2ebf0248f13bef9af11f,686c3168b653625bb7d7d39c,,,,,,,,,,,,,,,,,,,,,,,,,,,,,721.6951,2,audio/Narrative5Situation5.wav,726.706,,726.7062,742.1231,"[[49.8,1250],[50,1334],[50.1,1416],[50.1,1500],[50.1,1583],[50.1,1666],[50.1,1750],[46.7,1833],[45.5,1916],[45.2,2000],[45.1,2082],[45.1,2167],[45.1,2250],[45.1,2333],[47.9,2416],[50.3,2500],[50.5,2583],[50.5,2666],[50.5,2750],[50.5,2833],[50.5,2916],[50.5,3000],[51.7,3083],[57.5,3167],[62.1,3249],[67.2,3333],[72.5,3416],[75.1,3500],[75.1,3583],[75.1,3666],[75.1,3750],[75.1,3834],[75.1,3916],[52.1,4000],[28.8,4083],[24.3,4167],[19.4,4250],[17.7,4333],[17.6,4416],[17.4,4500],[17.2,4582],[17.2,4667],[17.2,4750],[17.2,4833],[17.2,4916],[17.2,5000],[17.2,5083],[17.2,5166],[17.2,5249],[17.2,5333],[17.2,5417],[15.2,5500],[13.4,5584],[12.3,5667],[10.9,5750],[9,5834],[7.5,5917],[6.2,5999],[5.7,6084],[5.7,6167],[5.7,6250],[5.7,6334],[5.7,6417],[5.7,6500],[5.7,6583],[5.7,6667],[5.7,6750],[5.7,6833],[5.7,6917],[5.7,7000],[5.7,7083],[5.7,7167],[5.7,7250],[5.7,7334],[5.7,7417],[5.7,7500],[5.7,7584],[5.7,7667],[5.7,7750],[5.7,7834],[5.7,7917],[5.7,8000],[5.7,8084],[5.7,8166],[5.7,8250],[5.7,8334],[5.7,8417],[5.7,8500],[5.7,8583],[5.7,8667],[5.7,8750],[5.7,8834],[5.7,8917],[5.7,9000],[5.7,9084],[5.7,9167],[5.7,9250],[5.7,9334],[5.7,9417],[5.7,9500],[5.7,9583],[5.7,9666],[5.7,9750],[5.7,9834],[5.7,9917],[5.7,10000],[5.7,10084],[5.7,10167],[5.7,10250],[5.7,10334],[5.7,10417],[5.7,10500],[5.7,10583],[5.7,10667],[5.7,10750],[5.7,10834],[5.7,10916],[5.7,11000],[5.7,11084],[5.7,11167],[5.7,11250],[5.7,11334],[5.7,11417],[5.7,11500],[5.7,11583],[5.7,11666],[5.7,11750],[5.7,11833],[5.7,11917],[5.7,12000],[5.7,12084],[5.7,12167],[5.7,12250],[5.7,12334],[5.7,12417],[5.7,12500],[5.7,12584],[5.7,12667],[5.7,12750],[5.7,12834],[5.7,12917],[5.7,13000],[5.7,13084],[5.7,13167],[5.7,13250],[5.7,13334],[5.7,13417],[5.7,13500],[5.7,13584],[5.7,13667],[5.7,13750],[5.7,13834],[5.7,13917],[5.7,13999],[5.7,14084],[5.7,14167],[5.7,14250],[5.7,14334],[5.7,14417],[5.7,14500],[5.7,14584],[5.7,14667],[5.7,14750],[5.7,14834],[5.7,14916],[5.7,15000],[5.7,15084],[5.7,15167],[5.7,15250],[5.7,15334],[5.7,15416]]",742.1234,744.5233,8.895399306,1.1989,"[{""rating"":8.895399305555557,""responseTime"":1.198900000006006}]",space,1.8771,,744.5235,Partially,50,747.174,50.18988715,2.204,"[{""rating"":50.18988715277778,""responseTime"":2.203999999999951}]",space,0,5,5,5,1,audio/Narrative7Situation5.wav,audio/Narrative8Situation5.wav,audio/Narrative5Situation5.wav,audio/Narrative6Situation5.wav,5,2,5,2,,,2.1108,,,,,,,,,,,,,,,,,,,,,,,,,,,,,,,,,,,,
,,,,,66aa8a00cb81056a0cdb9216,2025-07-07_13h44.21.365,group3.4_multiperson,2023.2.2,MacIntel,59.88023952,686c2ebf0248f13bef9af11f,686c3168b653625bb7d7d39c,,,,,,,,,,,,,,,,,,,,,,,,,,,,,747.1746,2,audio/Narrative5Situation6.wav,750.1901,,750.1901,755.8578,"[[50.2,1333],[50,1417],[50,1499],[50,1583],[50,1667],[53.6,1750],[69.6,1833],[73.6,1917],[74,2000],[74,2083],[74,2166],[74,2250],[74,2333],[74,2416],[74,2500],[74,2583],[74,2667],[74,2749],[74,2833],[74,2917],[74,3000],[74,3084],[74,3167],[74,3250],[74,3334],[74,3417],[74,3500],[74,3584],[74,3667],[74,3750],[74,3834],[74,3917],[74,3999],[74,4083],[74,4167],[74,4250],[74,4333],[74,4417],[74,4500],[74,4583],[74,4667],[74,4750],[74,4833],[74,4917],[74,5000],[74,5084],[74,5167],[74,5250],[74,5332],[74,5417],[74,5500],[74,5583],[74,5667]]",755.858,758.9744,79.26974826,2.4305,"[{""rating"":64.75314670138889,""responseTime"":1.4653000000120073},{""rating"":79.26974826388889,""responseTime"":2.430500000000052}]",space,2.5682,,758.9745,Definitely yes,100,758.9789,,,[],,0,6,6,6,1,audio/Narrative7Situation6.wav,audio/Narrative8Situation6.wav,audio/Narrative5Situation6.wav,audio/Narrative6Situation6.wav,3,2,3,2,,,,,,,,,,,,,,,,,,,,,,,,,,,,,,,,,,,,,,,
,,,,,66aa8a00cb81056a0cdb9216,2025-07-07_13h44.21.365,group3.4_multiperson,2023.2.2,MacIntel,59.88023952,686c2ebf0248f13bef9af11f,686c3168b653625bb7d7d39c,,,,,,,,,,,,,,,,,,,,,,,,,,,,,758.9792,2,audio/Narrative5Situation7.wav,762.9916,,762.9917,784.0419,"[[999,0],[999,82],[999,164],[999,248],[999,331],[999,415],[999,499],[999,582],[999,664],[999,748],[999,832],[999,915],[50.4,998],[50.6,1082],[50.6,1164],[50.6,1248],[50.6,1331],[50.6,1415],[50.6,1498],[50.6,1582],[50.6,1665],[50.6,1749],[50.6,1832],[50.6,1915],[50.6,1999],[50.6,2082],[51.8,2166],[52.5,2248],[53.3,2332],[53.9,2415],[54.1,2499],[54.2,2582],[54.2,2664],[54.2,2749],[54.3,2832],[55,2915],[55.8,2998],[56.4,3082],[57,3165],[57.9,3249],[58.3,3332],[58.3,3415],[58.3,3499],[58.3,3581],[58.3,3666],[58.3,3749],[58.3,3831],[58.3,3915],[58.3,3998],[58.3,4082],[58.1,4165],[58.1,4248],[58.1,4332],[58.1,4414],[58.1,4499],[58.1,4582],[58.1,4665],[58.1,4748],[58.1,4831],[58.1,4915],[58.1,4999],[58.1,5082],[58.1,5166],[58.1,5249],[58.1,5332],[58.1,5416],[58.1,5498],[58.1,5582],[58.1,5665],[58.1,5748],[58.1,5832],[58.1,5915],[58.1,5999],[58.1,6082],[58.1,6165],[58.1,6249],[58.1,6332],[58.1,6416],[58.1,6499],[58.1,6582],[58.1,6665],[58.1,6749],[58.1,6832],[58.1,6915],[58.1,6999],[58.1,7081],[58.1,7165],[58.1,7249],[58.1,7332],[58.1,7416],[58.1,7498],[58.1,7582],[58,7666],[58,7749],[58,7832],[58,7915],[58,7999],[58,8082],[58,8165],[58,8249],[58,8332],[58,8415],[58,8498],[56.9,8581],[55.7,8665],[55.4,8748],[55.3,8832],[55.3,8915],[55.3,8999],[55.3,9082],[55.3,9165],[55.3,9249],[55.3,9332],[55.3,9416],[55.3,9499],[55.3,9581],[55.3,9665],[55.3,9748],[55.3,9832],[55.3,9916],[55.3,9999],[55.3,10082],[55.3,10166],[55.3,10248],[55.3,10332],[55.3,10416],[55.3,10499],[55.3,10582],[55.3,10665],[55.3,10749],[55.3,10831],[55.3,10916],[55.3,10999],[55.3,11082],[55.3,11165],[55.3,11248],[55.3,11332],[55.8,11416],[56.1,11498],[56.1,11582],[56.1,11665],[56.1,11749],[56.2,11832],[56.6,11915],[57.3,11999],[57.8,12082],[58,12165],[58,12248],[58,12332],[58,12415],[58,12499],[58,12582],[58,12666],[58,12748],[58,12832],[58,12916],[58,12999],[58,13082],[58,13165],[58,13248],[58,13332],[58,13416],[58,13498],[58,13582],[58,13666],[58,13749],[58,13832],[58,13916],[58,13998],[58,14082],[58,14166],[58,14248],[58,14332],[58,14416],[58,14499],[58,14582],[58,14666],[58,14749],[58,14832],[58,14915],[58,14999],[58,15082],[58,15166],[58,15249],[58,15332],[58,15415],[58,15499],[58,15582],[58,15666],[58,15749],[58,15831],[58,15915],[58,15998],[58,16081],[58,16166],[58,16249],[58,16332],[58,16416],[58,16499],[58,16582],[58,16665],[58,16749],[58,16833],[58,16916],[58,16998],[58,17082],[58,17166],[58,17249],[58,17332],[57.1,17415],[53.7,17498],[52.3,17582],[51.1,17666],[50.4,17749],[50.2,17832],[50.2,17915],[50.2,17999],[50.2,18082],[50.2,18166],[50.2,18249],[50.2,18332],[50.2,18416],[50.2,18499],[50.2,18582],[50.2,18666],[50.2,18749],[50.2,18832],[50.2,18916],[50.2,18999],[50.2,19081],[50.2,19166],[50.2,19249],[50.2,19332],[50.2,19416],[50.2,19499],[50.2,19582],[50.2,19666],[50.2,19749],[50.2,19832],[50.2,19915],[50.2,19999],[50.2,20081],[50.2,20165],[50.2,20249],[50.2,20332],[50.2,20415],[50.2,20499],[50.2,20582],[50.2,20666],[50.2,20748],[50.2,20832],[50.2,20916],[50.2,20999]]",784.0423,788.0749,38.4890408,3.6135,"[{""rating"":50.21592881944444,""responseTime"":0.9785999999940032},{""rating"":38.489040798611114,""responseTime"":3.6135000000000446}]",space,3.4853,,788.0751,Not at all,0,788.079,,,[],,0,7,7,7,1,audio/Narrative7Situation7.wav,audio/Narrative8Situation7.wav,audio/Narrative5Situation7.wav,audio/Narrative6Situation7.wav,5,3,4,5,,,,,,,,,,,,,,,,,,,,,,,,,,,,,,,,,,,,,,,
,,,,,66aa8a00cb81056a0cdb9216,2025-07-07_13h44.21.365,group3.4_multiperson,2023.2.2,MacIntel,59.88023952,686c2ebf0248f13bef9af11f,686c3168b653625bb7d7d39c,,,,,,,,,,,,,,,,,,,,,,,,,,,,,788.0793,2,audio/Narrative5Situation8.wav,791.0914,,791.0915,799.9087,"[[999,0],[999,82],[999,166],[999,250],[999,332],[999,416],[999,498],[49.7,583],[49.5,666],[49.5,748],[49.5,833],[49.5,916],[49.5,1000],[49.5,1083],[49.5,1166],[49.5,1250],[49.5,1332],[49.5,1416],[49.5,1500],[49.5,1582],[49.5,1665],[49.5,1750],[49.5,1832],[49.5,1916],[49.5,2000],[49.5,2083],[49.5,2166],[49.5,2250],[49.5,2333],[49.5,2416],[49.5,2500],[49.5,2583],[49.5,2665],[49.5,2749],[49.5,2833],[49.5,2916],[49.5,3000],[49.5,3083],[49.5,3166],[49.5,3250],[49.5,3333],[49.5,3416],[49.5,3500],[49.5,3583],[49.5,3666],[49.5,3750],[49.5,3832],[49.5,3915],[49.5,4000],[49.5,4083],[49.5,4166],[49.5,4249],[49.5,4333],[49.5,4416],[49.5,4500],[49.5,4583],[49.5,4666],[49.5,4749],[49.5,4833],[49.5,4916],[49.5,4999],[49.5,5082],[49.5,5166],[49.5,5249],[49.5,5333],[49.5,5416],[49.5,5499],[49.5,5583],[49.5,5665],[49.5,5750],[49.5,5833],[49.5,5915],[49.5,6000],[49.5,6082],[49.5,6166],[49.5,6250],[49.5,6332],[49.5,6416],[49.5,6499],[49.5,6583],[49.5,6666],[49.5,6750],[49.5,6833],[49.5,6916],[49.5,6999],[49.5,7082],[49.5,7167],[49.5,7250],[49.5,7333],[49.5,7416],[49.5,7500],[49.5,7582],[49.5,7666],[49,7749],[48.4,7834],[47.9,7917],[47,7998],[46.3,8083],[45.7,8166],[44.5,8250],[41.3,8333],[37.2,8416],[26.3,8500],[16.4,8583],[14.1,8666],[14.1,8750]]",799.9089,803.6089,1.062282986,3.2534,"[{""rating"":1.0622829861111127,""responseTime"":3.2534000000059677}]",space,3.1515,,803.609,Partially,50,803.6132,,,[],,0,8,8,8,1,audio/Narrative7Situation8.wav,audio/Narrative8Situation8.wav,audio/Narrative5Situation8.wav,audio/Narrative6Situation8.wav,2,3,3,5,,,,,,,,,,,,,,,,,,,,,,,,,,,,,,,,,,,,,,,
,,,,,66aa8a00cb81056a0cdb9216,2025-07-07_13h44.21.365,group3.4_multiperson,2023.2.2,MacIntel,59.88023952,686c2ebf0248f13bef9af11f,686c3168b653625bb7d7d39c,,,,,,,,,,,,,,,,,,,,,,,,,,,,,803.6135,2,audio/Narrative5Situation9.wav,806.6255,,806.6255,846.1763,"[[50.3,249],[86.5,2583],[86.5,2666],[86.5,2749],[86.5,2833],[86.5,2915],[86.5,2999],[86.5,3083],[86.5,3165],[86.5,3248],[86.5,3333],[86.5,3416],[86.5,3499],[86.5,3582],[86.5,3666],[86.5,3749],[86.5,3833],[86.5,3916],[86.5,3999],[86.9,4083],[86.9,4166],[86.9,4250],[86.9,4332],[86.9,4416],[86.9,4499],[86.9,4583],[86.9,4666],[90.1,4749],[97.1,4832],[98.9,4916],[98.9,4999],[98.9,5083],[98.9,5166],[98.9,5250],[98.9,5333],[98.9,5416],[98.9,5499],[98.9,5582],[98.9,5666],[98.9,5749],[98.9,5833],[98.9,5916],[98.9,5998],[98.9,6083],[98.9,6166],[98.9,6249],[98.9,6332],[98.9,6415],[98.9,6499],[98.9,6583],[98.9,6666],[98.9,6749],[98.9,6833],[98.9,6915],[98.9,7000],[98.9,7083],[98.9,7166],[98.9,7249],[98.9,7332],[98.9,7416],[98.9,7500],[98.9,7582],[98.9,7666],[98.9,7748],[98.9,7833],[98.9,7916],[98.9,7998],[98.9,8083],[98.9,8166],[98.9,8250],[98.9,8332],[98.9,8416],[98.9,8500],[98.9,8583],[98.9,8666],[98.9,8750],[98.9,8833],[98.9,8916],[98.9,8999],[98.9,9083],[98.9,9166],[98.9,9250],[98.9,9333],[98.9,9416],[98.9,9499],[98.9,9583],[98.9,9666],[98.9,9750],[98.9,9833],[98.9,9916],[98.9,9999],[98.9,10083],[98.9,10166],[98.9,10248],[98.9,10333],[98.9,10416],[98.9,10500],[98.9,10583],[98.9,10666],[98.9,10750],[98.9,10833],[98.9,10916],[98.9,10999],[98.9,11082],[98.9,11165],[98.9,11250],[98.9,11333],[98.9,11416],[98.9,11499],[98.9,11583],[98.9,11666],[98.9,11749],[98.9,11833],[98.9,11915],[98.9,12000],[98.9,12083],[98.9,12166],[98.9,12250],[98.9,12333],[98.9,12416],[98.9,12500],[98.9,12582],[98.9,12666],[98.9,12750],[98.9,12833],[98.9,12915],[98.9,13000],[98.9,13083],[98.9,13166],[98.9,13250],[98.9,13333],[98.9,13416],[98.9,13500],[98.9,13583],[98.9,13665],[98.9,13749],[98.9,13833],[98.9,13916],[98.9,14000],[98.9,14083],[98.9,14166],[98.9,14248],[98.9,14333],[98.9,14416],[98.9,14500],[98.9,14582],[98.9,14666],[98.9,14750],[98.9,14833],[98.9,14916],[98.9,14999],[98.9,15082],[98.9,15166],[98.9,15249],[98.9,15332],[98.9,15416],[98.9,15500],[98.9,15583],[98.9,15666],[98.9,15749],[98.9,15833],[98.9,15915],[98.9,15999],[98.9,16083],[98.9,16166],[98.9,16250],[98.9,16332],[98.9,16416],[98.9,16500],[98.9,16583],[98.9,16666],[98.9,16750],[98.9,16833],[98.9,16915],[98.9,16999],[98.9,17083],[98.9,17165],[98.9,17250],[98.9,17332],[98.9,17416],[98.9,17500],[98.9,17583],[98.9,17666],[98.9,17749],[98.9,17832],[98.9,17915],[98.9,18000],[98.9,18083],[98.9,18166],[98.9,18250],[98.9,18332],[98.9,18416],[98.9,18500],[98.9,18583],[98.9,18666],[98.9,18750],[98.9,18833],[98.9,18917],[98.9,19000],[98.9,19083],[98.9,19166],[98.9,19249],[98.9,19332],[98.9,19416],[98.9,19500],[98.9,19583],[98.9,19666],[98.9,19750],[98.9,19833],[98.9,19915],[98.9,20000],[98.9,20083],[98.9,20166],[98.9,20250],[98.9,20333],[98.9,20416],[98.9,20499],[98.9,20583],[98.9,20666],[98.9,20750],[98.9,20833],[98.9,20916],[98.9,21000],[98.9,21083],[98.9,21167],[98.9,21249],[98.9,21332],[98.9,21416],[98.9,21500],[98.9,21583],[98.9,21666],[98.9,21749],[98.9,21833],[98.9,21917],[98.9,22000],[98.9,22083],[98.9,22167],[98.9,22250],[98.9,22332],[98.9,22416],[98.9,22500],[98.9,22583],[98.9,22666],[98.9,22749],[98.9,22833],[98.9,22915],[98.9,22999],[98.9,23083],[98.9,23166],[98.9,23250],[98.9,23332],[98.9,23416],[98.9,23499],[98.9,23583],[98.9,23667],[98.9,23750],[98.9,23833],[98.9,23917],[98.9,24000],[98.9,24083],[98.9,24167],[98.9,24250],[98.9,24333],[98.9,24416],[98.9,24500],[98.9,24583],[98.9,24667],[98.9,24750],[98.9,24832],[98.9,24917],[98.9,25000],[98.9,25083],[98.9,25165],[98.9,25250],[98.9,25332],[98.9,25416],[98.9,25500],[98.9,25583],[98.9,25667],[98.9,25750],[98.9,25833],[98.9,25916],[98.9,25999],[98.9,26083],[98.9,26166],[98.9,26250],[98.9,26332],[98.9,26416],[98.9,26500],[98.9,26583],[98.9,26667],[98.9,26750],[98.9,26834],[98.9,26917],[98.9,27000],[98.9,27083],[98.9,27166],[98.9,27249],[98.9,27333],[98.9,27417],[98.9,27500],[98.9,27582],[98.9,27667],[98.9,27749],[98.9,27833],[98.9,27917],[98.9,27999],[98.9,28083],[98.9,28166],[98.9,28250],[98.9,28333],[98.9,28417],[98.9,28499],[98.9,28583],[98.9,28667],[98.9,28749],[98.9,28833],[98.9,28916],[98.9,29000],[98.9,29082],[98.9,29167],[98.9,29250],[98.9,29332],[98.9,29417],[98.9,29500],[98.9,29583],[98.9,29667],[98.9,29750],[98.9,29833],[98.9,29916],[98.9,30000],[98.9,30083],[98.9,30167],[98.9,30250],[98.9,30333],[98.9,30417],[98.9,30500],[98.9,30582],[98.9,30666],[98.9,30749],[98.9,30833],[98.9,30916],[98.9,30999],[98.9,31083],[98.9,31167],[98.9,31250],[98.9,31332],[98.9,31416],[98.9,31500],[98.9,31583],[98.9,31666],[98.9,31749],[98.9,31833],[98.9,31916],[98.9,32000],[98.9,32084],[98.9,32166],[98.9,32250],[98.9,32333],[98.9,32417],[98.9,32500],[98.9,32583],[98.9,32667],[98.9,32750],[98.9,32834],[98.9,32917],[98.9,33000],[98.9,33082],[98.9,33167],[98.9,33250],[98.9,33334],[98.9,33417],[98.9,33500],[98.9,33583],[98.9,33667],[98.9,33749],[98.9,33833],[98.9,33916],[98.9,34000],[98.9,34083],[98.9,34167],[98.9,34250],[98.9,34334],[98.9,34417],[98.9,34500],[98.9,34583],[98.9,34667],[98.9,34750],[98.9,34834],[98.9,34917],[98.9,35000],[98.9,35083],[98.9,35167],[98.9,35250],[98.9,35333],[98.9,35417],[98.9,35500],[98.9,35583],[98.9,35667],[98.9,35750],[98.9,35834],[98.9,35917],[98.9,36000],[98.9,36084],[98.9,36167],[98.9,36250],[98.9,36333],[98.9,36417],[98.9,36499],[98.9,36583],[98.9,36666],[98.9,36750],[98.9,36834],[98.9,36917],[98.9,37000],[98.9,37082],[98.9,37167],[98.9,37250],[98.9,37333],[98.9,37417],[98.9,37500],[98.9,37584],[98.9,37667],[98.4,37750],[98.3,37833],[98.2,37916],[98.1,38000],[98.1,38083],[98.1,38166],[98.1,38250],[98.1,38333],[98,38416],[98,38499],[98,38584],[98,38667],[98,38749],[98,38833],[98,38917],[98,39000],[98,39084],[98,39167],[98,39250],[98,39334],[98,39417],[98,39500]]",846.1767,847.5933,98.85199653,1.0193,"[{""rating"":98.85199652777779,""responseTime"":1.019300000011981}]",space,0.8687,,847.5934,Partially,50,847.5961,,,[],,0,9,9,9,1,audio/Narrative7Situation9.wav,audio/Narrative8Situation9.wav,audio/Narrative5Situation9.wav,audio/Narrative6Situation9.wav,2,3,3,4,,,,,,,,,,,,,,,,,,,,,,,,,,,,,,,,,,,,,,,
,,,,,66aa8a00cb81056a0cdb9216,2025-07-07_13h44.21.365,group3.4_multiperson,2023.2.2,MacIntel,59.88023952,686c2ebf0248f13bef9af11f,686c3168b653625bb7d7d39c,,,,,,,,,,,,,,,,,,,,,,,,,,,,,847.5964,2,audio/Narrative6Situation1.wav,849.6099,,849.61,876.1942,"[[999,0],[999,83],[999,166],[999,248],[999,333],[999,416],[999,499],[999,583],[999,666],[999,749],[999,832],[49.4,915],[49.4,999],[49.4,1082],[49.5,1165],[49.5,1248],[49.5,1332],[49.5,1416],[49.5,1499],[49.5,1583],[49.5,1666],[49.5,1749],[49.5,1833],[49.5,1916],[49.5,1999],[49.5,2082],[49.5,2165],[49.5,2249],[49.5,2332],[49.5,2416],[49.5,2499],[49.5,2583],[49.5,2666],[49.5,2749],[49.5,2833],[49.5,2916],[49.5,2998],[49.5,3082],[49.5,3166],[49.5,3248],[49.5,3333],[49.5,3416],[49.5,3500],[49.5,3583],[49.5,3666],[49.5,3749],[49.5,3832],[49.5,3915],[49.5,3999],[49.5,4083],[49.5,4166],[49.5,4248],[49.5,4333],[49.5,4415],[49.5,4499],[49.5,4583],[49.5,4665],[49.5,4750],[49.5,4833],[49.5,4916],[49.5,4999],[49.5,5083],[49.5,5166],[49.5,5249],[49.5,5332],[50.2,5416],[65,5499],[72,5582],[76.5,5665],[81.4,5749],[82.6,5833],[85.2,5916],[92.5,5999],[92.5,6083],[92.5,6166],[92.5,6249],[94.4,6333],[96.9,6416],[97.1,6499],[97.1,6583],[97.1,6666],[97.1,6749],[97.1,6833],[97.1,6916],[97.1,6998],[97.1,7083],[97.1,7166],[97.1,7249],[97.1,7333],[97.1,7416],[97.1,7500],[97.1,7582],[97.1,7666],[97.1,7750],[97.1,7832],[97.1,7916],[97.1,8000],[97.1,8083],[97.1,8166],[97.1,8248],[97.1,8332],[97.1,8416],[97.1,8499],[97.1,8583],[97.1,8665],[97.1,8749],[97.1,8833],[97.1,8916],[97.1,8999],[97.1,9083],[97.1,9166],[97.1,9250],[97.1,9333],[97.1,9416],[97.1,9500],[97.1,9583],[97.1,9666],[97.1,9749],[97.1,9832],[97.1,9916],[97.1,10000],[97.1,10083],[97.1,10165],[97.1,10250],[97.1,10333],[97.1,10416],[97.1,10500],[97.1,10583],[97.1,10666],[97.1,10749],[97.1,10832],[97.1,10915],[97.1,11000],[97.1,11082],[97.1,11165],[97.1,11250],[97.1,11333],[97.1,11416],[97.1,11499],[97.1,11582],[97.1,11666],[97.1,11750],[97.1,11833],[78.9,11916],[49.9,11999],[40.3,12082],[40.1,12166],[40.1,12250],[40.1,12333],[39.1,12416],[27.1,12499],[21.8,12583],[19.2,12665],[17.5,12749],[17.4,12833],[17.4,12916],[17.4,13000],[17.4,13083],[17.4,13166],[17.4,13250],[17.4,13332],[17.4,13416],[17.4,13499],[17.4,13583],[17.4,13666],[17.4,13750],[17.4,13833],[17.4,13916],[17.4,13999],[17.4,14082],[17.4,14166],[17.4,14250],[17.4,14332],[17.4,14416],[17.4,14500],[17.4,14583],[17.4,14666],[17.4,14749],[17.4,14833],[17.4,14915],[17.4,14999],[17.4,15083],[17.4,15166],[17.4,15250],[17.4,15333],[17.4,15416],[17.4,15500],[17.4,15582],[17.4,15666],[17.4,15749],[17.4,15833],[17.4,15917],[17.4,16000],[17.4,16083],[17.4,16165],[17.4,16250],[17.4,16333],[17.4,16416],[17.4,16500],[17.4,16583],[17.4,16666],[17.4,16750],[17.4,16833],[17.4,16915],[17.4,16999],[17.4,17083],[17.4,17166],[17.4,17249],[17.4,17333],[17.4,17415],[17.4,17500],[17.4,17583],[17.4,17665],[17.4,17750],[17.4,17833],[17.4,17916],[17.4,18000],[17.4,18083],[17.4,18166],[17.4,18249],[17.4,18332],[17.4,18416],[17.4,18499],[17.4,18583],[17.4,18667],[17.4,18750],[17.4,18833],[17.4,18917],[17.4,19000],[17.4,19082],[17.4,19166],[17.4,19250],[17.4,19333],[17.4,19415],[17.4,19499],[17.4,19582],[17.4,19666],[17.4,19750],[17.4,19833],[17.4,19916],[17.4,20000],[17.3,20083],[15.3,20165],[13.2,20250],[11.6,20334],[10.8,20416],[10.4,20500],[10.3,20583],[10.3,20667],[10.3,20750],[18.8,20833],[66.9,21333],[74.5,21416],[80.6,21500],[83.3,21583],[83.5,21666],[83.5,21750],[83.5,21833],[83.5,21916],[83.5,22000],[83.5,22083],[83.5,22167],[83.5,22250],[83.5,22333],[83.5,22416],[83.5,22500],[83.5,22583],[83.5,22666],[83.5,22750],[83.5,22833],[83.5,22916],[83.5,22999],[83.5,23083],[83.5,23166],[83.5,23250],[83.5,23333],[83.5,23417],[83.5,23500],[83.5,23583],[83.5,23667],[83.5,23750],[83.5,23833],[83.5,23917],[83.5,24000],[83.5,24083],[83.5,24166],[83.5,24250],[83.5,24332],[83.5,24417],[83.5,24499],[83.5,24583],[83.5,24666],[83.5,24749],[83.5,24833],[83.5,24917],[83.5,25000],[83.5,25083],[83.5,25167],[83.5,25250],[83.5,25333],[83.5,25416],[83.5,25499],[83.5,25583],[83.5,25666],[83.5,25750],[83.5,25833],[83.5,25917],[83.5,25999],[83.5,26083],[83.5,26167],[83.5,26250],[83.5,26333],[83.5,26416],[83.5,26499],[83.5,26583]]",876.1944,877.9771,49.82150608,1.2125,"[{""rating"":49.821506076388886,""responseTime"":1.212500000000091}]",space,1.2336,,877.9772,Partially,50,877.9797,,,[],,0,10,10,10,1,audio/Narrative8Situation1.wav,audio/Narrative7Situation1.wav,audio/Narrative6Situation1.wav,audio/Narrative5Situation1.wav,5,2,2,5,,,,,,,,,,,,,,,,,,,,,,,,,,,,,,,,,,,,,,,
,,,,,66aa8a00cb81056a0cdb9216,2025-07-07_13h44.21.365,group3.4_multiperson,2023.2.2,MacIntel,59.88023952,686c2ebf0248f13bef9af11f,686c3168b653625bb7d7d39c,,,,,,,,,,,,,,,,,,,,,,,,,,,,,877.9799,2,audio/Narrative6Situation2.wav,880.9941,,880.9942,909.5116,"[[57.6,833],[81.5,916],[88.7,1000],[89,1082],[89,1166],[89,1249],[89,1333],[89,1416],[89,1499],[89,1582],[89,1666],[89,1749],[89,1833],[89,1916],[89,1999],[89,2083],[89,2166],[89,2249],[89,2332],[89,2416],[89,2498],[89,2583],[89,2666],[89,2749],[89,2833],[89,2916],[89,2999],[89,3083],[89,3165],[89,3249],[89,3332],[89,3416],[89,3499],[89,3583],[89,3665],[89,3748],[89,3832],[89.8,3916],[90,3999],[90,4083],[90,4166],[90,4248],[90,4333],[90,4415],[90,4498],[90,4583],[90,4666],[90,4749],[99,4832],[100,4916],[100,4999],[100,5083],[100,5166],[100,5249],[100,5332],[100,5416],[100,5499],[100,5582],[100,5666],[100,5750],[100,5833],[100,5916],[100,5999],[100,6083],[100,6166],[100,6249],[100,6332],[100,6416],[100,6499],[100,6583],[100,6666],[100,6749],[100,6833],[100,6915],[100,6999],[100,7083],[100,7166],[100,7249],[100,7332],[100,7416],[100,7499],[100,7583],[100,7666],[100,7749],[100,7832],[100,7916],[100,7999],[100,8083],[100,8166],[100,8249],[100,8332],[100,8415],[100,8499],[100,8582],[100,8666],[100,8749],[100,8832],[100,8916],[100,8999],[100,9082],[99.7,9165],[99.1,9250],[98.7,9332],[98.5,9416],[98.3,9499],[98.2,9582],[98.1,9666],[98.1,9750],[98.1,9833],[98.1,9916],[98.1,10000],[98.1,10083],[98.1,10165],[98.1,10250],[98.1,10333],[98.1,10415],[98.1,10499],[98.1,10583],[98.1,10665],[98.1,10749],[98.1,10833],[98.1,10916],[98.1,10999],[98.1,11083],[98.1,11166],[98.1,11249],[98.1,11332],[98.1,11416],[98.1,11499],[98.1,11583],[98.1,11666],[98.1,11750],[98.1,11833],[98.1,11916],[98.1,11999],[98.1,12083],[98.1,12166],[98.1,12250],[98.1,12333],[98.1,12416],[98.1,12500],[98.1,12583],[98.1,12666],[98.1,12750],[98.1,12832],[98.1,12916],[98.1,12998],[98.1,13082],[98.1,13165],[98.1,13249],[98.1,13332],[98.3,13416],[99.4,13499],[100,13582],[100,13666],[100,13749],[100,13832],[100,13916],[100,14000],[100,14082],[100,14166],[100,14249],[100,14332],[100,14416],[100,14499],[100,14582],[100,14666],[100,14749],[100,14832],[100,14916],[100,14999],[100,15083],[100,15166],[100,15249],[100,15333],[100,15416],[100,15499],[100,15581],[100,15665],[100,15749],[100,15832],[100,15916],[100,15999],[100,16082],[100,16166],[100,16249],[100,16333],[100,16415],[100,16500],[100,16582],[100,16665],[100,16750],[100,16833],[100,16916],[100,17000],[100,17082],[100,17166],[100,17250],[100,17333],[100,17416],[100,17500],[100,17583],[100,17665],[100,17749],[100,17833],[100,17916],[100,18000],[100,18083],[100,18166],[100,18250],[100,18333],[100,18416],[100,18500],[100,18582],[100,18666],[100,18749],[100,18833],[100,18916],[100,19000],[100,19083],[100,19166],[100,19250],[100,19333],[100,19416],[100,19500],[100,19583],[100,19666],[100,19750],[100,19833],[100,19916],[100,19999],[100,20083],[100,20166],[100,20250],[100,20333],[100,20416],[100,20500],[100,20583],[100,20666],[100,20750],[100,20832],[100,20916],[100,21000],[100,21083],[100,21166],[100,21250],[100,21333],[100,21416],[100,21500],[100,21583],[100,21665],[100,21750],[100,21833],[100,21917],[100,22000],[100,22082],[100,22166],[100,22250],[100,22333],[100,22416],[100,22500],[100,22583],[100,22666],[100,22750],[100,22832],[100,22917],[100,22999],[100,23083],[100,23166],[100,23250],[100,23333],[100,23415],[100,23500],[100,23583],[100,23666],[100,23749],[100,23833],[100,23916],[100,23999],[100,24083],[100,24166],[100,24250],[100,24333],[100,24416],[100,24500],[100,24583],[100,24667],[100,24750],[100,24833],[100,24916],[100,25000],[100,25083],[100,25166],[100,25250],[100,25332],[100,25417],[100,25500],[100,25582],[100,25667],[100,25750],[100,25833],[100,25917],[100,26000],[100,26083],[100,26166],[100,26250],[100,26333],[100,26416],[100,26500],[100,26583],[100,26666],[100,26750],[100,26832],[100,26916],[100,27000],[100,27083],[100,27166],[100,27249],[100,27333],[100,27417],[100,27500],[100,27583],[100,27666],[100,27750],[100,27833],[100,27916],[100,28000],[100,28083],[100,28167],[100,28250],[100,28333],[100,28416],[100,28499]]",909.5119,913.7605,98.89268663,1.395,"[{""rating"":98.89268663194444,""responseTime"":1.3950000000000955}]",space,3.696,,913.7607,Definitely yes,100,913.7654,,,[],,0,11,11,11,1,audio/Narrative8Situation2.wav,audio/Narrative7Situation2.wav,audio/Narrative6Situation2.wav,audio/Narrative5Situation2.wav,3,3,3,3,,,,,,,,,,,,,,,,,,,,,,,,,,,,,,,,,,,,,,,
,,,,,66aa8a00cb81056a0cdb9216,2025-07-07_13h44.21.365,group3.4_multiperson,2023.2.2,MacIntel,59.88023952,686c2ebf0248f13bef9af11f,686c3168b653625bb7d7d39c,,,,,,,,,,,,,,,,,,,,,,,,,,,,,913.7657,2,audio/Narrative6Situation3.wav,918.7772,,918.7773,931.3791,"[[999,0],[999,100],[999,184],[999,267],[999,350],[999,433],[49.2,517],[49.2,600],[49.2,683],[49.4,767],[49.4,850],[49.4,933],[49.4,1017],[49.4,1099],[49.4,1183],[49.4,1266],[49.4,1349],[49.4,1433],[49.4,1517],[49.4,1600],[49.4,1683],[49.4,1767],[49.4,1850],[49.4,1934],[49.4,2017],[49.4,2100],[49.4,2184],[49.4,2267],[49.4,2350],[49.4,2434],[49.4,2516],[49.4,2600],[49.4,2684],[49.4,2767],[49.4,2850],[49.6,2934],[50.1,3017],[50.1,3099],[50.3,3183],[51.5,3267],[53.8,3349],[55,3433],[57.2,3516],[59.4,3601],[60.4,3683],[60.4,3766],[60.4,3850],[60.4,3933],[60.4,4017],[60.4,4100],[60.4,4184],[60.4,4267],[60.4,4350],[60.4,4433],[60.4,4517],[60.4,4600],[60.3,4684],[49.4,4766],[43.1,4850],[43,4934],[43,5017],[43,5100],[42.3,5183],[41.8,5267],[41.8,5350],[41.8,5434],[41.8,5517],[41.8,5600],[41.8,5684],[41.8,5767],[41.8,5850],[41.8,5934],[41.8,6017],[41.8,6100],[41.8,6184],[41.8,6267],[41.8,6350],[41.8,6433],[41.8,6516],[41.9,6600],[59,6684],[73.1,6767],[75.6,6850],[75.6,6933],[75.6,7017],[75.6,7100],[75.6,7183],[75.6,7266],[75.6,7350],[75.6,7432],[75.6,7517],[75.6,7600],[75.6,7683],[75.6,7767],[75.6,7849],[75.6,7933],[75.6,8017],[75.6,8100],[75.6,8182],[75.6,8267],[75.6,8350],[76.5,8434],[77.9,8517],[78.7,8600],[79,8684],[79.1,8766],[79.2,8851],[79.2,8934],[79.2,9016],[79.2,9101],[79.2,9184],[79.2,9267],[79.2,9351],[79.2,9433],[79.2,9517],[79.2,9601],[79.2,9684],[79.2,9766],[79.2,9850],[79.2,9934],[79.2,10016],[79.2,10101],[79.2,10184],[79.2,10267],[79.2,10350],[79.2,10433],[79.2,10517],[79.2,10600],[79.2,10683],[79.2,10767],[79.2,10851],[79.2,10934],[79.2,11017],[79.2,11101],[79.2,11184],[79.2,11267],[79.2,11351],[78.6,11434],[77.8,11518],[76.3,11600],[74.1,11684],[72.9,11767],[72.9,11851],[72.9,11933],[72.9,12017],[72.9,12101],[72.9,12183],[72.9,12267],[72.9,12351],[72.9,12434],[72.9,12517],[72.9,12601]]",931.3794,933.6953,50.07052951,1.6448,"[{""rating"":50.070529513888886,""responseTime"":1.6448000000119691}]",space,1.7681,,933.6955,Not at all,0,933.6993,,,[],,0,12,12,12,1,audio/Narrative8Situation3.wav,audio/Narrative7Situation3.wav,audio/Narrative6Situation3.wav,audio/Narrative5Situation3.wav,4,8,5,3,,,,,,,,,,,,,,,,,,,,,,,,,,,,,,,,,,,,,,,
,,,,,66aa8a00cb81056a0cdb9216,2025-07-07_13h44.21.365,group3.4_multiperson,2023.2.2,MacIntel,59.88023952,686c2ebf0248f13bef9af11f,686c3168b653625bb7d7d39c,,,,,,,,,,,,,,,,,,,,,,,,,,,,,933.6998,2,audio/Narrative6Situation4.wav,935.7119,,935.712,948.3297,"[[50.6,1083],[50.6,1166],[50.6,1250],[50.6,1333],[50.6,1416],[50.6,1500],[50.6,1583],[50.6,1666],[50.6,1749],[50.6,1833],[50.6,1916],[50.6,1999],[50.6,2083],[50.6,2166],[50.6,2249],[50.6,2333],[50.6,2416],[50.6,2500],[50.6,2582],[50.6,2666],[50.6,2749],[50.6,2832],[50.6,2916],[50.6,3000],[50.6,3083],[50.6,3166],[50.6,3248],[50.6,3332],[50.6,3416],[50.6,3500],[50.9,3583],[54.5,3665],[58,3749],[60.9,3833],[65.7,3916],[69.2,4000],[69.9,4083],[69.9,4166],[69.9,4248],[69.9,4332],[72.7,4416],[77.4,4499],[79,4583],[79.3,4665],[79.3,4749],[79.3,4833],[79.3,4916],[79.3,4999],[79.3,5081],[79.3,5166],[79.3,5249],[79.3,5332],[79.3,5416],[79.3,5498],[79.3,5582],[79.3,5666],[79.3,5748],[79.3,5833],[79.3,5916],[79.3,6000],[79.3,6083],[79.3,6166],[79.3,6249],[79.3,6333],[79.3,6415],[79.3,6500],[79.3,6583],[79.3,6666],[79.3,6750],[79.3,6833],[79.3,6916],[79.3,6999],[79.8,7083],[81.9,7166],[83,7249],[84.7,7333],[86.5,7416],[88.5,7498],[90.5,7583],[91.3,7666],[91.8,7749],[92.2,7833],[92.2,7916],[92.2,7999],[92.2,8082],[92.2,8166],[92.2,8249],[92.2,8332],[92.2,8416],[92.2,8500],[92.2,8583],[92.2,8666],[92.2,8749],[92.2,8831],[92.2,8916],[92.2,8999],[92.2,9082],[92.2,9166],[92.2,9249],[92.2,9333],[92.2,9415],[92.2,9498],[92.2,9583],[92.2,9666],[92.2,9749],[92.2,9832],[92.2,9916],[92.2,9999],[92.2,10083],[92.2,10166],[92.2,10249],[92.2,10332],[92.2,10416],[92.2,10499],[92.2,10583],[92.2,10665],[92.2,10750],[92.2,10833],[92.2,10916],[92.2,10999],[92.2,11083],[92.2,11166],[92.2,11249],[92.2,11333],[92.2,11416],[92.2,11500],[92.2,11583],[92.2,11666],[92.2,11750],[92.2,11833],[92.2,11916],[92.2,11999],[92.2,12083],[92.2,12166],[92.2,12249],[92.2,12333],[92.2,12416],[92.2,12499],[92.2,12582]]",948.3302,949.6952,91.99869792,0.9104,"[{""rating"":91.99869791666666,""responseTime"":0.9104000000060068}]",space,0.8151,,949.6955,Definitely yes,100,949.6986,,,[],,0,13,13,13,1,audio/Narrative8Situation4.wav,audio/Narrative7Situation4.wav,audio/Narrative6Situation4.wav,audio/Narrative5Situation4.wav,3,3,2,1,,,,,,,,,,,,,,,,,,,,,,,,,,,,,,,,,,,,,,,
