consent.started,consent.stopped,consentResponse.keys,consentResponse.rt,consentResponse.duration,participantID,date,expName,psychopyVersion,OS,frameRate,STUDY_ID,SESSION_ID,opening1.started,opening1.stopped,keyEndingOpening1.keys,keyEndingOpening1.rt,keyEndingOpening1.duration,volumeAdjust.started,volumeAdjust.stopped,endingAdjust.keys,endingAdjust.rt,endingAdjust.duration,opening2.started,opening2.stopped,keyEndingOpening.keys,keyEndingOpening.rt,keyEndingOpening.duration,mouse.x,mouse.y,mouse.leftButton,mouse.midButton,mouse.rightButton,mouse.time,instructionLoop.thisRepN,instructionLoop.thisTrialN,instructionLoop.thisN,instructionLoop.thisIndex,instructionLoop.ran,readyForAudio.started,readyForAudio.stopped,fixation.started,run,audio_played,fixation.stopped,endPractice.keys,audioPre.started,audioPre.stopped,continuousResponses_audio,intRating.started,intRating.stopped,intQuestionSlider.response,intQuestionSlider.rt,intQuestionSlider.history,confirmResponse.keys,confirmResponse.rt,confirmResponse.duration,catchQuestion.started,catch_label,catch_value,catchQuestion.stopped,catchQuestionSlider.response,catchQuestionSlider.rt,catchQuestionSlider.history,confirmResponse_2.keys,audioRunLoop.thisRepN,audioRunLoop.thisTrialN,audioRunLoop.thisN,audioRunLoop.thisIndex,audioRunLoop.ran,conditions1_1,conditions2_1,conditions1_2,conditions2_2,dur1_1,dur2_1,dur1_2,dur2_2,endPractice.rt,endPractice.duration,confirmResponse_2.rt,confirmResponse_2.duration,runIntervalBreak.started,runIntervalBreak.stopped,endingBreakKey.keys,endingBreakKey.rt,endingBreakKey.duration,connection.started,connection.stopped,connectionEnding.keys,connectionEnding.rt,connectionEnding.duration,readyForText.started,readyForText.stopped,textPre.started,run_dup,textPre.stopped,continuousResponses_text,textRunLoop.thisRepN,textRunLoop.thisTrialN,textRunLoop.thisN,textRunLoop.thisIndex,textRunLoop.ran,text1_1,text1_2,text2_1,text2_2,runBreakText.started,runBreakText.stopped,endingBreakKey_2.keys,ending.started,ending.stopped,endingEnding.keys,endingEnding.rt,endingEnding.duration
0.0005,7.0652,y,6.7443,,66abc79f0812c1f89a25adfb,2025-07-07_21h11.48.111,group3.4_multiperson,2023.2.2,MacIntel,59.88023952,686c2ebf0248f13bef9af11f,686c7c00fb44677680e080e4,,,,,,,,,,,,,,,,,,,,,,,,,,,,,,,,,,,,,,,,,,,,,,,,,,,,,,,,,,,,,,,,,,,,,,,,,,,,,,,,,,,,,,,,,,,,,,,,,,,,,,
,,,,,66abc79f0812c1f89a25adfb,2025-07-07_21h11.48.111,group3.4_multiperson,2023.2.2,MacIntel,59.88023952,686c2ebf0248f13bef9af11f,686c7c00fb44677680e080e4,7.0654,13.3885,space,6.2937,,,,,,,,,,,,,,,,,,,,,,,,,,,,,,,,,,,,,,,,,,,,,,,,,,,,,,,,,,,,,,,,,,,,,,,,,,,,,,,,,,,,,,,,,,,,,,,,,,
,,,,,66abc79f0812c1f89a25adfb,2025-07-07_21h11.48.111,group3.4_multiperson,2023.2.2,MacIntel,59.88023952,686c2ebf0248f13bef9af11f,686c7c00fb44677680e080e4,,,,,,13.3887,37.8341,space,24.1272,,,,,,,,,,,,,,,,,,,,,,,,,,,,,,,,,,,,,,,,,,,,,,,,,,,,,,,,,,,,,,,,,,,,,,,,,,,,,,,,,,,,,,,,,,,,,
,,,,,66abc79f0812c1f89a25adfb,2025-07-07_21h11.48.111,group3.4_multiperson,2023.2.2,MacIntel,59.88023952,686c2ebf0248f13bef9af11f,686c7c00fb44677680e080e4,,,,,,,,,,,37.8483,57.8895,space,20.0224,,[],[],[],[],[],[],0,0,0,0,1,,,,,,,,,,,,,,,,,,,,,,,,,,,,,,,,,,,,,,,,,,,,,,,,,,,,,,,,,,,,,,,,,,,,,,,,,,,,
,,,,,66abc79f0812c1f89a25adfb,2025-07-07_21h11.48.111,group3.4_multiperson,2023.2.2,MacIntel,59.88023952,686c2ebf0248f13bef9af11f,686c7c00fb44677680e080e4,,,,,,,,,,,57.8996,93.5956,space,35.5793,,[],[],[],[],[],[],1,0,1,0,1,,,,,,,,,,,,,,,,,,,,,,,,,,,,,,,,,,,,,,,,,,,,,,,,,,,,,,,,,,,,,,,,,,,,,,,,,,,,
,,,,,66abc79f0812c1f89a25adfb,2025-07-07_21h11.48.111,group3.4_multiperson,2023.2.2,MacIntel,59.88023952,686c2ebf0248f13bef9af11f,686c7c00fb44677680e080e4,,,,,,,,,,,93.609,110.4811,space,16.8234,,[],[],[],[],[],[],2,0,2,0,1,,,,,,,,,,,,,,,,,,,,,,,,,,,,,,,,,,,,,,,,,,,,,,,,,,,,,,,,,,,,,,,,,,,,,,,,,,,,
,,,,,66abc79f0812c1f89a25adfb,2025-07-07_21h11.48.111,group3.4_multiperson,2023.2.2,MacIntel,59.88023952,686c2ebf0248f13bef9af11f,686c7c00fb44677680e080e4,,,,,,,,,,,110.4908,147.5571,space,37.0367,,"[-0.09855143229166667,-0.037272135416666664,-0.01036376953125,0.0314697265625]","[0.7616536458333333,0.5013527199074074,0.40536747685185187,0.6673611111111111]","[1,1,1,1]","[0,0,0,0]","[0,0,0,0]","[3.6064000000357623,4.005400000035763,4.322900000035759,4.839699999988085]",3,0,3,0,1,,,,,,,,,,,,,,,,,,,,,,,,,,,,,,,,,,,,,,,,,,,,,,,,,,,,,,,,,,,,,,,,,,,,,,,,,,,,
,,,,,66abc79f0812c1f89a25adfb,2025-07-07_21h11.48.111,group3.4_multiperson,2023.2.2,MacIntel,59.88023952,686c2ebf0248f13bef9af11f,686c7c00fb44677680e080e4,,,,,,,,,,,147.5671,166.7948,space,19.204,,[],[],[],[],[],[],4,0,4,0,1,,,,,,,,,,,,,,,,,,,,,,,,,,,,,,,,,,,,,,,,,,,,,,,,,,,,,,,,,,,,,,,,,,,,,,,,,,,,
,,,,,66abc79f0812c1f89a25adfb,2025-07-07_21h11.48.111,group3.4_multiperson,2023.2.2,MacIntel,59.88023952,686c2ebf0248f13bef9af11f,686c7c00fb44677680e080e4,,,,,,,,,,,166.8048,194.5429,space,27.7146,,[],[],[],[],[],[],5,0,5,0,1,,,,,,,,,,,,,,,,,,,,,,,,,,,,,,,,,,,,,,,,,,,,,,,,,,,,,,,,,,,,,,,,,,,,,,,,,,,,
,,,,,66abc79f0812c1f89a25adfb,2025-07-07_21h11.48.111,group3.4_multiperson,2023.2.2,MacIntel,59.88023952,686c2ebf0248f13bef9af11f,686c7c00fb44677680e080e4,,,,,,,,,,,,,,,,,,,,,,,,,,,194.5575,197.1297,197.1514,1,audio/Narrative13Situation2.wav,199.1654,,199.1656,228.9152,"[[999,1],[999,98],[999,183],[999,266],[999,349],[999,433],[999,516],[999,599],[999,683],[999,767],[999,850],[999,933],[999,1017],[999,1100],[999,1184],[999,1267],[999,1350],[999,1434],[999,1518],[999,1600],[999,1684],[999,1768],[999,1851],[999,1935],[999,2018],[999,2101],[999,2185],[999,2268],[999,2352],[999,2435],[999,2519],[999,2602],[999,2685],[999,2769],[999,2852],[999,2935],[999,3019],[999,3102],[999,3186],[999,3269],[999,3352],[999,3436],[999,3520],[999,3602],[999,3686],[999,3770],[999,3853],[999,3937],[999,4020],[999,4103],[999,4187],[999,4270],[999,4354],[999,4437],[999,4520],[999,4604],[999,4691],[999,4772],[999,4854],[999,4938],[999,5021],[999,5105],[999,5188],[999,5272],[999,5355],[999,5438],[999,5522],[43.3,5605],[44.2,5688],[46.8,5772],[47.5,5855],[48.1,5938],[48.9,6022],[49.3,6105],[49.4,6189],[49.4,6273],[49.4,6356],[49.4,6440],[48.9,6522],[48.7,6606],[48.7,6690],[48.7,6773],[48.7,6856],[48.7,6940],[48.7,7023],[48.9,7106],[49.5,7190],[49.6,7273],[49.7,7358],[49.7,7441],[49.7,7524],[49.7,7608],[49.7,7691],[49.7,7775],[49.7,7858],[49.7,7941],[49.7,8025],[49.7,8107],[49.7,8192],[49.7,8275],[49.7,8358],[49.7,8442],[49.7,8525],[49.7,8609],[49.7,8691],[49.7,8775],[49.7,8859],[49.7,8943],[49.7,9026],[49.7,9109],[49.7,9193],[49.7,9276],[49.7,9359],[49.7,9442],[49.7,9526],[49.7,9610],[49.7,9692],[49.7,9777],[49.7,9860],[49.7,9944],[49.7,10026],[49.7,10110],[49.7,10193],[49.7,10277],[49.7,10361],[49.8,10443],[49.9,10528],[49.9,10611],[50,10694],[50,10778],[50,10861],[50,10945],[50,11027],[50,11112],[50,11195],[50,11278],[50,11362],[50,11445],[50,11529],[50,11612],[50,11695],[50,11779],[50,11863],[50,11946],[50,12029],[50,12113],[50,12196],[50,12280],[50,12362],[50,12446],[50,12530],[50,12613],[50,12696],[50,12779],[50,12864],[50,12946],[50,13030],[50,13114],[50,13197],[50,13281],[50,13364],[50,13448],[50,13531],[50,13614],[50,13697],[50,13781],[50,13865],[50,13947],[50,14031],[50,14115],[50,14198],[50,14282],[50,14365],[50,14449],[50,14532],[50,14614],[50,14699],[50,14783],[50,14866],[50,14949],[50,15032],[50,15116],[50,15200],[50,15282],[50,15366],[50,15450],[50,15533],[50,15617],[50,15700],[50,15784],[50,15867],[50,15950],[50,16034],[50,16117],[50,16201],[49.2,16283],[47.1,16367],[44.1,16450],[41.2,16534],[35.8,16617],[31.8,16701],[29.3,16784],[26.5,16867],[25.1,16951],[24.1,17034],[22.8,17118],[21.5,17201],[20.8,17285],[20.5,17369],[20.3,17451],[20.1,17535],[19.9,17619],[19.9,17702],[20.5,17785],[21.2,17869],[21.5,17952],[21.5,18036],[21.5,18119],[21.5,18202],[21.5,18286],[21.5,18369],[21.4,18453],[21.3,18537],[20.9,18620],[20.2,18703],[19.6,18786],[17.9,18870],[16.1,18953],[15.6,19037],[15.4,19121],[15.3,19204],[15.2,19288],[14.8,19371],[13.8,19454],[12.8,19538],[11.8,19621],[11.2,19704],[10.9,19787],[10.7,19872],[10.6,19954],[10.6,20038],[10.6,20121],[10.6,20205],[10.6,20289],[10.6,20372],[10.6,20454],[10.6,20539],[10.6,20621],[9.3,20705],[7,20788],[6,20873],[5.3,20955],[3.9,21039],[3.9,21122],[3.8,21206],[3.7,21290],[3.6,21373],[3.5,21457],[3.5,21540],[3.5,21623],[3.5,21706],[3.5,21790],[3.5,21874],[3.5,21957],[3.5,22041],[3.5,22123],[3.5,22208],[3.5,22291],[3.5,22373],[4.5,22457],[7,22540],[10.2,22624],[14.1,22707],[18.5,22791],[22.1,22874],[26.1,22958],[32.5,23041],[35.1,23125],[38.5,23208],[42.8,23291],[47.7,23375],[47.9,23459],[47.9,23542],[47.9,23625],[47.9,23709],[48.2,23792],[49.2,23876],[51.6,23959],[55,24042],[61.4,24125],[70.4,24209],[77.4,24292],[83,24376],[86.9,24460],[88.9,24543],[94.5,24626],[98.9,24710],[99.6,24794],[100,24877],[100,24961],[100,25044],[100,25128],[100,25211],[99.9,25294],[99.5,25377],[99.3,25461],[99.1,25544],[98.7,25627],[98.7,25711],[98.7,25795],[98.5,25878],[98.5,25962],[98.5,26045],[98.5,26128],[98.5,26212],[98.5,26294],[98.5,26379],[98.5,26461],[98.5,26545],[98.5,26629],[98.5,26712],[98.5,26796],[98.5,26879],[98.5,26962],[98.5,27046],[98.5,27130],[98.5,27212],[98.5,27296],[98.5,27380],[98.5,27462],[98.5,27547],[98.5,27629],[98.5,27714],[98.5,27797],[98.5,27880],[98.5,27964],[98.5,28047],[98.5,28131],[98.5,28214],[98.5,28297],[98.5,28381],[98.5,28464],[98.5,28548],[98.5,28631],[98.5,28715],[98.5,28798],[98.5,28882],[98.5,28964],[98.5,29048],[98.5,29132],[98.5,29214],[98.5,29298],[98.5,29382],[98.5,29466],[98.1,29548],[97.8,29632],[97.4,29716]]",228.9155,236.8247,49.8050944,6.1306,"[{""rating"":49.805094401041664,""responseTime"":6.130600000023833}]",space,7.3833,,236.825,Definitely yes,100,236.8282,,,[],,0,0,0,0,1,audio/Narrative13Situation2.wav,audio/Narrative13Situation2.wav,audio/Narrative13Situation2.wav,audio/Narrative13Situation2.wav,2,2,2,2,,,,,,,,,,,,,,,,,,,,,,,,,,,,,,,,,,,,,
,,,,,66abc79f0812c1f89a25adfb,2025-07-07_21h11.48.111,group3.4_multiperson,2023.2.2,MacIntel,59.88023952,686c2ebf0248f13bef9af11f,686c7c00fb44677680e080e4,,,,,,,,,,,,,,,,,,,,,,,,,,,,,236.8284,1,audio/Narrative8Situation1.wav,331.1465,space,331.1466,347.0646,"[[999,10],[999,83],[999,166],[999,250],[999,333],[999,417],[999,500],[999,583],[999,667],[999,750],[999,835],[999,917],[999,1001],[999,1084],[999,1168],[999,1251],[999,1334],[999,1418],[999,1502],[999,1585],[999,1668],[999,1752],[999,1836],[999,1919],[999,2002],[52.3,2085],[52.4,2168],[52.4,2253],[52.4,2336],[52.4,2420],[51.7,2502],[50.2,2586],[50.1,2669],[50.1,2753],[50.1,2837],[50.1,2919],[50.1,3003],[50.1,3087],[50.1,3170],[50.1,3254],[50.1,3336],[50.1,3421],[50.1,3504],[50.1,3588],[50.1,3671],[50.1,3754],[50.1,3838],[50.1,3921],[50.1,4004],[50.3,4088],[50.5,4171],[50.5,4254],[50.5,4338],[50.5,4421],[50.3,4505],[49.4,4588],[49.2,4672],[49.2,4755],[49.2,4839],[49.2,4922],[49.2,5005],[49.2,5089],[49.2,5173],[49.2,5256],[49.2,5339],[49.2,5422],[49.4,5506],[49.4,5589],[49.4,5673],[49.4,5757],[49.4,5840],[49.4,5923],[49.4,6007],[49.4,6089],[49.4,6174],[49.4,6257],[49.4,6341],[49.4,6424],[49.4,6507],[49.4,6590],[49.4,6674],[49.4,6758],[49.4,6841],[49.4,6924],[49.4,7008],[49.4,7091],[49.4,7174],[49.4,7258],[49.4,7342],[49.4,7425],[49.4,7509],[49.4,7592],[49.4,7675],[49.4,7759],[49.4,7841],[49.4,7925],[49.4,8009],[49.4,8093],[49.4,8176],[49.4,8259],[49.4,8343],[49.4,8426],[49.4,8509],[49.4,8593],[49.4,8677],[49.4,8760],[49.4,8843],[49.8,8927],[51.5,9010],[52,9094],[51.4,9177],[50.7,9261],[50.7,9343],[50.7,9427],[50.7,9511],[50.7,9594],[50.7,9678],[50.7,9761],[50.7,9844],[50.7,9928],[50.7,10011],[50.7,10094],[50.7,10178],[50.7,10262],[51.7,10344],[63.8,10428],[79.4,10512],[84.5,10595],[93.1,10678],[97,10762],[100,10845],[100,10929],[100,11012],[100,11096],[100,11179],[100,11263],[100,11346],[100,11429],[100,11513],[100,11596],[100,11680],[100,11763],[100,11847],[100,11930],[100,12014],[100,12097],[100,12181],[100,12264],[100,12346],[100,12431],[100,12514],[100,12597],[100,12681],[100,12764],[100,12848],[100,12932],[100,13014],[100,13098],[100,13182],[100,13265],[100,13349],[100,13432],[100,13515],[100,13599],[100,13681],[100,13766],[100,13849],[100,13932],[100,14016],[100,14099],[100,14183],[100,14266],[100,14349],[100,14433],[100,14516],[100,14600],[100,14684],[100,14767],[100,14850],[100,14934],[100,15016],[100,15101],[100,15184],[100,15267],[96.9,15350],[95.4,15434],[90.9,15517],[86.7,15600],[84.5,15684],[76.1,15767],[65.4,15851]]",347.065,355.3906,50.04516602,2.618,"[{""rating"":50.045166015625,""responseTime"":2.617999999999995}]",space,7.7924,,355.3907,Definitely yes,100,355.4017,,,[],,0,1,1,1,1,audio/Narrative7Situation1.wav,audio/Narrative8Situation1.wav,audio/Narrative5Situation1.wav,audio/Narrative6Situation1.wav,2,5,5,2,94.2976,,,,,,,,,,,,,,,,,,,,,,,,,,,,,,,,,,,,
,,,,,66abc79f0812c1f89a25adfb,2025-07-07_21h11.48.111,group3.4_multiperson,2023.2.2,MacIntel,59.88023952,686c2ebf0248f13bef9af11f,686c7c00fb44677680e080e4,,,,,,,,,,,,,,,,,,,,,,,,,,,,,355.4019,1,audio/Narrative8Situation2.wav,358.4114,,358.4114,368.5228,"[[49.4,4839],[36.4,4921],[39.4,5005],[39.4,5088],[39.4,5172],[20.6,5255],[1.4,5338],[0.4,5421]]",368.5229,372.4273,0.295410156,2.9513,"[{""rating"":0.2954101562499978,""responseTime"":2.9513000000118836}]",space,3.3711,,372.4273,Not at all,0,380.4028,0.393473307,6.8976,"[{""rating"":0.3934733072916641,""responseTime"":6.897600000023829}]",space,0,2,2,2,1,audio/Narrative7Situation2.wav,audio/Narrative8Situation2.wav,audio/Narrative5Situation2.wav,audio/Narrative6Situation2.wav,3,3,3,3,,,7.4493,,,,,,,,,,,,,,,,,,,,,,,,,,,,,,,,,,
,,,,,66abc79f0812c1f89a25adfb,2025-07-07_21h11.48.111,group3.4_multiperson,2023.2.2,MacIntel,59.88023952,686c2ebf0248f13bef9af11f,686c7c00fb44677680e080e4,,,,,,,,,,,,,,,,,,,,,,,,,,,,,380.4032,1,audio/Narrative8Situation3.wav,384.407,,384.407,406.7826,"[[47.6,2419],[46.5,2502],[40.8,2585],[39.2,2669],[39.2,2753],[39.2,2836],[39.2,2919],[39.2,3003],[39.2,3087],[39.4,3169],[54.1,3253],[95.9,3336],[100,3420],[100,3503],[100,3587],[100,3670],[100,3754],[100,3837],[100,3920],[100,4004],[100,4087],[100,4171],[100,4254],[100,4338],[100,4422],[100,4504],[100,4588],[100,4671],[100,4755],[100,4839],[100,4922],[100,5005],[100,5088],[100,5172],[100,5256],[100,5339],[100,5423],[100,5506],[100,5589],[100,5673],[100,5756],[100,5839],[100,5923],[100,6007],[100,6089],[99,6173],[99,6257],[99,6340],[99,6424],[98.5,6507],[98.1,6591],[96.7,6673],[95.4,6757],[93.1,6840],[89.6,6924],[85.3,7007],[72.4,7090],[51,7174],[43.7,7257],[45.2,7342],[45.2,7424],[45.2,7508],[45.5,7592],[48.7,7674],[50.8,7758],[50.8,7841],[51.1,7925],[51.1,8008],[51.5,8092],[56.2,8175],[70.6,8258],[85.6,8342],[86,8426],[84.6,8509],[84.2,8593],[84.2,8676],[84.2,8759],[84.2,8843],[84.2,8926],[84.2,9010],[84.2,9093],[84.2,9176],[84.2,9260],[84.2,9343],[84.2,9427],[84.2,9510],[84.2,9594],[84.2,9677],[83,9761],[83,9844],[83,9928],[83,10010],[83.1,10094],[84.1,10178],[85.8,10261],[86.3,10344],[87,10428],[87.9,10511],[87.9,10595],[87.9,10679],[85.9,10761],[77.8,10845],[61.4,10928],[54.6,11012],[52.4,11095],[50.2,11178],[49.6,11263],[49.7,11346],[49.7,11429],[49.6,11513],[49.9,11597],[50.6,11679],[50.6,11763],[50.6,11847],[50.6,11929],[50.6,12013],[50.6,12097],[50.8,12180],[51.4,12263],[52.5,12347],[52.9,12430],[53.8,12514],[54.3,12598],[55.5,12680],[58.6,12764],[61.1,12847],[66.5,12930],[70.9,13014],[73.8,13097],[77.3,13181],[80.1,13264],[87.2,13348],[90.8,13431],[90.8,13515],[91.3,13598],[92.2,13682],[93.7,13765],[96.7,13848],[98.6,13931],[99,14015],[99.5,14099],[99.5,14183],[99.5,14265],[99.5,14349],[99.5,14433],[99.5,14516],[99.5,14599],[99.5,14683],[99.5,14766],[99.5,14850],[99.5,14933],[99.5,15017],[99.5,15100],[99.5,15184],[99.5,15266],[99.5,15350],[99.5,15434],[99.5,15517],[99.5,15600],[99.5,15684],[99.5,15768],[99.5,15851],[99.5,15934],[99.5,16018],[99.5,16101],[99.5,16184],[99.5,16268],[99.5,16351],[99.5,16435],[99.5,16518],[99.5,16602],[99.5,16684],[99.5,16769],[99.5,16851],[99.5,16936],[99.5,17019],[99.5,17102],[99.5,17186],[99.5,17269],[99.5,17353],[99.5,17436],[99.5,17519],[99.5,17603],[99.5,17686],[99.5,17770],[99.5,17853],[99.5,17936],[99.5,18020],[99.5,18104],[99.5,18186],[99.5,18270],[99.5,18354],[99.5,18437],[99.5,18520],[99.5,18604],[99.5,18687],[99.5,18771],[99.5,18854],[99.5,18938],[99.5,19021],[99.5,19104],[99.5,19188],[99.5,19272],[99.5,19355],[99.5,19438],[99.5,19521],[99.5,19605],[99.5,19689],[99.5,19771],[99.5,19855],[99.5,19939],[99.5,20022],[99.5,20105],[99.5,20189],[99.5,20273],[99.5,20356],[99.5,20439],[99.5,20522],[99.5,20606],[99.5,20690],[99.5,20773],[99.5,20857],[99.5,20940],[99.5,21023],[99.5,21106],[99.5,21190],[99.5,21274],[99.5,21357],[99.5,21441],[99.5,21524],[99.5,21608],[99.5,21691],[99.5,21774],[99.5,21857],[99.5,21941],[99.5,22024],[99.5,22107],[99.5,22191],[99.5,22275],[99.5,22358]]",406.7828,411.9044,87.09554036,4.1089,"[{""rating"":44.597574869791664,""responseTime"":2.652100000023836},{""rating"":65.50089518229166,""responseTime"":3.151999999999987},{""rating"":87.09554036458333,""responseTime"":4.10890000003576}]",space,4.5916,,411.9045,Not at all,0,411.9063,,,[],,0,3,3,3,1,audio/Narrative7Situation3.wav,audio/Narrative8Situation3.wav,audio/Narrative5Situation3.wav,audio/Narrative6Situation3.wav,8,4,3,5,,,,,,,,,,,,,,,,,,,,,,,,,,,,,,,,,,,,,
,,,,,66abc79f0812c1f89a25adfb,2025-07-07_21h11.48.111,group3.4_multiperson,2023.2.2,MacIntel,59.88023952,686c2ebf0248f13bef9af11f,686c7c00fb44677680e080e4,,,,,,,,,,,,,,,,,,,,,,,,,,,,,411.9065,1,audio/Narrative8Situation4.wav,414.9084,,414.9085,429.0913,"[[999,0],[999,83],[999,166],[999,250],[999,333],[999,416],[999,500],[999,583],[999,667],[999,750],[999,833],[999,917],[999,1000],[999,1083],[999,1167],[999,1251],[999,1334],[999,1418],[999,1500],[999,1584],[999,1668],[999,1750],[999,1835],[999,1918],[999,2002],[999,2084],[999,2168],[999,2252],[999,2335],[999,2418],[999,2502],[999,2585],[999,2668],[999,2751],[999,2836],[999,2919],[999,3003],[999,3085],[999,3170],[999,3253],[999,3336],[999,3419],[999,3502],[999,3586],[999,3669],[999,3753],[999,3837],[999,3920],[51.8,4003],[51.9,4087],[52,4170],[71.8,4253],[90.8,4337],[92.3,4421],[100,4504],[100,4587],[100,4671],[100,4755],[100,4837],[100,4921],[100,5005],[100,5088],[100,5171],[100,5255],[100,5338],[100,5422],[100,5505],[100,5588],[100,5672],[100,5756],[100,5838],[99.3,5923],[99.5,6006],[99.6,6090],[99.6,6173],[99.5,6256],[99.5,6339],[99.4,6423],[99.4,6507],[99.3,6590],[99.2,6673],[99.2,6756],[99,6840],[98.9,6924],[98.8,7006],[98.7,7090],[98.4,7174],[98.4,7257],[98.4,7341],[98.4,7424],[99.1,7508],[99.7,7591],[100,7674],[100,7757],[100,7841],[100,7925],[100,8008],[100,8091],[100,8174],[100,8259],[100,8342],[100,8425],[100,8509],[100,8592],[100,8676],[100,8759],[100,8843],[100,8925],[100,9009],[100,9093],[100,9176],[100,9260],[100,9343],[100,9427],[100,9510],[100,9593],[100,9677],[100,9760],[100,9843],[100,9927],[100,10011],[100,10094],[100,10177],[100,10260],[100,10343],[100,10428],[100,10510],[100,10595],[100,10678],[100,10761],[100,10845],[100,10928],[100,11011],[100,11095],[100,11178],[100,11262],[100,11345],[100,11429],[100,11512],[100,11596],[100,11679],[100,11762],[100,11845],[100,11929],[100,12013],[100,12096],[100,12180],[100,12263],[100,12346],[100,12430],[100,12513],[100,12597],[100,12680],[100,12764],[100,12846],[100,12930],[100,13014],[100,13097],[100,13180],[100,13264],[100,13348],[100,13431],[100,13514],[100,13598],[100,13681],[100,13765],[100,13848],[100,13932],[100,14015],[100,14099],[100,14182]]",429.0914,430.9592,99.32779948,1.1192,"[{""rating"":99.32779947916667,""responseTime"":1.1191999999880977}]",space,1.3387,,430.9594,Not at all,0,430.9609,,,[],,0,4,4,4,1,audio/Narrative7Situation4.wav,audio/Narrative8Situation4.wav,audio/Narrative5Situation4.wav,audio/Narrative6Situation4.wav,3,3,1,2,,,,,,,,,,,,,,,,,,,,,,,,,,,,,,,,,,,,,
,,,,,66abc79f0812c1f89a25adfb,2025-07-07_21h11.48.111,group3.4_multiperson,2023.2.2,MacIntel,59.88023952,686c2ebf0248f13bef9af11f,686c7c00fb44677680e080e4,,,,,,,,,,,,,,,,,,,,,,,,,,,,,430.9612,1,audio/Narrative8Situation5.wav,432.9621,,432.9621,441.2205,"[[100,3086],[100,3169],[100,3253],[100,3336],[100,3419],[100,3503],[100,3587],[100,3670],[100,3753],[100,3837],[100,3921],[100,4004],[100,4087],[100,4171],[100,4254],[100,4338],[100,4420],[100,4504],[100,4588],[100,4671],[100,4755],[100,4838],[100,4922],[100,5005],[100,5088],[100,5172],[100,5255],[100,5338],[100,5422],[100,5506],[100,5589],[100,5673],[100,5756],[100,5839],[100,5923],[100,6005],[100,6090],[100,6173],[100,6256],[100,6339],[100,6423],[100,6507],[100,6590],[100,6673],[100,6756],[100,6841],[100,6924],[100,7007],[100,7091],[100,7174],[100,7258],[100,7340],[100,7424],[100,7508],[100,7591],[100,7675],[100,7758],[100,7842],[100,7925],[100,8008],[100,8092],[100,8175],[100,8258]]",441.2205,444.2584,99.98697917,1.7177,"[{""rating"":99.98697916666667,""responseTime"":1.717699999988099}]",space,2.5064,,444.2584,Not at all,0,444.2601,,,[],,0,5,5,5,1,audio/Narrative7Situation5.wav,audio/Narrative8Situation5.wav,audio/Narrative5Situation5.wav,audio/Narrative6Situation5.wav,5,2,5,2,,,,,,,,,,,,,,,,,,,,,,,,,,,,,,,,,,,,,
,,,,,66abc79f0812c1f89a25adfb,2025-07-07_21h11.48.111,group3.4_multiperson,2023.2.2,MacIntel,59.88023952,686c2ebf0248f13bef9af11f,686c7c00fb44677680e080e4,,,,,,,,,,,,,,,,,,,,,,,,,,,,,444.2604,1,audio/Narrative8Situation6.wav,446.2604,,446.2605,452.7177,"[[97.2,2753],[98.4,2835],[100,2919],[100,3002],[100,3086],[100,3170],[100,3253],[100,3336],[100,3420],[100,3503],[100,3587],[100,3670],[100,3754],[100,3836],[100,3920],[100,4003],[100,4087],[100,4171],[100,4253],[100,4337],[100,4420],[100,4504],[100,4588],[100,4671],[100,4755],[100,4838],[100,4921],[100,5005],[100,5088],[100,5172],[100,5255],[100,5338],[100,5422],[100,5506],[100,5588],[100,5672],[100,5756],[100,5838],[100,5923],[100,6006],[100,6089],[100,6173],[100,6256],[100,6339],[100,6423]]",452.7177,457.8401,99.58251953,2.851,"[{""rating"":99.58251953125,""responseTime"":2.850999999999999}]",space,4.5724,,457.8401,Not at all,0,457.8418,,,[],,0,6,6,6,1,audio/Narrative7Situation6.wav,audio/Narrative8Situation6.wav,audio/Narrative5Situation6.wav,audio/Narrative6Situation6.wav,3,2,3,2,,,,,,,,,,,,,,,,,,,,,,,,,,,,,,,,,,,,,
,,,,,66abc79f0812c1f89a25adfb,2025-07-07_21h11.48.111,group3.4_multiperson,2023.2.2,MacIntel,59.88023952,686c2ebf0248f13bef9af11f,686c7c00fb44677680e080e4,,,,,,,,,,,,,,,,,,,,,,,,,,,,,457.8421,1,audio/Narrative8Situation7.wav,460.843,,460.843,472.9239,"[[999,0],[999,83],[999,166],[85,250],[92.6,333],[99.3,416],[99.4,500],[100,584],[100,667],[100,751],[100,834],[100,918],[100,1000],[100,1083],[100,1168],[100,1250],[100,1335],[100,1418],[89.3,1501],[68.3,1584],[47.7,1668],[29.4,1751],[19.5,1834],[18.7,1918],[18.5,2002],[19.3,2085],[20.5,2169],[20.5,2252],[20.5,2336],[22,2419],[23.6,2503],[23.6,2586],[23.6,2669],[25.8,2752],[42.4,2836],[46.3,2920],[48.1,3003],[50,3086],[50,3170],[50,3253],[49.7,3337],[49.7,3420],[49.7,3504],[49.7,3587],[54.1,3670],[81.8,3754],[96.4,3837],[100,3921],[100,4004],[100,4087],[100,4171],[100,4254],[100,4338],[100,4421],[100,4504],[100,4588],[100,4672],[100,4754],[100,4839],[100,4922],[100,5006],[100,5088],[100,5173],[100,5256],[100,5338],[100,5423],[100,5506],[100,5589],[100,5673],[100,5756],[100,5840],[100,5923],[100,6006],[100,6090],[100,6174],[100,6257],[100,6339],[100,6424],[100,6507],[100,6591],[100,6673],[100,6758],[100,6841],[100,6924],[100,7007],[100,7091],[100,7175],[100,7258],[100,7341],[100,7425],[100,7508],[100,7592],[100,7675],[100,7758],[100,7842],[100,7925],[100,8008],[100,8092],[100,8176],[100,8259],[100,8342],[100,8426],[100,8509],[100,8593],[100,8676],[100,8760],[100,8843],[100,8926],[100,9010],[100,9094],[100,9177],[100,9260],[100,9343],[100,9427],[100,9511],[100,9593],[100,9677],[100,9761],[100,9844],[100,9928],[100,10011],[100,10095],[100,10178],[100,10261],[100,10345],[100,10427],[100,10512],[100,10595],[100,10678],[100,10761],[100,10845],[100,10928],[100,11012],[100,11096],[100,11179],[100,11262],[100,11346],[100,11430],[100,11513],[100,11596],[100,11680],[100,11762],[100,11846],[100,11930],[100,12013]]",472.9239,475.1097,100,1.6995,"[{""rating"":98.80126953125,""responseTime"":0.6875999999642772},{""rating"":100,""responseTime"":1.6995000000000005}]",space,1.6351,,475.1098,Not at all,0,475.1115,,,[],,0,7,7,7,1,audio/Narrative7Situation7.wav,audio/Narrative8Situation7.wav,audio/Narrative5Situation7.wav,audio/Narrative6Situation7.wav,5,3,4,5,,,,,,,,,,,,,,,,,,,,,,,,,,,,,,,,,,,,,
,,,,,66abc79f0812c1f89a25adfb,2025-07-07_21h11.48.111,group3.4_multiperson,2023.2.2,MacIntel,59.88023952,686c2ebf0248f13bef9af11f,686c7c00fb44677680e080e4,,,,,,,,,,,,,,,,,,,,,,,,,,,,,475.1117,1,audio/Narrative8Situation8.wav,478.113,,478.113,490.9768,"[[100,8342],[100,8426],[100,8508],[100,8592],[100,8676],[100,8759],[99.9,8842],[99.6,8926],[99.6,9010],[99.6,9093],[99.6,9176],[99.6,9260],[99.6,9343],[99.6,9426],[99.6,9510],[99.6,9593],[99.6,9677],[99.6,9760],[99.6,9844],[99.7,9928],[99.8,10011],[100,10093],[100,10177],[100,10260],[100,10345],[100,10427],[100,10510],[100,10595],[100,10678],[100,10762],[100,10845],[100,10928],[100,11012],[100,11095],[100,11178],[100,11262],[100,11346],[100,11429],[100,11512],[100,11596],[100,11679],[100,11763],[100,11845],[100,11930],[100,12013],[100,12096],[100,12179],[100,12263],[100,12347],[100,12429],[100,12513],[99.9,12596],[99.3,12681],[99.3,12763],[99.3,12847]]",490.9768,492.6794,100,0.8091,"[{""rating"":100,""responseTime"":0.8090999999642463}]",space,1.1735,,492.6795,Partially,50,492.6823,,,[],,0,8,8,8,1,audio/Narrative7Situation8.wav,audio/Narrative8Situation8.wav,audio/Narrative5Situation8.wav,audio/Narrative6Situation8.wav,2,3,3,5,,,,,,,,,,,,,,,,,,,,,,,,,,,,,,,,,,,,,
,,,,,66abc79f0812c1f89a25adfb,2025-07-07_21h11.48.111,group3.4_multiperson,2023.2.2,MacIntel,59.88023952,686c2ebf0248f13bef9af11f,686c7c00fb44677680e080e4,,,,,,,,,,,,,,,,,,,,,,,,,,,,,492.6825,1,audio/Narrative8Situation9.wav,495.6828,,495.6828,506.9956,"[[80.5,82],[96.6,166],[99,249],[99.8,333],[100,417],[100,500],[100,583],[100,667],[100,750],[100,834],[100,916],[100,1000],[100,1084],[100,1167],[100,1251],[100,1334],[100,1418],[100,1501],[100,1584],[100,1668],[100,1751],[100,1835],[100,1918],[100,2002],[100,2085],[100,2168],[100,2252],[100,2335],[100,2419],[100,2501],[100,2586],[100,2669],[100,2752],[100,2836],[100,2919],[100,3003],[100,3086],[100,3169],[100,3253],[100,3336],[100,3420],[100,3503],[100,3587],[100,3670],[100,3754],[100,3836],[100,3920],[100,4004],[100,4087],[100,4171],[100,4254],[100,4338],[100,4421],[100,4504],[100,4588],[100,4671],[100,4755],[100,4838],[100,4922],[100,5005],[100,5088],[100,5172],[100,5255],[100,5339],[100,5421],[100,5506],[100,5589],[100,5673],[100,5756],[100,5839],[100,5923],[100,6006],[100,6089],[100,6173],[100,6256],[100,6340],[100,6422],[100,6507],[100,6590],[100,6674],[100,6756],[100,6840],[100,6924],[100,7007],[100,7091],[100,7174],[100,7257],[100,7341],[100,7423],[100,7507],[100,7591],[100,7675],[100,7758],[100,7842],[100,7925],[100,8008],[100,8092],[100,8175],[100,8259],[100,8341],[100,8426],[100,8509],[100,8593],[100,8676],[100,8759],[100,8843],[100,8926],[100,9009],[100,9093],[100,9177],[100,9260],[100,9343],[100,9427],[100,9510],[100,9594],[100,9676],[100,9760],[100,9844],[100,9927],[100,10010],[100,10094],[100,10178],[100,10261],[100,10344],[100,10428],[100,10511],[100,10595],[100,10678],[100,10762],[100,10845],[100,10928],[100,11011],[100,11094],[100,11178],[100,11261]]",506.9958,508.9811,100,1.3357,"[{""rating"":100,""responseTime"":1.3357000000476091}]",space,1.4511,,508.9811,Partially,50,508.9829,,,[],,0,9,9,9,1,audio/Narrative7Situation9.wav,audio/Narrative8Situation9.wav,audio/Narrative5Situation9.wav,audio/Narrative6Situation9.wav,2,3,3,4,,,,,,,,,,,,,,,,,,,,,,,,,,,,,,,,,,,,,
,,,,,66abc79f0812c1f89a25adfb,2025-07-07_21h11.48.111,group3.4_multiperson,2023.2.2,MacIntel,59.88023952,686c2ebf0248f13bef9af11f,686c7c00fb44677680e080e4,,,,,,,,,,,,,,,,,,,,,,,,,,,,,508.9832,1,audio/Narrative7Situation1.wav,510.9833,,510.9833,566.8801,"[[999,0],[999,82],[999,166],[54.5,249],[51.2,332],[49.2,416],[49.2,500],[49,583],[49.3,667],[49.9,750],[50.2,834],[50.2,917],[50.2,1001],[50.2,1083],[50.2,1168],[50.2,1251],[50.2,1334],[50.2,1417],[50.2,1501],[50.2,1585],[50.2,1668],[50.2,1751],[50.2,1835],[50.2,1918],[50.2,2002],[50.2,2084],[50.2,2168],[50.2,2252],[50.2,2334],[50.2,2419],[50.2,2502],[50.2,2586],[50.2,2669],[50.2,2752],[50.2,2836],[50.2,2919],[50.2,3002],[50.2,3085],[50.2,3169],[50.2,3253],[50.2,3336],[50.2,3420],[50.2,3504],[50.2,3586],[50.2,3669],[50.2,3754],[50.2,3837],[50.2,3920],[50.2,4004],[50.2,4087],[50.2,4171],[50.2,4254],[50.2,4337],[50.2,4421],[50.2,4505],[50.2,4588],[50.2,4671],[50.2,4755],[50.2,4838],[50.2,4922],[50.2,5005],[50.2,5089],[50.2,5172],[50.2,5255],[50.2,5339],[50.4,5422],[58.6,5505],[64.1,5588],[84.7,5672],[100,6089],[100,6173],[100,6257],[100,6340],[100,6423],[100,6507],[100,6590],[100,6674],[100,6757],[100,6840],[100,6924],[100,7007],[100,7091],[100,7174],[100,7257],[100,7341],[100,7424],[100,7508],[100,7591],[100,7675],[100,7758],[100,7842],[100,7925],[100,8009],[100,8092],[100,8175],[100,8259],[100,8342],[100,8426],[100,8509],[100,8592],[100,8676],[100,8759],[100,8843],[100,8926],[100,9009],[100,9093],[100,9176],[100,9259],[99.9,9343],[100,9427],[100,9509],[100,9594],[100,9677],[100,9760],[100,9843],[100,9927],[100,10011],[100,10094],[100,10177],[100,10261],[100,10345],[100,10428],[100,10511],[100,10595],[100,10678],[100,10761],[100,10844],[100,10928],[100,11012],[100,11095],[100,11179],[100,11262],[100,11346],[100,11429],[100,11512],[100,11596],[100,11679],[100,11762],[100,11846],[100,11930],[100,12013],[100,12096],[100,12180],[100,12263],[100,12347],[100,12429],[100,12514],[100,12597],[100,12680],[100,12764],[100,12847],[100,12931],[100,13014],[100,13097],[100,13181],[100,13264],[100,13348],[100,13431],[100,13515],[100,13598],[100,13682],[100,13764],[100,13848],[100,13932],[100,14015],[100,14099],[100,14182],[100,14266],[100,14349],[100,14432],[100,14516],[100,14599],[100,14683],[100,14765],[100,14850],[100,14933],[100,15016],[100,15099],[100,15182],[99.8,15267],[99.8,15349],[99.8,15434],[99.8,15517],[99.8,15601],[99.8,15684],[99.8,15767],[99.8,15851],[99.8,15934],[99.8,16017],[99.8,16101],[99.8,16184],[99.8,16268],[99.8,16351],[81.4,16434],[64.1,16518],[62.3,16601],[59.3,16684],[55.3,16768],[53.7,16851],[52.8,16935],[51.7,17018],[50.9,17101],[50.6,17186],[50.6,17269],[50.6,17352],[50.6,17436],[50.6,17518],[50.6,17601],[50.6,17686],[50.5,17770],[50.4,17852],[50.3,17936],[50.2,18019],[50.2,18103],[50.2,18187],[50.1,18269],[50.1,18354],[50.1,18436],[50.1,18520],[50.1,18603],[50.1,18687],[50.1,18771],[50.1,18854],[50.1,18937],[50.1,19021],[50.1,19105],[50.1,19188],[50.1,19271],[50.1,19355],[56,19437],[79.5,19521],[99.2,19604],[100,19688],[100,19771],[100,19855],[100,19938],[100,20022],[100,20105],[100,20188],[100,20272],[100,20356],[100,20439],[100,20522],[100,20606],[100,20689],[100,20773],[100,20856],[100,20939],[100,21023],[100,21106],[100,21189],[100,21274],[100,21357],[100,21440],[100,21524],[100,21607],[100,21690],[100,21774],[100,21856],[100,21941],[100,22024],[100,22108],[100,22191],[100,22274],[100,22358],[100,22442],[100,22524],[100,22608],[100,22692],[100,22775],[100,22858],[100,22942],[100,23024],[100,23109],[100,23192],[100,23275],[100,23359],[100,23443],[100,23526],[100,23610],[100,23693],[100,23776],[100,23860],[100,23943],[100,24026],[100,24109],[100,24193],[100,24277],[100,24360],[100,24444],[100,24527],[100,24611],[100,24694],[100,24777],[100,24861],[100,24944],[100,25028],[100,25111],[100,25194],[100,25278],[100,25362],[100,25444],[100,25528],[100,25612],[100,25695],[100,25778],[100,25862],[100,25945],[100,26029],[100,26111],[100,26196],[100,26279],[100,26363],[100,26446],[100,26529],[100,26613],[100,26696],[100,26779],[100,26863],[100,26947],[100,27029],[100,27113],[100,27197],[100,27280],[100,27364],[100,27447],[100,27531],[100,27614],[100,27696],[100,27781],[100,27863],[100,27948],[100,28031],[100,28114],[100,28198],[100,28282],[100,28364],[100,28448],[100,28532],[100,28615],[100,28698],[100,28782],[100,28865],[100,28949],[100,29032],[100,29116],[100,29199],[100,29283],[100,29366],[100,29450],[100,29532],[100,29616],[100,29699],[100,29783],[100,29867],[100,29949],[100,30033],[100,30117],[100,30200],[100,30284],[100,30367],[100,30450],[100,30533],[100,30618],[100,30701],[100,30784],[100,30868],[100,30951],[100,31034],[100,31118],[100,31202],[100,31284],[100,31368],[100,31452],[100,31535],[100,31619],[100,31702],[100,31786],[100,31869],[100,31951],[100,32036],[100,32119],[100,32203],[100,32286],[100,32369],[100,32453],[100,32536],[100,32619],[100,32703],[100,32786],[100,32870],[100,32953],[100,33037],[100,33120],[100,33204],[100,33287],[100,33370],[100,33453],[100,33537],[100,33620],[100,33704],[100,33787],[100,33871],[100,33954],[100,34038],[100,34121],[100,34204],[100,34288],[100,34372],[100,34455],[100,34538],[100,34622],[100,34705],[100,34789],[100,34872],[100,34956],[100,35039],[100,35123],[100,35206],[100,35289],[100,35373],[100,35456],[100,35539],[100,35623],[100,35706],[100,35790],[100,35873],[100,35957],[100,36040],[100,36123],[100,36206],[100,36291],[100,36374],[100,36456],[100,36541],[100,36624],[100,36708],[100,36791],[100,36874],[100,36958],[100,37041],[100,37125],[100,37207],[100,37292],[100,37375],[100,37458],[100,37542],[100,37625],[100,37709],[100,37791],[100,37875],[100,37959],[100,38042],[100,38126],[100,38209],[100,38293],[100,38376],[100,38459],[100,38543],[100,38626],[100,38710],[100,38793],[100,38877],[100,38960],[100,39044],[100,39126],[100,39211],[100,39293],[100,39377],[100,39461],[100,39544],[100,39628],[100,39711],[100,39794],[100,39878],[100,39961],[100,40043],[100,40128],[100,40212],[100,40295],[100,40378],[100,40461],[100,40545],[100,40629],[100,40711],[100,40795],[100,40879],[100,40962],[100,41046],[100,41129],[100,41213],[100,41296],[100,41379],[100,41463],[100,41546],[100,41629],[100,41713],[100,41796],[100,41880],[100,41963],[100,42046],[100,42130],[100,42214],[100,42297],[100,42380],[100,42464],[100,42547],[100,42630],[100,42714],[100,42798],[100,42881],[100,42964],[100,43048],[100,43132],[100,43215],[100,43298],[100,43381],[100,43465],[100,43548],[100,43631],[100,43716],[100,43799],[100,43882],[100,43965],[100,44049],[100,44133],[100,44216],[100,44299],[100,44383],[100,44466],[100,44550],[100,44633],[100,44717],[100,44800],[100,44884],[100,44966],[100,45050],[100,45134],[100,45217],[100,45301],[100,45384],[100,45468],[100,45551],[100,45634],[100,45717],[100,45801],[100,45884],[100,45968],[100,46052],[100,46135],[100,46218],[100,46301],[100,46385],[100,46469],[100,46551],[100,46635],[100,46718],[100,46802],[100,46886],[100,46969],[100,47053],[100,47136],[100,47219],[100,47303],[100,47386],[100,47470],[100,47553],[100,47637],[100,47720],[100,47803],[100,47886],[100,47970],[100,48054],[100,48137],[100,48221],[100,48304],[100,48387],[100,48471],[100,48554],[100,48638],[100,48721],[100,48805],[100,48888],[100,48971],[100,49055],[100,49138],[100,49221],[100,49305],[100,49389],[100,49472],[100,49555],[100,49639],[100,49722],[100,49806],[100,49889],[100,49973],[100,50056],[100,50138],[100,50223],[100,50306],[100,50390],[100,50473],[100,50557],[100,50640],[100,50723],[100,50806],[100,50890],[100,50974],[100,51057],[100,51140],[100,51224],[100,51307],[100,51391],[100,51474],[100,51558],[100,51641],[100,51725],[100,51808],[100,51891],[100,51975],[100,52058],[100,52141],[100,52225],[100,52309],[100,52391],[100,52475],[100,52559],[100,52642],[100,52726],[100,52809],[100,52893],[100,52976],[100,53058],[100,53143],[100,53226],[100,53310],[100,53393],[100,53476],[100,53560],[100,53643],[100,53726],[100,53810],[100,53894],[100,53976],[100,54060],[100,54144],[100,54227],[100,54311],[100,54393],[100,54478],[100,54561],[100,54644],[100,54728],[100,54811],[100,54895],[100,54978],[100,55061],[100,55145],[100,55229],[100,55312],[100,55395],[100,55479],[100,55561],[100,55646],[100,55729],[100,55812],[100,55896]]",566.8802,571.6177,100,4.0923,"[{""rating"":100,""responseTime"":4.092300000011846}]",space,4.189,,571.6177,Not at all,0,571.6206,,,[],,0,10,10,10,1,audio/Narrative8Situation1.wav,audio/Narrative7Situation1.wav,audio/Narrative6Situation1.wav,audio/Narrative5Situation1.wav,5,2,2,5,,,,,,,,,,,,,,,,,,,,,,,,,,,,,,,,,,,,,
,,,,,66abc79f0812c1f89a25adfb,2025-07-07_21h11.48.111,group3.4_multiperson,2023.2.2,MacIntel,59.88023952,686c2ebf0248f13bef9af11f,686c7c00fb44677680e080e4,,,,,,,,,,,,,,,,,,,,,,,,,,,,,571.6209,1,audio/Narrative7Situation2.wav,574.6218,,574.6219,582.1125,"[[99.4,499],[98.9,583],[98.3,667],[98.1,750],[98.1,833],[98.5,917],[99.1,1000],[99.4,1084],[99.4,1167],[99.4,1250],[99.4,1334],[99.4,1417],[99.8,1500],[99.9,1584],[99.9,1668],[99.9,1751],[99.9,1835],[99.9,1918],[99.9,2001],[99.9,2085],[99.9,2168],[99.9,2252],[99.9,2335],[99.9,2419],[99.9,2502],[99.9,2585],[99.9,2669],[99.9,2752],[99.9,2835],[99.9,2919],[99.9,3003],[99.9,3086],[99.9,3170],[99.9,3252],[99.9,3336],[99.9,3420],[99.9,3503],[99.9,3586],[99.9,3670],[99.9,3753],[99.9,3837],[99.9,3920],[99.9,4004],[99.9,4087],[99.9,4170],[99.9,4254],[99.9,4337],[99.9,4420],[99.9,4504],[99.9,4587],[99.9,4671],[99.9,4755],[99.9,4838],[99.9,4922],[99.9,5005],[99.9,5087],[99.9,5172],[99.9,5255],[99.9,5338],[99.9,5422],[99.9,5505],[99.9,5589],[99.9,5672],[99.9,5755],[99.9,5839],[99.9,5923],[99.9,6006],[99.9,6089],[99.9,6173],[99.9,6256],[99.9,6340],[99.9,6423],[99.9,6506],[99.9,6590],[99.9,6674],[99.9,6757],[99.9,6840],[99.9,6924],[99.9,7007],[99.9,7090],[99.9,7174],[99.9,7258],[99.9,7340],[99.9,7424]]",582.1127,584.6498,100,1.8676,"[{""rating"":100,""responseTime"":1.8676000000237991}]",space,2.0025,,584.6498,Partially,50,584.6524,,,[],,0,11,11,11,1,audio/Narrative8Situation2.wav,audio/Narrative7Situation2.wav,audio/Narrative6Situation2.wav,audio/Narrative5Situation2.wav,3,3,3,3,,,,,,,,,,,,,,,,,,,,,,,,,,,,,,,,,,,,,
,,,,,66abc79f0812c1f89a25adfb,2025-07-07_21h11.48.111,group3.4_multiperson,2023.2.2,MacIntel,59.88023952,686c2ebf0248f13bef9af11f,686c7c00fb44677680e080e4,,,,,,,,,,,,,,,,,,,,,,,,,,,,,584.6525,1,audio/Narrative7Situation3.wav,592.6591,,592.6591,601.9186,"[[91.5,249],[91.5,332],[91.5,415],[91.5,500],[91.5,583],[91.5,666],[91.5,750],[91.6,833],[93.5,917],[96.8,1000],[100,1083],[100,1167],[100,1251],[100,1334],[100,1417],[100,1501],[100,1584],[100,1667],[100,1751],[100,1835],[100,1918],[100,2001],[100,2085],[100,2168],[100,2252],[100,2335],[100,2418],[100,2501],[100,2584],[100,2669],[100,2752],[100,2836],[100,2919],[100,3002],[100,3085],[100,3169],[100,3252],[100,3336],[100,3420],[100,3503],[100,3586],[100,3670],[100,3753],[100,3837],[100,3919],[100,4004],[100,4087],[100,4171],[100,4254],[100,4337],[100,4421],[100,4504],[100,4587],[100,4671],[100,4754],[100,4837],[100,4921],[100,5005],[100,5088],[100,5172],[100,5255],[100,5339],[100,5422],[100,5504],[100,5589],[100,5672],[100,5755],[100,5838],[100,5923],[100,6006],[100,6089],[100,6172],[100,6256],[100,6340],[100,6423],[100,6506],[100,6590],[100,6673],[100,6757],[100,6839],[100,6924],[100,7007],[100,7091],[100,7174],[100,7257],[100,7340],[100,7424],[100,7507],[100,7591],[100,7675],[100,7758],[100,7841],[100,7925],[100,8008],[100,8092],[100,8175],[100,8258],[100,8342],[100,8425],[100,8509],[100,8592],[100,8676],[100,8759],[100,8841],[100,8926],[100,9009],[100,9092],[100,9176],[100,9259]]",601.9187,609.361,53.69099935,6.8227,"[{""rating"":53.690999348958336,""responseTime"":6.822699999988117}]",space,6.9086,,609.361,Partially,50,609.3628,,,[],,0,12,12,12,1,audio/Narrative8Situation3.wav,audio/Narrative7Situation3.wav,audio/Narrative6Situation3.wav,audio/Narrative5Situation3.wav,4,8,5,3,,,,,,,,,,,,,,,,,,,,,,,,,,,,,,,,,,,,,
,,,,,66abc79f0812c1f89a25adfb,2025-07-07_21h11.48.111,group3.4_multiperson,2023.2.2,MacIntel,59.88023952,686c2ebf0248f13bef9af11f,686c7c00fb44677680e080e4,,,,,,,,,,,,,,,,,,,,,,,,,,,,,609.363,1,audio/Narrative7Situation4.wav,612.3643,,612.3643,624.0774,"[[71.6,2669],[74.2,2752],[75.7,2836],[75.6,2920],[75.6,3003],[75.6,3086],[75.8,3169],[76.1,3253],[76.5,3337],[75.5,3419],[75,3504],[75,3587],[75,3670],[74.8,3753],[53.1,3837],[48.4,3921],[48.4,4003],[48,4087],[48,4171],[48,4253],[48,4338],[48,4421],[48,4505],[48,4588],[48,4671],[48,4755],[48,4838],[48,4921],[48,5005],[48,5089],[48,5172],[47.8,5255],[32.5,5339],[2.4,5422],[0.7,7174],[1.5,7257],[2,7341],[2.1,7425],[2.3,7507],[2.4,7591],[2,7674],[0.8,7757],[0.6,7842],[0.7,7924],[1.9,8009],[1.4,8092],[0,8175]]",624.0775,625.6127,0,1.0167,"[{""rating"":0,""responseTime"":1.0167000000476492}]",space,1.0015,,625.6127,Partially,50,625.6143,,,[],,0,13,13,13,1,audio/Narrative8Situation4.wav,audio/Narrative7Situation4.wav,audio/Narrative6Situation4.wav,audio/Narrative5Situation4.wav,3,3,2,1,,,,,,,,,,,,,,,,,,,,,,,,,,,,,,,,,,,,,
,,,,,66abc79f0812c1f89a25adfb,2025-07-07_21h11.48.111,group3.4_multiperson,2023.2.2,MacIntel,59.88023952,686c2ebf0248f13bef9af11f,686c7c00fb44677680e080e4,,,,,,,,,,,,,,,,,,,,,,,,,,,,,625.6146,1,audio/Narrative7Situation5.wav,630.6184,,630.6184,639.0946,"[[4.8,166],[5.3,249],[5.4,333],[5,416],[2.3,499],[5,4754],[11.1,4837],[26.4,4921],[60.2,5005],[79,5088],[84.3,5171],[89.5,5255],[93,5338],[96.4,5421],[97,5505],[99.1,5589],[99.6,5672],[99.8,5755],[100,5838],[100,5922],[100,6006],[100,6090],[100,6173],[100,6256],[100,6340],[100,6423],[100,6506],[100,6589],[100,6673],[100,6757],[100,6841],[100,6924],[100,7007],[100,7091],[100,7174],[100,7257],[100,7341],[100,7424],[100,7508],[100,7591],[100,7675],[100,7758],[100,7841],[100,7924],[100,8008],[100,8091],[100,8174],[100,8259],[100,8342],[100,8425]]",639.0947,642.5818,100,3.003,"[{""rating"":100,""responseTime"":3.002999999999929}]",space,2.9373,,642.5819,Partially,50,642.5836,,,[],,0,14,14,14,1,audio/Narrative8Situation5.wav,audio/Narrative7Situation5.wav,audio/Narrative6Situation5.wav,audio/Narrative5Situation5.wav,2,5,2,5,,,,,,,,,,,,,,,,,,,,,,,,,,,,,,,,,,,,,
,,,,,66abc79f0812c1f89a25adfb,2025-07-07_21h11.48.111,group3.4_multiperson,2023.2.2,MacIntel,59.88023952,686c2ebf0248f13bef9af11f,686c7c00fb44677680e080e4,,,,,,,,,,,,,,,,,,,,,,,,,,,,,642.5839,1,audio/Narrative7Situation6.wav,645.5849,,645.5849,655.5465,"[[90.3,9428],[100,9511],[100,9594],[100,9677],[100,9760],[100,9843],[100,9928]]",655.5465,659.3674,100,1.4928,"[{""rating"":100,""responseTime"":1.4928000000119255}]",space,3.2772,,659.3675,Not at all,0,659.3702,,,[],,0,15,15,15,1,audio/Narrative8Situation6.wav,audio/Narrative7Situation6.wav,audio/Narrative6Situation6.wav,audio/Narrative5Situation6.wav,2,3,2,3,,,,,,,,,,,,,,,,,,,,,,,,,,,,,,,,,,,,,
,,,,,66abc79f0812c1f89a25adfb,2025-07-07_21h11.48.111,group3.4_multiperson,2023.2.2,MacIntel,59.88023952,686c2ebf0248f13bef9af11f,686c7c00fb44677680e080e4,,,,,,,,,,,,,,,,,,,,,,,,,,,,,659.3703,1,audio/Narrative7Situation7.wav,664.373,,664.373,681.5424,"[[100,14350],[98.1,14433],[98.6,14516],[99,14599],[99.7,14683],[99.8,14766],[100,14849],[100,14933],[100,15016],[100,15100],[100,15183],[100,15267],[100,15349],[100,15434],[100,15517],[100,15600],[100,15683],[100,15766],[100,15850],[100,15934],[100,16018],[100,16100],[100,16184],[100,16268],[100,16351],[100,16435],[100,16517],[100,16601],[100,16684],[100,16768],[100,16852],[100,16935],[100,17019],[100,17102]]",681.5425,683.4102,100,1.1272,"[{""rating"":100,""responseTime"":1.127200000047651}]",space,1.338,,683.4103,Definitely yes,100,683.413,,,[],,0,16,16,16,1,audio/Narrative8Situation7.wav,audio/Narrative7Situation7.wav,audio/Narrative6Situation7.wav,audio/Narrative5Situation7.wav,3,5,5,4,,,,,,,,,,,,,,,,,,,,,,,,,,,,,,,,,,,,,
,,,,,66abc79f0812c1f89a25adfb,2025-07-07_21h11.48.111,group3.4_multiperson,2023.2.2,MacIntel,59.88023952,686c2ebf0248f13bef9af11f,686c7c00fb44677680e080e4,,,,,,,,,,,,,,,,,,,,,,,,,,,,,683.4133,1,audio/Narrative7Situation8.wav,685.4293,,685.4293,695.4407,"[[93.3,84],[93.3,167],[93.3,250],[95,333],[98.1,417],[98.9,500],[99.2,584],[100,667],[100,751],[100,834],[100,917],[100,1001],[100,1085],[100,1167],[100,1252],[100,1335],[100,1418],[100,1502],[100,1585],[100,1669],[100,1752],[100,1835],[100,1919],[100,2002],[100,2086],[100,2169],[100,2253],[100,2336],[100,2419],[100,2502],[100,2586],[100,2669],[100,2753],[100,2837],[100,2920],[100,3003],[100,3087],[100,3170],[100,3254],[100,3337],[100,3420],[100,3504],[100,3587],[100,3670],[100,3754],[100,3837],[100,3921],[100,4005],[100,4087],[100,4172],[100,4255],[100,4339],[100,4421],[100,4505],[100,4589],[100,4671],[100,4755],[100,4839],[100,4923],[100,5005],[100,5089],[100,5173],[100,5256],[100,5340],[100,5422],[100,5506],[100,5590],[100,5673],[100,5757],[100,5840],[100,5924],[100,6007],[100,6090],[100,6174],[100,6257],[100,6340],[100,6424],[100,6507],[100,6591],[100,6673],[100,6757],[100,6841],[100,6924],[100,7007],[100,7091],[100,7175],[100,7258],[100,7341],[100,7425],[100,7509],[100,7592],[100,7675],[100,7759],[100,7842],[100,7926],[100,8009],[100,8092],[100,8176],[100,8259],[100,8342],[100,8427],[100,8510],[100,8593],[100,8677],[100,8760],[100,8844],[100,8927],[100,9010],[100,9094],[100,9177],[100,9261],[100,9344],[100,9428],[100,9511],[100,9594],[100,9677],[100,9761],[100,9844],[100,9927],[100,10011]]",695.4408,697.8274,100,1.3002,"[{""rating"":100,""responseTime"":1.300199999988081}]",space,1.8518,,697.8274,Definitely yes,100,697.8291,,,[],,0,17,17,17,1,audio/Narrative8Situation8.wav,audio/Narrative7Situation8.wav,audio/Narrative6Situation8.wav,audio/Narrative5Situation8.wav,3,2,5,3,,,,,,,,,,,,,,,,,,,,,,,,,,,,,,,,,,,,,
,,,,,66abc79f0812c1f89a25adfb,2025-07-07_21h11.48.111,group3.4_multiperson,2023.2.2,MacIntel,59.88023952,686c2ebf0248f13bef9af11f,686c7c00fb44677680e080e4,,,,,,,,,,,,,,,,,,,,,,,,,,,,,697.8293,1,audio/Narrative7Situation9.wav,699.8294,,699.8294,708.4728,"[[999,0],[999,83],[999,167],[999,250],[999,333],[999,417],[999,500],[999,583],[999,667],[999,751],[999,834],[999,917],[999,1001],[999,1084],[999,1168],[999,1251],[999,1334],[999,1418],[999,1501],[999,1585],[999,1668],[999,1752],[999,1835],[999,1918],[999,2002],[999,2084],[999,2168],[999,2251],[999,2336],[999,2419],[999,2502],[999,2586],[999,2669],[999,2753],[999,2835],[999,2920],[999,3003],[999,3086],[999,3170],[999,3253],[999,3337],[999,3420],[999,3503],[999,3587],[999,3670],[999,3754],[999,3837],[999,3921],[999,4004],[999,4088],[999,4170],[81.5,4255],[100,4838],[100,4922],[100,5004],[100,5088],[100,5172],[100,5256],[100,5339],[100,5422],[100,5506],[100,5589],[100,5673],[100,5755],[100,5840],[100,5923],[100,6006],[100,6089],[100,6173],[100,6257],[100,6340],[100,6423],[100,6507],[100,6590],[100,6674],[100,6757],[100,6841],[100,6924],[100,7008],[100,7090],[100,7174],[100,7258],[100,7340],[100,7425],[100,7508],[100,7591],[100,7675],[100,7758],[100,7842],[100,7925],[100,8008],[100,8092],[100,8176],[100,8259],[100,8342],[100,8426],[100,8509],[100,8593]]",708.4728,714.2116,100,5.1049,"[{""rating"":100,""responseTime"":5.104900000035741}]",space,5.2064,,714.2116,Partially,50,714.2147,,,[],,0,18,18,18,1,audio/Narrative8Situation9.wav,audio/Narrative7Situation9.wav,audio/Narrative6Situation9.wav,audio/Narrative5Situation9.wav,3,2,4,3,,,,,,,,,,,,,,,,,,,,,,,,,,,,,,,,,,,,,
,,,,,66abc79f0812c1f89a25adfb,2025-07-07_21h11.48.111,group3.4_multiperson,2023.2.2,MacIntel,59.88023952,686c2ebf0248f13bef9af11f,686c7c00fb44677680e080e4,,,,,,,,,,,,,,,,,,,,,,,,,,,774.224,776.7998,776.8119,2,audio/Narrative13Situation2.wav,776.812,,776.812,806.5492,"[[80.2,4075],[74.7,4159],[69,4241],[65.9,4325],[65.4,4409],[65.3,4492],[65.4,4576],[65.4,4659],[65.4,4742],[65.4,4826],[65.4,4909],[65.4,4992],[65.4,5076],[65.4,5160],[65.4,5243],[65.4,5326],[65.4,5409],[65.4,5493],[65.4,5576],[65.4,5660],[65.4,5744],[65.4,5827],[65.4,5910],[65.4,5994],[65.4,6077],[65.4,6161],[65.4,6244],[65.4,6327],[65.4,6411],[65.4,6493],[65.4,6577],[65.4,6661],[65.4,6745],[65.4,6828],[65.4,6911],[65.4,6995],[65.4,7078],[65.4,7161],[65.4,7245],[65.4,7329],[65.4,7412],[65.4,7496],[65.4,7579],[65.4,7662],[65.4,7746],[65.4,7829],[65.4,7912],[65.4,7996],[65.4,8080],[65.4,8162],[65.4,8247],[65.4,8330],[65.4,8413],[65.4,8497],[65.9,8580],[65.9,8664],[68.1,8747],[73.9,8830],[75.7,8913],[77,8997],[79.9,9080],[82.5,9164],[84.4,9248],[87.1,9331],[89.6,9414],[89.8,9497],[94.9,9581],[96.1,9664],[96.1,9747],[96.1,9831],[96.1,9914],[96.5,9998],[96.7,10081],[97.4,10165],[97.8,10249],[98.7,10332],[99.2,10415],[100,10499],[100,10583],[100,10665],[100,10749],[100,10833],[100,10916],[100,10999],[100,11083],[100,11166],[100,11250],[100,11333],[100,11416],[100,11500],[100,11583],[100,11667],[100,11750],[100,11834],[100,11916],[100,12000],[100,12084],[100,12167],[100,12251],[100,12334],[100,12418],[100,12501],[100,12584],[100,12668],[100,12751],[100,12835],[100,12918],[100,13002],[100,13085],[100,13169],[100,13252],[100,13336],[100,13419],[100,13502],[100,13586],[100,13668],[100,13752],[100,13836],[100,13919],[100,14003],[100,14086],[100,14170],[100,14254],[100,14336],[100,14420],[100,14504],[100,14587],[100,14670],[100,14754],[100,14837],[100,14921],[100,15003],[100,15087],[100,15170],[100,15254],[100,15337],[100,15421],[100,15505],[100,15588],[100,15671],[100,15755],[100,15838],[100,15922],[100,16004],[100,16088],[100,16172],[100,16255],[100,16339],[100,16422],[100,16506],[100,16588],[100,16672],[100,16756],[100,16839],[100,16923],[100,17006],[100,17089],[100,17172],[100,17256],[100,17339],[100,17424],[100,17507],[100,17589],[100,17674],[100,17757],[100,17840],[90.1,17924],[78.2,18007],[78.1,18091],[78.1,18174],[77.8,18258],[66.9,18341],[61.4,18424],[56.5,18507],[54.9,18591],[54.9,18675],[54.9,18758],[53.3,18842],[47.9,18925],[48.1,19008],[49.9,19092],[49.9,19175],[49.8,19259],[49.8,19342],[49.8,19426],[49.8,19508],[49.2,19592],[25.6,19676],[6.2,19759]]",806.5493,806.5605,,,[],,,,806.5606,Definitely yes,100,806.5632,,,[],,0,0,0,0,1,audio/Narrative13Situation2.wav,audio/Narrative13Situation2.wav,audio/Narrative13Situation2.wav,audio/Narrative13Situation2.wav,2,2,2,2,,,,,714.2174,774.214,,,,,,,,,,,,,,,,,,,,,,,,,,,,,,,
,,,,,66abc79f0812c1f89a25adfb,2025-07-07_21h11.48.111,group3.4_multiperson,2023.2.2,MacIntel,59.88023952,686c2ebf0248f13bef9af11f,686c7c00fb44677680e080e4,,,,,,,,,,,,,,,,,,,,,,,,,,,,,806.5635,2,audio/Narrative6Situation1.wav,808.5689,,808.5689,835.1484,"[[999,0],[999,83],[999,166],[999,249],[999,332],[999,417],[999,499],[999,583],[999,667],[999,750],[999,834],[999,917],[999,1000],[999,1083],[999,1167],[999,1250],[999,1334],[999,1417],[999,1501],[999,1584],[999,1668],[999,1751],[999,1834],[999,1918],[999,2002],[999,2084],[999,2168],[999,2252],[999,2335],[999,2419],[999,2502],[999,2585],[20,2668],[20.1,2753],[20.1,2835],[20.1,2919],[20.2,3002],[20.9,3086],[20.9,3169],[20.9,3253],[20.9,3336],[20.8,3419],[21,3503],[21.1,3586],[21.1,3670],[21.1,3754],[21.1,3837],[21.1,3920],[21.1,4003],[21.1,4086],[21.1,4170],[21.1,4254],[21.1,4338],[21.1,4421],[21.1,4504],[21.1,4588],[21.1,4671],[21.1,4754],[21.1,4838],[21.1,4922],[21.1,5004],[21.1,5087],[21.1,5172],[21.2,5255],[41.2,5338],[94.1,5422],[100,5505],[100,5589],[100,5672],[100,5755],[100,5839],[100,5922],[100,6007],[100,6089],[100,6172],[100,6256],[100,6340],[100,6423],[100,6507],[100,6590],[100,6673],[100,6757],[100,6840],[100,6924],[100,7006],[100,7090],[100,7174],[100,7258],[100,7341],[100,7424],[100,7507],[100,7591],[100,7674],[100,7758],[100,7842],[88.6,7924],[55.2,8008],[0.2,8592],[0.3,8675],[0.3,8759],[0.3,8843],[0.3,8925],[1.1,15766],[1.3,15850],[3.9,15934],[3.9,16017],[3.9,16101],[3.9,16184],[3.9,16268],[3.9,16351],[3.9,16434],[3.9,16517],[3.9,16601],[3.9,16685],[4.2,16768],[4.1,16852],[4.1,16935],[4.1,17019],[4.1,17101],[4.1,17185],[4.1,17268],[4.1,17352],[4.1,17435],[4.1,17519],[4.1,17603],[4.1,17686],[4.1,17769],[4.1,17852],[4.1,17936],[4.1,18020],[4.1,18102],[4.1,18187],[4.1,18270],[4.1,18353],[4.1,18436],[4.1,18520],[4.1,18604],[4.1,18687],[4.1,18770],[4.1,18854],[4.1,18937],[3.6,19020],[1.3,19104],[0.3,19187],[0.2,21356],[0.5,21441],[0.4,21524],[12.7,26112],[57.1,26195],[93.8,26362],[99.1,26446],[100,26529]]",835.1485,838.7028,100,2.8014,"[{""rating"":99.53653971354166,""responseTime"":2.043700000047693},{""rating"":100,""responseTime"":2.8014000000357555}]",space,3.0197,,838.7029,Partially,50,838.7057,,,[],,0,1,1,1,1,audio/Narrative7Situation1.wav,audio/Narrative8Situation1.wav,audio/Narrative5Situation1.wav,audio/Narrative6Situation1.wav,2,5,5,2,,,,,,,,,,,,,,,,,,,,,,,,,,,,,,,,,,,,,
,,,,,66abc79f0812c1f89a25adfb,2025-07-07_21h11.48.111,group3.4_multiperson,2023.2.2,MacIntel,59.88023952,686c2ebf0248f13bef9af11f,686c7c00fb44677680e080e4,,,,,,,,,,,,,,,,,,,,,,,,,,,,,838.7059,2,audio/Narrative6Situation2.wav,841.7065,,841.7065,870.2218,"[[999,0],[999,82],[999,165],[999,249],[999,332],[999,416],[999,499],[999,583],[999,667],[999,750],[999,833],[999,916],[999,1000],[999,1083],[999,1166],[999,1250],[999,1333],[999,1417],[999,1501],[86.3,1583],[100,1918],[100,2001],[100,2084],[99.9,2168],[100,2251],[100,2335],[100,2419],[100,2502],[100,2585],[100,2669],[100,2751],[100,2836],[100,2919],[100,3003],[100,3085],[100,3169],[100,3253],[100,3336],[100,3419],[100,3503],[100,3587],[100,3670],[100,3753],[100,3837],[100,3920],[100,4004],[100,4086],[100,4171],[100,4254],[100,4337],[100,4420],[100,4504],[100,4588],[100,4670],[100,4754],[100,4837],[100,4921],[100,5005],[100,5088],[100,5172],[100,5255],[100,5338],[100,5421],[100,5504],[100,5588],[100,5672],[100,5756],[100,5838],[100,5922],[100,6005],[100,6089],[100,6173],[100,6256],[100,6339],[100,6423],[100,6506],[100,6590],[100,6673],[100,6756],[100,6840],[100,6924],[100,7006],[100,7091],[100,7174],[100,7257],[100,7340],[100,7424],[100,7507],[100,7590],[100,7674],[100,7758],[100,7841],[100,7925],[100,8008],[100,8092],[100,8175],[100,8258],[100,8341],[100,8425],[100,8509],[100,8591],[100,8675],[100,8759],[100,8843],[100,8925],[100,9009],[100,9093],[100,9176],[100,9259],[100,9343],[100,9426],[100,9510],[100,9593],[100,9676],[100,9760],[100,9844],[100,9926],[100,10011],[100,10094],[100,10177],[100,10260],[100,10344],[100,10428],[100,10510],[100,10593],[100,10678],[100,10761],[100,10845],[100,10928],[100,11012],[100,11095],[100,11178],[100,11261],[100,11345],[100,11429],[100,11512],[100,11595],[100,11679],[100,11762],[100,11845],[100,11929],[100,12013],[100,12095],[100,12179],[100,12263],[100,12345],[100,12430],[100,12513],[100,12596],[100,12680],[100,12764],[100,12846],[100,12931],[100,13014],[100,13097],[100,13180],[100,13264],[100,13348],[100,13431],[100,13514],[100,13598],[100,13681],[100,13764],[100,13848],[100,13932],[100,14015],[100,14097],[100,14181],[100,14265],[100,14349],[100,14432],[100,14515],[100,14598],[100,14682],[100,14765],[100,14849],[100,14933],[100,15016],[100,15099],[100,15183],[100,15266],[100,15350],[100,15433],[100,15516],[100,15600],[100,15684],[100,15766],[100,15850],[100,15934],[100,16017],[100,16100],[100,16183],[100,16267],[100,16351],[100,16434],[100,16518],[100,16601],[100,16685],[100,16768],[100,16851],[100,16935],[100,17017],[100,17101],[100,17185],[100,17269],[100,17352],[100,17435],[100,17519],[100,17602],[100,17685],[100,17769],[100,17853],[100,17936],[100,18019],[100,18103],[100,18186],[100,18270],[100,18352],[100,18436],[100,18520],[100,18603],[100,18686],[100,18770],[100,18854],[100,18937],[100,19020],[100,19104],[100,19187],[100,19270],[100,19354],[100,19437],[100,19521],[100,19604],[100,19688],[100,19771],[100,19855],[100,19938],[100,20021],[99.5,20105],[98.7,20188],[98.5,20272],[98.2,20355],[98.2,20439],[98.4,20523],[98.5,20605],[98.5,20689],[98.5,20772],[99,20855],[99.1,20940],[99.2,21023],[99.3,21106],[99.4,21190],[99.6,21272],[99.7,21356],[99.9,21440],[99.9,21523],[100,21607],[100,21690],[100,21774],[100,21857],[100,21940],[100,22024],[100,22107],[100,22191],[100,22273],[100,22358],[100,22441],[100,22524],[100,22607],[100,22692],[100,22775],[100,22858],[100,22941],[100,23025],[100,23109],[100,23192],[100,23275],[100,23359],[100,23442],[100,23526],[100,23609],[100,23693],[100,23776],[100,23859],[100,23943],[100,24026],[100,24110],[100,24192],[100,24276],[100,24360],[100,24443],[100,24526],[100,24610],[100,24694],[100,24777],[100,24860],[100,24944],[100,25027],[100,25111],[100,25194],[100,25278],[100,25360],[100,25445],[100,25528],[100,25611],[100,25695],[100,25778],[100,25861],[100,25945],[100,26029],[100,26112],[100,26195],[100,26278],[100,26362],[100,26445],[100,26529],[100,26613],[100,26696],[100,26779],[100,26862],[100,26946],[100,27030],[100,27112],[100,27196],[100,27279],[100,27363],[100,27446],[100,27530],[100,27613],[100,27697],[100,27780],[100,27863],[100,27947],[100,28031],[100,28114],[100,28198],[100,28281],[100,28365],[100,28447]]",870.222,871.6901,100,0.9489,"[{""rating"":100,""responseTime"":0.9488999999761063}]",space,0.9201,,871.6902,Not at all,0,871.6931,,,[],,0,2,2,2,1,audio/Narrative7Situation2.wav,audio/Narrative8Situation2.wav,audio/Narrative5Situation2.wav,audio/Narrative6Situation2.wav,3,3,3,3,,,,,,,,,,,,,,,,,,,,,,,,,,,,,,,,,,,,,
,,,,,66abc79f0812c1f89a25adfb,2025-07-07_21h11.48.111,group3.4_multiperson,2023.2.2,MacIntel,59.88023952,686c2ebf0248f13bef9af11f,686c7c00fb44677680e080e4,,,,,,,,,,,,,,,,,,,,,,,,,,,,,871.6933,2,audio/Narrative6Situation3.wav,876.6957,,876.6958,889.2933,"[[100,583],[100,667],[98.9,750],[97.3,833],[97.5,916],[98.6,1000],[100,1083],[100,1167],[100,1250],[100,1334],[100,1417],[100,1500],[100,1584],[100,1668],[100,1750],[100,1835],[100,1918],[100,2001],[100,2084],[100,2168],[100,2252],[100,2335],[100,2418],[100,2502],[100,2586],[100,2669],[100,2752],[100,2835],[100,2919],[100,3003],[100,3085],[100,3170],[100,3253],[100,3336],[100,3419],[100,3503],[100,3587],[100,3670],[100,3753],[100,3837],[100,3920],[100,4004],[100,4087],[100,4171],[100,4254],[100,4337],[100,4420],[100,4504],[100,4588],[100,4671],[100,4754],[100,4838],[100,4922],[100,5004],[100,5088],[100,5172],[100,5255],[100,5339],[100,5422],[100,5506],[100,5589],[100,5672],[100,5756],[100,5839],[100,5923],[100,6006],[100,6090],[100,6173],[100,6256],[100,6339],[100,6423],[100,6507],[100,6590],[100,6672],[100,6757],[100,6840],[100,6924],[100,7007],[100,7090],[100,7173],[100,7257],[100,7340],[100,7424],[100,7508],[100,7591],[100,7674],[100,7758],[100,7842],[100,7924],[100,8008],[100,8092],[100,8175],[100,8259],[100,8342],[100,8426],[100,8509],[100,8592],[100,8675],[100,8759],[100,8843],[100,8926],[100,9010],[100,9093],[100,9176],[100,9259],[100,9343],[100,9427],[100,9510],[100,9593],[100,9677],[100,9760],[100,9844],[100,9927],[100,10010],[100,10094],[100,10176],[100,10260],[100,10344],[100,10428],[100,10511],[100,10594],[100,10678],[100,10762],[100,10844],[100,10927],[100,11012],[100,11095],[100,11177],[100,11262],[100,11345],[100,11429],[100,11511],[100,11595],[100,11679],[100,11763],[100,11845],[100,11929],[100,12013],[100,12096],[100,12179],[100,12263],[100,12347],[100,12429],[100,12513],[100,12597]]",889.2934,894.5659,95.06062826,4.6717,"[{""rating"":95.06062825520833,""responseTime"":4.671700000047622}]",space,4.7227,,894.5659,Definitely yes,100,894.569,,,[],,0,3,3,3,1,audio/Narrative7Situation3.wav,audio/Narrative8Situation3.wav,audio/Narrative5Situation3.wav,audio/Narrative6Situation3.wav,8,4,3,5,,,,,,,,,,,,,,,,,,,,,,,,,,,,,,,,,,,,,
,,,,,66abc79f0812c1f89a25adfb,2025-07-07_21h11.48.111,group3.4_multiperson,2023.2.2,MacIntel,59.88023952,686c2ebf0248f13bef9af11f,686c7c00fb44677680e080e4,,,,,,,,,,,,,,,,,,,,,,,,,,,,,894.5692,2,audio/Narrative6Situation4.wav,896.5846,,896.5846,909.1815,"[[94.8,83],[94.8,167],[94.8,249],[94.8,333],[94.8,417],[94.9,500],[94.2,583],[91.5,667],[89.9,750],[80.4,833],[51.4,917],[37,1000],[36.9,1084],[36.9,1167],[36.9,1250],[36.9,1334],[37,1417],[34.5,1500],[21.3,1584],[12.1,1667],[8.9,1751],[3.9,1834],[1.9,1918],[0.5,2001],[4.4,3169],[7.9,3252],[16.9,3336],[46.6,3419],[69,3503],[76,3587],[85,3670],[91.1,3753],[98.1,3837],[100,3920],[100,4004],[100,4088],[100,4170],[100,4254],[100,4338],[100,4421],[100,4504],[100,4588],[100,4671],[100,4754],[100,4839],[100,4922],[100,5005],[100,5089],[100,5171],[100,5255],[100,5339],[100,5422],[100,5505],[100,5589],[100,5673],[100,5756],[100,5839],[100,5923],[100,6006],[100,6089],[100,6172],[100,6257],[100,6340],[100,6423],[100,6507],[100,6590],[100,6674],[100,6756],[100,6839],[100,6924],[100,7007],[100,7090],[100,7174],[100,7258],[100,7340],[100,7424],[100,7508],[100,7591],[100,7675],[100,7757],[100,7842],[100,7925],[100,8009],[100,8091],[100,8175],[100,8259],[100,8342],[100,8425],[100,8509],[100,8593],[100,8676],[100,8759],[100,8842],[100,8926],[100,9010],[100,9093],[100,9176],[100,9260],[100,9344],[100,9427],[100,9510],[100,9593],[100,9676],[100,9760],[100,9844],[100,9927],[100,10011],[100,10094],[100,10178],[100,10261],[100,10344],[100,10427],[100,10511],[100,10595],[100,10677],[100,10762],[100,10845],[100,10929],[100,11011],[100,11095],[100,11178],[100,11262],[100,11346],[100,11429],[100,11512],[100,11596],[100,11679],[100,11763],[100,11846],[100,11929],[100,12012],[100,12097],[100,12179],[100,12264],[100,12346],[100,12430],[100,12514],[100,12596]]",909.1816,910.9169,100,1.2172,"[{""rating"":100,""responseTime"":1.217199999988111}]",space,1.2011,,910.917,Definitely yes,100,910.9186,,,[],,0,4,4,4,1,audio/Narrative7Situation4.wav,audio/Narrative8Situation4.wav,audio/Narrative5Situation4.wav,audio/Narrative6Situation4.wav,3,3,1,2,,,,,,,,,,,,,,,,,,,,,,,,,,,,,,,,,,,,,
,,,,,66abc79f0812c1f89a25adfb,2025-07-07_21h11.48.111,group3.4_multiperson,2023.2.2,MacIntel,59.88023952,686c2ebf0248f13bef9af11f,686c7c00fb44677680e080e4,,,,,,,,,,,,,,,,,,,,,,,,,,,,,910.9189,2,audio/Narrative6Situation5.wav,912.9197,,912.9197,920.8622,"[[98.5,583],[98.8,667],[100,750],[100,834],[100,917],[100,1000],[100,1084],[100,1167],[100,1250],[100,1334],[100,1417],[100,1501],[100,1584],[100,1668],[100,1752],[100,1835],[100,1918],[100,2002],[100,2085],[100,2168],[100,2252],[100,2335],[100,2419],[100,2501],[100,2586],[100,2669],[100,2753],[100,2836],[100,2919],[100,3003],[100,3086],[100,3169],[100,3253],[100,3337],[100,3419],[100,3503],[100,3587],[100,3670],[100,3754],[100,3836],[100,3920],[100,4004],[100,4088],[100,4170],[100,4254],[100,4338],[100,4421],[100,4504],[100,4588],[100,4672],[100,4755],[100,4838],[100,4921],[100,5005],[100,5088],[100,5172],[100,5255],[100,5339],[100,5421],[100,5505],[100,5589],[100,5673],[100,5756],[100,5839],[100,5922],[100,6006],[100,6089],[100,6173],[100,6257],[100,6339],[100,6423],[100,6507],[100,6590],[100,6673],[100,6757],[100,6840],[100,6924],[100,7007],[100,7090],[100,7174],[100,7258],[100,7342],[100,7424],[100,7508],[100,7592],[100,7675],[100,7758],[100,7842],[100,7925]]",920.8623,924.5832,100,3.2519,"[{""rating"":100,""responseTime"":3.2518999999762173}]",space,3.1878,,924.5832,Definitely yes,100,924.585,,,[],,0,5,5,5,1,audio/Narrative7Situation5.wav,audio/Narrative8Situation5.wav,audio/Narrative5Situation5.wav,audio/Narrative6Situation5.wav,5,2,5,2,,,,,,,,,,,,,,,,,,,,,,,,,,,,,,,,,,,,,
,,,,,66abc79f0812c1f89a25adfb,2025-07-07_21h11.48.111,group3.4_multiperson,2023.2.2,MacIntel,59.88023952,686c2ebf0248f13bef9af11f,686c7c00fb44677680e080e4,,,,,,,,,,,,,,,,,,,,,,,,,,,,,924.5853,2,audio/Narrative6Situation6.wav,926.602,,926.6021,937.6645,"[[100,1333],[100,1417],[99.4,1501],[99.4,1584],[100,1668],[100,1751],[100,1835],[100,1918],[100,2002],[100,2085],[100,2168],[100,2252],[100,2335],[100,2418],[100,2502],[100,2586],[100,2669],[100,2752],[100,2835],[100,2919],[100,3003],[100,3086],[100,3169],[100,3253],[100,3336],[100,3420],[100,3503],[100,3587],[100,3670],[100,3753],[100,3837],[100,3920],[100,4004],[100,4087],[100,4170],[100,4254],[100,4337],[100,4421],[100,4504],[100,4588],[100,4671],[100,4754],[100,4837],[100,4922],[100,5005],[100,5088],[100,5172],[100,5255],[100,5338],[100,5421],[100,5504],[100,5589],[100,5672],[100,5755],[100,5839],[100,5923],[100,6006],[100,6089],[100,6173],[100,6256],[100,6340],[100,6422],[100,6506],[100,6590],[100,6673],[100,6756],[100,6840],[100,6924],[100,7007],[100,7090],[100,7174],[100,7257],[100,7341],[100,7424],[100,7508],[100,7591],[100,7674],[100,7757],[100,7841],[100,7925],[100,8008],[100,8092],[100,8175],[100,8259],[100,8341],[100,8425],[100,8509],[100,8592],[100,8675],[100,8759],[100,8843],[100,8926],[100,9009],[100,9093],[100,9176],[100,9260],[100,9342],[100,9427],[100,9510],[100,9593],[100,9676],[100,9760],[100,9844],[100,9927],[100,10011],[100,10094],[100,10177],[100,10261],[100,10344],[100,10427],[100,10511],[100,10594],[100,10677],[100,10762],[100,10845],[100,10929],[100,11011]]",937.6646,943.7379,100,5.507,"[{""rating"":100,""responseTime"":5.507000000000062}]",space,5.5236,,943.7379,Partially,50,943.7407,,,[],,0,6,6,6,1,audio/Narrative7Situation6.wav,audio/Narrative8Situation6.wav,audio/Narrative5Situation6.wav,audio/Narrative6Situation6.wav,3,2,3,2,,,,,,,,,,,,,,,,,,,,,,,,,,,,,,,,,,,,,
,,,,,66abc79f0812c1f89a25adfb,2025-07-07_21h11.48.111,group3.4_multiperson,2023.2.2,MacIntel,59.88023952,686c2ebf0248f13bef9af11f,686c7c00fb44677680e080e4,,,,,,,,,,,,,,,,,,,,,,,,,,,,,943.7408,2,audio/Narrative6Situation7.wav,948.7436,,948.7436,973.5877,"[[72.4,750],[73.7,833],[74.9,916],[77.2,1000],[81.2,1084],[81.9,1167],[81.9,1251],[82.8,1334],[91.4,1417],[98.3,1500],[100,1584],[100,1667],[100,1751],[100,1834],[100,1918],[100,2001],[97.8,2084],[89.4,2168],[70.6,2251],[61.7,2335],[60.6,2419],[60.5,2502],[60.4,2586],[59.5,2669],[54.1,2752],[47.9,2835],[47.5,2919],[47.7,3002],[47.7,3086],[47.7,3170],[47.7,3253],[44.4,3336],[21.1,3419],[4.7,3503],[4.2,3586],[3.9,3670],[2,3753],[0.4,3836],[0.4,3919],[0.2,6924],[1.8,7007],[4.9,7090],[27.2,7174],[72.2,7257],[88.1,7340],[96.7,7424],[100,7507],[100,7591],[100,7675],[100,7758],[100,7841],[100,7924],[100,8008],[100,8091],[100,8175],[100,8259],[100,8341],[100,8425],[100,8508],[100,8592],[100,8676],[100,8759],[100,8842],[100,8926],[100,9010],[100,9092],[100,9176],[100,9259],[100,9343],[100,9427],[100,9509],[100,9594],[100,9677],[100,9760],[100,9843],[100,9927],[100,10011],[100,10094],[100,10177],[100,10261],[100,10344],[100,10428],[100,10511],[100,10595],[100,10678],[100,10761],[100,10845],[100,10928],[100,11012],[100,11094],[100,11178],[100,11262],[100,11346],[100,11428],[100,11512],[100,11596],[100,11679],[100,11763],[100,11846],[100,11929],[100,12013],[100,12096],[100,12179],[100,12263],[100,12347],[100,12429],[100,12513],[100,12597],[100,12680],[100,12763],[100,12847],[100,12931],[100,13014],[100,13097],[100,13181],[100,13264],[100,13347],[100,13431],[100,13514],[100,13598],[100,13680],[100,13764],[100,13848],[100,13932],[100,14015],[100,14098],[100,14182],[100,14265],[100,14348],[100,14432],[100,14516],[100,14599],[100,14682],[100,14766],[100,14849],[100,14932],[100,15016],[100,15099],[100,15183],[100,15266],[100,15349],[100,15433],[100,15517],[100,15600],[100,15683],[100,15767],[100,15851],[100,15934],[100,16017],[100,16101],[100,16184],[100,16268],[100,16351],[100,16435],[100,16517],[100,16601],[100,16684],[100,16768],[100,16852],[100,16935],[100,17018],[100,17102],[100,17185],[100,17268],[100,17352],[100,17436],[100,17518],[100,17603],[100,17686],[100,17769],[100,17853],[100,17935],[100,18019],[100,18103],[100,18187],[100,18269],[100,18353],[100,18437],[100,18520],[100,18603],[100,18687],[100,18770],[100,18854],[100,18937],[100,19021],[100,19104],[100,19188],[100,19271],[100,19354],[100,19438],[100,19520],[100,19604],[100,19688],[100,19772],[100,19854],[100,19938],[100,20022],[100,20105],[100,20188],[100,20271],[100,20356],[100,20439],[100,20521],[100,20606],[100,20689],[100,20773],[100,20855],[100,20939],[100,21023],[100,21106],[100,21189],[100,21273],[100,21357],[100,21440],[100,21523],[100,21607],[100,21691],[100,21774],[100,21857],[100,21940],[100,22024],[100,22108],[100,22191],[100,22274],[100,22358],[100,22441],[100,22524],[100,22608],[100,22692],[100,22775],[100,22858],[100,22941],[100,23026],[100,23108],[100,23191],[100,23276],[100,23359],[100,23442],[100,23526],[100,23609],[100,23693],[100,23775],[100,23859],[100,23943],[100,24026],[100,24109],[100,24193],[100,24277],[100,24360],[100,24443],[100,24527],[100,24609],[100,24694],[100,24776]]",973.5879,977.9431,99.97436523,3.8365,"[{""rating"":99.974365234375,""responseTime"":3.836500000000001}]",space,3.8273,,977.9431,Not at all,0,977.9457,,,[],,0,7,7,7,1,audio/Narrative7Situation7.wav,audio/Narrative8Situation7.wav,audio/Narrative5Situation7.wav,audio/Narrative6Situation7.wav,5,3,4,5,,,,,,,,,,,,,,,,,,,,,,,,,,,,,,,,,,,,,
,,,,,66abc79f0812c1f89a25adfb,2025-07-07_21h11.48.111,group3.4_multiperson,2023.2.2,MacIntel,59.88023952,686c2ebf0248f13bef9af11f,686c7c00fb44677680e080e4,,,,,,,,,,,,,,,,,,,,,,,,,,,,,977.9459,2,audio/Narrative6Situation8.wav,982.948,,982.948,989.7894,"[[100,501],[100,584],[100,667],[100,750],[100,834],[100,918],[100,1001],[99.5,1085],[99.4,1168],[99.4,1251],[98.6,1334],[99.2,1418],[99.3,1502],[99.3,1585],[99.3,1668],[99.3,1752],[99.3,1836],[99.3,1918],[99.3,2002],[99.3,2086],[99.3,2169],[99.3,2253],[99.3,2336],[99.3,2419],[99.3,2503],[99.3,2586],[99.3,2669],[99.3,2753],[99.3,2836],[99.3,2919],[99.3,3004],[99.3,3087],[99.3,3171],[99.2,3254],[99,3337],[94.2,3420],[87.1,3504],[76.2,3587],[58.2,3670],[57,3754],[57,3838],[57,3921],[57,4004],[56.6,4088],[53.2,4171],[52.2,4254],[52.2,4338],[52.2,4422],[52.2,4505],[52.2,4588],[52.2,4672],[52.2,4755],[43.8,4838],[1.2,4922],[1.2,5839],[3.5,5924],[5.3,6006],[6,6090],[6.6,6173],[6.7,6257],[6.7,6341],[6.7,6424],[6.7,6507],[6.7,6591],[6.7,6674],[6.7,6758],[6.8,6841]]",989.7895,992.9434,0,2.6793,"[{""rating"":0,""responseTime"":2.679300000011949}]",space,2.6272,,992.9434,Partially,50,992.9461,,,[],,0,8,8,8,1,audio/Narrative7Situation8.wav,audio/Narrative8Situation8.wav,audio/Narrative5Situation8.wav,audio/Narrative6Situation8.wav,2,3,3,5,,,,,,,,,,,,,,,,,,,,,,,,,,,,,,,,,,,,,
,,,,,66abc79f0812c1f89a25adfb,2025-07-07_21h11.48.111,group3.4_multiperson,2023.2.2,MacIntel,59.88023952,686c2ebf0248f13bef9af11f,686c7c00fb44677680e080e4,,,,,,,,,,,,,,,,,,,,,,,,,,,,,992.9464,2,audio/Narrative6Situation9.wav,996.947,,996.947,1006.8925,"[[999,9],[999,83],[999,167],[999,251],[999,333],[999,417],[999,500],[999,584],[999,667],[999,750],[999,835],[999,918],[999,1000],[999,1085],[999,1168],[999,1252],[999,1335],[999,1418],[999,1502],[999,1585],[999,1668],[999,1751],[999,1835],[999,1918],[999,2002]]",1006.8926,1010.5789,0,3.1842,"[{""rating"":0,""responseTime"":3.1842000000476673}]",space,3.1537,,1010.5791,Definitely yes,100,1013.7001,100,2.6606,"[{""rating"":100,""responseTime"":2.660600000024033}]",space,0,9,9,9,1,audio/Narrative7Situation9.wav,audio/Narrative8Situation9.wav,audio/Narrative5Situation9.wav,audio/Narrative6Situation9.wav,2,3,3,4,,,2.5853,,,,,,,,,,,,,,,,,,,,,,,,,,,,,,,,,,
,,,,,66abc79f0812c1f89a25adfb,2025-07-07_21h11.48.111,group3.4_multiperson,2023.2.2,MacIntel,59.88023952,686c2ebf0248f13bef9af11f,686c7c00fb44677680e080e4,,,,,,,,,,,,,,,,,,,,,,,,,,,,,1013.7004,2,audio/Narrative5Situation1.wav,1018.7057,,1018.7058,1032.0034,"[[53,750],[54.4,834],[58.8,916],[61.8,1000],[60.4,1084],[58,1167],[57.1,1250],[56,1334],[53.9,1417],[50.3,1501],[50.2,1585],[50.2,1668],[50.2,1751],[50.2,1834],[50.2,1918],[50.2,2002],[50.2,2084],[50.2,2168],[50.2,2252],[50.2,2334],[50.2,2418],[50.2,2502],[50.2,2586],[50.2,2669],[50.2,2752],[50.2,2835],[50.3,2920],[50.3,3002],[50.3,3086],[50.3,3170],[50.3,3253],[50.5,3336],[50.5,3419],[50.5,3503],[49.2,3587],[49.1,3670],[47.8,3754],[36.5,3836],[6.1,3920],[3.9,4003],[3.9,4087],[3.9,4171],[3.9,4254],[3.6,4337],[2.7,4421],[2.6,4504],[2.6,4588],[2.6,4671],[2.6,4754],[2.6,4838],[2.6,4922],[2.6,5004],[2.6,5088],[2.6,5172],[2.6,5255],[2.6,5338],[2.6,5422],[2.6,5505],[2.6,5589],[2.6,5672],[2.6,5755],[2.6,5839],[2.6,5923],[2.6,6006],[2.6,6089],[2.6,6173],[2.6,6257],[2.6,6339],[2.6,6423],[2.6,6507],[2.6,6589],[2.6,6673],[2.7,6757],[3.7,6840],[8.2,6924],[28.1,7007],[63.1,7090],[88,7174],[95.3,7258],[95.1,7341],[93.2,7424],[80.5,7508],[58.8,7591],[56.3,7674],[44.9,7758],[38.4,7841],[38.9,7925],[40.1,8009],[43.6,8092],[45.3,8175],[45.4,8258],[46.4,8342],[47.6,8425],[48.4,8509],[48.9,8592],[49.3,8675],[48.8,8758],[48.8,8842],[48.8,8926],[48.8,9009],[48.4,9093],[48,9176],[48.1,9260],[49.4,9343],[49.8,9426],[50.1,9510],[50.6,9593],[50.8,9677],[50.8,9760],[50.8,9843],[50.8,9926],[50.8,10010],[50.8,10094],[50.6,10177],[50.7,10261],[69.3,10344],[99.9,10677],[100,10761],[100,10844],[100,10928],[100,11012],[100,11095],[100,11178],[100,11262],[100,11345],[100,11428],[100,11511],[100,11595],[100,11678],[100,11762],[100,11846],[100,11930],[100,12013],[100,12095],[100,12179],[100,12262],[100,12346],[100,12429],[100,12513],[100,12596],[100,12679],[100,12763],[100,12846],[100,12930],[100,13013],[100,13097],[100,13181],[100,13264]]",1032.0035,1036.4259,49.57641602,3.5559,"[{""rating"":49.576416015625,""responseTime"":3.555899999976191}]",space,3.8897,,1036.426,Not at all,0,1036.4291,,,[],,0,10,10,10,1,audio/Narrative8Situation1.wav,audio/Narrative7Situation1.wav,audio/Narrative6Situation1.wav,audio/Narrative5Situation1.wav,5,2,2,5,,,,,,,,,,,,,,,,,,,,,,,,,,,,,,,,,,,,,
,,,,,66abc79f0812c1f89a25adfb,2025-07-07_21h11.48.111,group3.4_multiperson,2023.2.2,MacIntel,59.88023952,686c2ebf0248f13bef9af11f,686c7c00fb44677680e080e4,,,,,,,,,,,,,,,,,,,,,,,,,,,,,1036.4293,2,audio/Narrative5Situation2.wav,1039.4452,,1039.4452,1068.8957,"[[51.7,417],[50.3,501],[50.2,585],[50.2,667],[50.4,750],[50.4,834],[50.4,917],[50.1,1000],[50,1085],[49.9,1168],[49.9,1252],[49.9,1335],[50,1419],[50.5,1501],[51.2,1585],[51.3,1669],[51.4,1753],[51.4,1836],[51.5,1918],[51.7,2003],[52,2086],[52.6,2169],[53.3,2252],[54,2336],[54.5,2419],[54.9,2503],[55.2,2586],[55.2,2670],[55.2,2752],[55.2,2837],[55.2,2919],[55.2,3003],[55.2,3087],[55.2,3170],[55.2,3253],[55.2,3336],[55.2,3420],[55.2,3504],[55.2,3587],[55.2,3671],[55.2,3754],[55.2,3838],[55.2,3920],[55.2,4005],[55.2,4088],[55.2,4172],[55.2,4255],[55.2,4337],[55.2,4422],[55.2,4504],[55.2,4588],[55.2,4672],[55.2,4755],[55.2,4839],[62.7,4922],[75.3,5005],[77.3,5089],[77.3,5172],[77.3,5255],[77.3,5339],[77.3,5423],[77.3,5505],[77.3,5590],[77.3,5673],[77.3,5757],[77.3,5839],[77.3,5923],[77.3,6007],[77.3,6090],[77.3,6173],[77.3,6257],[77.3,6341],[77.3,6424],[77.3,6507],[77.3,6591],[77.3,6674],[77.3,6758],[77.3,6840],[75.5,6924],[65.7,7007],[59.2,7091],[57.2,7175],[55.3,7258],[51,7341],[48.6,7425],[48.7,7508],[50.4,7591],[50.5,7675],[50.5,7759],[50.5,7842],[50.5,7925],[50.5,8009],[51.5,8093],[54.6,8176],[70.7,8259],[93.6,8342],[100,8426],[100,8509],[100,8593],[100,8677],[100,8759],[100,8843],[100,8926],[100,9010],[100,9094],[100,9177],[100,9260],[100,9344],[100,9427],[100,9511],[100,9594],[99.9,9677],[100,9761],[100,9844],[100,9928],[100,10011],[100,10095],[100,10178],[100,10262],[100,10345],[100,10429],[100,10511],[100,10595],[100,10679],[100,10762],[100,10846],[100,10929],[100,11012],[100,11095],[100,11179],[100,11262],[100,11346],[100,11430],[100,11513],[100,11596],[100,11679],[100,11763],[100,11847],[100,11930],[100,12013],[100,12097],[100,12181],[100,12264],[100,12347],[100,12430],[100,12514],[100,12598],[100,12680],[100,12765],[100,12848],[100,12931],[100,13014],[100,13098],[100,13181],[100,13265],[100,13348],[100,13431],[100,13516],[100,13599],[100,13682],[100,13766],[100,13849],[100,13932],[100,14015],[100,14099],[100,14183],[100,14266],[100,14349],[100,14433],[100,14516],[100,14599],[100,14683],[100,14767],[100,14850],[100,14933],[100,15017],[100,15100],[100,15184],[100,15267],[100,15351],[100,15434],[100,15518],[100,15600],[100,15684],[100,15768],[100,15851],[100,15934],[100,16018],[100,16102],[100,16185],[100,16268],[100,16352],[100,16435],[100,16519],[100,16602],[100,16685],[100,16769],[100,16852],[100,16935],[100,17019],[100,17103],[100,17186],[100,17269],[100,17353],[100,17436],[100,17519],[100,17603],[100,17686],[100,17770],[100,17854],[100,17937],[100,18020],[100,18104],[100,18187],[100,18270],[100,18354],[100,18438],[100,18520],[100,18604],[100,18688],[100,18771],[100,18854],[100,18938],[100,19022],[100,19105],[100,19188],[100,19272],[100,19355],[100,19439],[100,19522],[100,19605],[100,19688],[100,19771],[100,19855],[100,19939],[100,20023],[100,20106],[100,20189],[100,20273],[100,20357],[100,20439],[100,20523],[100,20607],[100,20690],[100,20774],[100,20857],[100,20940],[100,21024],[100,21106],[100,21190],[100,21273],[100,21357],[100,21440],[100,21524],[100,21608],[100,21691],[100,21774],[100,21858],[100,21941],[100,22024],[100,22108],[100,22192],[100,22274],[100,22358],[100,22442],[100,22525],[100,22609],[100,22691],[100,22775],[100,22859],[100,22943],[100,23026],[100,23109],[100,23193],[100,23276],[100,23359],[100,23443],[100,23527],[100,23610],[100,23693],[100,23777],[100,23860],[100,23944],[100,24026],[100,24110],[100,24194],[100,24278],[100,24360],[100,24444],[100,24527],[100,24611],[100,24694],[100,24778],[100,24862],[100,24945],[100,25027],[100,25112],[100,25195],[100,25279],[100,25361],[100,25445],[100,25529],[100,25612],[100,25695],[100,25779],[100,25862],[100,25946],[100,26029],[100,26112],[100,26196],[100,26279],[100,26362],[100,26447],[100,26530],[100,26613],[100,26697],[100,26780],[100,26864],[100,26946],[100,27030],[53.1,27114],[8.6,27197],[8.7,27280],[8.7,27364],[8.7,27447],[8.7,27531],[6.8,27614],[3.6,27698],[3.3,27782],[2.4,27864],[1.8,27948],[0,28032],[1.2,28949],[38.7,29032],[80.5,29116],[83.5,29199],[83.5,29282],[83.5,29366],[83.5,29450]]",1068.8958,1073.9172,99.89257813,1.362,"[{""rating"":99.892578125,""responseTime"":1.36200000000008}]",space,4.4718,,1073.9172,Partially,50,1073.9294,,,[],,0,11,11,11,1,audio/Narrative8Situation2.wav,audio/Narrative7Situation2.wav,audio/Narrative6Situation2.wav,audio/Narrative5Situation2.wav,3,3,3,3,,,,,,,,,,,,,,,,,,,,,,,,,,,,,,,,,,,,,
,,,,,66abc79f0812c1f89a25adfb,2025-07-07_21h11.48.111,group3.4_multiperson,2023.2.2,MacIntel,59.88023952,686c2ebf0248f13bef9af11f,686c7c00fb44677680e080e4,,,,,,,,,,,,,,,,,,,,,,,,,,,,,1073.9297,2,audio/Narrative5Situation3.wav,1076.9376,space,1076.9376,1090.8369,"[[999,9],[999,83],[999,167],[999,250],[999,333],[999,416],[50,500],[51.2,583],[52.2,667],[55.7,751],[55.6,834],[55.6,917],[55.5,1001],[55.5,1084],[50.6,1168],[24.4,1251],[9.5,2753],[58.3,2836],[74.1,2920],[76.5,3003],[86.9,3086],[96.4,3170],[99.6,3253],[99.8,3336],[99.8,3420],[99.8,3504],[99.8,3587],[99.8,3670],[99.8,3754],[99.8,3837],[99.9,3921],[99.9,4004],[99.9,4088],[99.9,4171],[99.9,4254],[99.9,4338],[99.9,4421],[99.9,4505],[99.9,4587],[99.9,4671],[99.9,4755],[99.9,4839],[99.9,4922],[99.9,5005],[99.9,5089],[99.9,5172],[99.9,5255],[99.9,5339],[99.9,5423],[99.9,5506],[99.9,5589],[99.9,5673],[99.9,5756],[99.9,5840],[99.9,5923],[99.9,6006],[99.9,6090],[99.9,6173],[99.9,6256],[99.9,6340],[99.9,6424],[99.9,6507],[99.9,6590],[99.9,6674],[99.9,6758],[99.9,6841],[99.9,6924],[99.9,7008],[99.9,7091],[99.9,7175],[99.9,7258],[99.9,7341],[99.9,7425],[99.9,7507],[99.9,7591],[99.9,7675],[99.9,7759],[99.9,7842],[99.9,7925],[99.9,8009],[99.9,8093],[99.9,8175],[99.9,8259],[99.9,8343],[99.9,8426],[99.9,8510],[99.9,8593],[99.9,8676],[99.9,8759],[99.9,8842],[99.9,8926],[99.9,9010],[99.9,9094],[99.9,9176],[99.9,9260],[99.9,9343],[99.9,9427],[99.9,9510],[99.9,9594],[99.9,9678],[99.9,9761],[99.9,9844],[99.9,9928],[99.9,10011],[99.9,10094],[99.9,10178],[99.9,10261],[99.9,10345],[99.9,10428],[99.9,10511],[99.9,10595],[99.9,10679],[99.9,10762],[99.9,10845],[99.9,10929],[99.9,11012],[99.9,11095],[99.9,11179],[99.9,11263],[99.9,11346],[99.9,11430],[99.9,11513],[99.9,11596],[99.9,11679],[99.9,11762],[99.9,11846],[99.9,11929],[99.9,12013],[99.9,12096],[99.9,12180],[99.9,12263],[99.9,12346],[99.9,12430],[99.9,12513],[99.9,12596],[99.9,12680],[99.9,12764],[99.9,12848],[99.9,12931],[99.9,13014],[99.9,13097],[99.9,13181],[99.9,13264],[99.9,13348],[99.9,13431],[99.9,13515],[99.9,13598],[99.9,13682],[99.9,13765],[99.9,13848]]",1090.837,1092.9896,100,1.6542,"[{""rating"":100,""responseTime"":1.6541999999881227}]",space,1.6176,,1092.9896,Definitely yes,100,1092.9923,,,[],,0,12,12,12,1,audio/Narrative8Situation3.wav,audio/Narrative7Situation3.wav,audio/Narrative6Situation3.wav,audio/Narrative5Situation3.wav,4,8,5,3,0.1704,,,,,,,,,,,,,,,,,,,,,,,,,,,,,,,,,,,,
,,,,,66abc79f0812c1f89a25adfb,2025-07-07_21h11.48.111,group3.4_multiperson,2023.2.2,MacIntel,59.88023952,686c2ebf0248f13bef9af11f,686c7c00fb44677680e080e4,,,,,,,,,,,,,,,,,,,,,,,,,,,,,1092.9925,2,audio/Narrative5Situation4.wav,1094.0063,,1094.0064,1114.3965,"[[96.9,167],[96.5,251],[96.4,334],[96.4,417],[96.5,500],[97.3,584],[98.6,667],[98.7,751],[99.6,834],[99.8,918],[100,1002],[100,1085],[100,1168],[100,1251],[100,1335],[100,1418],[100,1502],[100,1586],[100,1669],[100,1753],[100,1835],[100,1919],[100,2002],[100,2086],[100,2170],[100,2253],[100,2336],[100,2420],[100,2503],[100,2587],[100,2670],[100,2753],[100,2837],[100,2920],[100,3003],[100,3087],[100,3171],[100,3254],[100,3337],[100,3420],[100,3504],[100,3587],[100,3671],[100,3755],[100,3838],[100,3922],[100,4005],[100,4088],[100,4172],[100,4254],[100,4338],[100,4422],[100,4505],[100,4588],[100,4672],[100,4755],[100,4838],[100,4922],[100,5006],[100,5089],[100,5173],[100,5256],[100,5340],[100,5423],[100,5507],[100,5590],[100,5673],[100,5757],[100,5840],[100,5924],[100,6007],[100,6091],[100,6174],[100,6257],[100,6341],[100,6424],[100,6507],[100,6591],[100,6675],[100,6758],[100,6842],[100,6925],[100,7008],[100,7092],[100,7174],[100,7258],[100,7342],[100,7425],[100,7508],[100,7592],[100,7676],[100,7759],[100,7842],[100,7925],[100,8009],[100,8092],[100,8175],[100,8260],[100,8343],[100,8427],[100,8509],[100,8593],[100,8677],[100,8760],[100,8843],[100,8927],[100,9010],[100,9094],[100,9177],[100,9261],[100,9344],[100,9427],[100,9511],[100,9595],[100,9678],[100,9761],[100,9845],[100,9927],[98,10012],[98,10094],[98,10178],[98.5,10261],[100,10345],[100,10428],[100,10512],[100,10596],[100,10678],[100,10762],[100,10846],[100,10929],[100,11013],[100,11096],[100,11180],[100,11263],[100,11347],[100,11429],[100,11513],[100,11597],[100,11680],[100,11764],[100,11847],[100,11931],[100,12014],[100,12097],[100,12181],[100,12264],[100,12348],[100,12430],[100,12515],[100,12598],[100,12682],[100,12765],[100,12848],[100,12932],[100,13014],[100,13098],[100,13181],[100,13265],[100,13349],[100,13432],[100,13516],[100,13599],[100,13682],[100,13766],[100,13849],[100,13933],[100,14016],[100,14100],[100,14183],[100,14267],[100,14349],[100,14433],[100,14517],[100,14601],[100,14683],[100,14767],[100,14850],[100,14934],[100,15017],[100,15100],[100,15184],[100,15268],[100,15350],[100,15435],[100,15518],[100,15601],[100,15684],[100,15768],[100,15852],[100,15934],[100,16018],[100,16102],[100,16185],[100,16268],[100,16352],[100,16436],[100,16519],[100,16602],[100,16685],[100,16769],[100,16853],[100,16935],[100,17020],[100,17102],[100,17187],[100,17269],[100,17352],[100,17437],[100,17519],[100,17603],[100,17687],[100,17770],[100,17854],[100,17937],[100,18020],[100,18104],[100,18188],[100,18270],[100,18354],[100,18438],[100,18521],[100,18604],[100,18688],[100,18772],[100,18854],[100,18938],[100,19022],[100,19105],[100,19188],[100,19272],[100,19356],[100,19438],[100,19521],[100,19605],[100,19689],[100,19773],[100,19856],[100,19940],[100,20022],[100,20106],[100,20189],[100,20273],[98.8,20356]]",1114.3967,1115.5645,100,0.7451,"[{""rating"":100,""responseTime"":0.7450999999641681}]",space,0.6406,,1115.5645,Not at all,0,1115.5672,,,[],,0,13,13,13,1,audio/Narrative8Situation4.wav,audio/Narrative7Situation4.wav,audio/Narrative6Situation4.wav,audio/Narrative5Situation4.wav,3,3,2,1,,,,,,,,,,,,,,,,,,,,,,,,,,,,,,,,,,,,,
,,,,,66abc79f0812c1f89a25adfb,2025-07-07_21h11.48.111,group3.4_multiperson,2023.2.2,MacIntel,59.88023952,686c2ebf0248f13bef9af11f,686c7c00fb44677680e080e4,,,,,,,,,,,,,,,,,,,,,,,,,,,,,1115.5674,2,audio/Narrative5Situation5.wav,1120.5699,,1120.57,1135.988,"[[95.8,417],[95.5,501],[96.1,583],[97.1,667],[99.2,750],[100,834],[100,917],[100,1000],[100,1084],[100,1167],[100,1251],[100,1335],[100,1419],[100,1501],[100,1585],[100,1668],[100,1752],[100,1834],[100,1918],[100,2002],[100,2086],[100,2168],[100,2252],[100,2336],[100,2419],[100,2502],[2.5,4171],[7.9,4255],[12.2,4338],[14.4,4422],[16,4505],[17.6,4588],[18.6,4672],[18.9,4755],[19.2,4839],[19.6,4922],[22.4,5005],[25.3,5089],[6.1,5173]]",1135.9881,1137.8398,0,1.3325,"[{""rating"":0,""responseTime"":1.3324999999999818}]",space,1.3031,,1137.8398,Partially,50,1137.8426,,,[],,0,14,14,14,1,audio/Narrative8Situation5.wav,audio/Narrative7Situation5.wav,audio/Narrative6Situation5.wav,audio/Narrative5Situation5.wav,2,5,2,5,,,,,,,,,,,,,,,,,,,,,,,,,,,,,,,,,,,,,
,,,,,66abc79f0812c1f89a25adfb,2025-07-07_21h11.48.111,group3.4_multiperson,2023.2.2,MacIntel,59.88023952,686c2ebf0248f13bef9af11f,686c7c00fb44677680e080e4,,,,,,,,,,,,,,,,,,,,,,,,,,,,,1137.8429,2,audio/Narrative5Situation6.wav,1140.8433,,1140.8433,1146.5325,"[[41.9,83],[41.9,166],[42.4,249],[43,333],[43.1,417],[43.2,500],[43.8,584],[44.7,666],[45.5,750],[45.9,834],[46,917],[46,1001],[46,1084],[46,1167],[46,1251],[46,1335],[46.5,1417],[46.7,1501],[46.8,1584],[46.9,1668],[46.9,1751],[47,1834],[47.2,1919],[47.8,2001],[47.9,2086],[48.2,2168],[48.3,2252],[48.3,2336],[48.3,2419],[48.3,2502],[48.3,2586],[48.6,2669],[49.2,2752],[50.2,2836],[53.4,2919],[78.3,3002],[92.4,3086],[95.9,3169],[100,3253],[100,3337],[100,3420],[100,3503],[100,3587],[100,3670],[100,3753],[100,3836],[100,3921],[100,4004],[95.6,4087],[85.6,4171],[77,4254],[66.7,4337],[56.5,4421],[54.9,4504],[52.3,4587],[52,4671],[52,4754],[52,4838],[52,4922],[52.3,5005],[52.9,5089],[53.7,5172],[55,5255],[55.3,5339],[55.3,5422],[55.3,5505],[55.4,5589],[55.4,5672]]",1146.5327,1148.9356,57.54638672,1.6653,"[{""rating"":57.54638671875,""responseTime"":1.6653000000119391}]",space,1.8755,,1148.9357,Definitely yes,100,1148.9381,,,[],,0,15,15,15,1,audio/Narrative8Situation6.wav,audio/Narrative7Situation6.wav,audio/Narrative6Situation6.wav,audio/Narrative5Situation6.wav,2,3,2,3,,,,,,,,,,,,,,,,,,,,,,,,,,,,,,,,,,,,,
,,,,,66abc79f0812c1f89a25adfb,2025-07-07_21h11.48.111,group3.4_multiperson,2023.2.2,MacIntel,59.88023952,686c2ebf0248f13bef9af11f,686c7c00fb44677680e080e4,,,,,,,,,,,,,,,,,,,,,,,,,,,,,1148.9383,2,audio/Narrative5Situation7.wav,1152.9399,,1152.9399,1173.9643,"[[999,9],[999,83],[999,166],[999,250],[999,334],[999,417],[999,500],[999,584],[999,667],[58,750],[63.5,2085],[63.7,2169],[63.7,2253],[64.1,2335],[65.6,2419],[70.1,2502],[81.5,2586],[93.3,2669],[95.4,2753],[96.4,2837],[97.2,2920],[97.2,3003],[97.2,3086],[97.2,3170],[97.2,3254],[97.2,3337],[97.1,3420],[97.1,3504],[97.1,3587],[97,3671],[97,3754],[97,3837],[97,3921],[97,4004],[97,4088],[96.9,4172],[96.8,4254],[96.6,4338],[96.5,4422],[96.5,4505],[96.5,4588],[96.5,4671],[96.5,4755],[96.5,4839],[96.5,4922],[96.5,5006],[96.5,5089],[96.5,5173],[96.5,5256],[96.5,5339],[96.5,5422],[92.3,5506],[69.1,5589],[57.8,5673],[54.9,5756],[47.3,5839],[46.7,5923],[47.2,6007],[49.2,6090],[50.5,6174],[50.5,6257],[50.5,6340],[50.5,6424],[50.5,6508],[50.5,6591],[50.5,6674],[50.5,6758],[50.5,6841],[50.5,6924],[50.5,7008],[50.5,7091],[50.5,7175],[50.5,7258],[50.5,7341],[50.5,7425],[50.5,7509],[50.5,7591],[50.5,7675],[50.5,7758],[50.5,7842],[50.5,7926],[50.5,8009],[50.5,8092],[50.5,8176],[50.5,8259],[50.5,8342],[50.5,8426],[50.5,8510],[50.5,8593],[50.5,8676],[50.5,8760],[50.5,8843],[50.5,8926],[50.5,9010],[50.5,9094],[50.5,9177],[50.5,9260],[50.5,9344],[50.5,9427],[50.5,9511],[50.5,9594],[50.5,9677],[50.5,9761],[50.5,9843],[50.5,9927],[50.5,10011],[50.5,10095],[50.5,10178],[50.5,10261],[50.5,10345],[50.5,10428],[50.5,10511],[50.5,10595],[50.5,10679],[50.5,10762],[50.5,10846],[50.5,10929],[50.5,11013],[50.5,11096],[50.5,11179],[50.5,11262],[50.5,11345],[50.5,11429],[50.5,11512],[50.5,11597],[50.5,11679],[50.5,11763],[50.5,11846],[50.5,11930],[50.5,12014],[50.5,12097],[50.5,12180],[50.5,12264],[50.5,12347],[50.5,12431],[50.5,12514],[50.5,12597],[50.5,12681],[50.5,12764],[50.5,12847],[50.5,12932],[50.5,13014],[50.5,13098],[50.5,13181],[50.5,13265],[50.5,13348],[50.5,13431],[50.5,13514],[50.5,13599],[50.5,13682],[50.5,13766],[50.5,13849],[50.5,13932],[50.5,14016],[50.5,14098],[50.5,14182],[50.5,14266],[50.5,14350],[50.5,14432],[50.5,14516],[50.5,14600],[50.5,14683],[50.5,14766],[50.5,14850],[50.5,14932],[50.5,15017],[50.5,15099],[50.5,15184],[50.5,15267],[50.5,15351],[50.5,15433],[50.5,15517],[50.5,15601],[50.5,15684],[50.5,15767],[50.5,15851],[50.5,15935],[50.5,16018],[50.5,16101],[50.5,16185],[50.5,16268],[50.5,16351],[50.5,16435],[50.5,16519],[50.5,16602],[50.5,16685],[50.5,16769],[50.5,16852],[50.5,16935],[50.5,17018],[50.5,17102],[50.5,17186],[50.5,17269],[50.5,17353],[50.5,17436],[50.5,17520],[50.5,17603],[50.5,17686],[50.5,17770],[50.5,17854],[50.5,17936],[50.5,18020],[50.5,18104],[50.5,18187],[50.5,18271],[50.5,18353],[50.5,18437],[50.5,18521],[50.5,18604],[50.5,18687],[50.5,18771],[50.5,18855],[50.5,18938],[50.5,19021],[50.5,19105],[50.5,19188],[50.5,19272],[50.5,19355],[50.5,19439],[50.5,19521],[50.5,19605],[50.5,19689],[50.5,19772],[50.5,19856],[50.5,19938],[50.5,20023],[50.5,20106],[50.5,20190],[50.5,20273],[50.5,20356],[50.5,20440],[50.5,20523],[50.5,20606],[50.5,20690],[50.5,20773],[50.5,20856],[50.5,20939],[50.5,21024]]",1173.9644,1180.6716,17.66153971,6.0051,"[{""rating"":17.661539713541668,""responseTime"":6.005100000023958}]",space,6.1759,,1180.6717,Definitely yes,100,1180.6732,,,[],,0,16,16,16,1,audio/Narrative8Situation7.wav,audio/Narrative7Situation7.wav,audio/Narrative6Situation7.wav,audio/Narrative5Situation7.wav,3,5,5,4,,,,,,,,,,,,,,,,,,,,,,,,,,,,,,,,,,,,,
,,,,,66abc79f0812c1f89a25adfb,2025-07-07_21h11.48.111,group3.4_multiperson,2023.2.2,MacIntel,59.88023952,686c2ebf0248f13bef9af11f,686c7c00fb44677680e080e4,,,,,,,,,,,,,,,,,,,,,,,,,,,,,1180.6734,2,audio/Narrative5Situation8.wav,1183.6753,,1183.6754,1192.5018,"[[29.8,83],[30.9,165],[32.4,249],[36.4,333],[37.4,416],[37.4,499],[37.4,583],[37.4,667],[37.4,750],[37.4,833],[37.4,917],[37.4,1000],[37.4,1084],[37.4,1167],[37.4,1250],[37.4,1334],[38.2,1417],[38.3,1500],[38.6,1584],[39.1,1668],[39.4,1751],[39.6,1835],[39.6,1918],[39.6,2002],[39.6,2084],[39.6,2168],[39.6,2252],[39.6,2335],[39.6,2418],[39.6,2502],[39.6,2585],[39.6,2669],[39.6,2752],[39.8,2836],[41.9,2919],[49.8,3002],[67.9,3086],[74,3170],[74,3253],[74,3336],[74,3419],[74,3502],[74.2,3586],[85.1,3669],[100,3753],[100,3837],[100,3920],[100,4004],[100,4087],[100,4171],[100,4254],[100,4337],[100,4420],[100,4504],[99.9,4587],[99.9,4671],[99.9,4754],[100,4837],[99.9,4921],[100,5004],[100,5088],[100,5171],[100,5255],[100,5339],[100,5422],[100,5505],[100,5588],[100,5672],[100,5755],[100,5839],[100,5923],[100,6005],[100,6089],[100,6173],[100,6256],[100,6339],[100,6423],[100,6507],[100,6590],[100,6673],[100,6757],[100,6840],[100,6924],[100,7007],[100,7090],[100,7173],[100,7258],[100,7340],[100,7424],[100,7508],[100,7591],[100,7674],[100,7758],[100,7842],[100,7924],[100,8008],[100,8092],[100,8175],[100,8258],[100,8342],[100,8425],[100,8509],[100,8592],[100,8675],[100,8759]]",1192.5019,1195.3382,100,2.4035,"[{""rating"":100,""responseTime"":2.4034999999998945}]",space,2.2873,,1195.3383,Definitely yes,100,1195.3399,,,[],,0,17,17,17,1,audio/Narrative8Situation8.wav,audio/Narrative7Situation8.wav,audio/Narrative6Situation8.wav,audio/Narrative5Situation8.wav,3,2,5,3,,,,,,,,,,,,,,,,,,,,,,,,,,,,,,,,,,,,,
,,,,,66abc79f0812c1f89a25adfb,2025-07-07_21h11.48.111,group3.4_multiperson,2023.2.2,MacIntel,59.88023952,686c2ebf0248f13bef9af11f,686c7c00fb44677680e080e4,,,,,,,,,,,,,,,,,,,,,,,,,,,,,1195.3402,2,audio/Narrative5Situation9.wav,1198.3418,,1198.3418,1237.8858,"[[100,3587],[100,3670],[100,3753],[100,3837],[100,3921],[100,4003],[100,4087],[100,4171],[100,4254],[100,4337],[100,4421],[100,4504],[100,4588],[100,4671],[100,4754],[100,4838],[100,4921],[100,5005],[100,5088],[100,5172],[100,5255],[100,5339],[100,5421],[100,5506],[100,5589],[100,5672],[100,5756],[100,5839],[100,5923],[100,6005],[100,6089],[100,6173],[100,6257],[100,6340],[100,6423],[100,6507],[100,6590],[100,6673],[100,6756],[100,6841],[100,6924],[100,7007],[100,7091],[100,7174],[100,7258],[100,7340],[100,7424],[100,7508],[100,7591],[100,7674],[100,7758],[100,7842],[100,7924],[100,8008],[100,8091],[100,8175],[100,8259],[100,8341],[100,8426],[100,8508],[100,8592],[100,8675],[100,8759],[100,8843],[100,8925],[100,9009],[100,9093],[100,9176],[100,9260],[100,9343],[100,9427],[100,9510],[100,9593],[100,9676],[100,9760],[100,9844],[100,9926],[100,10010],[100,10094],[100,10177],[100,10260],[100,10344],[100,10427],[100,10510],[100,10594],[100,10678],[100,10761],[100,10845],[100,10928],[100,11011],[100,11095],[100,11178],[100,11261],[100,11345],[100,11429],[100,11512],[100,11595],[100,11679],[100,11762],[100,11845],[100,11929],[100,12013],[100,12096],[100,12180],[100,12263],[100,12346],[100,12430],[100,12512],[100,12596],[100,12680],[100,12764],[100,12847],[100,12930],[100,13014],[100,13097],[100,13180],[100,13264],[100,13348],[100,13431],[100,13514],[100,13598],[100,13681],[100,13764],[100,13848],[100,13931],[100,14015],[100,14099],[100,14182],[100,14265],[100,14349],[100,14432],[100,14515],[100,14598],[100,14682],[100,14765],[100,14848],[100,14932],[100,15016],[100,15100],[100,15183],[100,15266],[100,15349],[100,15432],[100,15516],[100,15600],[100,15684],[100,15766],[100,15850],[100,15934],[100,16017],[100,16100],[100,16184],[100,16268],[100,16350],[100,16433],[100,16518],[100,16601],[100,16685],[100,16768],[100,16852],[100,16935],[100,17019],[100,17101],[100,17186],[100,17269],[100,17352],[100,17435],[100,17519],[100,17603],[100,17686],[100,17769],[100,17853],[100,17936],[100,18020],[100,18103],[100,18186],[100,18270],[100,18352],[100,18437],[100,18520],[100,18604],[100,18687],[100,18770],[100,18854],[100,18938],[100,19020],[100,19104],[100,19187],[100,19271],[100,19354],[100,19438],[100,19521],[100,19605],[100,19687],[100,19771],[100,19855],[100,19938],[100,20021],[100,20105],[100,20189],[100,20272],[100,20355],[100,20439],[100,20522],[100,20606],[100,20689],[100,20773],[100,20856],[100,20940],[100,21023],[100,21106],[100,21190],[100,21272],[100,21356],[100,21440],[100,21523],[100,21607],[100,21690],[100,21773],[100,21857],[100,21940],[100,22024],[100,22108],[100,22191],[100,22274],[100,22358],[100,22441],[100,22525],[100,22607],[100,22691],[100,22775],[100,22858],[100,22942],[100,23025],[100,23109],[100,23192],[100,23275],[100,23358],[100,23442],[100,23526],[100,23608],[100,23693],[100,23775],[100,23859],[100,23942],[100,24026],[100,24110],[100,24192],[100,24276],[100,24360],[100,24443],[100,24527],[100,24610],[100,24694],[100,24777],[100,24860],[100,24943],[100,25028],[100,25111],[100,25194],[100,25278],[100,25361],[100,25445],[100,25527],[100,25611],[100,25695],[100,25778],[100,25861],[100,25945],[100,26029],[100,26112],[100,26195],[100,26278],[100,26362],[100,26446],[100,26528],[100,26612],[100,26696],[100,26780],[100,26862],[100,26946],[100,27030],[100,27113],[100,27196],[100,27280],[100,27364],[100,27447],[100,27530],[100,27614],[100,27697],[100,27780],[100,27864],[100,27948],[100,28030],[100,28115],[100,28198],[100,28281],[100,28364],[100,28447],[100,28531],[100,28615],[100,28699],[100,28781],[100,28865],[100,28949],[100,29032],[100,29115],[100,29198],[100,29282],[100,29366],[100,29449],[100,29533],[100,29616],[100,29699],[100,29782],[100,29866],[100,29950],[100,30033],[100,30116],[100,30200],[100,30283],[100,30367],[100,30450],[100,30534],[100,30617],[100,30700],[100,30784],[100,30868],[100,30951],[100,31034],[100,31117],[100,31201],[100,31284],[100,31367],[100,31450],[100,31535],[100,31618],[100,31701],[100,31785],[100,31869],[100,31952],[100,32035],[100,32119],[100,32202],[100,32286],[100,32368],[100,32453],[100,32536],[100,32620],[100,32702],[100,32786],[100,32870],[100,32953],[100,33036],[100,33120],[100,33203],[100,33287],[100,33370],[100,33453],[100,33537],[100,33621],[100,33703],[100,33787],[100,33871],[100,33954],[100,34037],[100,34121],[100,34204],[100,34287],[100,34371],[100,34455],[100,34538],[100,34621],[100,34705],[100,34788],[100,34872],[100,34955],[100,35038],[100,35122],[100,35206],[100,35288],[100,35373],[100,35456],[100,35540],[100,35622],[100,35706],[100,35790],[100,35873],[100,35956],[100,36040],[100,36123],[100,36207],[100,36290],[100,36374],[100,36457],[100,36541],[100,36623],[100,36708],[100,36791],[100,36875],[100,36957],[100,37041],[100,37125],[100,37207],[100,37291],[100,37375],[100,37458],[100,37542],[100,37625],[100,37709],[100,37792],[100,37875],[100,37958],[100,38042],[100,38126],[100,38208],[100,38292],[100,38376],[100,38459],[100,38542],[100,38626],[100,38709],[100,38793],[100,38876],[100,38960],[100,39043],[100,39127],[100,39210],[100,39293],[100,39377],[100,39461],[100,39543]]",1237.8859,1243.1251,1.086425781,4.8056,"[{""rating"":100,""responseTime"":1.5033000000119046},{""rating"":1.08642578125,""responseTime"":4.805599999964215}]",space,4.7054,,1243.1253,Definitely yes,100,1243.1271,,,[],,0,18,18,18,1,audio/Narrative8Situation9.wav,audio/Narrative7Situation9.wav,audio/Narrative6Situation9.wav,audio/Narrative5Situation9.wav,3,2,4,3,,,,,,,,,,,,,,,,,,,,,,,,,,,,,,,,,,,,,
,,,,,66abc79f0812c1f89a25adfb,2025-07-07_21h11.48.111,group3.4_multiperson,2023.2.2,MacIntel,59.88023952,686c2ebf0248f13bef9af11f,686c7c00fb44677680e080e4,,,,,,,,,,,,,,,,,,,,,,,,,,,,,,,,,,,,,,,,,,,,,,,,,,,,,,,,,,,,,,,,,,,,,,1243.1272,1269.5045,space,25.845,,1269.5051,1287.1751,space,17.3609,,,,,,,,,,,,,,,,,,,,,,,,
