consent.started,consent.stopped,consentResponse.keys,consentResponse.rt,consentResponse.duration,participantID,date,expName,psychopyVersion,OS,frameRate,STUDY_ID,SESSION_ID,opening1.started,opening1.stopped,keyEndingOpening1.keys,keyEndingOpening1.rt,keyEndingOpening1.duration,volumeAdjust.started,volumeAdjust.stopped,endingAdjust.keys,endingAdjust.rt,endingAdjust.duration,opening2.started,opening2.stopped,keyEndingOpening.keys,keyEndingOpening.rt,keyEndingOpening.duration,mouse.x,mouse.y,mouse.leftButton,mouse.midButton,mouse.rightButton,mouse.time,instructionLoop.thisRepN,instructionLoop.thisTrialN,instructionLoop.thisN,instructionLoop.thisIndex,instructionLoop.ran,readyForAudio.started,readyForAudio.stopped,fixation.started,run,audio_played,fixation.stopped,endPractice.keys,audioPre.started,audioPre.stopped,continuousResponses_audio,intRating.started,intRating.stopped,intQuestionSlider.response,intQuestionSlider.rt,intQuestionSlider.history,confirmResponse.keys,confirmResponse.rt,confirmResponse.duration,catchQuestion.started,catch_label,catch_value,catchQuestion.stopped,catchQuestionSlider.response,catchQuestionSlider.rt,catchQuestionSlider.history,confirmResponse_2.keys,audioRunLoop.thisRepN,audioRunLoop.thisTrialN,audioRunLoop.thisN,audioRunLoop.thisIndex,audioRunLoop.ran,conditions1_1,conditions2_1,conditions1_2,conditions2_2,dur1_1,dur2_1,dur1_2,dur2_2,endPractice.rt,endPractice.duration,confirmResponse_2.rt,confirmResponse_2.duration,runIntervalBreak.started,runIntervalBreak.stopped,endingBreakKey.keys,endingBreakKey.rt,endingBreakKey.duration,connection.started,connection.stopped,connectionEnding.keys,connectionEnding.rt,connectionEnding.duration,readyForText.started,readyForText.stopped,textPre.started,run_dup,textPre.stopped,continuousResponses_text,textRunLoop.thisRepN,textRunLoop.thisTrialN,textRunLoop.thisN,textRunLoop.thisIndex,textRunLoop.ran,text1_1,text1_2,text2_1,text2_2,runBreakText.started,runBreakText.stopped,endingBreakKey_2.keys,endingBreakKey_2.rt,endingBreakKey_2.duration,ending.started,ending.stopped,endingEnding.keys,endingEnding.rt,endingEnding.duration
0.0002,487.8041,y,487.4649,,66afcaa60f7d8f58dc21db8e,2025-07-07_23h10.47.213,group3.4_multiperson,2023.2.2,Win32,59.52380952,686c2ebf0248f13bef9af11f,686c852562b8d2d1a1f7c4c2,,,,,,,,,,,,,,,,,,,,,,,,,,,,,,,,,,,,,,,,,,,,,,,,,,,,,,,,,,,,,,,,,,,,,,,,,,,,,,,,,,,,,,,,,,,,,,,,,,,,,,,,
,,,,,66afcaa60f7d8f58dc21db8e,2025-07-07_23h10.47.213,group3.4_multiperson,2023.2.2,Win32,59.52380952,686c2ebf0248f13bef9af11f,686c852562b8d2d1a1f7c4c2,487.805,492.801,space,4.9544,,,,,,,,,,,,,,,,,,,,,,,,,,,,,,,,,,,,,,,,,,,,,,,,,,,,,,,,,,,,,,,,,,,,,,,,,,,,,,,,,,,,,,,,,,,,,,,,,,,,
,,,,,66afcaa60f7d8f58dc21db8e,2025-07-07_23h10.47.213,group3.4_multiperson,2023.2.2,Win32,59.52380952,686c2ebf0248f13bef9af11f,686c852562b8d2d1a1f7c4c2,,,,,,492.8015,493.9838,space,0.8506,,,,,,,,,,,,,,,,,,,,,,,,,,,,,,,,,,,,,,,,,,,,,,,,,,,,,,,,,,,,,,,,,,,,,,,,,,,,,,,,,,,,,,,,,,,,,,,
,,,,,66afcaa60f7d8f58dc21db8e,2025-07-07_23h10.47.213,group3.4_multiperson,2023.2.2,Win32,59.52380952,686c2ebf0248f13bef9af11f,686c852562b8d2d1a1f7c4c2,,,,,,,,,,,493.9966,494.8843,space,0.8643,,[],[],[],[],[],[],0,0,0,0,1,,,,,,,,,,,,,,,,,,,,,,,,,,,,,,,,,,,,,,,,,,,,,,,,,,,,,,,,,,,,,,,,,,,,,,,,,,,,,,
,,,,,66afcaa60f7d8f58dc21db8e,2025-07-07_23h10.47.213,group3.4_multiperson,2023.2.2,Win32,59.52380952,686c2ebf0248f13bef9af11f,686c852562b8d2d1a1f7c4c2,,,,,,,,,,,494.8854,495.6003,space,0.6039,,[],[],[],[],[],[],1,0,1,0,1,,,,,,,,,,,,,,,,,,,,,,,,,,,,,,,,,,,,,,,,,,,,,,,,,,,,,,,,,,,,,,,,,,,,,,,,,,,,,,
,,,,,66afcaa60f7d8f58dc21db8e,2025-07-07_23h10.47.213,group3.4_multiperson,2023.2.2,Win32,59.52380952,686c2ebf0248f13bef9af11f,686c852562b8d2d1a1f7c4c2,,,,,,,,,,,495.6011,496.0667,space,0.4042,,[],[],[],[],[],[],2,0,2,0,1,,,,,,,,,,,,,,,,,,,,,,,,,,,,,,,,,,,,,,,,,,,,,,,,,,,,,,,,,,,,,,,,,,,,,,,,,,,,,,
,,,,,66afcaa60f7d8f58dc21db8e,2025-07-07_23h10.47.213,group3.4_multiperson,2023.2.2,Win32,59.52380952,686c2ebf0248f13bef9af11f,686c852562b8d2d1a1f7c4c2,,,,,,,,,,,496.0673,498.599,space,2.4971,,[],[],[],[],[],[],3,0,3,0,1,,,,,,,,,,,,,,,,,,,,,,,,,,,,,,,,,,,,,,,,,,,,,,,,,,,,,,,,,,,,,,,,,,,,,,,,,,,,,,
,,,,,66afcaa60f7d8f58dc21db8e,2025-07-07_23h10.47.213,group3.4_multiperson,2023.2.2,Win32,59.52380952,686c2ebf0248f13bef9af11f,686c852562b8d2d1a1f7c4c2,,,,,,,,,,,498.5999,499.2821,space,0.6521,,[],[],[],[],[],[],4,0,4,0,1,,,,,,,,,,,,,,,,,,,,,,,,,,,,,,,,,,,,,,,,,,,,,,,,,,,,,,,,,,,,,,,,,,,,,,,,,,,,,,
,,,,,66afcaa60f7d8f58dc21db8e,2025-07-07_23h10.47.213,group3.4_multiperson,2023.2.2,Win32,59.52380952,686c2ebf0248f13bef9af11f,686c852562b8d2d1a1f7c4c2,,,,,,,,,,,499.2829,499.9654,space,0.6578,,[],[],[],[],[],[],5,0,5,0,1,,,,,,,,,,,,,,,,,,,,,,,,,,,,,,,,,,,,,,,,,,,,,,,,,,,,,,,,,,,,,,,,,,,,,,,,,,,,,,
,,,,,66afcaa60f7d8f58dc21db8e,2025-07-07_23h10.47.213,group3.4_multiperson,2023.2.2,Win32,59.52380952,686c2ebf0248f13bef9af11f,686c852562b8d2d1a1f7c4c2,,,,,,,,,,,,,,,,,,,,,,,,,,,499.9707,502.5485,502.6115,1,audio/Narrative13Situation2.wav,504.6148,,504.6151,534.3738,"[[999,3],[999,115],[999,199],[999,281],[999,365],[999,448],[999,532],[999,615],[999,698],[999,782],[999,870],[999,948],[999,1037],[999,1115],[999,1198],[999,1282],[999,1365],[999,1448],[999,1531],[999,1615],[999,1698],[999,1781],[999,1870],[999,1948],[999,2031],[999,2114],[999,2198],[999,2281],[999,2365],[999,2454],[999,2537],[999,2620],[999,2704],[999,2787],[58.3,2865],[59.6,2954],[60.3,3038],[60.6,3121],[61.1,3198],[62.2,3287],[63,3371],[63.4,3453],[63.4,3531],[63.4,3614],[63.4,3697],[63.4,3781],[63.4,3864],[63.4,3947],[63.4,4031],[63.4,4114],[63.4,4197],[63.4,4280],[63.4,4364],[63.4,4447],[63.4,4530],[63.4,4614],[63.4,4697],[63.4,4781],[63.4,4864],[63.4,4947],[63.4,5030],[63.4,5114],[63.4,5197],[63.4,5280],[63.4,5364],[63.4,5447],[63.4,5531],[63.4,5614],[63.4,5697],[63.4,5785],[63.4,5863],[63.4,5947],[63.4,6030],[63.4,6114],[63.4,6197],[63.4,6280],[63.4,6364],[63.4,6446],[63.4,6530],[63.4,6614],[63.4,6697],[63.4,6780],[63.4,6864],[63.4,6947],[63.4,7030],[63.4,7113],[63.4,7197],[63.4,7280],[63.4,7363],[63.4,7447],[63.4,7530],[63.4,7613],[63.4,7697],[63.4,7780],[63.4,7863],[63.4,7947],[63.4,8030],[63.4,8113],[63.4,8197],[63.4,8280],[63.4,8363],[63.4,8447],[63.4,8530],[63.4,8613],[63.4,8696],[63.4,8779],[63.4,8863],[63.4,8946],[63.4,9030],[63.4,9113],[63.4,9196],[63.4,9279],[63.4,9363],[63.4,9446],[63.4,9529],[63.4,9612],[63.4,9696],[63.4,9779],[63.4,9863],[63.4,9946],[63.4,10029],[63.4,10113],[63.4,10196],[63.4,10279],[63.4,10363],[63.4,10445],[63.4,10529],[63.4,10612],[63.4,10696],[63.4,10779],[63.4,10863],[63.4,10946],[63.4,11029],[63.4,11113],[63.4,11196],[63.4,11279],[63.4,11362],[63.4,11446],[63.4,11529],[63.4,11612],[63.4,11696],[63.4,11778],[63.4,11862],[63.4,11946],[63.4,12029],[63.4,12112],[63.4,12196],[63.4,12278],[63.4,12362],[63.4,12446],[63.4,12528],[63.4,12612],[63.4,12695],[63.4,12779],[63.4,12862],[63.4,12945],[63.4,13028],[63.4,13112],[63.4,13195],[63.4,13278],[63.4,13362],[63.4,13445],[63.4,13528],[63.4,13612],[63.4,13695],[63.4,13778],[63.4,13861],[63.4,13945],[63.4,14028],[63.4,14112],[63.4,14195],[63.4,14278],[63.4,14362],[63.4,14445],[63.4,14528],[63.4,14612],[63.4,14695],[63.4,14778],[63.4,14861],[63.4,14945],[63.4,15028],[63.4,15111],[63.4,15195],[63.4,15278],[63.4,15362],[63.4,15445],[63.4,15528],[63.4,15611],[63.4,15695],[63.4,15778],[63.4,15861],[63.4,15945],[63.4,16028],[63.4,16111],[63.4,16195],[63.4,16278],[63.4,16361],[63.4,16445],[63.4,16527],[63.4,16611],[63.4,16695],[63.4,16778],[63.4,16861],[63.4,16944],[63.4,17027],[63.4,17111],[63.4,17194],[63.4,17277],[63.4,17361],[63.4,17444],[63.4,17527],[63.4,17611],[63.4,17694],[63.4,17777],[63.4,17861],[63.4,17944],[63.4,18027],[63.4,18110],[63.4,18194],[63.4,18277],[63.4,18361],[63.4,18444],[63.4,18527],[63.4,18611],[63.4,18694],[63.4,18777],[63.4,18861],[63.4,18945],[63.4,19027],[63.4,19110],[63.4,19194],[63.4,19277],[63.4,19360],[63.4,19444],[63.4,19527],[63.4,19610],[63.4,19694],[63.4,19777],[63.4,19860],[63.4,19944],[63.4,20027],[63.4,20110],[63.4,20194],[63.4,20277],[63.4,20360],[63.4,20443],[63.4,20527],[63.4,20610],[63.4,20693],[63.4,20776],[63.4,20860],[63.4,20943],[63.4,21026],[63.4,21110],[63.4,21193],[63.4,21276],[63.4,21360],[63.4,21443],[63.4,21527],[63.4,21610],[63.4,21693],[63.4,21777],[63.4,21860],[63.4,21943],[63.4,22026],[63.4,22110],[63.4,22193],[63.4,22277],[63.4,22360],[63.4,22443],[63.4,22527],[63.4,22610],[63.4,22693],[63.4,22777],[63.4,22860],[63.4,22943],[63.4,23026],[63.4,23109],[63.4,23193],[63.4,23276],[63.4,23359],[63.4,23443],[63.4,23526],[63.4,23609],[63.4,23693],[63.4,23776],[63.4,23859],[63.4,23943],[63.4,24026],[63.4,24109],[63.4,24192],[63.4,24276],[63.4,24359],[63.4,24443],[63.4,24526],[63.4,24609],[63.4,24692],[63.4,24781],[63.4,24859],[63.4,24942],[63.4,25026],[63.4,25109],[63.4,25192],[63.4,25276],[63.4,25359],[63.4,25442],[63.4,25526],[63.4,25609],[63.4,25692],[63.4,25777],[63.4,25859],[63.4,25942],[63.4,26026],[63.4,26108],[63.4,26192],[63.4,26276],[63.4,26358],[63.4,26443],[63.4,26525],[63.4,26609],[63.4,26692],[63.4,26775],[63.4,26859],[63.4,26942],[63.4,27025],[63.4,27108],[63.4,27192],[63.4,27275],[63.4,27358],[63.4,27447],[63.4,27525],[63.4,27613],[63.4,27692],[63.4,27775],[63.4,27858],[63.4,27942],[63.4,28025],[63.4,28108],[63.4,28191],[63.4,28275],[63.4,28358],[63.4,28441],[63.4,28525],[63.4,28608],[63.4,28691],[63.4,28775],[63.4,28858],[63.4,28941],[63.4,29024],[63.4,29112],[63.4,29191],[63.4,29274],[63.4,29358],[63.4,29442],[63.4,29525],[63.4,29608],[63.4,29691]]",534.3745,1014.6343,66.77083174,479.8137,"[{""rating"":66.77083174387613,""responseTime"":479.81369999999924}]",space,479.7178,,1014.635,Not at all,0,1014.6451,,,[],,0,0,0,0,1,audio/Narrative13Situation2.wav,audio/Narrative13Situation2.wav,audio/Narrative13Situation2.wav,audio/Narrative13Situation2.wav,2,2,2,2,,,,,,,,,,,,,,,,,,,,,,,,,,,,,,,,,,,,,,,
,,,,,66afcaa60f7d8f58dc21db8e,2025-07-07_23h10.47.213,group3.4_multiperson,2023.2.2,Win32,59.52380952,686c2ebf0248f13bef9af11f,686c852562b8d2d1a1f7c4c2,,,,,,,,,,,,,,,,,,,,,,,,,,,,,1014.6459,1,audio/Narrative7Situation1.wav,1016.6503,space,1016.6504,1072.5368,[],1072.5371,1106.9113,65.20833174,32.4641,"[{""rating"":65.20833174387613,""responseTime"":32.46409999999764}]",space,33.8276,,1106.9114,Partially,50,1106.9196,,,[],,0,1,1,1,1,audio/Narrative7Situation1.wav,audio/Narrative8Situation1.wav,audio/Narrative5Situation1.wav,audio/Narrative6Situation1.wav,2,5,5,2,1.9599,,,,,,,,,,,,,,,,,,,,,,,,,,,,,,,,,,,,,,
,,,,,66afcaa60f7d8f58dc21db8e,2025-07-07_23h10.47.213,group3.4_multiperson,2023.2.2,Win32,59.52380952,686c2ebf0248f13bef9af11f,686c852562b8d2d1a1f7c4c2,,,,,,,,,,,,,,,,,,,,,,,,,,,,,1106.9203,1,audio/Narrative7Situation2.wav,1109.9273,,1109.9274,1117.4088,"[[68.4,2999],[68.8,3088],[69,3165],[69.1,3248],[69.1,3332],[69.1,3415],[69.1,3498],[69.1,3581],[70.3,3670],[72,3755],[72.6,3839],[73,3921],[75.1,4004],[76,4081],[76,4164],[76,4248],[76,4331],[76,4415],[76,4498],[76,4582],[76,4665],[76,4748],[76,4831],[76,4915],[76,4998],[76,5081],[76,5164],[76,5248],[76,5331],[76,5415],[76,5498],[76,5581],[76,5665],[76,5748],[76,5831],[76,5915],[76,5998],[76,6081],[76,6165],[76,6248],[76,6331],[76,6414],[76,6498],[76,6581],[76,6664],[76,6748],[76,6831],[76,6914],[76,6997],[76,7081],[76,7164],[76,7247],[76,7331],[76,7414]]",1117.409,1127.7397,85.10416349,9.753,"[{""rating"":85.10416348775227,""responseTime"":9.752999999999929}]",space,9.7889,,1127.7398,Definitely yes,100,1127.7477,,,[],,0,2,2,2,1,audio/Narrative7Situation2.wav,audio/Narrative8Situation2.wav,audio/Narrative5Situation2.wav,audio/Narrative6Situation2.wav,3,3,3,3,,,,,,,,,,,,,,,,,,,,,,,,,,,,,,,,,,,,,,,
,,,,,66afcaa60f7d8f58dc21db8e,2025-07-07_23h10.47.213,group3.4_multiperson,2023.2.2,Win32,59.52380952,686c2ebf0248f13bef9af11f,686c852562b8d2d1a1f7c4c2,,,,,,,,,,,,,,,,,,,,,,,,,,,,,1127.7483,1,audio/Narrative7Situation3.wav,1135.7541,,1135.7542,1145.0189,[],1145.0191,1149.0842,75.41666826,3.3733,"[{""rating"":75.41666825612386,""responseTime"":3.373300000000654}]",space,3.5196,,1149.0843,Partially,50,1149.0915,,,[],,0,3,3,3,1,audio/Narrative7Situation3.wav,audio/Narrative8Situation3.wav,audio/Narrative5Situation3.wav,audio/Narrative6Situation3.wav,8,4,3,5,,,,,,,,,,,,,,,,,,,,,,,,,,,,,,,,,,,,,,,
,,,,,66afcaa60f7d8f58dc21db8e,2025-07-07_23h10.47.213,group3.4_multiperson,2023.2.2,Win32,59.52380952,686c2ebf0248f13bef9af11f,686c852562b8d2d1a1f7c4c2,,,,,,,,,,,,,,,,,,,,,,,,,,,,,1149.0922,1,audio/Narrative7Situation4.wav,1152.1005,,1152.1006,1163.8141,"[[80.3,1916],[80.3,1999],[80.3,2082],[80.3,2165],[80.3,2249],[80.3,2332],[80.3,2415],[80.3,2499],[80.3,2582],[80.3,2665],[80.3,2749],[80.3,2832],[80.3,2915],[80.3,2998],[80.3,3082],[80.3,3165],[80.3,3248],[80.3,3332],[80.3,3415],[80.3,3498],[80.3,3581],[80.3,3665],[80.3,3748],[80.3,3832],[80.3,3915],[80.3,3999],[80.3,4082],[80.3,4165],[80.3,4248],[80.3,4332],[80.3,4415],[80.3,4498],[80.3,4581],[80.3,4664],[80.3,4748],[80.3,4831],[80.3,4914],[80.3,4998],[80.3,5081],[80.3,5164],[80.3,5248],[80.3,5331],[80.3,5414],[80.3,5498],[80.3,5581],[80.3,5664],[80.3,5748],[80.3,5831],[80.3,5914],[80.3,5997],[80.3,6081],[80.3,6164],[80.3,6247],[80.3,6331],[80.3,6414],[80.3,6497],[80.3,6581],[80.3,6664],[80.3,6747],[80.3,6831],[80.3,6914],[80.3,6997],[80.3,7080],[80.3,7164],[80.3,7247],[80.3,7331],[80.3,7414],[80.3,7497],[80.3,7580],[80.3,7664],[80.3,7747],[80.3,7830],[80.3,7914],[80.3,7997],[80.3,8081],[80.3,8163],[80.3,8247],[80.3,8330],[80.3,8413],[80.3,8497],[80.3,8581],[80.3,8663],[80.3,8747],[80.3,8830],[80.3,8913],[80.3,8997],[80.3,9080],[80.3,9163],[80.3,9247],[80.3,9330],[80.3,9413],[80.3,9497],[80.3,9580],[80.3,9663],[80.3,9747],[80.3,9830],[80.3,9913],[80.3,9996],[80.3,10080],[80.3,10163],[80.3,10247],[80.3,10330],[80.3,10413],[80.3,10496],[80.3,10580],[80.3,10663],[80.3,10746],[80.3,10829],[80.3,10913],[80.3,10996],[80.3,11080],[80.3,11163],[80.3,11251],[80.3,11330],[80.3,11413],[80.3,11496],[80.3,11580],[80.3,11663]]",1163.8143,1178.2439,78.74999841,13.8343,"[{""rating"":78.7499984105428,""responseTime"":13.834300000000894}]",space,13.8912,,1178.244,Not at all,0,1178.2508,,,[],,0,4,4,4,1,audio/Narrative7Situation4.wav,audio/Narrative8Situation4.wav,audio/Narrative5Situation4.wav,audio/Narrative6Situation4.wav,3,3,1,2,,,,,,,,,,,,,,,,,,,,,,,,,,,,,,,,,,,,,,,
,,,,,66afcaa60f7d8f58dc21db8e,2025-07-07_23h10.47.213,group3.4_multiperson,2023.2.2,Win32,59.52380952,686c2ebf0248f13bef9af11f,686c852562b8d2d1a1f7c4c2,,,,,,,,,,,,,,,,,,,,,,,,,,,,,1178.2513,1,audio/Narrative7Situation5.wav,1183.2594,,1183.2595,1191.7574,"[[78,4247],[78,4332],[78,4414],[78,4498],[78,4581],[78,4664],[78,4748],[78,4831],[78,4914],[78,4998],[78,5081],[78,5164],[78,5248],[78,5331],[78,5414],[78,5498],[78,5581],[78,5664],[78,5748],[78,5831],[78,5914],[78,5998],[78,6081],[78,6164],[78,6248],[78,6331],[78,6414],[78,6498],[78,6581],[78,6664],[78,6747],[78,6831],[78,6914],[78,6998],[78,7081],[78,7164],[78,7247],[78,7330],[78,7414],[78,7497],[78,7581],[78,7669],[78,7747],[78,7830],[78,7914],[78,8002],[78,8081],[78,8164],[78,8247],[78,8330],[78,8414],[78,8497]]",1191.7576,1196.0563,75.41666826,0.409,"[{""rating"":75.41666825612386,""responseTime"":0.4089999999998781}]",space,3.7498,,1196.0566,Not at all,0,1196.0607,,,[],,0,5,5,5,1,audio/Narrative7Situation5.wav,audio/Narrative8Situation5.wav,audio/Narrative5Situation5.wav,audio/Narrative6Situation5.wav,5,2,5,2,,,,,,,,,,,,,,,,,,,,,,,,,,,,,,,,,,,,,,,
,,,,,66afcaa60f7d8f58dc21db8e,2025-07-07_23h10.47.213,group3.4_multiperson,2023.2.2,Win32,59.52380952,686c2ebf0248f13bef9af11f,686c852562b8d2d1a1f7c4c2,,,,,,,,,,,,,,,,,,,,,,,,,,,,,1196.0613,1,audio/Narrative7Situation6.wav,1199.0723,,1199.0724,1209.0535,"[[82.3,1082],[82.3,1165],[82.3,1249],[82.3,1332],[82.3,1415],[82.3,1498],[82.3,1582],[82.3,1665],[82.3,1749],[82.3,1837],[82.3,1915],[82.3,1999],[82.3,2081],[82.3,2165],[82.3,2249],[82.3,2331],[82.3,2415],[82.3,2499],[82.3,2582],[82.3,2665],[82.3,2749],[82.3,2831],[82.3,2915],[82.3,2998],[82.3,3081],[82.3,3165],[82.3,3254],[82.3,3331],[82.3,3415],[82.3,3498],[82.3,3581],[82.3,3665],[82.3,3748],[82.3,3831],[82.3,3915],[82.3,3998],[82.3,4086],[82.3,4164],[82.3,4248],[82.3,4331],[82.3,4414],[82.3,4498],[82.3,4581],[82.3,4664],[82.3,4748],[82.3,4831],[82.3,4914],[82.3,4998],[82.3,5081],[82.3,5164],[82.3,5248],[82.3,5331],[82.3,5414],[82.3,5498],[82.3,5581],[82.3,5664],[82.3,5747],[82.3,5831],[82.3,5914],[82.3,5998],[82.3,6081],[82.3,6164],[82.3,6248],[82.3,6331],[82.3,6414],[82.3,6498],[82.3,6581],[82.3,6664],[82.3,6747],[82.3,6831],[82.3,6914],[82.3,6998],[82.3,7081],[82.3,7164],[82.3,7247],[82.3,7331],[82.3,7414],[82.3,7497],[82.3,7580],[82.3,7669],[82.3,7747],[82.3,7830],[82.3,7913],[82.3,7997],[82.3,8080],[82.3,8164],[82.3,8247],[82.3,8330],[82.3,8414],[82.3,8497],[82.3,8581],[82.3,8664],[82.3,8747],[82.3,8830],[82.3,8914],[82.3,8997],[82.3,9080],[82.3,9163],[82.3,9247],[82.3,9330],[82.3,9413],[82.3,9496],[82.3,9579],[82.3,9667],[82.3,9746],[82.3,9829],[82.3,9913]]",1209.0538,1220.5338,86.25000318,2.4912,"[{""rating"":86.25000317891438,""responseTime"":2.491199999999253}]",space,10.9319,,1220.534,Partially,50,1220.5415,,,[],,0,6,6,6,1,audio/Narrative7Situation6.wav,audio/Narrative8Situation6.wav,audio/Narrative5Situation6.wav,audio/Narrative6Situation6.wav,3,2,3,2,,,,,,,,,,,,,,,,,,,,,,,,,,,,,,,,,,,,,,,
,,,,,66afcaa60f7d8f58dc21db8e,2025-07-07_23h10.47.213,group3.4_multiperson,2023.2.2,Win32,59.52380952,686c2ebf0248f13bef9af11f,686c852562b8d2d1a1f7c4c2,,,,,,,,,,,,,,,,,,,,,,,,,,,,,1220.5423,1,audio/Narrative7Situation7.wav,1225.5491,,1225.5491,1242.7279,"[[69.4,5248],[69.4,5331],[69.4,5414],[69.4,5503],[69.4,5581],[69.4,5664],[69.4,5748],[69.4,5831],[69.4,5914],[69.4,5998],[69.4,6081],[69.4,6164],[69.4,6248],[69.4,6331],[69.4,6414],[69.4,6498],[69.4,6581],[69.4,6664],[69.4,6748],[69.4,6831],[69.4,6914],[69.4,6998],[69.4,7081],[69.4,7164],[69.4,7247],[69.4,7331],[69.4,7414],[69.4,7497],[69.4,7581],[69.4,7664],[69.4,7747],[69.4,7831],[69.4,7914],[69.4,7997],[69.4,8080],[69.4,8164],[69.4,8247],[69.4,8331],[69.4,8414],[69.4,8497],[69.4,8580],[69.4,8663],[69.4,8747],[69.4,8830],[69.4,8914],[69.4,8997],[69.4,9080],[69.4,9164],[69.4,9247],[69.4,9330],[69.4,9414],[69.4,9497],[69.4,9580],[69.4,9664],[69.4,9747],[69.4,9830],[69.4,9914],[69.4,9997],[69.4,10080],[69.4,10164],[69.4,10247],[69.4,10330],[69.4,10414],[69.4,10497],[69.4,10580],[69.4,10663],[69.4,10746],[69.4,10830],[69.4,10913],[69.4,10997],[69.4,11080],[69.4,11163],[69.4,11246],[69.4,11330],[69.4,11413],[69.4,11496],[69.4,11580],[69.4,11663],[69.4,11747],[69.4,11830],[69.4,11913],[69.4,11996],[69.4,12080],[69.4,12163],[69.4,12246],[69.4,12330],[69.4,12413],[69.4,12496],[69.4,12580],[69.4,12663],[69.4,12746],[69.4,12829],[69.4,12913],[69.4,12996],[69.4,13079],[69.4,13163],[69.4,13246],[69.4,13329],[69.4,13413],[69.4,13496],[69.4,13579],[69.4,13663],[69.4,13745],[69.4,13829],[69.4,13913],[69.4,14001],[69.4,14079],[69.4,14163],[69.4,14245],[69.4,14329],[69.4,14413],[69.4,14495],[69.4,14579],[69.4,14663],[69.4,14746],[69.4,14829],[69.4,14912],[69.4,14995],[69.4,15079],[69.4,15162],[69.4,15245],[69.4,15329],[69.4,15412],[69.4,15495],[69.4,15579],[69.4,15662],[69.4,15745],[69.4,15829],[69.4,15912],[69.4,15995],[69.4,16079],[69.4,16162],[69.4,16245],[69.4,16329],[69.4,16412],[69.4,16495],[69.4,16578],[69.4,16662],[69.4,16745],[69.4,16828],[69.4,16912],[69.4,16995],[69.4,17078],[69.4,17161]]",1242.7282,1245.7274,79.58333492,2.4199,"[{""rating"":79.58333492279053,""responseTime"":2.4198999999985062}]",space,2.451,,1245.7275,Not at all,0,1245.7344,,,[],,0,7,7,7,1,audio/Narrative7Situation7.wav,audio/Narrative8Situation7.wav,audio/Narrative5Situation7.wav,audio/Narrative6Situation7.wav,5,3,4,5,,,,,,,,,,,,,,,,,,,,,,,,,,,,,,,,,,,,,,,
,,,,,66afcaa60f7d8f58dc21db8e,2025-07-07_23h10.47.213,group3.4_multiperson,2023.2.2,Win32,59.52380952,686c2ebf0248f13bef9af11f,686c852562b8d2d1a1f7c4c2,,,,,,,,,,,,,,,,,,,,,,,,,,,,,1245.735,1,audio/Narrative7Situation8.wav,1247.7437,,1247.7438,1257.7743,"[[68.4,5747],[68.4,5831],[68.4,5914],[68.4,5998],[68.4,6081],[68.4,6164],[68.4,6247],[68.4,6331],[80.5,6831],[80.5,6914],[80.5,6998],[80.5,7080],[80.5,7164],[80.5,7248],[80.5,7330],[80.5,7414],[80.5,7497]]",1257.7745,1280.4523,81.25,21.616,"[{""rating"":81.25,""responseTime"":21.615999999999985}]",space,22.1325,,1280.4524,Not at all,0,1280.457,,,[],,0,8,8,8,1,audio/Narrative7Situation8.wav,audio/Narrative8Situation8.wav,audio/Narrative5Situation8.wav,audio/Narrative6Situation8.wav,2,3,3,5,,,,,,,,,,,,,,,,,,,,,,,,,,,,,,,,,,,,,,,
,,,,,66afcaa60f7d8f58dc21db8e,2025-07-07_23h10.47.213,group3.4_multiperson,2023.2.2,Win32,59.52380952,686c2ebf0248f13bef9af11f,686c852562b8d2d1a1f7c4c2,,,,,,,,,,,,,,,,,,,,,,,,,,,,,1280.4576,1,audio/Narrative7Situation9.wav,1282.4683,,1282.4684,1291.0996,"[[999,0],[999,82],[999,166],[999,249],[999,332],[999,416],[999,499],[999,583],[999,665],[999,749],[999,832],[999,916],[999,999],[999,1083],[999,1165],[999,1249],[999,1332],[999,1415],[999,1499],[999,1582],[999,1665],[999,1749],[77.3,1837],[77.3,1915],[77.3,1999],[77.3,2082],[77.3,2165],[77.3,2249],[77.3,2332],[77.3,2415],[77.3,2499],[77.3,2582],[77.3,2665],[77.3,2748],[77.3,2832],[77.3,2915],[77.3,2999],[77.3,3082],[77.3,3165],[77.3,3248],[77.3,3332],[77.3,3415],[77.3,3499],[77.3,3582],[77.3,3665],[77.3,3748],[77.3,3831],[77.3,3915],[77.3,3998],[77.3,4082],[77.3,4165],[77.3,4248],[77.3,4332],[77.3,4420],[77.3,4498],[77.3,4582],[77.3,4665],[77.3,4748],[77.3,4831],[77.3,4914],[77.3,4998],[77.3,5081],[77.3,5165],[77.3,5248],[77.3,5332],[77.3,5415],[77.3,5498],[77.3,5581],[77.3,5664],[77.3,5748],[77.3,5831],[77.3,5914],[77.3,5998],[77.3,6081],[77.3,6165],[77.3,6248],[77.3,6331],[77.3,6415],[77.3,6498],[77.3,6581],[77.3,6665],[77.3,6748],[77.3,6831],[77.3,6914],[77.3,6998],[77.3,7081],[77.3,7164],[77.3,7248],[77.3,7331],[77.3,7414],[77.3,7498],[77.3,7581],[77.3,7664],[77.3,7748],[77.3,7831],[77.3,7914],[77.3,7997],[77.3,8080],[77.3,8164],[77.3,8247],[77.3,8331],[77.3,8414],[77.3,8497],[77.3,8581]]",1291.0999,1303.5462,76.87500318,8.2018,"[{""rating"":76.87500317891438,""responseTime"":8.20180000000073}]",space,11.8986,,1303.5464,Definitely yes,100,1303.5536,,,[],,0,9,9,9,1,audio/Narrative7Situation9.wav,audio/Narrative8Situation9.wav,audio/Narrative5Situation9.wav,audio/Narrative6Situation9.wav,2,3,3,4,,,,,,,,,,,,,,,,,,,,,,,,,,,,,,,,,,,,,,,
,,,,,66afcaa60f7d8f58dc21db8e,2025-07-07_23h10.47.213,group3.4_multiperson,2023.2.2,Win32,59.52380952,686c2ebf0248f13bef9af11f,686c852562b8d2d1a1f7c4c2,,,,,,,,,,,,,,,,,,,,,,,,,,,,,1303.5542,1,audio/Narrative8Situation1.wav,1308.5621,,1308.5622,1331.4623,"[[999,1],[999,82],[999,166],[999,249],[999,332],[999,415],[999,499],[999,582],[999,666],[999,749],[999,832],[999,916],[999,999],[999,1082],[999,1166],[999,1249],[999,1332],[999,1416],[999,1499],[999,1582],[999,1665],[999,1749],[999,1832],[999,1915],[75.4,22772],[75.4,22866]]",1331.4625,1337.9884,74.58333174,5.3399,"[{""rating"":74.58333174387613,""responseTime"":5.339900000002217}]",space,5.9874,,1337.9886,Definitely yes,100,1337.9939,,,[],,0,10,10,10,1,audio/Narrative8Situation1.wav,audio/Narrative7Situation1.wav,audio/Narrative6Situation1.wav,audio/Narrative5Situation1.wav,5,2,2,5,,,,,,,,,,,,,,,,,,,,,,,,,,,,,,,,,,,,,,,
,,,,,66afcaa60f7d8f58dc21db8e,2025-07-07_23h10.47.213,group3.4_multiperson,2023.2.2,Win32,59.52380952,686c2ebf0248f13bef9af11f,686c852562b8d2d1a1f7c4c2,,,,,,,,,,,,,,,,,,,,,,,,,,,,,1337.9945,1,audio/Narrative8Situation2.wav,1341.0038,,1341.0038,1351.1174,"[[76.1,1420],[76.1,1499],[76.1,1589],[76.1,1665],[76.1,1748],[76.1,1832],[76.1,1916],[76.1,1999],[76.1,2082],[76.1,2166],[76.1,2249],[76.1,2332],[76.1,2416],[76.1,2499],[76.1,2582],[76.1,2665],[76.1,2749],[76.1,2832],[76.1,2915],[76.1,2999],[76.1,3082],[76.1,3166],[76.1,3249],[76.1,3332],[76.1,3415],[76.1,3499],[76.1,3582],[76.1,3665],[76.1,3749],[76.1,3832],[76.1,3915],[76.1,3999],[76.1,4082],[76.1,4165],[76.1,4249],[76.1,4332],[76.1,4415],[76.1,4499],[76.1,4582],[76.1,4665],[76.1,4748],[76.1,4831],[76.1,4915],[76.1,4999],[76.1,5081],[76.1,5165],[76.1,5248],[76.1,5331],[76.1,5414],[76.1,5497],[76.1,5581],[76.1,5664],[76.1,5747],[76.1,5831],[76.1,5914],[76.1,6002],[76.1,6081],[76.1,6165],[76.1,6248],[76.1,6331],[76.1,6415],[76.1,6503],[76.1,6580],[76.1,6667],[76.1,6747],[76.1,6831],[76.1,6914],[76.1,6998],[76.1,7081],[76.1,7164],[76.1,7247],[76.1,7331],[76.1,7414],[76.1,7498],[76.1,7581],[76.1,7665],[76.1,7748],[76.1,7831],[76.1,7914],[76.1,7998],[76.1,8080],[76.1,8164],[76.1,8247],[76.1,8331],[76.1,8414],[76.1,8497],[76.1,8580],[76.1,8664],[76.1,8747],[76.1,8830],[76.1,8914],[76.1,8998],[76.1,9080],[76.1,9164],[76.1,9247],[76.1,9330],[76.1,9414],[76.1,9497],[76.1,9580],[76.1,9663],[76.1,9747],[76.1,9830],[76.1,9914],[76.1,9997],[76.1,10080]]",1351.1176,1353.5013,73.85416826,1.49,"[{""rating"":73.85416825612387,""responseTime"":1.490000000000009}]",space,1.8562,,1353.5014,Definitely yes,100,1353.5056,,,[],,0,11,11,11,1,audio/Narrative8Situation2.wav,audio/Narrative7Situation2.wav,audio/Narrative6Situation2.wav,audio/Narrative5Situation2.wav,3,3,3,3,,,,,,,,,,,,,,,,,,,,,,,,,,,,,,,,,,,,,,,
,,,,,66afcaa60f7d8f58dc21db8e,2025-07-07_23h10.47.213,group3.4_multiperson,2023.2.2,Win32,59.52380952,686c2ebf0248f13bef9af11f,686c852562b8d2d1a1f7c4c2,,,,,,,,,,,,,,,,,,,,,,,,,,,,,1353.5062,1,audio/Narrative8Situation3.wav,1357.5217,,1357.5218,1379.9115,"[[70.1,14241],[70.1,14324],[70.1,14408],[70.1,14491],[70.1,14574],[70.1,14657],[70.1,14740],[70.1,14824],[70.1,14907],[70.1,14991],[70.1,15074],[70.1,15157],[70.1,15240],[70.1,15324],[70.1,15407],[77.3,15490],[77.3,15574],[77.3,15657],[77.3,15741],[77.3,15824],[77.3,15907],[77.3,15991],[77.3,16074],[77.3,16157],[77.3,16240],[77.3,16324],[77.3,16407],[77.3,16490],[77.3,16574],[77.3,16657],[77.3,16740],[77.3,16823],[77.3,16907],[77.3,16991],[77.3,17074],[77.3,17157],[77.3,17240],[77.3,17323],[77.3,17407],[77.3,17490],[77.3,17573],[77.3,17656],[77.3,17740],[77.3,17823],[77.3,17907],[77.3,17990],[77.3,18073],[77.3,18157],[77.3,18240],[77.3,18323],[77.3,18407],[77.3,18490],[77.3,18573],[77.3,18656],[77.3,18739],[77.3,18823],[77.3,18906],[77.3,18990],[77.3,19073],[77.3,19156],[77.3,19240],[77.3,19322],[77.3,19406],[77.3,19489],[77.3,19573],[77.3,19656],[77.3,19740],[77.3,19823],[77.3,19906],[77.3,19990],[77.3,20073],[77.3,20156],[77.3,20240],[77.3,20322],[77.3,20406],[77.3,20489],[77.3,20573],[77.3,20656],[77.3,20739],[77.3,20822],[77.3,20906],[77.3,20989],[77.3,21072],[77.3,21156],[77.3,21239],[77.3,21322],[77.3,21406],[77.3,21489],[77.3,21572],[77.3,21656],[77.3,21739],[77.3,21822],[77.3,21906],[77.3,21989],[77.3,22072],[77.3,22156],[77.3,22239],[77.3,22322]]",1379.9118,1383.0935,80.00000318,2.019,"[{""rating"":80.00000317891438,""responseTime"":2.0190000000000055}]",space,2.6332,,1383.0936,Not at all,0,1383.1,,,[],,0,12,12,12,1,audio/Narrative8Situation3.wav,audio/Narrative7Situation3.wav,audio/Narrative6Situation3.wav,audio/Narrative5Situation3.wav,4,8,5,3,,,,,,,,,,,,,,,,,,,,,,,,,,,,,,,,,,,,,,,
,,,,,66afcaa60f7d8f58dc21db8e,2025-07-07_23h10.47.213,group3.4_multiperson,2023.2.2,Win32,59.52380952,686c2ebf0248f13bef9af11f,686c852562b8d2d1a1f7c4c2,,,,,,,,,,,,,,,,,,,,,,,,,,,,,1383.1006,1,audio/Narrative8Situation4.wav,1386.1096,,1386.1097,1400.2897,"[[75.4,2915],[74.9,2999],[74.9,3082],[74.9,3165],[74.9,3249],[74.9,3332],[74.9,3415],[74.9,3499],[74.9,3581],[74.9,3665],[74.9,3748],[74.9,3832],[74.9,3915],[74.9,3998],[74.9,4081],[74.9,4165],[74.9,4248],[74.9,4332],[74.9,4420],[74.9,4498],[74.9,4582],[74.9,4665],[74.9,4748],[74.9,4832],[74.9,4914],[74.9,4998],[74.9,5082],[74.9,5164],[74.9,5248],[74.9,5331],[74.9,5414],[74.9,5498],[74.9,5581],[74.9,5664],[74.9,5748],[74.9,5831],[74.9,5914],[74.9,5998],[74.9,6081],[74.9,6164],[74.9,6248],[74.9,6331],[74.9,6414],[74.9,6497],[74.9,6581],[74.9,6664],[74.9,6747],[74.9,6836],[74.9,6914],[74.9,6998],[74.9,7081],[74.9,7164],[74.9,7247],[74.9,7331],[74.9,7414],[74.9,7497],[74.9,7581],[74.9,7664],[74.9,7747],[74.9,7831],[74.9,7914],[74.9,7997],[74.9,8080],[74.9,8164],[74.9,8247],[74.9,8331],[74.9,8414],[74.9,8497],[74.9,8581],[74.9,8663],[74.9,8747],[74.9,8830],[74.9,8913],[74.9,8997],[74.9,9080],[74.9,9163],[74.9,9247],[74.9,9330],[74.9,9413],[74.9,9497],[74.9,9580],[74.9,9663],[74.9,9747],[74.9,9830],[74.9,9913],[74.9,10002],[74.9,10080],[74.9,10163],[74.9,10247],[74.9,10330],[74.9,10413],[74.9,10497],[74.9,10580],[74.9,10663],[74.9,10747],[74.9,10830],[74.9,10913],[74.9,10997],[74.9,11080],[74.9,11163],[74.9,11247],[74.9,11330],[74.9,11413],[74.9,11497],[74.9,11580],[74.9,11663],[74.9,11746],[74.9,11830],[74.9,11913],[74.9,11996],[74.9,12080],[74.9,12163],[74.9,12246],[74.9,12330],[74.9,12413],[74.9,12496],[74.9,12580],[74.9,12663],[74.9,12746],[74.9,12829],[74.9,12913],[74.9,12996],[74.9,13079],[74.9,13163],[74.9,13246],[74.9,13329],[74.9,13413],[74.9,13496],[74.9,13579],[74.9,13663],[74.9,13746],[74.9,13829],[74.9,13913],[74.9,13996],[74.9,14079],[74.9,14163]]",1400.2899,1405.2045,71.45833174,4.9097,"[{""rating"":71.45833174387613,""responseTime"":4.909699999999248}]",space,3.1487,,1405.2047,Partially,50,1405.2119,,,[],,0,13,13,13,1,audio/Narrative8Situation4.wav,audio/Narrative7Situation4.wav,audio/Narrative6Situation4.wav,audio/Narrative5Situation4.wav,3,3,2,1,,,,,,,,,,,,,,,,,,,,,,,,,,,,,,,,,,,,,,,
,,,,,66afcaa60f7d8f58dc21db8e,2025-07-07_23h10.47.213,group3.4_multiperson,2023.2.2,Win32,59.52380952,686c2ebf0248f13bef9af11f,686c852562b8d2d1a1f7c4c2,,,,,,,,,,,,,,,,,,,,,,,,,,,,,1405.2125,1,audio/Narrative8Situation5.wav,1407.2212,,1407.2212,1415.4688,"[[75.5,1165],[75.5,1249],[75.5,1332],[75.5,1416],[75.5,1499],[75.5,1582],[75.5,1665],[75.5,1749],[75.5,1832],[75.5,1915],[75.5,1999],[75.5,2082],[75.5,2165],[75.5,2249],[75.5,2332],[75.5,2415],[75.5,2499],[75.5,2582],[75.5,2665],[75.5,2749],[75.5,2832],[75.5,2915],[75.5,2999],[75.5,3082],[75.5,3165],[75.5,3248],[75.5,3331],[75.5,3415],[75.5,3499],[75.5,3582],[75.5,3665],[75.5,3748],[75.5,3832],[75.5,3915],[75.5,3998],[75.5,4082],[75.5,4165],[75.5,4248],[75.5,4331],[75.5,4415],[75.5,4498],[75.5,4582],[75.5,4665],[75.5,4748],[75.5,4832],[75.5,4915],[75.5,4998],[75.5,5081],[75.5,5165],[75.5,5248],[75.5,5332],[75.5,5415],[75.5,5498],[75.5,5582],[75.5,5665],[75.5,5748],[75.5,5831],[75.5,5914],[75.5,5997],[75.5,6082],[75.5,6164],[75.5,6248],[75.5,6332],[75.5,6414],[75.5,6497],[75.5,6586],[75.5,6664],[75.5,6748],[75.5,6831],[75.5,6914],[75.5,6997],[75.5,7080],[75.5,7164],[75.5,7248],[75.5,7331],[75.5,7414],[75.5,7497],[75.5,7581],[75.5,7664],[75.5,7747],[75.5,7830],[75.5,7913],[75.5,7997],[75.5,8080],[75.5,8164],[75.5,8247]]",1415.4691,1425.7997,79.58333492,8.8707,"[{""rating"":79.58333492279053,""responseTime"":8.87069999999926}]",space,9.7828,,1425.7999,Not at all,0,1440.9462,0,9.487,"[{""rating"":0,""responseTime"":9.48700000000008}]",space,0,14,14,14,1,audio/Narrative8Situation5.wav,audio/Narrative7Situation5.wav,audio/Narrative6Situation5.wav,audio/Narrative5Situation5.wav,2,5,2,5,,,14.5977,,,,,,,,,,,,,,,,,,,,,,,,,,,,,,,,,,,,
,,,,,66afcaa60f7d8f58dc21db8e,2025-07-07_23h10.47.213,group3.4_multiperson,2023.2.2,Win32,59.52380952,686c2ebf0248f13bef9af11f,686c852562b8d2d1a1f7c4c2,,,,,,,,,,,,,,,,,,,,,,,,,,,,,1440.947,1,audio/Narrative8Situation6.wav,1442.962,,1442.9621,1449.4327,"[[999,0],[999,83],[999,166],[999,250],[999,333],[999,416],[999,500],[999,582],[999,666],[999,749],[999,833],[999,916],[999,999],[999,1083],[999,1166],[999,1249],[999,1333],[999,1415],[999,1500],[999,1582],[999,1666],[999,1749],[999,1832],[67.7,1923],[67.7,1999],[67.7,2082],[67.7,2166],[67.7,2249],[67.7,2332],[67.7,2415],[67.7,2499],[67.7,2582],[67.7,2666],[67.7,2749],[67.7,2832],[67.7,2916],[67.7,2999],[67.7,3082],[67.7,3166],[67.7,3249],[67.7,3332],[67.7,3421],[67.7,3499],[67.7,3582],[67.7,3665],[67.7,3748],[67.7,3834],[67.7,3919],[67.7,3998],[67.7,4082],[67.7,4165],[67.7,4249],[67.7,4332],[67.7,4415],[67.7,4499],[67.7,4581],[67.7,4665],[67.7,4748],[67.7,4831],[67.7,4915],[67.7,4999],[67.7,5081],[67.7,5165],[67.7,5249],[67.7,5331],[67.7,5415],[67.7,5498],[67.7,5581],[67.7,5665],[67.7,5748],[67.7,5836],[67.7,5914],[67.7,5998],[67.7,6081],[67.7,6165],[67.7,6248],[67.7,6331],[67.7,6415]]",1449.4328,1455.3593,78.3333381,4.1642,"[{""rating"":78.33333810170491,""responseTime"":4.164199999999255}]",space,5.3831,,1455.3594,Partially,50,1455.3657,,,[],,0,15,15,15,1,audio/Narrative8Situation6.wav,audio/Narrative7Situation6.wav,audio/Narrative6Situation6.wav,audio/Narrative5Situation6.wav,2,3,2,3,,,,,,,,,,,,,,,,,,,,,,,,,,,,,,,,,,,,,,,
,,,,,66afcaa60f7d8f58dc21db8e,2025-07-07_23h10.47.213,group3.4_multiperson,2023.2.2,Win32,59.52380952,686c2ebf0248f13bef9af11f,686c852562b8d2d1a1f7c4c2,,,,,,,,,,,,,,,,,,,,,,,,,,,,,1455.3664,1,audio/Narrative8Situation7.wav,1458.3751,,1458.3751,1470.4727,"[[69.2,1166],[69.2,1255],[69.2,1332],[69.2,1416],[69.2,1499],[69.2,1582],[70.4,1833],[71.3,1923],[71.3,1999],[71.3,2082],[71.3,2166],[71.3,2249],[71.3,2332],[71.3,2416],[71.3,2499],[71.3,2582],[71.3,2666],[71.3,2749],[71.3,2837],[71.3,2916],[71.3,2998],[71.3,3082],[71.3,3165],[71.3,3249],[71.3,3332],[71.3,3415],[71.3,3498],[71.3,3582],[71.3,3665],[71.3,3748],[71.3,3831],[71.3,3915],[71.3,3998],[71.3,4082],[71.3,4165],[71.3,4248],[71.3,4332],[71.3,4415],[71.3,4498],[71.3,4581],[71.3,4665],[71.3,4748],[71.3,4832],[71.3,4915],[71.3,4998],[71.3,5081],[71.3,5165],[71.3,5248],[71.3,5331],[71.3,5415],[71.3,5498],[71.3,5581],[71.3,5665],[71.3,5748],[71.3,5831],[71.3,5919],[71.3,5998],[71.3,6081],[71.3,6165],[71.3,6248],[71.3,6331],[71.3,6415],[71.3,6498],[71.3,6581],[71.3,6665],[71.3,6748],[71.3,6831],[71.3,6915],[71.3,6997],[71.3,7081],[71.3,7164],[71.3,7247],[71.3,7331],[71.3,7414],[71.3,7497],[71.3,7581],[71.3,7664],[71.3,7748],[71.3,7831],[71.3,7914],[71.3,7997],[71.3,8081],[71.3,8164],[71.3,8248],[71.3,8331],[71.3,8414],[71.3,8497],[71.3,8581],[71.3,8664],[71.3,8747],[71.3,8831],[71.3,8914],[71.3,8998],[71.3,9081],[71.3,9164],[71.3,9247],[71.3,9330],[71.3,9414],[71.3,9497],[71.3,9580],[71.3,9664],[71.3,9747],[71.3,9830],[71.3,9914],[71.3,9997],[71.3,10080],[71.3,10164],[71.3,10247],[71.3,10330],[71.3,10414],[71.3,10497],[71.3,10580],[71.3,10664],[71.3,10747],[71.3,10830],[71.3,10913],[71.3,10997],[71.3,11080],[71.3,11163],[71.3,11247],[71.3,11330],[71.3,11413],[71.3,11497],[71.3,11580],[71.3,11663],[71.3,11746],[71.3,11830],[71.3,11914],[71.3,11997],[71.3,12080]]",1470.4729,1474.421,73.4375,2.2639,"[{""rating"":67.91667143503824,""responseTime"":1.7383000000006632},{""rating"":73.4375,""responseTime"":2.263900000002195}]",space,3.408,,1474.4212,Definitely yes,100,1474.4285,,,[],,0,16,16,16,1,audio/Narrative8Situation7.wav,audio/Narrative7Situation7.wav,audio/Narrative6Situation7.wav,audio/Narrative5Situation7.wav,3,5,5,4,,,,,,,,,,,,,,,,,,,,,,,,,,,,,,,,,,,,,,,
,,,,,66afcaa60f7d8f58dc21db8e,2025-07-07_23h10.47.213,group3.4_multiperson,2023.2.2,Win32,59.52380952,686c2ebf0248f13bef9af11f,686c852562b8d2d1a1f7c4c2,,,,,,,,,,,,,,,,,,,,,,,,,,,,,1474.4292,1,audio/Narrative8Situation8.wav,1477.4371,,1477.4372,1490.2839,"[[999,0],[999,82],[999,166],[999,249],[999,333],[999,416],[999,499],[999,583],[999,668],[999,749],[999,833],[999,916],[999,999],[999,1083],[999,1166],[999,1249],[999,1333],[999,1416],[999,1499],[999,1583],[999,1666],[999,1749],[999,1832],[999,1916],[84.2,1999],[83,2083],[83,2166],[83,2249],[83,2332],[83,2416],[83,2499],[83,2582],[83,2665]]",1490.2842,1493.383,70.41666508,1.2902,"[{""rating"":70.41666507720947,""responseTime"":1.2901999999992313}]",space,2.5501,,1493.3831,Definitely yes,100,1493.3873,,,[],,0,17,17,17,1,audio/Narrative8Situation8.wav,audio/Narrative7Situation8.wav,audio/Narrative6Situation8.wav,audio/Narrative5Situation8.wav,3,2,5,3,,,,,,,,,,,,,,,,,,,,,,,,,,,,,,,,,,,,,,,
,,,,,66afcaa60f7d8f58dc21db8e,2025-07-07_23h10.47.213,group3.4_multiperson,2023.2.2,Win32,59.52380952,686c2ebf0248f13bef9af11f,686c852562b8d2d1a1f7c4c2,,,,,,,,,,,,,,,,,,,,,,,,,,,,,1493.388,1,audio/Narrative8Situation9.wav,1496.3989,,1496.3989,1507.7134,"[[999,0],[999,83],[999,166],[999,250],[999,333],[999,417],[999,500],[999,583],[999,666],[999,750],[999,833],[999,916],[999,999],[999,1083],[999,1166],[999,1250],[999,1333],[999,1421],[999,1500],[81.5,1582],[81.5,1666],[81.5,1749],[81.5,1833],[81.5,1916],[81.5,1999],[81.5,2083],[81.5,2166],[81.5,2249],[81.5,2333],[81.5,2416],[81.5,2499],[81.5,2582],[81.5,2665],[81.5,2749],[81.5,2833],[81.5,2915],[81.5,2999],[81.5,3083],[81.5,3165],[81.5,3249],[81.5,3332],[81.5,3415],[81.5,3499],[81.5,3582],[81.5,3665],[81.5,3749],[81.5,3832],[81.5,3915],[81.5,3999],[81.5,4082],[81.5,4165],[81.5,4249],[81.5,4332],[81.5,4415],[81.5,4499],[81.5,4582],[81.5,4665],[81.5,4749],[81.5,4832],[81.5,4915],[81.5,4998],[81.5,5082],[81.5,5165],[81.5,5248],[81.5,5333],[81.5,5415],[81.5,5498],[81.5,5581],[81.5,5665],[81.5,5748],[81.5,5832],[81.5,5915],[81.5,5998],[81.5,6082],[81.5,6164],[81.5,6248],[81.5,6331],[81.5,6415],[81.5,6498],[81.5,6581],[81.5,6664],[81.5,6748],[81.5,6832],[81.5,6914],[81.5,6998],[81.5,7082],[81.5,7164],[81.5,7248],[81.5,7331],[81.5,7414],[81.5,7498],[81.5,7581],[81.5,7664],[81.5,7748],[81.5,7831],[81.5,7914],[81.5,7998],[81.5,8081],[81.5,8164],[81.5,8248],[81.5,8331],[81.5,8414],[81.5,8498],[81.5,8581],[81.5,8664],[81.5,8747],[81.5,8831],[81.5,8914],[81.5,8998],[81.5,9081],[81.5,9164],[81.5,9247],[81.5,9331],[81.5,9414],[81.5,9498],[81.5,9581],[81.5,9664],[81.5,9748],[81.5,9831],[81.5,9919],[81.5,9997],[81.5,10081],[81.5,10164],[81.5,10247],[81.5,10331],[81.5,10414],[81.5,10497],[81.5,10581],[81.5,10664],[81.5,10747],[81.5,10830],[81.5,10914],[81.5,10997],[81.5,11081],[81.5,11164],[81.5,11247]]",1507.7137,1510.1293,78.3333381,1.6362,"[{""rating"":78.33333810170491,""responseTime"":1.636199999999235}]",space,1.8671,,1510.1294,Definitely yes,100,1510.1336,,,[],,0,18,18,18,1,audio/Narrative8Situation9.wav,audio/Narrative7Situation9.wav,audio/Narrative6Situation9.wav,audio/Narrative5Situation9.wav,3,2,4,3,,,,,,,,,,,,,,,,,,,,,,,,,,,,,,,,,,,,,,,
,,,,,66afcaa60f7d8f58dc21db8e,2025-07-07_23h10.47.213,group3.4_multiperson,2023.2.2,Win32,59.52380952,686c2ebf0248f13bef9af11f,686c852562b8d2d1a1f7c4c2,,,,,,,,,,,,,,,,,,,,,,,,,,,1512.18,1514.7616,1514.8048,2,audio/Narrative13Situation2.wav,1514.8051,,1514.8051,1549.1429,"[[78.3,906],[78.3,989],[78.3,1072],[78.3,1155],[78.3,1239],[78.3,1322],[78.3,1406],[78.3,1488],[78.3,1572],[78.3,1655],[78.3,1738],[78.3,1822],[78.3,1905],[78.3,1988],[78.3,2072],[78.3,2156],[78.3,2238],[78.3,2322],[78.3,2405],[78.3,2488],[78.3,2571],[78.3,2655],[78.3,2738],[78.3,2821],[78.3,2905],[78.3,2988],[78.3,3072],[78.3,3155],[78.3,3238],[78.3,3322],[78.3,3405],[78.3,3488],[78.3,3571],[78.3,3655],[78.3,3738],[78.3,3821],[78.3,3905],[78.3,3988],[78.3,4071],[78.3,4155],[78.3,4238],[78.3,4321],[78.3,4404],[78.3,4493],[78.3,4571],[78.3,4655],[78.3,4738],[78.3,4821],[78.3,4905],[78.3,4988],[78.3,5071],[78.3,5155],[78.3,5238],[78.3,5321],[78.3,5404],[78.3,5492],[78.3,5571],[78.3,5654],[78.3,5737],[78.3,5821],[78.3,5904],[78.3,5988],[78.3,6071],[78.3,6154],[78.3,6237],[78.3,6321],[78.3,6404],[78.3,6488],[78.3,6570],[78.3,6654],[78.3,6738],[78.3,6821],[78.3,6904],[78.3,6987],[78.3,7071],[78.3,7154],[78.3,7237],[78.3,7320],[78.3,7404],[78.3,7487],[78.3,7570],[78.3,7654],[78.3,7737],[78.3,7820],[78.3,7903],[78.3,7987],[78.3,8071],[78.3,8154],[78.3,8237],[78.3,8320],[78.3,8404],[78.3,8487],[78.3,8570],[78.3,8654],[78.3,8737],[78.3,8820],[78.3,8903],[78.3,8987],[78.3,9070],[78.3,9153],[78.3,9237],[78.3,9320],[78.3,9403],[78.3,9487],[78.3,9570],[78.3,9653],[78.3,9737],[78.3,9820],[78.3,9903],[78.3,9987],[78.3,10070],[78.3,10153],[78.3,10238],[78.3,10320],[78.3,10403],[78.3,10486],[78.3,10570],[78.3,10653],[78.3,10736],[78.3,10819],[78.3,10903],[78.3,10986],[78.3,11069],[78.3,11153],[78.3,11236],[78.3,11319],[78.3,11403],[78.3,11486],[78.3,11569],[78.3,11653],[78.3,11736],[78.3,11819],[78.3,11903],[78.3,11986],[78.3,12069],[78.3,12153],[78.3,12237],[78.3,12319],[78.3,12403],[78.3,12486],[78.3,12569],[78.3,12653],[78.3,12736],[78.3,12819],[78.3,12903],[78.3,12986],[78.3,13069],[78.3,13152],[78.3,13236],[78.3,13319],[78.3,13402],[78.3,13486],[78.3,13569],[78.3,13652],[78.3,13735],[78.3,13819],[78.3,13902],[78.3,13986],[78.3,14069],[78.3,14152],[78.3,14235],[78.3,14319],[78.3,14402],[78.3,14486],[78.3,14568],[78.3,14652],[78.3,14740],[78.3,14818],[78.3,14902],[78.3,14985],[78.3,15068],[78.3,15152],[78.3,15235],[78.3,15318],[78.3,15402],[78.3,15485],[78.3,15568],[78.3,15652],[78.3,15735],[78.3,15818],[78.3,15902],[78.3,15985],[78.3,16068],[78.3,16152],[78.3,16235],[78.3,16318],[78.3,16402],[78.3,16485],[78.3,16568],[78.3,16651],[78.3,16735],[78.3,16818],[78.3,16901],[78.3,16985],[78.3,17068],[78.3,17151],[78.3,17235],[78.3,17318],[78.3,17402],[78.3,17485],[78.3,17568],[78.3,17651],[78.3,17735],[78.3,17818],[78.3,17901],[78.3,17985],[78.3,18068],[78.3,18151],[78.3,18235],[78.3,18318],[78.3,18401],[78.3,18485],[78.3,18568],[78.3,18651],[78.3,18734],[78.3,18817],[78.3,18901],[78.3,18984],[78.3,19068],[78.3,19151],[78.3,19234],[78.3,19317],[78.3,19401],[78.3,19484],[78.3,19568],[78.3,19651],[78.3,19734],[78.3,19818],[78.3,19901],[78.3,19984],[78.3,20067],[78.3,20151],[78.3,20234],[78.3,20318],[78.3,20401],[78.3,20484],[78.3,20568],[78.3,20650],[78.3,20734],[78.3,20818],[78.3,20901],[78.3,20984],[78.3,21067],[78.3,21150],[78.3,21234],[78.3,21317],[78.3,21400],[78.3,21484],[78.3,21567],[78.3,21650],[78.3,21734],[78.3,21817],[78.3,21900],[78.3,21984],[78.3,22067],[78.3,22150],[78.3,22234],[78.3,22317],[78.3,22400],[78.3,22483],[78.3,22567],[78.3,22656],[78.3,22734],[78.3,22817],[78.3,22900],[78.3,22983],[78.3,23067],[78.3,23150],[78.3,23233],[78.3,23317],[78.3,23400],[78.3,23483],[78.3,23567],[78.3,23650],[78.3,23733],[78.3,23817],[78.3,23900],[78.3,23983],[78.3,24067],[78.3,24150],[78.3,24233],[78.3,24317],[78.3,24400],[78.3,24483],[78.3,24567],[78.3,24650],[78.3,24733],[78.3,24816],[78.3,24900],[78.3,24983],[78.3,25066],[78.3,25149],[78.3,25233],[78.3,25316],[78.3,25399],[78.3,25483],[78.3,25566],[78.3,25649],[78.3,25733],[78.3,25816],[78.3,25899],[78.3,25982],[78.3,26065],[78.3,26149],[78.3,26232],[78.3,26315],[78.3,26399],[78.3,26483],[78.3,26566],[78.3,26649],[78.3,26733],[78.3,26816],[78.3,26899],[78.3,26982],[78.3,27066],[78.3,27149],[78.3,27232],[78.3,27315],[78.3,27399],[78.3,27482],[78.3,27566],[78.3,27649],[78.3,27732],[78.3,27816],[78.3,27899],[78.3,27982],[78.3,28066],[78.3,28149],[78.3,28232],[78.3,28316],[78.3,28398],[78.3,28482],[78.3,28566],[78.3,28648],[75.3,34216],[75.4,34337]]",1549.1432,1549.1474,,,[],,,,1549.1474,Partially,50,1549.1521,,,[],,0,0,0,0,1,audio/Narrative13Situation2.wav,audio/Narrative13Situation2.wav,audio/Narrative13Situation2.wav,audio/Narrative13Situation2.wav,2,2,2,2,,,,,1510.1345,1512.1792,space,1.5201,,,,,,,,,,,,,,,,,,,,,,,,,,,,,,,
,,,,,66afcaa60f7d8f58dc21db8e,2025-07-07_23h10.47.213,group3.4_multiperson,2023.2.2,Win32,59.52380952,686c2ebf0248f13bef9af11f,686c852562b8d2d1a1f7c4c2,,,,,,,,,,,,,,,,,,,,,,,,,,,,,1549.1527,2,audio/Narrative5Situation1.wav,1554.1684,,1554.1684,1570.7041,"[[75.1,2421],[75.1,2498],[75.1,2581],[75.1,2665],[75.1,2748],[75.1,2832],[75.1,2915],[75.1,2999],[75.1,3082],[75.1,3165],[75.1,3249],[75.1,3331],[75.1,3415],[75.1,3499],[75.1,3581],[75.4,16414]]",1570.7043,1575.7133,77.39583651,2.7872,"[{""rating"":77.39583651224773,""responseTime"":2.7871999999993022}]",space,4.4678,,1575.7134,Definitely yes,100,1575.7199,,,[],,0,1,1,1,1,audio/Narrative7Situation1.wav,audio/Narrative8Situation1.wav,audio/Narrative5Situation1.wav,audio/Narrative6Situation1.wav,2,5,5,2,,,,,,,,,,,,,,,,,,,,,,,,,,,,,,,,,,,,,,,
,,,,,66afcaa60f7d8f58dc21db8e,2025-07-07_23h10.47.213,group3.4_multiperson,2023.2.2,Win32,59.52380952,686c2ebf0248f13bef9af11f,686c852562b8d2d1a1f7c4c2,,,,,,,,,,,,,,,,,,,,,,,,,,,,,1575.7204,2,audio/Narrative5Situation2.wav,1578.7296,,1578.7296,1608.2051,[],1608.2053,1613.3374,77.50000159,3.4025,"[{""rating"":77.5000015894572,""responseTime"":3.402499999999918}]",space,4.5879,,1613.3376,Partially,50,1613.3442,,,[],,0,2,2,2,1,audio/Narrative7Situation2.wav,audio/Narrative8Situation2.wav,audio/Narrative5Situation2.wav,audio/Narrative6Situation2.wav,3,3,3,3,,,,,,,,,,,,,,,,,,,,,,,,,,,,,,,,,,,,,,,
,,,,,66afcaa60f7d8f58dc21db8e,2025-07-07_23h10.47.213,group3.4_multiperson,2023.2.2,Win32,59.52380952,686c2ebf0248f13bef9af11f,686c852562b8d2d1a1f7c4c2,,,,,,,,,,,,,,,,,,,,,,,,,,,,,1613.3449,2,audio/Narrative5Situation3.wav,1616.3529,,1616.3529,1630.2499,[],1630.2501,1650.9946,78.54166826,19.8597,"[{""rating"":78.54166825612386,""responseTime"":19.859699999999293}]",space,20.1979,,1650.9948,Definitely yes,100,1651.0007,,,[],,0,3,3,3,1,audio/Narrative7Situation3.wav,audio/Narrative8Situation3.wav,audio/Narrative5Situation3.wav,audio/Narrative6Situation3.wav,8,4,3,5,,,,,,,,,,,,,,,,,,,,,,,,,,,,,,,,,,,,,,,
,,,,,66afcaa60f7d8f58dc21db8e,2025-07-07_23h10.47.213,group3.4_multiperson,2023.2.2,Win32,59.52380952,686c2ebf0248f13bef9af11f,686c852562b8d2d1a1f7c4c2,,,,,,,,,,,,,,,,,,,,,,,,,,,,,1651.0014,2,audio/Narrative5Situation4.wav,1652.011,,1652.0111,1672.4059,"[[75.6,749],[75.3,832],[75.3,915],[75.3,999],[75.3,1082],[75.3,1165],[75.3,1249],[75.3,1332],[75.3,1416],[75.3,1499],[75.3,1582],[75.3,1666],[75.3,1749],[75.3,1832],[75.3,1916],[75.3,1999],[75.3,2082],[75.3,2165],[75.3,2248],[75.3,2332],[75.3,2415],[75.3,2499],[75.3,2582],[75.3,2665],[75.3,2749],[75.3,2832],[75.3,2915],[75.3,2999],[75.3,3082],[75.3,3165],[75.3,3249],[75.3,3332],[75.3,3415],[75.3,3499],[75.3,3582],[75.3,3665],[75.3,3749],[75.3,3831],[75.3,3915],[75.3,3998],[75.3,4082],[75.3,4165],[75.3,4248],[75.3,4331],[75.3,4418],[75.3,4498],[75.3,4582],[75.3,4665],[75.3,4749],[75.3,4831],[75.3,4915],[75.3,4998],[75.3,5081],[75.3,5165],[75.3,5248],[75.3,5331],[75.3,5415],[75.3,5498],[75.3,5581],[75.3,5665],[75.3,5748],[75.3,5831],[75.3,5914],[75.3,5998],[75.3,6081],[75.3,6164],[75.3,6248],[75.3,6331],[75.3,6414],[75.3,6498],[75.3,6581],[75.3,6664],[75.3,6748],[75.3,6831],[75.3,6914],[75.3,6998],[75.3,7081],[75.3,7164],[75.3,7248],[75.3,7331],[75.3,7414],[75.3,7497],[75.3,7581],[75.3,7664],[75.3,7748],[75.3,7831],[75.3,7914],[75.3,7997],[75.3,8081],[75.3,8164],[75.3,8247],[75.3,8331],[75.3,8414],[75.3,8497],[75.3,8581],[75.3,8664],[75.3,8747],[75.3,8831],[75.3,8914],[75.3,8997],[75.3,9081],[75.3,9164],[75.3,9247],[75.3,9331],[75.3,9414],[75.3,9497],[75.3,9580],[75.3,9663],[75.3,9747],[75.3,9830],[75.3,9913],[75.3,9997],[75.3,10080],[75.3,10163],[75.3,10247],[75.3,10330],[75.3,10413],[75.3,10497],[75.3,10580],[75.3,10663],[75.3,10747],[75.3,10830],[75.3,10913],[75.3,10997],[75.3,11085],[75.3,11163],[75.3,11252],[75.3,11330],[75.3,11413],[75.3,11497],[75.3,11580],[75.3,11663],[75.3,11746],[75.3,11835],[75.3,11913],[75.3,11996],[75.3,12079],[75.3,12163],[75.3,12246],[75.3,12330],[75.3,12413],[75.3,12496],[75.3,12580],[75.3,12663],[75.3,12746],[75.3,12830],[75.3,12913],[75.3,12996],[75.3,13080],[75.3,13163],[75.3,13246],[75.3,13329],[75.3,13412],[75.3,13496],[75.3,13579],[75.3,13662],[75.3,13746],[75.3,13829],[75.3,13912],[75.3,13996],[75.3,14079],[75.3,14162],[75.3,14246],[75.3,14329],[75.3,14412],[75.3,14495],[75.3,14579],[75.3,14662],[75.3,14746],[75.3,14829],[75.3,14912],[75.3,14995],[75.3,15079],[75.3,15162],[75.3,15246],[75.3,15329],[75.3,15412],[75.3,15496],[75.3,15579],[75.3,15662],[75.3,15745],[75.3,15829],[75.3,15912],[75.3,15996],[75.3,16079],[75.3,16162],[75.3,16245],[75.3,16328],[75.3,16412],[75.3,16495],[75.3,16579],[75.3,16662],[75.3,16745],[75.3,16828],[75.3,16917],[75.3,16995],[75.3,17079],[75.3,17162],[75.3,17245],[75.3,17329],[75.3,17412],[75.3,17495],[75.3,17578],[75.3,17662],[75.3,17745],[75.3,17828],[75.3,17912],[75.3,17995],[75.3,18078],[75.3,18162],[75.3,18245],[75.3,18328],[75.3,18412],[75.3,18495],[75.3,18578],[75.3,18662],[75.3,18745],[75.3,18828],[75.3,18912],[75.3,18995],[75.3,19078],[75.3,19162],[75.3,19245],[75.3,19328],[75.3,19411],[75.3,19494],[75.3,19578],[75.3,19661],[75.3,19744],[75.3,19828],[75.3,19911],[75.3,19994],[75.3,20078],[75.3,20161],[75.3,20244],[75.3,20328]]",1672.4061,1676.5719,82.39583174,3.2456,"[{""rating"":61.77083651224772,""responseTime"":2.8073999999985517},{""rating"":82.39583174387614,""responseTime"":3.2456000000015592}]",space,3.6158,,1676.572,Not at all,0,1676.5786,,,[],,0,4,4,4,1,audio/Narrative7Situation4.wav,audio/Narrative8Situation4.wav,audio/Narrative5Situation4.wav,audio/Narrative6Situation4.wav,3,3,1,2,,,,,,,,,,,,,,,,,,,,,,,,,,,,,,,,,,,,,,,
,,,,,66afcaa60f7d8f58dc21db8e,2025-07-07_23h10.47.213,group3.4_multiperson,2023.2.2,Win32,59.52380952,686c2ebf0248f13bef9af11f,686c852562b8d2d1a1f7c4c2,,,,,,,,,,,,,,,,,,,,,,,,,,,,,1676.5792,2,audio/Narrative5Situation5.wav,1681.5873,,1681.5874,1697.0168,"[[82.2,8837],[82.2,8914],[82.2,8997],[82.2,9080],[82.2,9164],[82.2,9247],[82.2,9330],[82.2,9413],[82.2,9497],[82.2,9580],[82.2,9663],[82.2,9746],[82.2,9830],[82.2,9913],[82.2,9997],[82.2,10080],[82.2,10163],[82.2,10246],[82.2,10331],[82.2,10413],[82.2,10496],[82.2,10580],[82.2,10663],[82.2,10746],[82.2,10830],[82.2,10913],[82.2,10996],[82.2,11080],[82.2,11163],[82.2,11246],[82.2,11330],[82.2,11413],[82.2,11496],[82.2,11580],[82.2,11663],[82.2,11746],[82.2,11829],[82.2,11913],[82.2,11996],[82.2,12079],[82.2,12163],[82.2,12246],[82.2,12330],[82.2,12413],[82.2,12496],[82.2,12579],[82.2,12664],[82.2,12746],[82.2,12830],[82.2,12913],[82.2,12996],[82.2,13079],[82.2,13163],[82.2,13246],[82.2,13329],[82.2,13413],[82.2,13496],[82.2,13579],[82.2,13663],[82.2,13745],[82.2,13829],[82.2,13913],[82.2,13995],[82.2,14079],[82.2,14162],[82.2,14245],[82.2,14329],[82.2,14412],[82.2,14495],[82.2,14579],[82.2,14662],[82.2,14746],[82.2,14829],[82.2,14912],[82.2,14995],[82.2,15079],[82.2,15162],[82.2,15245],[82.2,15329],[82.2,15412]]",1697.0171,1703.3981,86.87500954,4.6631,"[{""rating"":86.87500953674316,""responseTime"":4.663099999997712}]",space,5.8363,,1703.3983,Partially,50,1703.4047,,,[],,0,5,5,5,1,audio/Narrative7Situation5.wav,audio/Narrative8Situation5.wav,audio/Narrative5Situation5.wav,audio/Narrative6Situation5.wav,5,2,5,2,,,,,,,,,,,,,,,,,,,,,,,,,,,,,,,,,,,,,,,
,,,,,66afcaa60f7d8f58dc21db8e,2025-07-07_23h10.47.213,group3.4_multiperson,2023.2.2,Win32,59.52380952,686c2ebf0248f13bef9af11f,686c852562b8d2d1a1f7c4c2,,,,,,,,,,,,,,,,,,,,,,,,,,,,,1703.4055,2,audio/Narrative5Situation6.wav,1706.4139,,1706.4141,1720.0511,"[[76.6,1416],[76.6,1499],[76.6,1583],[76.6,1666],[76.6,1749],[76.6,1832],[76.6,1916],[76.6,1999],[76.6,2082],[76.6,2165],[76.6,2249],[76.6,2333],[90.9,2415],[90.7,2506],[90.7,2582],[90.7,2666],[90.7,2748],[90.7,2832],[90.7,2915],[90.7,2999],[90.7,3082],[90.7,3166],[90.7,3249],[90.7,3332],[90.7,3416],[90.7,3499],[90.7,3582],[90.7,3665],[75.4,13528],[75.4,13636]]",1720.0512,1724.7763,76.7708381,2.7522,"[{""rating"":76.77083810170491,""responseTime"":2.7521999999992204}]",space,4.1891,,1724.7764,Partially,50,1724.7815,,,[],,0,6,6,6,1,audio/Narrative7Situation6.wav,audio/Narrative8Situation6.wav,audio/Narrative5Situation6.wav,audio/Narrative6Situation6.wav,3,2,3,2,,,,,,,,,,,,,,,,,,,,,,,,,,,,,,,,,,,,,,,
,,,,,66afcaa60f7d8f58dc21db8e,2025-07-07_23h10.47.213,group3.4_multiperson,2023.2.2,Win32,59.52380952,686c2ebf0248f13bef9af11f,686c852562b8d2d1a1f7c4c2,,,,,,,,,,,,,,,,,,,,,,,,,,,,,1724.7824,2,audio/Narrative5Situation7.wav,1728.7925,,1728.7926,1793.0999,"[[76.9,1248],[76.9,1332],[76.9,1415],[77.4,1499],[77.4,1582],[77.4,1665],[77.4,1749],[77.4,1832],[77.4,1915],[77.4,1998],[77.4,2082],[77.4,2165],[77.4,2248],[77.4,2331],[77.4,2415],[77.4,2498],[77.4,2582],[77.4,2665],[77.4,2748],[77.4,2831],[77.4,2915],[77.4,2998],[77.4,3081],[77.4,3165],[77.4,3248],[77.4,3332],[77.4,3415],[77.4,3498],[77.4,3581],[77.4,3664],[77.4,3748],[77.4,3831],[77.4,3914],[77.4,3998],[77.4,4081],[77.4,4165],[77.4,4248],[77.4,4331],[77.4,4415],[77.4,4498],[77.4,4581],[77.4,4664],[77.4,4748],[77.4,4831],[77.4,4914],[77.4,4998],[77.4,5081],[77.4,5164],[77.4,5247],[77.4,5330],[77.4,5414],[77.4,5498],[77.4,5581],[77.4,5664],[77.4,5747],[77.4,5831],[77.4,5914],[77.4,5997],[77.4,6081],[77.4,6164],[77.4,6247],[77.4,6331],[77.4,6414],[77.4,6498],[77.4,6581],[77.4,6664],[77.4,6747],[77.4,6830],[77.4,6914],[77.4,6997],[77.4,7080],[77.4,7164],[77.4,7247],[77.4,7330],[77.4,7414],[77.4,7497],[77.4,7580],[77.4,7664],[77.4,7747],[77.4,7830],[77.4,7913],[77.4,7996],[77.4,8080],[77.4,8163],[77.4,8247],[77.4,8330],[77.4,8413],[77.4,8497],[77.4,8580],[77.4,8664],[77.4,8747],[77.4,8830],[77.4,8913],[77.4,8996],[77.4,9079],[77.4,9163],[77.4,9247],[77.4,9330],[77.4,9413],[77.4,9497],[77.4,9580],[77.4,9663],[77.4,9747],[77.4,9830],[77.4,9913],[77.4,10000],[77.4,10080],[77.4,10163],[77.4,10247],[77.4,10330],[77.4,10412],[77.4,10496],[77.4,10579],[77.4,10662],[77.4,10746],[77.4,10830],[77.4,10913],[77.4,10996],[77.4,11080],[77.4,11163],[77.4,11246],[77.4,11330],[77.4,11413],[77.4,11496],[77.4,11579],[77.4,11663],[75.3,11754],[75.4,64239]]",1793.1002,1795.9426,72.70833651,1.0169,"[{""rating"":72.70833651224771,""responseTime"":1.0168999999984862}]",space,2.306,,1795.9427,Not at all,0,1800.1247,0,2.0521,"[{""rating"":0,""responseTime"":2.0520999999978358}]",space,0,7,7,7,1,audio/Narrative7Situation7.wav,audio/Narrative8Situation7.wav,audio/Narrative5Situation7.wav,audio/Narrative6Situation7.wav,5,3,4,5,,,3.6343,,,,,,,,,,,,,,,,,,,,,,,,,,,,,,,,,,,,
,,,,,66afcaa60f7d8f58dc21db8e,2025-07-07_23h10.47.213,group3.4_multiperson,2023.2.2,Win32,59.52380952,686c2ebf0248f13bef9af11f,686c852562b8d2d1a1f7c4c2,,,,,,,,,,,,,,,,,,,,,,,,,,,,,1800.1253,2,audio/Narrative5Situation8.wav,1803.1402,,1803.1403,1811.9552,"[[71.4,1915],[71.4,1999],[71.4,2082],[71.4,2165],[71.4,2249],[71.4,2332],[71.4,2416],[71.4,2499],[71.4,2582],[71.4,2666],[71.4,2749],[71.4,2832],[71.4,2915],[71.4,2999],[71.4,3082],[71.4,3166],[71.4,3249],[71.4,3332],[71.4,3415],[71.4,3499],[71.4,3582],[71.4,3665],[71.4,3749],[71.4,3832],[71.4,3915],[71.4,3999],[71.4,4082],[71.4,4165],[71.4,4248],[71.4,4332],[71.4,4415],[71.4,4498],[71.4,4586],[71.4,4665],[75.4,4748],[75.4,4835],[75.4,4920],[75.4,4999],[75.4,5082],[75.4,5165],[75.4,5255],[75.4,5332],[75.4,5421],[75.4,5505],[75.4,5587],[75.4,5665],[75.4,5748],[75.4,5831],[75.4,5914],[75.4,6003],[75.4,6081],[75.4,6164],[75.4,6248],[75.4,6331],[75.4,6415],[75.4,6498],[75.4,6581],[75.4,6664],[75.4,6748],[75.4,6831],[75.4,6914],[75.4,6998],[75.4,7081],[75.4,7165],[75.4,7248],[75.4,7331],[75.4,7415],[75.4,7498],[75.4,7581],[75.4,7664],[75.4,7748],[75.4,7831],[75.4,7914],[75.4,7998],[75.4,8081],[75.4,8164],[75.4,8248],[75.4,8331],[75.4,8414],[75.4,8497],[75.4,8581],[75.4,8664],[75.4,8748]]",1811.9554,1841.2807,72.81250159,28.1806,"[{""rating"":72.81250158945718,""responseTime"":28.180600000001277}]",space,28.7751,,1841.2807,Definitely yes,100,1841.2843,,,[],,0,8,8,8,1,audio/Narrative7Situation8.wav,audio/Narrative8Situation8.wav,audio/Narrative5Situation8.wav,audio/Narrative6Situation8.wav,2,3,3,5,,,,,,,,,,,,,,,,,,,,,,,,,,,,,,,,,,,,,,,
,,,,,66afcaa60f7d8f58dc21db8e,2025-07-07_23h10.47.213,group3.4_multiperson,2023.2.2,Win32,59.52380952,686c2ebf0248f13bef9af11f,686c852562b8d2d1a1f7c4c2,,,,,,,,,,,,,,,,,,,,,,,,,,,,,1841.2845,2,audio/Narrative5Situation9.wav,1844.2964,,1844.2964,1883.8542,"[[74.6,838],[74.6,916],[74.6,999],[74.6,1083],[74.6,1166],[74.6,1249],[74.6,1333],[74.6,1416],[74.6,1504],[74.6,1582],[74.6,1666],[74.6,1749],[74.6,1832],[74.6,1916],[74.6,1999],[74.6,2082],[74.6,2166],[74.6,2249],[74.6,2337],[74.6,2416],[74.6,2499],[74.6,2582],[74.6,2665],[74.6,2754],[74.6,2832],[74.6,2916],[74.6,2999],[74.6,3082],[74.6,3165],[74.6,3249],[74.6,3332],[74.6,3415],[74.6,3499],[74.6,3582],[74.6,3670],[74.6,3749],[74.6,3832],[74.6,3916],[74.6,3999],[74.6,4082],[74.6,4166],[74.6,4249],[74.6,4334],[74.6,4415],[74.6,4498],[86.5,4582],[86.5,4665],[86.5,4749],[86.5,4832],[86.5,4915],[86.5,5003],[86.5,5082],[86.5,5165],[86.5,5248],[86.5,5337],[86.5,5416],[86.5,5498],[86.5,5582],[86.5,5666],[86.5,5749],[86.5,5832],[86.5,5915],[86.5,5999],[86.5,6082],[86.5,6165],[86.5,6249],[86.5,6332],[86.5,6415],[86.5,6499],[86.5,6582],[86.5,6665],[86.5,6749],[86.5,6831],[86.5,6915],[86.5,6999],[86.5,7082],[86.5,7165],[86.5,7249],[86.5,7332],[86.5,7420],[86.5,7499],[86.5,7582],[86.5,7665],[86.5,7748],[86.5,7832],[86.5,7915],[86.5,7998],[86.5,8082],[86.5,8165],[86.5,8248],[86.5,8331],[86.5,8415],[86.5,8498],[86.5,8581],[86.5,8665],[86.5,8748],[86.5,8831],[86.5,8915],[86.5,8998],[86.5,9081],[86.5,9164],[86.5,9248],[86.5,9331],[86.5,9414],[86.5,9498],[86.5,9581],[86.5,9664],[86.5,9747],[86.5,9831],[86.5,9914],[86.5,9997],[86.5,10081],[86.5,10164],[86.5,10248],[86.5,10335],[86.5,10414],[86.5,10497],[86.5,10581],[86.5,10664],[86.5,10748],[86.5,10831],[86.5,10914],[86.5,10997],[86.5,11081],[86.5,11164],[86.5,11247],[86.5,11331],[86.5,11414],[86.5,11497],[86.5,11581],[86.5,11664],[86.5,11747],[86.5,11830],[86.5,11914],[86.5,11997],[86.5,12080],[86.5,12163],[86.5,12247],[86.5,12330],[86.5,12413],[86.5,12497],[86.5,12580],[86.5,12664],[86.5,12747],[86.5,12830],[86.5,12913],[86.5,12997],[86.5,13080],[86.5,13163],[86.5,13247],[86.5,13330],[86.5,13413],[86.5,13497],[86.5,13580],[86.5,13663],[86.5,13746],[86.5,13829],[86.5,13913],[86.5,13997],[86.5,14080],[86.5,14163],[86.5,14247],[86.5,14330],[86.5,14413],[86.5,14497],[86.5,14580],[86.5,14663],[86.5,14747],[86.5,14830],[86.5,14913],[86.5,14996],[86.5,15079],[86.5,15167],[86.5,15246],[86.5,15329],[86.5,15413],[86.5,15496],[86.5,15580],[86.5,15663],[86.5,15746],[86.5,15830],[86.5,15913],[86.5,15996],[86.5,16079],[86.5,16162],[86.5,16246],[86.5,16330],[86.5,16413],[86.5,16501],[86.5,16580],[86.5,16662],[86.5,16746],[86.5,16829],[86.5,16912],[86.5,16996],[86.5,17079],[86.5,17162],[86.5,17246],[86.5,17329],[86.5,17412],[86.5,17496],[86.5,17579],[86.5,17662],[86.5,17746],[86.5,17829],[86.5,17912],[86.5,17996],[86.5,18079],[86.5,18162],[86.5,18246],[86.5,18329],[86.5,18412],[86.5,18496],[86.5,18579],[86.5,18662],[86.5,18746],[86.5,18829],[86.5,18912],[86.5,18996],[86.5,19079],[86.5,19162],[86.5,19245],[86.5,19329],[86.5,19412],[86.5,19496],[86.5,19579],[86.5,19662],[86.5,19745],[86.5,19829],[86.5,19912],[86.5,19995],[86.5,20079],[86.5,20162],[86.5,20245],[86.5,20328],[86.5,20412],[86.5,20495],[86.5,20578],[86.5,20662],[86.5,20745],[86.5,20828],[86.5,20912],[86.5,20995],[86.5,21078],[86.5,21162],[86.5,21245],[86.5,21328],[86.5,21411],[86.5,21495],[86.5,21578],[86.5,21661],[86.5,21744],[86.5,21828],[86.5,21911],[86.5,21994],[86.5,22078],[86.5,22161],[86.5,22245],[86.5,22328],[86.5,22411],[86.5,22495],[86.5,22578],[86.5,22661],[86.5,22744],[86.5,22828],[86.5,22911],[86.5,22994],[86.5,23078],[86.5,23161],[86.5,23244],[86.5,23327],[86.5,23411],[86.5,23494],[86.5,23578],[86.5,23661],[86.5,23744],[86.5,23828],[86.5,23910],[86.5,23994],[86.5,24077],[86.5,24161],[86.5,24244],[86.5,24328],[86.5,24411],[86.5,24494],[86.5,24577],[86.5,24661],[86.5,24744],[86.5,24827],[86.5,24911],[86.5,24994],[86.5,25077],[86.5,25161],[86.5,25244],[86.5,25327],[86.5,25411],[86.5,25494],[86.5,25577],[86.5,25661],[86.5,25744],[86.5,25827],[86.5,25910],[86.5,25993],[86.5,26077],[86.5,26160],[86.5,26243],[86.5,26327],[86.5,26410],[86.5,26493],[86.5,26577],[86.5,26660],[86.5,26743],[86.5,26827],[86.5,26910],[86.5,26993],[86.5,27077],[86.5,27160],[86.5,27243],[86.5,27327],[86.5,27410],[86.5,27493],[86.5,27577],[86.5,27660],[86.5,27743],[86.5,27827],[86.5,27910],[86.5,27993],[86.5,28077],[86.5,28160],[86.5,28243],[86.5,28326],[86.5,28410],[86.5,28493],[86.5,28576],[86.5,28660],[86.5,28743],[86.5,28826],[86.5,28910],[86.5,28993],[86.5,29076],[86.5,29160],[86.5,29242],[86.5,29326],[86.5,29410],[86.5,29492],[86.5,29576],[86.5,29659],[86.5,29742],[86.5,29826],[86.5,29910],[86.5,29993],[86.5,30076],[86.5,30160],[86.5,30242],[86.5,30326],[86.5,30410],[86.5,30492],[86.5,30576],[86.5,30660],[86.5,30742],[86.5,30826],[86.5,30909],[86.5,30992],[86.5,31076],[86.5,31159],[86.5,31242],[86.5,31326],[86.5,31409],[86.5,31492],[86.5,31576],[86.5,31659],[86.5,31742],[86.5,31826],[86.5,31909],[86.5,31992],[86.5,32076],[86.5,32159],[86.5,32242],[86.5,32325],[86.5,32409],[86.5,32492],[86.5,32576],[86.5,32659],[86.5,32742],[86.5,32825],[86.5,32909],[86.5,32992],[86.5,33075],[86.5,33159],[86.5,33242],[86.5,33325],[86.5,33409],[86.5,33492],[86.5,33575],[86.5,33659],[86.5,33742],[86.5,33825],[86.5,33908],[86.5,33992],[86.5,34075],[86.5,34158],[86.5,34242],[86.5,34325],[86.5,34408],[86.5,34492],[86.5,34575],[86.5,34663],[86.5,34742],[86.5,34825],[86.5,34908],[86.5,34992],[86.5,35075],[86.5,35158],[86.5,35242],[86.5,35325],[86.5,35409],[86.5,35491],[86.5,35575],[86.5,35658],[86.5,35741],[86.5,35825],[86.5,35908],[86.5,35991],[86.5,36074],[86.5,36158],[86.5,36241],[86.5,36324],[86.5,36408],[86.5,36491],[86.5,36574],[86.5,36658],[86.5,36741],[86.5,36824],[86.5,36908],[86.5,36991],[86.5,37074],[86.5,37158],[86.5,37241],[86.5,37324],[86.5,37407],[86.5,37490],[86.5,37574],[86.5,37657],[86.5,37740],[86.5,37824],[86.5,37908],[86.5,37991],[86.5,38074],[86.5,38158],[86.5,38241],[86.5,38324],[86.5,38407],[86.5,38490],[86.5,38574],[86.5,38657],[86.5,38740],[86.5,38824],[86.5,38907],[86.5,38990],[86.5,39074],[86.5,39157],[86.5,39240],[86.5,39324],[86.5,39407],[86.5,39490]]",1883.8548,1890.8688,77.39583651,5.1522,"[{""rating"":77.39583651224773,""responseTime"":5.152199999999084}]",space,6.4663,,1890.8689,Partially,50,1890.8745,,,[],,0,9,9,9,1,audio/Narrative7Situation9.wav,audio/Narrative8Situation9.wav,audio/Narrative5Situation9.wav,audio/Narrative6Situation9.wav,2,3,3,4,,,,,,,,,,,,,,,,,,,,,,,,,,,,,,,,,,,,,,,
,,,,,66afcaa60f7d8f58dc21db8e,2025-07-07_23h10.47.213,group3.4_multiperson,2023.2.2,Win32,59.52380952,686c2ebf0248f13bef9af11f,686c852562b8d2d1a1f7c4c2,,,,,,,,,,,,,,,,,,,,,,,,,,,,,1890.875,2,audio/Narrative6Situation1.wav,1892.8853,,1892.8854,1919.4789,"[[77.3,1166],[77.3,1249],[77.3,1332],[77.3,1416],[77.3,1499],[77.3,1582],[77.3,1665],[77.3,1749],[77.3,1832],[77.3,1915],[77.3,1999],[77.3,2082],[77.3,2165],[77.3,2248],[77.3,2332],[77.3,2415],[77.3,2499],[77.3,2582],[77.3,2665],[77.3,2749],[77.3,2832],[77.3,2915],[77.3,2998],[77.3,3082],[77.3,3165],[77.3,3248],[77.3,3332],[77.3,3415],[77.3,3498],[77.3,3581],[77.3,3665],[77.3,3749],[77.3,3832],[77.3,3915],[77.3,3999],[77.3,4081],[77.3,4165],[77.3,4248],[77.3,4331],[77.3,4415],[77.3,4498],[77.3,4581],[77.3,4665],[77.3,4748],[77.3,4831],[77.3,4914],[77.3,4998],[77.3,5081],[77.3,5164],[77.3,5248],[77.3,5331],[77.3,5419],[77.3,5498],[77.3,5581],[77.3,5664],[77.3,5748],[77.3,5831],[77.3,5914],[77.3,5998],[77.3,6081],[77.3,6164],[77.3,6248],[77.3,6331],[77.3,6414],[77.3,6498],[77.3,6581],[77.3,6664],[77.3,6748],[77.3,6831],[77.3,6914],[77.3,6998],[77.3,7081],[77.3,7164],[77.3,7248],[77.3,7331],[77.3,7414],[77.3,7497],[77.3,7581],[77.3,7664],[77.3,7752],[77.3,7831],[77.3,7914],[77.3,7997],[77.3,8080],[77.3,8163],[77.3,8247],[77.3,8331],[77.3,8413],[77.3,8497],[77.3,8581],[77.3,8663],[77.3,8747],[77.3,8831],[77.3,8913],[77.3,8997],[77.3,9080],[77.3,9163],[77.3,9247],[77.3,9330],[77.3,9413],[77.3,9497],[77.3,9580],[77.3,9663],[77.3,9747],[77.3,9830],[77.3,9913],[77.3,9997],[77.3,10080],[77.3,10163],[77.3,10247],[77.3,10330],[77.3,10413],[77.3,10497],[77.3,10580],[77.3,10663],[77.3,10747],[77.3,10829],[77.3,10913],[77.3,10997],[77.3,11080],[77.3,11163],[77.3,11247],[77.3,11330],[77.3,11413],[77.3,11497],[77.3,11580],[77.3,11663],[77.3,11746],[77.3,11830],[77.3,11913],[77.3,11996],[77.3,12080],[77.3,12163],[77.3,12246],[77.3,12330],[77.3,12413],[77.3,12496],[77.3,12579],[77.3,12663],[77.3,12746],[77.3,12829],[77.3,12912],[77.3,12996],[77.3,13079],[77.3,13163],[77.3,13246],[77.3,13329],[77.3,13412],[77.3,13496],[77.3,13579],[77.3,13662],[77.3,13745],[77.3,13829],[77.3,13912],[77.3,13996],[77.3,14079],[77.3,14163],[77.3,14246],[77.3,14329],[77.3,14412],[77.3,14496],[77.3,14579],[77.3,14662],[77.3,14746],[77.3,14829],[77.3,14912],[77.3,14996],[77.3,15079],[77.3,15162],[77.3,15245],[77.3,15329],[77.3,15412],[77.3,15495],[77.3,15579],[77.3,15662],[77.3,15745],[77.3,15828],[77.3,15912],[77.3,15995],[77.3,16079],[77.3,16162],[77.3,16245],[77.3,16328],[77.3,16412],[77.3,16495],[77.3,16578],[77.3,16661],[77.3,16745],[77.3,16828],[77.3,16911],[77.3,16995],[77.3,17078],[77.3,17162],[77.3,17245],[77.3,17328],[77.3,17411],[77.3,17495],[77.3,17578],[77.3,17661],[77.3,17745],[77.3,17828],[77.3,17911],[77.3,17995],[77.3,18078],[77.3,18161],[77.3,18245],[77.3,18328],[77.3,18411],[77.3,18495],[77.3,18578],[77.3,18661],[77.3,18744],[77.3,18828],[77.3,18911],[77.3,18994],[77.3,19078],[77.3,19161],[77.3,19244],[77.3,19328],[77.3,19411],[77.3,19494],[77.3,19578],[77.3,19661],[77.3,19744],[77.3,19827],[77.3,19910],[77.3,19994],[77.3,20077],[77.3,20161],[77.3,20244],[77.3,20328],[77.3,20411],[77.3,20494],[77.3,20578],[77.3,20661],[77.3,20744],[77.3,20827],[77.3,20910],[77.3,20994],[77.3,21077],[77.3,21161],[77.3,21244],[77.3,21327],[77.3,21410],[77.3,21494],[77.3,21577],[77.3,21661],[77.3,21743],[77.3,21827],[77.3,21911],[77.3,21993],[77.3,22077],[77.3,22160],[77.3,22243],[77.3,22327],[77.3,22410],[77.3,22493],[77.3,22577],[77.3,22660],[77.3,22743],[77.3,22827],[77.3,22910],[77.3,22993],[77.3,23077],[77.3,23160],[77.3,23243],[77.3,23327],[77.3,23410],[77.3,23493],[77.3,23577],[77.3,23660],[77.3,23743],[77.3,23827],[77.3,23910],[77.3,23993],[77.3,24077],[77.3,24160],[77.3,24243],[77.3,24327],[77.3,24410],[77.3,24493],[77.3,24577],[77.3,24660],[77.3,24743],[77.3,24826],[77.3,24910],[77.3,24998],[77.3,25076],[77.3,25160],[77.3,25243],[77.3,25327],[77.3,25410],[77.3,25493],[77.3,25576],[77.3,25660],[77.3,25743],[77.3,25826],[77.3,25910],[77.3,25993],[77.3,26076],[77.3,26160],[77.3,26243],[77.3,26326],[77.3,26409],[77.3,26493],[77.3,26576]]",1919.4793,1938.174,81.56250318,5.8519,"[{""rating"":81.56250317891438,""responseTime"":5.851899999998523}]",space,18.1466,,1938.1741,Partially,50,1938.1779,,,[],,0,10,10,10,1,audio/Narrative8Situation1.wav,audio/Narrative7Situation1.wav,audio/Narrative6Situation1.wav,audio/Narrative5Situation1.wav,5,2,2,5,,,,,,,,,,,,,,,,,,,,,,,,,,,,,,,,,,,,,,,
,,,,,66afcaa60f7d8f58dc21db8e,2025-07-07_23h10.47.213,group3.4_multiperson,2023.2.2,Win32,59.52380952,686c2ebf0248f13bef9af11f,686c852562b8d2d1a1f7c4c2,,,,,,,,,,,,,,,,,,,,,,,,,,,,,1938.1786,2,audio/Narrative6Situation2.wav,1941.1898,,1941.1899,1969.6996,"[[78.1,1332],[78.2,1423],[78.2,1499],[78.2,1582],[78.2,1666],[78.2,1749],[78.2,1832],[78.2,1916],[78.2,1999],[78.2,2083],[78.2,2166],[78.2,2249],[78.2,2332],[78.2,2416],[78.2,2499],[78.2,2582],[78.2,2665],[78.2,2749],[78.2,2832],[78.2,2916],[78.2,2999],[78.2,3082],[78.2,3166],[78.2,3249],[78.2,3332],[78.2,3415],[78.2,3499],[78.2,3582],[78.2,3665],[78.2,3753],[78.2,3832],[78.2,3915],[78.2,3999],[78.2,4082],[78.2,4165],[78.2,4249],[78.2,4332],[78.2,4415],[78.2,4498],[78.2,4581],[78.2,4665],[78.2,4748],[78.2,4832],[78.2,4915],[78.2,4998],[78.2,5082],[78.2,5165],[78.2,5248],[78.2,5331],[78.2,5415],[78.2,5498],[78.2,5582],[78.2,5665],[78.2,5748],[78.2,5831],[78.2,5914],[78.2,5998],[78.2,6081],[78.2,6165],[78.2,6248],[78.2,6331],[78.2,6415],[78.2,6498],[78.2,6581],[78.2,6665],[78.2,6748],[78.2,6831],[78.2,6915],[78.2,6997],[78.2,7081],[78.2,7164],[78.2,7248],[78.2,7331],[78.2,7415],[78.2,7498],[78.2,7581],[78.2,7664],[78.2,7748],[78.2,7831],[78.2,7914],[78.2,7998],[78.2,8081],[78.2,8164],[78.2,8247],[78.2,8331],[78.2,8414],[78.2,8497],[78.2,8581],[78.2,8664],[78.2,8747],[78.2,8831],[78.2,8914],[78.2,8997],[78.2,9080],[78.2,9164],[78.2,9247],[78.2,9331],[78.2,9414],[78.2,9497],[78.2,9580],[78.2,9664],[78.2,9747],[78.2,9830],[78.2,9913],[78.2,9997],[78.2,10080],[78.2,10164],[78.2,10247],[78.2,10330],[78.2,10414],[78.2,10497],[78.2,10585],[78.2,10664],[78.2,10747],[78.2,10830],[78.2,10914],[78.2,10997],[78.2,11080],[78.2,11163],[78.2,11247],[78.2,11330],[78.2,11414],[78.2,11496],[78.2,11580],[78.2,11663],[78.2,11746],[78.2,11830],[78.2,11913],[78.2,11996],[78.2,12080],[78.2,12163],[78.2,12246],[78.2,12329],[78.2,12413],[78.2,12496],[78.2,12580],[78.2,12663],[78.2,12746],[78.2,12829],[78.2,12913],[78.2,12996],[78.2,13079],[78.2,13163],[78.2,13246],[78.2,13329],[78.2,13413],[78.2,13496],[78.2,13579],[78.2,13663],[78.2,13746],[78.2,13829],[78.2,13912],[78.2,13996],[78.2,14079],[78.2,14163],[78.2,14246],[78.2,14329],[78.2,14413],[78.2,14496],[78.2,14579],[78.2,14663],[78.2,14746],[78.2,14829],[78.2,14912],[78.2,14996],[78.2,15079],[78.2,15163],[78.2,15246],[78.2,15329],[78.2,15412],[78.2,15496],[78.2,15579],[78.2,15662],[78.2,15746],[78.2,15829],[78.2,15912],[78.2,15995],[78.2,16079],[78.2,16162],[78.2,16246],[78.2,16328],[78.2,16412],[78.2,16496],[78.2,16578],[78.2,16662],[78.2,16745],[78.2,16829],[78.2,16912],[78.2,16996],[78.2,17078],[78.2,17162],[78.2,17245],[78.2,17329],[78.2,17412],[78.2,17495],[78.2,17578],[78.2,17662],[78.2,17745],[78.2,17828],[78.2,17917],[78.2,17995],[78.2,18078],[78.2,18161],[78.2,18245],[78.2,18328],[78.2,18411],[78.2,18495],[78.2,18579],[78.2,18662],[78.2,18745],[78.2,18828],[78.2,18912],[78.2,18995],[78.2,19078],[78.2,19162],[78.2,19245],[78.2,19328],[78.2,19412],[78.2,19495],[78.2,19578],[78.2,19661],[78.2,19745],[78.2,19828],[78.2,19911],[78.2,19995],[78.2,20078],[78.2,20161],[78.2,20245],[78.2,20328],[78.2,20411],[78.2,20495],[78.2,20578],[78.2,20661],[78.2,20745],[78.2,20828],[78.2,20911],[78.2,20994],[78.2,21078],[78.2,21161],[78.2,21244],[78.2,21328],[78.2,21411],[78.2,21494],[78.2,21577],[78.2,21661],[78.2,21744],[78.2,21827],[78.2,21911],[78.2,21994],[78.2,22077],[78.2,22161],[78.2,22244],[78.2,22327],[78.2,22411],[78.2,22494],[78.2,22577],[78.2,22661],[78.2,22744],[78.2,22827],[78.2,22911],[78.2,22994],[78.2,23077],[78.2,23161],[78.2,23244],[78.2,23327],[78.2,23410],[78.2,23494],[78.2,23577],[78.2,23660],[78.2,23744],[78.2,23827],[78.2,23910],[78.2,23993],[78.2,24077],[78.2,24160],[78.2,24243],[78.2,24327],[78.2,24410],[78.2,24494],[78.2,24577],[78.2,24660],[78.2,24743],[78.2,24827],[78.2,24910],[78.2,24994],[78.2,25077],[78.2,25160],[78.2,25243],[78.2,25327],[78.2,25410],[78.2,25493],[78.2,25577],[78.2,25659],[78.2,25743],[78.2,25827],[78.2,25910],[78.2,25993],[78.2,26076],[78.2,26159],[78.2,26243],[78.2,26327],[78.2,26410],[78.2,26493],[78.2,26576],[78.2,26659],[78.2,26743],[78.2,26827],[78.2,26909],[78.2,26993],[78.2,27077],[78.2,27159],[78.2,27243],[78.2,27327],[78.2,27409],[78.2,27493],[78.2,27576],[78.2,27659],[78.2,27742],[78.2,27826],[78.2,27909],[78.2,27992],[78.2,28076],[78.2,28159],[78.2,28243],[78.2,28326],[78.2,28409],[78.2,28492]]",1969.7001,1983.3133,80.62500159,4.0563,"[{""rating"":80.6250015894572,""responseTime"":4.056300000000874}]",space,13.0735,,1983.3134,Not at all,0,1983.3198,,,[],,0,11,11,11,1,audio/Narrative8Situation2.wav,audio/Narrative7Situation2.wav,audio/Narrative6Situation2.wav,audio/Narrative5Situation2.wav,3,3,3,3,,,,,,,,,,,,,,,,,,,,,,,,,,,,,,,,,,,,,,,
,,,,,66afcaa60f7d8f58dc21db8e,2025-07-07_23h10.47.213,group3.4_multiperson,2023.2.2,Win32,59.52380952,686c2ebf0248f13bef9af11f,686c852562b8d2d1a1f7c4c2,,,,,,,,,,,,,,,,,,,,,,,,,,,,,1983.3204,2,audio/Narrative6Situation3.wav,1988.3285,,1988.3286,2000.9423,"[[78.4,2165],[78.4,2249],[78.4,2332],[78.4,2415],[78.4,2498],[78.4,2582],[78.4,2665],[78.4,2749],[78.4,2832],[78.4,2915],[78.4,2998],[78.4,3082],[78.4,3165],[78.4,3248],[78.4,3332],[78.4,3415],[78.4,3498],[78.4,3581],[78.4,3665],[78.4,3748],[78.4,3831],[78.4,3915],[78.4,3998],[78.4,4081],[78.4,4165],[78.4,4248],[78.4,4331],[78.4,4415],[78.4,4498],[78.4,4581],[78.4,4665],[78.4,4748],[78.4,4831],[78.4,4915],[78.4,4998],[78.4,5081],[78.4,5165],[78.4,5248],[78.4,5331],[78.4,5415],[78.4,5498],[78.4,5581],[78.4,5665],[78.4,5752],[78.4,5831],[78.4,5914],[78.4,5998],[78.4,6081],[78.4,6164],[78.4,6247],[78.4,6331],[78.4,6414],[78.4,6498],[78.4,6581],[78.4,6664],[78.4,6748],[78.4,6831],[78.4,6914],[78.4,6998],[78.4,7081],[78.4,7164],[78.4,7248],[78.4,7331],[78.4,7414],[78.4,7498],[78.4,7581],[78.4,7664],[78.4,7748],[78.4,7830],[78.4,7914],[78.4,7997],[78.4,8080],[78.4,8164],[78.4,8248],[78.4,8330],[78.4,8414],[78.4,8497],[78.4,8580],[78.4,8664],[78.4,8747],[78.4,8830],[78.4,8914],[78.4,8997],[78.4,9080],[78.4,9164],[78.4,9247],[78.4,9330],[78.4,9413],[78.4,9497],[78.4,9580],[78.4,9664],[78.4,9747],[78.4,9830],[78.4,9913],[78.4,9997],[78.4,10080],[78.4,10163],[78.4,10247],[78.4,10330],[78.4,10413],[78.4,10497],[78.4,10580],[78.4,10664],[78.4,10747],[78.4,10830],[78.4,10913],[78.4,10997],[78.4,11080],[78.4,11163],[78.4,11247],[78.4,11330],[78.4,11413],[78.4,11496],[78.4,11580],[78.4,11663],[78.4,11747],[78.4,11830],[78.4,11913],[78.4,11996],[78.4,12080],[78.4,12163],[78.4,12246],[78.4,12330],[78.4,12413],[78.4,12496],[78.4,12580]]",2000.9424,2006.1282,77.81250477,4.0692,"[{""rating"":77.81250476837158,""responseTime"":4.069199999999}]",space,4.6474,,2006.1282,Not at all,0,2006.1293,,,[],,0,12,12,12,1,audio/Narrative8Situation3.wav,audio/Narrative7Situation3.wav,audio/Narrative6Situation3.wav,audio/Narrative5Situation3.wav,4,8,5,3,,,,,,,,,,,,,,,,,,,,,,,,,,,,,,,,,,,,,,,
,,,,,66afcaa60f7d8f58dc21db8e,2025-07-07_23h10.47.213,group3.4_multiperson,2023.2.2,Win32,59.52380952,686c2ebf0248f13bef9af11f,686c852562b8d2d1a1f7c4c2,,,,,,,,,,,,,,,,,,,,,,,,,,,,,2006.1294,2,audio/Narrative6Situation4.wav,2008.1401,,2008.1402,2020.7702,"[[82.9,1503],[82.9,1582],[82.9,1666],[82.9,1749],[82.9,1832],[82.9,1916],[82.9,1999],[82.9,2082],[82.9,2165],[82.9,2249],[82.9,2333],[82.9,2416],[82.9,2498],[82.9,2582],[82.9,2666],[82.9,2748],[82.9,2832],[82.9,2916],[82.9,2998],[82.9,3083],[82.9,3166],[82.9,3248],[82.9,3332],[82.9,3416],[82.9,3498],[82.9,3582],[82.9,3665],[82.9,3748],[82.9,3832],[82.9,3915],[82.9,3998],[82.9,4082],[82.9,4165],[82.9,4248],[82.9,4332],[82.9,4415],[82.9,4498],[82.9,4582],[82.9,4665],[82.9,4748],[82.9,4831],[82.9,4915],[82.9,4998],[82.9,5082],[82.9,5165],[82.9,5248],[82.9,5331],[82.9,5415],[82.9,5498],[82.9,5581],[82.9,5664],[82.9,5748],[82.9,5831],[82.9,5914],[82.9,5998],[82.9,6081],[82.9,6165],[82.9,6248],[82.9,6331],[82.9,6414],[82.9,6498],[82.9,6581],[82.9,6664],[82.9,6748],[82.9,6831],[82.9,6914],[82.9,6997],[82.9,7081],[82.9,7164],[82.9,7248],[82.9,7331],[82.9,7414],[82.9,7498],[82.9,7581],[82.9,7664],[82.9,7748],[82.9,7830],[82.9,7914],[82.9,7997],[82.9,8081],[82.9,8164],[82.9,8247],[82.9,8331],[82.9,8414],[82.9,8497],[82.9,8581],[82.9,8664],[82.9,8747],[82.9,8831],[82.9,8914],[82.9,8997],[82.9,9080],[82.9,9164],[82.9,9247],[82.9,9331],[82.9,9413],[82.9,9497],[82.9,9580],[82.9,9664],[82.9,9747],[82.9,9830],[82.9,9914],[82.9,9997],[82.9,10080],[82.9,10164],[82.9,10247],[82.9,10330],[82.9,10414],[82.9,10497],[82.9,10580],[82.9,10664],[82.9,10747],[82.9,10830],[82.9,10914],[82.9,10997],[82.9,11080],[82.9,11163],[82.9,11246],[82.9,11330],[82.9,11413],[82.9,11496],[82.9,11580],[82.9,11663],[82.9,11746],[82.9,11829],[82.9,11913],[82.9,11996],[82.9,12079],[82.9,12163],[82.9,12246],[82.9,12329],[82.9,12413],[82.9,12496],[82.9,12579]]",2020.7704,2035.8667,88.22916349,13.2074,"[{""rating"":88.22916348775227,""responseTime"":13.207399999998415}]",space,14.5532,,2035.8668,Partially,50,2035.8731,,,[],,0,13,13,13,1,audio/Narrative8Situation4.wav,audio/Narrative7Situation4.wav,audio/Narrative6Situation4.wav,audio/Narrative5Situation4.wav,3,3,2,1,,,,,,,,,,,,,,,,,,,,,,,,,,,,,,,,,,,,,,,
,,,,,66afcaa60f7d8f58dc21db8e,2025-07-07_23h10.47.213,group3.4_multiperson,2023.2.2,Win32,59.52380952,686c2ebf0248f13bef9af11f,686c852562b8d2d1a1f7c4c2,,,,,,,,,,,,,,,,,,,,,,,,,,,,,2035.8736,2,audio/Narrative6Situation5.wav,2037.8827,,2037.8828,2045.831,"[[75,4748],[74.1,4838],[74.1,4915],[74.1,4998],[74.1,5082],[74.1,5165],[74.1,5248],[74.1,5332],[74.1,5415],[74.1,5498],[74.1,5582],[74.1,5665],[74.1,5748],[74.1,5831],[74.1,5915],[74.1,5998],[74.1,6082],[74.1,6165],[74.1,6248],[74.1,6331],[74.1,6414],[74.1,6498],[74.1,6581],[74.1,6665],[74.1,6748],[74.1,6831],[74.1,6914],[74.1,6998],[74.1,7081],[74.1,7164],[74.1,7248],[74.1,7331],[74.1,7414],[74.1,7498],[74.1,7581],[74.1,7664],[74.1,7748],[74.1,7831],[74.1,7914]]",2045.8312,2145.6734,77.60416667,26.5041,"[{""rating"":77.60416666666667,""responseTime"":26.504099999997834}]",space,99.299,,2145.6735,Not at all,0,2145.681,,,[],,0,14,14,14,1,audio/Narrative8Situation5.wav,audio/Narrative7Situation5.wav,audio/Narrative6Situation5.wav,audio/Narrative5Situation5.wav,2,5,2,5,,,,,,,,,,,,,,,,,,,,,,,,,,,,,,,,,,,,,,,
,,,,,66afcaa60f7d8f58dc21db8e,2025-07-07_23h10.47.213,group3.4_multiperson,2023.2.2,Win32,59.52380952,686c2ebf0248f13bef9af11f,686c852562b8d2d1a1f7c4c2,,,,,,,,,,,,,,,,,,,,,,,,,,,,,2145.6817,2,audio/Narrative6Situation6.wav,2147.6895,,2147.6896,2158.77,"[[78.9,4498],[78.9,4581],[78.9,4665],[78.9,4748],[78.9,4831],[78.9,4914],[78.9,4998],[78.9,5081],[78.9,5164],[78.9,5248],[78.9,5331],[78.9,5414],[78.9,5498],[78.9,5581],[78.9,5664],[78.9,5748],[78.9,5831],[78.9,5914],[78.9,5997],[78.9,6081],[78.9,6164],[78.9,6247],[78.9,6331],[78.9,6414],[78.9,6497],[78.9,6581],[78.9,6664],[78.9,6747],[78.9,6831],[78.9,6914],[78.9,6997],[78.9,7081],[78.9,7164],[78.9,7247],[78.9,7331],[78.9,7414],[78.9,7497],[78.9,7581],[78.9,7664],[78.9,7747],[78.9,7831],[78.9,7914],[78.9,7997],[78.9,8081],[78.9,8164],[78.9,8247],[78.9,8331],[78.9,8414],[78.9,8497],[78.9,8580],[78.9,8664],[78.9,8747],[78.9,8831],[78.9,8913],[78.9,8997],[78.9,9081],[78.9,9164],[78.9,9247],[78.9,9330],[78.9,9413],[78.9,9496],[78.9,9580],[78.9,9663],[78.9,9747],[78.9,9830],[78.9,9913],[78.9,9996],[78.9,10080],[78.9,10163],[78.9,10246],[78.9,10330],[78.9,10413],[78.9,10497],[78.9,10580],[78.9,10663],[78.9,10746],[78.9,10830],[78.9,10913],[78.9,10996],[78.9,11080]]",2158.7701,2188.1631,73.75000318,15.9278,"[{""rating"":73.7500031789144,""responseTime"":15.927800000000843}]",space,28.845,,2188.1631,Not at all,0,2188.1669,,,[],,0,15,15,15,1,audio/Narrative8Situation6.wav,audio/Narrative7Situation6.wav,audio/Narrative6Situation6.wav,audio/Narrative5Situation6.wav,2,3,2,3,,,,,,,,,,,,,,,,,,,,,,,,,,,,,,,,,,,,,,,
,,,,,66afcaa60f7d8f58dc21db8e,2025-07-07_23h10.47.213,group3.4_multiperson,2023.2.2,Win32,59.52380952,686c2ebf0248f13bef9af11f,686c852562b8d2d1a1f7c4c2,,,,,,,,,,,,,,,,,,,,,,,,,,,,,2188.1675,2,audio/Narrative6Situation7.wav,2193.1783,,2193.1784,2218.0389,"[[80.9,2415],[80.9,2498],[80.9,2582],[80.9,2665],[80.9,2748],[80.9,2832],[80.9,2915],[80.9,2998],[80.9,3082],[80.9,3165],[80.9,3249],[80.9,3332],[80.9,3415],[80.9,3498],[80.9,3581],[80.9,3665],[80.9,3748],[80.9,3831],[80.9,3915],[80.9,3998],[80.9,4081],[80.9,4165],[80.9,4248],[80.9,4331],[80.9,4415],[80.9,4498],[80.9,4581],[80.9,4665],[80.9,4748],[80.9,4831],[80.9,4915],[80.9,4998],[80.9,5081],[80.9,5165],[80.9,5248],[80.9,5331],[80.9,5419],[80.9,5498],[80.9,5581],[80.9,5665],[80.9,5748],[80.9,5831],[80.9,5915],[80.9,5998],[80.9,6081],[80.9,6164],[80.9,6248],[80.9,6331],[80.9,6415],[80.9,6498],[80.9,6581],[80.9,6664],[80.9,6748],[80.9,6831],[80.9,6914],[80.9,6998],[80.9,7081],[80.9,7164],[80.9,7248],[80.9,7331],[80.9,7414],[80.9,7498],[80.9,7580],[80.9,7664],[80.9,7747],[80.9,7830],[80.9,7914],[80.9,7997],[80.9,8080],[80.9,8164],[80.9,8247],[80.9,8330],[80.9,8414],[80.9,8497],[80.9,8580],[80.9,8663],[80.9,8747],[80.9,8830],[80.9,8914],[80.9,8997],[80.9,9080],[80.9,9164],[80.9,9247],[80.9,9330],[80.9,9414],[80.9,9497],[80.9,9580],[80.9,9664],[80.9,9747],[80.9,9830],[80.9,9914],[80.9,9997],[80.9,10080],[80.9,10169],[80.9,10247],[80.9,10330],[80.9,10414],[80.9,10497],[80.9,10580],[80.9,10664],[80.9,10747],[80.9,10830],[80.9,10914],[80.9,10996],[80.9,11080],[80.9,11163],[80.9,11247],[80.9,11330],[80.9,11413],[80.9,11496],[80.9,11580],[80.9,11663],[80.9,11746],[80.9,11830],[80.9,11913],[80.9,11997],[80.9,12080],[80.9,12163],[80.9,12251],[80.9,12330],[80.9,12413],[80.9,12496],[80.9,12579],[80.9,12663],[80.9,12746],[80.9,12829],[80.9,12913],[80.9,12996],[80.9,13079],[80.9,13162],[80.9,13246],[80.9,13329],[80.9,13413],[80.9,13496],[80.9,13579],[80.9,13663],[80.9,13746],[80.9,13829],[80.9,13913],[80.9,13996],[80.9,14079],[80.9,14162],[80.9,14246],[80.9,14329],[80.9,14412],[80.9,14496],[80.9,14579],[80.9,14662],[80.9,14746],[80.9,14829],[80.9,14912],[80.9,14996],[80.9,15079],[80.9,15162],[80.9,15246],[80.9,15329],[80.9,15412],[80.9,15496],[80.9,15578],[80.9,15662],[80.9,15745],[80.9,15828],[80.9,15912],[80.9,15995],[80.9,16078],[80.9,16162],[80.9,16245],[80.9,16328],[80.9,16412],[80.9,16495],[80.9,16578],[80.9,16662],[80.9,16745],[80.9,16828],[80.9,16912],[80.9,16995],[80.9,17078],[80.9,17162],[80.9,17245],[80.9,17328],[80.9,17411],[80.9,17495],[80.9,17578],[80.9,17661],[80.9,17745],[80.9,17828],[80.9,17911],[80.9,17995],[80.9,18078],[80.9,18161],[80.9,18245],[80.9,18328],[80.9,18411],[80.9,18495],[80.9,18578],[80.9,18661],[80.9,18745],[80.9,18828],[80.9,18911],[80.9,18995],[80.9,19078],[80.9,19161],[80.9,19245],[80.9,19328],[80.9,19411],[80.9,19497],[80.9,19578],[80.9,19661],[80.9,19745],[80.9,19827],[80.9,19911],[80.9,20000],[80.9,20077],[80.9,20161],[80.9,20244],[80.9,20328],[80.9,20411],[80.9,20494],[80.9,20578],[80.9,20661],[80.9,20744],[80.9,20827],[80.9,20910],[80.9,20994],[80.9,21077],[80.9,21160],[80.9,21244],[80.9,21327],[80.9,21410],[80.9,21494],[80.9,21577],[80.9,21660],[80.9,21744],[80.9,21827],[80.9,21910],[80.9,21994],[80.9,22077],[80.9,22160],[80.9,22243],[80.9,22327],[80.9,22410],[80.9,22494],[80.9,22577],[80.9,22660],[80.9,22743],[80.9,22827],[80.9,22910],[80.9,22994],[80.9,23077],[80.9,23160],[80.9,23244],[80.9,23327],[80.9,23410],[80.9,23494],[80.9,23577],[80.9,23660],[80.9,23743],[80.9,23827],[80.9,23910],[80.9,23993],[80.9,24077],[80.9,24160],[80.9,24243],[80.9,24327],[80.9,24410],[80.9,24493],[80.9,24577],[80.9,24659],[80.9,24743],[80.9,24827]]",2218.0392,2224.3705,69.68750159,4.4879,"[{""rating"":69.68750158945718,""responseTime"":4.487900000002355}]",space,5.7824,,2224.3705,Not at all,0,2224.3736,,,[],,0,16,16,16,1,audio/Narrative8Situation7.wav,audio/Narrative7Situation7.wav,audio/Narrative6Situation7.wav,audio/Narrative5Situation7.wav,3,5,5,4,,,,,,,,,,,,,,,,,,,,,,,,,,,,,,,,,,,,,,,
,,,,,66afcaa60f7d8f58dc21db8e,2025-07-07_23h10.47.213,group3.4_multiperson,2023.2.2,Win32,59.52380952,686c2ebf0248f13bef9af11f,686c852562b8d2d1a1f7c4c2,,,,,,,,,,,,,,,,,,,,,,,,,,,,,2224.3739,2,audio/Narrative6Situation8.wav,2229.3861,,2229.3861,2236.2512,[],2236.2513,2242.8991,79.27083174,4.954,"[{""rating"":79.27083174387614,""responseTime"":4.9539999999997235}]",space,6.1058,,2242.8991,Not at all,0,2242.9016,,,[],,0,17,17,17,1,audio/Narrative8Situation8.wav,audio/Narrative7Situation8.wav,audio/Narrative6Situation8.wav,audio/Narrative5Situation8.wav,3,2,5,3,,,,,,,,,,,,,,,,,,,,,,,,,,,,,,,,,,,,,,,
,,,,,66afcaa60f7d8f58dc21db8e,2025-07-07_23h10.47.213,group3.4_multiperson,2023.2.2,Win32,59.52380952,686c2ebf0248f13bef9af11f,686c852562b8d2d1a1f7c4c2,,,,,,,,,,,,,,,,,,,,,,,,,,,,,2242.902,2,audio/Narrative6Situation9.wav,2246.9153,,2246.9154,2256.8791,"[[89.1,6664],[89.1,6747],[89.1,6831],[89.1,6914],[89.1,6997],[89.1,7081],[89.1,7164],[89.1,7247],[89.1,7331],[89.1,7414],[89.1,7497],[89.1,7581],[89.1,7663],[89.1,7748],[89.1,7830],[89.1,7914],[89.1,7997],[89.1,8080],[89.1,8163],[89.1,8247],[89.1,8331],[89.1,8413],[89.1,8497],[89.1,8580],[89.1,8663],[89.1,8747],[89.1,8830],[89.1,8913],[89.1,8997],[89.1,9080],[89.1,9163],[89.1,9247],[89.1,9330],[89.1,9413],[89.1,9496],[89.1,9580],[89.1,9663],[89.1,9747],[89.1,9830],[89.1,9913]]",2256.8793,2266.61,82.50000477,9.7274,"[{""rating"":82.50000476837158,""responseTime"":9.727399999998397}]",space,0.7729,,2266.6101,Not at all,0,2266.6124,,,[],,0,18,18,18,1,audio/Narrative8Situation9.wav,audio/Narrative7Situation9.wav,audio/Narrative6Situation9.wav,audio/Narrative5Situation9.wav,3,2,4,3,,,,,,,,,,,,,,,,,,,,,,,,,,,,,,,,,,,,,,,
,,,,,66afcaa60f7d8f58dc21db8e,2025-07-07_23h10.47.213,group3.4_multiperson,2023.2.2,Win32,59.52380952,686c2ebf0248f13bef9af11f,686c852562b8d2d1a1f7c4c2,,,,,,,,,,,,,,,,,,,,,,,,,,,,,,,,,,,,,,,,,,,,,,,,,,,,,,,,,,,,,,,,,,,,,,2266.6126,2269.4755,space,2.3396,,2269.4758,2271.726,space,1.9332,,,,,,,,,,,,,,,,,,,,,,,,,,
,,,,,66afcaa60f7d8f58dc21db8e,2025-07-07_23h10.47.213,group3.4_multiperson,2023.2.2,Win32,59.52380952,686c2ebf0248f13bef9af11f,686c852562b8d2d1a1f7c4c2,,,,,,,,,,,,,,,,,,,,,,,,,,,,,2274.3311,1,audio/Narrative8Situation9.wav,2276.3412,,,,,2308.2011,2311.5163,76.14583174,1.9715,"[{""rating"":76.14583174387614,""responseTime"":1.9714999999996508}]",space,2.7676,,2311.5165,Definitely yes,100,2311.5229,,,[],,,,,,,,,,,2,2,2,2,,,,,,,,,,,,,,,2271.7301,2274.3085,2276.3417,3,2308.2008,"[[74.5,5580],[74.5,5664],[74.5,5747],[74.5,5830],[74.5,5914],[74.5,5997],[74.5,6080],[74.5,6164],[74.5,6247],[74.5,6331],[74.5,6414],[74.5,6497],[74.5,6581],[74.5,6664],[74.5,6747],[74.5,6836],[74.5,6914],[74.5,6997],[74.5,7080],[74.5,7164],[74.5,7247],[74.5,7331],[74.5,7414],[74.5,7497],[74.5,7580],[74.5,7663],[74.5,7746],[74.5,7830],[74.5,7913],[74.5,7996],[74.5,8080],[74.5,8164],[74.5,8247],[74.5,8330],[74.5,8416],[74.5,8496],[74.5,8580],[74.5,8663],[74.5,8747],[74.5,8830],[74.5,8913],[74.5,8996],[74.5,9080],[74.5,9163],[74.5,9246],[74.5,9330],[74.5,9413],[74.5,9497],[74.5,9580],[74.5,9663],[74.5,9746],[74.5,9830],[74.5,9913],[74.5,9997],[74.5,10080],[74.5,10163],[74.5,10246],[74.5,10330],[74.5,10413],[74.5,10496],[74.5,10580],[74.5,10663],[74.5,10746],[74.5,10829],[74.5,10913],[74.5,10996],[74.5,11080],[74.5,11163],[74.5,11246],[74.5,11330],[74.5,11413],[74.5,11495],[74.5,11579],[74.5,11663],[74.5,11746],[74.5,11830],[74.5,11913],[74.5,11996],[74.5,12079],[74.5,12162],[74.5,12246],[74.5,12329],[74.5,12412],[74.5,12496],[74.5,12579],[74.5,12662],[74.5,12746],[74.5,12830],[74.5,12913],[74.5,12996],[74.5,13079],[74.5,13163],[74.5,13246],[74.5,13329],[74.5,13412],[74.5,13495],[74.5,13579],[74.5,13663],[74.5,13746],[74.5,13829],[74.5,13912],[74.5,13995],[74.5,14079],[74.5,14162],[74.5,14245],[74.5,14328],[74.5,14412],[74.5,14495],[74.5,14579],[74.5,14662],[74.5,14745],[74.5,14829],[74.5,14912],[74.5,14995],[74.5,15079],[74.5,15162],[74.5,15245],[74.5,15329],[74.5,15412],[74.5,15495],[74.5,15578],[74.5,15662],[74.5,15745],[74.5,15829],[74.5,15911],[74.5,15995],[74.5,16079],[74.5,16162],[74.5,16245],[74.5,16328],[74.5,16412],[74.5,16495],[74.5,16578],[74.5,16661],[74.5,16745],[74.5,16828],[74.5,16912],[74.5,16995],[74.5,17078],[74.5,17161],[74.5,17245],[74.5,17328],[74.5,17412],[74.5,17494],[74.5,17578],[74.5,17661],[74.5,17744],[74.5,17828],[74.5,17912],[74.5,17995],[74.5,18078],[74.5,18161],[74.5,18244],[74.5,18328],[74.5,18411],[74.5,18494],[74.5,18577],[74.5,18661],[74.5,18744],[74.5,18827],[74.5,18911],[74.5,18994],[74.5,19077],[74.5,19161],[74.5,19244],[74.5,19328],[74.5,19411],[74.5,19494],[74.5,19577],[74.5,19661],[74.5,19744],[74.5,19827],[74.5,19911],[74.5,19994],[74.5,20077],[74.5,20160],[74.5,20244],[74.5,20327],[74.5,20411],[74.5,20494],[74.5,20578],[74.5,20660],[74.5,20744],[74.5,20827],[74.5,20911],[74.5,20994],[74.5,21077],[74.5,21161],[74.5,21244],[74.5,21327],[74.5,21410],[74.5,21494],[74.5,21577],[74.5,21661],[74.5,21744],[74.5,21827],[74.5,21911],[74.5,21994],[74.5,22077],[74.5,22160],[74.5,22243],[74.5,22327],[74.5,22410],[74.5,22493],[74.5,22577],[74.5,22660],[74.5,22743],[74.5,22827],[74.5,22910],[74.5,22993],[74.5,23077],[74.5,23160],[74.5,23243],[74.5,23327],[74.5,23410],[74.5,23493],[74.5,23577],[74.5,23660],[74.5,23743],[74.5,23827],[74.5,23910],[74.5,23993],[74.5,24076],[74.5,24160],[74.5,24243],[74.5,24326],[74.5,24410],[74.5,24493],[74.5,24576],[74.5,24660],[74.5,24743],[74.5,24826],[74.5,24915],[74.5,24993],[74.5,25076],[74.5,25159],[74.5,25243],[74.5,25326],[74.5,25409],[74.5,25493],[74.5,25576],[74.5,25660],[74.5,25743],[74.5,25826],[74.5,25909],[74.5,25994],[74.5,26076],[74.5,26159],[74.5,26242],[74.5,26326],[74.5,26409],[74.5,26492],[74.5,26575],[74.5,26659],[74.5,26742],[74.5,26825],[74.5,26909],[74.5,26992],[74.5,27076],[74.5,27159],[74.5,27242],[74.5,27325],[74.5,27409],[74.5,27492],[74.5,27575],[74.5,27659],[74.5,27742],[74.5,27825],[74.5,27909],[74.5,27992],[74.5,28075],[74.5,28159],[74.5,28242],[74.5,28325],[74.5,28414],[74.5,28492],[74.5,28575],[74.5,28659],[74.5,28742],[74.5,28825],[74.5,28909],[74.5,28991],[74.5,29075],[74.5,29159],[74.5,29242],[74.5,29330],[74.5,29409],[74.5,29491],[74.5,29575],[74.5,29659],[74.5,29742],[74.5,29825],[74.5,29908],[74.5,29992],[74.5,30075],[74.5,30158],[74.5,30241],[74.5,30325],[74.5,30408],[74.5,30492],[74.5,30574],[74.5,30658],[74.5,30741],[74.5,30825],[74.5,30908],[74.5,30992],[74.5,31075],[74.5,31158],[74.5,31241],[74.5,31324],[74.5,31408],[74.5,31491],[74.5,31574],[74.5,31658],[74.5,31741],[74.5,31829]]",0,0,0,0,1,"Larry had recently lost his family, job and home, and was now living on his own in the park. He had most of his belongings, including some clothes, a blanket, and his mother’s special necklace. His family had been very important to him and he felt as though he did not have much going for him. One of his first days in the park he came across a family that did not have much food and looked very cold. He decided to give them some of his food and his blanket.","Larry had recently lost his family, job and home, and was now living on his own in the park. He had most of his belongings, including some clothes, a blanket, and his mother’s special necklace. His family had been very important to him and he felt as though he did not have much going for him. One of his first days in the park he came across a family that did not have much food and looked very cold. He decided to give them some of his food and his blanket.","Larry had recently lost his family, job and home, and was now living on his own in the park. He had most of his belongings, including some clothes, a blanket, and his mother’s special necklace. His family had been very important to him and he felt as though he did not have much going for him. One of his first days in the park he came across a family that did not have much food and looked very cold. He decided to give them some of his food and his blanket.","Larry had recently lost his family, job and home, and was now living on his own in the park. He had most of his belongings, including some clothes, a blanket, and his mother’s special necklace. His family had been very important to him and he felt as though he did not have much going for him. One of his first days in the park he came across a family that did not have much food and looked very cold. He decided to give them some of his food and his blanket.",,,,,,,,,,
,,,,,66afcaa60f7d8f58dc21db8e,2025-07-07_23h10.47.213,group3.4_multiperson,2023.2.2,Win32,59.52380952,686c2ebf0248f13bef9af11f,686c852562b8d2d1a1f7c4c2,,,,,,,,,,,,,,,,,,,,,,,,,,,,,2311.5239,1,audio/Narrative8Situation9.wav,2316.7312,space,,,,2350.274,2360.1709,76.45833492,6.8012,"[{""rating"":76.45833492279053,""responseTime"":6.801199999998971}]",space,9.349,,2360.171,Not at all,0,2360.1772,,,[],,,,,,,,,,,6,2,3,9,5.1778,,,,,,,,,,,,,,,,2316.7312,3,2350.2736,"[[74.7,1832],[74.7,1915],[74.7,1999],[74.7,2083],[74.7,2165],[74.7,2249],[74.7,2333],[74.7,2415],[74.7,2499],[74.7,2582],[74.7,2666],[74.7,2749],[74.7,2833],[74.7,2916],[74.7,2999],[74.7,3082],[74.7,3165],[74.7,3249],[74.7,3332],[74.7,3415],[74.7,3499],[74.7,3582],[74.7,3666],[74.7,3749],[74.7,3832],[74.7,3915],[74.7,3999],[74.7,4082],[74.7,4165],[74.7,4249],[74.7,4332],[74.7,4416],[74.7,4498],[74.7,4582],[74.7,4665],[74.7,4748],[74.7,4832],[74.7,4915],[74.7,4998],[74.7,5082],[74.7,5165],[74.7,5248],[74.7,5332],[74.7,5415],[74.7,5498],[74.7,5582],[74.7,5665],[74.7,5748],[74.7,5832],[74.7,5914],[74.7,5998],[74.7,6081],[74.7,6165],[74.7,6248],[74.7,6332],[74.7,6415],[74.7,6498],[74.7,6581],[74.7,6665],[74.7,6748],[74.7,6831],[74.7,6914],[74.7,6998],[74.7,7081],[74.7,7165],[74.7,7248],[74.7,7331],[74.7,7415],[74.7,7498],[74.7,7581],[74.7,7664],[74.7,7748],[74.7,7831],[74.7,7914],[74.7,8003],[74.7,8084],[74.7,8164],[74.7,8248],[74.7,8331],[74.7,8414],[74.7,8497],[74.7,8581],[74.7,8664],[74.7,8748],[74.7,8831],[74.7,8914],[74.7,8997],[74.7,9081],[74.7,9164],[74.7,9247],[74.7,9331],[74.7,9414],[74.7,9497],[74.7,9581],[74.7,9664],[74.7,9747],[74.7,9831],[74.7,9914],[74.7,9997],[74.7,10080],[74.7,10164],[74.7,10247],[74.7,10331],[74.7,10417],[74.7,10497],[74.7,10581],[74.7,10663],[74.7,10747],[74.7,10830],[74.7,10914],[74.7,10997],[74.7,11080],[74.7,11164],[74.7,11247],[74.7,11330],[74.7,11414],[74.7,11497],[74.7,11580],[74.7,11663],[74.7,11752],[74.7,11830],[74.7,11913],[74.7,11997],[74.7,12080],[74.7,12163],[74.7,12247],[74.7,12330],[74.7,12413],[74.7,12497],[74.7,12580],[74.7,12663],[74.7,12746],[74.7,12830],[74.7,12913],[74.7,12996],[74.7,13080],[74.7,13163],[74.7,13246],[74.7,13330],[74.7,13413],[74.7,13496],[74.7,13580],[74.7,13663],[74.7,13746],[74.7,13829],[74.7,13913],[74.7,13996],[74.7,14080],[74.7,14163],[74.7,14246],[74.7,14330],[74.7,14413],[74.7,14496],[74.7,14579],[74.7,14663],[74.7,14746],[74.7,14829],[74.7,14912],[74.7,14996],[74.7,15079],[74.7,15163],[74.7,15246],[74.7,15329],[74.7,15412],[74.7,15501],[74.7,15579],[74.7,15663],[74.7,15746],[74.7,15829],[74.7,15912],[74.7,15996],[74.7,16083],[74.7,16162],[74.7,16246],[74.7,16329],[74.7,16412],[74.7,16496],[74.7,16579],[74.7,16662],[74.7,16745],[74.7,16829],[74.7,16912],[74.7,16995],[74.7,17079],[74.7,17162],[74.7,17245],[74.7,17329],[74.7,17412],[74.7,17499],[74.7,17579],[74.7,17662],[74.7,17745],[74.7,17829],[74.7,17912],[74.7,17995],[74.7,18079],[74.7,18162],[74.7,18245],[74.7,18328],[74.7,18412],[74.7,18495],[74.7,18579],[74.7,18662],[74.7,18745],[74.7,18828],[74.7,18912],[74.7,18995],[74.7,19079],[74.7,19161],[74.7,19245],[74.7,19328],[74.7,19412],[74.7,19495],[74.7,19578],[74.7,19661],[74.7,19745],[74.7,19828],[74.7,19911],[74.7,19995],[74.7,20083],[74.7,20161],[74.7,20245],[74.7,20328],[74.7,20411],[74.7,20494],[74.7,20578],[74.7,20661],[74.7,20744],[74.7,20828],[74.7,20911],[74.7,20994],[74.7,21078],[74.7,21161],[74.7,21245],[74.7,21327],[74.7,21411],[74.7,21494],[74.7,21578],[74.7,21666],[74.7,21744],[74.7,21828],[74.7,21911],[74.7,21994],[74.7,22077],[74.7,22161],[74.7,22244],[74.7,22328],[74.7,22411],[74.7,22494],[74.7,22578],[74.7,22661],[74.7,22744],[74.7,22827],[74.7,22911],[74.7,22994],[74.7,23077],[74.7,23161],[74.7,23244],[74.7,23327],[74.7,23415],[74.7,23494],[74.7,23577],[74.7,23661],[74.7,23744],[74.7,23827],[74.7,23916],[74.7,23994],[74.7,24077],[74.7,24160],[74.7,24244],[74.7,24327],[74.7,24410],[74.7,24494],[74.7,24577],[74.7,24661],[74.7,24744],[74.7,24827],[74.7,24910],[74.7,24994],[74.7,25077],[74.7,25160],[74.7,25244],[74.7,25326],[74.7,25410],[74.7,25493],[74.7,25577],[74.7,25660],[74.7,25744],[74.7,25827],[74.7,25910],[74.7,25993],[74.7,26077],[74.7,26160],[74.7,26243],[74.7,26326],[74.7,26410],[74.7,26493],[74.7,26576],[74.7,26660],[74.7,26748],[74.7,26826],[74.7,26909],[74.7,26993],[74.7,27076],[74.7,27159],[74.7,27243],[74.7,27326],[74.7,27410],[74.7,27497],[74.7,27576],[74.7,27660],[74.7,27743],[74.7,27826],[74.7,27910],[74.7,27993],[74.7,28076],[74.7,28159],[74.7,28243],[74.7,28325],[74.7,28409],[74.7,28493],[74.7,28576],[74.7,28659],[74.7,28742],[74.7,28826],[74.7,28909],[74.7,28993],[74.7,29076],[74.7,29159],[74.7,29242],[74.7,29326],[74.7,29409],[74.7,29493],[74.7,29576],[74.7,29659],[74.7,29743],[74.7,29826],[74.7,29909],[74.7,29992],[74.7,30080],[74.7,30159],[74.7,30242],[74.7,30325],[74.7,30409],[74.7,30492],[74.7,30575],[74.7,30659],[74.7,30742],[74.7,30825],[74.7,30909],[74.7,30992],[74.7,31075],[74.7,31158],[74.7,31241],[74.7,31325],[74.7,31409],[74.7,31492],[74.7,31575],[74.7,31659],[74.7,31742],[74.7,31825],[74.7,31908],[74.7,31992],[74.7,32075],[74.7,32158],[74.7,32242],[74.7,32325],[74.7,32409],[74.7,32492],[74.7,32575],[74.7,32658],[74.7,32741],[74.7,32825],[74.7,32908],[74.7,32991],[74.7,33075],[74.7,33158],[74.7,33242],[74.7,33325],[74.7,33408],[74.7,33492]]",0,1,1,1,1,"It was just another Sunday afternoon for Lucy, she was on her way to the farmer's market to pick up some produce. When she arrived at the old train depot that housed the market, she noticed two men fighting on the steps. Before she could call for help, one of the men crumpled to his knees. The other man dropped an object that appeared to be a knife and ran off. When Lucy approached the crime scene she realized that the man who had been murdered was the Mayor and that he had a gunshot wound.","One day at work, Margaret walked up to her partner, Al, to ask him to talk to the chief of staff at the local hospital where she worked as a nurse.","Luke always thought of himself as an honest man. That's why during his evening jog around the swamp, he pondered his recent affair with the receptionist at work. Luke looked up at the sky and asked God why he was so weak and unfaithful. He thought of the impact this would have on his family and told God of his conflicted feelings toward telling his wife Marta.","Linda and Amy had been best friends since kindergarten, they even found homes on the same street in the forest on the edge of town. Their biggest fight had been over who gets the bigger slice of cake, until Amy married Dan. Linda loathed Dan, she thought he was manipulative and had a violent temper. She only put up with him because Amy loved him. ",,,,,,,,,,
