consent.started,consent.stopped,consentResponse.keys,consentResponse.rt,consentResponse.duration,participantID,date,expName,psychopyVersion,OS,frameRate,STUDY_ID,SESSION_ID,opening1.started,opening1.stopped,keyEndingOpening1.keys,keyEndingOpening1.rt,keyEndingOpening1.duration,volumeAdjust.started,volumeAdjust.stopped,endingAdjust.keys,endingAdjust.rt,endingAdjust.duration,opening2.started,opening2.stopped,keyEndingOpening.keys,keyEndingOpening.rt,keyEndingOpening.duration,mouse.x,mouse.y,mouse.leftButton,mouse.midButton,mouse.rightButton,mouse.time,instructionLoop.thisRepN,instructionLoop.thisTrialN,instructionLoop.thisN,instructionLoop.thisIndex,instructionLoop.ran,readyForAudio.started,readyForAudio.stopped,fixation.started,run,audio_played,fixation.stopped,endPractice.keys,audioPre.started,audioPre.stopped,continuousResponses_audio,intRating.started,intRating.stopped,intQuestionSlider.response,intQuestionSlider.rt,intQuestionSlider.history,confirmResponse.keys,confirmResponse.rt,confirmResponse.duration,catchQuestion.started,catch_label,catch_value,catchQuestion.stopped,catchQuestionSlider.response,catchQuestionSlider.rt,catchQuestionSlider.history,confirmResponse_2.keys,audioRunLoop.thisRepN,audioRunLoop.thisTrialN,audioRunLoop.thisN,audioRunLoop.thisIndex,audioRunLoop.ran,conditions1_1,conditions2_1,conditions1_2,conditions2_2,dur1_1,dur2_1,dur1_2,dur2_2,endPractice.rt,endPractice.duration,confirmResponse_2.rt,confirmResponse_2.duration,runIntervalBreak.started,runIntervalBreak.stopped,endingBreakKey.keys,endingBreakKey.rt,endingBreakKey.duration,connection.started,connection.stopped,connectionEnding.keys,connectionEnding.rt,connectionEnding.duration,readyForText.started,readyForText.stopped,textPre.started,run_dup,textPre.stopped,continuousResponses_text,textRunLoop.thisRepN,textRunLoop.thisTrialN,textRunLoop.thisN,textRunLoop.thisIndex,textRunLoop.ran,text1_1,text1_2,text2_1,text2_2,runBreakText.started,runBreakText.stopped,endingBreakKey_2.keys,endingBreakKey_2.rt,endingBreakKey_2.duration,ending.started,ending.stopped,endingEnding.keys,endingEnding.rt,endingEnding.duration
0.0003,6.4805,y,6.1541,,66b91ee649636fce844ef133,2025-07-07_21h59.38.812,group3.4_multiperson,2023.2.2,Win32,64.1025641,686c2ebf0248f13bef9af11f,686c7b749df6419ce4e747e5,,,,,,,,,,,,,,,,,,,,,,,,,,,,,,,,,,,,,,,,,,,,,,,,,,,,,,,,,,,,,,,,,,,,,,,,,,,,,,,,,,,,,,,,,,,,,,,,,,,,,,,,
,,,,,66b91ee649636fce844ef133,2025-07-07_21h59.38.812,group3.4_multiperson,2023.2.2,Win32,64.1025641,686c2ebf0248f13bef9af11f,686c7b749df6419ce4e747e5,6.4812,12.7793,space,6.2578,,,,,,,,,,,,,,,,,,,,,,,,,,,,,,,,,,,,,,,,,,,,,,,,,,,,,,,,,,,,,,,,,,,,,,,,,,,,,,,,,,,,,,,,,,,,,,,,,,,,
,,,,,66b91ee649636fce844ef133,2025-07-07_21h59.38.812,group3.4_multiperson,2023.2.2,Win32,64.1025641,686c2ebf0248f13bef9af11f,686c7b749df6419ce4e747e5,,,,,,12.7798,35.2451,space,22.1363,,,,,,,,,,,,,,,,,,,,,,,,,,,,,,,,,,,,,,,,,,,,,,,,,,,,,,,,,,,,,,,,,,,,,,,,,,,,,,,,,,,,,,,,,,,,,,,
,,,,,66b91ee649636fce844ef133,2025-07-07_21h59.38.812,group3.4_multiperson,2023.2.2,Win32,64.1025641,686c2ebf0248f13bef9af11f,686c7b749df6419ce4e747e5,,,,,,,,,,,35.2536,48.0119,space,12.731,,[],[],[],[],[],[],0,0,0,0,1,,,,,,,,,,,,,,,,,,,,,,,,,,,,,,,,,,,,,,,,,,,,,,,,,,,,,,,,,,,,,,,,,,,,,,,,,,,,,,
,,,,,66b91ee649636fce844ef133,2025-07-07_21h59.38.812,group3.4_multiperson,2023.2.2,Win32,64.1025641,686c2ebf0248f13bef9af11f,686c7b749df6419ce4e747e5,,,,,,,,,,,48.013,69.9769,space,21.8863,,[],[],[],[],[],[],1,0,1,0,1,,,,,,,,,,,,,,,,,,,,,,,,,,,,,,,,,,,,,,,,,,,,,,,,,,,,,,,,,,,,,,,,,,,,,,,,,,,,,,
,,,,,66b91ee649636fce844ef133,2025-07-07_21h59.38.812,group3.4_multiperson,2023.2.2,Win32,64.1025641,686c2ebf0248f13bef9af11f,686c7b749df6419ce4e747e5,,,,,,,,,,,69.9774,88.144,space,18.1282,,[],[],[],[],[],[],2,0,2,0,1,,,,,,,,,,,,,,,,,,,,,,,,,,,,,,,,,,,,,,,,,,,,,,,,,,,,,,,,,,,,,,,,,,,,,,,,,,,,,,
,,,,,66b91ee649636fce844ef133,2025-07-07_21h59.38.812,group3.4_multiperson,2023.2.2,Win32,64.1025641,686c2ebf0248f13bef9af11f,686c7b749df6419ce4e747e5,,,,,,,,,,,88.1444,115.2097,space,27.0464,,[],[],[],[],[],[],3,0,3,0,1,,,,,,,,,,,,,,,,,,,,,,,,,,,,,,,,,,,,,,,,,,,,,,,,,,,,,,,,,,,,,,,,,,,,,,,,,,,,,,
,,,,,66b91ee649636fce844ef133,2025-07-07_21h59.38.812,group3.4_multiperson,2023.2.2,Win32,64.1025641,686c2ebf0248f13bef9af11f,686c7b749df6419ce4e747e5,,,,,,,,,,,115.2103,130.576,space,15.3445,,[],[],[],[],[],[],4,0,4,0,1,,,,,,,,,,,,,,,,,,,,,,,,,,,,,,,,,,,,,,,,,,,,,,,,,,,,,,,,,,,,,,,,,,,,,,,,,,,,,,
,,,,,66b91ee649636fce844ef133,2025-07-07_21h59.38.812,group3.4_multiperson,2023.2.2,Win32,64.1025641,686c2ebf0248f13bef9af11f,686c7b749df6419ce4e747e5,,,,,,,,,,,130.5765,146.7267,space,16.1267,,[],[],[],[],[],[],5,0,5,0,1,,,,,,,,,,,,,,,,,,,,,,,,,,,,,,,,,,,,,,,,,,,,,,,,,,,,,,,,,,,,,,,,,,,,,,,,,,,,,,
,,,,,66b91ee649636fce844ef133,2025-07-07_21h59.38.812,group3.4_multiperson,2023.2.2,Win32,64.1025641,686c2ebf0248f13bef9af11f,686c7b749df6419ce4e747e5,,,,,,,,,,,,,,,,,,,,,,,,,,,146.7315,149.31,149.3361,1,audio/Narrative13Situation2.wav,151.3433,,151.3439,181.0922,"[[999,1],[999,132],[999,215],[999,298],[999,382],[999,464],[999,548],[999,631],[999,715],[999,798],[999,881],[999,965],[999,1047],[999,1131],[999,1214],[999,1298],[999,1381],[999,1465],[999,1548],[999,1632],[999,1715],[999,1798],[999,1882],[999,1966],[999,2048],[999,2131],[999,2216],[999,2298],[999,2382],[999,2465],[999,2548],[999,2631],[999,2716],[999,2798],[999,2881],[999,2965],[999,3048],[999,3131],[999,3215],[999,3298],[999,3381],[999,3465],[999,3548],[999,3632],[999,3715],[999,3798],[999,3882],[999,3965],[999,4048],[999,4131],[999,4215],[999,4298],[999,4381],[999,4465],[999,4548],[999,4632],[999,4715],[999,4798],[999,4881],[999,4965],[999,5048],[999,5131],[999,5216],[999,5298],[999,5381],[999,5465],[999,5548],[999,5631],[999,5715],[999,5798],[999,5881],[999,5965],[999,6048],[999,6131],[999,6215],[999,6298],[999,6381],[999,6466],[999,6548],[999,6631],[999,6715],[999,6797],[999,6882],[999,6965],[999,7048],[999,7131],[999,7215],[999,7298],[999,7382],[999,7465],[999,7548],[999,7631],[999,7715],[999,7798],[999,7882],[999,7965],[999,8048],[999,8132],[999,8215],[999,8298],[999,8381],[999,8465],[999,8548],[999,8631],[999,8715],[999,8798],[999,8882],[999,8965],[999,9048],[999,9131],[999,9215],[999,9298],[999,9381],[999,9465],[999,9548],[999,9631],[999,9715],[999,9798],[999,9881],[999,9965],[999,10048],[999,10132],[999,10215],[999,10298],[999,10381],[999,10465],[999,10548],[999,10631],[999,10715],[999,10798],[999,10881],[999,10965],[999,11048],[999,11131],[999,11215],[999,11298],[999,11381],[999,11465],[999,11548],[999,11631],[999,11715],[999,11798],[999,11881],[999,11965],[999,12048],[999,12131],[999,12215],[999,12298],[999,12381],[999,12465],[999,12548],[999,12631],[999,12715],[999,12798],[999,12881],[999,12965],[999,13047],[999,13131],[999,13215],[999,13298],[999,13382],[999,13465],[999,13548],[999,13632],[999,13715],[999,13797],[999,13881],[999,13965],[999,14048],[999,14131],[999,14215],[999,14298],[999,14382],[999,14465],[999,14548],[999,14631],[999,14716],[999,14798],[999,14882],[999,14965],[999,15048],[999,15132],[999,15215],[999,15298],[999,15381],[999,15465],[999,15548],[999,15632],[999,15715],[999,15798],[999,15882],[999,15964],[999,16048],[999,16131],[999,16215],[999,16298],[999,16381],[999,16464],[999,16548],[999,16631],[999,16715],[999,16798],[999,16881],[999,16965],[999,17048],[999,17131],[999,17215],[999,17298],[999,17381],[999,17465],[999,17548],[999,17631],[999,17715],[999,17798],[999,17881],[999,17965],[999,18048],[999,18132],[999,18215],[999,18298],[999,18381],[999,18465],[999,18548],[999,18632],[999,18715],[999,18797],[999,18881],[999,18965],[999,19048],[999,19131],[999,19214],[999,19298],[999,19382],[999,19464],[999,19548],[999,19631],[999,19714],[999,19798],[999,19881],[999,19964],[999,20048],[999,20131],[999,20215],[999,20298],[2.4,20381],[2.6,20464],[2.6,20548],[2.6,20631],[2.6,20715],[2.6,20797],[2.6,20881],[3.1,20965],[4.1,21048],[4.5,21131],[4.7,21215],[4.9,21297],[4.9,21381],[4.9,21464],[4.9,21548],[4.9,21632],[4.9,21715],[4.9,21798],[4.9,21881],[4.9,21965],[4.9,22048],[4.9,22132],[4.9,22215],[4.9,22298],[4.9,22381],[4.9,22464],[4.9,22548],[4.9,22631],[4.9,22715],[4.9,22798],[4.9,22881],[4.9,22965],[4.9,23048],[4.9,23132],[4.9,23214],[4.9,23298],[4.9,23381],[4.9,23465],[4.9,23548],[4.9,23632],[4.9,23714],[4.9,23797],[4.9,23881],[4.9,23965],[4.9,24048],[4.9,24131],[4.9,24215],[4.9,24298],[4.9,24381],[4.9,24464],[4.9,24548],[4.9,24631],[4.9,24715],[4.9,24798],[4.9,24881],[4.9,24965],[4.9,25048],[4.9,25131],[4.9,25215],[4.9,25298],[4.9,25381],[4.9,25464],[4.9,25548],[4.9,25631],[4.9,25715],[4.9,25797],[4.9,25881],[4.9,25964],[4.9,26048],[4.9,26131],[4.9,26214],[4.9,26298],[4.9,26381],[4.9,26464],[4.9,26548],[4.9,26631],[4.9,26715],[4.9,26798],[4.9,26881],[4.9,26965],[4.9,27047],[4.9,27131],[4.9,27215],[4.9,27298],[4.9,27381],[4.9,27464],[4.9,27547],[4.9,27631],[4.9,27715],[4.9,27798],[4.9,27881],[4.9,27964],[4.9,28048],[4.9,28131],[4.9,28214],[4.9,28298],[4.9,28381],[4.9,28465],[4.9,28548],[4.9,28631],[4.9,28715],[4.9,28798],[4.9,28881],[4.9,28964],[4.9,29048],[4.9,29131],[4.9,29214],[4.9,29298],[4.9,29382],[4.9,29465],[4.9,29548],[4.9,29631],[4.9,29714]]",181.0928,193.0758,0.937501589,8.2624,"[{""rating"":0.9375015894571959,""responseTime"":8.262400000095369}]",space,11.4408,,193.0763,Partially,50,193.0851,,,[],,0,0,0,0,1,audio/Narrative13Situation2.wav,audio/Narrative13Situation2.wav,audio/Narrative13Situation2.wav,audio/Narrative13Situation2.wav,2,2,2,2,,,,,,,,,,,,,,,,,,,,,,,,,,,,,,,,,,,,,,,
,,,,,66b91ee649636fce844ef133,2025-07-07_21h59.38.812,group3.4_multiperson,2023.2.2,Win32,64.1025641,686c2ebf0248f13bef9af11f,686c7b749df6419ce4e747e5,,,,,,,,,,,,,,,,,,,,,,,,,,,,,193.0855,1,audio/Narrative8Situation1.wav,197.2457,space,197.2457,213.1972,"[[999,1],[999,85],[999,170],[999,245],[999,329],[999,413],[999,502],[999,579],[999,662],[999,746],[999,829],[999,912],[999,996],[999,1079],[999,1163],[999,1252],[999,1329],[999,1419],[999,1496],[999,1579],[999,1664],[999,1751],[999,1829],[999,1913],[999,2001],[999,2085],[999,2163],[999,2252],[999,2329],[999,2419],[999,2502],[999,2580],[999,2669],[999,2748],[999,2835],[999,2913],[999,2995],[999,3085],[999,3163],[999,3251],[999,3329],[999,3412],[999,3496],[999,3584],[999,3663],[999,3751],[999,3835],[999,3912],[999,3995],[999,4079],[999,4162],[999,4252],[999,4329],[999,4418],[999,4495],[999,4585],[999,4662],[999,4752],[999,4835],[999,4913],[999,4996],[999,5085],[999,5169],[999,5246],[999,5329],[999,5413],[999,5496],[999,5579],[999,5662],[999,5751],[999,5829],[999,5912],[999,6001],[999,6078],[999,6163],[999,6249],[999,6335],[999,6418],[999,6495],[999,6579],[999,6662],[999,6751],[999,6829],[999,6917],[999,7001],[999,7079],[999,7162],[999,7245],[999,7333],[999,7413],[999,7502],[999,7578],[999,7662],[999,7746],[999,7835],[999,7913],[999,7995],[999,8080],[999,8168],[999,8246],[999,8335],[999,8419],[999,8495],[999,8579],[999,8667],[999,8752],[999,8829],[999,8919],[999,8995],[999,9085],[999,9163],[999,9252],[999,9329],[999,9418],[999,9501],[999,9578],[999,9667],[999,9745],[999,9832],[999,9918],[999,10001],[999,10085],[999,10168],[999,10251],[999,10329],[999,10417],[999,10495],[999,10579],[999,10663],[999,10745],[999,10829],[999,10913],[999,11001],[999,11079],[999,11168],[999,11245],[999,11335],[999,11417],[999,11501],[999,11585],[999,11663],[999,11745],[999,11829],[999,11913],[999,11995],[999,12084],[999,12163],[999,12252],[999,12334],[999,12413],[999,12495],[999,12579],[999,12662],[999,12745],[999,12829],[999,12913],[999,12996],[999,13085],[999,13168],[999,13245],[999,13329],[999,13414],[999,13501],[999,13580],[999,13663],[999,13746],[999,13835],[999,13918],[999,14000],[999,14079],[999,14162],[999,14251],[999,14334],[999,14417],[999,14495],[999,14579],[999,14668],[999,14746],[999,14834],[999,14913],[999,14999],[999,15078],[999,15163],[999,15248],[999,15335],[999,15413],[999,15503],[999,15585],[999,15668],[999,15752]]",213.1975,221.4482,3.854167461,5.0678,"[{""rating"":3.8541674613952637,""responseTime"":5.067799999713884}]",space,7.693,,221.4483,Definitely yes,100,231.1753,100,8.2712,"[{""rating"":98.64583015441895,""responseTime"":6.3781999998092545},{""rating"":100,""responseTime"":8.271199999809255}]",space,0,1,1,1,1,audio/Narrative7Situation1.wav,audio/Narrative8Situation1.wav,audio/Narrative5Situation1.wav,audio/Narrative6Situation1.wav,2,5,5,2,4.1405,,9.182,,,,,,,,,,,,,,,,,,,,,,,,,,,,,,,,,,,,
,,,,,66b91ee649636fce844ef133,2025-07-07_21h59.38.812,group3.4_multiperson,2023.2.2,Win32,64.1025641,686c2ebf0248f13bef9af11f,686c7b749df6419ce4e747e5,,,,,,,,,,,,,,,,,,,,,,,,,,,,,231.1766,1,audio/Narrative8Situation2.wav,234.1917,,234.1919,244.3301,"[[999,1],[999,88],[999,165],[999,254],[999,332],[999,419],[999,499],[999,582],[999,671],[999,749],[999,832],[999,922],[999,998],[999,1082],[999,1166],[999,1249],[999,1338],[999,1416],[999,1504],[999,1588],[999,1671],[999,1749],[999,1838],[999,1919],[999,1999],[999,2082],[999,2166],[999,2254],[999,2332],[999,2421],[999,2498],[999,2582],[999,2672],[999,2748],[999,2838],[999,2915],[999,2998],[999,3089],[999,3166],[999,3249],[999,3337],[999,3421],[999,3503],[999,3587],[999,3671],[999,3754],[999,3835],[999,3921],[999,4003],[999,4082],[999,4166],[999,4249],[999,4332],[999,4420],[999,4504],[999,4582],[999,4665],[999,4748],[999,4832],[999,4921],[999,5008],[999,5081],[999,5165],[999,5249],[999,5332],[999,5416],[999,5498],[999,5586],[999,5666],[999,5748],[999,5832],[999,5915],[999,6004],[999,6082],[999,6165],[999,6254],[999,6332],[999,6415],[999,6498],[999,6582],[999,6665],[999,6754],[999,6832],[999,6918],[999,7004],[999,7081],[999,7171],[999,7255],[999,7337],[999,7416],[999,7504],[999,7582],[999,7671],[999,7748],[999,7832],[999,7915],[999,7998],[999,8082],[999,8169],[999,8251],[999,8332],[999,8416],[999,8502],[999,8587],[999,8665],[999,8754],[999,8832],[999,8922],[999,8998],[999,9082],[999,9170],[999,9248],[999,9332],[999,9416],[999,9499],[999,9582],[999,9665],[999,9754],[999,9838],[999,9922],[999,10004],[999,10083]]",244.3304,247.1814,1.354165872,1.6322,"[{""rating"":1.3541658719380678,""responseTime"":1.6322000002861046}]",space,2.3002,,247.1817,Definitely yes,100,247.1852,,,[],,0,2,2,2,1,audio/Narrative7Situation2.wav,audio/Narrative8Situation2.wav,audio/Narrative5Situation2.wav,audio/Narrative6Situation2.wav,3,3,3,3,,,,,,,,,,,,,,,,,,,,,,,,,,,,,,,,,,,,,,,
,,,,,66b91ee649636fce844ef133,2025-07-07_21h59.38.812,group3.4_multiperson,2023.2.2,Win32,64.1025641,686c2ebf0248f13bef9af11f,686c7b749df6419ce4e747e5,,,,,,,,,,,,,,,,,,,,,,,,,,,,,247.1854,1,audio/Narrative8Situation3.wav,251.1953,,251.1954,273.5811,"[[999,0],[999,85],[999,162],[999,245],[999,329],[999,415],[999,498],[999,578],[999,667],[999,745],[999,833],[999,911],[999,995],[999,1078],[999,1162],[999,1245],[999,1329],[999,1411],[999,1494],[999,1584],[999,1667],[999,1745],[999,1828],[999,1918],[999,1998],[999,2079],[999,2162],[999,2244],[999,2328],[999,2412],[999,2500],[999,2578],[999,2666],[999,2748],[999,2833],[999,2912],[999,2995],[999,3078],[999,3167],[999,3245],[999,3332],[999,3417],[999,3500],[999,3578],[999,3667],[999,3750],[999,3829],[999,3912],[999,3995],[999,4084],[999,4166],[999,4248],[999,4329],[999,4412],[999,4497],[999,4584],[999,4662],[999,4750],[999,4829],[999,4917],[999,5001],[999,5084],[999,5161],[999,5244],[999,5333],[999,5411],[999,5495],[999,5579],[999,5668],[999,5745],[999,5828],[999,5917],[999,6000],[999,6078],[999,6162],[999,6245],[999,6335],[60.9,6419],[60.9,6501],[60.9,6578],[60.9,6668],[60.9,6749],[60.9,6834],[60.9,6912],[60.9,6994],[60.9,7078],[60.9,7162],[60.9,7250],[60.9,7335],[60.9,7417],[60.9,7499],[60.9,7584],[60.9,7662],[60.9,7747],[60.9,7835],[60.9,7917],[60.9,8000],[60.9,8083],[60.9,8161],[60.9,8245],[60.9,8328],[60.9,8412],[60.9,8495],[60.9,8578],[60.9,8668],[60.9,8750],[60.9,8835],[60.9,8911],[60.9,9000],[60.9,9084],[60.9,9168],[60.9,9250],[60.9,9328],[60.9,9415],[60.9,9494],[60.9,9584],[60.9,9662],[60.9,9750],[60.9,9834],[60.9,9911],[60.9,9994],[60.9,10079],[60.9,10162],[60.9,10244],[61.3,10334],[62.3,10417],[63,10502],[63.8,10584],[64,10661],[65,10751],[65.4,10835],[66,10918],[66.1,10994],[66.5,11085],[66.7,11167],[66.9,11250],[67.2,11329],[67.4,11417],[67.4,11495],[67.4,11577],[67.4,11661],[67.4,11745],[67.4,11836],[67.4,11916],[67.4,11994],[67.4,12084],[67.4,12166],[67.4,12245],[67.4,12328],[67.4,12411],[67.4,12495],[67.4,12578],[67.4,12667],[67.4,12744],[67.4,12835],[67.4,12911],[67.4,13001],[67.4,13078],[67.4,13162],[67.4,13245],[67.4,13334],[67.4,13412],[67.4,13500],[68,13585],[70.3,13668],[72.6,13750],[73.9,13835],[75.4,13916],[77.9,14000],[81.1,14084],[82.9,14167],[84.9,14251],[87,14334],[88.3,14417],[89.3,14502],[89.9,14578],[90.6,14668],[92.3,14751],[93,14835],[93.2,14911],[94.3,15002],[95.2,15084],[95.8,15161],[96.5,15251],[96.8,15335],[96.8,15412],[96.8,15495],[96.8,15584],[96.8,15662],[96.8,15744],[96.8,15828],[96.8,15911],[96.8,15995],[96.8,16084],[96.8,16164],[96.8,16245],[96.8,16331],[96.8,16411],[96.8,16500],[96.8,16578],[96.8,16668],[96.8,16751],[96.8,16828],[96.8,16912],[96.8,16995],[96.8,17085],[96.8,17164],[96.8,17250],[96.8,17328],[96.8,17411],[96.8,17500],[96.8,17579],[96.8,17664],[96.8,17745],[96.8,17834],[96.8,17911],[96.8,17994],[96.8,18078],[96.8,18167],[96.8,18244],[96.8,18332],[96.8,18417],[96.8,18495],[96.8,18583],[96.8,18661],[96.8,18745],[96.8,18828],[96.8,18912],[96.8,18994],[96.8,19084],[96.8,19165],[96.8,19251],[96.8,19328],[96.8,19412],[96.8,19495],[96.8,19585],[96.8,19662],[96.8,19750],[96.8,19834],[96.8,19918],[96.8,19994],[96.8,20078],[96.8,20161],[96.8,20248],[96.8,20327],[96.8,20411],[96.8,20495],[96.8,20578],[96.8,20662],[96.8,20744],[96.8,20834],[96.8,20917],[96.8,20994],[96.8,21084],[96.8,21168],[96.8,21250],[96.8,21328],[96.8,21417],[96.8,21501],[96.8,21584],[96.8,21661],[96.8,21744],[96.8,21828],[96.8,21916],[96.8,22001],[96.8,22078],[96.8,22167],[96.8,22245],[96.8,22327]]",273.5814,277.5466,95.83333333,2.4808,"[{""rating"":95.83333333333333,""responseTime"":2.4808000001907544}]",space,3.4071,,277.5466,Not at all,0,277.552,,,[],,0,3,3,3,1,audio/Narrative7Situation3.wav,audio/Narrative8Situation3.wav,audio/Narrative5Situation3.wav,audio/Narrative6Situation3.wav,8,4,3,5,,,,,,,,,,,,,,,,,,,,,,,,,,,,,,,,,,,,,,,
,,,,,66b91ee649636fce844ef133,2025-07-07_21h59.38.812,group3.4_multiperson,2023.2.2,Win32,64.1025641,686c2ebf0248f13bef9af11f,686c7b749df6419ce4e747e5,,,,,,,,,,,,,,,,,,,,,,,,,,,,,277.5522,1,audio/Narrative8Situation4.wav,280.5571,,280.5573,294.7406,"[[999,1],[999,82],[999,172],[999,249],[999,332],[999,422],[999,505],[999,582],[999,666],[999,749],[999,839],[999,916],[999,1004],[999,1082],[999,1172],[999,1249],[999,1333],[999,1416],[999,1500],[999,1589],[999,1666],[999,1750],[999,1837],[999,1916],[999,2000],[999,2083],[999,2172],[999,2252],[999,2332],[999,2416],[999,2499],[999,2589],[999,2666],[999,2750],[999,2839],[999,2916],[999,2999],[999,3087],[999,3166],[999,3250],[999,3333],[999,3416],[999,3499],[999,3582],[999,3670],[999,3755],[999,3832],[999,3916],[999,4005],[999,4089],[999,4172],[999,4255],[999,4333],[999,4422],[999,4499],[999,4582],[999,4666],[999,4750],[999,4833],[999,4921],[999,5002],[87.8,5088],[90.6,5172],[92.4,5255],[92.9,5339],[93,5415],[93.6,5504],[94.5,5589],[95.1,5673],[95.3,5749],[95.5,5832],[95.8,5916],[96.7,6006],[96.8,6082],[96.8,6170],[96.8,6250],[96.8,6332],[96.8,6416],[96.8,6499],[96.8,6582],[96.8,6671],[96.8,6749],[96.8,6832],[96.8,6921],[96.8,7005],[96.8,7088],[96.8,7166],[96.8,7255],[96.8,7332],[96.8,7416],[96.8,7500],[96.8,7582],[96.8,7673],[96.8,7750],[96.8,7832],[96.8,7916],[96.8,8004],[96.8,8087],[96.8,8166],[96.8,8249],[96.8,8332],[96.8,8416],[96.8,8499],[96.8,8582],[96.8,8672],[96.8,8749],[96.8,8832],[96.8,8921],[96.8,8999],[96.8,9088],[96.8,9166],[96.8,9249],[96.8,9339],[96.8,9421],[96.8,9499],[96.8,9582],[96.8,9672],[96.8,9755],[96.8,9837],[96.8,9916],[96.8,9999],[96.8,10082],[96.8,10166],[96.8,10249],[96.8,10332],[96.8,10421],[96.8,10499],[96.8,10589],[96.8,10666],[96.8,10754],[96.8,10832],[96,10922],[95.2,11000],[94.2,11089],[94.1,11166],[94.1,11248],[95.8,11338],[96.6,11423],[97.6,11505],[97.9,11582],[97.9,11669],[98.2,11750],[98.2,11839],[98.2,11921],[98.2,11999],[98.2,12088],[98.2,12170],[98.2,12252],[98.2,12332],[98.2,12421],[98.2,12504],[98.2,12582],[98.2,12666],[98.2,12750],[98.2,12837],[98.2,12922],[98.3,13004],[98.4,13089],[98.6,13165],[99,13257],[99,13337],[99.2,13415],[99.4,13506],[99.4,13582],[99.4,13672],[99.4,13749],[99.4,13832],[99.4,13916],[99.4,13999],[99.4,14082],[99.4,14165]]",294.7411,301.4798,99.37500954,0.7438,"[{""rating"":99.37500953674316,""responseTime"":0.7438000001907312}]",space,6.2116,,301.4798,Definitely yes,100,301.4838,,,[],,0,4,4,4,1,audio/Narrative7Situation4.wav,audio/Narrative8Situation4.wav,audio/Narrative5Situation4.wav,audio/Narrative6Situation4.wav,3,3,1,2,,,,,,,,,,,,,,,,,,,,,,,,,,,,,,,,,,,,,,,
,,,,,66b91ee649636fce844ef133,2025-07-07_21h59.38.812,group3.4_multiperson,2023.2.2,Win32,64.1025641,686c2ebf0248f13bef9af11f,686c7b749df6419ce4e747e5,,,,,,,,,,,,,,,,,,,,,,,,,,,,,301.4841,1,audio/Narrative8Situation5.wav,303.4905,,303.4907,311.7409,"[[999,1],[999,82],[999,166],[999,249],[999,331],[999,416],[999,499],[999,588],[999,666],[999,755],[999,838],[999,915],[999,999],[999,1085],[999,1165],[999,1252],[999,1332],[999,1422],[999,1499],[999,1588],[999,1671],[999,1749],[999,1839],[999,1916],[999,2003],[999,2082],[999,2166],[999,2248],[999,2339],[999,2415],[999,2504],[999,2583],[999,2672],[999,2748],[999,2832],[999,2921],[999,2999],[999,3090],[999,3165],[999,3248],[999,3332],[999,3416],[999,3499],[999,3587],[999,3671],[999,3749],[999,3832],[999,3915],[999,4004],[999,4085],[999,4165],[999,4248],[999,4337],[999,4421],[999,4499],[999,4582],[999,4671],[999,4749],[999,4832],[999,4920],[999,4999],[999,5082],[999,5170],[999,5248],[999,5337],[999,5419],[74.4,5504],[74.4,5581],[74.4,5670],[76,5754],[77.6,5835],[80.8,5916],[86.1,6004],[89.9,6088],[94.6,6170],[98.4,6254],[100,6333],[100,6418],[100,6498],[100,6581],[100,6670],[100,6749],[100,6836],[100,6920],[100,6999],[100,7082],[100,7169],[100,7248],[100,7338],[100,7415],[100,7504],[100,7582],[100,7665],[100,7753],[100,7838],[100,7915],[100,8003],[100,8086],[100,8165],[100,8249]]",311.7414,314.5299,99.58333969,1.4535,"[{""rating"":99.58333969116211,""responseTime"":1.4534999999999627}]",space,2.2443,,314.5302,Not at all,0,314.5348,,,[],,0,5,5,5,1,audio/Narrative7Situation5.wav,audio/Narrative8Situation5.wav,audio/Narrative5Situation5.wav,audio/Narrative6Situation5.wav,5,2,5,2,,,,,,,,,,,,,,,,,,,,,,,,,,,,,,,,,,,,,,,
,,,,,66b91ee649636fce844ef133,2025-07-07_21h59.38.812,group3.4_multiperson,2023.2.2,Win32,64.1025641,686c2ebf0248f13bef9af11f,686c7b749df6419ce4e747e5,,,,,,,,,,,,,,,,,,,,,,,,,,,,,314.5351,1,audio/Narrative8Situation6.wav,316.5403,,316.5405,323.0117,"[[999,1],[999,88],[999,166],[999,254],[999,339],[999,416],[999,499],[999,582],[999,669],[999,749],[999,839],[999,916],[999,1009],[999,1082],[999,1166],[999,1249],[999,1332],[999,1421],[999,1505],[999,1588],[999,1671],[999,1755],[999,1838],[999,1916],[999,2004],[999,2082],[999,2172],[999,2249],[999,2338],[999,2415],[999,2498],[999,2582],[999,2666],[999,2752],[999,2832],[999,2916],[999,3007],[999,3082],[999,3166],[999,3249],[999,3332],[999,3417],[999,3505],[999,3588],[999,3669],[999,3753],[999,3838],[999,3916],[999,3998],[999,4081],[999,4167],[999,4249],[999,4338],[999,4422],[999,4506],[999,4581],[999,4665],[999,4754],[999,4838],[999,4921],[999,5000],[999,5082],[999,5165],[999,5248],[999,5332],[999,5415],[999,5499],[999,5582],[999,5669],[999,5748],[999,5834],[999,5915],[999,6003],[999,6083],[999,6170],[999,6249],[999,6332],[87,6421]]",323.012,326.8632,95.62500318,2.1003,"[{""rating"":95.62500317891438,""responseTime"":2.100300000190714}]",space,3.2931,,326.8633,Partially,50,326.8675,,,[],,0,6,6,6,1,audio/Narrative7Situation6.wav,audio/Narrative8Situation6.wav,audio/Narrative5Situation6.wav,audio/Narrative6Situation6.wav,3,2,3,2,,,,,,,,,,,,,,,,,,,,,,,,,,,,,,,,,,,,,,,
,,,,,66b91ee649636fce844ef133,2025-07-07_21h59.38.812,group3.4_multiperson,2023.2.2,Win32,64.1025641,686c2ebf0248f13bef9af11f,686c7b749df6419ce4e747e5,,,,,,,,,,,,,,,,,,,,,,,,,,,,,326.868,1,audio/Narrative8Situation7.wav,329.8759,,329.876,341.9956,"[[94.2,6420],[93.9,6503],[93.3,6586],[93.3,6663],[93.3,6746],[93,6836],[92.3,6920],[91.4,7004],[89.9,7086],[87.4,7169],[85.9,7252],[85.5,7339],[85.2,7420],[85,7496],[85,7584],[85,7663],[85,7746],[85,7829],[85,7914],[85,7996],[85,8086],[85,8170],[85,8246],[85,8334],[85,8419],[85,8496],[85,8586],[85,8662],[85,8746],[85,8829],[85,8913],[85,8996],[86.3,9086],[87.9,9163],[90,9254],[92,9335],[92.9,9419],[94.8,9504],[95.7,9587],[96.4,9669],[97.2,9754],[97.9,9831],[98.1,9914],[98.1,9999],[98.4,10079],[98.8,10164],[98.9,10246],[99.2,10329],[99.3,10416],[99.3,10496],[99.3,10586],[99.9,10669],[100,10753],[100,10829],[100,10914],[100,11002],[100,11080],[100,11163],[100,11252],[100,11336],[100,11419],[100,11496],[100,11587],[100,11667],[100,11752],[100,11837],[100,11913],[100,12003],[100,12080]]",341.9959,345.497,99.06250636,1.3507,"[{""rating"":99.06250635782878,""responseTime"":1.3507000002861105}]",space,2.9559,,345.4971,Definitely yes,100,345.5012,,,[],,0,7,7,7,1,audio/Narrative7Situation7.wav,audio/Narrative8Situation7.wav,audio/Narrative5Situation7.wav,audio/Narrative6Situation7.wav,5,3,4,5,,,,,,,,,,,,,,,,,,,,,,,,,,,,,,,,,,,,,,,
,,,,,66b91ee649636fce844ef133,2025-07-07_21h59.38.812,group3.4_multiperson,2023.2.2,Win32,64.1025641,686c2ebf0248f13bef9af11f,686c7b749df6419ce4e747e5,,,,,,,,,,,,,,,,,,,,,,,,,,,,,345.5015,1,audio/Narrative8Situation8.wav,348.5098,,348.5099,361.3725,"[[999,0],[999,85],[999,163],[999,246],[999,329],[999,418],[999,496],[999,579],[999,666],[999,746],[999,830],[999,912],[999,1002],[999,1080],[999,1162],[999,1246],[999,1330],[999,1415],[999,1496],[999,1579],[999,1662],[999,1749],[999,1835],[999,1912],[999,1995],[999,2079],[999,2162],[999,2246],[999,2332],[999,2412],[999,2496],[999,2579],[999,2668],[999,2746],[999,2830],[999,2918],[999,2996],[999,3082],[999,3162],[999,3246],[999,3336],[999,3418],[999,3502],[999,3580],[999,3662],[999,3745],[999,3829],[999,3917],[999,4002],[999,4078],[999,4166],[999,4247],[999,4335],[999,4418],[999,4501],[999,4584],[999,4662],[89.3,4751],[89.3,4835],[89.1,4918],[89.1,4995],[89.1,5078],[89.1,5162],[89.1,5245],[89.1,5328],[89.1,5412],[89.1,5495],[89.1,5578],[89.1,5661],[89.1,5752],[89.1,5829],[89.1,5912],[89.1,5996],[89.1,6085],[89.1,6161],[89.1,6250],[89.1,6329],[89.1,6418],[89.1,6501],[89.1,6582],[89.1,6667],[89.1,6751],[89.1,6833],[89.1,6912],[89.1,7000],[89.1,7079],[89.1,7167],[89.1,7249],[89.1,7335],[89.1,7412],[89.1,7496],[89.1,7579],[89.1,7669],[89.1,7746],[89.1,7828],[89.1,7912],[89.1,7995],[89.1,8079],[89.1,8162],[89.1,8246],[89.1,8329],[89.1,8412],[89.1,8502],[89.1,8579],[89.1,8662],[89.1,8751],[89.1,8829],[89.1,8913],[89.1,8998],[89.1,9085],[89.1,9162],[89.1,9250],[89.1,9329],[89.1,9412],[89.1,9501],[89.1,9584],[89.1,9662],[89.1,9745],[89.1,9829],[89.1,9912],[89.1,10001],[89.1,10085],[89.1,10162],[89.1,10245],[89.1,10328],[89.1,10412],[89.1,10495],[89.1,10578],[89.1,10663],[89.1,10745],[89.1,10828],[89.1,10911],[89.1,10995],[89.1,11078],[89.1,11167],[89.1,11245],[89.1,11328],[89.1,11419],[89.1,11495],[89.1,11578],[89.1,11662],[89.1,11745],[89.1,11828],[89.1,11912],[90,11996],[93.2,12084],[97.2,12164],[98.4,12251],[99.3,12329],[99.7,12415],[100,12500],[100,12585],[100,12662],[100,12745],[100,12828]]",361.3729,366.3964,97.91666667,1.8404,"[{""rating"":97.91666666666667,""responseTime"":1.840399999618512}]",space,4.4669,,366.3965,Partially,50,366.4005,,,[],,0,8,8,8,1,audio/Narrative7Situation8.wav,audio/Narrative8Situation8.wav,audio/Narrative5Situation8.wav,audio/Narrative6Situation8.wav,2,3,3,5,,,,,,,,,,,,,,,,,,,,,,,,,,,,,,,,,,,,,,,
,,,,,66b91ee649636fce844ef133,2025-07-07_21h59.38.812,group3.4_multiperson,2023.2.2,Win32,64.1025641,686c2ebf0248f13bef9af11f,686c7b749df6419ce4e747e5,,,,,,,,,,,,,,,,,,,,,,,,,,,,,366.4009,1,audio/Narrative8Situation9.wav,369.4063,,369.4063,380.7223,"[[98,5582],[98.1,5666],[98.3,5755],[98.3,5838],[98.3,5916],[98.3,5999],[98.4,6088],[98.8,6165],[99.3,6248],[99.8,6338],[100,6421],[100,6506],[100,6583],[100,6665],[100,6755],[100,6832],[100,6916],[100,7005],[100,7087],[100,7171],[100,7249],[100,7333],[100,7415],[100,7498],[100,7582],[100,7665],[100,7749],[100,7837],[100,7921],[100,8005],[100,8082],[100,8165],[100,8249],[100,8332],[100,8418],[100,8498],[99.5,8582],[99.1,8665],[98.8,8755],[98.2,8838],[98,8915],[98,9004],[98,9082],[98,9165],[98,9248],[98,9337],[98,9422],[98,9504],[98,9588],[98,9666],[98,9754],[98,9838],[98,9915],[98,9999],[98,10083],[98,10165],[98,10249],[98,10332],[98,10422],[98,10498],[98,10587],[98,10665],[98,10749],[98,10833],[98,10915],[98,10999],[98,11088],[98,11166],[98,11256]]",380.7227,384.1285,99.16666349,1.7207,"[{""rating"":99.16666348775227,""responseTime"":1.7206999998092556}]",space,2.8571,,384.1287,Definitely yes,100,384.1324,,,[],,0,9,9,9,1,audio/Narrative7Situation9.wav,audio/Narrative8Situation9.wav,audio/Narrative5Situation9.wav,audio/Narrative6Situation9.wav,2,3,3,4,,,,,,,,,,,,,,,,,,,,,,,,,,,,,,,,,,,,,,,
,,,,,66b91ee649636fce844ef133,2025-07-07_21h59.38.812,group3.4_multiperson,2023.2.2,Win32,64.1025641,686c2ebf0248f13bef9af11f,686c7b749df6419ce4e747e5,,,,,,,,,,,,,,,,,,,,,,,,,,,,,384.1327,1,audio/Narrative7Situation1.wav,386.1393,,386.1394,442.0431,"[[999,0],[999,82],[999,166],[999,250],[999,332],[999,422],[999,499],[999,583],[999,672],[999,749],[999,832],[999,922],[999,999],[999,1087],[999,1165],[999,1253],[999,1338],[999,1422],[999,1500],[999,1582],[999,1666],[999,1749],[999,1838],[999,1915],[999,2005],[999,2082],[999,2171],[999,2250],[999,2332],[999,2421],[999,2505],[999,2588],[999,2672],[999,2749],[999,2838],[999,2915],[999,2999],[999,3081],[999,3166],[999,3250],[999,3338],[999,3416],[999,3499],[999,3588],[999,3672],[999,3750],[999,3838],[999,3915],[999,3999],[999,4087],[999,4170],[999,4250],[999,4337],[999,4415],[999,4504],[999,4587],[999,4666],[999,4749],[999,4832],[999,4916],[999,4999],[999,5082],[999,5165],[999,5253],[999,5337],[999,5416],[999,5499],[999,5582],[999,5671],[999,5749],[999,5831],[999,5915],[999,5999],[999,6087],[999,6171],[999,6249],[999,6332],[999,6416],[999,6499],[999,6587],[999,6666],[999,6749],[999,6832],[999,6916],[999,7000],[999,7082],[999,7166],[999,7249],[999,7332],[999,7415],[999,7505],[999,7582],[999,7666],[999,7749],[999,7837],[999,7915],[999,7999],[999,8089],[999,8172],[999,8249],[999,8337],[999,8421],[999,8499],[999,8581],[999,8671],[999,8750],[999,8835],[999,8915],[999,8999],[999,9089],[999,9171],[999,9250],[999,9338],[999,9416],[999,9504],[999,9581],[999,9665],[999,9749],[999,9832],[999,9922],[999,9999],[999,10082],[999,10172],[999,10249],[999,10332],[999,10422],[999,10499],[999,10588],[999,10665],[999,10749],[999,10837],[999,10922],[999,11004],[999,11082],[999,11165],[999,11248],[999,11332],[999,11415],[91.5,11505],[93,11588],[93.4,11665],[93.6,11756],[94,11838],[94.1,11916],[94.8,12005],[94.8,12088],[95,12171],[95,12253],[95,12332],[95,12422],[95,12505],[95,12587],[95,12665],[95,12755],[95,12832],[95,12916],[95,13004],[95,13081],[95,13166],[95,13249],[95,13332],[95,13415],[95,13499],[95,13586],[95,13666],[95,13749],[95,13832],[95,13917],[95,13999],[95,14082],[95,14172],[95,14249],[95,14338],[95,14415],[95,14499],[95,14582],[95,14665],[95,14749],[95,14831],[95,14915],[95,15000],[95,15081],[95,15171],[95,15248],[95,15336],[95,15421],[95,15499],[95,15587],[95,15665],[95,15750],[95,15831],[95,15915],[95,15998],[95,16082],[95,16166],[95,16249],[95,16332],[95,16415],[95,16500],[95,16582],[95,16665],[95,16749],[95,16837],[95,16915],[95,16999],[95,17081],[95,17171],[95,17254],[95,17331],[95,17421],[95,17499],[95,17581],[95,17671],[95,17751],[95,17832],[95,17921],[95,18005],[95,18087],[95,18165],[95,18255],[95,18331],[95,18421],[95,18499],[95,18581],[95,18672],[95,18749],[95,18838],[95,18921],[95,18998],[95,19081],[95,19165],[95,19255],[95,19338],[95,19421],[95,19499],[95,19589],[95,19671],[95,19752],[95,19838],[95,19915],[95.1,20005],[95.1,20087],[95.1,20166],[95,20248],[95,20331],[94.9,20422],[94.9,20498],[95.3,20589],[96.1,20672],[97,20756],[97.4,20838],[97.4,20921],[97.4,20999],[97.6,21087],[97.6,21172],[97.8,21254],[97.9,21332],[97.9,21415],[97.9,21502],[98.1,21582],[98.1,21666],[98.4,21756],[98.6,21839],[98.6,21915],[98.6,22004],[98.6,22081],[98.6,22165],[98.6,22249],[98.6,22332],[98.6,22422],[98.6,22499],[98.6,22581],[98.6,22671],[98.6,22754],[98.6,22836],[98.6,22920],[98.6,23003],[98.6,23086],[98.6,23165],[98.6,23255],[98.6,23332],[98.6,23421],[98.6,23499],[98.6,23581],[98.6,23670],[98.6,23750],[98.6,23831],[98.6,23921],[98.6,24001],[98.6,24082],[98.6,24171],[98.6,24249],[98.6,24338],[98.6,24415],[98.6,24499],[98.6,24588],[98.6,24665],[98.6,24753],[98.6,24838],[98.6,24922],[98.6,25000],[98.6,25082],[98.6,25166],[98.6,25255],[98.6,25331],[98.6,25415],[98.6,25499],[98.6,25582],[98.6,25665],[98.6,25750],[98.6,25831],[98.6,25921],[98.6,26002],[98.6,26087],[98.6,26165],[98.6,26255],[98.6,26331],[98.6,26416],[98.6,26499],[98.6,26581],[98.6,26670],[98.6,26749],[98.6,26832],[98.6,26921],[98.6,26999],[98.6,27081],[98.6,27168],[98.6,27253],[98.6,27331],[98.6,27421],[98.6,27502],[98.6,27581],[98.6,27671],[98.6,27754],[98.6,27832],[98.6,27921],[98.6,27999],[98.6,28087],[98.6,28165],[98.6,28254],[98.6,28331],[98.6,28422],[98.6,28504],[98.6,28587],[98.6,28671],[98.6,28749],[98.6,28831],[98.6,28921],[98.6,28998],[98.6,29082],[98.6,29165],[98.6,29250],[98.6,29338],[98.6,29418],[98.6,29499],[98.6,29581],[98.6,29665],[98.6,29749],[98.6,29837],[98.6,29921],[98.6,29999],[98.6,30081],[98.6,30171],[98.6,30249],[98.6,30332],[98.6,30415],[98.6,30502],[98.6,30582],[98.6,30665],[98.6,30749],[98.6,30837],[98.6,30921],[98.6,30998],[98.6,31086],[98.6,31165],[98.6,31249],[98.6,31331],[98.6,31418],[98.6,31504],[98.6,31581],[98.6,31665],[98.6,31754],[98.6,31831],[98.6,31915],[98.6,31999],[98.6,32087],[98.6,32170],[98.6,32249],[98.6,32331],[98.6,32421],[98.6,32504],[98.6,32581],[98.6,32671],[98.6,32749],[98.6,32832],[98.6,32916],[98.6,32999],[98.6,33088],[98.6,33172],[98.6,33254],[98.6,33332],[98.6,33415],[98.6,33499],[98.6,33586],[98.6,33665],[98.6,33748],[98.6,33837],[98.6,33915],[98.6,33998],[98.6,34087],[98.6,34164],[98.6,34249],[98.6,34331],[98.6,34415],[98.6,34504],[98.6,34587],[98.6,34668],[98.6,34749],[98.6,34837],[98.6,34921],[98.6,34999],[98.6,35081],[98.6,35165],[98.6,35248],[98.6,35337],[98.6,35415],[98.6,35499],[98.6,35588],[98.6,35665],[98.6,35754],[98.6,35831],[98.6,35921],[98.6,36004],[98.6,36081],[98.6,36164],[98.6,36248],[98.6,36331],[98.6,36415],[98.6,36498],[98.6,36581],[98.6,36664],[98.6,36754],[98.6,36831],[98.6,36921],[98.6,36999],[98.6,37086],[98.6,37171],[98.6,37248],[98.6,37338],[98.6,37415],[98.6,37503],[98.6,37588],[98.6,37671],[98.6,37749],[98.6,37831],[98.6,37920],[98.6,37999],[98.6,38087],[98.6,38166],[98.6,38249],[98.6,38332],[98.6,38419],[98.6,38499],[98.6,38588],[98.6,38665],[98.6,38749],[98.6,38831],[98.6,38915],[98.6,39004],[98.6,39081],[98.6,39165],[98.6,39253],[98.6,39331],[98.6,39415],[98.6,39502],[98.6,39587],[98.6,39671],[98.6,39748],[98.6,39831],[98.6,39915],[98.6,39998],[98.6,40087],[98.6,40172],[98.6,40253],[98.6,40337],[98.6,40415],[98.6,40504],[98.6,40582],[98.6,40665],[98.6,40747],[98.6,40831],[98.6,40920],[98.6,40998],[98.6,41081],[98.6,41165],[98.6,41248],[98.6,41338],[98.6,41415],[98.6,41504],[98.6,41581],[98.6,41670],[98.6,41753],[98.6,41831],[98.6,41915],[98.6,41999],[98.6,42088],[98.6,42171],[98.6,42248],[98.6,42331],[98.6,42421],[98.6,42498],[98.6,42587],[98.6,42665],[98.6,42749],[98.6,42831],[98.6,42921],[98.6,42998],[98.6,43081],[98.6,43170],[98.6,43254],[98.6,43331],[98.6,43414],[98.6,43499],[98.6,43584],[98.6,43665],[98.6,43749],[98.6,43831],[98.6,43915],[98.6,44004],[98.6,44087],[98.6,44171],[98.6,44254],[98.6,44331],[98.6,44415],[98.6,44498],[98.6,44587],[98.6,44665],[98.6,44753],[98.6,44837],[98.6,44920],[98.6,45000],[98.6,45087],[98.6,45165],[98.6,45249],[98.6,45337],[98.6,45415],[98.6,45504],[98.6,45587],[98.6,45665],[98.6,45755],[98.6,45837],[98.6,45921],[98.6,45998],[98.6,46081],[98.6,46170],[98.6,46249],[98.6,46337],[98.6,46415],[98.6,46504],[98.6,46587],[98.6,46665],[98.6,46750],[98.6,46831],[98.6,46918],[98.6,46998],[98.6,47081],[98.6,47165],[98.6,47254],[98.6,47337],[98.6,47415],[98.6,47498],[98.6,47581],[98.6,47671],[98.6,47748],[98.6,47837],[98.6,47915],[98.6,48004],[98.6,48086],[98.6,48165],[98.6,48248],[98.6,48337],[98.6,48415],[98.6,48499],[98.6,48586],[98.6,48665],[98.6,48754],[98.6,48831],[98.6,48915],[98.6,48998],[98.6,49087],[98.6,49169],[98.6,49252],[98.6,49337],[98.6,49415],[98.6,49498],[98.6,49587],[98.6,49665],[98.6,49749],[98.6,49837],[98.6,49915],[98.6,49999],[98.6,50088],[98.6,50165],[98.6,50254],[98.6,50331],[98.6,50414],[98.6,50498],[98.6,50581],[98.6,50671],[98.6,50754],[98.6,50836],[98.6,50920],[98.6,50999],[98.6,51081],[98.6,51171],[98.6,51254],[98.6,51337],[98.6,51414],[98.6,51498],[98.6,51587],[98.6,51665],[98.6,51749],[98.6,51837],[98.6,51915],[98.6,52004],[98.6,52081],[98.6,52165],[98.6,52252],[98.6,52331],[98.6,52416],[98.6,52503],[98.6,52587],[98.6,52671],[98.6,52755],[98.6,52831],[98.6,52915],[98.6,53000],[98.6,53086],[98.6,53171],[98.6,53254],[98.6,53331],[98.6,53420],[98.6,53504],[98.6,53587],[98.6,53664],[98.6,53748],[98.6,53831],[98.6,53915],[98.6,53999],[98.6,54087],[98.6,54171],[98.6,54248],[98.6,54336],[98.6,54421],[98.6,54503],[98.6,54581],[98.6,54665],[98.6,54747],[98.6,54831],[98.6,54922],[98.6,54997],[98.6,55081],[98.6,55164],[98.6,55248],[98.6,55334],[98.6,55420],[98.6,55501],[98.6,55585],[98.6,55664],[98.6,55748],[98.6,55831]]",442.0437,448.1946,98.64583015,1.7982,"[{""rating"":98.64583015441895,""responseTime"":1.798199999809242}]",space,5.6015,,448.1947,Not at all,0,448.1988,,,[],,0,10,10,10,1,audio/Narrative8Situation1.wav,audio/Narrative7Situation1.wav,audio/Narrative6Situation1.wav,audio/Narrative5Situation1.wav,5,2,2,5,,,,,,,,,,,,,,,,,,,,,,,,,,,,,,,,,,,,,,,
,,,,,66b91ee649636fce844ef133,2025-07-07_21h59.38.812,group3.4_multiperson,2023.2.2,Win32,64.1025641,686c2ebf0248f13bef9af11f,686c7b749df6419ce4e747e5,,,,,,,,,,,,,,,,,,,,,,,,,,,,,448.1991,1,audio/Narrative7Situation2.wav,451.205,,451.2051,458.6709,[],458.6713,461.1277,97.60416349,1.8239,"[{""rating"":97.60416348775227,""responseTime"":1.8239000000953638}]",space,1.8988,,461.1278,Definitely yes,100,461.132,,,[],,0,11,11,11,1,audio/Narrative8Situation2.wav,audio/Narrative7Situation2.wav,audio/Narrative6Situation2.wav,audio/Narrative5Situation2.wav,3,3,3,3,,,,,,,,,,,,,,,,,,,,,,,,,,,,,,,,,,,,,,,
,,,,,66b91ee649636fce844ef133,2025-07-07_21h59.38.812,group3.4_multiperson,2023.2.2,Win32,64.1025641,686c2ebf0248f13bef9af11f,686c7b749df6419ce4e747e5,,,,,,,,,,,,,,,,,,,,,,,,,,,,,461.1323,1,audio/Narrative7Situation3.wav,469.1381,,469.1382,478.3936,"[[999,1],[999,82],[999,165],[999,252],[999,337],[999,422],[999,505],[999,588],[999,665],[999,755],[999,838],[999,915],[999,998],[999,1082],[999,1172],[999,1255],[999,1332],[999,1415],[999,1504],[999,1582],[999,1665],[999,1755],[999,1832],[999,1915],[999,1999],[999,2082],[999,2171],[999,2255],[999,2338],[999,2422],[999,2505],[999,2587],[999,2665],[999,2754],[999,2832],[999,2915],[999,3005],[999,3082],[999,3171],[999,3255],[999,3338],[999,3415],[999,3498],[999,3583],[999,3672],[999,3748],[999,3832],[999,3921],[999,3999],[999,4081],[999,4172],[999,4256],[76.8,4332],[76.8,4417],[76.8,4498],[76.8,4588],[92.5,4923],[93.2,5004],[93.9,5088],[94,5171],[94,5249],[94.5,5338],[95.3,5416],[95.6,5505],[95.7,5582],[95.8,5670],[95.8,5748],[95.8,5832],[95.8,5916],[95.8,5999],[95.8,6082],[95.8,6166],[95.8,6254],[95.8,6337],[95.8,6421],[95.8,6499],[95.8,6582],[95.8,6672],[95.8,6748],[95.8,6832],[95.8,6921],[95.8,6999],[95.8,7088],[95.8,7165],[95.8,7254],[95.8,7332],[95.8,7421],[95.8,7504],[95.8,7582],[95.8,7665],[95.8,7755],[95.8,7838],[95.8,7915],[95.8,7999],[95.8,8087],[95.8,8165],[95.8,8248],[95.8,8337],[95.8,8415],[95.8,8499],[95.8,8586],[95.8,8665],[95.8,8749],[95.8,8838],[95.8,8922],[95.8,8999],[95.8,9089],[95.8,9165],[97.3,9255]]",478.3939,480.444,98.8541762,1.0161,"[{""rating"":98.85417620340984,""responseTime"":1.016099999904668}]",space,1.5153,,480.4442,Not at all,0,480.449,,,[],,0,12,12,12,1,audio/Narrative8Situation3.wav,audio/Narrative7Situation3.wav,audio/Narrative6Situation3.wav,audio/Narrative5Situation3.wav,4,8,5,3,,,,,,,,,,,,,,,,,,,,,,,,,,,,,,,,,,,,,,,
,,,,,66b91ee649636fce844ef133,2025-07-07_21h59.38.812,group3.4_multiperson,2023.2.2,Win32,64.1025641,686c2ebf0248f13bef9af11f,686c7b749df6419ce4e747e5,,,,,,,,,,,,,,,,,,,,,,,,,,,,,480.4493,1,audio/Narrative7Situation4.wav,483.4599,,483.46,495.2047,"[[8.2,7582],[7.1,7667],[6.7,7751],[5.4,7833],[4.8,7916],[4.8,7999],[4.6,8077],[3.3,8166],[2.8,8252],[2.7,8326],[2.7,8409],[2.7,8492],[2.7,8577],[2.7,8660],[2.7,8743],[2.7,8832],[2.7,8910],[2.7,8999],[2.7,9081],[2.7,9166],[2.7,9243],[2.7,9326],[2.7,9410],[2.7,9498],[2.7,9583],[3.6,9666],[6.6,9750],[7.3,9832],[7.5,9909],[8.9,10000],[10.9,10083],[11.9,10165],[12.8,10250],[14.3,10334],[14.6,10416],[14.6,10493],[14.6,10581],[14.6,10666],[14.6,10749],[14.6,10826],[14.6,10916],[14.6,10992],[14.6,11082],[14.6,11160],[14.6,11250],[14.6,11326],[14.6,11416],[14.6,11493],[14.6,11577],[14.6,11667],[14.6,11743]]",495.2049,497.5601,14.58333333,0.8107,"[{""rating"":14.583333333333332,""responseTime"":0.8106999998092874}]",space,1.8023,,497.5603,Definitely yes,100,497.5638,,,[],,0,13,13,13,1,audio/Narrative8Situation4.wav,audio/Narrative7Situation4.wav,audio/Narrative6Situation4.wav,audio/Narrative5Situation4.wav,3,3,2,1,,,,,,,,,,,,,,,,,,,,,,,,,,,,,,,,,,,,,,,
,,,,,66b91ee649636fce844ef133,2025-07-07_21h59.38.812,group3.4_multiperson,2023.2.2,Win32,64.1025641,686c2ebf0248f13bef9af11f,686c7b749df6419ce4e747e5,,,,,,,,,,,,,,,,,,,,,,,,,,,,,497.5642,1,audio/Narrative7Situation5.wav,502.5736,,502.5737,511.0926,"[[18.3,5751],[27.7,5836],[37,5913],[37,6002],[37,6079],[37,6163],[37,6246],[39.3,6335],[46.4,6420],[52.3,6496],[53.1,6579],[53.1,6663],[53.1,6751],[53.1,6835],[53.1,6912],[60.8,7003],[71.9,7086],[74.1,7169],[74.1,7251],[74.1,7334],[74.1,7416],[74.1,7496],[74.5,7580],[76.5,7670],[79.5,7752],[80.4,7836],[81.8,7912],[82.1,8002],[82.2,8078],[82.3,8167],[82.3,8252],[82.3,8329],[82.3,8413],[82.3,8496]]",511.0929,514.5763,73.54166508,1.8961,"[{""rating"":73.54166507720947,""responseTime"":1.896100000381466}]",space,2.9441,,514.5764,Not at all,0,514.5806,,,[],,0,14,14,14,1,audio/Narrative8Situation5.wav,audio/Narrative7Situation5.wav,audio/Narrative6Situation5.wav,audio/Narrative5Situation5.wav,2,5,2,5,,,,,,,,,,,,,,,,,,,,,,,,,,,,,,,,,,,,,,,
,,,,,66b91ee649636fce844ef133,2025-07-07_21h59.38.812,group3.4_multiperson,2023.2.2,Win32,64.1025641,686c2ebf0248f13bef9af11f,686c7b749df6419ce4e747e5,,,,,,,,,,,,,,,,,,,,,,,,,,,,,514.581,1,audio/Narrative7Situation6.wav,517.5864,,517.5865,527.5757,"[[74.8,3255],[77.5,3338],[79.3,3423],[81.8,3504],[83.4,3588],[87.4,3672],[89.4,3756],[89.7,3839],[89.8,3921],[89.8,4005],[89.8,4088],[89.8,4165],[89.8,4255],[89.8,4339],[89.8,4416],[89.8,4505],[89.8,4588],[89.8,4666],[89.8,4755],[89.8,4833],[89.8,4923],[89.8,5005],[89.8,5088],[89.8,5172],[89.8,5250],[89.8,5333],[89.8,5416],[89.8,5505],[89.8,5583],[89.8,5672],[89.8,5750],[89.8,5838],[89.8,5916],[89.8,6000],[89.8,6088],[89.8,6166],[89.8,6250],[89.8,6333],[89.8,6421],[89.8,6500],[89.8,6589],[89.8,6666],[89.8,6750],[89.8,6833],[90.1,6917],[92.9,7007],[94.9,7089],[96.4,7173],[96.9,7249],[97.3,7340],[97.8,7418],[97.9,7499],[97.9,7588],[97.9,7672],[97.9,7753],[97.9,7839],[97.9,7922],[97.9,8005],[97.9,8083],[97.9,8166],[97.9,8250],[97.9,8336],[97.9,8416],[97.9,8505],[97.9,8583],[97.9,8672],[97.9,8750],[97.9,8836],[97.9,8921],[97.9,9005],[97.9,9083],[97.9,9166],[97.9,9256],[97.9,9339],[97.9,9423],[97.9,9499],[97.9,9589],[97.9,9672],[97.9,9755],[97.9,9837],[97.9,9915]]",527.5759,529.7605,97.70833651,1.5995,"[{""rating"":97.70833651224773,""responseTime"":1.5995000000000346}]",space,1.6473,,529.7606,Partially,50,529.7643,,,[],,0,15,15,15,1,audio/Narrative8Situation6.wav,audio/Narrative7Situation6.wav,audio/Narrative6Situation6.wav,audio/Narrative5Situation6.wav,2,3,2,3,,,,,,,,,,,,,,,,,,,,,,,,,,,,,,,,,,,,,,,
,,,,,66b91ee649636fce844ef133,2025-07-07_21h59.38.812,group3.4_multiperson,2023.2.2,Win32,64.1025641,686c2ebf0248f13bef9af11f,686c7b749df6419ce4e747e5,,,,,,,,,,,,,,,,,,,,,,,,,,,,,529.7647,1,audio/Narrative7Situation7.wav,534.7708,,534.7709,551.9598,"[[99.7,5756],[95.5,6587],[90.6,6920],[90,6998],[90,7088],[90,7170],[90,7254],[90,7331],[90,7415],[90,7504],[90,7587],[90,7665],[90,7748],[90,7831],[90,7915],[90,7998],[90,8081],[90,8171],[90,8253],[90,8331],[90,8416],[90,8504],[90,8586],[90,8671],[90,8752],[90,8837],[90,8915],[90,8998],[90,9081],[90,9164],[90,9254],[90,9332],[90,9415],[90,9503],[90,9581],[90,9670],[90,9752],[90,9837],[90,9920],[90,10002],[90,10087],[90,10171],[90,10253],[90,10331],[90,10414],[90,10503],[90,10581],[90.3,10671],[90.5,10754],[90.6,10838],[91.1,10914],[91.7,11004],[92.2,11087],[92.5,11164],[93,11255],[93.2,11337],[93.2,11414],[93.2,11498],[93.2,11588],[93.2,11671],[93.2,11749],[93.2,11834],[93.2,11921],[93.2,11999],[93.2,12081],[93.2,12164],[93.2,12249],[93.2,12337],[93.2,12415],[93.2,12498],[93.2,12585],[93.2,12670],[93.2,12753],[93.2,12837],[93.2,12915],[93.2,13003],[93.2,13081],[93.2,13164],[93.2,13248],[93.2,13331],[93.2,13415],[93.2,13503],[93.2,13581],[93.2,13671],[93.2,13748],[93.2,13836],[93.2,13920],[93.2,13999],[93.2,14087],[93.2,14165],[93.2,14254],[93.2,14335],[93.2,14415],[93.8,14499],[95.6,14589],[96.4,14671],[96.8,14755],[97.1,14831],[97.2,14920],[97.2,14998],[97.2,15081],[97.4,15170],[97.6,15248],[97.8,15337],[97.9,15414],[97.9,15498],[97.9,15581],[97.9,15670],[97.9,15752],[97.9,15831],[97.9,15920],[97.9,16003],[97.9,16081],[97.9,16172],[98,16253],[98,16331],[98,16414],[98,16498],[98,16581],[98,16664],[98,16748],[98,16831],[98,16917],[98,16998],[98,17081],[98,17164]]",551.9601,553.2095,98.02083969,0.3833,"[{""rating"":98.02083969116211,""responseTime"":0.3832999997139268}]",space,0.6876,,553.2097,Definitely yes,100,553.2142,,,[],,0,16,16,16,1,audio/Narrative8Situation7.wav,audio/Narrative7Situation7.wav,audio/Narrative6Situation7.wav,audio/Narrative5Situation7.wav,3,5,5,4,,,,,,,,,,,,,,,,,,,,,,,,,,,,,,,,,,,,,,,
,,,,,66b91ee649636fce844ef133,2025-07-07_21h59.38.812,group3.4_multiperson,2023.2.2,Win32,64.1025641,686c2ebf0248f13bef9af11f,686c7b749df6419ce4e747e5,,,,,,,,,,,,,,,,,,,,,,,,,,,,,553.2146,1,audio/Narrative7Situation8.wav,555.2199,,555.2202,565.2766,"[[97.8,9916],[97.7,9999]]",565.2768,567.1421,97.50000636,0.8882,"[{""rating"":97.50000635782878,""responseTime"":0.8881999998092169}]",space,1.3211,,567.1422,Partially,50,567.1462,,,[],,0,17,17,17,1,audio/Narrative8Situation8.wav,audio/Narrative7Situation8.wav,audio/Narrative6Situation8.wav,audio/Narrative5Situation8.wav,3,2,5,3,,,,,,,,,,,,,,,,,,,,,,,,,,,,,,,,,,,,,,,
,,,,,66b91ee649636fce844ef133,2025-07-07_21h59.38.812,group3.4_multiperson,2023.2.2,Win32,64.1025641,686c2ebf0248f13bef9af11f,686c7b749df6419ce4e747e5,,,,,,,,,,,,,,,,,,,,,,,,,,,,,567.1465,1,audio/Narrative7Situation9.wav,569.1533,,569.1534,577.7908,"[[93.2,6588],[87.9,6666],[86.4,6754],[86.4,6832],[86.4,6915],[86.4,7003],[86.4,7082],[86.4,7165],[86.1,7256],[87.9,7338],[95.3,7589],[97.9,7672],[99.8,7755],[100,7837],[100,7920],[100,7998],[100,8081],[100,8165],[100,8248],[100,8331],[100,8416],[100,8498],[100,8581]]",577.7909,580.059,98.95833333,1.3702,"[{""rating"":98.95833333333333,""responseTime"":1.3702000002861041}]",space,1.7191,,580.0591,Not at all,0,580.0628,,,[],,0,18,18,18,1,audio/Narrative8Situation9.wav,audio/Narrative7Situation9.wav,audio/Narrative6Situation9.wav,audio/Narrative5Situation9.wav,3,2,4,3,,,,,,,,,,,,,,,,,,,,,,,,,,,,,,,,,,,,,,,
,,,,,66b91ee649636fce844ef133,2025-07-07_21h59.38.812,group3.4_multiperson,2023.2.2,Win32,64.1025641,686c2ebf0248f13bef9af11f,686c7b749df6419ce4e747e5,,,,,,,,,,,,,,,,,,,,,,,,,,,632.3423,634.9182,634.9425,2,audio/Narrative13Situation2.wav,634.9426,,634.9427,664.6844,"[[100,6831],[60.4,7664],[53.4,7747],[53.3,7825],[52.8,7914],[52.7,7991],[52.7,8074],[51.7,8163],[51.4,8241],[51.4,8329],[51.3,8408],[51.1,8491],[50.9,8580],[50.9,8664],[50.9,8746],[50.9,8824],[50.9,8908],[50.9,8991],[50.9,9075],[50.9,9158],[50.9,9241],[50.9,9325],[50.9,9413],[50.9,9497],[50.9,9575],[50.9,9658],[50.9,9741],[50.9,9824],[50.9,9908],[50.9,9990],[50.9,10074],[50.9,10158],[50.9,10241],[50.9,10331],[50.9,10408],[50.9,10494],[50.9,10580],[50.9,10659],[50.9,10746],[50.9,10824],[50.9,10908],[50.9,10996],[50.9,11080],[50.9,11158],[50.9,11241],[50.9,11330],[50.9,11409],[50.9,11491],[50.9,11575],[50.9,11658],[50.9,11741],[50.9,11825],[50.9,11908],[50.9,11992],[50.9,12081],[50.9,12158],[50.9,12241],[50.9,12325],[50.9,12408],[50.9,12497],[50.9,12575],[50.9,12661],[50.9,12748],[50.9,12831],[50.9,12909],[50.9,12991],[50.9,13081],[50.9,13158],[50.9,13246],[50.9,13330],[50.9,13414],[50.9,13492],[50.9,13581],[50.9,13658],[50.9,13745],[50.9,13824],[50.9,13914],[50.9,13991],[50.9,14081],[50.9,14158],[50.9,14241],[50.9,14331],[50.9,14414],[50.9,14491],[50.9,14575],[50.9,14662],[50.9,14749],[50.9,14825],[50.9,14908],[50.9,14991],[50.9,15074],[50.9,15158],[50.9,15248],[50.9,15325],[50.9,15411],[50.9,15497],[50.9,15574],[50.9,15658],[50.9,15741],[50.9,15830],[50.9,15908],[50.9,15991],[50.9,16075],[50.9,16159],[50.9,16241],[50.9,16331],[50.9,16414],[50.9,16491],[50.9,16581],[50.9,16658],[50.9,16747],[50.9,16825],[50.9,16908],[50.9,16997],[50.9,17075],[50.9,17163],[50.9,17248],[50.9,17325],[50.9,17415],[50.9,17496],[50.9,17574],[50.9,17658],[50.9,17747],[50.9,17824],[49,17915],[46.5,17999],[43.2,18081],[41.1,18164],[38.8,18241],[36.7,18331],[35.1,18414],[34,18491],[32.7,18581],[32.6,18664],[32.6,18741],[32.6,18831],[32.6,18909],[32.6,18997],[32.6,19075],[32.6,19165],[32.6,19247],[32.6,19331],[32.6,19409],[32.6,19497],[32.6,19575],[32.6,19662],[32.6,19741],[32.6,19831],[32.6,19908],[32.6,19998],[32.6,20074],[32.6,20158],[32.6,20248],[32.6,20325],[32.6,20407],[32.6,20497],[32.6,20576],[32.6,20659],[32.6,20749],[32.6,20824],[32.6,20909],[32.6,20991],[32.6,21081],[32.6,21158],[32.6,21241],[32.6,21324],[32.6,21415],[32.6,21498],[32.6,21575],[32.6,21665],[32.6,21745],[32.6,21824],[32.6,21916],[32.6,21997],[32.6,22074],[32.6,22158],[32.6,22246],[32.6,22324],[32.6,22413],[32.6,22491],[32.6,22580],[32.6,22665],[32.6,22747],[32.6,22825],[32.6,22907],[32.6,22990],[32.6,23081],[32.6,23158],[32.6,23240],[32.6,23324],[32.6,23409],[32.6,23494],[32.6,23575],[32.6,23664],[32.6,23747],[32.6,23830],[32.6,23908],[32.6,23991],[32.6,24080],[32.6,24164],[32.6,24241],[32.6,24324],[32.6,24409],[32.6,24491],[32.6,24574],[32.6,24661],[32.6,24741],[32.6,24824],[32.6,24914],[32.6,24991],[32.6,25074],[32.6,25164],[32.6,25241],[32.6,25331],[32.6,25408],[32.6,25492],[32.6,25574],[32.6,25658],[32.6,25746],[32.6,25831],[32.6,25908],[32.6,25991],[32.6,26075],[32.6,26159],[32.6,26241],[32.6,26325],[32.6,26413],[32.6,26490],[32.6,26581],[32.6,26658],[32.6,26741],[32.6,26830],[32.6,26908],[32.6,26997],[32.6,27081],[32.6,27164],[32.6,27246],[32.6,27325],[32.6,27408],[32.6,27494],[32.6,27574],[32.6,27664],[32.6,27742],[32.6,27831],[32.6,27913],[32.6,27991],[32.6,28075],[32.6,28158],[32.6,28241],[32.6,28331],[32.6,28408],[32.6,28494],[32.6,28581],[32.6,28664],[32.6,28741],[32.6,28830],[32.6,28908],[32.6,28997],[32.6,29075],[32.6,29158],[32.6,29240],[32.6,29330],[32.6,29414],[32.6,29494],[32.6,29574],[32.6,29663],[32.6,29741]]",664.6849,664.6876,,,[],,,,664.6877,Partially,50,664.6907,,,[],,0,0,0,0,1,audio/Narrative13Situation2.wav,audio/Narrative13Situation2.wav,audio/Narrative13Situation2.wav,audio/Narrative13Situation2.wav,2,2,2,2,,,,,580.0634,632.3416,space,51.7494,,,,,,,,,,,,,,,,,,,,,,,,,,,,,,,
,,,,,66b91ee649636fce844ef133,2025-07-07_21h59.38.812,group3.4_multiperson,2023.2.2,Win32,64.1025641,686c2ebf0248f13bef9af11f,686c7b749df6419ce4e747e5,,,,,,,,,,,,,,,,,,,,,,,,,,,,,664.691,2,audio/Narrative6Situation1.wav,666.702,,666.7026,693.2836,"[[33.5,15756],[36.3,15838],[37.9,15921],[40.8,16004],[41,16080],[41.5,16170],[41.7,16254],[41.8,16330],[41.8,16420],[41.8,16502],[41.8,16588],[41.8,16670],[41.8,16749],[41.8,16835],[41.8,16914],[41.8,17001],[41.8,17086],[41.8,17164],[41.8,17248],[41.8,17335],[41.8,17413],[41.8,17502],[41.8,17585],[41.8,17664],[41.8,17748],[41.8,17836],[41.8,17920],[41.8,17998],[41.8,18080],[41.8,18170],[41.8,18248],[41.8,18330],[41.8,18414],[41.8,18504],[41.8,18580],[41.8,18668],[41.8,18748],[41.8,18836],[41.8,18918],[41.8,18998],[41.8,19080],[41.8,19170],[41.8,19248],[41.8,19331],[41.8,19418],[41.8,19497],[41.8,19586],[41.8,19664],[41.8,19747],[41.8,19836],[41.8,19921],[41.8,20004],[41.8,20085],[41.8,20164],[41.8,20253],[41.8,20330],[41.8,20420],[41.8,20498],[41.8,20585],[41.8,20664],[41.8,20753],[41.8,20831],[41.8,20920],[41.8,20998],[41.8,21086],[41.8,21165],[41.8,21254],[41.8,21331],[41.8,21414],[41.8,21498],[41.8,21587],[41.8,21670],[41.8,21749],[41.8,21837],[41.8,21914],[41.8,21998],[41.8,22080],[41.8,22164],[41.8,22254],[41.8,22337],[41.8,22414],[41.8,22504],[41.8,22586],[41.8,22664],[41.8,22747],[41.8,22836],[41.8,22920],[41.8,23003],[41.8,23080],[41.8,23171],[41.8,23248],[41.8,23336],[41.8,23414],[41.8,23503],[41.8,23586],[41.8,23664],[41.8,23753],[42.2,23839],[44.6,23920],[46.9,24003],[50,24088],[53.5,24171],[56.3,24255],[61.7,24337],[68,24414],[73.5,24504],[76.6,24580],[76.6,24664],[76.6,24753],[76.6,24835],[76.6,24920],[76.6,25003],[76.6,25086],[76.6,25170],[76.9,25253],[77,25330],[77.6,25414],[79.7,25505],[81.1,25588],[81.1,25667],[81.3,25747],[83,25837],[85.7,25921],[88,26004],[90.3,26087],[92.1,26170],[94.7,26254],[95.6,26331],[98.2,26420],[98.8,26502],[98.9,26580]]",693.284,695.7574,97.50000636,1.5366,"[{""rating"":98.85417620340984,""responseTime"":0.6564000000953456},{""rating"":97.50000635782878,""responseTime"":1.536599999904638}]",space,1.9388,,695.7575,Definitely yes,100,695.762,,,[],,0,1,1,1,1,audio/Narrative7Situation1.wav,audio/Narrative8Situation1.wav,audio/Narrative5Situation1.wav,audio/Narrative6Situation1.wav,2,5,5,2,,,,,,,,,,,,,,,,,,,,,,,,,,,,,,,,,,,,,,,
,,,,,66b91ee649636fce844ef133,2025-07-07_21h59.38.812,group3.4_multiperson,2023.2.2,Win32,64.1025641,686c2ebf0248f13bef9af11f,686c7b749df6419ce4e747e5,,,,,,,,,,,,,,,,,,,,,,,,,,,,,695.7624,2,audio/Narrative6Situation2.wav,698.7672,,698.7674,727.2729,"[[97.3,4917],[97.2,5005],[97.1,5088],[96.8,5173],[96.8,5256],[96.8,5337],[96.8,5415],[96.8,5505],[96.8,5583],[96.8,5666],[96.8,5755],[96.8,5833],[96.8,5920],[96.8,5999],[96.8,6088],[96.8,6165],[96.8,6252],[96.8,6339],[96.8,6422],[96.8,6504],[96.8,6583],[96.8,6671],[96.8,6749],[96.8,6832],[96.8,6916],[96.8,7005],[96.8,7082],[96.8,7166],[96.8,7254],[96.8,7338],[96.8,7421],[96.8,7506],[96.8,7583],[96.8,7665],[96.8,7754],[96.8,7833],[96.8,7921],[96.8,8005],[96.8,8083],[96.8,8165],[96.8,8249],[96.8,8332],[96.8,8421],[96.8,8499],[96.8,8588],[96.8,8665],[96.8,8755],[96.8,8832],[96.8,8921],[96.8,9005],[96.8,9088],[96.8,9172],[96.8,9248],[96.8,9332],[96.8,9421],[96.8,9504],[96.8,9587],[96.8,9665],[96.8,9755],[96.8,9837],[96.8,9921],[96.8,10006],[96.8,10083],[96.8,10171],[96.8,10249],[96.8,10338],[96.8,10420],[96.8,10505],[96.8,10588],[96.8,10665],[96.8,10756],[96.8,10833],[96.8,10915],[96.8,11004],[96.8,11082],[96.8,11171],[96.8,11255],[96.8,11340],[96.8,11416],[96.8,11499],[96.8,11582],[96.8,11665],[96.8,11748],[96.8,11839],[96.8,11921],[96.8,12005],[96.8,12088],[96.8,12165],[96.8,12249],[96.8,12336],[96.8,12415],[96.8,12505],[96.8,12587],[96.8,12671],[96.8,12749],[96.8,12839],[91.4,12923],[87,13005],[85.6,13090],[85.2,13165],[85.1,13254],[88.1,13339],[90.9,13422],[91.4,13506],[92.4,13589],[94.1,13672],[94.3,13749],[95,13833],[95.3,13915],[95.6,14006],[95.6,14083],[95.6,14165],[95.6,14248],[95.6,14332],[95.6,14419],[95.6,14499],[95.6,14582],[95.6,14670],[95.6,14753],[95.6,14831],[95.6,14914],[95.6,14998],[95.6,15086],[95.6,15165],[95.6,15249],[95.8,15332],[96.4,15421],[96.9,15498],[97.6,15581],[98.2,15671],[98.4,15755],[98.8,15839],[98.8,15915],[98.8,16005],[98.8,16082],[98.8,16170],[98.8,16249],[98.8,16332],[98.8,16415],[98.8,16498],[98.8,16586],[98.8,16671],[98.8,16749],[98.8,16839],[98.8,16915],[98.8,16999],[98.8,17082],[98.8,17165],[98.8,17249],[98.8,17332],[98.8,17420],[98.8,17499],[98.8,17588],[98.8,17671],[98.8,17749],[98.8,17833],[98.8,17915],[98.8,18005],[98.8,18088],[98.8,18165],[98.8,18248],[98.8,18338],[98.8,18415],[98.8,18505],[98.8,18582],[98.8,18665],[98.8,18749],[98.8,18838],[98.8,18915],[98.8,19004],[98.8,19089],[98.8,19165],[98.8,19249],[98.8,19332],[98.8,19421],[98.8,19499],[98.8,19587],[98.8,19671],[98.8,19754],[98.8,19832],[98.8,19921],[98.8,19999],[98.8,20082],[98.8,20171],[98.8,20249],[98.8,20332],[98.8,20415],[98.8,20498],[98.8,20583],[98.8,20665],[98.8,20755],[98.8,20832],[98.8,20915],[98.8,21005],[98.8,21082],[98.8,21171],[98.8,21248],[98.8,21332],[98.8,21415],[98.8,21504],[98.8,21588],[98.8,21671],[98.8,21754],[98.8,21832],[98.8,21916],[98.8,21999],[98.8,22087],[98.8,22165],[98.8,22255],[98.8,22333],[98.8,22421],[98.8,22498],[98.8,22582],[98.8,22665],[98.8,22755],[98.8,22832],[98.8,22915],[98.8,23006],[98.8,23082],[98.8,23165],[98.8,23255],[98.8,23337],[98.8,23421],[98.8,23499],[98.8,23588],[98.8,23665],[98.8,23755],[98.8,23832],[98.8,23922],[98.8,23999],[98.8,24088],[98.8,24171],[98.8,24249],[98.8,24338],[98.8,24415],[98.8,24498],[98.8,24588],[98.8,24665],[98.8,24755],[98.8,24838],[98.8,24916],[98.8,25005],[98.8,25086],[98.8,25165],[98.8,25255],[98.8,25332],[98.8,25415],[98.8,25499],[98.8,25582],[98.8,25670],[98.8,25749],[98.8,25832],[98.8,25915],[98.8,25999],[98.8,26083],[98.8,26165],[98.8,26249],[98.8,26338],[98.8,26421],[98.8,26498],[98.8,26582],[98.8,26665],[98.8,26754],[98.8,26838],[98.8,26921],[98.8,26998],[98.8,27088],[98.8,27171],[98.8,27255],[98.8,27338],[98.8,27421],[98.8,27504],[98.8,27581],[98.8,27671],[98.8,27749],[98.8,27838],[98.8,27915],[98.8,28005],[98.8,28081],[98.8,28170],[98.8,28248],[98.8,28331],[98.8,28415],[98.8,28505]]",727.2731,728.74,98.4375,0.9498,"[{""rating"":98.4375,""responseTime"":0.9497999997138322}]",space,0.9192,,728.74,Partially,50,728.7438,,,[],,0,2,2,2,1,audio/Narrative7Situation2.wav,audio/Narrative8Situation2.wav,audio/Narrative5Situation2.wav,audio/Narrative6Situation2.wav,3,3,3,3,,,,,,,,,,,,,,,,,,,,,,,,,,,,,,,,,,,,,,,
,,,,,66b91ee649636fce844ef133,2025-07-07_21h59.38.812,group3.4_multiperson,2023.2.2,Win32,64.1025641,686c2ebf0248f13bef9af11f,686c7b749df6419ce4e747e5,,,,,,,,,,,,,,,,,,,,,,,,,,,,,728.7443,2,audio/Narrative6Situation3.wav,733.7556,,733.7556,746.389,"[[97.5,7334],[96.1,7418],[96,7493],[96,7576],[96,7661],[96,7749],[96,7827],[96.4,7909],[96.9,7999],[96.9,8077],[97.1,8160],[97.1,8249],[97.1,8326],[97.1,8411],[97.1,8493],[97.1,8576],[97.1,8667],[97.1,8749],[97.1,8833],[97.1,8910],[97.1,8999],[97.1,9083],[97.1,9160],[97.1,9243],[97.1,9326],[97.1,9416],[97.1,9494],[97.1,9582],[97.1,9666],[97.1,9744],[97.1,9830],[97.1,9916],[97.1,9994],[97.1,10083],[97.1,10160],[97.1,10243],[97.1,10333],[97.1,10417],[97.1,10499],[97.1,10583],[97.1,10660],[97.1,10749],[97.1,10832],[97.1,10910],[97.1,10993],[97.1,11077],[97.1,11165],[97.1,11243],[97.1,11332],[97.1,11410],[97.1,11493],[97.1,11577],[97.1,11665],[97.1,11744],[97.1,11826],[97.1,11916],[97.1,12000],[97.1,12077],[97.1,12160],[97.1,12243],[97.1,12332],[97.1,12410],[97.1,12493],[97.1,12584]]",746.3892,747.6993,97.08333015,0.5761,"[{""rating"":97.08333015441895,""responseTime"":0.5760999999046135}]",space,0.7609,,747.6996,Definitely yes,100,747.7046,,,[],,0,3,3,3,1,audio/Narrative7Situation3.wav,audio/Narrative8Situation3.wav,audio/Narrative5Situation3.wav,audio/Narrative6Situation3.wav,8,4,3,5,,,,,,,,,,,,,,,,,,,,,,,,,,,,,,,,,,,,,,,
,,,,,66b91ee649636fce844ef133,2025-07-07_21h59.38.812,group3.4_multiperson,2023.2.2,Win32,64.1025641,686c2ebf0248f13bef9af11f,686c7b749df6419ce4e747e5,,,,,,,,,,,,,,,,,,,,,,,,,,,,,747.7051,2,audio/Narrative6Situation4.wav,749.7226,,749.7227,762.3723,"[[999,0],[999,82],[999,160],[999,249],[999,326],[999,409],[999,493],[999,580],[999,666],[999,743],[999,826],[999,909],[999,999],[999,1076],[999,1165],[999,1249],[999,1326],[999,1414],[999,1496],[999,1576],[999,1664],[999,1749],[999,1826],[999,1915],[999,1993],[999,2076],[999,2159],[999,2248],[999,2327],[999,2409],[999,2498],[999,2581],[999,2664],[999,2742],[999,2826],[999,2909],[999,2999],[999,3084],[999,3166],[999,3249],[999,3332],[69,3416],[70,3500],[70.3,3577],[70.5,3664],[70.5,3742],[70.5,3826],[70.5,3910],[70.5,3993],[70.5,4076],[70.5,4165],[70.5,4247],[71.1,4333],[72.6,4416],[73.4,4500],[75.6,4582],[77.1,4665],[79.1,4749],[80.9,4832],[82.7,4910],[84.9,4999],[84.9,5081],[84.9,5165],[84.9,5249],[84.9,5326],[84.9,5415],[85.4,5500],[86.4,5576],[88,5666],[89.6,5750],[91,5832],[93.1,5915],[94.5,5997],[96,6083],[96.8,6159],[97.2,6244],[97.2,6325],[97.4,6409],[97.6,6493],[97.6,6576],[97.7,6666],[97.7,6748],[97.7,6832],[97.7,6913],[97.7,6993],[97.7,7082],[97.7,7163],[97.7,7249],[97.7,7332],[97.7,7409],[97.7,7493],[97.7,7581],[97.7,7665],[97.7,7749],[97.7,7826],[97.7,7915],[97.7,7992],[97.7,8077],[97.7,8165],[97.7,8249],[97.7,8326],[97.7,8414],[97.7,8492],[97.7,8576],[97.7,8664],[97.7,8743],[97.7,8832],[97.7,8909],[97.7,8993],[97.7,9076],[97.7,9159],[97.7,9243],[97.7,9332],[97.7,9409],[97.7,9497],[97.7,9576],[97.7,9659],[97.7,9742],[97.7,9826],[97.7,9909],[97.7,9996],[97.7,10075],[97.7,10160],[97.7,10249],[97.7,10326],[97.7,10412],[97.7,10492],[97.7,10576],[97.7,10665],[97.7,10748],[97.7,10826],[97.7,10909],[97.7,10992],[97.7,11082],[97.7,11164],[97.7,11243],[97.7,11326],[97.7,11409],[97.7,11499],[97.7,11579],[97.7,11660],[97.7,11743],[97.7,11831],[97.7,11909],[97.7,11993],[97.7,12075],[97.7,12165],[97.7,12243],[97.7,12332],[97.7,12415],[97.7,12493],[97.7,12576]]",762.3726,764.6561,98.8541762,1.5503,"[{""rating"":98.85417620340984,""responseTime"":1.5503000001907594}]",space,1.73,,764.6561,Definitely yes,100,764.6592,,,[],,0,4,4,4,1,audio/Narrative7Situation4.wav,audio/Narrative8Situation4.wav,audio/Narrative5Situation4.wav,audio/Narrative6Situation4.wav,3,3,1,2,,,,,,,,,,,,,,,,,,,,,,,,,,,,,,,,,,,,,,,
,,,,,66b91ee649636fce844ef133,2025-07-07_21h59.38.812,group3.4_multiperson,2023.2.2,Win32,64.1025641,686c2ebf0248f13bef9af11f,686c7b749df6419ce4e747e5,,,,,,,,,,,,,,,,,,,,,,,,,,,,,764.6596,2,audio/Narrative6Situation5.wav,766.6659,,766.6661,774.621,"[[98.8,4083],[94.9,4173],[91.5,4257],[90.3,4337],[90.2,4422],[90.2,4505],[90.3,4588],[93.1,4671],[94.3,4757],[95.2,4833],[96.4,4923],[96.9,4998],[97.7,5089],[97.9,5172],[97.9,5256],[97.9,5333],[97.9,5416],[97.9,5504],[97.9,5583],[97.9,5671],[97.9,5749],[97.9,5833],[97.9,5922],[97.9,5999],[97.9,6087],[97.9,6171],[97.9,6249],[97.9,6333],[97.9,6421],[97.9,6499],[97.9,6586],[97.9,6671],[97.9,6755],[97.9,6832],[97.9,6921],[97.9,6999],[97.9,7083],[97.9,7165],[97.9,7255],[97.9,7332],[97.9,7420],[97.9,7499],[97.9,7582],[97.9,7670],[97.9,7749],[97.9,7838],[97.9,7921]]",774.6212,776.3726,98.33334287,1.3348,"[{""rating"":98.33334287007649,""responseTime"":1.3347999997139368}]",space,1.2104,,776.3727,Not at all,0,776.3768,,,[],,0,5,5,5,1,audio/Narrative7Situation5.wav,audio/Narrative8Situation5.wav,audio/Narrative5Situation5.wav,audio/Narrative6Situation5.wav,5,2,5,2,,,,,,,,,,,,,,,,,,,,,,,,,,,,,,,,,,,,,,,
,,,,,66b91ee649636fce844ef133,2025-07-07_21h59.38.812,group3.4_multiperson,2023.2.2,Win32,64.1025641,686c2ebf0248f13bef9af11f,686c7b749df6419ce4e747e5,,,,,,,,,,,,,,,,,,,,,,,,,,,,,776.3772,2,audio/Narrative6Situation6.wav,778.3825,,778.3827,789.4872,"[[96.7,1421],[85.8,1508],[78.2,2172],[80.1,2256],[82.2,2338],[83.8,2416],[84.5,2505],[85.8,2589],[88.3,2672],[89.8,2755],[91,2839],[92.1,2917],[93.4,3006],[94.8,3089],[96.3,3172],[96.9,3255],[97.6,3340],[97.8,3422],[97.8,3499],[97.8,3582],[97.8,3665],[97.8,3755],[97.8,3838],[97.8,3921],[97.8,4004],[97.8,4082],[97.8,4166],[97.8,4253],[97.8,4332],[97.8,4422],[97.8,4499],[97.8,4582],[97.8,4672],[97.8,4749],[97.8,4832],[97.8,4915],[97.8,5003],[97.8,5082],[97.8,5165],[97.8,5249],[97.8,5332],[97.8,5421],[97.8,5502],[97.8,5582],[97.8,5671],[97.8,5749],[97.8,5832],[97.8,5916],[97.8,5999],[97.8,6082],[97.8,6166],[97.8,6249],[97.8,6332],[97.8,6416],[97.8,6498],[97.8,6582],[97.8,6669],[97.8,6749],[97.8,6838],[97.8,6921],[97.8,7004],[97.8,7086],[97.8,7165],[97.8,7249],[97.8,7332],[97.8,7416],[97.8,7499],[97.8,7586],[97.8,7666],[97.8,7754],[97.8,7832],[97.8,7920],[97.8,8004],[97.8,8082],[97.8,8165],[97.8,8249],[97.8,8332],[97.8,8420],[97.8,8504],[97.8,8581],[97.8,8665],[97.8,8749],[97.8,8832],[97.8,8915],[97.8,8999],[97.8,9087],[97.8,9165],[97.8,9253],[97.8,9338],[97.8,9415],[97.8,9499],[97.8,9588],[97.8,9670],[97.8,9754],[97.8,9837],[97.8,9915],[97.8,9998],[97.8,10087],[97.8,10165],[97.8,10249],[97.8,10332],[97.8,10415],[97.8,10498],[97.8,10588],[97.8,10666],[97.8,10749],[97.8,10837],[97.8,10920],[97.9,11004],[97.9,11082]]",789.4874,791.2987,98.02083969,0.6678,"[{""rating"":98.02083969116211,""responseTime"":0.6678000001908231}]",space,1.2942,,791.2989,Not at all,0,791.3038,,,[],,0,6,6,6,1,audio/Narrative7Situation6.wav,audio/Narrative8Situation6.wav,audio/Narrative5Situation6.wav,audio/Narrative6Situation6.wav,3,2,3,2,,,,,,,,,,,,,,,,,,,,,,,,,,,,,,,,,,,,,,,
,,,,,66b91ee649636fce844ef133,2025-07-07_21h59.38.812,group3.4_multiperson,2023.2.2,Win32,64.1025641,686c2ebf0248f13bef9af11f,686c7b749df6419ce4e747e5,,,,,,,,,,,,,,,,,,,,,,,,,,,,,791.3042,2,audio/Narrative6Situation7.wav,796.3149,,796.315,821.1652,"[[95.4,2339],[93.5,2422],[92.8,2505],[92.6,2589],[91.8,2673],[91.7,2755],[91.7,2833],[91.7,2922],[91.7,3006],[91.7,3083],[91.7,3166],[91.7,3249],[91.7,3339],[91.7,3416],[91.7,3503],[91.7,3583],[91.7,3672],[91.7,3750],[75.9,3839],[48.1,4339],[48.4,4423],[48.6,4505],[48.6,4589],[48.6,4672],[48.6,4749],[48.6,4832],[48.6,4915],[48.6,4999],[48.6,5082],[46,5173],[41.2,5257],[37.3,5339],[35,5417],[34.3,5499],[34.1,5583],[34.1,5672],[34.1,5749],[34.1,5833],[34.2,5916],[34.2,6004],[34.2,6083],[34.2,6165],[34.2,6249],[34.2,6333],[34.2,6417],[34.2,6503],[34.2,6588],[34.2,6673],[34.2,6755],[34.2,6838],[34.2,6916],[34.2,7005],[34.2,7089],[34.2,7166],[34.2,7255],[34.2,7333],[36.1,7424],[42.7,7506],[49.3,7589],[53.6,7673],[56.8,7757],[59,7839],[62.5,7923],[64.7,8006],[67.3,8089],[69.7,8172],[69.7,8249],[69.7,8333],[69.7,8422],[69.7,8499],[69.7,8589],[69.7,8673],[69.7,8749],[76.5,8839],[81.4,8923],[85.4,9006],[87.4,9088],[90.2,9173],[91.4,9250],[93.9,9339],[94.3,9420],[94.8,9506],[95.2,9588],[95.3,9666],[95.6,9755],[95.6,9833],[95.6,9916],[95.6,9999],[95.6,10083],[95.6,10172],[95.6,10254],[95.6,10333],[95.6,10416],[95.6,10500],[95.6,10582],[95.6,10666],[95.6,10753],[95.6,10839],[95.6,10917],[95.6,11005],[95.6,11088],[95.6,11173],[95.6,11255],[95.6,11337],[95.6,11416],[95.7,11500],[95.7,11589],[95.8,11672],[95.8,11749],[95.8,11833],[95.8,11916],[95.8,12005],[95.8,12083],[95.8,12166],[95.8,12256],[95.8,12334],[95.8,12416],[95.8,12500],[95.8,12589],[95.8,12666],[95.8,12754],[95.8,12832],[96.3,12923],[96.4,13000],[96.4,13083],[96.6,13166],[96.6,13249],[96.6,13333],[96.6,13422],[96.6,13506],[96.6,13588],[96.6,13666],[96.6,13755],[96.6,13833],[96.6,13922],[96.6,14000],[96.6,14083],[96.6,14166],[96.6,14250],[96.6,14333],[96.6,14420],[96.6,14499],[96.6,14588],[96.6,14667],[96.6,14756],[96.6,14838],[96.6,14916],[96.6,15005],[96.6,15089],[96.6,15166],[96.6,15252],[96.6,15332],[96.6,15422],[96.6,15505],[96.6,15583],[96.6,15667],[96.6,15749],[96.6,15833],[96.6,15916],[96.6,16005],[96.6,16083],[96.6,16172],[96.6,16249],[96.6,16339],[96.6,16422],[96.6,16500],[96.6,16582],[96.6,16666],[96.6,16749],[96.6,16832],[96.6,16916],[96.6,16999],[96.6,17083],[96.6,17170],[96.6,17249],[96.6,17333],[96.6,17419],[96.6,17505],[96.6,17583],[96.6,17667],[96.6,17755],[96.6,17838],[96.6,17916],[96.6,17999],[96.6,18083],[96.6,18171],[96.6,18255],[96.6,18332],[96.6,18422],[96.6,18499],[96.6,18583],[96.6,18672],[96.6,18749],[96.6,18837],[96.6,18922],[96.6,18999],[96.6,19088],[96.6,19172],[96.6,19250],[96.6,19332],[96.6,19417],[96.6,19504],[96.6,19583],[96.6,19667],[96.6,19750],[96.6,19838],[96.6,19921],[96.6,20005],[96.6,20083],[96.6,20168],[96.6,20257],[96.6,20333],[96.6,20417],[96.6,20504],[96.6,20588],[96.6,20665],[96.6,20749],[96.6,20833],[96.6,20915],[96.6,20998],[96.6,21085],[96.6,21165],[96.6,21248],[96.6,21332],[96.6,21415],[96.6,21499],[96.6,21586],[96.6,21665],[96.6,21749],[96.6,21836],[96.6,21916],[96.6,22000],[96.6,22089],[96.6,22166],[96.6,22255],[96.6,22333],[96.6,22422],[96.6,22499],[96.6,22583],[96.6,22666],[96.6,22752],[96.6,22839],[96.6,22917],[96.6,22999],[96.6,23082],[96.6,23171],[96.6,23249],[96.6,23332],[96.6,23422],[96.6,23499],[96.6,23587],[96.6,23671],[96.6,23749],[96.6,23832],[96.6,23916],[96.6,24005],[96.6,24087],[96.6,24174],[96.6,24249],[96.6,24340],[96.6,24419],[96.6,24505],[96.6,24583],[96.6,24666],[96.6,24749],[96.6,24837]]",821.1656,822.538,96.56249682,0.6094,"[{""rating"":96.56249682108562,""responseTime"":0.6093999996185175}]",space,0.8309,,822.5381,Partially,50,822.5428,,,[],,0,7,7,7,1,audio/Narrative7Situation7.wav,audio/Narrative8Situation7.wav,audio/Narrative5Situation7.wav,audio/Narrative6Situation7.wav,5,3,4,5,,,,,,,,,,,,,,,,,,,,,,,,,,,,,,,,,,,,,,,
,,,,,66b91ee649636fce844ef133,2025-07-07_21h59.38.812,group3.4_multiperson,2023.2.2,Win32,64.1025641,686c2ebf0248f13bef9af11f,686c7b749df6419ce4e747e5,,,,,,,,,,,,,,,,,,,,,,,,,,,,,822.5433,2,audio/Narrative6Situation8.wav,827.553,,827.5532,834.4376,"[[44.9,4501],[44.2,4584],[42.3,4668],[41.5,4750],[38.8,4834],[38.8,4916],[37.9,4995],[35.7,5078],[31.8,5169],[25.2,5251],[18,5334],[15.5,5414],[14.7,5500],[14.7,5577],[14.7,5663],[14.7,5744],[14.7,5834],[14.7,5917],[14.7,5995],[14.7,6082],[14.7,6166],[14.7,6244],[14.7,6332],[14.7,6411],[14.7,6500],[14.7,6582],[14.7,6664],[14.7,6744],[14.7,6828]]",834.4378,841.9143,10.72916587,5.8504,"[{""rating"":10.729165871938068,""responseTime"":5.850400000095419}]",space,6.9444,,841.9146,Not at all,0,841.9196,,,[],,0,8,8,8,1,audio/Narrative7Situation8.wav,audio/Narrative8Situation8.wav,audio/Narrative5Situation8.wav,audio/Narrative6Situation8.wav,2,3,3,5,,,,,,,,,,,,,,,,,,,,,,,,,,,,,,,,,,,,,,,
,,,,,66b91ee649636fce844ef133,2025-07-07_21h59.38.812,group3.4_multiperson,2023.2.2,Win32,64.1025641,686c2ebf0248f13bef9af11f,686c7b749df6419ce4e747e5,,,,,,,,,,,,,,,,,,,,,,,,,,,,,841.9198,2,audio/Narrative6Situation9.wav,845.9216,,845.9216,855.8646,"[[9.8,4500],[8.4,4575],[6.8,4666],[6.4,4742],[5.6,4832],[3.8,4915],[3.2,4998],[3.2,5075],[3,5165],[3,5242],[3,5331],[3,5415],[3,5498],[3,5576],[3,5659],[3,5747],[3,5832],[3,5914],[3,5995],[3,6082],[3,6160],[3,6242],[3,6325],[3,6416],[3,6498],[3,6575],[3,6665],[3,6747],[3,6830],[3,6909],[3,6999],[3,7075],[3,7159],[3,7245],[3,7326],[3,7409],[3,7492],[3,7576],[3,7659],[3,7742],[3,7826],[3,7909],[3,8000],[3,8076],[3,8165],[3,8246],[3,8332],[3,8409],[3,8491],[3,8581],[3,8659],[3,8742],[3,8830],[3,8914],[3,8992],[3,9076],[3,9158],[3,9242],[3,9332],[3,9414],[3,9497],[3,9575],[3,9658],[3,9742],[3,9831],[3,9914]]",855.8651,857.4211,3.020834923,0.743,"[{""rating"":3.0208349227905273,""responseTime"":0.7430000000000518}]",space,1.0143,,857.4211,Definitely yes,100,857.4248,,,[],,0,9,9,9,1,audio/Narrative7Situation9.wav,audio/Narrative8Situation9.wav,audio/Narrative5Situation9.wav,audio/Narrative6Situation9.wav,2,3,3,4,,,,,,,,,,,,,,,,,,,,,,,,,,,,,,,,,,,,,,,
,,,,,66b91ee649636fce844ef133,2025-07-07_21h59.38.812,group3.4_multiperson,2023.2.2,Win32,64.1025641,686c2ebf0248f13bef9af11f,686c7b749df6419ce4e747e5,,,,,,,,,,,,,,,,,,,,,,,,,,,,,857.4251,2,audio/Narrative5Situation1.wav,862.4314,,862.4315,875.7364,"[[3.1,6422],[3.3,6505],[3.5,6583],[3.6,6672],[3.6,6748],[5.8,6839],[11.8,6922],[17.3,7006],[21.6,7089],[23.6,7173],[26.9,7255],[27.3,7332],[27.3,7420],[27.3,7504],[27.3,7581],[27.3,7665],[27.3,7752],[27.9,7838],[32.6,7923],[38.5,7999],[45.1,8082],[48.8,8172],[50.6,8255],[52,8338],[52.1,8421],[52.1,8499],[52.1,8582],[52.1,8665],[52.1,8749],[52.1,8831],[52.1,8915],[52.1,8998],[52.1,9086],[52.1,9165],[52.1,9255],[52.1,9336],[52.1,9415],[52.1,9505],[52.1,9581],[52.1,9665],[52.1,9755],[52.1,9835],[52.1,9920],[52.1,9999],[52.1,10082],[52.1,10171],[52.1,10250],[52.1,10334],[52.1,10415],[52.1,10504],[52.1,10587],[52.1,10665],[52.1,10755],[54.8,10839],[59.9,10922],[66.6,11006],[74.2,11089],[76.5,11172],[76.5,11249],[76.5,11337],[76.5,11415],[76.5,11499],[76.5,11587],[77.4,11672],[80.8,11756],[85.7,11838],[89.3,11916],[90.5,12004],[92.1,12088],[93.5,12165],[95.3,12255],[96.4,12338],[97.3,12421],[97.6,12500],[97.7,12588],[97.7,12665],[97.7,12754],[97.7,12831],[97.7,12921],[97.7,13000],[97.7,13088],[97.7,13165],[97.7,13248]]",875.7366,876.9349,97.70833651,0.7516,"[{""rating"":97.70833651224773,""responseTime"":0.7515999999046699}]",space,0.6358,,876.935,Not at all,0,876.9388,,,[],,0,10,10,10,1,audio/Narrative8Situation1.wav,audio/Narrative7Situation1.wav,audio/Narrative6Situation1.wav,audio/Narrative5Situation1.wav,5,2,2,5,,,,,,,,,,,,,,,,,,,,,,,,,,,,,,,,,,,,,,,
,,,,,66b91ee649636fce844ef133,2025-07-07_21h59.38.812,group3.4_multiperson,2023.2.2,Win32,64.1025641,686c2ebf0248f13bef9af11f,686c7b749df6419ce4e747e5,,,,,,,,,,,,,,,,,,,,,,,,,,,,,876.9391,2,audio/Narrative5Situation2.wav,879.9531,,879.9531,909.4308,"[[59.9,2667],[60.9,2750],[61.8,2835],[61.8,2909],[61.8,2999],[61.1,3078],[60.6,3167],[58.4,3250],[57.5,3333],[54.4,3418],[53.7,3493],[53.7,3576],[53.7,3665],[53.7,3743],[53.7,3827],[53.7,3913],[53.7,3997],[53.7,4076],[53.7,4165],[53.7,4243],[53.7,4327],[53.7,4409],[53.7,4493],[53.7,4577],[53.7,4660],[53.7,4749],[53.7,4832],[53.7,4909],[53.7,4993],[53.7,5076],[53.7,5166],[53.7,5250],[53.7,5327],[53.7,5410],[53.7,5499],[53.7,5577],[53.7,5666],[53.7,5743],[53.7,5832],[53.7,5909],[53.7,5994],[53.7,6077],[53.7,6165],[53.7,6243],[53.7,6330],[53.7,6410],[53.7,6499],[53.7,6580],[53.7,6660],[53.7,6743],[53.7,6832],[53.7,6909],[53.7,6993],[53.7,7077],[53.7,7160],[53.7,7243],[53.7,7327],[53.7,7416],[53.7,7498],[53.7,7583],[53.7,7659],[53.7,7749],[53.7,7827],[53.7,7910],[53.7,7993],[53.7,8080],[53.7,8163],[53.7,8249],[53.7,8327],[53.7,8410],[53.7,8493],[53.7,8582],[53.7,8659],[53.7,8746],[53.7,8827],[53.7,8910],[53.7,8993],[53.7,9077],[53.7,9166],[53.7,9249],[53.7,9327],[53.9,9415],[54.4,9499],[57.4,9583],[61.4,9666],[66.6,9750],[71.4,9834],[74.9,9916],[76,10000],[76,10077],[76,10160],[76,10243],[76,10327],[76,10409],[76,10494],[76,10577],[76,10660],[76,10749],[76,10827],[76,10910],[76,10999],[76,11083],[76.5,11165],[77.5,11250],[78.7,11333],[82.2,11418],[84.9,11501],[87.1,11585],[89.7,11666],[91.1,11750],[92.1,11834],[93.2,11910],[94,12000],[94.5,12084],[94.6,12160],[94.7,12249],[94.8,12328],[94.8,12415],[94.8,12500],[95.3,12583],[95.5,12665],[95.5,12743],[95.5,12831],[95.5,12916],[95.5,12994],[95.5,13076],[95.9,13166],[96,13249],[96.3,13333],[96.4,13416],[96.6,13499],[96.6,13576],[96.6,13666],[96.6,13749],[96.6,13828],[96.6,13914],[96.6,14000],[96.6,14077],[96.6,14160],[97.1,14250],[97.3,14328],[97.8,14418],[98.1,14494],[98.1,14576],[98.1,14661],[98.1,14743],[98.1,14827],[98.1,14909],[98.1,14993],[98.1,15078],[98.1,15166],[98.1,15249],[98.1,15332],[98.1,15415],[98.1,15493],[98.1,15577],[98.1,15666],[98.1,15749],[98.1,15828],[98.1,15912],[98.1,15993],[98.1,16083],[98.1,16165],[98.1,16243],[98.1,16327],[98.1,16409],[98.1,16493],[98.1,16582],[98.1,16660],[98.1,16743],[98.1,16826],[98.1,16910],[98.1,16994],[98.1,17077],[98.1,17159],[98.1,17249],[98.1,17326],[98.1,17416],[98.1,17493],[98.1,17583],[98.1,17660],[98.1,17749],[98.1,17832],[98.1,17916],[98.1,18000],[98.1,18083],[98.1,18165],[98.1,18243],[98.1,18326],[98.1,18416],[98.1,18499],[98.1,18577],[98.1,18660],[98.1,18750],[98.1,18827],[98.1,18913],[98.1,18999],[98.1,19076],[98.1,19164],[98.1,19246],[98.1,19327],[98.1,19410],[98.1,19493],[98.1,19577],[98.1,19665],[98.1,19743],[98.1,19826],[98.1,19909],[98.1,19999],[98.1,20082],[98.1,20159],[98.1,20249],[98.1,20327],[98.1,20416],[98.1,20493],[98.1,20577],[98.1,20659],[98.1,20743],[98.1,20831],[98.1,20915],[98.1,20993],[98.1,21076],[98.1,21160],[98.1,21249],[98.1,21326],[98.1,21416],[98.1,21493],[98.1,21582],[98.1,21665],[98.1,21743],[98.1,21831],[98.1,21910],[98.1,21999],[98.1,22077],[98.1,22166],[98.1,22250],[98.1,22327],[98.1,22409],[98.1,22493],[98.1,22576],[98.1,22665],[98.1,22743],[98.1,22832],[98.1,22910],[98.1,23000],[98.1,23077],[98.1,23166],[98.1,23249],[98.1,23333],[98.1,23416],[98.1,23493],[98.1,23578],[98.1,23660],[98.1,23749],[98.1,23827],[98.1,23910],[98.1,23996],[98.1,24077],[98.1,24166],[98.1,24246],[98.1,24332],[98.1,24409],[98.1,24500],[98.1,24577],[98.1,24659],[98.1,24742],[98.1,24826],[98.1,24909],[98.1,24993],[98.1,25077],[98.1,25165],[98.1,25243],[98.1,25327],[98.1,25415],[98.1,25494],[98.1,25581],[98.1,25666],[98.1,25743],[98.1,25827],[98.1,25909],[98.1,25992],[98.1,26082],[98.1,26159],[98.1,26243],[98.1,26326],[98.1,26415],[98.1,26493],[98.1,26583],[98.1,26659],[98.1,26743],[98.1,26828],[98.1,26909],[98.1,26999],[98.1,27077],[98.1,27165],[98.1,27249],[98.1,27331],[98.1,27410],[98.1,27493],[98.1,27582],[98.1,27666],[98.1,27743],[98.1,27831],[98.1,27909],[98.1,27992],[98.1,28082],[98.1,28165],[98.1,28249],[98.1,28326],[98.1,28409],[98.1,28498],[98.1,28576],[98.1,28660],[98.1,28743],[98.1,28826],[98.1,28909],[98.1,28997],[98.1,29076],[98.1,29164],[98.1,29248],[98.1,29331],[98.1,29409]]",909.4314,910.6968,98.12499682,0.7881,"[{""rating"":98.12499682108562,""responseTime"":0.7880999999046026}]",space,0.7282,,910.6969,Not at all,0,910.7008,,,[],,0,11,11,11,1,audio/Narrative8Situation2.wav,audio/Narrative7Situation2.wav,audio/Narrative6Situation2.wav,audio/Narrative5Situation2.wav,3,3,3,3,,,,,,,,,,,,,,,,,,,,,,,,,,,,,,,,,,,,,,,
,,,,,66b91ee649636fce844ef133,2025-07-07_21h59.38.812,group3.4_multiperson,2023.2.2,Win32,64.1025641,686c2ebf0248f13bef9af11f,686c7b749df6419ce4e747e5,,,,,,,,,,,,,,,,,,,,,,,,,,,,,910.7013,2,audio/Narrative5Situation3.wav,913.7175,,913.7176,927.6301,"[[92.2,3169],[88.1,3251],[84.7,3336],[83.6,3418],[83.4,3494],[83.4,3583],[83.4,3667],[83.4,3751],[83.4,3829],[83.4,3918],[83.4,3995],[83.4,4085],[83.4,4168],[83.4,4245],[83.4,4335],[87.3,4412],[93,4501],[93.3,4578],[93.5,4668],[95,4752],[96.1,4829],[96.3,4918],[96.6,5001],[96.7,5079],[96.8,5167],[96.8,5245],[96.8,5328],[96.8,5417],[96.8,5500],[96.8,5583],[96.8,5667],[96.8,5745],[96.8,5834],[96.8,5912],[96.8,5995],[96.8,6078],[96.8,6161],[96.8,6245],[96.8,6333],[96.8,6416],[96.8,6495],[96.8,6583],[96.8,6668],[96.8,6749],[96.8,6833],[96.8,6911],[96.8,7000],[96.8,7084],[96.8,7162],[96.8,7249],[96.8,7328],[96.8,7411],[96.8,7495],[96.8,7578],[96.8,7661],[96.8,7745],[96.8,7833],[96.8,7912],[96.8,7999],[96.8,8083],[96.8,8162],[96.8,8245],[96.8,8328],[96.8,8412],[96.8,8495],[96.8,8578],[96.8,8662],[96.8,8748],[96.8,8829],[96.8,8912],[96.8,8999],[96.8,9084],[96.8,9167],[96.8,9245],[96.8,9333],[96.8,9411],[96.8,9500],[96.8,9578],[96.8,9667],[96.8,9749],[96.8,9834],[96.8,9917],[96.8,10000],[96.8,10084],[96.8,10162],[96.8,10245],[96.8,10328],[96.8,10417],[96.8,10495],[96.8,10578],[96.8,10661],[96.8,10745],[96.8,10829],[96.8,10912],[96.8,10995],[96.8,11078],[96.8,11168],[96.8,11250],[96.8,11335],[96.8,11417],[96.8,11494],[96.8,11585],[96.9,11666],[97.2,11750],[97.4,11830],[97.4,11911],[97.7,11995],[97.8,12078],[97.9,12161],[98.2,12250],[98.2,12335],[98.2,12418],[98.3,12500],[98.3,12578],[98.3,12661],[98.3,12751],[98.3,12828],[98.3,12912],[98.3,12995],[98.3,13084],[98.3,13167],[98.3,13245],[98.3,13328],[98.3,13412],[98.3,13495],[98.3,13578],[98.3,13668],[98.3,13750],[98.3,13834],[98.3,13912]]",927.631,928.9699,98.33334287,0.6088,"[{""rating"":98.33334287007649,""responseTime"":0.6087999997139377}]",space,0.7752,,928.97,Not at all,0,934.3695,0.416668256,4.5916,"[{""rating"":0.4166682561238588,""responseTime"":4.591599999904588}]",space,0,12,12,12,1,audio/Narrative8Situation3.wav,audio/Narrative7Situation3.wav,audio/Narrative6Situation3.wav,audio/Narrative5Situation3.wav,4,8,5,3,,,4.8421,,,,,,,,,,,,,,,,,,,,,,,,,,,,,,,,,,,,
,,,,,66b91ee649636fce844ef133,2025-07-07_21h59.38.812,group3.4_multiperson,2023.2.2,Win32,64.1025641,686c2ebf0248f13bef9af11f,686c7b749df6419ce4e747e5,,,,,,,,,,,,,,,,,,,,,,,,,,,,,934.3709,2,audio/Narrative5Situation4.wav,935.3795,,935.3796,955.7794,"[[39.8,2839],[45.1,2923],[46.1,3005],[47,3089],[47.9,3174],[49.7,3255],[52.5,3339],[55.4,3423],[57.9,3505],[57.9,3588],[57.9,3666],[57.9,3755],[57.9,3833],[57.9,3922],[62.8,4006],[73.6,4091],[78.6,4167],[78.6,4249],[78.6,4333],[78.6,4422],[78.6,4502],[82.6,4590],[89.5,4672],[92.3,4756],[94.3,4838],[94.8,4921],[96.4,5007],[97.6,5089],[97.8,5172],[97.9,5255],[98.1,5339],[98.2,5415],[98.2,5499],[98.2,5582],[98.2,5673],[98.2,5750],[98.2,5839],[98.2,5916],[98.2,6004],[98.2,6083],[98.2,6166],[98.2,6249],[98.2,6338],[98.2,6422],[98.2,6505],[98.2,6588],[98.2,6672],[98.2,6756],[98.2,6833],[98.2,6922],[98.2,6999],[98.2,7087],[98.2,7174],[98.2,7256],[98.2,7333],[98.2,7422],[98.2,7505],[98.2,7582],[98.2,7671],[98.2,7750],[98.2,7838],[98.2,7916],[98.2,7999],[98.2,8083],[98.2,8166],[98.2,8254],[98.2,8332],[98.2,8416],[98.2,8504],[98.2,8589],[98.2,8666],[98.2,8753],[98.2,8833],[98.2,8916],[98,9005],[97.5,9083],[97.5,9169],[97.5,9254],[97.5,9338],[97.5,9416],[97.5,9505],[97.5,9586],[97.5,9666],[97.5,9749],[97.5,9833],[97.5,9918],[97.5,9999],[97.5,10082],[97.5,10171],[97.5,10249],[97.5,10337],[97.5,10416],[97.5,10505],[97.5,10589],[97.5,10666],[97.5,10756],[97.5,10838],[97.5,10922],[97.5,11000],[97.5,11089],[97.5,11172],[97.5,11256],[97.5,11337],[97.5,11422],[97.5,11499],[97.5,11582],[97.5,11666],[97.5,11756],[97.5,11833],[97.5,11916],[97.5,12000],[97.5,12088],[97.5,12171],[97.5,12250],[97.5,12339],[97.5,12416],[97.5,12499],[97.5,12583],[97.5,12672],[97.5,12754],[97.5,12839],[97.5,12916],[97.5,13000],[97.5,13089],[97.5,13166],[97.5,13249],[97.5,13332],[97.5,13421],[97.5,13503],[97.6,13583],[98.3,13667],[98.9,13749],[99,13838],[99.2,13922],[99.3,14000],[99.3,14086],[99.3,14166],[99.3,14256],[99.3,14339],[99.3,14416],[99.3,14505],[99.3,14588],[99.3,14665],[99.3,14755],[99.3,14832],[99.3,14921],[99.3,14999],[99.3,15082],[99.3,15166],[99.3,15249],[99.3,15332],[99.3,15423],[99.3,15499],[99.3,15582],[99.3,15672],[99.3,15749],[99.3,15833],[99.3,15915],[99.3,15999],[99.3,16082],[99.3,16172],[99.3,16255],[99.3,16333],[99.3,16416],[99.3,16505],[99.3,16587],[99.3,16671],[99.3,16755],[99.3,16833],[99.3,16920],[99.3,16999],[99.3,17082],[99.3,17166],[99.3,17249],[99.3,17331],[99.3,17415],[99.3,17505],[99.3,17589],[99.3,17672],[99.3,17749],[99.3,17838],[99.3,17916],[99.3,18005],[99.3,18082],[99.3,18172],[99.3,18254],[99.3,18333],[99.3,18422],[99.3,18500],[99.3,18586],[99.3,18672],[99.3,18749],[99.3,18832],[99.3,18923],[99.3,18999],[99.3,19088],[99.3,19166],[99.3,19255],[99.3,19338],[99.3,19422],[99.3,19506],[99.3,19588],[99.3,19671],[99.3,19751],[99.3,19832],[99.3,19920],[99.3,20003],[99.3,20082],[99.3,20171],[99.3,20249],[99.3,20333]]",955.7798,956.8201,98.64583015,0.723,"[{""rating"":98.64583015441895,""responseTime"":0.7229999999999563}]",space,0.4866,,956.8201,Definitely yes,100,956.8234,,,[],,0,13,13,13,1,audio/Narrative8Situation4.wav,audio/Narrative7Situation4.wav,audio/Narrative6Situation4.wav,audio/Narrative5Situation4.wav,3,3,2,1,,,,,,,,,,,,,,,,,,,,,,,,,,,,,,,,,,,,,,,
,,,,,66b91ee649636fce844ef133,2025-07-07_21h59.38.812,group3.4_multiperson,2023.2.2,Win32,64.1025641,686c2ebf0248f13bef9af11f,686c7b749df6419ce4e747e5,,,,,,,,,,,,,,,,,,,,,,,,,,,,,956.8238,2,audio/Narrative5Situation5.wav,961.8295,,961.8298,977.2669,"[[56.5,2840],[50.2,2922],[50.1,2998],[50,3087],[50,3166],[52.1,3255],[53.6,3338],[53.9,3422],[54.1,3504],[54.2,3582],[54.2,3672],[54.2,3749],[54.2,3832],[54.2,3915],[54.2,4005],[54.2,4082],[54.2,4170],[54.2,4249],[54.2,4332],[54.2,4422],[54.2,4499],[54.2,4582],[54.2,4666],[54.2,4748],[54.2,4832],[54.2,4921],[54.2,4999],[54.2,5082],[54.2,5165],[54.2,5249],[54.2,5332],[54.2,5421],[54.2,5505],[54.2,5582],[54.2,5672],[54.2,5755],[54.2,5833],[54.2,5922],[54.2,5999],[54.2,6085],[54.2,6166],[54.2,6255],[54.2,6332],[54.2,6415],[54.2,6504],[54.2,6582],[54.2,6665],[54.2,6749],[54.2,6837],[54.2,6915],[54.2,7004],[54.2,7088],[54.2,7171],[54.2,7255],[54.2,7332],[54.2,7415],[51.8,7506],[47.7,7588],[43.4,7672],[40.9,7748],[38.3,7838],[37.4,7915],[37.4,7998],[37.4,8087],[37.4,8165],[37.4,8255],[37.4,8332],[37.4,8415],[37.4,8498],[37.4,8587],[37.4,8670],[37.4,8749],[37.4,8838],[37.4,8916],[37.4,9005],[37.4,9084],[37.4,9165],[37.4,9248],[37.4,9338],[37.4,9421],[37.4,9499],[37.4,9588],[37.4,9665],[37.4,9748],[37.4,9838],[37.4,9915],[37.4,10005],[37.4,10082],[37.4,10172],[37.4,10249],[37.4,10332],[37.4,10421],[37.4,10499],[37.4,10588],[37.4,10665],[37.4,10749],[37.4,10838],[37.4,10921],[37.4,11005],[37.4,11082],[37.4,11165],[37.4,11248],[37.4,11337],[37.4,11414],[37.4,11498],[37.4,11581],[37.4,11668],[37.4,11753],[37.4,11832],[37.4,11920],[37.4,11999],[37.4,12081],[37.4,12172],[37.4,12249],[37.4,12337],[37.4,12416],[37.4,12504],[37.4,12582],[37.4,12671],[37.4,12754],[37.4,12836],[37.4,12915],[37.4,12998],[37.1,13089],[35.7,13173],[31.8,13256],[22.4,13338],[16.1,13422],[15.2,13498],[15.2,13582],[15.2,13665],[15.2,13749],[15.2,13832],[15.2,13922],[14,14004],[9.5,14090],[6.6,14172],[5.8,14248],[5.7,14332],[4.5,14422],[4,14498],[3.9,14582],[2.5,14672],[2.3,14753],[2.3,14832],[2.3,14916],[2.3,14999],[2.3,15089],[2.3,15165],[2.3,15255],[2.3,15336],[2.3,15415]]",977.2671,978.7131,2.604166667,1.1848,"[{""rating"":2.6041666666666687,""responseTime"":1.1847999997139596}]",space,0.8919,,978.7133,Not at all,0,978.7181,,,[],,0,14,14,14,1,audio/Narrative8Situation5.wav,audio/Narrative7Situation5.wav,audio/Narrative6Situation5.wav,audio/Narrative5Situation5.wav,2,5,2,5,,,,,,,,,,,,,,,,,,,,,,,,,,,,,,,,,,,,,,,
,,,,,66b91ee649636fce844ef133,2025-07-07_21h59.38.812,group3.4_multiperson,2023.2.2,Win32,64.1025641,686c2ebf0248f13bef9af11f,686c7b749df6419ce4e747e5,,,,,,,,,,,,,,,,,,,,,,,,,,,,,978.7187,2,audio/Narrative5Situation6.wav,981.7345,,981.7346,987.4187,"[[9.3,2584],[23.8,2668],[27.2,2751],[27.2,2826],[27.2,2910],[27.2,2993],[27.2,3082],[27.2,3160],[27.2,3250],[32.3,3333],[43,3417],[44.3,3493],[44.3,3583],[44.3,3660],[44.3,3744],[44.3,3832],[45.2,3911],[47.7,3999],[49.5,4076],[50,4167],[50.4,4250],[50.7,4332],[50.8,4410],[50.8,4494],[50.8,4577],[50.8,4663],[50.8,4749],[50.8,4833],[50.8,4910],[50.8,4994],[50.8,5076],[50.8,5159],[50.8,5244],[50.8,5327],[50.8,5410],[50.8,5500],[52.9,5584],[61.5,5660]]",987.4189,991.4522,65.10416667,2.3138,"[{""rating"":65.10416666666666,""responseTime"":2.3138000001907812}]",space,3.4722,,991.4523,Definitely yes,100,991.4557,,,[],,0,15,15,15,1,audio/Narrative8Situation6.wav,audio/Narrative7Situation6.wav,audio/Narrative6Situation6.wav,audio/Narrative5Situation6.wav,2,3,2,3,,,,,,,,,,,,,,,,,,,,,,,,,,,,,,,,,,,,,,,
,,,,,66b91ee649636fce844ef133,2025-07-07_21h59.38.812,group3.4_multiperson,2023.2.2,Win32,64.1025641,686c2ebf0248f13bef9af11f,686c7b749df6419ce4e747e5,,,,,,,,,,,,,,,,,,,,,,,,,,,,,991.456,2,audio/Narrative5Situation7.wav,995.4668,,995.4669,1016.5175,"[[59.2,1501],[53.6,1585],[52.9,1661],[52.8,1750],[52.8,1833],[52.8,1911],[52.8,1994],[52.8,2084],[52,2167],[50.6,2248],[50.4,2330],[50.4,2411],[50.3,2494],[50.3,2583],[50.3,2660],[50.3,2750],[50.3,2828],[50.3,2917],[50.3,2999],[50.3,3081],[50.3,3167],[50.3,3250],[50.3,3333],[50.3,3417],[50.3,3495],[50.3,3578],[50.3,3661],[50.3,3745],[50.3,3827],[50.3,3915],[50.3,4000],[50.3,4077],[50.3,4161],[50.3,4251],[50.3,4334],[50.3,4411],[50.3,4500],[50.3,4582],[50.3,4661],[50.3,4744],[50.3,4828],[50.3,4917],[50.3,4995],[50.3,5083],[50.3,5161],[50.3,5244],[50.3,5333],[50.3,5418],[50.3,5500],[50.3,5578],[50.3,5667],[50.3,5745],[50.3,5833],[50.3,5916],[50.3,5997],[50.3,6084],[50.3,6161],[50.3,6250],[50.3,6328],[50.3,6411],[50.3,6501],[50.3,6577],[50.3,6661],[50.3,6751],[50.3,6828],[50.3,6911],[50.3,6999],[50.3,7083],[50.3,7161],[50.3,7249],[50.3,7332],[51.5,7419],[52.3,7501],[53.1,7585],[55.1,7668],[56.5,7751],[56.8,7828],[57,7911],[57,7995],[57,8082],[57,8161],[57,8245],[57,8328],[57,8417],[57,8494],[57,8584],[57,8666],[57,8745],[57.2,8827],[57.3,8917],[57.3,8995],[57.6,9084],[57.6,9161],[57.6,9250],[57.6,9334],[57.6,9411],[57.6,9495],[57.6,9584],[57.6,9661],[57.6,9749],[57.6,9833],[57.6,9917],[57.6,10000],[57.6,10077],[57.6,10161],[57.6,10244],[57.6,10327],[57.6,10411],[57.6,10494],[57.6,10582],[57.6,10661],[57.6,10744],[57.6,10833],[57.6,10911],[57.6,11000],[57.6,11077],[57.6,11161],[57.6,11250],[57.6,11334],[57.6,11411],[57.7,11500],[58.2,11585],[58.9,11660],[59.7,11751],[61.7,11834],[63.5,11917],[66.2,12002],[68.5,12084],[70,12166],[71.3,12251],[71.8,12327],[71.8,12410],[71.8,12500],[71.8,12577],[71.8,12668],[71.8,12745],[71.8,12832],[71.8,12910],[71.8,12995],[71.8,13082],[71.8,13160],[71.8,13244],[71.8,13333],[71.9,13416],[72.4,13501],[73.6,13584],[75.5,13669],[76.8,13745],[77.9,13834],[79.4,13917],[79.9,14000],[79.9,14083],[79.9,14161],[79.9,14250],[79.9,14334],[79.9,14411],[79.9,14499],[79.9,14577],[79.9,14667],[79.9,14744],[79.9,14832],[79.9,14917],[79.9,14994],[79.9,15083],[79.9,15160],[79.9,15244],[79.9,15333],[79.9,15411],[79.9,15494],[79.9,15578],[79.9,15661],[79.9,15744],[79.9,15827],[79.9,15917],[79.9,15994],[79.9,16077],[79.9,16161],[79.9,16245],[79.9,16328],[79.9,16416],[79.9,16494],[79.9,16577],[79.9,16667],[79.9,16750],[79.9,16827],[79.9,16916],[79.9,16999],[79.9,17078],[79.9,17166],[79.9,17245],[79.9,17327],[79.9,17410],[79.9,17501],[79.9,17583],[79.9,17661],[79.9,17745],[79.9,17833],[79.9,17917],[79.9,18000],[79.9,18077],[79.9,18161],[79.9,18251],[79.9,18327],[79.9,18411],[79,18500],[70.9,18585],[64.3,18668],[62.1,18751],[62.1,18828],[62.1,18916],[62.1,18994],[62.1,19083],[62.1,19161],[62.1,19249],[62.1,19327],[62.1,19411],[62.1,19500],[62.1,19583],[62.1,19661],[62.1,19745],[62.1,19834],[62.1,19911],[62.1,19999],[62.1,20077],[62.1,20165],[62.1,20244],[62.1,20327],[62.1,20412],[62.1,20500],[62.1,20581],[62.1,20662],[62.1,20750],[60.5,20834],[59.3,20910],[58.4,21000]]",1016.5177,1019.184,48.12500477,1.9985,"[{""rating"":48.12500476837158,""responseTime"":1.9984999999999218}]",space,2.1245,,1019.1841,Definitely yes,100,1019.1869,,,[],,0,16,16,16,1,audio/Narrative8Situation7.wav,audio/Narrative7Situation7.wav,audio/Narrative6Situation7.wav,audio/Narrative5Situation7.wav,3,5,5,4,,,,,,,,,,,,,,,,,,,,,,,,,,,,,,,,,,,,,,,
,,,,,66b91ee649636fce844ef133,2025-07-07_21h59.38.812,group3.4_multiperson,2023.2.2,Win32,64.1025641,686c2ebf0248f13bef9af11f,686c7b749df6419ce4e747e5,,,,,,,,,,,,,,,,,,,,,,,,,,,,,1019.1873,2,audio/Narrative5Situation8.wav,1022.195,,1022.1952,1031.0107,"[[43,4255],[37.9,4339],[29.8,4415],[20.2,4498],[17.8,4582],[17.5,4672],[17.4,4749],[17.4,4832],[17.4,4915],[17.4,4999],[17.4,5082],[17.4,5166],[17.4,5249],[17.4,5337],[17.4,5416],[17.4,5499],[17.4,5587],[17.4,5665],[17.4,5749],[17.4,5839],[17.4,5921],[17.4,5999],[17.4,6082],[17.4,6172],[17.4,6254],[17.4,6339],[17.4,6421],[17.4,6499],[17.4,6582],[17.4,6672],[17.4,6749],[17.4,6832],[17.4,6916],[17.4,6999],[17.4,7082],[17.4,7165],[17.4,7249],[17.4,7336],[17.4,7415],[17.4,7498],[17.4,7581],[17.4,7665],[17.4,7748],[17.4,7833],[17.4,7920],[17.4,7998],[17.4,8082],[17.4,8164],[17.4,8248],[17.4,8332],[17.4,8420],[17.4,8498],[17.4,8585],[17.4,8665],[17.4,8748]]",1031.0111,1033.6618,4.479165872,2.0718,"[{""rating"":4.479165871938068,""responseTime"":2.0718000001907058}]",space,2.1173,,1033.662,Partially,50,1033.6663,,,[],,0,17,17,17,1,audio/Narrative8Situation8.wav,audio/Narrative7Situation8.wav,audio/Narrative6Situation8.wav,audio/Narrative5Situation8.wav,3,2,5,3,,,,,,,,,,,,,,,,,,,,,,,,,,,,,,,,,,,,,,,
,,,,,66b91ee649636fce844ef133,2025-07-07_21h59.38.812,group3.4_multiperson,2023.2.2,Win32,64.1025641,686c2ebf0248f13bef9af11f,686c7b749df6419ce4e747e5,,,,,,,,,,,,,,,,,,,,,,,,,,,,,1033.6666,2,audio/Narrative5Situation9.wav,1036.6781,,1036.6783,1076.2331,"[[5.7,3257],[7,3339],[8.9,3423],[9.8,3499],[10.2,3583],[10.4,3672],[10.4,3749],[10.4,3838],[10.4,3916],[10.4,3999],[10.4,4082],[10.4,4170],[10.4,4255],[10.4,4333],[10.4,4420],[10.4,4503],[10.4,4582],[10.4,4671],[10.4,4749],[10.4,4838],[10.4,4922],[10.4,5004],[10.4,5088],[10.4,5166],[10.4,5249],[10.4,5332],[10.4,5415],[10.4,5505],[10.4,5582],[10.4,5672],[10.4,5749],[10.4,5833],[10.4,5921],[10.4,5999],[10.4,6083],[10.4,6169],[10.4,6255],[10.4,6333],[15.2,6423],[41.4,6506],[58.4,6589],[61.3,6670],[61.3,6748],[61.3,6833],[61.3,6915],[61.3,6999],[75.9,7089],[88.9,7173],[88.9,7253],[88.9,7336],[88.9,7421],[88.9,7499],[91.7,7589],[94.8,7673],[95.7,7748],[96.1,7832],[96.7,7923],[96.9,7999],[97.4,8082],[97.4,8166],[97.4,8249],[97.7,8337],[97.7,8422],[97.7,8505],[97.7,8589],[97.7,8665],[97.7,8755],[97.7,8837],[97.7,8915],[97.7,9005],[97.7,9082],[97.7,9165],[97.7,9249],[97.7,9332],[97.7,9415],[97.7,9504],[97.7,9582],[97.7,9665],[97.7,9749],[97.7,9833],[97.7,9921],[97.7,9998],[97.7,10088],[97.7,10165],[97.7,10248],[97.7,10338],[97.7,10421],[97.7,10505],[97.7,10582],[97.7,10665],[97.7,10749],[97.7,10835],[97.7,10922],[97.7,11005],[97.7,11082],[97.7,11165],[97.7,11249],[97.7,11333],[97.7,11416],[97.7,11499],[97.7,11583],[97.7,11671],[97.7,11755],[97.7,11833],[97.7,11920],[97.7,11999],[97.7,12088],[97.7,12165],[97.7,12255],[97.7,12336],[97.7,12422],[97.7,12498],[97.7,12589],[97.7,12671],[97.7,12749],[97.7,12832],[97.7,12915],[97.7,13005],[97.7,13083],[97.7,13165],[97.7,13249],[97.7,13338],[97.7,13415],[97.7,13505],[97.7,13583],[97.7,13671],[97.7,13755],[97.7,13832],[97.7,13915],[97.7,14005],[97.7,14082],[97.7,14166],[97.7,14255],[97.7,14338],[97.7,14420],[97.7,14499],[97.7,14588],[97.7,14665],[97.7,14749],[97.7,14838],[97.7,14922],[97.7,15005],[97.7,15083],[97.7,15171],[97.7,15254],[97.7,15338],[97.7,15415],[97.7,15499],[97.7,15587],[97.7,15665],[97.7,15755],[97.7,15832],[97.7,15916],[97.7,15999],[97.7,16088],[97.7,16169],[97.7,16255],[97.7,16332],[97.7,16415],[97.7,16505],[97.7,16582],[97.7,16665],[97.7,16749],[97.7,16838],[97.7,16922],[97.7,16999],[97.7,17088],[97.7,17171],[97.7,17248],[97.7,17339],[97.7,17421],[97.7,17505],[97.7,17583],[97.7,17673],[97.7,17753],[97.7,17837],[97.7,17915],[97.7,17998],[97.7,18082],[97.7,18165],[97.7,18249],[97.7,18332],[97.7,18422],[97.7,18505],[97.7,18582],[97.7,18671],[97.7,18749],[97.7,18838],[97.7,18921],[97.7,19005],[97.7,19082],[97.7,19165],[97.7,19249],[97.7,19339],[97.7,19415],[97.7,19498],[97.7,19588],[97.7,19665],[97.7,19748],[97.7,19837],[97.7,19921],[97.7,19998],[97.7,20089],[97.7,20165],[97.7,20248],[97.7,20331],[97.7,20421],[97.7,20503],[97.7,20582],[97.7,20671],[97.7,20755],[97.7,20837],[97.7,20921],[97.7,21005],[97.7,21082],[97.7,21171],[97.7,21249],[97.7,21332],[97.7,21420],[97.7,21506],[97.7,21582],[97.7,21665],[97.7,21748],[97.7,21832],[97.7,21915],[97.8,22004],[97.8,22087],[97.8,22165],[97.8,22249],[97.8,22332],[97.8,22415],[97.8,22503],[97.8,22588],[97.8,22665],[97.8,22749],[97.8,22832],[97.8,22915],[97.8,22999],[97.8,23082],[97.8,23165],[97.8,23249],[97.8,23337],[97.8,23421],[97.8,23504],[97.8,23582],[97.8,23670],[97.8,23749],[97.8,23837],[97.8,23916],[97.8,24005],[97.8,24083],[97.8,24171],[97.8,24254],[97.8,24337],[97.8,24415],[97.8,24498],[97.8,24582],[97.8,24665],[97.8,24748],[97.8,24832],[97.8,24921],[97.8,24998],[97.8,25088],[97.8,25165],[97.8,25248],[97.8,25336],[97.8,25421],[97.8,25499],[97.8,25587],[97.8,25671],[97.8,25755],[97.8,25837],[97.8,25915],[97.8,26004],[97.8,26082],[97.8,26165],[97.8,26249],[97.8,26332],[97.8,26415],[97.8,26504],[97.8,26582],[97.8,26671],[97.8,26752],[97.8,26839],[97.8,26922],[97.8,26999],[97.8,27088],[97.8,27172],[97.8,27249],[97.8,27332],[97.8,27416],[97.8,27499],[97.8,27588],[97.8,27665],[97.8,27749],[97.8,27832],[97.8,27920],[97.8,27998],[97.8,28085],[97.8,28170],[97.8,28249],[97.8,28332],[97.8,28415],[97.8,28498],[97.8,28582],[97.8,28670],[97.8,28749],[97.8,28838],[97.8,28915],[97.8,28999],[97.8,29088],[97.8,29171],[97.8,29248],[97.8,29332],[97.8,29415],[97.8,29504],[97.8,29582],[97.8,29671],[97.8,29754],[97.8,29832],[97.8,29915],[97.8,30003],[97.8,30082],[97.8,30170],[97.8,30254],[97.8,30337],[97.8,30415],[97.8,30504],[97.8,30583],[97.8,30665],[97.8,30749],[97.8,30837],[97.8,30914],[97.8,31005],[97.8,31082],[97.8,31165],[97.8,31255],[97.8,31332],[97.8,31420],[97.8,31498],[97.8,31588],[97.8,31665],[97.8,31752],[97.8,31838],[97.8,31915],[97.8,31998],[97.8,32082],[97.8,32171],[97.8,32248],[97.8,32337],[97.8,32414],[97.8,32499],[97.8,32582],[97.8,32671],[97.8,32751],[97.8,32832],[97.8,32920],[97.8,33004],[97.8,33082],[97.8,33164],[97.8,33256],[97.8,33332],[97.8,33422],[97.8,33499],[97.8,33582],[97.8,33671],[97.8,33749],[97.8,33838],[97.8,33920],[97.8,34004],[97.8,34088],[97.8,34165],[97.8,34248],[97.8,34331],[97.8,34414],[97.8,34499],[97.8,34582],[97.8,34665],[97.8,34748],[97.8,34838],[97.8,34915],[97.8,34999],[97.8,35082],[97.8,35170],[97.8,35254],[97.8,35332],[97.8,35421],[97.8,35504],[97.8,35587],[97.8,35665],[97.8,35748],[97.8,35831],[97.8,35921],[97.8,36004],[97.8,36082],[97.8,36170],[97.8,36248],[97.8,36331],[97.8,36417],[97.8,36498],[97.8,36582],[97.8,36670],[97.8,36748],[97.8,36838],[97.8,36918],[97.8,37004],[97.8,37088],[97.8,37165],[97.8,37248],[97.8,37339],[97.8,37415],[97.8,37498],[97.8,37588],[97.8,37670],[97.8,37748],[97.8,37832],[97.8,37915],[97.8,37999],[97.8,38082],[97.8,38171],[97.8,38249],[97.8,38338],[97.8,38420],[97.8,38498],[97.8,38582],[97.8,38664],[97.8,38754],[97.8,38838],[97.8,38914],[97.8,38999],[97.8,39081],[97.8,39165],[97.8,39254],[97.8,39337],[97.8,39415],[97.8,39499]]",1076.2334,1079.2183,98.54167302,1.7536,"[{""rating"":98.54167302449544,""responseTime"":1.7536000003815388}]",space,2.4345,,1079.2185,Definitely yes,100,1079.2221,,,[],,0,18,18,18,1,audio/Narrative8Situation9.wav,audio/Narrative7Situation9.wav,audio/Narrative6Situation9.wav,audio/Narrative5Situation9.wav,3,2,4,3,,,,,,,,,,,,,,,,,,,,,,,,,,,,,,,,,,,,,,,
,,,,,66b91ee649636fce844ef133,2025-07-07_21h59.38.812,group3.4_multiperson,2023.2.2,Win32,64.1025641,686c2ebf0248f13bef9af11f,686c7b749df6419ce4e747e5,,,,,,,,,,,,,,,,,,,,,,,,,,,,,,,,,,,,,,,,,,,,,,,,,,,,,,,,,,,,,,,,,,,,,,1079.2224,1113.1497,space,33.4152,,1113.1501,1134.7607,space,21.2842,,,,,,,,,,,,,,,,,,,,,,,,,,
