consent.started,consent.stopped,consentResponse.keys,consentResponse.rt,consentResponse.duration,participantID,date,expName,psychopyVersion,OS,frameRate,STUDY_ID,SESSION_ID,opening1.started,opening1.stopped,keyEndingOpening1.keys,keyEndingOpening1.rt,keyEndingOpening1.duration,volumeAdjust.started,volumeAdjust.stopped,endingAdjust.keys,endingAdjust.rt,endingAdjust.duration,opening2.started,opening2.stopped,keyEndingOpening.keys,keyEndingOpening.rt,keyEndingOpening.duration,mouse.x,mouse.y,mouse.leftButton,mouse.midButton,mouse.rightButton,mouse.time,instructionLoop.thisRepN,instructionLoop.thisTrialN,instructionLoop.thisN,instructionLoop.thisIndex,instructionLoop.ran,readyForAudio.started,readyForAudio.stopped,fixation.started,run,audio_played,fixation.stopped,endPractice.keys,audioPre.started,audioPre.stopped,continuousResponses_audio,intRating.started,intRating.stopped,intQuestionSlider.response,intQuestionSlider.rt,intQuestionSlider.history,confirmResponse.keys,confirmResponse.rt,confirmResponse.duration,catchQuestion.started,catch_label,catch_value,catchQuestion.stopped,catchQuestionSlider.response,catchQuestionSlider.rt,catchQuestionSlider.history,confirmResponse_2.keys,audioRunLoop.thisRepN,audioRunLoop.thisTrialN,audioRunLoop.thisN,audioRunLoop.thisIndex,audioRunLoop.ran,conditions1_1,conditions2_1,conditions1_2,conditions2_2,dur1_1,dur2_1,dur1_2,dur2_2,endPractice.rt,endPractice.duration,confirmResponse_2.rt,confirmResponse_2.duration,runIntervalBreak.started,runIntervalBreak.stopped,endingBreakKey.keys,endingBreakKey.rt,endingBreakKey.duration,connection.started,connection.stopped,connectionEnding.keys,connectionEnding.rt,connectionEnding.duration,readyForText.started,readyForText.stopped,textPre.started,run_dup,textPre.stopped,continuousResponses_text,textRunLoop.thisRepN,textRunLoop.thisTrialN,textRunLoop.thisN,textRunLoop.thisIndex,textRunLoop.ran,text1_1,text1_2,text2_1,text2_2,runBreakText.started,runBreakText.stopped,endingBreakKey_2.keys,endingBreakKey_2.rt,endingBreakKey_2.duration,ending.started,ending.stopped,endingEnding.keys,endingEnding.rt,endingEnding.duration
0.0003,7.5524,y,7.2324,,66bcffc3e6f77501141b3d0f,2025-07-07_23h04.14.235,group3.4_multiperson,2023.2.2,Win32,59.88023952,686c2ebf0248f13bef9af11f,686c8aa071dcd690be94d386,,,,,,,,,,,,,,,,,,,,,,,,,,,,,,,,,,,,,,,,,,,,,,,,,,,,,,,,,,,,,,,,,,,,,,,,,,,,,,,,,,,,,,,,,,,,,,,,,,,,,,,,
,,,,,66bcffc3e6f77501141b3d0f,2025-07-07_23h04.14.235,group3.4_multiperson,2023.2.2,Win32,59.88023952,686c2ebf0248f13bef9af11f,686c8aa071dcd690be94d386,7.5528,763.8377,space,756.2377,,,,,,,,,,,,,,,,,,,,,,,,,,,,,,,,,,,,,,,,,,,,,,,,,,,,,,,,,,,,,,,,,,,,,,,,,,,,,,,,,,,,,,,,,,,,,,,,,,,,
,,,,,66bcffc3e6f77501141b3d0f,2025-07-07_23h04.14.235,group3.4_multiperson,2023.2.2,Win32,59.88023952,686c2ebf0248f13bef9af11f,686c8aa071dcd690be94d386,,,,,,763.8382,782.9819,space,18.8089,,,,,,,,,,,,,,,,,,,,,,,,,,,,,,,,,,,,,,,,,,,,,,,,,,,,,,,,,,,,,,,,,,,,,,,,,,,,,,,,,,,,,,,,,,,,,,,
,,,,,66bcffc3e6f77501141b3d0f,2025-07-07_23h04.14.235,group3.4_multiperson,2023.2.2,Win32,59.88023952,686c2ebf0248f13bef9af11f,686c8aa071dcd690be94d386,,,,,,,,,,,782.987,794.3791,space,11.3731,,[],[],[],[],[],[],0,0,0,0,1,,,,,,,,,,,,,,,,,,,,,,,,,,,,,,,,,,,,,,,,,,,,,,,,,,,,,,,,,,,,,,,,,,,,,,,,,,,,,,
,,,,,66bcffc3e6f77501141b3d0f,2025-07-07_23h04.14.235,group3.4_multiperson,2023.2.2,Win32,59.88023952,686c2ebf0248f13bef9af11f,686c8aa071dcd690be94d386,,,,,,,,,,,794.3799,817.4728,space,22.993,,[],[],[],[],[],[],1,0,1,0,1,,,,,,,,,,,,,,,,,,,,,,,,,,,,,,,,,,,,,,,,,,,,,,,,,,,,,,,,,,,,,,,,,,,,,,,,,,,,,,
,,,,,66bcffc3e6f77501141b3d0f,2025-07-07_23h04.14.235,group3.4_multiperson,2023.2.2,Win32,59.88023952,686c2ebf0248f13bef9af11f,686c8aa071dcd690be94d386,,,,,,,,,,,817.4735,841.5317,space,23.9988,,"[-0.23541666666666666,-0.27708333333333335,0.42916666666666664]","[-0.7685185185185185,-0.7685185185185185,-0.774074074074074]","[1,1,1]","[0,0,0]","[0,0,0]","[17.53390000003583,18.416200000047752,20.182600000023854]",2,0,2,0,1,,,,,,,,,,,,,,,,,,,,,,,,,,,,,,,,,,,,,,,,,,,,,,,,,,,,,,,,,,,,,,,,,,,,,,,,,,,,,,
,,,,,66bcffc3e6f77501141b3d0f,2025-07-07_23h04.14.235,group3.4_multiperson,2023.2.2,Win32,59.88023952,686c2ebf0248f13bef9af11f,686c8aa071dcd690be94d386,,,,,,,,,,,841.532,858.7434,space,17.1781,,[],[],[],[],[],[],3,0,3,0,1,,,,,,,,,,,,,,,,,,,,,,,,,,,,,,,,,,,,,,,,,,,,,,,,,,,,,,,,,,,,,,,,,,,,,,,,,,,,,,
,,,,,66bcffc3e6f77501141b3d0f,2025-07-07_23h04.14.235,group3.4_multiperson,2023.2.2,Win32,59.88023952,686c2ebf0248f13bef9af11f,686c8aa071dcd690be94d386,,,,,,,,,,,858.7438,873.8733,space,15.0962,,[],[],[],[],[],[],4,0,4,0,1,,,,,,,,,,,,,,,,,,,,,,,,,,,,,,,,,,,,,,,,,,,,,,,,,,,,,,,,,,,,,,,,,,,,,,,,,,,,,,
,,,,,66bcffc3e6f77501141b3d0f,2025-07-07_23h04.14.235,group3.4_multiperson,2023.2.2,Win32,59.88023952,686c2ebf0248f13bef9af11f,686c8aa071dcd690be94d386,,,,,,,,,,,873.8742,887.8518,space,13.9457,,[],[],[],[],[],[],5,0,5,0,1,,,,,,,,,,,,,,,,,,,,,,,,,,,,,,,,,,,,,,,,,,,,,,,,,,,,,,,,,,,,,,,,,,,,,,,,,,,,,,
,,,,,66bcffc3e6f77501141b3d0f,2025-07-07_23h04.14.235,group3.4_multiperson,2023.2.2,Win32,59.88023952,686c2ebf0248f13bef9af11f,686c8aa071dcd690be94d386,,,,,,,,,,,,,,,,,,,,,,,,,,,887.8542,890.4347,890.4758,1,audio/Narrative13Situation2.wav,892.4841,,892.4844,922.2421,"[[999,1],[999,125],[999,239],[999,315],[999,398],[999,482],[999,565],[999,648],[999,732],[999,815],[999,898],[999,982],[999,1065],[999,1148],[999,1234],[999,1315],[999,1398],[999,1481],[999,1565],[999,1648],[999,1731],[999,1815],[999,1898],[999,1981],[999,2065],[999,2151],[999,2231],[999,2315],[999,2398],[999,2481],[999,2565],[999,2648],[999,2731],[999,2814],[999,2898],[999,2981],[999,3064],[999,3151],[999,3231],[999,3314],[999,3398],[999,3481],[999,3564],[999,3647],[999,3731],[999,3814],[999,3897],[999,3981],[999,4064],[999,4147],[999,4231],[999,4314],[999,4397],[999,4481],[999,4564],[999,4647],[999,4730],[999,4814],[999,4897],[999,4980],[999,5064],[999,5154],[999,5230],[999,5314],[999,5397],[999,5480],[999,5564],[999,5647],[999,5730],[999,5814],[999,5897],[999,5980],[999,6064],[999,6147],[999,6230],[999,6314],[999,6397],[999,6480],[999,6564],[999,6647],[999,6739],[999,6814],[999,6897],[999,6989],[999,7063],[999,7147],[999,7230],[999,7313],[999,7406],[999,7481],[999,7563],[999,7647],[999,7730],[999,7813],[999,7897],[999,7980],[999,8063],[999,8146],[999,8238],[999,8313],[999,8396],[999,8480],[999,8563],[999,8655],[999,8739],[999,8822],[999,8905],[999,8989],[999,9063],[999,9155],[999,9229],[999,9313],[999,9396],[999,9489],[999,9572],[96,9656],[97.1,9739],[97.5,9813],[97.6,9896],[97.6,9988],[97.6,10072],[98,10155],[98,10229],[98,10317],[97.9,10396],[97.9,10479],[97.9,10572],[97.9,10646],[97.9,10738],[97.9,10812],[97.9,10896],[97.9,10979],[97.9,11062],[97.9,11155],[97.9,11229],[97.9,11312],[97.9,11396],[97.9,11479],[97.9,11571],[97.9,11645],[97.9,11729],[97.9,11821],[97.9,11895],[97.9,11979],[97.9,12062],[97.9,12145],[97.9,12228],[97.9,12317],[97.9,12395],[97.9,12478],[97.9,12562],[97.9,12645],[97.9,12729],[97.9,12812],[97.9,12895],[96.9,12988],[95.9,13062],[99.5,13654],[100,13738],[100,13811],[100,13895],[100,13978],[100,14061],[100,14154],[100,14228],[100,14322],[100,14394],[100,14478],[100,14561],[100,14644],[100,14728],[100,14818],[100,14904],[100,14987],[99.8,15071],[99.5,15153],[99.3,15237],[99,15311],[98.9,15403],[98.4,15488],[98.3,15566],[97.8,15644],[97.8,15728],[97.6,15811],[97.6,15894],[97.6,15977],[97.8,16061],[98.5,16144],[99.2,16238],[99.5,16311],[99.7,16394],[100,16487],[100,16561],[100,16653],[100,16727],[100,16820],[100,16894],[100,16977],[100,17070],[100,17144],[100,17237],[100,17310],[100,17394],[100,17477],[100,17560],[100,17644],[100,17727],[100,17810],[100,17894],[100,17977],[100,18060],[100,18143],[100,18227],[100,18320],[100,18419],[100,18493],[100,18577],[100,18660],[100,18743],[100,18827],[100,18919],[100,18993],[100,19086],[100,19160],[100,19258],[100,19343],[100,19435],[100,19510],[100,19593],[100,19676],[100,19760],[100,19843],[100,19926],[100,20010],[100,20093],[100,20176],[100,20266],[100,20343],[100,20426],[100,20509],[100,20593],[100,20676],[100,20759],[100,20843],[100,20926],[100,21009],[100,21093],[100,21176],[100,21259],[100,21343],[100,21426],[100,21509],[100,21592],[100,21676],[100,21759],[100,21843],[100,21926],[100,22009],[100,22092],[100,22185],[100,22259],[100,22342],[100,22426],[100,22509],[100,22592],[100,22676],[100,22759],[100,22842],[100,22925],[100,23009],[100,23092],[100,23175],[100,23259],[100,23342],[100,23425],[100,23509],[100,23592],[100,23675],[100,23759],[100,23842],[100,23925],[100,24008],[100,24092],[100,24175],[100,24258],[100,24342],[100,24435],[100,24518],[100,24601],[100,24684],[100,24767],[100,24851],[100,24934],[100,25018],[100,25101],[100,25184],[100,25284],[100,25368],[100,25442],[100,25535],[99.9,25608],[99.8,25702],[99.7,25776],[99.6,25869],[99.6,25941],[99.2,26035],[98.4,26108],[98.4,26191],[98.4,26286],[98.4,26367],[98.4,26446],[100,26534],[100,26608],[100,26691],[99.4,26784],[97.5,26858],[97.5,26941],[97.5,27024],[97.5,27108],[97.5,27200],[98.2,27280],[98.2,27357],[98.5,27451],[98.8,27524],[98.8,27608],[98.8,27691],[99.2,27785],[99.2,27858],[99.2,27941],[99.2,28024],[99.2,28107],[99.2,28191],[99.2,28283],[99.2,28357],[99.2,28441],[99.2,28534],[99.2,28607],[99.2,28690],[99.2,28774],[99.2,28857],[99.2,28950],[99.2,29024],[99.1,29117],[97.2,29201],[97.2,29274],[97.2,29357],[98.9,29450],[100,29533],[100,29607],[100,29690]]",922.2424,929.5499,97.08333333,4.3073,"[{""rating"":97.08333333333333,""responseTime"":4.307300000011878}]",space,6.7519,,929.5504,Not at all,0,929.5579,,,[],,0,0,0,0,1,audio/Narrative13Situation2.wav,audio/Narrative13Situation2.wav,audio/Narrative13Situation2.wav,audio/Narrative13Situation2.wav,2,2,2,2,,,,,,,,,,,,,,,,,,,,,,,,,,,,,,,,,,,,,,,
,,,,,66bcffc3e6f77501141b3d0f,2025-07-07_23h04.14.235,group3.4_multiperson,2023.2.2,Win32,59.88023952,686c2ebf0248f13bef9af11f,686c8aa071dcd690be94d386,,,,,,,,,,,,,,,,,,,,,,,,,,,,,929.5584,1,audio/Narrative7Situation1.wav,931.8226,space,931.8226,987.7164,"[[97.6,2610],[98.3,2691],[98.4,2765],[98.4,2848],[98.4,2942],[98.4,3015],[98.4,3098],[98.4,3182],[98.4,3265],[98.4,3348],[98.4,3432],[98.4,3515],[98.4,3598],[98.4,3692],[98.5,3776],[98.5,3849],[98.3,3931],[98.3,4015],[98.2,4101],[98.2,4181],[98.2,4265],[98.8,4348],[98.8,4431],[98.8,4514],[98.8,4598],[98.8,4681],[98.8,4764],[98.8,4848],[98.6,4931],[98.6,5014],[98.2,5101],[98,5181],[97.9,5264],[96.3,5348],[93.8,5431],[92,5514],[91.8,5598],[89.6,5706],[87.8,5789],[86,5872],[86,5948],[88.3,6039],[91,6114],[91.4,6206],[93,6289],[93.5,6364],[95.2,6457],[96.1,6539],[96.1,6614],[96.1,6697],[96.1,6781],[96.1,6873],[96.1,6947],[96.1,7039],[96.1,7123],[96.1,7197],[96.1,7280],[96.1,7373],[96.1,7456],[96.1,7531],[96.1,7614],[96.1,7705],[96.1,7781],[96.1,7864],[96.1,7947],[96.1,8030],[96.1,8114],[96.1,8206],[96.1,8280],[96.1,8364],[96.1,8447],[96.1,8530],[96.1,8613],[96.1,8697],[96.1,8780],[96.3,8873],[96.3,8947],[96.3,9037],[96.3,9113],[96.3,9197],[96.3,9280],[96.3,9373],[96.3,9446],[95.8,9540],[94.3,9623],[93.3,9707],[92.9,9790],[90.3,9873],[88.2,9956],[88,10039],[88,10123],[90.1,10206],[93.8,10289],[94,10374],[94.1,10447],[96.1,10540],[96.1,10617],[96.4,10696],[96.4,10779],[96.4,10863],[96.4,10955],[96.4,11029],[96.4,11113],[96.4,11196],[96.4,11279],[96.4,11363],[96.4,11446],[96.4,11529],[96.4,11613],[96.4,11696],[96.4,11779],[96.4,11863],[96.4,11946],[96.4,12029],[96.4,12113],[96.4,12196],[96.4,12279],[96.4,12362],[96.4,12446],[96.4,12538],[96.3,12622],[96,12696],[95.3,12790],[94.9,12872],[93.1,12955],[92.1,13029],[92.1,13112],[92.1,13195],[92.1,13288],[93.1,13372],[93.5,13454],[94.9,13538],[95,13622],[95.2,13696],[95.2,13779],[95.2,13862],[95.3,13946],[95.3,14029],[95.9,14121],[95.9,14195],[96,14288],[96,14362],[96,14445],[96,14528],[96,14612],[96,14695],[96.1,14779],[96.1,14862],[96.1,14945],[96.1,15037],[96.1,15112],[95.6,15205],[93.5,15288],[92.7,15362],[92.7,15445],[92.7,15528],[92.7,15611],[92.7,15695],[92.7,15778],[93.2,15871],[93.9,15955],[94.2,16037],[94.4,16120],[94.4,16195],[94.4,16278],[94.4,16361],[94.4,16445],[94.4,16528],[94.4,16611],[94.4,16695],[94.4,16778],[94.4,16861],[94.4,16944],[94.4,17028],[94.4,17111],[94.4,17194],[94.4,17278],[94.4,17370],[94.4,17444],[94.4,17528],[94.4,17611],[94.4,17699],[94.4,17778],[94.4,17861],[94.4,17944],[94.4,18027],[94.4,18116],[94.4,18194],[94.4,18277],[94.4,18361],[94.5,18444],[94.5,18527],[94.5,18615],[94.5,18703],[94.5,18777],[94.5,18861],[94.5,18944],[94.5,19027],[94.5,19110],[94.5,19194],[94.5,19277],[94.5,19360],[94.5,19444],[94.5,19527],[94.5,19610],[94.5,19694],[94.5,19777],[94.5,19860],[94.5,19944],[94.5,20036],[94.5,20112],[94.5,20193],[94.5,20277],[94.5,20360],[94.5,20443],[94.5,20527],[94.5,20610],[94.5,20693],[94.5,20777],[94.5,20860],[94.5,20943],[94.5,21026],[94.5,21110],[94.5,21193],[94.5,21277],[94.5,21360],[94.5,21443],[94.5,21527],[94.5,21610],[94.5,21693],[94.5,21777],[94.5,21860],[94.5,21943],[94.5,22026],[94.5,22110],[94.5,22193],[94.5,22276],[94.5,22360],[94.5,22443],[94.5,22526],[94.5,22610],[94.5,22693],[94.5,22776],[94.5,22859],[94.5,22943],[94.5,23026],[94.5,23109],[94.5,23193],[94.5,23276],[94.5,23369],[94.5,23442],[94.5,23526],[94.5,23609],[94.5,23692],[94.5,23776],[94.5,23859],[94.5,23942],[94.5,24026],[94.5,24113],[94.5,24192],[94.5,24276],[94.5,24359],[94.5,24442],[94.5,24526],[94.5,24609],[94.5,24692],[94.5,24776],[94.5,24859],[94.5,24942],[94.5,25035],[94.5,25109],[94.5,25192],[94.5,25275],[94.5,25359],[94.5,25442],[94.5,25535],[94.5,25609],[94.5,25692],[94.5,25776],[94.5,25859],[94.5,25942],[94.5,26025],[94.5,26117],[94.5,26192],[94.5,26275],[94.5,26358],[94.5,26451],[94.5,26525],[94.5,26609],[94.5,26692],[94.5,26775],[94.5,26858],[94.5,26942],[94.5,27025],[94.5,27108],[94.5,27191],[94.5,27292],[94.5,27385],[94.5,27458],[94.5,27542],[94.1,27625],[94.6,27718],[94.6,27791],[94.6,27875],[94.6,27958],[94.6,28041],[94.6,28125],[94.6,28217],[94.6,28300],[94.6,28375],[94.6,28458],[94.6,28541],[94.6,28634],[94.6,28708],[94.6,28791],[94.6,28874],[94.6,28958],[94.6,29042],[94.6,29124],[94.6,29212],[94.6,29291],[94.6,29374],[94.6,29467],[94.6,29541],[94.6,29634],[94.6,29707],[94.6,29791],[94.6,29883],[94.6,29957],[94.6,30041],[94.6,30124],[94.6,30207],[94.6,30302],[94.6,30378],[94.6,30457],[94.6,30541],[94.6,30624],[94.6,30707],[94.6,30790],[94.6,30874],[94.6,30966],[94.6,31040],[94.6,31124],[94.6,31218],[94.6,31290],[94.6,31374],[94.6,31457],[94.6,31550],[94.6,31624],[94.6,31707],[94.6,31790],[94.6,31874],[94.6,31957],[94.6,32040],[94.6,32123],[94.6,32207],[94.6,32290],[94.6,32373],[94.6,32466],[94.6,32540],[94.6,32623],[94.6,32706],[94.6,32790],[94.6,32873],[94.6,32956],[94.6,33040],[94.6,33123],[96.5,33216],[96.5,33290],[97.2,33383],[97.6,33456],[97.9,33540],[98.2,33623],[98.4,33716],[98.4,33790],[98.4,33873],[98.4,33956],[98.4,34039],[98.4,34123],[98.4,34215],[97.5,34299],[94.7,34383],[94.6,34457],[89.6,34539],[88.2,34623],[86.9,34717],[86,34790],[86,34877],[86,34956],[87.9,35049],[93.4,35133],[94.8,35216],[95.2,35298],[95.2,35372],[95.2,35456],[95.2,35539],[95.2,35623],[95.2,35706],[95.2,35798],[95.9,35883],[96.6,35957],[96.6,36039],[96.6,36122],[96.6,36206],[96.6,36289],[96.6,36372],[96.6,36456],[96.6,36539],[96.6,36622],[96.7,36706],[95.6,36799],[92.8,36875],[87.4,36966],[87.1,37039],[87.1,37122],[87.1,37205],[87.1,37288],[87.1,37381],[81.1,37465],[75.7,37539],[73.4,37632],[67.3,37715],[61.1,37798],[55.7,37881],[54.7,37955],[54.1,38048],[54.1,38122],[51.8,38215],[49.7,38298],[49.6,38372],[49.6,38455],[49.6,38538],[49.7,38622],[52.3,38716],[57.1,38798],[64.2,38882],[73.1,38965],[79.5,39048],[83.6,39131],[87.8,39214],[90,39298],[92,39371],[93.9,39465],[94.8,39538],[94.8,39621],[95.5,39715],[96.1,39788],[96.3,39871],[96.7,39955],[96.9,40038],[96.9,40121],[96.9,40204],[96.9,40288],[96.9,40371],[96.9,40454],[96.9,40538],[96.9,40621],[96.9,40704],[96.9,40797],[93.1,40881],[83.8,40954],[70,41047],[64.4,41131],[58.6,41214],[54.4,41298],[53.2,41380],[51.4,41464],[50.6,41537],[50.6,41621],[50.6,41704],[50.6,41787],[50.6,41880],[50.6,41955],[50.6,42037],[50.6,42120],[50.6,42204],[50.6,42287],[50.6,42380],[50.6,42454],[50.6,42537],[50.6,42620],[50.9,42704],[51.5,42787],[51.5,42870],[51.6,42954],[51.6,43037],[51.6,43120],[52.1,43213],[52.1,43296],[52.2,43370],[52.2,43453],[52.7,43547],[52.7,43620],[52.8,43703],[52.9,43787],[53.1,43879],[53.1,43953],[53.1,44037],[52.7,44120],[50.8,44213],[50.2,44298],[50,44379],[50,44453],[50,44537],[50,44620],[51.9,44705],[54.9,44789],[63.8,44880],[75.3,44963],[93.5,45046],[95.7,45120],[96.9,45208],[97.2,45286],[98.1,45379],[98.1,45453],[98.1,45536],[98.1,45620],[98.1,45703],[98.1,45786],[98.1,45870],[98.1,45953],[98.1,46036],[98.1,46120],[98.1,46203],[98,46296],[97.4,46369],[97.4,46453],[97.4,46536],[95.8,46624],[95.6,46703],[95.6,46786],[95.6,46869],[94,46953],[93.1,47045],[90.2,47129],[85,47212],[83.4,47297],[83.4,47378],[83.4,47452],[83.4,47536],[83.4,47620],[83.4,47704],[86.5,47795],[88.5,47875],[90,47964],[91.7,48046],[93.1,48129],[93.6,48204],[93.8,48286],[94.1,48369],[94.1,48452],[94.1,48535],[94.1,48619],[94.1,48702],[94.1,48785],[94.1,48869],[94.1,48952],[94.1,49035],[94.1,49119],[94.1,49202],[94.1,49294],[94.1,49369],[94.1,49452],[94.1,49535],[94.1,49618],[94.1,49702],[94.1,49785],[94.1,49868],[94.1,49952],[94.1,50035],[94.1,50118],[94.1,50201],[94.1,50285],[93.6,50378],[91.8,50452],[90.1,50535],[89,50618],[89,50701],[89,50785],[89,50868],[89,50951],[89,51035],[89,51118],[87.2,51201],[81.3,51294],[73,51378],[67.4,51452],[65.2,51535],[65.2,51618],[65.2,51701],[64.8,51785],[86.1,51868],[100,51961],[100,52034],[100,52118],[100,52210],[100,52284],[100,52377],[100,52461],[100,52544],[98.3,52627],[98.3,52701],[98.3,52784],[98.3,52868],[98.3,52951],[98.3,53034],[98.3,53117],[98.3,53201],[98.3,53284],[98.3,53367],[98.3,53451],[98.3,53534],[98.3,53617],[98.3,53701],[98.3,53784],[98.3,53867],[98.3,53951],[98.3,54034],[98.3,54117],[98.3,54200],[98.3,54284],[98.3,54367],[98.3,54450],[98.3,54538],[98.3,54617],[98.3,54709],[98.3,54784],[98.3,54867],[98.3,54950],[98.4,55043],[99.3,55117],[99.3,55200],[99.3,55283],[99.3,55367],[99.3,55450],[99.3,55534],[99.3,55626],[99.3,55700],[98.8,55793],[97.4,55877]]",987.7168,996.0425,98.85416667,5.6803,"[{""rating"":98.85416666666667,""responseTime"":5.6803000000119255}]",space,7.7849,,996.0426,Definitely yes,100,996.0468,,,[],,0,1,1,1,1,audio/Narrative7Situation1.wav,audio/Narrative8Situation1.wav,audio/Narrative5Situation1.wav,audio/Narrative6Situation1.wav,2,5,5,2,2.2329,,,,,,,,,,,,,,,,,,,,,,,,,,,,,,,,,,,,,,
,,,,,66bcffc3e6f77501141b3d0f,2025-07-07_23h04.14.235,group3.4_multiperson,2023.2.2,Win32,59.88023952,686c2ebf0248f13bef9af11f,686c8aa071dcd690be94d386,,,,,,,,,,,,,,,,,,,,,,,,,,,,,996.0472,1,audio/Narrative7Situation2.wav,999.0537,,999.0537,1006.5609,"[[67,759],[64.5,842],[60.4,1341],[58.3,1416],[52.8,1508],[52.8,1582],[52.1,1675],[47.3,1758],[44.5,1832],[44.5,1915],[44.1,2008],[44.1,2082],[44.1,2165],[44.1,2248],[44.1,2332],[43.2,2415],[39.1,2499],[32.3,2592],[22.3,2675],[16.7,2759],[10,2832],[8.8,2924],[8.8,2998],[8.8,3081],[9.6,3174],[13.5,3260],[15.8,3336],[17.7,3415],[24.2,3508],[31,3591],[38.2,3665],[43.4,3759],[46.6,3842],[48.2,3915],[49.7,4009],[50.5,4091],[50.5,4174],[50.5,4256],[50.5,4336],[50.5,4414],[50.5,4498],[50.5,4581],[50.5,4664],[50.5,4748],[50.5,4840],[50.5,4914],[50.5,4998],[50.5,5081],[50.5,5164],[50.5,5258],[50.5,5331],[50.5,5414],[50.5,5497],[50.5,5585],[50.5,5664],[50.5,5748],[50.6,5840],[50.6,5914],[50.6,5997],[50.6,6081],[50.6,6164],[50.6,6247],[50.6,6330],[50.6,6414],[50.6,6497],[50.6,6581],[50.3,6673],[50.2,6747],[50,6840],[50,6914],[50,6997],[50,7080],[50,7163],[50,7252],[50,7330],[52.2,7423],[59.8,7507]]",1006.5611,1012.6831,51.04166667,4.4989,"[{""rating"":51.041666666666664,""responseTime"":4.49890000003586}]",space,5.586,,1012.6832,Not at all,0,1012.6881,,,[],,0,2,2,2,1,audio/Narrative7Situation2.wav,audio/Narrative8Situation2.wav,audio/Narrative5Situation2.wav,audio/Narrative6Situation2.wav,3,3,3,3,,,,,,,,,,,,,,,,,,,,,,,,,,,,,,,,,,,,,,,
,,,,,66bcffc3e6f77501141b3d0f,2025-07-07_23h04.14.235,group3.4_multiperson,2023.2.2,Win32,59.88023952,686c2ebf0248f13bef9af11f,686c8aa071dcd690be94d386,,,,,,,,,,,,,,,,,,,,,,,,,,,,,1012.6885,1,audio/Narrative7Situation3.wav,1020.6971,,1020.6972,1029.9612,"[[999,0],[999,83],[999,166],[999,249],[999,332],[999,416],[999,499],[999,582],[999,666],[999,749],[999,833],[999,916],[999,1009],[999,1083],[55.5,1176],[55.8,1249],[55.8,1332],[55.8,1415],[55.8,1499],[55.8,1582],[55.8,1665],[55.8,1749],[55.6,1837],[47.2,1925],[46,1999],[46,2082],[46,2165],[41.7,2249],[22.7,2332],[10.3,2425],[3.2,2509],[3.1,2582],[3.1,2665],[3.1,2748],[3.1,2832],[3.1,2915],[3.1,2998],[3.8,3082],[4.9,3165],[5.1,3248],[5.6,3338],[5.6,3415],[5.6,3498],[5.1,3584],[3.4,3666],[3.2,3749],[2.6,3841],[2.3,3915],[2.1,4009],[2.1,4082],[2.1,4165],[1.8,4258],[1.8,4331],[1.8,4415],[1.8,4498],[1.8,4582],[1.8,4665],[1.8,4748],[1.8,4831],[1.8,4943],[1.8,5015],[1.8,5098],[1.8,5181],[1.8,5264],[1.8,5348],[1.8,5431],[1.8,5514],[1.8,5598],[1.8,5681],[1.8,5764],[7,5848],[16.6,5931],[23.8,6014],[32.7,6098],[41.4,6181],[45.5,6264],[51.3,6348],[51.6,6431],[51.6,6514],[51.7,6597],[51.7,6681],[51.7,6764],[54.6,6847],[79.8,6931],[96.4,7014],[97,7097],[98.5,7181],[100,7264],[100,7347],[100,7430],[100,7514],[100,7597],[100,7680],[99.8,7764],[99.8,7847],[99.8,7930],[99.8,8014],[99.8,8097],[99.8,8180],[99.8,8263],[99.8,8347],[99.8,8430],[99.8,8513],[99.8,8597],[99.8,8680],[99.8,8763],[99.8,8847],[99.8,8930],[99.8,9013],[99.8,9097],[99.8,9180],[99.8,9263]]",1029.9614,1037.454,50.9375,4.8575,"[{""rating"":50.9375,""responseTime"":4.857499999999845}]",space,6.9237,,1037.4541,Partially,50,1037.4574,,,[],,0,3,3,3,1,audio/Narrative7Situation3.wav,audio/Narrative8Situation3.wav,audio/Narrative5Situation3.wav,audio/Narrative6Situation3.wav,8,4,3,5,,,,,,,,,,,,,,,,,,,,,,,,,,,,,,,,,,,,,,,
,,,,,66bcffc3e6f77501141b3d0f,2025-07-07_23h04.14.235,group3.4_multiperson,2023.2.2,Win32,59.88023952,686c2ebf0248f13bef9af11f,686c8aa071dcd690be94d386,,,,,,,,,,,,,,,,,,,,,,,,,,,,,1037.4577,1,audio/Narrative7Situation4.wav,1040.458,,1040.4581,1052.1882,"[[50.7,842],[50.7,916],[50.6,1000],[48.4,1093],[48.4,1166],[48.4,1249],[48.4,1332],[48.4,1416],[48.4,1499],[48.4,1582],[48.4,1666],[48.4,1749],[48.4,1832],[48.4,1915],[48.4,1999],[48.4,2082],[48.4,2184],[48.4,2278],[48.4,2349],[48.4,2432],[48.4,2515],[48.4,2599],[48.4,2682],[48.4,2765],[48.4,2848],[48.4,2932],[48.4,3015],[48.4,3098],[48.4,3182],[48.4,3265],[48.4,3348],[48.4,3432],[48.4,3515],[48.4,3598],[48.4,3682],[48.4,3765],[40.8,3849],[37.1,3932],[34.8,4015],[27.2,4098],[20.5,4199],[14,4281],[11.7,4365],[10.9,4448],[10.4,4532],[2.2,4615],[2.2,4698],[2.2,4781],[2.2,4865],[3.5,4948],[10.6,5031],[13.8,5115],[17.2,5198],[17.6,5281],[17.6,5365],[17.6,5448],[17.6,5531],[17.6,5614],[17.6,5698],[17.6,5781],[17.6,5864],[17.6,5948],[17.6,6031],[17.5,6115],[17.5,6198],[17.5,6281],[16.9,6365],[13.6,6448],[7.6,6538],[7,6631],[4.3,6714],[3.1,6798],[3.1,6881],[3,6965],[2.5,7055],[2.5,7131],[2.5,7214],[2.4,7297],[2.4,7381],[2.3,7464],[2.3,7547],[2.3,7631],[2.3,7714],[2.3,7797],[2.3,7881],[2.3,7964],[2.3,8047],[2.3,8130],[2.3,8214],[2.3,8297],[2.3,8380],[2.3,8464],[2.3,8547],[2.3,8630],[2.3,8714],[2.3,8797],[2.3,8880],[2.3,8963],[2.3,9058],[2.3,9130],[2.3,9213],[2.3,9297],[2.4,9380],[2.4,9464],[2.4,9556],[2.4,9630],[2.4,9713],[2.4,9797],[2.4,9880],[2.4,9963],[2.4,10046],[2.4,10134],[2.4,10213],[2.4,10297],[2.4,10380],[2.4,10463],[2.4,10546],[2.4,10630],[2.4,10713],[2.5,10796],[2.6,10880],[2.6,10963],[3.3,11046],[3.3,11129],[3.3,11230],[3.3,11313],[3.3,11396],[3.3,11480],[3.5,11563],[3.5,11646],[3.5,11730]]",1052.1884,1056.3299,1.25,1.9922,"[{""rating"":2.9166666666666674,""responseTime"":1.1255000000001019},{""rating"":1.250000000000001,""responseTime"":1.9921999999880882}]",space,3.5894,,1056.33,Not at all,0,1056.3333,,,[],,0,4,4,4,1,audio/Narrative7Situation4.wav,audio/Narrative8Situation4.wav,audio/Narrative5Situation4.wav,audio/Narrative6Situation4.wav,3,3,1,2,,,,,,,,,,,,,,,,,,,,,,,,,,,,,,,,,,,,,,,
,,,,,66bcffc3e6f77501141b3d0f,2025-07-07_23h04.14.235,group3.4_multiperson,2023.2.2,Win32,59.88023952,686c2ebf0248f13bef9af11f,686c8aa071dcd690be94d386,,,,,,,,,,,,,,,,,,,,,,,,,,,,,1056.3335,1,audio/Narrative7Situation5.wav,1061.3355,,1061.3356,1069.8331,"[[29,1509],[26.4,1592],[24.9,1675],[24.9,1749],[23.3,1842],[23.3,1915],[23.3,1999],[23.3,2082],[23.3,2165],[22.6,2259],[22.6,2341],[21.1,2425],[18.1,2508],[18.1,2582],[18.1,2665],[18.1,2749],[18.1,2832],[18.1,2915],[19.8,3009],[24.8,3092],[40,3175],[47.3,3249],[47.9,3332],[48.2,3415],[50.3,3508],[50.4,3582],[50.5,3674],[50.5,3748],[55,3841],[69.7,3925],[80.8,4008],[93.4,4091],[93.4,4165],[93.9,4248],[94.1,4341],[96.3,4425],[97.6,4508],[97.7,4581],[97.7,4665],[97.7,4748],[97.7,4831],[97.7,4915],[97.7,4998],[97.7,5081],[97.7,5165],[97.7,5248],[97.7,5331],[97.7,5415],[97.7,5498],[97.7,5581],[97.7,5665],[97.7,5748],[97.7,5831],[97.7,5915],[97.7,5998],[97.7,6081],[97.7,6164],[97.7,6248],[97.7,6331],[97.7,6423],[97.7,6498],[97.7,6581],[97.7,6664],[97.7,6747],[97.7,6831],[97.7,6914],[97.7,6997],[97.7,7081],[97.7,7164],[97.7,7247],[97.7,7331],[97.7,7414],[97.7,7497],[97.7,7581],[97.7,7664],[97.7,7747],[97.7,7840],[97.7,7914],[97.7,7997],[97.7,8080],[97.7,8164],[97.7,8247],[97.7,8336],[97.7,8414],[97.7,8497]]",1069.8332,1072.4991,97.91666667,1.0756,"[{""rating"":97.91666666666667,""responseTime"":1.0756000000239965}]",space,2.1164,,1072.4992,Partially,50,1072.5025,,,[],,0,5,5,5,1,audio/Narrative7Situation5.wav,audio/Narrative8Situation5.wav,audio/Narrative5Situation5.wav,audio/Narrative6Situation5.wav,5,2,5,2,,,,,,,,,,,,,,,,,,,,,,,,,,,,,,,,,,,,,,,
,,,,,66bcffc3e6f77501141b3d0f,2025-07-07_23h04.14.235,group3.4_multiperson,2023.2.2,Win32,59.88023952,686c2ebf0248f13bef9af11f,686c8aa071dcd690be94d386,,,,,,,,,,,,,,,,,,,,,,,,,,,,,1072.5029,1,audio/Narrative7Situation6.wav,1075.5153,,1075.5155,1085.5121,"[[95.7,666],[83.2,758],[67.1,842],[58.8,925],[57.5,1009],[47.1,1091],[46,1175],[46,1248],[46,1332],[46,1415],[46,1499],[46,1582],[46,1665],[46,1748],[46,1832],[46,1915],[46,1998],[46,2082],[46,2165],[46,2248],[46,2332],[46.1,2415],[46.1,2498],[46.1,2581],[46.1,2665],[46.1,2748],[46.1,2836],[46.1,2915],[46.3,2998],[46.3,3081],[46.3,3165],[46.3,3248],[46.3,3331],[46.3,3414],[46.3,3498],[46.3,3581],[46.3,3664],[46.3,3748],[46.3,3831],[46.3,3914],[46.3,3998],[46.3,4081],[46.3,4164],[46.3,4259],[46.3,4331],[46.3,4414],[46.3,4497],[46.3,4581],[46.3,4664],[46.3,4747],[46.3,4831],[46.3,4914],[46.3,4997],[46.3,5081],[46.3,5164],[46.3,5247],[46.8,5340],[47.7,5414],[50.2,5507],[53,5591],[53.8,5668],[53.8,5747],[53.8,5830],[53.8,5914],[53.8,5997],[53.8,6080],[53.8,6164],[53.4,6249],[51.7,6340],[51.7,6414],[51.7,6497],[51.7,6580],[51.7,6663],[51.7,6747],[51.7,6830],[51.7,6913],[51.7,6997],[51.7,7080],[51.7,7163],[51.7,7247],[51.7,7330],[51.7,7413],[51.7,7497],[51.7,7580],[51.7,7663],[51.7,7747],[51.7,7830],[51.7,7913],[51.7,7997],[51.7,8080],[51.7,8163],[51.7,8246],[51.7,8330],[51.7,8413],[51.7,8496],[51.7,8580],[51.7,8663],[51.7,8746],[51.7,8830],[51.7,8913],[51.7,8996],[51.7,9080],[51.7,9163],[51.7,9246],[51.7,9329],[48.6,9422],[48.6,9496],[48.6,9579],[48.6,9663],[50.4,9756],[51,9829],[51,9913],[51,9996]]",1085.5122,1088.1546,50.9375,1.0086,"[{""rating"":50.9375,""responseTime"":1.0086000000237618}]",space,2.0834,,1088.1546,Not at all,0,1088.1569,,,[],,0,6,6,6,1,audio/Narrative7Situation6.wav,audio/Narrative8Situation6.wav,audio/Narrative5Situation6.wav,audio/Narrative6Situation6.wav,3,2,3,2,,,,,,,,,,,,,,,,,,,,,,,,,,,,,,,,,,,,,,,
,,,,,66bcffc3e6f77501141b3d0f,2025-07-07_23h04.14.235,group3.4_multiperson,2023.2.2,Win32,59.88023952,686c2ebf0248f13bef9af11f,686c8aa071dcd690be94d386,,,,,,,,,,,,,,,,,,,,,,,,,,,,,1088.1571,1,audio/Narrative7Situation7.wav,1093.16,,1093.1601,1110.3386,"[[46.9,1342],[44.4,1417],[42,1509],[37.9,1592],[36.1,1666],[32.9,1758],[25.1,1842],[23.4,1925],[20.1,2008],[19.2,2082],[19.2,2165],[19.1,2258],[18.9,2332],[18.4,2415],[18.4,2499],[18.5,2582],[26.1,2674],[33.5,2777],[36.7,2858],[41.1,2941],[52.3,3025],[52.3,3098],[53.5,3182],[59.9,3274],[61.8,3348],[61.8,3441],[61.8,3515],[61.8,3598],[59.7,3699],[54.9,3781],[53.3,3865],[49.4,3948],[45.6,4031],[45.3,4115],[45.3,4198],[43.2,4281],[41.8,4365],[41.8,4448],[44.9,4531],[54.9,4615],[61.7,4703],[69.4,4781],[72.5,4865],[77.2,4948],[83.6,5031],[91.3,5115],[97.7,5198],[97.7,5281],[97.7,5364],[97.7,5448],[97.7,5531],[97.7,5614],[97.7,5698],[97.7,5781],[97.7,5864],[97.7,5947],[97.7,6031],[97.7,6114],[97.7,6197],[97.7,6281],[97.7,6364],[97.7,6447],[97.7,6531],[97.7,6614],[97.7,6697],[97.7,6780],[97.7,6880],[97.7,6964],[97.7,7047],[97.7,7130],[97.7,7214],[97.7,7297],[97.7,7380],[97.7,7464],[97.7,7547],[97.7,7630],[97.7,7719],[97.7,7797],[97.7,7880],[97.7,7964],[97.7,8047],[97.7,8130],[97.7,8214],[97.7,8297],[97.7,8380],[97.7,8463],[97.7,8547],[97.7,8630],[97.7,8718],[97.7,8797],[97.7,8880],[97.7,8963],[97.7,9047],[97.7,9130],[97.7,9213],[97.7,9297],[95.8,9380],[93.4,9463],[92.1,9556],[88,9639],[86.9,9722],[86.8,9805],[86.8,9880],[86.8,9963],[88.9,10047],[90.9,10139],[92.7,10222],[94.1,10296],[94.6,10379],[95.3,10472],[95.8,10556],[96.7,10629],[96.7,10713],[96.7,10796],[96.7,10879],[96.7,10963],[97.6,11047],[97.8,11139],[97.9,11212],[97.9,11296],[97.9,11379],[97.9,11462],[97.9,11546],[97.9,11629],[97.9,11712],[97.9,11796],[97.9,11879],[97.9,11962],[97.9,12046],[97.9,12129],[97.9,12212],[97.9,12296],[97.9,12379],[97.9,12462],[97.9,12546],[97.9,12629],[97.9,12712],[97.9,12795],[97.9,12879],[97.9,12962],[97.9,13045],[97.9,13129],[97.9,13212],[97.9,13295],[97.9,13379],[97.9,13462],[97.9,13545],[97.9,13629],[97.9,13712],[97.9,13795],[97.9,13878],[97.9,13962],[97.9,14045],[97.9,14128],[97.9,14216],[97.9,14295],[97.9,14378],[97.9,14462],[97.9,14545],[97.9,14628],[97.9,14720],[97.9,14795],[97.9,14878],[97.9,14962],[96.8,15054],[94.6,15137],[91.7,15221],[88.6,15305],[88.3,15378],[88.3,15461],[88.8,15545],[91,15628],[93.6,15721],[94.3,15795],[94.7,15887],[95.8,15971],[96.3,16046],[97.5,16137],[97.5,16211],[97.5,16294],[97.5,16378],[97.5,16461],[97.5,16544],[97.5,16628],[97.5,16722],[97.5,16794],[97.5,16878],[97.5,16961],[97.6,17045],[97.6,17128]]",1110.3387,1112.5312,97.60416667,0.7915,"[{""rating"":97.60416666666667,""responseTime"":0.7915000000000418}]",space,1.6336,,1112.5312,Definitely yes,100,1112.5338,,,[],,0,7,7,7,1,audio/Narrative7Situation7.wav,audio/Narrative8Situation7.wav,audio/Narrative5Situation7.wav,audio/Narrative6Situation7.wav,5,3,4,5,,,,,,,,,,,,,,,,,,,,,,,,,,,,,,,,,,,,,,,
,,,,,66bcffc3e6f77501141b3d0f,2025-07-07_23h04.14.235,group3.4_multiperson,2023.2.2,Win32,59.88023952,686c2ebf0248f13bef9af11f,686c8aa071dcd690be94d386,,,,,,,,,,,,,,,,,,,,,,,,,,,,,1112.5342,1,audio/Narrative7Situation8.wav,1114.5371,,1114.5371,1124.5676,"[[92.3,999],[91,1092],[85.4,1175],[78.6,1258],[75.5,1333],[68.4,1426],[64.6,1509],[62.1,1592],[61,1665],[61,1749],[61,1832],[61,1915],[61,1999],[61,2082],[61,2165],[61,2249],[61,2332],[61,2415],[61,2499],[61,2582],[61,2665],[61,2749],[61,2832],[61,2915],[61,2999],[61,3082],[61,3165],[61,3249],[61,3332],[61,3415],[61,3498],[61,3582],[61,3665],[61,3748],[61,3832],[61,3915],[61,3998],[61,4081],[61,4165],[61,4248],[61,4331],[61,4424],[61,4498],[61,4581],[61,4665],[61,4748],[61,4831],[61,4915],[61,4998],[61,5090],[61,5165],[61,5248],[61,5331],[61,5414],[61.3,5507],[61.3,5581],[61.3,5664],[61.3,5748],[61.3,5840],[61.3,5914],[61.3,5998],[62.5,6091],[63.6,6164],[63.6,6248],[63.6,6331],[63.6,6414],[63.6,6507],[63.6,6581],[63.6,6664],[63.6,6747],[65.4,6841],[66.8,6924],[66.9,6998],[66.9,7081],[66.9,7164],[66.9,7247],[66.9,7331],[66.9,7423],[66.9,7497],[66.9,7580],[66.9,7664],[66.9,7747],[66.9,7830],[66.9,7914],[67,7997],[67,8080],[66.1,8174],[64,8247],[62.5,8340],[62,8419],[62,8497],[62,8580],[62,8664],[62,8747],[62,8830],[62,8913],[62,8997],[62,9080],[62,9163],[62.1,9247],[62.2,9330],[62.9,9424],[62.9,9497],[62.9,9580],[62.9,9663],[62.9,9747],[71,9830],[78.6,9923],[80.2,10006]]",1124.5677,1129.8088,52.60416667,3.5096,"[{""rating"":52.604166666666664,""responseTime"":3.5095999999643936}]",space,4.6825,,1129.8089,Not at all,0,1129.8112,,,[],,0,8,8,8,1,audio/Narrative7Situation8.wav,audio/Narrative8Situation8.wav,audio/Narrative5Situation8.wav,audio/Narrative6Situation8.wav,2,3,3,5,,,,,,,,,,,,,,,,,,,,,,,,,,,,,,,,,,,,,,,
,,,,,66bcffc3e6f77501141b3d0f,2025-07-07_23h04.14.235,group3.4_multiperson,2023.2.2,Win32,59.88023952,686c2ebf0248f13bef9af11f,686c8aa071dcd690be94d386,,,,,,,,,,,,,,,,,,,,,,,,,,,,,1129.8114,1,audio/Narrative7Situation9.wav,1131.8247,,1131.8247,1140.4629,"[[53.5,74],[53.5,157],[53.5,249],[53.5,323],[53.5,407],[53.5,490],[53.5,574],[53.5,657],[50,750],[48.1,823],[47.8,907],[46.3,990],[43.4,1083],[34.5,1167],[25.1,1250],[20.2,1333],[15.9,1417],[10.1,1499],[7.3,1583],[7.2,1656],[7.2,1740],[7.2,1823],[7.2,1907],[8.8,2000],[21.5,2083],[33.2,2166],[43.4,2249],[45.3,2327],[45.4,2407],[46.3,2490],[48.2,2582],[55.6,2666],[73.5,2749],[94.1,2823],[96.6,2906],[96.8,2999],[97,3073],[97.5,3165],[97.5,3239],[97.5,3332],[97.5,3406],[97.5,3489],[97.5,3573],[97.5,3656],[97.5,3739],[97.5,3822],[97.5,3906],[97.5,3989],[97.5,4073],[97.5,4156],[97.5,4239],[97.5,4322],[97.5,4406],[97.5,4489],[97.5,4572],[97.5,4656],[97.5,4739],[97.5,4822],[97.5,4905],[97.5,4989],[97.5,5072],[97.5,5155],[97.5,5239],[97.5,5322],[97.5,5405],[97.5,5489],[97.5,5572],[97.5,5655],[97.5,5739],[97.5,5822],[97.5,5905],[97.5,5988],[97.5,6072],[97.5,6155],[97.5,6239],[97.5,6322],[97.5,6405],[97.5,6488],[97.5,6572],[97.5,6655],[97.5,6738],[97.5,6822],[97.5,6905],[97.5,6988],[97.5,7072],[97.5,7155],[97.5,7247],[97.5,7322],[97.5,7405],[97.5,7488],[97.5,7571],[97.5,7655],[97.5,7738],[97.3,7831],[96.9,7914],[96.7,7988],[96.6,8071],[95.6,8164],[95.5,8241],[95.5,8321],[95.5,8404],[95.5,8488],[96.6,8581]]",1140.4632,1143.6549,97.60416667,0.7773,"[{""rating"":97.60416666666667,""responseTime"":0.7773000000120192}]",space,2.6333,,1143.6549,Not at all,0,1143.6562,,,[],,0,9,9,9,1,audio/Narrative7Situation9.wav,audio/Narrative8Situation9.wav,audio/Narrative5Situation9.wav,audio/Narrative6Situation9.wav,2,3,3,4,,,,,,,,,,,,,,,,,,,,,,,,,,,,,,,,,,,,,,,
,,,,,66bcffc3e6f77501141b3d0f,2025-07-07_23h04.14.235,group3.4_multiperson,2023.2.2,Win32,59.88023952,686c2ebf0248f13bef9af11f,686c8aa071dcd690be94d386,,,,,,,,,,,,,,,,,,,,,,,,,,,,,1143.6565,1,audio/Narrative8Situation1.wav,1148.6607,,1148.6608,1164.5897,"[[46.7,842],[40.7,916],[36.4,1000],[34.7,1082],[34.5,1166],[34.5,1249],[34.5,1332],[34.5,1426],[34.5,1499],[34.5,1582],[34.5,1666],[34.5,1749],[34.5,1833],[34.5,1916],[34.5,1999],[34.5,2104],[34.5,2182],[34.5,2265],[34.5,2349],[34.5,2432],[34.5,2515],[34.5,2598],[34.5,2682],[34.5,2765],[34.5,2848],[34.5,2932],[34.5,3015],[34.5,3098],[34.5,3182],[34.5,3265],[34.5,3348],[34.5,3437],[34.5,3515],[36.7,3598],[39.1,3682],[41.3,3765],[43.9,3849],[45.2,3932],[45.8,4015],[45.8,4098],[46.1,4182],[52.7,4266],[52.9,4348],[52.9,4431],[52.9,4515],[52.9,4598],[52.9,4681],[52.9,4765],[52.9,4848],[52.9,4931],[52.9,5014],[52.9,5098],[52.9,5181],[52.9,5264],[52.9,5348],[52.9,5431],[52.9,5514],[52.9,5598],[52.9,5681],[52.9,5764],[52.9,5847],[52.9,5931],[52.9,6014],[52.9,6097],[52.9,6181],[52.9,6264],[52.9,6347],[52.9,6431],[52.9,6564],[52.9,6647],[52.9,6731],[52.9,6814],[52.9,6897],[52.9,6981],[52.9,7068],[51.6,7147],[51.6,7231],[51.6,7314],[51.6,7397],[51.6,7490],[51.6,7572],[51.6,7647],[51.6,7730],[51.6,7822],[51.6,7905],[51.6,7981],[51.6,8064],[51.6,8147],[51.6,8230],[51.6,8314],[51.6,8397],[51.6,8480],[51.6,8564],[51.6,8647],[51.6,8730],[51.6,8814],[51.6,8897],[51.6,8980],[51.6,9063],[51.6,9147],[51.6,9230],[51.6,9313],[51.6,9396],[51.6,9481],[51.6,9563],[51.6,9646],[51.6,9730],[51.6,9813],[51.6,9906],[51.6,9980],[51.6,10063],[51.6,10146],[51.6,10230],[51.6,10313],[51.6,10405],[51.6,10490],[51.6,10567],[51.6,10646],[51.6,10730],[51.6,10817],[51.6,10896],[51.6,10980],[51.6,11063],[51.6,11146],[51.6,11229],[51.6,11313],[51.6,11396],[51.6,11479],[51.6,11563],[51.6,11646],[51.6,11729],[51.6,11822],[51.6,11896],[51.6,11989],[51.6,12063],[51.6,12146],[51.6,12229],[51.6,12313],[51.6,12396],[51.6,12488],[51.6,12562],[51.6,12646],[51.6,12729],[51.6,12812],[51.6,12896],[51.6,12979],[51.6,13062],[51.6,13146],[51.6,13229],[51.6,13312],[51.6,13406],[51.6,13484],[51.6,13572],[51.6,13645],[51.6,13729],[51.6,13812],[51.6,13895],[51.6,13979],[51.6,14062],[51.6,14145],[51.6,14229],[51.6,14312],[51.6,14395],[51.6,14479],[51.6,14562],[51.6,14645],[51.6,14728],[51.6,14812],[51.6,14895],[51.6,14978],[51.6,15062],[51.6,15145],[51.6,15228],[51.6,15312],[51.6,15395],[51.6,15478],[51.6,15568],[51.6,15645],[51.6,15728],[51.6,15811],[51.6,15895]]",1164.5898,1173.3419,97.1875,2.8824,"[{""rating"":97.1875,""responseTime"":2.882399999976087}]",space,8.1983,,1173.3419,Partially,50,1173.3442,,,[],,0,10,10,10,1,audio/Narrative8Situation1.wav,audio/Narrative7Situation1.wav,audio/Narrative6Situation1.wav,audio/Narrative5Situation1.wav,5,2,2,5,,,,,,,,,,,,,,,,,,,,,,,,,,,,,,,,,,,,,,,
,,,,,66bcffc3e6f77501141b3d0f,2025-07-07_23h04.14.235,group3.4_multiperson,2023.2.2,Win32,59.88023952,686c2ebf0248f13bef9af11f,686c8aa071dcd690be94d386,,,,,,,,,,,,,,,,,,,,,,,,,,,,,1173.3444,1,audio/Narrative8Situation2.wav,1176.3528,,1176.3529,1186.4765,"[[999,0],[999,83],[999,166],[999,249],[999,333],[999,416],[999,499],[999,583],[999,671],[999,749],[999,832],[999,916],[999,999],[999,1082],[999,1166],[999,1249],[999,1342],[999,1416],[999,1499],[999,1582],[999,1666],[999,1749],[999,1832],[999,1915],[999,1999],[999,2082],[999,2166],[999,2249],[999,2364],[999,2449],[999,2532],[999,2615],[999,2699],[999,2782],[999,2865],[999,2948],[999,3032],[999,3115],[999,3198],[999,3282],[999,3365],[999,3448],[999,3532],[999,3615],[999,3698],[999,3781],[999,3865],[999,3948],[999,4031],[999,4115],[999,4198],[999,4281],[999,4365],[999,4448],[999,4531],[999,4615],[999,4698],[999,4781],[999,4865],[999,4948],[999,5031],[999,5115],[999,5198],[999,5281],[999,5365],[999,5448],[999,5531],[999,5614],[999,5698],[999,5781],[999,5864],[999,5948],[999,6031],[999,6114],[999,6197],[999,6281],[999,6364],[999,6448],[999,6531],[999,6614],[999,6697],[999,6781],[999,6864],[999,6947],[999,7031],[999,7114],[999,7197],[999,7280],[999,7368],[999,7447],[999,7531],[999,7614],[999,7705],[999,7781],[63.9,7864],[62.7,7959],[62.7,8030],[62.7,8114],[62.7,8197],[62.7,8280],[62.7,8364],[62.7,8447],[62.7,8530],[62.7,8614],[62.7,8697],[62.7,8780],[62.7,8863],[62.7,8947],[62.7,9030],[62.7,9113],[62.7,9197],[62.6,9280],[62.5,9373],[62.5,9447],[62.5,9530],[62.5,9613],[61.6,9696],[54.3,9789],[45.1,9873],[40.9,9958],[37.9,10039],[25.2,10123]]",1186.4765,1194.9742,1.979166667,1.1826,"[{""rating"":1.9791666666666652,""responseTime"":1.1826000000239674}]",space,7.9485,,1194.9742,Definitely yes,100,1194.9784,,,[],,0,11,11,11,1,audio/Narrative8Situation2.wav,audio/Narrative7Situation2.wav,audio/Narrative6Situation2.wav,audio/Narrative5Situation2.wav,3,3,3,3,,,,,,,,,,,,,,,,,,,,,,,,,,,,,,,,,,,,,,,
,,,,,66bcffc3e6f77501141b3d0f,2025-07-07_23h04.14.235,group3.4_multiperson,2023.2.2,Win32,59.88023952,686c2ebf0248f13bef9af11f,686c8aa071dcd690be94d386,,,,,,,,,,,,,,,,,,,,,,,,,,,,,1194.9787,1,audio/Narrative8Situation3.wav,1198.9797,,1198.9797,1221.3824,"[[999,0],[999,83],[999,166],[999,249],[999,333],[999,416],[999,499],[999,583],[999,666],[999,749],[999,832],[999,916],[999,999],[999,1082],[999,1166],[999,1249],[999,1332],[999,1416],[999,1499],[999,1582],[999,1673],[999,1749],[999,1833],[999,1924],[999,1999],[999,2082],[999,2165],[999,2249],[999,2332],[999,2415],[999,2508],[999,2582],[999,2665],[999,2749],[999,2832],[999,2915],[999,2999],[999,3082],[999,3166],[999,3249],[999,3332],[999,3419],[999,3508],[999,3582],[999,3665],[999,3748],[999,3832],[999,3924],[999,3998],[999,4082],[999,4165],[999,4249],[45.9,4341],[45.7,4415],[45.7,4498],[45.7,4582],[45.7,4675],[46.3,4748],[46.4,4832],[47.4,4925],[47.4,4998],[47.6,5082],[47.6,5165],[47.7,5248],[48,5332],[49.4,5415],[49.5,5524],[50.3,5598],[50.4,5681],[50.4,5764],[50.4,5848],[50.4,5931],[50.4,6014],[50.4,6098],[50.4,6181],[50.4,6264],[50.4,6348],[50.4,6431],[50.4,6514],[50.4,6607],[50.4,6681],[50.4,6764],[50.4,6848],[50.4,6931],[50.4,7014],[50.4,7098],[50.4,7181],[50.4,7264],[50.4,7347],[50.4,7431],[50.4,7514],[50.4,7597],[50.4,7681],[50.4,7764],[50.4,7847],[50.4,7931],[50.4,8014],[50.4,8097],[50.4,8180],[50.4,8264],[50.4,8347],[50.4,8430],[50.4,8514],[50.4,8597],[50.4,8680],[50.4,8764],[51.8,8857],[52.4,8930],[53.9,9014],[59.6,9106],[67.1,9181],[100,9763],[100,9847],[100,9939],[100,10022],[100,10097],[100,10189],[100,10263],[100,10356],[100,10442],[100,10522],[100,10596],[100,10680],[100,10763],[100,10846],[100,10930],[100,11013],[100,11096],[100,11180],[100,11263],[100,11346],[100,11430],[100,11513],[100,11596],[100,11680],[100,11763],[100,11846],[100,11930],[100,12013],[100,12096],[100,12179],[100,12263],[100,12346],[100,12438],[100,12513],[100,12605],[100,12679],[100,12763],[100,12846],[100,12929],[100,13022],[100,13096],[100,13179],[100,13262],[100,13346],[100,13429],[100,13512],[100,13596],[100,13679],[100,13762],[100,13846],[100,13929],[100,14012],[100,14096],[100,14179],[100,14262],[100,14345],[100,14429],[100,14512],[100,14595],[100,14679],[100,14767],[100,14845],[100,14938],[100,15012],[100,15104],[100,15179],[100,15262],[100,15345],[100,15428],[100,15512],[100,15595],[100,15687],[100,15762],[100,15845],[100,15928],[100,16012],[100,16095],[100,16178],[100,16262],[100,16345],[100,16428],[100,16511],[100,16599],[100,16688],[100,16761],[100,16849],[100,16928],[100,17011],[100,17095],[100,17178],[100,17261],[100,17344],[100,17428],[100,17522],[100,17594],[100,17687],[100,17761],[100,17853],[100,17928],[100,18011],[100,18103],[100,18187],[100,18261],[100,18344],[100,18434],[100,18516],[100,18594],[100,18677],[100,18761],[100,18844],[100,18927],[100,19020],[100,19094],[100,19177],[100,19270],[100,19344],[100,19427],[100,19511],[100,19603],[100,19687],[100,19761],[100,19844],[100,19927],[100,20011],[100,20094],[100,20177],[100,20260],[100,20344],[100,20427],[100,20510],[100,20593],[100,20677],[100,20760],[100,20844],[100,20927],[100,21010],[100,21093],[100,21177],[100,21260],[100,21343],[100,21435],[100,21510],[100,21593],[100,21677],[100,21760],[100,21843],[100,21927],[100,22010],[100,22093],[100,22177],[100,22260],[100,22343]]",1221.3825,1225.6153,100,2.5844,"[{""rating"":94.47916666666667,""responseTime"":1.6330000000000382},{""rating"":100,""responseTime"":2.5843999999763128}]",space,3.6825,,1225.6154,Partially,50,1225.6174,,,[],,0,12,12,12,1,audio/Narrative8Situation3.wav,audio/Narrative7Situation3.wav,audio/Narrative6Situation3.wav,audio/Narrative5Situation3.wav,4,8,5,3,,,,,,,,,,,,,,,,,,,,,,,,,,,,,,,,,,,,,,,
,,,,,66bcffc3e6f77501141b3d0f,2025-07-07_23h04.14.235,group3.4_multiperson,2023.2.2,Win32,59.88023952,686c2ebf0248f13bef9af11f,686c8aa071dcd690be94d386,,,,,,,,,,,,,,,,,,,,,,,,,,,,,1225.6175,1,audio/Narrative8Situation4.wav,1228.6212,,1228.6212,1242.8011,"[[78.5,3508],[72.1,3758],[62.2,3842],[61.1,3924],[58,4008],[56.9,4082],[54.5,4175],[54.2,4248],[57.4,4341],[77.1,4425],[78.5,4508],[81.6,4591],[89.3,4675],[90.6,4748],[90.6,4831],[92,4925],[93.5,5008],[94.3,5091],[94.3,5165],[94.9,5248],[96.5,5340],[96.9,5424],[96.9,5502],[96.9,5581],[97,5665],[97,5748],[97.1,5831],[97.1,5914],[97.1,5998],[97.1,6081],[97.1,6165],[97.1,6248],[97.1,6331],[97.1,6414],[97.1,6498],[97.1,6581],[97.1,6664],[97.1,6748],[97.1,6831],[97.1,6924],[97.1,6997],[97.1,7090],[97.1,7164],[97.1,7247],[97.1,7331],[97.1,7414],[97.1,7497],[97.1,7581],[97.1,7664],[97.1,7747],[97.1,7830],[97.1,7918],[97.1,7997],[97.1,8080],[97.1,8164],[97.1,8247],[97.1,8330],[97.1,8414],[97.1,8497],[97.1,8580],[97.1,8664],[97.1,8747],[97.1,8830],[97.1,8913],[97.1,9001],[97.1,9080],[97.1,9163],[97.1,9247],[97.1,9339],[97.1,9413],[97.1,9497],[97.1,9580],[97.1,9663],[97.1,9756],[97.1,9839],[97.1,9918],[97.1,9996],[97.1,10080],[97.1,10163],[97.1,10247],[97.1,10330],[97.1,10413],[97.1,10496],[97.1,10580],[97.1,10663],[97.1,10746],[97.1,10830],[97.1,10913],[97.1,10997],[97.1,11080],[97.1,11163],[97.1,11246],[97.1,11329],[97.1,11413],[97.1,11496],[97.1,11580],[97.1,11663],[97.1,11746],[97.1,11838],[97.1,11913],[97.1,11996],[97.1,12079],[97.1,12163],[97.1,12250],[97.1,12329],[97.1,12413],[97.1,12496],[97.1,12579],[97.1,12663],[97.1,12746],[97.1,12829],[97.1,12922],[97.1,13002],[97.1,13079],[97.1,13163],[97.1,13246],[97.1,13329],[97.1,13413],[97.1,13496],[97.1,13579],[97.1,13663],[97.1,13746],[97.1,13829],[97.1,13912],[97.1,13995],[97.1,14079],[97.1,14163]]",1242.8012,1248.5583,99.6875,4.6463,"[{""rating"":97.08333333333333,""responseTime"":3.923800000011852},{""rating"":99.6875,""responseTime"":4.646300000011934}]",space,5.215,,1248.5583,Definitely yes,100,1248.5604,,,[],,0,13,13,13,1,audio/Narrative8Situation4.wav,audio/Narrative7Situation4.wav,audio/Narrative6Situation4.wav,audio/Narrative5Situation4.wav,3,3,2,1,,,,,,,,,,,,,,,,,,,,,,,,,,,,,,,,,,,,,,,
,,,,,66bcffc3e6f77501141b3d0f,2025-07-07_23h04.14.235,group3.4_multiperson,2023.2.2,Win32,59.88023952,686c2ebf0248f13bef9af11f,686c8aa071dcd690be94d386,,,,,,,,,,,,,,,,,,,,,,,,,,,,,1248.5605,1,audio/Narrative8Situation5.wav,1250.565,,1250.565,1258.8295,[],1258.8296,1262.5213,98.33333333,2.4916,"[{""rating"":98.33333333333334,""responseTime"":2.491600000023709}]",space,3.1345,,1262.5213,Not at all,0,1262.5238,,,[],,0,14,14,14,1,audio/Narrative8Situation5.wav,audio/Narrative7Situation5.wav,audio/Narrative6Situation5.wav,audio/Narrative5Situation5.wav,2,5,2,5,,,,,,,,,,,,,,,,,,,,,,,,,,,,,,,,,,,,,,,
,,,,,66bcffc3e6f77501141b3d0f,2025-07-07_23h04.14.235,group3.4_multiperson,2023.2.2,Win32,59.88023952,686c2ebf0248f13bef9af11f,686c8aa071dcd690be94d386,,,,,,,,,,,,,,,,,,,,,,,,,,,,,1262.524,1,audio/Narrative8Situation6.wav,1264.5278,,1264.5278,1271.026,[],1271.0261,1276.5746,1.666666667,2.8411,"[{""rating"":1.6666666666666663,""responseTime"":2.8411000000237436}]",space,5.0003,,1276.5747,Not at all,0,1276.5773,,,[],,0,15,15,15,1,audio/Narrative8Situation6.wav,audio/Narrative7Situation6.wav,audio/Narrative6Situation6.wav,audio/Narrative5Situation6.wav,2,3,2,3,,,,,,,,,,,,,,,,,,,,,,,,,,,,,,,,,,,,,,,
,,,,,66bcffc3e6f77501141b3d0f,2025-07-07_23h04.14.235,group3.4_multiperson,2023.2.2,Win32,59.88023952,686c2ebf0248f13bef9af11f,686c8aa071dcd690be94d386,,,,,,,,,,,,,,,,,,,,,,,,,,,,,1276.5776,1,audio/Narrative8Situation7.wav,1279.5805,,1279.5805,1291.67,"[[2.9,1009],[3,1092],[3,1175],[3,1261],[3,1350],[3,1425],[3,1509],[3,1592],[3,1675],[3,1767],[3,1842],[3,1930],[3,2018],[3,2092],[3,2175],[3,2270],[3,2342],[3,2434],[3,2508],[3,2592],[3,2685],[3,2758],[3,2851],[3,2930],[3,3008],[3,3091],[3,3175],[3,3264],[3,3341],[3,3435],[3,3520],[3,3592],[3,3675],[3,3758],[3,3841],[3,3924],[3,4008],[3,4091],[3,4174],[3,4271],[3,4346],[3,4436],[11.4,4510],[53.2,4602],[81.4,4685],[86.6,4768],[88.5,4852],[92.7,4936],[92.7,5008],[94.3,5092],[96.9,5184],[97.1,5258],[98.6,5350],[98.9,5424],[99,5517],[99,5591],[99,5674],[99,5757],[99,5841],[99,5924],[99,6007],[99,6091],[99,6174],[99,6266],[99,6347],[99,6424],[99,6507],[99,6591],[99,6674],[99,6757],[99,6849],[99,6924],[99,7007],[99,7090],[99,7174],[99,7261],[99,7340],[99,7424],[99,7507],[99,7590],[99,7674],[99,7757],[99,7840],[99,7928],[99,8007],[99,8090],[99,8173],[99,8266],[99,8340],[99,8423],[99,8507],[99,8590],[99,8682],[99,8757],[99,8840],[99,8923],[99,9040],[99,9123],[99,9207],[99,9291],[99,9373],[99,9456],[99,9539],[99,9623],[99,9706],[99,9789],[99,9873],[99,9956],[99,10039],[99,10123],[99,10206],[99,10289],[99,10373],[99,10456],[99,10539],[99,10623],[99,10706],[99,10789],[99,10872],[99,10956],[99,11039],[99,11122],[99,11206],[99,11292],[99,11372],[98.8,11456],[98.8,11539],[98.8,11622],[98.8,11706],[98.8,11789],[98.8,11872],[98.8,11956],[98.8,12039]]",1291.6701,1294.0361,98.64583333,0.7419,"[{""rating"":98.64583333333333,""responseTime"":0.7419000000356846}]",space,1.8104,,1294.0362,Not at all,0,1294.038,,,[],,0,16,16,16,1,audio/Narrative8Situation7.wav,audio/Narrative7Situation7.wav,audio/Narrative6Situation7.wav,audio/Narrative5Situation7.wav,3,5,5,4,,,,,,,,,,,,,,,,,,,,,,,,,,,,,,,,,,,,,,,
,,,,,66bcffc3e6f77501141b3d0f,2025-07-07_23h04.14.235,group3.4_multiperson,2023.2.2,Win32,59.88023952,686c2ebf0248f13bef9af11f,686c8aa071dcd690be94d386,,,,,,,,,,,,,,,,,,,,,,,,,,,,,1294.0383,1,audio/Narrative8Situation8.wav,1297.0518,,1297.0519,1309.9313,"[[94.2,3998],[92,4082],[87.1,4165],[84.2,4248],[81.7,4332],[77.4,4415],[68.9,4498],[68.1,4581],[68.1,4664],[68.1,4748],[68.1,4831],[68.1,4914],[68.1,4998],[68.1,5081],[68.1,5164],[68.1,5248],[68.1,5331],[68.1,5414],[68.1,5498],[68.1,5581],[68.1,5664],[68.1,5748],[68.1,5831],[68.1,5914],[68.1,5997],[68.1,6081],[68.1,6164],[68.1,6247],[68.1,6331],[68.1,6414],[68.1,6497],[68.1,6581],[68.1,6664],[68.1,6747],[68.1,6831],[68.1,6914],[68.1,6997],[68.1,7081],[68.1,7164],[68.1,7247],[68.1,7330],[68.1,7414],[68.1,7497],[68.1,7580],[68.1,7664],[68.1,7747],[68.1,7830],[68.1,7914],[68.1,7997],[68.1,8080],[68.1,8164],[68.1,8247],[68.1,8330],[68.1,8413],[68.1,8497],[68.1,8580],[68.1,8663],[68.1,8747],[68.1,8830],[68.1,8913],[68.1,8997],[68.1,9080],[68.1,9163],[68.1,9247],[68.1,9330],[68.1,9413],[68.1,9497],[68.1,9580],[68.1,9663],[68.1,9747],[68.1,9830],[68.1,9913],[68.1,9996],[68.1,10080],[68.1,10163],[68.1,10246],[68.1,10330],[68.1,10413],[68.1,10497],[68.1,10580],[68.1,10663],[68.1,10746],[68.1,10830],[68.1,10913],[68.1,10996],[68.1,11079],[68.1,11163],[68.1,11246],[68.1,11330],[68.1,11413],[68.1,11506],[68.1,11579],[68.1,11663],[68.1,11746],[68.1,11829],[68.1,11912],[68.1,12009],[68.1,12096],[68.1,12179],[68.1,12262],[68.1,12346],[68.1,12429],[68.1,12512],[68.1,12596],[68.1,12679],[57,12772],[57,12855]]",1309.9315,1312.6571,99.16666667,1.5755,"[{""rating"":99.16666666666667,""responseTime"":1.5755000000001473}]",space,2.1767,,1312.6571,Not at all,0,1312.6584,,,[],,0,17,17,17,1,audio/Narrative8Situation8.wav,audio/Narrative7Situation8.wav,audio/Narrative6Situation8.wav,audio/Narrative5Situation8.wav,3,2,5,3,,,,,,,,,,,,,,,,,,,,,,,,,,,,,,,,,,,,,,,
,,,,,66bcffc3e6f77501141b3d0f,2025-07-07_23h04.14.235,group3.4_multiperson,2023.2.2,Win32,59.88023952,686c2ebf0248f13bef9af11f,686c8aa071dcd690be94d386,,,,,,,,,,,,,,,,,,,,,,,,,,,,,1312.6585,1,audio/Narrative8Situation9.wav,1315.6632,,1315.6633,1327.0188,"[[94.8,666],[84.3,750],[73.2,842],[62.9,926],[57,1008],[57,1082],[57,1166],[56.7,1249],[56.6,1332],[56.6,1415],[54.9,1509],[45.5,1593],[45.5,1666],[45.4,1749],[45.4,1832],[45.4,1916],[45.4,1999],[45.4,2082],[47.8,2176],[51.5,2258],[51.5,2332],[51.5,2424],[51.5,2498],[51.5,2591],[51.5,2665],[51.5,2758],[51.5,2832],[51.5,2915],[51.5,2999],[51.5,3082],[51.5,3165],[51.5,3248],[51.5,3338],[51.5,3415],[51.5,3498],[51.5,3581],[51.5,3665],[51.5,3748],[51.5,3841],[51.5,3915],[51.5,3998],[51.5,4081],[53.1,4174],[56.3,4258],[57.4,4331],[62,4424],[75.4,4498],[85.7,4591],[90.2,4677],[97.4,4758],[98.4,4832],[98.9,4924],[98.9,4998],[98.9,5081],[98.9,5164],[98.9,5248],[97.8,5341],[97.6,5414],[97.4,5507],[97.4,5581],[97.4,5664],[97.4,5748],[97.4,5831],[97.4,5914],[97.4,5998],[97.4,6081],[97.4,6164],[97.4,6248],[97.4,6331],[97.4,6414],[97.4,6497],[97.4,6581],[97.4,6664],[97.4,6747],[97.4,6840],[97.4,6914],[97.4,6997],[97.4,7081],[97.4,7164],[97.4,7247],[97.4,7330],[97.4,7421],[97.4,7497],[97.4,7580],[97.4,7664],[97.4,7747],[97.4,7830],[97.4,7914],[97.4,7997],[97.4,8080],[97.4,8163],[97.4,8247],[97.4,8330],[97.4,8413],[97.4,8497],[97.4,8580],[97.4,8663],[97.4,8756],[97.4,8830],[97.4,8913],[97.4,8997],[97.4,9080],[97.4,9163],[97.4,9247],[97.4,9339],[97.4,9413],[97.4,9496],[97.4,9589],[97.4,9663],[97.4,9746],[97.4,9830],[97.4,9913],[97.4,10001],[97.4,10080],[97.4,10163],[97.4,10246],[97.4,10330],[97.4,10414],[97.4,10496],[97.4,10580],[97.4,10664],[97.4,10746],[97.4,10830],[97.4,10913],[97.4,10996],[97.4,11079],[97.4,11172],[97.4,11246],[97.4,11329]]",1327.0189,1328.5929,98.125,0.669,"[{""rating"":98.125,""responseTime"":0.6690000000000964}]",space,1.0359,,1328.593,Not at all,0,1338.5494,0,5.8739,"[{""rating"":0.1041666666666663,""responseTime"":4.494700000047487},{""rating"":0,""responseTime"":5.873900000035746}]",space,0,18,18,18,1,audio/Narrative8Situation9.wav,audio/Narrative7Situation9.wav,audio/Narrative6Situation9.wav,audio/Narrative5Situation9.wav,3,2,4,3,,,9.3811,,,,,,,,,,,,,,,,,,,,,,,,,,,,,,,,,,,,
,,,,,66bcffc3e6f77501141b3d0f,2025-07-07_23h04.14.235,group3.4_multiperson,2023.2.2,Win32,59.88023952,686c2ebf0248f13bef9af11f,686c8aa071dcd690be94d386,,,,,,,,,,,,,,,,,,,,,,,,,,,1377.2473,1379.8288,1379.8706,2,audio/Narrative13Situation2.wav,1379.8706,,1379.8708,1409.6199,"[[1.1,990],[1.5,1074],[2.8,1166],[2.8,1248],[2.8,1323],[2.8,1406],[2.8,1499],[2.8,1582],[2.8,1657],[2.8,1740],[2.8,1823],[2.8,1906],[2.8,2020],[2.8,2090],[2.8,2173],[2.8,2258],[2.8,2340],[2.8,2434],[2.8,2516],[2.8,2589],[2.8,2673],[2.8,2756],[2.8,2839],[2.8,2923],[2.8,3006],[2.8,3089],[2.8,3172],[2.8,3256],[2.8,3339],[2.8,3422],[2.8,3506],[2.8,3589],[2.8,3673],[2.8,3756],[2.8,3839],[2.8,3923],[15.8,4007],[15.9,4089],[17.4,4173],[20,4256],[20,4339],[20,4422],[20,4505],[20,4591],[20,4672],[20,4755],[20,4839],[20,4922],[20,5006],[20,5089],[20,5172],[20,5255],[20,5339],[20,5422],[20,5505],[20,5588],[20,5672],[20,5755],[20,5838],[20,5922],[20,6005],[20,6088],[20,6172],[20,6255],[20,6338],[20,6422],[20,6505],[20,6588],[20,6672],[20,6755],[20,6838],[20,6922],[20,7062],[20,7146],[20,7230],[20,7305],[20,7388],[20,7479],[20,7559],[20,7646],[20,7721],[20,7805],[20,7888],[20,7971],[20,8064],[20,8138],[20,8230],[21,8305],[25,8398],[26.4,8481],[29.4,8565],[29.4,8647],[29.4,8721],[29.4,8806],[29.4,8888],[30.1,8981],[32.8,9064],[39.7,9147],[46.9,9230],[46.9,9313],[48.6,9397],[50.2,9480],[50.2,9554],[50.2,9637],[50.2,9721],[50.2,9804],[50.2,9887],[50.2,9975],[51.8,10063],[52,10138],[52.3,10221],[52.3,10304],[52.4,10394],[63.5,10480],[73.5,10565],[73.6,10637],[76.1,10731],[80.7,10814],[82.1,10897],[86.7,10981],[86.8,11064],[87.6,11147],[88,11222],[89.1,11314],[90.6,11398],[90.8,11479],[92.7,11564],[95.6,11648],[95.6,11720],[95.6,11803],[95.6,11887],[95.6,11970],[95.6,12053],[95.6,12137],[95.6,12220],[95.6,12305],[95.6,12387],[95.6,12470],[95.6,12564],[95.6,12636],[95.7,12720],[95.8,12812],[95.9,12896],[96,12979],[96,13062],[96,13146],[96,13229],[96,13303],[96,13386],[96.6,13470],[96.6,13564],[96.6,13636],[96.6,13720],[97.1,13812],[97.2,13892],[97.4,13979],[97.4,14053],[97.4,14136],[97.4,14220],[97.4,14303],[97.4,14386],[96.6,14470],[74.9,14562],[59.1,14645],[57.9,14719],[56.7,14812],[56.7,14886],[56.7,14969],[56.7,15053],[56.7,15136],[56.7,15219],[56.7,15312],[56.7,15386],[56.7,15469],[56.7,15552],[56.7,15636],[58.8,15729],[61.4,15812],[65.9,15896],[65.9,15969],[65.9,16062],[65.9,16136],[65.9,16219],[65.9,16302],[67.7,16395],[71.1,16478],[72.6,16552],[72.6,16635],[72.6,16719],[72.6,16802],[72.6,16885],[72.6,16969],[72.6,17052],[72.6,17135],[72.5,17229],[66.9,17312],[61.5,17395],[61,17469],[61,17552],[64.7,17646],[82.1,17728],[85.8,17802],[85.9,17885],[88.4,17978],[96.8,18062],[96.9,18135],[96.9,18218],[96.9,18302],[96.9,18385],[97.4,18468],[97.6,18552],[98.3,18644],[98.3,18718],[98.3,18801],[98.3,18885],[98.3,18978],[98.3,19052],[98.3,19135],[98.3,19227],[98.3,19301],[98.3,19385],[98.3,19477],[98.3,19560],[98.3,19639],[98.3,19718],[98.3,19801],[98.3,19885],[98.3,19972],[98.3,20051],[98.3,20144],[98.3,20218],[98.3,20301],[98.3,20384],[98.3,20468],[98.3,20551],[98.3,20634],[98.3,20718],[98.3,20810],[98.3,20884],[98.3,20968],[98.3,21051],[98.3,21134],[98.3,21217],[98.3,21301],[98.3,21384],[98.3,21467],[98.3,21551],[98.3,21643],[98.3,21717],[98.3,21810],[98.3,21893],[98.3,21967],[98.3,22051],[98.3,22144],[98.3,22217],[98.3,22310],[98.3,22384],[98.3,22467],[98.3,22551],[98.3,22634],[98.3,22718],[98.3,22809],[98.3,22884],[98.3,22967],[98.3,23050],[98.3,23134],[98.3,23217],[98.3,23300],[98.3,23384],[98.3,23467],[98.3,23559],[98.3,23633],[98.3,23717],[98.3,23800],[98.3,23884],[98.3,23967],[98.3,24050],[98.3,24133],[98.3,24217],[98.3,24300],[98.3,24383],[98.3,24466],[98.3,24550],[98.3,24642],[98.3,24716],[98.3,24800],[98.3,24883],[98.3,24966],[98.3,25050],[98.3,25133],[98.3,25216],[98.3,25300],[98.3,25412],[98.3,25495],[98.3,25579],[98.3,25649],[98.3,25733],[98.3,25816],[98.3,25899],[98.3,25983],[98.3,26066],[98.3,26149],[98.3,26233],[98.3,26316],[98.3,26399],[98.3,26483],[98.3,26566],[98.3,26649],[98.3,26732],[98.3,26816],[98.3,26899],[98.3,26982],[98.3,27066],[98.3,27149],[98.3,27233],[98.3,27316],[98.3,27399],[98.3,27482],[98.3,27568],[98.3,27649],[98.3,27735],[98.3,27816],[98.3,27899],[98.3,27982],[98.3,28066],[98.3,28149],[98.3,28232],[98.3,28315],[98.3,28399],[98.3,28482],[98.3,28566],[98.3,28649],[98.3,28732],[98.3,28815],[98.3,28898],[98.3,28982],[98.3,29065],[98.3,29148],[98.3,29232],[98.3,29315],[98.3,29415],[98.3,29499],[98.3,29582],[98.3,29672],[98.3,29748]]",1409.6202,1409.6232,,,[],,,,1409.6232,Definitely yes,100,1409.6252,,,[],,0,0,0,0,1,audio/Narrative13Situation2.wav,audio/Narrative13Situation2.wav,audio/Narrative13Situation2.wav,audio/Narrative13Situation2.wav,2,2,2,2,,,,,1338.5498,1377.2468,space,38.1734,,,,,,,,,,,,,,,,,,,,,,,,,,,,,,,
,,,,,66bcffc3e6f77501141b3d0f,2025-07-07_23h04.14.235,group3.4_multiperson,2023.2.2,Win32,59.88023952,686c2ebf0248f13bef9af11f,686c8aa071dcd690be94d386,,,,,,,,,,,,,,,,,,,,,,,,,,,,,1409.6254,2,audio/Narrative5Situation1.wav,1414.6348,,1414.6349,1427.9313,"[[999,0],[999,97],[999,176],[999,249],[999,333],[999,416],[999,499],[999,583],[999,666],[999,749],[999,833],[999,916],[999,1000],[999,1092],[999,1166],[80.3,1259],[67.3,1342],[69.1,2259],[72.6,2342],[72.6,2415],[72.6,2499],[72.6,2582],[72.6,2665],[72.6,2749],[72.7,2832],[73.2,2916],[80.8,2999],[82.6,3092],[86,3175],[86.4,3258],[87.9,3342],[87.9,3415],[87.9,3499],[84.7,3592],[80.8,3675],[80.8,3748],[80.8,3832],[80.6,3916],[77.3,3998],[73.4,4091],[73.4,4165],[73.4,4248],[73.4,4332],[72.1,4415],[68.4,4509],[58.9,4591],[53.9,4675],[50.6,4748],[50.6,4831],[50.6,4915],[50.5,4998],[50.5,5081],[50.5,5165],[50.5,5248],[50.5,5331],[50.5,5415],[50.5,5498],[50.5,5581],[50.5,5664],[50.5,5748],[50.5,5832],[50.5,5915],[50.5,5998],[50.5,6081],[50.5,6164],[50.5,6248],[50.5,6331],[50.5,6414],[50.5,6498],[50.5,6581],[50.5,6664],[50.5,6748],[50.5,6831],[50.5,6914],[50.5,6997],[50.5,7081],[50.5,7164],[50.5,7247],[50.5,7340],[50.5,7414],[50.5,7497],[50.5,7581],[50.5,7664],[50.5,7747],[50.5,7831],[50.5,7914],[50.5,7997],[50.5,8080],[50.5,8164],[50.5,8248],[50.5,8331],[50.5,8414],[50.5,8497],[50.5,8581],[50.5,8664],[50.5,8747],[50.5,8830],[50.5,8914],[50.5,8997],[50.5,9085],[50.5,9164],[50.5,9247],[50.5,9331],[50.5,9413],[50.5,9497],[50.5,9580],[50.5,9664],[50.5,9747],[50.5,9830],[50.5,9913],[50.5,9997],[50.5,10080],[50.5,10163],[50.5,10247],[50.5,10330],[50.5,10413],[50.5,10497],[50.5,10580],[50.5,10663],[50.5,10747],[50.5,10830],[50.5,10913],[50.5,10996],[50.5,11089],[50.5,11163],[50.5,11246],[50.5,11330],[50.5,11413],[50.5,11496],[50.5,11580],[50.5,11663],[50.5,11756],[50.5,11829],[50.5,11913],[50.5,11996],[50.5,12079],[50.5,12163],[50.5,12246],[50.5,12329],[50.5,12413],[50.5,12496],[50.5,12579],[50.5,12663],[50.5,12746],[50.5,12829],[50.5,12913],[50.5,12996],[50.5,13079],[50.5,13162],[50.5,13255]]",1427.9315,1437.0791,50.41666667,8.4231,"[{""rating"":50.416666666666664,""responseTime"":8.423099999964279}]",space,8.5984,,1437.0793,Partially,50,1437.0859,,,[],,0,1,1,1,1,audio/Narrative7Situation1.wav,audio/Narrative8Situation1.wav,audio/Narrative5Situation1.wav,audio/Narrative6Situation1.wav,2,5,5,2,,,,,,,,,,,,,,,,,,,,,,,,,,,,,,,,,,,,,,,
,,,,,66bcffc3e6f77501141b3d0f,2025-07-07_23h04.14.235,group3.4_multiperson,2023.2.2,Win32,59.88023952,686c2ebf0248f13bef9af11f,686c8aa071dcd690be94d386,,,,,,,,,,,,,,,,,,,,,,,,,,,,,1437.0865,2,audio/Narrative5Situation2.wav,1440.0945,,1440.0945,1469.562,"[[50.2,2841],[50.2,2924],[50,3009],[50,3082],[50,3166],[50,3249],[50,3332],[50,3415],[50,3499],[50,3588],[50,3665],[50,3748],[50,3832],[50,3915],[50,3998],[50,4082],[50,4165],[50,4257],[50,4331],[50,4415],[50,4498],[50,4581],[50,4665],[50,4748],[50,4831],[50,4914],[50,4998],[50,5090],[50,5164],[50,5248],[50,5340],[50,5424],[50,5498],[50,5590],[50,5664],[50,5756],[50,5831],[50,5914],[50,5998],[50,6090],[50,6164],[50,6247],[50,6340],[50,6432],[50,6514],[50,6597],[50,6681],[50,6764],[50,6847],[50,6931],[50,7014],[50,7097],[50,7181],[50,7264],[50,7347],[50,7431],[50,7514],[50,7597],[50,7680],[50,7764],[50,7847],[50,7930],[50,8014],[50,8097],[50,8180],[50,8264],[50,8347],[50,8430],[50,8513],[52,8597],[52.1,8680],[52.7,8771],[53,8847],[53.8,8930],[53.8,9013],[53.8,9097],[53.8,9180],[53.8,9263],[53.8,9347],[53.8,9430],[53.8,9513],[53.8,9596],[53.8,9680],[53.8,9763],[53.8,9846],[53.8,9930],[53.8,10013],[53.8,10096],[53.8,10180],[53.8,10263],[53.8,10346],[53.8,10430],[53.8,10513],[53.8,10596],[53.8,10679],[53.8,10763],[53.8,10854],[53.8,10930],[53.8,11013],[53.8,11096],[53.8,11179],[53.8,11271],[53.8,11346],[53.8,11429],[53.8,11513],[53.8,11596],[53.8,11688],[53.8,11770],[53.8,11854],[53.8,11929],[53.8,12021],[53.8,12096],[53.8,12179],[53.8,12262],[53.8,12355],[53.8,12429],[53.8,12512],[53.8,12596],[53.8,12679],[53.8,12762],[53.8,12855],[53.8,12929],[53.8,13022],[53.8,13096],[53.8,13179],[53.8,13262],[53.8,13345],[53.8,13429],[53.8,13512],[53.8,13596],[53.8,13683],[53.8,13771],[53.8,13845],[53.8,13938],[53.8,14012],[53.8,14095],[53.8,14188],[53.8,14262],[53.8,14345],[53.8,14429],[53.8,14512],[53.8,14604],[53.8,14678],[53.8,14762],[53.8,14845],[53.8,14928],[53.8,15012],[53.8,15095],[53.8,15178],[53.8,15262],[53.8,15345],[53.8,15428],[53.8,15512],[53.8,15604],[53.8,15678],[53.8,15770],[53.8,15855],[53.8,15928],[53.8,16012],[53.8,16095],[53.8,16178],[53.8,16261],[53.8,16345],[53.8,16428],[53.8,16521],[53.8,16595],[53.9,16687],[53.9,16761],[53.9,16844],[53.9,16928],[53.9,17011],[53.9,17095],[53.9,17178],[53.9,17261],[53.9,17344],[53.9,17428],[53.9,17511],[53.9,17603],[53.9,17678],[53.9,17761],[53.9,17844],[53.9,17928],[53.9,18015],[53.9,18094],[53.9,18178],[53.9,18261],[53.9,18344],[53.9,18427],[53.9,18511],[53.9,18594],[53.9,18677],[53.9,18765],[53.9,18844],[53.9,18927],[53.9,19011],[53.9,19094],[53.9,19177],[53.9,19265],[53.9,19353],[53.9,19427],[53.9,19519],[53.9,19594],[53.9,19677],[53.9,19761],[53.9,19844],[53.9,19927],[53.9,20010],[53.9,20094],[53.9,20177],[53.9,20260],[53.9,20344],[53.9,20427],[53.9,20510],[53.9,20598],[53.9,20677],[53.9,20760],[53.9,20843],[53.9,20927],[53.9,21019],[53.9,21093],[53.9,21176],[53.9,21269],[53.9,21343],[53.9,21427],[53.9,21510],[53.9,21593],[53.9,21676],[53.9,21760],[53.9,21843],[53.9,21926],[53.9,22010],[53.9,22093],[53.9,22176],[53.9,22260],[53.9,22343],[53.9,22426],[53.9,22519],[53.9,22593],[53.9,22676],[53.9,22769],[53.9,22843],[53.9,22926],[53.9,23009],[59,23103],[60.7,23186],[79.6,23270],[83.6,23353],[88.1,23436],[92.6,23509],[92.7,23593],[93.3,23676],[98.5,23769],[98.5,23842],[98.5,23926],[98.5,24009],[98.5,24092],[98.5,24176],[98.5,24259],[98.5,24351],[98.5,24426],[98.5,24509],[98.5,24592],[98.5,24676],[98.5,24772],[98.5,24842],[98.5,24926],[98.5,25009],[98.5,25092],[98.5,25176],[98.5,25259],[98.5,25342],[98.5,25425],[98.5,25509],[98.5,25592],[98.5,25675],[98.5,25759],[98.5,25846],[98.5,25925],[98.5,26009],[98.5,26092],[98.5,26175],[98.5,26258],[98.5,26342],[98.5,26425],[98.5,26508],[98.5,26592],[98.5,26680],[98.5,26758],[98.5,26842],[98.5,26926],[98.5,27008],[98.5,27092],[98.5,27175],[98.5,27258],[98.5,27341],[98.5,27425],[98.5,27508],[98.5,27591],[98.5,27675],[98.5,27758],[89.1,27851],[89.1,27925],[87.9,28018],[87.9,28091],[87.9,28175],[87.9,28258],[87.9,28341],[87.9,28425],[87.9,28508],[88.6,28601],[88.9,28674],[90.2,28767],[93.6,28851],[93.6,28924],[93.8,29008],[95,29101],[95.6,29174],[96.5,29268],[96.9,29351],[98.1,29434]]",1469.5622,1472.8684,98.22916667,1.9329,"[{""rating"":98.22916666666667,""responseTime"":1.9328999999761436}]",space,2.7496,,1472.8685,Not at all,0,1472.8708,,,[],,0,2,2,2,1,audio/Narrative7Situation2.wav,audio/Narrative8Situation2.wav,audio/Narrative5Situation2.wav,audio/Narrative6Situation2.wav,3,3,3,3,,,,,,,,,,,,,,,,,,,,,,,,,,,,,,,,,,,,,,,
,,,,,66bcffc3e6f77501141b3d0f,2025-07-07_23h04.14.235,group3.4_multiperson,2023.2.2,Win32,59.88023952,686c2ebf0248f13bef9af11f,686c8aa071dcd690be94d386,,,,,,,,,,,,,,,,,,,,,,,,,,,,,1472.8711,2,audio/Narrative5Situation3.wav,1475.8842,,1475.8843,1489.7976,"[[85.7,1093],[73.2,1176],[65,1259],[64.6,1342],[56.7,1425],[50.2,1509],[50.2,1592],[50.2,1666],[50.2,1749],[50.2,1832],[50.2,1916],[50.2,1999],[50.2,2086],[50.2,2174],[50.2,2282],[50.2,2365],[50.2,2449],[50.2,2532],[50.2,2615],[50.2,2713],[50.2,2782],[50.2,2865],[50.2,2948],[50.2,3032],[50.2,3115],[50.2,3198],[50.2,3282],[50.2,3365],[50.2,3448],[50.2,3532],[50.2,3615],[50.2,3698],[50.2,3782],[50.2,3865],[50.2,3948],[50.2,4031],[50.2,4115],[50.2,4198],[50.2,4281],[50.2,4365],[50.2,4448],[50.2,4531],[50.2,4615],[50.2,4698],[50.2,4781],[50.2,4865],[50.2,4948],[50.2,5031],[50.2,5114],[50.2,5198],[50.2,5281],[50.2,5365],[50.2,5448],[50.2,5531],[50.2,5614],[50.2,5698],[50.2,5781],[50.2,5864],[50.2,5948],[50.2,6031],[50.2,6114],[50.2,6197],[50.2,6281],[50.2,6364],[50.2,6448],[50.2,6531],[50.2,6655],[50.2,6731],[50.2,6822],[50.2,6897],[50.2,6981],[50.2,7064],[50.2,7147],[50.2,7231],[50.2,7314],[50.2,7397],[50.2,7480],[50.2,7564],[50.2,7647],[50.2,7730],[50.2,7814],[50.2,7897],[50.2,7980],[50.2,8064],[50.2,8147],[50.2,8230],[50.2,8314],[50.2,8397],[50.2,8480],[50.2,8573],[50.2,8647],[50.2,8730],[50.2,8813],[50.2,8897],[50.2,8980],[50.2,9068],[50.2,9151],[50.2,9230],[50.2,9322],[50.2,9397],[50.2,9480],[50.2,9572],[50.2,9656],[50.2,9730],[50.2,9822],[50.2,9896],[50.2,9980],[50.2,10072],[50.2,10156],[50.2,10230],[50.2,10313],[50.2,10396],[50.2,10480],[50.2,10563],[50.2,10646],[50.2,10730],[50.2,10813],[50.2,10896],[50.2,10980],[50.2,11072],[50.2,11146],[50.2,11230],[50.2,11313],[50.2,11396],[50.2,11479],[50.2,11563],[50.2,11646],[50.2,11739],[50.2,11822],[50.2,11896],[50.2,11979],[50.2,12062],[50.2,12146],[50.2,12238],[50.2,12313],[50.2,12396],[50.2,12479],[50.2,12562],[50.2,12646],[50.2,12729],[50.2,12813],[50.2,12896],[50.2,12979],[50.2,13062],[50.2,13145],[50.2,13229],[50.2,13313],[50.2,13396],[50.2,13479],[50.2,13563],[50.2,13646],[50.2,13738],[50.2,13812],[50.2,13896]]",1489.7978,1497.5041,50.10416667,6.4229,"[{""rating"":50.10416666666667,""responseTime"":6.422900000035725}]",space,7.1513,,1497.5041,Not at all,0,1497.5055,,,[],,0,3,3,3,1,audio/Narrative7Situation3.wav,audio/Narrative8Situation3.wav,audio/Narrative5Situation3.wav,audio/Narrative6Situation3.wav,8,4,3,5,,,,,,,,,,,,,,,,,,,,,,,,,,,,,,,,,,,,,,,
,,,,,66bcffc3e6f77501141b3d0f,2025-07-07_23h04.14.235,group3.4_multiperson,2023.2.2,Win32,59.88023952,686c2ebf0248f13bef9af11f,686c8aa071dcd690be94d386,,,,,,,,,,,,,,,,,,,,,,,,,,,,,1497.5058,2,audio/Narrative5Situation4.wav,1498.5112,,1498.5113,1518.9172,"[[48.8,14754],[47.7,14838],[45.5,14921],[45.5,14995],[45.5,15078],[45.5,15162],[45.5,15245],[45.5,15329],[45.5,15412],[47.1,15504],[50.7,15588],[52.1,15661],[52.1,15745],[52.1,15828],[52.1,15912],[52.1,15995],[52.1,16078],[52.1,16162],[52.2,16245],[50.9,16338],[49.3,16422],[48.9,16494],[48.8,16578],[48.6,16661],[49.9,16754],[54.2,16837],[60.1,16921],[68.5,17004],[76.5,17087],[87.9,17171],[88,17244],[88.3,17328],[91.1,17421],[91.9,17495],[92.8,17588],[93.2,17661],[93.5,17744],[93.5,17827],[93.5,17911],[93.5,17994],[93.5,18077],[93.5,18171],[93.5,18244],[93.5,18327],[93.6,18420],[93.6,18494],[94,18578],[94,18669],[94.1,18744],[94.1,18827],[94.1,18920],[94.1,19003],[94.1,19086],[94.1,19160],[94.1,19244],[94.1,19327],[94.1,19410],[94.1,19494],[94.1,19577],[95.5,19671],[95.6,19744],[95.6,19827],[95.8,19910],[96,19994],[96.8,20077],[96.9,20171],[97,20246],[97,20328]]",1518.9175,1534.2008,96.875,13.85,"[{""rating"":98.64583333333333,""responseTime"":0.8105000000000473},{""rating"":98.125,""responseTime"":5.3433999999761},{""rating"":99.79166666666667,""responseTime"":6.209799999952338},{""rating"":93.64583333333334,""responseTime"":12.310500000000047},{""rating"":96.14583333333333,""responseTime"":13.106799999952273},{""rating"":96.875,""responseTime"":13.849999999999909}]",space,14.7506,,1534.2009,Definitely yes,100,1534.2031,,,[],,0,4,4,4,1,audio/Narrative7Situation4.wav,audio/Narrative8Situation4.wav,audio/Narrative5Situation4.wav,audio/Narrative6Situation4.wav,3,3,1,2,,,,,,,,,,,,,,,,,,,,,,,,,,,,,,,,,,,,,,,
,,,,,66bcffc3e6f77501141b3d0f,2025-07-07_23h04.14.235,group3.4_multiperson,2023.2.2,Win32,59.88023952,686c2ebf0248f13bef9af11f,686c8aa071dcd690be94d386,,,,,,,,,,,,,,,,,,,,,,,,,,,,,1534.2033,2,audio/Narrative5Situation5.wav,1539.2161,,1539.2161,1554.6387,[],1554.6388,1560.2605,0.9375,3.1154,"[{""rating"":0.9375000000000022,""responseTime"":3.1153999999760345}]",space,5.0847,,1560.2606,Not at all,0,1560.2648,,,[],,0,5,5,5,1,audio/Narrative7Situation5.wav,audio/Narrative8Situation5.wav,audio/Narrative5Situation5.wav,audio/Narrative6Situation5.wav,5,2,5,2,,,,,,,,,,,,,,,,,,,,,,,,,,,,,,,,,,,,,,,
,,,,,66bcffc3e6f77501141b3d0f,2025-07-07_23h04.14.235,group3.4_multiperson,2023.2.2,Win32,59.88023952,686c2ebf0248f13bef9af11f,686c8aa071dcd690be94d386,,,,,,,,,,,,,,,,,,,,,,,,,,,,,1560.2653,2,audio/Narrative5Situation6.wav,1563.2762,,1563.2762,1568.9743,"[[36.1,999],[37.4,1091],[39.1,1177],[39.1,1249],[39.1,1332],[36.4,1426],[25.8,1508],[25.8,1582],[25.8,1665],[26.6,1749],[30.3,1842],[33.5,1925],[35,2009],[36.6,2091],[38.8,2175],[41.1,2258],[42.8,2342],[44.4,2415],[44.4,2499],[46.5,2592],[47.4,2674],[47.4,2749],[47.4,2832],[47.4,2915],[49.1,2999],[49.8,3092],[49.9,3174],[50,3257],[50.1,3341],[50.1,3415],[50.1,3498],[50.1,3581],[50.1,3665],[50.1,3748],[50.1,3831],[50.1,3915],[50.1,3999],[50,4083],[49.6,4165],[49.6,4248],[49.6,4331],[49.6,4414],[49.6,4498],[49.6,4582],[49.6,4665],[49.6,4748],[49.6,4831],[49.6,4915],[49.6,4998],[49.6,5081],[49.6,5169],[49.6,5257],[49.6,5331],[49.6,5414],[49.6,5498],[49.6,5590],[49.6,5664]]",1568.9745,1572.8407,98.75,2.0252,"[{""rating"":98.75,""responseTime"":2.02519999998799}]",space,3.3262,,1572.8408,Not at all,0,1579.5974,0,4.2069,"[{""rating"":1.5625,""responseTime"":3.4765000000002146},{""rating"":0,""responseTime"":4.206899999976258}]",space,0,6,6,6,1,audio/Narrative7Situation6.wav,audio/Narrative8Situation6.wav,audio/Narrative5Situation6.wav,audio/Narrative6Situation6.wav,3,2,3,2,,,6.2051,,,,,,,,,,,,,,,,,,,,,,,,,,,,,,,,,,,,
,,,,,66bcffc3e6f77501141b3d0f,2025-07-07_23h04.14.235,group3.4_multiperson,2023.2.2,Win32,59.88023952,686c2ebf0248f13bef9af11f,686c8aa071dcd690be94d386,,,,,,,,,,,,,,,,,,,,,,,,,,,,,1579.5977,2,audio/Narrative5Situation7.wav,1583.6035,,1583.6036,1604.6476,"[[34.1,175],[34.1,249],[34.1,333],[34.1,425],[34.1,499],[34.1,591],[34.1,666],[34.1,749],[34.1,833],[34,916],[35.4,1009],[36.6,1092],[38.4,1176],[39.2,1249],[41.8,1342],[44.1,1416],[44.1,1499],[46.4,1592],[47.4,1666],[47.4,1758],[47.4,1841],[47.4,1915],[47.4,2008],[47.4,2082],[47.4,2166],[47.4,2249],[47.4,2332],[47.4,2416],[47.4,2499],[47.4,2582],[47.4,2665],[47.4,2749],[47.4,2832],[47.4,2915],[47.4,3009],[47.4,3090],[47.4,3165],[47.4,3248],[47.4,3332],[47.4,3415],[47.4,3507],[47.4,3582],[47.4,3665],[47.4,3749],[47.4,3832],[47.4,3915],[47.4,4009],[47.4,4081],[47.4,4165],[47.4,4248],[47.4,4332],[47.4,4424],[47.4,4503],[47.4,4582],[47.4,4665],[47.4,4748],[47.4,4831],[47.4,4924],[47.4,4998],[47.4,5081],[47.4,5165],[47.4,5257],[47.4,5331],[47.4,5414],[47.4,5498],[47.4,5581],[47.4,5665],[47.4,5748],[47.4,5831],[47.4,5914],[47.4,6006],[47.4,6081],[47.4,6164],[47.4,6248],[47.4,6335],[47.4,6414],[47.4,6498],[47.4,6581],[47.4,6664],[47.4,6747],[47.4,6840],[47.4,6914],[47.4,7006],[47.4,7081],[47.4,7164],[47.4,7247],[47.4,7331],[47.4,7414],[47.4,7497],[47.4,7590],[47.4,7664],[47.4,7748],[47.4,7830],[47.4,7914],[47.4,8006],[47.4,8080],[47.4,8164],[47.4,8247],[47.4,8331],[47.4,8414],[47.4,8497],[47.4,8580],[47.4,8664],[47.4,8747],[47.4,8830],[47.4,8913],[47.4,8997],[47.4,9080],[47.4,9163],[47.4,9247],[47.4,9330],[47.4,9413],[47.4,9497],[47.4,9590],[47.4,9663],[47.4,9747],[47.4,9830],[47.4,9913],[47.4,9997],[47.4,10084],[47.5,10163],[47.5,10247],[47.5,10330],[47.5,10413],[47.5,10496],[47.5,10580],[47.5,10663],[47.5,10746],[47.5,10830],[47.5,10913],[47.5,10996],[47.5,11080],[47.5,11163],[47.5,11246],[47.5,11330],[47.5,11413],[47.5,11496],[47.5,11580],[47.5,11663],[47.5,11746],[47.5,11829],[47.5,11913],[47.5,11996],[47.5,12079],[47.5,12163],[47.5,12247],[47.5,12334],[47.5,12413],[47.5,12496],[47.5,12579],[47.5,12663],[47.5,12746],[47.5,12829],[47.5,12912],[47.5,12996],[47.5,13079],[47.5,13162],[47.5,13246],[47.5,13329],[47.5,13412],[47.5,13496],[47.5,13579],[47.6,13662],[47.7,13746],[47.7,13829],[48.9,13922],[49,14005],[49.5,14090],[50.7,14162],[50.7,14245],[50.7,14329],[50.7,14421],[50.7,14495],[50.7,14579],[50.7,14662],[50.7,14745],[50.7,14829],[50.7,14912],[50.7,15005],[50.7,15082],[50.7,15162],[50.7,15245],[50.7,15328],[50.7,15412],[50.7,15505],[50.7,15578],[50.7,15662],[50.7,15745],[50.7,15828],[50.7,15912],[50.7,15995],[50.7,16078],[50.7,16161],[50.7,16245],[50.7,16328],[50.7,16411],[50.7,16495],[50.7,16578],[50.7,16662],[50.7,16745],[50.7,16828],[50.7,16912],[50.7,16995],[50.7,17078],[50.7,17161],[50.7,17244],[50.7,17328],[50.7,17411],[50.7,17495],[50.7,17578],[50.7,17666],[50.7,17744],[50.7,17828],[50.7,17911],[50.7,17994],[50.7,18077],[50.7,18161],[50.7,18244],[50.7,18327],[50.7,18411],[50.7,18494],[50.7,18577],[50.7,18661],[50.7,18744],[50.7,18836],[50.7,18911],[50.7,19003],[50.7,19077],[50.7,19161],[50.7,19244],[50.7,19327],[50.7,19411],[50.7,19494],[50.7,19577],[50.7,19660],[50.7,19744],[50.7,19827],[50.7,19920],[50.7,19994],[50.7,20077],[50.7,20160],[50.7,20244],[50.7,20327],[50.7,20411],[50.7,20494],[50.7,20577],[50.8,20669],[51.1,20744],[51.1,20827],[51.1,20910],[51.1,20993]]",1604.6477,1606.9902,49.89583333,0.8311,"[{""rating"":49.895833333333336,""responseTime"":0.8311000000237527}]",space,1.8006,,1606.9902,Definitely yes,100,1606.9923,,,[],,0,7,7,7,1,audio/Narrative7Situation7.wav,audio/Narrative8Situation7.wav,audio/Narrative5Situation7.wav,audio/Narrative6Situation7.wav,5,3,4,5,,,,,,,,,,,,,,,,,,,,,,,,,,,,,,,,,,,,,,,
,,,,,66bcffc3e6f77501141b3d0f,2025-07-07_23h04.14.235,group3.4_multiperson,2023.2.2,Win32,59.88023952,686c2ebf0248f13bef9af11f,686c8aa071dcd690be94d386,,,,,,,,,,,,,,,,,,,,,,,,,,,,,1606.9925,2,audio/Narrative5Situation8.wav,1609.9961,,1609.9961,1618.8202,"[[54.6,833],[49.5,926],[45.1,1009],[41.9,1092],[33.8,1176],[29.3,1250],[28.3,1342],[27.5,1416],[27.5,1499],[32.1,1592],[37.1,1675],[41.9,1759],[42.8,1842],[45.6,1925],[45.9,1999],[46.6,2082],[48.1,2175],[48.3,2259],[48.3,2332],[48.3,2415],[48.5,2499],[48.6,2582],[48.6,2665],[48.6,2749],[48.6,2832],[48.6,2915],[48.6,2999],[48.6,3082],[48.6,3165],[48.6,3248],[48.6,3332],[48.6,3415],[48.6,3498],[48.6,3582],[48.6,3665],[48.6,3748],[48.6,3831],[48.6,3915],[48.6,3998],[48.6,4081],[48.6,4165],[48.6,4248],[48.6,4332],[48.6,4415],[48.6,4508],[48.6,4582],[48.6,4665],[48.6,4752],[48.6,4840],[48.6,4915],[48.6,5002],[48.6,5081],[48.6,5165],[48.6,5248],[48.6,5331],[48.6,5424],[48.6,5499],[48.6,5590],[48.6,5664],[48.6,5748],[48.6,5831],[48.6,5914],[48.6,5998],[48.6,6081],[3,6674],[1.9,6756],[1.9,6831],[1.9,6914],[1.9,6997],[1.9,7081],[1.9,7164],[1.9,7247],[1.9,7331],[1.9,7414],[1.9,7497],[1.9,7580],[0.3,7673],[0.2,7747],[0.2,7830],[0.2,7914],[0.2,7997],[0.2,8080],[0.2,8164],[0.2,8247],[0.1,8340],[0.3,8423],[0.3,8497],[0.3,8590],[0.8,8673],[1,8747]]",1618.8203,1621.8358,0.520833333,0.98,"[{""rating"":0.5208333333333315,""responseTime"":0.9800000000000182}]",space,2.471,,1621.8359,Definitely yes,100,1621.8374,,,[],,0,8,8,8,1,audio/Narrative7Situation8.wav,audio/Narrative8Situation8.wav,audio/Narrative5Situation8.wav,audio/Narrative6Situation8.wav,2,3,3,5,,,,,,,,,,,,,,,,,,,,,,,,,,,,,,,,,,,,,,,
,,,,,66bcffc3e6f77501141b3d0f,2025-07-07_23h04.14.235,group3.4_multiperson,2023.2.2,Win32,59.88023952,686c2ebf0248f13bef9af11f,686c8aa071dcd690be94d386,,,,,,,,,,,,,,,,,,,,,,,,,,,,,1621.8376,2,audio/Narrative5Situation9.wav,1624.8417,,1624.8418,1664.3974,"[[23.9,843],[21.3,917],[17.9,999],[15.6,1092],[15.4,1166],[8.1,1259],[6.8,1343],[4.8,1426],[4.5,1499],[4.5,1582],[4.2,1675],[4.2,1749],[9,1842],[16.7,1925],[26.1,2009],[30.5,2092],[34.3,2175],[42.8,2259],[48.2,2343],[48.2,2415],[48.2,2499],[50,2592],[51.4,2665],[51.5,2749],[51.5,2832],[51.5,2915],[51.5,2999],[51.5,3082],[51.5,3165],[51.5,3248],[51.5,3332],[51.5,3416],[51.5,3499],[51.5,3582],[51.5,3665],[51.5,3749],[51.5,3832],[51.5,3915],[51.5,3998],[51.5,4081],[51.5,4165],[51.5,4248],[51.5,4332],[51.5,4415],[51.5,4498],[51.5,4581],[51.5,4665],[51.5,4748],[51.5,4836],[51.5,4915],[51.5,4998],[51.5,5091],[51.5,5165],[51.5,5252],[51.5,5331],[51.5,5415],[51.5,5498],[51.5,5581],[51.5,5665],[51.5,5748],[51.5,5831],[51.5,5914],[51.5,6009],[51.5,6081],[51.5,6164],[51.5,6248],[51.5,6331],[51.5,6414],[51.5,6502],[51.5,6581],[51.5,6664],[51.5,6748],[51.5,6831],[51.5,6914],[51.5,6997],[58.4,7081],[73.1,7174],[74.4,7248],[79.4,7331],[83.5,7424],[89,7498],[90.9,7590],[94.3,7674],[95.2,7757],[96.6,7840],[97,7914],[97.3,8007],[97.5,8080],[97.7,8173],[97.7,8248],[97.7,8331],[97.7,8414],[97.7,8497],[97.7,8581],[97.7,8664],[97.7,8747],[97.7,8831],[97.7,8914],[97.7,9006],[97.7,9089],[97.7,9164],[97.7,9247],[97.7,9330],[97.7,9414],[97.7,9497],[97.7,9580],[97.7,9663],[97.7,9747],[97.7,9830],[97.7,9923],[97.7,9997],[97.7,10089],[97.7,10163],[97.7,10247],[97.7,10335],[97.7,10413],[97.7,10497],[97.7,10580],[97.7,10663],[97.7,10747],[97.7,10830],[97.7,10913],[97.7,10996],[97.7,11080],[97.7,11172],[97.7,11246],[97.7,11330],[97.7,11413],[97.7,11496],[97.7,11579],[97.7,11672],[97.7,11747],[97.7,11830],[97.7,11913],[97.7,12005],[97.7,12089],[97.7,12172],[97.7,12246],[97.7,12329],[97.7,12423],[97.7,12501],[97.7,12579],[97.7,12663],[97.7,12746],[97.7,12829],[97.7,12913],[97.7,12996],[97.7,13079],[97.7,13162],[97.7,13246],[97.7,13329],[97.7,13412],[97.7,13496],[97.7,13579],[97.7,13662],[97.7,13745],[97.7,13829],[97.7,13912],[97.7,13995],[97.7,14079],[97.7,14162],[97.7,14245],[97.7,14329],[97.7,14412],[97.7,14495],[97.7,14579],[97.7,14662],[97.7,14745],[97.7,14829],[97.7,14912],[97.7,14995],[97.7,15078],[97.7,15171],[97.7,15245],[97.7,15328],[97.7,15412],[97.7,15495],[97.7,15578],[97.7,15662],[97.7,15745],[97.7,15828],[97.7,15912],[97.7,15995],[97.7,16087],[97.7,16161],[97.7,16254],[97.7,16328],[97.6,16421],[97.5,16495],[97.3,16588],[97.2,16661],[97.2,16745],[97.2,16828],[97.2,16911],[97.2,16994],[97.2,17078],[97.2,17161],[97.2,17245],[97.2,17328],[97.2,17411],[97.2,17495],[97.2,17578],[97.2,17661],[97.2,17744],[97.2,17828],[97.2,17911],[97.2,17994],[97.2,18078],[97.2,18161],[97.2,18244],[97.2,18328],[97.2,18411],[97.2,18494],[97.2,18582],[97.2,18661],[97.2,18744],[97.2,18827],[97.2,18911],[97.2,18994],[97.2,19077],[97.2,19161],[97.2,19244],[97.2,19327],[97.2,19411],[97.2,19494],[97.2,19577],[97.2,19661],[97.2,19744],[97.2,19827],[97.2,19911],[97.2,19994],[97.2,20077],[97.2,20160],[97.2,20244],[97.2,20327],[97.2,20410],[97.2,20494],[97.2,20577],[97.2,20669],[97.2,20744],[97.2,20827],[97.2,20910],[97.2,20993],[97.2,21084],[97.2,21164],[97.2,21243],[97.2,21327],[97.2,21410],[97.2,21493],[97.2,21577],[97.2,21660],[97.2,21753],[97.2,21827],[97.2,21910],[97.2,21993],[97.2,22077],[97.2,22160],[97.2,22243],[97.2,22326],[97.2,22419],[96.1,22503],[96.1,22576],[95.8,22671],[95.6,22743],[95.5,22828],[95.5,22910],[95.5,22993],[95.6,23077],[95.9,23159],[96,23243],[96.3,23336],[96.3,23410],[96.3,23493],[96.3,23576],[96.3,23660],[96.3,23752],[96.3,23826],[96.3,23910],[96.3,24001],[96.3,24076],[96.3,24159],[96.3,24252],[96.3,24326],[96.3,24409],[96.3,24492],[96.3,24576],[96.3,24659],[96.3,24742],[96.3,24826],[96.3,24909],[96.3,24992],[96.3,25076],[96.3,25159],[96.3,25242],[96.3,25326],[96.3,25409],[96.3,25492],[96.3,25576],[96.3,25659],[96.3,25742],[96.3,25825],[96.3,25909],[96.3,25992],[96.3,26075],[96.3,26159],[96.3,26242],[96.3,26325],[96.3,26418],[96.3,26492],[96.3,26575],[96.3,26658],[96.3,26742],[96.3,26825],[96.3,26909],[96.3,26992],[96.3,27084],[96.3,27158],[96.3,27242],[96.3,27325],[96.3,27408],[96.3,27492],[96.3,27575],[96.3,27658],[96.3,27742],[96.3,27834],[96.3,27908],[96.3,27991],[96.3,28075],[96.3,28167],[96.3,28241],[96.3,28325],[96.3,28408],[96.3,28491],[96.3,28579],[96.3,28658],[96.3,28741],[96.3,28825],[96.3,28908],[96.3,28991],[96.3,29074],[96.3,29158],[96.3,29241],[96.3,29324],[96.3,29408],[96.3,29491],[96.3,29574],[96.3,29667],[96.3,29741],[96.3,29824],[96.3,29908],[96.3,29991],[96.3,30074],[96.3,30157],[96.3,30245],[96.3,30324],[96.3,30407],[96.3,30491],[96.3,30574],[96.3,30657],[96.3,30741],[96.3,30833],[96.3,30907],[96.3,30990],[96.3,31074],[96.3,31157],[96.3,31240],[96.3,31324],[96.3,31407],[96.3,31490],[96.3,31583],[96.3,31657],[96.3,31740],[96.3,31824],[96.3,31907],[96.3,31990],[96.3,32074],[96.3,32157],[96.3,32240],[96.3,32324],[96.3,32407],[96.3,32490],[96.3,32573],[96.3,32657],[96.3,32740],[96.3,32823],[96.3,32907],[96.3,32990],[96.3,33082],[96.3,33157],[96.3,33240],[96.3,33323],[96.3,33407],[96.3,33490],[96.3,33573],[96.3,33656],[96.3,33740],[96.3,33823],[96.3,33906],[96.3,33990],[96.3,34082],[96.3,34156],[96.3,34240],[96.3,34323],[96.3,34406],[96.3,34490],[96.3,34573],[96.3,34656],[96.3,34740],[96.3,34823],[96.3,34906],[96.3,34989],[96.3,35073],[96.3,35156],[96.3,35239],[96.3,35323],[96.3,35406],[96.3,35489],[96.3,35573],[96.3,35656],[96.3,35749],[96.3,35822],[96.3,35906],[96.3,35989],[96.3,36072],[96.3,36165],[96.3,36239],[96.3,36322],[96.3,36406],[96.3,36489],[96.3,36572],[96.3,36656],[96.3,36739],[96.3,36822],[96.3,36906],[96.3,36989],[96.3,37082],[96.3,37155],[96.3,37239],[96.3,37322],[96.3,37405],[96.3,37489],[96.3,37572],[96.3,37655],[96.3,37739],[96.3,37822],[96.3,37905],[96.3,37989],[96.3,38081],[96.3,38155],[96.3,38248],[96.3,38322],[96.3,38405],[90,38499],[87.9,38582],[87.8,38656],[87.8,38739],[89.4,38823],[92.1,38915],[94,38999],[94.1,39081],[94.5,39164],[95.2,39248],[96.4,39322],[96.4,39405],[96.4,39488]]",1664.3975,1666.7896,97.29166667,0.9776,"[{""rating"":97.29166666666667,""responseTime"":0.9775999999642409}]",space,1.8336,,1666.7898,Partially,50,1666.7942,,,[],,0,9,9,9,1,audio/Narrative7Situation9.wav,audio/Narrative8Situation9.wav,audio/Narrative5Situation9.wav,audio/Narrative6Situation9.wav,2,3,3,4,,,,,,,,,,,,,,,,,,,,,,,,,,,,,,,,,,,,,,,
,,,,,66bcffc3e6f77501141b3d0f,2025-07-07_23h04.14.235,group3.4_multiperson,2023.2.2,Win32,59.88023952,686c2ebf0248f13bef9af11f,686c8aa071dcd690be94d386,,,,,,,,,,,,,,,,,,,,,,,,,,,,,1666.7946,2,audio/Narrative6Situation1.wav,1668.7964,,1668.7965,1695.3983,"[[60.3,1592],[59.5,1675],[49.8,1758],[49.3,1841],[49.1,1925],[49.1,1998],[49.1,2081],[49.1,2165],[49.1,2248],[50.1,2342],[50.6,2415],[50.6,2498],[50.6,2582],[50.6,2665],[50.6,2748],[50.6,2840],[50.6,2915],[50.6,2998],[50.6,3081],[50.6,3165],[50.6,3248],[50.6,3331],[50.6,3415],[50.6,3498],[50.6,3581],[41.8,3675],[27,3758],[20.4,3841],[18.4,3925],[17.3,4007],[11.5,4091],[8.9,4174],[7.1,4248],[5.6,4331],[4.8,4424],[4.2,4507],[4.1,4581],[3.5,4674],[1.9,4757],[1.5,4831],[1.5,4914],[1.5,4998],[1.5,5081],[1.5,5173],[1.5,5247],[2.2,5340],[16.7,5424],[43.3,5507],[47.2,5581],[47.3,5664],[48.4,5749],[48.9,5832],[49.4,5923],[49.4,5997],[49.4,6080],[49.4,6164],[49.5,6253],[49.5,6330],[49.5,6423],[49.5,6497],[49.5,6590],[49.5,6664],[49.5,6747],[49.7,6830],[56.3,6924],[64.2,7007],[66.9,7080],[76.5,7173],[84.3,7256],[94.2,7340],[94.2,7413],[94.2,7497],[94.2,7580],[95.9,7673],[96.4,7747],[97.6,7840],[97.7,7914],[97.7,7997],[97.7,8084],[97.7,8163],[97.7,8246],[97.7,8330],[97.7,8422],[97.7,8496],[97.7,8580],[97.7,8663],[97.7,8756],[97.7,8830],[97.7,8913],[97.7,8996],[97.7,9080],[97.7,9163],[97.7,9246],[97.7,9330],[97.7,9413],[97.7,9496],[97.7,9579],[97.7,9663],[97.7,9746],[97.7,9829],[97.7,9913],[97.7,9996],[97.7,10080],[97.7,10163],[97.7,10246],[97.7,10329],[97.7,10413],[97.7,10496],[97.7,10579],[97.7,10663],[97.7,10746],[97.7,10829],[97.7,10912],[97.7,10996],[97.7,11079],[97.7,11162],[97.7,11246],[97.7,11329],[97.7,11413],[97.7,11495],[97.7,11579],[97.7,11662],[97.7,11755],[97.7,11829],[97.7,11912],[97.7,11996],[97.7,12079],[97.7,12162],[97.7,12245],[97.7,12329],[97.7,12412],[97.7,12495],[97.7,12579],[97.7,12662],[97.7,12745],[97.7,12829],[97.7,12912],[97.7,12995],[97.7,13078],[97.7,13162],[97.7,13254],[97.7,13328],[97.7,13412],[97.7,13495],[97.7,13578],[97.7,13662],[97.7,13745],[97.7,13828],[97.7,13912],[97.7,13995],[97.7,14078],[97.7,14162],[97.7,14245],[97.7,14339],[97.7,14411],[97.7,14495],[97.7,14578],[97.7,14661],[97.7,14745],[97.7,14828],[97.7,14911],[97.7,14995],[97.7,15078],[97.7,15161],[97.7,15249],[97.7,15328],[97.7,15411],[97.7,15494],[97.7,15578],[97.7,15661],[97.7,15744],[97.7,15828],[97.7,15911],[97.7,15994],[97.7,16078],[97.7,16161],[97.7,16244],[97.7,16327],[97.7,16411],[97.7,16494],[97.7,16577],[97.7,16661],[97.7,16744],[97.7,16828],[97.7,16911],[97.7,16994],[97.7,17077],[97.7,17161],[97.7,17244],[97.7,17327],[97.7,17411],[97.7,17494],[97.7,17577],[97.7,17661],[97.7,17744],[97.7,17836],[97.7,17910],[97.7,17994],[97.7,18077],[97.7,18161],[97.7,18244],[97.7,18327],[97.7,18410],[97.7,18493],[97.7,18577],[97.7,18660],[97.7,18753],[97.7,18827],[97.7,18910],[97.7,18994],[97.7,19077],[97.7,19160],[97.7,19244],[97.7,19327],[97.7,19419],[97.7,19493],[97.7,19586],[97.7,19660],[97.7,19743],[97.7,19827],[97.7,19910],[97.7,19993],[97.7,20077],[97.7,20160],[97.7,20243],[97.7,20326],[97.7,20410],[97.7,20502],[97.7,20577],[97.7,20660],[97.7,20753],[97.7,20827],[97.7,20910],[97.7,20993],[97.7,21076],[97.7,21159],[97.7,21243],[97.7,21326],[97.7,21419],[97.7,21502],[97.7,21576],[97.7,21660],[97.7,21743],[97.7,21826],[97.7,21919],[97.7,21993],[97.7,22078],[97.7,22159],[97.7,22243],[97.7,22326],[97.7,22409],[97.7,22493],[97.7,22576],[97.7,22659],[97.7,22742],[97.7,22826],[97.7,22909],[97.7,22992],[97.7,23076],[97.7,23159],[97.7,23242],[97.7,23325],[97.7,23418],[97.7,23492],[97.7,23575],[97.7,23659],[97.7,23742],[97.7,23825],[97.7,23909],[97.7,23992],[97.7,24075],[97.7,24159],[97.7,24242],[97.7,24330],[97.7,24413],[97.7,24492],[97.7,24575],[97.7,24658],[97.7,24742],[97.7,24825],[97.7,24908],[97.7,24992],[97.7,25075],[97.7,25158],[97.7,25242],[97.7,25325],[97.7,25408],[97.7,25492],[97.7,25575],[97.7,25663],[97.7,25746],[95.8,25825],[93.5,25918],[91.9,25991],[91.3,26085],[90.5,26158],[90.5,26242],[92,26335],[93.6,26417],[94.5,26501],[96.9,26585]]",1695.3984,1697.9317,98.125,1.0156,"[{""rating"":98.125,""responseTime"":1.0156000000238237}]",space,1.967,,1697.9318,Definitely yes,100,1697.9365,,,[],,0,10,10,10,1,audio/Narrative8Situation1.wav,audio/Narrative7Situation1.wav,audio/Narrative6Situation1.wav,audio/Narrative5Situation1.wav,5,2,2,5,,,,,,,,,,,,,,,,,,,,,,,,,,,,,,,,,,,,,,,
,,,,,66bcffc3e6f77501141b3d0f,2025-07-07_23h04.14.235,group3.4_multiperson,2023.2.2,Win32,59.88023952,686c2ebf0248f13bef9af11f,686c8aa071dcd690be94d386,,,,,,,,,,,,,,,,,,,,,,,,,,,,,1697.937,2,audio/Narrative6Situation2.wav,1700.9537,,1700.9537,1729.4624,"[[90.3,925],[82,1009],[75.1,1092],[75.1,1166],[74.1,1258],[68.9,1344],[62.8,1425],[59.5,1508],[59.4,1582],[59.4,1665],[59.4,1749],[59.4,1842],[59.4,1915],[59.4,1999],[59.4,2082],[59.4,2165],[59.4,2249],[59.4,2332],[59.4,2415],[59.4,2499],[59.4,2582],[59.4,2665],[59.4,2748],[59.4,2832],[59.4,2915],[59.4,2998],[59.4,3082],[59.4,3165],[59.4,3248],[59.4,3331],[59.4,3415],[59.4,3498],[59.4,3581],[59.4,3665],[59.4,3748],[59.4,3831],[59.4,3915],[59.4,4008],[59.4,4081],[59.4,4165],[59.4,4257],[59.4,4331],[59.4,4415],[59.4,4503],[59.4,4581],[59.4,4665],[59.4,4748],[59.4,4831],[59.4,4915],[59.4,4998],[59.4,5081],[59.4,5164],[59.4,5248],[59.4,5331],[59.4,5414],[59.4,5498],[59.4,5581],[59.4,5664],[59.4,5752],[59.4,5836],[59.4,5914],[59.4,5997],[59.4,6081],[59.4,6165],[59.4,6247],[59.4,6331],[59.4,6414],[59.4,6497],[59.4,6581],[59.4,6664],[59.4,6756],[59.4,6835],[59.4,6914],[59.4,6997],[59.4,7080],[59.4,7164],[59.4,7247],[59.4,7330],[59.4,7414],[59.4,7497],[59.4,7580],[59.4,7664],[59.4,7747],[59.4,7830],[59.4,7914],[59.4,8006],[59.4,8080],[59.4,8164],[57.6,8247],[54.7,8340],[52,8423],[51.9,8497],[51.9,8580],[50.9,8664],[50.8,8756],[50.8,8830],[50.8,8913],[50.8,8997],[50.8,9080],[50.8,9163],[50.8,9247],[50.7,9339],[50.7,9413],[50.7,9496],[50.7,9580],[50.7,9663],[50.7,9746],[50.7,9830],[50.7,9913],[50.7,9996],[50.7,10080],[50.7,10163],[50.7,10246],[50.7,10340],[50.7,10413],[50.7,10496],[50.7,10579],[50.7,10663],[50.7,10746],[50.7,10829],[50.7,10913],[50.7,10996],[50.7,11080],[50.7,11172],[50.7,11246],[50.7,11329],[50.7,11413],[50.7,11496],[50.7,11579],[50.7,11663],[50.7,11746],[50.7,11829],[50.7,11913],[50.7,11996],[50.7,12079],[50.7,12162],[50.7,12255],[50.7,12335],[50.7,12412],[50.7,12495],[50.7,12579],[50.7,12662],[50.7,12746],[50.7,12829],[50.7,12912],[50.7,12996],[50.7,13079],[50.7,13162],[50.7,13245],[48.8,13340],[48.6,13431],[47.2,13512],[45.8,13596],[42.6,13679],[41.6,13762],[41.6,13845],[41.6,13929],[55.3,14013],[57.6,14096],[65.2,14179],[66,14262],[66,14345],[66,14428],[66,14512],[66,14595],[66,14679],[66,14762],[66,14845],[66,14928],[66,15012],[66,15095],[66,15178],[66,15262],[66,15345],[66,15428],[66,15511],[66,15595],[66,15678],[66,15762],[66,15845],[66,15928],[66,16011],[66,16095],[66,16178],[66,16261],[66,16344],[66,16428],[66,16511],[66,16594],[66,16678],[66,16761],[66,16845],[66,16928],[66,17011],[66,17094],[66,17178],[66,17261],[66,17344],[66,17427],[66,17511],[66,17594],[66,17677],[66,17761],[66,17844],[66,17928],[66,18011],[66,18094],[66,18177],[66,18261],[66,18344],[66,18427],[66,18511],[66,18594],[66,18677],[66,18760],[66,18844],[66,18927],[66,19010],[66,19094],[66,19177],[66,19260],[66,19344],[66,19427],[66,19510],[66,19594],[66,19677],[66,19760],[66,19844],[66,19927],[66,20010],[66,20093],[66,20177],[66,20260],[66,20343],[66,20427],[66,20510],[66,20593],[66,20677],[66,20760],[66,20843],[69.3,20927],[71.8,21010],[75.7,21094],[78.5,21177],[78.5,21260],[80.6,21343],[82.6,21427],[83.6,21510],[86.5,21594],[86.9,21677],[88.5,21760],[90.9,21843],[93.9,21927],[94,22010],[94.3,22093],[94.5,22176],[94.5,22260],[94.5,22343],[94.6,22426],[94.6,22509],[94.6,22593],[95,22676],[95.4,22759],[95.4,22843],[95.4,22926],[95.5,23009],[95.5,23093],[95.5,23176],[95.5,23259],[95.6,23342],[95.6,23426],[95.6,23509],[95.6,23593],[95.6,23676],[95.6,23759],[95.6,23843],[95.6,23926],[95.6,24009],[95.6,24092],[95.6,24176],[95.6,24259],[95.6,24342],[95.6,24425],[95.6,24509],[95.6,24592],[95.6,24675],[95.6,24759],[95.6,24842],[95.6,24925],[95.6,25009],[95.6,25092],[95.6,25175],[95.6,25259],[95.6,25342],[95.6,25425],[95.6,25509],[95.6,25592],[95.6,25675],[95.6,25759],[95.6,25842],[95.6,25925],[95.6,26009],[95.6,26092],[95.6,26175],[95.6,26259],[95.6,26342],[95.6,26425],[95.6,26508],[95.6,26591],[95.6,26675],[95.6,26758],[95.6,26842],[95.6,26925],[95.6,27008],[95.6,27091],[95.6,27175],[85.5,27258],[82.4,27341],[81.4,27425],[81.3,27508],[81.3,27591],[81.3,27675],[81.5,27759],[87.4,27842],[89.6,27926],[91.1,28008],[92.7,28092],[93.6,28175],[95.1,28258],[95.8,28341],[95.9,28424],[97.6,28508]]",1729.4625,1731.7282,98.125,0.6891,"[{""rating"":98.125,""responseTime"":0.6891000000239274}]",space,1.7169,,1731.7282,Definitely yes,100,1731.7297,,,[],,0,11,11,11,1,audio/Narrative8Situation2.wav,audio/Narrative7Situation2.wav,audio/Narrative6Situation2.wav,audio/Narrative5Situation2.wav,3,3,3,3,,,,,,,,,,,,,,,,,,,,,,,,,,,,,,,,,,,,,,,
,,,,,66bcffc3e6f77501141b3d0f,2025-07-07_23h04.14.235,group3.4_multiperson,2023.2.2,Win32,59.88023952,686c2ebf0248f13bef9af11f,686c8aa071dcd690be94d386,,,,,,,,,,,,,,,,,,,,,,,,,,,,,1731.7299,2,audio/Narrative6Situation3.wav,1736.7436,,1736.7436,1749.3731,"[[88.5,749],[68.1,832],[54,916],[50.2,999],[47.4,1082],[45.3,1166],[42.4,1249],[39,1332],[32.6,1416],[22.4,1499],[18.5,1582],[17,1665],[16.1,1749],[16.1,1832],[16.1,1915],[18.1,1999],[18.4,2082],[18.4,2165],[18.4,2249],[18.4,2332],[18.4,2415],[18.4,2498],[18.4,2582],[18.4,2665],[18.4,2748],[18.4,2832],[18.4,2915],[18.4,2998],[18.4,3082],[18.4,3165],[18.4,3248],[18.4,3332],[18.4,3415],[18.4,3498],[18.4,3581],[18.4,3665],[18.4,3748],[18.4,3831],[18.4,3915],[18.4,3998],[18.4,4081],[18.4,4165],[18.4,4248],[18.4,4331],[18.4,4415],[18.4,4498],[18.4,4581],[18.4,4664],[18.4,4748],[18.4,4831],[18.4,4914],[18.4,4998],[18.4,5081],[18.4,5165],[18.4,5248],[18.4,5331],[18.4,5414],[18.4,5498],[18.4,5581],[18.4,5664],[18.4,5747],[18.4,5831],[18.4,5914],[18.4,5998],[18.4,6081],[18.4,6164],[18.4,6248],[18.4,6331],[18.4,6414],[18.4,6497],[18.4,6581],[18.4,6664],[18.4,6747],[18.4,6830],[18.4,6914],[18.4,6997],[18.4,7080],[18.4,7164],[18.4,7247],[18.4,7330],[18.4,7414],[18.4,7497],[18.4,7580],[18.4,7663],[18.4,7747],[18.4,7830],[18.4,7914],[18.4,7997],[18.4,8080],[18.4,8164],[18.4,8247],[18.4,8330],[18.4,8413],[18.4,8497],[18.4,8580],[18.4,8663],[18.4,8747],[18.4,8830],[18.4,8913],[18.4,8997],[18.4,9080],[18.4,9163],[18.4,9247],[18.4,9330],[18.4,9413],[18.4,9496],[18.4,9580],[18.4,9663],[18.4,9746],[18.4,9829],[18.4,9913],[18.4,9996],[18.4,10079],[18.4,10163],[18.4,10246],[18.4,10329],[18.4,10413],[18.4,10496],[18.4,10579],[18.4,10663],[18.4,10746],[18.4,10829],[18.4,10913],[18.4,10996],[18.4,11079],[18.4,11163],[18.4,11246],[18.4,11329],[18.4,11413],[18.4,11496],[18.4,11579],[18.4,11662],[18.4,11746],[18.4,11829],[18.4,11912],[18.4,11996],[18.4,12079],[18.4,12162],[18.4,12246],[18.4,12329],[18.4,12412],[18.4,12495],[18.4,12579]]",1749.3732,1752.2389,50.10416667,1.5557,"[{""rating"":50.10416666666667,""responseTime"":1.5557000000476364}]",space,2.3184,,1752.2389,Partially,50,1752.2417,,,[],,0,12,12,12,1,audio/Narrative8Situation3.wav,audio/Narrative7Situation3.wav,audio/Narrative6Situation3.wav,audio/Narrative5Situation3.wav,4,8,5,3,,,,,,,,,,,,,,,,,,,,,,,,,,,,,,,,,,,,,,,
,,,,,66bcffc3e6f77501141b3d0f,2025-07-07_23h04.14.235,group3.4_multiperson,2023.2.2,Win32,59.88023952,686c2ebf0248f13bef9af11f,686c8aa071dcd690be94d386,,,,,,,,,,,,,,,,,,,,,,,,,,,,,1752.2419,2,audio/Narrative6Situation4.wav,1754.2549,,1754.255,1766.8852,"[[44.4,332],[44,416],[39.6,499],[37.8,583],[32.2,666],[24.5,750],[21,833],[16.4,916],[14.1,1000],[13.6,1083],[10.2,1166],[5.7,1249],[4.7,1332],[3.1,1416],[3,1499],[3,1582],[5.1,1666],[17,1749],[34,1832],[35.3,1915],[35.3,1999],[35.3,2082],[40.7,2166],[50.9,2249],[53.6,2332],[53.6,2415],[53.6,2499],[53.6,2582],[53.6,2665],[53.6,2749],[53.6,2832],[53.6,2915],[53.6,2999],[53.6,3082],[53.6,3165],[53.6,3248],[53.6,3332],[53.6,3415],[53.6,3499],[53.6,3582],[53.6,3665],[53.6,3749],[53.6,3832],[53.6,3915],[53.6,3998],[53.6,4082],[53.6,4165],[53.6,4248],[53.6,4331],[53.6,4415],[53.6,4498],[56,4582],[56,4665],[56,4748],[56,4831],[59.9,4915],[60.5,4998],[61.5,5082],[65.8,5165],[72.7,5248],[78.5,5331],[84.2,5415],[86.3,5498],[86.3,5581],[86.3,5665],[86.3,5748],[86.3,5831],[86.3,5914],[86.3,5998],[86.3,6081],[86.3,6164],[86.3,6248],[86.3,6331],[86.3,6414],[86.3,6497],[86.3,6581],[86.3,6664],[86.3,6748],[86.3,6831],[86.3,6914],[86.3,6997],[86.3,7081],[86.3,7164],[86.3,7247],[86.3,7330],[86.4,7414],[86.3,7498],[86.3,7580],[86.5,7664],[86.5,7747],[86.5,7831],[86.5,7914],[86.6,7997],[85.8,8080],[85.7,8164],[85.7,8247],[85.7,8330],[85.7,8413],[85.7,8497],[85.9,8580],[85.9,8664],[85.9,8747],[85.9,8830],[85.9,8913],[85.9,8997],[85.9,9080],[85.9,9163],[85.9,9247],[85.9,9330],[85.9,9413],[85.9,9496],[85.9,9580],[85.9,9663],[85.9,9747],[85.9,9830],[85.9,9913],[85.9,9997],[85.9,10080],[85.4,10164],[84.6,10251],[84.6,10330],[84.6,10422],[84.6,10496],[84.6,10580],[84.6,10663],[84.6,10746],[84.6,10830],[84.6,10913],[84.6,10997],[84.6,11080],[84.6,11163],[84.6,11246],[84.6,11329],[84.6,11413],[84.6,11496],[84.6,11579],[84.6,11663],[84.6,11746],[84.6,11829],[84.6,11913],[84.6,11996],[85.3,12089],[87.6,12173],[90.6,12256],[94.1,12339],[95.6,12422],[96.5,12505],[97.5,12589]]",1766.8853,1769.9173,98.64583333,1.109,"[{""rating"":98.64583333333333,""responseTime"":1.1089999999999236}]",space,2.4886,,1769.9173,Definitely yes,100,1769.9198,,,[],,0,13,13,13,1,audio/Narrative8Situation4.wav,audio/Narrative7Situation4.wav,audio/Narrative6Situation4.wav,audio/Narrative5Situation4.wav,3,3,2,1,,,,,,,,,,,,,,,,,,,,,,,,,,,,,,,,,,,,,,,
,,,,,66bcffc3e6f77501141b3d0f,2025-07-07_23h04.14.235,group3.4_multiperson,2023.2.2,Win32,59.88023952,686c2ebf0248f13bef9af11f,686c8aa071dcd690be94d386,,,,,,,,,,,,,,,,,,,,,,,,,,,,,1769.92,2,audio/Narrative6Situation5.wav,1771.9333,,1771.9334,1779.9077,"[[96.6,833],[89,925],[82.3,1009],[68.5,1092],[57.4,1175],[47.5,1259],[45.2,1332],[45.2,1416],[44.3,1501],[42.5,1583],[42.4,1666],[37.4,1758],[31,1844],[23.3,1925],[17.3,2009],[15.8,2093],[15.8,2166],[15.8,2249],[15.8,2341],[15.8,2416],[15.8,2499],[15.8,2582],[15.8,2666],[15.8,2749],[15.8,2832],[15.8,2915],[15.8,2999],[15.8,3082],[15.8,3165],[15.8,3248],[15.8,3336],[15.8,3415],[15.8,3499],[15.8,3582],[15.8,3665],[15.8,3748],[15.8,3831],[15.8,3915],[15.8,3998],[15.8,4081],[15.8,4165],[15.8,4248],[15.8,4332],[15.8,4415],[15.8,4498],[15.8,4590],[15.8,4665],[15.8,4748],[15.8,4831],[15.8,4915],[15.8,5007],[15.8,5081],[15.8,5164],[15.8,5248],[15.8,5331],[15.8,5415],[15.8,5498],[15.8,5581],[15.8,5664],[15.8,5757],[15.8,5835],[15.8,5914],[15.8,5998],[15.8,6081],[15.8,6164],[15.8,6248],[19.7,6341],[21.5,6415],[21.5,6498],[21.5,6581],[21.5,6664],[21.5,6747],[21.5,6831],[21.5,6914],[21.8,6998],[35.7,7090],[44.2,7174],[59.8,7257],[65.8,7340],[68.3,7424],[70.9,7507],[73,7590],[74.5,7673],[78,7757],[82,7840],[82.5,7924]]",1779.9078,1782.4569,99.27083333,0.9682,"[{""rating"":99.27083333333333,""responseTime"":0.9681999999879736}]",space,1.9836,,1782.457,Not at all,0,1782.4591,,,[],,0,14,14,14,1,audio/Narrative8Situation5.wav,audio/Narrative7Situation5.wav,audio/Narrative6Situation5.wav,audio/Narrative5Situation5.wav,2,5,2,5,,,,,,,,,,,,,,,,,,,,,,,,,,,,,,,,,,,,,,,
,,,,,66bcffc3e6f77501141b3d0f,2025-07-07_23h04.14.235,group3.4_multiperson,2023.2.2,Win32,59.88023952,686c2ebf0248f13bef9af11f,686c8aa071dcd690be94d386,,,,,,,,,,,,,,,,,,,,,,,,,,,,,1782.4593,2,audio/Narrative6Situation6.wav,1784.4725,,1784.4726,1795.5766,"[[999,0],[999,73],[999,161],[999,249],[999,323],[999,416],[999,500],[39,583],[37.5,657],[35.8,750],[34.5,833],[33.4,916],[33.2,990],[33.2,1073],[31,1168],[27.2,1249],[19.8,1332],[19.6,1406],[19.6,1489],[19.6,1573],[19.6,1656],[19.6,1739],[19.6,1823],[19.6,1906],[19.6,1999],[19.6,2073],[19.6,2156],[19.6,2240],[19.6,2322],[19.6,2407],[19.6,2498],[19.6,2572],[19.6,2665],[19.6,2739],[19.6,2822],[19.6,2915],[19.6,2996],[19.6,3072],[19.6,3155],[19.6,3239],[19.6,3331],[19.6,3406],[19.6,3498],[19.6,3572],[19.6,3655],[19.6,3739],[19.6,3831],[19.6,3905],[19.6,3989],[19.6,4072],[19.6,4155],[19.6,4239],[19.6,4332],[19.6,4405],[19.6,4498],[19.6,4572],[19.6,4656],[19.6,4739],[19.6,4826],[19.6,4906],[19.6,4989],[19.6,5072],[19.6,5155],[19.6,5238],[19.6,5322],[19.6,5405],[19.6,5488],[19.6,5572],[19.6,5655],[19.6,5738],[19.6,5822],[19.6,5905],[19.6,5988],[19.6,6081],[19.6,6155],[19.6,6238],[19.6,6321],[19.6,6405],[19.6,6497],[19.6,6571],[19.6,6655],[19.6,6738],[19.6,6821],[19.6,6914],[19.6,6988],[19.6,7071],[19.6,7164],[19.6,7238],[19.6,7326],[19.6,7404],[19.6,7488],[19.6,7571],[19.6,7654],[19.6,7738],[19.6,7821],[19.6,7913],[24.1,7999],[24.6,8071],[26.1,8165],[29.1,8247],[32.7,8331],[34.5,8414],[41.6,8498],[52,8581],[53.2,8663],[53.2,8737],[53.2,8821],[53.2,8904],[53.3,8996],[53.2,9071],[53.2,9154],[53.2,9237],[53.2,9329],[53.2,9413],[53.2,9487],[53.8,9580],[53.9,9654],[54.2,9737],[57.4,9830],[60.4,9914],[65.5,9997],[65.9,10070],[73,10163],[81.3,10246],[89.1,10330],[91.7,10413],[94.4,10497],[95.1,10575],[95.9,10654],[96,10746],[96.1,10820],[97.1,10913],[97.1,10996],[97.1,11070]]",1795.5768,1801.0014,97.39583333,4.2576,"[{""rating"":97.39583333333333,""responseTime"":0.7754999999999654},{""rating"":97.39583333333333,""responseTime"":4.2576000000237855}]",space,4.8588,,1801.0014,Not at all,0,1801.0026,,,[],,0,15,15,15,1,audio/Narrative8Situation6.wav,audio/Narrative7Situation6.wav,audio/Narrative6Situation6.wav,audio/Narrative5Situation6.wav,2,3,2,3,,,,,,,,,,,,,,,,,,,,,,,,,,,,,,,,,,,,,,,
