consent.started,consent.stopped,consentResponse.keys,consentResponse.rt,consentResponse.duration,participantID,date,expName,psychopyVersion,OS,frameRate,STUDY_ID,SESSION_ID,opening1.started,opening1.stopped,keyEndingOpening1.keys,keyEndingOpening1.rt,keyEndingOpening1.duration,volumeAdjust.started,volumeAdjust.stopped,endingAdjust.keys,endingAdjust.rt,endingAdjust.duration,opening2.started,opening2.stopped,keyEndingOpening.keys,keyEndingOpening.rt,keyEndingOpening.duration,mouse.x,mouse.y,mouse.leftButton,mouse.midButton,mouse.rightButton,mouse.time,instructionLoop.thisRepN,instructionLoop.thisTrialN,instructionLoop.thisN,instructionLoop.thisIndex,instructionLoop.ran,readyForAudio.started,readyForAudio.stopped,fixation.started,run,audio_played,fixation.stopped,endPractice.keys,audioPre.started,audioPre.stopped,continuousResponses_audio,intRating.started,intRating.stopped,intQuestionSlider.response,intQuestionSlider.rt,intQuestionSlider.history,confirmResponse.keys,confirmResponse.rt,confirmResponse.duration,catchQuestion.started,catch_label,catch_value,catchQuestion.stopped,catchQuestionSlider.response,catchQuestionSlider.rt,catchQuestionSlider.history,confirmResponse_2.keys,audioRunLoop.thisRepN,audioRunLoop.thisTrialN,audioRunLoop.thisN,audioRunLoop.thisIndex,audioRunLoop.ran,conditions1_1,conditions2_1,conditions1_2,conditions2_2,dur1_1,dur2_1,dur1_2,dur2_2,endPractice.rt,endPractice.duration,confirmResponse_2.rt,confirmResponse_2.duration,runIntervalBreak.started,runIntervalBreak.stopped,endingBreakKey.keys,endingBreakKey.rt,endingBreakKey.duration,connection.started,connection.stopped,connectionEnding.keys,connectionEnding.rt,connectionEnding.duration,readyForText.started,readyForText.stopped,textPre.started,run_dup,textPre.stopped,continuousResponses_text,textRunLoop.thisRepN,textRunLoop.thisTrialN,textRunLoop.thisN,textRunLoop.thisIndex,textRunLoop.ran,text1_1,text1_2,text2_1,text2_2,runBreakText.started,runBreakText.stopped,endingBreakKey_2.keys,endingBreakKey_2.rt,endingBreakKey_2.duration,ending.started,ending.stopped,endingEnding.keys,endingEnding.rt,endingEnding.duration
0.0005,9.5137,y,9.191,,66bffd8c97a80ac91e1087e0,2025-07-07_19h09.10.813,group3.4_multiperson,2023.2.2,Linux x86_64,59.88023952,686c2ebf0248f13bef9af11f,686c7b8e4dc07da34584cf0a,,,,,,,,,,,,,,,,,,,,,,,,,,,,,,,,,,,,,,,,,,,,,,,,,,,,,,,,,,,,,,,,,,,,,,,,,,,,,,,,,,,,,,,,,,,,,,,,,,,,,,,,
,,,,,66bffd8c97a80ac91e1087e0,2025-07-07_19h09.10.813,group3.4_multiperson,2023.2.2,Linux x86_64,59.88023952,686c2ebf0248f13bef9af11f,686c7b8e4dc07da34584cf0a,9.5142,17.3542,space,7.8107,,,,,,,,,,,,,,,,,,,,,,,,,,,,,,,,,,,,,,,,,,,,,,,,,,,,,,,,,,,,,,,,,,,,,,,,,,,,,,,,,,,,,,,,,,,,,,,,,,,,
,,,,,66bffd8c97a80ac91e1087e0,2025-07-07_19h09.10.813,group3.4_multiperson,2023.2.2,Linux x86_64,59.88023952,686c2ebf0248f13bef9af11f,686c7b8e4dc07da34584cf0a,,,,,,17.3545,51.8121,space,34.126,,,,,,,,,,,,,,,,,,,,,,,,,,,,,,,,,,,,,,,,,,,,,,,,,,,,,,,,,,,,,,,,,,,,,,,,,,,,,,,,,,,,,,,,,,,,,,,
,,,,,66bffd8c97a80ac91e1087e0,2025-07-07_19h09.10.813,group3.4_multiperson,2023.2.2,Linux x86_64,59.88023952,686c2ebf0248f13bef9af11f,686c7b8e4dc07da34584cf0a,,,,,,,,,,,51.8226,63.8977,space,12.0508,,[],[],[],[],[],[],0,0,0,0,1,,,,,,,,,,,,,,,,,,,,,,,,,,,,,,,,,,,,,,,,,,,,,,,,,,,,,,,,,,,,,,,,,,,,,,,,,,,,,,
,,,,,66bffd8c97a80ac91e1087e0,2025-07-07_19h09.10.813,group3.4_multiperson,2023.2.2,Linux x86_64,59.88023952,686c2ebf0248f13bef9af11f,686c7b8e4dc07da34584cf0a,,,,,,,,,,,63.8984,103.0167,space,39.0016,,[],[],[],[],[],[],1,0,1,0,1,,,,,,,,,,,,,,,,,,,,,,,,,,,,,,,,,,,,,,,,,,,,,,,,,,,,,,,,,,,,,,,,,,,,,,,,,,,,,,
,,,,,66bffd8c97a80ac91e1087e0,2025-07-07_19h09.10.813,group3.4_multiperson,2023.2.2,Linux x86_64,59.88023952,686c2ebf0248f13bef9af11f,686c7b8e4dc07da34584cf0a,,,,,,,,,,,103.0174,120.6952,space,17.6065,,[],[],[],[],[],[],2,0,2,0,1,,,,,,,,,,,,,,,,,,,,,,,,,,,,,,,,,,,,,,,,,,,,,,,,,,,,,,,,,,,,,,,,,,,,,,,,,,,,,,
,,,,,66bffd8c97a80ac91e1087e0,2025-07-07_19h09.10.813,group3.4_multiperson,2023.2.2,Linux x86_64,59.88023952,686c2ebf0248f13bef9af11f,686c7b8e4dc07da34584cf0a,,,,,,,,,,,120.6956,141.0537,space,20.3302,,[],[],[],[],[],[],3,0,3,0,1,,,,,,,,,,,,,,,,,,,,,,,,,,,,,,,,,,,,,,,,,,,,,,,,,,,,,,,,,,,,,,,,,,,,,,,,,,,,,,
,,,,,66bffd8c97a80ac91e1087e0,2025-07-07_19h09.10.813,group3.4_multiperson,2023.2.2,Linux x86_64,59.88023952,686c2ebf0248f13bef9af11f,686c7b8e4dc07da34584cf0a,,,,,,,,,,,141.0541,210.0366,space,68.9582,,[],[],[],[],[],[],4,0,4,0,1,,,,,,,,,,,,,,,,,,,,,,,,,,,,,,,,,,,,,,,,,,,,,,,,,,,,,,,,,,,,,,,,,,,,,,,,,,,,,,
,,,,,66bffd8c97a80ac91e1087e0,2025-07-07_19h09.10.813,group3.4_multiperson,2023.2.2,Linux x86_64,59.88023952,686c2ebf0248f13bef9af11f,686c7b8e4dc07da34584cf0a,,,,,,,,,,,210.0372,266.9179,space,56.8563,,[],[],[],[],[],[],5,0,5,0,1,,,,,,,,,,,,,,,,,,,,,,,,,,,,,,,,,,,,,,,,,,,,,,,,,,,,,,,,,,,,,,,,,,,,,,,,,,,,,,
,,,,,66bffd8c97a80ac91e1087e0,2025-07-07_19h09.10.813,group3.4_multiperson,2023.2.2,Linux x86_64,59.88023952,686c2ebf0248f13bef9af11f,686c7b8e4dc07da34584cf0a,,,,,,,,,,,,,,,,,,,,,,,,,,,266.9214,269.4982,269.5408,1,audio/Narrative13Situation2.wav,271.5479,,271.5481,301.31,"[[999,2],[999,113],[999,196],[999,280],[999,363],[999,446],[999,529],[999,614],[999,697],[999,779],[999,862],[22.4,946],[21.7,1030],[21.3,1113],[21.1,1197],[21.1,1279],[21.1,1363],[21.1,1445],[21.4,1528],[28.1,1612],[32.1,1695],[33.6,1778],[39.1,1863],[41.1,1945],[41.1,2028],[41.1,2112],[41.1,2194],[41.1,2277],[41.1,2360],[41.1,2444],[41.1,2527],[41.6,2610],[42.8,2694],[44,2777],[44.9,2860],[45.2,2944],[45.8,3027],[46.8,3110],[47.7,3194],[48.5,3277],[49.8,3360],[50,3442],[50,3526],[50,3609],[50,3692],[50,3776],[50,3858],[50,3942],[50,4025],[50,4108],[50,4192],[50,4275],[64.2,4359],[70.6,4442],[78.9,4525],[82.5,4609],[83.2,4692],[83.5,4775],[86.7,4858],[89.4,4942],[90.7,5025],[93,5108],[95.3,5191],[96.5,5274],[96.9,5357],[96.9,5440],[96.9,5523],[96.9,5607],[96.9,5690],[96.9,5773],[96.9,5860],[96.9,5939],[96.9,6023],[96.9,6106],[96.9,6189],[96.8,6273],[96.8,6356],[97.5,6439],[100,6523],[100,6606],[100,6689],[100,6772],[100,6855],[100,6939],[100,7021],[100,7104],[100,7189],[100,7272],[100,7354],[100,7438],[100,7522],[100,7605],[100,7688],[100,7771],[100,7855],[100,7938],[99.8,8022],[99.2,8104],[98.1,8187],[97.5,8271],[97,8354],[96.7,8437],[96.4,8521],[96.1,8604],[95.9,8687],[96.2,8770],[96.8,8853],[97.9,8945],[98.6,9019],[99,9112],[99.3,9191],[99.5,9278],[99.6,9354],[99.7,9439],[99.7,9525],[99.7,9603],[99.7,9686],[99.7,9768],[99.7,9852],[99.7,9935],[99.7,10018],[99.7,10102],[99.7,10188],[99.7,10275],[99.7,10359],[99.7,10435],[99.7,10518],[99.7,10602],[99.7,10685],[99.7,10784],[99.7,10867],[99.7,10950],[99.7,11033],[99.7,11116],[99.7,11200],[99.4,11283],[99.1,11366],[98.9,11449],[98.7,11535],[98.6,11625],[98.5,11705],[98.5,11786],[98.5,11870],[98.9,11957],[99.4,12041],[100,12117],[100,12204],[100,12290],[100,12370],[100,12455],[100,12538],[100,12622],[100,12702],[100,12782],[100,12870],[100,12949],[100,13033],[100,13123],[100,13204],[100,13288],[100,13371],[100,13448],[100,13531],[99.9,13622],[99.8,13714],[99.7,13797],[99.5,13880],[99.4,13964],[99.3,14048],[99.2,14130],[99.2,14213],[99.2,14296],[99.1,14380],[99.1,14462],[99.1,14546],[99.1,14630],[99.1,14712],[99.1,14795],[99.1,14879],[99.1,14962],[99,15045],[99,15129],[99,15212],[98.9,15295],[98.8,15404],[98.8,15486],[98.6,15570],[98.6,15653],[98.5,15729],[98.4,15819],[97.9,15898],[95.8,15984],[95.2,16066],[95,16153],[94.8,16236],[94.6,16319],[94.4,16402],[94.2,16478],[94.2,16561],[94.7,16649],[98.7,16735],[99.7,16818],[99.2,16894],[92.3,16977],[68.8,17071],[60.1,17152],[51.2,17227],[44.7,17316],[44,17393],[44,17480],[44,17563],[44,17650],[44,17727],[44,17812],[44,17895],[44.6,17976],[45.6,18059],[46.1,18142],[46.5,18230],[46.9,18315],[47.1,18399],[47.2,18500],[47.2,18575],[47.2,18658],[47.2,18782],[41.5,18863],[38.1,18948],[30.5,19024],[27,19107],[26.7,19191],[26.7,19274],[26.7,19357],[26.7,19440],[26.7,19523],[26.7,19606],[26.7,19690],[26.7,19773],[26.7,19856],[17.2,19940],[10.2,20023],[9.8,20107],[8.7,20190],[4.5,20272],[3.7,20356],[3.2,20439],[2.2,20523],[1.3,20606],[0.4,20688],[50,22603],[51,22686],[50.7,22770],[50.6,22853],[50.6,22936],[50.6,23020],[50.6,23102],[50.6,23185],[50.6,23271],[79.8,24118],[75.6,24201],[74.3,24292],[74.1,24375],[74.1,24450],[74.1,24534],[74.1,24617],[74.1,24700],[74.1,24783],[74.1,24867],[74.1,24951],[74.1,25033],[74.1,25117],[74.1,25200],[86.3,25283],[100,25366],[100,25450],[100,25533],[100,25616],[100,25699],[100,25782],[100,25865],[100,25949],[100,26032],[100,26115],[100,26198],[100,26282],[100,26365],[100,26448],[100,26531],[100,26614],[100,26698],[100,26781],[100,26865],[100,26947],[100,27030],[100,27114],[100,27197],[100,27280],[100,27364],[100,27448],[100,27531],[100,27614],[100,27697],[100,27780],[100,27863],[100,27947],[100,28030],[100,28113],[100,28196],[100,28279],[100,28363],[100,28446],[100,28529],[100,28612],[100,28695],[100,28779],[100,28862],[100,28945],[100,29029],[100,29112],[99.3,29195],[94.9,29278],[94.1,29361],[93.9,29445],[93.9,29528],[93.9,29611],[93.9,29694]]",301.3105,315.1934,80.91784318,9.3448,"[{""rating"":80.91784318288167,""responseTime"":9.344799999997008}]",space,13.3332,,315.1937,Definitely yes,100,315.2008,,,[],,0,0,0,0,1,audio/Narrative13Situation2.wav,audio/Narrative13Situation2.wav,audio/Narrative13Situation2.wav,audio/Narrative13Situation2.wav,2,2,2,2,,,,,,,,,,,,,,,,,,,,,,,,,,,,,,,,,,,,,,,
,,,,,66bffd8c97a80ac91e1087e0,2025-07-07_19h09.10.813,group3.4_multiperson,2023.2.2,Linux x86_64,59.88023952,686c2ebf0248f13bef9af11f,686c7b8e4dc07da34584cf0a,,,,,,,,,,,,,,,,,,,,,,,,,,,,,315.2014,1,audio/Narrative7Situation1.wav,321.6347,space,321.6347,377.5169,"[[999,1],[999,83],[999,173],[999,253],[999,340],[999,416],[999,507],[999,582],[999,668],[999,757],[999,835],[999,920],[999,1006],[999,1089],[999,1172],[999,1250],[999,1334],[999,1415],[46.8,1502],[48.2,1590],[48.5,1673],[48.6,1754],[48.8,1835],[48.8,1918],[48.8,1997],[48.8,2086],[48.7,2168],[48.7,2255],[48.7,2333],[48.7,2414],[48.7,2497],[48.7,2580],[48.7,2663],[48.7,2747],[48.7,2830],[48.7,2913],[48.7,2999],[48.7,3079],[52.9,3169],[58.2,3246],[61.4,3336],[61.8,3418],[62.1,3504],[62.2,3583],[62.2,3663],[62.2,3750],[62.2,3837],[62.2,3912],[62.2,3995],[62.2,4079],[62.2,4161],[68.1,4249],[88.6,4333],[94,4418],[95.7,4502],[100,4579],[100,4665],[100,4751],[100,4828],[100,4912],[100,4997],[100,5079],[100,5168],[100,5244],[100,5332],[100,5411],[100,5494],[100,5577],[100,5667],[100,5744],[100,5826],[100,5915],[100,6000],[100,6080],[100,6160],[100,6243],[100,6326],[100,6410],[100,6493],[100,6575],[100,6665],[100,6741],[100,6826],[100,6908],[100,6992],[100,7076],[100,7164],[100,7241],[100,7324],[100,7408],[100,7491],[100,7574],[100,7658],[100,7741],[100,7824],[100,7914],[100,7991],[100,8074],[100,8157],[100,8240],[100,8327],[100,8407],[100,8490],[100,8577],[100,8656],[100,8746],[100,8831],[100,8906],[100,8993],[100,9078],[100,9162],[100,9238],[100,9328],[100,9405],[100,9488],[100,9572],[100,9655],[100,9745],[100,9821],[100,9905],[100,9989],[100,10071],[100,10160],[100,10238],[100,10320],[100,10404],[100,10488],[100,10570],[100,10660],[100,10738],[100,10821],[100,10910],[100,10987],[100,11070],[100,11161],[100,11236],[100,11324],[100,11403],[100,11486],[100,11575],[100,11653],[100,11742],[100,11826],[100,11904],[100,11985],[100,12069],[100,12155],[100,12251],[100,12335],[100,12418],[100,12501],[100,12584],[100,12667],[100,12751],[100,12834],[100,12917],[100,13000],[100,13083],[100,13167],[100,13250],[100,13333],[100,13416],[100,13500],[100,13582],[100,13666],[100,13749],[100,13833],[100,13916],[100,13999],[100,14083],[100,14166],[100,14249],[99.8,14333],[99.3,14416],[98.4,14499],[96.3,14583],[95.7,14666],[95.5,14749],[95.5,14832],[95.5,14914],[95.5,14998],[95.5,15081],[95.5,15164],[95.5,15248],[95.5,15331],[95.5,15414],[95.5,15498],[95.5,15580],[95.5,15664],[95.5,15747],[96.8,15831],[97.9,15914],[98.2,15997],[98.4,16080],[98.5,16164],[98.8,16247],[99,16330],[99,16414],[91.5,16497],[84.5,16580],[84.1,16663],[84.1,16746],[84.1,16829],[84.1,16912],[84.1,16995],[84.1,17079],[79.7,17162],[77.3,17245],[72.7,17329],[64.1,17413],[57.5,17495],[54,17579],[52,17662],[49.9,17745],[48.9,17829],[48.3,17911],[48,17994],[47.8,18078],[47.7,18161],[47.7,18245],[47.7,18328],[47.8,18411],[48,18494],[48.2,18578],[48.4,18660],[48.5,18744],[48.7,18827],[48.8,18910],[48.8,18993],[48.8,19077],[48.8,19160],[48.8,19242],[48.8,19326],[48.8,19409],[48.8,19492],[48.8,19576],[48.8,19659],[48.8,19742],[48.8,19825],[48.8,19909],[51.3,19993],[70.9,20075],[89.6,20159],[94.6,20248],[98.4,20325],[100,20409],[100,20492],[100,20575],[100,20658],[100,20742],[100,20825],[100,20907],[100,20990],[100,21074],[100,21157],[100,21241],[100,21323],[100,21407],[100,21490],[100,21573],[100,21656],[100,21740],[100,21823],[100,21906],[100,21989],[100,22073],[100,22156],[100,22239],[100,22325],[100,22406],[100,22490],[100,22573],[100,22656],[100,22739],[100,22822],[100,22906],[100,22988],[100,23072],[100,23155],[100,23238],[100,23321],[100,23404],[100,23488],[100,23571],[100,23654],[100,23737],[100,23820],[100,23903],[100,23987],[100,24070],[100,24153],[100,24237],[100,24320],[100,24403],[100,24486],[100,24569],[100,24653],[100,24736],[100,24820],[100,24903],[100,24986],[100,25069],[100,25152],[100,25235],[100,25319],[100,25402],[100,25485],[100,25569],[100,25651],[100,25735],[100,25818],[100,25901],[100,25985],[100,26068],[100,26151],[100,26234],[100,26318],[100,26405],[100,26484],[100,26567],[100,26650],[100,26734],[100,26817],[100,26901],[100,26983],[100,27066],[100,27150],[100,27233],[100,27317],[100,27399],[100,27482],[100,27567],[100,27649],[100,27733],[100,27815],[100,27899],[100,27983],[100,28065],[100,28149],[100,28232],[100,28315],[100,28399],[100,28481],[100,28565],[100,28648],[100,28731],[100,28814],[100,28898],[100,28981],[100,29064],[100,29150],[100,29230],[100,29314],[100,29397],[100,29498],[100,29580],[100,29663],[100,29746],[100,29830],[100,29913],[100,29996],[100,30079],[100,30162],[100,30246],[100,30329],[100,30412],[100,30495],[100,30579],[100,30662],[100,30745],[100,30829],[92.9,30912],[87.9,30995],[85.7,31079],[85.4,31162],[84.7,31246],[83.8,31329],[83.6,31412],[83.5,31495],[83.5,31579],[84.1,31662],[85.4,31745],[86.4,31828],[87.4,31911],[88.5,31995],[90.2,32078],[92.3,32161],[95.9,32244],[98.6,32327],[99.3,32411],[99.5,32494],[99.6,32577],[99.9,32660],[100,32744],[100,32827],[100,32910],[100,32994],[100,33077],[100,33159],[100,33243],[100,33325],[100,33409],[100,33492],[100,33575],[100,33658],[100,33742],[100,33825],[100,33908],[100,33991],[100,34074],[100,34158],[100,34241],[100,34325],[100,34408],[100,34491],[100,34574],[100,34657],[100,34741],[100,34824],[100,34907],[100,34990],[100,35073],[100,35157],[100,35240],[100,35323],[100,35406],[100,35489],[100,35573],[100,35656],[100,35739],[100,35823],[100,35906],[100,35989],[100,36072],[100,36155],[100,36239],[100,36322],[100,36405],[100,36489],[100,36572],[100,36655],[100,36739],[100,36821],[100,36908],[100,36988],[100,37071],[100,37154],[100,37238],[100,37320],[100,37404],[100,37487],[100,37570],[100,37654],[100,37737],[100,37820],[100,37903],[100,37987],[100,38070],[100,38153],[100,38236],[100,38319],[100,38403],[100,38486],[100,38569],[100,38652],[100,38735],[100,38819],[100,38902],[100,38985],[100,39069],[100,39152],[100,39235],[100,39318],[100,39401],[100,39485],[100,39568],[100,39651],[100,39734],[100,39818],[100,39901],[100,39984],[100,40067],[100,40150],[100,40234],[100,40317],[100,40400],[100,40484],[100,40567],[100,40650],[100,40733],[100,40816],[100,40901],[100,40983],[100,41067],[100,41149],[100,41233],[100,41316],[100,41399],[100,41482],[100,41565],[100,41649],[100,41732],[100,41815],[100,41898],[100,41982],[100,42065],[100,42148],[100,42231],[100,42315],[100,42398],[100,42481],[100,42565],[100,42648],[100,42731],[100,42814],[100,42897],[100,42980],[100,43064],[100,43147],[100,43230],[100,43313],[100,43397],[100,43480],[100,43563],[100,43646],[100,43729],[100,43813],[100,43896],[100,43979],[100,44062],[100,44146],[100,44229],[100,44313],[100,44395],[100,44479],[100,44562],[100,44645],[100,44729],[100,44812],[100,44895],[100,44978],[100,45061],[100,45145],[100,45228],[100,45311],[100,45394],[100,45477],[100,45561],[100,45644],[100,45727],[100,45811],[100,45893],[100,45977],[100,46060],[100,46143],[100,46226],[100,46310],[100,46394],[100,46476],[100,46560],[100,46643],[100,46726],[100,46809],[97,46892],[89.8,46976],[84.1,47059],[77.7,47142],[72.6,47226],[68.1,47309],[67.5,47392],[67.5,47476],[67.5,47559],[67.5,47641],[67.5,47725],[67.5,47808],[67.5,47891],[67.5,47974],[67.5,48057],[67.5,48141],[65.5,48225],[63,48307],[61.8,48391],[60.3,48474],[58.6,48558],[58,48641],[57.3,48724],[55.6,48807],[54.3,48891],[53.1,48974],[52.4,49057],[51.8,49140],[51.3,49223],[51.2,49306],[51.2,49390],[51.2,49474],[51.2,49556],[51.2,49639],[51.2,49723],[51.2,49806],[51.2,49889],[51.2,49972],[51.2,50055],[51.2,50139],[51.2,50222],[51.2,50305],[51.2,50389],[51.2,50471],[51.2,50555],[52.5,50638],[57.1,50722],[70.1,50805],[79.9,50888],[82.9,50971],[84.4,51055],[88.2,51138],[98.3,51222],[99.7,51305],[100,51387],[100,51471],[100,51553],[100,51637],[100,51720],[100,51803],[100,51886],[100,51970],[100,52053],[100,52136],[100,52219],[100,52303],[100,52386],[100,52469],[100,52552],[100,52635],[100,52719],[100,52803],[100,52885],[100,52968],[100,53051],[100,53135],[100,53219],[100,53301],[100,53384],[100,53468],[100,53551],[100,53635],[100,53718],[100,53801],[100,53885],[100,53968],[100,54051],[100,54135],[100,54217],[100,54300],[100,54383],[100,54467],[100,54550],[100,54633],[100,54716],[100,54800],[100,54883],[100,54966],[100,55049],[100,55132],[100,55216],[100,55299],[100,55382],[100,55465],[100,55548],[100,55632],[100,55715],[100,55799],[100,55881]]",377.5176,386.4395,99.53115781,7.4891,"[{""rating"":99.58259264628093,""responseTime"":3.444500000000005},{""rating"":94.69480514526367,""responseTime"":6.302899999998488},{""rating"":99.53115781148274,""responseTime"":7.489100000001486}]",space,8.3815,,386.4396,Not at all,0,386.4453,,,[],,0,1,1,1,1,audio/Narrative7Situation1.wav,audio/Narrative8Situation1.wav,audio/Narrative5Situation1.wav,audio/Narrative6Situation1.wav,2,5,5,2,6.4154,,,,,,,,,,,,,,,,,,,,,,,,,,,,,,,,,,,,,,
,,,,,66bffd8c97a80ac91e1087e0,2025-07-07_19h09.10.813,group3.4_multiperson,2023.2.2,Linux x86_64,59.88023952,686c2ebf0248f13bef9af11f,686c7b8e4dc07da34584cf0a,,,,,,,,,,,,,,,,,,,,,,,,,,,,,386.4457,1,audio/Narrative7Situation2.wav,389.4529,,389.453,396.9443,"[[999,0],[999,82],[999,165],[999,249],[999,332],[999,415],[999,498],[999,581],[999,665],[999,748],[999,831],[49.4,914],[49.6,998],[49.7,1082],[50.1,1165],[50.2,1248],[50.2,1331],[50.2,1414],[50.2,1497],[50.2,1581],[50.2,1664],[50.2,1747],[50.2,1830],[50.1,1914],[49.8,1997],[49.6,2080],[49.5,2163],[49.5,2246],[49.5,2329],[49.5,2413],[49.5,2496],[49.5,2579],[49.5,2662],[49.5,2745],[49.5,2829],[50,2912],[50.8,2996],[51.1,3079],[51.2,3169],[51.2,3245],[51.2,3336],[51.2,3419],[51.2,3502],[51.2,3580],[51.2,3668],[51.2,3750],[69.2,3829],[72.7,3911],[74,4003],[74.8,4086],[75.5,4165],[82.6,4251],[86.6,4334],[87.6,4417],[93.9,4532],[98.4,4598],[99.5,4682],[100,4760],[100,4843],[100,4927],[100,5010],[100,5093],[100,5176],[100,5259],[100,5342],[100,5426],[100,5509],[100,5592],[100,5676],[100,5758],[100,5842],[100,5925],[100,6008],[100,6092],[100,6175],[100,6259],[100,6341],[100,6425],[100,6508],[100,6591],[100,6675],[100,6757],[100,6841],[100,6924],[100,7007],[100,7090],[100,7173],[100,7257],[100,7340],[100,7423]]",396.9445,401.1223,99.97989337,2.7379,"[{""rating"":99.97989336649577,""responseTime"":2.73789999999849}]",space,3.6302,,401.1224,Definitely yes,100,401.1294,,,[],,0,2,2,2,1,audio/Narrative7Situation2.wav,audio/Narrative8Situation2.wav,audio/Narrative5Situation2.wav,audio/Narrative6Situation2.wav,3,3,3,3,,,,,,,,,,,,,,,,,,,,,,,,,,,,,,,,,,,,,,,
,,,,,66bffd8c97a80ac91e1087e0,2025-07-07_19h09.10.813,group3.4_multiperson,2023.2.2,Linux x86_64,59.88023952,686c2ebf0248f13bef9af11f,686c7b8e4dc07da34584cf0a,,,,,,,,,,,,,,,,,,,,,,,,,,,,,401.1299,1,audio/Narrative7Situation3.wav,409.133,,409.133,418.385,"[[51.9,835],[51.5,918],[51.4,995],[51.1,1079],[50.6,1169],[50.5,1250],[50.4,1329],[50.4,1411],[50.4,1494],[50.4,1580],[50.4,1664],[50.4,1750],[50.4,1834],[50.4,1926],[50.4,2009],[50.5,2093],[50.6,2176],[50.6,2259],[50.6,2343],[50.1,2426],[48.3,2510],[47.8,2593],[47.8,2675],[47.8,2759],[47.8,2841],[31,2926],[16.3,3008],[8.7,3091],[7.5,3175],[6.2,3258],[6.1,3341],[6.1,3424],[6.1,3508],[0.6,3591],[2,4590],[2,4673],[2,4756],[2,4839],[1.8,4923],[1.1,5012],[0.6,5089],[0.5,5173],[0.5,5256],[0.6,5339],[7.9,5422],[12.8,5505],[15.9,5588],[36.3,5672],[43,5756],[42.9,5838],[42.9,5922],[42.9,6005],[42.9,6088],[42.9,6170],[42.9,6254],[43.5,6338],[44.3,6421],[44.5,6505],[44.6,6587],[44.8,6671],[46.2,6758],[46.9,6837],[47.3,6921],[47.9,7004],[48.6,7088],[51.6,7170],[93.5,7253],[100,7337],[100,7420],[100,7503],[100,7586],[100,7669],[100,7752],[100,7835],[100,7919],[100,8002],[100,8085],[100,8169],[100,8252],[100,8335],[100,8426],[100,8504],[99.9,8585],[97.1,8669],[95.5,8752],[95,8836],[94.4,8926],[91.6,9010],[90.7,9089],[90.7,9169],[90.7,9251]]",418.3853,423.7124,67.99093088,4.1671,"[{""rating"":67.99093087514242,""responseTime"":4.167100000001483}]",space,4.7819,,423.7124,Not at all,0,423.7181,,,[],,0,3,3,3,1,audio/Narrative7Situation3.wav,audio/Narrative8Situation3.wav,audio/Narrative5Situation3.wav,audio/Narrative6Situation3.wav,8,4,3,5,,,,,,,,,,,,,,,,,,,,,,,,,,,,,,,,,,,,,,,
,,,,,66bffd8c97a80ac91e1087e0,2025-07-07_19h09.10.813,group3.4_multiperson,2023.2.2,Linux x86_64,59.88023952,686c2ebf0248f13bef9af11f,686c7b8e4dc07da34584cf0a,,,,,,,,,,,,,,,,,,,,,,,,,,,,,423.7186,1,audio/Narrative7Situation4.wav,426.7249,,426.725,438.4598,"[[999,0],[999,86],[999,173],[999,252],[999,336],[999,415],[55.4,506],[53.5,584],[53,670],[52.6,756],[51.9,840],[51.4,918],[50.8,1025],[50,1105],[49.8,1181],[49.7,1264],[49.7,1347],[49.7,1431],[49.7,1514],[44.4,1598],[0.2,1685],[7.3,2521],[8,2601],[11.3,2686],[24.5,2767],[27.9,2852],[28,2929],[28,3015],[28,3096],[28,3185],[31.1,3263],[37.2,3345],[43.9,3434],[49.4,3517],[49.9,3596],[49.9,3678],[49.9,3761],[49.8,3844],[48.9,3929],[39.1,4019],[38.3,4094],[38.3,4184],[38.3,4268],[38.3,4347],[38.2,4433],[38,4518],[36.9,4601],[36.5,4678],[36.1,4760],[36,4848],[35.5,4933],[34.3,5016],[34.3,5098],[34.3,5176],[24.1,6192],[23.9,6274],[22.6,6358],[18.6,6441],[15,6524],[4.8,6613],[1.1,6691],[0.1,6775]]",438.46,443.1218,1.047650973,3.7731,"[{""rating"":1.0476509730021177,""responseTime"":3.7731000000014774}]",space,4.1138,,443.1219,Not at all,0,451.4117,0.031224887,4.9665,"[{""rating"":0.031224886576336486,""responseTime"":4.966499999999996}]",space,0,4,4,4,1,audio/Narrative7Situation4.wav,audio/Narrative8Situation4.wav,audio/Narrative5Situation4.wav,audio/Narrative6Situation4.wav,3,3,1,2,,,7.724,,,,,,,,,,,,,,,,,,,,,,,,,,,,,,,,,,,,
,,,,,66bffd8c97a80ac91e1087e0,2025-07-07_19h09.10.813,group3.4_multiperson,2023.2.2,Linux x86_64,59.88023952,686c2ebf0248f13bef9af11f,686c7b8e4dc07da34584cf0a,,,,,,,,,,,,,,,,,,,,,,,,,,,,,451.4123,1,audio/Narrative7Situation5.wav,456.4217,,456.4218,464.9125,"[[999,1],[999,82],[999,200],[999,282],[999,365],[999,449],[999,532],[999,615],[999,698],[999,786],[999,873],[999,950],[999,1039],[50.2,1122],[50.2,1204],[50.1,1290],[50,1372],[50,1448],[50,1531],[50,1614],[50,1697],[50,1781],[50,1870],[50,1954],[32.3,2032],[28.9,2119],[24.6,2201],[21.3,2300],[20.9,2388],[20.9,2463],[20.9,2552],[20.9,2633],[20.9,2713],[25.5,2797],[36.8,2887],[38.3,2966],[43.1,3047],[44.1,3133],[49.7,3237],[53.2,3320],[53.3,3395],[53.3,3480],[53.1,3569],[53,3646],[52.3,3733],[51.4,3818],[51.2,3896],[51,3984],[50.9,4068],[50.9,4144],[50.9,4228],[50.9,4317],[50.9,4402],[50.9,4477],[50.9,4561],[50.9,4644],[50.9,4730],[50.9,4817],[50.9,4894],[50.9,4977],[50.9,5067],[50.9,5151],[50.9,5233],[50.9,5311],[50.9,5401],[50.9,5483],[50.9,5561],[50.9,5643],[50.9,5733],[50.9,5813],[50.9,5892],[50.9,5976],[50.9,6068],[50.9,6142],[50.9,6225],[50.9,6308],[50.9,6395],[50.9,6475],[50.9,6558],[50.9,6642],[51.4,6725],[51.6,6808],[51.8,6899],[52.5,6975],[53.8,7058],[54.3,7150],[54.4,7224],[54.6,7314],[54.7,7397],[54.7,7480],[54.7,7564],[54.7,7640],[54.7,7729],[54.7,7807],[54.7,7890],[54.8,7973],[54.8,8064],[54.9,8140],[54.9,8223],[54.9,8306],[54.8,8390],[54.4,8473]]",464.9128,477.2183,82.20231533,11.4845,"[{""rating"":82.20231533050537,""responseTime"":11.484499999999912}]",space,11.741,,477.2184,Not at all,0,477.2219,,,[],,0,5,5,5,1,audio/Narrative7Situation5.wav,audio/Narrative8Situation5.wav,audio/Narrative5Situation5.wav,audio/Narrative6Situation5.wav,5,2,5,2,,,,,,,,,,,,,,,,,,,,,,,,,,,,,,,,,,,,,,,
,,,,,66bffd8c97a80ac91e1087e0,2025-07-07_19h09.10.813,group3.4_multiperson,2023.2.2,Linux x86_64,59.88023952,686c2ebf0248f13bef9af11f,686c7b8e4dc07da34584cf0a,,,,,,,,,,,,,,,,,,,,,,,,,,,,,477.2226,1,audio/Narrative7Situation6.wav,480.2265,,480.2266,490.2139,"[[52.8,668],[52.7,754],[52.4,839],[51.3,921],[50.7,1003],[50.6,1081],[50.4,1168],[50.4,1247],[50.4,1331],[50.4,1414],[50.4,1504],[50.4,1588],[50.4,1669],[50.4,1747],[50.4,1833],[56.8,1914],[70.5,2001],[76.4,2081],[79.3,2167],[81.7,2247],[88.4,2338],[91.7,2420],[92.4,2503],[92.4,2583],[92.4,2663],[92.4,2749],[92.4,2829],[100,2913],[100,2996],[100,3079],[100,3170],[100,3253],[100,3328],[100,3412],[100,3495],[100,3581],[100,3661],[100,3745],[100,3835],[100,3915],[100,3997],[100,4078],[100,4161],[100,4245],[100,4328],[100,4410],[100,4494],[100,4583],[100,4661],[100,4743],[100,4826],[100,4916],[100,4993],[100,5086],[100,5161],[100,5243],[100,5326],[100,5409],[100,5493],[100,5575],[100,5666],[100,5742],[100,5829],[100,5916],[100,5996],[100,6075],[100,6163],[100,6247],[100,6329],[100,6408],[100,6496],[100,6582],[100,6659],[100,6741],[100,6830],[100,6911],[100,6991],[100,7074],[100,7163],[100,7243],[100,7324],[100,7408],[100,7491],[100,7573],[100,7663],[100,7743],[100,7823],[100,7913],[100,7997],[100,8089],[100,8172],[100,8255],[100,8340],[100,8421],[100,8505],[100,8588],[100,8671],[100,8755],[100,8838],[100,8921],[100,9004],[100,9088],[100,9171],[100,9254],[100,9342],[100,9421],[100,9503],[100,9587],[100,9670],[100,9753],[100,9837],[100,9921]]",490.2142,493.3768,99.96582667,2.4292,"[{""rating"":99.96582667032878,""responseTime"":2.429200000002993}]",space,2.6126,,493.377,Definitely yes,100,493.3831,,,[],,0,6,6,6,1,audio/Narrative7Situation6.wav,audio/Narrative8Situation6.wav,audio/Narrative5Situation6.wav,audio/Narrative6Situation6.wav,3,2,3,2,,,,,,,,,,,,,,,,,,,,,,,,,,,,,,,,,,,,,,,
,,,,,66bffd8c97a80ac91e1087e0,2025-07-07_19h09.10.813,group3.4_multiperson,2023.2.2,Linux x86_64,59.88023952,686c2ebf0248f13bef9af11f,686c7b8e4dc07da34584cf0a,,,,,,,,,,,,,,,,,,,,,,,,,,,,,493.3836,1,audio/Narrative7Situation7.wav,498.3874,,498.3876,515.566,"[[53.1,751],[52.3,833],[52.1,917],[51.9,998],[51.1,1081],[50.8,1165],[50.7,1247],[55.8,1331],[94.8,1415],[97,1498],[97,1581],[97.1,1664],[100,1747],[100,1832],[100,1914],[100,1997],[100,2080],[100,2164],[100,2246],[100,2330],[100,2413],[100,2496],[100,2580],[100,2663],[100,2746],[100,2830],[100,2912],[100,2995],[100,3078],[100,3162],[100,3245],[100,3328],[100,3412],[100,3495],[100,3578],[100,3661],[100,3744],[100,3828],[100,3911],[100,3994],[100,4077],[100,4161],[100,4244],[100,4327],[100,4411],[100,4493],[100,4577],[100,4660],[100,4743],[100,4826],[100,4909],[100,4993],[100,5076],[100,5159],[100,5243],[100,5326],[100,5409],[100,5492],[100,5575],[100,5659],[100,5742],[100,5825],[100,5908],[100,5992],[100,6075],[100,6158],[100,6241],[100,6324],[100,6408],[100,6491],[100,6574],[100,6658],[100,6741],[100,6824],[100,6908],[100,6991],[100,7074],[100,7157],[100,7240],[100,7323],[100,7406],[100,7490],[100,7573],[100,7656],[100,7739],[100,7823],[100,7906],[100,7989],[100,8072],[100,8156],[100,8239],[100,8322],[100,8405],[100,8489],[100,8572],[100,8655],[100,8739],[100,8821],[100,8905],[100,8988],[100,9072],[100,9154],[100,9238],[100,9321],[100,9404],[100,9487],[100,9570],[100,9654],[100,9737],[100,9820],[100,9904],[100,9987],[100,10070],[100,10153],[100,10236],[100,10320],[100,10403],[100,10486],[100,10569],[100,10654],[100,10736],[100,10819],[100,10902],[100,10985],[100,11069],[100,11152],[100,11235],[100,11318],[100,11402],[100,11486],[100,11568],[100,11651],[100,11735],[100,11818],[100,11902],[100,11984],[100,12068],[100,12151],[100,12235],[100,12318],[100,12401],[100,12484],[100,12567],[100,12650],[100,12734],[100,12817],[100,12900],[100,12983],[100,13066],[100,13150],[100,13233],[100,13316],[100,13399],[100,13483],[100,13566],[100,13649],[100,13732],[100,13815],[100,13898],[100,13982],[100,14065],[100,14148],[100,14232],[100,14315],[100,14398],[100,14481],[100,14564],[100,14648],[100,14731],[100,14814],[100,14897],[100,14981],[100,15064],[100,15147],[100,15230],[100,15313],[100,15397],[100,15480],[100,15564],[100,15646],[100,15746],[100,15829],[100,15913],[100,15996],[100,16079],[100,16162],[100,16246],[100,16329],[100,16412],[100,16495],[100,16579],[100,16662],[100,16745],[100,16829],[100,16911],[100,16995],[100,17078],[100,17161]]",515.5663,518.729,99.93540446,1.9212,"[{""rating"":99.93540445963542,""responseTime"":1.9212000000029548}]",space,2.6193,,518.7291,Partially,50,518.7338,,,[],,0,7,7,7,1,audio/Narrative7Situation7.wav,audio/Narrative8Situation7.wav,audio/Narrative5Situation7.wav,audio/Narrative6Situation7.wav,5,3,4,5,,,,,,,,,,,,,,,,,,,,,,,,,,,,,,,,,,,,,,,
,,,,,66bffd8c97a80ac91e1087e0,2025-07-07_19h09.10.813,group3.4_multiperson,2023.2.2,Linux x86_64,59.88023952,686c2ebf0248f13bef9af11f,686c7b8e4dc07da34584cf0a,,,,,,,,,,,,,,,,,,,,,,,,,,,,,518.7342,1,audio/Narrative7Situation8.wav,520.7484,,520.7484,530.7822,"[[999,0],[999,78],[999,161],[999,245],[999,328],[999,411],[999,510],[999,594],[999,677],[57,760],[56.1,844],[55.9,927],[55.1,1010],[53.5,1094],[52.8,1178],[52.8,1260],[98.2,1344],[100,1676],[100,1759],[100,1863],[100,1942],[100,2026],[100,2109],[100,2192],[100,2275],[100,2359],[100,2442],[100,2525],[100,2608],[100,2691],[100,2775],[100,2858],[100,2941],[100,3024],[100,3107],[100,3190],[100,3274],[100,3357],[100,3440],[100,3524],[100,3606],[100,3690],[100,3773],[100,3856],[100,3939],[100,4027],[100,4106],[100,4189],[100,4272],[100,4356],[100,4439],[100,4522],[100,4605],[100,4688],[100,4772],[100,4855],[100,4938],[100,5022],[100,5105],[100,5188],[100,5272],[100,5355],[100,5438],[100,5521],[100,5604],[100,5688],[100,5771],[100,5854],[100,5937],[100,6021],[100,6104],[100,6187],[100,6270],[100,6353],[100,6436],[100,6520],[100,6603],[100,6686],[100,6769],[100,6855],[100,6936],[100,7019],[100,7102],[100,7185],[100,7269],[100,7352],[100,7435],[100,7519],[100,7602],[100,7686],[100,7768],[100,7852],[100,7935],[100,8018],[100,8101],[100,8185],[100,8269],[100,8351],[100,8435],[99.8,8518],[99.7,8602],[99.7,8684],[99.7,8768],[99.7,8851],[99.7,8934],[99.7,9018],[99.7,9100],[99.7,9184],[99.7,9267],[99.7,9349],[99.7,9433],[99.7,9516],[99.7,9600],[99.7,9682],[99.7,9766],[99.7,9850],[99.7,9932],[99.7,10016]]",530.7823,533.447,99.77474213,1.14,"[{""rating"":99.77474212646484,""responseTime"":1.1399999999999864}]",space,2.1143,,533.4472,Partially,50,533.4501,,,[],,0,8,8,8,1,audio/Narrative7Situation8.wav,audio/Narrative8Situation8.wav,audio/Narrative5Situation8.wav,audio/Narrative6Situation8.wav,2,3,3,5,,,,,,,,,,,,,,,,,,,,,,,,,,,,,,,,,,,,,,,
,,,,,66bffd8c97a80ac91e1087e0,2025-07-07_19h09.10.813,group3.4_multiperson,2023.2.2,Linux x86_64,59.88023952,686c2ebf0248f13bef9af11f,686c7b8e4dc07da34584cf0a,,,,,,,,,,,,,,,,,,,,,,,,,,,,,533.4507,1,audio/Narrative7Situation9.wav,535.4591,,535.4591,544.0987,"[[999,0],[999,84],[999,191],[999,275],[999,354],[999,439],[999,521],[999,599],[999,683],[999,767],[999,851],[999,939],[999,1015],[999,1103],[51.8,1182],[51.9,1270],[52.3,1351],[95.2,1605],[95.8,1689],[95.8,1765],[95.8,1848],[95.8,1931],[95.9,2014],[97.4,2113],[97.7,2201],[98.2,2281],[98.6,2363],[98.9,2446],[99.2,2530],[99.4,2613],[99.6,2697],[99.9,2780],[100,2863],[100,2946],[100,3029],[100,3112],[100,3195],[100,3279],[100,3362],[100,3445],[100,3528],[100,3611],[100,3694],[100,3778],[100,3861],[100,3945],[100,4027],[100,4111],[100,4194],[100,4277],[100,4361],[100,4444],[100,4527],[100,4610],[100,4693],[100,4776],[100,4860],[100,4943],[100,5027],[100,5110],[100,5193],[100,5276],[100,5359],[100,5443],[100,5526],[100,5610],[100,5692],[100,5775],[100,5858],[100,5942],[100,6025],[100,6108],[100,6191],[100,6275],[100,6358],[100,6441],[100,6524],[100,6608],[100,6691],[100,6774],[100,6857],[100,6941],[100,7024],[100,7107],[100,7190],[100,7273],[100,7357],[100,7440],[100,7523],[100,7607],[100,7690],[100,7773],[100,7856],[100,7939],[100,8023],[100,8106],[100,8189],[100,8273],[100,8356],[100,8439],[100,8522],[100,8606]]",544.0989,548.3603,99.62641398,2.0547,"[{""rating"":99.6264139811198,""responseTime"":2.0546999999955915}]",space,3.7165,,548.3604,Definitely yes,100,548.3652,,,[],,0,9,9,9,1,audio/Narrative7Situation9.wav,audio/Narrative8Situation9.wav,audio/Narrative5Situation9.wav,audio/Narrative6Situation9.wav,2,3,3,4,,,,,,,,,,,,,,,,,,,,,,,,,,,,,,,,,,,,,,,
,,,,,66bffd8c97a80ac91e1087e0,2025-07-07_19h09.10.813,group3.4_multiperson,2023.2.2,Linux x86_64,59.88023952,686c2ebf0248f13bef9af11f,686c7b8e4dc07da34584cf0a,,,,,,,,,,,,,,,,,,,,,,,,,,,,,548.3657,1,audio/Narrative8Situation1.wav,553.3701,,553.3702,569.3014,"[[999,0],[999,83],[999,166],[999,249],[999,332],[999,416],[999,499],[64.2,583],[60.5,665],[57.8,749],[53,833],[49.2,916],[48.5,999],[48.1,1082],[47.9,1166],[48,1250],[48.2,1332],[48.3,1422],[48.4,1504],[48.4,1581],[48.4,1671],[48.4,1748],[48.4,1835],[48.4,1914],[48.4,1998],[48.4,2082],[48.9,2172],[49,2256],[49.2,2339],[49.3,2415],[49.5,2498],[49.6,2580],[49.7,2666],[49.7,2747],[49.7,2833],[49.7,2913],[49.7,2996],[49.7,3086],[49.7,3167],[49.7,3246],[49.7,3330],[49.7,3413],[49.7,3496],[49.7,3579],[49.7,3664],[49.7,3753],[49.7,3829],[49.7,3913],[49.7,3999],[49.7,4079],[49.7,4161],[49.7,4273],[49.7,4344],[49.7,4428],[49.7,4511],[49.7,4594],[49.7,4677],[49.6,4761],[49.3,4845],[48.8,4928],[48.3,5012],[46.9,5094],[41.9,5177],[38.3,5261],[35.3,5344],[33.3,5428],[33,5510],[33,5593],[33,5676],[33,5759],[33,5842],[31.9,5926],[30.8,6011],[30.3,6092],[29.7,6176],[28.5,6260],[27.5,6343],[27.2,6426],[26.6,6509],[25.7,6593],[25,6676],[25,6758],[25,6841],[25,6925],[25,7008],[25,7091],[25,7174],[25,7257],[24.5,7341],[21.4,7425],[20.4,7507],[19.6,7591],[19.3,7674],[19.2,7762],[19,7841],[19,7924],[19,8007],[19,8098],[19,8181],[19,8265],[19,8340],[19,8429],[19,8510],[19,8590],[19,8673],[19,8756],[20.2,8840],[25.9,8923],[27.2,9006],[30.7,9098],[32.8,9173],[34.6,9256],[43.6,9349],[46,9428],[51.5,9513],[52,9589],[52,9672],[52,9755],[52,9838],[100,10504],[100,10594],[100,10671],[100,10754],[100,10843],[100,10920],[100,11004],[100,11091],[100,11171],[100,11253],[100,11337],[100,11428],[100,11503],[100,11586],[100,11669],[100,11757],[100,11842],[100,11919],[100,12009],[100,12091],[100,12172],[100,12252],[100,12336],[100,12422],[100,12502],[100,12585],[100,12668],[100,12758],[100,12841],[100,12925],[100,13008],[100,13084],[100,13170],[100,13257],[100,13340],[100,13424],[100,13507],[100,13584],[100,13667],[100,13751],[100,13833],[100,13917],[100,14000],[100,14084],[100,14166],[100,14249],[100,14333],[100,14422],[100,14506],[100,14583],[100,14666],[100,14750],[100,14832],[100,14923],[100,15006],[100,15085],[100,15165],[100,15248],[100,15338],[100,15422],[100,15505],[100,15582],[100,15668],[100,15754],[100,15831],[100,15914]]",569.3016,574.6961,91.01613363,4.668,"[{""rating"":91.01613362630208,""responseTime"":4.667999999999893}]",space,4.8516,,574.6962,Definitely yes,100,574.7003,,,[],,0,10,10,10,1,audio/Narrative8Situation1.wav,audio/Narrative7Situation1.wav,audio/Narrative6Situation1.wav,audio/Narrative5Situation1.wav,5,2,2,5,,,,,,,,,,,,,,,,,,,,,,,,,,,,,,,,,,,,,,,
,,,,,66bffd8c97a80ac91e1087e0,2025-07-07_19h09.10.813,group3.4_multiperson,2023.2.2,Linux x86_64,59.88023952,686c2ebf0248f13bef9af11f,686c7b8e4dc07da34584cf0a,,,,,,,,,,,,,,,,,,,,,,,,,,,,,574.7008,1,audio/Narrative8Situation2.wav,577.7075,,577.7076,587.8618,"[[54.6,333],[54,421],[53.2,499],[51.9,582],[51.3,666],[50.8,749],[50,832],[49.8,916],[49.7,999],[49.7,1082],[49.9,1166],[50.2,1248],[51.6,1331],[59.2,1422],[59.4,1501],[59.3,1589],[59,1669],[56.9,1754],[50.8,1834],[48.2,1922],[47.6,1997],[47.6,2086],[47.6,2164],[47.6,2247],[47.6,2331],[8.6,2423]]",587.8619,591.2917,0.34396251,1.2756,"[{""rating"":0.34396251042683734,""responseTime"":1.2756000000014183}]",space,2.8782,,591.2919,Not at all,0,591.2967,,,[],,0,11,11,11,1,audio/Narrative8Situation2.wav,audio/Narrative7Situation2.wav,audio/Narrative6Situation2.wav,audio/Narrative5Situation2.wav,3,3,3,3,,,,,,,,,,,,,,,,,,,,,,,,,,,,,,,,,,,,,,,
,,,,,66bffd8c97a80ac91e1087e0,2025-07-07_19h09.10.813,group3.4_multiperson,2023.2.2,Linux x86_64,59.88023952,686c2ebf0248f13bef9af11f,686c7b8e4dc07da34584cf0a,,,,,,,,,,,,,,,,,,,,,,,,,,,,,591.2972,1,audio/Narrative8Situation3.wav,595.303,,595.303,617.6926,"[[999,0],[999,83],[999,166],[999,249],[999,333],[999,416],[999,499],[999,586],[999,665],[999,748],[999,831],[999,915],[999,998],[6.7,1081],[4.3,1165],[2.9,1248],[2,1331],[1.4,1415],[0.8,1498],[0.6,1581],[0.4,1664],[0.2,1748],[0.1,1839],[2,3331],[11.8,3417],[19.7,3503],[32,3581],[36.2,3668],[37.2,3753],[41.1,3837],[43.9,3916],[45.7,3995],[46.8,4082],[47.7,4168],[48.2,4252],[48.3,4329],[48.3,4411],[48.3,4494],[48.3,4578],[48.3,4661],[48.3,4744],[48.3,4827],[48.7,4911],[49.3,4994],[49.5,5078],[50.4,5164],[52.4,5245],[54.4,5336],[67.7,5417],[71,5502],[71.2,5584],[71.1,5660],[71.1,5746],[71.1,5832],[71.1,5917],[71.1,5995],[71.1,6083],[88.5,6167],[93.3,6247],[96.8,6327],[99,6409],[99.9,6499],[100,6577],[100,6664],[100,6753],[100,6831],[100,6908],[100,6991],[100,7074],[100,7159],[100,7242],[97.1,7324],[95.8,7412],[94.9,7496],[94.2,7580],[94,7663],[93.8,7741],[92.7,7827],[92.3,7913],[94.6,7991],[98.1,8081],[100,8157],[100,8240],[100,8324],[100,8410],[100,8490],[100,8573],[100,8656],[100,8741],[100,8829],[100,8906],[100,8988],[100,9072],[100,9160],[100,9242],[100,9323],[100,9410],[100,9496],[100,9576],[100,9655],[100,9738],[100,9821],[100,9909],[100,9992],[100,10070],[100,10154],[100,10245],[100,10322],[100,10411],[100,10494],[100,10577],[100,10654],[100,10743],[100,10820],[100,10903],[100,10986],[100,11070],[100,11154],[100,11236],[100,11326],[100,11403],[100,11491],[100,11569],[100,11652],[100,11743],[100,11835],[100,11918],[100,12001],[100,12085],[100,12168],[100,12251],[100,12334],[100,12418],[100,12501],[100,12584],[100,12667],[100,12750],[100,12834],[100,12917],[100,13000],[100,13084],[100,13166],[100,13250],[100,13333],[100,13416],[100,13500],[100,13583],[100,13666],[100,13749],[100,13832],[100,13916],[100,13999],[100,14082],[100,14165],[100,14249],[100,14332],[100,14415],[100,14499],[100,14582],[100,14665],[100,14748],[100,14831],[100,14923],[100,15004],[100,15090],[100,15166],[100,15251],[100,15331],[100,15421],[100,15506],[100,15581],[100,15671],[100,15754],[100,15837],[100,15923],[100,15997],[100,16080],[100,16163],[100,16247],[100,16331],[100,16420],[100,16497],[100,16580],[100,16663],[100,16746],[100,16830],[100,16913],[100,16996],[100,17085],[100,17163],[100,17245],[100,17335],[100,17416],[100,17502],[100,17586],[100,17661],[100,17748],[100,17828],[100,17918],[100,17995],[100,18078],[100,18162],[100,18245],[100,18328],[100,18418],[100,18498],[100,18577],[100,18668],[100,18751],[100,18827],[100,18917],[100,18996],[100,19077],[100,19160],[100,19245],[100,19334],[100,19416],[100,19499],[100,19576],[100,19659],[100,19749],[100,19825],[100,19912],[100,19992],[100,20082],[100,20160],[100,20242],[100,20325],[100,20409],[100,20498],[100,20578],[100,20665],[100,20747],[100,20827],[100,20915],[100,20996],[100,21079],[100,21163],[100,21247],[100,21324],[100,21408],[100,21495],[100,21573],[100,21663],[100,21740],[100,21845],[100,21922],[100,22009],[100,22093],[100,22173],[100,22255],[100,22339]]",617.6929,620.2062,99.70442454,1.3924,"[{""rating"":99.70442454020183,""responseTime"":1.3923999999984744}]",space,1.9747,,620.2063,Partially,50,620.2118,,,[],,0,12,12,12,1,audio/Narrative8Situation3.wav,audio/Narrative7Situation3.wav,audio/Narrative6Situation3.wav,audio/Narrative5Situation3.wav,4,8,5,3,,,,,,,,,,,,,,,,,,,,,,,,,,,,,,,,,,,,,,,
,,,,,66bffd8c97a80ac91e1087e0,2025-07-07_19h09.10.813,group3.4_multiperson,2023.2.2,Linux x86_64,59.88023952,686c2ebf0248f13bef9af11f,686c7b8e4dc07da34584cf0a,,,,,,,,,,,,,,,,,,,,,,,,,,,,,620.2124,1,audio/Narrative8Situation4.wav,623.2187,,623.2188,637.4019,"[[75.3,582],[74,666],[69.1,749],[64.4,832],[62.3,916],[59.7,999],[58.3,1083],[56.8,1166],[51.7,1249],[50.5,1333],[50.2,1415],[50,1498],[50,1582],[50,1665],[50,1748],[50,1831],[50,1914],[50,1997],[50,2080],[50,2164],[48.3,2247],[47.9,2331],[47.8,2414],[47.8,2497],[51.3,2581],[85.6,2664],[86.5,2746],[86.5,2830],[86.5,2913],[86.5,2996],[100,3080],[100,3163],[100,3246],[100,3329],[100,3413],[100,3495],[100,3579],[100,3662],[100,3745],[100,3828],[100,3911],[100,3995],[100,4078],[100,4161],[100,4245],[100,4329],[100,4417],[100,4499],[100,4584],[100,4668],[100,4745],[100,4833],[100,4914],[100,4994],[100,5077],[100,5164],[100,5250],[100,5327],[100,5411],[100,5494],[100,5584],[100,5667],[100,5750],[100,5834],[100,5917],[100,5998],[100,6076],[100,6159],[100,6246],[100,6333],[100,6409],[100,6493],[100,6576],[100,6663],[100,6745],[100,6833],[100,6910],[100,6995],[100,7075],[100,7158],[100,7242],[100,7324],[100,7408],[100,7491],[100,7578],[100,7658],[100,7748],[100,7830],[100,7915],[100,7993],[100,8079],[100,8162],[100,8240],[100,8324],[100,8407],[100,8496],[100,8580],[100,8660],[100,8739],[100,8823],[100,8906],[100,8989],[100,9073],[100,9156],[100,9239],[100,9330],[100,9406],[100,9488],[100,9577],[100,9655],[100,9739],[100,9829],[100,9912],[100,9988],[100,10071],[100,10154],[100,10238],[100,10321],[100,10408],[100,10487],[100,10575],[100,10654],[100,10738],[100,10820],[100,10911],[100,10987],[100,11070],[100,11154],[100,11243],[100,11327],[100,11403],[100,11487],[100,11570],[100,11656],[100,11743],[100,11826],[100,11908],[100,11989],[100,12076],[100,12156],[100,12241],[100,12321],[100,12402],[100,12490],[100,12584],[100,12668],[100,12751],[100,12834],[100,12917],[100,13000],[100,13084],[100,13168],[100,13250],[100,13334],[100,13417],[100,13500],[100,13583],[100,13666],[100,13749],[100,13833],[100,13916],[100,13999],[100,14082],[100,14166]]",637.4021,642.3965,99.51774279,3.9858,"[{""rating"":99.5177427927653,""responseTime"":3.985800000004474}]",space,4.4448,,642.3965,Definitely yes,100,642.4014,,,[],,0,13,13,13,1,audio/Narrative8Situation4.wav,audio/Narrative7Situation4.wav,audio/Narrative6Situation4.wav,audio/Narrative5Situation4.wav,3,3,2,1,,,,,,,,,,,,,,,,,,,,,,,,,,,,,,,,,,,,,,,
,,,,,66bffd8c97a80ac91e1087e0,2025-07-07_19h09.10.813,group3.4_multiperson,2023.2.2,Linux x86_64,59.88023952,686c2ebf0248f13bef9af11f,686c7b8e4dc07da34584cf0a,,,,,,,,,,,,,,,,,,,,,,,,,,,,,642.4019,1,audio/Narrative8Situation5.wav,644.4178,,644.4179,652.6667,"[[50.7,661],[50.2,746],[50,830],[50,913],[50,996],[50,1077],[50,1158],[50,1246],[50,1331],[50,1410],[59.5,1490],[71,1580],[72.6,1665],[96.2,1748],[99.2,1829],[100,1907],[100,1996],[100,2075],[100,2162],[100,2247],[100,2326],[100,2405],[100,2496],[100,2579],[100,2656],[100,2739],[100,2829],[100,2908],[100,2988],[100,3078],[100,3163],[100,3242],[100,3326],[100,3405],[100,3521],[100,3605],[100,3688],[100,3770],[100,3854],[100,3937],[100,4020],[100,4103],[100,4186],[100,4270],[100,4353],[100,4436],[100,4519],[100,4603],[100,4686],[100,4769],[100,4852],[100,4935],[100,5019],[100,5102],[100,5185],[100,5268],[100,5352],[100,5435],[100,5518],[100,5602],[100,5685],[100,5768],[100,5851],[100,5935],[100,6017],[100,6102],[100,6184],[100,6267],[100,6351],[100,6434],[100,6517],[100,6600],[100,6683],[100,6767],[100,6850],[100,6933],[100,7016],[100,7099],[100,7183],[100,7266],[100,7350],[100,7432],[100,7515],[100,7599],[100,7682],[100,7765],[100,7848],[100,7932],[100,8015],[100,8098],[100,8181]]",652.667,656.7788,99.50332642,3.2903,"[{""rating"":99.50332641601562,""responseTime"":3.290299999997046}]",space,3.5663,,656.7788,Partially,50,656.7835,,,[],,0,14,14,14,1,audio/Narrative8Situation5.wav,audio/Narrative7Situation5.wav,audio/Narrative6Situation5.wav,audio/Narrative5Situation5.wav,2,5,2,5,,,,,,,,,,,,,,,,,,,,,,,,,,,,,,,,,,,,,,,
,,,,,66bffd8c97a80ac91e1087e0,2025-07-07_19h09.10.813,group3.4_multiperson,2023.2.2,Linux x86_64,59.88023952,686c2ebf0248f13bef9af11f,686c7b8e4dc07da34584cf0a,,,,,,,,,,,,,,,,,,,,,,,,,,,,,656.784,1,audio/Narrative8Situation6.wav,658.7931,,658.7931,665.2763,"[[50.5,998],[50.3,1091],[50.1,1165],[49.7,1247],[49.6,1331],[49.5,1414],[49.5,1497],[50,1581],[58.1,1664],[62.1,1748],[62.2,1830],[62.2,1913],[62.2,1997],[62.2,2080],[62.2,2164],[62.2,2246],[62.2,2331],[61.9,2413],[60.2,2496],[56.3,2579],[54.2,2663],[51.7,2746],[50.7,2829],[50,2913],[49.6,2996],[49.4,3078],[49.4,3161],[49.4,3245],[49.4,3328],[49.4,3412],[49.4,3495],[49.4,3578],[49.4,3661],[49.4,3744],[49.4,3828],[49.4,3911],[49.4,3994],[49.4,4077],[49.4,4160],[49.4,4243],[49.4,4327],[49.4,4410],[49.4,4494],[49.4,4576],[49.4,4660],[49.4,4743],[49.4,4826],[49.4,4910],[49.4,4993],[49.4,5076],[49.4,5160],[49.5,5243],[50.1,5326],[51.4,5409],[52.2,5493],[52.7,5576],[53.3,5659],[53.9,5742],[54.1,5826],[54.4,5909],[54.8,5992],[55.3,6076],[55.6,6179],[55.8,6242],[56,6326],[56.9,6416]]",665.2765,671.2782,99.44958687,5.2427,"[{""rating"":99.44958686828613,""responseTime"":5.242700000002969}]",space,5.4379,,671.2783,Definitely yes,100,671.285,,,[],,0,15,15,15,1,audio/Narrative8Situation6.wav,audio/Narrative7Situation6.wav,audio/Narrative6Situation6.wav,audio/Narrative5Situation6.wav,2,3,2,3,,,,,,,,,,,,,,,,,,,,,,,,,,,,,,,,,,,,,,,
,,,,,66bffd8c97a80ac91e1087e0,2025-07-07_19h09.10.813,group3.4_multiperson,2023.2.2,Linux x86_64,59.88023952,686c2ebf0248f13bef9af11f,686c7b8e4dc07da34584cf0a,,,,,,,,,,,,,,,,,,,,,,,,,,,,,671.2855,1,audio/Narrative8Situation7.wav,674.2917,,674.2917,686.3926,"[[50.7,505],[50.3,589],[50.1,666],[50,754],[50,837],[50,922],[50,998],[50,1081],[50,1164],[50,1247],[50,1331],[50,1414],[50,1504],[50,1585],[50,1664],[48.2,1771],[35.1,1851],[22.9,1952],[20.5,2036],[20.5,2112],[20.5,2196],[20.5,2280],[15.1,2364],[9,2447],[7.5,2530],[7.3,2619],[7.9,2697],[52.1,2779],[56.5,2870],[57,2953],[57.9,3033],[58.1,3112],[58.1,3201],[58.1,3278],[61.1,3368],[100,3977],[99.1,4062],[90.8,4144],[91,4226],[92.3,4310],[96.7,4393],[99.2,4476],[100,4560],[100,4644],[100,4726],[100,4810],[100,4892],[100,4975],[100,5059],[100,5142],[100,5225],[100,5308],[100,5392],[100,5475],[100,5558],[100,5641],[100,5725],[100,5808],[100,5891],[100,5974],[100,6057],[100,6141],[100,6224],[100,6307],[100,6390],[100,6474],[100,6557],[100,6640],[100,6723],[100,6806],[100,6890],[100,6973],[100,7056],[100,7139],[100,7222],[100,7306],[100,7389],[100,7472],[100,7556],[100,7639],[100,7722],[100,7806],[100,7889],[100,7972],[100,8055],[100,8138],[100,8221],[100,8305],[100,8388],[100,8471],[100,8563],[100,8637],[100,8721],[100,8804],[100,8887],[100,8971],[100,9054],[100,9137],[100,9220],[100,9304],[100,9387],[100,9470],[100,9553],[100,9637],[100,9720],[100,9803],[100,9887],[100,9969],[100,10052],[100,10136],[100,10219],[100,10302],[100,10386],[100,10469],[100,10552],[100,10635],[100,10718],[100,10802],[100,10885],[100,10968],[100,11051],[100,11134],[100,11218],[100,11301],[100,11384],[100,11467],[100,11551],[100,11634],[100,11717],[100,11800],[100,11884],[100,11966],[100,12050]]",686.3928,688.7894,99.91277059,1.5745,"[{""rating"":99.9127705891927,""responseTime"":1.5744999999999436}]",space,1.8565,,688.7896,Partially,50,688.7986,,,[],,0,16,16,16,1,audio/Narrative8Situation7.wav,audio/Narrative7Situation7.wav,audio/Narrative6Situation7.wav,audio/Narrative5Situation7.wav,3,5,5,4,,,,,,,,,,,,,,,,,,,,,,,,,,,,,,,,,,,,,,,
,,,,,66bffd8c97a80ac91e1087e0,2025-07-07_19h09.10.813,group3.4_multiperson,2023.2.2,Linux x86_64,59.88023952,686c2ebf0248f13bef9af11f,686c7b8e4dc07da34584cf0a,,,,,,,,,,,,,,,,,,,,,,,,,,,,,688.7991,1,audio/Narrative8Situation8.wav,691.8037,,691.8038,704.6704,"[[50,82],[49.8,165],[49.7,248],[49.7,331],[49.7,414],[49.7,498],[49.7,581],[49.7,664],[49.7,747],[49.7,831],[49.7,914],[49.7,997],[49.7,1080],[49.7,1163],[49.7,1246],[49.7,1330],[49.7,1413],[49.7,1496],[49.7,1580],[49.7,1663],[49.7,1746],[49.7,1829],[49.7,1913],[49.7,1996],[49.7,2079],[49.7,2162],[49.7,2246],[49.7,2329],[49.7,2411],[49.7,2495],[49.7,2578],[49.7,2662],[50.3,2745],[51.5,2828],[56.1,2912],[57.5,2995],[58,3078],[62.3,3161],[65.3,3245],[67.7,3328],[70.7,3411],[70.9,3494],[70.9,3577],[70.9,3660],[70.9,3744],[70.9,3827],[75.8,3910],[82.2,3993],[91.1,4077],[93.6,4164],[94.5,4243],[98.7,4327],[100,4410],[100,4494],[100,4577],[100,4660],[100,4743],[100,4825],[100,4909],[100,4992],[100,5075],[100,5158],[100,5242],[100,5325],[100,5408],[100,5491],[100,5575],[100,5658],[100,5741],[100,5824],[100,5908],[100,5991],[100,6074],[100,6157],[100,6241],[100,6324],[100,6407],[100,6490],[100,6573],[100,6657],[100,6740],[100,6823],[100,6907],[100,6990],[100,7073],[100,7156],[100,7239],[100,7323],[100,7406],[100,7489],[100,7573],[100,7656],[100,7739],[100,7822],[100,7905],[100,7989],[100,8072],[100,8155],[100,8238],[100,8321],[100,8405],[100,8488],[100,8571],[100,8654],[100,8737],[100,8821],[100,8904],[100,8987],[100,9070],[100,9153],[100,9237],[100,9320],[100,9404],[100,9486],[100,9570],[100,9653],[100,9736],[100,9819],[100,9903],[100,9986],[100,10069],[100,10152],[100,10236],[100,10319],[100,10402],[100,10485],[100,10568],[100,10652],[100,10735],[100,10818],[100,10901],[100,10985],[100,11068],[100,11151],[100,11235],[100,11318],[100,11401],[100,11485],[100,11567],[100,11650],[100,11734],[100,11817],[100,11900],[100,11984],[100,12067],[100,12150],[100,12233],[100,12316],[100,12399],[100,12483],[100,12566],[100,12650],[100,12733],[100,12816]]",704.6705,708.5004,99.52624639,2.8369,"[{""rating"":99.52624638875325,""responseTime"":2.8368999999985363}]",space,3.2885,,708.5005,Not at all,0,708.5054,,,[],,0,17,17,17,1,audio/Narrative8Situation8.wav,audio/Narrative7Situation8.wav,audio/Narrative6Situation8.wav,audio/Narrative5Situation8.wav,3,2,5,3,,,,,,,,,,,,,,,,,,,,,,,,,,,,,,,,,,,,,,,
,,,,,66bffd8c97a80ac91e1087e0,2025-07-07_19h09.10.813,group3.4_multiperson,2023.2.2,Linux x86_64,59.88023952,686c2ebf0248f13bef9af11f,686c7b8e4dc07da34584cf0a,,,,,,,,,,,,,,,,,,,,,,,,,,,,,708.5058,1,audio/Narrative8Situation9.wav,711.5194,,711.5195,722.8315,"[[50.2,841],[50.1,924],[50.1,1008],[50.1,1091],[50.1,1174],[50.1,1257],[50.1,1341],[50.1,1424],[50.1,1506],[50.1,1590],[50.1,1673],[50.5,1757],[51.6,1840],[52.8,1923],[53.1,2007],[53.3,2090],[60.2,2173],[68.9,2257],[73.5,2340],[74.1,2423],[74.2,2506],[74.2,2589],[74.2,2672],[74.2,2755],[85.7,2839],[91.7,2922],[94.1,3005],[94.9,3089],[99.1,3172],[100,3267],[100,3344],[100,3425],[100,3514],[100,3635],[100,3704],[100,3787],[100,3870],[100,3954],[100,4037],[100,4120],[100,4204],[100,4287],[100,4370],[100,4453],[100,4536],[100,4620],[100,4703],[100,4786],[100,4869],[100,4952],[100,5036],[100,5119],[100,5202],[100,5285],[100,5368],[100,5452],[100,5535],[100,5618],[100,5702],[100,5785],[100,5868],[100,5951],[100,6034],[100,6118],[100,6201],[100,6284],[100,6367],[100,6451],[100,6534],[100,6617],[100,6700],[100,6784],[100,6867],[100,6950],[100,7034],[100,7117],[100,7200],[100,7283],[100,7367],[100,7451],[100,7533],[100,7616],[100,7699],[100,7783],[100,7867],[100,7949],[100,8032],[100,8115],[100,8199],[100,8282],[100,8365],[100,8448],[100,8531],[100,8615],[100,8698],[100,8781],[100,8865],[100,8948],[100,9031],[100,9114],[100,9197],[100,9281],[100,9364],[100,9447],[100,9531],[100,9614],[100,9697],[100,9781],[100,9863],[100,9947],[100,10030],[100,10113],[100,10197],[100,10280],[100,10363],[100,10446],[100,10530],[100,10613],[100,10695],[100,10779],[100,10862],[100,10946],[100,11029],[100,11112],[100,11195],[100,11278]]",722.8317,728.6427,99.37399228,4.9529,"[{""rating"":99.37399228413899,""responseTime"":4.952899999998522}]",space,5.2712,,728.6428,Not at all,0,728.646,,,[],,0,18,18,18,1,audio/Narrative8Situation9.wav,audio/Narrative7Situation9.wav,audio/Narrative6Situation9.wav,audio/Narrative5Situation9.wav,3,2,4,3,,,,,,,,,,,,,,,,,,,,,,,,,,,,,,,,,,,,,,,
,,,,,66bffd8c97a80ac91e1087e0,2025-07-07_19h09.10.813,group3.4_multiperson,2023.2.2,Linux x86_64,59.88023952,686c2ebf0248f13bef9af11f,686c7b8e4dc07da34584cf0a,,,,,,,,,,,,,,,,,,,,,,,,,,,746.1239,748.7074,748.7541,2,audio/Narrative13Situation2.wav,748.7543,,748.7543,778.5149,"[[999,0],[999,80],[999,162],[999,245],[999,328],[999,412],[999,495],[999,577],[999,661],[999,745],[999,828],[999,911],[999,994],[999,1078],[50.7,1161],[50.7,1245],[50.7,1328],[50.7,1410],[50.7,1493],[50.8,1577],[50.8,1660],[50.8,1743],[50.8,1826],[50.8,1909],[50.8,1993],[50.8,2076],[50.8,2159],[50.8,2242],[50.8,2326],[50.8,2409],[50.8,2492],[50.8,2575],[50.9,2659],[51.2,2742],[51.4,2825],[51.6,2909],[53.1,2992],[54.1,3076],[56.3,3159],[72.7,3242],[79.8,3325],[100,3409],[100,3491],[100,3574],[100,3658],[100,3741],[100,3824],[100,3907],[100,3990],[100,4074],[100,4157],[100,4240],[100,4323],[100,4406],[100,4489],[100,4573],[100,4656],[100,4740],[100,4822],[100,4906],[100,4989],[100,5073],[100,5156],[100,5238],[100,5322],[100,5405],[100,5488],[100,5572],[100,5655],[100,5738],[100,5821],[100,5905],[100,5988],[100,6071],[100,6154],[100,6237],[100,6321],[100,6404],[100,6487],[100,6570],[100,6654],[100,6737],[100,6820],[100,6903],[100,6986],[100,7070],[100,7153],[100,7236],[100,7320],[100,7404],[100,7486],[100,7569],[100,7652],[100,7736],[100,7819],[100,7903],[100,7985],[100,8069],[100,8152],[100,8235],[100,8318],[100,8402],[100,8485],[100,8568],[100,8651],[100,8735],[100,8818],[100,8901],[100,8984],[100,9067],[100,9151],[100,9234],[100,9317],[100,9401],[100,9484],[100,9567],[100,9651],[100,9733],[100,9817],[100,9900],[100,9983],[100,10066],[100,10150],[100,10233],[100,10316],[100,10399],[100,10482],[100,10566],[100,10649],[100,10732],[100,10816],[100,10899],[100,10982],[100,11065],[100,11148],[100,11232],[100,11315],[100,11398],[100,11481],[100,11565],[100,11648],[100,11731],[100,11814],[100,11897],[100,11981],[100,12064],[100,12147],[100,12230],[100,12314],[100,12397],[100,12480],[100,12563],[100,12647],[100,12730],[100,12813],[100,12896],[100,12980],[100,13062],[100,13146],[100,13229],[100,13312],[100,13396],[100,13479],[100,13562],[100,13645],[100,13729],[100,13812],[100,13895],[100,13978],[100,14061],[100,14145],[100,14228],[100,14311],[100,14394],[100,14478],[100,14561],[100,14644],[100,14727],[100,14810],[100,14894],[100,14977],[100,15060],[100,15144],[100,15226],[100,15310],[100,15393],[100,15476],[100,15560],[100,15643],[100,15726],[100,15809],[100,15892],[100,15976],[100,16059],[100,16143],[100,16226],[100,16309],[100,16392],[100,16476],[100,16559],[100,16641],[100,16725],[100,16808],[100,16891],[100,16974],[100,17058],[100,17141],[100,17224],[100,17307],[100,17391],[100,17474],[100,17557],[100,17640],[100,17723],[100,17807],[100,17890],[100,17974],[100,18057],[100,18140],[100,18223],[100,18306],[100,18389],[100,18473],[100,18556],[100,18639],[100,18723],[100,18805],[100,18889],[100,18972],[100,19055],[100,19138],[100,19222],[100,19305],[100,19388],[100,19472],[100,19555],[100,19638],[100,19722],[100,19804],[100,19888],[100,19971],[100,20054],[100,20137],[100,20221],[100,20304],[100,20387],[100,20470],[100,20553],[100,20637],[100,20720],[100,20803],[100,20887],[100,20970],[100,21053],[100,21136],[100,21219],[100,21302],[100,21386],[100,21469],[100,21552],[100,21636],[100,21719],[100,21802],[100,21885],[100,21969],[100,22052],[100,22135],[100,22218],[100,22302],[100,22384],[100,22468],[100,22551],[100,22635],[100,22718],[100,22801],[100,22884],[100,22967],[100,23051],[100,23134],[100,23217],[100,23300],[100,23383],[100,23466],[100,23550],[100,23633],[100,23717],[100,23800],[100,23883],[100,23966],[100,24049],[100,24132],[100,24216],[100,24299],[100,24382],[100,24465],[100,24549],[100,24632],[100,24715],[100,24799],[94.9,24882],[94,24965],[93.4,25048],[93,25132],[92.9,25215],[92.9,25298],[93.1,25381],[98.2,25465],[99.6,25548],[99.9,25631],[100,25714],[100,25798],[100,25881],[100,25964],[100,26047],[100,26130],[100,26214],[100,26297],[100,26380],[100,26464],[100,26546],[100,26630],[100,26713],[100,26796],[100,26879],[100,26962],[100,27046],[100,27129],[100,27212],[100,27295],[100,27380],[100,27463],[91.3,27545],[88.3,27629],[86.4,27712],[79.9,27796],[72.8,27878],[71.4,27962],[71.4,28062],[71.4,28145],[71.4,28228],[61.4,28311],[58.2,28394],[57.6,28478],[57.4,28561],[56.9,28644],[53.3,28728],[52.5,28811],[52,28894],[51.3,28977],[51,29061],[51,29143],[51.5,29227],[52.2,29310],[52.6,29393],[52.7,29476],[52.7,29560],[52.7,29643],[52.7,29726]]",778.5152,778.5193,,,[],,,,778.5194,Partially,50,778.5245,,,[],,0,0,0,0,1,audio/Narrative13Situation2.wav,audio/Narrative13Situation2.wav,audio/Narrative13Situation2.wav,audio/Narrative13Situation2.wav,2,2,2,2,,,,,728.6466,746.1234,space,16.9593,,,,,,,,,,,,,,,,,,,,,,,,,,,,,,,
,,,,,66bffd8c97a80ac91e1087e0,2025-07-07_19h09.10.813,group3.4_multiperson,2023.2.2,Linux x86_64,59.88023952,686c2ebf0248f13bef9af11f,686c7b8e4dc07da34584cf0a,,,,,,,,,,,,,,,,,,,,,,,,,,,,,778.5249,2,audio/Narrative5Situation1.wav,783.5414,,783.5415,796.8418,"[[56.1,999],[54,1082],[53.4,1165],[52.6,1248],[50.9,1332],[50.5,1414],[50.4,1498],[50.2,1581],[49.9,1664],[50,1755],[50.6,1831],[51,1918],[51.6,1998],[52.2,2085],[52.3,2165],[52.3,2248],[52,2336],[51.5,2422],[51.1,2501],[50.6,2586],[50.3,2669],[50.3,2747],[50.3,2835],[50.3,2917],[50.3,2996],[50.3,3079],[50.3,3168],[50.3,3246],[47.3,3330],[33.1,3413],[13.3,3995],[12.8,4078],[12.6,4163],[11.3,4245],[10.6,4328],[3.8,4412],[1.5,4495],[1.3,4586],[1.1,4679],[0.2,4767],[19,10022],[25,10104],[30.5,10187],[51.9,10271],[54.3,10353],[54.3,10443],[54.2,10520],[54,10604],[53.9,10687],[53.1,10770],[52.8,10853],[52.7,10937],[52.6,11019],[52.6,11102],[52.6,11186],[52.6,11269],[76.6,11352],[80.1,11436],[80.9,11519],[82.1,11602],[89.1,11690],[92.3,11769],[94.7,11853],[98.9,11936],[99.7,12019],[99.7,12102],[100,12185],[100,12268],[100,12352],[100,12434],[100,12518],[100,12601],[100,12685],[100,12767],[100,12850],[100,12934],[100,13017],[100,13100],[100,13183],[100,13268]]",796.842,800.4378,99.68833923,2.837,"[{""rating"":99.68833923339844,""responseTime"":2.836999999999989}]",space,3.0452,,800.438,Definitely yes,100,800.4436,,,[],,0,1,1,1,1,audio/Narrative7Situation1.wav,audio/Narrative8Situation1.wav,audio/Narrative5Situation1.wav,audio/Narrative6Situation1.wav,2,5,5,2,,,,,,,,,,,,,,,,,,,,,,,,,,,,,,,,,,,,,,,
,,,,,66bffd8c97a80ac91e1087e0,2025-07-07_19h09.10.813,group3.4_multiperson,2023.2.2,Linux x86_64,59.88023952,686c2ebf0248f13bef9af11f,686c7b8e4dc07da34584cf0a,,,,,,,,,,,,,,,,,,,,,,,,,,,,,800.444,2,audio/Narrative5Situation2.wav,803.4514,,803.4514,832.9365,"[[51,83],[50.8,166],[50.5,249],[50.4,1830],[50.5,1913],[50.6,1996],[50.6,2080],[51.1,2164],[62.2,2247],[65.7,2330],[66.1,2413],[66.1,2496],[66.1,2579],[66.1,2662],[66.1,2745],[66.1,2829],[66.1,2912],[66.1,2995],[66.1,3079],[66.9,3162],[67.7,3245],[68.1,3328],[68.5,3412],[68.7,3495],[68.9,3578],[69,3662],[69.2,3745],[69.4,3828],[69.5,3911],[69.7,3995],[69.8,4077],[70,4161],[70.2,4244],[70.3,4327],[70.5,4411],[70.5,4493],[70.5,4577],[70.5,4659],[70.5,4743],[70.5,4826],[70.5,4909],[70.5,4992],[70.5,5076],[70.5,5159],[70.5,5242],[70.5,5326],[70.5,5409],[70.5,5492],[70.5,5575],[70.5,5658],[70.5,5742],[73.1,5825],[80.1,5908],[82.8,5992],[91.5,6075],[96.6,6158],[100,6242],[100,6325],[100,6408],[100,6492],[100,6575],[100,6657],[100,6741],[100,6824],[100,6907],[100,6990],[100,7074],[100,7156],[100,7240],[100,7323],[100,7406],[100,7489],[100,7574],[100,7656],[100,7739],[100,7822],[100,7906],[100,7989],[100,8072],[100,8155],[100,8238],[100,8322],[100,8461],[100,8538],[100,8622],[100,8704],[100,8788],[100,8871],[100,8954],[100,9037],[100,9120],[100,9204],[100,9287],[100,9370],[100,9454],[100,9537],[100,9620],[100,9704],[100,9786],[100,9869],[100,9953],[100,10036],[100,10120],[100,10203],[100,10286],[100,10369],[100,10463],[100,10543],[100,10619],[100,10703],[100,10786],[100,10869],[100,10952],[100,11035],[100,11119],[100,11201],[100,11285],[100,11368],[100,11452],[100,11535],[100,11621],[100,11701],[100,11784],[100,11867],[100,11951],[100,12034],[100,12118],[100,12200],[100,12283],[100,12367],[100,12450],[100,12533],[100,12617],[100,12700],[100,12783],[100,12866],[100,12950],[100,13033],[100,13116],[100,13199],[100,13282],[100,13366],[100,13449],[100,13532],[100,13615],[100,13698],[100,13781],[100,13865],[100,13948],[100,14032],[100,14115],[100,14198],[100,14282],[100,14365],[100,14448],[100,14531],[100,14614],[100,14698],[100,14780],[100,14864],[100,14948],[100,15030],[100,15113],[100,15197],[100,15280],[100,15363],[100,15446],[100,15530],[100,15613],[100,15696],[100,15779],[100,15863],[100,15946],[100,16029],[100,16112],[100,16196],[100,16279],[100,16362],[100,16445],[100,16528],[100,16612],[100,16695],[100,16778],[100,16862],[100,16945],[100,17028],[100,17111],[100,17195],[100,17278],[100,17361],[100,17444],[100,17527],[100,17611],[100,17694],[100,17777],[100,17861],[100,17943],[100,18027],[100,18110],[100,18193],[100,18276],[100,18360],[100,18443],[100,18526],[100,18610],[100,18692],[100,18776],[100,18859],[100,18942],[100,19026],[100,19109],[100,19192],[100,19275],[100,19359],[100,19442],[100,19525],[100,19608],[100,19691],[100,19774],[100,19858],[100,19941],[100,20024],[100,20108],[100,20191],[100,20274],[100,20357],[100,20441],[100,20523],[100,20607],[100,20690],[100,20774],[100,20857],[100,20940],[100,21023],[100,21106],[100,21190],[100,21273],[100,21356],[100,21439],[100,21523],[100,21606],[100,21689],[100,21772],[100,21855],[100,21939],[100,22022],[100,22105],[100,22188],[100,22272],[100,22355],[100,22438],[100,22521],[100,22605],[100,22688],[100,22771],[100,22854],[100,22938],[100,23020],[100,23104],[100,23187],[100,23270],[100,23353],[100,23437],[100,23520],[100,23604],[100,23687],[100,23770],[100,23853],[100,23936],[100,24020],[100,24102],[100,24186],[100,24269],[100,24352],[100,24435],[100,24519],[100,24602],[100,24685],[100,24769],[100,24852],[100,24935],[100,25019],[100,25101],[100,25185],[100,25268],[100,25351],[100,25435],[100,25518],[100,25601],[100,25684],[100,25767],[100,25850],[100,25934],[100,26017],[100,26101],[100,26183],[94.1,26267],[59.7,26517],[58.1,26600],[50.1,27016],[48.2,27099],[48,27183],[48,27272],[48,27357],[28.5,27440],[6,28705],[6.2,28780],[6.2,28865],[6.2,28947],[6.2,29031],[6.2,29115],[6.2,29197],[6.2,29289],[6.2,29371],[6.2,29453]]",832.9368,835.9616,77.79881954,2.1994,"[{""rating"":77.79881954193115,""responseTime"":2.199399999998491}]",space,2.4623,,835.9618,Not at all,0,835.9669,,,[],,0,2,2,2,1,audio/Narrative7Situation2.wav,audio/Narrative8Situation2.wav,audio/Narrative5Situation2.wav,audio/Narrative6Situation2.wav,3,3,3,3,,,,,,,,,,,,,,,,,,,,,,,,,,,,,,,,,,,,,,,
,,,,,66bffd8c97a80ac91e1087e0,2025-07-07_19h09.10.813,group3.4_multiperson,2023.2.2,Linux x86_64,59.88023952,686c2ebf0248f13bef9af11f,686c7b8e4dc07da34584cf0a,,,,,,,,,,,,,,,,,,,,,,,,,,,,,835.9675,2,audio/Narrative5Situation3.wav,838.9744,,838.9744,852.8908,"[[999,0],[999,83],[999,166],[999,251],[999,332],[999,415],[999,500],[999,585],[999,672],[999,757],[49.6,837],[49.6,924],[49.8,1006],[49.9,1086],[50,1165],[50,1248],[50,1331],[50,1422],[50,1505],[50,1587],[50,1671],[47.5,1748],[39.4,1832],[33.3,1914],[32.3,2002],[30.6,2085],[30.6,2171],[30.6,2254],[30.6,2337],[3.9,2420],[12,2838],[45.4,2920],[49.8,3006],[60.8,3088],[62.7,3168],[62.7,3250],[62.7,3335],[62.7,3418],[100,3496],[100,3579],[100,3669],[100,3752],[100,3837],[100,3914],[100,4000],[100,4082],[100,4163],[100,4248],[100,4329],[100,4413],[100,4495],[100,4586],[100,4661],[100,4745],[100,4828],[100,4918],[100,4994],[100,5078],[100,5166],[100,5259],[100,5342],[100,5426],[100,5509],[100,5592],[100,5676],[100,5759],[100,5844],[100,5927],[100,6009],[100,6092],[100,6175],[100,6258],[100,6342],[100,6425],[100,6508],[100,6592],[100,6674],[100,6758],[100,6841],[100,6924],[100,7007],[100,7091],[100,7174],[100,7257],[100,7340],[100,7424],[100,7507],[100,7590],[100,7673],[100,7757],[100,7839],[100,7923],[100,8006],[100,8089],[100,8173],[100,8255],[100,8339],[100,8422],[100,8505],[100,8589],[100,8672],[100,8755],[100,8839],[100,8921],[100,9005],[100,9088],[100,9171],[100,9255],[100,9337],[100,9421],[100,9504],[100,9588],[100,9671],[100,9754],[100,9837],[100,9921],[100,10004],[100,10087],[100,10171],[100,10254],[100,10337],[100,10420],[100,10504],[100,10586],[100,10669],[100,10753],[100,10836],[100,10919],[100,11002],[100,11086],[100,11169],[100,11252],[100,11336],[100,11419],[100,11503],[100,11585],[100,11668],[100,11752],[100,11835],[100,11918],[100,12001],[100,12084],[100,12168],[100,12251],[100,12334],[100,12418],[100,12501],[100,12584],[100,12667],[100,12750],[100,12834],[100,12916],[100,13000],[100,13084],[100,13167],[100,13250],[100,13333],[100,13416],[100,13500],[100,13582],[100,13666],[100,13749],[100,13832],[100,13916]]",852.8911,856.4366,99.68484243,2.7541,"[{""rating"":99.68484242757161,""responseTime"":2.754100000001472}]",space,2.9972,,856.4367,Not at all,0,856.4394,,,[],,0,3,3,3,1,audio/Narrative7Situation3.wav,audio/Narrative8Situation3.wav,audio/Narrative5Situation3.wav,audio/Narrative6Situation3.wav,8,4,3,5,,,,,,,,,,,,,,,,,,,,,,,,,,,,,,,,,,,,,,,
,,,,,66bffd8c97a80ac91e1087e0,2025-07-07_19h09.10.813,group3.4_multiperson,2023.2.2,Linux x86_64,59.88023952,686c2ebf0248f13bef9af11f,686c7b8e4dc07da34584cf0a,,,,,,,,,,,,,,,,,,,,,,,,,,,,,856.4399,2,audio/Narrative5Situation4.wav,857.4528,,857.4529,877.8445,"[[88.7,837],[84.3,922],[83.1,1003],[79.4,1086],[56.3,1664],[84.4,1770],[97.1,1853],[100,1937],[100,2015],[100,2102],[100,2180],[100,2263],[100,2354],[100,2429],[100,2512],[100,2596],[100,2683],[100,2766],[100,2862],[100,2945],[100,3028],[100,3112],[100,3194],[100,3278],[100,3361],[100,3444],[100,3528],[100,3610],[100,3694],[100,3777],[100,3860],[100,3943],[100,4026],[100,4110],[100,4193],[100,4276],[100,4359],[100,4442],[100,4527],[100,4610],[100,4692],[100,4776],[100,4859],[100,4942],[100,5026],[100,5109],[100,5192],[100,5275],[100,5358],[100,5442],[100,5525],[100,5608],[100,5691],[100,5775],[100,5858],[100,5941],[100,6024],[100,6107],[100,6191],[100,6274],[100,6357],[100,6440],[100,6523],[100,6607],[100,6690],[100,6774],[100,6857],[100,6939],[100,7023],[100,7106],[100,7189],[100,7272],[100,7356],[100,7439],[100,7523],[100,7605],[100,7689],[100,7772],[100,7855],[100,7939],[100,8021],[100,8105],[100,8188],[100,8271],[100,8354],[100,8438],[100,8521],[100,8604],[100,8687],[100,8771],[100,8854],[100,8937],[100,9020],[100,9103],[100,9187],[100,9270],[100,9353],[100,9437],[100,9520],[100,9603],[100,9686],[100,9770],[100,9853],[100,9936],[100,10019],[100,10103],[100,10186],[100,10269],[100,10352],[100,10436],[100,10519],[100,10602],[100,10685],[100,10768],[100,10852],[100,10935],[100,11018],[100,11101],[100,11185],[100,11268],[100,11351],[100,11434],[100,11517],[100,11601],[100,11684],[100,11767],[100,11850],[100,11933],[100,12017],[100,12100],[100,12183],[100,12267],[100,12350],[100,12433],[100,12517],[100,12599],[100,12683],[100,12766],[100,12849],[100,12932],[100,13016],[100,13099],[100,13182],[100,13265],[100,13348],[100,13432],[100,13515],[100,13598],[100,13682],[100,13765],[100,13848],[100,13931],[100,14015],[100,14098],[100,14181],[100,14264],[100,14348],[100,14431],[100,14514],[100,14602],[100,14680],[100,14764],[100,14847],[100,14930],[100,15013],[100,15097],[100,15180],[100,15263],[100,15346],[100,15429],[100,15513],[100,15596],[100,15679],[100,15762],[100,15845],[100,15929],[100,16013],[100,16096],[100,16178],[100,16262],[100,16345],[100,16428],[100,16512],[100,16595],[100,16677],[100,16761],[100,16845],[100,16927],[100,17011],[100,17094],[100,17195],[100,17261],[100,17344],[100,17428],[100,17510],[100,17594],[100,17677],[100,17760],[100,17843],[100,17926],[100,18010],[100,18093],[100,18176],[100,18259],[100,18343],[100,18426],[100,18509],[100,18592],[100,18676],[100,18759],[100,18854],[100,18942],[100,19025],[100,19108],[100,19191],[100,19275],[100,19358],[100,19441],[100,19524],[100,19608],[100,19691],[100,19774],[100,19857],[100,19940],[100,20024],[100,20107],[100,20190],[100,20274],[100,20357]]",877.8448,880.4405,99.95395343,1.6055,"[{""rating"":99.95395342508952,""responseTime"":1.6055000000000064}]",space,2.0595,,880.4405,Definitely yes,100,880.4456,,,[],,0,4,4,4,1,audio/Narrative7Situation4.wav,audio/Narrative8Situation4.wav,audio/Narrative5Situation4.wav,audio/Narrative6Situation4.wav,3,3,1,2,,,,,,,,,,,,,,,,,,,,,,,,,,,,,,,,,,,,,,,
,,,,,66bffd8c97a80ac91e1087e0,2025-07-07_19h09.10.813,group3.4_multiperson,2023.2.2,Linux x86_64,59.88023952,686c2ebf0248f13bef9af11f,686c7b8e4dc07da34584cf0a,,,,,,,,,,,,,,,,,,,,,,,,,,,,,880.446,2,audio/Narrative5Situation5.wav,885.4555,,885.4556,900.882,"[[999,0],[999,82],[999,162],[999,246],[999,332],[999,412],[999,495],[999,585],[999,663],[999,751],[999,836],[999,912],[999,1000],[50.3,1084],[50.3,1161],[50.4,1251],[50.4,1334],[50.4,1413],[50.4,1494],[50.4,1584],[50.4,1661],[50.4,1745],[50.9,1833],[72.6,1918],[87,2001],[88.4,2077],[89.4,2165],[100,2251],[100,2326],[100,2413],[100,2502],[100,2579],[100,2663],[77.4,2742],[68.6,2831],[63.5,2916],[62.6,2997],[62.4,3083],[92.2,3182],[100,3279],[100,3362],[100,3442],[100,3529],[100,3608],[100,3692],[100,3774],[100,3858],[100,3947],[100,4025],[100,4107],[100,4199],[100,4282],[100,4357],[99.6,4441],[84.3,4524],[61,4606],[45.7,4694],[44.9,4782],[44.9,4860],[44.9,4945],[44.9,5024],[44.9,5106],[8.7,5190]]",900.8822,903.2634,0.174820423,1.6217,"[{""rating"":0.1748204231262207,""responseTime"":1.6217000000029884}]",space,1.832,,903.2635,Not at all,0,903.2703,,,[],,0,5,5,5,1,audio/Narrative7Situation5.wav,audio/Narrative8Situation5.wav,audio/Narrative5Situation5.wav,audio/Narrative6Situation5.wav,5,2,5,2,,,,,,,,,,,,,,,,,,,,,,,,,,,,,,,,,,,,,,,
,,,,,66bffd8c97a80ac91e1087e0,2025-07-07_19h09.10.813,group3.4_multiperson,2023.2.2,Linux x86_64,59.88023952,686c2ebf0248f13bef9af11f,686c7b8e4dc07da34584cf0a,,,,,,,,,,,,,,,,,,,,,,,,,,,,,903.2708,2,audio/Narrative5Situation6.wav,906.2812,,906.2813,911.9535,"[[999,0],[999,78],[999,161],[999,255],[999,335],[999,410],[999,494],[999,578],[999,663],[999,746],[999,830],[999,915],[999,994],[999,1078],[49.8,1167],[50.1,1251],[50.1,1326],[50.1,1413],[50.1,1499],[50.1,1576],[50.1,1663],[50.1,1742],[50.1,1825],[50.1,1909],[50.1,1993],[50.1,2076],[50.1,2159],[50.1,2248],[64.2,2745],[63.4,2825],[62.6,2915],[62.3,2995],[70.2,3075],[94.8,3157],[97.3,3249],[98,3333],[98.7,3413],[99.9,3499],[100,3581],[100,3665],[100,3747],[100,3824],[100,3913],[100,3989],[100,4076],[100,4163],[100,4240],[100,4322],[100,4406],[100,4489],[100,4580],[100,4656],[100,4740],[100,4824],[100,4912],[100,4990],[100,5073],[100,5161],[100,5238],[100,5321],[100,5405],[100,5495],[100,5571],[100,5655]]",911.9536,915.7354,99.83941714,3.0376,"[{""rating"":99.83941713968913,""responseTime"":3.0376000000014756}]",space,3.2306,,915.7355,Definitely yes,100,915.7414,,,[],,0,6,6,6,1,audio/Narrative7Situation6.wav,audio/Narrative8Situation6.wav,audio/Narrative5Situation6.wav,audio/Narrative6Situation6.wav,3,2,3,2,,,,,,,,,,,,,,,,,,,,,,,,,,,,,,,,,,,,,,,
,,,,,66bffd8c97a80ac91e1087e0,2025-07-07_19h09.10.813,group3.4_multiperson,2023.2.2,Linux x86_64,59.88023952,686c2ebf0248f13bef9af11f,686c7b8e4dc07da34584cf0a,,,,,,,,,,,,,,,,,,,,,,,,,,,,,915.7418,2,audio/Narrative5Situation7.wav,919.7427,,919.7428,940.7675,"[[999,0],[999,82],[999,169],[999,254],[999,332],[999,415],[999,499],[999,582],[999,666],[999,749],[999,832],[999,915],[999,999],[50,1083],[50.1,1165],[50.3,1249],[50.3,1332],[50.3,1415],[50.3,1498],[50.3,1581],[50.3,1664],[50.3,1747],[50.3,1831],[50.3,1914],[50.3,1997],[50.3,2080],[50.3,2163],[50.3,2247],[50.3,2330],[50.3,2413],[50.3,2497],[59.5,2580],[62.9,2663],[65.8,2752],[67.6,2830],[69.6,2913],[71.6,2996],[71.7,3080],[71.7,3163],[71.7,3246],[71.7,3329],[71.7,3412],[71.7,3495],[71.7,3578],[74.5,3662],[88,3745],[92.2,3828],[93.9,3917],[95.3,4000],[96.6,4086],[99.8,4168],[100,4262],[100,4346],[100,4435],[100,4516],[100,4602],[100,4677],[100,4761],[100,4847],[100,4927],[100,5010],[100,5094],[100,5180],[100,5294],[100,5360],[100,5447],[100,5526],[100,5610],[100,5693],[100,5776],[100,5860],[100,5943],[100,6029],[100,6110],[100,6192],[100,6283],[100,6359],[100,6442],[100,6529],[100,6609],[100,6693],[100,6775],[100,6866],[100,6942],[100,7028],[100,7113],[100,7191],[100,7278],[100,7363],[100,7442],[100,7524],[100,7614],[100,7694],[100,7773],[100,7857],[100,7941],[100,8024],[100,8114],[100,8192],[100,8274],[100,8357],[100,8440],[100,8524],[100,8606],[100,8690],[100,8774],[100,8856],[100,8939],[100,9026],[100,9109],[100,9189],[100,9272],[100,9358],[100,9444],[100,9522],[100,9611],[100,9693],[100,9777],[100,9854],[100,9945],[100,10021],[100,10104],[100,10187],[100,10271],[100,10355],[100,10440],[100,10521],[100,10609],[100,10688],[100,10778],[100,10860],[100,10937],[100,11025],[100,11110],[100,11191],[100,11277],[100,11359],[100,11465],[100,11536],[100,11619],[100,11702],[100,11785],[100,11869],[100,11951],[100,12035],[100,12118],[100,12201],[100,12285],[100,12368],[100,12451],[100,12535],[100,12617],[100,12701],[100,12784],[100,12867],[100,12950],[100,13033],[100,13117],[100,13200],[100,13283],[100,13366],[100,13466],[100,13550],[100,13633],[100,13716],[100,13799],[100,13882],[100,13966],[100,14049],[100,14133],[100,14216],[100,14298],[100,14382],[100,14465],[100,14548],[100,14632],[100,14715],[100,14798],[100,14881],[100,14964],[100,15048],[100,15131],[100,15214],[100,15298],[100,15380],[100,15464],[100,15548],[100,15631],[100,15714],[100,15797],[100,15880],[100,15963],[100,16046],[100,16130],[100,16213],[100,16296],[100,16379],[100,16463],[100,16546],[100,16629],[100,16712],[100,16796],[100,16879],[100,16962],[100,17046],[100,17129],[100,17212],[100,17295],[100,17378],[100,17461],[100,17545],[100,17628],[97.8,17711],[93.8,17795],[92,17878],[91.7,17961],[91.6,18044],[91.7,18128],[92.9,18212],[99.5,18294],[100,18378],[100,18461],[100,18544],[100,18627],[100,18710],[100,18793],[100,18877],[100,18960],[100,19043],[100,19126],[100,19210],[100,19293],[100,19376],[100,19459],[100,19543],[100,19625],[100,19709],[100,19792],[100,19875],[100,19958],[100,20042],[100,20125],[100,20208],[100,20292],[100,20375],[100,20458],[100,20541],[100,20625],[100,20708],[100,20791],[100,20874],[100,20957]]",940.7678,944.0138,99.5648543,2.5037,"[{""rating"":99.56485430399577,""responseTime"":2.5037000000030503}]",space,2.6968,,944.0139,Not at all,0,944.0193,,,[],,0,7,7,7,1,audio/Narrative7Situation7.wav,audio/Narrative8Situation7.wav,audio/Narrative5Situation7.wav,audio/Narrative6Situation7.wav,5,3,4,5,,,,,,,,,,,,,,,,,,,,,,,,,,,,,,,,,,,,,,,
,,,,,66bffd8c97a80ac91e1087e0,2025-07-07_19h09.10.813,group3.4_multiperson,2023.2.2,Linux x86_64,59.88023952,686c2ebf0248f13bef9af11f,686c7b8e4dc07da34584cf0a,,,,,,,,,,,,,,,,,,,,,,,,,,,,,944.0198,2,audio/Narrative5Situation8.wav,947.0271,,947.0271,955.8495,"[[999,0],[999,86],[50.1,499],[50.1,583],[50.1,667],[50.1,756],[50.1,834],[50.1,922],[50.1,1002],[50.1,1088],[50.1,1171],[50.1,1253],[50.1,1331],[50.1,1419],[50.1,1503],[50.1,1588],[50.1,1680],[50.1,1763],[50.1,1846],[32.1,1930],[26.7,2013],[26.4,2097],[26.4,2180],[26.4,2263],[26.8,2346],[31.8,2429],[39.1,2517],[42.1,2597],[48,2688],[49.9,2770],[50,2853],[50,2929],[50,3017],[50,3102],[50,3186],[50,3263],[50,3345],[50,3429],[50,3515],[50,3594],[50,3678],[50,3763],[50,3851],[50,3936],[50,4012],[50,4099],[50,4184],[50,4260],[50,4344],[51.1,4427],[51.6,4510],[51.8,4598],[52.1,4684],[52.5,4769],[53,4848],[53.3,4927],[53.6,5015],[55.2,5099],[56.5,5183],[56.6,5260],[56.9,5351],[57.7,5434],[58,5509],[58.1,5597],[58.3,5678],[58.4,5766],[58.6,5849],[59,5930],[59.7,6010],[60.7,6099],[61.8,6183],[61.9,6266],[61.9,6342],[61.9,6425],[61.9,6508],[61.9,6591],[61.9,6674],[61.9,6766],[61.9,6845],[61.9,6924],[61.9,7007],[61.9,7091],[61.9,7174],[61.9,7264],[61.9,7346],[61.9,7423],[61.9,7507],[60.8,7590],[56.7,7681],[54.7,7760],[53.2,7848],[52.6,7925],[51.9,8011],[50.7,8090],[50.1,8181],[50,8263],[49.8,8346],[49.7,8423],[49.7,8512],[49.7,8592],[49.7,8679],[49.7,8762]]",955.8497,960.4439,50.08764267,3.9022,"[{""rating"":50.087642669677734,""responseTime"":3.9022000000029493}]",space,4.0349,,960.4441,Not at all,0,960.447,,,[],,0,8,8,8,1,audio/Narrative7Situation8.wav,audio/Narrative8Situation8.wav,audio/Narrative5Situation8.wav,audio/Narrative6Situation8.wav,2,3,3,5,,,,,,,,,,,,,,,,,,,,,,,,,,,,,,,,,,,,,,,
,,,,,66bffd8c97a80ac91e1087e0,2025-07-07_19h09.10.813,group3.4_multiperson,2023.2.2,Linux x86_64,59.88023952,686c2ebf0248f13bef9af11f,686c7b8e4dc07da34584cf0a,,,,,,,,,,,,,,,,,,,,,,,,,,,,,960.4474,2,audio/Narrative5Situation9.wav,963.4615,,963.4616,1003.0088,"[[999,0],[999,81],[999,161],[999,245],[999,332],[999,411],[999,494],[999,578],[50.5,666],[50.5,746],[50.5,832],[50.4,918],[50.4,994],[50.4,1077],[50.4,1160],[50.4,1244],[50.4,1326],[50.4,1410],[50.4,1493],[50.4,1576],[50.4,1659],[50.4,1742],[60.1,1826],[67.3,1910],[86.5,1993],[100,2077],[100,2162],[100,2242],[100,2333],[100,2409],[100,2492],[100,2579],[100,2661],[100,2741],[100,2830],[100,2909],[100,2995],[100,3080],[100,3166],[100,3241],[100,3324],[100,3407],[100,3490],[100,3575],[100,3657],[100,3741],[100,3823],[100,3913],[100,3990],[100,4089],[100,4172],[100,4256],[100,4339],[100,4422],[100,4505],[100,4588],[100,4672],[100,4756],[100,4839],[100,4921],[100,5005],[100,5088],[100,5171],[100,5255],[100,5338],[100,5421],[100,5504],[100,5588],[100,5671],[100,5754],[100,5837],[100,5921],[100,6004],[100,6087],[100,6170],[100,6253],[100,6336],[100,6420],[100,6503],[100,6586],[100,6669],[100,6760],[100,6836],[100,6919],[100,7003],[100,7086],[100,7169],[100,7252],[100,7335],[100,7419],[100,7502],[100,7585],[100,7668],[100,7751],[100,7835],[100,7918],[100,8001],[100,8084],[100,8167],[100,8251],[100,8334],[100,8417],[100,8501],[100,8584],[100,8667],[100,8750],[100,8833],[100,8916],[100,9000],[100,9083],[100,9166],[100,9250],[100,9333],[100,9416],[100,9499],[100,9583],[100,9666],[100,9749],[100,9833],[100,9916],[100,9999],[100,10082],[100,10166],[100,10249],[100,10332],[100,10415],[100,10498],[100,10581],[100,10665],[100,10748],[100,10831],[100,10914],[100,10998],[100,11081],[100,11164],[100,11247],[100,11331],[100,11414],[100,11497],[100,11580],[100,11663],[100,11746],[100,11830],[100,11914],[100,11997],[100,12079],[100,12163],[100,12246],[100,12329],[100,12412],[100,12495],[100,12579],[100,12662],[100,12746],[100,12829],[100,12912],[100,12995],[100,13079],[100,13162],[100,13245],[100,13328],[100,13411],[100,13495],[100,13578],[100,13661],[100,13744],[100,13828],[100,13911],[100,13994],[100,14077],[100,14161],[100,14243],[100,14327],[100,14411],[100,14493],[100,14576],[100,14659],[100,14743],[100,14826],[100,14910],[100,14993],[100,15076],[100,15159],[100,15243],[100,15359],[100,15442],[100,15525],[100,15608],[100,15692],[100,15775],[100,15858],[100,15941],[100,16024],[100,16108],[100,16192],[100,16275],[100,16358],[100,16441],[100,16524],[100,16608],[100,16691],[100,16774],[100,16857],[100,16940],[100,17024],[100,17107],[100,17190],[100,17273],[100,17356],[100,17439],[100,17523],[100,17606],[100,17689],[100,17773],[100,17856],[100,17939],[100,18022],[100,18106],[100,18189],[100,18272],[100,18356],[100,18439],[100,18521],[100,18605],[100,18688],[100,18775],[100,18855],[100,18938],[100,19021],[100,19104],[100,19188],[100,19271],[100,19354],[100,19437],[100,19521],[100,19604],[100,19691],[100,19773],[100,19853],[100,19937],[100,20020],[100,20103],[100,20186],[100,20270],[100,20353],[100,20437],[100,20519],[100,20603],[100,20686],[100,20769],[100,20852],[100,20935],[100,21019],[100,21102],[100,21185],[100,21269],[100,21352],[100,21435],[100,21518],[100,21602],[100,21685],[100,21768],[100,21851],[100,21934],[100,22018],[100,22101],[100,22184],[100,22267],[100,22350],[100,22434],[100,22517],[100,22600],[100,22683],[100,22767],[100,22850],[100,22933],[100,23016],[100,23100],[100,23183],[100,23266],[100,23349],[100,23432],[100,23516],[100,23599],[100,23682],[100,23766],[100,23849],[100,23932],[100,24015],[100,24098],[100,24182],[100,24265],[100,24348],[100,24431],[100,24515],[100,24598],[100,24681],[100,24764],[100,24847],[100,24931],[100,25014],[100,25097],[100,25180],[100,25264],[100,25347],[100,25430],[100,25513],[100,25596],[100,25680],[100,25763],[100,25846],[100,25930],[100,26013],[100,26096],[100,26180],[100,26263],[100,26346],[100,26429],[100,26512],[100,26595],[100,26679],[100,26762],[100,26845],[100,26928],[100,27012],[100,27094],[100,27179],[100,27261],[100,27345],[100,27428],[100,27511],[100,27594],[100,27677],[100,27760],[100,27844],[100,27927],[100,28010],[100,28094],[100,28177],[100,28260],[100,28343],[100,28427],[100,28509],[100,28593],[100,28676],[100,28759],[100,28843],[100,28926],[100,29009],[100,29099],[100,29176],[100,29259],[100,29342],[100,29425],[100,29509],[100,29592],[100,29675],[100,29759],[100,29842],[100,29925],[100,30007],[100,30092],[100,30174],[100,30257],[100,30340],[100,30424],[100,30508],[100,30591],[100,30674],[100,30757],[100,30840],[100,30924],[100,31006],[100,31090],[100,31173],[100,31256],[100,31339],[100,31423],[100,31506],[100,31589],[100,31673],[100,31756],[100,31839],[100,31922],[100,32006],[100,32089],[100,32173],[100,32255],[100,32338],[100,32421],[100,32505],[100,32588],[100,32671],[100,32755],[100,32838],[100,32921],[100,33005],[100,33087],[100,33170],[100,33254],[100,33338],[100,33421],[100,33504],[100,33587],[100,33670],[100,33754],[100,33837],[100,33920],[100,34003],[100,34086],[100,34170],[100,34253],[100,34336],[100,34420],[100,34503],[100,34586],[100,34670],[100,34753],[100,34836],[100,34919],[100,35002],[100,35085],[100,35170],[100,35253],[100,35336],[100,35419],[100,35502],[100,35585],[100,35668],[100,35751],[100,35834],[100,35917],[100,36001],[100,36085],[100,36167],[100,36250],[100,36333],[100,36417],[100,36500],[100,36583],[100,36666],[100,36750],[97,36833],[80.2,36916],[79.5,37000],[79.5,37083],[79.5,37166],[79.5,37250],[79.3,37333],[78.8,37416],[78.6,37499],[78.6,37583],[78.6,37666],[78.6,37749],[71.9,37832],[53.6,38415],[58.6,38499],[66.2,38582],[68.8,38669],[69.7,38755],[70.6,38848],[77.8,38931],[83.4,39020],[83.5,39105],[83.5,39185],[83.5,39264],[83.5,39348],[83.5,39430],[83.1,39515]]",1003.0091,1007.97,99.57989057,3.237,"[{""rating"":99.5798905690511,""responseTime"":3.2369999999998527}]",space,4.412,,1007.97,Partially,50,1007.9749,,,[],,0,9,9,9,1,audio/Narrative7Situation9.wav,audio/Narrative8Situation9.wav,audio/Narrative5Situation9.wav,audio/Narrative6Situation9.wav,2,3,3,4,,,,,,,,,,,,,,,,,,,,,,,,,,,,,,,,,,,,,,,
,,,,,66bffd8c97a80ac91e1087e0,2025-07-07_19h09.10.813,group3.4_multiperson,2023.2.2,Linux x86_64,59.88023952,686c2ebf0248f13bef9af11f,686c7b8e4dc07da34584cf0a,,,,,,,,,,,,,,,,,,,,,,,,,,,,,1007.9756,2,audio/Narrative6Situation1.wav,1009.9914,,1009.9914,1036.5679,"[[999,0],[999,94],[999,181],[999,258],[999,341],[999,425],[999,508],[999,592],[999,677],[999,764],[999,848],[999,925],[50.7,1009],[50.6,1099],[50.5,1174],[50.3,1264],[50.3,1341],[50.2,1424],[50.2,1507],[50.2,1590],[50.2,1674],[50.2,1757],[50.2,1846],[50.2,1923],[50.2,2009],[50.2,2090],[50.2,2177],[50.2,2256],[47.6,2339],[19.5,2426],[9,2506],[5,2589],[0.9,2672],[4.8,5601],[19.6,5685],[49.8,5768],[56.3,5852],[56.7,5934],[70.8,6018],[71.5,6101],[71.4,6185],[71.4,6267],[71.2,6351],[60.9,6435],[51.1,6517],[48.2,6601],[47.5,6684],[47.2,6767],[47.1,6850],[47.3,6934],[47.8,7021],[47.9,7100],[48.4,7190],[48.7,7268],[48.9,7350],[48.9,7439],[48.9,7516],[48.9,7600],[48.9,7689],[48.9,7774],[48.9,7856],[48.9,7937],[34.3,8016],[25,8106],[23.5,8189],[15,8274],[8.7,8350],[6.8,8437],[4.1,8519],[3.6,20018],[16.9,20101],[19.6,20185],[23.3,20267],[30.2,20351],[40.4,20434],[42.2,20517],[42.5,20601],[42.5,20684],[42.5,20766],[42.5,20849],[50.5,20933],[62.4,21017],[64.7,21100],[64.8,21183],[64.5,21270],[61.6,21350],[53.7,21440],[51.6,21520],[50.7,21607],[50.4,21692],[50.3,21772],[50.2,21856],[50.2,21932],[50.2,22015],[50.2,22098],[50.2,22182],[50.2,22268],[50.2,22349],[50.2,22435],[50.2,22521],[50.2,22605],[50.2,22689],[50.2,22764],[50.2,22848],[50.2,22936],[50.2,23022],[50.2,23102],[50.2,23181],[50.2,23269],[50.2,23354],[50.2,23430],[50.2,23514],[50.2,23604],[50.2,23687],[100,24196],[100,24279],[100,24363],[100,24446],[100,24529],[100,24612],[100,24695],[100,24778],[100,24862],[100,24945],[100,25028],[100,25111],[100,25194],[100,25277],[100,25361],[100,25444],[100,25527],[100,25610],[100,25693],[100,25777],[100,25860],[100,25943],[100,26026],[100,26110],[100,26193],[100,26276],[100,26359],[100,26442],[100,26526]]",1036.5686,1039.856,99.4161129,1.3354,"[{""rating"":99.41611289978027,""responseTime"":1.3353999999983444}]",space,2.731,,1039.8562,Partially,50,1039.8611,,,[],,0,10,10,10,1,audio/Narrative8Situation1.wav,audio/Narrative7Situation1.wav,audio/Narrative6Situation1.wav,audio/Narrative5Situation1.wav,5,2,2,5,,,,,,,,,,,,,,,,,,,,,,,,,,,,,,,,,,,,,,,
,,,,,66bffd8c97a80ac91e1087e0,2025-07-07_19h09.10.813,group3.4_multiperson,2023.2.2,Linux x86_64,59.88023952,686c2ebf0248f13bef9af11f,686c7b8e4dc07da34584cf0a,,,,,,,,,,,,,,,,,,,,,,,,,,,,,1039.8627,2,audio/Narrative6Situation2.wav,1042.8779,,1042.8781,1071.3925,"[[999,0],[999,85],[999,165],[999,249],[999,332],[50.1,417],[49.8,499],[49.7,584],[49.7,672],[49.7,755],[49.7,833],[49.7,919],[49.7,998],[49.7,1080],[49.7,1164],[49.7,1254],[49.7,1337],[49.7,1414],[49.7,1503],[49.7,1580],[49.7,1663],[49.7,1748],[49.7,1836],[49.7,1917],[49.7,2012],[49.7,2096],[49.7,2179],[49.7,2262],[49.7,2345],[49.7,2428],[49.7,2512],[49.7,2595],[50.5,2678],[55.2,2762],[56.7,2845],[57.7,2933],[58,3012],[58.1,3095],[58.1,3178],[58.1,3261],[58.1,3345],[58.1,3427],[58.1,3510],[100,4095],[100,4177],[100,4260],[100,4344],[100,4430],[100,4509],[100,4593],[100,4676],[100,4759],[100,4842],[100,4925],[100,5009],[100,5092],[100,5175],[100,5258],[100,5342],[100,5425],[100,5508],[100,5591],[100,5675],[100,5758],[100,5841],[100,5925],[100,6007],[100,6091],[100,6174],[100,6257],[100,6340],[100,6423],[100,6507],[100,6590],[100,6673],[100,6757],[100,6840],[100,6923],[100,7006],[100,7090],[100,7173],[100,7256],[100,7339],[100,7422],[100,7506],[100,7589],[100,7673],[100,7756],[100,7838],[100,7922],[100,8005],[100,8089],[100,8171],[100,8255],[100,8338],[100,8422],[100,8504],[100,8588],[100,8671],[100,8754],[100,8838],[100,8921],[100,9005],[100,9087],[100,9170],[100,9254],[100,9337],[100,9420],[100,9503],[100,9587],[100,9670],[100,9753],[100,9836],[100,9919],[100,10002],[100,10087],[100,10169],[100,10252],[100,10336],[100,10419],[100,10502],[100,10585],[100,10668],[100,10752],[100,10835],[100,10918],[100,11001],[100,11085],[100,11168],[100,11251],[100,11335],[100,11418],[100,11501],[100,11585],[100,11667],[100,11751],[100,11834],[100,11917],[100,12000],[100,12084],[100,12167],[100,12250],[100,12333],[100,12417],[100,12500],[100,12583],[100,12667],[100,12749],[100,12832],[100,12916],[100,12999],[100,13082],[100,13166],[100,13249],[100,13332],[100,13416],[100,13498],[100,13582],[100,13665],[100,13748],[100,13832],[100,13914],[100,13998],[100,14081],[100,14164],[100,14248],[100,14331],[100,14414],[100,14498],[100,14580],[100,14664],[100,14747],[100,14830],[100,14913],[100,14997],[100,15080],[100,15163],[100,15246],[100,15330],[100,15413],[100,15496],[100,15579],[100,15663],[100,15746],[100,15830],[100,15912],[100,15995],[100,16078],[100,16162],[100,16246],[100,16328],[100,16412],[100,16495],[100,16578],[100,16661],[100,16744],[100,16828],[100,16911],[100,16994],[100,17078],[100,17161],[100,17244],[100,17327],[100,17410],[100,17494],[100,17577],[100,17660],[100,17743],[100,17826],[100,17910],[100,17993],[100,18076],[100,18159],[100,18244],[100,18326],[100,18409],[100,18492],[100,18575],[100,18659],[100,18742],[100,18825],[100,18909],[100,18992],[100,19075],[100,19158],[100,19241],[100,19325],[100,19408],[100,19491],[100,19575],[100,19657],[100,19741],[100,19824],[100,19908],[100,19990],[100,20073],[100,20157],[100,20240],[100,20324],[100,20407],[100,20490],[100,20573],[100,20656],[100,20740],[100,20823],[100,20906],[100,20990],[100,21073],[100,21156],[100,21239],[100,21322],[100,21406],[100,21489],[100,21572],[100,21655],[100,21739],[100,21822],[100,21905],[100,21988],[100,22071],[100,22154],[100,22238],[100,22321],[100,22404],[100,22487],[100,22571],[100,22654],[100,22737],[100,22821],[100,22904],[100,22987],[100,23070],[100,23153],[100,23237],[100,23321],[99.1,23403],[98.1,23486],[97.9,23570],[97.9,23653],[98.1,23737],[99,23820],[99.6,23903],[99.8,23987],[100,24094],[100,24187],[100,24291],[100,24369],[100,24457],[100,24542],[100,24619],[100,24703],[100,24787],[100,24869],[100,24952],[100,25035],[100,25119],[100,25201],[100,25285],[100,25368],[100,25458],[100,25541],[100,25624],[100,25707],[100,25791],[100,25874],[100,25956],[100,26041],[100,26133],[100,26216],[100,26300],[100,26383],[100,26467],[100,26549],[100,26632],[100,26716],[100,26799],[100,26882],[100,26965],[100,27049],[100,27132],[100,27215],[100,27298],[100,27386],[100,27465],[100,27548],[100,27631],[100,27715],[100,27798],[100,27881],[100,27965],[100,28047],[100,28131],[100,28214],[100,28297],[100,28381],[100,28464]]",1071.3929,1077.5186,99.79190826,1.5905,"[{""rating"":99.79190826416016,""responseTime"":1.59050000000002}]",space,5.5874,,1077.5186,Not at all,0,1085.2093,0.157205264,5.2815,"[{""rating"":0.1572052637736021,""responseTime"":5.281500000000051}]",space,0,11,11,11,1,audio/Narrative8Situation2.wav,audio/Narrative7Situation2.wav,audio/Narrative6Situation2.wav,audio/Narrative5Situation2.wav,3,3,3,3,,,7.1441,,,,,,,,,,,,,,,,,,,,,,,,,,,,,,,,,,,,
,,,,,66bffd8c97a80ac91e1087e0,2025-07-07_19h09.10.813,group3.4_multiperson,2023.2.2,Linux x86_64,59.88023952,686c2ebf0248f13bef9af11f,686c7b8e4dc07da34584cf0a,,,,,,,,,,,,,,,,,,,,,,,,,,,,,1085.2099,2,audio/Narrative6Situation3.wav,1090.22,,1090.2202,1102.8379,"[[999,0],[999,82],[999,170],[999,255],[999,338],[999,420],[999,505],[999,589],[999,671],[999,755],[999,839],[50.3,922],[50.3,1002],[50.3,1081],[50.3,1165],[50.3,1247],[50.3,1331],[50.3,1414],[50.3,1505],[50.3,1588],[50.3,1670],[50.3,1749],[50.3,1835],[50.3,1919],[50.3,2002],[50.3,2084],[50.3,2170],[50.3,2253],[50.3,2336],[50.3,2413],[50.3,2496],[50.3,2587],[50.3,2663],[50.3,2747],[50.3,2836],[50.3,2913],[50.3,3001],[50.3,3084],[50.3,3162],[50.3,3245],[49.6,3329],[49.4,3420],[49.3,3498],[45.8,3589],[39.4,3713],[37.6,3782],[33.4,3877],[33.4,3961],[33.4,4044],[33.4,4127],[27.5,4210],[22,4293],[17.8,4377],[12.1,4461],[5.4,4549],[2.8,4627],[0.6,4710],[57.6,5792],[72.8,5876],[72.8,5958],[74.2,6042],[100,6125],[100,6209],[100,6291],[100,6375],[100,6458],[100,6545],[100,6624],[100,6708],[100,6791],[100,6875],[100,6957],[100,7041],[100,7128],[100,7207],[100,7291],[100,7381],[100,7461],[100,7548],[100,7623],[100,7706],[100,7796],[100,7873],[100,7962],[100,8045],[100,8131],[100,8210],[100,8290],[100,8372],[100,8460],[100,8546],[100,8622],[100,8705],[100,8788],[100,8895],[100,8976],[100,9055],[100,9138],[100,9222],[100,9305],[100,9393],[100,9475],[100,9561],[100,9637],[100,9721],[100,9806],[100,9887],[97.4,9971],[79.9,10058],[61.5,10138],[59.2,10227],[59.2,10311],[59.2,10392],[59.2,10470],[59.2,10559],[59.2,10637],[57.9,10728],[56.2,10811],[54.5,10894],[52.7,10977],[51.5,11058],[51,11143],[50.5,11226],[50.3,11309],[50.3,11392],[50.3,11469],[50.3,11554],[50.3,11636],[50.3,11721],[50.3,11801],[50.3,11884],[50.3,11986],[50.3,12067],[50.3,12151],[51.5,12234],[52,12317],[52,12400],[52,12483],[52,12567]]",1102.8382,1106.1685,99.97739792,2.3216,"[{""rating"":99.97739791870117,""responseTime"":2.3216000000013537}]",space,2.7772,,1106.1686,Not at all,0,1106.172,,,[],,0,12,12,12,1,audio/Narrative8Situation3.wav,audio/Narrative7Situation3.wav,audio/Narrative6Situation3.wav,audio/Narrative5Situation3.wav,4,8,5,3,,,,,,,,,,,,,,,,,,,,,,,,,,,,,,,,,,,,,,,
,,,,,66bffd8c97a80ac91e1087e0,2025-07-07_19h09.10.813,group3.4_multiperson,2023.2.2,Linux x86_64,59.88023952,686c2ebf0248f13bef9af11f,686c7b8e4dc07da34584cf0a,,,,,,,,,,,,,,,,,,,,,,,,,,,,,1106.1726,2,audio/Narrative6Situation4.wav,1108.1818,,1108.1819,1120.799,"[[50.8,90],[50.6,168],[50.6,249],[50.6,340],[51,424],[51.1,499],[51.2,590],[51.2,672],[51.1,754],[51,836],[50.8,918],[50.8,998],[50.8,1081],[50.8,1165],[50.8,1248],[50.8,1330],[50.8,1414],[50.8,1498],[50.8,1580],[46.1,1664],[30.9,1755],[25.8,1831],[24,1914],[19.7,1997],[23.4,3004],[34.8,3086],[46.5,3167],[49,3253],[50.7,3334],[52.2,3415],[52.2,3502],[52.2,3579],[100,3668],[100,3752],[100,3839],[100,3918],[100,4001],[100,4078],[100,4161],[100,4250],[100,4334],[100,4417],[100,4499],[100,4582],[100,4660],[100,4749],[100,4827],[100,4916],[100,4993],[100,5084],[100,5159],[100,5245],[100,5333],[100,5416],[100,5500],[100,5577],[100,5659],[100,5742],[100,5826],[100,5909],[100,5991],[100,6076],[100,6158],[100,6245],[100,6325],[100,6408],[100,6492],[100,6575],[100,6657],[100,6746],[100,6831],[100,6907],[100,6991],[100,7074],[100,7157],[100,7240],[100,7324],[100,7406],[100,7494],[100,7573],[100,7656],[100,7747],[100,7824],[100,7906],[100,7990],[100,8072],[100,8156],[100,8242],[100,8322],[100,8413],[100,8488],[100,8572],[100,8655],[100,8745],[100,8826],[100,8906],[100,8989],[100,9072],[100,9155],[100,9238],[100,9321],[100,9405],[100,9488],[100,9571],[100,9655],[100,9738],[100,9821],[100,9903],[100,9987],[100,10070],[100,10153],[100,10237],[100,10320],[100,10404],[100,10486],[100,10574],[100,10660],[100,10740],[100,10824],[100,10905],[100,11002],[100,11085],[100,11168],[100,11251],[100,11334],[100,11418],[100,11501],[100,11589],[100,11668],[100,11751],[100,11834],[100,11917],[100,12001],[100,12084],[100,12167],[100,12250],[100,12334],[100,12417],[100,12500],[100,12583]]",1120.7992,1123.3464,99.74077543,1.3285,"[{""rating"":99.74077542622884,""responseTime"":1.3285000000000764}]",space,2.0012,,1123.3465,Not at all,0,1123.3494,,,[],,0,13,13,13,1,audio/Narrative8Situation4.wav,audio/Narrative7Situation4.wav,audio/Narrative6Situation4.wav,audio/Narrative5Situation4.wav,3,3,2,1,,,,,,,,,,,,,,,,,,,,,,,,,,,,,,,,,,,,,,,
,,,,,66bffd8c97a80ac91e1087e0,2025-07-07_19h09.10.813,group3.4_multiperson,2023.2.2,Linux x86_64,59.88023952,686c2ebf0248f13bef9af11f,686c7b8e4dc07da34584cf0a,,,,,,,,,,,,,,,,,,,,,,,,,,,,,1123.3499,2,audio/Narrative6Situation5.wav,1125.3603,,1125.3604,1133.3341,"[[999,0],[999,82],[999,166],[999,249],[999,332],[999,415],[999,499],[999,582],[999,665],[50.3,748],[50.4,832],[50.4,915],[50.4,998],[50.4,1081],[50.4,1164],[50.4,1248],[50.4,1331],[50.4,1414],[50.4,1497],[55.6,1581],[67.3,1665],[74.8,1747],[77.7,1830],[79.7,1914],[85.6,1997],[87.3,2081],[88.6,2164],[92.9,2248],[93.6,2330],[94.2,2413],[96.4,2496],[97.4,2580],[100,2663],[100,2747],[100,2829],[100,2913],[100,2996],[100,3078],[100,3162],[100,3245],[100,3328],[100,3412],[100,3495],[100,3578],[100,3661],[100,3744],[100,3844],[100,3928],[100,4012],[100,4094],[100,4177],[100,4261],[100,4344],[100,4428],[100,4510],[100,4594],[100,4677],[100,4760],[100,4843],[100,4926],[100,5010],[100,5093],[100,5176],[100,5259],[100,5342],[100,5426],[100,5509],[100,5592],[100,5676],[100,5759],[100,5842],[100,5925],[100,6008],[100,6092],[100,6175],[100,6258],[100,6342],[100,6425],[100,6508],[100,6591],[100,6674],[100,6758],[100,6841],[100,6924],[100,7008],[100,7091],[100,7174],[100,7257],[100,7340],[100,7423],[100,7507],[100,7590],[100,7673],[100,7756],[100,7840],[100,7923]]",1133.3344,1138.3117,99.57993825,3.3366,"[{""rating"":99.57993825276692,""responseTime"":3.3366000000014537}]",space,4.4231,,1138.3118,Not at all,0,1138.3155,,,[],,0,14,14,14,1,audio/Narrative8Situation5.wav,audio/Narrative7Situation5.wav,audio/Narrative6Situation5.wav,audio/Narrative5Situation5.wav,2,5,2,5,,,,,,,,,,,,,,,,,,,,,,,,,,,,,,,,,,,,,,,
,,,,,66bffd8c97a80ac91e1087e0,2025-07-07_19h09.10.813,group3.4_multiperson,2023.2.2,Linux x86_64,59.88023952,686c2ebf0248f13bef9af11f,686c7b8e4dc07da34584cf0a,,,,,,,,,,,,,,,,,,,,,,,,,,,,,1138.316,2,audio/Narrative6Situation6.wav,1140.3252,,1140.3253,1151.4024,"[[98.2,250],[64,614],[53.1,1099],[51.8,1181],[51.4,1265],[51.3,1348],[51.3,1431],[51.2,1515],[51.2,1598],[51,1682],[50.9,1765],[50.8,1847],[50.8,1930],[50.8,2014],[50.8,2097],[50.8,2181],[50.8,2263],[50.8,2347],[50.8,2431],[50.8,2513],[50.8,2596],[50.8,2679],[50.8,2763],[50.8,2846],[50.8,2929],[50.8,3012],[50.8,3096],[50.8,3179],[50.8,3263],[81.3,3345],[87.1,3429],[89,3512],[91,3596],[94.1,3680],[96.3,3762],[98.4,3845],[100,3929],[100,4012],[100,4095],[100,4178],[100,4261],[100,4344],[100,4428],[100,4511],[100,4594],[100,4677],[100,4760],[100,4844],[100,4927],[100,5010],[100,5093],[100,5177],[100,5259],[100,5343],[100,5426],[100,5510],[100,5593],[100,5676],[100,5759],[100,5842],[100,5925],[100,6009],[100,6092],[100,6175],[100,6259],[100,6342],[100,6425],[100,6509],[100,6591],[100,6675],[100,6758],[100,6841],[100,6924],[100,7008],[100,7091],[100,7174],[100,7257],[100,7340],[100,7424],[100,7507],[100,7590],[100,7674],[100,7757],[100,7840],[100,7924],[100,8006],[100,8090],[100,8173],[100,8260],[100,8340],[99.8,8424],[99.7,8506],[99.5,8590],[99.1,8673],[97.9,8756],[97.1,8839],[96.9,8922],[96.8,9006],[96.6,9089],[96.5,9173],[96,9255],[90.2,9339],[80.6,9423],[75.4,9512],[74.1,9593],[74,9671],[74,9757],[74,9838],[74,9928],[74,10013],[74,10096],[74,10178],[74,10261],[77.1,10342],[81.5,10429],[81.6,10504],[81.6,10589],[82.3,10679],[84.2,10759],[84.6,10837],[84.6,10920],[84.8,11004]]",1151.4026,1155.1576,99.85337257,2.414,"[{""rating"":99.85337257385254,""responseTime"":2.4139999999999873}]",space,3.202,,1155.1578,Definitely yes,100,1155.1624,,,[],,0,15,15,15,1,audio/Narrative8Situation6.wav,audio/Narrative7Situation6.wav,audio/Narrative6Situation6.wav,audio/Narrative5Situation6.wav,2,3,2,3,,,,,,,,,,,,,,,,,,,,,,,,,,,,,,,,,,,,,,,
