consent.started,consent.stopped,consentResponse.keys,consentResponse.rt,consentResponse.duration,participantID,date,expName,psychopyVersion,OS,frameRate,STUDY_ID,SESSION_ID,opening1.started,opening1.stopped,keyEndingOpening1.keys,keyEndingOpening1.rt,keyEndingOpening1.duration,volumeAdjust.started,volumeAdjust.stopped,endingAdjust.keys,endingAdjust.rt,endingAdjust.duration,opening2.started,opening2.stopped,keyEndingOpening.keys,keyEndingOpening.rt,keyEndingOpening.duration,mouse.x,mouse.y,mouse.leftButton,mouse.midButton,mouse.rightButton,mouse.time,instructionLoop.thisRepN,instructionLoop.thisTrialN,instructionLoop.thisN,instructionLoop.thisIndex,instructionLoop.ran,readyForAudio.started,readyForAudio.stopped,fixation.started,run,audio_played,fixation.stopped,endPractice.keys,audioPre.started,audioPre.stopped,continuousResponses_audio,intRating.started,intRating.stopped,intQuestionSlider.response,intQuestionSlider.rt,intQuestionSlider.history,confirmResponse.keys,confirmResponse.rt,confirmResponse.duration,catchQuestion.started,catch_label,catch_value,catchQuestion.stopped,catchQuestionSlider.response,catchQuestionSlider.rt,catchQuestionSlider.history,confirmResponse_2.keys,audioRunLoop.thisRepN,audioRunLoop.thisTrialN,audioRunLoop.thisN,audioRunLoop.thisIndex,audioRunLoop.ran,conditions1_1,conditions2_1,conditions1_2,conditions2_2,dur1_1,dur2_1,dur1_2,dur2_2,endPractice.rt,endPractice.duration,confirmResponse_2.rt,confirmResponse_2.duration,runIntervalBreak.started,runIntervalBreak.stopped,endingBreakKey.keys,endingBreakKey.rt,endingBreakKey.duration,connection.started,connection.stopped,connectionEnding.keys,connectionEnding.rt,connectionEnding.duration,readyForText.started,readyForText.stopped,textPre.started,run_dup,textPre.stopped,continuousResponses_text,textRunLoop.thisRepN,textRunLoop.thisTrialN,textRunLoop.thisN,textRunLoop.thisIndex,textRunLoop.ran,text1_1,text1_2,text2_1,text2_2,runBreakText.started,runBreakText.stopped,endingBreakKey_2.keys,ending.started,ending.stopped,endingEnding.keys,endingEnding.rt,endingEnding.duration
0.0002,50.8659,y,50.5432,,66c8f4c85434e33b086cb7ca,2025-07-07_22h37.49.314,group3.4_multiperson,2023.2.2,Win32,60.24096386,686c2ebf0248f13bef9af11f,686c844110be645b43dcccf4,,,,,,,,,,,,,,,,,,,,,,,,,,,,,,,,,,,,,,,,,,,,,,,,,,,,,,,,,,,,,,,,,,,,,,,,,,,,,,,,,,,,,,,,,,,,,,,,,,,,,,
,,,,,66c8f4c85434e33b086cb7ca,2025-07-07_22h37.49.314,group3.4_multiperson,2023.2.2,Win32,60.24096386,686c2ebf0248f13bef9af11f,686c844110be645b43dcccf4,50.8661,58.6517,space,7.7532,,,,,,,,,,,,,,,,,,,,,,,,,,,,,,,,,,,,,,,,,,,,,,,,,,,,,,,,,,,,,,,,,,,,,,,,,,,,,,,,,,,,,,,,,,,,,,,,,,
,,,,,66c8f4c85434e33b086cb7ca,2025-07-07_22h37.49.314,group3.4_multiperson,2023.2.2,Win32,60.24096386,686c2ebf0248f13bef9af11f,686c844110be645b43dcccf4,,,,,,58.6517,72.0156,space,13.0413,,,,,,,,,,,,,,,,,,,,,,,,,,,,,,,,,,,,,,,,,,,,,,,,,,,,,,,,,,,,,,,,,,,,,,,,,,,,,,,,,,,,,,,,,,,,,
,,,,,66c8f4c85434e33b086cb7ca,2025-07-07_22h37.49.314,group3.4_multiperson,2023.2.2,Win32,60.24096386,686c2ebf0248f13bef9af11f,686c844110be645b43dcccf4,,,,,,,,,,,72.0177,87.0834,space,15.0483,,[],[],[],[],[],[],0,0,0,0,1,,,,,,,,,,,,,,,,,,,,,,,,,,,,,,,,,,,,,,,,,,,,,,,,,,,,,,,,,,,,,,,,,,,,,,,,,,,,
,,,,,66c8f4c85434e33b086cb7ca,2025-07-07_22h37.49.314,group3.4_multiperson,2023.2.2,Win32,60.24096386,686c2ebf0248f13bef9af11f,686c844110be645b43dcccf4,,,,,,,,,,,87.0837,172.7306,space,85.5792,,[0.6680584551148225],[0.8319327731092437],[1],[0],[0],[75.34460000002383],1,0,1,0,1,,,,,,,,,,,,,,,,,,,,,,,,,,,,,,,,,,,,,,,,,,,,,,,,,,,,,,,,,,,,,,,,,,,,,,,,,,,,
,,,,,66c8f4c85434e33b086cb7ca,2025-07-07_22h37.49.314,group3.4_multiperson,2023.2.2,Win32,60.24096386,686c2ebf0248f13bef9af11f,686c844110be645b43dcccf4,,,,,,,,,,,172.7307,181.2639,space,8.5007,,"[-0.23645833333333333,-0.23333333333333334,-0.15625]","[-0.7703703703703704,-0.774074074074074,-0.6462962962962963]","[1,1,1]","[0,0,0]","[0,0,0]","[4.948599999904616,5.4650999999046235,5.931699999928469]",2,0,2,0,1,,,,,,,,,,,,,,,,,,,,,,,,,,,,,,,,,,,,,,,,,,,,,,,,,,,,,,,,,,,,,,,,,,,,,,,,,,,,
,,,,,66c8f4c85434e33b086cb7ca,2025-07-07_22h37.49.314,group3.4_multiperson,2023.2.2,Win32,60.24096386,686c2ebf0248f13bef9af11f,686c844110be645b43dcccf4,,,,,,,,,,,181.2641,189.8498,space,8.5624,,[],[],[],[],[],[],3,0,3,0,1,,,,,,,,,,,,,,,,,,,,,,,,,,,,,,,,,,,,,,,,,,,,,,,,,,,,,,,,,,,,,,,,,,,,,,,,,,,,
,,,,,66c8f4c85434e33b086cb7ca,2025-07-07_22h37.49.314,group3.4_multiperson,2023.2.2,Win32,60.24096386,686c2ebf0248f13bef9af11f,686c844110be645b43dcccf4,,,,,,,,,,,189.85,192.2501,p,2.3669,,[],[],[],[],[],[],4,0,4,0,1,,,,,,,,,,,,,,,,,,,,,,,,,,,,,,,,,,,,,,,,,,,,,,,,,,,,,,,,,,,,,,,,,,,,,,,,,,,,
,,,,,66c8f4c85434e33b086cb7ca,2025-07-07_22h37.49.314,group3.4_multiperson,2023.2.2,Win32,60.24096386,686c2ebf0248f13bef9af11f,686c844110be645b43dcccf4,,,,,,,,,,,192.2503,204.7968,space,12.5087,,[],[],[],[],[],[],5,0,5,0,1,,,,,,,,,,,,,,,,,,,,,,,,,,,,,,,,,,,,,,,,,,,,,,,,,,,,,,,,,,,,,,,,,,,,,,,,,,,,
,,,,,66c8f4c85434e33b086cb7ca,2025-07-07_22h37.49.314,group3.4_multiperson,2023.2.2,Win32,60.24096386,686c2ebf0248f13bef9af11f,686c844110be645b43dcccf4,,,,,,,,,,,204.7969,215.6299,space,10.8017,,[],[],[],[],[],[],6,0,6,0,1,,,,,,,,,,,,,,,,,,,,,,,,,,,,,,,,,,,,,,,,,,,,,,,,,,,,,,,,,,,,,,,,,,,,,,,,,,,,
,,,,,66c8f4c85434e33b086cb7ca,2025-07-07_22h37.49.314,group3.4_multiperson,2023.2.2,Win32,60.24096386,686c2ebf0248f13bef9af11f,686c844110be645b43dcccf4,,,,,,,,,,,215.6301,226.486,space,10.8352,,[],[],[],[],[],[],7,0,7,0,1,,,,,,,,,,,,,,,,,,,,,,,,,,,,,,,,,,,,,,,,,,,,,,,,,,,,,,,,,,,,,,,,,,,,,,,,,,,,
,,,,,66c8f4c85434e33b086cb7ca,2025-07-07_22h37.49.314,group3.4_multiperson,2023.2.2,Win32,60.24096386,686c2ebf0248f13bef9af11f,686c844110be645b43dcccf4,,,,,,,,,,,,,,,,,,,,,,,,,,,226.4871,229.0631,229.0726,1,audio/Narrative13Situation2.wav,231.0796,,231.0797,260.8319,"[[999,0],[999,83],[999,166],[999,249],[999,333],[999,416],[999,499],[999,583],[999,666],[999,750],[999,833],[999,916],[999,999],[999,1083],[999,1166],[999,1249],[999,1333],[999,1416],[999,1499],[999,1589],[999,1669],[999,1752],[999,1835],[999,1952],[999,2036],[999,2116],[999,2199],[999,2283],[999,2366],[999,2449],[999,2534],[999,2616],[999,2699],[999,2783],[999,2866],[999,2949],[999,3033],[999,3116],[999,3199],[999,3283],[999,3366],[999,3449],[999,3533],[999,3616],[999,3699],[999,3783],[999,3866],[999,3949],[999,4033],[999,4116],[999,4199],[999,4283],[999,4366],[999,4449],[999,4533],[999,4616],[999,4699],[999,4783],[999,4866],[999,4949],[999,5033],[999,5116],[999,5203],[999,5283],[999,5366],[999,5449],[999,5552],[999,5633],[999,5716],[999,5799],[999,5883],[999,5966],[999,6049],[999,6133],[999,6216],[999,6299],[999,6383],[999,6466],[999,6549],[999,6633],[999,6716],[999,6799],[999,6883],[999,6972],[999,7066],[999,7149],[999,7233],[999,7316],[999,7399],[999,7483],[999,7566],[999,7649],[999,7733],[999,7816],[999,7899],[999,7983],[999,8068],[999,8149],[999,8235],[999,8316],[999,8399],[999,8483],[999,8566],[999,8649],[999,8733],[999,8816],[999,8899],[999,8983],[999,9066],[999,9149],[999,9252],[999,9333],[999,9416],[999,9499],[999,9582],[999,9666],[999,9749],[999,9833],[999,9916],[999,9999],[999,10082],[999,10166],[999,10249],[999,10332],[999,10416],[999,10502],[999,10582],[999,10666],[999,10749],[999,10833],[999,10916],[999,10999],[999,11083],[999,11166],[999,11249],[999,11332],[999,11416],[999,11499],[999,11582],[999,11666],[999,11749],[999,11832],[999,11916],[999,11999],[999,12082],[999,12166],[999,12249],[999,12349],[999,12432],[999,12516],[999,12599],[999,12701],[999,12783],[999,12866],[999,12949],[999,13032],[999,13135],[999,13216],[999,13299],[999,13382],[999,13466],[999,13549],[999,13632],[999,13716],[999,13816],[999,13899],[999,13982],[999,14066],[999,14149],[999,14233],[999,14316],[999,14399],[999,14483],[999,14569],[999,14651],[999,14749],[999,14832],[999,14916],[999,14999],[999,15082],[999,15166],[999,15249],[999,15332],[999,15416],[999,15499],[999,15582],[999,15666],[999,15749],[41.8,15836],[41.8,15916],[41.8,15999],[45.2,16083],[47.1,16169],[48.5,16262],[48.5,16332],[48.5,16417],[48.5,16499],[48.5,16582],[49.5,16669],[49.5,16749],[49.5,16832],[49.5,16916],[49.5,16999],[49.5,17087],[49.5,17166],[50.6,17249],[56.8,17335],[54.5,17852],[52.9,17936],[52.4,18019],[52.3,18099],[52.1,18186],[51.4,18269],[51.1,18349],[49.9,18436],[49.7,18519],[49.7,18599],[49.7,18685],[49.7,18766],[49.7,18849],[49.7,18932],[49.8,20549],[49.8,20632],[49.8,20716],[49.8,20799],[49.8,20882],[49.8,20966],[49.8,21049],[49.8,21132],[49.8,21216],[49.8,21299],[49.8,21382],[49.8,21466],[49.8,21549],[49.8,21632],[50,21716],[53.1,21802],[54.4,21886],[54.7,21966],[54.7,22051],[54.7,22132],[54.7,22218],[54.7,22318],[54.7,22399],[54.7,22482],[54.7,22566],[54.7,22649],[60.5,23735],[62,23819],[63.4,23902],[64.5,23985],[66.7,24070],[70.4,24152],[73,24235],[80.6,24319],[89,24402],[92,24486],[94.7,24569],[95.3,24649],[95.9,24735],[97.7,24836],[97.7,24916],[97.7,24999],[97.7,25082],[97.7,25166],[97.6,25266],[92.6,25352],[92.4,25432],[92,25519],[91.9,25599],[91.9,25682],[91.9,25766],[91.9,25849],[91.9,25932],[91.9,26016],[91.9,26099],[91.9,26182],[90,26269],[88,26352],[84.9,26444],[79.6,26519],[75.3,26602],[73.9,26685],[71.1,26769],[67.5,26858],[67.5,26932],[67.5,27016],[67.5,27102],[67.5,27182],[67.5,27266],[67.5,27349],[67.5,27432],[67.5,27516],[67.5,27599],[67.5,27682],[67.5,27766],[67.5,27849],[67.5,27932],[67.5,28016],[67.5,28099],[67.5,28182],[67.5,28266],[67.5,28349],[67.5,28432],[67.5,28516],[67.5,28599],[67.5,28685],[67.5,28766],[67.5,28849],[67.5,28932],[67.5,29016],[67.5,29099],[67.5,29182],[67.5,29282],[67.5,29366],[67.5,29449],[67.5,29532],[64.5,29619],[59.8,29702]]",260.8321,273.8958,50,10.1747,"[{""rating"":49.791666666666664,""responseTime"":6.726799999952334},{""rating"":50,""responseTime"":10.174700000047665}]",space,12.5295,,273.8959,Definitely yes,100,273.898,,,[],,0,0,0,0,1,audio/Narrative13Situation2.wav,audio/Narrative13Situation2.wav,audio/Narrative13Situation2.wav,audio/Narrative13Situation2.wav,2,2,2,2,,,,,,,,,,,,,,,,,,,,,,,,,,,,,,,,,,,,,
,,,,,66c8f4c85434e33b086cb7ca,2025-07-07_22h37.49.314,group3.4_multiperson,2023.2.2,Win32,60.24096386,686c2ebf0248f13bef9af11f,686c844110be645b43dcccf4,,,,,,,,,,,,,,,,,,,,,,,,,,,,,273.8982,1,audio/Narrative8Situation1.wav,277.229,space,277.229,293.1787,"[[999,0],[999,85],[999,166],[999,249],[999,333],[999,416],[999,499],[999,583],[999,666],[999,749],[999,849],[999,933],[999,1016],[999,1099],[999,1183],[999,1266],[999,1349],[999,1433],[999,1516],[999,1602],[999,1685],[55.9,1769],[54.6,1852],[52.5,1936],[50.5,2019],[50.4,2099],[50.2,2186],[50.2,2266],[50.2,2349],[50.2,2433],[50.2,2516],[50.2,2599],[50.2,2685],[50.2,2766],[50.2,2849],[50.2,2954],[50.2,3033],[50.2,3116],[50.2,3199],[50.2,3283],[50.2,3366],[50.2,3449],[50.2,3533],[53.8,3621],[54,3699],[54,3783],[54,3869],[54,3949],[55.5,4036],[55.6,4116],[55.6,4199],[55.6,4283],[55.6,4366],[55.6,4452],[55.6,4549],[55.6,4633],[55.6,4716],[56.5,4799],[64.6,4886],[66,4969],[67,5053],[69.3,5135],[71.5,5219],[71.9,5299],[71.9,5383],[71.9,5466],[71.9,5549],[71.9,5635],[71.9,5716],[71.9,5799],[71.9,5882],[72.1,5966],[73.8,6052],[74.7,6135],[75.6,6216],[75.6,6299],[75.1,6383],[70.2,6469],[61.7,6553],[57.3,6635],[46.1,6719],[30.1,6802],[18,6885],[7.6,6975],[7.3,9502],[21,9585],[34.2,9685],[43.5,9769],[51.6,9852],[63.4,9936],[78.8,10020],[86.8,10101],[92.9,10186],[93.1,10266],[93.2,10349],[93.2,10433],[93.2,10516],[93.2,10599],[93.2,10683],[93.2,10766],[92.4,10858],[91.3,10936],[90.2,11019],[89.5,11102],[89.5,11182],[89.5,11266],[89.5,11349],[89.5,11432],[89.5,11516],[87.7,11599],[87.7,11682],[87.7,11766],[87.7,11849],[87.7,11932],[87.7,12016],[87.7,12099],[87.7,12182],[87.7,12266],[87.7,12349],[87.7,12432],[87.7,12534],[87.7,12616],[87.7,12699],[87.7,12782],[87.7,12866],[87.7,12949],[87.7,13032],[87.7,13116],[87.7,13201],[87.7,13302],[87.7,13382],[87.7,13466],[87.7,13549],[87.7,13632],[87.7,13716],[87.7,13799],[87.7,13882],[87.7,13966],[87.7,14049],[87.7,14132],[87.7,14216],[87.7,14299],[87.7,14382],[87.7,14466],[87.7,14549],[87.7,14632],[87.7,14716],[87.7,14799],[87.7,14882],[87.7,14966],[87.7,15049],[87.7,15132],[87.7,15216],[87.7,15299],[87.7,15382],[87.7,15466],[87.7,15549],[87.7,15632],[87.7,15716],[87.7,15799],[87.7,15882]]",293.1787,299.0453,70.72916667,4.0116,"[{""rating"":74.6875,""responseTime"":3.0116000000238614},{""rating"":70.72916666666667,""responseTime"":4.011600000023861}]",space,5.3239,,299.0454,Partially,50,299.0468,,,[],,0,1,1,1,1,audio/Narrative7Situation1.wav,audio/Narrative8Situation1.wav,audio/Narrative5Situation1.wav,audio/Narrative6Situation1.wav,2,5,5,2,3.3125,,,,,,,,,,,,,,,,,,,,,,,,,,,,,,,,,,,,
,,,,,66c8f4c85434e33b086cb7ca,2025-07-07_22h37.49.314,group3.4_multiperson,2023.2.2,Win32,60.24096386,686c2ebf0248f13bef9af11f,686c844110be645b43dcccf4,,,,,,,,,,,,,,,,,,,,,,,,,,,,,299.047,1,audio/Narrative8Situation2.wav,302.0619,,302.0619,312.1951,"[[63.9,1419],[46.5,1509],[46.3,1583],[46.3,1666],[46.5,1752],[46.8,1836],[47.3,1919],[48.2,2002],[48.3,2086],[48.3,2166],[48.3,2249],[48.3,2333],[48.3,2416],[48.3,2499],[48.3,2583],[48.3,2666],[48.3,2749],[48.3,2833],[48.3,2916],[48.3,3016],[48.3,3099],[48.3,3183],[48.3,3266],[48.3,3349],[48.3,3433],[48.3,3516],[48.3,3599],[48.3,3683],[48.3,3766],[48.3,3849],[48.3,3933],[48.3,4016],[48.3,4101],[48.3,4199],[48.3,4283],[48.3,4366],[48.3,4449],[48.3,4533],[48.3,4616],[48.3,4699],[48.3,4783],[48.3,4866],[48.3,4949],[48.3,5033],[48.3,5116],[32.9,5204]]",312.1952,314.9479,0,1.9227,"[{""rating"":4.375000000000001,""responseTime"":1.3467999999522817},{""rating"":0,""responseTime"":1.9226999999284544}]",space,2.2019,,314.9479,Partially,50,314.949,,,[],,0,2,2,2,1,audio/Narrative7Situation2.wav,audio/Narrative8Situation2.wav,audio/Narrative5Situation2.wav,audio/Narrative6Situation2.wav,3,3,3,3,,,,,,,,,,,,,,,,,,,,,,,,,,,,,,,,,,,,,
,,,,,66c8f4c85434e33b086cb7ca,2025-07-07_22h37.49.314,group3.4_multiperson,2023.2.2,Win32,60.24096386,686c2ebf0248f13bef9af11f,686c844110be645b43dcccf4,,,,,,,,,,,,,,,,,,,,,,,,,,,,,314.9492,1,audio/Narrative8Situation3.wav,318.9615,,318.9616,341.3614,"[[1,1502],[5.6,1586],[7.2,1686],[7.7,1769],[9,1852],[10.9,1957],[13,2036],[16.7,2119],[26,2202],[33.5,2286],[39.9,2370],[45.4,2452],[46.9,2533],[47.7,2616],[49.2,2702],[49.2,2800],[49.2,2883],[49.2,2966],[49.2,3049],[49.2,3149],[49.2,3233],[49.2,3316],[49.2,3399],[49.2,3483],[54.5,3566],[74.3,3652],[79.5,3736],[79.6,3816],[84.4,3899],[88.6,3985],[88.6,4066],[88.1,4149],[85.7,4236],[82.3,4319],[81,4402],[80.9,4483],[80.9,4566],[80.9,4649],[80.9,4733],[80.9,4816],[80.9,4899],[83.9,4986],[87.1,5069],[87.7,5149],[87.7,5233],[87.7,5316],[87.7,5399],[87.7,5483],[87.7,5566],[87.7,5649],[87.7,5733],[87.7,5816],[87.7,5899],[87.7,5983],[87.7,6066],[87.7,6149],[87.7,6233],[87.7,6317],[87.7,6399],[87.7,6483],[87.7,6566],[87.7,6649],[87.7,6749],[87.7,6833],[87.7,6916],[87.7,6999],[87.7,7083],[87.7,7166],[92.1,7252],[98.9,7336],[99.1,7416],[99.2,7502],[99.2,7583],[99.2,7666],[99.2,7749],[99.2,7833],[99.2,7916],[99.2,7999],[99.2,8099],[99.2,8183],[99.2,8266],[99.2,8349],[99.2,8433],[99.2,8516],[99.2,8599],[99.2,8683],[99.2,8766],[99.2,8849],[99.2,8933],[99.2,9016],[99.2,9099],[99.2,9183],[99.2,9266],[99.2,9349],[99.2,9433],[99.2,9516],[99.2,9599],[99.2,9702],[99.2,9783],[99.2,9866],[99.2,9949],[99.2,10033],[99.2,10116],[99.2,10199],[99.2,10283],[99.2,10366],[99.2,10449],[99.2,10533],[99.2,10621],[99.2,10716],[99.2,10799],[99.9,10883],[100,10969],[100,11049],[100,11135],[100,11216],[100,11299],[100,11408],[100,11483],[100,11566],[100,11649],[100,11740],[100,11818],[100,11916],[100,11999],[100,12083],[100,12166],[100,12249],[100,12333],[100,12416],[100,12499],[100,12583],[100,12666],[100,12749],[100,12833],[100,12916],[100,12999],[100,13083],[100,13166],[100,13249],[100,13333],[100,13416],[100,13499],[100,13583],[100,13666],[100,13749],[100,13833],[100,13916],[100,13999],[100,14083],[100,14166],[100,14249],[100,14336],[100,14416],[100,14499],[100,14583],[100,14666],[100,14749],[100,14833],[100,14916],[100,14999],[100,15083],[100,15166],[100,15249],[100,15333],[100,15416],[100,15499],[100,15583],[100,15666],[100,15752],[100,15849],[100,15933],[100,16016],[100,16099],[100,16182],[100,16266],[100,16351],[100,16433],[100,16516],[100,16599],[100,16683],[100,16766],[100,16849],[100,16932],[100,17016],[100,17099],[100,17183],[100,17266],[100,17349],[100,17433],[100,17516],[100,17599],[100,17682],[100,17766],[100,17849],[100,17932],[100,18016],[100,18099],[100,18182],[100,18266],[100,18349],[100,18435],[100,18516],[100,18599],[100,18682],[100,18766],[100,18849],[100,18949],[100,19033],[100,19116],[100,19199],[100,19283],[100,19366],[100,19449],[100,19533],[100,19616],[100,19699],[100,19783],[100,19885],[100,19966],[100,20049],[100,20132],[100,20216],[100,20299],[100,20382],[100,20466],[100,20549],[100,20652],[100,20733],[100,20816],[100,20899],[100,20983],[100,21066],[100,21149],[100,21233],[100,21316],[100,21399],[100,21483],[100,21566],[100,21649],[100,21733],[100,21816],[100,21899],[100,21983],[100,22066],[100,22149],[100,22233],[100,22332]]",341.3614,344.4613,100,2.228,"[{""rating"":97.91666666666667,""responseTime"":1.4851000000238628},{""rating"":100,""responseTime"":2.2280000000000086}]",space,2.5565,,344.4613,Partially,50,344.4622,,,[],,0,3,3,3,1,audio/Narrative7Situation3.wav,audio/Narrative8Situation3.wav,audio/Narrative5Situation3.wav,audio/Narrative6Situation3.wav,8,4,3,5,,,,,,,,,,,,,,,,,,,,,,,,,,,,,,,,,,,,,
,,,,,66c8f4c85434e33b086cb7ca,2025-07-07_22h37.49.314,group3.4_multiperson,2023.2.2,Win32,60.24096386,686c2ebf0248f13bef9af11f,686c844110be645b43dcccf4,,,,,,,,,,,,,,,,,,,,,,,,,,,,,344.4623,1,audio/Narrative8Situation4.wav,347.4778,,347.4778,361.6444,"[[97.1,5903],[83.9,5986],[69.5,6069],[57.1,6153],[56.4,6233],[59.3,6319],[72,6402],[72.7,6491],[81.4,6569],[92.3,6652],[92.8,6733],[92.8,6816],[100,6900],[100,6983],[100,7066],[100,7149],[100,7233],[100,7316],[100,7399],[100,7483],[100,7566],[100,7649],[100,7733],[100,7816],[100,7899],[100,7999],[100,8083],[100,8166],[100,8249],[100,8333],[100,8416],[100,8499],[100,8583],[100,8666],[100,8749],[100,8833],[100,8916],[100,8999],[100,9083],[100,9166],[100,9249],[100,9333],[100,9416],[100,9499],[100,9583],[100,9666],[100,9749],[100,9833],[100,9916],[100,9999],[100,10083],[100,10166],[100,10249],[100,10333],[100,10416],[100,10516],[100,10599],[100,10683],[100,10766],[100,10849],[100,10933],[100,11016],[100,11099],[100,11183],[100,11266],[100,11349],[100,11433],[100,11516],[100,11599],[100,11683],[100,11766],[100,11849],[100,11933],[100,12034],[100,12116],[100,12199],[100,12283],[100,12385],[100,12466],[100,12549],[100,12633],[100,12716],[100,12799],[100,12883],[100,12972],[100,13066],[100,13149],[100,13233],[100,13319],[100,13416],[100,13499],[100,13583],[100,13666],[100,13749],[100,13833],[100,13916],[100,13999],[100,14083],[100,14166]]",361.6444,364.9776,99.16666667,2.4087,"[{""rating"":99.16666666666667,""responseTime"":2.4086999999285013}]",space,2.7938,,364.9776,Definitely yes,100,364.9789,,,[],,0,4,4,4,1,audio/Narrative7Situation4.wav,audio/Narrative8Situation4.wav,audio/Narrative5Situation4.wav,audio/Narrative6Situation4.wav,3,3,1,2,,,,,,,,,,,,,,,,,,,,,,,,,,,,,,,,,,,,,
,,,,,66c8f4c85434e33b086cb7ca,2025-07-07_22h37.49.314,group3.4_multiperson,2023.2.2,Win32,60.24096386,686c2ebf0248f13bef9af11f,686c844110be645b43dcccf4,,,,,,,,,,,,,,,,,,,,,,,,,,,,,364.9791,1,audio/Narrative8Situation5.wav,366.9942,,366.9943,375.2441,"[[77,603],[27.2,686],[26.9,766],[27.6,850],[46,936],[51.8,1019],[51.8,1099],[50.7,1183],[36.5,1269],[43.5,1803],[51.3,1886],[52.9,1969],[53.1,2049],[51.7,2136],[50.5,2219],[50.5,2299],[50.5,2383],[50.5,2466],[50.5,2549],[50.5,2633],[50.5,2716],[50.5,2799],[50.5,2883],[50.5,2966],[50.5,3049],[50.5,3133],[50.5,3216],[56,3302],[65.3,3388],[69.8,3469],[74.5,3552],[79.7,3636],[84.7,3733],[86.5,3816],[87.1,3899],[87.1,3983],[87.1,4066],[87.1,4149],[87.1,4233],[87.1,4316],[87.1,4416],[87.1,4499],[87.1,4583],[87.1,4666],[87.1,4749],[87.1,4833],[87.1,4916],[87.1,4999],[87.1,5083],[87.1,5166],[87.1,5249],[87.1,5333],[87.1,5430],[87.1,5516],[87.1,5599],[87.1,5683],[87.1,5766],[87.1,5849],[87.1,5933],[87.1,6016],[87.1,6105],[87.1,6199],[87.1,6283],[87.1,6366],[87.1,6449],[87.1,6533],[87.1,6616],[87.1,6699],[87.1,6783],[87.1,6866],[87.1,6969],[87.1,7049],[87.1,7133],[87.1,7216],[87.1,7299],[87.1,7383],[87.1,7466],[87.1,7549],[87.1,7633],[87.1,7716],[87.1,7799],[87.1,7883],[87.1,7966],[87.1,8049],[87.1,8133],[87.1,8216]]",375.2441,380.4441,89.0625,4.2087,"[{""rating"":87.8125,""responseTime"":3.652899999976171},{""rating"":89.0625,""responseTime"":4.208700000047713}]",space,4.6569,,380.4441,Definitely yes,100,380.445,,,[],,0,5,5,5,1,audio/Narrative7Situation5.wav,audio/Narrative8Situation5.wav,audio/Narrative5Situation5.wav,audio/Narrative6Situation5.wav,5,2,5,2,,,,,,,,,,,,,,,,,,,,,,,,,,,,,,,,,,,,,
,,,,,66c8f4c85434e33b086cb7ca,2025-07-07_22h37.49.314,group3.4_multiperson,2023.2.2,Win32,60.24096386,686c2ebf0248f13bef9af11f,686c844110be645b43dcccf4,,,,,,,,,,,,,,,,,,,,,,,,,,,,,380.4451,1,audio/Narrative8Situation6.wav,382.4607,,382.4607,388.944,[],388.944,396.1299,76.25,6.502,"[{""rating"":76.875,""responseTime"":1.8524999999999636},{""rating"":90.625,""responseTime"":2.444500000000005},{""rating"":68.22916666666666,""responseTime"":5.860399999976153},{""rating"":76.25,""responseTime"":6.501999999999953}]",space,6.6198,,396.1299,Partially,50,396.1313,,,[],,0,6,6,6,1,audio/Narrative7Situation6.wav,audio/Narrative8Situation6.wav,audio/Narrative5Situation6.wav,audio/Narrative6Situation6.wav,3,2,3,2,,,,,,,,,,,,,,,,,,,,,,,,,,,,,,,,,,,,,
,,,,,66c8f4c85434e33b086cb7ca,2025-07-07_22h37.49.314,group3.4_multiperson,2023.2.2,Win32,60.24096386,686c2ebf0248f13bef9af11f,686c844110be645b43dcccf4,,,,,,,,,,,,,,,,,,,,,,,,,,,,,396.1314,1,audio/Narrative8Situation7.wav,399.1365,,399.1365,411.2294,"[[77.1,5657],[83.5,5743],[87.1,5993],[87.5,6076],[87.5,6157],[87.5,6240],[88,6326],[88.8,6410],[89.1,6493],[89.1,6573],[89.1,6657],[89.1,6740],[89.1,6823],[89.1,6907],[89.1,6990],[89.1,7073],[89.1,7157],[89.1,7240],[89.1,7323],[89.1,7407],[89.1,7490],[89.1,7573],[89.1,7657],[89.1,7740],[89.1,7823],[89.1,7906],[89.1,7990],[89.1,8073],[89.1,8156],[89.1,8240],[89.1,8323],[89.1,8406],[89.1,8490],[89.1,8573],[89.1,8656],[89.1,8740],[89.1,8823],[89.1,8907],[89.1,8992],[89.1,9090],[89.1,9173],[89.1,9257],[89.1,9340],[89.1,9423],[89.1,9507],[89.1,9590],[89.1,9673],[89.1,9757],[89.1,9857],[89.1,9940],[89.1,10023],[89.1,10107],[89.1,10190],[89.1,10273],[89.1,10357],[89.1,10440],[89.1,10523],[89.1,10607],[89.1,10690],[89.1,10773],[89.1,10857],[89.1,10940],[89.1,11023],[89.1,11107],[89.1,11197],[89.1,11290],[89.1,11373],[89.1,11457],[89.1,11540],[89.1,11623],[89.1,11706],[89.1,11790],[89.1,11873],[89.1,11956],[89.1,12040]]",411.2294,414.177,100,2.3428,"[{""rating"":89.0625,""responseTime"":1.5187999999523072},{""rating"":100,""responseTime"":2.3427999999523195}]",space,2.4067,,414.177,Definitely yes,100,414.1782,,,[],,0,7,7,7,1,audio/Narrative7Situation7.wav,audio/Narrative8Situation7.wav,audio/Narrative5Situation7.wav,audio/Narrative6Situation7.wav,5,3,4,5,,,,,,,,,,,,,,,,,,,,,,,,,,,,,,,,,,,,,
,,,,,66c8f4c85434e33b086cb7ca,2025-07-07_22h37.49.314,group3.4_multiperson,2023.2.2,Win32,60.24096386,686c2ebf0248f13bef9af11f,686c844110be645b43dcccf4,,,,,,,,,,,,,,,,,,,,,,,,,,,,,414.1783,1,audio/Narrative8Situation8.wav,417.1934,,417.1935,430.0599,"[[100,2552],[97.3,2636],[96,2719],[95.8,2799],[92.4,2887],[89.9,2969],[89,3051],[84.2,3136],[69.6,3218],[62.2,3302],[59,3386],[56.8,3469],[49.2,3552],[38,3633],[22.7,3736],[12.5,3819],[5.6,3902],[5.4,3985],[5.4,4066],[5.4,4149],[3.2,4233],[8.2,6786],[83.9,7135],[79.7,7233],[76.7,7316],[76.7,7399],[77.6,7483],[77.9,7566],[77.9,7649],[77.9,7733],[77.9,7816],[77.9,7899],[77.9,7983],[77.9,8066],[79.3,8171],[79.4,8249],[79.4,8333],[79.4,8416],[79.4,8499],[79.4,8583],[79.4,8666],[79.4,8749],[79.4,8833],[79.4,8916],[79.4,9002],[79.4,9099],[79.4,9183],[79.4,9266],[79.4,9349],[79.4,9433],[79.4,9516],[79.4,9599],[79.4,9683],[79.4,9783],[79.4,9866],[79.4,9949],[79.4,10033],[79.4,10119],[82.1,10202],[91.5,10286],[94.9,10369],[96.8,10449],[99.4,10549],[100,10635],[100,10716],[100,10799],[100,10883],[100,10966],[100,11049],[100,11133],[100,11216],[100,11299],[100,11383],[100,11466],[100,11549],[100,11632],[100,11716],[100,11799],[100,11882],[100,11966],[100,12049],[100,12132],[100,12216],[100,12299],[100,12383],[100,12483],[100,12566],[100,12649],[100,12733],[100,12816]]",430.06,434.5765,99.375,1.6878,"[{""rating"":99.375,""responseTime"":1.6878000000714906}]",space,3.9771,,434.5765,Definitely yes,100,445.2764,100,9.6751,"[{""rating"":95.10416666666667,""responseTime"":7.587100000023838},{""rating"":100,""responseTime"":9.67510000002386}]",space,0,8,8,8,1,audio/Narrative7Situation8.wav,audio/Narrative8Situation8.wav,audio/Narrative5Situation8.wav,audio/Narrative6Situation8.wav,2,3,3,5,,,10.1717,,,,,,,,,,,,,,,,,,,,,,,,,,,,,,,,,,
,,,,,66c8f4c85434e33b086cb7ca,2025-07-07_22h37.49.314,group3.4_multiperson,2023.2.2,Win32,60.24096386,686c2ebf0248f13bef9af11f,686c844110be645b43dcccf4,,,,,,,,,,,,,,,,,,,,,,,,,,,,,445.2766,1,audio/Narrative8Situation9.wav,448.2929,,448.2929,459.6137,"[[77.4,6002],[65.7,6099],[65.7,6183],[65.7,6266],[83.5,6350],[95.2,6453],[96.4,6536],[96.5,6616],[96.5,6699],[96.5,6783],[96.4,6869],[96.4,6949],[96.4,7033],[99,7120],[100,7202],[100,7283],[100,7366],[100,7449],[100,7533],[100,7616],[100,7699],[100,7783],[100,7866],[100,7949],[100,8033],[100,8116],[100,8202],[100,8302],[100,8383],[100,8466],[100,8549],[100,8633],[100,8716],[100,8799],[100,8883],[100,8970],[100,9049],[100,9133],[100,9216],[100,9299],[100,9383],[100,9466],[100,9549],[100,9633],[100,9716],[100,9800],[100,9883],[100,9966],[100,10049],[100,10133],[100,10219],[100,10302],[100,10386],[100,10483],[100,10566],[100,10649],[100,10733],[100,10816],[100,10899],[100,10983],[100,11086],[100,11166],[100,11249]]",459.6138,464.0595,99.58333333,3.4214,"[{""rating"":99.58333333333333,""responseTime"":3.4213999999761313}]",space,3.9072,,464.0595,Definitely yes,100,464.0605,,,[],,0,9,9,9,1,audio/Narrative7Situation9.wav,audio/Narrative8Situation9.wav,audio/Narrative5Situation9.wav,audio/Narrative6Situation9.wav,2,3,3,4,,,,,,,,,,,,,,,,,,,,,,,,,,,,,,,,,,,,,
,,,,,66c8f4c85434e33b086cb7ca,2025-07-07_22h37.49.314,group3.4_multiperson,2023.2.2,Win32,60.24096386,686c2ebf0248f13bef9af11f,686c844110be645b43dcccf4,,,,,,,,,,,,,,,,,,,,,,,,,,,,,464.0607,1,audio/Narrative7Situation1.wav,466.076,,466.0761,521.9752,"[[83.1,3949],[87.2,4036],[87.9,4119],[89.2,4199],[91.1,4292],[91.9,4369],[92,4449],[92,4533],[92,4616],[92,4699],[92,4783],[92,4866],[92,4949],[92,5033],[92,5116],[92,5199],[92,5285],[92,5366],[92,5449],[92,5533],[92,5616],[78.5,5702],[55.4,5802],[54.2,5883],[54.2,5966],[54.2,6049],[53.4,6136],[48.4,6219],[40.1,6302],[22.7,6386],[16.9,6469],[16.8,6549],[16.5,6633],[7.2,6716],[3.8,6802],[3.3,6886],[0.6,6969],[5.1,7902],[17,7985],[34.5,8069],[65.8,8152],[89.9,8235],[100,8320],[100,8402],[100,8483],[100,8566],[100,8649],[100,8737],[100,8832],[100,8916],[100,8999],[100,9083],[100,9166],[100,9249],[100,9332],[100,9416],[100,9499],[100,9583],[100,9666],[100,9769],[100,9849],[100,9933],[100,10016],[100,10099],[100,10183],[100,10266],[100,10349],[100,10433],[100,10535],[100,10616],[100,10699],[100,10783],[100,10866],[100,10952],[100,11052],[100,11133],[100,11216],[100,11299],[100,11382],[100,11466],[100,11549],[100,11633],[100,11716],[100,11799],[100,11883],[100,11966],[100,12049],[100,12132],[100,12216],[100,12299],[100,12385],[100,12482],[100,12566],[100,12649],[100,12732],[100,12816],[100,12899],[100,12982],[100,13066],[100,13166],[100,13249],[100,13332],[100,13416],[100,13499],[100,13582],[100,13666],[100,13749],[100,13832],[100,13916],[100,13999],[100,14082],[100,14169],[100,14266],[100,14349],[100,14432],[100,14533],[100,14616],[100,14699],[100,14783],[100,14866],[100,14949],[100,15033],[100,15116],[100,15199],[100,15283],[100,15366],[100,15452],[100,15550],[100,15632],[100,15716],[100,15822],[100,15899],[100,15982],[100,16066],[100,16149],[100,16249],[100,16332],[100,16416],[100,16499],[100,16599],[100,16682],[100,16766],[100,16849],[100,16932],[100,17033],[100,17116],[100,17199],[100,17284],[100,17366],[100,17449],[100,17532],[100,17626],[100,17699],[100,17782],[100,17866],[100,17949],[100,18033],[100,18116],[100,18199],[100,18283],[100,18368],[100,18466],[100,18549],[100,18649],[100,18732],[100,18816],[100,18899],[100,18985],[100,19066],[100,19149],[100,19232],[100,19316],[100,19399],[100,19482],[100,19566],[100,19649],[100,19732],[100,19816],[100,19899],[100,19982],[100,20066],[100,20149],[100,20232],[100,20316],[100,20399],[100,20482],[100,20566],[100,20649],[100,20732],[100,20816],[100,20899],[100,20982],[100,21066],[100,21149],[100,21232],[100,21316],[100,21399],[100,21482],[100,21566],[100,21649],[100,21732],[100,21816],[100,21899],[100,21982],[100,22066],[100,22149],[100,22232],[100,22316],[100,22399],[100,22485],[100,22582],[100,22666],[100,22752],[100,22849],[100,22932],[100,23018],[100,23099],[100,23182],[100,23266],[100,23349],[100,23432],[100,23532],[100,23616],[100,23699],[100,23782],[100,23866],[100,23949],[100,24032],[100,24116],[100,24219],[100,24299],[100,24382],[100,24466],[100,24549],[100,24632],[100,24716],[100,24799],[100,24882],[100,24966],[100,25049],[100,25135],[100,25216],[100,25299],[100,25382],[100,25466],[100,25549],[100,25632],[100,25716],[100,25799],[100,25882],[100,25966],[100,26049],[100,26132],[100,26216],[100,26299],[100,26382],[100,26466],[100,26549],[100,26632],[100,26716],[100,26799],[100,26885],[100,26966],[100,27049],[100,27132],[100,27216],[100,27299],[100,27382],[100,27466],[100,27549],[100,27632],[100,27716],[100,27799],[100,27882],[100,27966],[100,28049],[100,28149],[100,28232],[100,28316],[100,28399],[100,28482],[100,28566],[100,28649],[100,28732],[100,28816],[100,28916],[100,28999],[100,29082],[100,29166],[100,29249],[100,29332],[100,29417],[100,29499],[100,29582],[100,29666],[100,29749],[100,29832],[100,29916],[100,29999],[100,30082],[100,30166],[100,30249],[100,30332],[100,30416],[100,30499],[100,30582],[100,30666],[100,30755],[100,30849],[100,30932],[100,31016],[100,31099],[100,31182],[100,31268],[100,31349],[100,31432],[100,31516],[100,31599],[100,31682],[100,31766],[100,31849],[100,31932],[100,32016],[100,32099],[100,32182],[100,32285],[100,32366],[100,32449],[100,32532],[100,32616],[100,32699],[100,32782],[100,32865],[100,32949],[100,33032],[100,33115],[100,33199],[100,33285],[100,33366],[100,33466],[100,33549],[100,33635],[100,33716],[100,33799],[100,33882],[100,33966],[100,34049],[100,34132],[100,34218],[100,34318],[100,34399],[100,34482],[100,34566],[100,34649],[100,34732],[100,34816],[100,34899],[100,34982],[100,35066],[100,35149],[100,35232],[100,35316],[100,35399],[100,35482],[100,35566],[100,35649],[100,35732],[100,35816],[100,35899],[100,35982],[100,36066],[100,36149],[100,36232],[100,36316],[100,36399],[100,36482],[100,36566],[100,36649],[100,36732],[100,36816],[100,36899],[100,36982],[100,37066],[100,37149],[100,37233],[100,37321],[100,37399],[100,37482],[100,37566],[100,37649],[100,37732],[100,37816],[100,37899],[100,37982],[100,38065],[100,38149],[100,38232],[100,38316],[100,38399],[100,38482],[100,38566],[100,38649],[100,38732],[100,38816],[100,38918],[100,38999],[100,39082],[100,39165],[100,39249],[100,39332],[100,39415],[100,39499],[100,39582],[100,39665],[100,39749],[100,39832],[100,39915],[100,39999],[100,40099],[100,40182],[100,40265],[100,40349],[100,40451],[100,40532],[100,40615],[100,40699],[100,40799],[100,40882],[100,40965],[100,41049],[100,41133],[100,41215],[100,41299],[100,41382],[100,41466],[100,41556],[100,41649],[100,41732],[100,41815],[100,41899],[100,41982],[100,42065],[100,42149],[100,42232],[100,42315],[100,42399],[100,42485],[100,42565],[100,42649],[100,42732],[100,42815],[100,42899],[100,42982],[100,43066],[100,43151],[100,43249],[100,43332],[100,43415],[100,43501],[100,43582],[100,43665],[100,43749],[100,43832],[100,43915],[100,43999],[100,44082],[100,44165],[100,44249],[100,44332],[100,44418],[100,44499],[100,44582],[100,44665],[100,44749],[100,44832],[100,44915],[100,44999],[100,45082],[100,45165],[100,45249],[100,45332],[100,45415],[100,45499],[100,45582],[100,45665],[100,45765],[100,45849],[100,45932],[100,46015],[100,46099],[100,46182],[100,46265],[100,46349],[100,46432],[100,46515],[100,46599],[100,46682],[100,46765],[100,46849],[100,46949],[100,47032],[100,47115],[100,47199],[100,47299],[100,47382],[100,47465],[100,47549],[100,47632],[100,47732],[100,47815],[100,47899],[100,47982],[100,48065],[100,48149],[100,48232],[100,48315],[100,48399],[100,48482],[100,48565],[100,48649],[100,48732],[100,48815],[100,48899],[100,48982],[100,49065],[100,49165],[100,49249],[100,49332],[100,49415],[100,49499],[100,49582],[100,49665],[100,49749],[100,49832],[100,49915],[100,49999],[100,50082],[100,50165],[100,50249],[100,50332],[100,50415],[100,50499],[100,50582],[100,50665],[100,50749],[100,50832],[100,50915],[100,50999],[100,51082],[100,51165],[100,51249],[100,51332],[100,51415],[100,51499],[100,51601],[100,51682],[100,51765],[100,51849],[100,51936],[100,52032],[100,52115],[100,52199],[100,52282],[100,52365],[100,52449],[100,52532],[100,52615],[100,52699],[100,52782],[100,52865],[100,52949],[100,53032],[100,53115],[100,53199],[100,53282],[100,53365],[100,53451],[100,53549],[100,53632],[100,53715],[100,53799],[100,53882],[100,53965],[100,54048],[100,54132],[100,54215],[100,54315],[100,54399],[100,54482],[100,54565],[100,54649],[100,54732],[100,54815],[100,54899],[100,54982],[100,55073],[100,55165],[100,55249],[100,55332],[100,55415],[100,55499],[100,55582],[100,55665],[100,55749],[100,55832]]",521.9753,524.4585,98.54166667,1.7788,"[{""rating"":98.54166666666666,""responseTime"":1.778799999952298}]",space,1.9425,,524.4586,Not at all,0,524.46,,,[],,0,10,10,10,1,audio/Narrative8Situation1.wav,audio/Narrative7Situation1.wav,audio/Narrative6Situation1.wav,audio/Narrative5Situation1.wav,5,2,2,5,,,,,,,,,,,,,,,,,,,,,,,,,,,,,,,,,,,,,
,,,,,66c8f4c85434e33b086cb7ca,2025-07-07_22h37.49.314,group3.4_multiperson,2023.2.2,Win32,60.24096386,686c2ebf0248f13bef9af11f,686c844110be645b43dcccf4,,,,,,,,,,,,,,,,,,,,,,,,,,,,,524.4602,1,audio/Narrative7Situation2.wav,527.4751,,527.4751,534.9584,"[[88.8,5869],[79.4,5952],[79.4,6033],[79.4,6119],[92.7,6219],[100,6302],[100,6383],[100,6466],[100,6549],[100,6633],[100,6716],[100,6799],[100,6886],[100,6983],[100,7066],[100,7149],[100,7233],[100,7316],[100,7399],[100,7483]]",534.9584,539.1249,52.29166667,3.3633,"[{""rating"":52.29166666666667,""responseTime"":3.363300000071604}]",space,3.6217,,539.1249,Partially,50,539.1262,,,[],,0,11,11,11,1,audio/Narrative8Situation2.wav,audio/Narrative7Situation2.wav,audio/Narrative6Situation2.wav,audio/Narrative5Situation2.wav,3,3,3,3,,,,,,,,,,,,,,,,,,,,,,,,,,,,,,,,,,,,,
,,,,,66c8f4c85434e33b086cb7ca,2025-07-07_22h37.49.314,group3.4_multiperson,2023.2.2,Win32,60.24096386,686c2ebf0248f13bef9af11f,686c844110be645b43dcccf4,,,,,,,,,,,,,,,,,,,,,,,,,,,,,539.1262,1,audio/Narrative7Situation3.wav,547.1416,,547.1416,556.408,"[[54,2169],[54.8,2252],[54.9,2352],[54.9,2433],[54.9,2516],[54.9,2599],[54.9,2683],[59.5,2769],[68,2852],[68.6,2933],[68.6,3016],[68.6,3102],[68.6,3199],[68.6,3283],[68.6,3366],[68.6,3469],[65.1,3549],[60.6,3636],[58.3,3716],[57.9,3799],[57,3883],[52.6,3966],[50,4049],[48.6,4133],[48.5,4216],[48.5,4299],[48.5,4388],[48.5,4468],[48.5,4551],[48.4,4635],[34.1,4719],[22.8,4802],[19.7,4885],[19.4,4968],[19.4,5059],[12.5,5135],[9.7,5218],[9.6,5302],[9.7,5385],[22.6,5470],[37.1,5552],[43.1,5635],[49.5,5718],[51.3,5813],[51.4,5886],[51.4,5968],[51.4,6052],[51.4,6135],[50.2,6218],[49.8,6302],[49.8,6409],[49.8,6499],[49.8,6583],[44.4,6669],[31.5,6752],[23.1,6836],[15.1,6919],[7.9,7001],[6.6,7083],[5.5,7169],[5.4,7249],[5.4,7333],[5.4,7416],[5.4,7499],[4.3,7585],[2.5,7669],[2.1,7749],[1.7,7835],[1,7919],[0.9,8002],[0.9,8099],[0.9,8183],[0.9,8266],[0.9,8349],[0.9,8433],[0.9,8516],[0.9,8599],[0.9,8683],[0.9,8766]]",556.4081,561.6108,0,4.1565,"[{""rating"":7.916666666666666,""responseTime"":3.129300000071453},{""rating"":0,""responseTime"":4.156499999999937}]",space,4.655,,561.6109,Definitely yes,100,561.6121,,,[],,0,12,12,12,1,audio/Narrative8Situation3.wav,audio/Narrative7Situation3.wav,audio/Narrative6Situation3.wav,audio/Narrative5Situation3.wav,4,8,5,3,,,,,,,,,,,,,,,,,,,,,,,,,,,,,,,,,,,,,
,,,,,66c8f4c85434e33b086cb7ca,2025-07-07_22h37.49.314,group3.4_multiperson,2023.2.2,Win32,60.24096386,686c2ebf0248f13bef9af11f,686c844110be645b43dcccf4,,,,,,,,,,,,,,,,,,,,,,,,,,,,,561.6122,1,audio/Narrative7Situation4.wav,564.6245,,564.6245,576.3577,"[[999,0],[999,83],[999,166],[999,250],[999,333],[999,416],[999,500],[999,587],[999,666],[999,749],[999,833],[999,916],[999,999],[999,1083],[999,1166],[999,1250],[999,1333],[999,1419],[999,1502],[999,1602],[999,1683],[999,1766],[999,1852],[34.2,1936],[39.4,2033],[39.7,2116],[39.7,2199],[39.7,2283],[39.7,2366],[41.1,2452],[42.1,2536],[44.4,2619],[46.3,2702],[48.9,2799],[49.7,2883],[49.7,2966],[49.7,3049],[49.7,3133],[49.7,3219],[49.7,3299],[50.6,3383],[65.6,3469],[73.9,3552],[78.8,3636],[82,3719],[82.9,3802],[84.7,3886],[85.8,3966],[85.8,4049],[85.8,4133],[85.8,4223],[85.8,4316],[85.8,4399],[85.8,4483],[85.8,4566],[85.8,4649],[85.8,4733],[81.9,4816],[73.8,4902],[67.4,4986],[62.6,5086],[58.8,5169],[55.3,5252],[53.4,5336],[51.1,5418],[49.5,5500],[49.2,5585],[49.1,5666],[49.1,5752],[49.1,5833],[49.1,5916],[37.7,6002],[17,6086],[5,6169],[2.7,6253]]",576.3578,580.8076,0,3.7472,"[{""rating"":0.9375000000000022,""responseTime"":3.147299999952338},{""rating"":0,""responseTime"":3.7471999999285117}]",space,3.9042,,580.8077,Definitely yes,100,580.8085,,,[],,0,13,13,13,1,audio/Narrative8Situation4.wav,audio/Narrative7Situation4.wav,audio/Narrative6Situation4.wav,audio/Narrative5Situation4.wav,3,3,2,1,,,,,,,,,,,,,,,,,,,,,,,,,,,,,,,,,,,,,
,,,,,66c8f4c85434e33b086cb7ca,2025-07-07_22h37.49.314,group3.4_multiperson,2023.2.2,Win32,60.24096386,686c2ebf0248f13bef9af11f,686c844110be645b43dcccf4,,,,,,,,,,,,,,,,,,,,,,,,,,,,,580.8087,1,audio/Narrative7Situation5.wav,585.8242,,585.8242,594.3241,"[[11.3,1752],[19.1,1859],[20.8,1936],[21.4,2016],[21.7,2099],[21.7,2183],[21.7,2266],[22.1,2350],[29.6,2436],[36.6,2519],[44.9,2602],[50,2686],[59.6,2769],[65,2852],[67,2936],[67.5,3033],[68.8,3119],[70,3202],[70.4,3283],[70.4,3366],[70.4,3449],[70.4,3533],[69.7,3619],[66.5,3703],[62.5,3802],[59,3886],[56.4,3969],[55,4053],[54,4133],[53.2,4219],[52.1,4302],[50.7,4386],[50.2,4484],[49.8,4569],[49.8,4649],[49.8,4733],[49.8,4816],[49.8,4899],[49.8,4983],[49.8,5066],[49.8,5168],[49.8,5249],[49.8,5333],[49.8,5416],[49.8,5519],[49.8,5599],[49.8,5683],[49.8,5766],[49.8,5849],[49.8,5933],[49.8,6016],[49.8,6099],[49.8,6183],[49.8,6266],[49.8,6349],[49.8,6433],[49.8,6516],[49.8,6599],[49.8,6683],[49.8,6766],[49.8,6849],[49.8,6933],[49.8,7016],[49.8,7099],[49.8,7183],[49.8,7266],[49.8,7349],[49.8,7435],[49.8,7516],[49.8,7599],[49.8,7685],[49.8,7783],[49.8,7866],[49.8,7949],[49.8,8033],[49.8,8116],[49.8,8199],[49.8,8283],[49.8,8386],[49.8,8466]]",594.3242,596.8074,49.79166667,1.3324,"[{""rating"":49.791666666666664,""responseTime"":1.3323999999761327}]",space,1.9319,,596.8074,Partially,50,596.8086,,,[],,0,14,14,14,1,audio/Narrative8Situation5.wav,audio/Narrative7Situation5.wav,audio/Narrative6Situation5.wav,audio/Narrative5Situation5.wav,2,5,2,5,,,,,,,,,,,,,,,,,,,,,,,,,,,,,,,,,,,,,
,,,,,66c8f4c85434e33b086cb7ca,2025-07-07_22h37.49.314,group3.4_multiperson,2023.2.2,Win32,60.24096386,686c2ebf0248f13bef9af11f,686c844110be645b43dcccf4,,,,,,,,,,,,,,,,,,,,,,,,,,,,,596.8087,1,audio/Narrative7Situation6.wav,599.8153,,599.8153,609.7934,"[[52.9,8528],[51.7,8628],[51.1,8711],[51,8791],[51,8875],[51,8958],[51,9041],[57.8,9128],[64,9211],[69,9294],[72.3,9378],[74.4,9461],[76.9,9544],[78.9,9628],[80.4,9713],[82.2,9794],[84.2,9878],[85.6,9961]]",609.7934,614.2904,63.125,3.4549,"[{""rating"":72.39583333333334,""responseTime"":2.415800000071499},{""rating"":63.125,""responseTime"":3.4549000000953356}]",space,3.9623,,614.2905,Partially,50,614.2912,,,[],,0,15,15,15,1,audio/Narrative8Situation6.wav,audio/Narrative7Situation6.wav,audio/Narrative6Situation6.wav,audio/Narrative5Situation6.wav,2,3,2,3,,,,,,,,,,,,,,,,,,,,,,,,,,,,,,,,,,,,,
,,,,,66c8f4c85434e33b086cb7ca,2025-07-07_22h37.49.314,group3.4_multiperson,2023.2.2,Win32,60.24096386,686c2ebf0248f13bef9af11f,686c844110be645b43dcccf4,,,,,,,,,,,,,,,,,,,,,,,,,,,,,614.2913,1,audio/Narrative7Situation7.wav,619.3071,,619.3071,636.4901,"[[61.1,1776],[60,1852],[59.8,1933],[59.8,2016],[59.8,2099],[59.8,2187],[59.8,2283],[59.8,2366],[59.8,2449],[59.8,2533],[61.7,2616],[64.6,2702],[65.3,2783],[65.3,2866],[65.3,2949],[65.3,3033],[65.3,3116],[67.3,3202],[72.8,3286],[73.1,3366],[73.1,3449],[73.1,3533],[73.1,3616],[73.1,3699],[73.1,3783],[73.1,3866],[73.1,3952],[73.1,4033],[73.1,4116],[73.1,4199],[73.1,4283],[73.1,4366],[73.1,4449],[73.1,4535],[73.1,4633],[73.1,4716],[73.1,4799],[73.1,4883],[73.1,4969],[73.1,5049],[73.1,5133],[73.1,5216],[73.1,5299],[73.1,5383],[73.1,5466],[73.1,5549],[73.1,5633],[73.1,5716],[73.1,5799],[73.1,5883],[73.1,5966],[73.1,6049],[73.1,6133],[73.1,6216],[73.1,6299],[73.1,6383],[73.1,6466],[73.1,6549],[73.1,6633],[73.1,6716],[73.1,6799],[73.1,6883],[73.1,6966],[73.1,7049],[73.1,7133],[73.1,7216],[73.1,7316],[73.1,7401],[73.1,7483],[73.1,7566],[73.1,7649],[73.1,7733],[73.1,7816],[73.1,7905],[73.1,7999],[73.1,8083],[73.1,8166],[73.1,8266],[73.1,8349],[73.1,8433],[73.1,8516],[73.1,8599],[73.1,8683],[73.1,8766],[73.1,8849],[73.1,8933],[73.1,9016],[73.1,9099],[73.1,9183],[73.1,9266],[73.1,9352],[73.1,9435],[73.1,9533],[73.1,9616],[73.1,9699],[73.1,9783],[73.1,9866],[73.1,9949],[73.1,10052],[73.1,10133],[73.1,10216],[73.1,10299],[73.1,10383],[73.1,10466],[73.1,10549],[73.1,10633],[73.1,10716],[73.1,10816],[73.1,10899],[73.1,10982],[73.1,11069],[73.1,11166],[73.1,11249],[73.1,11333],[73.1,11433],[73.1,11516],[73.1,11599],[73.1,11682],[73.1,11766],[73.1,11866],[73.1,11949],[73.1,12033],[73.1,12116],[73.1,12199],[73.1,12283],[73.1,12366],[73.1,12449],[73.1,12533],[73.1,12616],[73.1,12699],[73.1,12783],[73.1,12866],[73.1,12952],[73.1,13049],[73.1,13133],[73.1,13216],[73.1,13299],[73.1,13383],[73.1,13466],[73.1,13549],[73.1,13633],[73.1,13716],[73.1,13799],[73.1,13883],[73.1,13982],[73.4,14066],[74.5,14152],[76.8,14233],[79.6,14335],[81.4,14419],[84.1,14502],[85.6,14582],[86.8,14670],[87.6,14752],[89.1,14836],[90.9,14919],[92.7,15002],[94.6,15093],[96,15169],[97.6,15252],[98.4,15336],[99.1,15419],[99.4,15499],[99.4,15582],[99.4,15666],[99.4,15749],[99.4,15852],[99.4,15932],[99.4,16022],[99.4,16116],[99.4,16199],[99.4,16283],[100,16385],[100,16469],[100,16549],[100,16632],[100,16716],[100,16799],[100,16883],[100,16966],[100,17049],[100,17132]]",636.4901,640.4261,99.0625,2.9098,"[{""rating"":99.0625,""responseTime"":2.90979999995227}]",space,3.4175,,640.4262,Definitely yes,100,640.4274,,,[],,0,16,16,16,1,audio/Narrative8Situation7.wav,audio/Narrative7Situation7.wav,audio/Narrative6Situation7.wav,audio/Narrative5Situation7.wav,3,5,5,4,,,,,,,,,,,,,,,,,,,,,,,,,,,,,,,,,,,,,
,,,,,66c8f4c85434e33b086cb7ca,2025-07-07_22h37.49.314,group3.4_multiperson,2023.2.2,Win32,60.24096386,686c2ebf0248f13bef9af11f,686c844110be645b43dcccf4,,,,,,,,,,,,,,,,,,,,,,,,,,,,,640.4275,1,audio/Narrative7Situation8.wav,642.4466,,642.4467,652.4732,"[[89,4145],[73,4229],[72.9,4309],[72.9,4393],[76.5,4476],[86.9,4562],[91.8,4646],[92.7,4729],[93.2,4829],[93.3,4909],[93.3,4993],[93.3,5076],[93.3,5159],[94.1,5246],[94.7,5329],[95.2,5412],[96.4,5509],[97.9,5596],[98.3,5679],[98.3,5759],[98.3,5843],[98.3,5926],[98.3,6009],[98.3,6093],[98.3,6176],[98.3,6259],[98.3,6345],[98.3,6428],[99.3,6529],[99.7,6612],[99.8,6702],[99.9,6793],[100,6876],[100,6959],[100,7043],[100,7126],[100,7209],[100,7293],[100,7376],[100,7459],[100,7545],[100,7626],[100,7709],[100,7793],[100,7876],[100,7959],[100,8043],[100,8126],[100,8209],[100,8293],[100,8376],[100,8459],[100,8562],[100,8643],[100,8726],[100,8809],[100,8893],[100,8976],[100,9059],[100,9143],[100,9226],[100,9309],[100,9393],[100,9476],[100,9559],[100,9662],[100,9743],[100,9826],[100,9909],[100,9993]]",652.4732,656.1732,82.5,2.7824,"[{""rating"":82.5,""responseTime"":2.782399999976178}]",space,3.1742,,656.1732,Not at all,0,656.1747,,,[],,0,17,17,17,1,audio/Narrative8Situation8.wav,audio/Narrative7Situation8.wav,audio/Narrative6Situation8.wav,audio/Narrative5Situation8.wav,3,2,5,3,,,,,,,,,,,,,,,,,,,,,,,,,,,,,,,,,,,,,
,,,,,66c8f4c85434e33b086cb7ca,2025-07-07_22h37.49.314,group3.4_multiperson,2023.2.2,Win32,60.24096386,686c2ebf0248f13bef9af11f,686c844110be645b43dcccf4,,,,,,,,,,,,,,,,,,,,,,,,,,,,,656.1748,1,audio/Narrative7Situation9.wav,658.1753,,658.1754,666.8064,"[[82.9,2480],[80.5,2564],[77.9,2650],[74.8,2733],[74.6,2814],[74.6,2917],[74.6,2997],[74.6,3081],[78.3,3164],[87.8,3261],[92.4,3334],[94.2,3417],[94.5,3500],[94.5,3581],[94.5,3664],[94.5,3747],[94.5,3831],[94.5,3914],[95.9,4000],[97.4,4081],[97.8,4164],[97.9,4247],[97.9,4331],[97.9,4431],[97.9,4514],[97.9,4597],[97.9,4681],[97.9,4764],[94.7,4850],[79.4,4950],[53.6,5033],[33.1,5117],[18.8,5200],[12.3,5281],[4.8,5367],[0.8,5450],[0.3,5530],[0.3,5617],[0.3,5716],[0.3,5797],[0.3,5880],[0.3,5964],[0.3,6047],[0.3,6130],[0.3,6214],[26.7,6300],[70.3,6380],[84.2,6483],[92.3,6567],[100,6650],[100,6730],[100,6814],[100,6897],[100,6980],[100,7064],[100,7147],[100,7230],[100,7314],[100,7397],[100,7480],[100,7569],[100,7664],[100,7747],[100,7830],[100,7930],[100,8015],[100,8097],[100,8180],[100,8264],[100,8347],[100,8433],[100,8530],[100,8614]]",666.8064,669.3063,99.375,1.8019,"[{""rating"":99.375,""responseTime"":1.8019000000953156}]",space,1.953,,669.3063,Partially,50,669.3074,,,[],,0,18,18,18,1,audio/Narrative8Situation9.wav,audio/Narrative7Situation9.wav,audio/Narrative6Situation9.wav,audio/Narrative5Situation9.wav,3,2,4,3,,,,,,,,,,,,,,,,,,,,,,,,,,,,,,,,,,,,,
,,,,,66c8f4c85434e33b086cb7ca,2025-07-07_22h37.49.314,group3.4_multiperson,2023.2.2,Win32,60.24096386,686c2ebf0248f13bef9af11f,686c844110be645b43dcccf4,,,,,,,,,,,,,,,,,,,,,,,,,,,673.6898,676.2562,676.2621,2,audio/Narrative13Situation2.wav,676.2622,,676.2622,706.039,"[[98.1,5627],[98.1,5710],[98.1,5793],[98.1,5877],[98.1,5960],[98.1,6043],[98.1,6127],[98.1,6210],[98.1,6293],[98.1,6377],[98.1,6460],[98.1,6543],[98.1,6627],[98.1,6710],[98.1,6793],[98.1,6877],[98.1,6960],[98.1,7043],[98.1,7127],[98.1,7210],[98.1,7293],[98.1,7377],[98.1,7460],[98.1,7543],[98.1,7627],[98.1,7710],[98.1,7793],[98.1,7877],[98.1,7960],[98.1,8043],[98.1,8129],[98.1,8227],[98.1,8310],[98.1,8393],[98.1,8477],[98.1,8560],[98.1,8643],[98.1,8727],[98.1,8810],[98.1,8893],[98.1,8977],[98.1,9060],[98.1,9143],[98.1,9227],[98.1,9311],[98.1,9393],[98.1,9477],[98.1,9560],[98.1,9643],[98.1,9727],[98.1,9810],[98.1,9893],[98.1,9977],[98.1,10060],[98.1,10150],[98.1,10243],[98.1,10327],[98.1,10410],[98.1,10493],[98.1,10577],[98.1,10660],[98.1,10743],[98.1,10827],[98.1,10910],[98.1,10993],[98.1,11077],[98.1,11161],[98.1,11260],[98.1,11343],[98.1,11427],[98.1,11510],[98.1,11593],[98.1,11679],[98.1,11762],[98.1,11860],[98.1,11943],[98.1,12027],[98.1,12110],[98.1,12193],[98.1,12277],[98.1,12360],[98.1,12443],[98.1,12527],[98.1,12610],[98.1,12693],[98.1,12779],[98.1,12877],[98.1,12960],[98.1,13043],[98.1,13127],[98.1,13210],[98.1,13293],[98.1,13377],[98.1,13460],[98.1,13543],[98.1,13627],[98.1,13710],[98.1,13793],[98.1,13877],[98.1,13960],[98.1,14043],[98.1,14127],[98.1,14210],[98.1,14295],[98.1,14393],[98.1,14477],[98.1,14560],[98.1,14643],[98.1,14727],[98.1,14810],[98.1,14893],[98.1,14977],[98.1,15060],[98.1,15143],[98.1,15227],[98.1,15310],[98.1,15393],[98.1,15477],[98.1,15560],[98.1,15643],[98.1,15727],[98.1,15810],[98.1,15893],[98.1,15977],[98.1,16060],[98.1,16143],[98.1,16227],[98.1,16310],[98.1,16413],[98.1,16493],[98.1,16577],[98.1,16660],[98.1,16743],[98.1,16827],[98.1,16910],[98.1,16993],[98.1,17077],[98.1,17160],[98.1,17243],[98.1,17327],[98.1,17410],[98.1,17493],[98.1,17576],[98.1,17660],[98.1,17743],[98.1,17827],[98.1,17910],[98.1,17993],[98.1,18077],[98.1,18160],[98.1,18243],[98.1,18326],[98.1,18410],[98.1,18493],[98.1,18576],[98.1,18663],[27.4,19079],[11.7,19163],[10.4,19265],[9.8,19346],[8.5,19429],[7.5,19513],[7.1,19613],[7.1,19693],[7.1,19776],[7.1,19860],[7.1,19943],[7.1,20026],[7.1,20110],[7,20193],[5.5,20280],[5.4,20360],[5.4,20443],[5.4,20527],[10.9,20613],[16,20696],[17.6,20779],[19.7,20863],[22.7,20947],[23.5,21027],[23.5,21110],[23.5,21193],[23.5,21276],[23.5,21379],[23.5,21460],[23.5,21543],[22.6,21629],[22.2,21710],[22.2,21793],[22.2,21876],[22.2,21960],[22.2,22043],[22.2,22126],[22.2,22210],[22.2,22293],[21.3,22377],[20.9,22460],[20.9,22543],[20.9,22626],[20.9,22710],[20.9,22793],[20.9,22876],[20.9,22960],[20.9,23043],[20.9,23126],[20.9,23210],[20.9,23293],[20.9,23376],[20.9,23460],[20.9,23543],[20.9,23626],[20.9,23710],[20.9,23793],[20.9,23876],[20.9,23960],[20.9,24043],[20.9,24126],[20.9,24210],[20.9,24293],[20.9,24396],[20.9,24476],[20.9,24560],[20.9,24643],[20.9,24726],[20.9,24812],[20.9,24893],[20.9,24976],[20.9,25060],[20.9,25143],[20.9,25226],[20.9,25310],[20.9,25393],[20.9,25477],[20.9,25560],[20.9,25643],[20.9,25746],[20.9,25826],[20.9,25910],[20.9,25993],[20.9,26076],[20.9,26160],[20.9,26243],[20.9,26326],[20.9,26410],[20.9,26493],[20.9,26576],[20.9,26660],[20.9,26743],[20.9,26826],[20.9,26910],[20.9,26993],[20.9,27076],[20.9,27160],[20.9,27243],[20.9,27326],[20.9,27410],[20.9,27493],[20.9,27576],[20.9,27676],[20.9,27760],[20.9,27843],[20.9,27927],[20.9,28010],[20.9,28093],[20.9,28176],[20.9,28260],[20.9,28343],[20.9,28429],[20.9,28526],[20.9,28611],[20.9,28693],[20.9,28776],[20.9,28860],[20.9,28943],[20.9,29026],[20.9,29110],[20.9,29193],[20.9,29276],[20.9,29360],[20.9,29443],[20.9,29526],[20.9,29610],[20.9,29693],[20.9,29776]]",706.0392,706.04,,,[],,,,706.0401,Not at all,0,706.041,,,[],,0,0,0,0,1,audio/Narrative13Situation2.wav,audio/Narrative13Situation2.wav,audio/Narrative13Situation2.wav,audio/Narrative13Situation2.wav,2,2,2,2,,,,,669.3079,673.6897,space,3.8621,,,,,,,,,,,,,,,,,,,,,,,,,,,,,
,,,,,66c8f4c85434e33b086cb7ca,2025-07-07_22h37.49.314,group3.4_multiperson,2023.2.2,Win32,60.24096386,686c2ebf0248f13bef9af11f,686c844110be645b43dcccf4,,,,,,,,,,,,,,,,,,,,,,,,,,,,,706.041,2,audio/Narrative6Situation1.wav,708.0557,,708.0557,734.6386,"[[22.1,1752],[21.7,1835],[21.6,1916],[21.6,1999],[21.6,2083],[21.6,2166],[21.6,2249],[21.6,2333],[21.6,2433],[21.6,2516],[21.6,2599],[21.6,2683],[21.6,2766],[21.6,2850],[21.6,2933],[21.6,3018],[21.6,3099],[21.6,3183],[21.6,3268],[21.6,3349],[21.6,3433],[21.6,3516],[21.6,3600],[26.5,3686],[38.5,3770],[43.3,3854],[44.4,3936],[44.5,4016],[44.5,4099],[44.5,4183],[46.5,4270],[47.7,4352],[48.4,4433],[48.5,4516],[48.4,4599],[36.1,4687],[22.2,4769],[13.2,4852],[7.2,4936],[2.1,5019],[0.7,5116],[0.7,5199],[0.7,5283],[2.9,5369],[21.3,5452],[61.9,5536],[71.9,5616],[76.7,5702],[85.4,5786],[91,5869],[91.3,5949],[91.3,6033],[91.3,6116],[90.4,6203],[89.6,6283],[89.5,6366],[89.5,6450],[89.5,6533],[89.5,6616],[89.5,6699],[89.5,6783],[89.5,6866],[89.5,6952],[89.5,7049],[89.5,7133],[89.5,7216],[89.5,7302],[89.5,7385],[89.5,7483],[89.5,7566],[89.5,7649],[89.5,7733],[89.5,7819],[89.5,7899],[89.5,7983],[89.5,8066],[89.5,8149],[89.5,8233],[89.5,8333],[89.5,8416],[89.5,8500],[89.5,8583],[89.5,8666],[89.5,8749],[89.5,8833],[89.5,8916],[89.5,8999],[89.5,9099],[89.5,9183],[89.5,9266],[89.5,9349],[89.5,9433],[89.5,9516],[89.5,9599],[89.5,9683],[89.5,9771],[89.5,9866],[89.5,9949],[89.5,10033],[89.5,10118],[89.5,10199],[89.5,10283],[89.5,10366],[89.5,10449],[89.5,10533],[89.5,10616],[89.5,10699],[89.5,10783],[89.5,10866],[89.5,10949],[89.5,11033],[89.5,11133],[89.5,11216],[89.5,11299],[89.5,11383],[89.5,11466],[89.5,11549],[89.5,11633],[89.5,11716],[89.5,11804],[89.5,11899],[89.5,11985],[89.5,12066],[89.5,12149],[89.5,12233],[89.5,12316],[89.5,12399],[89.5,12483],[89.5,12569],[89.5,12649],[89.5,12733],[89.5,12816],[89.5,12899],[89.5,12983],[89.5,13066],[89.5,13166],[89.5,13249],[89.5,13333],[89.5,13416],[89.5,13499],[89.5,13583],[89.5,13666],[89.5,13749],[89.5,13849],[89.5,13933],[89.5,14016],[89.5,14099],[89.5,14183],[89.5,14266],[89.5,14349],[89.5,14433],[89.5,14518],[89.5,14616],[89.5,14699],[89.5,14785],[89.5,14885],[89.5,14966],[89.5,15049],[89.5,15133],[89.5,15216],[89.5,15299],[89.5,15383],[89.5,15483],[89.5,15566],[89.5,15649],[89.5,15736],[89.5,15833],[89.5,15916],[89.2,16002],[89.2,16085],[89.2,16183],[89.2,16266],[89.2,16349],[89.2,16433],[89.2,16516],[89.2,16599],[89.2,16683],[89.2,16783],[89.2,16866],[89.2,16949],[89.2,17033],[89.2,17116],[89.2,17199],[89.2,17283],[89.2,17367],[89.2,17449],[89.2,17533],[89.2,17616],[89.2,17699],[89.2,17782],[89.2,17866],[89.2,17949],[89.2,18033],[89.2,18133],[89.2,18216],[89.2,18299],[89.2,18383],[89.2,18466],[89.2,18549],[89.2,18649],[89.2,18733],[89.2,18816],[89.2,18899],[89.2,18983],[89.2,19066],[89.2,19149],[89.2,19233],[89.2,19316],[89.2,19399],[89.2,19483],[89.2,19566],[89.2,19649],[89.2,19749],[89.2,19833],[89.2,19916],[89.2,19999],[89.2,20099],[89.2,20183],[89.2,20266],[89.2,20349],[89.2,20432],[89.2,20516],[89.2,20599],[89.2,20683],[89.2,20766],[89.2,20849],[89.2,20932],[89.2,21016],[89.2,21099],[89.2,21182],[89.2,21266],[89.2,21349],[89.2,21433],[89.2,21518],[89.2,21616],[89.2,21700],[89.2,21783],[89.2,21866],[89.2,21949],[89.2,22033],[89.2,22116],[89.2,22199],[89.2,22299],[89.2,22382],[89.2,22466],[89.2,22549],[89.2,22632],[89.2,22716],[89.2,22799],[89.2,22882],[89.2,22966],[89.2,23049],[89.2,23132],[89.2,23216],[89.2,23304],[89.2,23399],[89.2,23482],[89.2,23566],[89.2,23649],[89.2,23732],[89.2,23816],[89.2,23899],[89.2,23982],[89.2,24066],[89.2,24157],[89.2,24252],[89.2,24332],[89.2,24416],[89.2,24499],[89.2,24582],[89.2,24666],[89.2,24749],[89.2,24832],[89.2,24916],[89.2,24999],[89.2,25082],[89.2,25166],[89.2,25249],[89.2,25332],[89.2,25416],[89.2,25502],[89.2,25583],[89.2,25666],[89.2,25749],[89.2,25832],[89.2,25916],[89.2,25999],[89.2,26082],[89.2,26166],[89.2,26249],[89.2,26332],[89.2,26416],[89.2,26499],[89.2,26582]]",734.6387,738.8719,94.79166667,2.0475,"[{""rating"":94.79166666666667,""responseTime"":2.0475000000000136}]",space,3.6874,,738.8719,Not at all,0,738.8727,,,[],,0,1,1,1,1,audio/Narrative7Situation1.wav,audio/Narrative8Situation1.wav,audio/Narrative5Situation1.wav,audio/Narrative6Situation1.wav,2,5,5,2,,,,,,,,,,,,,,,,,,,,,,,,,,,,,,,,,,,,,
,,,,,66c8f4c85434e33b086cb7ca,2025-07-07_22h37.49.314,group3.4_multiperson,2023.2.2,Win32,60.24096386,686c2ebf0248f13bef9af11f,686c844110be645b43dcccf4,,,,,,,,,,,,,,,,,,,,,,,,,,,,,738.8729,2,audio/Narrative6Situation2.wav,741.8885,,741.8885,770.4214,"[[999,0],[999,83],[999,166],[999,250],[999,349],[999,433],[999,516],[999,599],[999,683],[999,766],[999,850],[999,933],[999,1016],[999,1119],[999,1200],[999,1283],[999,1366],[999,1449],[999,1533],[999,1616],[999,1699],[999,1786],[999,1869],[48.6,1953],[48.8,2033],[49,2116],[49.3,2203],[49.3,2283],[49.3,2366],[49.2,2450],[48.5,2541],[47.6,2616],[47.6,2699],[47.6,2783],[47.6,2866],[47.6,2949],[41.7,3036],[32.6,3116],[24.8,3202],[15,3302],[7,3386],[5.3,3466],[5.2,3549],[5.2,3633],[5.2,3716],[5.2,3799],[5.2,3883],[9.7,3969],[18.3,4070],[22.8,4152],[32.5,4236],[47.2,4319],[56.5,4402],[64.1,4486],[66.5,4569],[67.2,4649],[67.2,4733],[67.2,4816],[69,4899],[79.3,4986],[79.9,5069],[80,5152],[82.2,5236],[85.4,5319],[88.3,5402],[91.4,5486],[94.7,5574],[96.7,5652],[98.1,5736],[98.9,5816],[99,5899],[99,5983],[99.6,6069],[99.8,6152],[99.9,6238],[99.9,6333],[99.9,6416],[99.9,6499],[99.9,6583],[99.9,6669],[99.9,6766],[99.9,6849],[99.9,6933],[99.9,7016],[99.9,7099],[99.9,7183],[99.9,7266],[99.9,7369],[99.9,7449],[99.9,7533],[99.9,7616],[99.9,7699],[99.9,7783],[99.9,7866],[99.9,7949],[99.9,8033],[99.9,8133],[99.9,8216],[99.9,8299],[99.9,8385],[99.9,8483],[99.9,8566],[99.9,8652],[99.9,8749],[99.9,8833],[99.9,8921],[99.9,9016],[99.9,9099],[99.9,9183],[99.9,9266],[99.9,9349],[99.9,9433],[99.9,9516],[99.9,9599],[99.9,9683],[99.9,9766],[99.9,9849],[99.9,9950],[99.9,10033],[99.9,10116],[99.9,10199],[99.9,10283],[99.9,10366],[99.9,10449],[99.9,10533],[99.9,10616],[99.9,10699],[99.9,10783],[99.9,10866],[99.9,10949],[99.9,11033],[99.9,11116],[99.9,11199],[99.9,11283],[99.9,11366],[99.9,11449],[99.9,11533],[99.9,11616],[99.9,11699],[99.9,11783],[99.9,11866],[99.9,11949],[99.9,12033],[99.9,12116],[99.9,12199],[99.9,12283],[99.9,12366],[99.9,12449],[99.9,12533],[99.9,12616],[99.9,12699],[99.9,12783],[99.9,12866],[99.9,12949],[99.9,13033],[99.9,13116],[99.9,13199],[99.9,13283],[99.9,13366],[99.9,13449],[99.9,13533],[99.9,13616],[99.9,13699],[99.9,13783],[99.9,13866],[99.9,13949],[99.9,14033],[99.9,14116],[99.9,14199],[99.9,14283],[99.9,14366],[99.9,14449],[99.9,14533],[99.9,14616],[99.9,14699],[99.9,14783],[99.9,14866],[99.9,14949],[99.9,15033],[99.9,15116],[99.9,15199],[99.9,15283],[99.9,15383],[99.9,15466],[99.9,15549],[99.9,15633],[99.9,15718],[99.9,15816],[99.9,15899],[99.9,15983],[99.9,16066],[99.9,16149],[99.9,16233],[99.9,16316],[99.9,16416],[99.9,16499],[99.9,16583],[99.9,16666],[99.9,16749],[99.9,16833],[99.9,16916],[99.9,16999],[99.9,17083],[99.9,17166],[99.9,17249],[99.9,17333],[99.9,17419],[99.9,17499],[99.9,17583],[99.9,17666],[99.9,17749],[99.9,17833],[99.9,17916],[99.9,18010],[99.9,18085],[99.9,18183],[99.9,18266],[99.9,18349],[99.9,18435],[99.9,18533],[99.9,18616],[99.9,18699],[99.9,18783],[99.9,18866],[99.9,18949],[99.9,19033],[99.9,19116],[99.9,19199],[99.9,19283],[99.9,19366],[99.9,19466],[99.9,19552],[99.9,19633],[99.9,19716],[99.9,19799],[99.9,19883],[99.9,19966],[99.9,20049],[99.9,20133],[99.9,20216],[99.9,20299],[99.9,20382],[99.9,20466],[99.9,20549],[99.9,20632],[99.9,20716],[99.9,20799],[99.9,20883],[99.9,20969],[99.9,21066],[99.9,21149],[99.9,21233],[99.9,21316],[99.9,21400],[99.9,21483],[99.9,21566],[99.9,21649],[99.9,21749],[99.9,21832],[99.9,21916],[99.9,21999],[99.9,22082],[99.9,22166],[99.9,22249],[99.9,22332],[99.9,22416],[99.9,22499],[99.9,22582],[99.9,22666],[99.9,22749],[99.9,22832],[99.9,22916],[99.9,22999],[99.9,23082],[99.9,23166],[99.9,23249],[99.9,23332],[99.9,23416],[99.9,23499],[99.9,23582],[99.9,23666],[99.9,23749],[99.9,23832],[99.9,23916],[99.9,23999],[99.9,24082],[99.9,24166],[99.9,24249],[99.9,24335],[99.9,24433],[99.9,24516],[99.9,24599],[99.9,24685],[99.9,24782],[99.9,24866],[99.9,24949],[99.9,25052],[99.9,25132],[99.9,25216],[99.9,25299],[99.9,25385],[99.9,25482],[99.9,25566],[99.9,25649],[99.9,25732],[99.9,25816],[99.9,25899],[99.9,25982],[99.9,26082],[99.9,26166],[99.9,26249],[99.9,26332],[99.9,26416],[99.9,26499],[99.9,26582],[99.9,26666],[99.9,26749],[99.9,26832],[99.9,26916],[99.9,26999],[99.9,27082],[99.9,27166],[99.9,27249],[99.9,27332],[99.9,27416],[99.9,27499],[99.9,27582],[99.9,27666],[99.9,27749],[99.9,27832],[99.9,27916],[99.9,27999],[99.9,28082],[99.9,28166],[99.9,28249],[99.9,28332],[99.9,28432],[99.9,28516]]",770.4214,774.5072,98.4375,2.6021,"[{""rating"":98.4375,""responseTime"":2.6021000000238246}]",space,3.5396,,774.5072,Partially,50,774.5085,,,[],,0,2,2,2,1,audio/Narrative7Situation2.wav,audio/Narrative8Situation2.wav,audio/Narrative5Situation2.wav,audio/Narrative6Situation2.wav,3,3,3,3,,,,,,,,,,,,,,,,,,,,,,,,,,,,,,,,,,,,,
,,,,,66c8f4c85434e33b086cb7ca,2025-07-07_22h37.49.314,group3.4_multiperson,2023.2.2,Win32,60.24096386,686c2ebf0248f13bef9af11f,686c844110be645b43dcccf4,,,,,,,,,,,,,,,,,,,,,,,,,,,,,774.5086,2,audio/Narrative6Situation3.wav,779.5212,,779.5212,792.1212,"[[100,2819],[84.5,3319],[100,3586],[100,3666],[100,3752],[99,3836],[99,3916],[99,4000],[99,4083],[99,4166],[99,4249],[99,4333],[99,4416],[97.2,4502],[80.1,4586],[43.1,4669],[40.3,4749],[40.3,4833],[37.8,4919],[0.8,5000],[6.1,6436],[23.2,6536],[34.8,6619],[48.4,6702],[100,7202],[89.7,7298],[89.7,7366],[89.7,7449],[89.7,7533],[93.3,7619],[100,7719],[100,7799],[100,7883],[100,7966],[100,8049],[100,8133],[100,8216],[100,8299],[100,8383],[100,8466],[100,8549],[100,8633],[100,8716],[100,8799],[100,8883],[100,8966],[100,9049],[100,9133],[100,9216],[100,9299],[100,9383],[100,9466],[100,9549],[100,9633],[100,9716],[100,9799],[100,9883],[100,9966],[100,10049],[100,10133],[100,10216],[100,10301],[100,10383],[100,10466],[100,10549],[100,10633],[100,10716],[100,10799],[100,10885],[100,10966],[100,11049],[100,11133],[100,11216],[100,11299],[100,11383],[100,11466],[100,11549],[100,11633],[100,11716],[100,11799],[100,11883],[100,11966],[100,12049],[100,12133],[100,12216],[100,12299],[100,12383],[100,12466],[100,12549]]",792.1212,794.6543,99.58333333,1.1957,"[{""rating"":99.58333333333333,""responseTime"":1.195699999928479}]",space,1.986,,794.6543,Definitely yes,100,794.6556,,,[],,0,3,3,3,1,audio/Narrative7Situation3.wav,audio/Narrative8Situation3.wav,audio/Narrative5Situation3.wav,audio/Narrative6Situation3.wav,8,4,3,5,,,,,,,,,,,,,,,,,,,,,,,,,,,,,,,,,,,,,
,,,,,66c8f4c85434e33b086cb7ca,2025-07-07_22h37.49.314,group3.4_multiperson,2023.2.2,Win32,60.24096386,686c2ebf0248f13bef9af11f,686c844110be645b43dcccf4,,,,,,,,,,,,,,,,,,,,,,,,,,,,,794.6558,2,audio/Narrative6Situation4.wav,796.6709,,796.6709,809.2708,"[[96.9,2333],[82,2419],[72.3,2602],[72.2,2683],[72.2,2766],[68.9,2853],[44.3,2936],[27.7,3019],[25.7,3102],[23,3186],[19.7,3270],[18.3,3353],[18,3433],[19.4,3519],[30.5,3603],[38.8,3686],[41.1,3769],[45,3850],[51.8,3936],[52.5,4019],[52.5,4099],[52.5,4183],[52.5,4266],[59.8,4353],[62.3,4436],[62.5,4519],[62.5,4599],[62.5,4683],[63.3,4766],[66.7,4863],[67.6,4933],[67.6,5016],[67.6,5099],[71.4,5183],[75.3,5266],[75.4,5350],[75.4,5433],[75.3,5516],[75.2,5599],[75.2,5683],[75.2,5766],[75.2,5850],[75.2,5933],[77.6,6016],[78.2,6100],[78.2,6183],[78.2,6266],[78.2,6350],[78.2,6435],[78.2,6519],[78.2,6602],[78.2,6703],[78.2,6800],[78.2,6883],[78.2,6966],[78.2,7049],[78.2,7133],[78.2,7216],[78.2,7299],[78.2,7383],[78.2,7466],[78.2,7549],[78.2,7633],[78.2,7716],[78.2,7799],[78.2,7883],[78.2,7966],[78.2,8049],[78.2,8133],[78.2,8216],[78.2,8299],[78.2,8383],[78.2,8466],[78.2,8549],[78.2,8633],[78.2,8716],[78.2,8799],[78.2,8885],[78.2,8983],[78.2,9066],[78.2,9149],[78.2,9233],[78.2,9316],[78.2,9399],[78.2,9483],[78.2,9566],[78.2,9649],[78.2,9733],[78.2,9816],[78.2,9899],[78.2,9983],[78.2,10066],[78.2,10149],[78.2,10233],[78.2,10316],[78.2,10399],[78.2,10483],[78.2,10566],[78.2,10649],[78.2,10733],[78.2,10816],[78.2,10899],[78.2,10983],[78.2,11066],[78.2,11149],[78.2,11233],[78.2,11316],[78.2,11399],[78.2,11483],[78.2,11566],[78.2,11649],[78.2,11733],[78.2,11816],[78.2,11916],[78.2,11999],[78.2,12083],[78.2,12166],[78.2,12249],[78.2,12333],[78.2,12416],[78.2,12499],[78.2,12583]]",809.2709,816.2707,89.47916667,1.0297,"[{""rating"":89.47916666666667,""responseTime"":1.0296999999284253}]",space,6.4539,,816.2707,Definitely yes,100,816.2714,,,[],,0,4,4,4,1,audio/Narrative7Situation4.wav,audio/Narrative8Situation4.wav,audio/Narrative5Situation4.wav,audio/Narrative6Situation4.wav,3,3,1,2,,,,,,,,,,,,,,,,,,,,,,,,,,,,,,,,,,,,,
,,,,,66c8f4c85434e33b086cb7ca,2025-07-07_22h37.49.314,group3.4_multiperson,2023.2.2,Win32,60.24096386,686c2ebf0248f13bef9af11f,686c844110be645b43dcccf4,,,,,,,,,,,,,,,,,,,,,,,,,,,,,816.2716,2,audio/Narrative6Situation5.wav,818.2873,,818.2873,826.2567,"[[86,7483]]",826.2567,829.7705,89.89583333,1.7668,"[{""rating"":89.89583333333333,""responseTime"":1.7667999999523545}]",space,2.975,,829.7705,Partially,50,829.7716,,,[],,0,5,5,5,1,audio/Narrative7Situation5.wav,audio/Narrative8Situation5.wav,audio/Narrative5Situation5.wav,audio/Narrative6Situation5.wav,5,2,5,2,,,,,,,,,,,,,,,,,,,,,,,,,,,,,,,,,,,,,
,,,,,66c8f4c85434e33b086cb7ca,2025-07-07_22h37.49.314,group3.4_multiperson,2023.2.2,Win32,60.24096386,686c2ebf0248f13bef9af11f,686c844110be645b43dcccf4,,,,,,,,,,,,,,,,,,,,,,,,,,,,,829.7717,2,audio/Narrative6Situation6.wav,831.7871,,831.7871,842.8703,"[[87.1,1852],[75.6,1933],[67.7,2033],[66.8,2116],[64.8,2202],[60.5,2286],[60.3,2366],[60.3,2449],[60.3,2533],[60.3,2616],[60.3,2702],[60.3,2799],[64.3,2886],[67.3,2969],[85.7,3064],[85.7,3133],[85.7,3216],[85.7,3299],[84.7,3386],[84.7,3466],[84.7,3549],[84.7,3633],[84.7,3716],[84.7,3799],[84.7,3883],[84.7,3966],[84.7,4049],[84.7,4133],[84.7,4216],[84.7,4299],[84.7,4383],[84.7,4466],[84.7,4549],[84.7,4633],[84.7,4716],[84.7,4799],[84.7,4883],[84.7,4966],[84.7,5049],[84.7,5133],[84.7,5216],[84.7,5299],[84.7,5383],[84.7,5466],[77.7,5552],[73.2,5636],[73.2,5716],[71.6,5802],[70.6,5883],[70.6,5966],[71.1,6050],[80.8,6136],[90.4,6219],[90.7,6299],[90.7,6383],[90.7,6466],[90.7,6549],[90.7,6633],[90.7,6716],[90.7,6799],[90.7,6883],[90.7,6966],[90.7,7049],[90.7,7135],[90.7,7233],[90.7,7316],[90.7,7399],[90.7,7483],[90.7,7566],[90.7,7649],[90.7,7733],[90.7,7816],[90.7,7899],[90.7,7983],[90.7,8066],[90.7,8149],[90.7,8233],[90.7,8316],[90.7,8399],[90.7,8483],[90.7,8566],[90.7,8649],[90.7,8733],[90.7,8816],[90.7,8899],[90.7,8983],[90.7,9066],[90.7,9149],[90.7,9233],[90.7,9316],[90.7,9399],[90.7,9503],[90.7,9583],[90.7,9666],[90.7,9749],[90.7,9833],[90.7,9916],[90.7,9999],[90.7,10083],[90.7,10166],[90.7,10249],[90.7,10333],[90.7,10416],[90.7,10519],[90.7,10599],[90.7,10683],[90.7,10766],[90.7,10849],[90.7,10933],[90.7,11016]]",842.8704,846.2368,93.95833333,1.9898,"[{""rating"":93.95833333333333,""responseTime"":1.9897999999523108}]",space,2.8225,,846.2369,Definitely yes,100,846.238,,,[],,0,6,6,6,1,audio/Narrative7Situation6.wav,audio/Narrative8Situation6.wav,audio/Narrative5Situation6.wav,audio/Narrative6Situation6.wav,3,2,3,2,,,,,,,,,,,,,,,,,,,,,,,,,,,,,,,,,,,,,
,,,,,66c8f4c85434e33b086cb7ca,2025-07-07_22h37.49.314,group3.4_multiperson,2023.2.2,Win32,60.24096386,686c2ebf0248f13bef9af11f,686c844110be645b43dcccf4,,,,,,,,,,,,,,,,,,,,,,,,,,,,,846.2381,2,audio/Narrative6Situation7.wav,851.2535,,851.2535,876.1197,"[[87,936],[70.4,1019],[69.2,1099],[69.2,1183],[69.2,1266],[69.2,1349],[69.2,1433],[69.2,1516],[69.2,1600],[69.2,1683],[69.2,1766],[69.2,1869],[69.2,1949],[69.2,2033],[69.2,2118],[69.2,2216],[69.2,2299],[69.2,2383],[69.2,2466],[69.2,2549],[69.2,2633],[69.2,2716],[69.2,2799],[69.2,2883],[69.2,2966],[69.2,3049],[69.2,3133],[69.2,3216],[69.2,3299],[69.2,3383],[69.2,3466],[69.2,3549],[69.2,3633],[69.2,3716],[69.2,3801],[69.2,3899],[69.2,3983],[69.2,4066],[69.2,4149],[69.2,4233],[69.2,4316],[69.2,4399],[69.2,4483],[69.2,4585],[69.2,4666],[69.2,4749],[69.2,4833],[69.2,4916],[69.2,4999],[69.2,5083],[69.2,5166],[74.8,5269],[75.8,5352],[77.1,5436],[83,5516],[88.6,5617],[90.5,5700],[97.2,5786],[97.3,5866],[97.3,5949],[97.3,6033],[97.3,6116],[97.3,6199],[97.3,6283],[97.3,6366],[97.3,6449],[97.3,6533],[97.3,6616],[97.3,6699],[97.3,6783],[97.3,6866],[97.3,6949],[97.3,7033],[97.3,7116],[97.3,7199],[97.3,7283],[97.3,7366],[97.3,7449],[100,7536],[100,7616],[100,7699],[100,7783],[100,7872],[100,7966],[100,8049],[100,8133],[100,8216],[100,8299],[100,8383],[100,8466],[100,8549],[100,8633],[100,8716],[100,8799],[100,8883],[100,8968],[100,9066],[100,9149],[100,9233],[100,9316],[100,9399],[100,9483],[100,9566],[100,9649],[100,9733],[100,9816],[100,9899],[100,9983],[100,10066],[100,10152],[100,10235],[100,10333],[100,10416],[100,10500],[100,10583],[100,10666],[100,10749],[100,10833],[100,10916],[100,10999],[100,11083],[100,11166],[100,11249],[100,11333],[100,11416],[100,11499],[100,11583],[100,11666],[100,11749],[100,11833],[100,11916],[100,11999],[100,12083],[100,12166],[100,12249],[100,12333],[100,12416],[100,12499],[100,12583],[100,12666],[100,12749],[100,12833],[100,12916],[100,12999],[100,13083],[100,13166],[100,13266],[100,13349],[100,13432],[100,13516],[100,13599],[100,13682],[100,13766],[100,13849],[100,13933],[100,14033],[100,14116],[100,14199],[100,14283],[100,14366],[100,14449],[100,14533],[100,14616],[100,14699],[100,14783],[100,14866],[100,14949],[100,15035],[100,15133],[100,15216],[100,15299],[100,15383],[100,15466],[100,15549],[100,15633],[100,15716],[100,15816],[100,15899],[100,15983],[100,16066],[100,16149],[100,16249],[100,16333],[100,16416],[100,16499],[100,16583],[100,16666],[100,16749],[100,16833],[100,16916],[100,16999],[100,17083],[100,17166],[100,17249],[100,17352],[100,17432],[100,17516],[100,17599],[100,17682],[100,17766],[100,17850],[100,17932],[100,18016],[100,18099],[100,18182],[100,18266],[100,18349],[100,18432],[100,18516],[100,18599],[100,18682],[100,18766],[100,18849],[100,18932],[100,19016],[100,19099],[100,19182],[100,19270],[100,19366],[100,19449],[100,19552],[100,19632],[100,19716],[100,19799],[100,19882],[100,19966],[100,20049],[100,20133],[100,20216],[100,20299],[100,20383],[100,20466],[100,20549],[100,20633],[100,20716],[100,20799],[100,20882],[100,20985],[100,21066],[100,21149],[100,21233],[100,21318],[100,21416],[100,21499],[100,21583],[100,21666],[100,21749],[100,21833],[100,21916],[100,21999],[100,22082],[100,22166],[100,22249],[100,22332],[100,22416],[100,22499],[100,22583],[100,22666],[100,22749],[100,22832],[100,22916],[100,22999],[100,23082],[100,23166],[100,23249],[100,23332],[100,23416],[100,23499],[100,23582],[100,23666],[100,23749],[100,23832],[100,23916],[100,23999],[100,24099],[100,24182],[100,24266],[100,24349],[100,24432],[100,24516],[100,24599],[100,24682],[100,24783],[100,24866]]",876.1198,880.8697,99.375,1.7717,"[{""rating"":99.375,""responseTime"":1.7716999999283871}]",space,4.2073,,880.8698,Definitely yes,100,880.8705,,,[],,0,7,7,7,1,audio/Narrative7Situation7.wav,audio/Narrative8Situation7.wav,audio/Narrative5Situation7.wav,audio/Narrative6Situation7.wav,5,3,4,5,,,,,,,,,,,,,,,,,,,,,,,,,,,,,,,,,,,,,
,,,,,66c8f4c85434e33b086cb7ca,2025-07-07_22h37.49.314,group3.4_multiperson,2023.2.2,Win32,60.24096386,686c2ebf0248f13bef9af11f,686c844110be645b43dcccf4,,,,,,,,,,,,,,,,,,,,,,,,,,,,,880.8707,2,audio/Narrative6Situation8.wav,885.8863,,885.8863,892.7558,"[[100,6816]]",892.7558,896.1722,7.083333333,1.2715,"[{""rating"":7.083333333333336,""responseTime"":1.2714999999999463}]",space,2.8695,,896.1723,Not at all,0,896.1735,,,[],,0,8,8,8,1,audio/Narrative7Situation8.wav,audio/Narrative8Situation8.wav,audio/Narrative5Situation8.wav,audio/Narrative6Situation8.wav,2,3,3,5,,,,,,,,,,,,,,,,,,,,,,,,,,,,,,,,,,,,,
,,,,,66c8f4c85434e33b086cb7ca,2025-07-07_22h37.49.314,group3.4_multiperson,2023.2.2,Win32,60.24096386,686c2ebf0248f13bef9af11f,686c844110be645b43dcccf4,,,,,,,,,,,,,,,,,,,,,,,,,,,,,896.1736,2,audio/Narrative6Situation9.wav,900.186,,900.1861,910.136,"[[999,0],[999,83],[999,166],[999,249],[999,333],[999,433],[999,516],[999,599],[999,683],[999,766],[999,849],[999,933],[999,1016],[999,1099],[999,1183],[999,1266],[999,1352],[999,1435],[999,1535],[999,1616],[44.5,1702],[48.8,1785],[49.6,1870],[50.2,1952],[50.5,2033],[50.6,2116],[50.6,2199],[50.6,2283],[50.6,2366],[50.6,2449],[50,2536],[48.4,2619],[47.6,2702],[46.7,2785],[44.2,2869],[40.7,2966],[37.9,3052],[34.1,3136],[31,3219],[26.8,3303],[15.7,3386],[7.1,3469],[4.2,3552],[3.6,3633],[1.1,3733],[0.8,3816],[0.8,3899],[0.8,3983],[0.8,4066],[0.8,4149],[0.8,4233],[0.8,4316],[0.8,4399]]",910.136,912.4924,0,1.2908,"[{""rating"":0,""responseTime"":1.2908000000716129}]",space,1.8026,,912.4924,Definitely yes,100,912.4935,,,[],,0,9,9,9,1,audio/Narrative7Situation9.wav,audio/Narrative8Situation9.wav,audio/Narrative5Situation9.wav,audio/Narrative6Situation9.wav,2,3,3,4,,,,,,,,,,,,,,,,,,,,,,,,,,,,,,,,,,,,,
,,,,,66c8f4c85434e33b086cb7ca,2025-07-07_22h37.49.314,group3.4_multiperson,2023.2.2,Win32,60.24096386,686c2ebf0248f13bef9af11f,686c844110be645b43dcccf4,,,,,,,,,,,,,,,,,,,,,,,,,,,,,912.4936,2,audio/Narrative5Situation1.wav,917.5024,,917.5024,930.7857,"[[17.9,3719],[23.4,3802],[30.5,3886],[30.9,3966],[30.9,4049],[31.5,4135],[32.8,4219],[35.9,4317],[38.5,4399],[39.5,4483],[36.9,4566],[20.4,4650],[13.6,4736],[13.3,4816],[8.6,4903],[3.5,4986],[3.2,5066],[3.2,5149],[3.2,5233],[3.2,5316],[3.2,5399],[3.2,5483],[2,5569],[0.1,8216],[0.5,8300],[0.7,8383],[1.3,8469],[1.7,8553],[2.1,8636],[3.1,8719],[3.9,8802],[5.3,8886],[6.7,8969],[9.1,9049],[12.2,9136],[15.3,9219],[21.5,9302],[28.3,9386],[35.3,9469],[42.2,9552],[48,9636],[52.3,9719],[54.7,9802],[56.9,9895],[57.3,9969],[57.3,10049],[57.4,10133],[57.4,10216],[57.4,10306],[57.4,10399],[56.9,10483],[54.3,10571],[52.8,10652],[52.3,10733],[51.9,10816],[51.8,10902],[51.8,10983],[51.8,11069],[53.3,11152],[54.2,11236],[55,11319],[55.4,11402],[55.8,11486],[56.4,11569],[57.1,11653],[58.9,11736],[60.2,11819],[61.4,11902],[62.1,11986],[63,12069],[65.2,12153],[66.9,12236],[69.4,12319],[72.6,12420],[75.4,12502],[76.4,12586],[77.8,12669],[80.7,12753],[83.3,12836],[84.2,12919],[84.2,12999],[83.5,13083],[83.5,13183],[83.5,13268]]",930.7857,936.5855,49.89583333,4.6017,"[{""rating"":49.895833333333336,""responseTime"":4.601699999928542}]",space,5.2505,,936.5855,Not at all,0,936.5869,,,[],,0,10,10,10,1,audio/Narrative8Situation1.wav,audio/Narrative7Situation1.wav,audio/Narrative6Situation1.wav,audio/Narrative5Situation1.wav,5,2,2,5,,,,,,,,,,,,,,,,,,,,,,,,,,,,,,,,,,,,,
,,,,,66c8f4c85434e33b086cb7ca,2025-07-07_22h37.49.314,group3.4_multiperson,2023.2.2,Win32,60.24096386,686c2ebf0248f13bef9af11f,686c844110be645b43dcccf4,,,,,,,,,,,,,,,,,,,,,,,,,,,,,936.5871,2,audio/Narrative5Situation2.wav,939.6021,,939.6022,969.0684,"[[51.1,3069],[53.1,3169],[55.3,3252],[66.7,3336],[81.3,3419],[82.2,3499],[82.3,3583],[82.3,3666],[82.3,3749],[82.3,3833],[82.3,3919],[82.3,3999],[82.3,4083],[82.3,4166],[82.3,4249],[82.3,4333],[82.3,4416],[82.3,4499],[82.3,4583],[82.3,4674],[82.3,4766],[82.3,4849],[82.3,4933],[82.3,5016],[82.3,5099],[82.3,5183],[82.3,5266],[82.3,5349],[82.3,5433],[82.3,5516],[82.3,5599],[82.3,5683],[82.3,5766],[82.3,5849],[82.3,5933],[82.3,6016],[82.3,6099],[82.3,6183],[85.4,6269],[94.2,6352],[96.7,6435],[97.5,6518],[97.5,6599],[97.5,6683],[97.5,6766],[97.5,6849],[97.5,6933],[97.5,7016],[97.5,7099],[97.5,7183],[97.5,7266],[97.5,7369],[97.5,7449],[97.5,7533],[97.5,7616],[97.5,7699],[97.5,7783],[97.5,7866],[97.5,7949],[97.5,8033],[97.5,8116],[97.5,8199],[97.5,8286],[97.5,8366],[97.5,8449],[97.5,8533],[97.5,8616],[97.5,8699],[97.5,8783],[97.5,8866],[97.5,8949],[97.5,9033],[97.5,9116],[97.5,9199],[97.5,9283],[97.5,9366],[97.5,9449],[97.5,9533],[97.5,9616],[97.5,9699],[97.5,9783],[97.5,9866],[97.5,9949],[97.5,10033],[97.5,10116],[97.5,10199],[97.5,10283],[97.5,10366],[97.5,10449],[97.5,10533],[97.5,10616],[97.5,10699],[97.5,10783],[97.5,10866],[97.5,10949],[97.5,11033],[97.5,11116],[97.5,11199],[97.5,11283],[97.5,11366],[97.5,11449],[97.5,11533],[97.5,11635],[97.5,11716],[97.5,11799],[97.5,11883],[97.5,11983],[97.5,12066],[97.5,12149],[97.5,12233],[97.5,12316],[97.5,12418],[97.5,12499],[97.5,12582],[97.5,12666],[97.5,12749],[97.5,12832],[97.5,12916],[97.5,12999],[97.5,13082],[97.5,13166],[97.5,13266],[97.5,13352],[97.5,13432],[97.5,13516],[97.5,13616],[97.5,13699],[97.5,13782],[97.5,13866],[97.5,13949],[97.5,14033],[97.5,14116],[97.5,14199],[97.5,14299],[97.5,14383],[97.5,14466],[97.5,14549],[97.5,14632],[97.5,14716],[97.5,14799],[97.5,14883],[97.5,14973],[97.5,15069],[97.5,15149],[97.5,15233],[97.5,15316],[97.5,15399],[97.5,15482],[97.5,15566],[97.5,15649],[97.5,15732],[97.5,15816],[97.5,15899],[97.5,15982],[97.5,16086],[97.5,16166],[97.5,16249],[97.5,16349],[98.8,16435],[100,16519],[100,16599],[100,16682],[100,16766],[100,16849],[100,16932],[100,17016],[100,17099],[100,17182],[100,17266],[100,17349],[100,17432],[100,17516],[100,17599],[100,17682],[100,17766],[100,17849],[100,17932],[100,18016],[100,18099],[100,18182],[100,18266],[100,18349],[100,18432],[100,18516],[100,18599],[100,18682],[100,18766],[100,18849],[100,18932],[100,19016],[100,19099],[100,19182],[100,19266],[100,19349],[100,19432],[100,19516],[100,19599],[100,19682],[100,19771],[100,19866],[100,19949],[100,20032],[100,20116],[100,20199],[100,20282],[100,20366],[100,20452],[100,20549],[100,20632],[100,20716],[100,20816],[100,20899],[100,20982],[100,21066],[100,21149],[100,21232],[100,21316],[100,21402],[100,21482],[100,21566],[100,21649],[100,21732],[100,21832],[100,21916],[100,21999],[100,22082],[100,22166],[100,22249],[100,22332],[100,22416],[100,22499],[100,22582],[100,22666],[100,22749],[100,22832],[100,22916],[100,22999],[100,23082],[100,23182],[100,23266],[100,23349],[100,23432],[100,23516],[100,23599],[100,23682],[100,23766],[100,23849],[100,23932],[100,24016],[100,24099],[100,24182],[100,24266],[100,24349],[100,24432],[100,24516],[100,24599],[100,24682],[100,24766],[100,24849],[100,24932],[100,25016],[100,25099],[100,25182],[100,25266],[100,25349],[100,25432],[100,25516],[100,25599],[100,25682],[100,25766],[100,25849],[100,25932],[100,26016],[100,26099],[100,26182],[100,26266],[100,26349],[100,26432],[100,26516],[100,26599],[100,26682],[100,26766],[100,26849],[100,26932],[100,27016],[100,27099],[100,27182],[100,27266],[100,27349],[100,27432],[100,27516],[100,27599],[100,27682],[100,27766],[100,27849],[100,27932],[100,28016],[100,28099],[100,28182],[100,28266],[100,28349],[100,28432],[100,28516],[100,28599],[100,28682],[100,28766],[100,28852],[99.3,28947],[99.2,29016],[98.9,29099],[98.2,29185],[97.7,29276],[97.7,29349],[97.7,29432]]",969.0685,972.5406,48.4375,1.6193,"[{""rating"":48.4375,""responseTime"":1.6193000000715756}]",space,2.9001,,972.5407,Not at all,0,972.5415,,,[],,0,11,11,11,1,audio/Narrative8Situation2.wav,audio/Narrative7Situation2.wav,audio/Narrative6Situation2.wav,audio/Narrative5Situation2.wav,3,3,3,3,,,,,,,,,,,,,,,,,,,,,,,,,,,,,,,,,,,,,
,,,,,66c8f4c85434e33b086cb7ca,2025-07-07_22h37.49.314,group3.4_multiperson,2023.2.2,Win32,60.24096386,686c2ebf0248f13bef9af11f,686c844110be645b43dcccf4,,,,,,,,,,,,,,,,,,,,,,,,,,,,,972.5417,2,audio/Narrative5Situation3.wav,975.5516,,975.5516,989.4707,"[[48.1,1616],[59.1,1716],[59.1,1799],[58.9,1883],[50.7,1966],[39,2050],[0.5,2636],[0.5,2716],[0.5,2799],[0.7,2883],[13.6,2969],[39.7,3052],[51.1,3136],[60.2,3219],[80.5,3299],[100,3386],[100,3469],[100,3569],[100,3649],[100,3733],[100,3819],[100,3902],[100,3999],[100,4083],[100,4166],[100,4249],[100,4333],[100,4416],[100,4499],[100,4583],[100,4666],[100,4749],[100,4833],[100,4933],[100,5016],[100,5099],[100,5183],[100,5266],[100,5349],[100,5433],[100,5516],[100,5599],[100,5683],[100,5766],[100,5849],[100,5936],[100,6035],[100,6116],[100,6199],[100,6283],[100,6383],[100,6466],[100,6549],[100,6653],[100,6733],[100,6816],[100,6899],[100,6983],[100,7066],[100,7149],[100,7233],[100,7316],[100,7399],[100,7499],[100,7583],[100,7666],[100,7749],[100,7833],[100,7916],[100,7999],[100,8083],[100,8166],[100,8249],[100,8333],[100,8416],[100,8499],[100,8583],[100,8666],[100,8749],[100,8833],[100,8916],[100,8999],[100,9083],[100,9166],[100,9252],[100,9349],[100,9433],[100,9516],[100,9599],[100,9683],[100,9766],[100,9849],[100,9933],[100,10033],[100,10116],[100,10199],[100,10283],[100,10366],[100,10449],[100,10533],[100,10616],[100,10699],[100,10783],[100,10866],[100,10949],[100,11033],[100,11116],[100,11202],[100,11299],[100,11383],[100,11466],[100,11549],[100,11633],[100,11716],[100,11799],[100,11883],[100,11966],[100,12049],[100,12133],[100,12216],[100,12299],[100,12383],[100,12466],[100,12549],[100,12633],[100,12716],[100,12799],[100,12883],[100,12966],[100,13051],[100,13133],[100,13216],[100,13299],[100,13383],[100,13466],[100,13549],[100,13641],[100,13735],[100,13816],[100,13899]]",989.4709,992.668,97.60416667,1.8994,"[{""rating"":97.60416666666667,""responseTime"":1.89939999997614}]",space,2.6636,,992.668,Partially,50,992.6692,,,[],,0,12,12,12,1,audio/Narrative8Situation3.wav,audio/Narrative7Situation3.wav,audio/Narrative6Situation3.wav,audio/Narrative5Situation3.wav,4,8,5,3,,,,,,,,,,,,,,,,,,,,,,,,,,,,,,,,,,,,,
,,,,,66c8f4c85434e33b086cb7ca,2025-07-07_22h37.49.314,group3.4_multiperson,2023.2.2,Win32,60.24096386,686c2ebf0248f13bef9af11f,686c844110be645b43dcccf4,,,,,,,,,,,,,,,,,,,,,,,,,,,,,992.6693,2,audio/Narrative5Situation4.wav,993.6846,,993.6846,1014.0843,"[[98.4,1952],[98.5,2033],[98.5,2116],[98.5,2200],[98.5,2283],[98.5,2366],[98.5,2466],[98.5,2549],[98.5,2633],[98.5,2716],[98.5,2799],[98.5,2883],[98.5,2966],[98.5,3049],[98.5,3133],[98.5,3233],[98.5,3316],[98.5,3399],[98.5,3503],[98.5,3583],[98.5,3666],[98.5,3749],[98.5,3833],[98.5,3916],[98.5,3999],[98.5,4083],[98.5,4166],[98.5,4249],[98.5,4333],[98.5,4416],[98.5,4499],[98.5,4590],[98.5,4683],[98.5,4766],[98.5,4849],[98.5,4933],[98.5,5033],[98.5,5116],[98.5,5199],[98.5,5283],[98.5,5366],[98.5,5449],[98.5,5533],[98.5,5616],[98.5,5699],[98.5,5799],[98.5,5883],[98.5,5966],[98.5,6049],[98.5,6133],[98.5,6216],[98.5,6299],[98.5,6383],[98.5,6466],[98.5,6549],[98.5,6633],[98.5,6716],[98.5,6799],[98.5,6883],[98.5,6966],[98.5,7049],[98.5,7133],[98.5,7216],[98.5,7299],[98.5,7383],[98.5,7466],[98.5,7549],[98.5,7638],[98.5,7733],[98.5,7816],[98.5,7899],[98.5,7983],[98.5,8066],[98.5,8149],[98.5,8233],[98.5,8316],[98.5,8399],[98.5,8483],[98.5,8566],[98.5,8649],[98.5,8733],[98.5,8816],[98.5,8899],[98.5,8983],[98.5,9066],[98.5,9152],[98.5,9249],[98.5,9333],[98.5,9433],[98.5,9516],[98.5,9599],[98.5,9683],[98.5,9766],[98.5,9849],[98.5,9933],[98.5,10016],[98.5,10099],[98.5,10183],[98.5,10266],[98.5,10349],[98.5,10433],[98.5,10519],[98.5,10599],[98.5,10683],[98.5,10783],[98.5,10866],[98.5,10949],[98.5,11033],[98.5,11116],[98.5,11199],[98.5,11283],[98.5,11366],[98.5,11449],[98.5,11533],[98.5,11616],[98.5,11699],[98.5,11783],[98.5,11866],[98.5,11949],[98.5,12033],[98.5,12116],[98.5,12199],[98.5,12283],[98.5,12366],[98.5,12452],[98.5,12533],[98.5,12616],[98.5,12702],[98.5,12802],[98.5,12883],[98.5,12966],[98.5,13066],[98.5,13149],[98.5,13232],[98.5,13316],[98.5,13399],[98.5,13483],[98.5,13583],[98.5,13666],[98.5,13749],[98.5,13833],[98.5,13916],[98.5,13999],[98.5,14083],[98.5,14166],[98.5,14256],[98.5,14349],[98.5,14433],[98.5,14516],[98.5,14599],[98.5,14682],[98.5,14766],[98.5,14849],[98.5,14933],[98.5,15016],[98.5,15099],[98.5,15183],[98.5,15267],[98.5,15366],[98.5,15449],[98.5,15533],[98.5,15616],[98.5,15699],[98.5,15783],[98.5,15866],[98.5,15952],[98.5,16049],[98.5,16133],[98.5,16216],[98.5,16299],[98.5,16383],[98.5,16466],[98.5,16566],[98.5,16649],[98.5,16732],[98.5,16816],[98.5,16902],[98.5,16999],[98.5,17083],[98.5,17166],[98.5,17249],[98.5,17333],[98.5,17416],[98.5,17499],[98.5,17583],[98.5,17666],[98.5,17766],[98.5,17849],[98.5,17932],[98.5,18016],[98.5,18099],[98.5,18182],[98.5,18266],[98.5,18349],[98.5,18432],[98.5,18535],[98.5,18616],[98.5,18699],[98.5,18783],[98.5,18866],[98.5,18949],[98.5,19033],[98.5,19116],[98.5,19199],[98.5,19283],[98.5,19366],[98.5,19449],[98.5,19533],[98.5,19616],[98.5,19699],[98.5,19783],[98.5,19866],[98.5,19949],[98.5,20033],[98.5,20116],[98.5,20199],[98.5,20283],[98.5,20366]]",1014.0845,1017.7676,98.54166667,1.3244,"[{""rating"":98.54166666666666,""responseTime"":1.3244000000952383}]",space,3.1333,,1017.7676,Not at all,0,1017.7686,,,[],,0,13,13,13,1,audio/Narrative8Situation4.wav,audio/Narrative7Situation4.wav,audio/Narrative6Situation4.wav,audio/Narrative5Situation4.wav,3,3,2,1,,,,,,,,,,,,,,,,,,,,,,,,,,,,,,,,,,,,,
,,,,,66c8f4c85434e33b086cb7ca,2025-07-07_22h37.49.314,group3.4_multiperson,2023.2.2,Win32,60.24096386,686c2ebf0248f13bef9af11f,686c844110be645b43dcccf4,,,,,,,,,,,,,,,,,,,,,,,,,,,,,1017.7688,2,audio/Narrative5Situation5.wav,1022.7842,,1022.7842,1038.2173,"[[100,1619],[99.3,1702],[96.5,1786],[96,1869],[95.3,1949],[95.3,2033],[95.3,2116],[95.3,2199],[95.3,2283],[95.3,2366],[95.8,2466],[100,2552],[100,2633],[100,2716],[100,2799],[100,2883],[100,2966],[100,3049],[100,3133],[100,3216],[100,3299],[100,3383],[100,3466],[100,3549],[100,3633],[100,3716],[100,3802],[100,3899],[100,3983],[100,4066],[100,4166],[100,4249],[100,4333],[100,4416],[100,4499],[100,4583],[100,4666],[100,4749],[100,4833],[100,4916],[100,4999],[100,5083],[100,5166],[100,5266],[100,5349],[100,5433],[100,5516],[100,5603],[100,5683],[100,5766],[100,5849],[100,5933],[100,6016],[100,6099],[100,6183],[100,6266],[100,6349],[64.3,6436],[12.2,6519],[0.4,6602]]",1038.2173,1041.6006,1.5625,2.3685,"[{""rating"":1.5625,""responseTime"":2.36850000000004}]",space,2.8377,,1041.6006,Definitely yes,100,1041.6023,,,[],,0,14,14,14,1,audio/Narrative8Situation5.wav,audio/Narrative7Situation5.wav,audio/Narrative6Situation5.wav,audio/Narrative5Situation5.wav,2,5,2,5,,,,,,,,,,,,,,,,,,,,,,,,,,,,,,,,,,,,,
,,,,,66c8f4c85434e33b086cb7ca,2025-07-07_22h37.49.314,group3.4_multiperson,2023.2.2,Win32,60.24096386,686c2ebf0248f13bef9af11f,686c844110be645b43dcccf4,,,,,,,,,,,,,,,,,,,,,,,,,,,,,1041.6024,2,audio/Narrative5Situation6.wav,1044.6171,,1044.6171,1050.3004,"[[14.4,1502],[26.8,1586],[32.3,1669],[38.4,1752],[58.3,1852],[65.4,1936],[69.9,2019],[76.4,2102],[90.1,2186],[100,2269],[100,2352],[100,2433],[100,2519],[100,2616],[100,2699],[100,2783],[100,2866],[100,2949],[100,3033],[100,3116],[100,3199],[100,3283],[100,3366],[100,3449],[100,3533],[100,3616],[100,3699],[100,3783],[100,3866],[100,3949],[100,4033],[100,4116],[100,4199],[100,4283],[100,4366],[100,4449],[100,4533],[100,4616],[100,4699],[100,4783],[100,4866],[100,4949],[100,5033],[100,5116],[100,5199],[100,5283],[100,5366],[100,5449],[100,5533],[100,5616]]",1050.3004,1053.7337,90.3125,2.2857,"[{""rating"":90.3125,""responseTime"":2.2857000000476546}]",space,2.9118,,1053.7337,Not at all,0,1060.3028,0,5.178,"[{""rating"":4.999999999999999,""responseTime"":4.082100000023729},{""rating"":0,""responseTime"":5.177999999999884}]",space,0,15,15,15,1,audio/Narrative8Situation6.wav,audio/Narrative7Situation6.wav,audio/Narrative6Situation6.wav,audio/Narrative5Situation6.wav,2,3,2,3,,,6.0328,,,,,,,,,,,,,,,,,,,,,,,,,,,,,,,,,,
,,,,,66c8f4c85434e33b086cb7ca,2025-07-07_22h37.49.314,group3.4_multiperson,2023.2.2,Win32,60.24096386,686c2ebf0248f13bef9af11f,686c844110be645b43dcccf4,,,,,,,,,,,,,,,,,,,,,,,,,,,,,1060.303,2,audio/Narrative5Situation7.wav,1064.3168,,1064.3168,1085.3666,"[[999,0],[999,83],[999,166],[999,250],[999,333],[999,416],[999,500],[999,583],[999,666],[999,750],[999,833],[999,916],[999,1000],[999,1085],[999,1183],[999,1266],[999,1349],[999,1449],[999,1533],[999,1616],[999,1700],[999,1783],[999,1866],[999,1949],[999,2033],[999,2116],[999,2199],[999,2283],[999,2366],[999,2450],[999,2533],[999,2616],[999,2700],[999,2796],[999,2885],[999,2966],[999,3049],[999,3133],[999,3216],[999,3299],[999,3383],[999,3466],[999,3549],[999,3633],[999,3716],[999,3799],[999,3883],[999,3970],[999,4052],[82,4136],[86.6,4219],[86.6,4299],[86.6,4383],[86.6,4466],[86.6,4549],[86.6,4633],[86.6,4716],[86.6,4799],[86.6,4883],[86.6,4966],[86.6,5049],[91.8,5133],[94.3,5219],[94.5,5299],[94.5,5383],[94.5,5466],[94.5,5549],[94.5,5633],[94.5,5716],[94.5,5799],[94.5,5883],[94.5,5966],[94.5,6049],[94.5,6133],[94.5,6216],[94.5,6299],[94.5,6399],[94.5,6483],[94.5,6566],[94.5,6649],[94.5,6749],[94.5,6833],[94.5,6916],[94.5,6999],[94.5,7083],[94.5,7166],[94.5,7249],[94.5,7333],[94.5,7416],[94.5,7499],[94.5,7583],[94.5,7666],[94.5,7749],[94.5,7833],[94.5,7916],[94.5,7999],[94.5,8083],[94.5,8166],[94.5,8249],[94.5,8352],[94.5,8433],[94.5,8516],[94.5,8599],[94.5,8683],[94.5,8766],[94.5,8849],[94.5,8933],[94.5,9016],[94.5,9117],[94.5,9199],[94.5,9283],[94.5,9366],[94.5,9449],[94.5,9533],[94.5,9616],[94.5,9699],[94.5,9783],[94.5,9866],[94.5,9949],[94.5,10033],[94.5,10116],[94.5,10199],[94.5,10283],[94.5,10366],[94.5,10449],[94.5,10533],[94.5,10616],[94.5,10699],[94.5,10783],[94.5,10866],[94.5,10949],[94.5,11033],[94.5,11116],[94.5,11199],[94.5,11283],[94.5,11366],[94.5,11449],[94.5,11533],[94.5,11616],[94.5,11702],[94.5,11785],[94.5,11883],[94.5,11966],[94.5,12049],[94.5,12135],[94.5,12234],[94.5,12316],[94.5,12399],[94.5,12502],[94.5,12583],[94.5,12666],[94.5,12752],[94.5,12849],[94.5,12933],[94.5,13016],[94.5,13099],[94.5,13183],[94.5,13266],[94.5,13351],[94.5,13433],[94.5,13533],[94.5,13616],[94.5,13699],[94.5,13783],[94.5,13866],[94.5,13949],[94.5,14033],[94.5,14116],[94.5,14199],[81.9,14286],[74.5,14369],[71.6,14451],[71.1,14533],[71.1,14616],[71.1,14699],[71.1,14783],[71.1,14866],[71.1,14949],[71.1,15033],[71.1,15116],[71.1,15199],[71.1,15283],[71.1,15366],[71.1,15449],[71.1,15533],[71.1,15616],[71.1,15699],[71.1,15783],[71.1,15866],[71.1,15949],[71.1,16032],[71.1,16116],[71.1,16199],[71.1,16283],[71.1,16366],[71.1,16455],[71.1,16549],[71.1,16634],[71.1,16716],[71.1,16799],[71.1,16883],[71.1,16966],[71.1,17049],[71.1,17133],[71.1,17216],[71.1,17299],[71.1,17383],[71.1,17466],[76.1,17570],[79.3,17649],[79.3,17733],[79.3,17816],[79.3,17899],[78.3,17999],[77.8,18083],[77.8,18166],[77.8,18249],[77.8,18332],[77.8,18416],[77.8,18499],[77.8,18582],[77.8,18666],[77.8,18749],[77.8,18832],[77.8,18916],[77.8,18999],[77.8,19083],[77.8,19166],[77.8,19249],[77.8,19332],[77.8,19421],[77.8,19533],[77.8,19616],[77.8,19699],[77.8,19782],[77.8,19866],[77.8,19949],[77.8,20032],[77.8,20116],[77.8,20199],[77.8,20299],[77.8,20383],[77.8,20466],[77.8,20549],[77.8,20633],[77.8,20716],[77.8,20799],[77.8,20883],[77.8,20966],[77.8,21049]]",1085.3667,1089.1694,63.85416667,3.0249,"[{""rating"":77.8125,""responseTime"":2.583100000023933},{""rating"":63.854166666666664,""responseTime"":3.024899999976242}]",space,3.2507,,1089.1694,Partially,50,1089.1706,,,[],,0,16,16,16,1,audio/Narrative8Situation7.wav,audio/Narrative7Situation7.wav,audio/Narrative6Situation7.wav,audio/Narrative5Situation7.wav,3,5,5,4,,,,,,,,,,,,,,,,,,,,,,,,,,,,,,,,,,,,,
,,,,,66c8f4c85434e33b086cb7ca,2025-07-07_22h37.49.314,group3.4_multiperson,2023.2.2,Win32,60.24096386,686c2ebf0248f13bef9af11f,686c844110be645b43dcccf4,,,,,,,,,,,,,,,,,,,,,,,,,,,,,1089.1706,2,audio/Narrative5Situation8.wav,1092.1831,,1092.1831,1101.0163,"[[68.1,2719],[72,2802],[72.1,2883],[72.1,2966],[72.1,3049],[73.9,3133],[79.2,3219],[81.1,3302],[81.3,3399],[81.8,3483],[82.9,3569],[82.9,3649],[82.9,3749],[82.9,3833],[82.9,3916],[82.9,3999],[82.9,4083],[82.9,4166],[82.9,4249],[82.9,4333],[82.9,4416],[82.9,4502],[82.9,4599],[82.9,4683],[82.9,4766],[82.9,4852],[82.9,4952],[82.9,5033],[84.1,5116],[86.3,5202],[86.3,5283],[86.3,5366],[86.3,5449],[86.3,5533],[86.3,5618],[82.2,5719],[82.2,5799],[82.2,5900],[82.2,5983],[82.2,6066],[82.2,6149],[82.2,6233],[82.2,6319],[82.2,6399],[82.2,6483],[82.2,6566],[82.2,6649],[82.2,6733],[82.2,6816],[82.2,6899],[82.2,6983],[82.2,7066],[82.2,7149],[82.2,7233],[82.2,7316],[82.2,7416],[82.2,7499],[82.2,7583],[82.2,7666],[82.2,7766],[82.2,7849],[82.2,7933],[82.2,8027],[82.2,8116],[82.2,8199],[82.2,8283],[82.2,8366],[82.2,8449],[82.2,8533],[82.2,8616],[82.2,8699],[82.2,8785]]",1101.0164,1107.3675,49.89583333,5.8147,"[{""rating"":88.64583333333333,""responseTime"":1.6067000000475673},{""rating"":49.895833333333336,""responseTime"":5.814700000047651}]",space,5.8129,,1107.3675,Partially,50,1107.3683,,,[],,0,17,17,17,1,audio/Narrative8Situation8.wav,audio/Narrative7Situation8.wav,audio/Narrative6Situation8.wav,audio/Narrative5Situation8.wav,3,2,5,3,,,,,,,,,,,,,,,,,,,,,,,,,,,,,,,,,,,,,
,,,,,66c8f4c85434e33b086cb7ca,2025-07-07_22h37.49.314,group3.4_multiperson,2023.2.2,Win32,60.24096386,686c2ebf0248f13bef9af11f,686c844110be645b43dcccf4,,,,,,,,,,,,,,,,,,,,,,,,,,,,,1107.3684,2,audio/Narrative5Situation9.wav,1110.3828,,1110.3828,1149.9339,"[[51.8,502],[55.5,586],[55.6,666],[55.6,749],[55.6,833],[55.6,916],[55.6,999],[67.9,1086],[76.4,1169],[78.4,1252],[81.8,1336],[82.2,1416],[82.2,1503],[82.2,1599],[82.2,1683],[82.2,1766],[82.2,1849],[82.2,1933],[82.2,2016],[82.2,2099],[82.2,2183],[82.2,2266],[82.2,2349],[82.2,2433],[82.2,2516],[82.2,2599],[82.2,2683],[82.2,2766],[82.2,2849],[82.2,2933],[82.2,3016],[82.2,3116],[82.2,3199],[82.2,3283],[80.3,3370],[78.4,3452],[77.3,3536],[77.1,3616],[77.1,3699],[78,3783],[83.6,3869],[85.3,3952],[85.4,4033],[85.4,4116],[100,4219],[100,4302],[100,4383],[100,4466],[100,4566],[100,4649],[100,4733],[100,4816],[100,4899],[100,4983],[100,5066],[100,5156],[100,5235],[100,5333],[100,5416],[100,5499],[100,5583],[100,5666],[100,5749],[100,5833],[100,5916],[100,6002],[100,6102],[100,6183],[100,6284],[100,6366],[100,6449],[100,6533],[100,6616],[100,6699],[100,6783],[100,6866],[100,6949],[100,7033],[100,7116],[100,7199],[100,7283],[100,7366],[100,7449],[100,7533],[100,7616],[100,7699],[100,7783],[100,7866],[100,7952],[100,8049],[100,8133],[100,8216],[100,8299],[100,8383],[100,8466],[100,8549],[100,8633],[100,8716],[100,8799],[100,8883],[100,8966],[100,9049],[100,9137],[100,9218],[100,9316],[100,9399],[100,9485],[100,9583],[100,9666],[100,9749],[100,9849],[100,9933],[100,10016],[100,10099],[100,10183],[100,10266],[100,10349],[100,10439],[100,10533],[100,10616],[100,10699],[100,10789],[100,10885],[100,10966],[100,11049],[100,11133],[100,11216],[100,11299],[100,11383],[100,11466],[100,11549],[100,11633],[100,11716],[100,11799],[100,11883],[100,11966],[100,12049],[100,12133],[100,12216],[100,12299],[100,12383],[100,12466],[100,12549],[100,12633],[100,12716],[100,12799],[100,12883],[100,12966],[100,13049],[100,13133],[100,13216],[100,13299],[100,13383],[100,13466],[100,13549],[100,13633],[100,13716],[100,13799],[100,13883],[100,13966],[100,14049],[100,14133],[100,14216],[100,14299],[100,14385],[100,14466],[100,14549],[100,14633],[100,14716],[100,14799],[100,14883],[100,14966],[100,15049],[100,15133],[100,15216],[100,15299],[100,15383],[100,15466],[100,15549],[100,15633],[100,15716],[100,15799],[100,15883],[100,15966],[100,16049],[100,16133],[100,16216],[100,16299],[100,16383],[100,16466],[100,16549],[100,16633],[100,16716],[100,16799],[100,16883],[100,16966],[100,17049],[100,17133],[100,17216],[100,17299],[100,17383],[100,17466],[100,17549],[100,17633],[100,17716],[100,17817],[100,17899],[100,17982],[100,18066],[100,18149],[100,18232],[100,18316],[100,18419],[100,18499],[100,18582],[100,18666],[100,18749],[100,18832],[100,18916],[100,18999],[100,19082],[100,19166],[100,19249],[100,19332],[100,19416],[100,19516],[100,19599],[100,19682],[100,19766],[100,19849],[100,19932],[100,20016],[100,20099],[100,20192],[100,20282],[100,20366],[100,20449],[100,20532],[100,20616],[100,20699],[100,20782],[100,20866],[100,20949],[100,21032],[100,21116],[100,21199],[100,21282],[100,21366],[100,21449],[100,21532],[100,21616],[100,21699],[100,21782],[100,21866],[100,21949],[100,22032],[100,22116],[100,22199],[100,22282],[100,22366],[100,22449],[100,22532],[100,22616],[100,22699],[100,22782],[100,22885],[100,22966],[100,23049],[100,23132],[100,23235],[100,23316],[100,23399],[100,23482],[100,23566],[100,23649],[100,23732],[100,23816],[100,23899],[100,23982],[100,24066],[100,24149],[100,24232],[100,24316],[100,24399],[100,24482],[100,24566],[100,24649],[100,24742],[100,24832],[100,24916],[100,24999],[100,25082],[100,25166],[100,25249],[100,25332],[100,25416],[100,25499],[100,25582],[100,25666],[100,25749],[100,25832],[100,25918],[100,26001],[100,26085],[100,26182],[100,26266],[100,26368],[100,26449],[100,26532],[100,26616],[100,26699],[100,26782],[100,26866],[100,26949],[100,27032],[100,27116],[100,27199],[100,27282],[100,27366],[100,27449],[100,27532],[100,27616],[100,27716],[100,27799],[100,27882],[100,27966],[100,28049],[100,28132],[100,28216],[100,28299],[100,28382],[100,28466],[100,28549],[100,28632],[100,28716],[100,28799],[100,28882],[100,28966],[100,29049],[100,29132],[100,29216],[100,29299],[100,29382],[100,29485],[100,29566],[100,29649],[100,29732],[100,29816],[100,29899],[100,29982],[100,30066],[100,30149],[100,30232],[100,30316],[100,30399],[100,30482],[100,30582],[100,30666],[100,30749],[100,30832],[100,30916],[100,30999],[100,31082],[100,31166],[100,31249],[100,31332],[100,31416],[100,31499],[100,31585],[100,31682],[100,31766],[100,31852],[100,31932],[100,32016],[100,32099],[100,32182],[100,32266],[100,32349],[100,32432],[100,32516],[100,32599],[100,32706],[100,32782],[100,32866],[100,32949],[100,33032],[100,33132],[100,33216],[100,33299],[100,33382],[100,33466],[100,33549],[100,33632],[100,33716],[100,33799],[100,33899],[100,33982],[100,34066],[100,34149],[100,34232],[100,34332],[100,34416],[100,34499],[100,34582],[100,34668],[100,34749],[100,34832],[100,34915],[100,34999],[100,35083],[100,35165],[100,35249],[100,35332],[100,35416],[100,35499],[100,35582],[100,35666],[100,35749],[100,35832],[100,35915],[100,35999],[100,36082],[100,36165],[100,36249],[100,36332],[100,36415],[100,36499],[100,36582],[100,36666],[100,36749],[100,36833],[100,36918],[100,36999],[100,37082],[100,37165],[100,37249],[100,37332],[100,37415],[100,37499],[100,37582],[100,37668],[100,37766],[100,37849],[100,37932],[100,38016],[100,38099],[100,38182],[100,38266],[100,38349],[100,38432],[100,38515],[100,38599],[100,38682],[100,38765],[100,38849],[100,38932],[100,39015],[100,39099],[100,39182],[100,39266],[100,39349],[100,39432],[100,39515]]",1149.9339,1154.3321,99.89583333,2.4842,"[{""rating"":99.89583333333334,""responseTime"":2.484199999928478}]",space,3.8557,,1154.3322,Not at all,0,1154.3334,,,[],,0,18,18,18,1,audio/Narrative8Situation9.wav,audio/Narrative7Situation9.wav,audio/Narrative6Situation9.wav,audio/Narrative5Situation9.wav,3,2,4,3,,,,,,,,,,,,,,,,,,,,,,,,,,,,,,,,,,,,,
,,,,,66c8f4c85434e33b086cb7ca,2025-07-07_22h37.49.314,group3.4_multiperson,2023.2.2,Win32,60.24096386,686c2ebf0248f13bef9af11f,686c844110be645b43dcccf4,,,,,,,,,,,,,,,,,,,,,,,,,,,,,,,,,,,,,,,,,,,,,,,,,,,,,,,,,,,,,,,,,,,,,,1154.3334,1156.9988,space,2.1467,,1156.9989,1167.7821,space,10.4635,,,,,,,,,,,,,,,,,,,,,,,,
