consent.started,consent.stopped,consentResponse.keys,consentResponse.rt,consentResponse.duration,participantID,date,expName,psychopyVersion,OS,frameRate,STUDY_ID,SESSION_ID,opening1.started,opening1.stopped,keyEndingOpening1.keys,keyEndingOpening1.rt,keyEndingOpening1.duration,volumeAdjust.started,volumeAdjust.stopped,endingAdjust.keys,endingAdjust.rt,endingAdjust.duration,opening2.started,opening2.stopped,keyEndingOpening.keys,keyEndingOpening.rt,keyEndingOpening.duration,mouse.x,mouse.y,mouse.leftButton,mouse.midButton,mouse.rightButton,mouse.time,instructionLoop.thisRepN,instructionLoop.thisTrialN,instructionLoop.thisN,instructionLoop.thisIndex,instructionLoop.ran,readyForAudio.started,readyForAudio.stopped,fixation.started,run,audio_played,fixation.stopped,endPractice.keys,audioPre.started,audioPre.stopped,continuousResponses_audio,intRating.started,intRating.stopped,intQuestionSlider.response,intQuestionSlider.rt,intQuestionSlider.history,confirmResponse.keys,confirmResponse.rt,confirmResponse.duration,catchQuestion.started,catch_label,catch_value,catchQuestion.stopped,catchQuestionSlider.response,catchQuestionSlider.rt,catchQuestionSlider.history,confirmResponse_2.keys,audioRunLoop.thisRepN,audioRunLoop.thisTrialN,audioRunLoop.thisN,audioRunLoop.thisIndex,audioRunLoop.ran,conditions1_1,conditions2_1,conditions1_2,conditions2_2,dur1_1,dur2_1,dur1_2,dur2_2,endPractice.rt,endPractice.duration,confirmResponse_2.rt,confirmResponse_2.duration,runIntervalBreak.started,runIntervalBreak.stopped,endingBreakKey.keys,endingBreakKey.rt,endingBreakKey.duration,connection.started,connection.stopped,connectionEnding.keys,connectionEnding.rt,connectionEnding.duration,readyForText.started,readyForText.stopped,textPre.started,run_dup,textPre.stopped,continuousResponses_text,textRunLoop.thisRepN,textRunLoop.thisTrialN,textRunLoop.thisN,textRunLoop.thisIndex,textRunLoop.ran,text1_1,text1_2,text2_1,text2_2,runBreakText.started,runBreakText.stopped,endingBreakKey_2.keys,endingBreakKey_2.rt,endingBreakKey_2.duration,ending.started,ending.stopped,endingEnding.keys,endingEnding.rt,endingEnding.duration
0.0003,12.9146,y,12.5988,,66cc4ba25cc59f1c17f1a2b4,2025-07-07_23h07.25.797,group3.4_multiperson,2023.2.2,Win32,60.24096386,686c2ebf0248f13bef9af11f,686c95a4c495a3d7682241f3,,,,,,,,,,,,,,,,,,,,,,,,,,,,,,,,,,,,,,,,,,,,,,,,,,,,,,,,,,,,,,,,,,,,,,,,,,,,,,,,,,,,,,,,,,,,,,,,,,,,,,,,
,,,,,66cc4ba25cc59f1c17f1a2b4,2025-07-07_23h07.25.797,group3.4_multiperson,2023.2.2,Win32,60.24096386,686c2ebf0248f13bef9af11f,686c95a4c495a3d7682241f3,12.9148,17.8143,space,4.8689,,,,,,,,,,,,,,,,,,,,,,,,,,,,,,,,,,,,,,,,,,,,,,,,,,,,,,,,,,,,,,,,,,,,,,,,,,,,,,,,,,,,,,,,,,,,,,,,,,,,
,,,,,66cc4ba25cc59f1c17f1a2b4,2025-07-07_23h07.25.797,group3.4_multiperson,2023.2.2,Win32,60.24096386,686c2ebf0248f13bef9af11f,686c95a4c495a3d7682241f3,,,,,,17.8144,26.9665,space,8.8154,,,,,,,,,,,,,,,,,,,,,,,,,,,,,,,,,,,,,,,,,,,,,,,,,,,,,,,,,,,,,,,,,,,,,,,,,,,,,,,,,,,,,,,,,,,,,,,
,,,,,66cc4ba25cc59f1c17f1a2b4,2025-07-07_23h07.25.797,group3.4_multiperson,2023.2.2,Win32,60.24096386,686c2ebf0248f13bef9af11f,686c95a4c495a3d7682241f3,,,,,,,,,,,26.9691,34.4344,space,7.4506,,[],[],[],[],[],[],0,0,0,0,1,,,,,,,,,,,,,,,,,,,,,,,,,,,,,,,,,,,,,,,,,,,,,,,,,,,,,,,,,,,,,,,,,,,,,,,,,,,,,,
,,,,,66cc4ba25cc59f1c17f1a2b4,2025-07-07_23h07.25.797,group3.4_multiperson,2023.2.2,Win32,60.24096386,686c2ebf0248f13bef9af11f,686c95a4c495a3d7682241f3,,,,,,,,,,,34.4347,55.5137,space,21.0055,,[0.8302083333333333],[-0.22037037037037038],[1],[0],[0],[17.864599999904627],1,0,1,0,1,,,,,,,,,,,,,,,,,,,,,,,,,,,,,,,,,,,,,,,,,,,,,,,,,,,,,,,,,,,,,,,,,,,,,,,,,,,,,,
,,,,,66cc4ba25cc59f1c17f1a2b4,2025-07-07_23h07.25.797,group3.4_multiperson,2023.2.2,Win32,60.24096386,686c2ebf0248f13bef9af11f,686c95a4c495a3d7682241f3,,,,,,,,,,,55.514,68.8666,space,13.3297,,[],[],[],[],[],[],2,0,2,0,1,,,,,,,,,,,,,,,,,,,,,,,,,,,,,,,,,,,,,,,,,,,,,,,,,,,,,,,,,,,,,,,,,,,,,,,,,,,,,,
,,,,,66cc4ba25cc59f1c17f1a2b4,2025-07-07_23h07.25.797,group3.4_multiperson,2023.2.2,Win32,60.24096386,686c2ebf0248f13bef9af11f,686c95a4c495a3d7682241f3,,,,,,,,,,,68.8668,81.0134,space,12.1227,,[],[],[],[],[],[],3,0,3,0,1,,,,,,,,,,,,,,,,,,,,,,,,,,,,,,,,,,,,,,,,,,,,,,,,,,,,,,,,,,,,,,,,,,,,,,,,,,,,,,
,,,,,66cc4ba25cc59f1c17f1a2b4,2025-07-07_23h07.25.797,group3.4_multiperson,2023.2.2,Win32,60.24096386,686c2ebf0248f13bef9af11f,686c95a4c495a3d7682241f3,,,,,,,,,,,81.0136,89.5799,space,8.5428,,[],[],[],[],[],[],4,0,4,0,1,,,,,,,,,,,,,,,,,,,,,,,,,,,,,,,,,,,,,,,,,,,,,,,,,,,,,,,,,,,,,,,,,,,,,,,,,,,,,,
,,,,,66cc4ba25cc59f1c17f1a2b4,2025-07-07_23h07.25.797,group3.4_multiperson,2023.2.2,Win32,60.24096386,686c2ebf0248f13bef9af11f,686c95a4c495a3d7682241f3,,,,,,,,,,,89.5801,99.1496,space,9.5497,,[],[],[],[],[],[],5,0,5,0,1,,,,,,,,,,,,,,,,,,,,,,,,,,,,,,,,,,,,,,,,,,,,,,,,,,,,,,,,,,,,,,,,,,,,,,,,,,,,,,
,,,,,66cc4ba25cc59f1c17f1a2b4,2025-07-07_23h07.25.797,group3.4_multiperson,2023.2.2,Win32,60.24096386,686c2ebf0248f13bef9af11f,686c95a4c495a3d7682241f3,,,,,,,,,,,,,,,,,,,,,,,,,,,99.1507,101.7297,101.742,1,audio/Narrative13Situation2.wav,103.7464,,103.7465,133.4961,"[[999,0],[999,99],[999,183],[999,266],[999,349],[999,433],[999,516],[999,600],[999,683],[999,766],[999,849],[999,933],[999,1016],[999,1099],[999,1183],[999,1266],[999,1349],[999,1433],[999,1516],[999,1599],[999,1683],[999,1766],[999,1849],[999,1933],[999,2016],[999,2099],[999,2183],[999,2266],[999,2349],[999,2433],[999,2516],[999,2599],[999,2683],[999,2766],[999,2849],[999,2933],[999,3016],[999,3099],[999,3182],[999,3266],[999,3349],[999,3433],[999,3516],[999,3599],[999,3682],[999,3766],[999,3849],[999,3933],[999,4016],[999,4099],[100,4183],[84.7,4933],[86,5016],[92.6,5099],[93.9,5183],[95.2,5266],[95.7,5349],[94.2,5433],[85.4,5516],[65.3,5599],[34.3,5683],[29.2,5766],[27.4,5849],[26.6,5933],[26,6016],[25.5,6099],[24.6,6183],[24,6266],[23.6,6349],[23.4,6432],[23.3,6516],[23.3,6599],[23.3,6683],[23.3,6766],[23.3,6849],[22.9,6933],[21.4,7016],[19.6,7099],[17.3,7183],[14.6,7266],[12.9,7349],[11.8,7433],[11.1,7516],[11.1,7599],[11.1,7682],[11.1,7766],[11.1,7849],[11.1,7932],[21,8016],[55.6,8099],[68.2,8183],[71.5,8266],[78.2,8349],[80.5,8433],[83,8516],[83.6,8599],[83.8,8682],[83.8,8766],[83.9,8849],[84.7,8933],[85.8,9016],[87.7,9099],[90.2,9183],[93.5,9266],[94.6,9349],[95.2,9432],[95.3,9516],[95.3,9599],[95.3,9682],[94.8,9766],[93.3,9849],[91.3,9933],[88.4,10016],[87.6,10099],[87.8,10182],[87.8,10266],[89.1,10349],[89.1,10432],[90.3,10516],[92.5,10599],[95.9,10683],[97,10766],[83,10849],[83.3,10933],[89,11016],[90.5,11099],[90.5,11182],[90.5,11266],[90.5,11349],[90.5,11432],[90.5,11516],[90.7,11599],[89,11683],[87.7,11766],[87.7,11849],[87.7,11932],[87.9,12016],[88,12099],[88,12182],[88,12266],[88,12349],[88,12432],[88.8,12516],[88.8,12599],[89.8,12683],[91.1,12766],[91.1,12849],[91.1,12932],[91.1,13016],[91.1,13099],[91.1,13183],[91.1,13266],[91.1,13349],[91.1,13432],[91.1,13516],[91.1,13599],[91.1,13682],[91.1,13766],[91.1,13849],[91.1,13932],[91.1,14016],[91.1,14099],[91.1,14182],[91.1,14266],[91.1,14349],[91.1,14432],[91.1,14516],[91.1,14599],[91.1,14682],[91.1,14766],[91.1,14849],[91.1,14932],[91.1,15016],[91.1,15099],[91.1,15182],[91.1,15266],[91.1,15349],[91.1,15432],[91.1,15516],[91.1,15599],[91.1,15682],[91.1,15766],[91.1,15849],[91.1,15932],[91.1,16016],[91.1,16099],[91.1,16182],[91.1,16266],[91.1,16349],[91.1,16432],[91.1,16516],[91.1,16599],[91.1,16682],[91.1,16766],[91.1,16849],[91.1,16932],[91.1,17016],[91.1,17099],[91.1,17182],[91.1,17266],[91.1,17349],[91.1,17432],[91.1,17516],[91.1,17599],[91.1,17682],[91.1,17766],[91.1,17849],[91.1,17932],[91.1,18016],[91.1,18099],[91.1,18182],[91.1,18266],[91.1,18349],[91.1,18432],[91.1,18516],[91.1,18599],[91.1,18682],[91.1,18766],[91.1,18849],[91.1,18932],[91.1,19016],[91.1,19099],[91.1,19182],[91.1,19266],[91.1,19349],[91.1,19432],[91.1,19516],[91.1,19599],[91.1,19682],[91.1,19766],[91.1,19849],[91.1,19932],[91.1,20016],[91.1,20099],[91.1,20182],[91.1,20266],[91.1,20349],[91.1,20432],[91.1,20516],[91.1,20599],[91.1,20682],[91.1,20766],[91.1,20849],[91.1,20932],[91.1,21016],[91.1,21099],[91.1,21182],[91.1,21266],[91.1,21349],[91.1,21432],[91.1,21516],[91.1,21599],[91.1,21682],[91.1,21766],[91.1,21849],[91.1,21932],[91.1,22016],[91.1,22099],[91.1,22182],[91.1,22266],[91.1,22349],[91.1,22432],[91.1,22516],[91.1,22599],[91.1,22682],[91.1,22766],[91.1,22849],[91.1,22932],[91.1,23016],[91.1,23099],[91.1,23182],[91.1,23266],[91.1,23349],[91.1,23432],[91.1,23516],[91.1,23599],[91.1,23682],[91.1,23766],[91.1,23849],[91.1,23932],[91.1,24016],[91.1,24099],[91.1,24182],[91.1,24265],[91.1,24349],[91.1,24432],[91.1,24516],[91.1,24599],[91.1,24682],[91.1,24766],[91.1,24849],[91.1,24932],[91.1,25016],[91.1,25099],[91.1,25182],[91.1,25266],[91.1,25349],[91.1,25432],[91.1,25516],[91.1,25599],[91.1,25682],[91.1,25766],[91.1,25849],[91.1,25932],[91.1,26016],[91.1,26099],[91.1,26182],[91.1,26265],[91.1,26349],[91.1,26432],[91.1,26516],[91.1,26599],[91.1,26682],[91.1,26765],[91.1,26849],[91.1,26932],[91.1,27016],[91.1,27099],[91.1,27182],[91.1,27266],[91.1,27349],[91.1,27432],[91.1,27515],[91.1,27599],[91.1,27682],[91.1,27765],[91.1,27849],[91.1,27932],[91.1,28015],[91.1,28099],[91.1,28182],[91.1,28266],[91.1,28349],[91.1,28432],[91.1,28515],[91.1,28599],[91.1,28682],[91.1,28766],[91.1,28849],[91.1,28932],[91.1,29016],[91.1,29099],[91.1,29182],[91.1,29265],[91.1,29349],[91.1,29432],[91.1,29515],[91.1,29599],[91.1,29682]]",133.4963,140.2958,90.83333333,6.1795,"[{""rating"":78.02083333333334,""responseTime"":3.8555000000000064},{""rating"":78.02083333333334,""responseTime"":4.9775000000000205},{""rating"":90.83333333333333,""responseTime"":6.179500000000019}]",space,6.2555,,140.2961,Definitely yes,100,140.2985,,,[],,0,0,0,0,1,audio/Narrative13Situation2.wav,audio/Narrative13Situation2.wav,audio/Narrative13Situation2.wav,audio/Narrative13Situation2.wav,2,2,2,2,,,,,,,,,,,,,,,,,,,,,,,,,,,,,,,,,,,,,,,
,,,,,66cc4ba25cc59f1c17f1a2b4,2025-07-07_23h07.25.797,group3.4_multiperson,2023.2.2,Win32,60.24096386,686c2ebf0248f13bef9af11f,686c95a4c495a3d7682241f3,,,,,,,,,,,,,,,,,,,,,,,,,,,,,140.2986,1,audio/Narrative7Situation1.wav,142.6958,space,142.6958,198.5949,"[[999,0],[999,83],[999,166],[999,249],[999,333],[999,416],[999,499],[999,583],[999,666],[999,749],[999,833],[999,916],[999,999],[999,1083],[999,1166],[999,1249],[999,1333],[999,1416],[999,1499],[999,1583],[999,1666],[999,1749],[999,1833],[999,1916],[999,1999],[999,2083],[999,2166],[999,2249],[999,2333],[999,2416],[999,2499],[999,2583],[999,2666],[999,2749],[999,2832],[999,2916],[999,2999],[999,3083],[999,3166],[999,3249],[999,3333],[999,3416],[999,3499],[999,3582],[999,3666],[999,3749],[999,3832],[999,3916],[82.2,3999],[80.9,4083],[80.8,4166],[80.8,4249],[80.8,4333],[80.8,4416],[80.8,4499],[80.8,4583],[80.8,4666],[80.9,4749],[80.9,4832],[81,4916],[81.6,4999],[82.6,5082],[82.7,5166],[82.7,5249],[82.7,5333],[82.7,5416],[82.7,5499],[82.7,5583],[82.7,5666],[82.7,5749],[82.7,5832],[82.7,5916],[82.8,5999],[82.8,6083],[82.8,6166],[82.8,6249],[82.8,6333],[82.8,6416],[82.8,6499],[82.8,6582],[82.8,6666],[82.8,6749],[82.8,6833],[82.8,6916],[82.8,6999],[82.8,7082],[82.8,7166],[82.8,7249],[82.8,7332],[82.8,7416],[82.8,7499],[82.8,7583],[82.8,7666],[82.8,7749],[82.8,7832],[82.8,7916],[82.8,7999],[82.8,8082],[82.8,8166],[82.8,8249],[82.8,8332],[82.8,8416],[82.8,8499],[82.8,8583],[82.8,8666],[82.8,8749],[82.8,8832],[82.8,8916],[82.8,8999],[82.8,9082],[82.8,9166],[82.8,9249],[82.8,9332],[82.8,9416],[82.8,9499],[82.8,9582],[82.8,9666],[82.8,9749],[82.8,9832],[82.8,9916],[82.8,9999],[82.8,10082],[82.8,10166],[82.8,10249],[82.8,10332],[82.8,10416],[82.8,10499],[82.8,10582],[82.8,10666],[82.8,10749],[82.8,10832],[82.8,10916],[82.8,10999],[82.8,11082],[82.8,11166],[82.8,11249],[82.8,11332],[82.8,11416],[82.8,11499],[82.8,11582],[82.8,11666],[82.8,11749],[82.8,11832],[82.8,11916],[82.8,11999],[82.8,12082],[82.8,12166],[82.8,12249],[82.8,12332],[82.8,12416],[82.8,12499],[82.8,12582],[82.8,12666],[82.8,12749],[82.8,12832],[82.8,12916],[82.8,12999],[82.8,13082],[82.8,13166],[82.8,13249],[82.8,13332],[82.8,13416],[82.8,13499],[82.8,13582],[82.8,13666],[82.8,13749],[82.8,13832],[82.8,13916],[82.8,13999],[82.8,14082],[82.8,14166],[82.8,14249],[82.8,14332],[82.8,14416],[82.8,14499],[82.8,14582],[82.8,14666],[82.8,14749],[82.8,14832],[82.8,14916],[82.8,14999],[82.8,15082],[82.8,15166],[82.8,15249],[82.8,15332],[82.8,15416],[82.8,15499],[82.8,15582],[82.8,15666],[82.8,15749],[82.8,15832],[82.8,15916],[82.8,15999],[82.8,16082],[82.8,16166],[82.8,16249],[82.8,16332],[82.8,16416],[82.8,16499],[82.8,16582],[82.8,16666],[82.8,16749],[82.8,16832],[82.8,16916],[82.8,16999],[82.8,17082],[82.8,17166],[82.8,17249],[82.8,17332],[82.8,17416],[82.8,17499],[82.8,17582],[82.8,17666],[82.8,17749],[82.8,17832],[82.8,17916],[82.8,17999],[82.8,18082],[82.8,18166],[82.8,18249],[82.8,18332],[82.8,18416],[82.8,18499],[82.8,18582],[82.8,18666],[82.8,18749],[82.8,18832],[82.8,18916],[82.8,18999],[82.8,19082],[82.8,19166],[82.8,19249],[82.8,19332],[82.8,19416],[82.8,19499],[82.8,19582],[82.8,19666],[82.8,19749],[82.8,19832],[82.8,19916],[82.8,19999],[82.8,20082],[82.8,20166],[82.8,20249],[82.8,20332],[82.8,20416],[82.8,20499],[82.8,20582],[82.8,20666],[82.8,20749],[82.8,20832],[82.8,20916],[82.8,20999],[82.8,21082],[82.8,21166],[82.8,21249],[82.8,21332],[82.8,21416],[82.8,21499],[82.8,21582],[82.8,21666],[82.8,21749],[82.8,21832],[82.8,21916],[82.8,21999],[82.8,22082],[82.8,22166],[82.8,22249],[82.8,22332],[82.8,22416],[82.8,22499],[82.8,22582],[82.8,22666],[82.8,22749],[82.8,22832],[82.8,22916],[82.8,22999],[82.8,23082],[82.8,23166],[82.8,23249],[82.8,23332],[82.8,23416],[82.8,23499],[82.8,23582],[82.8,23666],[82.8,23749],[82.8,23832],[82.8,23916],[82.8,23999],[82.8,24082],[82.8,24165],[82.8,24249],[82.8,24332],[82.8,24416],[82.8,24499],[82.8,24582],[82.8,24666],[82.8,24749],[82.8,24832],[82.8,24916],[82.8,24999],[82.8,25082],[82.8,25165],[82.8,25249],[82.8,25332],[82.8,25416],[82.8,25499],[82.8,25582],[82.8,25666],[82.8,25749],[82.8,25832],[82.8,25916],[82.8,25999],[82.8,26082],[82.8,26166],[82.8,26249],[82.8,26332],[82.8,26416],[82.8,26499],[82.8,26582],[82.8,26665],[82.8,26749],[82.8,26832],[82.8,26916],[82.8,26999],[82.8,27082],[82.8,27166],[82.8,27249],[82.8,27332],[82.8,27415],[82.8,27499],[82.8,27582],[82.8,27666],[82.8,27749],[82.8,27832],[82.8,27915],[82.8,27999],[82.8,28082],[82.8,28165],[82.8,28249],[82.8,28332],[82.8,28415],[82.8,28499],[82.8,28582],[82.8,28665],[82.8,28749],[82.8,28832],[82.8,28915],[82.8,28999],[82.8,29082],[82.8,29165],[82.8,29249],[82.8,29332],[82.8,29416],[82.8,29499],[82.8,29582],[82.8,29665],[82.8,29749],[82.8,29832],[82.8,29915],[82.8,29999],[82.8,30082],[82.8,30165],[82.8,30249],[82.8,30332],[82.8,30415],[82.8,30499],[82.8,30582],[82.8,30666],[82.8,30749],[82.8,30832],[82.8,30915],[82.8,30999],[82.8,31082],[82.8,31165],[82.8,31249],[82.8,31332],[82.8,31415],[82.8,31499],[82.8,31582],[82.8,31665],[82.8,31749],[82.8,31832],[82.8,31915],[82.8,31999],[82.8,32082],[82.8,32165],[82.8,32249],[82.8,32332],[82.8,32415],[82.8,32499],[82.8,32582],[82.8,32665],[82.8,32749],[82.8,32832],[82.8,32916],[82.8,32999],[82.8,33082],[82.8,33165],[82.8,33249],[82.8,33332],[82.8,33415],[82.8,33499],[82.8,33582],[82.8,33666],[82.8,33749],[82.8,33832],[82.8,33916],[82.8,33999],[82.8,34082],[82.8,34166],[82.8,34249],[82.8,34332],[82.8,34415],[82.8,34499],[82.8,34582],[82.8,34665],[82.8,34749],[82.8,34832],[82.8,34915],[82.8,34999],[82.8,35082],[82.8,35166],[82.8,35249],[82.8,35332],[82.8,35416],[82.8,35499],[82.8,35582],[82.8,35665],[82.8,35749],[82.8,35832],[82.8,35916],[82.8,35999],[82.8,36082],[82.8,36165],[82.8,36249],[82.8,36332],[82.8,36415],[82.8,36499],[82.8,36582],[82.8,36665],[82.8,36749],[82.8,36832],[82.8,36915],[82.8,36999],[82.8,37082],[82.8,37166],[82.8,37249],[82.8,37332],[82.8,37415],[82.8,37499],[82.8,37582],[82.8,37665],[82.8,37749],[82.8,37832],[82.8,37915],[82.8,37999],[82.8,38082],[82.8,38165],[82.8,38249],[82.8,38332],[82.8,38415],[82.8,38499],[82.8,38582],[82.8,38665],[82.8,38749],[82.8,38832],[82.8,38915],[82.8,38999],[82.8,39082],[82.8,39165],[82.8,39249],[82.8,39332],[82.8,39415],[82.8,39499],[82.8,39582],[82.8,39665],[82.8,39749],[82.8,39832],[82.8,39916],[82.8,39999],[82.8,40082],[82.8,40165],[82.8,40249],[82.8,40332],[82.8,40415],[82.8,40499],[82.8,40582],[82.8,40665],[82.8,40749],[82.8,40832],[82.8,40915],[82.8,40999],[82.8,41082],[82.8,41165],[82.8,41249],[82.8,41332],[82.8,41415],[82.8,41499],[82.8,41582],[82.8,41665],[82.8,41749],[82.8,41832],[82.8,41915],[82.8,41999],[82.8,42082],[82.8,42165],[82.8,42249],[82.8,42332],[82.8,42415],[82.8,42499],[82.8,42582],[82.8,42665],[82.8,42749],[82.8,42832],[82.8,42915],[82.8,42999],[82.8,43082],[82.8,43165],[82.8,43249],[82.8,43332],[82.8,43415],[82.8,43499],[82.8,43582],[82.8,43665],[82.8,43749],[82.8,43832],[82.8,43915],[82.8,43999],[82.8,44082],[82.8,44165],[82.8,44249],[82.8,44332],[82.8,44415],[82.8,44499],[82.8,44582],[82.8,44665],[82.8,44748],[82.8,44832],[82.8,44915],[82.8,44999],[82.8,45082],[82.8,45165],[82.8,45249],[82.8,45332],[82.8,45415],[82.8,45499],[82.8,45582],[82.8,45665],[82.8,45749],[82.8,45832],[82.8,45915],[82.8,45999],[82.8,46082],[82.8,46165],[82.8,46249],[82.8,46332],[82.8,46415],[82.8,46499],[82.8,46582],[82.8,46665],[82.8,46749],[82.8,46832],[82.8,46915],[82.8,46999],[82.8,47082],[82.8,47165],[82.8,47249],[82.8,47332],[82.8,47415],[82.8,47499],[82.8,47582],[82.8,47665],[82.8,47749],[82.8,47832],[82.8,47915],[82.8,47999],[82.8,48082],[82.8,48165],[82.8,48248],[82.8,48332],[82.8,48415],[82.8,48499],[82.8,48582],[82.8,48665],[82.8,48749],[82.8,48832],[82.8,48915],[82.8,48999],[82.8,49082],[82.8,49165],[82.8,49249],[82.8,49332],[82.8,49415],[82.8,49498],[82.8,49582],[82.8,49665],[82.8,49749],[82.8,49832],[82.8,49915],[82.8,49999],[82.8,50082],[82.8,50165],[82.8,50248],[82.8,50332],[82.8,50415],[82.8,50498],[82.8,50582],[82.8,50665],[82.8,50748],[82.8,50832],[82.8,50915],[82.8,50998],[82.8,51082],[82.8,51165],[82.8,51248],[82.8,51332],[82.8,51415],[82.8,51498],[82.8,51582],[82.8,51665],[82.8,51748],[82.8,51832],[82.8,51915],[82.8,51998],[82.8,52082],[82.8,52165],[82.8,52248],[82.8,52332],[82.8,52415],[82.8,52498],[82.8,52582],[82.8,52665],[82.8,52748],[82.8,52832],[82.8,52915],[82.8,52999],[82.8,53082],[82.8,53165],[82.8,53248],[82.8,53332],[82.8,53415],[82.8,53498],[82.8,53582],[82.8,53665],[82.8,53748],[82.8,53832],[82.8,53915],[82.8,53999],[82.8,54082],[82.8,54165],[82.8,54248],[82.8,54332],[82.8,54415],[82.8,54498],[82.8,54582],[82.8,54665],[82.8,54748],[82.8,54832],[82.8,54915],[82.8,54998],[82.8,55082],[82.8,55165],[82.8,55248],[82.8,55332],[82.8,55415],[82.8,55498],[82.8,55582],[82.8,55665],[82.8,55748],[82.8,55832]]",198.5951,203.3614,96.25,4.0408,"[{""rating"":96.35416666666667,""responseTime"":3.338799999952357},{""rating"":96.25,""responseTime"":4.040799999952355}]",space,4.2168,,203.3615,Not at all,0,203.3632,,,[],,0,1,1,1,1,audio/Narrative7Situation1.wav,audio/Narrative8Situation1.wav,audio/Narrative5Situation1.wav,audio/Narrative6Situation1.wav,2,5,5,2,2.3852,,,,,,,,,,,,,,,,,,,,,,,,,,,,,,,,,,,,,,
,,,,,66cc4ba25cc59f1c17f1a2b4,2025-07-07_23h07.25.797,group3.4_multiperson,2023.2.2,Win32,60.24096386,686c2ebf0248f13bef9af11f,686c95a4c495a3d7682241f3,,,,,,,,,,,,,,,,,,,,,,,,,,,,,203.3635,1,audio/Narrative7Situation2.wav,206.378,,206.378,213.8445,[],213.8447,220.4945,52.5,5.9051,"[{""rating"":53.95833333333333,""responseTime"":5.4331000001430425},{""rating"":52.5,""responseTime"":5.9051000001430225}]",space,6.1021,,220.4946,Partially,50,220.4964,,,[],,0,2,2,2,1,audio/Narrative7Situation2.wav,audio/Narrative8Situation2.wav,audio/Narrative5Situation2.wav,audio/Narrative6Situation2.wav,3,3,3,3,,,,,,,,,,,,,,,,,,,,,,,,,,,,,,,,,,,,,,,
,,,,,66cc4ba25cc59f1c17f1a2b4,2025-07-07_23h07.25.797,group3.4_multiperson,2023.2.2,Win32,60.24096386,686c2ebf0248f13bef9af11f,686c95a4c495a3d7682241f3,,,,,,,,,,,,,,,,,,,,,,,,,,,,,220.4965,1,audio/Narrative7Situation3.wav,228.511,,228.511,237.7776,"[[51.6,5166],[44.4,5250],[35.3,5333],[28.4,5416],[22.6,5500],[17.7,5583],[17.6,5666],[17.6,5749],[17.6,5833],[17.6,5916],[17.7,6000],[17.8,6083],[19.2,6166],[36.3,6250],[52.1,6333],[52.4,6416],[56.4,6500],[80.3,6583],[91.7,6666],[92.5,6749],[92.5,6833],[92.5,6916],[92.5,6999],[92.5,7083],[92.5,7166],[92.5,7249],[92.5,7333],[92.5,7416],[93.1,7499],[93.1,7583],[93.1,7666],[93.1,7749],[93.1,7833],[93.1,7916],[93.1,7999],[93.1,8083],[93.1,8166],[93.1,8250],[93.1,8333],[93.1,8416],[93.1,8499],[93.1,8583],[93.1,8666],[93.1,8749],[93.1,8833],[93.1,8916],[93.1,8999],[93.1,9083],[93.1,9166],[93.1,9249]]",237.7777,242.3275,87.39583333,3.014,"[{""rating"":87.39583333333334,""responseTime"":3.01400000000001}]",space,4.0001,,242.3275,Not at all,0,242.3293,,,[],,0,3,3,3,1,audio/Narrative7Situation3.wav,audio/Narrative8Situation3.wav,audio/Narrative5Situation3.wav,audio/Narrative6Situation3.wav,8,4,3,5,,,,,,,,,,,,,,,,,,,,,,,,,,,,,,,,,,,,,,,
,,,,,66cc4ba25cc59f1c17f1a2b4,2025-07-07_23h07.25.797,group3.4_multiperson,2023.2.2,Win32,60.24096386,686c2ebf0248f13bef9af11f,686c95a4c495a3d7682241f3,,,,,,,,,,,,,,,,,,,,,,,,,,,,,242.3294,1,audio/Narrative7Situation4.wav,245.3442,,245.3442,257.0774,"[[999,0],[999,83],[999,166],[999,249],[999,333],[999,416],[999,499],[999,583],[999,666],[999,749],[999,833],[999,916],[999,999],[999,1083],[999,1166],[999,1249],[999,1333],[999,1416],[999,1499],[999,1583],[999,1666],[999,1749],[999,1833],[999,1916],[999,1999],[999,2083],[999,2166],[999,2249],[999,2333],[999,2416],[999,2499],[999,2583],[999,2666],[999,2749],[999,2833],[999,2916],[999,2999],[999,3083],[999,3166],[999,3249],[999,3333],[999,3416],[999,3499],[999,3583],[999,3666],[999,3749],[999,3833],[999,3916],[999,3999],[999,4083],[999,4166],[999,4249],[999,4333],[999,4416],[999,4499],[999,4583],[999,4666],[999,4749],[999,4833],[999,4916],[999,4999],[999,5083],[999,5166],[999,5249],[999,5333],[999,5416],[999,5499],[999,5582],[999,5666],[999,5749],[999,5833],[999,5916],[999,5999],[999,6083],[999,6166],[999,6250],[999,6333],[999,6416],[999,6499],[999,6583],[999,6666],[999,6749],[999,6833],[999,6916],[999,6999],[999,7082],[999,7166],[999,7249],[999,7333],[999,7416],[999,7499],[999,7582],[999,7666],[999,7749],[999,7833],[999,7916],[999,7999],[999,8082],[999,8166],[999,8250],[999,8333],[999,8416],[999,8499],[18.9,8583],[21.3,8666],[21.3,8749],[21.4,8833],[21.3,8916],[21.1,8999],[21.1,9083],[21.1,9166],[21.1,9249],[21.1,9333],[21.1,9416],[21.1,9499],[21.1,9582],[21.1,9666],[21.1,9749],[21.1,9833],[21.1,9916],[21.1,9999],[21.1,10082],[21.1,10166],[21.1,10249],[21.1,10333],[21.1,10416],[21.1,10499],[21.1,10582],[21.1,10666],[21.1,10749],[21.1,10833],[21.1,10916],[21.1,10999],[21.1,11082],[21.1,11166],[21.1,11249],[21.1,11332],[21.1,11416],[21.1,11499],[21.1,11582],[21.1,11666]]",257.0774,267.4271,16.35416667,9.6685,"[{""rating"":16.354166666666664,""responseTime"":9.668499999999995}]",space,9.8002,,267.4271,Definitely yes,100,267.4295,,,[],,0,4,4,4,1,audio/Narrative7Situation4.wav,audio/Narrative8Situation4.wav,audio/Narrative5Situation4.wav,audio/Narrative6Situation4.wav,3,3,1,2,,,,,,,,,,,,,,,,,,,,,,,,,,,,,,,,,,,,,,,
,,,,,66cc4ba25cc59f1c17f1a2b4,2025-07-07_23h07.25.797,group3.4_multiperson,2023.2.2,Win32,60.24096386,686c2ebf0248f13bef9af11f,686c95a4c495a3d7682241f3,,,,,,,,,,,,,,,,,,,,,,,,,,,,,267.4297,1,audio/Narrative7Situation5.wav,272.4437,,272.4437,280.9436,"[[40,4666],[88.4,5000],[81.4,5083],[78.6,5166],[78.5,5249],[78.5,5333],[78.5,5416],[78.5,5499],[78.5,5583],[78.5,5666],[78.5,5749],[78.5,5833],[78.5,5916],[78.6,5999],[78.6,6083],[78.6,6166],[78.6,6249],[78.6,6333],[78.6,6416],[78.6,6499],[78.6,6583],[78.6,6666],[78.6,6749],[78.6,6833],[78.6,6916],[78.6,6999],[78.6,7083],[78.6,7166],[78.6,7249],[78.6,7333],[78.6,7416],[78.6,7499],[78.6,7583],[78.6,7666],[78.6,7749],[78.6,7833],[78.6,7916],[78.6,7999],[78.6,8083],[78.6,8166],[78.6,8249],[78.6,8333],[78.6,8416],[78.6,8499]]",280.9437,282.8936,77.08333333,1.304,"[{""rating"":77.08333333333333,""responseTime"":1.3040000000000305}]",space,1.4007,,282.8936,Partially,50,282.8952,,,[],,0,5,5,5,1,audio/Narrative7Situation5.wav,audio/Narrative8Situation5.wav,audio/Narrative5Situation5.wav,audio/Narrative6Situation5.wav,5,2,5,2,,,,,,,,,,,,,,,,,,,,,,,,,,,,,,,,,,,,,,,
,,,,,66cc4ba25cc59f1c17f1a2b4,2025-07-07_23h07.25.797,group3.4_multiperson,2023.2.2,Win32,60.24096386,686c2ebf0248f13bef9af11f,686c95a4c495a3d7682241f3,,,,,,,,,,,,,,,,,,,,,,,,,,,,,282.8953,1,audio/Narrative7Situation6.wav,285.9102,,285.9102,295.8766,"[[80.2,6416],[54.3,8000],[57.5,8083],[59,8166],[59,8249],[59,8333],[58.6,8416],[58.6,8499],[57.5,8583],[55.2,8666],[54.1,8749],[53.4,8833],[52.1,8916],[49.8,9000],[44.3,9083],[43.3,9166],[43.3,9249],[43.3,9333],[43.4,9416],[44.8,9499],[46.1,9583],[47.4,9666],[48,9749],[48,9833],[48,9916]]",295.8768,297.5934,50.41666667,1.0362,"[{""rating"":50.416666666666664,""responseTime"":1.0362000000476996}]",space,1.1835,,297.5934,Not at all,0,297.5948,,,[],,0,6,6,6,1,audio/Narrative7Situation6.wav,audio/Narrative8Situation6.wav,audio/Narrative5Situation6.wav,audio/Narrative6Situation6.wav,3,2,3,2,,,,,,,,,,,,,,,,,,,,,,,,,,,,,,,,,,,,,,,
,,,,,66cc4ba25cc59f1c17f1a2b4,2025-07-07_23h07.25.797,group3.4_multiperson,2023.2.2,Win32,60.24096386,686c2ebf0248f13bef9af11f,686c95a4c495a3d7682241f3,,,,,,,,,,,,,,,,,,,,,,,,,,,,,297.5949,1,audio/Narrative7Situation7.wav,302.61,,302.61,319.7796,"[[999,0],[999,83],[999,166],[999,249],[999,333],[999,416],[999,499],[999,583],[999,666],[999,749],[999,833],[999,916],[999,999],[999,1083],[999,1166],[999,1249],[999,1333],[999,1416],[999,1499],[999,1583],[999,1666],[999,1749],[999,1833],[999,1916],[999,1999],[999,2083],[999,2166],[999,2249],[999,2333],[999,2416],[999,2500],[999,2583],[999,2666],[999,2749],[999,2833],[999,2916],[999,2999],[999,3083],[999,3166],[999,3249],[999,3333],[999,3416],[999,3499],[999,3583],[999,3666],[999,3749],[999,3833],[999,3921],[999,3999],[999,4083],[999,4166],[999,4250],[999,4339],[999,4416],[999,4499],[999,4583],[999,4666],[999,4750],[999,4833],[999,4916],[999,5000],[999,5083],[999,5166],[999,5250],[999,5333],[999,5416],[999,5500],[999,5589],[999,5673],[999,5749],[999,5833],[999,5923],[999,6000],[999,6088],[999,6166],[999,6249],[999,6333],[999,6422],[999,6499],[999,6583],[999,6666],[999,6754],[999,6833],[999,6916],[999,7000],[999,7083],[999,7166],[999,7249],[999,7333],[999,7416],[999,7499],[999,7583],[999,7666],[999,7749],[999,7833],[999,7916],[999,7999],[999,8083],[999,8166],[999,8249],[999,8332],[999,8416],[999,8499],[999,8588],[999,8666],[999,8749],[999,8836],[999,8916],[999,8999],[999,9083],[999,9166],[999,9251],[999,9333],[999,9416],[999,9499],[999,9583],[999,9666],[999,9749],[999,9833],[999,9916],[999,9999],[999,10083],[999,10166],[999,10249],[999,10332],[999,10419],[999,10499],[999,10586],[999,10666],[999,10749],[999,10832],[999,10916],[999,11002],[999,11082],[999,11166],[999,11249],[999,11332],[999,11421],[999,11503],[999,11588],[999,11666],[999,11756],[999,11832],[999,11916],[999,11999],[999,12082],[999,12169],[999,12249],[999,12333],[999,12416],[999,12504],[999,12582],[999,12666],[999,12749],[999,12839],[999,12916],[999,12999],[999,13082],[999,13166],[999,13249],[999,13333],[999,13416],[999,13499],[999,13583],[999,13666],[999,13749],[999,13836],[999,13920],[999,14003],[999,14083],[999,14169],[999,14253],[999,14336],[56,14419],[54.9,14503],[54.1,14586],[53.2,14670],[53.5,14753],[54.9,14833],[56.4,14920],[57.4,15003],[59.9,15085],[62.8,15190],[64.3,15269],[64.6,15353],[65.1,15433],[65.4,15516],[65.4,15600],[65.4,15692],[64.1,15769],[62.4,15854],[61.5,15933],[61.1,16016],[61,16102],[59.3,16186],[57.5,16269],[54.6,16353],[52.6,16440],[52.6,16516],[52.6,16599],[52.6,16682],[52.6,16769],[52.6,16849],[52.9,16932],[53,17019],[53.3,17103]]",319.7796,321.4296,55.72916667,0.6521,"[{""rating"":55.729166666666664,""responseTime"":0.6521000001430366}]",space,1.1002,,321.4298,Definitely yes,100,321.4311,,,[],,0,7,7,7,1,audio/Narrative7Situation7.wav,audio/Narrative8Situation7.wav,audio/Narrative5Situation7.wav,audio/Narrative6Situation7.wav,5,3,4,5,,,,,,,,,,,,,,,,,,,,,,,,,,,,,,,,,,,,,,,
,,,,,66cc4ba25cc59f1c17f1a2b4,2025-07-07_23h07.25.797,group3.4_multiperson,2023.2.2,Win32,60.24096386,686c2ebf0248f13bef9af11f,686c95a4c495a3d7682241f3,,,,,,,,,,,,,,,,,,,,,,,,,,,,,321.4313,1,audio/Narrative7Situation8.wav,323.4474,,323.4474,333.4796,"[[999,0],[999,83],[999,162],[999,245],[999,328],[999,412],[999,495],[999,578],[999,662],[999,745],[999,828],[999,912],[999,995],[999,1078],[999,1162],[999,1245],[999,1328],[999,1412],[999,1495],[999,1578],[999,1662],[999,1745],[999,1828],[999,1915],[999,1995],[999,2080],[999,2161],[999,2245],[999,2328],[999,2412],[999,2495],[999,2578],[999,2662],[999,2748],[999,2828],[999,2912],[999,2995],[999,3078],[999,3161],[999,3253],[999,3329],[999,3412],[999,3495],[999,3578],[999,3662],[999,3745],[999,3828],[999,3912],[999,3995],[999,4078],[999,4162],[999,4245],[999,4328],[999,4412],[999,4495],[999,4578],[999,4665],[999,4745],[999,4828],[999,4912],[999,4995],[999,5078],[999,5162],[999,5245],[999,5328],[999,5415],[999,5495],[999,5578],[999,5662],[999,5745],[999,5829],[999,5912],[999,5995],[999,6078],[999,6161],[999,6245],[999,6328],[999,6412],[999,6495],[999,6578],[999,6664],[999,6745],[999,6828],[999,6911],[999,6995],[999,7079],[999,7162],[999,7245],[999,7328],[999,7412],[999,7495],[999,7579],[999,7663],[999,7745],[999,7829],[999,7912],[999,7995],[999,8078],[999,8161],[999,8245],[999,8328],[999,8411],[999,8495],[999,8578],[999,8662],[999,8745],[999,8829],[999,8911],[999,8995],[999,9078],[999,9161],[999,9245],[999,9328],[999,9412],[999,9495],[999,9579],[999,9662],[999,9745],[999,9828],[999,9912],[999,9997]]",333.4798,336.0794,33.64583333,1.6844,"[{""rating"":44.0625,""responseTime"":1.0432999999522963},{""rating"":36.25,""responseTime"":1.421900000095377},{""rating"":33.64583333333333,""responseTime"":1.6844000000953656}]",space,2.0688,,336.0795,Not at all,0,336.0808,,,[],,0,8,8,8,1,audio/Narrative7Situation8.wav,audio/Narrative8Situation8.wav,audio/Narrative5Situation8.wav,audio/Narrative6Situation8.wav,2,3,3,5,,,,,,,,,,,,,,,,,,,,,,,,,,,,,,,,,,,,,,,
,,,,,66cc4ba25cc59f1c17f1a2b4,2025-07-07_23h07.25.797,group3.4_multiperson,2023.2.2,Win32,60.24096386,686c2ebf0248f13bef9af11f,686c95a4c495a3d7682241f3,,,,,,,,,,,,,,,,,,,,,,,,,,,,,336.081,1,audio/Narrative7Situation9.wav,338.0928,,338.0928,346.7296,"[[999,0],[999,83],[999,166],[999,249],[999,333],[999,416],[999,499],[999,583],[999,666],[999,749],[999,833],[999,916],[999,999],[999,1088],[999,1166],[999,1249],[999,1333],[999,1416],[999,1499],[999,1583],[999,1666],[999,1749],[999,1833],[999,1916],[999,2005],[999,2083],[999,2166],[999,2249],[999,2333],[999,2416],[999,2500],[999,2583],[999,2672],[999,2749],[999,2833],[999,2916],[999,2999],[999,3083],[999,3166],[999,3253],[999,3333],[999,3423],[999,3499],[999,3583],[999,3672],[999,3749],[999,3833],[999,3916],[999,3999],[999,4083],[999,4166],[999,4249],[999,4333],[999,4416],[999,4503],[999,4583],[999,4666],[999,4749],[999,4833],[999,4916],[999,4999],[999,5083],[999,5166],[999,5249],[999,5336],[999,5416],[999,5499],[999,5583],[999,5666],[999,5749],[999,5833],[999,5916],[999,5999],[999,6083],[999,6170],[999,6249],[999,6333],[999,6416],[999,6499],[999,6583],[999,6666],[999,6749],[999,6833],[999,6916],[999,6999],[999,7083],[999,7166],[999,7249],[999,7333],[999,7416],[999,7499],[999,7583],[999,7666],[999,7749],[999,7833],[999,7916],[999,7999],[999,8083],[999,8172],[999,8253],[999,8333],[999,8416],[999,8503],[999,8586]]",346.7297,349.8455,65.41666667,2.8601,"[{""rating"":55.729166666666664,""responseTime"":1.0381000001430607},{""rating"":65.41666666666667,""responseTime"":2.8601000001430634}]",space,2.5512,,349.8456,Partially,50,349.8468,,,[],,0,9,9,9,1,audio/Narrative7Situation9.wav,audio/Narrative8Situation9.wav,audio/Narrative5Situation9.wav,audio/Narrative6Situation9.wav,2,3,3,4,,,,,,,,,,,,,,,,,,,,,,,,,,,,,,,,,,,,,,,
,,,,,66cc4ba25cc59f1c17f1a2b4,2025-07-07_23h07.25.797,group3.4_multiperson,2023.2.2,Win32,60.24096386,686c2ebf0248f13bef9af11f,686c95a4c495a3d7682241f3,,,,,,,,,,,,,,,,,,,,,,,,,,,,,349.8469,1,audio/Narrative8Situation1.wav,354.8591,,354.8591,370.7953,"[[999,0],[999,83],[999,166],[999,249],[999,333],[999,419],[999,503],[999,583],[999,666],[999,749],[999,833],[999,916],[999,999],[999,1083],[999,1169],[999,1253],[999,1333],[999,1419],[999,1500],[999,1583],[999,1666],[999,1749],[999,1833],[999,1916],[999,1999],[999,2083],[999,2166],[999,2249],[999,2333],[999,2416],[999,2499],[999,2583],[999,2666],[999,2749],[999,2833],[999,2916],[999,3003],[999,3088],[999,3169],[41.8,3253],[47.5,3336],[46.5,3669],[49.7,3753],[52.5,3836],[52.9,3916],[52.9,4003],[52.9,4083],[52.9,4166],[52.9,4249],[52.9,4333],[51.6,4419]]",370.7953,374.3788,57.1875,2.6524,"[{""rating"":57.1875,""responseTime"":2.652399999856982}]",space,3.0506,,374.3789,Not at all,0,374.3804,,,[],,0,10,10,10,1,audio/Narrative8Situation1.wav,audio/Narrative7Situation1.wav,audio/Narrative6Situation1.wav,audio/Narrative5Situation1.wav,5,2,2,5,,,,,,,,,,,,,,,,,,,,,,,,,,,,,,,,,,,,,,,
,,,,,66cc4ba25cc59f1c17f1a2b4,2025-07-07_23h07.25.797,group3.4_multiperson,2023.2.2,Win32,60.24096386,686c2ebf0248f13bef9af11f,686c95a4c495a3d7682241f3,,,,,,,,,,,,,,,,,,,,,,,,,,,,,374.3806,1,audio/Narrative8Situation2.wav,377.392,,377.3921,387.5253,"[[999,0],[999,83],[999,166],[999,249],[999,333],[999,416],[999,502],[999,583],[999,666],[999,749],[999,833],[999,916],[999,999],[999,1083],[999,1166],[999,1255],[999,1338],[999,1416],[999,1503],[999,1583],[999,1666],[999,1749],[999,1836],[999,1916],[999,1999],[999,2083],[999,2166],[999,2253],[999,2333],[999,2420],[999,2499],[999,2583],[999,2666],[999,2749],[999,2833],[999,2919],[999,2999],[999,3083],[999,3166],[999,3249],[999,3333],[999,3419],[999,3499],[999,3583],[999,3666],[999,3753],[999,3833],[999,3916],[999,4000],[999,4083],[999,4168],[999,4254],[999,4339],[999,4416],[999,4507],[999,4590],[999,4666],[999,4750],[999,4840],[999,4916],[999,4999],[999,5083],[999,5166],[999,5249],[999,5333],[999,5416],[999,5499],[999,5587],[999,5666],[999,5749],[999,5838],[999,5916],[999,6000],[999,6083],[999,6166],[999,6255],[999,6333],[999,6416],[999,6499],[999,6583],[999,6666],[999,6750],[999,6833],[999,6917],[999,7000],[999,7083],[999,7169],[999,7250],[999,7333],[999,7420],[999,7503],[999,7583],[999,7672],[999,7753],[999,7833],[999,7916],[999,8000],[999,8083],[999,8166],[999,8250],[999,8333],[999,8416],[999,8499],[999,8583],[999,8670],[999,8749],[999,8833],[999,8916],[999,8999],[999,9083],[999,9166],[999,9250],[999,9333],[999,9416],[999,9499],[999,9583],[999,9666],[999,9749],[999,9833],[999,9916],[999,9999],[999,10083]]",387.5254,390.4953,80.3125,2.2696,"[{""rating"":60.416666666666664,""responseTime"":1.286400000095341},{""rating"":67.08333333333334,""responseTime"":1.619900000095356},{""rating"":71.97916666666666,""responseTime"":1.8531000001430584},{""rating"":74.89583333333334,""responseTime"":2.0642999999523113},{""rating"":80.3125,""responseTime"":2.2696000001430434}]",space,2.4334,,390.4953,Partially,50,390.4967,,,[],,0,11,11,11,1,audio/Narrative8Situation2.wav,audio/Narrative7Situation2.wav,audio/Narrative6Situation2.wav,audio/Narrative5Situation2.wav,3,3,3,3,,,,,,,,,,,,,,,,,,,,,,,,,,,,,,,,,,,,,,,
,,,,,66cc4ba25cc59f1c17f1a2b4,2025-07-07_23h07.25.797,group3.4_multiperson,2023.2.2,Win32,60.24096386,686c2ebf0248f13bef9af11f,686c95a4c495a3d7682241f3,,,,,,,,,,,,,,,,,,,,,,,,,,,,,390.4968,1,audio/Narrative8Situation3.wav,394.5085,space,394.5085,416.8917,"[[999,0],[999,83],[999,166],[999,249],[999,333],[999,416],[999,499],[999,583],[999,666],[999,749],[999,834],[999,916],[999,999],[999,1083],[999,1166],[999,1249],[999,1333],[999,1416],[999,1499],[999,1585],[999,1669],[999,1749],[999,1833],[999,1916],[999,2000],[999,2088],[999,2166],[999,2250],[999,2333],[999,2416],[999,2499],[999,2583],[999,2666],[999,2749],[999,2833],[999,2916],[999,2999],[999,3083],[999,3166],[999,3249],[999,3333],[999,3416],[999,3499],[999,3583],[999,3666],[999,3749],[999,3833],[999,3916],[999,3999],[999,4083],[999,4166],[999,4249],[999,4333],[999,4416],[999,4499],[999,4583],[999,4666],[999,4749],[999,4833],[999,4919],[999,4999],[999,5083],[999,5166],[999,5249],[999,5333],[999,5420],[999,5500],[999,5589],[999,5671],[999,5749],[999,5833],[999,5916],[999,5999],[999,6088],[999,6166],[999,6249],[999,6333],[999,6416],[999,6499],[999,6583],[999,6666],[999,6750],[999,6833],[999,6919],[999,7000],[999,7083],[999,7166],[999,7250],[999,7333],[999,7416],[999,7500],[999,7583],[999,7666],[999,7750],[999,7841],[999,7916],[999,8000],[999,8090],[999,8166],[999,8253],[999,8333],[999,8416],[999,8500],[999,8583],[999,8666],[999,8749],[999,8833],[999,8916],[999,8999],[999,9090],[999,9166],[999,9250],[999,9337],[999,9417],[999,9499],[999,9590],[999,9666],[999,9749],[999,9837],[999,9916],[999,10006],[999,10083],[999,10166],[999,10249],[999,10340],[999,10416],[999,10499],[999,10583],[999,10666],[999,10750],[999,10833],[999,10916],[999,11000],[999,11083],[999,11166],[999,11250],[999,11333],[999,11416],[999,11502],[999,11583],[999,11666],[999,11754],[999,11839],[999,11916],[999,11999],[999,12083],[999,12166],[999,12249],[999,12333],[999,12417],[999,12499],[999,12583],[999,12666],[999,12749],[999,12833],[999,12916],[999,12999],[999,13083],[999,13166],[999,13249],[999,13333],[999,13419],[999,13499],[999,13582],[999,13666],[999,13749],[999,13832],[999,13916],[999,13999],[999,14082],[999,14166],[999,14249],[999,14332],[999,14416],[999,14499],[999,14586],[999,14669],[999,14753],[999,14832],[999,14916],[999,14999],[999,15082],[999,15169],[999,15249],[999,15332],[999,15416],[999,15499],[999,15587],[999,15669],[999,15753],[999,15838],[999,15919],[70.3,16253],[52.1,16419],[47.1,16503],[46.4,16586],[46.3,16669],[46.4,16749],[47,16836],[48.6,16919],[52,17003],[55.1,17086],[60.3,17169],[63,17253],[66.9,17336],[88.9,17836],[89.1,17920],[89,17999],[89,18082],[89.2,18169],[89.2,18249],[89.2,18332],[89.2,18423],[89.2,18499],[89.2,18582],[89.1,18666],[88.1,18752],[87.1,18836],[86,18919],[76.4,20336]]",416.8918,420.7949,98.125,1.7078,"[{""rating"":98.125,""responseTime"":1.7077999999523286}]",space,3.3495,,420.7949,Definitely yes,100,420.7963,,,[],,0,12,12,12,1,audio/Narrative8Situation3.wav,audio/Narrative7Situation3.wav,audio/Narrative6Situation3.wav,audio/Narrative5Situation3.wav,4,8,5,3,0.1753,,,,,,,,,,,,,,,,,,,,,,,,,,,,,,,,,,,,,,
,,,,,66cc4ba25cc59f1c17f1a2b4,2025-07-07_23h07.25.797,group3.4_multiperson,2023.2.2,Win32,60.24096386,686c2ebf0248f13bef9af11f,686c95a4c495a3d7682241f3,,,,,,,,,,,,,,,,,,,,,,,,,,,,,420.7965,1,audio/Narrative8Situation4.wav,423.808,,423.808,437.9801,"[[999,0],[999,83],[999,166],[999,250],[999,333],[999,416],[999,499],[999,583],[999,666],[999,749],[999,833],[999,916],[999,1000],[999,1083],[999,1166],[999,1250],[999,1333],[999,1416],[999,1499],[999,1583],[999,1666],[999,1750],[999,1833],[999,1916],[999,1999],[999,2083],[999,2166],[999,2250],[999,2333],[999,2416],[999,2499],[999,2583],[999,2666],[999,2749],[999,2833],[999,2916],[999,3000],[999,3083],[999,3166],[999,3249],[999,3333],[999,3416],[999,3499],[999,3583],[999,3666],[999,3749],[999,3833],[999,3916],[999,3999],[999,4083],[999,4166],[999,4249],[999,4333],[999,4416],[999,4499],[999,4583],[999,4666],[999,4749],[999,4833],[999,4916],[999,4999],[999,5083],[999,5166],[999,5249],[999,5333],[999,5416],[999,5499],[999,5583],[999,5666],[999,5749],[999,5833],[999,5916],[999,5999],[999,6083],[999,6169],[999,6249],[999,6333],[999,6416],[999,6499],[999,6583],[999,6666],[999,6749],[999,6833],[999,6916],[999,7000],[999,7083],[999,7166],[999,7249],[999,7333],[999,7416],[999,7499],[999,7583],[999,7666],[999,7749],[999,7833],[999,7916],[999,7999],[999,8083],[999,8166],[999,8249],[999,8333],[999,8419],[999,8499],[999,8583],[999,8672],[999,8754],[999,8833],[999,8916],[999,8999],[999,9083],[999,9171],[999,9249],[999,9333],[999,9416],[999,9500],[999,9583],[999,9666],[999,9749],[999,9833],[999,9916],[999,10000],[999,10083],[999,10170],[999,10250],[999,10333],[999,10416],[999,10502],[999,10583],[999,10683],[999,10766],[999,10865],[999,10939],[999,11022],[999,11102],[999,11186],[999,11269],[999,11356],[999,11436],[999,11522],[999,11605],[999,11689],[999,11772],[999,11853],[999,11935],[999,12019],[999,12102],[999,12185],[999,12269],[999,12352],[999,12435],[999,12519],[999,12602],[999,12685],[999,12769],[999,12852],[999,12935],[999,13019],[999,13102],[999,13185],[999,13273],[999,13356],[999,13439],[999,13522],[999,13606],[999,13690],[999,13773],[999,13852],[999,13937],[999,14019],[999,14102]]",437.9801,439.9443,82.29166667,1.2305,"[{""rating"":82.29166666666667,""responseTime"":1.2304999999999495}]",space,1.4336,,439.9443,Partially,50,439.9455,,,[],,0,13,13,13,1,audio/Narrative8Situation4.wav,audio/Narrative7Situation4.wav,audio/Narrative6Situation4.wav,audio/Narrative5Situation4.wav,3,3,2,1,,,,,,,,,,,,,,,,,,,,,,,,,,,,,,,,,,,,,,,
,,,,,66cc4ba25cc59f1c17f1a2b4,2025-07-07_23h07.25.797,group3.4_multiperson,2023.2.2,Win32,60.24096386,686c2ebf0248f13bef9af11f,686c95a4c495a3d7682241f3,,,,,,,,,,,,,,,,,,,,,,,,,,,,,439.9457,1,audio/Narrative8Situation5.wav,441.9608,,441.9608,450.2112,"[[999,0],[999,83],[999,166],[999,249],[999,333],[999,418],[999,501],[999,584],[999,669],[999,752],[999,833],[999,916],[999,999],[999,1082],[999,1166],[999,1249],[999,1332],[999,1416],[999,1499],[999,1582],[999,1666],[999,1749],[999,1832],[999,1916],[999,1999],[999,2082],[999,2167],[999,2252],[999,2334],[999,2418],[999,2500],[999,2582],[999,2666],[999,2750],[999,2833],[999,2918],[999,2999],[999,3082],[999,3166],[999,3252],[999,3335],[999,3421],[999,3503],[999,3585],[999,3670],[999,3752],[999,3833],[999,3916],[999,4000],[999,4088],[999,4166],[999,4250],[999,4333],[999,4416],[999,4502],[999,4586],[999,4670],[999,4750],[999,4833],[999,4916],[999,5000],[999,5083],[999,5166],[999,5251],[999,5333],[999,5416],[999,5503],[999,5587],[999,5671],[999,5753],[999,5835],[999,5920],[999,6002],[999,6086],[999,6166],[999,6250],[999,6333],[999,6416],[999,6502],[999,6583],[999,6666],[999,6750],[999,6833],[999,6916],[999,7000],[999,7083],[999,7166],[999,7250],[999,7333],[999,7416],[999,7500],[999,7583],[999,7666],[999,7750],[999,7836],[999,7916],[999,8000],[999,8083],[999,8166],[999,8250]]",450.2112,454.6772,76.45833333,1.6329,"[{""rating"":76.45833333333334,""responseTime"":1.6328999998569316}]",space,3.9169,,454.6773,Partially,50,454.6781,,,[],,0,14,14,14,1,audio/Narrative8Situation5.wav,audio/Narrative7Situation5.wav,audio/Narrative6Situation5.wav,audio/Narrative5Situation5.wav,2,5,2,5,,,,,,,,,,,,,,,,,,,,,,,,,,,,,,,,,,,,,,,
,,,,,66cc4ba25cc59f1c17f1a2b4,2025-07-07_23h07.25.797,group3.4_multiperson,2023.2.2,Win32,60.24096386,686c2ebf0248f13bef9af11f,686c95a4c495a3d7682241f3,,,,,,,,,,,,,,,,,,,,,,,,,,,,,454.6783,1,audio/Narrative8Situation6.wav,456.6936,,456.6936,463.1603,"[[85.1,6416]]",463.1603,464.6601,82.91666667,0.7498,"[{""rating"":82.91666666666666,""responseTime"":0.7497999999523017}]",space,0.9668,,464.6602,Definitely yes,100,464.6614,,,[],,0,15,15,15,1,audio/Narrative8Situation6.wav,audio/Narrative7Situation6.wav,audio/Narrative6Situation6.wav,audio/Narrative5Situation6.wav,2,3,2,3,,,,,,,,,,,,,,,,,,,,,,,,,,,,,,,,,,,,,,,
,,,,,66cc4ba25cc59f1c17f1a2b4,2025-07-07_23h07.25.797,group3.4_multiperson,2023.2.2,Win32,60.24096386,686c2ebf0248f13bef9af11f,686c95a4c495a3d7682241f3,,,,,,,,,,,,,,,,,,,,,,,,,,,,,464.6615,1,audio/Narrative8Situation7.wav,467.6768,,467.6768,479.7768,"[[86.4,10166],[87.7,10249],[87.9,10333],[87.7,10416],[85.5,10500],[85.4,10583],[85.4,10666],[85.4,10749],[85.4,10832],[85.4,10916],[85.4,10999],[85.4,11083],[85.4,11166],[85.4,11249],[85.4,11332],[83.8,11416],[81.8,11500],[79.8,11583],[71.5,11666],[69.4,11749],[69.4,11833],[69.4,11916],[72.7,11999],[73.5,12083]]",479.7768,481.7266,86.66666667,0.6831,"[{""rating"":86.66666666666667,""responseTime"":0.6831000001430994}]",space,1.4001,,481.7266,Not at all,0,481.7282,,,[],,0,16,16,16,1,audio/Narrative8Situation7.wav,audio/Narrative7Situation7.wav,audio/Narrative6Situation7.wav,audio/Narrative5Situation7.wav,3,5,5,4,,,,,,,,,,,,,,,,,,,,,,,,,,,,,,,,,,,,,,,
,,,,,66cc4ba25cc59f1c17f1a2b4,2025-07-07_23h07.25.797,group3.4_multiperson,2023.2.2,Win32,60.24096386,686c2ebf0248f13bef9af11f,686c95a4c495a3d7682241f3,,,,,,,,,,,,,,,,,,,,,,,,,,,,,481.7283,1,audio/Narrative8Situation8.wav,484.7431,,484.7432,497.6096,[],497.6096,499.7264,64.6875,1.5335,"[{""rating"":64.6875,""responseTime"":1.5335000000000036}]",space,1.5834,,499.7265,Not at all,0,499.7274,,,[],,0,17,17,17,1,audio/Narrative8Situation8.wav,audio/Narrative7Situation8.wav,audio/Narrative6Situation8.wav,audio/Narrative5Situation8.wav,3,2,5,3,,,,,,,,,,,,,,,,,,,,,,,,,,,,,,,,,,,,,,,
,,,,,66cc4ba25cc59f1c17f1a2b4,2025-07-07_23h07.25.797,group3.4_multiperson,2023.2.2,Win32,60.24096386,686c2ebf0248f13bef9af11f,686c95a4c495a3d7682241f3,,,,,,,,,,,,,,,,,,,,,,,,,,,,,499.7276,1,audio/Narrative8Situation9.wav,502.7428,,502.7429,514.0607,"[[66,3666],[69.9,6416],[67.8,6500],[67.4,6583],[67.4,6666],[67.8,6750],[68.1,6833],[55.7,6916]]",514.0607,515.8239,72.70833333,0.8136,"[{""rating"":72.70833333333333,""responseTime"":0.813600000143083}]",space,1.2023,,515.824,Definitely yes,100,522.8433,69.89583333,6.6052,"[{""rating"":66.77083333333333,""responseTime"":6.368499999999926},{""rating"":69.89583333333333,""responseTime"":6.6051999998092015}]",space,0,18,18,18,1,audio/Narrative8Situation9.wav,audio/Narrative7Situation9.wav,audio/Narrative6Situation9.wav,audio/Narrative5Situation9.wav,3,2,4,3,,,6.4697,,,,,,,,,,,,,,,,,,,,,,,,,,,,,,,,,,,,
,,,,,66cc4ba25cc59f1c17f1a2b4,2025-07-07_23h07.25.797,group3.4_multiperson,2023.2.2,Win32,60.24096386,686c2ebf0248f13bef9af11f,686c95a4c495a3d7682241f3,,,,,,,,,,,,,,,,,,,,,,,,,,,525.7902,528.3586,528.366,2,audio/Narrative13Situation2.wav,528.3661,,528.3661,558.1227,"[[999,0],[999,76],[999,160],[999,243],[999,327],[999,410],[999,493],[999,573],[999,660],[999,743],[999,823],[999,907],[999,993],[999,1076],[999,1157],[999,1242],[999,1326],[999,1406],[999,1490],[999,1573],[999,1657],[999,1740],[999,1823],[999,1906],[999,1990],[999,2073],[999,2157],[999,2240],[999,2326],[999,2406],[999,2493],[999,2573],[999,2656],[999,2740],[999,2823],[999,2906],[999,2990],[999,3073],[999,3156],[999,3240],[999,3323],[999,3407],[999,3490],[999,3573],[999,3656],[999,3740],[999,3823],[999,3907],[999,3993],[999,4073],[999,4156],[999,4243],[999,4323],[999,4406],[999,4493],[999,4575],[999,4656],[999,4743],[999,4823],[999,4906],[999,4990],[999,5073],[999,5160],[999,5244],[999,5327],[999,5406],[999,5495],[999,5573],[999,5656],[999,5740],[999,5823],[999,5906],[999,5990],[999,6073],[999,6162],[999,6246],[999,6330],[999,6413],[999,6490],[999,6573],[999,6660],[999,6740],[999,6823],[999,6907],[999,6990],[999,7077],[999,7160],[999,7240],[999,7323],[999,7414],[999,7490],[999,7573],[999,7660],[999,7740],[999,7823],[999,7907],[999,7990],[999,8073],[999,8157],[999,8240],[999,8323],[999,8410],[999,8490],[999,8573],[999,8657],[999,8740],[999,8823],[999,8906],[999,8993],[999,9073],[999,9156],[999,9240],[999,9323],[999,9406],[999,9490],[999,9573],[999,9656],[999,9740],[999,9823],[999,9906],[999,9990],[999,10073],[999,10156],[999,10240],[999,10325],[999,10406],[999,10490],[999,10573],[999,10656],[999,10740],[999,10823],[999,10908],[999,10990],[999,11075],[999,11156],[999,11240],[999,11323],[999,11406],[999,11490],[999,11573],[999,11657],[999,11742],[999,11823],[999,11910],[999,11993],[999,12078],[999,12162],[999,12240],[999,12323],[999,12412],[999,12495],[999,12578],[999,12661],[999,12740],[999,12823],[999,12911],[999,12990],[999,13073],[999,13156],[999,13240],[999,13323],[999,13407],[999,13490],[999,13573],[999,13660],[999,13740],[999,13830],[999,13913],[999,13990],[999,14076],[999,14157],[999,14240],[999,14323],[999,14406],[999,14490],[999,14580],[999,14656],[999,14740],[999,14823],[999,14906],[999,14995],[999,15073],[999,15156],[999,15240],[999,15323],[999,15406],[999,15495],[999,15573],[999,15656],[999,15740],[999,15823],[999,15906],[999,15990],[999,16073],[999,16156],[999,16240],[999,16323],[999,16409],[999,16490],[999,16573],[999,16656],[999,16745],[999,16823],[999,16906],[999,16993],[999,17078],[999,17163],[999,17245],[999,17330],[999,17407],[999,17493],[999,17573],[999,17656],[999,17742],[999,17823],[999,17912],[999,17993],[999,18078],[60.5,18164],[62.7,18827],[60.6,19160],[66.9,19240],[67.3,19327],[69.4,19410],[73.5,19493],[76.1,19577],[77,19656],[76.5,19740],[63,19825]]",558.1228,558.1237,,,[],,,,558.1237,Not at all,0,558.1248,,,[],,0,0,0,0,1,audio/Narrative13Situation2.wav,audio/Narrative13Situation2.wav,audio/Narrative13Situation2.wav,audio/Narrative13Situation2.wav,2,2,2,2,,,,,522.8435,525.79,space,2.4168,,,,,,,,,,,,,,,,,,,,,,,,,,,,,,,
,,,,,66cc4ba25cc59f1c17f1a2b4,2025-07-07_23h07.25.797,group3.4_multiperson,2023.2.2,Win32,60.24096386,686c2ebf0248f13bef9af11f,686c95a4c495a3d7682241f3,,,,,,,,,,,,,,,,,,,,,,,,,,,,,558.1249,2,audio/Narrative5Situation1.wav,563.1392,,563.1392,576.4424,"[[999,0],[999,86],[999,169],[999,249],[999,333],[999,416],[999,499],[999,583],[999,666],[999,750],[999,833],[999,916],[999,1000],[999,1083],[999,1166],[999,1249],[999,1333],[999,1416],[999,1500],[999,1586],[999,1666],[999,1749],[999,1833],[999,1916],[999,1999],[999,2083],[999,2166],[999,2250],[999,2333],[999,2416],[999,2499],[999,2583],[999,2666],[999,2749],[999,2833],[999,2916],[999,2999],[999,3083],[999,3166],[999,3249],[999,3333],[999,3416],[999,3499],[999,3583],[999,3666],[999,3749],[999,3833],[999,3916],[999,3999],[999,4083],[999,4166],[999,4249],[999,4333],[999,4416],[999,4499],[999,4583],[999,4666],[999,4753],[999,4836],[999,4916],[999,4999],[999,5086],[999,5169],[999,5250],[999,5333],[999,5416],[999,5499],[999,5586],[999,5669],[999,5752],[999,5836],[999,5916],[999,6005],[999,6083],[999,6166],[999,6250],[999,6333],[999,6416],[999,6499],[999,6583],[999,6666],[999,6749],[999,6833],[999,6916],[999,6999],[999,7083],[999,7166],[999,7250],[999,7339],[999,7416],[999,7504],[999,7588],[999,7671],[999,7749],[999,7833],[999,7916],[999,8000],[999,8083],[999,8166],[999,8250],[999,8333],[999,8416],[999,8500],[999,8583],[999,8700],[999,8783],[999,8866],[999,8950],[999,9033],[999,9116],[999,9200],[999,9283],[999,9366],[999,9449],[999,9533],[999,9619],[999,9699],[999,9783],[999,9869],[999,9949],[999,10033],[999,10123],[999,10200],[999,10283],[999,10366],[999,10449],[999,10536],[999,10616],[999,10699],[999,10783],[999,10866],[999,10949],[999,11033],[999,11116],[999,11203],[999,11283],[999,11366],[999,11449],[999,11533],[999,11616],[999,11699],[999,11783],[999,11866],[999,11953],[999,12033],[999,12116],[999,12199],[999,12286],[999,12366],[999,12449],[999,12533],[999,12616],[999,12699],[999,12783],[999,12866],[999,12949],[999,13038],[999,13116],[999,13203],[999,13286]]",576.4425,579.039,49.58333333,2.399,"[{""rating"":49.583333333333336,""responseTime"":2.399000000000001}]",space,2.0548,,579.039,Partially,50,579.0404,,,[],,0,1,1,1,1,audio/Narrative7Situation1.wav,audio/Narrative8Situation1.wav,audio/Narrative5Situation1.wav,audio/Narrative6Situation1.wav,2,5,5,2,,,,,,,,,,,,,,,,,,,,,,,,,,,,,,,,,,,,,,,
,,,,,66cc4ba25cc59f1c17f1a2b4,2025-07-07_23h07.25.797,group3.4_multiperson,2023.2.2,Win32,60.24096386,686c2ebf0248f13bef9af11f,686c95a4c495a3d7682241f3,,,,,,,,,,,,,,,,,,,,,,,,,,,,,579.0405,2,audio/Narrative5Situation2.wav,582.0419,,582.0419,611.5081,"[[999,0],[999,80],[999,168],[999,247],[999,330],[999,413],[999,497],[999,580],[999,667],[999,747],[999,830],[999,916],[999,997],[999,1080],[999,1163],[999,1247],[999,1330],[999,1413],[999,1497],[999,1581],[999,1663],[999,1746],[999,1830],[999,1913],[999,1997],[999,2084],[999,2163],[999,2251],[999,2330],[999,2413],[999,2497],[999,2580],[999,2663],[999,2751],[999,2830],[999,2913],[999,2996],[999,3080],[999,3163],[999,3247],[999,3330],[999,3413],[999,3496],[999,3580],[999,3663],[999,3746],[999,3830],[999,3913],[999,3996],[999,4080],[999,4163],[999,4250],[999,4330],[999,4419],[999,4496],[999,4580],[999,4663],[999,4751],[999,4830],[999,4913],[999,4996],[999,5080],[999,5163],[999,5246],[999,5330],[999,5417],[999,5496],[999,5583],[999,5663],[999,5750],[999,5830],[999,5913],[999,5997],[999,6080],[999,6163],[999,6247],[999,6334],[999,6416],[999,6499],[999,6580],[999,6663],[999,6747],[999,6830],[999,6913],[999,6997],[999,7080],[999,7163],[999,7252],[999,7334],[999,7413],[999,7496],[999,7580],[999,7667],[999,7746],[999,7832],[999,7913],[999,7998],[999,8080],[999,8163],[999,8251],[999,8330],[999,8419],[999,8496],[999,8580],[999,8663],[999,8746],[999,8830],[999,8913],[999,8996],[999,9080],[999,9163],[999,9247],[999,9336],[999,9419],[999,9499],[999,9580],[999,9666],[999,9747],[999,9830],[999,9920],[999,9997],[999,10080],[999,10163],[999,10247],[999,10330],[999,10413],[999,10497],[999,10580],[999,10663],[999,10746],[999,10837],[999,10915],[999,10996],[999,11080],[999,11163],[999,11250],[999,11334],[999,11413],[999,11500],[999,11580],[999,11663],[999,11746],[999,11830],[999,11913],[999,12000],[999,12080],[999,12163],[999,12246],[999,12330],[999,12413],[999,12496],[999,12580],[999,12663],[999,12746],[999,12830],[999,12913],[999,13000],[999,13080],[999,13163],[999,13246],[999,13330],[999,13413],[999,13499],[999,13580],[999,13663],[999,13750],[999,13830],[999,13913],[999,13996],[999,14080],[999,14163],[999,14250],[999,14330],[999,14413],[999,14496],[999,14580],[999,14663],[999,14746],[999,14830],[999,14913],[999,15000],[999,15080],[999,15163],[999,15246],[999,15330],[999,15413],[999,15496],[999,15580],[999,15663],[999,15746],[999,15830],[999,15913],[999,15996],[999,16080],[999,16163],[999,16246],[999,16330],[999,16413],[999,16496],[999,16580],[999,16663],[999,16746],[999,16830],[999,16915],[999,16996],[999,17083],[999,17163],[999,17250],[999,17330],[999,17413],[999,17496],[999,17583],[999,17663],[999,17753],[999,17830],[999,17913],[999,17996],[999,18080],[999,18163],[999,18246],[999,18330],[999,18413],[999,18496],[999,18580],[999,18663],[999,18746],[999,18833],[999,18913],[999,18996],[999,19079],[999,19163],[999,19246],[999,19330],[999,19413],[999,19500],[999,19580],[999,19663],[999,19749],[999,19830],[999,19919],[999,20003],[999,20080],[999,20163],[999,20251],[999,20330],[999,20413],[999,20496],[999,20585],[999,20669],[999,20746],[999,20830],[999,20917],[999,20996],[999,21086],[999,21163],[999,21246],[999,21330],[999,21413],[999,21501],[999,21580],[999,21663],[999,21749],[999,21830],[999,21913],[999,21996],[999,22080],[999,22163],[999,22254],[999,22330],[999,22420],[999,22496],[999,22585],[999,22663],[999,22750],[999,22830],[999,22913],[999,22996],[999,23085],[999,23169],[999,23246],[999,23330],[999,23413],[999,23500],[999,23580],[999,23663],[999,23747],[999,23830],[999,23913],[999,23996],[999,24080],[999,24163],[999,24252],[999,24334],[999,24413],[999,24496],[999,24580],[999,24663],[999,24748],[999,24830],[999,24913],[999,25001],[999,25085],[999,25163],[999,25250],[999,25330],[999,25413],[999,25499],[999,25580],[999,25663],[999,25748],[999,25853],[999,25930],[999,26013],[999,26097],[999,26180],[999,26263],[999,26347],[999,26430],[999,26513],[999,26596],[999,26680],[999,26763],[999,26846],[999,26930],[999,27013],[999,27097],[999,27181],[999,27263],[999,27347],[999,27430],[999,27513],[999,27596],[999,27679],[999,27763],[999,27846],[999,27930],[999,28013],[999,28097],[999,28180],[999,28263],[999,28346],[999,28430],[999,28513],[999,28596],[999,28679],[999,28763],[999,28846],[999,28929],[999,29013],[999,29097],[999,29179],[999,29263],[999,29350],[999,29429]]",611.5082,615.1253,20,3.4876,"[{""rating"":20,""responseTime"":3.487600000143061}]",space,3.0562,,615.1253,Not at all,0,615.1265,,,[],,0,2,2,2,1,audio/Narrative7Situation2.wav,audio/Narrative8Situation2.wav,audio/Narrative5Situation2.wav,audio/Narrative6Situation2.wav,3,3,3,3,,,,,,,,,,,,,,,,,,,,,,,,,,,,,,,,,,,,,,,
,,,,,66cc4ba25cc59f1c17f1a2b4,2025-07-07_23h07.25.797,group3.4_multiperson,2023.2.2,Win32,60.24096386,686c2ebf0248f13bef9af11f,686c95a4c495a3d7682241f3,,,,,,,,,,,,,,,,,,,,,,,,,,,,,615.1266,2,audio/Narrative5Situation3.wav,618.1384,,618.1384,632.0549,"[[999,0],[999,83],[999,166],[999,250],[999,333],[999,416],[999,499],[999,583],[999,666],[999,749],[999,833],[999,916],[999,1004],[999,1083],[999,1166],[999,1249],[999,1333],[999,1421],[999,1499],[999,1586],[999,1666],[999,1749],[999,1833],[999,1916],[999,1999],[999,2083],[999,2166],[999,2249],[999,2333],[999,2416],[999,2503],[999,2583],[999,2666],[999,2749],[999,2833],[999,2916],[999,3003],[999,3086],[999,3166],[999,3253],[999,3333],[999,3416],[999,3500],[999,3583],[999,3666],[999,3749],[999,3833],[999,3916],[999,3999],[999,4083],[999,4166],[999,4253],[999,4336],[999,4419],[999,4503],[999,4586],[999,4666],[999,4749],[999,4837],[999,4916],[999,4999],[999,5083],[999,5166],[999,5253],[999,5333],[999,5416],[999,5499],[999,5583],[999,5666],[999,5749],[999,5835],[999,5922],[999,6005],[999,6083],[999,6166],[999,6249],[999,6333],[999,6416],[999,6499],[999,6583],[999,6666],[999,6749],[999,6837],[999,6916],[999,6999],[999,7083],[999,7166],[999,7249],[999,7333],[999,7416],[999,7499],[999,7583],[999,7666],[999,7749],[999,7833],[999,7916],[999,7999],[999,8083],[999,8166],[999,8249],[999,8333],[999,8416],[999,8499],[999,8583],[999,8666],[999,8749],[999,8833],[999,8921],[999,8999],[999,9083],[999,9166],[999,9249],[999,9333],[999,9416],[999,9504],[999,9588],[999,9666],[999,9749],[999,9833],[999,9916],[999,9999],[999,10083],[999,10166],[999,10249],[999,10333],[999,10420],[999,10499],[999,10583],[999,10666],[999,10749],[999,10833],[999,10916],[999,10999],[999,11082],[999,11169],[999,11249],[999,11333],[999,11416],[999,11499],[999,11583],[999,11666],[999,11749],[999,11833],[999,11916],[999,11999],[999,12082],[999,12166],[999,12249],[999,12332],[999,12416],[999,12499],[999,12586],[999,12666],[999,12749],[999,12832],[999,12916],[999,12999],[999,13083],[999,13166],[999,13249],[999,13333],[999,13416],[999,13499],[999,13582],[999,13666],[999,13749],[999,13833],[999,13916]]",632.0549,638.9384,97.5,6.7609,"[{""rating"":97.5,""responseTime"":6.760900000095376}]",space,6.3441,,638.9385,Partially,50,638.9406,,,[],,0,3,3,3,1,audio/Narrative7Situation3.wav,audio/Narrative8Situation3.wav,audio/Narrative5Situation3.wav,audio/Narrative6Situation3.wav,8,4,3,5,,,,,,,,,,,,,,,,,,,,,,,,,,,,,,,,,,,,,,,
,,,,,66cc4ba25cc59f1c17f1a2b4,2025-07-07_23h07.25.797,group3.4_multiperson,2023.2.2,Win32,60.24096386,686c2ebf0248f13bef9af11f,686c95a4c495a3d7682241f3,,,,,,,,,,,,,,,,,,,,,,,,,,,,,638.9409,2,audio/Narrative5Situation4.wav,639.9549,,639.9549,660.3544,"[[999,0],[999,86],[999,166],[999,249],[999,333],[999,416],[999,499],[999,583],[999,671],[999,750],[999,833],[999,916],[999,999],[999,1083],[999,1168],[999,1249],[999,1333],[999,1416],[999,1499],[999,1583],[999,1666],[999,1755],[999,1833],[999,1922],[999,2005],[999,2083],[999,2170],[999,2253],[999,2333],[999,2416],[999,2499],[999,2583],[999,2669],[999,2753],[999,2836],[999,2916],[999,2999],[999,3082],[999,3166],[999,3249],[999,3336],[999,3416],[999,3499],[999,3582],[999,3666],[999,3749],[999,3836],[999,3919],[999,3999],[999,4083],[999,4166],[999,4249],[999,4332],[999,4416],[999,4499],[999,4586],[999,4666],[999,4749],[999,4835],[999,4916],[999,4999],[999,5082],[999,5169],[999,5249],[999,5333],[999,5416],[999,5499],[999,5583],[999,5666],[999,5749],[999,5833],[999,5924],[999,5999],[999,6083],[999,6166],[999,6249],[999,6333],[999,6416],[999,6499],[999,6582],[999,6666],[999,6749],[999,6840],[999,6916],[999,6999],[999,7082],[999,7166],[999,7249],[999,7332],[999,7416],[999,7499],[999,7582],[999,7666],[999,7749],[999,7832],[999,7916],[999,7999],[999,8082],[999,8166],[999,8249],[999,8332],[999,8416],[999,8499],[999,8582],[999,8666],[999,8749],[999,8832],[999,8916],[999,8999],[999,9082],[999,9166],[999,9249],[999,9332],[999,9416],[999,9499],[999,9582],[999,9673],[999,9756],[999,9832],[999,9916],[999,9999],[999,10082],[999,10166],[999,10249],[999,10332],[999,10416],[999,10499],[999,10586],[999,10666],[999,10749],[999,10832],[999,10916],[999,10999],[999,11082],[999,11166],[999,11249],[999,11332],[999,11416],[999,11499],[999,11586],[999,11669],[999,11749],[999,11832],[999,11922],[999,11999],[999,12082],[999,12166],[999,12249],[999,12332],[999,12416],[999,12503],[999,12586],[999,12666],[999,12753],[999,12832],[999,12916],[999,13002],[999,13082],[999,13166],[999,13249],[999,13338],[999,13416],[999,13499],[999,13582],[999,13666],[999,13749],[999,13836],[999,13916],[999,13999],[999,14082],[999,14166],[999,14249],[999,14332],[999,14416],[999,14499],[999,14582],[999,14666],[999,14749],[999,14832],[999,14919],[999,14999],[999,15082],[999,15166],[999,15251],[999,15332],[999,15416],[999,15499],[999,15582],[999,15666],[999,15749],[999,15832],[999,15916],[999,15999],[999,16082],[999,16166],[999,16249],[999,16332],[999,16416],[999,16499],[999,16586],[999,16666],[999,16749],[999,16832],[999,16916],[999,16999],[999,17082],[999,17166],[999,17249],[999,17332],[999,17416],[999,17506],[999,17582],[999,17666],[999,17756],[999,17832],[999,17916],[999,17999],[999,18085],[999,18169],[999,18249],[999,18332],[999,18416],[999,18499],[999,18582],[999,18666],[999,18749],[999,18832],[999,18916],[999,18999],[999,19082],[999,19166],[999,19249],[999,19332],[999,19419],[999,19499],[999,19582],[999,19666],[999,19749],[999,19832],[999,19916],[999,20002],[999,20082],[999,20166],[999,20249],[999,20332]]",660.3545,662.9377,100,2.3696,"[{""rating"":100,""responseTime"":2.369599999904608}]",space,2.0443,,662.9377,Definitely yes,100,667.7242,100,3.8193,"[{""rating"":100,""responseTime"":3.81929999995225}]",space,0,4,4,4,1,audio/Narrative7Situation4.wav,audio/Narrative8Situation4.wav,audio/Narrative5Situation4.wav,audio/Narrative6Situation4.wav,3,3,1,2,,,4.2332,,,,,,,,,,,,,,,,,,,,,,,,,,,,,,,,,,,,
,,,,,66cc4ba25cc59f1c17f1a2b4,2025-07-07_23h07.25.797,group3.4_multiperson,2023.2.2,Win32,60.24096386,686c2ebf0248f13bef9af11f,686c95a4c495a3d7682241f3,,,,,,,,,,,,,,,,,,,,,,,,,,,,,667.7245,2,audio/Narrative5Situation5.wav,672.7407,,672.7408,688.1741,"[[999,0],[999,83],[999,163],[999,250],[999,333],[999,416],[999,499],[999,580],[999,663],[999,746],[999,829],[999,913],[999,996],[999,1083],[999,1166],[999,1246],[999,1329],[999,1413],[999,1499],[999,1579],[999,1663],[999,1750],[999,1829],[999,1913],[999,2000],[999,2085],[999,2163],[999,2246],[999,2329],[999,2413],[999,2496],[999,2579],[999,2663],[999,2746],[999,2829],[999,2913],[999,2996],[999,3079],[999,3163],[999,3246],[999,3329],[999,3413],[999,3496],[999,3579],[999,3663],[999,3746],[999,3829],[999,3913],[999,3996],[999,4080],[999,4163],[999,4246],[999,4329],[999,4413],[999,4502],[999,4580],[999,4663],[999,4746],[999,4830],[999,4913],[999,4996],[999,5080],[999,5163],[999,5247],[999,5329],[999,5413],[999,5496],[999,5579],[999,5663],[999,5746],[999,5829],[999,5913],[999,5996],[999,6083],[999,6163],[999,6246],[999,6329],[999,6413],[999,6502],[999,6579],[999,6663],[999,6746],[999,6829],[999,6916],[999,6996],[999,7079],[999,7163],[999,7246],[999,7329],[999,7413],[999,7496],[999,7579],[999,7666],[999,7746],[999,7829],[999,7913],[999,7996],[999,8080],[999,8163],[999,8246],[999,8329],[999,8413],[999,8504],[999,8579],[999,8663],[999,8746],[999,8833],[999,8913],[999,8996],[999,9079],[999,9163],[999,9246],[999,9329],[999,9413],[999,9496],[999,9582],[999,9663],[999,9750],[999,9829],[999,9913],[999,9996],[999,10079],[999,10163],[999,10246],[999,10329],[999,10413],[999,10496],[999,10579],[999,10663],[999,10746],[999,10829],[999,10913],[999,10996],[999,11079],[999,11163],[999,11246],[999,11329],[999,11413],[999,11496],[999,11579],[999,11663],[999,11746],[999,11829],[999,11945],[999,12022],[999,12113],[999,12196],[999,12279],[999,12363],[999,12446],[999,12529],[999,12613],[999,12699],[999,12779],[999,12863],[999,12949],[999,13029],[999,13113],[999,13202],[999,13279],[999,13363],[999,13446],[999,13529],[999,13613],[999,13696],[999,13779],[999,13863],[999,13949],[999,14029],[999,14113],[999,14196],[999,14279],[999,14363],[999,14449],[999,14529],[999,14613],[999,14696],[999,14779],[999,14866],[999,14949],[999,15033],[999,15116],[999,15201],[100,15279]]",688.1742,690.6072,92.70833333,2.2855,"[{""rating"":92.70833333333333,""responseTime"":2.2854999999999563}]",space,1.8838,,690.6072,Definitely yes,100,690.608,,,[],,0,5,5,5,1,audio/Narrative7Situation5.wav,audio/Narrative8Situation5.wav,audio/Narrative5Situation5.wav,audio/Narrative6Situation5.wav,5,2,5,2,,,,,,,,,,,,,,,,,,,,,,,,,,,,,,,,,,,,,,,
,,,,,66cc4ba25cc59f1c17f1a2b4,2025-07-07_23h07.25.797,group3.4_multiperson,2023.2.2,Win32,60.24096386,686c2ebf0248f13bef9af11f,686c95a4c495a3d7682241f3,,,,,,,,,,,,,,,,,,,,,,,,,,,,,690.6082,2,audio/Narrative5Situation6.wav,693.6205,,693.6205,699.3038,"[[999,0],[999,83],[999,169],[999,250],[999,333],[999,416],[999,500],[999,583],[999,666],[999,749],[999,833],[999,916],[999,1000],[999,1083],[999,1166],[999,1250],[999,1333],[999,1416],[999,1499],[999,1583],[999,1666],[999,1750],[999,1833],[999,1916],[999,1999],[999,2086],[999,2166],[999,2250],[999,2333],[999,2419],[999,2499],[999,2583],[999,2666],[999,2749],[999,2833],[999,2916],[999,2999],[999,3083],[999,3166],[999,3249],[999,3333],[999,3416],[999,3500],[999,3583],[999,3666],[999,3749],[999,3833],[999,3916],[999,3999],[999,4083],[999,4166],[999,4249],[999,4333],[999,4416],[999,4499],[999,4583],[999,4666],[999,4749],[999,4833],[999,4916],[999,4999],[999,5083],[999,5166],[999,5250],[999,5333],[999,5416],[999,5499],[999,5583],[999,5666]]",699.3039,700.9405,79.27083333,1.5077,"[{""rating"":79.27083333333333,""responseTime"":1.507699999809347}]",space,1.098,,700.9406,Not at all,0,700.9418,,,[],,0,6,6,6,1,audio/Narrative7Situation6.wav,audio/Narrative8Situation6.wav,audio/Narrative5Situation6.wav,audio/Narrative6Situation6.wav,3,2,3,2,,,,,,,,,,,,,,,,,,,,,,,,,,,,,,,,,,,,,,,
,,,,,66cc4ba25cc59f1c17f1a2b4,2025-07-07_23h07.25.797,group3.4_multiperson,2023.2.2,Win32,60.24096386,686c2ebf0248f13bef9af11f,686c95a4c495a3d7682241f3,,,,,,,,,,,,,,,,,,,,,,,,,,,,,700.942,2,audio/Narrative5Situation7.wav,704.9536,,704.9537,726.0035,"[[999,0],[999,86],[999,169],[999,250],[999,333],[999,416],[999,500],[999,583],[999,666],[999,749],[999,833],[999,916],[999,1000],[999,1083],[999,1166],[999,1255],[999,1333],[999,1422],[999,1502],[999,1583],[999,1666],[999,1749],[999,1833],[999,1916],[999,1999],[999,2083],[999,2169],[999,2249],[999,2333],[999,2416],[999,2499],[999,2586],[999,2669],[999,2749],[999,2833],[999,2916],[999,2999],[999,3083],[999,3166],[999,3249],[999,3333],[999,3419],[999,3499],[999,3583],[999,3666],[999,3749],[999,3833],[999,3916],[999,3999],[999,4083],[999,4166],[999,4249],[999,4336],[999,4416],[999,4499],[999,4583],[999,4666],[999,4749],[999,4833],[999,4916],[999,4999],[999,5083],[999,5172],[999,5249],[999,5333],[999,5421],[999,5499],[999,5583],[999,5666],[999,5749],[999,5836],[999,5919],[999,5999],[999,6083],[999,6166],[999,6249],[999,6333],[999,6416],[999,6499],[999,6583],[999,6666],[999,6749],[999,6833],[999,6916],[999,6999],[999,7086],[999,7166],[999,7249],[999,7333],[999,7419],[999,7499],[999,7583],[999,7666],[999,7749],[999,7833],[999,7916],[999,7999],[999,8083],[999,8166],[999,8249],[999,8333],[999,8416],[999,8501],[999,8583],[999,8666],[999,8752],[999,8836],[999,8916],[999,8999],[999,9083],[999,9166],[999,9249],[999,9333],[999,9416],[999,9499],[999,9586],[999,9666],[999,9749],[999,9833],[999,9916],[999,9999],[999,10083],[999,10166],[999,10253],[999,10333],[999,10419],[999,10499],[999,10588],[999,10671],[999,10749],[999,10833],[999,10916],[999,10999],[999,11083],[999,11166],[999,11249],[999,11338],[999,11416],[999,11499],[999,11583],[999,11666],[999,11749],[999,11833],[999,11919],[999,11999],[999,12083],[999,12171],[999,12249],[999,12337],[999,12416],[999,12499],[999,12583],[999,12666],[999,12753],[999,12833],[999,12916],[999,12999],[999,13083],[999,13170],[999,13249],[999,13333],[999,13416],[999,13499],[999,13583],[999,13666],[999,13749],[999,13835],[999,13916],[999,13999],[999,14082],[999,14170],[999,14249],[999,14333],[999,14416],[999,14499],[999,14582],[999,14666],[999,14749],[999,14832],[999,14920],[999,14999],[999,15086],[999,15166],[999,15256],[999,15336],[999,15416],[999,15499],[999,15586],[999,15670],[999,15753],[999,15836],[999,15916],[999,15999],[999,16082],[999,16168],[999,16253],[999,16336],[999,16420],[999,16503],[999,16586],[999,16670],[999,16753],[999,16833],[999,16919],[999,16999],[999,17082],[999,17166],[999,17249],[999,17332],[999,17416],[999,17499],[999,17586],[999,17666],[999,17749],[999,17832],[999,17916],[999,17999],[999,18086],[999,18166],[999,18253],[999,18336],[999,18420],[999,18503],[999,18582],[999,18666],[999,18749],[999,18832],[999,18916],[999,18999],[999,19082],[999,19166],[999,19249],[999,19335],[999,19416],[999,19499],[999,19582],[999,19666],[999,19749],[999,19832],[999,19916],[999,19999],[999,20082],[999,20166],[999,20249],[999,20332],[999,20416],[999,20499],[999,20582],[999,20666],[999,20753],[999,20832],[999,20916],[999,20999]]",726.0037,728.8234,100,2.8028,"[{""rating"":100,""responseTime"":2.8028000001907003}]",space,2.2847,,728.8234,Partially,50,728.8247,,,[],,0,7,7,7,1,audio/Narrative7Situation7.wav,audio/Narrative8Situation7.wav,audio/Narrative5Situation7.wav,audio/Narrative6Situation7.wav,5,3,4,5,,,,,,,,,,,,,,,,,,,,,,,,,,,,,,,,,,,,,,,
,,,,,66cc4ba25cc59f1c17f1a2b4,2025-07-07_23h07.25.797,group3.4_multiperson,2023.2.2,Win32,60.24096386,686c2ebf0248f13bef9af11f,686c95a4c495a3d7682241f3,,,,,,,,,,,,,,,,,,,,,,,,,,,,,728.8248,2,audio/Narrative5Situation8.wav,731.8368,,731.8369,740.673,"[[999,0],[999,83],[999,166],[999,252],[999,333],[999,416],[999,499],[999,583],[999,669],[999,749],[999,833],[999,916],[999,999],[999,1083],[999,1166],[999,1249],[999,1333],[999,1416],[999,1499],[999,1583],[999,1666],[999,1749],[999,1836],[999,1919],[999,2003],[999,2083],[999,2166],[999,2249],[999,2336],[999,2416],[999,2499],[999,2582],[999,2668],[999,2749],[999,2833],[999,2919],[999,2999],[999,3083],[999,3166],[999,3252],[999,3333],[999,3419],[999,3499],[999,3583],[999,3666],[999,3749],[999,3836],[999,3916],[999,3999],[999,4083],[999,4166],[999,4249],[999,4333],[999,4416],[999,4499],[999,4582],[999,4666],[999,4749],[999,4832],[999,4919],[999,4999],[999,5082],[999,5166],[999,5249],[999,5332],[999,5416],[999,5499],[999,5582],[999,5666],[999,5749],[999,5836],[999,5919],[999,5999],[999,6082],[999,6166],[999,6249],[999,6332],[999,6416],[999,6499],[999,6582],[999,6666],[999,6749],[999,6832],[999,6916],[999,6999],[999,7086],[999,7166],[999,7251],[999,7336],[999,7416],[999,7499],[999,7584],[999,7666],[999,7749],[999,7835],[999,7916],[999,7999],[999,8082],[999,8166],[999,8254],[999,8336],[999,8416],[999,8499],[999,8582],[999,8666],[999,8752],[999,8836]]",740.673,744.1364,88.75,3.3662,"[{""rating"":88.75,""responseTime"":3.3662000000476837}]",space,2.9275,,744.1364,Partially,50,744.1372,,,[],,0,8,8,8,1,audio/Narrative7Situation8.wav,audio/Narrative8Situation8.wav,audio/Narrative5Situation8.wav,audio/Narrative6Situation8.wav,2,3,3,5,,,,,,,,,,,,,,,,,,,,,,,,,,,,,,,,,,,,,,,
,,,,,66cc4ba25cc59f1c17f1a2b4,2025-07-07_23h07.25.797,group3.4_multiperson,2023.2.2,Win32,60.24096386,686c2ebf0248f13bef9af11f,686c95a4c495a3d7682241f3,,,,,,,,,,,,,,,,,,,,,,,,,,,,,744.1373,2,audio/Narrative5Situation9.wav,747.153,,747.153,786.6892,"[[999,0],[999,83],[999,166],[999,250],[999,333],[999,416],[999,500],[999,586],[999,666],[999,750],[999,833],[999,918],[999,1000],[999,1083],[999,1166],[999,1250],[999,1333],[999,1416],[999,1499],[999,1586],[999,1666],[999,1753],[999,1833],[999,1916],[999,2000],[999,2083],[999,2170],[999,2250],[999,2333],[999,2416],[999,2500],[999,2583],[999,2666],[999,2750],[999,2833],[999,2916],[999,2999],[999,3083],[999,3166],[999,3250],[999,3333],[999,3416],[999,3499],[999,3583],[999,3666],[999,3749],[999,3833],[999,3916],[999,4000],[999,4083],[999,4166],[999,4250],[999,4333],[999,4416],[999,4500],[999,4586],[999,4670],[999,4750],[999,4838],[999,4916],[999,5000],[999,5083],[999,5166],[999,5250],[999,5333],[999,5416],[999,5503],[999,5586],[999,5666],[999,5750],[999,5833],[999,5916],[999,5999],[999,6083],[999,6166],[999,6249],[999,6333],[999,6416],[999,6499],[999,6583],[999,6666],[999,6749],[999,6833],[999,6916],[999,7000],[999,7083],[999,7166],[999,7249],[999,7333],[999,7416],[999,7503],[999,7583],[999,7666],[999,7749],[999,7833],[999,7916],[999,7999],[999,8083],[999,8166],[999,8253],[999,8333],[999,8419],[999,8503],[999,8583],[999,8666],[999,8749],[999,8833],[999,8919],[999,8999],[999,9083],[999,9166],[999,9249],[999,9333],[999,9419],[999,9499],[999,9583],[999,9666],[999,9749],[999,9833],[999,9916],[999,9999],[999,10083],[999,10166],[999,10249],[999,10336],[999,10416],[999,10499],[999,10583],[999,10666],[999,10749],[999,10833],[999,10916],[999,10999],[999,11083],[999,11166],[999,11249],[999,11333],[999,11416],[999,11500],[999,11583],[999,11669],[999,11750],[999,11833],[999,11916],[999,11999],[999,12083],[999,12166],[999,12249],[999,12336],[999,12416],[999,12499],[999,12583],[999,12666],[999,12753],[999,12833],[999,12916],[999,12999],[999,13085],[999,13166],[999,13249],[999,13333],[999,13416],[999,13499],[999,13583],[999,13666],[999,13749],[999,13833],[999,13916],[999,13999],[999,14086],[999,14166],[999,14249],[999,14333],[999,14416],[999,14499],[999,14583],[999,14666],[999,14749],[999,14833],[999,14916],[999,15003],[999,15083],[999,15166],[999,15249],[999,15336],[999,15416],[999,15503],[999,15583],[999,15666],[999,15749],[999,15833],[999,15916],[999,16003],[999,16083],[999,16169],[999,16255],[999,16339],[999,16423],[999,16499],[999,16589],[999,16666],[999,16749],[999,16833],[999,16916],[999,16999],[999,17083],[999,17169],[999,17249],[999,17334],[999,17416],[999,17499],[999,17583],[999,17666],[999,17749],[999,17836],[999,17916],[999,17999],[999,18083],[999,18166],[999,18249],[999,18333],[999,18416],[999,18502],[999,18583],[999,18666],[999,18749],[999,18833],[999,18916],[999,18999],[999,19083],[999,19169],[999,19249],[999,19333],[999,19416],[999,19505],[999,19583],[999,19666],[999,19749],[999,19833],[999,19916],[999,19999],[999,20083],[999,20166],[999,20252],[999,20338],[999,20416],[999,20499],[999,20583],[999,20668],[999,20749],[999,20833],[999,20918],[999,20999],[999,21083],[999,21166],[999,21249],[999,21333],[999,21416],[999,21499],[999,21586],[999,21666],[999,21749],[999,21833],[999,21916],[999,21999],[999,22086],[999,22166],[999,22252],[999,22335],[999,22416],[999,22499],[999,22586],[999,22666],[999,22749],[999,22836],[999,22916],[999,23002],[999,23083],[999,23166],[999,23249],[999,23333],[999,23416],[999,23499],[999,23583],[999,23666],[999,23749],[999,23833],[999,23916],[999,23999],[999,24083],[999,24166],[999,24249],[999,24333],[999,24416],[999,24505],[999,24586],[999,24669],[999,24749],[999,24832],[999,24916],[999,24999],[999,25088],[999,25170],[999,25249],[999,25338],[999,25421],[999,25503],[999,25586],[999,25669],[999,25752],[84.6,25836],[90,25919],[94.1,26002],[95.2,26086],[96.5,26169],[97.2,26253],[97.3,26336],[97.3,26419],[97.3,26499],[97.3,26582],[94.2,26669],[86.8,26753],[74.4,26836],[97.4,27252],[84.8,27336]]",786.6893,788.5024,99.0625,1.0104,"[{""rating"":99.0625,""responseTime"":1.0103999998568725}]",space,1.2498,,788.5024,Partially,50,788.5033,,,[],,0,9,9,9,1,audio/Narrative7Situation9.wav,audio/Narrative8Situation9.wav,audio/Narrative5Situation9.wav,audio/Narrative6Situation9.wav,2,3,3,4,,,,,,,,,,,,,,,,,,,,,,,,,,,,,,,,,,,,,,,
,,,,,66cc4ba25cc59f1c17f1a2b4,2025-07-07_23h07.25.797,group3.4_multiperson,2023.2.2,Win32,60.24096386,686c2ebf0248f13bef9af11f,686c95a4c495a3d7682241f3,,,,,,,,,,,,,,,,,,,,,,,,,,,,,788.5034,2,audio/Narrative6Situation1.wav,790.5191,,790.5191,817.102,"[[999,0],[999,83],[999,166],[999,249],[999,333],[999,416],[999,500],[999,587],[999,666],[999,749],[999,833],[999,916],[999,1000],[999,1083],[999,1166],[999,1249],[999,1333],[999,1416],[999,1499],[999,1586],[999,1666],[999,1749],[999,1836],[999,1919],[999,1999],[999,2087],[999,2166],[999,2249],[999,2333],[999,2416],[999,2499],[999,2583],[999,2666],[999,2749],[999,2838],[999,2916],[999,2999],[999,3083],[999,3166],[999,3249],[999,3333],[999,3416],[999,3499],[999,3583],[999,3666],[999,3749],[999,3833],[999,3920],[999,3999],[999,4083],[999,4166],[999,4253],[999,4339],[999,4423],[999,4505],[999,4583],[999,4671],[999,4753],[999,4834],[999,4916],[999,5000],[999,5083],[999,5166],[999,5249],[999,5333],[999,5416],[999,5499],[999,5583],[999,5666],[999,5749],[999,5833],[999,5916],[999,5999],[999,6083],[999,6169],[999,6249],[999,6333],[999,6416],[999,6499],[999,6585],[999,6666],[999,6749],[999,6833],[999,6916],[999,6999],[999,7085],[999,7166],[999,7250],[999,7333],[999,7416],[999,7499],[999,7583],[999,7669],[999,7749],[999,7833],[999,7916],[999,7999],[999,8085],[999,8166],[999,8249],[999,8333],[999,8416],[999,8499],[999,8583],[999,8666],[999,8749],[999,8833],[999,8916],[999,8999],[999,9083],[999,9166],[999,9249],[999,9336],[999,9416],[999,9502],[999,9583],[999,9666],[999,9749],[999,9833],[999,9916],[999,9999],[999,10082],[999,10166],[999,10249],[999,10335],[999,10416],[999,10499],[999,10586],[999,10666],[999,10749],[999,10833],[999,10916],[999,10999],[999,11082],[999,11168],[999,11249],[999,11333],[999,11416],[999,11499],[999,11586],[999,11666],[999,11749],[999,11833],[999,11916],[999,11999],[999,12083],[999,12166],[999,12249],[999,12334],[999,12416],[999,12499],[999,12583],[999,12666],[999,12749],[999,12832],[999,12919],[999,12999],[999,13087],[999,13166],[999,13256],[999,13339],[999,13416],[999,13499],[999,13583],[999,13666],[999,13749],[999,13833],[999,13916],[999,14003],[999,14083],[999,14166],[999,14249],[999,14333],[999,14416],[999,14499],[999,14586],[999,14666],[999,14749],[999,14832],[999,14916],[999,14999],[999,15082],[999,15166],[999,15256],[999,15337],[999,15420],[999,15499],[999,15583],[999,15671],[999,15749],[999,15832],[999,15918],[999,15999],[999,16082],[999,16166],[999,16249],[999,16332],[999,16416],[999,16499],[999,16582],[999,16666],[999,16753],[999,16836],[999,16916],[999,16999],[999,17089],[999,17166],[999,17249],[999,17333],[999,17416],[999,17499],[999,17583],[999,17666],[999,17749],[999,17833],[999,17916],[999,17999],[999,18083],[999,18166],[999,18255],[999,18333],[999,18416],[999,18499],[999,18587],[999,18671],[999,18749],[999,18832],[999,18921],[999,18999],[999,19086],[999,19171],[999,19254],[999,19336],[999,19420],[999,19499],[999,19582],[999,19666],[999,19749],[999,19833],[999,19916],[999,19999],[999,20082],[999,20166],[999,20249],[999,20332],[999,20416],[999,20499],[999,20582],[999,20666],[999,20749],[999,20833],[999,20916],[999,20999],[999,21082],[999,21169],[999,21249],[999,21332],[999,21416],[999,21499],[999,21582],[999,21666],[999,21749],[999,21832],[999,21916],[999,21999],[999,22082],[999,22166],[999,22249],[999,22332],[999,22416],[999,22499],[999,22582],[999,22669],[999,22749],[999,22832],[999,22919],[999,22999],[999,23082],[999,23166],[999,23249],[999,23332],[999,23416],[999,23499],[999,23582],[999,23669],[999,23749],[999,23835],[999,23916],[999,23999],[999,24082],[999,24166],[999,24249],[999,24336],[999,24419],[999,24502],[999,24582],[999,24666],[999,24749],[999,24832],[999,24916],[999,24999],[999,25082],[999,25166],[999,25249],[999,25337],[999,25416],[999,25499],[999,25585],[999,25666],[999,25749],[999,25832],[999,25916],[999,25999],[999,26082],[999,26166],[999,26249],[999,26332],[999,26416],[999,26499],[999,26582]]",817.1022,827.2393,82.1875,9.621,"[{""rating"":82.1875,""responseTime"":9.620999999999981}]",space,9.5957,,827.2393,Partially,50,827.2402,,,[],,0,10,10,10,1,audio/Narrative8Situation1.wav,audio/Narrative7Situation1.wav,audio/Narrative6Situation1.wav,audio/Narrative5Situation1.wav,5,2,2,5,,,,,,,,,,,,,,,,,,,,,,,,,,,,,,,,,,,,,,,
,,,,,66cc4ba25cc59f1c17f1a2b4,2025-07-07_23h07.25.797,group3.4_multiperson,2023.2.2,Win32,60.24096386,686c2ebf0248f13bef9af11f,686c95a4c495a3d7682241f3,,,,,,,,,,,,,,,,,,,,,,,,,,,,,827.2402,2,audio/Narrative6Situation2.wav,830.2517,,830.2518,858.768,"[[999,0],[999,83],[999,166],[999,249],[999,333],[999,416],[999,502],[999,583],[999,666],[999,749],[999,833],[999,916],[999,999],[999,1083],[999,1166],[999,1249],[999,1333],[999,1416],[999,1499],[999,1586],[999,1666],[999,1749],[999,1833],[999,1916],[999,1999],[999,2083],[999,2166],[999,2249],[999,2333],[999,2416],[999,2499],[999,2583],[999,2666],[999,2749],[999,2833],[999,2916],[999,2999],[999,3083],[999,3166],[999,3249],[999,3333],[999,3416],[999,3499],[999,3583],[999,3666],[999,3749],[999,3833],[999,3916],[999,4003],[999,4083],[999,4166],[999,4250],[999,4333],[999,4416],[999,4503],[999,4586],[999,4666],[999,4749],[999,4833],[999,4916],[999,5003],[999,5083],[999,5166],[999,5249],[999,5333],[999,5416],[999,5499],[999,5583],[999,5666],[999,5749],[999,5833],[999,5916],[999,5999],[999,6085],[999,6166],[999,6249],[999,6333],[999,6419],[999,6499],[999,6583],[999,6666],[999,6749],[999,6833],[999,6916],[999,6999],[999,7086],[999,7166],[999,7249],[999,7333],[999,7416],[999,7500],[999,7583],[999,7666],[999,7750],[999,7833],[999,7916],[999,7999],[999,8089],[999,8166],[999,8249],[999,8333],[999,8416],[999,8499],[999,8583],[999,8666],[999,8749],[999,8833],[999,8916],[999,8999],[999,9091],[999,9166],[999,9256],[999,9333],[999,9416],[999,9500],[999,9585],[999,9671],[999,9749],[999,9833],[999,9916],[999,9999],[999,10083],[999,10166],[999,10249],[999,10340],[999,10423],[999,10506],[999,10583],[999,10673],[999,10757],[999,10839],[999,10923],[999,10999],[999,11083],[999,11166],[999,11249],[999,11333],[999,11416],[999,11499],[999,11583],[999,11666],[999,11749],[999,11832],[999,11916],[999,11999],[999,12083],[999,12166],[999,12249],[999,12333],[999,12416],[999,12499],[999,12583],[999,12666],[999,12749],[999,12832],[999,12916],[999,12999],[999,13083],[999,13166],[999,13249],[999,13333],[999,13416],[999,13499],[999,13582],[999,13666],[999,13749],[999,13832],[999,13916],[999,13999],[999,14083],[999,14166],[999,14249],[999,14332],[999,14416],[999,14499],[999,14582],[999,14666],[999,14749],[999,14833],[999,14916],[999,14999],[999,15082],[999,15166],[999,15249],[999,15333],[999,15416],[999,15499],[999,15586],[999,15670],[999,15749],[999,15832],[999,15916],[999,15999],[999,16082],[999,16166],[999,16253],[999,16332],[999,16416],[999,16499],[999,16582],[999,16672],[999,16749],[999,16837],[999,16916],[999,16999],[999,17082],[999,17166],[999,17249],[999,17332],[999,17416],[999,17499],[999,17586],[999,17666],[999,17749],[999,17832],[999,17919],[999,17999],[999,18082],[999,18166],[999,18256],[999,18333],[999,18416],[999,18499],[999,18591],[999,18666],[999,18749],[999,18832],[999,18916],[999,18999],[999,19082],[999,19166],[999,19249],[999,19336],[999,19416],[999,19499],[999,19582],[999,19668],[999,19749],[999,19832],[999,19920],[999,19999],[999,20082],[999,20166],[999,20249],[999,20332],[999,20416],[999,20499],[999,20582],[999,20666],[999,20749],[999,20832],[999,20916],[999,20999],[999,21082],[999,21166],[999,21249],[999,21332],[999,21416],[999,21499],[999,21582],[999,21670],[999,21749],[999,21832],[999,21916],[999,21999],[999,22082],[999,22169],[999,22249],[999,22332],[999,22416],[999,22499],[999,22582],[999,22666],[999,22749],[999,22832],[999,22916],[999,22999],[999,23082],[999,23166],[999,23249],[999,23332],[999,23416],[999,23499],[999,23582],[999,23666],[999,23749],[999,23832],[999,23916],[999,23999],[999,24082],[999,24166],[999,24249],[999,24332],[999,24416],[999,24499],[999,24586],[999,24666],[999,24749],[999,24832],[999,24916],[999,24999],[999,25082],[999,25166],[999,25249],[999,25332],[999,25416],[999,25499],[999,25586],[999,25666],[999,25749],[999,25836],[999,25916],[999,25999],[999,26082],[999,26166],[999,26249],[999,26332],[999,26416],[999,26499],[999,26582],[999,26666],[999,26749],[999,26832],[999,26916],[999,26999],[999,27082],[999,27166],[999,27249],[999,27335],[999,27416],[999,27499],[999,27582],[999,27666],[999,27749],[999,27832],[999,27916],[999,28003],[999,28082],[999,28166],[999,28249],[999,28332],[999,28416],[999,28499]]",858.7681,867.9011,84.6875,8.9895,"[{""rating"":66.14583333333334,""responseTime"":8.053200000047696},{""rating"":84.6875,""responseTime"":8.989500000000021}]",space,8.5999,,867.9012,Partially,50,867.9019,,,[],,0,11,11,11,1,audio/Narrative8Situation2.wav,audio/Narrative7Situation2.wav,audio/Narrative6Situation2.wav,audio/Narrative5Situation2.wav,3,3,3,3,,,,,,,,,,,,,,,,,,,,,,,,,,,,,,,,,,,,,,,
,,,,,66cc4ba25cc59f1c17f1a2b4,2025-07-07_23h07.25.797,group3.4_multiperson,2023.2.2,Win32,60.24096386,686c2ebf0248f13bef9af11f,686c95a4c495a3d7682241f3,,,,,,,,,,,,,,,,,,,,,,,,,,,,,867.9021,2,audio/Narrative6Situation3.wav,872.9202,,872.9202,885.5531,"[[999,0],[999,81],[999,164],[999,251],[999,331],[999,414],[999,497],[999,580],[999,664],[999,747],[999,830],[999,914],[999,997],[999,1081],[999,1164],[999,1247],[999,1338],[999,1414],[999,1504],[999,1581],[999,1664],[999,1747],[999,1833],[999,1914],[999,1997],[999,2080],[999,2164],[999,2247],[999,2330],[999,2414],[999,2497],[999,2580],[999,2668],[999,2747],[999,2830],[999,2914],[999,2997],[999,3080],[999,3164],[999,3247],[999,3330],[999,3414],[999,3497],[999,3580],[999,3664],[999,3747],[999,3830],[999,3914],[999,3997],[999,4080],[999,4164],[999,4247],[999,4330],[999,4414],[999,4497],[999,4580],[999,4670],[999,4747],[999,4830],[999,4914],[999,4997],[999,5080],[999,5164],[999,5247],[999,5330],[999,5414],[999,5497],[999,5580],[999,5664],[999,5747],[999,5830],[999,5914],[999,5997],[999,6080],[999,6164],[999,6247],[999,6330],[999,6414],[999,6497],[999,6580],[999,6664],[999,6747],[999,6830],[999,6914],[999,6997],[999,7080],[999,7164],[999,7247],[999,7330],[999,7414],[999,7497],[999,7580],[999,7664],[999,7747],[999,7830],[999,7914],[999,8003],[999,8080],[999,8164],[999,8247],[999,8330],[999,8414],[999,8497],[999,8580],[999,8663],[999,8750],[999,8830],[999,8913],[999,8997],[999,9080],[999,9163],[999,9247],[999,9330],[999,9414],[999,9497],[999,9580],[999,9664],[999,9747],[999,9830],[999,9914],[999,9997],[999,10086],[999,10164],[999,10247],[999,10330],[999,10413],[999,10497],[999,10580],[999,10667],[999,10747],[999,10830],[999,10917],[999,10997],[999,11080],[999,11163],[999,11247],[999,11330],[999,11414],[999,11500],[999,11580],[999,11664],[999,11747],[999,11830],[999,11913],[999,11997],[999,12080],[999,12164],[999,12247],[999,12333],[999,12414],[999,12497],[999,12580]]",885.5533,890.7543,53.95833333,4.5307,"[{""rating"":73.75,""responseTime"":2.9042000000476946},{""rating"":53.95833333333333,""responseTime"":4.530700000047773}]",space,4.6686,,890.7543,Partially,50,890.7554,,,[],,0,12,12,12,1,audio/Narrative8Situation3.wav,audio/Narrative7Situation3.wav,audio/Narrative6Situation3.wav,audio/Narrative5Situation3.wav,4,8,5,3,,,,,,,,,,,,,,,,,,,,,,,,,,,,,,,,,,,,,,,
,,,,,66cc4ba25cc59f1c17f1a2b4,2025-07-07_23h07.25.797,group3.4_multiperson,2023.2.2,Win32,60.24096386,686c2ebf0248f13bef9af11f,686c95a4c495a3d7682241f3,,,,,,,,,,,,,,,,,,,,,,,,,,,,,890.7556,2,audio/Narrative6Situation4.wav,892.7676,,892.7676,905.3839,"[[999,0],[999,83],[999,166],[999,252],[999,333],[999,416],[999,499],[999,583],[999,666],[999,749],[999,835],[999,916],[999,999],[999,1085],[999,1166],[999,1251],[999,1333],[999,1416],[999,1499],[999,1583],[999,1666],[999,1749],[999,1833],[999,1916],[999,1999],[999,2083],[999,2166],[999,2249],[999,2336],[999,2416],[999,2499],[999,2583],[999,2666],[999,2755],[999,2833],[999,2916],[999,2999],[999,3083],[999,3166],[999,3249],[999,3333],[999,3419],[999,3502],[999,3583],[999,3666],[999,3750],[999,3838],[999,3916],[999,4004],[999,4083],[999,4166],[999,4249],[999,4336],[999,4416],[999,4499],[999,4583],[999,4666],[999,4752],[999,4833],[999,4916],[999,4999],[999,5083],[999,5169],[999,5249],[999,5333],[999,5416],[999,5500],[999,5583],[999,5666],[999,5749],[999,5833],[999,5916],[999,5999],[999,6082],[999,6166],[999,6250],[999,6333],[999,6416],[999,6499],[999,6583],[999,6666],[999,6749],[999,6832],[999,6916],[999,6999],[999,7083],[999,7171],[999,7249],[999,7332],[999,7416],[999,7499],[999,7586],[999,7668],[999,7749],[999,7833],[999,7918],[999,7999],[999,8082],[999,8166],[999,8249],[999,8333],[999,8416],[999,8499],[999,8583],[999,8669],[999,8749],[999,8832],[999,8916],[999,9002],[999,9082],[999,9166],[999,9249],[999,9332],[999,9416],[999,9499],[999,9582],[999,9666],[999,9749],[999,9832],[999,9916],[999,10003],[999,10082],[999,10166],[999,10249],[999,10332],[999,10416],[999,10499],[999,10585],[999,10670],[999,10750],[999,10833],[999,10919],[999,10999],[999,11082],[999,11168],[999,11249],[999,11333],[999,11416],[999,11499],[999,11582],[999,11666],[999,11749],[999,11832],[999,11916],[999,11999],[999,12082],[999,12166],[999,12249],[999,12333],[999,12416],[999,12499],[999,12582]]",905.384,908.5339,86.14583333,2.3717,"[{""rating"":86.14583333333333,""responseTime"":2.371699999809266}]",space,2.6222,,908.5339,Not at all,0,908.5352,,,[],,0,13,13,13,1,audio/Narrative8Situation4.wav,audio/Narrative7Situation4.wav,audio/Narrative6Situation4.wav,audio/Narrative5Situation4.wav,3,3,2,1,,,,,,,,,,,,,,,,,,,,,,,,,,,,,,,,,,,,,,,
,,,,,66cc4ba25cc59f1c17f1a2b4,2025-07-07_23h07.25.797,group3.4_multiperson,2023.2.2,Win32,60.24096386,686c2ebf0248f13bef9af11f,686c95a4c495a3d7682241f3,,,,,,,,,,,,,,,,,,,,,,,,,,,,,908.5353,2,audio/Narrative6Situation5.wav,910.5505,,910.5505,918.5171,[],918.5171,922.1039,55.625,2.5404,"[{""rating"":55.625,""responseTime"":2.54040000009536}]",space,3.0505,,922.104,Definitely yes,100,922.1053,,,[],,0,14,14,14,1,audio/Narrative8Situation5.wav,audio/Narrative7Situation5.wav,audio/Narrative6Situation5.wav,audio/Narrative5Situation5.wav,2,5,2,5,,,,,,,,,,,,,,,,,,,,,,,,,,,,,,,,,,,,,,,
,,,,,66cc4ba25cc59f1c17f1a2b4,2025-07-07_23h07.25.797,group3.4_multiperson,2023.2.2,Win32,60.24096386,686c2ebf0248f13bef9af11f,686c95a4c495a3d7682241f3,,,,,,,,,,,,,,,,,,,,,,,,,,,,,922.1054,2,audio/Narrative6Situation6.wav,924.117,,924.117,935.2168,[],935.2169,947.2697,49.0625,11.3327,"[{""rating"":49.0625,""responseTime"":11.33270000004768}]",space,11.5304,,947.2697,Partially,50,947.2708,,,[],,0,15,15,15,1,audio/Narrative8Situation6.wav,audio/Narrative7Situation6.wav,audio/Narrative6Situation6.wav,audio/Narrative5Situation6.wav,2,3,2,3,,,,,,,,,,,,,,,,,,,,,,,,,,,,,,,,,,,,,,,
,,,,,66cc4ba25cc59f1c17f1a2b4,2025-07-07_23h07.25.797,group3.4_multiperson,2023.2.2,Win32,60.24096386,686c2ebf0248f13bef9af11f,686c95a4c495a3d7682241f3,,,,,,,,,,,,,,,,,,,,,,,,,,,,,947.271,2,audio/Narrative6Situation7.wav,952.2836,,952.2837,977.152,"[[999,0],[999,83],[999,166],[999,249],[999,332],[999,416],[999,505],[999,582],[999,666],[999,749],[999,832],[999,916],[999,1003],[999,1082],[999,1169],[999,1253],[999,1332],[999,1421],[999,1503],[999,1583],[999,1666],[999,1749],[999,1832],[999,1916],[999,1999],[999,2086],[999,2166],[999,2249],[999,2335],[999,2416],[999,2499],[999,2583],[999,2668],[999,2749],[999,2832],[999,2915],[999,2999],[999,3082],[999,3166],[999,3249],[999,3332],[999,3416],[999,3501],[999,3582],[999,3666],[999,3749],[999,3832],[999,3915],[999,4002],[999,4082],[999,4166],[999,4252],[999,4332],[999,4416],[999,4499],[999,4582],[999,4666],[999,4749],[999,4832],[999,4919],[999,4999],[999,5082],[999,5166],[999,5249],[999,5332],[999,5419],[999,5499],[999,5582],[999,5669],[999,5749],[999,5832],[999,5916],[999,5999],[999,6082],[999,6165],[999,6249],[999,6335],[999,6415],[999,6499],[999,6582],[999,6665],[999,6749],[999,6832],[999,6915],[999,6999],[999,7082],[999,7169],[999,7249],[999,7332],[999,7415],[999,7499],[999,7583],[999,7665],[999,7749],[999,7832],[999,7915],[999,7999],[999,8082],[999,8165],[999,8249],[999,8332],[999,8415],[999,8499],[999,8582],[999,8669],[999,8749],[999,8832],[999,8915],[999,8999],[999,9082],[999,9165],[999,9249],[999,9332],[999,9415],[999,9499],[999,9582],[999,9665],[999,9749],[999,9832],[999,9915],[999,9999],[999,10086],[999,10165],[999,10249],[999,10336],[999,10415],[999,10499],[999,10582],[999,10665],[999,10749],[999,10836],[999,10919],[999,10999],[999,11082],[999,11165],[999,11249],[999,11332],[999,11415],[999,11499],[999,11586],[999,11665],[999,11752],[999,11832],[999,11916],[999,11999],[999,12082],[999,12173],[999,12249],[999,12340],[999,12423],[999,12499],[999,12582],[999,12665],[999,12752],[999,12832],[999,12916],[999,13002],[999,13082],[999,13169],[999,13249],[999,13332],[999,13418],[999,13499],[999,13582],[999,13669],[999,13753],[999,13839],[999,13922],[999,14002],[999,14082],[999,14165],[999,14252],[999,14332],[999,14419],[999,14499],[999,14582],[999,14665],[999,14749],[999,14832],[999,14915],[999,14999],[999,15082],[999,15165],[999,15249],[999,15332],[999,15415],[999,15499],[999,15589],[999,15665],[999,15749],[999,15832],[999,15915],[999,15999],[999,16082],[999,16170],[999,16253],[999,16332],[999,16415],[999,16502],[999,16582],[999,16665],[999,16749],[999,16832],[999,16918],[999,16999],[999,17082],[999,17165],[999,17249],[999,17332],[999,17415],[999,17501],[999,17582],[999,17665],[999,17749],[999,17836],[999,17915],[999,18002],[999,18082],[999,18165],[999,18249],[999,18332],[999,18419],[999,18499],[999,18582],[999,18665],[999,18749],[999,18832],[999,18915],[999,18999],[999,19082],[999,19165],[999,19249],[999,19332],[999,19415],[999,19499],[999,19589],[999,19669],[999,19749],[999,19832],[999,19915],[999,20006],[999,20082],[999,20165],[999,20249],[999,20332],[999,20415],[999,20502],[999,20582],[999,20665],[999,20749],[999,20832],[999,20915],[999,20999],[999,21082],[999,21165],[999,21249],[999,21332],[999,21415],[999,21502],[999,21582],[999,21665],[999,21749],[999,21832],[999,21915],[999,21999],[999,22082],[999,22165],[999,22249],[999,22332],[999,22415],[999,22499],[999,22582],[999,22665],[999,22749],[999,22832],[999,22915],[999,22999],[999,23082],[999,23165],[999,23252],[999,23332],[999,23415],[999,23499],[999,23587],[999,23665],[999,23749],[999,23832],[999,23919],[999,23999],[999,24082],[999,24165],[999,24256],[999,24332],[999,24415],[999,24501],[999,24582],[999,24665],[999,24752],[999,24832]]",977.152,981.8362,100,4.0671,"[{""rating"":100,""responseTime"":4.067099999904713}]",space,4.1645,,981.8362,Partially,50,981.837,,,[],,0,16,16,16,1,audio/Narrative8Situation7.wav,audio/Narrative7Situation7.wav,audio/Narrative6Situation7.wav,audio/Narrative5Situation7.wav,3,5,5,4,,,,,,,,,,,,,,,,,,,,,,,,,,,,,,,,,,,,,,,
,,,,,66cc4ba25cc59f1c17f1a2b4,2025-07-07_23h07.25.797,group3.4_multiperson,2023.2.2,Win32,60.24096386,686c2ebf0248f13bef9af11f,686c95a4c495a3d7682241f3,,,,,,,,,,,,,,,,,,,,,,,,,,,,,981.8371,2,audio/Narrative6Situation8.wav,986.8495,,986.8495,993.7329,"[[999,0],[999,86],[999,166],[999,249],[999,336],[999,416],[999,499],[999,583],[999,666],[999,749],[999,833],[999,916],[999,1007],[999,1086],[999,1168],[999,1253],[999,1333],[999,1416],[999,1500],[999,1589],[999,1666],[999,1749],[999,1839],[999,1919],[999,1999],[999,2083],[999,2170],[999,2249],[999,2333],[999,2416],[999,2499],[999,2583],[999,2666],[999,2752],[999,2833],[999,2916],[999,2999],[999,3083],[999,3166],[999,3249],[999,3333],[999,3416],[999,3499],[999,3583],[999,3673],[999,3749],[999,3836],[999,3916],[999,3999],[999,4083],[999,4166],[999,4249],[999,4333],[999,4416],[999,4503],[999,4583],[999,4666],[999,4749],[999,4833],[999,4916],[999,4999],[999,5083],[999,5166],[999,5249],[999,5339],[999,5416],[999,5499],[999,5583],[999,5666],[999,5749],[999,5835],[999,5916],[999,5999],[999,6083],[999,6166],[999,6249],[999,6336],[999,6419],[999,6503],[999,6583],[999,6666],[999,6749],[999,6833]]",993.733,995.3825,7.8125,1.5023,"[{""rating"":7.8125,""responseTime"":1.5022999999523563}]",space,1.0978,,995.3826,Not at all,0,995.384,,,[],,0,17,17,17,1,audio/Narrative8Situation8.wav,audio/Narrative7Situation8.wav,audio/Narrative6Situation8.wav,audio/Narrative5Situation8.wav,3,2,5,3,,,,,,,,,,,,,,,,,,,,,,,,,,,,,,,,,,,,,,,
,,,,,66cc4ba25cc59f1c17f1a2b4,2025-07-07_23h07.25.797,group3.4_multiperson,2023.2.2,Win32,60.24096386,686c2ebf0248f13bef9af11f,686c95a4c495a3d7682241f3,,,,,,,,,,,,,,,,,,,,,,,,,,,,,995.3841,2,audio/Narrative6Situation9.wav,999.3991,,999.3992,1009.3491,"[[999,0],[999,86],[999,166],[999,249],[999,333],[999,416],[999,499],[999,583],[999,666],[999,749],[999,833],[999,916],[999,999],[999,1083],[999,1169],[999,1253],[999,1336],[999,1416],[999,1499],[999,1586],[999,1666],[999,1749],[999,1836],[999,1916],[999,1999],[999,2083],[999,2166],[999,2249],[999,2336],[999,2416],[999,2500],[999,2583],[999,2670],[999,2753],[999,2836],[999,2916],[999,3003],[999,3083],[999,3166],[999,3249],[999,3333],[999,3416],[999,3499],[999,3583],[999,3666],[999,3753],[999,3833],[999,3916],[999,4004],[999,4089],[999,4166],[999,4249],[999,4336],[999,4416],[999,4499],[999,4583],[999,4666],[999,4753],[999,4833],[999,4916],[999,5000],[999,5083],[999,5166],[999,5252],[999,5333],[999,5416],[999,5500],[999,5583],[999,5666],[999,5750],[999,5833],[999,5916],[999,6000],[999,6086],[999,6166],[999,6250],[999,6333],[999,6420],[999,6503],[999,6583],[999,6674],[999,6758],[999,6840],[999,6916],[999,7006],[999,7083],[999,7166],[999,7249],[999,7333],[999,7416],[999,7499],[999,7585],[999,7666],[999,7754],[999,7835],[999,7921],[999,8005],[999,8086],[999,8170],[999,8249],[999,8336],[999,8416],[999,8500],[999,8583],[999,8673],[999,8749],[999,8833],[999,8916],[999,8999],[999,9083],[999,9173],[999,9249],[999,9333],[999,9423],[999,9500],[999,9586],[999,9670],[999,9749],[999,9833],[999,9916]]",1009.3491,1015.4856,36.875,3.9197,"[{""rating"":41.041666666666664,""responseTime"":2.6024999999999636},{""rating"":36.875,""responseTime"":3.919700000047669}]",space,5.6147,,1015.4856,Partially,50,1015.4868,,,[],,0,18,18,18,1,audio/Narrative8Situation9.wav,audio/Narrative7Situation9.wav,audio/Narrative6Situation9.wav,audio/Narrative5Situation9.wav,3,2,4,3,,,,,,,,,,,,,,,,,,,,,,,,,,,,,,,,,,,,,,,
,,,,,66cc4ba25cc59f1c17f1a2b4,2025-07-07_23h07.25.797,group3.4_multiperson,2023.2.2,Win32,60.24096386,686c2ebf0248f13bef9af11f,686c95a4c495a3d7682241f3,,,,,,,,,,,,,,,,,,,,,,,,,,,,,,,,,,,,,,,,,,,,,,,,,,,,,,,,,,,,,,,,,,,,,,1015.4869,1017.3156,space,1.292,,1017.3158,1027.2323,space,9.5889,,,,,,,,,,,,,,,,,,,,,,,,,,
