consent.started,consent.stopped,consentResponse.keys,consentResponse.rt,consentResponse.duration,participantID,date,expName,psychopyVersion,OS,frameRate,STUDY_ID,SESSION_ID,opening1.started,opening1.stopped,keyEndingOpening1.keys,keyEndingOpening1.rt,keyEndingOpening1.duration,volumeAdjust.started,volumeAdjust.stopped,endingAdjust.keys,endingAdjust.rt,endingAdjust.duration,opening2.started,opening2.stopped,keyEndingOpening.keys,keyEndingOpening.rt,keyEndingOpening.duration,mouse.x,mouse.y,mouse.leftButton,mouse.midButton,mouse.rightButton,mouse.time,instructionLoop.thisRepN,instructionLoop.thisTrialN,instructionLoop.thisN,instructionLoop.thisIndex,instructionLoop.ran,readyForAudio.started,readyForAudio.stopped,fixation.started,run,audio_played,fixation.stopped,endPractice.keys,audioPre.started,audioPre.stopped,continuousResponses_audio,intRating.started,intRating.stopped,intQuestionSlider.response,intQuestionSlider.rt,intQuestionSlider.history,confirmResponse.keys,confirmResponse.rt,confirmResponse.duration,catchQuestion.started,catch_label,catch_value,catchQuestion.stopped,catchQuestionSlider.response,catchQuestionSlider.rt,catchQuestionSlider.history,confirmResponse_2.keys,audioRunLoop.thisRepN,audioRunLoop.thisTrialN,audioRunLoop.thisN,audioRunLoop.thisIndex,audioRunLoop.ran,conditions1_1,conditions2_1,conditions1_2,conditions2_2,dur1_1,dur2_1,dur1_2,dur2_2,endPractice.rt,endPractice.duration,confirmResponse_2.rt,confirmResponse_2.duration,runIntervalBreak.started,runIntervalBreak.stopped,endingBreakKey.keys,endingBreakKey.rt,endingBreakKey.duration,connection.started,connection.stopped,connectionEnding.keys,connectionEnding.rt,connectionEnding.duration,readyForText.started,readyForText.stopped,textPre.started,run_dup,textPre.stopped,continuousResponses_text,textRunLoop.thisRepN,textRunLoop.thisTrialN,textRunLoop.thisN,textRunLoop.thisIndex,textRunLoop.ran,text1_1,text1_2,text2_1,text2_2,runBreakText.started,runBreakText.stopped,endingBreakKey_2.keys,endingBreakKey_2.rt,endingBreakKey_2.duration,ending.started,ending.stopped,endingEnding.keys,endingEnding.rt,endingEnding.duration
0.0005,32.4531,y,32.1395,,66cd521c51d994c446abe4df,2025-07-08_03h22.30.154,group3.4_multiperson,2023.2.2,Win32,60.60606061,686c2ebf0248f13bef9af11f,686c8d6ac3bd20199dbf0fbf,,,,,,,,,,,,,,,,,,,,,,,,,,,,,,,,,,,,,,,,,,,,,,,,,,,,,,,,,,,,,,,,,,,,,,,,,,,,,,,,,,,,,,,,,,,,,,,,,,,,,,,,
,,,,,66cd521c51d994c446abe4df,2025-07-08_03h22.30.154,group3.4_multiperson,2023.2.2,Win32,60.60606061,686c2ebf0248f13bef9af11f,686c8d6ac3bd20199dbf0fbf,32.4535,66.2327,space,33.7085,,,,,,,,,,,,,,,,,,,,,,,,,,,,,,,,,,,,,,,,,,,,,,,,,,,,,,,,,,,,,,,,,,,,,,,,,,,,,,,,,,,,,,,,,,,,,,,,,,,,
,,,,,66cd521c51d994c446abe4df,2025-07-08_03h22.30.154,group3.4_multiperson,2023.2.2,Win32,60.60606061,686c2ebf0248f13bef9af11f,686c8d6ac3bd20199dbf0fbf,,,,,,66.2329,242.6413,space,176.0827,,,,,,,,,,,,,,,,,,,,,,,,,,,,,,,,,,,,,,,,,,,,,,,,,,,,,,,,,,,,,,,,,,,,,,,,,,,,,,,,,,,,,,,,,,,,,,,
,,,,,66cd521c51d994c446abe4df,2025-07-08_03h22.30.154,group3.4_multiperson,2023.2.2,Win32,60.60606061,686c2ebf0248f13bef9af11f,686c8d6ac3bd20199dbf0fbf,,,,,,,,,,,242.6493,255.7836,space,13.0943,,[0.05520836512247721],[-0.12222226460774739],[1],[0],[0],[1.8632999999523463],0,0,0,0,1,,,,,,,,,,,,,,,,,,,,,,,,,,,,,,,,,,,,,,,,,,,,,,,,,,,,,,,,,,,,,,,,,,,,,,,,,,,,,,
,,,,,66cd521c51d994c446abe4df,2025-07-08_03h22.30.154,group3.4_multiperson,2023.2.2,Win32,60.60606061,686c2ebf0248f13bef9af11f,686c8d6ac3bd20199dbf0fbf,,,,,,,,,,,255.7847,315.0633,space,59.1479,,[],[],[],[],[],[],1,0,1,0,1,,,,,,,,,,,,,,,,,,,,,,,,,,,,,,,,,,,,,,,,,,,,,,,,,,,,,,,,,,,,,,,,,,,,,,,,,,,,,,
,,,,,66cd521c51d994c446abe4df,2025-07-08_03h22.30.154,group3.4_multiperson,2023.2.2,Win32,60.60606061,686c2ebf0248f13bef9af11f,686c8d6ac3bd20199dbf0fbf,,,,,,,,,,,315.0639,346.0275,space,30.9072,,[],[],[],[],[],[],2,0,2,0,1,,,,,,,,,,,,,,,,,,,,,,,,,,,,,,,,,,,,,,,,,,,,,,,,,,,,,,,,,,,,,,,,,,,,,,,,,,,,,,
,,,,,66cd521c51d994c446abe4df,2025-07-08_03h22.30.154,group3.4_multiperson,2023.2.2,Win32,60.60606061,686c2ebf0248f13bef9af11f,686c8d6ac3bd20199dbf0fbf,,,,,,,,,,,346.0283,412.3869,space,66.3227,,[],[],[],[],[],[],3,0,3,0,1,,,,,,,,,,,,,,,,,,,,,,,,,,,,,,,,,,,,,,,,,,,,,,,,,,,,,,,,,,,,,,,,,,,,,,,,,,,,,,
,,,,,66cd521c51d994c446abe4df,2025-07-08_03h22.30.154,group3.4_multiperson,2023.2.2,Win32,60.60606061,686c2ebf0248f13bef9af11f,686c8d6ac3bd20199dbf0fbf,,,,,,,,,,,412.3877,636.6003,space,224.1793,,[],[],[],[],[],[],4,0,4,0,1,,,,,,,,,,,,,,,,,,,,,,,,,,,,,,,,,,,,,,,,,,,,,,,,,,,,,,,,,,,,,,,,,,,,,,,,,,,,,,
,,,,,66cd521c51d994c446abe4df,2025-07-08_03h22.30.154,group3.4_multiperson,2023.2.2,Win32,60.60606061,686c2ebf0248f13bef9af11f,686c8d6ac3bd20199dbf0fbf,,,,,,,,,,,636.6009,662.5339,space,25.9076,,[],[],[],[],[],[],5,0,5,0,1,,,,,,,,,,,,,,,,,,,,,,,,,,,,,,,,,,,,,,,,,,,,,,,,,,,,,,,,,,,,,,,,,,,,,,,,,,,,,,
,,,,,66cd521c51d994c446abe4df,2025-07-08_03h22.30.154,group3.4_multiperson,2023.2.2,Win32,60.60606061,686c2ebf0248f13bef9af11f,686c8d6ac3bd20199dbf0fbf,,,,,,,,,,,,,,,,,,,,,,,,,,,662.5383,665.1157,665.1513,1,audio/Narrative13Situation2.wav,667.1647,,667.165,696.9341,"[[999,2],[999,149],[999,232],[999,318],[999,399],[999,485],[999,565],[999,648],[999,731],[999,815],[999,898],[999,981],[999,1068],[999,1148],[999,1231],[999,1318],[999,1398],[999,1481],[999,1564],[999,1648],[999,1731],[999,1814],[999,1898],[999,1981],[999,2064],[999,2147],[999,2231],[999,2314],[999,2397],[999,2480],[999,2564],[999,2650],[999,2734],[999,2814],[999,2901],[999,2983],[999,3064],[999,3147],[999,3234],[999,3317],[999,3400],[999,3484],[999,3567],[999,3652],[999,3734],[999,3817],[999,3900],[999,3983],[999,4063],[999,4146],[999,4230],[999,4317],[999,4401],[999,4483],[999,4562],[999,4646],[999,4729],[999,4812],[999,4896],[999,4979],[999,5066],[999,5149],[999,5233],[999,5316],[999,5400],[999,5482],[999,5562],[999,5646],[999,5732],[999,5816],[999,5899],[999,5978],[999,6066],[999,6149],[999,6232],[999,6312],[999,6395],[999,6478],[999,6566],[999,6649],[999,6733],[999,6815],[999,6899],[999,6978],[999,7065],[999,7144],[999,7228],[999,7315],[999,7399],[999,7477],[999,7561],[999,7647],[999,7732],[999,7815],[999,7898],[999,7981],[999,8064],[999,8149],[999,8231],[999,8314],[999,8397],[999,8481],[999,8564],[999,8644],[999,8727],[999,8827],[999,8910],[999,8993],[999,9076],[999,9163],[999,9243],[999,9326],[999,9409],[999,9493],[999,9576],[999,9660],[999,9743],[999,9826],[999,9913],[999,9993],[999,10076],[999,10159],[999,10243],[999,10326],[999,10409],[999,10495],[999,10579],[93.6,10663],[95.2,10747],[95.6,10829],[94.7,11243],[94.7,11329],[94.8,11409],[95.2,11497],[96,11579],[96.4,11662],[96.4,11745],[96.4,11825],[96.4,11912],[96.1,11992],[95.5,12079],[95.1,12158],[95,12245],[94.5,12325],[93.4,12412],[91.9,12496],[91.3,12596],[89.5,12679],[88.9,12762],[88.6,12841],[88.6,12924],[88.6,13007],[88.6,13091],[88.6,13174],[88.6,13258],[88.6,13341],[90,13428],[91.9,13512],[92.5,13596],[92.9,13678],[93.5,13757],[94.6,13844],[95,13924],[95.1,14011],[95.3,14094],[95.3,14173],[95.3,14257],[95.3,14340],[95.3,14423],[95.3,14506],[95.3,14590],[95.3,14673],[95.3,14757],[95.3,14840],[95.3,14923],[95.3,15006],[95.3,15089],[95.3,15173],[95.3,15256],[95.3,15339],[95.3,15423],[95.3,15509],[95.3,15589],[95.3,15672],[95.3,15756],[95.3,15839],[95.3,15925],[95.3,16005],[95.3,16092],[95.3,16172],[95.3,16255],[95.3,16339],[95.3,16422],[95.3,16508],[95.3,16589],[95.3,16672],[95.3,16755],[95.3,16841],[95.3,16925],[95.3,17008],[95.3,17088],[95.3,17172],[95.3,17255],[95.3,17341],[95.3,17421],[95.3,17505],[95.3,17588],[95.3,17671],[95.3,17755],[95.3,17838],[95.3,17921],[95.3,18004],[95.3,18091],[95.3,18171],[93.8,18259],[92.2,24089],[92.5,24171],[92.8,24251],[93,24337],[93,24421],[93,24500],[93.1,24584],[93.6,24672],[94.3,24755],[95.1,24838],[95.7,24917],[96.4,25005],[96.8,25083],[97.2,25171],[97.4,25254],[97.7,25333],[97.8,25417],[97.8,25503],[97.8,25583],[97.8,25666],[97.8,25750],[97.8,25833],[97.8,25920],[97.8,25999],[97.8,26083],[97.8,26166],[97.8,26249],[97.8,26332]]",696.9346,705.428,97.70833651,4.5754,"[{""rating"":97.70833651224773,""responseTime"":4.575400000095442}]",space,7.952,,705.4283,Partially,50,705.4353,,,[],,0,0,0,0,1,audio/Narrative13Situation2.wav,audio/Narrative13Situation2.wav,audio/Narrative13Situation2.wav,audio/Narrative13Situation2.wav,2,2,2,2,,,,,,,,,,,,,,,,,,,,,,,,,,,,,,,,,,,,,,,
,,,,,66cd521c51d994c446abe4df,2025-07-08_03h22.30.154,group3.4_multiperson,2023.2.2,Win32,60.60606061,686c2ebf0248f13bef9af11f,686c8d6ac3bd20199dbf0fbf,,,,,,,,,,,,,,,,,,,,,,,,,,,,,705.4358,1,audio/Narrative7Situation1.wav,708.9056,space,708.9058,764.8047,"[[999,2],[999,99],[999,182],[999,266],[999,349],[999,432],[999,515],[999,599],[999,682],[999,765],[999,849],[999,932],[999,1015],[999,1099],[999,1182],[999,1265],[999,1348],[999,1431],[999,1515],[999,1598],[999,1681],[999,1765],[999,1848],[999,1931],[999,2015],[999,2098],[999,2182],[999,2265],[999,2347],[999,2431],[999,2514],[999,2597],[999,2681],[999,2764],[999,2847],[999,2930],[999,3014],[999,3097],[999,3180],[999,3264],[999,3347],[999,3430],[999,3514],[999,3597],[999,3681],[999,3764],[999,3847],[999,3930],[999,4014],[999,4097],[999,4180],[999,4263],[999,4346],[999,4430],[999,4513],[999,4597],[999,4679],[999,4763],[999,4846],[999,4929],[999,5013],[999,5096],[999,5179],[999,5262],[999,5346],[999,5429],[999,5512],[999,5596],[999,5679],[999,5762],[999,5845],[999,5929],[999,6013],[999,6096],[999,6180],[999,6262],[999,6346],[999,6429],[999,6512],[999,6595],[999,6678],[999,6762],[999,6845],[999,6928],[999,7011],[999,7095],[999,7178],[999,7262],[999,7345],[999,7428],[70,7511],[69.1,7595],[68,7678],[67.1,7761],[67,7844],[66.6,7928],[66.4,8012],[66.4,8094],[66.4,8177],[66.4,8261],[69.9,8344],[75,8429],[81.3,8594],[84.3,8677],[86.4,8761],[87.5,8843],[87.9,8927],[88.2,9010],[88.3,9094],[88.5,9177],[88.5,9260],[88.5,9343],[88.5,9427],[88.5,9510],[88.5,9593],[88.5,9676],[88.5,9760],[88.5,9843],[88.5,9926],[88.5,10009],[88.5,10093],[88.5,10177],[88.5,10259],[88.5,10343],[88.5,10426],[88.5,10509],[88.5,10593],[88.5,10676],[88.5,10759],[88.5,10842],[88.5,10926],[88.5,11009],[88.5,11092],[88.5,11175],[88.5,11259],[88.2,11343]]",764.8048,770.7715,95.41667302,3.167,"[{""rating"":95.41667302449544,""responseTime"":3.16700000000003}]",space,5.414,,770.7717,Definitely yes,100,770.7776,,,[],,0,1,1,1,1,audio/Narrative7Situation1.wav,audio/Narrative8Situation1.wav,audio/Narrative5Situation1.wav,audio/Narrative6Situation1.wav,2,5,5,2,3.4362,,,,,,,,,,,,,,,,,,,,,,,,,,,,,,,,,,,,,,
,,,,,66cd521c51d994c446abe4df,2025-07-08_03h22.30.154,group3.4_multiperson,2023.2.2,Win32,60.60606061,686c2ebf0248f13bef9af11f,686c8d6ac3bd20199dbf0fbf,,,,,,,,,,,,,,,,,,,,,,,,,,,,,770.778,1,audio/Narrative7Situation2.wav,773.7832,,773.7833,781.2611,[],781.2613,786.8118,3.958332539,3.8735,"[{""rating"":3.9583325386047363,""responseTime"":3.873499999999922}]",space,5.0108,,786.8119,Not at all,0,786.8163,,,[],,0,2,2,2,1,audio/Narrative7Situation2.wav,audio/Narrative8Situation2.wav,audio/Narrative5Situation2.wav,audio/Narrative6Situation2.wav,3,3,3,3,,,,,,,,,,,,,,,,,,,,,,,,,,,,,,,,,,,,,,,
,,,,,66cd521c51d994c446abe4df,2025-07-08_03h22.30.154,group3.4_multiperson,2023.2.2,Win32,60.60606061,686c2ebf0248f13bef9af11f,686c8d6ac3bd20199dbf0fbf,,,,,,,,,,,,,,,,,,,,,,,,,,,,,786.8167,1,audio/Narrative7Situation3.wav,794.8195,,794.8195,804.0808,"[[999,0],[999,83],[999,166],[999,249],[999,333],[999,416],[999,499],[999,583],[999,666],[999,749],[999,832],[999,916],[999,999],[999,1082],[999,1166],[999,1249],[999,1332],[999,1416],[999,1498],[999,1582],[999,1669],[999,1748],[999,1832],[999,1915],[999,1998],[999,2081],[999,2165],[999,2248],[999,2331],[999,2415],[999,2498],[999,2581],[999,2665],[999,2751],[999,2831],[999,2914],[999,2998],[999,3081],[999,3164],[999,3248],[999,3331],[999,3414],[999,3497],[999,3581],[999,3664],[999,3750],[999,3833],[999,3917],[999,3997],[999,4081],[999,4167],[999,4247],[999,4333],[999,4413],[999,4500],[999,4583],[999,4663],[999,4747],[999,4830],[999,4913],[999,4996],[999,5080],[999,5163],[999,5246],[999,5329],[999,5413],[999,5499],[999,5579],[999,5663],[999,5746],[999,5829],[999,5915],[999,5996],[999,6079],[999,6165],[999,6246],[999,6332],[999,6414],[999,6499],[999,6579],[999,6662],[999,6749],[999,6829],[999,6912],[999,6995],[999,7078],[999,7164],[999,7245],[999,7328],[999,7412],[999,7495],[999,7578],[999,7661],[999,7745],[999,7828],[999,7911],[999,7994],[999,8080],[999,8161],[999,8245],[999,8331],[999,8411],[999,8494],[999,8578],[999,8664],[999,8744],[999,8828],[999,8913],[999,8994],[999,9077],[999,9161],[999,9244]]",804.081,838.0296,55.10416826,27.9665,"[{""rating"":55.10416825612386,""responseTime"":27.966499999999996}]",space,33.3953,,838.0297,Not at all,0,838.0322,,,[],,0,3,3,3,1,audio/Narrative7Situation3.wav,audio/Narrative8Situation3.wav,audio/Narrative5Situation3.wav,audio/Narrative6Situation3.wav,8,4,3,5,,,,,,,,,,,,,,,,,,,,,,,,,,,,,,,,,,,,,,,
,,,,,66cd521c51d994c446abe4df,2025-07-08_03h22.30.154,group3.4_multiperson,2023.2.2,Win32,60.60606061,686c2ebf0248f13bef9af11f,686c8d6ac3bd20199dbf0fbf,,,,,,,,,,,,,,,,,,,,,,,,,,,,,838.0325,1,audio/Narrative7Situation4.wav,841.0415,,841.0416,852.7879,"[[52.8,1253],[57.5,1586],[58.1,1665],[56.4,1749],[48.5,1835],[47.5,1918],[47.3,1998],[47.3,2081],[47.3,2168],[47.3,2248],[49.5,2335],[50.7,2418],[55.2,2502],[73.1,3668],[75.6,3751],[79.2,3851],[81.6,3931],[81.8,4013],[81.8,4096],[81.8,4180],[81.8,4263],[81.8,4350],[84.4,4434],[84.9,4513],[85.1,4600],[85.1,4679],[85.1,4763],[85.1,4846],[85.1,4933],[85.1,5013],[85.1,5096],[85.1,5180],[85.1,5263],[85.1,5346],[85.1,5432],[85.1,5512],[85.1,5596],[85.1,5679],[85.1,5762],[85.1,5846],[85.1,5929],[85.1,6012],[85.1,6095],[85.1,6179],[85.1,6262],[85.1,6346],[85.1,6432],[85.1,6512],[85.1,6598],[85.1,6678],[85.1,6765],[85.1,6845],[85.1,6928],[85.1,7012],[85.1,7098],[85.1,7178],[85.1,7261],[85.1,7348],[85.1,7428],[85.1,7511],[85.1,7595],[85.1,7678],[85.1,7761],[85.1,7847],[85.1,7928],[85.1,8014],[85.1,8097],[85.1,8177],[85.1,8260],[85.1,8347],[85.1,8431],[85.1,8514],[85.1,8594],[85.1,8677],[85.1,8764],[85.1,8847],[85.1,8927],[85.1,9013],[85.1,9094],[85.1,9180],[85.1,9263],[85.1,9343],[85.1,9427],[85.1,9510],[85.1,9593],[85.1,9676],[85.1,9760],[85.1,9843],[85.1,9927],[85.1,10010],[85.1,10093],[85.1,10176],[85.1,10259],[85.1,10343],[85.1,10426],[85.1,10509],[85.1,10595],[85.1,10676],[85.1,10763],[85.1,10842],[85.1,10926],[85.1,11009],[85.1,11092],[85.1,11175],[85.1,11259],[85.1,11342],[85.1,11429],[85.1,11512],[85.1,11592],[85.1,11675]]",852.7882,860.1966,95.83333333,7.1306,"[{""rating"":95.83333333333333,""responseTime"":7.130600000142977}]",space,6.869,,860.1967,Not at all,0,860.1997,,,[],,0,4,4,4,1,audio/Narrative7Situation4.wav,audio/Narrative8Situation4.wav,audio/Narrative5Situation4.wav,audio/Narrative6Situation4.wav,3,3,1,2,,,,,,,,,,,,,,,,,,,,,,,,,,,,,,,,,,,,,,,
,,,,,66cd521c51d994c446abe4df,2025-07-08_03h22.30.154,group3.4_multiperson,2023.2.2,Win32,60.60606061,686c2ebf0248f13bef9af11f,686c8d6ac3bd20199dbf0fbf,,,,,,,,,,,,,,,,,,,,,,,,,,,,,860.2002,1,audio/Narrative7Situation5.wav,865.2098,,865.2099,873.7083,[],873.7085,880.8206,4.791669051,5.8883,"[{""rating"":4.79166905085246,""responseTime"":5.888300000190725}]",space,6.565,,880.8207,Not at all,0,880.8233,,,[],,0,5,5,5,1,audio/Narrative7Situation5.wav,audio/Narrative8Situation5.wav,audio/Narrative5Situation5.wav,audio/Narrative6Situation5.wav,5,2,5,2,,,,,,,,,,,,,,,,,,,,,,,,,,,,,,,,,,,,,,,
,,,,,66cd521c51d994c446abe4df,2025-07-08_03h22.30.154,group3.4_multiperson,2023.2.2,Win32,60.60606061,686c2ebf0248f13bef9af11f,686c8d6ac3bd20199dbf0fbf,,,,,,,,,,,,,,,,,,,,,,,,,,,,,880.8237,1,audio/Narrative7Situation6.wav,883.8318,,883.8319,893.8119,"[[999,0],[999,83],[999,169],[999,253],[999,332],[999,416],[999,499],[999,582],[999,665],[999,749],[999,832],[999,915],[999,998],[999,1082],[999,1165],[999,1252],[999,1332],[999,1415],[999,1498],[999,1582],[999,1665],[999,1748],[999,1831],[999,1918],[999,1998],[999,2081],[999,2164],[999,2248],[999,2334],[999,2415],[999,2498],[999,2581],[999,2664],[999,2747],[999,2831],[999,2914],[999,2998],[999,3081],[999,3164],[999,3247],[999,3330],[999,3417],[999,3497],[999,3585],[999,3667],[999,3747],[999,3830],[999,3914],[999,3998],[999,4084],[999,4163],[999,4247],[999,4330],[999,4413],[999,4497],[999,4580],[999,4667],[999,4750],[85.8,4833],[85.8,4913],[92.4,5334],[92.5,5416],[92.6,5496],[92.6,5579],[92.6,5662],[92.6,5746],[92.6,5829],[92.6,5912],[92.6,5996],[92.6,6079],[92.6,6162],[92.6,6246],[92.6,6329],[92.6,6412],[92.6,6495],[92.6,6579],[92.6,6662],[92.6,6748],[92.6,6828],[92.6,6914],[92.6,6995],[92.6,7079],[92.6,7161],[92.6,7245],[92.6,7328],[92.6,7411],[92.6,7495],[92.6,7578],[92.6,7661],[92.6,7745],[92.6,7828],[92.6,7911],[92.6,7994],[92.6,8077],[92.6,8161],[92.6,8244],[92.6,8328],[92.6,8411],[92.6,8494],[92.6,8577],[92.6,8661],[92.6,8744],[92.6,8827],[92.6,8910],[92.6,8994],[92.6,9078],[92.6,9160],[92.6,9244],[92.6,9327],[92.6,9410],[92.6,9494],[92.6,9577],[92.6,9660],[92.6,9743],[92.6,9830],[92.6,9910]]",893.8121,903.1545,45.41666508,8.4465,"[{""rating"":89.16667302449544,""responseTime"":5.0912000000477065},{""rating"":45.41666507720947,""responseTime"":8.446500000000015}]",space,8.796,,903.1546,Not at all,0,903.1584,,,[],,0,6,6,6,1,audio/Narrative7Situation6.wav,audio/Narrative8Situation6.wav,audio/Narrative5Situation6.wav,audio/Narrative6Situation6.wav,3,2,3,2,,,,,,,,,,,,,,,,,,,,,,,,,,,,,,,,,,,,,,,
,,,,,66cd521c51d994c446abe4df,2025-07-08_03h22.30.154,group3.4_multiperson,2023.2.2,Win32,60.60606061,686c2ebf0248f13bef9af11f,686c8d6ac3bd20199dbf0fbf,,,,,,,,,,,,,,,,,,,,,,,,,,,,,903.1589,1,audio/Narrative7Situation7.wav,908.1672,,908.1673,925.3566,"[[999,0],[999,82],[999,166],[999,253],[999,336],[999,416],[999,499],[999,582],[999,665],[999,749],[999,832],[999,915],[999,998],[999,1085],[999,1165],[999,1248],[999,1331],[999,1415],[999,1498],[999,1582],[999,1665],[999,1748],[999,1831],[999,1918],[999,1998],[999,2081],[999,2164],[999,2251],[999,2331],[999,2414],[999,2500],[999,2583],[999,2667],[999,2747],[999,2831],[999,2917],[999,2997],[999,3080],[999,3166],[999,3250],[999,3331],[999,3414],[999,3497],[999,3583],[999,3663],[999,3747],[999,3830],[999,3913],[999,3997],[999,4084],[999,4167],[999,4246],[999,4330],[999,4413],[999,4496],[999,4579],[999,4666],[999,4746],[999,4833],[999,4913],[999,4997],[26,5083],[26,5163],[26,5246],[26,5329],[26,5412],[26,5499],[26,5579],[6.5,5667],[6.3,5745],[6.3,5829],[6.3,5912],[6.3,5995],[6.3,6079],[6.3,6162],[6.8,6245],[7.3,6332],[8.3,6412],[8.3,6495],[8.5,6578],[8.5,6661],[8.5,6745],[8.5,6831],[8.5,6915],[8.5,6995],[8.5,7081],[8.5,7162],[8.5,7245],[8.5,7328],[8.5,7411],[8.5,7498],[8.5,7578],[8.5,7661],[8.5,7748],[8.5,7828],[8.5,7911],[8.5,7994],[8.5,8080],[8.5,8161],[8.5,8244],[8.5,8331],[8.5,8411],[8.5,8498],[8.5,8577],[8.5,8660],[8.5,8744],[8.5,8827],[8.5,8910],[8.5,8993],[8.5,9077],[8.5,9160],[8.5,9243],[8.5,9326],[8.5,9410],[8.5,9496],[8.5,9576],[8.5,9660],[8.5,9743],[8.5,9826],[8.5,9910],[8.5,9993],[8.5,10076],[8.5,10159],[8.5,10243],[8.5,10326],[8.5,10409],[8.5,10493],[8.5,10576],[8.5,10659],[8.5,10742],[8.5,10826],[8.5,10909],[8.5,10995],[8.5,11076],[8.5,11159],[8.5,11246],[8.5,11326],[8.5,11409],[8.5,11492],[8.5,11578],[8.5,11661],[8.5,11742],[8.5,11825],[8.5,11908],[42.7,11996],[93,12912],[93,12995],[97,13080],[98.4,13161],[98.5,13245],[98.8,13328],[98.8,13408],[98.8,13491],[97.7,13578],[97,13658],[96.8,13741],[94.9,13825],[94.6,13907],[94.5,13990],[94.5,14074],[94.5,14160],[95.1,14240],[95.4,14324],[95.4,14407],[95.4,14492],[95.6,14577],[95.6,14660],[95.6,14740],[95.6,14823],[95.6,14906],[95.6,14990],[95.6,15073],[95.6,15156],[95.6,15240],[95.6,15326],[95.6,15409],[95.6,15493],[95.6,15573],[95.6,15656],[95.6,15740],[95.6,15822],[95.6,15906],[95.6,15989],[95.6,16072],[95.6,16156],[95.6,16239],[95.6,16325],[95.6,16406],[95.6,16492],[95.6,16577]]",925.3567,929.6581,97.60416349,1.7864,"[{""rating"":97.60416348775227,""responseTime"":1.7863999998569398}]",space,3.7482,,929.6582,Partially,50,929.6631,,,[],,0,7,7,7,1,audio/Narrative7Situation7.wav,audio/Narrative8Situation7.wav,audio/Narrative5Situation7.wav,audio/Narrative6Situation7.wav,5,3,4,5,,,,,,,,,,,,,,,,,,,,,,,,,,,,,,,,,,,,,,,
,,,,,66cd521c51d994c446abe4df,2025-07-08_03h22.30.154,group3.4_multiperson,2023.2.2,Win32,60.60606061,686c2ebf0248f13bef9af11f,686c8d6ac3bd20199dbf0fbf,,,,,,,,,,,,,,,,,,,,,,,,,,,,,929.6636,1,audio/Narrative7Situation8.wav,931.6721,,931.6722,941.7169,"[[999,0],[999,80],[999,166],[999,249],[999,329],[999,416],[999,496],[999,579],[999,663],[999,746],[999,829],[999,917],[44,1001],[44.3,1083],[44.3,1167],[44.3,1246],[43.1,1666],[20.4,3249],[20.4,3331],[20.4,3411],[20.4,3494],[20.4,3577],[20.4,3661],[20.4,3744],[20.4,3827],[20.4,3914],[26.5,3999],[26.6,4077],[26.6,4161],[26.6,4244],[26.6,4331],[34.1,4417],[34.8,4494],[34.8,4577],[34.8,4664],[34.8,4743],[43.3,4827],[44.2,4910],[44.2,4993],[44.2,5076],[44.2,5160],[65.5,5249],[69.1,5326],[69.1,5410],[69.1,5493],[69.1,5579],[90.3,6746],[83,6830],[83,6909],[83,6992],[83,7075],[83,7159],[83,7242],[83.1,7326],[84.4,7412],[86.9,7496],[88.9,7581],[90.1,7663],[90.4,7742],[90.6,7825],[90.9,7913],[91,7992],[91.3,8075],[91.6,8163],[92,8245],[92.3,8329],[92.6,8408],[92.7,8491],[92.7,8574],[92.7,8661],[92.7,8741],[92.7,8825],[92.8,8908],[92.8,8994],[92.8,9074],[92.8,9158],[92.8,9241],[92.8,9324],[92.8,9407],[92.8,9491],[92.8,9574],[92.8,9657],[92.8,9741],[92.8,9824],[92.8,9911],[92.8,9994]]",941.7173,956.4411,90.52084287,10.9999,"[{""rating"":94.99999682108562,""responseTime"":9.666000000000167},{""rating"":90.52084287007649,""responseTime"":10.999900000095522}]",space,14.1766,,956.4412,Definitely yes,100,956.446,,,[],,0,8,8,8,1,audio/Narrative7Situation8.wav,audio/Narrative8Situation8.wav,audio/Narrative5Situation8.wav,audio/Narrative6Situation8.wav,2,3,3,5,,,,,,,,,,,,,,,,,,,,,,,,,,,,,,,,,,,,,,,
,,,,,66cd521c51d994c446abe4df,2025-07-08_03h22.30.154,group3.4_multiperson,2023.2.2,Win32,60.60606061,686c2ebf0248f13bef9af11f,686c8d6ac3bd20199dbf0fbf,,,,,,,,,,,,,,,,,,,,,,,,,,,,,956.4465,1,audio/Narrative7Situation9.wav,958.4528,,958.4528,967.0689,"[[999,0],[999,83],[999,166],[999,249],[999,333],[999,416],[999,499],[999,582],[999,666],[999,749],[999,832],[999,915],[999,999],[999,1086],[999,1165],[999,1249],[999,1332],[999,1418],[999,1499],[999,1582],[999,1665],[999,1748],[999,1832],[999,1915],[999,1998],[999,2082],[999,2165],[999,2251],[999,2331],[999,2415],[999,2498],[999,2584],[999,2668],[999,2751],[999,2834],[999,2914],[999,2998],[999,3081],[999,3164],[999,3250],[999,3331],[999,3414],[999,3497],[999,3583],[999,3664],[999,3750],[999,3831],[999,3914],[999,3997],[999,4084],[999,4164],[999,4247],[999,4333],[999,4414],[999,4497],[999,4580],[999,4663],[999,4750],[999,4830],[999,4915],[999,4996],[999,5083],[999,5167],[999,5246],[999,5329],[999,5413],[999,5496],[999,5583],[999,5663],[999,5746],[999,5831],[999,5913],[999,5996],[999,6079],[999,6163],[999,6246],[999,6329],[999,6413],[999,6499],[999,6578],[999,6662],[999,6745],[999,6828],[999,6915],[91.5,7000],[95.2,8499],[92.7,8583]]",967.0691,996.7326,85.9375,23.4976,"[{""rating"":85.9375,""responseTime"":23.49759999990465}]",space,29.1327,,996.7327,Not at all,0,996.7377,,,[],,0,9,9,9,1,audio/Narrative7Situation9.wav,audio/Narrative8Situation9.wav,audio/Narrative5Situation9.wav,audio/Narrative6Situation9.wav,2,3,3,4,,,,,,,,,,,,,,,,,,,,,,,,,,,,,,,,,,,,,,,
,,,,,66cd521c51d994c446abe4df,2025-07-08_03h22.30.154,group3.4_multiperson,2023.2.2,Win32,60.60606061,686c2ebf0248f13bef9af11f,686c8d6ac3bd20199dbf0fbf,,,,,,,,,,,,,,,,,,,,,,,,,,,,,996.7382,1,audio/Narrative8Situation1.wav,1001.7427,,1001.7428,1017.7033,"[[999,0],[999,83],[999,166],[999,249],[999,333],[999,416],[999,499],[999,583],[999,666],[999,749],[999,833],[999,919],[999,999],[999,1082],[999,1165],[999,1249],[999,1335],[999,1416],[999,1499],[999,1582],[999,1665],[999,1752],[999,1835],[999,1915],[999,1999],[999,2082],[999,2168],[999,2251],[999,2337],[999,2418],[999,2501],[999,2582],[999,2664],[999,2748],[999,2831],[999,2919],[999,3002],[999,3085],[999,3165],[999,3248],[999,3334],[999,3414],[999,3500],[999,3581],[83.3,3668],[84.2,3747],[84.2,3831],[84.2,3914],[84.2,3997],[84.2,4080],[84.2,4164],[84.2,4247],[84,4334],[83.9,4413],[83.9,4497],[83.9,4580],[83.9,4664],[83.9,4747],[83.9,4830],[83.9,4913],[83.9,4997],[83.9,5080],[83.9,5163],[83.9,5246],[83.9,5330],[83.9,5413],[83.9,5496],[83.9,5580],[83.9,5663],[83.9,5746],[83.9,5829],[83.9,5913],[83.9,5996],[83.9,6079],[83.9,6162],[83.9,6246],[83.9,6332],[83.9,6412],[83.9,6500]]",1017.7035,1039.4069,96.25000954,20.74,"[{""rating"":96.04166348775227,""responseTime"":4.216599999904702},{""rating"":96.25000953674316,""responseTime"":20.74000000000001}]",space,21.162,,1039.407,Not at all,0,1039.4091,,,[],,0,10,10,10,1,audio/Narrative8Situation1.wav,audio/Narrative7Situation1.wav,audio/Narrative6Situation1.wav,audio/Narrative5Situation1.wav,5,2,2,5,,,,,,,,,,,,,,,,,,,,,,,,,,,,,,,,,,,,,,,
,,,,,66cd521c51d994c446abe4df,2025-07-08_03h22.30.154,group3.4_multiperson,2023.2.2,Win32,60.60606061,686c2ebf0248f13bef9af11f,686c8d6ac3bd20199dbf0fbf,,,,,,,,,,,,,,,,,,,,,,,,,,,,,1039.4093,1,audio/Narrative8Situation2.wav,1042.421,,1042.421,1052.5455,[],1052.5457,1072.0041,1.250000795,11.4129,"[{""rating"":1.2500007947285952,""responseTime"":11.412899999857018}]",space,18.9065,,1072.0042,Partially,50,1072.0081,,,[],,0,11,11,11,1,audio/Narrative8Situation2.wav,audio/Narrative7Situation2.wav,audio/Narrative6Situation2.wav,audio/Narrative5Situation2.wav,3,3,3,3,,,,,,,,,,,,,,,,,,,,,,,,,,,,,,,,,,,,,,,
,,,,,66cd521c51d994c446abe4df,2025-07-08_03h22.30.154,group3.4_multiperson,2023.2.2,Win32,60.60606061,686c2ebf0248f13bef9af11f,686c8d6ac3bd20199dbf0fbf,,,,,,,,,,,,,,,,,,,,,,,,,,,,,1072.0087,1,audio/Narrative8Situation3.wav,1076.0144,,1076.0145,1098.4046,"[[999,0],[999,82],[999,166],[999,249],[999,332],[999,415],[999,499],[999,582],[999,665],[999,749],[999,835],[999,916],[999,1002],[999,1082],[999,1165],[999,1248],[999,1332],[999,1415],[999,1498],[999,1584],[999,1668],[999,1748],[999,1831],[999,1915],[999,1998],[999,2084],[999,2164],[999,2248],[999,2331],[999,2415],[999,2498],[999,2581],[999,2667],[999,2748],[999,2831],[999,2917],[999,2997],[999,3085],[999,3164],[999,3251],[999,3331],[999,3414],[999,3497],[999,3581],[999,3667],[999,3750],[999,3833],[999,3913],[999,3997],[999,4080],[999,4163],[999,4246],[999,4330],[999,4413],[999,4496],[999,4582],[999,4663],[999,4746],[999,4830],[999,4913],[999,4996],[999,5079],[999,5163],[999,5249],[999,5329],[999,5413],[999,5496],[999,5579],[999,5662],[999,5746],[999,5829],[999,5912],[999,5996],[999,6082],[999,6162],[999,6245],[999,6329],[999,6412],[999,6495],[999,6578],[999,6662],[999,6745],[999,6829],[999,6912],[999,6995],[999,7078],[999,7161],[999,7245],[999,7328],[999,7411],[999,7495],[999,7578],[999,7661],[999,7745],[999,7828],[999,7911],[999,7994],[999,8077],[999,8161],[999,8244],[999,8327],[999,8411],[999,8494],[999,8577],[999,8660],[999,8744],[999,8827],[999,8911],[999,8994],[999,9077],[999,9160],[999,9246],[999,9327],[999,9415],[999,9498],[999,9580],[999,9660],[999,9743],[999,9830],[93.5,10413],[93.5,10493],[97.8,10580],[98.9,10663],[99,10743],[99,10826],[99,10909],[98.5,10994],[98.2,11076],[97.5,11160],[97.3,11242],[97.1,11326],[97,11409],[97,11492],[96.6,11579],[96.6,11659],[96.5,11742],[96.5,11825],[96.5,11909],[96.5,11992],[96.5,12075],[96.5,12159],[96.5,12242],[96.5,12325],[96.5,12408],[96.5,12491],[96.5,12575],[96.5,12658],[96.5,12744],[96.5,12825],[96.5,12911],[96.5,12995],[96.5,13075],[96.5,13160],[96.5,13241],[96.5,13328],[96.5,13408],[96.5,13491],[96.5,13577],[96.5,13657],[96.5,13744],[96.5,13824],[96.5,13907],[96.5,13991],[96.5,14074],[96.5,14158],[96.5,14241],[96.5,14324],[96.5,14407],[96.5,14493],[96.5,14577],[96.5,14657],[96.5,14740],[96.5,14826],[96.5,14907],[96.5,14993],[96.5,15076],[96.5,15157],[96.5,15240],[96.5,15326],[96.5,15407],[96.5,15490],[96.5,15573],[100,15661],[98.9,16327],[98.2,16406],[98.2,16493],[96.6,16577],[96.1,16659],[95.9,16739],[95.5,16828],[95.5,16905],[95.5,16989],[95.5,17072],[95.5,17159],[95.5,17239],[95.5,17322],[95.5,17405],[95.5,17488],[95.5,17572],[95.5,17655],[95.5,17739],[95.5,17822],[95.5,17905],[95.5,17988],[95.5,18075],[95.5,18158]]",1098.4048,1109.0608,71.97916508,9.0808,"[{""rating"":71.97916507720947,""responseTime"":9.080799999952205}]",space,10.115,,1109.0608,Partially,50,1109.0635,,,[],,0,12,12,12,1,audio/Narrative8Situation3.wav,audio/Narrative7Situation3.wav,audio/Narrative6Situation3.wav,audio/Narrative5Situation3.wav,4,8,5,3,,,,,,,,,,,,,,,,,,,,,,,,,,,,,,,,,,,,,,,
,,,,,66cd521c51d994c446abe4df,2025-07-08_03h22.30.154,group3.4_multiperson,2023.2.2,Win32,60.60606061,686c2ebf0248f13bef9af11f,686c8d6ac3bd20199dbf0fbf,,,,,,,,,,,,,,,,,,,,,,,,,,,,,1109.064,1,audio/Narrative8Situation4.wav,1112.0759,,1112.0759,1126.2502,"[[999,1],[999,82],[999,166],[999,249],[999,332],[999,416],[999,499],[999,582],[999,665],[999,749],[999,832],[999,915],[999,999],[999,1085],[999,1169],[999,1253],[999,1354],[999,1435],[999,1519],[999,1602],[999,1681],[999,1768],[999,1852],[999,1935],[999,2018],[999,2098],[999,2181],[999,2264],[999,2347],[999,2431],[999,2518],[999,2601],[999,2685],[999,2764],[999,2851],[999,2930],[999,3014],[999,3097],[42.8,3185],[39.1,3269],[45,6184],[49.5,6266],[49.9,6345],[49.9,6428],[49.9,6515],[49.9,6595],[50.5,6682]]",1126.2504,1143.1602,40.8333381,13.774,"[{""rating"":40.83333810170491,""responseTime"":13.2792999999524},{""rating"":40.83333810170491,""responseTime"":13.773999999999887}]",space,16.3728,,1143.1603,Not at all,0,1143.1648,,,[],,0,13,13,13,1,audio/Narrative8Situation4.wav,audio/Narrative7Situation4.wav,audio/Narrative6Situation4.wav,audio/Narrative5Situation4.wav,3,3,2,1,,,,,,,,,,,,,,,,,,,,,,,,,,,,,,,,,,,,,,,
,,,,,66cd521c51d994c446abe4df,2025-07-08_03h22.30.154,group3.4_multiperson,2023.2.2,Win32,60.60606061,686c2ebf0248f13bef9af11f,686c8d6ac3bd20199dbf0fbf,,,,,,,,,,,,,,,,,,,,,,,,,,,,,1143.1653,1,audio/Narrative8Situation5.wav,1145.1719,,1145.172,1153.4339,"[[41.7,1665],[53.6,8082],[51.1,8167],[50.9,8248]]",1153.434,1160.6992,11.24999921,4.3582,"[{""rating"":11.249999205271404,""responseTime"":4.3582000000476455}]",space,6.725,,1160.6992,Not at all,0,1160.7021,,,[],,0,14,14,14,1,audio/Narrative8Situation5.wav,audio/Narrative7Situation5.wav,audio/Narrative6Situation5.wav,audio/Narrative5Situation5.wav,2,5,2,5,,,,,,,,,,,,,,,,,,,,,,,,,,,,,,,,,,,,,,,
,,,,,66cd521c51d994c446abe4df,2025-07-08_03h22.30.154,group3.4_multiperson,2023.2.2,Win32,60.60606061,686c2ebf0248f13bef9af11f,686c8d6ac3bd20199dbf0fbf,,,,,,,,,,,,,,,,,,,,,,,,,,,,,1160.7026,1,audio/Narrative8Situation6.wav,1162.7117,,1162.7119,1169.1913,"[[999,1],[999,82],[999,166],[999,249],[999,332],[999,418],[999,499],[999,582],[999,665],[999,748],[999,832],[999,920],[999,998],[999,1085],[999,1165],[999,1248],[999,1335],[999,1436],[999,1519],[999,1598],[999,1685],[999,1768],[43.3,1852],[42.7,1935],[42.7,2031],[42.6,2114],[42.5,2197],[42.6,2284],[44.9,2369],[46.8,2452]]",1169.1914,1210.8815,66.87500477,39.5877,"[{""rating"":19.687501589457195,""responseTime"":20.563900000095373},{""rating"":66.87500476837158,""responseTime"":39.58770000004756}]",space,41.1368,,1210.8815,Not at all,0,1210.8836,,,[],,0,15,15,15,1,audio/Narrative8Situation6.wav,audio/Narrative7Situation6.wav,audio/Narrative6Situation6.wav,audio/Narrative5Situation6.wav,2,3,2,3,,,,,,,,,,,,,,,,,,,,,,,,,,,,,,,,,,,,,,,
,,,,,66cd521c51d994c446abe4df,2025-07-08_03h22.30.154,group3.4_multiperson,2023.2.2,Win32,60.60606061,686c2ebf0248f13bef9af11f,686c8d6ac3bd20199dbf0fbf,,,,,,,,,,,,,,,,,,,,,,,,,,,,,1210.8839,1,audio/Narrative8Situation7.wav,1213.8963,,1213.8964,1226.0059,"[[999,0],[999,83],[999,166],[999,252],[999,335],[999,416],[999,503],[999,583],[999,668],[999,749],[999,832],[999,916],[999,999],[80,6662],[96.8,6749],[96.8,6829],[96.8,6912],[96.8,6995],[96.8,7078],[97.4,7166],[97.9,7245],[97.9,7328],[96.9,7416],[96.3,7495],[96,7582],[96,7661],[95.9,7745],[95.9,7828],[95.6,7915],[95.6,7998],[95.4,8081],[94.7,8161],[94.7,8244],[94.5,8330],[94.5,8411],[94.5,8497],[94.5,8578],[94.5,8661],[94.5,8745],[94.5,8827],[94.5,8911],[94.5,8994],[94.5,9077],[94.5,9161],[94.5,9244],[94.5,9327],[94.5,9411],[94.5,9494],[94.5,9577],[94.5,9660],[94.5,9743],[94.5,9826],[94.5,9910],[94.5,9993],[94.5,10076],[94.5,10160],[94.5,10243],[94.5,10329],[94.5,10410],[94.5,10493],[94.5,10576],[94.3,10660],[93.2,10746],[88.5,12079]]",1226.0062,1235.9997,99.06250636,8.0977,"[{""rating"":99.06250635782878,""responseTime"":8.097700000047553}]",space,9.4544,,1235.9998,Not at all,0,1236.0032,,,[],,0,16,16,16,1,audio/Narrative8Situation7.wav,audio/Narrative7Situation7.wav,audio/Narrative6Situation7.wav,audio/Narrative5Situation7.wav,3,5,5,4,,,,,,,,,,,,,,,,,,,,,,,,,,,,,,,,,,,,,,,
,,,,,66cd521c51d994c446abe4df,2025-07-08_03h22.30.154,group3.4_multiperson,2023.2.2,Win32,60.60606061,686c2ebf0248f13bef9af11f,686c8d6ac3bd20199dbf0fbf,,,,,,,,,,,,,,,,,,,,,,,,,,,,,1236.0037,1,audio/Narrative8Situation8.wav,1239.015,,1239.0151,1251.8567,"[[999,0],[999,82],[999,169],[999,249],[999,332],[999,415],[999,499],[999,582],[999,665],[999,749],[999,835],[999,915],[999,998],[999,1082],[999,1165],[999,1248],[999,1335],[999,1415],[999,1498],[999,1581],[999,1664],[999,1751],[999,1831],[999,1914],[999,1998],[999,2081],[999,2168],[999,2247],[999,2331],[999,2414],[999,2497],[999,2581],[999,2664],[999,2747],[999,2831],[999,2914],[999,2997],[999,3080],[999,3164],[999,3250],[999,3333],[999,3417],[999,3497],[999,3580],[999,3667],[999,3750],[999,3830],[999,3913],[999,3996],[999,4080],[999,4163],[999,4246],[999,4330],[999,4414],[999,4499],[999,4579],[999,4663],[999,4746],[999,4833],[999,4912],[999,4996],[999,5079],[999,5162],[999,5246],[999,5329],[999,5412],[999,5496],[999,5579],[999,5662],[999,5745],[999,5829],[999,5912],[999,5995],[999,6082],[999,6162],[999,6245],[999,6328],[999,6412],[999,6495],[999,6578],[999,6661],[999,6745],[999,6828],[999,6911],[999,6995],[999,7078],[999,7161],[999,7248],[999,7328],[999,7411],[999,7495],[999,7578],[999,7661],[999,7745],[999,7831],[999,7911],[999,7994],[999,8079],[999,8161],[999,8247],[999,8327],[999,8411],[999,8497],[999,8577],[999,8660],[999,8744],[999,8827],[999,8910],[999,8993],[999,9076],[999,9160],[999,9246],[999,9327],[999,9410],[999,9493],[999,9576],[999,9663],[999,9743],[999,9826],[999,9910],[999,9993],[999,10076],[999,10159],[999,10243],[999,10326],[999,10412],[999,10493],[999,10576],[999,10659],[999,10742],[999,10828],[999,10909],[999,10992],[999,11076],[999,11159],[999,11242],[999,11325],[999,11408],[999,11492],[999,11575],[999,11658],[999,11742],[999,11825],[999,11909],[999,11994],[999,12075],[999,12161],[999,12244],[999,12328],[999,12408],[999,12494],[999,12578],[999,12658],[999,12741],[999,12824]]",1251.8569,1271.6982,98.54167302,18.3126,"[{""rating"":98.54167302449544,""responseTime"":18.312599999904705}]",space,19.2959,,1271.6984,Definitely yes,100,1271.7029,,,[],,0,17,17,17,1,audio/Narrative8Situation8.wav,audio/Narrative7Situation8.wav,audio/Narrative6Situation8.wav,audio/Narrative5Situation8.wav,3,2,5,3,,,,,,,,,,,,,,,,,,,,,,,,,,,,,,,,,,,,,,,
,,,,,66cd521c51d994c446abe4df,2025-07-08_03h22.30.154,group3.4_multiperson,2023.2.2,Win32,60.60606061,686c2ebf0248f13bef9af11f,686c8d6ac3bd20199dbf0fbf,,,,,,,,,,,,,,,,,,,,,,,,,,,,,1271.7034,1,audio/Narrative8Situation9.wav,1274.7096,,1274.7097,1286.0362,[],1286.0363,1290.4164,98.54167302,2.4346,"[{""rating"":98.54167302449544,""responseTime"":2.434599999904549}]",space,3.8465,,1290.4165,Not at all,0,1298.4648,0.520833333,5.6723,"[{""rating"":0.5208333333333315,""responseTime"":5.672299999952202}]",space,0,18,18,18,1,audio/Narrative8Situation9.wav,audio/Narrative7Situation9.wav,audio/Narrative6Situation9.wav,audio/Narrative5Situation9.wav,3,2,4,3,,,7.4992,,,,,,,,,,,,,,,,,,,,,,,,,,,,,,,,,,,,
,,,,,66cd521c51d994c446abe4df,2025-07-08_03h22.30.154,group3.4_multiperson,2023.2.2,Win32,60.60606061,686c2ebf0248f13bef9af11f,686c8d6ac3bd20199dbf0fbf,,,,,,,,,,,,,,,,,,,,,,,,,,,1329.0774,1331.658,1331.6813,2,audio/Narrative13Situation2.wav,1331.6815,,1331.6815,1361.4399,[],1361.4401,1361.4429,,,[],,,,1361.4429,Partially,50,1361.4472,,,[],,0,0,0,0,1,audio/Narrative13Situation2.wav,audio/Narrative13Situation2.wav,audio/Narrative13Situation2.wav,audio/Narrative13Situation2.wav,2,2,2,2,,,,,1298.466,1329.0766,space,30.077,,,,,,,,,,,,,,,,,,,,,,,,,,,,,,,
,,,,,66cd521c51d994c446abe4df,2025-07-08_03h22.30.154,group3.4_multiperson,2023.2.2,Win32,60.60606061,686c2ebf0248f13bef9af11f,686c8d6ac3bd20199dbf0fbf,,,,,,,,,,,,,,,,,,,,,,,,,,,,,1361.4476,2,audio/Narrative5Situation1.wav,1366.4533,,1366.4534,1379.7452,"[[52.9,4747],[65,5413],[88.4,7998],[89.9,8078],[91.1,8165],[93.8,8249],[94.2,8332],[95.2,8416],[96.8,8499],[96.9,8577],[96.9,8661],[96.9,8744],[96.9,8827],[96.9,8911],[96.9,8998],[96.9,9077],[96.9,9164],[96.9,9244],[96.9,9327],[96.9,9413],[96.9,9494],[96.9,9577],[96.9,9660],[96.9,9747],[96.9,9826],[96.9,9910],[96.9,9993],[96.9,10076],[96.9,10160],[96.9,10243],[96.9,10326],[96.9,10410],[96.9,10493],[96.9,10576],[96.9,10659],[96.9,10743],[96.9,10830],[96.9,10909],[96.9,10993],[96.9,11079],[96.9,11159],[96.9,11246],[96.9,11326],[96.9,11409],[96.9,11495],[96.9,11576],[96.9,11662],[96.9,11742],[96.9,11825],[96.9,11909],[96.9,11992],[96.9,12075],[96.9,12159],[96.9,12242],[96.9,12325],[96.9,12412],[96.9,12492],[96.9,12575],[96.9,12659],[96.9,12741],[96.9,12825],[96.9,12908],[96.9,12995],[96.9,13075],[96.9,13158],[96.9,13241]]",1379.7453,1385.9749,91.45833651,5.4965,"[{""rating"":91.45833651224773,""responseTime"":5.4965000000001965}]",space,5.6841,,1385.975,Partially,50,1385.9778,,,[],,0,1,1,1,1,audio/Narrative7Situation1.wav,audio/Narrative8Situation1.wav,audio/Narrative5Situation1.wav,audio/Narrative6Situation1.wav,2,5,5,2,,,,,,,,,,,,,,,,,,,,,,,,,,,,,,,,,,,,,,,
,,,,,66cd521c51d994c446abe4df,2025-07-08_03h22.30.154,group3.4_multiperson,2023.2.2,Win32,60.60606061,686c2ebf0248f13bef9af11f,686c8d6ac3bd20199dbf0fbf,,,,,,,,,,,,,,,,,,,,,,,,,,,,,1385.9785,2,audio/Narrative5Situation2.wav,1388.9895,,1388.9896,1418.459,"[[100,21573],[94.2,21658],[91.8,21740],[90.6,21820],[90,21906],[90,21986],[90.1,22073],[90.1,22153],[90.1,22236],[90.1,22319],[90.1,22402],[90.2,22486],[90.2,22569],[90.2,22652],[90.2,22739],[90.2,22819],[90.2,22902],[90.2,22985],[90.2,23072],[90.2,23152],[90.2,23238],[90.2,23318],[90.2,23402],[90.2,23485],[90.2,23568],[90.2,23654],[90.2,23735],[90.2,23818],[90.2,23902],[90.2,23985],[90.2,24068],[90.2,24152],[90.2,24234],[90.2,24321],[90.2,24401],[90.2,24484],[90.2,24567],[90.2,24651],[90.2,24734],[90.2,24817],[90.2,24901],[90.2,24984],[90.2,25067],[90.2,25151],[90.2,25234],[90.2,25320],[90.2,25404],[90.2,25484],[90.2,25567],[90.2,25654],[90.2,25737],[90.2,25817],[90.2,25900],[90.2,25983],[90.2,26067],[90.2,26150],[90.2,26233],[90.2,26320],[90.2,26400],[90.2,26486],[90.2,26566],[90.2,26650],[90.2,26737],[90.2,26816],[90.2,26900],[90.2,26986],[90.2,27070],[90.2,27153],[90.2,27236],[90.2,27316],[90.2,27399],[90.2,27482],[90.2,27566],[90.2,27652],[90.2,27732],[90.2,27818],[90.2,27901],[90.2,27982],[90.2,28065],[90.2,28149],[90.2,28235],[90.2,28315],[90.2,28402],[90.2,28483],[90.2,28565],[90.2,28649],[90.2,28732],[90.2,28815],[90.2,28898],[90.2,28982],[90.2,29065],[90.2,29148],[90.2,29231],[90.2,29318],[90.2,29398]]",1418.4592,1430.181,91.35416349,6.6227,"[{""rating"":91.35416348775227,""responseTime"":6.622700000047644}]",space,11.1614,,1430.181,Definitely yes,100,1430.1855,,,[],,0,2,2,2,1,audio/Narrative7Situation2.wav,audio/Narrative8Situation2.wav,audio/Narrative5Situation2.wav,audio/Narrative6Situation2.wav,3,3,3,3,,,,,,,,,,,,,,,,,,,,,,,,,,,,,,,,,,,,,,,
,,,,,66cd521c51d994c446abe4df,2025-07-08_03h22.30.154,group3.4_multiperson,2023.2.2,Win32,60.60606061,686c2ebf0248f13bef9af11f,686c8d6ac3bd20199dbf0fbf,,,,,,,,,,,,,,,,,,,,,,,,,,,,,1430.1859,2,audio/Narrative5Situation3.wav,1433.1993,,1433.1993,1447.1243,"[[999,0],[999,79],[999,163],[999,248],[999,333],[999,412],[999,496],[999,582],[999,662],[999,746],[999,829],[999,912],[999,998],[999,1079],[999,1165],[999,1245],[999,1329],[999,1412],[999,1498],[999,1578],[999,1664],[999,1745],[999,1828],[999,1914],[999,1995],[999,2078],[999,2164],[999,2245],[999,2328],[999,2411],[999,2495],[999,2581],[999,2661],[999,2748],[999,2827],[999,2911],[999,2994],[999,3077],[999,3163],[999,3244],[999,3327],[999,3411],[999,3494],[999,3580],[999,3663],[999,3747],[999,3827],[999,3910],[999,3994],[999,4080],[999,4160],[999,4243],[999,4327],[999,4410],[999,4496],[999,4576],[999,4660],[999,4743],[999,4826],[999,4910],[999,4993],[999,5076],[999,5163],[999,5247],[999,5326],[999,5409],[999,5493],[999,5576],[999,5659],[999,5742],[999,5829],[999,5909],[999,5992],[999,6076],[999,6161],[999,6242],[999,6325],[999,6409],[999,6492],[999,6575],[999,6662],[999,6742],[999,6825],[999,6909],[999,6992],[999,7075],[999,7158],[999,7241],[999,7328],[999,7408],[999,7491],[999,7575],[999,7661],[999,7741],[999,7825],[999,7908],[999,7991],[999,8074],[999,8158],[999,8241],[999,8324],[999,8408],[999,8491],[999,8576],[999,8657],[999,8741],[999,8827],[999,8907],[999,8994],[999,9076],[999,9157],[999,9240],[999,9324],[999,9410],[999,9493],[999,9574],[999,9657],[999,9745],[999,9823],[999,9906],[999,9990],[999,10073],[999,10156],[999,10240],[999,10326],[999,10406],[999,10489],[999,10573],[999,10656],[999,10739],[999,10823],[999,10906],[999,10989],[999,11072],[999,11156],[999,11239],[999,11322],[999,11406],[999,11489],[999,11576],[999,11655],[999,11739],[999,11822],[999,11905],[999,11989],[999,12072],[999,12155],[999,12242],[999,12322],[999,12408],[999,12488],[999,12572],[999,12658],[999,12739],[999,12822],[999,12905],[999,12988],[999,13071],[999,13157],[999,13238],[999,13321],[999,13404],[999,13488],[999,13574],[999,13654],[999,13738],[999,13824],[999,13908]]",1447.1245,1470.3396,77.60416667,22.0261,"[{""rating"":77.91666984558105,""responseTime"":8.8275000000001},{""rating"":17.291665077209473,""responseTime"":11.813000000000102},{""rating"":77.60416666666667,""responseTime"":22.026099999904545}]",space,22.6586,,1470.3398,Definitely yes,100,1470.3429,,,[],,0,3,3,3,1,audio/Narrative7Situation3.wav,audio/Narrative8Situation3.wav,audio/Narrative5Situation3.wav,audio/Narrative6Situation3.wav,8,4,3,5,,,,,,,,,,,,,,,,,,,,,,,,,,,,,,,,,,,,,,,
,,,,,66cd521c51d994c446abe4df,2025-07-08_03h22.30.154,group3.4_multiperson,2023.2.2,Win32,60.60606061,686c2ebf0248f13bef9af11f,686c8d6ac3bd20199dbf0fbf,,,,,,,,,,,,,,,,,,,,,,,,,,,,,1470.3434,2,audio/Narrative5Situation4.wav,1471.356,,1471.356,1491.7601,"[[57.3,11077],[71.3,11164],[92.7,11996],[100,12080],[100,12412],[100,12492],[100,12579],[100,12661],[100,12746],[100,12825],[100,12908],[100,12991],[100,13075],[100,13161],[100,13242],[100,13324],[100,13408],[100,13491],[100,13575],[100,13658],[100,13741],[100,13824],[100,13908],[100,13991],[100,14074],[100,14158],[100,14241],[100,14324],[100,14407],[100,14490],[100,14574],[100,14657],[100,14740],[100,14827],[100,14907],[100,14990],[100,15073],[100,15157],[100,15240],[100,15323],[100,15407],[100,15491],[100,15573],[100,15656],[100,15739],[100,15823],[100,15909],[100,15992],[100,16073],[100,16156],[100,16240],[98.4,16326],[95,16411],[94.1,16493],[94,16572],[94,16656],[94.5,16739],[94.6,16823],[94.7,16905],[95.8,16993],[95.8,17072],[95.8,17155],[95.8,17239],[95.9,17322],[95.9,17405],[95.9,17488],[95.9,17575],[95.9,17655],[95.9,17738],[95.9,17822],[95.9,17908],[95.9,17988],[95.9,18074],[95.9,18158],[95.9,18238],[95.9,18325],[95.9,18408],[95.9,18488],[95.4,18577],[94.6,18659],[93.5,18742],[93.1,18821],[92.6,18907],[92.5,18988],[92.5,19071],[92.5,19154],[92.5,19237],[92.5,19321],[92.5,19404],[92.5,19487],[92.5,19571],[92.5,19654],[92.5,19737],[92.5,19820],[92.5,19904],[92.5,19987],[92.5,20073],[92.5,20154],[92.5,20237],[92.5,20320],[92.5,20403]]",1491.7602,1500.9546,94.99999682,1.9912,"[{""rating"":94.99999682108562,""responseTime"":1.9912000000476837}]",space,8.6513,,1500.9547,Partially,50,1500.9592,,,[],,0,4,4,4,1,audio/Narrative7Situation4.wav,audio/Narrative8Situation4.wav,audio/Narrative5Situation4.wav,audio/Narrative6Situation4.wav,3,3,1,2,,,,,,,,,,,,,,,,,,,,,,,,,,,,,,,,,,,,,,,
,,,,,66cd521c51d994c446abe4df,2025-07-08_03h22.30.154,group3.4_multiperson,2023.2.2,Win32,60.60606061,686c2ebf0248f13bef9af11f,686c8d6ac3bd20199dbf0fbf,,,,,,,,,,,,,,,,,,,,,,,,,,,,,1500.9596,2,audio/Narrative5Situation5.wav,1505.9678,,1505.968,1521.3924,"[[999,0],[999,83],[999,166],[999,252],[999,333],[999,416],[999,503],[999,583],[999,665],[999,749],[999,835],[999,919],[999,999],[999,1082],[999,1169],[999,1249],[999,1332],[999,1415],[999,1499],[999,1582],[999,1668],[999,1748],[999,1835],[999,1915],[999,2001],[999,2082],[999,2168],[999,2251],[999,2331],[999,2414],[999,2498],[999,2581],[999,2664],[999,2748],[999,2831],[999,2915],[999,2998],[999,3081],[999,3167],[999,3248],[999,3330],[999,3414],[999,3497],[999,3581],[999,3667],[999,3750],[999,3831],[999,3914],[999,4001],[999,4080],[999,4163],[999,4247],[999,4330],[999,4417],[999,4497],[999,4580],[999,4663],[999,4746],[999,4834],[999,4913],[999,4996],[999,5080],[999,5163],[999,5250],[999,5330],[999,5413],[999,5496],[999,5579],[999,5663],[999,5746],[999,5829],[999,5913],[999,5996],[999,6079],[999,6165],[999,6249],[999,6329],[999,6412],[999,6499],[999,6582],[999,6662],[999,6745],[999,6828],[999,6915],[999,6995],[999,7078],[999,7162],[999,7245],[999,7331],[999,7412],[999,7498],[999,7578],[999,7661],[999,7745],[999,7831],[999,7911],[999,7995],[999,8078],[999,8161],[999,8247],[999,8328],[999,8411],[999,8494],[999,8578],[999,8661],[999,8744],[999,8827],[999,8911],[999,8994],[999,9077],[999,9163],[999,9244],[999,9327],[999,9410],[999,9494],[999,9580],[999,9660],[999,9743],[999,9826],[999,9913],[999,9996],[999,10077],[999,10160],[999,10243],[999,10326],[999,10410],[999,10496],[999,10576],[999,10663],[999,10743],[999,10826],[999,10909],[999,10992],[999,11076],[999,11159],[999,11242],[999,11326],[999,11409],[999,11492],[999,11576],[999,11659],[999,11745],[999,11825],[999,11912],[999,11992],[999,12075],[999,12159],[999,12245],[999,12328],[999,12412],[999,12492],[999,12575],[999,12659],[999,12741],[999,12825],[999,12908],[999,12991],[999,13075],[999,13158],[999,13241],[999,13325],[999,13408],[999,13495],[999,13581],[999,13658],[999,13741],[999,13824],[999,13911],[999,13991],[999,14077],[999,14157],[999,14241],[999,14324],[999,14408],[999,14490],[999,14574],[999,14657],[999,14740],[999,14824],[999,14907],[999,14990],[999,15074],[999,15157],[999,15243],[999,15323],[999,15407]]",1521.3926,1533.7676,17.81249841,10.7956,"[{""rating"":17.812498410542805,""responseTime"":10.795600000143168}]",space,11.8327,,1533.7677,Partially,50,1533.7709,,,[],,0,5,5,5,1,audio/Narrative7Situation5.wav,audio/Narrative8Situation5.wav,audio/Narrative5Situation5.wav,audio/Narrative6Situation5.wav,5,2,5,2,,,,,,,,,,,,,,,,,,,,,,,,,,,,,,,,,,,,,,,
,,,,,66cd521c51d994c446abe4df,2025-07-08_03h22.30.154,group3.4_multiperson,2023.2.2,Win32,60.60606061,686c2ebf0248f13bef9af11f,686c8d6ac3bd20199dbf0fbf,,,,,,,,,,,,,,,,,,,,,,,,,,,,,1533.7714,2,audio/Narrative5Situation6.wav,1536.7859,,1536.7859,1542.4624,"[[999,0],[999,83],[999,165],[999,249],[999,329],[999,413],[999,496],[999,582],[999,662],[999,746],[999,829],[999,912],[999,995],[999,1079],[999,1162],[999,1245],[999,1328],[999,1412],[999,1495],[999,1578],[999,1665],[999,1746],[999,1832],[999,1911],[999,1995],[999,2078],[999,2161],[999,2245],[999,2328],[999,2415],[999,2494],[999,2581],[999,2661],[999,2744],[999,2828],[999,2914],[999,2994],[999,3080],[999,3161],[999,3244],[999,3327],[999,3413],[999,3494],[999,3577],[999,3661],[999,3744],[999,3827],[999,3910],[999,3993],[999,4077],[999,4163],[999,4243],[999,4327],[999,4410],[999,4493],[999,4576],[999,4660],[999,4743],[999,4826],[999,4910],[999,4994],[999,5076],[999,5159],[999,5243],[999,5326],[999,5409],[999,5493],[999,5576],[999,5662]]",1542.4626,1554.2087,61.56249841,11.3244,"[{""rating"":61.56249841054281,""responseTime"":11.32439999985695}]",space,11.1979,,1554.2088,Definitely yes,100,1554.2131,,,[],,0,6,6,6,1,audio/Narrative7Situation6.wav,audio/Narrative8Situation6.wav,audio/Narrative5Situation6.wav,audio/Narrative6Situation6.wav,3,2,3,2,,,,,,,,,,,,,,,,,,,,,,,,,,,,,,,,,,,,,,,
,,,,,66cd521c51d994c446abe4df,2025-07-08_03h22.30.154,group3.4_multiperson,2023.2.2,Win32,60.60606061,686c2ebf0248f13bef9af11f,686c8d6ac3bd20199dbf0fbf,,,,,,,,,,,,,,,,,,,,,,,,,,,,,1554.2136,2,audio/Narrative5Situation7.wav,1558.2192,,1558.2193,1579.2595,"[[62.4,8498],[85.1,12413]]",1579.2597,1596.3299,80.31249841,11.1262,"[{""rating"":80.3124984105428,""responseTime"":11.126200000047675}]",space,16.5266,,1596.33,Not at all,0,1596.3349,,,[],,0,7,7,7,1,audio/Narrative7Situation7.wav,audio/Narrative8Situation7.wav,audio/Narrative5Situation7.wav,audio/Narrative6Situation7.wav,5,3,4,5,,,,,,,,,,,,,,,,,,,,,,,,,,,,,,,,,,,,,,,
,,,,,66cd521c51d994c446abe4df,2025-07-08_03h22.30.154,group3.4_multiperson,2023.2.2,Win32,60.60606061,686c2ebf0248f13bef9af11f,686c8d6ac3bd20199dbf0fbf,,,,,,,,,,,,,,,,,,,,,,,,,,,,,1596.3354,2,audio/Narrative5Situation8.wav,1599.3441,,1599.3441,1608.1586,[],1608.1588,1616.5502,7.916669051,6.2293,"[{""rating"":7.91666905085246,""responseTime"":6.229299999952445}]",space,7.861,,1616.5503,Partially,50,1616.5548,,,[],,0,8,8,8,1,audio/Narrative7Situation8.wav,audio/Narrative8Situation8.wav,audio/Narrative5Situation8.wav,audio/Narrative6Situation8.wav,2,3,3,5,,,,,,,,,,,,,,,,,,,,,,,,,,,,,,,,,,,,,,,
,,,,,66cd521c51d994c446abe4df,2025-07-08_03h22.30.154,group3.4_multiperson,2023.2.2,Win32,60.60606061,686c2ebf0248f13bef9af11f,686c8d6ac3bd20199dbf0fbf,,,,,,,,,,,,,,,,,,,,,,,,,,,,,1616.5553,2,audio/Narrative5Situation9.wav,1619.5653,,1619.5654,1659.1276,"[[86.1,9494],[79.6,10414],[73,10497],[70.8,10580],[72.2,10663],[74.4,10747],[77.6,10832],[79.1,10913],[79.4,10992],[79.5,11076],[81.5,11164],[81.8,11246],[81.8,11326],[81.8,11409],[81.8,11495],[81.8,11575],[81.8,11662],[81.8,11746],[81.9,11829],[81.9,11912],[81.9,11995],[81.9,12075],[81.9,12158],[81.9,12241],[81.9,12325],[81.9,12412],[81.9,12491],[81.9,12578],[81.9,12658],[81.9,12741],[81.9,12829],[90.9,13912],[93.9,13995],[93.9,14075],[92.4,14161],[91,14245],[90.5,14324],[90.4,14407],[90.3,14490],[90.2,14573],[90.2,14657],[90.2,14740],[90.2,14823],[90.2,14907],[90.2,14990],[90.1,15073],[90.1,15156],[90.1,15244],[90.1,15323],[90.1,15406],[90.1,15490],[86.6,15577],[84.6,15657],[84.5,15743],[84.5,15823],[84.5,15906],[84.4,15993],[84.4,16076],[84.4,16156],[85.3,16244],[86.4,16327],[87,16410],[87.2,16490],[87.4,16572],[87.5,16656],[87.7,16742],[87.7,16822],[86.9,16909],[86.6,16989],[86.6,17072],[86.6,17156],[86.6,17241],[86.6,17322],[86.6,17405],[86.6,17488],[86.6,17575],[86.6,17655],[86.6,17738],[86.6,17825],[86.6,17905],[94.2,17992],[100,18076],[100,18654],[99.8,18741],[93.9,18826],[92.5,18908],[92.4,18988],[92.3,19075],[92.3,19154],[92.3,19237],[92.3,19321],[92.3,19404],[92.3,19490],[92.3,19570],[92.3,19654],[92.3,19737],[92.3,19820],[92.3,19903],[92.3,19987],[92.3,20070],[92.3,20153],[92.3,20237],[92.3,20320],[92.3,20404],[92.3,20487],[92.3,20570],[92.3,20656],[92.3,20739],[92.3,20820],[92.3,20903],[92.3,20986],[92.3,21070],[92.3,21153],[92.3,21236],[92.3,21327],[92.3,21403],[92.3,21486],[92.3,21570],[92.3,21653],[92.3,21739],[92.3,21819],[92.3,21903],[92.3,21986],[92.3,22069],[92.3,22152],[92.3,22236],[92.3,22319],[92.3,22402],[92.3,22485],[92.3,22569],[92.3,22652],[92.3,22735],[92.3,22818],[92.3,22902],[92.3,22985],[92.3,23071],[92.3,23152],[92.3,23238],[92.3,23318],[92.3,23402],[92.3,23488],[92.3,23568],[92.3,23655],[92.3,23738],[92.3,23818],[92.3,23904],[92.3,23984],[92.3,24068],[92.3,24151],[92.3,24238],[92.3,24318],[92.3,24401],[92.3,24487],[92.3,24567],[92.3,24651],[92.3,24734],[92.3,24817],[92.3,24901],[92.3,24984],[92.3,25070],[92.3,25150],[92.3,25234],[92.3,25317],[92.3,25400],[92.3,25484],[92.3,25567],[92.3,25654],[92.3,25733],[92.3,25817],[92.3,25903],[92.3,25983],[92.3,26067],[92.3,26150],[92.3,26233],[92.3,26316],[92.3,26400],[92.3,26483],[91.9,26567],[89.7,26654],[92.3,27735],[92.5,27816],[93.2,27903],[94,27982],[94.1,28068],[94.2,28149],[94.2,28232],[94.2,28315],[94.2,28398],[94.2,28482],[94.2,28565],[94.2,28648],[94.2,28731],[94.2,28818],[94.2,28898],[94.2,28981],[94.2,29065],[94.2,29148],[94.2,29231],[94.2,29315],[94.2,29398],[94.2,29481],[94.2,29564],[94.2,29648],[94.2,29731],[94.2,29815],[94.2,29898],[94.2,29984],[94.2,30064],[94.2,30151],[94.2,30230],[94.2,30317],[94.2,30397],[94.2,30480],[94.2,30566],[94.2,30647],[94.2,30733],[94.2,30814],[94.2,30897],[94.2,30983],[94.2,31063],[94.2,31147],[94.2,31230],[94.2,31313],[94.2,31396],[94.2,31480],[94.2,31563],[94.2,31646],[94.2,31730],[94.2,31813],[94.2,31900],[94.2,31980],[94.2,32063],[94.2,32146],[94.2,32230],[94.2,32313],[94.2,32396],[94.2,32479],[94.2,32563],[94.2,32646],[94.2,32732],[94.2,32812],[94.2,32896],[94.2,32979],[94.2,33062],[94.2,33145],[94.2,33229],[94.2,33312],[94.2,33395],[94.2,33479],[94.2,33562],[94.2,33645],[94.2,33728],[94.2,33812],[94.2,33895],[94.2,33978],[94.2,34062],[90.8,34150]]",1659.1278,1669.1849,89.68750636,3.7081,"[{""rating"":89.68750635782878,""responseTime"":3.7081000001430766}]",space,9.512,,1669.1851,Definitely yes,100,1669.1894,,,[],,0,9,9,9,1,audio/Narrative7Situation9.wav,audio/Narrative8Situation9.wav,audio/Narrative5Situation9.wav,audio/Narrative6Situation9.wav,2,3,3,4,,,,,,,,,,,,,,,,,,,,,,,,,,,,,,,,,,,,,,,
,,,,,66cd521c51d994c446abe4df,2025-07-08_03h22.30.154,group3.4_multiperson,2023.2.2,Win32,60.60606061,686c2ebf0248f13bef9af11f,686c8d6ac3bd20199dbf0fbf,,,,,,,,,,,,,,,,,,,,,,,,,,,,,1669.1899,2,audio/Narrative6Situation1.wav,1671.2005,,1671.2006,1697.7846,"[[999,0],[999,99],[999,183],[999,266],[999,349],[999,432],[999,516],[999,599],[999,682],[999,765],[999,849],[999,932],[999,1015],[999,1098],[999,1182],[999,1265],[999,1348],[999,1431],[999,1515],[999,1598],[999,1682],[999,1765],[999,1848],[999,1931],[999,2015],[999,2098],[999,2181],[999,2264],[999,2348],[999,2431],[999,2514],[999,2598],[999,2681],[999,2764],[999,2847],[999,2931],[999,3014],[999,3097],[999,3180],[999,3264],[999,3347],[999,3430],[999,3514],[999,3597],[999,3680],[999,3763],[999,3847],[999,3930],[999,4013],[999,4097],[999,4180],[999,4263],[999,4347],[999,4430],[999,4513],[999,4596],[999,4680],[999,4763],[999,4847],[999,4929],[999,5013],[999,5096],[999,5179],[999,5263],[999,5346],[999,5429],[999,5512],[999,5596],[999,5679],[999,5762],[999,5845],[999,5929],[999,6012],[999,6095],[999,6179],[999,6262],[999,6345],[999,6429],[999,6512],[999,6595],[999,6679],[999,6762],[999,6845],[999,6929],[999,7011],[999,7095],[999,7178],[999,7261],[999,7345],[999,7428],[999,7511],[999,7595],[999,7678],[999,7761],[999,7844],[999,7927],[999,8011],[999,8094],[999,8177],[999,8261],[999,8344],[999,8428],[999,8510],[999,8594],[999,8677],[999,8761],[999,8844],[999,8927],[999,9010],[999,9094],[999,9177],[999,9260],[999,9343],[999,9427],[999,9510],[999,9593],[999,9676],[999,9760],[999,9843],[999,9926],[999,10010],[999,10093],[999,10176],[999,10259],[999,10343],[999,10426],[999,10509],[999,10593],[999,10676],[999,10759],[999,10842],[999,10925],[999,11009],[999,11092],[999,11176],[999,11259],[999,11342],[999,11426],[999,11509],[999,11592],[999,11675],[999,11759],[999,11842],[999,11925],[999,12008],[999,12092],[999,12175],[999,12258],[999,12342],[999,12425],[999,12508],[999,12591],[999,12674],[999,12758],[999,12841],[999,12924],[999,13008],[999,13091],[999,13174],[999,13258],[999,13341],[999,13424],[999,13508],[999,13591],[999,13674],[999,13758],[999,13841],[999,13924],[999,14007],[999,14091],[999,14174],[999,14258],[999,14341],[999,14424],[999,14507],[999,14590],[999,14673],[999,14757],[999,14841],[999,14925],[87.7,15007],[88.2,15090],[88.9,15173],[88.9,15257],[88.5,15340],[88.3,15423],[87.6,15507],[87.1,15590],[87.1,15673],[87.1,15756],[87.1,15839],[86.8,15923],[89.1,16007],[91.4,16089],[91.7,16172],[92,16257],[92.1,16339],[92.2,16423],[92.4,16506],[92.4,16589],[92.4,16672],[92.4,16756],[92.4,16839],[92.4,16922],[92.4,17005],[92.4,17089],[92.4,17172],[92.4,17255],[79.8,25500],[79.7,25584],[78.3,25667],[77,25750],[76.4,25833],[76.3,25917],[76.3,26000],[76.3,26083],[76.3,26166]]",1697.7848,1733.4642,73.02083174,34.448,"[{""rating"":59.895833333333336,""responseTime"":20.690599999904634},{""rating"":63.64583174387614,""responseTime"":22.07439999985695},{""rating"":73.02083174387613,""responseTime"":34.44800000000009}]",space,35.1326,,1733.4644,Partially,50,1733.4685,,,[],,0,10,10,10,1,audio/Narrative8Situation1.wav,audio/Narrative7Situation1.wav,audio/Narrative6Situation1.wav,audio/Narrative5Situation1.wav,5,2,2,5,,,,,,,,,,,,,,,,,,,,,,,,,,,,,,,,,,,,,,,
,,,,,66cd521c51d994c446abe4df,2025-07-08_03h22.30.154,group3.4_multiperson,2023.2.2,Win32,60.60606061,686c2ebf0248f13bef9af11f,686c8d6ac3bd20199dbf0fbf,,,,,,,,,,,,,,,,,,,,,,,,,,,,,1733.4689,2,audio/Narrative6Situation2.wav,1736.4772,,1736.4773,1764.993,"[[999,0],[999,86],[999,166],[999,249],[999,332],[999,419],[999,499],[999,585],[999,665],[999,749],[999,832],[999,915],[999,1002],[999,1082],[999,1165],[999,1248],[999,1332],[999,1415],[999,1498],[999,1585],[999,1665],[999,1748],[999,1831],[999,1915],[999,1998],[999,2081],[999,2164],[999,2248],[999,2331],[999,2415],[999,2500],[999,2584],[999,2664],[999,2747],[999,2831],[999,2917],[999,2997],[999,3080],[999,3164],[999,3247],[999,3331],[999,3414],[999,3497],[999,3584],[999,3663],[999,3747],[999,3830],[999,3913],[999,4000],[999,4080],[999,4163],[999,4247],[999,4330],[999,4413],[999,4497],[999,4580],[999,4666],[999,4746],[999,4833],[999,4916],[999,4996],[999,5080],[999,5166],[999,5246],[999,5333],[999,5412],[999,5499],[999,5582],[999,5663],[999,5749],[999,5832],[999,5915],[999,5996],[999,6079],[999,6162],[999,6248],[999,6329],[999,6412],[999,6499],[999,6583],[999,6665],[999,6750],[999,6832],[93,8328],[94.1,8415],[94.5,8498],[95.2,8582],[95.3,8660],[95.4,8747],[95.4,8831],[95.4,8910],[95.4,8994],[95.4,9077],[95.4,9161],[95.4,9247],[95.4,9327],[95.4,9413],[95.4,9493],[95.4,9576],[95.4,9660],[95.4,9743],[95.4,9827],[95.4,9910],[95.4,9993],[95.4,10077],[95.4,10160],[95.4,10247],[95.4,10326],[95.4,10413],[95.4,10493],[95.4,10579],[95.4,10662],[95.4,10743],[95.4,10826],[95.4,10909],[95.4,10992],[95.4,11076],[95.4,11162],[95.4,11242],[95.4,11326],[95.4,11409],[95.4,11492],[95.4,11579],[95.4,11659],[95.4,11742],[95.4,11825],[95.4,11909],[95.4,11995],[95.4,12075],[95.4,12158],[95.4,12242],[95.4,12325],[95.4,12408],[95.4,12491],[95.4,12575],[95.4,12658],[95.4,12741],[95.4,12825],[95.4,12908],[95.4,12991],[95.4,13074],[95.4,13158],[95.4,13241],[95.4,13327],[95.4,13408],[95.4,13491],[95.4,13574],[95.4,13657],[95.4,13744],[95.4,13824],[95.4,13907],[95.4,13995],[95.4,14074],[95.4,14157],[95.4,14243],[95.4,14332],[95.4,14407],[95.4,14490],[95.4,14574],[95.4,14657],[95.4,14743],[95.4,14824],[95.4,14907],[95.4,14994],[95.4,15073],[95.4,15157],[95.4,15240],[95.4,15323],[95.4,15406],[95.4,15490],[95.4,15573],[95.4,15656],[95.4,15739],[95.4,15823],[95.4,15906],[95.4,15989],[95.4,16073],[95.4,16156],[95.4,16239],[95.4,16322],[95.4,16406],[95.4,16489],[95.4,16573],[95.4,16656],[95.4,16739],[95.4,16822],[95.4,16905],[95.4,16989],[95.4,17072],[95.4,17155],[95.4,17239],[95.4,17326],[95.4,17405],[95.4,17488],[95.4,17572],[95.4,17655],[95.4,17738],[95.4,17822],[95.4,17908],[95.4,17988],[95.4,18072],[95.4,18155],[95.4,18241],[95.4,18321],[95.4,18405],[95.4,18488],[95.4,18571],[95.4,18654],[95.4,18738],[95.4,18821],[95.4,18904],[95.4,18987],[95.4,19071],[95.4,19154],[95.4,19237],[95.4,19321],[95.4,19404],[95.4,19487],[95.4,19571],[95.4,19654],[95.4,19737],[95.4,19820],[95.4,19904],[95.4,19987],[95.4,20070],[95.4,20153],[95.4,20237],[95.4,20323],[95.4,20403],[95.4,20487],[95.4,20570],[95.4,20653],[95.4,20740],[95.4,20823],[95.4,20903],[95.4,20986],[95.4,21070],[95.4,21153],[95.4,21240],[95.4,21320],[95.4,21406],[95.4,21486],[95.4,21570],[95.4,21653],[95.4,21736],[95.4,21819],[95.4,21902],[95.4,21986],[95.4,22069],[95.4,22152],[95.4,22236],[95.4,22319],[95.4,22402],[95.4,22486],[95.4,22568],[95.4,22652],[95.4,22735],[95.4,22818],[95.4,22902],[95.4,22985],[95.4,23068],[95.4,23155],[95.4,23235],[95.4,23318],[95.4,23402],[95.4,23485],[95.4,23568],[95.4,23651],[95.4,23735],[95.4,23818],[95.4,23901],[95.4,23985],[95.4,24068],[95.4,24151],[95.4,24234],[95.4,24317],[95.4,24401],[95.4,24484],[95.4,24568],[95.4,24651],[95.4,24734],[95.4,24817],[95.4,24904],[95.4,24984],[95.4,25067],[95.4,25150],[95.4,25237],[95.4,25317],[95.4,25400],[95.4,25483],[95.4,25571],[94.3,25655]]",1764.9932,1792.7297,79.37500477,26.2227,"[{""rating"":79.37500476837158,""responseTime"":26.22270000004778}]",space,27.1686,,1792.7297,Definitely yes,100,1792.7341,,,[],,0,11,11,11,1,audio/Narrative8Situation2.wav,audio/Narrative7Situation2.wav,audio/Narrative6Situation2.wav,audio/Narrative5Situation2.wav,3,3,3,3,,,,,,,,,,,,,,,,,,,,,,,,,,,,,,,,,,,,,,,
,,,,,66cd521c51d994c446abe4df,2025-07-08_03h22.30.154,group3.4_multiperson,2023.2.2,Win32,60.60606061,686c2ebf0248f13bef9af11f,686c8d6ac3bd20199dbf0fbf,,,,,,,,,,,,,,,,,,,,,,,,,,,,,1792.7347,2,audio/Narrative6Situation3.wav,1797.7395,,1797.7395,1810.3517,"[[999,0],[999,83],[999,166],[999,249],[999,333],[999,416],[999,499],[999,583],[999,666],[999,749],[999,832],[999,915],[999,999],[999,1082],[999,1165],[999,1249],[999,1335],[999,1415],[999,1503],[999,1584],[999,1670],[999,1751],[999,1831],[999,1915],[999,1998],[999,2085],[999,2168],[999,2248],[999,2332],[999,2415],[999,2498],[999,2585],[999,2668],[999,2752],[999,2835],[999,2918],[999,3002],[999,3085],[999,3168],[999,3251],[999,3335],[999,3418],[999,3501],[999,3581],[999,3668],[999,3748],[999,3835],[999,3917],[999,4000],[999,4084],[999,4165],[999,4252],[999,4334],[999,4414],[999,4498],[999,4580],[999,4663],[999,4747],[999,4834],[999,4913],[999,4996],[999,5080],[999,5163],[999,5246],[999,5333],[999,5413],[999,5496],[999,5579],[999,5663],[999,5746],[999,5829],[999,5913],[999,5996],[999,6079],[999,6162],[999,6245],[999,6329],[999,6412],[999,6499],[999,6579],[999,6665],[999,6745],[999,6828],[999,6912],[999,6995],[999,7079],[999,7162],[999,7245],[999,7328],[999,7412],[999,7495],[999,7578],[999,7661],[999,7745],[999,7828],[999,7912],[999,7994],[999,8078],[999,8164],[999,8248],[999,8327],[999,8411],[999,8494],[999,8577],[999,8661],[999,8744],[999,8827],[999,8911],[999,8994],[999,9077],[999,9160],[999,9244],[999,9327],[999,9410],[999,9494],[999,9577],[999,9661],[999,9743],[999,9827],[999,9910],[999,9993],[999,10080],[999,10160],[999,10243],[999,10330],[999,10410],[999,10493],[999,10576],[999,10659],[999,10743],[999,10826],[999,10909],[999,10993],[999,11076],[999,11159],[999,11242],[999,11326],[999,11409],[999,11496],[999,11576],[999,11659],[999,11742],[999,11826],[999,11909],[999,11992],[999,12075],[999,12159],[999,12242],[999,12325],[999,12408],[999,12492],[999,12575]]",1810.3518,1843.1784,78.125,31.8914,"[{""rating"":78.125,""responseTime"":31.891400000095246}]",space,32.2885,,1843.1785,Not at all,0,1843.1831,,,[],,0,12,12,12,1,audio/Narrative8Situation3.wav,audio/Narrative7Situation3.wav,audio/Narrative6Situation3.wav,audio/Narrative5Situation3.wav,4,8,5,3,,,,,,,,,,,,,,,,,,,,,,,,,,,,,,,,,,,,,,,
,,,,,66cd521c51d994c446abe4df,2025-07-08_03h22.30.154,group3.4_multiperson,2023.2.2,Win32,60.60606061,686c2ebf0248f13bef9af11f,686c8d6ac3bd20199dbf0fbf,,,,,,,,,,,,,,,,,,,,,,,,,,,,,1843.1834,2,audio/Narrative6Situation4.wav,1845.1969,,1845.1971,1857.8361,[],1857.8363,1949.7502,83.0208381,86.9831,"[{""rating"":83.02083810170491,""responseTime"":86.98310000014294}]",space,91.3779,,1949.7503,Partially,50,1949.7544,,,[],,0,13,13,13,1,audio/Narrative8Situation4.wav,audio/Narrative7Situation4.wav,audio/Narrative6Situation4.wav,audio/Narrative5Situation4.wav,3,3,2,1,,,,,,,,,,,,,,,,,,,,,,,,,,,,,,,,,,,,,,,
,,,,,66cd521c51d994c446abe4df,2025-07-08_03h22.30.154,group3.4_multiperson,2023.2.2,Win32,60.60606061,686c2ebf0248f13bef9af11f,686c8d6ac3bd20199dbf0fbf,,,,,,,,,,,,,,,,,,,,,,,,,,,,,1949.7549,2,audio/Narrative6Situation5.wav,1951.762,,1951.762,1959.7407,"[[59.3,5667],[63.2,5746],[65.1,5834],[67.8,5913],[69.8,6000],[70.1,6082],[70.2,6162],[70.2,6246],[70.2,6330],[70.2,6412],[67.8,6500],[61.5,6583],[58.4,6666],[57.9,6747],[57.9,6828],[57.9,6912],[57.9,6995],[56.9,7079],[41.8,7166],[39.4,7249],[39.4,7328],[39.4,7412],[39.4,7495],[39.4,7578],[39.4,7664],[39.4,7745],[39.4,7828],[39.4,7911]]",1959.7409,1964.1213,1.874999205,3.6429,"[{""rating"":1.8749992052714048,""responseTime"":3.6428999998565814}]",space,3.8362,,1964.1214,Partially,50,1964.1247,,,[],,0,14,14,14,1,audio/Narrative8Situation5.wav,audio/Narrative7Situation5.wav,audio/Narrative6Situation5.wav,audio/Narrative5Situation5.wav,2,5,2,5,,,,,,,,,,,,,,,,,,,,,,,,,,,,,,,,,,,,,,,
,,,,,66cd521c51d994c446abe4df,2025-07-08_03h22.30.154,group3.4_multiperson,2023.2.2,Win32,60.60606061,686c2ebf0248f13bef9af11f,686c8d6ac3bd20199dbf0fbf,,,,,,,,,,,,,,,,,,,,,,,,,,,,,1964.1253,2,audio/Narrative6Situation6.wav,1966.1366,,1966.1368,1977.2131,"[[2.1,2914],[31.8,3001],[54.8,3418],[56.5,3497],[56.5,3580],[56.5,3664],[60.1,3751],[86,4251],[91.9,4334],[92.7,4413],[92.7,4496],[92.7,4580],[92.7,4663],[92.7,4750],[92.7,4829],[92.7,4913],[92.7,4996],[92.8,5079],[92.8,5163],[92.8,5246],[92.8,5329],[92.8,5412],[92.8,5496],[92.8,5579],[92.8,5662],[92.8,5746],[92.8,5829],[92.8,5912],[92.8,5995],[92.8,6079],[92.8,6162],[92.8,6246],[92.8,6329],[92.8,6412],[93,6496],[97.5,6583],[92.9,8994],[92.7,9081],[92.7,9160],[92.7,9243],[92.7,9327],[92.7,9410],[92.7,9493],[92.7,9577],[92.7,9660],[92.7,9746],[92.7,9826],[92.7,9914],[92.7,9993],[92.7,10076],[92.7,10160],[92.7,10243],[92.7,10326],[92.7,10410],[92.7,10493],[92.7,10579],[92.7,10663]]",1977.2133,1981.6642,96.35416667,4.1615,"[{""rating"":96.35416666666667,""responseTime"":3.089700000047742},{""rating"":96.35416666666667,""responseTime"":3.850399999857018},{""rating"":96.35416666666667,""responseTime"":4.161499999999705}]",space,3.883,,1981.6642,Not at all,0,1981.6676,,,[],,0,15,15,15,1,audio/Narrative8Situation6.wav,audio/Narrative7Situation6.wav,audio/Narrative6Situation6.wav,audio/Narrative5Situation6.wav,2,3,2,3,,,,,,,,,,,,,,,,,,,,,,,,,,,,,,,,,,,,,,,
,,,,,66cd521c51d994c446abe4df,2025-07-08_03h22.30.154,group3.4_multiperson,2023.2.2,Win32,60.60606061,686c2ebf0248f13bef9af11f,686c8d6ac3bd20199dbf0fbf,,,,,,,,,,,,,,,,,,,,,,,,,,,,,1981.6681,2,audio/Narrative6Situation7.wav,1986.677,,1986.6771,2011.526,"[[83.6,1000],[61,1083],[20.6,1500],[16.8,1582],[16.8,1662],[16.8,1748],[16.8,1829],[6.6,1916],[5.8,1995],[5.8,2078],[5.8,2162],[5.8,2245],[5.8,2331],[7.6,2416],[10.8,2499],[12.8,2582],[13.1,2666],[13.8,2748],[13.9,2832],[13.9,2911],[13.9,2994],[13.9,3078],[13.9,3161],[13.9,3244],[13.9,3327],[13.9,3411],[13.9,3494],[13.9,3577],[13.9,3661],[13.9,3744],[13.9,3827],[13.9,3911],[15.6,3994],[49.3,4581],[49.3,4660],[49.3,4743],[60.2,4831],[74.2,4915],[74.7,4993],[74.7,5076],[74.7,5160],[74.7,5247],[79.7,5331],[89.7,5410],[99.2,6493],[97.5,6580],[97.2,6663],[97,6746],[97,6826],[96.9,6909],[96.4,6992],[95.5,7076],[95.4,7159],[95.4,7242],[95.4,7325],[95.4,7409],[95.4,7492],[95.3,7575],[95.3,7658],[95.3,7745],[95.3,7825],[95.3,7908],[95.3,7991],[95.3,8078],[95.3,8158],[95.3,8241],[95.3,8324],[95.3,8408],[95.3,8495],[95.3,8575],[95.3,8657],[95.3,8741],[95.3,8824],[95.3,8911],[95.3,8991],[95.3,9074],[95.3,9157],[95.3,9244],[95.3,9327],[94.9,9411]]",2011.5262,2026.2536,84.375,13.2656,"[{""rating"":84.375,""responseTime"":13.265600000143422}]",space,14.1852,,2026.2537,Partially,50,2026.2581,,,[],,0,16,16,16,1,audio/Narrative8Situation7.wav,audio/Narrative7Situation7.wav,audio/Narrative6Situation7.wav,audio/Narrative5Situation7.wav,3,5,5,4,,,,,,,,,,,,,,,,,,,,,,,,,,,,,,,,,,,,,,,
,,,,,66cd521c51d994c446abe4df,2025-07-08_03h22.30.154,group3.4_multiperson,2023.2.2,Win32,60.60606061,686c2ebf0248f13bef9af11f,686c8d6ac3bd20199dbf0fbf,,,,,,,,,,,,,,,,,,,,,,,,,,,,,2026.2586,2,audio/Narrative6Situation8.wav,2031.2636,,2031.2636,2038.1424,"[[999,0],[999,82],[999,166],[999,249],[999,335],[999,416],[999,499],[999,582],[999,669],[999,753],[999,832],[999,915],[999,999],[999,1085],[999,1169],[999,1253],[999,1336],[999,1419],[999,1501],[999,1581],[999,1665],[999,1748],[999,1831],[999,1914],[999,1998],[999,2081],[999,2164],[999,2248],[999,2331],[999,2414],[999,2498],[999,2581],[999,2664],[999,2747],[999,2831],[999,2914],[999,2997],[999,3081],[999,3164],[999,3250],[999,3330],[999,3417],[999,3497],[999,3580],[999,3664],[999,3747],[999,3830],[999,3913],[999,3997],[999,4084],[999,4164],[999,4247],[999,4330],[999,4413],[999,4500],[999,4583],[999,4663],[999,4746],[999,4829],[999,4913],[999,4996],[999,5079],[999,5163],[999,5249],[999,5332],[999,5416],[999,5496],[999,5579],[999,5662],[999,5746],[999,5829],[999,5912],[999,5995],[999,6082],[999,6162],[999,6245],[999,6332],[999,6412],[999,6496],[999,6578],[999,6662],[999,6745],[999,6832]]",2038.1426,2054.7356,1.5625,9.5892,"[{""rating"":1.5625,""responseTime"":6.815200000047753},{""rating"":1.5625,""responseTime"":9.13070000004791},{""rating"":1.5625,""responseTime"":9.372700000047644},{""rating"":1.5625,""responseTime"":9.58920000004764}]",space,16.0423,,2054.7356,Not at all,0,2054.7393,,,[],,0,17,17,17,1,audio/Narrative8Situation8.wav,audio/Narrative7Situation8.wav,audio/Narrative6Situation8.wav,audio/Narrative5Situation8.wav,3,2,5,3,,,,,,,,,,,,,,,,,,,,,,,,,,,,,,,,,,,,,,,
,,,,,66cd521c51d994c446abe4df,2025-07-08_03h22.30.154,group3.4_multiperson,2023.2.2,Win32,60.60606061,686c2ebf0248f13bef9af11f,686c8d6ac3bd20199dbf0fbf,,,,,,,,,,,,,,,,,,,,,,,,,,,,,2054.7397,2,audio/Narrative6Situation9.wav,2058.7467,,2058.7469,2068.7072,"[[3,8831],[0.4,8915],[0.9,9248],[1.1,9327],[1.4,9410],[1.4,9493],[1.4,9580],[1.4,9660],[1.4,9743],[1.4,9827],[1.4,9910]]",2068.7074,2074.3745,3.125,3.28,"[{""rating"":3.125,""responseTime"":3.2800000000002}]",space,5.1186,,2074.3747,Not at all,0,2079.717,0.625002384,4.0349,"[{""rating"":0.625002384185791,""responseTime"":4.034900000095604}]",space,0,18,18,18,1,audio/Narrative8Situation9.wav,audio/Narrative7Situation9.wav,audio/Narrative6Situation9.wav,audio/Narrative5Situation9.wav,3,2,4,3,,,4.8004,,,,,,,,,,,,,,,,,,,,,,,,,,,,,,,,,,,,
,,,,,66cd521c51d994c446abe4df,2025-07-08_03h22.30.154,group3.4_multiperson,2023.2.2,Win32,60.60606061,686c2ebf0248f13bef9af11f,686c8d6ac3bd20199dbf0fbf,,,,,,,,,,,,,,,,,,,,,,,,,,,,,,,,,,,,,,,,,,,,,,,,,,,,,,,,,,,,,,,,,,,,,,2079.7173,2091.7766,space,11.5282,,2091.7769,2153.0564,space,60.9516,,,,,,,,,,,,,,,,,,,,,,,,,,
,,,,,66cd521c51d994c446abe4df,2025-07-08_03h22.30.154,group3.4_multiperson,2023.2.2,Win32,60.60606061,686c2ebf0248f13bef9af11f,686c8d6ac3bd20199dbf0fbf,,,,,,,,,,,,,,,,,,,,,,,,,,,,,2155.6589,1,audio/Narrative8Situation9.wav,2157.6698,,,,,2189.6337,2193.4146,2.604166667,0.5073,"[{""rating"":2.6041666666666687,""responseTime"":0.5072999999524654}]",space,3.2314,,2193.4147,Definitely yes,100,2193.4189,,,[],,,,,,,,,,,2,2,2,2,,,,,,,,,,,,,,,2153.0596,2155.6379,2157.6704,3,2189.6335,"[[999,1],[999,98],[999,182],[999,265],[999,351],[999,431],[999,515],[999,598],[999,681],[999,764],[999,848],[999,931],[999,1014],[999,1098],[999,1181],[999,1265],[999,1348],[999,1431],[999,1516],[999,1597],[999,1681],[999,1767],[999,1851],[999,1931],[999,2014],[999,2097],[999,2180],[999,2266],[999,2350],[999,2430],[999,2514],[999,2597],[999,2684],[999,2765],[999,2847],[999,2933],[999,3013],[999,3100],[999,3180],[999,3263],[999,3347],[999,3430],[999,3513],[999,3596],[999,3679],[999,3766],[999,3846],[999,3929],[999,4012],[999,4099],[999,4179],[999,4262],[999,4349],[999,4429],[999,4512],[999,4596],[999,4682],[999,4762],[999,4846],[999,4932],[999,5012],[999,5095],[999,5178],[999,5262],[999,5347],[999,5432],[999,5512],[999,5595],[999,5678],[999,5762],[999,5845],[999,5928],[999,6014],[999,6095],[999,6178],[999,6262],[7.9,7182],[10.2,7261],[10.3,7344],[10.3,7427],[10.3,7510],[10.3,7594],[10.3,7677],[10.3,7760],[10.3,7847],[10.3,7927],[10.3,8010],[10.3,8096],[10.3,8177],[10.3,8263],[10.3,8343],[9.1,8431],[9,8513],[8,8598],[5.8,8681],[5.6,8760],[5.5,8844],[5.5,8930],[5.5,9010],[5.5,9093],[4.9,9180],[3.3,9264],[3.2,9343],[3.2,9426],[2.7,9515],[1.8,9597],[1.8,9676],[1.8,9759],[1.8,9842],[1.8,9925],[1.8,10009],[1.8,10096],[1.8,10175],[1.8,10259],[1.8,10342],[1.8,10425],[1.8,10509],[1.8,10592],[1.8,10675],[1.6,31430],[2.4,31513],[2.6,31596],[2.6,31679],[2.6,31762],[2.6,31846],[2.6,31929]]",0,0,0,0,1,"Larry had recently lost his family, job and home, and was now living on his own in the park. He had most of his belongings, including some clothes, a blanket, and his mother’s special necklace. His family had been very important to him and he felt as though he did not have much going for him. One of his first days in the park he came across a family that did not have much food and looked very cold. He decided to give them some of his food and his blanket.","Larry had recently lost his family, job and home, and was now living on his own in the park. He had most of his belongings, including some clothes, a blanket, and his mother’s special necklace. His family had been very important to him and he felt as though he did not have much going for him. One of his first days in the park he came across a family that did not have much food and looked very cold. He decided to give them some of his food and his blanket.","Larry had recently lost his family, job and home, and was now living on his own in the park. He had most of his belongings, including some clothes, a blanket, and his mother’s special necklace. His family had been very important to him and he felt as though he did not have much going for him. One of his first days in the park he came across a family that did not have much food and looked very cold. He decided to give them some of his food and his blanket.","Larry had recently lost his family, job and home, and was now living on his own in the park. He had most of his belongings, including some clothes, a blanket, and his mother’s special necklace. His family had been very important to him and he felt as though he did not have much going for him. One of his first days in the park he came across a family that did not have much food and looked very cold. He decided to give them some of his food and his blanket.",,,,,,,,,,
,,,,,66cd521c51d994c446abe4df,2025-07-08_03h22.30.154,group3.4_multiperson,2023.2.2,Win32,60.60606061,686c2ebf0248f13bef9af11f,686c8d6ac3bd20199dbf0fbf,,,,,,,,,,,,,,,,,,,,,,,,,,,,,2193.4197,1,audio/Narrative8Situation9.wav,2196.2294,space,,,,2229.8756,2253.0822,3.958332539,17.8416,"[{""rating"":3.9583325386047363,""responseTime"":17.84160000014299}]",space,22.6689,,2253.0823,Definitely yes,100,2253.0844,,,[],,,,,,,,,,,6,2,3,9,2.7832,,,,,,,,,,,,,,,,2196.2297,3,2229.8754,"[[999,1],[999,82],[999,165],[999,249],[999,332],[999,415],[999,499],[999,582],[999,668],[999,748],[999,832],[999,915],[999,999],[999,1082],[999,1168],[999,1248],[999,1331],[999,1415],[999,1498],[999,1581],[999,1665],[999,1751],[999,1831],[999,1914],[999,1998],[999,2081],[999,2167],[999,2248],[999,2334],[999,2414],[999,2497],[999,2581],[999,2664],[999,2747],[999,2831],[999,2918],[999,3001],[999,3080],[999,3163],[999,3247],[999,3330],[999,3430],[999,3513],[999,3596],[999,3680],[999,3763],[999,3847],[999,3930],[999,4013],[999,4097],[999,4180],[999,4263],[999,4346],[999,4430],[999,4513],[999,4596],[999,4679],[999,4763],[999,4846],[999,4929],[999,5013],[999,5096],[999,5179],[999,5262],[999,5345],[999,5429],[999,5512],[999,5596],[999,5679],[999,5762],[999,5845],[999,5929],[999,6012],[999,6095],[999,6179],[999,6262],[999,6345],[999,6428],[999,6512],[999,6595],[999,6678],[999,6761],[999,6845],[999,6928],[999,7011],[999,7095],[999,7178],[999,7261],[999,7344],[999,7428],[999,7511],[999,7594],[999,7678],[999,7761],[999,7844],[999,7927],[999,8010],[999,8094],[999,8178],[999,8261],[999,8344],[999,8427],[999,8510],[999,8594],[999,8681],[999,8760],[999,8843],[999,8927],[999,9010],[999,9093],[999,9177],[999,9260],[999,9345],[999,9427],[999,9510],[999,9596],[999,9677],[999,9763],[999,9843],[999,9926],[999,10013],[999,10093],[999,10176],[999,10259],[999,10343],[999,10426],[999,10509],[999,10592],[999,10676],[999,10759],[999,10842],[999,10925],[999,11012],[999,11095],[999,11175],[999,11262],[999,11345],[999,11425],[999,11508],[999,11592],[999,11679],[999,11761],[999,11842],[999,11925],[999,12008],[999,12095],[999,12177],[999,12258],[999,12342],[999,12425],[999,12508],[999,12594],[999,12675],[999,12761],[999,12841],[999,12924],[999,13011],[999,13096],[999,13178],[999,13258],[999,13341],[999,13446],[999,13524],[999,13607],[999,13691],[22.4,13774],[22.7,13857],[22.7,13940],[22.7,14024],[22.7,14107],[22.7,14190],[22.7,14273],[22.7,14357],[22.7,14440],[22.7,14523],[22.7,14606],[22.7,14690],[22.7,14773],[22.7,14856],[22.7,14940],[22.7,15023],[22.7,15106],[22.7,15190],[22.7,15273],[22.7,15356],[22.7,15439],[22.7,15523],[22.7,15606],[22.7,15689],[22.7,15773],[22.7,15856],[22.7,15939],[22.7,16023],[22.7,16105],[22.7,16189],[22.7,16272],[22.7,16356],[22.7,16439],[22.7,16522],[22.7,16605],[22.7,16689],[22.7,16772],[22.7,16855],[22.7,16939],[22.7,17022],[22.7,17105],[22.7,17188],[22.7,17272],[22.7,17355],[22.7,17438],[22.7,17522],[22.7,17605],[22.7,17688],[22.7,17771],[22.7,17855],[22.7,17938],[22.7,18021],[22.7,18104],[22.7,18188],[22.7,18271],[22.7,18354],[22.7,18438],[22.7,18521],[22.7,18604],[22.7,18688],[22.7,18771],[22.7,18854],[22.7,18937],[22.7,19021],[22.7,19104],[22.7,19187],[22.7,19270],[22.7,19354],[22.7,19437],[22.7,19520],[22.7,19604],[22.7,19687],[22.7,19770],[22.7,19853],[22.7,19937],[22.7,20020],[22.7,20103],[22.7,20187],[22.7,20270],[22.7,20353],[22.7,20436],[22.7,20520],[22.7,20603],[22.7,20686],[22.7,20769],[22.7,20853],[22.7,20936],[22.7,21019],[22.7,21102],[22.7,21186],[22.7,21269],[22.7,21352],[22.7,21436],[22.7,21519],[22.7,21603],[22.7,21686],[22.7,21769],[22.7,21852],[22.7,21936],[22.7,22019],[22.7,22102],[22.7,22185],[22.7,22268],[22.7,22352],[22.7,22435],[22.7,22519],[22.7,22602],[22.7,22685],[22.7,22768],[22.7,22852],[22.7,22935],[22.7,23018],[22.7,23102],[22.7,23184],[22.7,23268],[22.7,23351],[22.7,23435],[22.7,23518],[22.7,23601],[22.7,23684],[22.7,23768],[22.7,23851],[22.7,23934],[22.7,24018],[22.7,24101],[22.5,24185],[22.1,24268],[22,24351],[22,24434],[22,24517],[22,24601],[22,24684],[22,24767],[22,24851],[22,24934],[22,25017],[21.9,25101],[23.6,25184],[24.5,25267]]",0,1,1,1,1,"It was just another Sunday afternoon for Lucy, she was on her way to the farmer's market to pick up some produce. When she arrived at the old train depot that housed the market, she noticed two men fighting on the steps. Before she could call for help, one of the men crumpled to his knees. The other man dropped an object that appeared to be a knife and ran off. When Lucy approached the crime scene she realized that the man who had been murdered was the Mayor and that he had a gunshot wound.","One day at work, Margaret walked up to her partner, Al, to ask him to talk to the chief of staff at the local hospital where she worked as a nurse.","Luke always thought of himself as an honest man. That's why during his evening jog around the swamp, he pondered his recent affair with the receptionist at work. Luke looked up at the sky and asked God why he was so weak and unfaithful. He thought of the impact this would have on his family and told God of his conflicted feelings toward telling his wife Marta.","Linda and Amy had been best friends since kindergarten, they even found homes on the same street in the forest on the edge of town. Their biggest fight had been over who gets the bigger slice of cake, until Amy married Dan. Linda loathed Dan, she thought he was manipulative and had a violent temper. She only put up with him because Amy loved him. ",,,,,,,,,,
,,,,,66cd521c51d994c446abe4df,2025-07-08_03h22.30.154,group3.4_multiperson,2023.2.2,Win32,60.60606061,686c2ebf0248f13bef9af11f,686c8d6ac3bd20199dbf0fbf,,,,,,,,,,,,,,,,,,,,,,,,,,,,,2253.0848,1,audio/Narrative8Situation9.wav,2257.0955,,,,,2275.6478,2281.2142,98.12499682,3.6406,"[{""rating"":98.12499682108562,""responseTime"":3.64059999990468}]",space,5.0302,,2281.2144,Definitely yes,100,2281.2169,,,[],,,,,,,,,,,4,5,2,2,,,,,,,,,,,,,,,,,2257.0955,3,2275.6477,"[[999,0],[999,99],[999,179],[999,262],[999,346],[999,429],[999,516],[999,595],[999,679],[999,762],[999,845],[999,928],[999,1012],[999,1095],[999,1178],[999,1262],[999,1348],[999,1428],[999,1512],[999,1599],[999,1678],[999,1762],[999,1845],[999,1928],[999,2014],[999,2094],[999,2178],[999,2264],[999,2344],[999,2428],[999,2511],[999,2594],[999,2678],[999,2761],[999,2844],[999,2927],[999,3011],[999,3098],[999,3177],[999,3261],[999,3344],[999,3427],[999,3510],[999,3594],[999,3681],[999,3764],[999,3847],[999,3927],[999,4010],[999,4093],[999,4181],[999,4264],[999,4347],[999,4430],[999,4510],[999,4593],[999,4676],[999,4764],[999,4847],[999,4930],[999,5013],[4.5,5098],[5.6,5181],[6.1,5263],[6.3,5345],[6.3,5429],[6.3,5509],[6.3,5596],[6.3,5676],[6.3,5759],[6.3,5842],[6.3,5926],[6.3,6012],[6.3,6092],[6.3,6179],[6.3,6259],[6.3,6342],[6.3,6425],[6.3,6508],[6.3,6596],[6.3,6675],[6.3,6758],[6.3,6841],[6.3,6928],[6.3,7008],[6.3,7092],[6.3,7175],[6.3,7258],[6.3,7341],[6.3,7425],[6.3,7508],[6.3,7591],[6.3,7677],[6.3,7758],[6.3,7841],[6.3,7924],[6.3,8011],[6.3,8095],[6.3,8174],[15.5,8262],[45.5,8346],[48.3,8428],[48.3,8507],[48.3,8591],[48.3,8674],[48.3,8757],[48.3,8840],[49.3,8924],[51,9011],[53.1,9094],[55.4,9191],[57.8,9279],[58.2,9357],[58.9,9445],[60.1,9528],[62.5,9611],[66.7,9694],[71.6,9778],[72.4,9856],[72.4,9943],[72.4,10023],[72.4,10110],[72.4,10193],[78,10278],[82.8,10361],[83.2,10442],[83.3,10523],[83.3,10606],[83.3,10689],[83.3,10773],[83.3,10856],[83.3,10939],[83.3,11022],[83.3,11106],[83.3,11189],[83.3,11275],[83.3,11355],[83.3,11439],[83.3,11524],[83.3,11609],[83.3,11689],[83.3,11775],[83.3,11859],[83.3,11939],[83.3,12025],[83.3,12108],[83.3,12188],[83.3,12272],[83.3,12355],[83.3,12438],[83.3,12522],[83.3,12608],[85.6,12709],[88.9,12793],[90.3,12876],[90.4,12955],[90.5,13038],[90.5,13121],[91.1,13209],[93.6,13292],[94.6,13376],[95,13455],[96,13543],[96.4,13621],[96.5,13704],[96.6,13788],[96.6,13871],[96.6,13957],[96.6,14038],[96.6,14121],[96.6,14204],[96.6,14290],[96.6,14370],[96.6,14454],[96.6,14537],[96.6,14620],[96.6,14707],[96.6,14790],[96.6,14874],[96.6,14953],[96.6,15037],[96.6,15120],[96.6,15204],[96.6,15286],[96.1,15370],[94.2,15458],[93.9,15540],[93.9,15620],[93.9,15703],[93.9,15786],[93.9,15870],[93.9,15956],[93.9,16036],[93.9,16119],[93.9,16203],[93.9,16286],[93.9,16369],[93.9,16453],[93.9,16539],[93.9,16619],[93.9,16706],[93.9,16786],[93.9,16872],[93.9,16952],[93.9,17039],[93.9,17119],[93.9,17205],[93.9,17288],[93.9,17368],[93.9,17452],[93.9,17538],[93.9,17622],[92.2,17702],[90.2,17791],[89.5,17873],[89.3,17955],[89.3,18035],[89.3,18118],[90.3,18202],[91.5,18289],[91.7,18368],[91.7,18451],[91.9,18534]]",0,2,2,2,1,On the ground beside him was a pen that she had mistaken for a knife. Lucy looked for the gunman and saw a suspicious man in black with distinct pointy features darting into an alley across the street. Cops who were nearby chased the man who had fled and arrested him.,"While waiting outside the chief of staff's office, Al heard nondescript shouting and yelling, there was a loud clatter in the room and then an eerie silence. An unfamiliar employee ran hastily out of the office with a terrified look on their face.","Suddenly, Luke heard a woman call out his name and when he turned around he saw Carly, his receptionist, across the road with a gun in her hand. Carly ran to him and explained how she had followed him here to confess her love. She exclaimed if Luke didn't love her back that she would kill him and his family. Carly explained that the only way they could be together is to kill Marta.","This feeling of hate between Amy and Dan was mutual, Dan didn't like how much time his wife spent with her and thought Amy was creating distance between their marriage. That's why Dan decided to try and tarnish Linda's reputation with his wife, in hopes it would get rid of her. He came home one afternoon and exclaimed that Linda had tried to kiss him. Amy was taken aback and immediately called Linda to confront her about these accusations. When Linda arrived she denied having made a move on Dan, but discovered Dan had enlisted the help of his friend Will who said he witnessed it all happen.",,,,,,,,,,
,,,,,66cd521c51d994c446abe4df,2025-07-08_03h22.30.154,group3.4_multiperson,2023.2.2,Win32,60.60606061,686c2ebf0248f13bef9af11f,686c8d6ac3bd20199dbf0fbf,,,,,,,,,,,,,,,,,,,,,,,,,,,,,2281.2174,1,audio/Narrative8Situation9.wav,2283.2261,,,,,2295.119,2307.2947,95.3125,11.1578,"[{""rating"":17.708333333333332,""responseTime"":8.238299999952233},{""rating"":95.3125,""responseTime"":11.157799999952204}]",space,11.6284,,2307.2949,Partially,50,2307.2982,,,[],,,,,,,,,,,2,2,1,4,,,,,,,,,,,,,,,,,2283.2262,3,2295.1187,"[[999,0],[999,82],[999,170],[999,249],[999,332],[999,418],[999,501],[999,582],[999,666],[999,749],[999,832],[999,916],[999,999],[999,1082],[999,1165],[999,1251],[999,1332],[999,1415],[999,1498],[999,1582],[999,1665],[999,1748],[999,1835],[999,1915],[999,1998],[999,2081],[999,2165],[999,2248],[999,2331],[999,2414],[999,2498],[999,2581],[999,2667],[999,2748],[999,2834],[999,2914],[999,2998],[999,3084],[999,3164],[999,3251],[999,3333],[999,3431],[999,3514],[999,3597],[999,3681],[999,3764],[74.6,3847],[74.3,3930],[74.3,4013],[74.3,4096],[74.3,4180],[74.3,4263],[74.3,4346],[74.3,4430],[74.3,4513],[74.3,4596],[74.3,4680],[74.3,4763],[74.3,4846],[74.3,4930],[74.3,5013],[74.2,5096],[73.4,5180],[72.5,5264],[71.6,5346],[71.6,5429],[71.6,5513],[71.6,5596],[71.6,5679],[71.6,5762],[71.6,5845],[71.6,5929],[71.5,6013],[71.5,6096],[71.4,6179],[71.4,6262],[71.3,6345],[71.3,6429],[71.3,6512],[71.3,6595],[70.8,6679],[70.1,6762]]",0,3,3,3,1,"But Lucy knew the charged man was innocent, which meant the killer was free. Lucy vowed to find out who the real murderer was and to stop him at all costs.","Al explained to the chief of staff that Margaret wanted to be excused from her absences last week. The chief of staff, Susan, revealed that she wanted to fire Margaret and never see her again. Susan and Al had been having an affair and she wanted Margaret ""out of the picture"". Al was conflicted, but agreed it would be for the best.","Luke thought of his child and felt like this was his only option. He agreed to the plan and called his wife to meet him at the swamp to watch the sunset with him. When she arrived, Marta called out for her husband, but found Carly waiting for her. She immediately drew her gun and shot her in the chest, knocking her unconscious.","Since it was their word against her own, she decided to go home and admit defeat. She knew how much it would hurt Amy to know the truth.",,,,,,,,,,
,,,,,66cd521c51d994c446abe4df,2025-07-08_03h22.30.154,group3.4_multiperson,2023.2.2,Win32,60.60606061,686c2ebf0248f13bef9af11f,686c8d6ac3bd20199dbf0fbf,,,,,,,,,,,,,,,,,,,,,,,,,,,,,2307.2987,1,audio/Narrative8Situation9.wav,2308.3105,,,,,2337.9102,2364.3309,90.31249682,25.0284,"[{""rating"":69.0625031789144,""responseTime"":12.312600000142993},{""rating"":90.31249682108562,""responseTime"":25.028400000095644}]",space,25.8822,,2364.3311,Definitely yes,100,2364.3355,,,[],,,,,,,,,,,1,1,3,3,,,,,,,,,,,,,,,,,2308.3106,3,2337.91,"[[999,0],[999,83],[999,166],[999,249],[999,332],[999,416],[999,499],[999,582],[999,669],[999,749],[999,835],[999,916],[999,1002],[999,1085],[999,1169],[999,1249],[999,1332],[999,1415],[999,1499],[999,1582],[999,1665],[999,1748],[999,1832],[999,1915],[999,2001],[999,2084],[999,2165],[999,2248],[999,2331],[999,2415],[999,2498],[999,2585],[999,2664],[999,2748],[999,2831],[999,2914],[999,3001],[999,3081],[999,3164],[999,3247],[999,3334],[999,3414],[999,3497],[999,3581],[999,3664],[999,3747],[999,3834],[999,3914],[999,3997],[999,4083],[999,4167],[999,4247],[999,4330],[999,4414],[999,4500],[999,4580],[999,4663],[999,4750],[999,4830],[999,4916],[999,4996],[999,5080],[999,5163],[999,5246],[999,5329],[999,5413],[999,5496],[999,5579],[999,5663],[999,5749],[999,5829],[999,5915],[999,5996],[999,6082],[999,6163],[999,6249],[999,6329],[999,6412],[999,6495],[999,6579],[999,6662],[999,6748],[999,6828],[999,6915],[999,6995],[999,7079],[999,7162],[999,7245],[999,7328],[999,7412],[999,7495],[999,7578],[999,7661],[999,7745],[999,7828],[999,7911],[999,7994],[999,8078],[999,8161],[999,8244],[999,8327],[999,8411],[999,8494],[999,8578],[999,8661],[999,8744],[999,8830],[999,8911],[999,8994],[999,9077],[999,9161],[999,9247],[999,9327],[999,9411],[999,9494],[999,9580],[999,9660],[999,9747],[999,9827],[999,9910],[999,9993],[999,10082],[999,10163],[999,10243],[999,10326],[999,10410],[999,10493],[999,10577],[999,10660],[999,10743],[999,10826],[999,10913],[999,10993],[999,11076],[999,11159],[999,11242],[999,11326],[999,11409],[999,11492],[999,11576],[999,11664],[999,11745],[999,11829],[999,11909],[999,11992],[999,12075],[999,12159],[999,12242],[999,12326],[999,12409],[999,12492],[999,12575],[999,12658],[999,12742],[999,12825],[999,12908],[999,12991],[999,13075],[999,13162],[999,13241],[999,13328],[999,13413],[999,13491],[999,13575],[999,13658],[999,13741],[999,13828],[999,13907],[999,13991],[999,14074],[999,14157],[999,14241],[999,14324],[999,14407],[999,14490],[999,14574],[999,14657],[999,14744],[999,14827],[999,14907],[999,14990],[999,15074],[999,15157],[999,15240],[999,15324],[999,15410],[999,15490],[999,15573],[999,15657],[999,15742],[999,15823],[999,15906],[999,15990],[999,16073],[999,16157],[999,16240],[999,16323],[999,16406],[999,16489],[48.4,16577],[49.3,16660],[49.3,16744],[49.2,16822],[49.2,16906],[49.2,16989],[49.2,17072],[49.2,17155],[87.1,21490],[87.2,21570],[87.2,21653],[87.2,21736],[88.1,21823],[91.4,21906],[93.1,21990],[94,22073],[94.3,22156],[94.5,22240],[94.5,22319],[94.5,22402],[94.5,22486],[94.5,22569],[94.5,22652],[94.5,22736],[94.5,22822],[94.5,22902],[94.5,22985],[94.5,23069],[94.5,23155],[94.5,23235],[94.5,23318],[94.5,23405],[94.5,23502],[94.5,23585],[94.5,23668],[94.5,23751],[94.5,23835],[94.5,23918],[94.5,24001],[94.5,24085],[94.5,24168],[94.5,24251],[93.8,24335],[93.2,24418],[93,24501],[92.9,24584],[92.9,24668],[93,24751],[93.4,24835],[93.5,24918],[93.8,25001],[93.8,25084],[93.8,25168],[93.8,25250],[93.6,25334],[93.4,25418],[93.4,25500],[93.3,25584],[93.3,25667],[93.3,25750],[93.3,25834],[93.2,25917],[93.2,26000],[93.2,26084],[93.2,26167],[93.1,26250],[93.1,26333],[93,26417],[93,26500],[92.9,26583],[92.8,26666],[92.8,26750],[92.8,26833],[92.6,26916],[92.6,26999],[92.5,27083],[92.5,27166],[92.4,27249],[92.4,27333],[92.4,27416],[92.4,27499],[92.4,27582],[92.4,27666],[92.4,27749],[92.4,27833],[92.4,27916],[92.4,27999],[92.4,28082],[92.4,28165],[92.4,28249],[92.4,28332],[92.4,28415],[92.4,28499],[92.4,28582],[92.4,28665],[92.3,28748],[91.9,28832],[91.5,28916],[90.4,28999],[89.7,29081],[89.7,29165],[89.7,29248],[89.7,29331],[89.7,29415],[89.7,29498],[87.5,29582]]",0,4,4,4,1,"The next day the mayors successor, Mr. Smith, a man who was very unpopular due to his strong ties to the oil companies, took office. After a long day of brainstorming about the mysterious killer, Lucy decided to attend his welcome ceremony in the city. During the mayor's speech, she noticed one of the security guards looked strangely familiar. It dawned on her that this new mayor had motive to kill and that the man in black could've been the guard working for him.","Weeks passed and nobody had seen Margaret. Coworkers and friends searched the nearby city looking for her. One day on patrol in a nearby town, a police officer heard someone crying for help in the basement of a house and went in to investigate. Margaret yelled that she was being held captive and needed help.","Luke ran to Marta, and filled with regret over his decision to go along with Carly's plan, picked her up and rushed her to the hospital. The doctors tried to help Marta by taking her into emergency surgery but failed to save her life. Once the doctor called the time of death, Luke fell to his knees and sobbed over his rash decision.","Months later Dan had taken up a mistress, he was growing bored with his marriage ever since he got rid of Linda and was only still with Amy for her family's money. In a hotel room in a nearby town, Dan and his mistress, Nicole, conspired to secretly kill Amy while still obtaining her fortune.",,,,,,,,,,
,,,,,66cd521c51d994c446abe4df,2025-07-08_03h22.30.154,group3.4_multiperson,2023.2.2,Win32,60.60606061,686c2ebf0248f13bef9af11f,686c8d6ac3bd20199dbf0fbf,,,,,,,,,,,,,,,,,,,,,,,,,,,,,2364.3359,1,audio/Narrative8Situation9.wav,2367.3411,,,,,2383.8979,2412.7337,93.64584287,11.2956,"[{""rating"":93.64584287007649,""responseTime"":11.295600000143168}]",space,28.2947,,2412.7338,Partially,50,2412.7393,,,[],,,,,,,,,,,3,1,3,3,,,,,,,,,,,,,,,,,2367.3412,3,2383.8978,"[[999,0],[999,83],[999,166],[999,249],[999,332],[999,416],[999,499],[999,586],[999,669],[999,749],[999,836],[999,916],[999,999],[999,1082],[999,1165],[999,1249],[999,1332],[999,1415],[999,1498],[999,1582],[999,1665],[999,1748],[999,1831],[999,1915],[999,1998],[999,2081],[999,2165],[999,2248],[999,2335],[999,2414],[999,2498],[999,2581],[999,2664],[999,2751],[999,2831],[999,2914],[999,2998],[999,3081],[999,3164],[999,3250],[999,3331],[999,3414],[999,3497],[999,3581],[999,3664],[999,3747],[999,3831],[999,3914],[999,3997],[999,4080],[999,4163],[999,4247],[999,4333],[999,4413],[999,4500],[999,4580],[999,4663],[999,4750],[999,4830],[999,4913],[999,4996],[999,5083],[999,5163],[999,5246],[999,5329],[999,5416],[999,5499],[999,5581],[999,5662],[999,5749],[999,5829],[999,5916],[999,5996],[999,6079],[999,6166],[999,6246],[999,6329],[999,6413],[999,6496],[999,6579],[999,6662],[999,6745],[999,6832],[999,6912],[999,6995],[999,7078],[999,7162],[999,7245],[999,7328],[999,7412],[999,7495],[999,7581],[999,7661],[999,7748],[999,7828],[999,7911],[999,7994],[999,8078],[999,8161],[999,8244],[999,8327],[999,8411],[999,8494],[999,8578],[999,8661],[999,8744],[999,8827],[999,8911],[999,8994],[999,9077],[999,9160],[999,9244],[999,9330],[999,9410],[999,9494],[999,9577],[999,9664],[999,9743],[999,9827],[999,9913],[999,9993],[999,10077],[999,10160],[999,10243],[999,10326],[999,10410],[999,10493],[999,10577],[999,10660],[999,10743],[999,10826],[999,10913],[999,10996],[999,11076],[999,11159],[999,11243],[999,11326],[999,11409],[999,11492],[999,11576],[999,11662],[999,11742],[999,11826],[999,11909],[999,11992],[999,12075],[999,12159],[999,12242],[999,12325],[999,12409],[999,12492],[999,12575],[999,12658],[999,12742],[999,12825],[999,12908],[999,12991],[999,13075],[999,13158],[999,13241],[999,13325],[999,13411],[999,13491],[999,13575],[999,13658],[999,13745],[999,13827],[999,13908],[999,13991],[999,14074],[999,14157],[999,14240],[999,14327],[999,14407],[999,14494],[999,14574],[999,14657],[999,14740],[999,14824],[999,14907],[999,14990],[999,15074],[999,15157],[999,15240],[999,15323],[999,15407],[999,15490],[999,15573],[999,15656],[999,15740],[999,15827],[999,15906],[999,15990],[999,16073],[999,16156],[999,16240],[999,16323],[999,16406],[999,16489]]",0,5,5,5,1,"Lucy decided to confront the mayor after his ceremony. But when she tried to accuse him, the security guards threatened to hurt her if she went to the police with her theory. Before she could say another word a man pulled her from the crowd.","In a rush, the police officer broke down the door and was attacked by a man in the house. Without hesitation, the officer shot the man and the man fell to the floor.","He then saw Marta's brother Zach enter the hospital. Zach ran over to Luke and punched him. Zach screamed at Luke that it's his fault his sister is dead and that he knew about the affair. Luke quickly tried to explain that he felt horrible about Marta's death and that Carly had manipulated him into going along with her plan. Zach, still angry at his brother-in-law, realized his mistake in judgement and shifted his anger toward Carly.","They decided to have Dan invite her to the hotel room under the guise of a romantic date. Once she arrived, Nicole was there to tie her up. Once she was secured to a chair, Nicole demanded Amy's bank passwords. Amy obliged and gave her access to her bank accounts.",,,,,,,,,,
,,,,,66cd521c51d994c446abe4df,2025-07-08_03h22.30.154,group3.4_multiperson,2023.2.2,Win32,60.60606061,686c2ebf0248f13bef9af11f,686c8d6ac3bd20199dbf0fbf,,,,,,,,,,,,,,,,,,,,,,,,,,,,,2412.74,1,audio/Narrative8Situation9.wav,2415.7452,,,,,2432.3182,2448.0919,97.60416349,3.6482,"[{""rating"":97.60416348775227,""responseTime"":3.6482000000478365}]",space,15.2353,,2448.0919,Partially,50,2448.0944,,,[],,,,,,,,,,,3,1,1,2,,,,,,,,,,,,,,,,,2415.7453,3,2432.3181,"[[999,0],[999,82],[999,166],[999,252],[999,332],[999,415],[999,501],[999,582],[999,668],[999,748],[999,835],[999,915],[999,998],[999,1085],[999,1165],[999,1248],[999,1331],[999,1418],[999,1498],[999,1581],[999,1668],[999,1751],[999,1835],[999,1919],[999,2002],[47.1,2086],[35.9,2585],[55.8,4584],[55.9,4663],[55.9,4746],[55.9,4829],[55.9,4913],[60,5001],[61.9,5084],[63.5,5167],[65.2,5251],[66.1,5330],[67.2,5413],[67.6,5495],[68.2,5583],[69.1,5666],[69.7,5750],[70.2,5834],[70.8,5912],[71.6,6000],[71.8,6083]]",0,6,6,6,1,"The man in question was another security guard of Mayor Smith's, who took Lucy into a hidden alleyway. His name was Max and he quickly explained that he was a part of the initial plot to kill the former Mayor but he regretted his involvement.","The officer rushed to the basement, untied Margaret, and took her to safety.After being notified of the situation, Al rushed to meet Margaret as to not raise any suspicion. When he arrived, he saw Margaret pointing and yelling at Susan who had been handcuffed and was talking to the police. Shortly after, the police took Susan away in a police car. Al was devastated to see her being taken away, as Margaret sneered with disdain.","After the tension with Zach cooled down, Luke thought of when he should call his son and inform him of his mother's passing. He would be out of school any minute and should hear the news from him. Luke reflected on his decision and realized it was necessary to sacrifice his wife to ensure their child's safety, and that Marta had told him to above all else to protect him.",Nicole transferred all of Amy's money into Dan's bank account despite Amy's pleading for her to stop.,,,,,,,,,,
