consent.started,consent.stopped,consentResponse.keys,consentResponse.rt,consentResponse.duration,participantID,date,expName,psychopyVersion,OS,frameRate,STUDY_ID,SESSION_ID,opening1.started,opening1.stopped,keyEndingOpening1.keys,keyEndingOpening1.rt,keyEndingOpening1.duration,volumeAdjust.started,volumeAdjust.stopped,endingAdjust.keys,endingAdjust.rt,endingAdjust.duration,opening2.started,opening2.stopped,keyEndingOpening.keys,keyEndingOpening.rt,keyEndingOpening.duration,mouse.x,mouse.y,mouse.leftButton,mouse.midButton,mouse.rightButton,mouse.time,instructionLoop.thisRepN,instructionLoop.thisTrialN,instructionLoop.thisN,instructionLoop.thisIndex,instructionLoop.ran,readyForAudio.started,readyForAudio.stopped,fixation.started,run,audio_played,fixation.stopped,endPractice.keys,audioPre.started,audioPre.stopped,continuousResponses_audio,intRating.started,intRating.stopped,intQuestionSlider.response,intQuestionSlider.rt,intQuestionSlider.history,confirmResponse.keys,confirmResponse.rt,confirmResponse.duration,catchQuestion.started,catch_label,catch_value,catchQuestion.stopped,catchQuestionSlider.response,catchQuestionSlider.rt,catchQuestionSlider.history,confirmResponse_2.keys,audioRunLoop.thisRepN,audioRunLoop.thisTrialN,audioRunLoop.thisN,audioRunLoop.thisIndex,audioRunLoop.ran,conditions1_1,conditions2_1,conditions1_2,conditions2_2,dur1_1,dur2_1,dur1_2,dur2_2,endPractice.rt,endPractice.duration,confirmResponse_2.rt,confirmResponse_2.duration,runIntervalBreak.started,runIntervalBreak.stopped,endingBreakKey.keys,endingBreakKey.rt,endingBreakKey.duration,connection.started,connection.stopped,connectionEnding.keys,connectionEnding.rt,connectionEnding.duration,readyForText.started,readyForText.stopped,textPre.started,run_dup,textPre.stopped,continuousResponses_text,textRunLoop.thisRepN,textRunLoop.thisTrialN,textRunLoop.thisN,textRunLoop.thisIndex,textRunLoop.ran,text1_1,text1_2,text2_1,text2_2,runBreakText.started,runBreakText.stopped,endingBreakKey_2.keys,endingBreakKey_2.rt,endingBreakKey_2.duration,ending.started,ending.stopped,endingEnding.keys,endingEnding.rt,endingEnding.duration
0.0001,62.7448,y,62.4188,,66e9236f775eae67be04229d,2025-07-07_22h00.04.725,group3.4_multiperson,2023.2.2,Win32,61.34969325,686c2ebf0248f13bef9af11f,686c7b804577134355d3d33e,,,,,,,,,,,,,,,,,,,,,,,,,,,,,,,,,,,,,,,,,,,,,,,,,,,,,,,,,,,,,,,,,,,,,,,,,,,,,,,,,,,,,,,,,,,,,,,,,,,,,,,,
,,,,,66e9236f775eae67be04229d,2025-07-07_22h00.04.725,group3.4_multiperson,2023.2.2,Win32,61.34969325,686c2ebf0248f13bef9af11f,686c7b804577134355d3d33e,62.7457,85.1223,space,22.3113,,,,,,,,,,,,,,,,,,,,,,,,,,,,,,,,,,,,,,,,,,,,,,,,,,,,,,,,,,,,,,,,,,,,,,,,,,,,,,,,,,,,,,,,,,,,,,,,,,,,
,,,,,66e9236f775eae67be04229d,2025-07-07_22h00.04.725,group3.4_multiperson,2023.2.2,Win32,61.34969325,686c2ebf0248f13bef9af11f,686c7b804577134355d3d33e,,,,,,85.1227,110.1662,space,24.7152,,,,,,,,,,,,,,,,,,,,,,,,,,,,,,,,,,,,,,,,,,,,,,,,,,,,,,,,,,,,,,,,,,,,,,,,,,,,,,,,,,,,,,,,,,,,,,,
,,,,,66e9236f775eae67be04229d,2025-07-07_22h00.04.725,group3.4_multiperson,2023.2.2,Win32,61.34969325,686c2ebf0248f13bef9af11f,686c7b804577134355d3d33e,,,,,,,,,,,110.177,851.747,space,741.5391,,[],[],[],[],[],[],0,0,0,0,1,,,,,,,,,,,,,,,,,,,,,,,,,,,,,,,,,,,,,,,,,,,,,,,,,,,,,,,,,,,,,,,,,,,,,,,,,,,,,,
,,,,,66e9236f775eae67be04229d,2025-07-07_22h00.04.725,group3.4_multiperson,2023.2.2,Win32,61.34969325,686c2ebf0248f13bef9af11f,686c7b804577134355d3d33e,,,,,,,,,,,851.7482,883.9531,space,32.1053,,[],[],[],[],[],[],1,0,1,0,1,,,,,,,,,,,,,,,,,,,,,,,,,,,,,,,,,,,,,,,,,,,,,,,,,,,,,,,,,,,,,,,,,,,,,,,,,,,,,,
,,,,,66e9236f775eae67be04229d,2025-07-07_22h00.04.725,group3.4_multiperson,2023.2.2,Win32,61.34969325,686c2ebf0248f13bef9af11f,686c7b804577134355d3d33e,,,,,,,,,,,883.954,891.5351,space,7.5014,,[],[],[],[],[],[],2,0,2,0,1,,,,,,,,,,,,,,,,,,,,,,,,,,,,,,,,,,,,,,,,,,,,,,,,,,,,,,,,,,,,,,,,,,,,,,,,,,,,,,
,,,,,66e9236f775eae67be04229d,2025-07-07_22h00.04.725,group3.4_multiperson,2023.2.2,Win32,61.34969325,686c2ebf0248f13bef9af11f,686c7b804577134355d3d33e,,,,,,,,,,,891.5359,893.8845,space,2.3157,,[],[],[],[],[],[],3,0,3,0,1,,,,,,,,,,,,,,,,,,,,,,,,,,,,,,,,,,,,,,,,,,,,,,,,,,,,,,,,,,,,,,,,,,,,,,,,,,,,,,
,,,,,66e9236f775eae67be04229d,2025-07-07_22h00.04.725,group3.4_multiperson,2023.2.2,Win32,61.34969325,686c2ebf0248f13bef9af11f,686c7b804577134355d3d33e,,,,,,,,,,,893.8852,894.3676,space,0.4408,,[],[],[],[],[],[],4,0,4,0,1,,,,,,,,,,,,,,,,,,,,,,,,,,,,,,,,,,,,,,,,,,,,,,,,,,,,,,,,,,,,,,,,,,,,,,,,,,,,,,
,,,,,66e9236f775eae67be04229d,2025-07-07_22h00.04.725,group3.4_multiperson,2023.2.2,Win32,61.34969325,686c2ebf0248f13bef9af11f,686c7b804577134355d3d33e,,,,,,,,,,,894.3683,897.1339,space,2.7338,,[],[],[],[],[],[],5,0,5,0,1,,,,,,,,,,,,,,,,,,,,,,,,,,,,,,,,,,,,,,,,,,,,,,,,,,,,,,,,,,,,,,,,,,,,,,,,,,,,,,
,,,,,66e9236f775eae67be04229d,2025-07-07_22h00.04.725,group3.4_multiperson,2023.2.2,Win32,61.34969325,686c2ebf0248f13bef9af11f,686c7b804577134355d3d33e,,,,,,,,,,,,,,,,,,,,,,,,,,,897.1383,899.7163,899.7856,1,audio/Narrative13Situation2.wav,901.7996,,901.8002,931.5752,"[[999,4],[999,198],[999,281],[999,364],[999,448],[999,530],[999,614],[999,698],[999,782],[999,865],[999,949],[34.9,1031],[38.1,1115],[41.2,1198],[42.4,1281],[42.7,1365],[42.9,1448],[43,1531],[43,1615],[43,1698],[43,1781],[43,1864],[43,1947],[41.5,2032],[37,2115],[34.8,2198],[34.3,2281],[33.8,2365],[33.6,2448],[33.6,2531],[33.6,2614],[33.6,2697],[33.6,2781],[33.6,2864],[33.6,2947],[33.6,3031],[33.6,3114],[33.6,3197],[33.6,3281],[33.6,3364],[33.6,3447],[33.6,3531],[33.6,3614],[33.6,3697],[33.6,3781],[33.6,3864],[33.6,3947],[33.6,4030],[33.6,4114],[33.6,4196],[33.6,4280],[33.6,4363],[33.6,4447],[33.6,4531],[33.6,4613],[33.6,4697],[33.6,4780],[33.6,4864],[33.6,4947],[33.6,5030],[33.6,5113],[33.6,5197],[33.6,5280],[33.6,5363],[33.6,5447],[33.6,5530],[33.6,5613],[33.6,5697],[33.6,5780],[33.6,5863],[33.6,5947],[33.6,6030],[33.6,6113],[33.6,6197],[33.6,6280],[33.6,6363],[33.6,6447],[33.6,6530],[33.6,6613],[33.6,6696],[33.6,6779],[33.6,6863],[33.6,6946],[33.6,7030],[33.6,7113],[33.6,7338],[33.6,7446],[33.6,7529],[33.6,7613],[33.6,7696],[33.6,7779],[33.6,7862],[33.6,7946],[33.6,8029],[33.6,8112],[33.6,8251],[33.6,8329],[33.6,8412],[33.6,8495],[33.6,8578],[33.6,8662],[33.6,8745],[33.6,8829],[33.6,8912],[33.6,9002],[33.6,9084],[33.6,9161],[33.6,9245],[33.6,9328],[33.6,9418],[33.6,9495],[33.6,9578],[33.6,9661],[33.6,9745],[33.6,9831],[33.6,9911],[33.6,9995],[33.6,10078],[33.6,10162],[33.6,10245],[33.6,10328],[33.6,10412],[33.6,10495],[33.6,10578],[33.6,10661],[33.6,10745],[33.6,10828],[33.6,10916],[33.6,10995],[33.6,11078],[33.6,11161],[33.6,11245],[33.6,11328],[33.6,11411],[33.6,11495],[33.6,11578],[33.6,11661],[33.6,11745],[33.6,11828],[33.6,11911],[33.6,11995],[33.6,12078],[33.6,12161],[33.6,12245],[33.6,12328],[33.6,12411],[33.6,12495],[33.6,12578],[33.6,12661],[33.6,12745],[33.6,12828],[33.6,12911],[33.6,19442],[33.6,19526],[33.6,19610],[33.6,19693],[33.6,19776],[33.6,19860],[33.6,19943],[33.6,20026],[33.6,20109],[33.6,20193],[33.6,20276],[33.6,20409],[33.6,20492],[43,22416],[40,22499],[39.7,22576],[39.8,22665],[41.5,22750],[43.1,22832],[44.3,22916],[45.3,22999],[47.3,23076],[79.9,23666],[92.9,23750],[96.8,23833],[97.3,23909],[98.1,23999],[100,24082],[100,24165],[100,24248],[100,24325],[100,24409],[100,24492],[100,24575],[100,24659],[100,24741],[100,24825],[100,24908],[100,24991],[100,25075],[100,25159],[100,25241],[100,25325],[100,25413],[100,25491],[100,25575],[100,25658],[100,25741],[100,25825],[100,25908],[100,25996],[100,26074],[100,26165],[100,26247],[100,26331],[100,26408],[100,26491],[100,26576],[100,26658],[100,26741],[100,26825],[100,26909],[100,26991],[100,27074],[100,27158],[100,27241],[100,27325],[100,27408],[100,27497],[100,27574],[100,27663],[100,27741],[100,27830],[100,27908],[100,27991],[100,28074],[100,28158],[100,28241],[100,28324],[100,28408],[100,28491],[100,28574],[100,28658],[100,28741],[100,28824],[100,28908],[100,28990],[100,29074],[100,29158],[100,29240],[100,29324],[100,29408],[100,29491],[100,29574],[100,29665],[100,29741]]",931.5761,940.7733,99.79166985,7.0218,"[{""rating"":99.79166984558105,""responseTime"":6.807200000001103},{""rating"":99.79166984558105,""responseTime"":7.0218000000007805}]",space,8.6576,,940.7739,Partially,50,940.7842,,,[],,0,0,0,0,1,audio/Narrative13Situation2.wav,audio/Narrative13Situation2.wav,audio/Narrative13Situation2.wav,audio/Narrative13Situation2.wav,2,2,2,2,,,,,,,,,,,,,,,,,,,,,,,,,,,,,,,,,,,,,,,
,,,,,66e9236f775eae67be04229d,2025-07-07_22h00.04.725,group3.4_multiperson,2023.2.2,Win32,61.34969325,686c2ebf0248f13bef9af11f,686c7b804577134355d3d33e,,,,,,,,,,,,,,,,,,,,,,,,,,,,,940.7851,1,audio/Narrative8Situation1.wav,943.3885,space,943.3886,959.3185,"[[999,0],[999,82],[999,166],[999,249],[999,332],[999,416],[999,498],[999,582],[999,666],[999,749],[999,832],[999,916],[999,999],[999,1082],[999,1166],[92.5,1249],[84.8,1333],[95.3,2166],[98.4,2250],[100,2333],[100,2416],[100,2499],[100,2583],[100,2666],[100,2748],[100,2832],[100,2915],[100,2998],[100,3082],[100,3165],[100,3249],[100,3332],[100,3415],[100,3499],[100,3581],[100,3665],[100,3749],[100,3832],[100,3915],[100,3999],[100,4082],[100,4166],[100,4248],[100,4332],[100,4414],[100,4498],[100,4582],[100,4665],[100,4748],[100,4832],[100,4915],[100,4998],[100,5082],[100,5165],[100,5248],[100,5332],[100,5415],[100,5499],[100,5582],[100,5664],[100,5748],[100,5832],[100,5914],[100,5998],[100,6081],[100,6164],[100,6248],[100,6331],[100,6414],[100,6498],[100,6581],[100,6664],[100,6748],[100,6831],[100,6915],[100,6997],[100,7081],[100,7164],[100,7247],[100,7331],[100,7414],[100,7497],[100,7581],[100,7664],[100,7748],[100,7831],[100,7914],[100,7998],[100,8081],[100,8164],[100,8247],[100,8331],[100,8414],[100,8497],[100,8581],[100,8664],[100,8747],[100,8831],[100,8913],[100,8997],[100,9081],[100,9164],[100,9247],[100,9330],[100,9413],[100,9497],[100,9580],[100,9663],[100,9747],[100,9831],[100,9913],[100,9997],[100,10080],[100,10163],[100,10247],[100,10330],[100,10413],[100,10497],[100,10581],[100,10663],[100,10747],[100,10830],[100,10913],[100,10997],[100,11080],[100,11163],[100,11246],[100,11330],[100,11413],[100,11497],[100,11580],[100,11663],[100,11746],[100,11830],[100,11913],[100,11997],[100,12080],[100,12163],[100,12246],[100,12330],[100,12413],[100,12496],[100,12580],[100,12663],[100,12747],[100,12830],[100,12913],[100,12996],[100,13080],[100,13163],[100,13246],[100,13330],[100,13413],[100,13496],[100,13580],[100,13663],[100,13746],[100,13829],[100,13912],[100,13996],[100,14079],[100,14163],[100,14246],[100,14330],[100,14412],[100,14495],[100,14579],[100,14662],[100,14746],[100,14829],[100,14912],[100,14997],[100,15079],[100,15163],[100,15246],[100,15329],[100,15413],[100,15496],[100,15579],[100,15662],[100,15746],[100,15829],[100,15912]]",959.319,967.216,99.06250636,6.955,"[{""rating"":99.06250635782878,""responseTime"":6.955000000000041}]",space,7.3499,,967.2161,Partially,50,967.2214,,,[],,0,1,1,1,1,audio/Narrative7Situation1.wav,audio/Narrative8Situation1.wav,audio/Narrative5Situation1.wav,audio/Narrative6Situation1.wav,2,5,5,2,2.5496,,,,,,,,,,,,,,,,,,,,,,,,,,,,,,,,,,,,,,
,,,,,66e9236f775eae67be04229d,2025-07-07_22h00.04.725,group3.4_multiperson,2023.2.2,Win32,61.34969325,686c2ebf0248f13bef9af11f,686c7b804577134355d3d33e,,,,,,,,,,,,,,,,,,,,,,,,,,,,,967.222,1,audio/Narrative8Situation2.wav,970.2321,,970.2323,980.369,"[[999,1],[999,82],[999,165],[999,249],[999,332],[999,416],[999,499],[999,582],[999,665],[999,749],[999,832],[999,915],[999,999],[999,1082],[999,1165],[999,1249],[999,1332],[999,1415],[999,1499],[999,1582],[999,1665],[999,1749],[999,1832],[999,1915],[999,1999],[999,2087],[999,2165],[999,2249],[999,2332],[999,2415],[999,2499],[999,2582],[999,2665],[999,2749],[999,2832],[999,2915],[999,2999],[999,3082],[999,3165],[999,3248],[999,3331],[999,3415],[999,3499],[999,3581],[999,3665],[999,3748],[999,3831],[999,3915],[999,3998],[999,4081],[999,4165],[999,4248],[999,4331],[999,4415],[999,4498],[999,4581],[999,4664],[999,4748],[999,4831],[999,4914],[999,4997],[999,5080],[999,5164],[999,5248],[999,5331],[999,5414],[999,5498],[999,5581],[999,5664],[999,5749],[999,5831],[999,5914],[999,5998],[999,6081],[999,6164],[999,6248],[999,6331],[999,6414],[999,6497],[999,6580],[999,6664],[999,6747],[999,6831],[999,6914],[999,6997],[999,7081],[999,7169],[999,7247],[999,7330],[999,7413],[999,7497],[999,7580],[999,7664],[999,7747],[999,7830],[999,7913],[999,7997],[999,8080],[999,8163],[999,8247],[999,8330],[999,8414],[999,8497],[999,8580],[999,8663],[999,8749],[999,8835],[999,8913],[999,8996],[999,9080],[999,9163],[999,9247],[999,9330],[999,9413],[999,9496],[999,9580],[999,9664],[999,9753],[999,9837],[999,9917],[999,9997],[999,10080]]",980.3694,993.5927,99.68749682,3.698,"[{""rating"":99.68749682108562,""responseTime"":1.5661999999992986},{""rating"":99.68749682108562,""responseTime"":3.6980000000000928}]",space,12.6709,,993.5929,Definitely yes,100,1000.3418,99.79166985,5.7169,"[{""rating"":99.79166984558105,""responseTime"":5.716900000000351}]",space,0,2,2,2,1,audio/Narrative7Situation2.wav,audio/Narrative8Situation2.wav,audio/Narrative5Situation2.wav,audio/Narrative6Situation2.wav,3,3,3,3,,,6.2016,,,,,,,,,,,,,,,,,,,,,,,,,,,,,,,,,,,,
,,,,,66e9236f775eae67be04229d,2025-07-07_22h00.04.725,group3.4_multiperson,2023.2.2,Win32,61.34969325,686c2ebf0248f13bef9af11f,686c7b804577134355d3d33e,,,,,,,,,,,,,,,,,,,,,,,,,,,,,1000.3427,1,audio/Narrative8Situation3.wav,1004.357,,1004.3571,1026.7349,"[[79.8,256],[77.1,341],[76.3,416],[76.3,499],[76.3,582],[76.3,665],[76.3,1005],[79.8,1090],[83.4,1166],[92.1,1255],[100,1339],[100,1423],[100,1503],[100,1588],[100,1665],[100,1752],[100,1832],[100,1915],[100,1999],[100,2082],[100,2165],[100,2249],[100,2332],[100,2415],[100,2498],[100,2582],[100,2665],[100,2754],[100,2832],[100,2915],[100,2998],[100,3082],[100,3165],[100,3249],[100,3332],[100,3415],[100,3499],[100,3582],[100,3665],[100,3748],[100,3832],[100,3915],[100,3998],[100,4082],[100,4164],[100,4248],[100,4332],[100,4414],[100,4498],[100,4581],[100,4664],[100,4748],[100,4831],[100,4914],[100,4998],[100,5081],[100,5164],[100,5248],[100,5331],[100,5414],[100,5498],[100,5581],[100,5664],[100,5748],[100,5831],[100,5914],[100,5998],[100,6081],[100,6164],[100,6248],[100,6331],[100,6414],[100,6498],[100,6581],[100,6664],[100,6748],[100,6831],[100,6914],[100,6997],[100,7080],[100,7164],[100,7248],[100,7331],[100,7414],[100,7497],[100,7581],[100,7664],[100,7747],[100,7831],[100,7914],[100,7997],[100,8081],[100,8164],[100,8247],[100,8330],[100,8414],[100,8497],[100,8581],[100,8664],[100,8747],[100,8830],[100,8914],[100,8997],[100,9080],[100,9164],[100,9247],[100,9330],[100,9414],[100,9497],[100,9580],[100,9664],[100,9747],[100,9830],[100,9913],[100,9997],[100,10080],[100,10163],[100,10247],[100,10330],[100,10413],[100,10497],[100,10580],[100,10664],[100,10747],[100,10830],[100,10913],[100,10996],[100,11080],[100,11163],[100,11246],[100,11330],[100,11413],[100,11496],[100,11580],[100,11663],[100,11746],[100,11830],[100,11913],[100,11996],[100,12079],[100,12163],[100,12246],[100,12330],[100,12413],[100,12496],[100,12580],[100,12663],[100,12746],[100,12829],[100,12913],[100,12996],[100,13079],[100,13163],[100,13246],[100,13329],[100,13413],[100,13496],[100,13579],[100,13663],[100,13746],[100,13829],[100,13912],[100,13996],[100,14079],[100,14163],[100,14245],[100,14329],[100,14413],[100,14495],[100,14579],[100,14663],[100,14745],[100,14829],[100,14912],[100,14995],[100,15079],[100,15162],[100,15245],[100,15329],[100,15412],[100,15495],[100,15579],[100,15662],[100,15745],[100,15829],[100,15912],[100,15995],[100,16079],[100,16162],[100,16245],[100,16328],[100,16412],[100,16495],[100,16578],[100,16662],[100,16745],[100,16828],[100,16912],[100,16995],[100,17078],[100,17161],[100,17245],[100,17328],[100,17412],[100,17495],[100,17578],[100,17662],[100,17745],[100,17828],[100,17912],[100,17994],[100,18078],[100,18162],[100,18250],[100,18328],[100,18411],[100,18494],[100,18578],[100,18661],[100,18744],[100,18828],[100,18911],[100,18994],[100,19078],[100,19161],[100,19244],[100,19328],[100,19412],[100,19494],[100,19578],[100,19661],[100,19745],[100,19828],[100,19911],[100,20000],[100,20078],[100,20161],[100,20244],[100,20327],[100,20411],[100,20494],[100,20577],[100,20661],[100,20744],[100,20828],[100,20911],[100,20994],[100,21077],[100,21161],[100,21244],[100,21327],[100,21411],[100,21494],[100,21577],[100,21660],[100,21744],[100,21827],[100,21911],[100,21994],[100,22077],[100,22161],[100,22244],[100,22327]]",1026.7352,1032.0669,99.16666349,4.3372,"[{""rating"":99.16666348775227,""responseTime"":4.337200000001076}]",space,4.7867,,1032.0671,Not at all,0,1032.0762,,,[],,0,3,3,3,1,audio/Narrative7Situation3.wav,audio/Narrative8Situation3.wav,audio/Narrative5Situation3.wav,audio/Narrative6Situation3.wav,8,4,3,5,,,,,,,,,,,,,,,,,,,,,,,,,,,,,,,,,,,,,,,
,,,,,66e9236f775eae67be04229d,2025-07-07_22h00.04.725,group3.4_multiperson,2023.2.2,Win32,61.34969325,686c2ebf0248f13bef9af11f,686c7b804577134355d3d33e,,,,,,,,,,,,,,,,,,,,,,,,,,,,,1032.0768,1,audio/Narrative8Situation4.wav,1035.0824,,1035.0825,1049.2681,"[[999,0],[999,83],[999,166],[999,249],[999,333],[999,416],[999,499],[999,583],[999,666],[999,756],[999,839],[999,923],[999,999],[999,1090],[999,1166],[99.6,1257],[99.6,1339],[99.6,1423],[99.6,1504],[99.7,1583],[99.8,1666],[99.8,1749],[99.8,1832],[99.8,1915],[99.8,1999],[99.8,2082],[99.8,2166],[99.8,2249],[99.8,2332],[99.8,2416],[99.8,2499],[99.8,2582],[99.8,2672],[99.8,2749],[99.8,2832],[99.8,2916],[99.8,2999],[99.8,3082],[99.8,3166],[99.8,3249],[99.8,3332],[99.8,3415],[99.8,3499],[99.8,3582],[99.8,3666],[99.8,3749],[99.8,3832],[99.8,3915],[99.8,3998],[99.8,4082],[99.8,4165],[99.8,4248],[99.8,4332],[99.8,4415],[99.8,4498],[99.8,4582],[99.8,4666],[99.8,4748],[99.8,4838],[99.8,4915],[99.8,4999],[99.8,5082],[99.8,5165],[99.8,5249],[99.8,5332],[99.8,5415],[99.8,5498],[99.8,5582],[99.8,5665],[99.8,5749],[99.8,5832],[99.8,5915],[99.8,5999],[99.8,6082],[99.8,6165],[99.8,6248],[99.8,6332],[99.8,6415],[99.8,6498],[99.8,6586],[99.8,6665],[99.8,6748],[99.8,6831],[99.8,6915],[99.8,6998],[99.8,7081],[99.8,7165],[99.8,7248],[99.8,7331],[99.8,7415],[99.8,7498],[99.8,7582],[99.8,7664],[99.8,7749],[99.8,7834],[99.8,7915],[99.8,7998],[99.8,8081],[99.8,8164],[99.8,8248],[99.8,8331],[99.8,8414],[99.8,8498],[99.8,8581],[99.8,8664],[99.8,8748],[99.8,8831],[99.8,8914],[99.8,8998],[99.8,9081],[99.8,9164],[99.8,9248],[99.8,9330],[99.8,9414],[99.8,9498],[99.8,9581],[99.8,9664],[99.8,9747],[99.8,9830],[99.8,9914],[99.8,9997],[99.8,10081],[99.8,10165],[99.8,10247],[99.8,10330],[99.8,10414],[99.8,10497],[99.8,10580],[99.8,10664],[99.8,10747],[99.8,10830],[99.8,10913],[99.8,11001],[99.8,11080],[99.8,11163],[99.8,11247],[99.8,11330],[99.8,11414],[99.8,11497],[99.8,11580],[99.8,11663],[99.8,11747],[99.8,11830],[99.8,11913],[99.8,11997],[99.8,12080],[99.8,12163],[99.8,12246],[99.8,12330],[99.8,12413],[99.8,12497],[99.8,12580],[99.8,12663],[99.8,12747],[99.8,12830],[99.8,12913],[99.8,12997],[99.8,13080],[99.8,13163],[99.8,13246],[99.8,13330],[99.8,13413],[99.8,13496],[99.8,13579],[99.8,13663],[99.8,13746],[99.8,13830],[99.8,13913],[99.8,13996],[99.8,14079],[99.8,14163]]",1049.2684,1064.8585,92.1875,11.5298,"[{""rating"":92.1875,""responseTime"":11.529799999998886}]",space,15.0485,,1064.8586,Not at all,0,1064.8638,,,[],,0,4,4,4,1,audio/Narrative7Situation4.wav,audio/Narrative8Situation4.wav,audio/Narrative5Situation4.wav,audio/Narrative6Situation4.wav,3,3,1,2,,,,,,,,,,,,,,,,,,,,,,,,,,,,,,,,,,,,,,,
,,,,,66e9236f775eae67be04229d,2025-07-07_22h00.04.725,group3.4_multiperson,2023.2.2,Win32,61.34969325,686c2ebf0248f13bef9af11f,686c7b804577134355d3d33e,,,,,,,,,,,,,,,,,,,,,,,,,,,,,1064.8643,1,audio/Narrative8Situation5.wav,1066.8749,,1066.875,1075.1228,"[[999,0],[999,82],[999,166],[999,249],[999,333],[999,416],[999,499],[999,583],[999,666],[999,749],[999,833],[999,915],[999,999],[999,1082],[999,1166],[999,1249],[999,1339],[999,1416],[999,1506],[999,1588],[999,1672],[999,1755],[999,1839],[98.2,1922],[97.6,1999],[97.5,2082],[97.7,2165],[97.7,2249],[97.7,2332],[97.7,2416],[97.7,2499],[97.7,2582],[97.7,2665],[97.7,2749],[97.7,2832],[97.7,2915],[97.7,2999],[97.7,3082],[97.7,3165],[97.7,3248],[97.7,3332],[97.7,3415],[97.7,3499],[97.7,3582],[97.7,3666],[97.7,3748],[97.7,3833],[97.7,3915],[97.7,3999],[97.7,4081],[97.7,4165],[97.7,4248],[97.7,4332],[97.7,4415],[97.7,4498],[97.7,4581],[97.7,4665],[97.7,4748],[97.7,4831],[97.7,4915],[97.7,4998],[97.7,5081],[97.7,5165],[97.7,5248],[97.7,5332],[97.7,5415],[97.7,5498],[97.7,5581],[97.7,5665],[97.7,5748],[97.7,5831],[97.7,5915],[97.7,5998],[97.7,6081],[97.7,6165],[97.7,6248],[97.7,6331],[97.7,6414],[97.7,6498],[97.7,6581],[97.7,6665],[97.7,6748],[97.7,6831],[97.7,6914],[97.7,6997],[97.7,7081],[97.7,7164],[97.7,7247],[97.7,7331],[97.7,7414],[97.7,7497],[97.7,7581],[97.7,7664],[97.7,7747],[97.7,7831],[97.7,7914],[97.7,7997],[97.7,8080],[97.7,8164],[97.7,8247]]",1075.1232,1083.4714,97.70833651,3.1385,"[{""rating"":97.70833651224773,""responseTime"":3.138500000000022}]",space,7.8007,,1083.4717,Not at all,0,1083.4761,,,[],,0,5,5,5,1,audio/Narrative7Situation5.wav,audio/Narrative8Situation5.wav,audio/Narrative5Situation5.wav,audio/Narrative6Situation5.wav,5,2,5,2,,,,,,,,,,,,,,,,,,,,,,,,,,,,,,,,,,,,,,,
,,,,,66e9236f775eae67be04229d,2025-07-07_22h00.04.725,group3.4_multiperson,2023.2.2,Win32,61.34969325,686c2ebf0248f13bef9af11f,686c7b804577134355d3d33e,,,,,,,,,,,,,,,,,,,,,,,,,,,,,1083.4768,1,audio/Narrative8Situation6.wav,1085.4868,,1085.4868,1091.9684,"[[999,0],[999,83],[999,166],[999,250],[999,334],[999,416],[999,500],[999,583],[999,666],[999,749],[999,833],[999,916],[999,999],[999,1083],[999,1166],[999,1250],[999,1333],[999,1416],[999,1499],[999,1583],[999,1666],[999,1749],[999,1838],[999,1916],[100,2005],[100,2083],[100,2171],[100,2249],[100,2333],[100,2423],[100,2499],[100,2582],[100,2665],[100,2749],[100,2832],[100,2915],[100,2999],[100,3082],[100,3165],[100,3249],[100,3332],[100,3415],[100,3499],[100,3582],[100,3665],[100,3749],[100,3832],[100,3915],[100,3998],[100,4082],[100,4165],[100,4248],[100,4332],[100,4415],[100,4499],[100,4582],[100,4665],[100,4748],[100,4832],[100,4915],[100,4999],[100,5081],[100,5165],[100,5248],[100,5331],[100,5415],[100,5498],[100,5582],[100,5670],[100,5748],[100,5831],[100,5915],[100,5998],[100,6082],[100,6164],[100,6248],[100,6331],[100,6414]]",1091.9687,1123.3002,98.4375,20.3511,"[{""rating"":98.4375,""responseTime"":20.351099999999633}]",space,30.7876,,1123.3004,Not at all,0,1123.3055,,,[],,0,6,6,6,1,audio/Narrative7Situation6.wav,audio/Narrative8Situation6.wav,audio/Narrative5Situation6.wav,audio/Narrative6Situation6.wav,3,2,3,2,,,,,,,,,,,,,,,,,,,,,,,,,,,,,,,,,,,,,,,
,,,,,66e9236f775eae67be04229d,2025-07-07_22h00.04.725,group3.4_multiperson,2023.2.2,Win32,61.34969325,686c2ebf0248f13bef9af11f,686c7b804577134355d3d33e,,,,,,,,,,,,,,,,,,,,,,,,,,,,,1123.3062,1,audio/Narrative8Situation7.wav,1126.3105,,1126.3106,1138.4074,"[[100,916],[100,999],[100,1082],[100,1172],[100,1255],[99.8,1333],[99.7,1421],[99.7,1499],[99.7,1582],[99.7,1665],[99.7,1749],[99.7,1832],[99.7,1915],[99.7,1999],[99.7,2082],[99.7,2166],[99.7,2248],[99.7,2332],[99.7,2415],[99.7,2498],[99.7,2582],[99.7,2665],[99.7,2748],[99.7,2832],[99.7,2915],[99.7,2998],[99.7,3082],[99.7,3165],[99.7,3248],[99.7,3332],[99.7,3415],[99.7,3498],[99.7,3582],[99.7,3665],[99.7,3748],[99.7,3832],[99.7,3915],[99.7,3998],[99.7,4082],[99.7,4165],[99.7,4248],[99.7,4331],[99.7,4415],[99.7,4498],[99.7,4581],[99.7,4665],[99.7,4748],[99.7,4831],[99.7,4915],[99.7,4998],[99.7,5081],[99.7,5165],[99.7,5248],[99.7,5331],[99.7,5415],[99.7,5498],[99.7,5581],[99.7,5664],[99.7,5747],[99.7,5831],[99.7,5915],[99.7,5998],[99.7,6081],[99.7,6164],[99.7,6247],[99.7,6331],[99.7,6414],[99.7,6497],[99.7,6581],[99.7,6664],[99.7,6748],[99.7,6832],[99.7,6914],[99.7,6997],[99.7,7081],[99.7,7164],[99.7,7247],[99.7,7331],[99.7,7414],[99.7,7497],[99.7,7581],[99.7,7664],[99.7,7747],[99.7,7831],[99.7,7914],[99.7,7997],[99.7,8081],[99.7,8164],[99.7,8247],[99.7,8331],[99.7,8414],[99.7,8497],[99.7,8580],[99.7,8664],[99.7,8747],[99.7,8830],[99.7,8914],[99.7,8997],[99.7,9080],[99.7,9164],[99.7,9247],[99.7,9330],[99.7,9414],[99.7,9497],[99.7,9580],[99.7,9664],[99.7,9746],[99.7,9831],[99.7,9913],[99.7,9997],[99.7,10080],[99.7,10163],[99.7,10246],[99.7,10330],[99.7,10413],[99.7,10496],[99.7,10580],[99.7,10663],[99.7,10746],[99.7,10830],[99.7,10913],[99.7,10996],[99.7,11080],[99.7,11163],[99.7,11246],[99.7,11330],[99.7,11414],[99.7,11496],[99.7,11580],[99.7,11663],[99.7,11746],[99.7,11829],[99.7,11913],[99.7,11996],[99.7,12080]]",1138.4076,1153.9538,95.93750636,5.5213,"[{""rating"":95.93750635782878,""responseTime"":5.521300000000792}]",space,15.0045,,1153.9538,Not at all,0,1153.9578,,,[],,0,7,7,7,1,audio/Narrative7Situation7.wav,audio/Narrative8Situation7.wav,audio/Narrative5Situation7.wav,audio/Narrative6Situation7.wav,5,3,4,5,,,,,,,,,,,,,,,,,,,,,,,,,,,,,,,,,,,,,,,
,,,,,66e9236f775eae67be04229d,2025-07-07_22h00.04.725,group3.4_multiperson,2023.2.2,Win32,61.34969325,686c2ebf0248f13bef9af11f,686c7b804577134355d3d33e,,,,,,,,,,,,,,,,,,,,,,,,,,,,,1153.9583,1,audio/Narrative8Situation8.wav,1156.9696,,1156.9696,1169.8329,"[[999,0],[999,83],[999,166],[999,249],[999,333],[999,416],[999,499],[999,582],[999,665],[999,749],[999,832],[999,916],[999,999],[999,1082],[999,1172],[999,1249],[999,1332],[999,1416],[999,1499],[999,1582],[999,1665],[999,1749],[999,1838],[999,1916],[999,1999],[999,2082],[999,2166],[999,2249],[999,2332],[999,2415],[999,2498],[999,2582],[999,2665],[999,2749],[999,2832],[999,2915],[999,2998],[999,3082],[999,3165],[999,3248],[999,3332],[999,3415],[999,3498],[999,3582],[999,3665],[999,3748],[999,3831],[999,3915],[999,3998],[999,4082],[999,4165],[999,4248],[999,4332],[999,4415],[999,4498],[999,4582],[999,4665],[999,4748],[999,4831],[999,4915],[999,4998],[999,5085],[999,5165],[999,5248],[999,5332],[999,5421],[999,5498],[999,5587],[100,5671],[100,5755],[100,5837],[100,5915],[100,6004],[100,6088],[100,6165],[100,6248],[100,6331],[100,6414],[100,6498],[100,6581],[100,6665],[100,6747],[100,6831],[100,6914],[100,6997],[100,7081],[100,7164],[100,7247],[100,7331],[100,7414],[100,7497],[100,7581],[100,7664],[100,7747],[100,7831],[100,7914],[100,7997],[100,8080],[100,8164],[100,8247],[100,8330],[100,8414],[100,8497],[100,8581],[100,8664],[100,8747],[100,8830],[100,8914],[100,8997],[100,9080],[100,9164],[100,9247],[100,9330],[100,9414],[100,9497],[100,9580],[100,9664],[100,9747],[100,9830],[100,9914],[100,9997],[100,10080],[100,10164],[100,10247],[100,10330],[100,10413],[100,10496],[100,10580],[100,10663],[100,10746],[100,10830],[100,10913],[100,10997],[100,11080],[100,11163],[100,11246],[100,11330],[100,11413],[100,11497],[100,11580],[100,11663],[100,11746],[100,11829],[100,11913],[100,11997],[100,12080],[100,12163],[100,12247],[100,12329],[100,12413],[100,12496],[100,12579],[100,12663],[100,12746],[100,12829]]",1169.8332,1176.7312,99.68749682,2.6138,"[{""rating"":99.68749682108562,""responseTime"":2.613800000000765}]",space,6.3488,,1176.7314,Not at all,0,1176.7357,,,[],,0,8,8,8,1,audio/Narrative7Situation8.wav,audio/Narrative8Situation8.wav,audio/Narrative5Situation8.wav,audio/Narrative6Situation8.wav,2,3,3,5,,,,,,,,,,,,,,,,,,,,,,,,,,,,,,,,,,,,,,,
,,,,,66e9236f775eae67be04229d,2025-07-07_22h00.04.725,group3.4_multiperson,2023.2.2,Win32,61.34969325,686c2ebf0248f13bef9af11f,686c7b804577134355d3d33e,,,,,,,,,,,,,,,,,,,,,,,,,,,,,1176.7363,1,audio/Narrative8Situation9.wav,1179.7471,,1179.7472,1191.0776,"[[999,1],[999,83],[999,166],[999,249],[999,333],[999,416],[999,499],[999,582],[999,666],[999,755],[999,839],[999,915],[999,1005],[75.6,1083],[79,1172],[80.6,1249],[84.3,1339],[88.6,1423],[92.5,1507],[95.5,1582],[97.1,1665],[97.9,1749],[98.8,1832],[99.8,1923],[100,1999],[100,2089],[100,2166],[100,2249],[100,2332],[100,2415],[100,2499],[100,2582],[100,2665],[100,2749],[100,2832],[100,2915],[100,2998],[100,3082],[100,3165],[100,3249],[100,3332],[100,3415],[100,3499],[100,3582],[100,3665],[100,3749],[100,3832],[100,3915],[100,3998],[100,4082],[100,4165],[100,4249],[100,4332],[100,4415],[100,4499],[100,4582],[100,4665],[100,4749],[100,4832],[100,4915],[100,4998],[100,5082],[100,5165],[100,5248],[100,5331],[100,5415],[100,5498],[100,5581],[100,5665],[100,5748],[100,5831],[100,5915],[100,5998],[100,6087],[100,6165],[100,6248],[100,6331],[100,6415],[100,6498],[100,6581],[100,6664],[100,6748],[100,6831],[100,6914],[100,6998],[100,7081],[100,7168],[100,7248],[100,7331],[100,7414],[100,7498],[100,7581],[100,7664],[100,7748],[100,7830],[100,7914],[100,7998],[100,8080],[100,8164],[100,8248],[100,8330],[100,8414],[100,8497],[100,8581],[100,8664],[100,8748],[100,8830],[100,8914],[100,8997],[100,9080],[100,9164],[100,9247],[100,9330],[100,9414],[100,9497],[100,9580],[100,9663],[100,9747],[100,9830],[100,9913],[100,9997],[100,10080],[100,10164],[100,10247],[100,10330],[100,10413],[100,10497],[100,10580],[100,10663],[100,10747],[100,10830],[100,10913],[100,10997],[100,11080],[100,11164],[100,11247],[100,11330]]",1191.0778,1216.6882,98.8541762,24.1335,"[{""rating"":98.85417620340984,""responseTime"":24.133499999999913}]",space,25.0623,,1216.6883,Not at all,0,1216.6936,,,[],,0,9,9,9,1,audio/Narrative7Situation9.wav,audio/Narrative8Situation9.wav,audio/Narrative5Situation9.wav,audio/Narrative6Situation9.wav,2,3,3,4,,,,,,,,,,,,,,,,,,,,,,,,,,,,,,,,,,,,,,,
,,,,,66e9236f775eae67be04229d,2025-07-07_22h00.04.725,group3.4_multiperson,2023.2.2,Win32,61.34969325,686c2ebf0248f13bef9af11f,686c7b804577134355d3d33e,,,,,,,,,,,,,,,,,,,,,,,,,,,,,1216.6943,1,audio/Narrative7Situation1.wav,1218.7041,,1218.7042,1274.5973,"[[100,35914],[100,36074],[100,36164],[100,36246],[100,36331],[100,36413],[100,36497],[100,36580],[100,36657],[100,36741],[100,36824],[100,36907],[100,36991],[100,37074],[100,37157],[100,37240],[100,37324],[100,37408],[100,37490],[100,37574],[100,37657],[100,37740],[100,37823],[100,37907],[100,37990],[100,38073],[100,38157],[100,38240],[100,38323],[100,38407],[100,38490],[100,38573],[100,38657],[100,38740],[100,38823],[100,38907],[100,38990],[100,39073],[100,39157],[100,39240],[100,39323],[100,39407],[100,39490],[100,39573],[100,39657],[100,39740],[100,39828],[100,39907],[100,39989],[100,40073],[100,40156],[100,40240],[100,40323],[100,40406],[100,40490],[100,40573],[100,40656],[100,40740],[100,40823],[100,40906],[100,40990],[100,41073],[100,41156],[100,41239],[100,41322],[100,41406],[100,41490],[100,41572],[100,41656],[100,41740],[100,41822],[100,41906],[100,41989],[100,42072],[100,42156],[100,42239],[100,42322],[100,42406],[100,42489],[100,42572],[100,42656],[100,42739],[100,42822],[100,42906],[100,42989],[100,43072],[100,43156],[100,43239],[100,43322],[100,43406],[100,43489],[100,43572],[100,43656],[100,43739],[100,43822],[100,43906],[100,43989],[100,44072],[100,44156],[100,44239],[100,44322],[100,44405],[100,44489],[100,44572],[100,44655],[100,44738],[100,44822],[100,44905],[100,44989],[100,45072],[100,45155],[100,45238],[100,45322],[100,45405],[100,45489],[100,45572],[100,45655],[100,45738],[100,45821],[100,45905],[100,45988],[100,46072],[100,46155],[100,46238],[100,46322],[100,46405],[100,46488],[100,46572],[100,46655],[100,46738],[100,46822],[100,46905],[100,46988],[100,47071],[100,47155],[100,47238],[100,47321],[100,47405],[100,47488],[100,47572],[100,47655],[100,47738],[100,47821],[100,47904],[100,47988],[100,48071],[100,48154],[100,48237],[100,48321],[100,48404],[100,48488],[100,48571],[100,48660],[100,48738],[100,48827],[100,48904],[100,48988],[100,49071],[100,49154],[100,49237],[100,49321],[100,49404],[100,49487],[100,49571],[100,49654],[100,49737],[100,49821],[100,49904],[100,49987],[100,50071],[100,50154],[100,50238],[100,50321],[100,50404],[100,50487],[100,50571],[100,50654],[100,50737],[100,50821],[100,50904],[100,50987],[100,51070],[100,51159],[100,51237],[100,51321],[100,51403],[100,51487],[100,51571],[100,51653],[100,51737],[100,51820],[100,51903],[100,51986],[100,52070],[100,52153],[100,52237],[100,52320],[100,52403],[100,52487],[100,52570],[100,52653],[100,52737],[100,52820],[100,52903],[100,52987],[100,53070],[100,53153],[100,53237],[100,53320],[100,53403],[100,53487],[100,53570],[100,53653],[100,53742],[100,53820],[100,53903],[100,53986],[100,54070],[100,54153],[100,54236],[100,54320],[100,54403],[100,54486],[100,54570],[100,54653],[100,54736],[100,54820],[100,54903],[100,54986],[100,55069],[100,55153],[100,55236],[100,55319],[100,55402],[100,55486]]",1274.5976,1277.6061,78.02083492,1.7063,"[{""rating"":78.02083492279053,""responseTime"":1.7062999999989188}]",space,2.4688,,1277.6062,Definitely yes,100,1277.6104,,,[],,0,10,10,10,1,audio/Narrative8Situation1.wav,audio/Narrative7Situation1.wav,audio/Narrative6Situation1.wav,audio/Narrative5Situation1.wav,5,2,2,5,,,,,,,,,,,,,,,,,,,,,,,,,,,,,,,,,,,,,,,
,,,,,66e9236f775eae67be04229d,2025-07-07_22h00.04.725,group3.4_multiperson,2023.2.2,Win32,61.34969325,686c2ebf0248f13bef9af11f,686c7b804577134355d3d33e,,,,,,,,,,,,,,,,,,,,,,,,,,,,,1277.6107,1,audio/Narrative7Situation2.wav,1280.6224,,1280.6225,1288.1207,"[[999,0],[999,83],[999,166],[999,250],[999,333],[999,416],[999,499],[999,583],[999,666],[999,749],[999,833],[999,916],[999,999],[999,1083],[999,1166],[999,1249],[999,1332],[999,1416],[999,1499],[999,1582],[999,1666],[999,1749],[999,1838],[999,1916],[999,2006],[999,2082],[77.8,3090],[77.6,3171],[77.6,3249],[77.6,3332],[77.5,3415],[77.5,3498],[77.5,3582],[77.5,3665],[77.5,3749],[77.5,3832],[77.5,3915],[77.5,3998],[77.5,4082],[77.5,4165],[77.5,4248],[77.5,4331],[77.5,4415],[77.5,4499],[77.5,4587],[77.5,4665],[77.5,4748],[77.5,4832],[77.5,4915],[77.5,4998],[77.5,5081],[77.5,5164],[77.5,5248],[77.5,5332],[77.5,5415],[77.5,5498],[77.5,5581],[77.5,5664],[77.5,5748],[77.5,5832],[77.5,5914],[77.5,5998],[77.5,6081],[77.5,6164],[77.5,6248],[77.5,6331],[77.5,6414],[77.5,6498],[77.5,6582],[77.5,6664],[77.5,6748],[77.5,6831],[77.5,6914],[77.5,6998],[77.5,7081],[77.5,7164],[77.5,7248],[77.5,7331],[77.5,7414],[77.5,7498]]",1288.1209,1290.9192,57.18750159,1.6111,"[{""rating"":57.18750158945719,""responseTime"":1.6110999999996238}]",space,2.2585,,1290.9192,Definitely yes,100,1290.9212,,,[],,0,11,11,11,1,audio/Narrative8Situation2.wav,audio/Narrative7Situation2.wav,audio/Narrative6Situation2.wav,audio/Narrative5Situation2.wav,3,3,3,3,,,,,,,,,,,,,,,,,,,,,,,,,,,,,,,,,,,,,,,
,,,,,66e9236f775eae67be04229d,2025-07-07_22h00.04.725,group3.4_multiperson,2023.2.2,Win32,61.34969325,686c2ebf0248f13bef9af11f,686c7b804577134355d3d33e,,,,,,,,,,,,,,,,,,,,,,,,,,,,,1290.9214,1,audio/Narrative7Situation3.wav,1298.935,,1298.9351,1308.1996,"[[999,0],[999,82],[999,166],[999,249],[999,332],[999,416],[999,499],[999,582],[999,665],[999,749],[999,832],[999,916],[999,1004],[999,1082],[999,1172],[999,1249],[999,1332],[999,1416],[999,1498],[999,1582],[999,1665],[999,1749],[999,1832],[66.6,1915],[66.9,2005],[67.1,2082],[67.1,2165],[67.1,2248],[67.1,2332],[67.1,2415],[67.1,2499],[67.1,2581],[67.1,2665],[67.1,2749],[67.1,2832],[67.1,2915],[67.1,2998],[67.1,3087],[67.1,3165],[67.1,3248],[67.1,3331],[67.1,3415],[67.1,3498],[67.1,3581],[67.1,3665],[67.1,3748],[67.1,3831],[67.1,3915],[67.1,3998],[67.1,4081],[67.1,4165],[67.1,4248],[67.1,4331],[67.1,4415],[67.1,4498],[67.1,4581],[67.1,4665],[67.1,4748],[67.1,4831],[46.8,4922],[43.3,4998],[43,5081],[43,5164],[43.3,5255],[45.8,5338],[57.4,5421],[60.6,5504],[62.4,5588],[63.2,5664],[63.5,5754],[63.5,5831],[63.5,5914],[63.5,5997],[63.5,6081],[63.5,6164],[63.8,6248],[64.9,6337],[65.4,6414],[66.1,6505],[67.7,6587],[69.6,6664],[80.7,6754],[84.8,6837],[85.3,6914],[85.4,6997],[85.4,7081],[85.4,7164],[85.4,7247],[85.4,7330],[85.4,7414],[85.4,7497],[85.4,7580],[85.4,7664],[85.4,7747],[85.4,7831],[85.4,7914],[85.4,7997],[85.4,8081],[85.4,8163],[85.4,8247],[85.4,8330],[85.4,8414],[85.4,8497],[85.4,8580],[85.4,8663],[85.4,8747],[85.4,8830],[85.4,8914],[85.4,8997],[85.4,9080],[85.4,9163],[85.4,9246]]",1308.1998,1310.4155,86.77083651,2.0602,"[{""rating"":86.77083651224773,""responseTime"":1.6145999999996548},{""rating"":86.77083651224773,""responseTime"":2.060199999999213}]",space,1.6671,,1310.4157,Not at all,0,1310.4222,,,[],,0,12,12,12,1,audio/Narrative8Situation3.wav,audio/Narrative7Situation3.wav,audio/Narrative6Situation3.wav,audio/Narrative5Situation3.wav,4,8,5,3,,,,,,,,,,,,,,,,,,,,,,,,,,,,,,,,,,,,,,,
,,,,,66e9236f775eae67be04229d,2025-07-07_22h00.04.725,group3.4_multiperson,2023.2.2,Win32,61.34969325,686c2ebf0248f13bef9af11f,686c7b804577134355d3d33e,,,,,,,,,,,,,,,,,,,,,,,,,,,,,1310.4228,1,audio/Narrative7Situation4.wav,1313.431,,1313.4312,1325.1616,"[[86.8,916],[86.8,999],[86.8,1082],[86.8,1165],[86.8,1249],[86.8,1333],[86.8,1415],[86.8,1499],[86.8,1582],[86.8,1665],[86.8,1749],[86.8,1832],[86.8,1915],[86.8,1999],[86.8,2082],[86.8,2165],[86.8,2249],[86.8,2332],[86.8,2415],[86.8,2499],[86.8,2582],[86.8,2665],[86.8,2749],[86.8,2832],[86.8,2915],[86.8,2999],[86.8,3082],[86.8,3165],[86.8,3248],[86.8,3332],[86.8,3415],[86.8,3498],[86.8,3582],[86.8,3665],[86.8,3749],[86.8,3832],[86.8,3915],[86.8,3998],[86.8,4082],[86.8,4165],[86.8,4248],[86.8,4332],[86.8,4415],[86.8,4498],[86.8,4582],[86.8,4665],[86.8,4749],[86.8,4831],[86.8,4915],[86.8,4998],[86.8,5081],[86.8,5164],[86.8,5248],[86.8,5331],[86.8,5415],[86.8,5498],[86.8,5581],[86.8,5665],[86.8,5748],[86.8,5831],[86.8,5915],[86.8,5998],[86.8,6081],[86.8,6164],[86.8,6248],[86.8,6331],[86.8,6414],[86.8,6498],[86.8,6581],[86.8,6664],[86.8,6748],[86.8,6831],[86.8,6914],[86.8,6998],[86.8,7081],[86.8,7164],[86.8,7247],[86.8,7331],[86.8,7414],[86.8,7498],[86.8,7581],[86.8,7664],[86.8,7747],[86.8,7831],[86.8,7914],[86.8,7997],[86.8,8081],[86.8,8164],[86.8,8247],[86.8,8331],[86.8,8414],[86.8,8497],[86.8,8580],[86.8,8664],[86.8,8747],[86.8,8830],[86.8,8914],[86.8,8997],[86.8,9081],[86.8,9164],[86.8,9247],[86.8,9330],[86.8,9413],[86.8,9497],[86.8,9580],[86.8,9664],[86.8,9747],[86.8,9830],[86.8,9913],[86.8,9997],[86.8,10080],[86.8,10164],[86.8,10247],[86.8,10330],[86.8,10414],[86.8,10497],[86.8,10580],[86.8,10663],[86.8,10752],[86.8,10830],[86.8,10913],[86.8,10997],[86.8,11080],[86.8,11163],[86.8,11246],[86.8,11330],[86.8,11413],[86.8,11496],[86.8,11580],[86.8,11663]]",1325.162,1350.572,86.3541762,14.6234,"[{""rating"":86.35417620340984,""responseTime"":14.623400000000402}]",space,24.8664,,1350.5722,Definitely yes,100,1350.5792,,,[],,0,13,13,13,1,audio/Narrative8Situation4.wav,audio/Narrative7Situation4.wav,audio/Narrative6Situation4.wav,audio/Narrative5Situation4.wav,3,3,2,1,,,,,,,,,,,,,,,,,,,,,,,,,,,,,,,,,,,,,,,
,,,,,66e9236f775eae67be04229d,2025-07-07_22h00.04.725,group3.4_multiperson,2023.2.2,Win32,61.34969325,686c2ebf0248f13bef9af11f,686c7b804577134355d3d33e,,,,,,,,,,,,,,,,,,,,,,,,,,,,,1350.5799,1,audio/Narrative7Situation5.wav,1355.5875,,1355.5875,1364.0689,"[[999,0],[999,83],[999,166],[999,249],[999,332],[999,416],[999,499],[999,582],[999,665],[999,749],[999,833],[999,916],[999,999],[999,1082],[999,1165],[999,1249],[999,1333],[999,1415],[999,1499],[999,1582],[999,1665],[999,1749],[999,1832],[999,1916],[999,1999],[999,2082],[999,2166],[999,2249],[999,2332],[88.5,2422],[89,2500],[89.1,2588],[89.1,2671],[89,2749],[89,2832],[88.9,2923],[88.9,2999],[88.9,3082],[88.9,3171],[88.9,3249],[88.9,3332],[88.9,3415],[88.9,3499],[88.9,3582],[88.9,3665],[88.9,3748],[88.9,3832],[88.9,3915],[88.9,3998],[88.9,4082],[88.9,4165],[88.9,4248],[88.9,4332],[88.9,4415],[88.9,4498],[88.9,4581],[88.9,4665],[88.9,4748],[88.9,4832],[88.9,4915],[88.9,4998],[88.9,5081],[88.9,5165],[88.9,5248],[88.9,5331],[88.9,5415],[88.9,5498],[88.9,5581],[88.9,5664],[88.9,5748],[88.9,5831],[88.9,5914],[88.9,5998],[88.9,6081],[88.9,6164],[88.9,6248],[88.9,6331],[88.9,6414],[88.9,6498],[88.9,6581],[88.9,6664],[88.9,6748],[88.9,6831],[88.9,6914],[88.9,6998],[88.9,7081],[88.9,7164],[88.9,7248],[88.9,7331],[88.9,7414],[88.9,7497],[88.9,7581],[88.9,7664],[88.9,7748],[88.9,7831],[88.9,7914],[88.9,7997],[88.9,8081],[88.9,8164],[88.9,8247],[88.9,8331],[88.9,8415]]",1364.0692,1367.6342,91.35416349,3.5598,"[{""rating"":91.35416348775227,""responseTime"":3.5598000000006778}]",space,1.3679,,1367.6343,Partially,50,1367.64,,,[],,0,14,14,14,1,audio/Narrative8Situation5.wav,audio/Narrative7Situation5.wav,audio/Narrative6Situation5.wav,audio/Narrative5Situation5.wav,2,5,2,5,,,,,,,,,,,,,,,,,,,,,,,,,,,,,,,,,,,,,,,
,,,,,66e9236f775eae67be04229d,2025-07-07_22h00.04.725,group3.4_multiperson,2023.2.2,Win32,61.34969325,686c2ebf0248f13bef9af11f,686c7b804577134355d3d33e,,,,,,,,,,,,,,,,,,,,,,,,,,,,,1367.6405,1,audio/Narrative7Situation6.wav,1370.6505,space,1370.6506,1380.6312,"[[91.4,1499],[91.4,1582],[91.4,1673],[91.4,1749],[91.4,1832],[91.4,1915],[90.4,1999],[89.2,2082],[87.7,2166],[87.1,2249],[87.1,2332],[87.1,2415],[87.1,2499],[87.1,2582],[87.1,2665],[87.1,2748],[87.1,2832],[87.1,2915],[87.1,2998],[87.1,3082],[87.1,3165],[87.1,3248],[87.1,3331],[87.1,3415],[87.1,3498],[87.1,3582],[87.1,3665],[87.1,3748],[87.1,3831],[87.1,3915],[87.1,3998],[87.1,4082],[87.1,4165],[87.1,4248],[87.1,4331],[87.1,4415],[87.1,4498],[87.1,4581],[87.1,4665],[87.1,4748],[87.1,4831],[87.1,4914],[87.1,4998],[87.1,5081],[87.1,5164],[87.1,5248],[87.1,5331],[87.1,5415],[87.1,5498],[87.1,5581],[87.1,5664],[87.1,5748],[87.1,5831],[87.1,5914],[87.1,5998],[87.1,6081],[87.1,6164],[87.1,6248],[87.1,6331],[87.1,6420],[87.1,6498],[87.1,6581],[87.1,6664],[87.1,6748],[87.1,6831],[87.1,6914],[87.1,6997],[87.1,7081],[87.1,7164],[87.1,7248],[87.1,7331],[87.1,7414],[87.1,7497],[87.1,7581],[87.1,7664],[87.1,7748],[87.1,7830],[87.1,7914],[87.1,7997],[87.1,8081],[87.1,8164],[87.1,8247],[87.1,8330],[87.1,8414],[87.1,8497],[87.1,8580],[87.1,8664],[87.1,8747],[87.1,8830],[87.1,8913],[87.1,8997],[87.1,9080],[87.1,9163],[87.1,9247],[87.1,9330],[87.1,9413],[87.1,9497],[87.1,9580],[87.1,9663],[87.1,9747],[87.1,9830],[87.1,9913]]",1380.6315,1417.0224,83.33333333,25.3674,"[{""rating"":87.08333969116211,""responseTime"":4.458400000000438},{""rating"":83.33333333333333,""responseTime"":25.367400000000544}]",space,35.8505,,1417.0226,Not at all,0,1417.0295,,,[],,0,15,15,15,1,audio/Narrative8Situation6.wav,audio/Narrative7Situation6.wav,audio/Narrative6Situation6.wav,audio/Narrative5Situation6.wav,2,3,2,3,0.5077,,,,,,,,,,,,,,,,,,,,,,,,,,,,,,,,,,,,,,
,,,,,66e9236f775eae67be04229d,2025-07-07_22h00.04.725,group3.4_multiperson,2023.2.2,Win32,61.34969325,686c2ebf0248f13bef9af11f,686c7b804577134355d3d33e,,,,,,,,,,,,,,,,,,,,,,,,,,,,,1417.0301,1,audio/Narrative7Situation7.wav,1422.038,,1422.0381,1439.2171,"[[999,1],[999,83],[999,166],[999,249],[999,332],[999,416],[999,499],[999,581],[999,670],[999,749],[999,832],[999,916],[999,999],[999,1082],[999,1166],[999,1249],[999,1332],[999,1416],[999,1499],[999,1582],[999,1666],[999,1749],[999,1832],[999,1915],[999,1999],[999,2082],[999,2165],[999,2249],[999,2332],[999,2415],[999,2498],[999,2582],[999,2665],[999,2749],[999,2832],[999,2915],[999,2998],[999,3082],[999,3165],[999,3248],[999,3332],[999,3415],[999,3499],[999,3581],[999,3665],[999,3748],[999,3831],[999,3915],[999,3998],[999,4081],[999,4164],[999,4248],[999,4331],[999,4415],[999,4498],[999,4581],[999,4665],[999,4748],[999,4831],[999,4914],[999,4998],[999,5081],[999,5165],[999,5248],[999,5331],[999,5415],[999,5498],[999,5581],[999,5664],[999,5748],[999,5831],[999,5914],[999,5997],[999,6081],[999,6164],[999,6247],[999,6331],[999,6414],[999,6498],[999,6581],[999,6664],[999,6748],[999,6836],[999,6914],[999,6998],[999,7080],[999,7164],[999,7247],[999,7330],[999,7414],[999,7504],[999,7581],[75.7,7670],[75.7,7753],[75.7,7831],[75.7,7914],[75.7,7997],[75.7,8080],[75.7,8163],[75.7,8247],[75.7,8330],[75.7,8414],[75.7,8497],[75.7,8580],[75.7,8664],[75.7,8747],[75.7,8830],[75.7,8913],[75.7,8997],[75.7,9080],[75.7,9163],[75.7,9246],[75.7,9330],[75.7,9413],[75.7,9497],[75.7,9580],[75.7,9664],[75.7,9747],[75.7,9830],[75.7,9913],[75.7,9997],[75.7,10080],[75.7,10163],[75.7,10247],[75.7,10330],[75.7,10413],[75.7,10497],[75.7,10579],[75.7,10663],[75.7,10746],[75.7,10829],[75.7,10913],[75.7,10996],[75.7,11079],[75.7,11163],[75.7,11246],[75.7,11329],[75.7,11413],[75.7,11496],[75.7,11579],[75.7,11663],[75.7,11746],[75.7,11829],[75.7,11915],[75.1,12003],[75,12079],[75,12163],[75,12246],[75,12329],[75,12413],[75,12496],[75,12579],[75,12663],[75,12746],[75,12829],[75,12913],[75,12996],[75,13079],[75,13163]]",1439.2173,1452.1638,80.62500159,12.2894,"[{""rating"":80.6250015894572,""responseTime"":12.289400000000342}]",space,12.4009,,1452.1639,Not at all,0,1452.1681,,,[],,0,16,16,16,1,audio/Narrative8Situation7.wav,audio/Narrative7Situation7.wav,audio/Narrative6Situation7.wav,audio/Narrative5Situation7.wav,3,5,5,4,,,,,,,,,,,,,,,,,,,,,,,,,,,,,,,,,,,,,,,
,,,,,66e9236f775eae67be04229d,2025-07-07_22h00.04.725,group3.4_multiperson,2023.2.2,Win32,61.34969325,686c2ebf0248f13bef9af11f,686c7b804577134355d3d33e,,,,,,,,,,,,,,,,,,,,,,,,,,,,,1452.1687,1,audio/Narrative7Situation8.wav,1454.1791,,1454.1791,1464.2105,"[[80.6,2922],[80.6,2999],[80.6,3083],[80.6,3166],[80.6,3249],[80.6,3332],[80.6,3416],[80.6,3499],[80.6,3583],[80.6,3666],[80.6,3749],[80.6,3833],[80.6,3916],[80.6,3999],[80.6,4083],[80.6,4166],[80.6,4249],[80.6,4332],[80.6,4416],[80.6,4499],[80.6,4582],[80.6,4666],[80.6,4749],[80.6,4833],[80.6,4916],[80.6,4999],[80.6,5082],[80.6,5166],[80.6,5249],[80.6,5332],[80.6,5416],[80.6,5499],[80.6,5582],[80.6,5665],[80.6,5749],[80.6,5832],[80.6,5916],[80.6,5999],[80.6,6082],[80.6,6166],[80.6,6249],[80.6,6332],[80.6,6416],[80.6,6498],[80.6,6582],[80.6,6665],[80.6,6748],[80.6,6832],[80.6,6915],[80.6,6998],[80.6,7082],[80.6,7165],[80.6,7248],[80.6,7332],[80.6,7415],[80.6,7498],[80.6,7582],[80.6,7665],[80.6,7748],[80.6,7831],[80.6,7915],[80.6,7998],[80.6,8082],[80.6,8165],[80.6,8248],[80.6,8332],[80.6,8415],[80.6,8498],[80.6,8582],[80.6,8665],[80.6,8748],[80.6,8831],[80.6,8915],[80.6,8998],[80.6,9081],[80.6,9164],[80.6,9248],[80.6,9331],[80.6,9414],[80.6,9498],[80.6,9581],[80.6,9664],[80.6,9748],[80.6,9831],[80.6,9917],[80.6,9997]]",1464.2107,1476.1577,80.62500159,11.372,"[{""rating"":80.6250015894572,""responseTime"":11.372000000000071}]",space,11.4,,1476.1578,Definitely yes,100,1476.1646,,,[],,0,17,17,17,1,audio/Narrative8Situation8.wav,audio/Narrative7Situation8.wav,audio/Narrative6Situation8.wav,audio/Narrative5Situation8.wav,3,2,5,3,,,,,,,,,,,,,,,,,,,,,,,,,,,,,,,,,,,,,,,
,,,,,66e9236f775eae67be04229d,2025-07-07_22h00.04.725,group3.4_multiperson,2023.2.2,Win32,61.34969325,686c2ebf0248f13bef9af11f,686c7b804577134355d3d33e,,,,,,,,,,,,,,,,,,,,,,,,,,,,,1476.1654,1,audio/Narrative7Situation9.wav,1478.1741,,1478.1742,1486.8055,"[[81.6,1416],[84.5,1500],[85.6,1590],[87.9,1672],[89.2,1749],[89.5,1832],[89.5,1915],[89.5,1999],[89.5,2082],[89.5,2165],[89.5,2249],[89.5,2333],[89.5,2416],[89.5,2499],[89.5,2582],[89.5,2665],[89.5,2754],[89.5,2832],[89.5,2915],[89.5,2999],[89.5,3087],[89.5,3165],[89.5,3249],[89.5,3332],[89.5,3415],[89.5,3498],[89.5,3582],[89.5,3665],[89.5,3748],[89.5,3832],[89.5,3915],[89.5,3998],[89.5,4081],[89.5,4165],[89.5,4248],[89.5,4332],[89.5,4415],[89.5,4498],[89.5,4582],[89.5,4665],[89.5,4748],[89.5,4831],[89.5,4915],[89.5,4999],[89.5,5082],[89.5,5164],[89.5,5248],[89.5,5331],[89.5,5414],[89.5,5498],[89.5,5581],[89.5,5664],[89.5,5748],[89.5,5831],[89.5,5914],[89.5,5998],[89.5,6081],[89.5,6164],[89.5,6248],[89.5,6331],[89.5,6414],[89.5,6497],[89.5,6581],[89.5,6664],[89.5,6748],[89.5,6831],[89.5,6914],[89.5,6997],[89.5,7081],[89.5,7164],[89.5,7248],[89.5,7331],[89.5,7414],[89.5,7497],[89.5,7581],[89.5,7664],[89.5,7747],[89.5,7831],[89.5,7914],[89.5,7997],[89.5,8081],[89.5,8164],[89.5,8247],[89.5,8330],[89.5,8414],[89.5,8497],[89.5,8581]]",1486.8057,1490.2213,81.14583492,3.1774,"[{""rating"":81.14583492279053,""responseTime"":3.1774000000002616}]",space,2.8683,,1490.2215,Partially,50,1490.2286,,,[],,0,18,18,18,1,audio/Narrative8Situation9.wav,audio/Narrative7Situation9.wav,audio/Narrative6Situation9.wav,audio/Narrative5Situation9.wav,3,2,4,3,,,,,,,,,,,,,,,,,,,,,,,,,,,,,,,,,,,,,,,
,,,,,66e9236f775eae67be04229d,2025-07-07_22h00.04.725,group3.4_multiperson,2023.2.2,Win32,61.34969325,686c2ebf0248f13bef9af11f,686c7b804577134355d3d33e,,,,,,,,,,,,,,,,,,,,,,,,,,,1493.4215,1496.0028,1496.0428,2,audio/Narrative13Situation2.wav,1496.043,,1496.0431,1525.8126,"[[81.5,17328],[82.5,17412],[83.2,17489],[83.2,17571],[83.2,17655],[83.2,17738],[83.2,17822],[83.2,17904],[83.2,17988],[83.2,18071],[83.2,18154],[83.2,18238],[83.2,18322],[83.2,18404],[83.2,18488],[83.2,18571],[83.2,18654],[83.2,18738],[83.2,18822],[83.2,18904],[83.2,18988],[83.2,19071],[83.2,19154],[83.2,19238],[83.2,19321],[83.2,19404],[83.2,19487],[83.2,19571],[83.2,19654],[83.2,19738],[83.2,19821],[83.2,19904],[83.2,19988],[83.2,20071],[83.2,20154],[83.2,20238],[83.2,20321],[83.2,20404],[83.2,20487],[83.2,20571],[83.2,20654],[83.2,20737],[83.2,20821],[83.2,20904],[83.2,20987],[83.2,21071],[83.2,21154],[83.2,21238],[83.2,21321],[83.2,21404],[83.2,21487],[83.2,21570],[83.2,21654],[83.2,21737],[83.2,21821],[83.2,21904],[83.2,21987],[83.2,22071],[83.2,22154],[83.2,22237],[83.2,22320],[83.2,22403],[83.2,22487],[83.2,22571],[83.2,22653],[83.2,22737],[83.2,22821],[83.2,22904],[83.2,22987],[83.2,23070],[83.2,23153],[83.2,23237],[83.2,23320],[83.2,23403],[83.2,23487],[83.2,23570],[83.2,23654],[83.2,23737],[83.2,23820],[83.2,23903],[83.2,23987],[83.2,24070],[83.2,24154],[83.2,24237],[83.2,24320],[83.2,24403],[83.2,24487],[83.2,24570],[83.2,24659],[83.2,24736],[83.2,24820],[83.2,24904],[83.2,24987],[83.2,25070],[83.2,25153],[83.2,25237],[83.2,25320],[83.2,25403],[83.2,25486],[83.2,25570],[83.2,25653],[83.2,25736],[83.2,25820],[83.2,25903],[83.2,25986],[83.2,26070],[83.2,26153],[83.2,26236],[83.2,26320],[83.2,26403],[83.2,26486],[83.2,26569],[83.2,26653],[83.2,26736],[83.2,26819],[83.2,26902],[83.2,26992],[83.2,27069],[83.2,27153],[83.2,27236],[83.2,27319],[76.7,27409],[69.5,27493],[66.6,27576],[64.1,27660],[63.1,27742],[62.6,27826],[62.1,27909],[61.8,27993],[61.6,28069],[61.6,28153],[61.6,28236],[61.6,28319],[61.6,28403],[61.6,28486],[61.6,28569],[61.6,28652],[61.6,28735],[61.6,28819],[61.6,28902],[61.6,28985],[61.6,29069],[61.6,29152],[61.6,29235],[61.6,29319],[61.6,29402],[61.6,29485],[61.6,29569],[61.6,29658],[61.6,29735]]",1525.8129,1525.8171,,,[],,,,1525.8173,Partially,50,1525.8201,,,[],,0,0,0,0,1,audio/Narrative13Situation2.wav,audio/Narrative13Situation2.wav,audio/Narrative13Situation2.wav,audio/Narrative13Situation2.wav,2,2,2,2,,,,,1490.2297,1493.4208,space,2.6686,,,,,,,,,,,,,,,,,,,,,,,,,,,,,,,
,,,,,66e9236f775eae67be04229d,2025-07-07_22h00.04.725,group3.4_multiperson,2023.2.2,Win32,61.34969325,686c2ebf0248f13bef9af11f,686c7b804577134355d3d33e,,,,,,,,,,,,,,,,,,,,,,,,,,,,,1525.8207,2,audio/Narrative6Situation1.wav,1527.8283,,1527.8283,1554.4222,"[[999,0],[999,83],[999,166],[999,249],[999,333],[999,416],[999,505],[999,583],[999,672],[999,755],[999,839],[999,923],[999,1005],[999,1089],[999,1166],[999,1256],[77.9,1340],[78.2,1422],[78.2,1499],[78.2,1583],[77.4,1666],[75.5,1756],[73.3,1840],[71.8,1922],[70.7,2006],[70.4,2083],[70.4,2166],[70.4,2249],[70.4,2332],[70.4,2416],[70.4,2499],[70.4,2582],[70.4,2666],[70.4,2749],[70.4,2832],[70.4,2916],[70.4,2999],[70.4,3082],[70.4,3165],[70.4,3249],[70.3,3332],[70.3,3416],[70.3,3498],[70.3,3582],[70.3,3665],[70.3,3754],[70.3,3832],[77.4,3922],[82.2,3999],[83.1,4090],[83.3,4171],[83.3,4249],[83.8,4339],[84.3,4415],[84.3,4498],[84.3,4582],[84.3,4665],[84.3,4748],[84.3,4832],[84.3,4915],[84.3,4999],[84.3,5082],[84.3,5165],[84.3,5249],[84.3,5332],[84.3,5415],[84.3,5499],[84.3,5582],[84.3,5665],[84.3,5749],[84.3,5832],[84.3,5915],[84.3,5998],[84.3,6081],[84.3,6165],[84.3,6248],[84.3,6331],[84.3,6414],[84.3,6498],[84.3,6581],[84.3,6665],[84.3,6748],[84.3,6831],[84.3,6915],[84.3,6998],[84.3,7082],[84.3,7165],[84.3,7248],[84.3,7331],[84.3,7414],[84.3,7497],[84.3,7581],[84.3,7664],[84.3,7748],[84.3,7831],[84.3,7914],[84.3,7998],[84.3,8081],[84.3,8164],[84.3,8248],[84.3,8330],[84.3,8414],[84.3,8498],[84.3,8581],[84.3,8664],[84.3,8747],[84.3,8831],[84.3,8914],[84.3,8998],[84.3,9081],[84.3,9164],[84.3,9248],[84.3,9331],[84.3,9415],[84.3,9498],[84.3,9580],[84.3,9664],[84.3,9748],[84.3,9830],[84.3,9914],[84.3,10003],[84.3,10080],[84.3,10163],[84.3,10247],[84.3,10330],[84.3,10414],[84.3,10497],[84.3,10580],[84.3,10664],[84.3,10747],[84.3,10830],[84.3,10913],[84.3,10997],[84.3,11080],[84.3,11164],[84.3,11247],[84.3,11330],[84.3,11414],[84.3,11497],[84.3,11580],[84.3,11663],[84.3,11747],[84.3,11830],[84.3,11914],[84.3,11997],[84.3,12080],[84.3,12163],[84.3,12247],[84.3,12330],[84.3,12413],[84.3,12497],[84.3,12580],[84.3,12663],[84.3,12747],[84.3,12829],[84.3,12913],[84.3,12997],[84.3,13080],[84.3,13163],[84.3,13246],[84.3,13329],[84.3,13413],[84.3,13497],[84.3,13579],[84.3,13663],[84.3,13746],[84.3,13829],[84.3,13913],[84.3,13996],[84.3,14079],[84.3,14163],[84.3,14246],[84.3,14329],[84.3,14413],[84.3,14496],[84.3,14579],[84.3,14663],[84.3,14746],[84.3,14835],[84.3,14912],[84.3,14996],[84.3,15079],[84.3,15163],[84.3,15246],[84.3,15329],[84.3,15413],[84.3,15496],[84.3,15579],[84.3,15662],[84.3,15746],[84.3,15829],[84.3,15912],[84.3,15996],[84.3,16079],[84.3,16162],[84.3,16245],[84.3,16329],[84.3,16412],[84.3,16495],[84.3,16584],[84.3,16662],[84.3,16746],[84.3,16829],[84.3,16912],[84.3,16996],[84.3,17079],[84.3,17162],[84.3,17246],[84.3,17329],[84.3,17412],[84.3,17495],[84.3,17578],[84.3,17662],[84.3,17745],[84.3,17828],[84.3,17912],[84.3,17995],[84.3,18078],[84.3,18162],[84.3,18245],[84.3,18329],[84.3,18412],[84.3,18495],[84.3,18578],[84.3,18662],[84.3,18745],[84.3,18828],[84.3,18912],[84.3,18995],[84.3,19078],[84.3,19162],[84.3,19245],[84.3,19328],[84.3,19412],[84.3,19495],[84.3,19578],[84.3,19662],[84.3,19745],[84.3,19828],[84.3,19912],[84.3,19995],[84.3,20078],[84.3,20162],[84.3,20245],[84.3,20334],[84.3,20411],[84.3,20495],[84.3,20578],[84.3,20661],[84.3,20744],[84.3,20828],[84.3,20911],[84.3,20995],[84.3,21077],[84.3,21161],[84.3,21244],[84.3,21328],[84.3,21411],[84.3,21495],[84.3,21584],[84.3,21661],[84.3,21750],[84.3,21828],[84.3,21917],[84.3,21994],[84.3,22084],[84.3,22161],[84.3,22244],[84.3,22327],[84.3,22411],[84.3,22495],[84.3,22578],[84.3,22661],[84.3,22744],[84.3,22828],[84.3,22916],[84.3,22994],[84.3,23078],[84.3,23161],[84.3,23244],[84.3,23327],[84.3,23410],[84.3,23494],[84.3,23577],[84.3,23660],[84.3,23744],[84.3,23827],[84.3,23910],[84.3,23994],[84.3,24077],[84.3,24161],[84.3,24244],[84.3,24327],[84.3,24410],[84.3,24494],[84.3,24577],[84.3,24660],[84.3,24744],[84.3,24827],[84.3,24910],[84.3,24993],[84.3,25077],[84.3,25160],[84.3,25243],[84.3,25327],[84.3,25410],[84.3,25493],[84.3,25577],[84.3,25660],[84.3,25743],[84.3,25826],[84.3,25910],[84.3,25993],[84.3,26076],[84.3,26160],[84.3,26243],[84.3,26326],[84.3,26410],[84.3,26493],[84.3,26577]]",1554.4225,1557.7877,84.27084287,0.9909,"[{""rating"":84.27084287007649,""responseTime"":0.9909000000002379}]",space,2.8215,,1557.7878,Definitely yes,100,1557.794,,,[],,0,1,1,1,1,audio/Narrative7Situation1.wav,audio/Narrative8Situation1.wav,audio/Narrative5Situation1.wav,audio/Narrative6Situation1.wav,2,5,5,2,,,,,,,,,,,,,,,,,,,,,,,,,,,,,,,,,,,,,,,
,,,,,66e9236f775eae67be04229d,2025-07-07_22h00.04.725,group3.4_multiperson,2023.2.2,Win32,61.34969325,686c2ebf0248f13bef9af11f,686c7b804577134355d3d33e,,,,,,,,,,,,,,,,,,,,,,,,,,,,,1557.7947,2,audio/Narrative6Situation2.wav,1560.8096,,1560.8097,1589.3137,"[[78.5,1834],[79.1,1910],[79.9,2000],[80.2,2076],[80.3,2159],[80.3,2243],[80.3,2326],[80.3,2410],[80.3,2499],[80.3,2576],[80.3,2659],[80.3,2743],[80.3,2826],[80.3,2909],[80.3,2993],[80.3,3076],[80.3,3159],[80.3,3242],[80.3,3326],[80.3,3409],[80.3,3493],[80.3,3576],[80.3,3659],[80.3,3742],[80.3,3826],[80.3,3909],[80.3,3992],[80.3,4076],[80.3,4159],[80.3,4242],[80.3,4326],[80.3,4409],[80.3,4492],[80.3,4576],[80.3,4659],[80.3,4742],[80.3,4826],[80.3,4909],[80.3,4992],[80.3,5076],[80.3,5159],[80.3,5242],[80.3,5326],[80.3,5409],[80.3,5492],[80.3,5576],[80.3,5658],[80.3,5742],[80.3,5826],[80.3,5909],[80.3,5992],[80.3,6075],[80.3,6158],[80.3,6242],[80.3,6326],[80.3,6408],[80.3,6492],[80.3,6575],[80.3,6658],[80.3,6742],[80.3,6825],[80.3,6908],[80.3,6992],[80.3,7075],[80.3,7158],[80.3,7241],[80.3,7325],[80.3,7408],[80.3,7491],[80.3,7575],[80.3,7658],[80.3,7741],[80.3,7825],[80.3,7908],[80.3,7997],[80.3,8075],[80.3,8158],[80.3,8241],[80.3,8325],[80.3,8408],[80.3,8491],[80.3,8575],[80.3,8658],[80.3,8741],[80.3,8825],[80.3,8908],[80.3,8991],[80.3,9074],[80.3,9158],[80.3,9241],[80.3,9324],[80.3,9408],[80.3,9491],[80.3,9574],[80.3,9657],[80.3,9741],[80.3,9825],[80.3,9907],[80.3,9991],[80.3,10074],[80.3,10157],[80.3,10241],[80.3,10324],[80.3,10407],[80.3,10491],[80.3,10574],[80.3,10657],[80.3,10741],[80.3,10824],[80.3,10907],[80.3,10991],[80.3,11074],[80.3,11157],[80.3,11241],[80.3,11324],[80.3,11407],[80.3,11491],[80.3,11574],[80.3,11657],[80.3,11741],[80.3,11824],[80.3,11907],[80.3,11990],[80.3,12074],[80.3,12157],[80.3,12240],[80.3,12324],[80.3,12407],[80.3,12490],[80.3,12574],[80.3,12657],[80.3,12740],[80.3,12824],[80.3,12907],[80.3,12990],[80.3,13074],[80.3,13157],[80.3,13240],[80.3,13324],[80.3,13407],[80.3,13490],[80.3,13574],[80.3,13657],[80.3,13740],[80.3,13824],[80.3,13907],[80.3,13990],[80.3,14073],[80.3,14157],[80.3,14240],[80.3,14324],[80.3,14407],[80.3,14490],[80.3,14573],[80.3,14657],[80.3,14740],[80.3,14823],[80.3,14907],[80.3,14990],[80.3,15073],[80.3,15157],[80.3,15239],[80.3,15323],[80.3,15407],[80.3,15490],[80.3,15573],[80.3,15656],[80.3,15739],[80.3,15823],[80.3,15906],[80.3,15989],[80.3,16073],[80.3,16156],[80.3,16240],[80.3,16323],[80.3,16406],[80.3,16490],[80.3,16573],[80.3,16656],[80.3,16739],[80.3,16822],[80.3,16906],[80.3,16989],[80.3,17073],[80.3,17156],[80.3,17239],[80.3,17322],[80.3,17406],[80.3,17489],[80.3,17572],[80.3,17656],[80.3,17739],[80.3,17822],[80.3,17906],[80.3,17988],[80.3,18076],[80.3,18155],[80.3,18238],[80.3,18322],[80.3,18406],[80.3,18489],[80.3,18572],[80.3,18656],[80.3,18739],[80.3,18822],[80.3,18905],[80.3,18989],[80.3,19072],[80.3,19156],[80.3,19238],[80.3,19322],[80.3,19405],[80.3,19489],[80.3,19572],[80.3,19656],[80.3,19739],[80.3,19822],[80.3,19905],[80.5,19996],[80.6,20072],[80.6,20156],[80.6,20238],[80.7,20328],[81.8,20412],[82.6,20494],[83.2,20572],[83.5,20655],[83.6,20738],[83.6,20822],[83.6,20905],[83.6,20988],[79.3,21079],[77.9,21162],[77.5,21238],[77.5,21326],[77.5,21405],[77.5,21488],[77.5,21577],[77.9,21655],[97.8,24161],[98.8,24244],[99.9,24326],[100,24408],[100,24488],[100,24571],[100,24654],[100,24737],[100,24821],[100,24904],[100,24987],[100,25071],[100,25154],[100,25237],[100,25321],[100,25404],[100,25487],[100,25571],[100,25654],[100,25737],[100,25820],[100,25904],[100,25987],[100,26071],[100,26154],[100,26237],[100,26320],[100,26404],[100,26487],[100,26570],[100,26654],[100,26737],[100,26820],[100,26903],[100,26987],[100,27070],[100,27154],[100,27236],[100,27320],[100,27403],[100,27487],[100,27570],[100,27653],[100,27742],[100,27820],[100,27903],[100,27986],[100,28070],[100,28154],[100,28236],[100,28320],[100,28403],[100,28486]]",1589.314,1599.7442,98.4375,5.4036,"[{""rating"":98.4375,""responseTime"":5.403599999999642}]",space,9.8868,,1599.7443,Not at all,0,1599.7485,,,[],,0,2,2,2,1,audio/Narrative7Situation2.wav,audio/Narrative8Situation2.wav,audio/Narrative5Situation2.wav,audio/Narrative6Situation2.wav,3,3,3,3,,,,,,,,,,,,,,,,,,,,,,,,,,,,,,,,,,,,,,,
,,,,,66e9236f775eae67be04229d,2025-07-07_22h00.04.725,group3.4_multiperson,2023.2.2,Win32,61.34969325,686c2ebf0248f13bef9af11f,686c7b804577134355d3d33e,,,,,,,,,,,,,,,,,,,,,,,,,,,,,1599.7489,2,audio/Narrative6Situation3.wav,1604.7598,,1604.7599,1617.3733,"[[999,1],[999,89],[999,166],[999,249],[999,332],[999,415],[999,498],[999,582],[999,672],[999,749],[999,833],[999,922],[999,1006],[999,1082],[999,1166],[999,1249],[999,1332],[999,1415],[999,1499],[89.6,1589],[89.9,1672],[90.2,1755],[90.5,1832],[90.8,1922],[90.9,1998],[90.9,2082],[90.9,2165],[90.9,2249],[90.9,2332],[90.9,2415],[90.9,2499],[90.9,2582],[90.9,2665],[90.9,2748],[90.9,2832],[90.9,2915],[90.9,2998],[90.9,3082],[90.9,3165],[90.9,3248],[90.9,3332],[90.9,3415],[90.9,3498],[90.9,3582],[90.9,3666],[90.9,3748],[90.9,3832],[90.9,3915],[90.9,3998],[90.9,4082],[90.9,4165],[90.9,4248],[90.9,4331],[90.9,4415],[90.9,4498],[90.9,4581],[90.9,4665],[90.9,4748],[90.9,4831],[90.9,4915],[90.9,4998],[90.9,5081],[90.9,5164],[90.9,5248],[90.9,5331],[90.9,5415],[90.9,5498],[90.9,5581],[90.9,5665],[90.9,5748],[90.9,5831],[90.9,5914],[90.9,5997],[90.9,6081],[90.9,6164],[90.9,6247],[90.9,6331],[90.9,6414],[90.9,6497],[90.9,6580],[90.9,6664],[90.9,6747],[90.9,6831],[90.9,6914],[90.9,6997],[90.9,7081],[90.9,7164],[90.9,7247],[90.9,7330],[90.9,7414],[90.9,7497],[90.9,7581],[90.9,7664],[90.9,7747],[90.9,7831],[90.9,7914],[90.9,7997],[90.9,8080],[90.9,8164],[90.9,8247],[90.9,8330],[90.9,8414],[90.9,8497],[90.9,8580],[90.9,8664],[90.9,8747],[90.9,8830],[90.9,8914],[90.9,8997],[90.9,9080],[90.9,9163],[90.9,9247],[90.9,9331],[90.9,9414],[90.9,9497],[90.9,9580],[90.9,9664],[90.9,9746],[90.9,9830],[90.9,9913],[90.9,9997],[90.9,10080],[90.9,10163],[90.9,10246],[90.9,10330],[90.9,10413],[90.9,10496],[90.9,10580],[90.9,10663],[90.9,10746],[90.9,10830],[90.9,10913],[90.9,10996],[90.9,11080],[90.9,11163],[90.9,11247],[90.9,11330],[90.9,11413],[90.9,11496],[90.9,11585],[90.9,11663],[90.9,11746],[90.9,11830],[90.9,11913],[90.9,11996],[90.9,12079],[90.9,12163],[90.9,12246],[90.9,12329],[90.9,12413],[90.9,12496],[90.9,12579]]",1617.3735,1624.9379,90.93750318,6.9034,"[{""rating"":90.93750317891438,""responseTime"":6.903400000000374}]",space,7.0167,,1624.938,Partially,50,1624.9445,,,[],,0,3,3,3,1,audio/Narrative7Situation3.wav,audio/Narrative8Situation3.wav,audio/Narrative5Situation3.wav,audio/Narrative6Situation3.wav,8,4,3,5,,,,,,,,,,,,,,,,,,,,,,,,,,,,,,,,,,,,,,,
,,,,,66e9236f775eae67be04229d,2025-07-07_22h00.04.725,group3.4_multiperson,2023.2.2,Win32,61.34969325,686c2ebf0248f13bef9af11f,686c7b804577134355d3d33e,,,,,,,,,,,,,,,,,,,,,,,,,,,,,1624.945,2,audio/Narrative6Situation4.wav,1626.9543,,1626.9545,1639.5677,"[[83.8,1082],[83,1166],[82.8,1256],[82.4,1338],[82.4,1416],[82.4,1499],[82.4,1583],[82.4,1665],[82.4,1749],[82.4,1832],[82.4,1915],[82.4,1998],[82.4,2082],[82.4,2165],[82.4,2249],[82.4,2332],[82.4,2415],[82.4,2499],[82.4,2582],[82.4,2666],[82.4,2749],[82.4,2832],[82.4,2915],[82.4,2998],[82.4,3082],[82.4,3165],[82.4,3249],[82.4,3332],[82.4,3415],[82.4,3498],[82.4,3582],[82.4,3665],[82.4,3748],[82.4,3832],[82.4,3915],[82.4,3998],[82.4,4081],[82.4,4165],[82.4,4248],[82.4,4331],[82.4,4414],[82.4,4498],[82.4,4582],[82.4,4665],[82.4,4748],[82.4,4831],[82.4,4915],[82.4,4998],[82.4,5081],[82.4,5172],[82.4,5248],[82.4,5331],[82.4,5414],[82.4,5498],[82.4,5581],[82.4,5665],[82.4,5748],[82.4,5831],[82.4,5914],[82.4,5998],[82.4,6081],[82.4,6164],[82.4,6248],[82.4,6331],[82.4,6414],[82.4,6498],[82.4,6580],[82.4,6664],[82.4,6748],[82.4,6831],[82.4,6914],[82.4,6998],[82.4,7080],[82.4,7164],[82.4,7247],[82.4,7331],[82.4,7414],[82.4,7497],[82.4,7580],[82.4,7664],[82.4,7747],[82.4,7830],[82.4,7914],[82.4,7997],[82.4,8080],[82.4,8164],[82.4,8247],[82.4,8331],[82.4,8414],[82.4,8497],[82.4,8581],[82.4,8663],[82.4,8747],[82.4,8830],[82.4,8913],[82.4,8997],[82.4,9081],[82.4,9163],[82.4,9247],[82.4,9330],[82.4,9413],[82.4,9497],[82.4,9580],[82.4,9663],[82.4,9752],[82.4,9830],[82.4,9913],[82.4,9996],[82.4,10080],[82.4,10163],[82.4,10247],[82.4,10330],[82.4,10413],[82.4,10497],[82.4,10580],[82.4,10663],[82.4,10747],[82.4,10830],[82.4,10913],[82.4,10997],[82.4,11080],[82.4,11163],[82.4,11247],[82.4,11330],[82.4,11413],[82.4,11496],[82.4,11579],[82.4,11663],[82.4,11746],[82.4,11829],[82.4,11913],[82.4,11996],[82.4,12080],[82.4,12163],[82.4,12246],[82.4,12335],[82.4,12413],[82.4,12496],[82.4,12579]]",1639.5679,1641.7008,82.39583174,1.6228,"[{""rating"":82.39583174387614,""responseTime"":1.6228000000007796}]",space,1.584,,1641.701,Partially,50,1641.7054,,,[],,0,4,4,4,1,audio/Narrative7Situation4.wav,audio/Narrative8Situation4.wav,audio/Narrative5Situation4.wav,audio/Narrative6Situation4.wav,3,3,1,2,,,,,,,,,,,,,,,,,,,,,,,,,,,,,,,,,,,,,,,
,,,,,66e9236f775eae67be04229d,2025-07-07_22h00.04.725,group3.4_multiperson,2023.2.2,Win32,61.34969325,686c2ebf0248f13bef9af11f,686c7b804577134355d3d33e,,,,,,,,,,,,,,,,,,,,,,,,,,,,,1641.7061,2,audio/Narrative6Situation5.wav,1643.7167,,1643.7168,1651.6818,"[[81.4,1673],[80.4,1755],[79.9,1840],[79.5,1916],[79.5,1999],[79.5,2082],[79.5,2165],[79.5,2249],[79.5,2332],[79.5,2422],[79.5,2499],[79.5,2582],[79.5,2665],[79.5,2749],[79.5,2832],[79.5,2915],[79.5,2999],[79.5,3082],[79.5,3165],[79.5,3249],[79.5,3332],[79.5,3415],[79.5,3499],[79.5,3581],[79.5,3665],[79.5,3749],[79.5,3832],[79.5,3915],[79.5,3998],[79.5,4081],[79.5,4165],[79.5,4249],[79.5,4332],[79.5,4415],[79.5,4499],[79.5,4581],[79.5,4671],[79.5,4748],[79.5,4831],[79.5,4915],[79.5,4998],[79.5,5081],[79.5,5165],[79.5,5248],[79.5,5331],[79.5,5415],[79.5,5498],[79.5,5581],[79.5,5664],[79.5,5748],[79.5,5831],[79.5,5914],[79.5,5998],[79.5,6081],[79.5,6165],[79.5,6248],[79.5,6331],[79.5,6414],[79.5,6498],[79.5,6581],[79.5,6664],[79.5,6748],[79.5,6831],[79.5,6914],[79.5,6998],[79.5,7081],[79.5,7164],[79.5,7248],[79.5,7330],[79.5,7414],[79.5,7498],[79.5,7581],[79.5,7664],[79.5,7748],[79.5,7831],[79.5,7914]]",1651.6821,1653.9974,85.10416349,1.6639,"[{""rating"":85.10416348775227,""responseTime"":1.6639000000002397}]",space,1.7669,,1653.9974,Not at all,0,1654.0035,,,[],,0,5,5,5,1,audio/Narrative7Situation5.wav,audio/Narrative8Situation5.wav,audio/Narrative5Situation5.wav,audio/Narrative6Situation5.wav,5,2,5,2,,,,,,,,,,,,,,,,,,,,,,,,,,,,,,,,,,,,,,,
,,,,,66e9236f775eae67be04229d,2025-07-07_22h00.04.725,group3.4_multiperson,2023.2.2,Win32,61.34969325,686c2ebf0248f13bef9af11f,686c7b804577134355d3d33e,,,,,,,,,,,,,,,,,,,,,,,,,,,,,1654.0042,2,audio/Narrative6Situation6.wav,1656.0139,,1656.014,1667.0947,[],1667.0948,1679.0574,73.95833333,11.1907,"[{""rating"":73.95833333333334,""responseTime"":11.190700000001243}]",space,11.4142,,1679.0575,Partially,50,1679.0614,,,[],,0,6,6,6,1,audio/Narrative7Situation6.wav,audio/Narrative8Situation6.wav,audio/Narrative5Situation6.wav,audio/Narrative6Situation6.wav,3,2,3,2,,,,,,,,,,,,,,,,,,,,,,,,,,,,,,,,,,,,,,,
,,,,,66e9236f775eae67be04229d,2025-07-07_22h00.04.725,group3.4_multiperson,2023.2.2,Win32,61.34969325,686c2ebf0248f13bef9af11f,686c7b804577134355d3d33e,,,,,,,,,,,,,,,,,,,,,,,,,,,,,1679.0618,2,audio/Narrative6Situation7.wav,1684.0732,,1684.0733,1708.9175,"[[74,12496],[74,12580],[74,12663],[74,12753],[74,12829],[74,12919],[74,12997],[74,13080],[74,13163],[74,13247],[74,13330],[74,13413],[74,13496],[74,13584],[74,13663],[74,13746],[74,13830],[74,13913],[74,13996],[74,14080],[74,14163],[74,14246],[74,14330],[74,14413],[74,14496],[74,14580],[74,14663],[74,14746],[74,14830],[74,14919],[74,14996],[74,15079],[74,15163],[74,15246],[74,15329],[74,15413],[74,15496],[74,15579],[74,15663],[74,15746],[74,15835],[74,15913],[74,15995],[74,16079],[74,16163],[74,16246],[74,16329],[74,16412],[74,16496],[74,16579],[74,16662],[74,16745],[74,16829],[74,16918],[74,16996],[74,17079],[74,17162],[74,17245],[74,17329],[74,17412],[74,17495],[74,17579],[74,17662],[74,17745],[74,17829],[74,17912],[74,17995],[74,18079],[74,18161],[74,18245],[74,18329],[74,18412],[74,18495],[74,18578],[74,18668],[74,18745],[74,18828],[74,18911],[74,18995],[74,19078],[74,19162],[74,19245],[74,19328],[74,19412],[74,19495],[74,19578],[74,19662],[74,19745],[74,19828],[74,19912],[74,19994],[74,20078],[74,20162],[74,20250],[74,20328],[74,20411],[74,20494],[74,20578],[74,20661],[74,20744],[74,20828],[74,20911],[74,20994],[74,21078],[74,21161],[74,21245],[74,21328],[74,21411],[74,21494],[74,21578],[74,21661],[74,21744],[74,21828],[74,21911],[74,21994],[74,22078],[74,22161],[74,22244],[74,22328],[74,22411],[74,22494],[74,22577],[74,22661],[74,22744],[74,22827],[74,22911],[74,22994],[74,23081],[74,23160],[74,23244],[74,23327],[74,23410],[74,23494],[74,23583],[74,23661],[74,23744],[74,23827],[74,23911],[74,23994],[74,24077],[74,24160],[74,24244],[74,24327],[74,24410],[74,24494],[74,24577],[74,24661],[74,24744],[74,24827]]",1708.9177,1733.7612,73.95833333,24.2834,"[{""rating"":73.95833333333334,""responseTime"":24.283400000000256}]",space,24.2921,,1733.7613,Definitely yes,100,1733.7687,,,[],,0,7,7,7,1,audio/Narrative7Situation7.wav,audio/Narrative8Situation7.wav,audio/Narrative5Situation7.wav,audio/Narrative6Situation7.wav,5,3,4,5,,,,,,,,,,,,,,,,,,,,,,,,,,,,,,,,,,,,,,,
,,,,,66e9236f775eae67be04229d,2025-07-07_22h00.04.725,group3.4_multiperson,2023.2.2,Win32,61.34969325,686c2ebf0248f13bef9af11f,686c7b804577134355d3d33e,,,,,,,,,,,,,,,,,,,,,,,,,,,,,1733.7694,2,audio/Narrative6Situation8.wav,1738.7767,,1738.7767,1745.6417,[],1745.6418,1755.2228,73.95833333,9.1781,"[{""rating"":73.95833333333334,""responseTime"":9.17810000000145}]",space,9.0479,,1755.2229,Definitely yes,100,1755.2268,,,[],,0,8,8,8,1,audio/Narrative7Situation8.wav,audio/Narrative8Situation8.wav,audio/Narrative5Situation8.wav,audio/Narrative6Situation8.wav,2,3,3,5,,,,,,,,,,,,,,,,,,,,,,,,,,,,,,,,,,,,,,,
,,,,,66e9236f775eae67be04229d,2025-07-07_22h00.04.725,group3.4_multiperson,2023.2.2,Win32,61.34969325,686c2ebf0248f13bef9af11f,686c7b804577134355d3d33e,,,,,,,,,,,,,,,,,,,,,,,,,,,,,1755.2273,2,audio/Narrative6Situation9.wav,1759.2387,,1759.2387,1769.2028,"[[75.8,1332],[75.2,1422],[75.1,1499],[75.1,1582],[75.1,1666],[75.1,1749],[75.1,1832],[75.1,1916],[75.1,1999],[75.1,2082],[75.1,2165],[75.1,2249],[75.1,2332],[75.1,2415],[75.1,2499],[75.1,2587],[75.1,2665],[75.1,2749],[75.1,2832],[75.1,2915],[75.1,2999],[75.1,3081],[75.1,3166],[75.1,3249],[75.1,3332],[75.1,3415],[75.1,3498],[75.1,3581],[75.1,3665],[75.1,3748],[75.1,3831],[75.1,3915],[75.1,3998],[75.1,4081],[75.1,4165],[75.1,4248],[75.1,4331],[75.1,4415],[75.1,4498],[75.1,4587],[75.1,4664],[75.1,4748],[75.1,4831],[75.1,4915],[75.1,4998],[75.1,5081],[75.1,5165],[75.1,5248],[75.1,5331],[75.1,5415],[75.1,5498],[75.1,5581],[75.1,5665],[75.1,5748],[75.1,5831],[75.1,5914],[75.1,5998],[75.1,6081],[75.1,6164],[75.1,6248],[75.1,6331],[75.1,6414],[75.1,6498],[75.1,6581],[75.1,6664],[75.1,6748],[75.1,6831],[75.1,6914],[75.1,6998],[75.1,7081],[75.1,7164],[71.9,7255],[71.3,7331],[70.6,7415],[69.3,7504],[68.3,7581],[67.2,7671],[66.4,7747],[65.7,7838],[65.3,7914],[64.7,8003],[64,8087],[63.6,8164],[63.6,8247],[63.6,8330],[63.6,8414],[63.6,8497],[63.6,8581],[63.6,8664],[63.6,8747],[63.6,8830],[63.6,8914],[63.6,8997],[63.6,9081],[63.6,9163],[63.6,9247],[63.6,9332],[63.6,9414],[63.6,9497],[63.6,9581],[63.6,9663],[63.6,9747],[63.6,9830],[63.6,9913]]",1769.203,1817.3577,73.75000318,48.144,"[{""rating"":73.7500031789144,""responseTime"":48.144000000000005}]",space,0.1671,,1817.3579,Definitely yes,100,1821.9228,99.58333969,3.1872,"[{""rating"":99.58333969116211,""responseTime"":3.187199999999166}]",space,0,9,9,9,1,audio/Narrative7Situation9.wav,audio/Narrative8Situation9.wav,audio/Narrative5Situation9.wav,audio/Narrative6Situation9.wav,2,3,3,4,,,4.0255,,,,,,,,,,,,,,,,,,,,,,,,,,,,,,,,,,,,
,,,,,66e9236f775eae67be04229d,2025-07-07_22h00.04.725,group3.4_multiperson,2023.2.2,Win32,61.34969325,686c2ebf0248f13bef9af11f,686c7b804577134355d3d33e,,,,,,,,,,,,,,,,,,,,,,,,,,,,,1821.9236,2,audio/Narrative5Situation1.wav,1826.9388,,1826.9389,1840.2355,"[[97.1,10003],[92.2,10088],[91.8,10163],[91.5,10246],[91.4,10330],[91.4,10414],[91.4,10496],[91.4,10580],[91.4,10663],[91.4,10747],[91.4,10829]]",1840.2357,1849.8998,84.375,8.7861,"[{""rating"":84.375,""responseTime"":8.786099999999806}]",space,9.1165,,1849.8999,Partially,50,1849.9064,,,[],,0,10,10,10,1,audio/Narrative8Situation1.wav,audio/Narrative7Situation1.wav,audio/Narrative6Situation1.wav,audio/Narrative5Situation1.wav,5,2,2,5,,,,,,,,,,,,,,,,,,,,,,,,,,,,,,,,,,,,,,,
,,,,,66e9236f775eae67be04229d,2025-07-07_22h00.04.725,group3.4_multiperson,2023.2.2,Win32,61.34969325,686c2ebf0248f13bef9af11f,686c7b804577134355d3d33e,,,,,,,,,,,,,,,,,,,,,,,,,,,,,1849.907,2,audio/Narrative5Situation2.wav,1852.9158,,1852.9158,1882.3918,"[[84.2,3165],[81.3,3256],[76.1,3339],[70.5,3415],[68.1,3505],[67.4,3589],[67.1,3666],[67,3748],[67,3831],[67,3915],[67,3998],[67,4081],[67,4165],[67,4248],[67,4331],[67,4414],[67,4498],[67,4581],[67,4665],[67,4748],[67,4831],[67,4915],[67,4998],[67,5081],[67,5164],[67,5248],[67,5331],[67,5414],[67,5498],[67,5581],[67,5664],[67,5748],[67,5831],[67,5914],[67,5998],[67,6081],[67,6164],[67,6248],[67,6331],[67,6414],[67,6497],[67,6581],[67,6664],[67,6748],[67,6830],[67,6914],[67,6998],[67,7080],[67,7164],[67,7247],[67,7330],[67,7414],[67,7497],[67,7580],[67,7664],[67,7747],[67,7830],[67,7914],[67,7997],[67,8080],[67,8164],[67,8247],[67,8331],[67,8414],[67,8497],[67,8580],[67,8664],[67,8747],[67,8830],[67,8914],[67,8997],[67,9080],[67,9164],[67,9247],[67,9330],[67,9413],[67,9497],[67,9586],[67,9663],[67,9747],[67,9830],[67,9913],[67,9997],[67,10080],[67,10169],[67,10247],[67,10330],[67,10413],[67,10497],[67,10580],[67,10663],[67,10746],[67,10829],[67,10913],[67,10996],[67,11080],[67,11163],[67,11246],[67,11330],[67,11413],[67,11496],[67,11580],[67,11663],[67,11746],[67,11829],[67,11913],[67,11996],[67,12080],[67,12163],[67,12246],[67,12330],[67,12412],[67,12496],[67,12580],[67,12663],[67,12746],[67,12829],[67,12912],[67,12996],[67,13079],[67,13162],[67,13246],[67,13329],[67,13412],[67,13496],[63.2,13580],[43,13670],[40,13752],[37.7,13836],[36.8,13919],[36.6,13996],[36.5,14086],[38,14170],[39.1,14253],[39.5,14336],[41.7,14419],[69.3,16584],[77.5,16669],[78.1,16746],[43.6,16835],[18.8,16919],[18.5,17001],[41.7,17085],[68.1,17168],[87.7,17253],[79.3,17917],[79.3,17995],[79,18079],[77,18168],[76.7,18245],[76.7,18328],[76.7,18411],[76.8,18494],[76.8,18578],[76.8,18661],[76.8,18744],[76.8,18828],[76.8,18911],[76.8,18994],[76.8,19077],[76.8,19161],[76.8,19244],[76.8,19328],[76.8,19411],[76.8,19494],[76.8,19578],[76.8,19661],[76.8,19744],[76.8,19828],[76.8,19911],[76.8,19994],[76.8,20078],[76.8,20160],[76.8,20244],[76.8,20328],[76.8,20410],[76.8,20494],[76.8,20577],[76.8,20660],[76.8,20744],[76.8,20827],[76.8,20910],[76.8,20994],[76.8,21077],[76.8,21160],[76.8,21244],[76.8,21327],[76.8,21411],[76.8,21493],[76.8,21577],[76.8,21660],[76.8,21744],[76.8,21827],[76.8,21910],[76.8,21993],[76.8,22077],[76.8,22160],[76.8,22244],[76.8,22327],[76.8,22410],[76.8,22500],[76.8,22577],[76.8,22666],[76.8,22743],[76.8,22827],[76.8,22910],[76.8,22994],[76.8,23077],[76.8,23160],[76.8,23243],[76.8,23327],[76.8,23410],[76.8,23493],[76.8,23577],[76.8,23660],[76.8,23743],[76.8,23826],[76.8,23916],[76.8,23993],[76.8,24077],[76.8,24160],[76.8,24243],[76.8,24326],[76.8,24410],[76.8,24493],[76.8,24577],[76.8,24659],[76.8,24743],[76.8,24826],[76.8,24910],[76.8,24993],[76.8,25076],[76.8,25159],[76.8,25243],[76.8,25326],[76.8,25409],[76.8,25498],[76.8,25576],[76.8,25659],[76.8,25743],[76.8,25826],[76.8,25910],[76.8,25993],[76.8,26076],[76.8,26160],[76.8,26242],[76.8,26326],[76.8,26409],[76.8,26492],[76.8,26576],[76.8,26659],[76.8,26743],[76.8,26826],[76.8,26909],[76.8,26993],[76.8,27076],[76.8,27159],[76.8,27242],[76.8,27326],[76.8,27409],[76.8,27492],[76.8,27575],[76.8,27659],[76.8,27742],[76.8,27826],[76.8,27909],[76.8,27992],[76.8,28075],[76.8,28159],[76.8,28242],[76.8,28325],[76.8,28409],[76.8,28492],[76.8,28575],[76.8,28659],[76.8,28742],[76.8,28825],[76.8,28909],[76.8,28992],[76.8,29076],[76.8,29159],[76.8,29242],[76.8,29325],[76.8,29409]]",1882.3921,1885.9254,85.00000636,1.9049,"[{""rating"":85.00000635782878,""responseTime"":1.9048999999986336}]",space,3.0033,,1885.9255,Partially,50,1885.9296,,,[],,0,11,11,11,1,audio/Narrative8Situation2.wav,audio/Narrative7Situation2.wav,audio/Narrative6Situation2.wav,audio/Narrative5Situation2.wav,3,3,3,3,,,,,,,,,,,,,,,,,,,,,,,,,,,,,,,,,,,,,,,
,,,,,66e9236f775eae67be04229d,2025-07-07_22h00.04.725,group3.4_multiperson,2023.2.2,Win32,61.34969325,686c2ebf0248f13bef9af11f,686c7b804577134355d3d33e,,,,,,,,,,,,,,,,,,,,,,,,,,,,,1885.9303,2,audio/Narrative5Situation3.wav,1888.9398,,1888.9399,1902.8369,"[[85.6,2916],[85.9,2999],[86,3088],[85.7,3173],[85.6,3255],[85.6,3331],[85.6,3415],[85.6,3498],[85.6,3582],[85.6,3665],[85.6,3749],[85.6,3832],[85.6,3915],[85.6,4000],[85.6,4087],[85.6,4165],[85.6,4249],[85.6,4332],[85.6,4416],[85.6,4498],[85.6,4582],[85.6,4665],[85.6,4749],[85.6,4831],[85.6,4915],[85.6,4998],[85.6,5082],[85.6,5165],[85.6,5248],[85.6,5331],[85.6,5414],[85.6,5498],[85.6,5581],[85.6,5665],[85.6,5748],[85.6,5832],[85.6,5920],[85.6,5998],[85.6,6081],[85.6,6165],[85.6,6248],[85.6,6331],[85.6,6414],[85.6,6498],[85.6,6581],[85.6,6664],[85.6,6748],[85.6,6831],[85.6,6915],[85.6,6998],[85.6,7081],[85.6,7164],[85.6,7247],[85.6,7331],[85.6,7414],[85.6,7498],[85.6,7581],[85.6,7664],[85.6,7748],[85.6,7831],[85.6,7914],[85.6,7998],[85.6,8081],[85.6,8164],[85.6,8247],[85.6,8331],[85.6,8414],[85.6,8497],[85.6,8581],[85.6,8664],[85.6,8747],[85.6,8831],[85.6,8914],[85.6,8997],[85.6,9081],[85.6,9164],[85.6,9247],[85.6,9331],[85.6,9414],[85.6,9497],[85.6,9580],[85.6,9664],[85.6,9747],[85.6,9830],[85.6,9914],[85.6,9997],[85.6,10080],[85.6,10164],[85.6,10247],[85.6,10330],[85.6,10414],[85.6,10497],[85.6,10580],[85.6,10664],[85.6,10747],[85.6,10830],[85.6,10914],[85.6,10997],[85.6,11080],[85.6,11164],[85.6,11246],[85.6,11330],[85.6,11413],[85.6,11496],[85.6,11580],[85.6,11664],[85.6,11746],[85.6,11830],[85.6,11913],[85.6,11996],[85.6,12080],[85.6,12163],[85.6,12246],[85.6,12330],[85.6,12413],[85.6,12496],[85.6,12580],[85.6,12663],[85.6,12746],[85.6,12831],[85.6,12913],[85.6,12996],[85.6,13079],[85.6,13163],[85.6,13246],[85.6,13329],[85.6,13413],[85.6,13496],[85.6,13579],[85.6,13663],[85.6,13746],[85.6,13830]]",1902.8373,1906.2025,85.62499682,3.3548,"[{""rating"":85.62499682108562,""responseTime"":3.3548000000007505}]",space,1.3903,,1906.2027,Not at all,0,1906.2092,,,[],,0,12,12,12,1,audio/Narrative8Situation3.wav,audio/Narrative7Situation3.wav,audio/Narrative6Situation3.wav,audio/Narrative5Situation3.wav,4,8,5,3,,,,,,,,,,,,,,,,,,,,,,,,,,,,,,,,,,,,,,,
,,,,,66e9236f775eae67be04229d,2025-07-07_22h00.04.725,group3.4_multiperson,2023.2.2,Win32,61.34969325,686c2ebf0248f13bef9af11f,686c7b804577134355d3d33e,,,,,,,,,,,,,,,,,,,,,,,,,,,,,1906.2097,2,audio/Narrative5Situation4.wav,1907.2189,space,1907.219,1927.6139,"[[85.7,8165],[85.7,8247],[85.7,8331],[85.7,8414],[85.7,8497],[85.7,8580],[85.7,8664],[85.7,8747],[85.7,8830],[85.7,8913],[85.7,8997],[85.7,9080],[85.7,9163],[85.7,9248],[85.7,9330],[85.7,9414],[85.7,9497],[85.7,9580],[85.7,9663],[85.7,9747],[85.7,9830],[85.7,9913],[85.7,9997],[85.7,10081],[85.7,10163],[85.7,10247],[85.7,10330],[85.7,10413],[85.7,10497],[85.7,10580],[85.7,10663],[85.7,10747],[85.7,10830],[85.7,10914],[85.7,10997],[85.7,11080],[85.7,11163],[85.7,11246],[85.7,11329],[85.7,11414],[85.7,11497],[85.7,11580],[85.7,11663],[85.7,11746],[85.7,11830],[85.7,11913],[85.7,11996],[85.7,12079],[85.7,12163],[85.7,12246],[85.7,12329],[85.7,12413],[85.7,12497],[85.7,12580],[85.7,12663],[85.7,12746],[85.7,12829],[85.7,12913],[85.7,12996],[85.7,13079],[85.7,13163],[85.7,13246],[85.7,13329],[85.7,13412],[85.7,13496],[85.7,13579],[85.7,13663],[85.7,13746],[85.7,13829],[85.7,13912],[85.7,13996],[85.7,14079],[85.7,14163],[85.7,14246],[85.7,14329],[85.7,14412],[85.7,14496],[85.7,14579],[85.7,14662],[85.7,14746],[85.7,14829],[85.7,14912],[85.7,14996],[85.7,15079],[85.7,15162],[85.7,15245],[85.7,15329],[85.7,15412],[85.7,15496],[85.7,15578],[85.7,15662],[85.7,15745],[85.7,15829],[85.7,15912],[85.7,15996],[85.7,16078],[85.7,16168],[85.7,16246],[85.7,16328],[85.7,16412],[85.7,16495],[85.7,16578],[85.7,16662],[85.7,16745],[85.7,16828],[85.7,16912],[85.7,16995],[85.7,17078],[85.7,17162],[85.7,17245],[85.7,17328],[85.7,17412],[85.7,17495],[85.7,17578],[85.7,17661],[85.7,17745],[85.7,17828],[85.7,17912],[85.7,17995],[85.7,18078],[85.7,18162],[85.7,18245],[85.7,18328],[85.7,18411],[85.7,18495],[85.7,18578],[85.7,18661],[85.7,18745],[85.7,18828],[85.7,18911],[85.7,18995],[85.7,19078],[85.7,19161],[85.7,19245],[85.7,19328],[85.7,19411],[85.7,19495],[85.7,19577],[85.7,19661],[85.7,19744],[85.7,19828],[85.7,19911],[85.7,19995],[85.7,20077],[85.7,20161],[85.7,20244],[85.7,20327]]",1927.6142,1942.6767,70.62500318,14.3853,"[{""rating"":70.6250031789144,""responseTime"":14.385300000000825}]",space,14.5211,,1942.6768,Partially,50,1942.6845,,,[],,0,13,13,13,1,audio/Narrative8Situation4.wav,audio/Narrative7Situation4.wav,audio/Narrative6Situation4.wav,audio/Narrative5Situation4.wav,3,3,2,1,0.2012,,,,,,,,,,,,,,,,,,,,,,,,,,,,,,,,,,,,,,
,,,,,66e9236f775eae67be04229d,2025-07-07_22h00.04.725,group3.4_multiperson,2023.2.2,Win32,61.34969325,686c2ebf0248f13bef9af11f,686c7b804577134355d3d33e,,,,,,,,,,,,,,,,,,,,,,,,,,,,,1942.6854,2,audio/Narrative5Situation5.wav,1947.6924,,1947.6925,1963.1221,"[[71.3,2589],[72.1,2666],[72.8,2754],[73,2832],[73,2915],[73,2999],[73,3081],[73,3165],[73,3248],[73,3332],[73,3416],[73,3498],[73,3582],[73,3665],[73,3748],[73,3832],[73,3915],[73,4005],[73,4081],[73,4164],[73,4248],[73,4332],[73,4414],[73,4498],[73,4582],[73,4665],[73,4748],[73,4831],[73,4914],[73,4998],[73,5081],[73,5164],[73,5248],[73,5331],[73,5414],[73,5498],[73,5581],[73,5664],[73,5748],[73,5831],[73,5914],[73,5998],[73,6081],[73,6164],[73,6248],[73,6331],[73,6414],[73,6498],[73,6581],[73,6664],[73,6747],[73,6831],[73,6914],[73,6997],[73,7081],[73,7164],[73,7247],[73,7331],[73,7414],[73,7497],[73,7580],[73,7664],[73,7747],[73,7831],[73,7914],[73,7997],[73,8080],[73,8163],[73,8253],[73,8331],[73,8419],[73,8497],[73,8580],[73,8663],[73,8747],[73,8830],[73,8913],[73,8997],[73,9080],[73,9163],[73,9247],[73,9330],[73,9413],[73,9496],[73,9580],[73,9664],[73,9747],[73,9830],[73,9914],[73,9997],[73,10080],[73,10164],[73,10247],[73,10330],[73,10413],[73,10496],[73,10579],[73,10662],[73,10746],[73,10835],[73,10913],[73,10996],[73,11084],[73,11163],[73,11247],[73,11330],[73,11413],[73,11496],[73,11580],[73,11663],[73,11746],[73,11829],[73,11913],[73,11996],[73,12079],[73,12163],[73,12246],[73,12329],[73,12413],[73,12496],[73,12579],[73,12663],[73,12746],[73,12835],[73,12912],[73,12996],[73,13079],[73,13163],[73,13246],[73,13329],[73,13413],[73,13496],[73,13585],[73,13663],[73,13746],[73,13829],[73,13913],[73,13996],[73,14079],[73,14163],[73,14245],[73,14329],[73,14413],[73,14501],[73,14579],[73,14663],[73,14745],[73,14829],[73,14912],[73,14995],[73,15079],[73,15163],[73,15245],[73,15329],[73,15412]]",1963.1224,2304.1496,77.70833174,341.0171,"[{""rating"":77.70833174387614,""responseTime"":341.0171000000014}]",space,337.9042,0.1961,2304.1496,Partially,50,2304.1526,,,[],,0,14,14,14,1,audio/Narrative8Situation5.wav,audio/Narrative7Situation5.wav,audio/Narrative6Situation5.wav,audio/Narrative5Situation5.wav,2,5,2,5,,,,,,,,,,,,,,,,,,,,,,,,,,,,,,,,,,,,,,,
,,,,,66e9236f775eae67be04229d,2025-07-07_22h00.04.725,group3.4_multiperson,2023.2.2,Win32,61.34969325,686c2ebf0248f13bef9af11f,686c7b804577134355d3d33e,,,,,,,,,,,,,,,,,,,,,,,,,,,,,2304.1527,2,audio/Narrative5Situation6.wav,2307.1657,,2307.1657,2312.8317,[],2312.8319,2367.118,77.70833174,35.1784,"[{""rating"":77.70833174387614,""responseTime"":35.17840000000024}]",space,53.7369,,2367.1182,Definitely yes,100,2367.1274,,,[],,0,15,15,15,1,audio/Narrative8Situation6.wav,audio/Narrative7Situation6.wav,audio/Narrative6Situation6.wav,audio/Narrative5Situation6.wav,2,3,2,3,,,,,,,,,,,,,,,,,,,,,,,,,,,,,,,,,,,,,,,
,,,,,66e9236f775eae67be04229d,2025-07-07_22h00.04.725,group3.4_multiperson,2023.2.2,Win32,61.34969325,686c2ebf0248f13bef9af11f,686c7b804577134355d3d33e,,,,,,,,,,,,,,,,,,,,,,,,,,,,,2367.128,2,audio/Narrative5Situation7.wav,2371.1339,,2371.134,2392.1786,"[[78.9,750],[85.2,839],[88.5,923],[90.2,999],[90.9,1083],[91.3,1166],[90.9,1249],[89.9,1333],[89,1422],[88.9,1499],[88.9,1582],[88.9,1665],[88.9,1749],[88.9,1832],[88.9,1915],[88.9,1999],[88.9,2082],[88.9,2166],[88.9,2248],[88.9,2332],[88.9,2418],[88.9,2498],[88.9,2582],[88.9,2665],[88.9,2748],[88.9,2832],[88.9,2915],[88.9,2998],[88.9,3082],[88.9,3165],[88.9,3248],[88.9,3332],[88.9,3415],[88.9,3498],[88.9,3582],[88.9,3665],[88.9,3748],[88.9,3832],[88.9,3915],[88.9,3998],[88.9,4081],[88.9,4164],[88.9,4248],[88.9,4331],[88.9,4415],[88.9,4498],[88.9,4581],[88.9,4665],[88.9,4748],[88.9,4832],[88.9,4914],[88.9,4998],[88.9,5081],[88.9,5164],[88.9,5248],[88.9,5331],[88.9,5414],[88.9,5498],[88.9,5581],[88.9,5665],[88.9,5749],[88.9,5831],[88.9,5914],[88.9,5998],[88.9,6081],[88.9,6165],[88.9,6248],[88.9,6331],[88.9,6415],[88.9,6498],[88.9,6581],[88.9,6664],[88.9,6748],[88.9,6836],[88.9,6914],[88.9,7003],[88.9,7081],[88.9,7164],[88.9,7248],[88.9,7331],[88.9,7414],[88.9,7498],[88.9,7581],[88.9,7664],[88.9,7747],[88.9,7831],[88.9,7914],[88.9,7997],[88.9,8081],[88.9,8164],[88.9,8247],[88.9,8331],[88.9,8414],[88.9,8497],[88.9,8580],[88.9,8664],[88.9,8747],[88.9,8831],[88.9,8914],[88.9,8997],[88.9,9080],[88.9,9169],[88.9,9248],[88.9,9330],[88.9,9414],[88.9,9497],[88.9,9580],[88.9,9664],[88.9,9747],[88.9,9830],[88.9,9913],[88.9,9997],[88.9,10080],[88.9,10164],[88.9,10247],[88.9,10330],[88.9,10413],[88.9,10497],[88.9,10580],[88.9,10663],[88.9,10746],[88.9,10830],[88.9,10913],[88.9,10997],[88.9,11080],[88.9,11163],[88.9,11247],[88.9,11330],[88.9,11413],[88.9,11497],[88.9,11585],[88.9,11663],[88.9,11746],[88.9,11830],[88.9,11913],[88.9,11996],[88.9,12080],[88.9,12163],[88.9,12246],[88.9,12329],[88.9,12413],[88.9,12496],[88.9,12579],[88.9,12663],[88.9,12746],[88.9,12829],[88.9,12913],[88.9,12996],[88.9,13079],[88.9,13163],[88.9,13246],[88.9,13329],[88.9,13413],[88.9,13496],[88.9,13579],[88.9,13663],[88.9,13746],[88.9,13829],[88.9,13912],[88.9,13996],[88.9,14084],[88.9,14162],[88.9,14246],[88.9,14329],[88.9,14418],[88.9,14496],[88.9,14579],[88.9,14662],[88.9,14746],[88.9,14829],[88.9,14912],[88.9,14995],[88.9,15079],[88.9,15162],[88.9,15245],[88.9,15329],[88.9,15412],[88.9,15495],[88.9,15579],[88.9,15662],[88.9,15745],[88.9,15829],[88.9,15912],[88.9,15996],[88.9,16079],[88.9,16162],[88.9,16245],[88.9,16328],[88.9,16412],[88.9,16495],[88.9,16578],[88.9,16662],[88.9,16745],[88.9,16828],[88.9,16911],[88.9,16995],[88.9,17078],[88.9,17162],[88.9,17245],[88.9,17328],[88.9,17412],[88.9,17496],[88.9,17578],[88.9,17661],[88.9,17745],[88.9,17828],[88.9,17911],[88.9,17995],[88.9,18078],[88.9,18161],[88.9,18245],[88.9,18328],[88.9,18412],[88.9,18495],[88.9,18578],[88.9,18661],[88.9,18744],[88.9,18828],[88.9,18911],[88.9,18995],[88.9,19078],[88.9,19161],[88.9,19244],[88.9,19328],[88.9,19416],[88.9,19495],[88.9,19578],[88.9,19661],[88.9,19745],[88.9,19828],[88.9,19911],[88.9,19994],[88.9,20078],[88.9,20161],[88.9,20244],[88.9,20327],[88.9,20411],[88.9,20495],[88.9,20578],[88.9,20661],[88.9,20744],[88.9,20827],[88.9,20911],[88.9,20994]]",2392.1792,2399.5933,76.5625,6.1573,"[{""rating"":88.02083333333333,""responseTime"":3.604500000000371},{""rating"":76.5625,""responseTime"":6.15730000000076}]",space,6.8682,,2399.5934,Partially,50,2399.5997,,,[],,0,16,16,16,1,audio/Narrative8Situation7.wav,audio/Narrative7Situation7.wav,audio/Narrative6Situation7.wav,audio/Narrative5Situation7.wav,3,5,5,4,,,,,,,,,,,,,,,,,,,,,,,,,,,,,,,,,,,,,,,
,,,,,66e9236f775eae67be04229d,2025-07-07_22h00.04.725,group3.4_multiperson,2023.2.2,Win32,61.34969325,686c2ebf0248f13bef9af11f,686c7b804577134355d3d33e,,,,,,,,,,,,,,,,,,,,,,,,,,,,,2399.6003,2,audio/Narrative5Situation8.wav,2402.6093,,2402.6094,2411.4238,"[[76.8,2582],[77.1,2666],[77.1,2749],[77.1,2832],[77.1,2915],[77.1,2998],[77.1,3082],[77.1,3165],[77.1,3249],[77.1,3332],[77.1,3415],[77.1,3499],[77.1,3582],[77.1,3665],[77.1,3749],[77.1,3832],[77.1,3915],[77.1,4004],[77.1,4082],[77.1,4165],[77.1,4248],[77.1,4331],[77.1,4415],[77.1,4499],[77.1,4582],[77.1,4665],[77.1,4748],[77.1,4832],[77.1,4915],[77.1,4998],[77.1,5081],[77.1,5165],[77.1,5249],[77.1,5331],[77.1,5415],[77.1,5498],[77.1,5582],[77.1,5665],[77.1,5748],[77.1,5832],[77.1,5914],[77.1,5998],[77.1,6082],[77.1,6165],[77.1,6248],[77.1,6331],[77.1,6414],[77.1,6504],[77.1,6581],[77.1,6664],[77.1,6748],[77.1,6831],[77.1,6914],[77.1,6997],[77.1,7081],[77.1,7164],[77.1,7247],[77.1,7331],[77.1,7414],[77.1,7498],[77.1,7581],[77.1,7664],[77.1,7748],[77.1,7831],[77.1,7915],[77.1,7998],[77.1,8081],[77.1,8164],[77.1,8248],[77.1,8331],[77.1,8414],[77.1,8497],[77.1,8581],[77.1,8664],[77.1,8747]]",2411.424,2420.0887,60.52083174,5.9142,"[{""rating"":60.52083174387614,""responseTime"":5.914199999999255}]",space,8.1257,,2420.0888,Not at all,0,2420.0956,,,[],,0,17,17,17,1,audio/Narrative8Situation8.wav,audio/Narrative7Situation8.wav,audio/Narrative6Situation8.wav,audio/Narrative5Situation8.wav,3,2,5,3,,,,,,,,,,,,,,,,,,,,,,,,,,,,,,,,,,,,,,,
,,,,,66e9236f775eae67be04229d,2025-07-07_22h00.04.725,group3.4_multiperson,2023.2.2,Win32,61.34969325,686c2ebf0248f13bef9af11f,686c7b804577134355d3d33e,,,,,,,,,,,,,,,,,,,,,,,,,,,,,2420.0962,2,audio/Narrative5Situation9.wav,2423.1044,,2423.1045,2469.1986,[],2469.1987,2471.5425,75,0.8986,"[{""rating"":75,""responseTime"":0.8985999999995329}]",space,1.8066,,2471.5426,Partially,50,2471.5485,,,[],,0,18,18,18,1,audio/Narrative8Situation9.wav,audio/Narrative7Situation9.wav,audio/Narrative6Situation9.wav,audio/Narrative5Situation9.wav,3,2,4,3,,,,,,,,,,,,,,,,,,,,,,,,,,,,,,,,,,,,,,,
,,,,,66e9236f775eae67be04229d,2025-07-07_22h00.04.725,group3.4_multiperson,2023.2.2,Win32,61.34969325,686c2ebf0248f13bef9af11f,686c7b804577134355d3d33e,,,,,,,,,,,,,,,,,,,,,,,,,,,,,,,,,,,,,,,,,,,,,,,,,,,,,,,,,,,,,,,,,,,,,,2471.5489,2473.0757,space,0.9828,,2473.0763,2490.9554,space,17.5567,,,,,,,,,,,,,,,,,,,,,,,,,,
,,,,,66e9236f775eae67be04229d,2025-07-07_22h00.04.725,group3.4_multiperson,2023.2.2,Win32,61.34969325,686c2ebf0248f13bef9af11f,686c7b804577134355d3d33e,,,,,,,,,,,,,,,,,,,,,,,,,,,,,2493.5735,1,audio/Narrative7Situation9.wav,2495.587,,,,,2527.4631,2533.628,99.16666349,5.8199,"[{""rating"":99.16666348775227,""responseTime"":5.819899999998597}]",space,5.6168,,2533.6281,Not at all,0,2533.6348,,,[],,,,,,,,,,,2,2,2,2,,,,,,,,,,,,,,,2490.9606,2493.5372,2495.5877,3,2527.4628,"[[74.9,7430],[74.8,7514],[74.8,7597],[74.6,7680],[74.6,7764],[74.6,7847],[74.6,7930],[74.6,8014],[74.6,8097],[74.6,8180],[74.6,8263],[74.6,8347],[74.6,8430],[74.6,8514],[74.6,8596],[74.6,8679],[74.6,8763],[74.6,8847],[74.6,8929],[74.6,9013],[74.6,9097],[74.6,9180],[74.6,9263],[74.6,9346],[74.6,9429],[74.6,9513],[74.6,9596],[74.6,9680],[74.6,9763],[74.6,9846],[74.6,9930],[74.6,10013],[74.6,10096],[74.6,10179],[74.6,10263],[74.6,10346],[74.6,10430],[74.6,10513],[74.6,10596],[74.6,10679],[74.6,10762],[74.6,10845],[74.6,10928],[74.6,11013],[74.6,11096],[74.6,11179],[74.6,11263],[74.6,11346],[74.6,11429],[74.6,11513],[74.6,11596],[74.6,11679],[74.6,11763],[74.6,11846],[74.6,11929],[74.6,12013],[74.6,12096],[74.6,12180],[74.6,12263],[74.6,12345],[74.6,12429],[74.6,12512],[74.6,12596],[74.6,12679],[74.6,12762],[74.6,12846],[74.6,12929],[74.6,13012],[74.6,13095],[74.6,13179],[74.6,13263],[74.6,13346],[74.6,13429],[74.6,13512],[74.6,13595],[74.6,13679],[74.6,13762],[74.6,13845],[74.6,13929],[74.6,14012],[74.6,14095],[74.6,14179],[74.6,14262],[74.6,14345],[74.6,14429],[74.6,14512],[74.6,14595],[74.6,14678],[74.6,14762],[74.6,14845],[74.6,14929],[74.6,15012],[74.6,15095],[74.6,15179],[74.6,15262],[74.6,15345],[74.6,15428],[74.6,15511],[74.6,15595],[74.6,15678],[74.6,15761],[74.6,15844],[74.6,15928],[74.6,16012],[74.6,16095],[74.6,16178],[74.6,16261],[74.6,16345],[74.6,16428],[74.6,16511],[74.6,16595],[74.6,16678],[74.6,16761],[74.6,16844],[74.6,16928],[74.6,17011],[74.6,17094],[74.6,17178],[74.6,17261],[74.6,17345],[74.6,17427],[74.6,17512],[74.6,17594],[74.6,17678],[74.6,17761],[74.6,17844],[74.6,17928],[74.6,18011],[74.6,18094],[74.6,18178],[74.6,18260],[74.6,18344],[74.6,18427],[74.6,18511],[74.6,18594],[74.6,18677],[74.6,18760],[74.6,18844],[74.6,18927],[74.6,19011],[74.6,19094],[74.6,19177],[74.6,19260],[74.6,19344],[74.6,19427],[74.6,19511],[74.6,19594],[74.6,19678],[74.6,19761],[74.6,19844],[74.6,19927],[74.6,20010],[74.6,20093],[74.6,20177],[74.6,20260],[74.6,20344],[74.6,20427],[74.6,20510],[74.6,20593],[74.6,20677],[74.6,20760],[74.6,20843],[74.6,20927],[74.6,21010],[74.6,21093],[74.6,21176],[74.6,21259],[74.6,21343],[74.6,21426],[74.6,21510],[74.6,21593],[74.6,21677],[74.6,21760],[74.6,21843],[74.6,21926],[74.6,22010],[74.6,22093],[74.6,22177],[74.6,22260],[74.6,22343],[74.6,22427],[74.6,22509],[74.6,22593],[74.6,22676],[74.6,22759],[74.6,22843],[74.6,22926],[74.6,23009],[74.6,23094],[74.6,23176],[74.6,23259],[74.6,23343],[74.6,23426],[74.6,23509],[74.6,23593],[74.6,23676],[74.6,23760],[74.6,23843],[74.6,23926],[74.6,24009],[74.6,24093],[74.6,24176],[74.6,24259],[74.6,24343],[74.6,24426],[74.6,24510],[74.6,24593],[74.6,24676],[74.6,24760],[74.6,24842],[100,25342]]",0,0,0,0,1,"Larry had recently lost his family, job and home, and was now living on his own in the park. He had most of his belongings, including some clothes, a blanket, and his mother’s special necklace. His family had been very important to him and he felt as though he did not have much going for him. One of his first days in the park he came across a family that did not have much food and looked very cold. He decided to give them some of his food and his blanket.","Larry had recently lost his family, job and home, and was now living on his own in the park. He had most of his belongings, including some clothes, a blanket, and his mother’s special necklace. His family had been very important to him and he felt as though he did not have much going for him. One of his first days in the park he came across a family that did not have much food and looked very cold. He decided to give them some of his food and his blanket.","Larry had recently lost his family, job and home, and was now living on his own in the park. He had most of his belongings, including some clothes, a blanket, and his mother’s special necklace. His family had been very important to him and he felt as though he did not have much going for him. One of his first days in the park he came across a family that did not have much food and looked very cold. He decided to give them some of his food and his blanket.","Larry had recently lost his family, job and home, and was now living on his own in the park. He had most of his belongings, including some clothes, a blanket, and his mother’s special necklace. His family had been very important to him and he felt as though he did not have much going for him. One of his first days in the park he came across a family that did not have much food and looked very cold. He decided to give them some of his food and his blanket.",,,,,,,,,,
,,,,,66e9236f775eae67be04229d,2025-07-07_22h00.04.725,group3.4_multiperson,2023.2.2,Win32,61.34969325,686c2ebf0248f13bef9af11f,686c7b804577134355d3d33e,,,,,,,,,,,,,,,,,,,,,,,,,,,,,2533.6359,1,audio/Narrative7Situation9.wav,2536.2104,space,,,,2560.0546,2579.366,73.6458381,17.8672,"[{""rating"":73.64583810170492,""responseTime"":17.86719999999923}]",space,18.7682,,2579.366,Partially,50,2579.3726,,,[],,,,,,,,,,,6,2,3,9,2.5487,,,,,,,,,,,,,,,,2536.2106,3,2560.0545,[],0,1,1,1,1,"It was just another Sunday afternoon for Lucy, she was on her way to the farmer's market to pick up some produce. When she arrived at the old train depot that housed the market, she noticed two men fighting on the steps. Before she could call for help, one of the men crumpled to his knees. The other man dropped an object that appeared to be a knife and ran off. When Lucy approached the crime scene she realized that the man who had been murdered was the Mayor and that he had a gunshot wound.","One day at work, Margaret walked up to her partner, Al, to ask him to talk to the chief of staff at the local hospital where she worked as a nurse.","Luke always thought of himself as an honest man. That's why during his evening jog around the swamp, he pondered his recent affair with the receptionist at work. Luke looked up at the sky and asked God why he was so weak and unfaithful. He thought of the impact this would have on his family and told God of his conflicted feelings toward telling his wife Marta.","Linda and Amy had been best friends since kindergarten, they even found homes on the same street in the forest on the edge of town. Their biggest fight had been over who gets the bigger slice of cake, until Amy married Dan. Linda loathed Dan, she thought he was manipulative and had a violent temper. She only put up with him because Amy loved him. ",,,,,,,,,,
