consent.started,consent.stopped,consentResponse.keys,consentResponse.rt,consentResponse.duration,participantID,date,expName,psychopyVersion,OS,frameRate,STUDY_ID,SESSION_ID,opening1.started,opening1.stopped,keyEndingOpening1.keys,keyEndingOpening1.rt,keyEndingOpening1.duration,volumeAdjust.started,volumeAdjust.stopped,endingAdjust.keys,endingAdjust.rt,endingAdjust.duration,opening2.started,opening2.stopped,keyEndingOpening.keys,keyEndingOpening.rt,keyEndingOpening.duration,mouse.x,mouse.y,mouse.leftButton,mouse.midButton,mouse.rightButton,mouse.time,instructionLoop.thisRepN,instructionLoop.thisTrialN,instructionLoop.thisN,instructionLoop.thisIndex,instructionLoop.ran,readyForAudio.started,readyForAudio.stopped,fixation.started,run,audio_played,fixation.stopped,endPractice.keys,audioPre.started,audioPre.stopped,continuousResponses_audio,intRating.started,intRating.stopped,intQuestionSlider.response,intQuestionSlider.rt,intQuestionSlider.history,confirmResponse.keys,confirmResponse.rt,confirmResponse.duration,catchQuestion.started,catch_label,catch_value,catchQuestion.stopped,catchQuestionSlider.response,catchQuestionSlider.rt,catchQuestionSlider.history,confirmResponse_2.keys,audioRunLoop.thisRepN,audioRunLoop.thisTrialN,audioRunLoop.thisN,audioRunLoop.thisIndex,audioRunLoop.ran,conditions1_1,conditions2_1,conditions1_2,conditions2_2,dur1_1,dur2_1,dur1_2,dur2_2,endPractice.rt,endPractice.duration,confirmResponse_2.rt,confirmResponse_2.duration,runIntervalBreak.started,runIntervalBreak.stopped,endingBreakKey.keys,endingBreakKey.rt,endingBreakKey.duration,connection.started,connection.stopped,connectionEnding.keys,connectionEnding.rt,connectionEnding.duration,readyForText.started,readyForText.stopped,textPre.started,run_dup,textPre.stopped,continuousResponses_text,textRunLoop.thisRepN,textRunLoop.thisTrialN,textRunLoop.thisN,textRunLoop.thisIndex,textRunLoop.ran,text1_1,text1_2,text2_1,text2_2,runBreakText.started,runBreakText.stopped,endingBreakKey_2.keys,endingBreakKey_2.rt,endingBreakKey_2.duration,ending.started,ending.stopped,endingEnding.keys,endingEnding.rt,endingEnding.duration
0.0011,2520.6693,y,2520.3483,,66f02f508e8473f0362ed99e,2025-07-07_19h46.12.095,group3.4_multiperson,2023.2.2,Win32,60.24096386,686c2ebf0248f13bef9af11f,686c84c7524b1f5a8141bda3,,,,,,,,,,,,,,,,,,,,,,,,,,,,,,,,,,,,,,,,,,,,,,,,,,,,,,,,,,,,,,,,,,,,,,,,,,,,,,,,,,,,,,,,,,,,,,,,,,,,,,,,
,,,,,66f02f508e8473f0362ed99e,2025-07-07_19h46.12.095,group3.4_multiperson,2023.2.2,Win32,60.24096386,686c2ebf0248f13bef9af11f,686c84c7524b1f5a8141bda3,2520.6703,2530.4765,space,9.6994,,,,,,,,,,,,,,,,,,,,,,,,,,,,,,,,,,,,,,,,,,,,,,,,,,,,,,,,,,,,,,,,,,,,,,,,,,,,,,,,,,,,,,,,,,,,,,,,,,,,
,,,,,66f02f508e8473f0362ed99e,2025-07-07_19h46.12.095,group3.4_multiperson,2023.2.2,Win32,60.24096386,686c2ebf0248f13bef9af11f,686c84c7524b1f5a8141bda3,,,,,,2530.477,3192.3544,space,661.5176,,,,,,,,,,,,,,,,,,,,,,,,,,,,,,,,,,,,,,,,,,,,,,,,,,,,,,,,,,,,,,,,,,,,,,,,,,,,,,,,,,,,,,,,,,,,,,,
,,,,,66f02f508e8473f0362ed99e,2025-07-07_19h46.12.095,group3.4_multiperson,2023.2.2,Win32,60.24096386,686c2ebf0248f13bef9af11f,686c84c7524b1f5a8141bda3,,,,,,,,,,,3192.3659,3201.9592,space,9.5479,,[],[],[],[],[],[],0,0,0,0,1,,,,,,,,,,,,,,,,,,,,,,,,,,,,,,,,,,,,,,,,,,,,,,,,,,,,,,,,,,,,,,,,,,,,,,,,,,,,,,
,,,,,66f02f508e8473f0362ed99e,2025-07-07_19h46.12.095,group3.4_multiperson,2023.2.2,Win32,60.24096386,686c2ebf0248f13bef9af11f,686c84c7524b1f5a8141bda3,,,,,,,,,,,3201.961,3231.7358,space,29.5189,,[],[],[],[],[],[],1,0,1,0,1,,,,,,,,,,,,,,,,,,,,,,,,,,,,,,,,,,,,,,,,,,,,,,,,,,,,,,,,,,,,,,,,,,,,,,,,,,,,,,
,,,,,66f02f508e8473f0362ed99e,2025-07-07_19h46.12.095,group3.4_multiperson,2023.2.2,Win32,60.24096386,686c2ebf0248f13bef9af11f,686c84c7524b1f5a8141bda3,,,,,,,,,,,3231.7369,3246.7393,space,14.8907,,[],[],[],[],[],[],2,0,2,0,1,,,,,,,,,,,,,,,,,,,,,,,,,,,,,,,,,,,,,,,,,,,,,,,,,,,,,,,,,,,,,,,,,,,,,,,,,,,,,,
,,,,,66f02f508e8473f0362ed99e,2025-07-07_19h46.12.095,group3.4_multiperson,2023.2.2,Win32,60.24096386,686c2ebf0248f13bef9af11f,686c84c7524b1f5a8141bda3,,,,,,,,,,,3246.7407,3269.8693,space,23.0753,,[],[],[],[],[],[],3,0,3,0,1,,,,,,,,,,,,,,,,,,,,,,,,,,,,,,,,,,,,,,,,,,,,,,,,,,,,,,,,,,,,,,,,,,,,,,,,,,,,,,
,,,,,66f02f508e8473f0362ed99e,2025-07-07_19h46.12.095,group3.4_multiperson,2023.2.2,Win32,60.24096386,686c2ebf0248f13bef9af11f,686c84c7524b1f5a8141bda3,,,,,,,,,,,3269.8708,3290.3518,space,20.4316,,[],[],[],[],[],[],4,0,4,0,1,,,,,,,,,,,,,,,,,,,,,,,,,,,,,,,,,,,,,,,,,,,,,,,,,,,,,,,,,,,,,,,,,,,,,,,,,,,,,,
,,,,,66f02f508e8473f0362ed99e,2025-07-07_19h46.12.095,group3.4_multiperson,2023.2.2,Win32,60.24096386,686c2ebf0248f13bef9af11f,686c84c7524b1f5a8141bda3,,,,,,,,,,,3290.3531,3306.7378,space,16.3427,,[],[],[],[],[],[],5,0,5,0,1,,,,,,,,,,,,,,,,,,,,,,,,,,,,,,,,,,,,,,,,,,,,,,,,,,,,,,,,,,,,,,,,,,,,,,,,,,,,,,
,,,,,66f02f508e8473f0362ed99e,2025-07-07_19h46.12.095,group3.4_multiperson,2023.2.2,Win32,60.24096386,686c2ebf0248f13bef9af11f,686c84c7524b1f5a8141bda3,,,,,,,,,,,,,,,,,,,,,,,,,,,3306.7432,3309.3202,3309.4015,1,audio/Narrative13Situation2.wav,3311.4186,,3311.419,3341.1863,"[[999,5],[999,198],[999,281],[999,363],[999,447],[999,530],[999,614],[999,697],[999,780],[999,863],[999,946],[999,1030],[999,1113],[999,1196],[999,1280],[999,1364],[999,1448],[999,1529],[999,1613],[999,1695],[999,1785],[999,1867],[35.6,1951],[35.6,2028],[38.1,2119],[42.9,2201],[45.8,2285],[47.7,2368],[47.9,2445],[47.9,2528],[45.5,2620],[43.9,2701],[43.6,2778],[43.5,2861],[31.7,2953],[29.3,3035],[29.3,3128],[29.1,3211],[29.1,3294],[29.6,3378],[35.1,3462],[35.9,3544],[41.2,3627],[44.4,3711],[44.5,3794],[44.6,3877],[51.9,3961],[57.1,4044],[59.9,4127],[61.3,4210],[61.9,4293],[62,4376],[63.2,4460],[64.5,4544],[65.9,4626],[66,4709],[67.4,4793],[67.5,4877],[67.7,4960],[68.6,5043],[69.1,5126],[69.2,5209],[69.2,5293],[69.2,5376],[69.2,5459],[69.2,5542],[69.3,5626],[69.3,5709],[71.7,5793],[72.4,5875],[72.6,5959],[72.6,6042],[72.6,6125],[72.6,6208],[72.6,6292],[72.6,6375],[72.6,6458],[72.6,6542],[72.6,6625],[72.6,6708],[72.6,6791],[74.6,6875],[76.5,6958],[76.6,7041],[77.7,7124],[78.1,7208],[80.6,7291],[80.9,7374],[79.6,7458],[79.6,7541],[79.6,7624],[79.6,7707],[79.6,7790],[79.6,7874],[79.6,7957],[79,8047],[78.7,8125],[78.6,8207],[78.6,8290],[78.6,8373],[82.1,8463],[82.3,8540],[83.6,8630],[83.9,8706],[84.9,8796],[86.9,8873],[87.3,8963],[89,9047],[89.3,9124],[89.3,9206],[89.9,9296],[90.1,9375],[90.1,9457],[90.1,9539],[89.9,9629],[89.8,9706],[89.8,9789],[89.8,9872],[89.8,9960],[89.8,10044],[89.8,10123],[89.3,10211],[89.2,10289],[88.6,10376],[88.3,10457],[88.1,10542],[88.1,10627],[88.1,10704],[88.1,10791],[88.1,10871],[88.1,10954],[88.1,11038],[88.1,11121],[88.1,11204],[88.1,11287],[88.1,11371],[88.1,11454],[88.1,11538],[88.1,11621],[88.1,11704],[88.1,11790],[86.9,11879],[86.8,11954],[86.8,12037],[86.8,12121],[86.9,12211],[87,12287],[87.1,12372],[87.1,12459],[87.3,12545],[87.4,12622],[86.6,12713],[87,12791],[87.7,12871],[87.8,12953],[87.1,13044],[87.1,13121],[87.5,13203],[87.5,13286],[87.5,13372],[87.5,13455],[87.5,13536],[87.5,13623],[87.5,13702],[87.5,13787],[87.5,13869],[87.5,13952],[87.5,14041],[87.5,14119],[87.5,14202],[87.5,14285],[87.5,14368],[87.5,14452],[87.5,14535],[87.5,14625],[87.5,14702],[87.5,14790],[87.5,14869],[87.5,14952],[87.5,15036],[87.5,15118],[87.4,15201],[85.2,15293],[84.8,15370],[86.5,15461],[86.9,15535],[85.6,15628],[82.6,15719],[82.5,15801],[82.5,15884],[82.5,15967],[82.5,16052],[72.2,16143],[24,16905],[24,16984],[23.9,17075],[23.9,17150],[23.9,17233],[23.9,17320],[22.5,17406],[20.7,17489],[20.7,17567],[20.7,17649],[20.7,17732],[20.7,17816],[20.7,17899],[20.7,18001],[21.3,18083],[22.2,18168],[23.3,18249],[23.9,18333],[24.2,18421],[24.4,18500],[24.4,18585],[24.4,18665],[24.4,18749],[24.4,18831],[23.9,18917],[23.2,18999],[22.5,19099],[22,19191],[22,19266],[22,19348],[22.1,19437],[22.2,19520],[22.2,19600],[22.2,19681],[22.2,19764],[22.2,19848],[22.2,19931],[22.2,20019],[22.2,20104],[22.2,20180],[20.4,20270],[20.2,20349],[20.2,20431],[20.4,20515],[20.8,20597],[20.8,20680],[19.9,20767],[19.5,20846],[19.5,20930],[19.7,21017],[19.8,21102],[19.5,21179],[19.4,21264],[19.8,21351],[20.2,21429],[20.8,21514],[22.4,21603],[22.8,21686],[23.8,21769],[24.5,21847],[25,21936],[25.5,22021],[25.8,22099],[26,22179],[26,22269],[26.5,22348],[27.3,22436],[27.4,22514],[27.4,22596],[27.4,22678],[27.4,22762],[29,22853],[31.1,22939],[39.2,23021],[56.5,23111],[63.9,23197],[66.1,23289],[66.1,23362],[66.1,23445],[60.1,23533],[56.6,23616],[54.3,23702],[50,23787],[47.2,23869],[44.2,23958],[39.8,24055],[31.3,24145],[25.3,24247],[24.7,24332],[24.6,24410],[24.6,24494],[24.6,24577],[24.6,24661],[24.6,24744],[24.6,24827],[29.6,24918],[32.3,25000],[32.8,25083],[34.1,25168],[34.4,25243],[34.4,25326],[35.2,25410],[35.4,25492],[35.4,25576],[35.4,25659],[35.4,25742],[35.4,25826],[35.7,25909],[35.9,26002],[36.1,26078],[36.7,26159],[36.7,26242],[36.7,26326],[36.7,26409],[36.7,26492],[36.7,26575],[35,26661],[32.5,26750],[31.4,26833],[29.6,26909],[27.8,26998],[26.1,27078],[25.6,27163],[24.1,27255],[23.4,27345],[23,27425],[22.7,27515],[22.7,27591],[22.7,27675],[26.6,27758],[26.9,27841],[26.9,27924],[26.9,28008],[26.9,28091],[26.8,28175],[26.4,28264],[25.9,28341],[24.1,28434],[23.8,28508],[23.5,28592],[22.8,28684],[22.1,28771],[21.6,28849],[21,28925],[19.7,29015],[19.5,29099],[19.4,29174],[18.9,29257],[17.9,29353],[17.3,29431],[17,29513],[16.9,29597],[16.9,29680],[16.9,29764]]",3341.1877,3353.6899,9.479169051,11.651,"[{""rating"":76.77083810170491,""responseTime"":4.135100000024067},{""rating"":93.75,""responseTime"":5.13340000003609},{""rating"":61.25000317891439,""responseTime"":8.969500000000153},{""rating"":28.854171435038246,""responseTime"":10.136800000012045},{""rating"":9.479169050852459,""responseTime"":11.651000000000295}]",space,11.9727,,3353.691,Partially,50,3353.7114,,,[],,0,0,0,0,1,audio/Narrative13Situation2.wav,audio/Narrative13Situation2.wav,audio/Narrative13Situation2.wav,audio/Narrative13Situation2.wav,2,2,2,2,,,,,,,,,,,,,,,,,,,,,,,,,,,,,,,,,,,,,,,
,,,,,66f02f508e8473f0362ed99e,2025-07-07_19h46.12.095,group3.4_multiperson,2023.2.2,Win32,60.24096386,686c2ebf0248f13bef9af11f,686c84c7524b1f5a8141bda3,,,,,,,,,,,,,,,,,,,,,,,,,,,,,3353.7136,1,audio/Narrative8Situation1.wav,3355.6315,space,3355.6316,3371.5706,"[[18.6,701],[31.5,873],[16.9,962],[12.9,1059],[12.8,1131],[12.8,1214],[12.8,1301],[12.5,1382],[10.9,1476],[10.6,1548],[10.5,1630],[10.5,1713],[10.5,1798],[10.5,1880],[10.5,1963],[10.5,2047],[10.5,2130],[32.1,2220],[63.2,2639],[60.2,2721],[56.5,2807],[55.5,2889],[53.9,2966],[50,3055],[46.6,3141],[43,3230],[39,3329],[33.3,3418],[28.7,3508],[27.4,3580],[26.5,3671],[26.3,3746],[25.6,3847],[24.9,3930],[24,4019],[25.3,5605],[27.1,5676],[27.1,5760],[26.4,5846],[22.4,5936],[19.4,6024],[19.4,6093],[19.4,6177],[19.5,6262],[30.7,6363],[30.9,6444],[26.7,6528],[24.4,6614],[23.9,6697],[23.8,6776],[20.6,6870],[20,6950],[19.9,7026],[19.7,7108],[19.6,7193],[19.6,7275],[19.6,7358],[19.7,7444],[19.8,7525],[19.8,7608],[19.8,7692],[19.8,7775],[19,7866],[18.8,7942],[18.6,8025],[18.5,8108],[17.8,8193],[16.9,8276],[16.8,8357],[16.8,8441],[16.8,8524],[16.8,8607],[16.6,8695],[16,8774],[13.6,8867],[13.1,8942],[13.1,9030],[13.1,9107],[13.1,9196],[13.1,9274],[13.1,9357],[13.1,9444],[13.1,9523],[13.4,9608],[13.8,9691],[13.9,9773],[14.1,9856],[14.4,9947],[14.8,10024],[14.9,10107],[15.1,10191],[15.4,10279],[15.8,10357],[16,10440],[16.1,10524],[32.7,11440],[23.9,11529],[21.8,11607],[21.5,11692],[21.7,11771],[21.7,11854],[21.7,11938],[21.7,12021],[21.7,12104],[21.7,12188],[21.7,12271],[21.7,12355],[21.7,12438],[22.1,12522],[24.6,12606],[24.7,12687],[25.6,12777],[26.7,12862],[27.7,12938],[27.8,13027],[27.8,13108],[29.5,13193],[30,13272],[30,13354],[30.1,13436],[30.1,13520],[30.1,13603],[28.7,13688],[25.8,13778],[25.5,13859],[25.3,13938],[25.2,14020],[25.2,14103],[25.2,14186],[25.2,14270],[25.2,14352],[24.8,14444],[24.7,14519],[24.8,14609],[25.5,14695],[25.9,14776],[25.5,14859],[24.5,14943],[23.9,15025],[23.4,15108],[23.3,15187],[23.2,15269],[23.2,15355],[23.2,15435],[23.3,15520],[23.8,15603],[25.1,15685],[34.3,15776],[36.8,15858],[37.2,15938]]",3371.5709,3375.6705,13.22916746,3.2097,"[{""rating"":13.229167461395264,""responseTime"":3.209700000047633}]",space,3.5578,,3375.6707,Partially,50,3375.6756,,,[],,0,1,1,1,1,audio/Narrative7Situation1.wav,audio/Narrative8Situation1.wav,audio/Narrative5Situation1.wav,audio/Narrative6Situation1.wav,2,5,5,2,1.8585,,,,,,,,,,,,,,,,,,,,,,,,,,,,,,,,,,,,,,
,,,,,66f02f508e8473f0362ed99e,2025-07-07_19h46.12.095,group3.4_multiperson,2023.2.2,Win32,60.24096386,686c2ebf0248f13bef9af11f,686c84c7524b1f5a8141bda3,,,,,,,,,,,,,,,,,,,,,,,,,,,,,3375.6761,1,audio/Narrative8Situation2.wav,3378.6797,,3378.6798,3388.8247,"[[999,1],[999,97],[999,181],[999,264],[999,347],[999,430],[999,514],[999,596],[999,680],[999,765],[999,848],[999,931],[999,1017],[999,1097],[999,1180],[999,1265],[17.6,1354],[11.6,1458],[10.6,1536],[10.6,1613],[10.6,1696],[10.6,1780],[10.6,1866],[10.8,1948],[12,2029],[12.7,2117],[12.8,2201],[14.3,2285],[15,2364],[15.1,2448],[15.7,2534],[16,2614],[16.1,2695],[17.5,2786],[22.1,2863],[24.5,2945],[26.6,3034],[28.1,3118],[28.5,3197],[28.5,3278],[28.5,3361],[28.5,3445],[28.5,3528],[26.8,3613],[24.9,3696],[19.6,3784],[16.8,3867],[16.3,3950],[16.3,4028],[16.3,4114],[16.3,4194],[16.3,4277],[15.3,4368],[14.9,4444],[14.7,4528],[14.7,4612],[14.5,4695],[14.5,4777],[13.3,4863],[9.8,4946],[9.5,5033],[9.3,5111],[9.2,5193],[9.2,5276],[9.2,5359],[9.2,5443],[9.2,5526],[7.3,5612],[5.1,5694],[4.9,5781],[4.9,5859],[4.9,5943],[4.9,6026],[4.9,6110],[4.9,6192],[5.2,6277],[5.7,6359],[7,6449],[7.2,6525],[7.3,6609],[7.3,6692],[7.5,6775],[7.5,6858],[7.5,6942],[7.6,7025],[7.6,7108],[7.6,7192],[8.1,7276],[8.2,7358],[8.3,7442],[8.3,7529],[8.3,7608],[8.3,7691],[8.3,7774],[8.3,7857],[8.3,7942],[8.3,8025],[8.3,8108],[8.3,8191],[8.3,8274],[8.3,8358],[8.9,8448],[9.4,8524],[9.9,8613],[10.3,8691],[11.5,8779],[14.6,9525],[14.6,9607],[14.6,9690],[14.6,9773],[14.6,9856],[14.6,9939],[14.6,10025],[14.6,10105]]",3388.8249,3391.8247,8.437502384,1.709,"[{""rating"":8.437502384185791,""responseTime"":1.7089999999998327}]",space,2.4508,,3391.8248,Definitely yes,100,3391.8376,,,[],,0,2,2,2,1,audio/Narrative7Situation2.wav,audio/Narrative8Situation2.wav,audio/Narrative5Situation2.wav,audio/Narrative6Situation2.wav,3,3,3,3,,,,,,,,,,,,,,,,,,,,,,,,,,,,,,,,,,,,,,,
,,,,,66f02f508e8473f0362ed99e,2025-07-07_19h46.12.095,group3.4_multiperson,2023.2.2,Win32,60.24096386,686c2ebf0248f13bef9af11f,686c84c7524b1f5a8141bda3,,,,,,,,,,,,,,,,,,,,,,,,,,,,,3391.8384,1,audio/Narrative8Situation3.wav,3395.8464,,3395.8465,3418.2385,"[[13.5,669],[14.6,749],[13.8,834],[10.2,922],[9.8,1000],[9.8,1085],[9.8,1165],[9.8,1249],[9.8,1332],[9.8,1416],[9.8,1500],[9.8,1582],[9.8,1665],[9.8,1751],[9.8,1832],[9.8,1919],[9.8,1999],[9.8,2081],[9.8,2165],[9.8,2247],[9.8,2331],[9.8,2415],[9.8,2498],[9.8,2581],[9.8,2665],[9.8,2748],[9.8,2831],[9.8,2915],[9.8,2999],[9.8,3087],[9.8,3170],[11.7,3247],[14,3331],[18.2,3420],[20.8,3503],[21.1,3580],[21.3,3667],[21.3,3749],[21.3,3830],[21.3,3913],[21.4,3997],[21.5,4080],[21.5,4163],[21.5,4246],[21.5,4329],[21.7,4414],[21.9,4496],[21.9,4579],[21.9,4665],[21.9,4746],[21.9,4829],[22.1,4918],[22.6,4997],[22.7,5084],[22.7,5162],[22.7,5245],[19.4,5336],[18,5413],[17.8,5495],[14.8,5581],[14.2,5663],[12.6,5753],[12.5,5829],[12.5,5916],[12.5,5995],[12.5,6079],[13.2,6168],[14.4,6251],[15.7,6333],[15.9,6411],[16.4,6501],[16.8,6584],[17.2,6661],[17.3,6747],[17.3,6827],[17.4,6911],[17.4,6994],[17.4,7081],[17.4,7161],[17.4,7244],[17.4,7328],[17.4,7410],[18.4,7498],[19.1,7578],[19.3,7660],[19.9,7750],[20.6,7833],[20.8,7917],[20.8,7993],[20.8,8076],[20.8,8160],[20.8,8243],[20.8,8327],[19.2,8411],[17.7,8495],[16.4,8577],[15.9,8661],[14.3,8744],[13.1,8827],[12.8,8911],[12.7,8994],[12.5,9077],[11.9,9160],[11.8,9242],[10.5,9332],[10.3,9410],[9.5,9499],[9.3,9576],[9.2,9659],[9,9743],[8.9,9826],[8.9,9911],[8.9,9991],[8.9,10075],[8.9,10165],[8.9,10241],[11,10329],[11.4,10410],[11.5,10491],[11.5,10575],[11.6,10658],[11.6,10741],[12.4,10831],[17.5,10917],[49.1,11749],[48.9,11830],[48,11913],[47.8,11996],[47.8,12080],[47.8,12162],[47.9,12247],[46,12331],[45.5,12413],[45.4,12496],[44.8,12580],[44.6,12663],[51.4,12749],[57,12831],[62.9,12915],[70.3,12997],[73.1,13081],[79.9,13163],[85.4,13246],[89,13332],[89.6,13413],[90.7,13499],[92.1,13580],[92.6,13662],[93.4,13746],[93,13828],[92.3,13914],[92.2,13995],[90.7,14082],[90.6,14161],[90.6,14244],[90.6,14327],[90.1,14411],[89.4,14493],[89.4,14579],[89.4,14660],[84.7,14747],[82.4,14828],[82.4,14910],[82.4,14993],[82.6,15079],[82.7,15160],[80.5,15246],[79.9,15328],[82.3,15411],[84.4,15494],[85.1,15576],[86.9,15661],[89.3,15744],[89.5,15827],[89.7,15911],[86.5,15994],[83.2,16078],[83.1,16159],[87.8,16244],[88.5,16327],[88.7,16409],[90.9,16494],[91.3,16575],[91.3,16660],[91.3,16742],[91.6,16824],[92.1,16909],[92.2,16991],[92.1,17076],[92,17158],[92,17242],[92,17324],[92,17408],[92,17491],[92,17574],[92,17657],[92,17742],[92,17825],[91.7,17909],[90.7,17993],[89.8,18075],[88.9,18159],[87.7,18241],[84.3,18326],[83.5,18408],[81.9,18491],[80.3,18575],[76.1,18658],[69.2,18742],[63,18825],[52.5,18909],[46.1,18991],[45.7,19074],[45.6,19155],[45.6,19241],[46.6,19324],[48.4,19408],[49.2,19490],[49.3,19573],[50.9,19657],[58.8,19740],[67.6,19824],[73.9,19906],[75.1,19989],[75.2,20073],[74.3,20157],[74.3,20239],[75.8,20324],[76.1,20406],[76.3,20488],[75,20574],[73.9,20657],[72,20740],[66.6,20823],[62.3,20907],[61,20989],[60.8,21072],[60.8,21158],[60.8,21257],[60.8,21332],[62.4,21417],[65.8,21512],[66.2,21601],[64.2,21684],[54.1,21780],[49,21877],[45.1,21964],[39.3,22050],[33.2,22139],[29.3,22223],[22.3,22310],[19.8,22391]]",3418.239,3426.0064,83.54166349,4.8638,"[{""rating"":83.54166348775227,""responseTime"":4.863800000011906}]",space,7.2311,,3426.0071,Partially,50,3426.0193,,,[],,0,3,3,3,1,audio/Narrative7Situation3.wav,audio/Narrative8Situation3.wav,audio/Narrative5Situation3.wav,audio/Narrative6Situation3.wav,8,4,3,5,,,,,,,,,,,,,,,,,,,,,,,,,,,,,,,,,,,,,,,
,,,,,66f02f508e8473f0362ed99e,2025-07-07_19h46.12.095,group3.4_multiperson,2023.2.2,Win32,60.24096386,686c2ebf0248f13bef9af11f,686c84c7524b1f5a8141bda3,,,,,,,,,,,,,,,,,,,,,,,,,,,,,3426.0202,1,audio/Narrative8Situation4.wav,3429.0369,,3429.0372,3443.2091,"[[999,1],[999,98],[999,184],[999,265],[999,350],[999,432],[999,514],[999,597],[999,681],[999,771],[14.8,853],[9.8,938],[9.1,1016],[8.2,1105],[7.4,1186],[7,1271],[6.9,1350],[6.9,1431],[5,1521],[4.8,1600],[4.6,1681],[4.6,1764],[4.6,1846],[4.6,1930],[4.6,2016],[4.9,2099],[5.1,2181],[5.2,2265],[5.6,2353],[7.2,2431],[7.6,2513],[8.3,2596],[8.6,2681],[10.8,2771],[14.5,2851],[17.5,2938],[21.5,3020],[100,3266],[100,3351],[100,3430],[100,3514],[100,3602],[99.1,3682],[98.3,3762],[98.3,3847],[98,3928],[98,4012],[97.8,4096],[97.7,4178],[97.7,4267],[97.7,4345],[97.7,4428],[97.7,4517],[97.7,4595],[97.4,4678],[97.3,4761],[96.6,4845],[96.5,4928],[96.1,5012],[96.1,5095],[95.1,5184],[93.5,5262],[93.4,5344],[93.4,5427],[93.4,5510],[93.4,5599],[92.5,5685],[92.5,5766],[92.5,5845],[92.5,5930],[92.4,6012],[92.4,6093],[92.4,6177],[92.4,6260],[92.3,6343],[91.8,6427],[90.2,6517],[90,6593],[93,6683],[93.5,6760],[93.3,6844],[90.7,6933],[93.5,7010],[95.2,7092],[95.8,7179],[94,7267],[93.9,7343],[97.6,7432],[97.8,7509],[98.9,7600],[99.4,7676],[99.5,7758],[99.5,7841],[99.5,7925],[99.5,8009],[99.5,8092],[99.4,8177],[99.4,8258],[99.2,8342],[99.2,8425],[99.2,8514],[99.1,8593],[98.8,8677],[98.5,8758],[98.5,8841],[98.5,8925],[98.5,9008],[98.5,9091],[98.5,9175],[98.5,9258],[98.5,9340],[98.5,9424],[98.5,9507],[98.5,9590],[98.5,9674],[98.5,9757],[98.5,9840],[98.5,9923],[99,10007],[94.8,10096],[92.8,10179],[92.8,10260],[92.8,10340],[92.6,10424],[92.6,10514],[92.6,10595],[92.6,10673],[92.6,10756],[92.6,10839],[92.6,10923],[92.6,11008],[92.6,11089],[92.6,11173],[92.6,11256],[92.6,11340],[92.6,11423],[92.6,11506],[92.6,11589],[92.6,11672],[92.6,11755],[92.6,11839],[92.7,11922],[93.8,12005],[94.3,12096],[94.3,12172],[94.3,12255],[94.3,12339],[94.3,12422],[94.5,12505],[94.5,12591],[94,12671],[94,12755],[94.1,12838],[94.1,12927],[93.4,13012],[93.3,13088],[92.9,13173],[92,13257],[91.8,13339],[91.8,13427],[91.8,13504],[91.8,13587],[91.8,13670],[91.8,13753],[91.8,13837],[91.8,13920],[91.8,14004],[91.8,14087],[91.8,14170]]",3443.2095,3446.2605,96.04166349,2.0997,"[{""rating"":96.04166348775227,""responseTime"":2.0996999999879336}]",space,2.501,,3446.2607,Definitely yes,100,3446.2658,,,[],,0,4,4,4,1,audio/Narrative7Situation4.wav,audio/Narrative8Situation4.wav,audio/Narrative5Situation4.wav,audio/Narrative6Situation4.wav,3,3,1,2,,,,,,,,,,,,,,,,,,,,,,,,,,,,,,,,,,,,,,,
,,,,,66f02f508e8473f0362ed99e,2025-07-07_19h46.12.095,group3.4_multiperson,2023.2.2,Win32,60.24096386,686c2ebf0248f13bef9af11f,686c84c7524b1f5a8141bda3,,,,,,,,,,,,,,,,,,,,,,,,,,,,,3446.2662,1,audio/Narrative8Situation5.wav,3448.2711,,3448.2715,3456.5484,"[[94.1,766],[86,849],[58.4,1539],[56.1,1613],[58.5,1698],[68.5,1786],[69.4,1870],[69.5,1947],[69.6,2032],[76.3,2122],[79,2204],[84.1,2288],[86.5,2367],[91.9,2454],[95.2,2531],[97.3,2613],[97.3,2697],[97.3,2779],[97.3,2862],[97.3,2946],[97.4,3030],[95.4,3114],[95.4,3196],[95.4,3279],[95.4,3362],[95.4,3446],[95.4,3529],[95.4,3615],[95.4,3695],[95.4,3779],[94.6,3869],[90.3,3947],[85,4037],[84.2,4112],[82.9,4203],[82,4278],[82,4364],[85.9,4453],[88.3,4536],[89.9,4612],[91,4701],[92.5,4785],[92.7,4861],[93,4950],[93.5,5029],[95,5118],[95.1,5194],[95.4,5278],[95.4,5361],[95.4,5445],[95.4,5528],[95.4,5611],[95.4,5694],[95.4,5778],[95.4,5861],[95.4,5950],[95.4,6034],[95.4,6116],[95.4,6194],[95.4,6277],[95.4,6360],[95.4,6443],[95.4,6527],[95.4,6610],[95.4,6693],[95.4,6782],[95.4,6860],[95.4,6943],[95.4,7026],[95.4,7110],[95.4,7193],[95.4,7276],[95.4,7359],[95.4,7449],[95.4,7525],[95.4,7608],[95.4,7692],[95.4,7775],[95.4,7859],[95.4,7942],[95.4,8025],[95.4,8109],[95.4,8192],[95.4,8275]]",3456.5489,3458.9634,95.62500318,2.4052,"[{""rating"":95.62500317891438,""responseTime"":2.4051999999878717}]",space,0.2849,,3458.964,Not at all,0,3458.9743,,,[],,0,5,5,5,1,audio/Narrative7Situation5.wav,audio/Narrative8Situation5.wav,audio/Narrative5Situation5.wav,audio/Narrative6Situation5.wav,5,2,5,2,,,,,,,,,,,,,,,,,,,,,,,,,,,,,,,,,,,,,,,
,,,,,66f02f508e8473f0362ed99e,2025-07-07_19h46.12.095,group3.4_multiperson,2023.2.2,Win32,60.24096386,686c2ebf0248f13bef9af11f,686c84c7524b1f5a8141bda3,,,,,,,,,,,,,,,,,,,,,,,,,,,,,3458.9752,1,audio/Narrative8Situation6.wav,3460.9769,,3460.9773,3467.4647,"[[83.4,695],[77.1,1437],[77,1519],[77,1603],[77,1686],[77,1769],[77,1854],[77.9,1937],[77.4,2021],[76.9,2102],[76.9,2186],[76.9,2270],[76.9,2354],[78.1,2438],[79,2521],[79.6,2603],[80,2686],[80,2769],[80,2853],[80,2936],[80,3019],[80,3102],[80,3186],[80,3269],[80,3353],[80,3436],[80,3520],[80,3602],[80,3686],[80,3768],[80.1,3853],[82.6,3938],[83.1,4021],[84.6,4103],[85.1,4187],[86.5,4270],[87.5,4355],[88,4437],[90,4521],[91.4,4603],[91.9,4687],[92.4,4771],[92.7,4853],[93,4935],[94.1,5021],[94.3,5101],[94.4,5186],[95,5269],[95.2,5352],[95.3,5434],[94,5519],[93.6,5601],[93,5684],[92.2,5767],[92.1,5850],[93.4,5934],[93.6,6017],[93.6,6099],[93.6,6182],[93.6,6266],[93.6,6349],[93.6,6432]]",3467.4652,3470.7356,78.95833651,2.4981,"[{""rating"":78.95833651224773,""responseTime"":2.4981000000238964}]",space,2.7349,,3470.7361,Partially,50,3470.7458,,,[],,0,6,6,6,1,audio/Narrative7Situation6.wav,audio/Narrative8Situation6.wav,audio/Narrative5Situation6.wav,audio/Narrative6Situation6.wav,3,2,3,2,,,,,,,,,,,,,,,,,,,,,,,,,,,,,,,,,,,,,,,
,,,,,66f02f508e8473f0362ed99e,2025-07-07_19h46.12.095,group3.4_multiperson,2023.2.2,Win32,60.24096386,686c2ebf0248f13bef9af11f,686c84c7524b1f5a8141bda3,,,,,,,,,,,,,,,,,,,,,,,,,,,,,3470.7466,1,audio/Narrative8Situation7.wav,3473.7533,,3473.7535,3485.8457,"[[999,1],[999,95],[999,178],[999,262],[999,346],[999,428],[999,512],[999,595],[999,685],[999,765],[999,850],[999,930],[999,1018],[999,1096],[999,1178],[999,1262],[999,1346],[50.5,1436],[50.5,1511],[50.5,1596],[50.5,1678],[50.5,1761],[50.2,1846],[46.8,1935],[9,2279],[2.1,2369],[1.3,2457],[1.3,2527],[1.3,2610],[2.6,2695],[12.2,2777],[81.1,3110],[82.5,3194],[82.5,3276],[82.5,3360],[82.5,3442],[84.7,3526],[85.8,3610],[87.4,3694],[89.3,3775],[92.1,3858],[93.2,3941],[94.7,4026],[94.8,4109],[94.8,4192],[94.8,4275],[94.8,4358],[94.8,4442],[94.8,4525],[95,4608],[95,4692],[95,4775],[95,4858],[95,4941],[95,5025],[95,5108],[95,5191],[94.9,5275],[94.9,5358],[94.9,5441],[94.4,5525],[94.4,5608],[94.4,5691],[94.4,5774],[94.4,5864],[94.3,5949],[94.3,6031],[94.3,6113],[96.7,6196],[97.2,6278],[96.8,6363],[95.6,6447],[95.5,6529],[94.8,6614],[94.4,6695],[93.4,6780],[91.8,6863],[91.8,6946],[91.8,7029],[92.3,7114],[92.3,7195],[89.8,7281],[89.7,7362],[90.9,7446],[97.1,7529],[100,7614],[100,7695],[100,7778],[96.1,7863],[94.4,7945],[94.4,8027],[94.4,8111],[94.4,8195],[94.4,8279],[95.7,8363],[98.6,8447],[98.6,8528],[93.5,8614],[91,8697],[90.9,8778],[91.7,8864],[91.8,8945],[90.4,9032],[90.1,9111],[92.3,9198],[93.8,9278],[93.9,9361],[92.2,9446],[91.7,9530],[91.4,9611],[89.3,9696],[89.2,9777],[89.2,9860],[89.3,9945],[90,10029],[90.6,10111],[91.6,10196],[93,10281],[93.8,10362],[96.8,10445],[97.6,10528],[99.1,10611],[99.3,10695],[99.3,10776],[99.3,10860],[99.3,10943],[99.3,11026],[99.3,11108],[99.3,11192],[99.3,11275],[99.3,11359],[99.3,11442],[99.3,11527],[99.3,11609],[99.3,11693],[99.3,11775],[99.3,11860],[99.3,11942],[99.3,12027]]",3485.8461,3488.0962,96.97917302,1.9949,"[{""rating"":96.97917302449544,""responseTime"":1.9948999999764965}]",space,1.7091,,3488.0965,Partially,50,3488.1023,,,[],,0,7,7,7,1,audio/Narrative7Situation7.wav,audio/Narrative8Situation7.wav,audio/Narrative5Situation7.wav,audio/Narrative6Situation7.wav,5,3,4,5,,,,,,,,,,,,,,,,,,,,,,,,,,,,,,,,,,,,,,,
,,,,,66f02f508e8473f0362ed99e,2025-07-07_19h46.12.095,group3.4_multiperson,2023.2.2,Win32,60.24096386,686c2ebf0248f13bef9af11f,686c84c7524b1f5a8141bda3,,,,,,,,,,,,,,,,,,,,,,,,,,,,,3488.104,1,audio/Narrative8Situation8.wav,3491.1191,,3491.1195,3503.9753,"[[999,1],[999,99],[999,182],[999,265],[999,349],[999,432],[999,515],[999,598],[999,681],[999,767],[999,851],[999,933],[999,1015],[999,1104],[999,1186],[999,1271],[50.5,1354],[32.1,1447],[22.5,1542],[22.2,1614],[22.2,1697],[22.2,1780],[17.4,1873],[16.6,1958],[12.9,2050],[10.5,2139],[8.4,2216],[16.4,2304],[39.7,2399],[61,2490],[42.8,2904],[31.8,2990],[22.3,3071],[16.9,3172],[14.1,3258],[13.3,3331],[13.2,3412],[13.1,3496],[13.1,3579],[13.1,3664],[13.1,3746],[13.1,3835],[13.1,3913],[13.1,3995],[13.1,4078],[13.1,4161],[13.1,4245],[13.1,4328],[13.1,4412],[13.1,4498],[13.1,4578],[13.1,4664],[13.1,4750],[13.1,4828],[15.5,4922],[18.3,5000],[21.4,5085],[23.6,5162],[24.7,5246],[26.5,5334],[33.6,5416],[78.9,5582],[87,5666],[89,5750],[89.1,5833],[90.5,5918],[93,5999],[94.1,6085],[95.1,6166],[95.3,6243],[95.3,6327],[95.3,6410],[95.3,6494],[95.3,6577],[95.3,6667],[95.3,6743],[95.3,6827],[95.3,6916],[95.4,6995],[95.4,7082],[95.4,7160],[95.1,7247],[95.1,7326],[95.1,7409],[95.1,7493],[95.1,7576],[95.1,7658],[95.1,7742],[95.1,7825],[95.1,7909],[95.1,7992],[94.7,8077],[94.2,8160],[93.4,8253],[93.8,8512],[94.4,9279],[94.4,9364],[94.4,9440],[94,9528],[94.3,9863],[94.9,9946],[95.1,10024],[95.4,10113],[95.4,10190],[95.3,10279],[95.2,10363],[95.2,10440],[95.2,10523],[95.2,10606],[95.2,10690],[95.2,10773],[95.2,10856],[95.2,10939],[95.2,11023],[95.2,11106],[97.2,11191],[99.1,11281],[99.1,11356],[99.1,11440],[99.1,11522],[99.1,11605],[99.1,11689],[99.1,11772],[99.1,11855],[99.1,11938],[99.1,12022],[99.1,12105],[99.1,12193],[99.1,12278],[99.1,12355],[99.1,12438],[99.1,12528],[99.1,12605],[99.1,12691],[99.1,12771],[99.1,12855]]",3503.9758,3505.8401,99.06250636,1.1415,"[{""rating"":99.06250635782878,""responseTime"":1.1415000000001783}]",space,1.3185,,3505.8402,Not at all,0,3505.8509,,,[],,0,8,8,8,1,audio/Narrative7Situation8.wav,audio/Narrative8Situation8.wav,audio/Narrative5Situation8.wav,audio/Narrative6Situation8.wav,2,3,3,5,,,,,,,,,,,,,,,,,,,,,,,,,,,,,,,,,,,,,,,
,,,,,66f02f508e8473f0362ed99e,2025-07-07_19h46.12.095,group3.4_multiperson,2023.2.2,Win32,60.24096386,686c2ebf0248f13bef9af11f,686c84c7524b1f5a8141bda3,,,,,,,,,,,,,,,,,,,,,,,,,,,,,3505.8518,1,audio/Narrative8Situation9.wav,3508.8596,,3508.8597,3520.2019,"[[98.8,678],[89.1,764],[76.9,871],[76.1,943],[75.6,1033],[75.6,1110],[75.6,1193],[75.6,1276],[77.4,1359],[77.8,1444],[83.1,1533],[86.5,1615],[87.4,1699],[88.4,1783],[88.7,1860],[84.7,1949],[76.7,2033],[71.7,2115],[70.6,2193],[81,2782],[81.1,2867],[80.3,2957],[75.7,3050],[75.1,3130],[75.1,3211],[75.1,3292],[76,3382],[76.4,3458],[76.8,3549],[77.3,3625],[77.5,3707],[77.6,3790],[77.8,3874],[77.8,3957],[77.8,4040],[78,4125],[78.1,4206],[78.4,4296],[78.5,4373],[78.5,4458],[78.5,4541],[75.6,4629],[75.1,4706],[75.4,4791],[85.1,4879],[89.2,4963],[91.5,5047],[93.4,5129],[94.2,5214],[94.8,5293],[95.3,5375],[96,5463],[96.4,5544],[96.4,5623],[96.4,5706],[96.4,5795],[96.4,5873],[96.4,5956],[96.4,6039],[96.4,6123],[96.4,6205],[96.4,6289],[96.4,6372],[96.4,6455],[96.4,6538],[96.4,6623],[96.4,6704],[96.4,6788],[96.4,6877],[96.4,6954],[96.4,7038],[96.4,7121],[96.4,7205],[96.4,7288],[96.4,7370],[96.4,7456],[96.4,7537],[96.4,7621],[96.4,7704],[96.4,7787],[96.4,7871],[96.4,7954],[96.4,8037],[96.4,8121],[96.4,8203],[96.4,8287],[96.4,8370],[96.4,8453],[96.4,8536],[96.4,8620],[96.4,8703],[96.4,8789],[96.4,8870],[96.4,8954],[96.4,9036],[96.4,9122],[96.4,9202],[96.4,9286],[96.4,9369],[96.4,9453],[96.4,9538],[96.4,9619],[96.4,9703],[96.4,9786],[96.4,9869],[96.4,9953],[96.4,10035],[96.4,10124],[96.4,10202],[96.4,10285],[96.4,10369],[96.4,10452],[96.4,10535],[96.4,10618],[96.4,10702],[96.4,10797],[96.4,10868],[96.4,10952],[96.4,11034],[96.4,11117],[96.4,11201],[96.4,11284]]",3520.2023,3521.0286,96.45833969,0.6513,"[{""rating"":96.45833969116211,""responseTime"":0.6512999999522435}]",space,0.2725,,3521.0287,Partially,50,3521.0414,,,[],,0,9,9,9,1,audio/Narrative7Situation9.wav,audio/Narrative8Situation9.wav,audio/Narrative5Situation9.wav,audio/Narrative6Situation9.wav,2,3,3,4,,,,,,,,,,,,,,,,,,,,,,,,,,,,,,,,,,,,,,,
,,,,,66f02f508e8473f0362ed99e,2025-07-07_19h46.12.095,group3.4_multiperson,2023.2.2,Win32,60.24096386,686c2ebf0248f13bef9af11f,686c84c7524b1f5a8141bda3,,,,,,,,,,,,,,,,,,,,,,,,,,,,,3521.0424,1,audio/Narrative7Situation1.wav,3523.059,,3523.0592,3578.9471,"[[999,2],[999,99],[999,183],[999,267],[999,356],[999,439],[999,516],[999,598],[999,682],[999,764],[999,850],[999,931],[999,1015],[999,1106],[999,1189],[999,1273],[999,1351],[0.8,1443],[0.8,1517],[1.8,1600],[2,1683],[2.1,1764],[2.1,1848],[2.1,1931],[2.1,2014],[2.1,2097],[2.1,2181],[2.1,2264],[2.1,2348],[14.9,2439],[90.3,3514],[96.1,3603],[98.4,3681],[98.4,3763],[98.5,3846],[98.5,3929],[98.5,4012],[98.5,4095],[97.7,4180],[97.5,4262],[97.5,4345],[97.5,4434],[97.5,4512],[97.5,4595],[97.5,4684],[97.5,4762],[97.5,4845],[97.5,4928],[97.5,5011],[97.5,5095],[97,5182],[97,5261],[100,5344],[100,5433],[93.5,5517],[91.9,5595],[91.8,5677],[95.6,5768],[96,5844],[91,5928],[90.2,6010],[91.4,6100],[92.9,6178],[92.8,6262],[86.8,6351],[75.8,6434],[51.3,6518],[44.1,6607],[43,6685],[42.8,6766],[42.5,6847],[44.8,6931],[45.1,7011],[45.3,7093],[45.3,7176],[45.6,7266],[44.3,7345],[42.8,7430],[42.6,7509],[42.6,7593],[42.6,7676],[42.4,7759],[42.3,7849],[45,7928],[45.6,8016],[48,8094],[52.6,8177],[54.4,8260],[54.5,8348],[55.2,8426],[56.3,8509],[56.5,8592],[56.5,8675],[56.5,8760],[56.5,8848],[55.8,8932],[50.2,9017],[43.6,9099],[39.3,9181],[38.6,9258],[38.1,9349],[37.1,9434],[36.9,9516],[36.3,9594],[35.5,9675],[35.6,9759],[37.5,9851],[38.5,9926],[42.3,10008],[45.8,10093],[48.9,10181],[50.4,10263],[54.4,10347],[59.4,10429],[65.9,10514],[69.6,10596],[71.9,10682],[74.9,10763],[79.7,10848],[81.8,10929],[81.8,11006],[81.8,11090],[81.8,11173],[81.8,11256],[81.8,11340],[81.8,11423],[82.1,11512],[82.1,11590],[82.1,11672],[82.1,11756],[82.2,11843],[82.2,11923],[82.2,12012],[82.2,12093],[82.2,12174],[82.2,12258],[78.9,12340],[77.2,12430],[77.2,12505],[75.4,12598],[67.4,12683],[64.2,12772],[64,12856],[63.9,12938],[63.9,13024],[63.9,13105],[63.9,13189],[50.2,13281],[30,13524],[29.8,13613],[29.8,13695],[29.8,13771],[29.8,13855],[29.9,13938],[30.1,14021],[30.2,14106],[30.4,14199],[30.6,14280],[30.7,14360],[30.7,14437],[31.3,14522],[31.5,14604],[32.2,14688],[32.2,14771],[29.6,14867],[29.4,14944],[29.3,15020],[29.2,15120],[29.4,15188],[29.6,15269],[29.6,15352],[29.6,15436],[29.6,15521],[29.6,15604],[29.6,15686],[29.6,15770],[32.3,15865],[35,15948],[35.4,16042],[35.6,16119],[35.6,16209],[33.8,16287],[30.3,16377],[25.6,16465],[23,16553],[20.9,16644],[20.7,16718],[20.7,16803],[20.7,16887],[21,16970],[21.1,17052],[21.4,17137],[24.7,17225],[27.1,17310],[27.3,17387],[27.3,17468],[27.3,17553],[27.3,17635],[27.4,17718],[27.5,17807],[27.5,17884],[27.5,17968],[27.5,18051],[27.5,18135],[27.5,18218],[27.5,18301],[27.5,18384],[26.5,18476],[26.5,18550],[26.5,18634],[26.5,18717],[27,18802],[27.5,18889],[27.9,18968],[34.5,19059],[38.5,19142],[43,19226],[60,19308],[74.2,19391],[77.3,19474],[78.2,19558],[83.4,19643],[86.5,19725],[87.3,19807],[88,19890],[88.2,19973],[88.1,20057],[87.9,20140],[87.9,20222],[87.9,20304],[87.9,20388],[86,20472],[82.4,20557],[82.1,20638],[82.1,20721],[82.1,20804],[82.1,20889],[82.1,20971],[82.2,21054],[82.2,21137],[82.2,21221],[82.2,21304],[81.1,21388],[71.1,21472],[69.4,21553],[67.9,21639],[66.9,21720],[66.8,21803],[65.5,21887],[65.3,21970],[64.7,22054],[63.6,22138],[63.4,22220],[63.4,22302],[69.7,22387],[75.8,22472],[81.1,22554],[85.2,22637],[87.5,22720],[88.3,22805],[89.3,22889],[89.4,22971],[89.4,23053],[89.4,23136],[89.4,23219],[89.3,23304],[87.6,23388],[87.6,23470],[88,23554],[88.2,23637],[87.9,23720],[87.4,23803],[88.7,23888],[89.1,23969],[87.9,24055],[87.8,24137],[88,24219],[88.2,24304],[88.2,24385],[88.2,24472],[88.2,24552],[88.2,24635],[88.2,24718],[88.2,24802],[88.2,24884],[88.2,24967],[88.2,25050],[88.2,25134],[88.9,25220],[89.2,25301],[89.2,25385],[89.2,25467],[89.4,25552],[90.3,25636],[90.5,25719],[92.4,25803],[92.7,25885],[93,25969],[93,26050],[93,26133],[93.1,26217],[94.4,26302],[94.5,26383],[94.5,26467],[94.5,26550],[94.5,26642],[94.5,26716],[94.5,26799],[94.4,26883],[94.4,26966],[94.4,27049],[94.4,27133],[94.4,27216],[94.4,27299],[94.4,27382],[94.4,27465],[94.4,27549],[91.7,27635],[90.7,27717],[90.7,27799],[90.7,27884],[90.7,27966],[90.7,28050],[90.7,28132],[90.7,28217],[90.7,28298],[90.7,28382],[90.7,28465],[90.6,28548],[93,28632],[93.8,28715],[94.2,28798],[94.3,28880],[94.3,28963],[94.8,29048],[94.8,29130],[94.8,29214],[95.1,29298],[95.3,29383],[95.5,29465],[95.5,29549],[95.5,29629],[95.5,29713],[94,30215],[94.7,30296],[94.8,30380],[94.8,30463],[94.8,30546],[93.6,30630],[93,30714],[93,30796],[93,30880],[93,30963],[92.8,31049],[93.8,31132],[94.5,31213],[94.6,31295],[94.5,31380],[94.5,31462],[96.1,31546],[94.2,31629],[92.5,31713],[92.4,31795],[92,31880],[89.9,31962],[92.8,32045],[96.6,32131],[97.6,32215],[98.6,32297],[99,32381],[99.3,32463],[99.5,32548],[99.5,32628],[99.5,32713],[99.5,32795],[99.5,32879],[99.5,32962],[99.5,33046],[99.5,33128],[99.5,33211],[99.5,33294],[99.5,33378],[99.5,33461],[99.5,33544],[99.5,33627],[99.5,33710],[99.5,33794],[99.5,33877],[98.5,33962],[98,34044],[96.8,34128],[96.6,34209],[95.2,34294],[94.8,34376],[95.4,34459],[97.8,34545],[96.1,34629],[93,34711],[93,34793],[93,34876],[93,34960],[93,35043],[93,35126],[93,35210],[93,35293],[93,35376],[93,35460],[88.3,35546],[88.2,35627],[90.1,35711],[91.7,35795],[91.7,35876],[91.7,35959],[91.7,36042],[91.7,36127],[91.7,36209],[91.7,36294],[91.7,36375],[91.7,36459],[91.7,36542],[91.7,36623],[91.7,36705],[91.7,36789],[91.7,36873],[91.7,36956],[91.7,37039],[92.7,37124],[92.9,37207],[92.8,37289],[94.2,37375],[94.3,37456],[93.6,37542],[93.3,37623],[94.6,37708],[95.5,37789],[95.2,37873],[94.7,37956],[96.4,38043],[96.8,38122],[95,38208],[93.6,38289],[94.6,38375],[95.3,38455],[95.3,38538],[95.3,38624],[95.3,38704],[95.3,38788],[95.3,38871],[95.3,38954],[95.3,39037],[95.3,39121],[95.3,39205],[95.3,39288],[95.3,39372],[95.3,39455],[95.4,39539],[95.2,39621],[94.9,39704],[94.5,39790],[94.3,39870],[94.3,39955],[94.3,40037],[94.3,40120],[94.3,40204],[94.3,40289],[94.3,40371],[94.3,40455],[94.3,40538],[94.3,40621],[94.3,40705],[94.3,40787],[94.3,40871],[94.3,40954],[94.3,41037],[94.3,41119],[96.7,41206],[97,41287],[97,41369],[96.8,41453],[96.7,41538],[96.1,41623],[95.8,41705],[95,41788],[94.9,41871],[94.4,41955],[94.2,42038],[93.4,42120],[93.3,42204],[93.3,42286],[93.3,42371],[93.3,42453],[93.3,42537],[93.3,42619],[93.3,42704],[93.3,42786],[93.3,42870],[93.3,42952],[93.3,43036],[93.3,43119],[93.3,43202],[93.3,43286],[93.3,43369],[93.3,43453],[93.3,43535],[93.3,43618],[93.3,43701],[93.6,43784],[94.5,43868],[94.5,43952],[94.5,44035],[94.5,44118],[94.5,44204],[94.5,44285],[94.5,44368],[94.5,44453],[93.8,44537],[93.5,44619],[93.3,44702],[91.9,44787],[91.8,44868],[91.8,44951],[91.8,45034],[91.8,45118],[91.8,45201],[91.8,45284],[91.8,45370],[91.8,45451],[91.8,45535],[91.8,45617],[91.8,45702],[91.8,45784],[91.8,45868],[92.1,45951],[92.5,46036],[92.7,46117],[93.1,46200],[93.2,46283],[93.5,46368],[93.8,46452],[94,46535],[94.1,46619],[94.2,46711],[94.2,46797],[94.2,46877],[94.2,46960],[94.2,47046],[94.2,47127],[94.2,47212],[94.2,47293],[94.2,47376],[94.2,47460],[94.2,47543],[94.2,47628],[93.3,47717],[93.2,47793],[92.2,47879],[92.1,47961],[91.5,48045],[91.5,48126],[91.5,48215],[91.5,48293],[91.9,48384],[92.2,48466],[92.4,48545],[92.5,48628],[92.5,48709],[92.5,48794],[92.5,48876],[92.5,48959],[92.5,49042],[92.5,49126],[92.5,49208],[92.5,49293],[92.5,49375],[92.5,49458],[92.5,49541],[92.5,49625],[92.5,49709],[92.5,49792],[92.5,49875],[92.5,49959],[92.5,50042],[92.5,50124],[92.5,50215],[92.5,50291],[92.5,50375],[92.4,50458],[91.7,50543],[91.5,50624],[90,50707],[89.8,50790],[89.8,50875],[89.7,50957],[89.7,51041],[89.7,51124],[89.7,51208],[89.7,51290],[89.7,51373],[89.7,51457],[89.7,51540],[89.7,51623],[89.7,51707],[89.7,51790],[89.7,51873],[89.7,51956],[89.7,52040],[89.7,52124],[89.7,52206],[89.7,52289],[89.7,52373],[89.7,52456],[89.7,52539],[89.7,52623],[89.7,52706],[89.7,52789],[89.7,52873],[89.7,52956],[89.7,53039],[91,53129],[91.4,53207],[94.7,53297],[95,53372],[95.5,53459],[95.7,53543],[95.7,53622],[95.7,53705],[95.7,53788],[95.7,53871],[95.7,53955],[95.7,54038],[95.7,54121],[95.7,54204],[96.7,54292],[97.3,54371],[97.4,54454],[97.4,54537],[97.4,54621],[97.4,54704],[97.4,54787],[97.4,54870],[97.4,54954],[97.4,55037],[97.4,55121],[97.4,55203],[97.4,55287],[97.4,55371],[97.4,55453],[97.4,55537],[97.4,55620],[97.4,55703],[97.4,55787],[97.4,55869]]",3578.948,3580.1629,97.39583333,1.0044,"[{""rating"":97.39583333333333,""responseTime"":1.00440000003573}]",space,0.669,,3580.163,Partially,50,3580.1678,,,[],,0,10,10,10,1,audio/Narrative8Situation1.wav,audio/Narrative7Situation1.wav,audio/Narrative6Situation1.wav,audio/Narrative5Situation1.wav,5,2,2,5,,,,,,,,,,,,,,,,,,,,,,,,,,,,,,,,,,,,,,,
,,,,,66f02f508e8473f0362ed99e,2025-07-07_19h46.12.095,group3.4_multiperson,2023.2.2,Win32,60.24096386,686c2ebf0248f13bef9af11f,686c84c7524b1f5a8141bda3,,,,,,,,,,,,,,,,,,,,,,,,,,,,,3580.1688,1,audio/Narrative7Situation2.wav,3583.1764,,3583.1766,3590.6539,"[[999,1],[999,99],[999,182],[999,266],[999,353],[999,432],[999,515],[999,598],[999,681],[999,765],[999,848],[999,932],[999,1016],[999,1098],[999,1183],[999,1267],[999,1354],[34,1440],[28.1,1531],[28.6,1614],[28.6,1698],[38.6,1785],[60.4,1877],[74.7,1967],[95.4,2421],[95.4,2497],[95.4,2580],[95.4,2669],[95.6,2748],[98.4,2837],[98.6,2913],[98.8,2997],[98.8,3080],[98.8,3163],[98.8,3246],[98.8,3329],[98.8,3418],[98.8,3496],[98.8,3579],[98.8,3663],[98.8,3746],[98.8,3829],[98.8,3913],[98.8,3995],[98.8,4079],[98.8,4162],[98.8,4246],[98.8,4329],[98.8,4412],[98.8,4495],[98.8,4578],[98.8,4661],[98.8,4747],[98.8,4828],[98.8,4911],[98.8,4995],[98.8,5077],[98.8,5161],[98.8,5244],[98.8,5327],[98.8,5410],[98.8,5493],[98.8,5578],[98.8,5664],[98.8,5744],[98.8,5827],[98.8,5911],[98.8,5994],[98.8,6078],[98.8,6161],[98.8,6244],[98.8,6327],[98.8,6410],[98.8,6493],[98.8,6577],[98.8,6660],[98.8,6743],[98.8,6826],[98.8,6909],[98.8,6993],[98.8,7076],[98.8,7159],[98.8,7242],[98.8,7326],[98.8,7409]]",3590.6544,3591.9373,98.75000318,1.1769,"[{""rating"":98.75000317891438,""responseTime"":1.1768999999762855}]",space,0.7358,,3591.9375,Partially,50,3591.9443,,,[],,0,11,11,11,1,audio/Narrative8Situation2.wav,audio/Narrative7Situation2.wav,audio/Narrative6Situation2.wav,audio/Narrative5Situation2.wav,3,3,3,3,,,,,,,,,,,,,,,,,,,,,,,,,,,,,,,,,,,,,,,
,,,,,66f02f508e8473f0362ed99e,2025-07-07_19h46.12.095,group3.4_multiperson,2023.2.2,Win32,60.24096386,686c2ebf0248f13bef9af11f,686c84c7524b1f5a8141bda3,,,,,,,,,,,,,,,,,,,,,,,,,,,,,3591.9455,1,audio/Narrative7Situation3.wav,3599.9627,,3599.9629,3609.229,"[[98.3,1933],[96.8,2014],[96.8,2097],[96.8,2180],[96.8,2266],[96.8,2348],[96.8,2430],[96.8,2513],[96.8,2596],[96.8,2679],[96.8,2762],[96.8,2846],[96.8,2930],[96.8,3013],[96.8,3096],[96.8,3180],[96.8,3263],[96.8,3346],[96.8,3430],[96.8,3513],[96.8,3596],[96.8,3681],[96.8,3765],[96.8,3845],[96.8,3929],[96.8,4012],[96.8,4096],[96.8,4179],[96.8,4262],[96.8,4345],[96.8,4430],[96.8,4512],[96.8,4596],[96.8,4679],[96.8,4762],[96.8,4845],[96.8,4928],[96.8,5010],[96.8,5094],[96.8,5177],[96.8,5261],[96.8,5344],[96.8,5430],[96.8,5512],[96.8,5595],[96.8,5677],[96.7,5760],[96.7,5844],[96.7,5934],[96.7,6011],[96.7,6097],[96.7,6183],[96.7,6260],[96.7,6343],[96.7,6427],[96.7,6510],[96.7,6593],[96.7,6676],[96.7,6760],[96.7,6843],[96.7,6926],[96.7,7012],[96.7,7093],[96.7,7176],[96.7,7260],[96.7,7346],[96.7,7425],[96.7,7509],[96.7,7592],[96.6,7676],[96.5,7759],[96.5,7842],[96.3,7925],[96.3,8008],[96.3,8092],[96.3,8175],[96.3,8258],[94.9,8349],[88.9,8433],[82.3,8509],[49,9265]]",3609.2292,3611.2376,42.91667144,1.7522,"[{""rating"":42.91667143503825,""responseTime"":1.752199999988079}]",space,1.4703,,3611.2377,Partially,50,3611.2426,,,[],,0,12,12,12,1,audio/Narrative8Situation3.wav,audio/Narrative7Situation3.wav,audio/Narrative6Situation3.wav,audio/Narrative5Situation3.wav,4,8,5,3,,,,,,,,,,,,,,,,,,,,,,,,,,,,,,,,,,,,,,,
,,,,,66f02f508e8473f0362ed99e,2025-07-07_19h46.12.095,group3.4_multiperson,2023.2.2,Win32,60.24096386,686c2ebf0248f13bef9af11f,686c84c7524b1f5a8141bda3,,,,,,,,,,,,,,,,,,,,,,,,,,,,,3611.2435,1,audio/Narrative7Situation4.wav,3614.2508,,3614.2511,3625.9805,"[[43.2,1099],[45,1188],[45.2,1269],[43.1,1355],[37.5,1432],[33.8,1515],[32.4,1602],[31.4,1688],[30.3,1764],[29.9,1848],[29.9,1934],[30.5,2015],[19.5,2687],[11.8,2768],[8.8,2850],[8.8,2930],[8.8,3013],[8.8,3097],[8.8,3180],[8.8,3263],[8.8,3346],[7.5,3431],[6.4,3514],[6.4,3596],[6.4,3685],[6.6,3769],[7.3,3847],[8.6,3930],[10.4,4018],[10.4,4095],[10.8,4180],[12.4,4268],[13.4,4346],[15.1,4435],[16.4,4513],[16.5,4594],[17.7,4679],[26.8,4769],[28.5,4852],[28.6,4927],[28.2,5011],[28,5100],[28,5182],[28,5261],[23.3,5347],[17.2,5440],[14,5542],[12.1,5620],[8.8,5699],[6.7,5789],[5.9,5871],[5.8,5950],[5.5,6035],[4.5,6118],[4.1,6200],[4.1,6282],[4.1,6367],[4.1,6449],[4.1,6533],[4.1,6615],[4.1,6699],[4.1,6782],[4.1,6867],[4.1,6949],[4.1,7033],[4.1,7115],[4.1,7200],[4.1,7281],[4.1,7365],[4.1,7447],[4.1,7532],[4.1,7615],[4.1,7699],[4.1,7781],[4.1,7864],[4.1,7948],[4.1,8031],[4.1,8114],[4.2,8199],[5.2,8282],[5.5,8364],[5.6,8447],[5.7,8531],[5.7,8615],[5.7,8697],[5.7,8780],[5.7,8864],[5.7,8946],[5.7,9031],[5.7,9114],[5.7,9197],[5.7,9282],[5.7,9364],[5.7,9448],[5.7,9530],[5.7,9613],[5.7,9695],[5.7,9779],[5.7,9862],[5.7,9946],[5.7,10029],[5.7,10112],[5.7,10197],[5.7,10280],[5.7,10363],[5.7,10447],[5.7,10530],[5.7,10613],[5.7,10696],[5.7,10779],[5.7,10863],[5.7,10946],[5.7,11029],[5.7,11112],[5.7,11197],[5.7,11279],[5.7,11363],[5.7,11445],[5.7,11530],[5.7,11612],[5.7,11696]]",3625.9809,3628.5234,2.812500795,2.3827,"[{""rating"":2.812500794728595,""responseTime"":2.38269999998829}]",space,2.0065,,3628.5236,Definitely yes,100,3628.535,,,[],,0,13,13,13,1,audio/Narrative8Situation4.wav,audio/Narrative7Situation4.wav,audio/Narrative6Situation4.wav,audio/Narrative5Situation4.wav,3,3,2,1,,,,,,,,,,,,,,,,,,,,,,,,,,,,,,,,,,,,,,,
,,,,,66f02f508e8473f0362ed99e,2025-07-07_19h46.12.095,group3.4_multiperson,2023.2.2,Win32,60.24096386,686c2ebf0248f13bef9af11f,686c84c7524b1f5a8141bda3,,,,,,,,,,,,,,,,,,,,,,,,,,,,,3628.5359,1,audio/Narrative7Situation5.wav,3633.5515,,3633.552,3642.0623,"[[2.1,1855],[6.6,1936],[7.3,2019],[7.3,2096],[7.4,2179],[7.4,2264],[7.4,2346],[7.4,2430],[7.4,2513],[7.4,2596],[7.4,2680],[7.4,2763],[7.4,2847],[7.4,2930],[7.4,3012],[7.4,3096],[7.4,3180],[7.4,3263],[7.4,3346],[7.4,3429],[7.4,3513],[7.4,3596],[7.4,3685],[7.4,3762],[7.4,3847],[7.4,3934],[7.4,4011],[7.4,4095],[7.4,4178],[7.4,4262],[7.4,4344],[7.4,4427],[7.4,4511],[7.4,4600],[7.4,4678],[7.4,4761],[7.4,4845],[7.4,4934],[7.4,5011],[7.4,5096],[7.4,5178],[7.4,5261],[7.4,5344],[7.4,5428],[7.8,5518],[16.6,5596],[18.1,5683],[19.3,5763],[20.9,5851],[23,5935],[26.7,6016],[31.5,6106],[33.1,6194],[38.1,6287],[38.1,6360],[38.1,6445],[37,6536],[45.7,7216],[47.6,7299],[52.7,7377],[53.1,7476],[53.1,7559],[53.1,7642],[53.1,7725],[54.2,7811],[59.9,7898],[62.2,7977],[66,8062],[69.9,8149],[75.9,8232],[81.1,8315],[82.9,8400],[84.5,8478]]",3642.0626,3643.8937,84.58333015,1.656,"[{""rating"":84.58333015441895,""responseTime"":1.6560000000004038}]",space,1.287,,3643.894,Definitely yes,100,3643.9003,,,[],,0,14,14,14,1,audio/Narrative8Situation5.wav,audio/Narrative7Situation5.wav,audio/Narrative6Situation5.wav,audio/Narrative5Situation5.wav,2,5,2,5,,,,,,,,,,,,,,,,,,,,,,,,,,,,,,,,,,,,,,,
,,,,,66f02f508e8473f0362ed99e,2025-07-07_19h46.12.095,group3.4_multiperson,2023.2.2,Win32,60.24096386,686c2ebf0248f13bef9af11f,686c84c7524b1f5a8141bda3,,,,,,,,,,,,,,,,,,,,,,,,,,,,,3643.9015,1,audio/Narrative7Situation6.wav,3646.9065,,3646.9069,3656.8661,"[[999,1],[999,99],[999,184],[999,273],[999,357],[999,440],[12.8,526],[12.6,605],[9.9,708],[9.3,782],[9.1,865],[7.1,954],[6.9,1031],[6.8,1115],[6.8,1203],[8.5,1288],[10.4,1371],[11.2,1448],[15.7,1538],[20.4,1620],[25.5,1705],[28.5,1789],[29.2,1865],[29.2,1947],[29.4,2032],[30.1,2121],[30.1,2197],[29.9,2280],[54.3,2369],[66.4,2454],[84.9,2780],[90.9,2870],[87.7,2948],[87.7,3030],[87.7,3113],[87.7,3197],[87.7,3279],[87.7,3362],[90.3,3446],[91.6,3537],[91.9,3614],[92.1,3696],[92.1,3779],[93,3864],[94.4,3952],[96.8,4037],[96.9,4118],[97.8,4204],[98.6,4282],[98.8,4364],[98.8,4445],[98.8,4529],[98.8,4612],[98.8,4695],[98.8,4779],[98.8,4862],[98.8,4945],[98.8,5028],[98.8,5112],[98.8,5195],[98.8,5278],[98.8,5361],[98.8,5445],[98.8,5529],[98.8,5611],[97.8,5695],[96.8,5785],[96.7,5861],[96.6,5946],[96.6,6027],[96.6,6111],[96.6,6195],[96.6,6277],[96.6,6361],[96.6,6444],[96.6,6527],[96.6,6611],[96.6,6694],[96.6,6777],[96.6,6860],[96.6,6944],[96.6,7027],[96.6,7110],[96.6,7193],[96.6,7276],[96.5,7361],[96.5,7443],[96.5,7532],[96.5,7610],[96.5,7693],[96.5,7776],[96.5,7860],[96.5,7943],[96.5,8026],[96.5,8109],[96.5,8193],[96.5,8276],[96.5,8359],[96.5,8442],[96.5,8525],[96.5,8608],[96.5,8692],[96.5,8775],[96.5,8859],[96.5,8942],[96.5,9025],[96.5,9108],[96.5,9191],[96.5,9275],[96.5,9358],[96.5,9441],[96.5,9525],[96.5,9608],[96.5,9692],[96.5,9775],[96.5,9858],[96.5,9941]]",3656.8666,3658.1487,96.45833969,1.1059,"[{""rating"":96.45833969116211,""responseTime"":1.1059000000359447}]",space,0.7352,,3658.1489,Partially,50,3658.1576,,,[],,0,15,15,15,1,audio/Narrative8Situation6.wav,audio/Narrative7Situation6.wav,audio/Narrative6Situation6.wav,audio/Narrative5Situation6.wav,2,3,2,3,,,,,,,,,,,,,,,,,,,,,,,,,,,,,,,,,,,,,,,
,,,,,66f02f508e8473f0362ed99e,2025-07-07_19h46.12.095,group3.4_multiperson,2023.2.2,Win32,60.24096386,686c2ebf0248f13bef9af11f,686c84c7524b1f5a8141bda3,,,,,,,,,,,,,,,,,,,,,,,,,,,,,3658.1584,1,audio/Narrative7Situation7.wav,3663.1607,,3663.161,3680.3457,"[[999,2],[999,98],[999,182],[999,265],[999,356],[999,436],[28.6,524],[27.7,599],[27.5,680],[27.5,763],[28.3,849],[31.1,936],[34.4,1020],[38.3,1111],[45.3,1206],[50.2,1298],[51.3,1381],[51.4,1465],[51.4,1547],[51.4,1631],[51.4,1714],[51.1,1797],[51.1,1881],[51.1,1963],[51.1,2046],[51.1,2130],[51.1,2213],[51.1,2297],[51.1,2380],[51.1,2464],[60.9,2552],[67.9,2636],[89.8,2967],[91,3050],[95.6,3134],[97.9,3217],[100,3298],[100,3379],[100,3462],[100,3545],[100,3628],[100,3711],[100,3795],[100,3878],[100,3961],[100,4045],[100,4128],[100,4211],[100,4295],[100,4378],[100,4461],[99.9,4545],[98.1,4630],[97.9,4713],[97.9,4795],[97.9,4880],[97.9,4961],[97.7,5050],[97.7,5127],[97.7,5211],[97.6,5294],[97.5,5377],[97.5,5460],[97.5,5544],[97.5,5627],[96.5,5715],[95.9,5793],[95.8,5877],[96.7,5967],[97,6045],[97,6126],[97,6210],[97,6293],[97,6376],[97,6460],[97,6543],[97,6626],[97,6709],[96.9,6792],[96.9,6880],[96.9,6959],[96.9,7042],[96.9,7125],[96.8,7209],[96.8,7292],[96.8,7375],[96.8,7459],[96.8,7542],[96.8,7625],[96.8,7708],[96.8,7792],[96.8,7880],[96.8,7958],[96.8,8041],[96.8,8125],[96.8,8208],[96.8,8291],[96.8,8375],[96.8,8463],[96.8,8542],[96.8,8625],[96.8,8708],[96.8,8792],[96.8,8874],[96.8,8957],[96.8,9041],[96.8,9129],[96.8,9207],[96.8,9291],[96.8,9374],[96.8,9457],[96.8,9540],[96.8,9624],[96.8,9707],[96.8,9790],[96.8,9874],[96.8,9958],[96.8,10040],[96.8,10123],[96.8,10209],[96.8,10290],[96.8,10373],[96.8,10462],[96.8,10540],[96.8,10623],[96.8,10713],[96.8,10790],[96.8,10873],[96.8,10956],[96.8,11039],[96.8,11123],[96.8,11206],[96.8,11289],[96.8,11372],[96.8,11456],[96.8,11538],[96.8,11622],[96.8,11705],[96.8,11789],[96.8,11872],[96.8,11956],[96.8,12038],[96.8,12122],[96.8,12205],[96.8,12288],[96.8,12371],[96.8,12455],[96.8,12538],[96.8,12621],[96.8,12704],[96.8,12788],[96.8,12871],[96.8,12954],[96.8,13038],[96.8,13121],[96.8,13204],[96.8,13287],[96.8,13376],[96.8,13454],[96.8,13537],[96.8,13620],[96.8,13703],[96.8,13787],[96.8,13871],[96.8,13953],[96.8,14037],[96.8,14121],[96.8,14204],[96.8,14287],[96.8,14370],[96.8,14454],[96.8,14537],[96.8,14620],[96.8,14704],[96.8,14787],[96.8,14870],[96.8,14954],[96.8,15042],[96.8,15119],[96.8,15204],[96.8,15286],[96.8,15369],[96.8,15453],[96.8,15536],[96.8,15618],[96.8,15702],[96.8,15786],[96.8,15869],[96.8,15952],[96.8,16035],[96.8,16118],[96.8,16201],[96.8,16285],[96.8,16368],[96.8,16451],[96.8,16534],[96.8,16618],[96.8,16701],[96.8,16784],[96.7,16868],[96.5,16952],[96.5,17036],[96.5,17117]]",3680.3463,3681.1799,96.45833969,0.7323,"[{""rating"":96.45833969116211,""responseTime"":0.7323000000119464}]",space,0.2862,,3681.1801,Definitely yes,100,3681.1904,,,[],,0,16,16,16,1,audio/Narrative8Situation7.wav,audio/Narrative7Situation7.wav,audio/Narrative6Situation7.wav,audio/Narrative5Situation7.wav,3,5,5,4,,,,,,,,,,,,,,,,,,,,,,,,,,,,,,,,,,,,,,,
,,,,,66f02f508e8473f0362ed99e,2025-07-07_19h46.12.095,group3.4_multiperson,2023.2.2,Win32,60.24096386,686c2ebf0248f13bef9af11f,686c84c7524b1f5a8141bda3,,,,,,,,,,,,,,,,,,,,,,,,,,,,,3681.1914,1,audio/Narrative7Situation8.wav,3683.1933,,3683.1935,3693.2365,"[[999,1],[999,99],[999,182],[999,266],[999,349],[999,432],[999,516],[999,599],[999,684],[999,767],[999,851],[999,939],[999,1022],[999,1106],[999,1186],[999,1264],[999,1350],[999,1434],[999,1514],[999,1598],[999,1682],[999,1766],[999,1848],[55.1,1940],[52.7,2022],[51.1,2123],[51.1,2199],[51.1,2281],[51.1,2365],[51.1,2448],[51.1,2531],[51.1,2614],[51.1,2703],[51.1,2780],[51.1,2864],[50.9,2951],[49.5,3039],[49.3,3117],[49.3,3199],[49.3,3281],[49.3,3363],[49.3,3446],[49.3,3529],[49.3,3613],[49.3,3696],[49.3,3780],[49.3,3868],[49.3,3946],[49.3,4029],[49.3,4113],[49.3,4196],[49.3,4279],[49.3,4363],[49.3,4446],[49.3,4529],[49.3,4612],[49.3,4695],[49.3,4778],[49.3,4862],[49.3,4949],[49.3,5029],[55.8,5114],[60,5204],[96.3,5865],[96.6,5951],[96.6,6027],[96.6,6111],[96.6,6200],[97.1,6285],[97.4,6366],[97.4,6444],[97.4,6527],[97.4,6610],[97.4,6694],[97.4,6777],[97.4,6860],[97.4,6943],[97.4,7027],[97.4,7110],[97.4,7193],[97.4,7277],[97.4,7360],[97.4,7443],[97.4,7527],[97.4,7610],[97.4,7693],[97.6,7778],[97.8,7859],[97.5,7944],[97.1,8032],[96.9,8110],[96.9,8193],[96.9,8278],[96.9,8359],[96.9,8443],[96.9,8525],[96.9,8609],[96.9,8693],[96.9,8777],[96.9,8859],[96.9,8942],[96.9,9029],[96.9,9109],[96.9,9199],[96.9,9275],[96.9,9358],[96.9,9442],[96.9,9525],[96.9,9614],[96.9,9699],[96.9,9776],[96.9,9858],[96.9,9941],[96.9,10024]]",3693.237,3693.9601,96.875,0.7029,"[{""rating"":96.875,""responseTime"":0.7028999999761254}]",space,0.1781,,3693.9603,Not at all,0,3693.976,,,[],,0,17,17,17,1,audio/Narrative8Situation8.wav,audio/Narrative7Situation8.wav,audio/Narrative6Situation8.wav,audio/Narrative5Situation8.wav,3,2,5,3,,,,,,,,,,,,,,,,,,,,,,,,,,,,,,,,,,,,,,,
,,,,,66f02f508e8473f0362ed99e,2025-07-07_19h46.12.095,group3.4_multiperson,2023.2.2,Win32,60.24096386,686c2ebf0248f13bef9af11f,686c84c7524b1f5a8141bda3,,,,,,,,,,,,,,,,,,,,,,,,,,,,,3693.9772,1,audio/Narrative7Situation9.wav,3695.9827,,3695.9831,3704.6262,"[[23.5,839],[27.8,921],[28.3,998],[28.3,1082],[28.3,1168],[28.3,1254],[31.4,1339],[33.1,1422],[33.3,1499],[34.2,1582],[39.3,1671],[53.3,1749],[77.4,1838],[87.2,1921],[91.8,2005],[94.5,2081],[97,2170],[97.1,2247],[97.9,2337],[98.9,2414],[98.9,2497],[98.9,2580],[98.9,2664],[98.9,2752],[98.9,2830],[98.9,2919],[98.3,2998],[97.3,3080],[97.3,3163],[97.3,3248],[97.3,3330],[97.3,3413],[97.3,3498],[97.4,3579],[97.4,3663],[97.4,3746],[97.4,3829],[97.4,3913],[97.6,3996],[97.7,4079],[97.9,4162],[98.2,4247],[98.2,4330],[98.2,4412],[98.2,4495],[98.2,4578],[98.2,4662],[98.1,4746],[98,4830],[98,4912],[98,4995],[98,5077],[98,5161],[98,5250],[98,5329],[98,5414],[98,5495],[98,5581],[98,5661],[98,5745],[98,5828],[98,5917],[98,5994],[98,6078],[98,6167],[98,6244],[98,6327],[98,6410],[98,6494],[98,6577],[98,6660],[98,6747],[98,6828],[98,6911],[98,6994],[98,7077],[98,7160],[98,7243],[98,7327],[98,7410],[98,7493],[98,7577],[98,7660],[98,7749],[98,7826],[98,7910],[98,7993],[98,8076],[98,8159],[98,8243],[98,8326],[98,8409],[98,8496],[98,8575]]",3704.6268,3705.5164,98.02083969,0.6564,"[{""rating"":98.02083969116211,""responseTime"":0.6563999999762018}]",space,0.347,,3705.5164,Partially,50,3711.6429,50,3.9251,"[{""rating"":50,""responseTime"":3.925099999964459}]",space,0,18,18,18,1,audio/Narrative8Situation9.wav,audio/Narrative7Situation9.wav,audio/Narrative6Situation9.wav,audio/Narrative5Situation9.wav,3,2,4,3,,,5.5849,,,,,,,,,,,,,,,,,,,,,,,,,,,,,,,,,,,,
,,,,,66f02f508e8473f0362ed99e,2025-07-07_19h46.12.095,group3.4_multiperson,2023.2.2,Win32,60.24096386,686c2ebf0248f13bef9af11f,686c84c7524b1f5a8141bda3,,,,,,,,,,,,,,,,,,,,,,,,,,,3713.9052,3716.4829,3716.5279,2,audio/Narrative13Situation2.wav,3716.5283,,3716.5283,3746.2758,"[[49.1,838],[45.9,921],[45.6,1004],[40.2,1093],[39.7,1172],[40,1260],[44.5,1344],[45.8,1430],[46.4,1505],[46.6,1597],[46.6,1670],[46.6,1753],[46.5,1843],[46.7,1921],[46.9,2003],[46.9,2085],[46.9,2169],[46.9,2252],[46.9,2335],[46.3,2420],[42.3,2518],[41.8,2594],[39,2676],[34.5,2760],[32.4,2844],[32.1,2925],[32.2,3009],[33,3091],[36.1,3177],[37,3259],[40.1,3360],[46.3,3468],[52.4,3560],[54.2,3641],[54.3,3719],[52.7,3808],[51.1,3892],[50.8,3967],[50.8,4050],[50.8,4134],[50.8,4217],[50.8,4300],[50.8,4384],[50.8,4467],[50.8,4554],[50.8,4634],[50.8,4720],[50.8,4800],[50.8,4883],[50.8,4967],[50.8,5052],[50.8,5133],[50.8,5216],[50.8,5300],[50.8,5383],[50.8,5466],[50.8,5549],[50.8,5632],[50.8,5716],[50.8,5799],[50.8,5882],[50.8,5965],[50.8,6049],[40.9,6140],[26.6,6227],[19.8,6305],[7,7224],[5.4,7303],[4.9,7383],[4.4,7464],[4.4,7552],[4.4,7631],[4.9,7716],[6.3,7809],[6.3,7881],[6.3,7964],[6.3,8047],[6.3,8130],[6.3,8213],[6.3,8297],[6.3,8380],[6.3,8465],[6.3,8547],[8.5,8638],[10.9,8724],[13.2,8805],[17.3,8888],[21.4,8971],[38.2,9055],[66.7,9968],[67.6,10051],[65.2,10135],[64.1,10219],[64.1,10301],[64.1,10385],[64.1,10468],[58.9,10552],[50.2,10634],[47.6,10719],[47.6,10800],[47.6,10884],[47.6,10967],[47.6,11052],[43.3,11136],[40.2,11220],[37.3,11302],[24.6,11385],[17.8,11468],[16.9,11550],[16.9,11634],[16.9,11718],[16.9,11800],[13.5,11887],[10.5,11969],[8.5,12055],[6.7,12135],[6.4,12217],[6.4,12299],[6.4,12383],[6.4,12467],[6.4,12550],[6.4,12633],[4.1,12720],[3.4,12813],[3.4,12898],[3.4,12976],[3.4,13060],[3.4,13143],[3.4,13227],[3.4,13311],[3.4,13392],[3.4,13476],[3.4,13560],[3.4,13643],[3.4,13729],[3.4,13810],[3.4,13892],[3.4,13978],[3.4,14058],[3.4,14142],[3.4,14225],[3.4,14309],[3.4,14392],[3.4,14475],[3.4,14558],[3.4,14641],[3.4,14725],[3.4,14808],[3.4,14891],[3.4,14974],[3.4,15063],[3.4,15141],[3.4,15224],[3.4,15310],[3.4,15391],[3.4,15474],[3.4,15563],[3.4,15643],[3.4,15729],[3.4,15807],[3.4,15890],[3.4,15974],[3.4,16057],[3.4,16140],[3.4,16223],[3.4,16307],[3.4,16390],[3.4,16473],[3.4,16562],[3.4,16640],[3.4,16728],[3.4,16807],[3.4,16890],[3.4,16973],[3.4,17056],[3.4,17140],[3.4,17223],[3.4,17306],[14.5,17393],[41.4,17890],[41.4,17972],[41.4,18056],[41.4,18139],[41.4,18222],[41.4,18305],[41.4,18389],[41.4,18478],[41.4,18555],[38,18648],[28.2,18734],[18.4,18815],[17.3,18889],[17.3,18971],[17.3,19061],[17.3,19138],[14.9,19223],[13,19308],[12.6,19387],[10.4,19473],[10,19555],[7.9,19640],[7.6,19721],[5,19808],[4.8,19888],[4.8,19971],[4.8,20054],[4.8,20137],[4.8,20221],[4.8,20304],[4.8,20387],[4.8,20470],[4.8,20554],[4.8,20637],[4.8,20721],[4.8,20803],[4.8,20887],[4.8,20970],[4.8,21052],[4.8,21136],[4.8,21219],[4.8,21304],[4.8,21386],[4.8,21475],[4.8,21553],[4.8,21636],[4.8,21719],[4.8,21802],[4.8,21886],[4.8,21969],[4.8,22053],[4.8,22135],[4.8,22220],[4.8,22302],[4.8,22385],[4.8,22469],[4.8,22552],[4.8,22635],[4.8,22718],[4.8,22807],[4.7,22884],[4.7,22968],[4.7,23051],[4.7,23137],[4.7,23218],[4.7,23301],[4.7,23384],[5.4,23470],[6.6,23556],[6.8,23636],[6.8,23718],[6.8,23800],[6.8,23884],[6.6,23968],[6.5,24050],[6.5,24134],[6.6,24218],[6.7,24300],[6.8,24384],[4.4,24474],[4,24551],[4,24633],[5.3,24718],[5.2,24802],[4.1,24883],[4,24966],[5.6,25051],[5.8,25133],[5.9,25216],[6.3,25301],[7.1,25383],[7.3,25468],[7.6,25549],[7.7,25632],[8.1,25720],[8.4,25798],[9.1,25884],[9.2,25965],[9.4,26049],[9.4,26133],[9.4,26215],[9.4,26298],[9.4,26382],[9.4,26465],[9.4,26548],[9.4,26632],[9.4,26716],[9.4,26798],[9.4,26882],[9.4,26965],[9.4,27048],[9.4,27131],[9.4,27214],[9.4,27298],[9.4,27381],[9.4,27464],[9.4,27548],[9.4,27631],[9.4,27714],[9.4,27798],[9.4,27880],[9.4,27964],[9.4,28047],[9.4,28131],[9.4,28213],[9.4,28297],[9.4,28380],[9.4,28464],[9.4,28547],[9.4,28630],[9.4,28714],[9.4,28796],[9.4,28880],[9.4,28963],[9.4,29048],[9.4,29129],[9.4,29213],[9.4,29296],[9.4,29385],[9.4,29464],[9.4,29546],[9.4,29629],[9.4,29713]]",3746.2765,3746.2834,,,[],,,,3746.2835,Partially,50,3746.2883,,,[],,0,0,0,0,1,audio/Narrative13Situation2.wav,audio/Narrative13Situation2.wav,audio/Narrative13Situation2.wav,audio/Narrative13Situation2.wav,2,2,2,2,,,,,3711.6444,3713.9041,space,1.7317,,,,,,,,,,,,,,,,,,,,,,,,,,,,,,,
,,,,,66f02f508e8473f0362ed99e,2025-07-07_19h46.12.095,group3.4_multiperson,2023.2.2,Win32,60.24096386,686c2ebf0248f13bef9af11f,686c84c7524b1f5a8141bda3,,,,,,,,,,,,,,,,,,,,,,,,,,,,,3746.2892,2,audio/Narrative6Situation1.wav,3748.2902,,3748.2905,3774.8749,"[[8.4,1590],[6.5,1682],[6.1,1767],[6,1852],[6,1930],[6,2013],[6,2097],[6,2181],[6,2263],[6,2349],[6,2429],[6,2513],[6.5,2603],[6.8,2681],[6.8,2763],[7.1,2846],[7.1,2931],[7.1,3013],[7.1,3096],[7.1,3180],[7.1,3263],[7.1,3347],[7.1,3430],[7.1,3512],[7.1,3595],[7.1,3679],[7.1,3762],[7.1,3845],[7.1,3929],[7.1,4011],[7.1,4095],[7.1,4178],[7.1,4261],[7.1,4345],[7.1,4428],[7.1,4512],[7.1,4595],[7.1,4678],[7.1,4761],[4.5,4852],[3.8,4934],[3.5,5011],[3.5,5094],[3.6,5179],[13.1,5266],[34.2,5346],[45.1,5429],[59.7,5515],[66.9,5602],[69.6,5678],[69.6,5762],[69.5,5844],[69.5,5927],[69.5,6011],[69.5,6093],[64.1,6183],[59.9,6267],[56.8,6350],[52.5,6430],[45.8,6517],[38.4,6594],[29.6,6684],[23,6766],[18.8,6845],[14.4,6934],[12.1,7014],[11,7097],[10.8,7181],[10.2,7261],[10,7342],[9.8,7432],[9.7,7515],[9.2,7593],[7,7676],[5.6,7760],[5.5,7848],[5.5,7925],[5.5,8008],[5.5,8092],[5.5,8175],[5.5,8258],[5.5,8342],[5.6,8427],[5.9,8510],[7.5,8596],[12.8,8676],[21.4,8759],[23.2,8848],[23.3,8925],[20.9,9015],[17.2,9092],[16.4,9176],[14.3,9262],[10.8,9344],[7.9,9430],[7.6,9508],[7.4,9592],[6.9,9682],[6,9758],[5.9,9841],[5.9,9923],[5.9,10007],[5.8,10091],[5.3,10174],[5.1,10263],[5.1,10341],[5.1,10423],[5.1,10506],[5.4,10590],[6,10675],[6.1,10756],[6.1,10839],[6.1,10923],[6.1,11006],[6.1,11089],[6.5,11174],[7.2,11257],[7.7,11345],[7.8,11422],[7.8,11506],[8,11589],[8.1,11672],[7.6,11762],[7.1,11846],[6.9,11922],[6.9,12005],[6.9,12088],[6.9,12172],[6.9,12255],[6.9,12338],[6.5,12422],[6.5,12505],[5.8,12589],[5.5,12678],[4.5,12761],[4.4,12845],[4.4,12922],[4.4,13004],[4.4,13088],[4.4,13171],[4.4,13254],[3.8,13347],[3.3,13422],[3.2,13505],[3.2,13588],[3.2,13678],[3.2,13754],[3.2,13837],[3.2,13927],[3.2,14004],[3,14095],[3,14171],[3,14254],[3,14337],[3,14422],[3,14504],[3,14587],[3,14670],[3,14753],[3,14837],[3,14920],[3,15003],[4.2,15086],[4.4,15170],[3.9,15254],[3.8,15336],[3.8,15419],[3.8,15502],[3.8,15585],[3.8,15668],[3.8,15752],[3.8,15836],[3.8,15919],[3.8,16003],[3.8,16091],[3.8,16169],[3.8,16252],[3.8,16338],[3.8,16418],[3.8,16502],[3.8,16585],[3.8,16668],[3.8,16751],[3.8,16835],[3.8,16918],[3.8,17002],[3.8,17085],[3.9,17167],[4,17252],[5.1,17343],[9.5,17425],[10.9,17502],[10.9,17584],[8,17668],[3.2,17757],[1.1,17840],[1.1,17920],[1,18007],[1.6,18089],[2.1,18175],[2.1,18251],[2.5,18333],[2.6,18423],[2.6,18500],[2.6,18583],[2.6,18666],[2.6,18750],[2.6,18838],[2.6,18922],[2.6,19000],[2.6,19083],[2.6,19166],[2.6,19250],[2.6,19332],[2.6,19416],[2.6,19505],[2.6,19582],[2.6,19665],[2.6,19749],[2.6,19832],[2.6,19916],[2.6,19998],[2.6,20082],[2.6,20170],[2.6,20248],[2.6,20331],[2.9,20415],[3.1,20502],[3.1,20581],[3.1,20665],[3.3,20750],[4.1,20833],[4.1,20915],[4.2,20998],[4.2,21081],[4.2,21164],[4.2,21247],[4.2,21331],[6.7,21416],[38,21504],[85,22086],[84.2,22165],[84,22247],[84,22330],[87.8,22415],[90.7,22502],[94.7,22580],[95.6,22670],[95.7,22746],[95.7,22830],[95.7,22913],[95.7,22997],[95.7,23087],[95.7,23163],[95.7,23247],[93.1,23337],[92.3,23423],[89,23513],[88.7,23601],[87.2,23683],[85.7,23770],[85.6,23846],[85.6,23929],[85.6,24013],[86.6,24104],[88.9,24193],[91.6,24290],[93.8,24379],[94.6,24453],[96.7,24536],[97.7,24620],[99.2,24702],[100,24785],[100,24868],[100,24951],[100,25033],[100,25117],[100,25201],[100,25285],[100,25367],[100,25452],[100,25534],[100,25618],[100,25700],[100,25785],[100,25866],[100,25951],[100,26033],[100,26118],[100,26200],[100,26283],[100,26366],[100,26451],[100,26533]]",3774.8755,3776.95,99.58333969,1.7391,"[{""rating"":99.58333969116211,""responseTime"":1.7391000000238819}]",space,1.5348,,3776.9505,Not at all,0,3776.9606,,,[],,0,1,1,1,1,audio/Narrative7Situation1.wav,audio/Narrative8Situation1.wav,audio/Narrative5Situation1.wav,audio/Narrative6Situation1.wav,2,5,5,2,,,,,,,,,,,,,,,,,,,,,,,,,,,,,,,,,,,,,,,
,,,,,66f02f508e8473f0362ed99e,2025-07-07_19h46.12.095,group3.4_multiperson,2023.2.2,Win32,60.24096386,686c2ebf0248f13bef9af11f,686c84c7524b1f5a8141bda3,,,,,,,,,,,,,,,,,,,,,,,,,,,,,3776.9615,2,audio/Narrative6Situation2.wav,3779.9707,,3779.9707,3808.474,"[[999,1],[999,98],[999,182],[999,259],[999,341],[999,426],[999,508],[999,592],[999,675],[999,760],[27.3,851],[12.6,931],[12.1,1008],[12.1,1091],[12.1,1175],[12.1,1259],[11.4,1344],[7.3,1443],[6.1,1526],[4.8,1608],[3.2,1699],[2.9,1782],[2.5,1865],[2,1941],[1.9,2024],[1.9,2107],[1.9,2196],[1.9,2274],[1.9,2361],[1.9,2441],[1.9,2523],[1.9,2607],[1.9,2690],[1.9,2778],[1.9,2856],[1.9,2940],[1.9,3023],[1.9,3107],[1.9,3190],[1.9,3273],[1.9,3356],[1.9,3440],[1.9,3523],[1.9,3606],[1.9,3689],[1.9,3772],[1.9,3856],[1.9,3939],[1.9,4023],[1.9,4106],[5.8,4190],[98.6,5022],[98.6,5105],[98.6,5188],[98.6,5271],[98.6,5355],[98.6,5438],[96.9,5529],[96.9,5605],[96.9,5688],[98.8,5860],[98,5943],[97.2,6027],[97.3,6105],[97.6,6190],[97.5,6277],[97.5,6354],[97.5,6440],[97.5,6520],[97.5,6603],[97.5,6687],[97.5,6770],[97.5,6853],[97.5,6937],[97.5,7020],[97.5,7103],[97.5,7186],[97.5,7270],[97.5,7353],[97.5,7436],[97.5,7519],[97.5,7603],[97.5,7687],[97.5,7769],[97.5,7852],[97.5,7936],[97.5,8019],[97.5,8102],[97.5,8185],[97.5,8268],[97.5,8352],[97.5,8435],[97.5,8518],[97.5,8602],[97.5,8685],[97.5,8768],[97.5,8857],[97.5,8938],[97.5,9018],[97.5,9107],[97.5,9184],[97.5,9268],[97.5,9351],[97.5,9435],[97.5,9523],[97.3,9601],[97.2,9685],[97,9767],[96.8,9855],[96.7,9934],[96.5,10023],[96.5,10100],[96.5,10184],[96.5,10268],[96.5,10350],[96.5,10434],[96.5,10517],[96.5,10601],[96.5,10684],[96.5,10767],[96.5,10851],[96.5,10933],[96.4,11019],[96.4,11099],[96.4,11183],[96.4,11266],[96.4,11350],[96.4,11433],[96.4,11516],[96.4,11599],[96.4,11683],[96.4,11766],[96.4,11849],[96.6,11940],[96.6,12017],[96.6,12098],[96.6,12181],[96.6,12265],[96.6,12348],[96.6,12432],[96.6,12515],[96.6,12598],[96.6,12682],[96.6,12765],[96.6,12848],[96.6,12931],[96.6,13015],[96.6,13098],[96.6,13181],[96.6,13266],[96.6,13348],[96.6,13431],[96.6,13514],[96.6,13597],[96.6,13681],[96.6,13764],[96.6,13847],[96.6,13933],[96.6,14014],[96.6,14097],[96.6,14181],[96.6,14264],[96.3,14347],[96.1,14430],[96.1,14514],[96.1,14597],[96.1,14681],[96.1,14763],[96.1,14853],[96.1,14931],[94.7,15020],[94.4,15104],[94.4,15180],[94.4,15263],[94.4,15346],[94.6,15431],[94.8,15513],[95,15603],[94.2,15681],[91.3,15770],[91.3,15846],[91.1,15935],[96,16019],[96.7,16096],[96.8,16179],[96.8,16262],[96.8,16345],[96.8,16429],[96.8,16512],[96.8,16595],[96.8,16678],[95.9,16762],[96,16851],[98.1,16930],[97,17016],[96.6,17095],[96.7,17179],[98.8,17261],[98.9,17345],[99,17428],[99,17511],[99,17594],[99,17678],[99,17761],[99,17844],[99,17927],[99,18010],[99,18100],[99,18177],[99,18260],[99,18344],[99,18427],[99,18510],[99,18594],[99,18677],[99,18760],[99,18843],[99,18926],[99,19010],[99,19093],[99,19177],[99,19260],[99,19344],[99,19432],[99,19510],[99,19593],[99,19677],[99,19759],[99,19842],[99,19927],[99,20009],[99,20092],[99,20181],[99,20259],[99,20342],[99,20426],[99,20509],[99,20592],[99,20675],[99,20761],[99,20841],[99,20931],[99,21009],[99,21092],[99,21175],[99,21258],[99,21346],[99,21424],[99,21508],[99,21595],[99,21675],[99,21758],[99,21841],[99,21924],[99,22008],[99,22092],[99,22180],[99,22257],[99,22341],[99,22424],[99,22507],[99,22591],[99,22674],[99,22758],[99,22841],[99,22924],[99,23007],[99,23091],[99,23174],[99,23257],[99,23341],[99,23423],[99,23507],[99,23590],[99,23672],[99,23756],[99,23839],[99,23923],[99,24007],[99,24090],[99,24172],[99,24259],[99,24339],[99,24423],[99,24511],[99,24589],[99,24678],[99,24755],[99,24839],[99,24922],[99,25005],[99,25089],[99,25172],[99,25254],[99,25337],[99,25421],[99,25506],[99,25588],[99,25671],[99,25754],[99,25838],[99,25921],[99,26004],[99,26087],[99,26173],[99,26254],[99,26338],[99,26421],[99,26504],[99,26587],[99,26670],[99,26754],[99,26837],[99,26920],[99,27004],[99,27086],[99,27170],[99,27254],[99,27336],[99,27420],[99,27504],[99,27587],[99,27670],[99,27753],[99,27842],[99,27920],[99,28003],[99,28086],[99,28169],[99,28252],[99,28335],[99,28420],[99,28502]]",3808.4745,3810.9717,96.77084287,2.1909,"[{""rating"":96.77084287007649,""responseTime"":2.1908999999759544}]",space,1.9484,,3810.972,Not at all,0,3810.9758,,,[],,0,2,2,2,1,audio/Narrative7Situation2.wav,audio/Narrative8Situation2.wav,audio/Narrative5Situation2.wav,audio/Narrative6Situation2.wav,3,3,3,3,,,,,,,,,,,,,,,,,,,,,,,,,,,,,,,,,,,,,,,
,,,,,66f02f508e8473f0362ed99e,2025-07-07_19h46.12.095,group3.4_multiperson,2023.2.2,Win32,60.24096386,686c2ebf0248f13bef9af11f,686c84c7524b1f5a8141bda3,,,,,,,,,,,,,,,,,,,,,,,,,,,,,3810.9764,2,audio/Narrative6Situation3.wav,3815.9847,,3815.985,3828.6072,"[[999,1],[999,82],[999,165],[999,248],[999,332],[999,415],[999,498],[999,581],[999,666],[999,748],[999,831],[999,914],[999,999],[999,1082],[999,1166],[999,1255],[999,1338],[999,1414],[999,1498],[999,1580],[999,1670],[999,1747],[999,1831],[999,1914],[999,1997],[999,2085],[48.6,2169],[48.6,2246],[48.6,2330],[48.6,2413],[48.6,2497],[48.6,2581],[48.6,2663],[48.6,2747],[48.6,2829],[48.6,2915],[48.6,3002],[48.6,3079],[50.7,3170],[50.9,3249],[50.9,3333],[50.7,3412],[50.6,3497],[50.6,3578],[50.6,3662],[50.6,3745],[50.6,3828],[50.6,3912],[50.6,3995],[50.6,4078],[50.6,4162],[48.8,4254],[48.5,4328],[43.3,4424],[42.9,4501],[42.9,4578],[42.9,4664],[45.6,4755],[46.8,4842],[47.7,4913],[49.5,5010],[49.7,5079],[49.7,5163],[49.7,5250],[49.7,5327],[49.7,5411],[49.7,5494],[49.7,5577],[49.7,5660],[49.7,5743],[49.7,5830],[49.7,5910],[49.7,5999],[49.7,6083],[49.7,6160],[49.7,6243],[45.4,6335],[26.1,6419],[17,6504],[16.5,6582],[16.4,6659],[16.4,6744],[16.4,6833],[78.6,7084],[79.1,7160],[79.1,7242],[78.7,7334],[78.7,7409],[78.7,7493],[79.9,7583],[81.9,7675],[85.6,7765],[86.1,7842],[87.5,7926],[87.7,8011],[89,8095],[89.9,8176],[87.6,8260],[86.4,8342],[86.4,8425],[90.1,8509],[90.5,8593],[90.5,8675],[90.5,8758],[90.5,8841],[90.5,8925],[90.5,9007],[90.5,9091],[90.9,9183],[91.1,9263],[91.6,9344],[91.7,9425],[89.7,9509],[90.4,9592],[90.6,9681],[90.7,9758],[90.7,9840],[90.7,9924],[90.7,10007],[90.7,10090],[91.7,10174],[91.7,10257],[91.3,10347],[89.2,10428],[88.9,10506],[88.9,10589],[88.9,10672],[88.9,10756],[88.9,10839],[89,10928],[89.1,11010],[90,11097],[91.6,11172],[91.6,11256],[91.6,11339],[91.6,11422],[92,11512],[92,11589],[92.1,11673],[92.2,11760],[92.2,11839],[92.2,11927],[92.2,12005],[92.2,12088],[92.2,12172],[92.2,12255],[92.2,12338],[92.2,12421],[92.2,12504],[92.2,12590]]",3828.608,3829.9571,91.97916985,1.1575,"[{""rating"":91.97916984558105,""responseTime"":1.1575000000002547}]",space,0.8033,,3829.9575,Not at all,0,3829.9649,,,[],,0,3,3,3,1,audio/Narrative7Situation3.wav,audio/Narrative8Situation3.wav,audio/Narrative5Situation3.wav,audio/Narrative6Situation3.wav,8,4,3,5,,,,,,,,,,,,,,,,,,,,,,,,,,,,,,,,,,,,,,,
,,,,,66f02f508e8473f0362ed99e,2025-07-07_19h46.12.095,group3.4_multiperson,2023.2.2,Win32,60.24096386,686c2ebf0248f13bef9af11f,686c84c7524b1f5a8141bda3,,,,,,,,,,,,,,,,,,,,,,,,,,,,,3829.9659,2,audio/Narrative6Situation4.wav,3831.9714,,3831.9717,3844.5953,"[[53.5,2769],[53.5,2845],[53.5,2929],[53.4,3013],[53.3,3095],[52.3,3430],[51.7,3513],[50.9,3600],[50.8,3679],[50.7,3762],[50.7,3845],[50.7,3928],[50.7,4012],[50.7,4100],[50.7,4178],[50.7,4261],[50.7,4344],[50.7,4428],[50.8,4512],[51,4595],[62.1,4766],[70,4851],[76.3,4933],[82.9,5016],[84.8,5095],[87.2,5180],[88.5,5266],[89.7,5345],[91.4,5433],[92.6,5526],[93.6,5599],[93.8,5677],[94.1,5762],[94.2,5848],[94.2,5927],[94.2,6010],[94.2,6094],[94.2,6177],[94.2,6260],[94.2,6343],[94.2,6427],[94.2,6510],[94.2,6593],[94.2,6677],[94.2,6760],[94.2,6843],[94.2,6926],[94.2,7009],[94.2,7093],[94.2,7176],[94.2,7261],[94.2,7343],[94.2,7427],[94.2,7510],[94.2,7592],[94.5,7682],[95.1,7761],[95.2,7843],[94.1,7927],[93.4,8008],[93.4,8091],[93.4,8175],[93.4,8258],[93.3,8343],[93.3,8425],[93.9,8508],[91.9,8598],[90.2,8675],[90,8758],[90,8841],[90,8924],[90,9008],[90,9091],[90.1,9174],[90.4,9257],[90.9,9342],[91.6,9426],[92.7,9513],[92.9,9591],[93.1,9675],[93.2,9757],[93.5,9842],[93.8,9925],[94.2,10009],[94.7,10090],[95.2,10175],[95.8,10257],[95.8,10340],[95.8,10423],[95.8,10506],[95.8,10589],[95.8,10674],[95.8,10756],[95.8,10839],[95.8,10922],[96,11008],[96.1,11090],[96.4,11172],[96.7,11257],[96.7,11339],[96.7,11423],[96.7,11506],[96.7,11589],[96.7,11672],[96.7,11755],[96.7,11839],[96.7,11922],[96.7,12005],[96.7,12095],[96.7,12172],[96.7,12255],[96.7,12339],[96.7,12421],[96.7,12505],[96.7,12590]]",3844.5957,3846.7091,90.41666985,1.987,"[{""rating"":96.66666984558105,""responseTime"":0.6879000000353699},{""rating"":90.41666984558105,""responseTime"":1.9869999999996253}]",space,1.5675,,3846.7095,Not at all,0,3846.7152,,,[],,0,4,4,4,1,audio/Narrative7Situation4.wav,audio/Narrative8Situation4.wav,audio/Narrative5Situation4.wav,audio/Narrative6Situation4.wav,3,3,1,2,,,,,,,,,,,,,,,,,,,,,,,,,,,,,,,,,,,,,,,
,,,,,66f02f508e8473f0362ed99e,2025-07-07_19h46.12.095,group3.4_multiperson,2023.2.2,Win32,60.24096386,686c2ebf0248f13bef9af11f,686c84c7524b1f5a8141bda3,,,,,,,,,,,,,,,,,,,,,,,,,,,,,3846.7163,2,audio/Narrative6Situation5.wav,3848.7237,,3848.7239,3856.6677,"[[999,2],[999,99],[999,184],[999,267],[52.1,351],[52.1,432],[52.1,515],[52.1,604],[52.1,685],[52.1,765],[52.1,849],[52.1,937],[52.1,1015],[52,1098],[50.8,1187],[50.1,1265],[49.8,1352],[49.8,1431],[49.8,1515],[49.8,1597],[49.8,1681],[49.8,1764],[49.8,1847],[49.8,1935],[49.8,2014],[49.8,2097],[49.8,2181],[49.8,2264],[49.8,2347],[49.8,2430],[49.8,2513],[49.8,2597],[49.8,2680],[49.8,2768],[49.8,2847],[49.8,2930],[49.8,3013],[49.8,3096],[49.8,3180],[49.8,3263],[49.8,3346],[49.8,3429],[49.8,3513],[49.8,3596],[49.8,3680],[49.8,3764],[50.2,3848],[50.9,3936],[52.9,4018],[57.4,4102],[62.6,4185],[66.2,4268],[69.9,4352],[71.7,4435],[74.1,4519],[75.9,4601],[77.4,4685],[79.9,4769],[80.2,4851],[80.4,4928],[80.5,5011],[80.5,5095],[80.3,5187],[80.4,5263],[80.7,5345],[80.7,5428],[80.7,5512],[82,5597],[85.3,5687],[87.1,5774],[90.8,5852],[94,5928],[96.7,6011],[97.9,6094],[97.9,6177],[97.9,6261],[97.9,6344],[97.9,6428],[97.9,6511],[97.9,6594],[97.9,6677],[97.9,6760],[97.9,6843],[97.9,6927],[97.9,7010],[97.9,7093],[97.9,7177],[97.9,7260],[97.9,7343],[97.9,7426],[97.9,7510],[97.9,7593],[97.9,7676],[97.9,7760],[97.9,7843],[97.9,7926]]",3856.6681,3858.8065,98.02083969,0.9869,"[{""rating"":98.02083969116211,""responseTime"":0.9868999999762309}]",space,1.6018,,3858.8067,Definitely yes,100,3858.8164,,,[],,0,5,5,5,1,audio/Narrative7Situation5.wav,audio/Narrative8Situation5.wav,audio/Narrative5Situation5.wav,audio/Narrative6Situation5.wav,5,2,5,2,,,,,,,,,,,,,,,,,,,,,,,,,,,,,,,,,,,,,,,
,,,,,66f02f508e8473f0362ed99e,2025-07-07_19h46.12.095,group3.4_multiperson,2023.2.2,Win32,60.24096386,686c2ebf0248f13bef9af11f,686c84c7524b1f5a8141bda3,,,,,,,,,,,,,,,,,,,,,,,,,,,,,3858.8175,2,audio/Narrative6Situation6.wav,3860.8305,,3860.8306,3871.9218,"[[97.3,5511],[97,5597],[97,5678],[96.8,5761],[96.8,5850],[96.6,5927],[96.5,6010],[96.5,6094],[96.5,6178],[96.5,6261],[94.1,6353],[93.5,6431],[93.5,6511],[94.5,6594],[94.5,6677],[94.5,6760],[94.5,6844],[94.6,6935],[94.7,7010],[95.3,7094],[96,7184],[96.3,7268],[96.3,7347],[96.3,7426],[96.3,7509],[96.3,7594],[96.3,7676],[96.3,7760],[96.3,7844],[96.3,7925],[96.3,8009],[96.3,8092],[96.3,8175],[96.3,8259],[96.3,8342],[96.3,8425],[96.3,8508],[96.3,8592],[96.3,8675],[96.3,8758],[96.3,8842],[96.3,8925],[96.3,9008],[96.3,9092],[96.3,9175],[96.3,9259],[96.3,9342],[96.3,9425],[96.3,9508],[96.3,9592],[96.3,9675],[96.3,9764],[96.3,9841],[96.3,9924],[96.3,10008],[96.3,10091],[96.3,10174],[96.3,10258],[96.3,10341],[96.3,10426],[96.3,10507],[96.3,10591],[96.3,10675],[96.3,10757],[96.3,10840],[96.3,10923],[96.3,11007],[96.3,11090]]",3871.9223,3875.3857,96.875,3.1219,"[{""rating"":96.875,""responseTime"":3.121900000036021}]",space,2.9174,,3875.386,Partially,50,3879.6185,50.62499841,3.0699,"[{""rating"":50.62499841054281,""responseTime"":3.06989999997586}]",space,0,6,6,6,1,audio/Narrative7Situation6.wav,audio/Narrative8Situation6.wav,audio/Narrative5Situation6.wav,audio/Narrative6Situation6.wav,3,2,3,2,,,3.6835,,,,,,,,,,,,,,,,,,,,,,,,,,,,,,,,,,,,
,,,,,66f02f508e8473f0362ed99e,2025-07-07_19h46.12.095,group3.4_multiperson,2023.2.2,Win32,60.24096386,686c2ebf0248f13bef9af11f,686c84c7524b1f5a8141bda3,,,,,,,,,,,,,,,,,,,,,,,,,,,,,3879.6196,2,audio/Narrative6Situation7.wav,3884.6284,,3884.629,3909.4901,"[[50.5,1431],[49.9,1522],[49.9,1596],[49.9,1679],[49.9,1763],[49.9,1846],[49.9,1929],[49.9,2012],[49.9,2096],[49.9,2180],[49.9,2263],[49.9,2346],[49.9,2431],[50.5,2514],[54.1,2599],[55.9,2684],[57.5,2768],[57.6,2845],[57.6,2928],[57.2,3018],[55.8,3102],[54.1,3180],[51.1,3263],[45.5,3349],[44.4,3428],[46.9,3519],[46.9,3596],[33.3,4270],[27.7,4349],[20.6,4430],[20.1,4516],[15.8,4602],[15.2,4683],[14.8,4762],[13.1,4850],[12.9,4928],[12.9,5010],[12.9,5093],[12.9,5180],[12.9,5259],[12.9,5343],[12.9,5427],[12.9,5513],[12.9,5595],[12.9,5677],[12.6,5761],[12.3,5844],[18,5933],[20.7,6014],[20.6,6094],[17.3,6182],[16.8,6260],[17.1,6349],[18.2,6432],[19.2,6511],[19.6,6597],[19.6,6676],[19.6,6759],[19.6,6842],[19.6,6926],[19.6,7008],[22.5,7099],[42.6,7182],[53.9,7263],[99.9,8510],[100,8591],[100,8674],[100,8757],[100,8841],[100,8924],[99.7,9010],[98.9,9097],[98.5,9175],[98.1,9257],[98,9340],[98,9423],[98,9507],[98,9591],[98,9673],[98,9756],[98,9839],[98,9922],[98,10006],[98,10089],[98,10173],[98,10256],[98,10339],[98,10422],[98,10505],[98,10589],[98,10672],[98,10755],[97.6,10845],[97.5,10923],[97.5,11005],[97.5,11088],[95.7,11179],[94.2,11257],[94.2,11338],[96.7,11429],[96.8,11504],[94.4,11594],[94.2,11672],[95.3,12340],[96.4,12422],[96.6,12508],[96.6,12587],[96.6,12671],[96.6,12754],[96.6,12838],[96.6,12920],[96.6,13004],[96.6,13088],[96.6,13171],[96.6,13253],[96.6,13337],[96.6,13420],[96.6,13503],[96.6,13586],[96.6,13670],[96.6,13753],[96.6,13837],[96.6,13920],[96.6,14003],[96.6,14086],[96.6,14170],[96.6,14254],[96.6,14336],[96.6,14419],[96.6,14503],[96.6,14586],[96.6,14669],[96.6,14753],[96.6,14836],[96.6,14920],[96.6,15002],[96.6,15085],[96.6,15168],[96.6,15252],[96.6,15335],[96.6,15418],[96.6,15501],[96.6,15585],[96.6,15668],[96.6,15752],[96.6,15835],[96.6,15918],[96.6,16001],[96.6,16085],[96.6,16169],[96.6,16251],[96.6,16334],[96.6,16418],[96.6,16501],[96.6,16585],[96.6,16673],[96.7,16752],[96.7,16834],[96.7,16917],[96.7,17000],[96.7,17089],[96.7,17167],[96.7,17250],[96.7,17333],[96.7,17416],[96.7,17499],[96.7,17583],[96.7,17666],[96.7,17750],[96.7,17833],[96.7,17922],[96.7,17999],[96.7,18084],[96.7,18166],[96.7,18249],[96.7,18333],[96.7,18416],[96.8,18499],[94.6,18589],[94.1,18666],[94.1,18749],[94.1,18833],[94.5,18915],[92.8,19008],[92.6,19082],[95.1,19168],[95.7,19252],[95.7,19332],[94.2,19416],[94.7,19501],[97.9,19588],[97.4,19668],[95.7,19754],[95.8,19833],[98.1,19926],[98,20000],[95.4,20091],[95.7,20166],[98.3,20253],[98.4,20332],[98,20415],[98,20498],[100,20596],[100,20664],[99.6,20748],[99.4,20830],[99.8,20915],[99.8,20997],[99.8,21081],[99.8,21163],[99.8,21247],[99.8,21331],[99.8,21413],[99.8,21497],[99.8,21581],[99.8,21663],[99.3,21748],[97.6,21830],[97.6,21913],[97.6,21996],[97.6,22079],[97.6,22163],[97.6,22246],[97.6,22329],[97.6,22412],[97.4,22496],[96.4,22579],[97.5,22664],[97.9,22746],[98,22829],[97.4,22912],[97.3,22996],[97.6,23078],[97.7,23162],[97.6,23246],[97.4,23329],[97.3,23411],[97.3,23495],[97.3,23578],[97.3,23661],[97.3,23745],[97.3,23828],[97.3,23911],[97.3,23995],[97.3,24078],[97.3,24161],[97.3,24245],[97.3,24328],[97.3,24411],[97.3,24494],[97.3,24577],[97.3,24660],[97.3,24744],[97.3,24827]]",3909.4904,3911.5625,97.2916762,1.338,"[{""rating"":97.29167620340984,""responseTime"":1.3380000000001928}]",space,1.5344,,3911.5627,Not at all,0,3911.5717,,,[],,0,7,7,7,1,audio/Narrative7Situation7.wav,audio/Narrative8Situation7.wav,audio/Narrative5Situation7.wav,audio/Narrative6Situation7.wav,5,3,4,5,,,,,,,,,,,,,,,,,,,,,,,,,,,,,,,,,,,,,,,
,,,,,66f02f508e8473f0362ed99e,2025-07-07_19h46.12.095,group3.4_multiperson,2023.2.2,Win32,60.24096386,686c2ebf0248f13bef9af11f,686c84c7524b1f5a8141bda3,,,,,,,,,,,,,,,,,,,,,,,,,,,,,3911.573,2,audio/Narrative6Situation8.wav,3916.5846,,3916.5848,3923.4283,"[[999,1],[999,99],[999,183],[999,266],[999,349],[999,439],[999,515],[999,599],[999,682],[999,766],[999,850],[47.3,933],[47.6,1016],[48.2,1109],[48.3,1182],[48.9,1268],[49.5,1350],[49.5,1431],[49.5,1515],[49.5,1598],[49.5,1687],[49.5,1764],[49.5,1847],[49.5,1936],[49.5,2014],[49.5,2096],[49.5,2180],[49.5,2264],[49.5,2347],[49.5,2431],[42.3,2521],[32.1,2598],[22.8,2681],[17.7,2768],[15.5,2853],[15.4,2931],[15.4,3013],[15.4,3097],[12.1,3186],[10.5,3263],[10.5,3346],[10.5,3429],[10.5,3512],[10.5,3596],[7.4,3686],[6.9,3764],[6.9,3846],[6.9,3929],[7.7,4018],[9.8,4097],[10.1,4180],[10.2,4262],[10.6,4350],[10.9,4434],[9,4513],[8.1,4595],[7.6,4680],[7.5,4761],[7.5,4845],[7.5,4928],[7.5,5011],[7.5,5095],[7.5,5178],[7.5,5267],[5.7,5346],[4.9,5435],[4.2,5515],[3.1,5600],[3,5678],[3,5761],[2.4,5850],[2.4,5927],[2.4,6010],[2.4,6094],[2.4,6177],[2.4,6260],[2.4,6344],[2.4,6427],[2.4,6510],[2.4,6593],[2.4,6676],[2.4,6765],[2.4,6843]]",3923.4291,3926.0107,2.395832539,0.9597,"[{""rating"":2.3958325386047363,""responseTime"":0.9596999999880609}]",space,2.0397,,3926.0109,Definitely yes,100,3926.0203,,,[],,0,8,8,8,1,audio/Narrative7Situation8.wav,audio/Narrative8Situation8.wav,audio/Narrative5Situation8.wav,audio/Narrative6Situation8.wav,2,3,3,5,,,,,,,,,,,,,,,,,,,,,,,,,,,,,,,,,,,,,,,
,,,,,66f02f508e8473f0362ed99e,2025-07-07_19h46.12.095,group3.4_multiperson,2023.2.2,Win32,60.24096386,686c2ebf0248f13bef9af11f,686c84c7524b1f5a8141bda3,,,,,,,,,,,,,,,,,,,,,,,,,,,,,3926.0212,2,audio/Narrative6Situation9.wav,3930.0236,,3930.0239,3939.9817,"[[18.1,1017],[43.5,1289],[43.6,1365],[38.1,1459],[25.1,1548],[19.9,1639],[17.3,1725],[14.4,1815],[10.7,1902],[6.8,1982],[4.5,2088],[4,2165],[3.6,2248],[3.3,2336],[3.3,2413],[3.3,2497],[3.3,2580],[3.3,2663],[3.3,2746],[3.3,2829],[3.3,2914],[3.3,2996],[3.3,3080],[3.3,3163],[3.3,3246],[3.3,3329],[3.3,3413],[3.3,3496],[3.3,3581],[3.3,3662],[3.3,3746],[3.3,3829],[3.3,3918],[3.3,3996],[3.3,4078],[3.3,4162],[3.3,4245],[3.3,4328],[3.3,4412],[3.3,4495],[3.3,4578],[3.3,4662],[3.3,4746],[3.3,4828],[3.3,4912],[3.3,4994],[3.3,5077],[3.3,5161],[3.3,5244],[3.3,5328],[3.3,5412],[3.3,5495],[3.3,5578],[3.3,5661],[3.3,5744],[3.3,5828],[3.3,5911],[3.3,5994],[3.3,6077],[3.3,6160],[3.3,6244],[3.3,6333],[3.3,6410],[3.3,6493],[3.2,6578],[3.2,6666],[3.2,6745],[3.3,6833],[3.3,6910],[3.3,6993],[3.4,7077],[3.4,7160],[3.4,7243],[3.4,7325],[3.4,7409],[3.4,7497],[3.4,7577],[3.4,7659],[3.4,7742],[3.4,7829],[3.4,7910],[3.4,7998],[3.4,8077],[3.4,8159],[3.4,8242],[3.4,8326],[3.4,8409],[3.4,8492],[3.4,8575],[4.4,8660],[6,8750],[6.1,8825],[6.1,8910],[5,8994],[4.1,9081],[1.7,9163],[1.3,9247],[1.3,9324],[1.3,9407],[1.3,9492],[1.3,9576],[1.4,9659],[1.4,9741],[1.4,9824],[1.4,9907]]",3939.9823,3941.3313,1.354165872,0.8954,"[{""rating"":1.3541658719380678,""responseTime"":0.8954000000358064}]",space,0.807,,3941.3318,Partially,50,3941.3389,,,[],,0,9,9,9,1,audio/Narrative7Situation9.wav,audio/Narrative8Situation9.wav,audio/Narrative5Situation9.wav,audio/Narrative6Situation9.wav,2,3,3,4,,,,,,,,,,,,,,,,,,,,,,,,,,,,,,,,,,,,,,,
,,,,,66f02f508e8473f0362ed99e,2025-07-07_19h46.12.095,group3.4_multiperson,2023.2.2,Win32,60.24096386,686c2ebf0248f13bef9af11f,686c84c7524b1f5a8141bda3,,,,,,,,,,,,,,,,,,,,,,,,,,,,,3941.3397,2,audio/Narrative5Situation1.wav,3946.3438,space,3946.3441,3959.6386,"[[1.1,1105],[1,1183],[0.7,1267],[0.4,1358],[0.3,1431],[0.3,1514],[0.3,1597],[0.3,1681],[0.4,1764],[0.4,1847],[0.4,1931],[0.4,2013],[0.4,2097],[0.4,2180],[0.4,2264],[0.4,2347],[0.4,2430],[0.4,2513],[0.4,2597],[0.4,2680],[0.4,2763],[0.4,2845],[0.4,2929],[0.4,3012],[0.4,3101],[1.9,3185],[2.4,3266],[2.4,3345],[2.4,3430],[2.3,3520],[4.7,3598],[5.6,3682],[5.7,3764],[4.1,3867],[3.8,3949],[3.8,4028],[3.8,4112],[3.8,4196],[3.8,4279],[3.8,4362],[3.8,4444],[3.8,4528],[3.8,4612],[3.8,4694],[3.8,4778],[3.8,4861],[3.8,4945],[3.8,5033],[3.8,5111],[3.8,5194],[3.8,5277],[3.8,5361],[3.8,5444],[6.7,5533],[6.8,5610],[7,5694],[7,5777],[7,5860],[6.8,5945],[6.6,6027],[5.6,6110],[5.5,6193],[5.5,6276],[5.5,6360],[5.5,6443],[5.5,6526],[5.5,6610],[5.5,6693],[5.5,6776],[5.5,6863],[5.5,6944],[5.5,7025],[5.5,7108],[5.5,7192],[5.5,7276],[5.5,7358],[5.5,7442],[5.5,7527],[5.5,7608],[5.5,7693],[5.5,7775],[5.5,7858],[5.5,7942],[5.5,8025],[5.5,8108],[5.5,8191],[5.5,8274],[5.5,8358],[5.5,8441],[5.5,8524],[5.5,8607],[5.5,8691],[5.5,8774],[5.5,8858],[5.5,8941],[5.5,9024],[5.5,9107],[5.5,9195],[5.5,9274],[5.5,9357],[5.6,9441],[2.8,9525],[2.6,9609],[2.6,9690],[2.6,9773],[2.6,9857],[2.6,9940],[2.6,10023],[2.6,10107],[2.6,10191],[2.6,10274],[2.6,10361],[2.6,10440],[2.6,10523],[2.6,10608],[2.6,10690],[2.6,10773],[2.6,10859],[2.6,10940],[2.6,11022],[2.6,11106],[2.6,11189],[2.6,11272],[2.6,11356],[2.6,11439],[2.6,11523],[2.6,11606],[2.6,11689],[2.6,11772],[2.6,11858],[2.6,11939],[2.6,12022],[2.6,12106],[2.6,12189],[2.6,12273],[2.6,12354],[2.6,12438],[2.6,12522],[2.6,12605],[2.6,12688],[2.6,12771],[2.6,12855],[2.6,12938],[2.6,13021],[2.6,13104],[2.6,13188],[2.6,13271]]",3959.6392,3961.2323,2.708335718,1.3017,"[{""rating"":2.7083357175191223,""responseTime"":1.301699999988159}]",space,1.0518,,3961.2325,Definitely yes,100,3961.2404,,,[],,0,10,10,10,1,audio/Narrative8Situation1.wav,audio/Narrative7Situation1.wav,audio/Narrative6Situation1.wav,audio/Narrative5Situation1.wav,5,2,2,5,4.7944,,,,,,,,,,,,,,,,,,,,,,,,,,,,,,,,,,,,,,
,,,,,66f02f508e8473f0362ed99e,2025-07-07_19h46.12.095,group3.4_multiperson,2023.2.2,Win32,60.24096386,686c2ebf0248f13bef9af11f,686c84c7524b1f5a8141bda3,,,,,,,,,,,,,,,,,,,,,,,,,,,,,3961.2415,2,audio/Narrative5Situation2.wav,3964.2454,,3964.2458,3993.7218,"[[2.8,1271],[0.9,1687],[1.5,1765],[1.6,1847],[1.6,1931],[1.6,2018],[1.6,2097],[1.6,2180],[1.6,2263],[1.6,2350],[1.6,2430],[1.6,2513],[1.6,2596],[1.6,2679],[1.6,2763],[1.6,2847],[1.6,2930],[1.6,3013],[1.6,3096],[1.6,3179],[1.6,3262],[1.6,3346],[1.6,3429],[1.6,3516],[1.6,3595],[1.6,3679],[1.6,3762],[1.6,3845],[1.6,3928],[1.6,4012],[1.6,4096],[1.6,4179],[1.6,4262],[1.6,4345],[1.6,4432],[1.6,4512],[1.6,4596],[1.6,4679],[2.7,4763],[3,4845],[2.6,4935],[2.5,5011],[2.5,5094],[2.5,5177],[2.5,5261],[2.7,5346],[2.7,5427],[2.7,5510],[2.7,5594],[2.7,5677],[2.7,5761],[2.7,5844],[2.7,5933],[2.7,6027],[2.7,6110],[2.7,6196],[2.7,6277],[2.7,6360],[2.7,6443],[2.7,6527],[2.7,6610],[2.7,6693],[2.7,6783],[2.7,6865],[25.4,6950],[61.9,7032],[75.6,7110],[82.2,7199],[84.5,7276],[87.6,7366],[92.2,7450],[93.4,7531],[95.9,7610],[97.4,7699],[98.9,7776],[100,7865],[99.4,7944],[99.4,8025],[99.4,8108],[99.4,8192],[99.4,8275],[99.4,8358],[99.4,8442],[99.4,8524],[99.4,8608],[94.4,8698],[94.3,8776],[94.3,8858],[96,8943],[96.7,9030],[94.2,9115],[93.9,9192],[94.2,9275],[94.6,9357],[93.1,9447],[92.7,9524],[94.4,9607],[94.6,9690],[92.2,9775],[91.9,9857],[92.6,9941],[93,10024],[93,10112],[93,10195],[93.1,10273],[93.3,10356],[93.3,10446],[93.3,10523],[92.3,10607],[92.1,10690],[90.6,10779],[89.2,10858],[89.1,10939],[89.1,11030],[89.1,11106],[89.1,11189],[89.1,11273],[89.5,11357],[90.6,11452],[91.3,11529],[91.4,11611],[91.5,11689],[89.9,11774],[87.5,11857],[87.4,11938],[90.2,12025],[90.4,12108],[90.4,12188],[90.4,12272],[90.5,12355],[88.7,12439],[88,12521],[89.6,12611],[89.9,12688],[87.5,12777],[86.9,12856],[88.3,12945],[88.6,13021],[88.6,13106],[87.8,13193],[89.7,13271],[91.9,13356],[92.1,13443],[92.3,13521],[92.6,13604],[90.6,13696],[90.4,13771],[90.5,13855],[89.3,13939],[88,14021],[88.6,14106],[89.3,14187],[88.6,14272],[88.1,14355],[88.7,14438],[90.5,14520],[91.4,14611],[92.4,14691],[94,14770],[94.3,14853],[94.9,14943],[95.1,15020],[95.1,15104],[95.1,15189],[95.1,15276],[95.1,15352],[95.1,15436],[94.2,15522],[93.9,15602],[95.1,15686],[95.3,15769],[95.3,15852],[95.3,15941],[95.3,16018],[95.3,16102],[95.3,16185],[95.3,16268],[95.3,16351],[95.3,16435],[95.3,16519],[95.3,16601],[95.3,16685],[95.3,16769],[95.3,16851],[95.3,16935],[95.3,17018],[95.3,17101],[95.3,17185],[95.3,17269],[95.3,17351],[95.3,17434],[95.3,17517],[95.3,17601],[95.3,17684],[95.3,17767],[95.3,17850],[95.3,17933],[95.3,18018],[95.3,18100],[95.3,18184],[95.3,18267],[95.3,18350],[95.3,18434],[95.3,18516],[95.3,18600],[95.3,18684],[95.3,18766],[95.3,18850],[94.5,18941],[94.2,19016],[92.7,19106],[92.7,19182],[92.7,19266],[92.7,19352],[92.7,19434],[92.7,19516],[92.9,19599],[92.9,19682],[92.9,19765],[93.2,19856],[94.2,19938],[95,20017],[95.1,20098],[95.3,20181],[95.5,20265],[95,20355],[94.4,20434],[93.9,20515],[93.6,20598],[93.6,20681],[93.6,20765],[93.6,20848],[93.6,20931],[93.6,21015],[93.6,21098],[93.6,21181],[93.6,21264],[93.6,21347],[93.6,21431],[93.6,21514],[93.6,21597],[93.6,21686],[93.6,21764],[93.6,21848],[93.6,21930],[93.6,22014],[93.6,22097],[93.6,22181],[93.6,22264],[93.6,22346],[93.6,22430],[93.6,22513],[93.6,22596],[93.6,22685],[93.6,22763],[93.6,22846],[93.6,22930],[93.6,23019],[93.6,23097],[93.6,23179],[93.6,23263],[93.6,23346],[93.6,23430],[93.6,23513],[93.6,23596],[93.6,23679],[93.6,23762],[93.6,23846],[93.6,23929],[93.6,24013],[93.6,24096],[93.6,24179],[93.6,24262],[93.6,24345],[93.6,24429],[93.6,24512],[93.6,24596],[93.6,24678],[93.6,24761],[93.6,24844],[93.6,24927],[93.6,25011],[93.6,25094],[93.6,25178],[93.6,25261],[93.6,25344],[93.6,25428],[93.6,25510],[93.6,25595],[93.6,25677],[93.6,25760],[93.6,25845],[93.6,25927],[93.8,26012],[94,26095],[94,26179],[94,26261],[98.9,26354],[99.5,26428],[99.5,26510],[99,26594],[97.8,26683],[97.4,26760],[97.3,26849],[97,26927],[96.8,27014],[96.8,27093],[96.8,27176],[96.8,27259],[96.8,27343],[96.8,27426],[96.8,27509],[96.8,27593],[96.8,27676],[96.8,27765],[96.8,27842],[96.8,27929],[96.8,28009],[96.8,28092],[96.8,28176],[96.8,28259],[96.8,28342],[96.8,28425],[96.8,28509],[96.8,28592],[96.8,28675],[96.8,28761],[96.8,28841],[96.8,28928],[96.8,29008],[96.8,29098],[96.8,29175],[96.8,29259],[96.8,29342],[96.8,29425]]",3993.7224,3997.7344,96.77084287,1.3588,"[{""rating"":96.77084287007649,""responseTime"":1.3588000000117972}]",space,3.4668,,3997.7346,Partially,50,3997.7438,,,[],,0,11,11,11,1,audio/Narrative8Situation2.wav,audio/Narrative7Situation2.wav,audio/Narrative6Situation2.wav,audio/Narrative5Situation2.wav,3,3,3,3,,,,,,,,,,,,,,,,,,,,,,,,,,,,,,,,,,,,,,,
,,,,,66f02f508e8473f0362ed99e,2025-07-07_19h46.12.095,group3.4_multiperson,2023.2.2,Win32,60.24096386,686c2ebf0248f13bef9af11f,686c84c7524b1f5a8141bda3,,,,,,,,,,,,,,,,,,,,,,,,,,,,,3997.7447,2,audio/Narrative5Situation3.wav,4000.7488,,4000.7489,4014.676,"[[22.1,1918],[19.7,2003],[19.7,2080],[19.7,2163],[14.7,2253],[7.6,2337],[7.4,2416],[7.4,2497],[7.4,2580],[7.4,2663],[21.6,2753],[32,2832],[48.8,2918],[67.7,3000],[81.3,3087],[85.9,3163],[86.3,3247],[83.3,3833],[86.1,3919],[86.3,3995],[86.3,4079],[86.3,4162],[86.3,4245],[86.3,4328],[86.3,4411],[91.8,4499],[95.8,4585],[97.1,4663],[99.8,4751],[100,4827],[100,4914],[100,4995],[100,5078],[100,5162],[100,5244],[100,5327],[100,5411],[100,5494],[100,5578],[100,5661],[100,5744],[100,5828],[100,5910],[100,5994],[100,6077],[100,6160],[100,6243],[100,6327],[100,6414],[100,6499],[100,6578],[100,6660],[100,6744],[100,6827],[100,6910],[100,6994],[100,7076],[100,7159],[100,7242],[100,7326],[100,7409],[100,7492],[100,7576],[100,7659],[100,7744],[100,7828],[100,7909],[100,7993],[100,8075],[100,8159],[100,8242],[100,8325],[100,8408],[100,8492],[100,8575],[100,8658],[100,8742],[100,8825],[100,8908],[100,8992],[100,9075],[100,9158],[100,9247],[100,9325],[100,9408],[100,9491],[100,9575],[100,9657],[100,9740],[100,9824],[100,9908],[100,9990],[100,10074],[100,10158],[100,10241],[100,10324],[100,10407],[100,10490],[100,10574],[100,10663],[100,10740],[100,10823],[100,10913],[100,10990],[100,11080],[100,11156],[100,11240],[100,11323],[99.6,11414],[99.2,11496],[98.3,11577],[98,11655],[98,11740],[98,11828],[97.7,11910],[97.5,11989],[100,12083],[100,12156],[98.1,12246],[97.2,12331],[97.2,12406],[97.2,12489],[97.1,12573],[96.5,12656],[99,12743],[99.4,12821],[98.4,12909],[98,12988],[100,13082],[100,13165],[97.5,13257],[97.5,13338],[99.5,13429],[99.3,13506],[99.1,13588],[99.2,13678],[99.9,13754],[99.9,13845],[98.5,13926]]",4014.6764,4015.827,98.33334287,0.8679,"[{""rating"":98.33334287007649,""responseTime"":0.867899999976089}]",space,0.6088,,4015.8273,Definitely yes,100,4015.8373,,,[],,0,12,12,12,1,audio/Narrative8Situation3.wav,audio/Narrative7Situation3.wav,audio/Narrative6Situation3.wav,audio/Narrative5Situation3.wav,4,8,5,3,,,,,,,,,,,,,,,,,,,,,,,,,,,,,,,,,,,,,,,
,,,,,66f02f508e8473f0362ed99e,2025-07-07_19h46.12.095,group3.4_multiperson,2023.2.2,Win32,60.24096386,686c2ebf0248f13bef9af11f,686c84c7524b1f5a8141bda3,,,,,,,,,,,,,,,,,,,,,,,,,,,,,4015.8382,2,audio/Narrative5Situation4.wav,4016.8423,,4016.8424,4037.235,"[[78.2,99],[78.2,176],[78.2,259],[78.2,342],[78.2,425],[78.2,510],[72.9,596],[60.3,684],[56.7,764],[54.3,848],[51.8,931],[51.7,1016],[51.7,1097],[51.4,1184],[50.7,1266],[50.6,1349],[50.6,1431],[50.6,1514],[50.6,1597],[50.6,1681],[50.6,1764],[50.6,1848],[50.6,1930],[50.6,2014],[50.6,2096],[50.6,2181],[50.6,2263],[50.6,2347],[50.6,2429],[50.6,2513],[50.6,2596],[50.6,2679],[50.6,2763],[50.6,2846],[50.6,2929],[50.6,3013],[50.6,3097],[50.6,3178],[50.6,3264],[50.6,3345],[50.6,3444],[50.6,3523],[50.6,3606],[50.6,3689],[50.6,3772],[50.6,3855],[50.6,3939],[50.6,4022],[50.6,4105],[50.6,4189],[50.6,4272],[50.6,4355],[50.6,4438],[50.6,4525],[50.6,4605],[50.6,4688],[52.1,4779],[57.1,4859],[57.5,4939],[57.5,5021],[61.1,5107],[69,5194],[75.9,5276],[78.6,5361],[78.7,5439],[75.8,5527],[75.6,5605],[75.6,5687],[75.6,5771],[64.9,5861],[0.2,7780],[2.2,7867],[2.2,7953],[1.8,8035],[1.8,8118],[1.8,8202],[1.8,8289],[1.8,8375],[2.2,8459],[5.2,8546],[5.5,8619],[5,8711],[4.5,8788],[14.4,8870],[73.4,8962],[95.6,10292],[95.2,10367],[94.6,10452],[94.2,10539],[94.2,10617],[94.2,10700],[94.2,10783],[94.2,10866],[94.2,10950],[94.2,11033],[94.2,11116],[94.2,11200],[94.5,11284],[94.5,11366],[94.5,11449],[94.5,11532],[94.5,11616],[94.7,11701],[94.8,11788],[94.8,11866],[94.9,11954],[95.5,12039],[95.8,12121],[95.8,12199],[95.8,12285],[95.8,12366],[95.8,12449],[95.8,12532],[95.8,12615],[95.8,12703],[95.8,12781],[95.8,12866],[95.8,12948],[95.8,13032],[95.8,13114],[95.8,13198],[95.8,13281],[95.8,13364],[95.8,13447],[95.8,13531],[95.8,13614],[95.8,13698],[95.8,13780],[95.8,13864],[95.8,13947],[95.8,14030],[95.8,14120],[95.8,14198],[95.8,14280],[95.8,14364],[95.8,14447],[95.8,14530],[95.8,14614],[95.8,14696],[95.8,14780],[95.8,14863],[95.8,14946],[95.8,15029],[95.8,15116],[95.8,15196],[95.8,15279],[95.8,15362],[95.8,15446],[95.8,15534],[95.8,15612],[95.8,15696],[95.8,15779],[100,15869],[100,15951],[99.6,16035],[98.8,16119],[98.5,16195],[100,16280],[100,16362],[98.5,16451],[100,16534],[100,16612],[100,16696],[98,16785],[97.8,16868],[97.8,16951],[97.8,17027],[97.8,17114],[97.8,17194],[97.8,17277],[97.8,17360],[97.8,17450],[97.8,17527],[97.8,17611],[97.8,17694],[97.8,17777],[97.8,17860],[97.8,17944],[97.8,18027],[97.8,18110],[97.8,18194],[97.8,18277],[97.8,18360],[97.8,18443],[97.8,18526],[97.8,18617],[97.8,18699],[97.8,18777],[97.8,18860],[97.8,18949],[97.8,19027],[97.8,19110],[97.8,19193],[97.8,19277],[97.8,19360],[97.8,19443],[97.8,19526],[97.8,19608],[97.8,19692],[97.8,19775],[97.8,19859],[97.8,19945],[97.8,20025],[97.8,20108],[97.8,20192],[97.8,20281],[97.8,20365]]",4037.2354,4038.8835,97.81250954,1.0463,"[{""rating"":97.81250953674316,""responseTime"":1.04629999995268}]",space,1.0998,,4038.8837,Partially,50,4038.8926,,,[],,0,13,13,13,1,audio/Narrative8Situation4.wav,audio/Narrative7Situation4.wav,audio/Narrative6Situation4.wav,audio/Narrative5Situation4.wav,3,3,2,1,,,,,,,,,,,,,,,,,,,,,,,,,,,,,,,,,,,,,,,
,,,,,66f02f508e8473f0362ed99e,2025-07-07_19h46.12.095,group3.4_multiperson,2023.2.2,Win32,60.24096386,686c2ebf0248f13bef9af11f,686c84c7524b1f5a8141bda3,,,,,,,,,,,,,,,,,,,,,,,,,,,,,4038.8932,2,audio/Narrative5Situation5.wav,4043.8966,,4043.8968,4059.3171,"[[999,1],[999,98],[999,183],[999,271],[999,348],[999,432],[999,515],[999,598],[999,682],[999,766],[999,850],[999,933],[999,1017],[999,1100],[999,1181],[999,1264],[999,1349],[999,1438],[50.3,1521],[50.3,1599],[50.3,1686],[50.3,1764],[50.3,1846],[50.3,1930],[50.3,2013],[50.3,2097],[50.3,2180],[50.3,2264],[50.3,2346],[50.3,2430],[50.3,2513],[50.3,2596],[50.3,2679],[50.3,2765],[50.3,2846],[50.3,2930],[50.3,3013],[50.2,3098],[50.1,3180],[50,3262],[50,3353],[50.2,3429],[50.3,3513],[50.3,3597],[50.3,3679],[50.5,3767],[50.5,3846],[52.9,3939],[57.5,4019],[57.8,4095],[57.8,4178],[59.2,4263],[69.6,4350],[69.9,4429],[60.1,4513],[55.5,4606],[49.1,4691],[30.6,4780],[13.2,4872],[7.5,4955],[3.1,5039],[1.5,5130],[1.4,5217],[2.4,5302],[2.8,5377],[3.1,5462],[3.2,5549],[3.2,5627],[3.2,5711],[3.2,5794],[3.2,5877],[3.2,5961],[3.2,6043],[3.2,6133],[3.2,6211],[3.2,6294],[3.2,6376],[3.2,6460],[3.2,6543],[3.2,6626],[3.2,6709],[3.2,6793],[3.2,6876],[3.2,6966],[3.2,7043],[3.2,7126],[3.2,7209],[3.2,7292],[3.2,7376],[3.2,7459],[3.2,7543],[3.2,7626],[3.2,7709],[3.2,7795],[3.2,7875],[3.2,7959],[3.2,8042],[3.2,8125],[3.2,8208],[3.2,8292],[3.2,8375],[3.2,8458],[3.2,8541],[3.2,8625],[3.2,8708],[3.2,8791],[3.2,8874],[3.2,8963],[3.2,9040],[3.2,9124],[3.2,9207],[3.2,9291],[3.2,9374],[3.2,9461],[3.2,9540],[3.2,9624],[3.2,9707],[3.2,9790],[3.2,9873],[3.2,9957],[3.2,10041],[3.2,10126],[3.2,10207],[3.2,10290],[3.2,10374],[3.2,10457],[3.2,10540],[3.2,10624],[3.2,10706],[3.2,10789],[3.2,10873],[3.2,10956],[3.2,11039],[3.2,11122],[3.2,11205],[3.2,11291],[3.2,11372],[3.2,11456],[3.2,11540],[3.2,11624],[3.2,11706],[3.2,11789],[3.2,11872],[5.5,11963],[7.2,12039],[7.2,12122],[5,12214],[4.4,12295],[4.6,12373],[5.6,12455],[4.6,12548],[4.5,12622],[4.5,12705],[4.9,12795],[5,12871],[5,12954],[5.7,13046],[5.8,13122],[5.8,13205],[5.8,13294],[5.8,13372],[5.8,13455],[5.8,13537],[5.8,13620],[5.8,13705],[5.8,13787],[5.8,13870],[5.8,13954],[5.8,14036],[5.8,14120],[5.8,14203],[5.8,14287],[5.8,14372],[5.8,14453],[5.8,14543],[5.8,14621],[5.8,14704],[5.8,14787],[5.8,14870],[5.8,14953],[5.8,15036],[5.8,15120],[5.8,15203],[5.8,15286],[5.8,15370]]",4059.3177,4062.6324,2.500001589,3.1372,"[{""rating"":5.833335717519122,""responseTime"":1.1026999999885447},{""rating"":2.500001589457196,""responseTime"":3.1371999999882973}]",space,2.7689,,4062.6326,Partially,50,4062.6404,,,[],,0,14,14,14,1,audio/Narrative8Situation5.wav,audio/Narrative7Situation5.wav,audio/Narrative6Situation5.wav,audio/Narrative5Situation5.wav,2,5,2,5,,,,,,,,,,,,,,,,,,,,,,,,,,,,,,,,,,,,,,,
,,,,,66f02f508e8473f0362ed99e,2025-07-07_19h46.12.095,group3.4_multiperson,2023.2.2,Win32,60.24096386,686c2ebf0248f13bef9af11f,686c84c7524b1f5a8141bda3,,,,,,,,,,,,,,,,,,,,,,,,,,,,,4062.6416,2,audio/Narrative5Situation6.wav,4065.6454,,4065.6457,4071.3297,"[[27.3,937],[27.4,1014],[30.8,1104],[32.8,1188],[33.2,1264],[33.2,1353],[33,1430],[33,1514],[35.5,1604],[36.5,1680],[36.8,1765],[38.8,1853],[39.5,1931],[39.6,2013],[39.6,2097],[39.6,2180],[39.6,2263],[40.1,2348],[43.2,2431],[43.8,2520],[44.1,2598],[44.2,2679],[44.2,2768],[44.2,2846],[44.5,2931],[45.3,3013],[46.8,3103],[47.3,3179],[47.4,3263],[47.9,3358],[48.4,3430],[48.4,3512],[48.4,3595],[48.4,3681],[43.2,3768],[26.6,3851],[10.8,3935],[9,4015],[8.6,4096],[8.6,4179],[8.6,4262],[20.1,4354],[49.8,4438],[85,4961]]",4071.3302,4074.2874,85.83334287,2.0838,"[{""rating"":85.83334287007649,""responseTime"":2.0837999999521344}]",space,2.4089,,4074.2877,Partially,50,4074.2904,,,[],,0,15,15,15,1,audio/Narrative8Situation6.wav,audio/Narrative7Situation6.wav,audio/Narrative6Situation6.wav,audio/Narrative5Situation6.wav,2,3,2,3,,,,,,,,,,,,,,,,,,,,,,,,,,,,,,,,,,,,,,,
