consent.started,consent.stopped,consentResponse.keys,consentResponse.rt,consentResponse.duration,participantID,date,expName,psychopyVersion,OS,frameRate,STUDY_ID,SESSION_ID,opening1.started,opening1.stopped,keyEndingOpening1.keys,keyEndingOpening1.rt,keyEndingOpening1.duration,volumeAdjust.started,volumeAdjust.stopped,endingAdjust.keys,endingAdjust.rt,endingAdjust.duration,opening2.started,opening2.stopped,keyEndingOpening.keys,keyEndingOpening.rt,keyEndingOpening.duration,mouse.x,mouse.y,mouse.leftButton,mouse.midButton,mouse.rightButton,mouse.time,instructionLoop.thisRepN,instructionLoop.thisTrialN,instructionLoop.thisN,instructionLoop.thisIndex,instructionLoop.ran,readyForAudio.started,readyForAudio.stopped,fixation.started,run,audio_played,fixation.stopped,endPractice.keys,audioPre.started,audioPre.stopped,continuousResponses_audio,intRating.started,intRating.stopped,intQuestionSlider.response,intQuestionSlider.rt,intQuestionSlider.history,confirmResponse.keys,confirmResponse.rt,confirmResponse.duration,catchQuestion.started,catch_label,catch_value,catchQuestion.stopped,catchQuestionSlider.response,catchQuestionSlider.rt,catchQuestionSlider.history,confirmResponse_2.keys,audioRunLoop.thisRepN,audioRunLoop.thisTrialN,audioRunLoop.thisN,audioRunLoop.thisIndex,audioRunLoop.ran,conditions1_1,conditions2_1,conditions1_2,conditions2_2,dur1_1,dur2_1,dur1_2,dur2_2,endPractice.rt,endPractice.duration,confirmResponse_2.rt,confirmResponse_2.duration,runIntervalBreak.started,runIntervalBreak.stopped,endingBreakKey.keys,endingBreakKey.rt,endingBreakKey.duration,connection.started,connection.stopped,connectionEnding.keys,connectionEnding.rt,connectionEnding.duration,readyForText.started,readyForText.stopped,textPre.started,run_dup,textPre.stopped,continuousResponses_text,textRunLoop.thisRepN,textRunLoop.thisTrialN,textRunLoop.thisN,textRunLoop.thisIndex,textRunLoop.ran,text1_1,text1_2,text2_1,text2_2,runBreakText.started,runBreakText.stopped,endingBreakKey_2.keys,endingBreakKey_2.rt,endingBreakKey_2.duration,ending.started,ending.stopped,endingEnding.keys,endingEnding.rt,endingEnding.duration
1E-04,9.0669,y,8.7528,,66fdd6ecd96e23c98cf47a4a,2025-07-08_00h11.55.998,group3.4_multiperson,2023.2.2,MacIntel,120.4819277,686c2ebf0248f13bef9af11f,686c9a7367c0d97a5fdccfec,,,,,,,,,,,,,,,,,,,,,,,,,,,,,,,,,,,,,,,,,,,,,,,,,,,,,,,,,,,,,,,,,,,,,,,,,,,,,,,,,,,,,,,,,,,,,,,,,,,,,,,,
,,,,,66fdd6ecd96e23c98cf47a4a,2025-07-08_00h11.55.998,group3.4_multiperson,2023.2.2,MacIntel,120.4819277,686c2ebf0248f13bef9af11f,686c9a7367c0d97a5fdccfec,9.0671,18.8003,space,9.7104,,,,,,,,,,,,,,,,,,,,,,,,,,,,,,,,,,,,,,,,,,,,,,,,,,,,,,,,,,,,,,,,,,,,,,,,,,,,,,,,,,,,,,,,,,,,,,,,,,,,
,,,,,66fdd6ecd96e23c98cf47a4a,2025-07-08_00h11.55.998,group3.4_multiperson,2023.2.2,MacIntel,120.4819277,686c2ebf0248f13bef9af11f,686c9a7367c0d97a5fdccfec,,,,,,18.8005,44.8003,space,25.6859,,,,,,,,,,,,,,,,,,,,,,,,,,,,,,,,,,,,,,,,,,,,,,,,,,,,,,,,,,,,,,,,,,,,,,,,,,,,,,,,,,,,,,,,,,,,,,,
,,,,,66fdd6ecd96e23c98cf47a4a,2025-07-08_00h11.55.998,group3.4_multiperson,2023.2.2,MacIntel,120.4819277,686c2ebf0248f13bef9af11f,686c9a7367c0d97a5fdccfec,,,,,,,,,,,44.8032,60.9587,space,16.1463,,[],[],[],[],[],[],0,0,0,0,1,,,,,,,,,,,,,,,,,,,,,,,,,,,,,,,,,,,,,,,,,,,,,,,,,,,,,,,,,,,,,,,,,,,,,,,,,,,,,,
,,,,,66fdd6ecd96e23c98cf47a4a,2025-07-08_00h11.55.998,group3.4_multiperson,2023.2.2,MacIntel,120.4819277,686c2ebf0248f13bef9af11f,686c9a7367c0d97a5fdccfec,,,,,,,,,,,60.959,84.5461,space,23.5519,,[],[],[],[],[],[],1,0,1,0,1,,,,,,,,,,,,,,,,,,,,,,,,,,,,,,,,,,,,,,,,,,,,,,,,,,,,,,,,,,,,,,,,,,,,,,,,,,,,,,
,,,,,66fdd6ecd96e23c98cf47a4a,2025-07-08_00h11.55.998,group3.4_multiperson,2023.2.2,MacIntel,120.4819277,686c2ebf0248f13bef9af11f,686c9a7367c0d97a5fdccfec,,,,,,,,,,,84.5465,359.9961,space,275.422,,"[0.4342317708333333,0.4313064236111111,0.5348480902777778,0.5348480902777778]","[-0.7941898867673179,-0.769114953374778,-0.7554118561278863,-0.7554118561278863]","[1,1,1,1]","[0,0,0,0]","[0,0,0,0]","[11.921500000000009,12.614399999991065,234.64629999999704,235.2796999999881]",2,0,2,0,1,,,,,,,,,,,,,,,,,,,,,,,,,,,,,,,,,,,,,,,,,,,,,,,,,,,,,,,,,,,,,,,,,,,,,,,,,,,,,,
,,,,,66fdd6ecd96e23c98cf47a4a,2025-07-08_00h11.55.998,group3.4_multiperson,2023.2.2,MacIntel,120.4819277,686c2ebf0248f13bef9af11f,686c9a7367c0d97a5fdccfec,,,,,,,,,,,359.9962,367.6302,space,7.6175,,[],[],[],[],[],[],3,0,3,0,1,,,,,,,,,,,,,,,,,,,,,,,,,,,,,,,,,,,,,,,,,,,,,,,,,,,,,,,,,,,,,,,,,,,,,,,,,,,,,,
,,,,,66fdd6ecd96e23c98cf47a4a,2025-07-08_00h11.55.998,group3.4_multiperson,2023.2.2,MacIntel,120.4819277,686c2ebf0248f13bef9af11f,686c9a7367c0d97a5fdccfec,,,,,,,,,,,367.6307,399.4334,space,31.779,,[-0.05038628472222222],[0.37846271165338646],[1],[0],[0],[13.903200000002983],4,0,4,0,1,,,,,,,,,,,,,,,,,,,,,,,,,,,,,,,,,,,,,,,,,,,,,,,,,,,,,,,,,,,,,,,,,,,,,,,,,,,,,,
,,,,,66fdd6ecd96e23c98cf47a4a,2025-07-08_00h11.55.998,group3.4_multiperson,2023.2.2,MacIntel,120.4819277,686c2ebf0248f13bef9af11f,686c9a7367c0d97a5fdccfec,,,,,,,,,,,399.434,409.3587,space,9.9068,,[],[],[],[],[],[],5,0,5,0,1,,,,,,,,,,,,,,,,,,,,,,,,,,,,,,,,,,,,,,,,,,,,,,,,,,,,,,,,,,,,,,,,,,,,,,,,,,,,,,
,,,,,66fdd6ecd96e23c98cf47a4a,2025-07-08_00h11.55.998,group3.4_multiperson,2023.2.2,MacIntel,120.4819277,686c2ebf0248f13bef9af11f,686c9a7367c0d97a5fdccfec,,,,,,,,,,,,,,,,,,,,,,,,,,,409.3609,411.9428,411.9593,1,audio/Narrative13Situation2.wav,413.9676,,413.9679,443.7015,"[[999,2],[999,98],[999,182],[999,265],[999,348],[999,432],[999,515],[999,598],[999,682],[999,765],[999,850],[999,932],[999,1015],[999,1098],[999,1181],[999,1265],[999,1348],[999,1432],[999,1516],[999,1598],[999,1682],[999,1766],[999,1849],[999,1932],[999,2015],[999,2099],[999,2182],[999,2265],[999,2349],[999,2432],[999,2515],[999,2599],[999,2682],[999,2765],[999,2849],[999,2932],[999,3015],[999,3099],[999,3182],[999,3266],[999,3349],[999,3432],[999,3516],[999,3600],[999,3682],[999,3765],[999,3848],[999,3932],[999,4016],[999,4098],[999,4181],[999,4265],[999,4348],[999,4432],[999,4516],[999,4598],[999,4682],[999,4765],[999,4849],[999,4932],[999,5015],[999,5099],[999,5182],[999,5265],[999,5348],[999,5432],[999,5514],[999,5599],[999,5683],[999,5765],[999,5848],[999,5931],[999,6015],[999,6099],[999,6182],[999,6265],[999,6350],[999,6432],[999,6515],[999,6599],[999,6682],[999,6765],[999,6849],[999,6932],[999,7015],[999,7099],[999,7183],[999,7265],[999,7349],[999,7432],[999,7515],[999,7598],[48.3,7683],[46.1,7765],[45.8,7848],[46,7933],[46.9,8015],[47.2,8099],[47.5,8184],[47.9,8266],[50,8349],[56.8,8432],[61.3,8515],[70.1,8598],[86,8682],[87.9,8765],[88.3,8849],[88.4,8932],[88.4,9015],[88.4,9099],[88.4,9183],[88.4,9265],[88.4,9348],[88.4,9432],[90.8,9516],[97.5,9599],[99.9,9682],[100,9765],[99.7,9849],[99,9932],[98.9,10015],[98.9,10099],[98.9,10182],[98.9,10265],[98.9,10348],[99.9,10432],[100,10515],[100,10598],[100,10682],[100,10766],[100,10848],[100,10932],[100,11015],[100,11099],[100,11183],[100,11265],[100,11348],[100,11432],[100,11515],[100,11598],[100,11682],[100,11767],[100,11849],[100,11932],[100,12015],[100,12099],[100,12182],[100,12264],[100,12348],[100,12432],[100,12516],[100,12600],[100,12682],[100,12765],[100,12849],[100,12932],[100,13015],[100,13098],[100,13183],[100,13265],[100,13349],[100,13432],[100,13515],[100,13598],[100,13682],[100,13765],[100,13849],[100,13932],[100,14016],[100,14098],[100,14183],[100,14265],[100,14349],[100,14432],[100,14514],[100,14598],[100,14682],[100,14765],[100,14848],[100,14932],[100,15015],[100,15099],[100,15182],[100,15265],[100,15349],[100,15432],[100,15515],[100,15598],[100,15681],[100,15766],[100,15849],[100,15931],[100,16015],[100,16099],[100,16182],[100,16265],[100,16349],[100,16432],[100,16515],[100,16599],[100,16682],[100,16765],[100,16848],[100,16932],[100,17015],[100,17099],[100,17182],[100,17265],[100,17349],[100,17432],[100,17515],[100,17598],[100,17683],[100,17765],[100,17849],[100,17932],[100,18016],[100,18099],[100,18181],[100,18265],[100,18349],[100,18432],[100,18515],[100,18599],[100,18682],[100,18765],[100,18849],[100,18932],[100,19016],[100,19099],[100,19182],[100,19265],[100,19348],[100,19432],[100,19515],[100,19598],[100,19682],[100,19765],[100,19849],[100,19932],[100,20015],[100,20098],[100,20183],[100,20265],[100,20349],[100,20432],[100,20514],[100,20599],[100,20682],[100,20765],[100,20848],[100,20932],[100,21015],[100,21099],[100,21182],[100,21265],[100,21349],[100,21432],[100,21516],[100,21599],[100,21682],[100,21765],[100,21848],[100,21931],[100,22015],[100,22099],[100,22182],[100,22265],[100,22349],[100,22433],[100,22515],[100,22598],[100,22682],[100,22765],[100,22848],[100,22932],[100,23015],[100,23098],[100,23182],[100,23265],[100,23349],[100,23432],[100,23514],[100,23599],[100,23682],[100,23765],[100,23848],[100,23931],[100,24015],[100,24099],[100,24182],[100,24266],[100,24349],[100,24431],[100,24515],[100,24600],[100,24682],[100,24765],[100,24848],[100,24932],[100,25016],[100,25099],[100,25182],[100,25266],[100,25349],[100,25432],[100,25515],[100,25599],[100,25682],[100,25767],[100,25849],[100,25932],[100,26015],[100,26098],[100,26182],[100,26265],[100,26349],[100,26432],[100,26515],[100,26599],[100,26682],[100,26765],[100,26849],[100,26932],[100,27016],[100,27099],[100,27182],[100,27265],[100,27349],[100,27432],[100,27515],[100,27599],[100,27682],[100,27765],[100,27849],[100,27932],[100,28015],[100,28099],[100,28182],[100,28266],[100,28348],[100,28432],[100,28515],[100,28599],[100,28682],[100,28765],[100,28849],[100,28932],[100,29015],[100,29099],[100,29183],[100,29265],[100,29349],[100,29432],[100,29516],[100,29599],[100,29682]]",443.7022,456.9172,91.02213542,12.0266,"[{""rating"":87.38975694444444,""responseTime"":9.688200000003008},{""rating"":70.30902777777777,""responseTime"":10.717300000011903},{""rating"":91.02213541666666,""responseTime"":12.026600000008955}]",space,12.6907,,456.9175,Definitely yes,100,456.92,,,[],,0,0,0,0,1,audio/Narrative13Situation2.wav,audio/Narrative13Situation2.wav,audio/Narrative13Situation2.wav,audio/Narrative13Situation2.wav,2,2,2,2,,,,,,,,,,,,,,,,,,,,,,,,,,,,,,,,,,,,,,,
,,,,,66fdd6ecd96e23c98cf47a4a,2025-07-08_00h11.55.998,group3.4_multiperson,2023.2.2,MacIntel,120.4819277,686c2ebf0248f13bef9af11f,686c9a7367c0d97a5fdccfec,,,,,,,,,,,,,,,,,,,,,,,,,,,,,456.9203,1,audio/Narrative7Situation1.wav,459.4172,space,459.4172,515.2927,"[[999,1],[999,83],[999,166],[999,249],[999,332],[999,416],[999,499],[999,583],[999,665],[89.8,749],[90.8,832],[90.5,916],[89,999],[89,1083],[89,1165],[89,1250],[94.8,3500],[97,3582],[98.2,3665],[98.3,3750],[98.3,3833],[99.1,3916],[100,3999],[100,4082],[100,4166],[100,4249],[100,4333],[100,4416],[100,4499],[100,4583],[100,4665],[100,4750],[100,4833],[100,4917],[100,5000],[100,5082],[100,5166],[100,32416],[100,32499],[100,32583],[100,32666],[100,32750],[100,32833],[100,32916],[100,32999],[98.4,33082],[94.5,33168],[94,33250],[94.1,33334],[100,33416],[100,33499],[100,33583],[100,33666],[100,33749],[100,33833],[100,33916],[100,34000],[100,34083],[100,34166],[100,34250],[100,34333],[100,34416],[100,34499],[100,34583],[100,34666],[100,34749],[100,34833],[100,34916],[100,34998],[100,35083],[100,35165],[100,35248],[100,35333],[100,35416],[100,35500],[100,35582],[100,35666],[100,35750],[100,35833],[100,35916],[100,35999],[100,36083],[100,36166],[100,36249],[100,36333],[100,36416],[100,36499],[100,36582],[99.6,36666],[94.9,36749],[92.9,36834],[92.3,36916],[98.7,36999],[100,37083],[96.4,37166],[96,37251],[100,37333],[100,37416],[100,37500],[100,37583],[100,37666],[100,37749],[100,37834],[100,37916],[100,37998],[100,38083],[100,38166],[100,38251],[100,38332],[100,38417],[100,38501],[97.8,38583],[100,38666],[100,38751],[100,38833],[100,38918],[100,38999],[100,39083],[99,39167],[100,39249],[100,39332],[100,39418],[100,39499],[100,39583],[100,39666],[100,39749],[100,39833],[100,39916],[100,39999],[98.3,40082],[100,40168],[100,40249],[98.3,40334],[97.4,40416],[99.4,40499],[100,40583],[100,40667],[100,40751],[98.5,40834],[100,40917],[100,41000],[100,41084],[100,41167],[100,41249],[100,41333],[100,41416],[100,41500],[100,41583],[100,41666],[100,41749],[100,41833],[100,41916],[100,41999],[100,42085],[100,42166],[100,42249],[100,42332],[100,42416],[100,42500],[100,42583],[100,42667],[100,42749],[100,42833],[100,42916],[100,42999],[100,43083],[100,43166],[100,43249],[100,43333],[100,43416],[100,43499],[100,43585],[100,43666],[100,44166],[100,44249],[100,44334],[100,44416],[100,44499],[100,44583],[100,44666],[100,44750],[100,44833],[100,44916],[100,45000],[100,45083],[100,45166],[100,45250],[100,45332],[100,45416],[100,45499],[100,45582],[100,45665],[100,45749],[100,45833],[100,45916],[100,45999],[100,46083],[100,46166],[100,46249],[100,46333],[100,46416],[100,46500],[100,46583],[100,46666],[100,46750],[100,46833],[100,46917],[100,47000],[100,47083],[100,47166],[100,47250],[100,47332],[100,47416],[100,47499],[100,47583],[100,47666],[100,47749],[100,47833],[100,47916],[100,48000],[100,48083],[100,48166],[100,48249],[100,48333],[100,48416],[100,48499],[100,48583],[100,48666],[100,48749],[100,48833],[100,48915],[100,48999],[100,49083],[100,49166],[100,49249],[100,49333],[100,49416],[100,49499],[100,49582],[100,49666],[100,49749],[100,49833],[100,49916],[100,50000],[100,50082],[100,50166],[100,50249],[100,50333],[100,50416],[100,50499],[100,50583],[100,50666],[100,50750],[100,50833],[100,50917],[100,50999],[100,51083],[100,51166],[100,51250],[100,51333],[100,51416],[100,51500],[100,51583],[100,51666],[100,51749],[100,51833],[100,51916],[100,51998],[100,52083],[100,52166],[100,52249],[100,52333],[100,52416],[100,52499],[100,52583],[100,52666],[100,52749],[100,52833],[100,52916],[100,53000],[100,53083],[100,53166],[100,53249],[100,53332],[100,53416],[100,53499],[100,53583],[100,53666],[100,53749],[100,53833],[100,53916],[100,53999],[100,54083],[100,54166],[100,54249],[100,54333],[100,54415],[100,54500],[100,54584],[100,54666],[100,54750],[100,54833],[100,54916],[100,54999],[100,55083],[100,55166],[100,55250],[100,55333],[100,55416],[100,55500],[100,55583],[100,55666],[100,55750],[100,55833]]",515.2934,642.8254,92.65104167,126.5291,"[{""rating"":92.65104166666667,""responseTime"":126.52909999999406}]",space,127.0062,,642.8254,Partially,50,642.8287,,,[],,0,1,1,1,1,audio/Narrative7Situation1.wav,audio/Narrative8Situation1.wav,audio/Narrative5Situation1.wav,audio/Narrative6Situation1.wav,2,5,5,2,2.4827,,,,,,,,,,,,,,,,,,,,,,,,,,,,,,,,,,,,,,
,,,,,66fdd6ecd96e23c98cf47a4a,2025-07-08_00h11.55.998,group3.4_multiperson,2023.2.2,MacIntel,120.4819277,686c2ebf0248f13bef9af11f,686c9a7367c0d97a5fdccfec,,,,,,,,,,,,,,,,,,,,,,,,,,,,,642.8289,1,audio/Narrative7Situation2.wav,645.834,,645.8342,653.3011,"[[95.1,1249],[97.4,1332],[97.4,1416],[97.4,1499],[98.1,1582],[92.7,1666],[75.4,2249],[88,2499],[88.3,2583],[88.3,2665],[88.5,2749],[100,2833],[100,2916],[100,2999],[100,3083],[100,3166],[100,3248]]",653.3014,699.3128,93.28645833,44.6592,"[{""rating"":92.74696180555554,""responseTime"":44.21640000000593},{""rating"":93.28645833333333,""responseTime"":44.65920000000301}]",space,45.4877,,699.3129,Definitely yes,100,699.3157,,,[],,0,2,2,2,1,audio/Narrative7Situation2.wav,audio/Narrative8Situation2.wav,audio/Narrative5Situation2.wav,audio/Narrative6Situation2.wav,3,3,3,3,,,,,,,,,,,,,,,,,,,,,,,,,,,,,,,,,,,,,,,
,,,,,66fdd6ecd96e23c98cf47a4a,2025-07-08_00h11.55.998,group3.4_multiperson,2023.2.2,MacIntel,120.4819277,686c2ebf0248f13bef9af11f,686c9a7367c0d97a5fdccfec,,,,,,,,,,,,,,,,,,,,,,,,,,,,,699.316,1,audio/Narrative7Situation3.wav,707.3174,space,707.3175,716.564,"[[999,1],[999,81],[999,165],[999,249],[999,332],[999,416],[999,499],[999,584],[999,665],[999,748],[999,833],[999,916],[999,999],[999,1083],[999,1166],[999,1249],[999,1333],[999,1416],[999,1498],[999,1582],[999,1666],[999,1749],[999,1832],[999,1915],[999,1999],[999,2082],[999,2165],[999,2249],[999,2328],[999,2411],[999,2494],[999,2578],[999,2662],[999,2744],[999,2828],[999,2912],[999,2995],[999,3078],[999,3161],[999,3245],[999,3327],[999,3412],[999,3495],[999,3578],[999,3661],[999,3744],[999,3827],[999,3912],[999,3995],[999,4078],[999,4162],[999,4245],[999,4329],[999,4411],[9.7,4912],[9.5,4994],[9.5,5078],[9.5,5162],[73.9,5662],[86.7,5745],[86.7,5828],[86.7,5911],[97.8,6495],[97,6578],[97,6662],[97.8,6745],[98,6828],[98.6,6911],[100,6995],[100,7077],[100,7161],[100,7245],[100,7328],[100,7412],[100,7494],[100,7578],[100,7661],[100,7744],[100,7827],[100,7911],[100,7994],[100,8078],[100,8161],[100,8245],[100,8328],[100,8412],[100,8494],[100,8578],[100,8661],[100,8744],[100,8827],[100,8911],[100,8995],[100,9077],[100,9161],[100,9246]]",716.5643,783.3796,98.1875,5.0536,"[{""rating"":98.1875,""responseTime"":5.053599999994049}]",space,66.2947,,783.3796,Not at all,0,783.3818,,,[],,0,3,3,3,1,audio/Narrative7Situation3.wav,audio/Narrative8Situation3.wav,audio/Narrative5Situation3.wav,audio/Narrative6Situation3.wav,8,4,3,5,5.7614,,,,,,,,,,,,,,,,,,,,,,,,,,,,,,,,,,,,,,
,,,,,66fdd6ecd96e23c98cf47a4a,2025-07-08_00h11.55.998,group3.4_multiperson,2023.2.2,MacIntel,120.4819277,686c2ebf0248f13bef9af11f,686c9a7367c0d97a5fdccfec,,,,,,,,,,,,,,,,,,,,,,,,,,,,,783.382,1,audio/Narrative7Situation4.wav,786.3884,,786.3885,798.1048,"[[999,1],[999,82],[999,165],[999,249],[999,332],[999,415],[999,499],[999,583],[999,666],[999,748],[999,833],[999,915],[999,999],[999,1082],[999,1166],[999,1249],[999,1332],[999,1416],[999,1498],[999,1582],[999,1666],[999,1749],[999,1833],[999,1916],[999,1998],[999,2082],[999,2166],[999,2249],[999,2332],[999,2416],[999,2499],[999,2582],[999,2665],[999,2750],[999,2832],[999,2916],[100,2999],[97,3332],[98.1,3416],[98.1,3499],[98.1,3582],[98.1,3665],[98.5,3749],[98.9,3832],[98.9,3916],[98.9,3999],[98.9,4083],[98.9,4166],[98.9,4250],[98.9,4332],[98.9,4416],[98.9,4500],[98.9,4582],[98.9,4665],[98.9,4749],[98.9,4832],[98.9,4916],[98.9,4999],[98.9,5082],[98.9,5165],[98.9,5248],[98.9,5333],[98.9,5415],[98.9,5499],[98.9,5582],[98.9,5666],[98.9,5749],[98.9,5832],[98.9,5916],[98.9,5999],[98.9,6082],[98.9,6166],[98.9,6249],[98.9,6333],[98.9,6416],[98.9,6499],[98.9,6582],[98.9,6666],[98.9,6750],[98.9,6832],[98.9,6915],[98.9,6999],[98.9,7082],[98.9,7166],[98.9,7249],[98.9,7332],[98.9,7416],[98.9,7499],[98.9,7582],[98.9,7665],[98.9,7749],[98.9,7832],[98.9,7916],[98.9,7998],[98.9,8083],[98.9,8167],[98.9,8250],[98.9,8332],[98.9,8416],[98.9,8499],[98.9,8582],[98.9,8666],[98.9,8749],[98.9,8832],[98.9,8916],[98.9,8999],[98.9,9082],[98.9,9165],[98.9,9249],[98.9,9333],[98.9,9416],[98.9,9499],[98.9,9583],[75.8,9666],[33.2,9999],[13.6,10082],[11.8,10166],[12.5,10249],[11.4,10332],[8.8,10416],[8.2,10500],[8.2,10582],[8.2,10666],[8.2,10749],[13.7,10832],[41.2,10916],[49,10999],[49.3,11082],[49.4,11165],[49.4,11249],[48.9,11332],[34.7,11416],[22,11500],[17.6,11582],[17.4,11666]]",798.105,1319.1046,41.76215278,520.1087,"[{""rating"":41.76215277777778,""responseTime"":520.108700000003}]",space,520.4784,,1319.1048,Definitely yes,100,1319.1083,,,[],,0,4,4,4,1,audio/Narrative7Situation4.wav,audio/Narrative8Situation4.wav,audio/Narrative5Situation4.wav,audio/Narrative6Situation4.wav,3,3,1,2,,,,,,,,,,,,,,,,,,,,,,,,,,,,,,,,,,,,,,,
,,,,,66fdd6ecd96e23c98cf47a4a,2025-07-08_00h11.55.998,group3.4_multiperson,2023.2.2,MacIntel,120.4819277,686c2ebf0248f13bef9af11f,686c9a7367c0d97a5fdccfec,,,,,,,,,,,,,,,,,,,,,,,,,,,,,1319.1085,1,audio/Narrative7Situation5.wav,1324.1136,,1324.1137,1332.59,"[[999,0],[999,81],[999,165],[999,249],[999,332],[999,415],[999,499],[999,582],[999,665],[999,749],[999,832],[999,915],[999,999],[999,1082],[999,1165],[999,1249],[999,1332],[999,1415],[999,1501],[999,1582],[999,1666],[999,1748],[999,1832],[999,1915],[999,1999],[999,2082],[87.1,2165],[90.2,2248],[90.2,2331],[90.2,2415],[90.2,2498],[90.2,2581],[90.2,2665],[90.2,2750],[89.8,2832],[89.8,2915],[89.7,2998],[89.7,3082],[91,3166],[91.5,3249],[91.6,3331],[91.6,3416],[91.6,3499],[91.6,3582],[91.6,3666],[91.6,3749],[91.6,3831],[91.6,3916],[91.6,3998],[91.6,4081],[91.6,4165],[91.6,4249],[91.6,4332],[91.6,4416],[91.6,4499],[91.6,4582],[91.6,4666],[91.6,4749],[91.6,4832],[91.6,4915],[91.6,5000],[91.6,5084],[91.6,5170],[91.6,5252],[91.6,5335],[91.6,5418],[91.6,5501],[91.6,5584],[91.6,5667],[91.6,5751],[91.6,5835],[91.6,5918],[91.6,6001],[91.6,6085],[91.6,6168],[91.6,6252],[91.6,6335],[91.6,6418],[91.6,6500],[91.6,6585],[91.6,6669],[91.6,6751],[91.6,6835],[91.6,6918],[91.6,7001],[91.6,7085],[91.6,7167],[91.6,7251],[91.6,7335],[91.6,7418],[100,8332],[98.1,8415]]",1332.5904,1341.0713,7.58203125,5.0884,"[{""rating"":7.582031249999998,""responseTime"":5.088400000006004}]",space,7.9584,,1341.0713,Not at all,0,1341.0738,,,[],,0,5,5,5,1,audio/Narrative7Situation5.wav,audio/Narrative8Situation5.wav,audio/Narrative5Situation5.wav,audio/Narrative6Situation5.wav,5,2,5,2,,,,,,,,,,,,,,,,,,,,,,,,,,,,,,,,,,,,,,,
,,,,,66fdd6ecd96e23c98cf47a4a,2025-07-08_00h11.55.998,group3.4_multiperson,2023.2.2,MacIntel,120.4819277,686c2ebf0248f13bef9af11f,686c9a7367c0d97a5fdccfec,,,,,,,,,,,,,,,,,,,,,,,,,,,,,1341.074,1,audio/Narrative7Situation6.wav,1344.8798,,1344.8798,1354.8381,"[[999,0],[999,83],[999,166],[999,249],[999,332],[999,416],[999,499],[999,582],[999,665],[999,749],[999,832],[999,916],[999,999],[999,1082],[999,1165],[999,1249],[999,1332],[999,1415],[999,1500],[999,1583],[999,1665],[999,1750],[999,1833],[999,1916],[999,1999],[999,2082],[999,2166],[999,2249],[999,2332],[999,2416],[999,2500],[999,2582],[999,2666],[999,2749],[999,2832],[999,2917],[999,2999],[999,3082],[999,3166],[999,3249],[999,3332],[999,3416],[999,3499],[999,3582],[999,3666],[999,3749],[999,3832],[999,3915],[999,3999],[999,4083],[999,4166],[999,4250],[999,4333],[999,4416],[999,4500],[999,4582],[999,4666],[999,4749],[999,4832],[999,4916],[999,4999],[999,5083],[999,5165],[999,5250],[999,5333],[999,5416],[999,5499],[999,5583],[999,5666],[999,5749],[999,5833],[999,5916],[999,6000],[999,6083],[999,6165],[999,6250],[999,6332],[999,6416],[999,6499],[999,6582],[999,6666],[999,6749],[999,6832],[999,6915],[999,6998],[999,7083],[999,7166],[999,7249],[999,7333],[999,7416],[999,7499],[999,7583],[999,7666],[999,7749],[999,7833],[999,7916],[999,7999],[999,8083],[999,8165],[999,8249],[999,8333],[999,8416],[999,8499],[999,8582],[98.1,8665],[97.9,8750],[97.9,8833],[97.4,8916],[97.1,8999],[96.9,9083],[96.9,9166],[96.9,9249],[96.9,9333],[96.9,9416],[95.4,9499]]",1354.8382,1358.3052,97.78125,2.2119,"[{""rating"":97.78125,""responseTime"":2.2118999999911466}]",space,2.9418,,1358.3053,Not at all,0,1358.309,,,[],,0,6,6,6,1,audio/Narrative7Situation6.wav,audio/Narrative8Situation6.wav,audio/Narrative5Situation6.wav,audio/Narrative6Situation6.wav,3,2,3,2,,,,,,,,,,,,,,,,,,,,,,,,,,,,,,,,,,,,,,,
,,,,,66fdd6ecd96e23c98cf47a4a,2025-07-08_00h11.55.998,group3.4_multiperson,2023.2.2,MacIntel,120.4819277,686c2ebf0248f13bef9af11f,686c9a7367c0d97a5fdccfec,,,,,,,,,,,,,,,,,,,,,,,,,,,,,1358.3094,1,audio/Narrative7Situation7.wav,1363.3134,,1363.3135,1380.4722,"[[99.2,1915],[99.2,1999],[99.2,2082],[98.2,2166],[100,15749],[99.5,15832],[99.5,15916],[96.2,15998],[91.1,16082],[87.2,16166],[86.1,16250],[85.1,16332],[84.7,16415],[84.5,16499],[85,16582],[89.6,16666],[91.5,16749],[91.9,16832],[92.1,16916],[92.2,16998],[92.7,17083]]",1380.4725,1389.1629,96.59418403,7.923,"[{""rating"":97.61241319444444,""responseTime"":2.237299999997049},{""rating"":96.59418402777777,""responseTime"":7.923000000000002}]",space,8.1676,,1389.163,Definitely yes,100,1389.1655,,,[],,0,7,7,7,1,audio/Narrative7Situation7.wav,audio/Narrative8Situation7.wav,audio/Narrative5Situation7.wav,audio/Narrative6Situation7.wav,5,3,4,5,,,,,,,,,,,,,,,,,,,,,,,,,,,,,,,,,,,,,,,
,,,,,66fdd6ecd96e23c98cf47a4a,2025-07-08_00h11.55.998,group3.4_multiperson,2023.2.2,MacIntel,120.4819277,686c2ebf0248f13bef9af11f,686c9a7367c0d97a5fdccfec,,,,,,,,,,,,,,,,,,,,,,,,,,,,,1389.1657,1,audio/Narrative7Situation8.wav,1391.1717,,1391.1718,1401.1797,"[[98.1,1500],[97.4,1581],[97.4,1665],[97.4,1749],[100,1832],[100,1916],[100,1999],[100,2082],[100,2166],[100,2249],[100,2331],[100,2417],[100,2498],[100,2582],[100,2666],[100,2749],[100,2832]]",1401.1797,1404.6378,93.27777778,2.7664,"[{""rating"":93.27777777777777,""responseTime"":2.7663999999911084}]",space,2.9364,,1404.638,Definitely yes,100,1409.4037,100,3.886,"[{""rating"":100,""responseTime"":3.8859999999999673}]",space,0,8,8,8,1,audio/Narrative7Situation8.wav,audio/Narrative8Situation8.wav,audio/Narrative5Situation8.wav,audio/Narrative6Situation8.wav,2,3,3,5,,,4.246,,,,,,,,,,,,,,,,,,,,,,,,,,,,,,,,,,,,
,,,,,66fdd6ecd96e23c98cf47a4a,2025-07-08_00h11.55.998,group3.4_multiperson,2023.2.2,MacIntel,120.4819277,686c2ebf0248f13bef9af11f,686c9a7367c0d97a5fdccfec,,,,,,,,,,,,,,,,,,,,,,,,,,,,,1409.4041,1,audio/Narrative7Situation9.wav,1411.4123,,1411.4125,1420.0212,[],1420.0214,1422.9129,98.21527778,1.7896,"[{""rating"":98.21527777777777,""responseTime"":1.789599999993925}]",space,2.37,,1422.9131,Partially,50,1422.9151,,,[],,0,9,9,9,1,audio/Narrative7Situation9.wav,audio/Narrative8Situation9.wav,audio/Narrative5Situation9.wav,audio/Narrative6Situation9.wav,2,3,3,4,,,,,,,,,,,,,,,,,,,,,,,,,,,,,,,,,,,,,,,
,,,,,66fdd6ecd96e23c98cf47a4a,2025-07-08_00h11.55.998,group3.4_multiperson,2023.2.2,MacIntel,120.4819277,686c2ebf0248f13bef9af11f,686c9a7367c0d97a5fdccfec,,,,,,,,,,,,,,,,,,,,,,,,,,,,,1422.9152,1,audio/Narrative8Situation1.wav,1427.9202,,1427.9202,1443.8314,"[[100,9250],[100,9334],[100,9417],[100,9501],[100,9583],[100,9667],[50.8,10916],[50.7,11000],[51.8,11083],[52.3,11167],[52.3,11250],[52.3,11334],[52.3,11417],[52.3,11501],[52.3,11583],[52.3,11667],[52.3,11751],[52.3,11834],[52.3,11917],[52.3,12000],[52.3,12084],[52.3,12167],[52.3,12251],[52.3,12334],[52.3,12416],[52.3,12500],[52.3,12584],[52.3,12667],[52.3,12751],[52.3,12833],[52.3,12917],[52.3,13001],[52.2,13084],[52.1,13166],[51.9,13251],[51.8,13335],[51.8,13417],[51.8,13501],[51.8,13583],[51.8,13667],[51.7,13750],[50.6,13833],[50.3,13917],[50.3,14002],[50.3,14083],[50.3,14167],[50.3,14250],[50.3,14333],[50.3,14417],[50.3,14500],[50.3,14584],[50.3,14667],[50.3,14750],[50.3,14834],[50.3,14916],[50.3,15000],[50.3,15084],[50.3,15167],[50.3,15250],[50.3,15333],[50.3,15416],[50.3,15500],[50.3,15583],[50.3,15667],[50.3,15751],[50.3,15834]]",1443.8316,1446.8143,50.24826389,2.9816,"[{""rating"":50.248263888888886,""responseTime"":2.981600000008939}]",space,0.352,,1446.8143,Not at all,0,1446.8162,,,[],,0,10,10,10,1,audio/Narrative8Situation1.wav,audio/Narrative7Situation1.wav,audio/Narrative6Situation1.wav,audio/Narrative5Situation1.wav,5,2,2,5,,,,,,,,,,,,,,,,,,,,,,,,,,,,,,,,,,,,,,,
,,,,,66fdd6ecd96e23c98cf47a4a,2025-07-08_00h11.55.998,group3.4_multiperson,2023.2.2,MacIntel,120.4819277,686c2ebf0248f13bef9af11f,686c9a7367c0d97a5fdccfec,,,,,,,,,,,,,,,,,,,,,,,,,,,,,1446.8163,1,audio/Narrative8Situation2.wav,1449.8217,,1449.8217,1459.9298,"[[999,0],[999,83],[999,166],[999,248],[999,333],[999,416],[999,499],[999,582],[999,665],[999,749],[999,832],[999,916],[999,999],[999,1082],[999,1165],[999,1249],[999,1333],[999,1416],[999,1499],[999,1582],[999,1666],[999,1749],[999,1832],[999,1915],[999,1998],[999,2083],[999,2166],[999,2249],[999,2331],[999,2415],[999,2499],[999,2582],[999,2666],[999,2749],[999,2831],[999,2915],[999,2999],[35.4,3083],[33.6,3166],[33.1,3249],[33.2,3331],[32.7,3416],[28.9,3499],[25.9,3582],[25.9,3666],[25.9,3749],[25.9,3833],[25.9,3916],[25.9,3998],[25.9,4081],[25.9,4166],[25.9,4249],[25.9,4333],[25.9,4416],[25.9,4500],[25.9,4583],[25.9,4666],[25.9,4749],[25.9,4832],[25.9,4916],[25.9,4998],[25.9,5083],[25.9,5166],[25.9,5249],[25.9,5332],[25.9,5415],[25.9,5499],[25.9,5583],[25.9,5665],[25.9,5748],[25.9,5831],[25.9,5916],[25.9,5998],[25.9,6081],[25.9,6166],[25.9,6249],[25.9,6333],[25.9,6415],[25.9,6499],[25.9,6583],[25.9,6666],[25.9,6749],[25.9,6832],[25.9,6916],[25.9,6999],[25.9,7082],[25.9,7166],[25.9,7249],[25.9,7331],[25.9,7415],[25.9,7499],[25.9,7582],[25.9,7666],[25.9,7749],[25.9,7832],[25.9,7915],[25.9,7999],[25.9,8082],[25.9,8165],[25.9,8249],[25.9,8333],[25.9,8416],[25.9,8499],[25.9,8583],[25.9,8665],[25.9,8749],[25.9,8833],[25.9,8916],[25.9,8999],[25.9,9082],[25.9,9166],[25.9,9248],[25.9,9333],[25.9,9416],[25.9,9499],[25.9,9583],[25.9,9665],[25.9,9750],[25.9,9833],[25.9,9916],[25.9,9998],[25.9,10082]]",1459.9301,1467.5038,23.88107639,5.6985,"[{""rating"":23.88107638888889,""responseTime"":5.698499999999967}]",space,7.0533,,1467.5039,Partially,50,1467.5065,,,[],,0,11,11,11,1,audio/Narrative8Situation2.wav,audio/Narrative7Situation2.wav,audio/Narrative6Situation2.wav,audio/Narrative5Situation2.wav,3,3,3,3,,,,,,,,,,,,,,,,,,,,,,,,,,,,,,,,,,,,,,,
,,,,,66fdd6ecd96e23c98cf47a4a,2025-07-08_00h11.55.998,group3.4_multiperson,2023.2.2,MacIntel,120.4819277,686c2ebf0248f13bef9af11f,686c9a7367c0d97a5fdccfec,,,,,,,,,,,,,,,,,,,,,,,,,,,,,1467.5067,1,audio/Narrative8Situation3.wav,1471.5135,,1471.5136,1493.8798,"[[999,0],[999,81],[999,165],[999,249],[999,332],[999,415],[999,499],[999,583],[999,665],[999,749],[999,833],[999,915],[999,998],[999,1082],[999,1166],[999,1250],[999,1332],[999,1416],[999,1499],[999,1582],[999,1665],[999,1749],[999,1832],[999,1915],[999,1998],[999,2082],[999,2166],[999,2249],[999,2331],[999,2414],[999,2499],[999,2582],[999,2666],[999,2749],[999,2832],[999,2916],[999,2998],[999,3083],[999,3164],[999,3249],[999,3332],[999,3416],[999,3499],[999,3583],[999,3665],[999,3748],[999,3831],[999,3916],[999,3999],[999,4082],[999,4166],[999,4249],[999,4333],[999,4415],[999,4498],[999,4581],[999,4666],[999,4748],[999,4833],[999,4916],[999,4999],[999,5082],[999,5166],[999,5249],[999,5332],[999,5416],[999,5498],[999,5582],[999,5666],[999,5749],[999,5832],[999,5916],[999,5999],[999,6084],[999,6165],[50.2,6249],[49.7,6331],[49.7,6416],[50.9,6498],[50.9,6581],[50.9,6666],[50.9,6749],[50.9,6832],[50.9,6915],[50.9,6998],[50.9,7082],[50.9,7165],[50.9,7248],[50.8,7333],[51.4,7416],[63.2,7499],[77.3,7584],[78.5,7666],[78.3,7750],[78.1,7832],[78,7916],[77.9,7999],[77.9,8082],[77.9,8165],[77.9,8249],[77.9,8333],[77.9,8415],[77.9,8499],[77.9,8581],[77.9,8666],[77.9,8749],[77.9,8832],[77.9,8916],[77.9,8999],[77.9,9082],[77.9,9165],[77.9,9248],[77.9,9332],[77.9,9416],[77.9,9499],[77.9,9582],[77.9,9666],[77.9,9749],[77.9,9833],[77.9,9916],[77.9,10000],[77.9,10082],[77.9,10165],[77.9,10249],[95.7,11167],[97.4,11249],[98.4,11332],[98.5,11416],[98.6,11499],[98.6,11582],[98.6,11666],[98.6,11749],[98.6,11832],[98.6,11915],[98.6,11999]]",1493.8799,1496.7214,98.41753472,1.657,"[{""rating"":98.41753472222223,""responseTime"":1.6570000000001528}]",space,2.3204,,1496.7214,Partially,50,1496.7228,,,[],,0,12,12,12,1,audio/Narrative8Situation3.wav,audio/Narrative7Situation3.wav,audio/Narrative6Situation3.wav,audio/Narrative5Situation3.wav,4,8,5,3,,,,,,,,,,,,,,,,,,,,,,,,,,,,,,,,,,,,,,,
,,,,,66fdd6ecd96e23c98cf47a4a,2025-07-08_00h11.55.998,group3.4_multiperson,2023.2.2,MacIntel,120.4819277,686c2ebf0248f13bef9af11f,686c9a7367c0d97a5fdccfec,,,,,,,,,,,,,,,,,,,,,,,,,,,,,1496.7229,1,audio/Narrative8Situation4.wav,1499.7304,,1499.7305,1513.8886,"[[999,1],[999,82],[999,165],[999,249],[999,332],[999,416],[999,498],[999,582],[999,666],[999,748],[999,832],[999,916],[999,999],[999,1082],[999,1165],[999,1249],[999,1331],[999,1415],[999,1498],[999,1582],[999,1665],[999,1749],[999,1832],[999,1915],[999,1999],[999,2082],[999,2166],[999,2249],[999,2333],[999,2415],[999,2499],[999,2582],[999,2664],[999,2748],[999,2832],[999,2915],[999,2998],[999,3081],[999,3165],[999,3249],[999,3331],[999,3418],[999,3499],[999,3581],[999,3666],[999,3748],[999,3831],[999,3915],[999,3998],[999,4085],[999,4164],[999,4248],[999,4332],[999,4415],[999,4499],[999,4582],[999,4665],[999,4749],[999,4832],[999,4915],[999,5000],[999,5082],[999,5165],[999,5249],[84.1,5332],[84.1,5414],[84.1,5498],[84.1,5583],[84.1,5665],[84,5748],[40,5832],[19.7,5914],[19.7,5999],[19.8,6082],[54.9,6164],[100,7082],[100,7165],[100,7249],[100,7332],[100,7415],[100,7499],[100,7581],[100,7665],[100,7749],[100,7832],[100,7916],[100,7999],[100,8081],[100,8165],[100,8248],[100,8331],[100,8415],[100,8499],[100,8582],[100,8664],[100,8749],[100,8832],[100,8916],[100,8998],[100,9082],[100,9165],[100,9249],[100,9332],[100,9416],[100,9499],[100,9582],[100,9665],[100,9749],[100,9832],[100,9915],[100,9999],[100,10083],[100,10165],[100,10248],[100,10332],[100,10415],[100,10498],[100,10582],[100,10665],[100,10749],[100,10831],[100,10915],[100,10999],[100,11082],[100,11165],[100,11249],[100,11331],[100,11415],[100,11499],[100,11582],[100,11665],[100,11747],[100,11831],[100,11915],[100,11999],[100,12081],[100,12164],[100,12248],[100,12332],[100,12415],[100,12500],[100,12582],[100,12665],[100,12749],[100,12832],[100,12915],[100,12999],[100,13082],[100,13167],[100,13249],[100,13331],[100,13415],[100,13499],[100,13581],[100,13665],[100,13749],[100,13832],[100,13915],[100,13998],[100,14082]]",1513.8887,1516.4879,98.80164931,1.9389,"[{""rating"":98.80164930555554,""responseTime"":1.9388999999910084}]",space,2.0805,,1516.488,Partially,50,1516.4892,,,[],,0,13,13,13,1,audio/Narrative8Situation4.wav,audio/Narrative7Situation4.wav,audio/Narrative6Situation4.wav,audio/Narrative5Situation4.wav,3,3,2,1,,,,,,,,,,,,,,,,,,,,,,,,,,,,,,,,,,,,,,,
,,,,,66fdd6ecd96e23c98cf47a4a,2025-07-08_00h11.55.998,group3.4_multiperson,2023.2.2,MacIntel,120.4819277,686c2ebf0248f13bef9af11f,686c9a7367c0d97a5fdccfec,,,,,,,,,,,,,,,,,,,,,,,,,,,,,1516.4894,1,audio/Narrative8Situation5.wav,1518.4968,,1518.497,1526.7295,"[[99.8,2416]]",1526.7295,1532.0555,99.52300347,3.4162,"[{""rating"":99.52300347222223,""responseTime"":3.416200000003073}]",space,4.81,,1532.0556,Definitely yes,100,1532.0595,,,[],,0,14,14,14,1,audio/Narrative8Situation5.wav,audio/Narrative7Situation5.wav,audio/Narrative6Situation5.wav,audio/Narrative5Situation5.wav,2,5,2,5,,,,,,,,,,,,,,,,,,,,,,,,,,,,,,,,,,,,,,,
,,,,,66fdd6ecd96e23c98cf47a4a,2025-07-08_00h11.55.998,group3.4_multiperson,2023.2.2,MacIntel,120.4819277,686c2ebf0248f13bef9af11f,686c9a7367c0d97a5fdccfec,,,,,,,,,,,,,,,,,,,,,,,,,,,,,1532.0597,1,audio/Narrative8Situation6.wav,1534.0629,,1534.063,1540.5129,"[[999,0],[999,82],[999,166],[999,250],[999,333],[999,415],[999,499],[999,582],[999,667],[999,749],[999,833],[999,916],[999,1000],[999,1082],[999,1166],[999,1250],[999,1333],[999,1416],[999,1499],[999,1582],[999,1666],[999,1749],[999,1833],[999,1915],[999,1999],[999,2083],[999,2166],[999,2250],[999,2332],[999,2416],[999,2500],[999,2583],[999,2665],[999,2749],[98.4,2833],[100,2918],[100,2998],[100,3082],[100,3166],[100,3249],[100,3332],[100,3417],[100,3499],[100,3584],[100,3666],[100,3750],[100,3832],[100,3916],[100,3999],[100,4083]]",1540.513,1546.1629,99.42621528,2.4078,"[{""rating"":99.42621527777777,""responseTime"":2.407799999996996}]",space,5.1359,,1546.163,Partially,50,1546.1654,,,[],,0,15,15,15,1,audio/Narrative8Situation6.wav,audio/Narrative7Situation6.wav,audio/Narrative6Situation6.wav,audio/Narrative5Situation6.wav,2,3,2,3,,,,,,,,,,,,,,,,,,,,,,,,,,,,,,,,,,,,,,,
,,,,,66fdd6ecd96e23c98cf47a4a,2025-07-08_00h11.55.998,group3.4_multiperson,2023.2.2,MacIntel,120.4819277,686c2ebf0248f13bef9af11f,686c9a7367c0d97a5fdccfec,,,,,,,,,,,,,,,,,,,,,,,,,,,,,1546.1656,1,audio/Narrative8Situation7.wav,1549.1718,,1549.1719,1561.2462,"[[100,8082],[100,8415],[100,9166],[100,9249],[100,9332],[99.9,9415],[99.4,9499],[99.4,9581],[99.4,9664],[99.4,9748],[99.3,9832],[99.3,9916],[99.3,9999],[99.3,10083],[99.3,10165],[99.3,10248],[99.3,10332],[99.3,10415],[99.3,10498],[99.3,10583],[99.3,10665],[99.3,10748],[99.3,10831],[99.3,10916],[99.3,10998],[99.3,11082],[99.3,11166],[99.3,11249],[99.3,11332],[99.3,11416],[99.3,11500],[99.3,11581],[99.3,11665],[99.3,11749],[99.3,11832],[99.3,11914],[99.3,11999]]",1561.2464,1562.9462,99.30121528,1.1488,"[{""rating"":99.30121527777777,""responseTime"":1.1487999999969816}]",space,1.1779,,1562.9463,Definitely yes,100,1562.9487,,,[],,0,16,16,16,1,audio/Narrative8Situation7.wav,audio/Narrative7Situation7.wav,audio/Narrative6Situation7.wav,audio/Narrative5Situation7.wav,3,5,5,4,,,,,,,,,,,,,,,,,,,,,,,,,,,,,,,,,,,,,,,
,,,,,66fdd6ecd96e23c98cf47a4a,2025-07-08_00h11.55.998,group3.4_multiperson,2023.2.2,MacIntel,120.4819277,686c2ebf0248f13bef9af11f,686c9a7367c0d97a5fdccfec,,,,,,,,,,,,,,,,,,,,,,,,,,,,,1562.9489,1,audio/Narrative8Situation8.wav,1565.9558,,1565.9559,1578.7967,"[[100,7248],[96.4,7331],[96.7,7415],[100,7498],[100,12248],[100,12332],[100,12416],[100,12498],[100,12581],[100,12664],[100,12748],[100,12831]]",1578.7967,1580.5371,97.64192708,1.4321,"[{""rating"":97.64192708333333,""responseTime"":1.4320999999938522}]",space,1.216,,1580.5372,Definitely yes,100,1580.5388,,,[],,0,17,17,17,1,audio/Narrative8Situation8.wav,audio/Narrative7Situation8.wav,audio/Narrative6Situation8.wav,audio/Narrative5Situation8.wav,3,2,5,3,,,,,,,,,,,,,,,,,,,,,,,,,,,,,,,,,,,,,,,
,,,,,66fdd6ecd96e23c98cf47a4a,2025-07-08_00h11.55.998,group3.4_multiperson,2023.2.2,MacIntel,120.4819277,686c2ebf0248f13bef9af11f,686c9a7367c0d97a5fdccfec,,,,,,,,,,,,,,,,,,,,,,,,,,,,,1580.5389,1,audio/Narrative8Situation9.wav,1583.5469,,1583.5472,1594.8629,"[[98.2,7001],[100,7748],[100,7832],[100,7916],[100,7999],[100,8082],[100,8165],[100,8248],[100,8331],[100,8415],[100,8499],[100,8582],[100,8666],[100,8748],[100,8832],[100,8916],[100,8999],[100,9082],[100,9165],[100,9248],[100,9334],[100,9415],[100,9498],[100,9582],[100,9665],[100,9749],[100,9832],[100,9915],[100,9998],[100,10082],[100,10165],[100,10248],[100,10332],[100,10415],[100,10499],[100,10582],[100,10664],[100,10748],[100,10832],[100,10915],[100,10999],[100,11081],[100,11165],[100,11248]]",1594.863,1597.1636,99.77560764,2.0343,"[{""rating"":99.77560763888889,""responseTime"":2.034299999996847}]",space,1.7771,,1597.1638,Partially,50,1597.166,,,[],,0,18,18,18,1,audio/Narrative8Situation9.wav,audio/Narrative7Situation9.wav,audio/Narrative6Situation9.wav,audio/Narrative5Situation9.wav,3,2,4,3,,,,,,,,,,,,,,,,,,,,,,,,,,,,,,,,,,,,,,,
,,,,,66fdd6ecd96e23c98cf47a4a,2025-07-08_00h11.55.998,group3.4_multiperson,2023.2.2,MacIntel,120.4819277,686c2ebf0248f13bef9af11f,686c9a7367c0d97a5fdccfec,,,,,,,,,,,,,,,,,,,,,,,,,,,1648.7465,1651.3217,1651.3377,2,audio/Narrative13Situation2.wav,1651.3377,,1651.3377,1681.0716,"[[100,3833],[97.1,4750],[99.4,4999],[98.3,5083],[99.1,5167],[99.6,5250],[99.6,5333],[99.6,5416],[99.6,5500],[99.6,5583],[99.6,5666],[99.6,5749],[99.6,5833],[99.6,5917],[99.6,6000],[99.6,6082],[99.6,6166],[99.6,6249],[99.6,6333],[99.6,6416],[99.6,6499],[99.6,6583],[99.6,6667],[99.6,6750],[99.6,6833],[99.6,6916],[99.6,6999],[99.6,7083],[99.6,7165],[98.8,7251],[100,8832],[100,8917],[100,9000],[100,9084],[100,9165],[100,9249],[100,9332],[100,9416],[100,9499],[100,9583],[100,9666],[100,9749],[100,9833],[100,9916],[100,9999],[100,10083],[100,10165],[100,10249],[100,10332],[100,10415],[100,10499],[100,10583],[100,10666],[100,10749],[100,10833],[100,10917],[100,10999],[100,11082],[100,11166],[100,11250],[100,11332],[100,11416],[100,11500],[100,11583],[100,11666],[100,11750],[100,11832],[100,11916],[100,11999],[100,12083],[100,12166],[100,12250],[100,12334],[100,12415],[100,12500],[100,12583],[100,12666],[100,12750],[100,12833],[100,12917],[100,13000],[100,13083],[100,13166],[100,13249],[100,13333],[100,13416],[98.6,13500],[97.6,13582],[100,13666],[100,13749],[100,13832],[100,13916],[100,14000],[100,14082],[100,14167],[100,14250],[100,14333],[100,14416],[100,14500],[100,14583],[100,14666],[100,14750],[100,14833],[100,14915],[100,15000],[100,15082],[100,15165],[100,15250],[100,15332],[100,15415],[100,15499],[100,15584],[100,15666],[100,15750],[100,15834],[100,15915],[98.4,16000],[98.1,16082],[98.1,16165],[98.1,16249],[98.1,16333],[98.1,16416],[99.3,16500],[100,16584],[100,16665],[100,16750],[100,16832],[100,16917],[100,16999],[100,17083],[100,17166],[100,17249],[100,17333],[100,17417],[100,17500],[100,17583],[100,17666],[100,17749],[100,17833],[100,17915],[100,18000],[100,18083],[100,18165],[100,18250],[100,18332],[100,18415],[100,18501],[100,18583],[100,18667],[100,18750],[100,18832],[100,18916],[100,18999],[100,19083],[100,19166],[100,19250],[100,19333],[100,19416],[100,19500],[100,19583],[100,19666],[100,19750],[100,19833],[100,19916],[100,19999],[100,20083],[99.8,20166],[99.9,20250],[100,20333],[100,20417],[100,20500],[100,20583],[100,20666],[100,20749],[100,20833],[100,20916],[100,20999],[100,21083],[100,21167],[100,21250],[100,21333],[100,21416],[100,21500],[100,21582],[100,21666],[100,21750],[100,21833],[100,21916],[100,21999],[100,22083],[100,22166],[100,22250],[100,22333],[100,22416],[100,22499],[100,22583],[100,22666],[100,22749],[100,22833],[100,22917],[100,23000],[100,23082],[100,23166],[100,23250],[100,23333],[100,23416],[100,23500],[100,23583],[100,23666],[100,23750],[100,23832],[100,23916],[100,23999],[100,24082],[100,24166],[100,24249],[100,24332],[100,24416],[100,24500],[100,24583],[100,25000],[100,25083],[100,25166],[100,25250],[100,25333],[100,25416],[100,25500],[100,25582],[100,25667],[100,25750],[100,25833],[100,25916],[100,26000],[100,26082],[100,26166],[100,26250],[100,26333],[100,26415],[100,26500],[100,26583],[100,26665],[100,26750],[100,26833],[100,26916],[100,27000],[100,27083],[100,27167],[100,27249],[100,27333],[100,27416],[100,27500],[100,27583],[100,27667],[100,27750],[100,27833],[100,27916],[100,28000],[100,28082],[100,28166],[100,28250],[100,28333],[100,28417],[100,28499],[100,28582],[100,28666],[100,28749],[100,28833],[100,28916],[100,28999],[100,29082],[100,29166],[100,29249],[100,29333],[100,29415],[100,29500],[100,29582],[100,29666]]",1681.0717,1681.0735,,,[],,,,1681.0736,Definitely yes,100,1681.0756,,,[],,0,0,0,0,1,audio/Narrative13Situation2.wav,audio/Narrative13Situation2.wav,audio/Narrative13Situation2.wav,audio/Narrative13Situation2.wav,2,2,2,2,,,,,1597.1663,1648.7462,space,51.0725,,,,,,,,,,,,,,,,,,,,,,,,,,,,,,,
,,,,,66fdd6ecd96e23c98cf47a4a,2025-07-08_00h11.55.998,group3.4_multiperson,2023.2.2,MacIntel,120.4819277,686c2ebf0248f13bef9af11f,686c9a7367c0d97a5fdccfec,,,,,,,,,,,,,,,,,,,,,,,,,,,,,1681.076,2,audio/Narrative5Situation1.wav,1686.08,,1686.0802,1699.3551,"[[999,1],[999,82],[999,166],[999,248],[999,331],[999,416],[999,499],[999,582],[999,666],[999,749],[999,832],[999,917],[999,1000],[999,1082],[999,1165],[999,1249],[999,1332],[999,1415],[999,1499],[999,1581],[999,1665],[999,1749],[999,1832],[999,1915],[999,1999],[999,2082],[999,2166],[999,2248],[999,2332],[999,2415],[999,2499],[999,2583],[999,2666],[999,2748],[999,2832],[999,2914],[999,2998],[999,3083],[999,3165],[999,3249],[999,3331],[999,3415],[999,3499],[999,3582],[999,3666],[999,3748],[999,3832],[999,3916],[999,3998],[999,4082],[999,4165],[999,4248],[999,4332],[999,4415],[999,4499],[999,4582],[999,4665],[999,4748],[999,4831],[999,4916],[999,4999],[999,5082],[999,5166],[999,5248],[999,5332],[999,5416],[999,5499],[999,5582],[43.9,5665],[47.2,5749],[52.2,5832],[53.2,5915],[53.1,5999],[53,6082],[52.8,6166],[52,6249],[53,6331],[71.9,6416],[86.5,6499],[88.1,6582],[88.1,6665],[88.1,6748],[88.3,6832],[88.3,6915],[88.3,6999],[88.3,7082],[88.3,7166],[88.3,7249],[88.3,7332],[88.3,7416],[88.3,7499],[88.3,7582],[88.3,7666],[88.3,7748],[88.3,7832],[88.3,7915],[88.3,7999],[88.3,8082],[88.3,8165],[88.3,8249],[88.3,8332],[88.3,8416],[88.3,8498],[88.3,8583],[88.3,8666],[88.3,8748],[88.3,8832],[88.3,8916],[88.3,8999],[88.3,9082],[88.3,9165],[88.3,9249],[88.3,9331],[88.3,9416],[88.3,9498],[88.3,9582],[88.3,9666],[88.3,9749],[88.3,9833],[88.3,9916],[88.3,9999],[88.3,10083],[93.9,10166],[99.7,10248],[100,10332],[100,10416],[100,10499],[100,10582],[100,10665],[100,10748],[100,10832],[100,10916],[100,10999],[100,11082],[100,11166],[100,11249],[100,11331],[100,11416],[100,11499],[100,11581],[100,11665],[100,11749],[100,11833],[100,11916],[100,11999],[100,12082],[100,12164],[100,12249],[100,12331],[100,12416],[100,12499],[100,12582],[100,12664],[100,12748],[100,12832],[100,12915],[100,12998],[100,13082],[100,13166],[100,13249]]",1699.3555,1703.6132,99.45355903,3.5605,"[{""rating"":99.45355902777777,""responseTime"":3.56049999999982}]",space,3.7318,,1703.6132,Definitely yes,100,1706.9046,100,2.7301,"[{""rating"":97.20269097222223,""responseTime"":2.1800000000000637},{""rating"":100,""responseTime"":2.7300999999940814}]",space,0,1,1,1,1,audio/Narrative7Situation1.wav,audio/Narrative8Situation1.wav,audio/Narrative5Situation1.wav,audio/Narrative6Situation1.wav,2,5,5,2,,,2.7693,,,,,,,,,,,,,,,,,,,,,,,,,,,,,,,,,,,,
,,,,,66fdd6ecd96e23c98cf47a4a,2025-07-08_00h11.55.998,group3.4_multiperson,2023.2.2,MacIntel,120.4819277,686c2ebf0248f13bef9af11f,686c9a7367c0d97a5fdccfec,,,,,,,,,,,,,,,,,,,,,,,,,,,,,1706.905,2,audio/Narrative5Situation2.wav,1709.9131,,1709.9133,1739.3624,"[[100,1416],[99.3,2499],[99.4,2582],[100,2667],[100,2749],[100,2832],[100,2915],[100,2998],[100,3081],[100,3165],[100,3250],[100,3332],[100,3416],[100,3499],[100,3581],[100,3665],[100,3749],[100,3832],[100,3915],[100,3999],[100,4082],[100,4166],[100,4250],[100,4332],[100,4416],[100,4499],[100,4583],[100,4666],[100,4749],[100,4831],[100,4916],[100,4999],[100,5082],[100,5166],[100,5249],[100,5332],[100,5416],[100,5499],[100,5582],[100,5665],[100,5748],[100,5833],[100,5915],[100,5999],[100,6082],[100,6166],[100,6248],[100,6332],[100,6416],[100,6499],[100,6581],[100,6665],[100,6748],[100,6832],[100,6915],[100,6998],[100,7081],[100,7166],[100,7249],[100,7333],[100,7415],[100,7499],[100,7583],[100,7665],[100,7748],[100,7832],[100,7915],[100,7999],[100,8083],[100,8165],[100,8249],[100,8332],[100,8415],[100,8498],[100,8582],[100,8665],[100,8749],[100,8832],[100,8916],[100,8998],[100,9082],[100,9165],[100,9249],[100,9336],[100,9416],[100,9499],[100,9583],[100,9665],[100,9749],[100,9832],[100,9916],[100,9999],[100,10083],[100,10166],[100,10249],[100,10333],[100,10415],[100,10499],[100,10583],[100,10667],[100,10748],[100,10833],[100,10915],[100,10999],[100,11082],[100,11165],[100,11249],[100,11333],[100,11416],[100,11499],[100,11582],[100,11666],[100,11749],[100,11832],[100,11916],[100,11999],[100,12082],[100,12166],[100,12249],[100,12332],[100,12416],[100,12498],[100,12582],[100,12666],[100,12749],[100,12832],[100,12916],[100,12998],[100,13082],[100,13165],[100,13248],[100,13332],[100,13415],[100,13499],[100,13583],[100,13665],[100,13749],[100,13831],[100,13916],[100,13999],[100,14082],[100,14166],[100,14249],[100,14331],[100,14415],[100,14499],[100,14583],[100,14666],[100,14749],[100,14832],[100,14916],[100,14998],[100,15082],[100,15166],[100,15249],[100,15332],[100,15415],[100,15499],[100,15582],[100,15665],[100,15749],[100,15833],[100,15915],[100,16000],[100,16082],[100,16165],[100,16249],[100,16332],[100,16416],[100,16499],[100,16582],[100,16666],[100,16749],[100,16831],[100,16915],[100,17000],[100,17082],[100,17166],[100,17249],[100,17332],[100,17415],[100,17498],[100,17582],[100,17665],[100,17749],[100,17832],[100,17915],[100,17998],[100,18082],[100,18165],[100,18249],[100,18333],[100,18416],[100,18499],[100,18582],[100,18665],[100,18749],[100,18832],[100,18920],[100,18999],[100,19082],[100,19165],[100,19248],[100,19331],[100,19415],[100,19499],[100,19582],[100,19665],[100,19748],[100,19832],[100,19916],[100,19999],[100,20082],[100,20165],[100,20249],[100,20332],[100,20415],[100,20499],[100,20582],[100,20666],[100,20749],[100,20833],[100,20917],[100,20999],[100,21082],[100,21167],[100,21249],[100,21331],[100,21416],[100,21499],[100,21582],[100,21666],[100,21749],[100,21831],[100,21916],[100,21998],[100,22082],[100,22166],[100,22249],[100,22332],[100,22416],[100,22499],[100,22582],[100,22665],[100,22749],[100,22832],[100,22915],[100,22998],[100,23082],[100,23165],[100,23249],[100,23331],[100,23415],[100,23499],[100,23582],[100,23666],[100,23749],[100,23832],[100,23915],[100,23999],[100,24082],[100,24165],[100,24249],[100,24331],[100,24416],[100,24499],[100,24582],[100,24666],[100,24748],[100,24833],[100,24915],[100,24999],[100,25082],[100,25165],[100,25249],[100,25333],[100,25416],[100,25499],[100,25582],[100,25665],[100,25749],[100,25832],[100,25916],[100,25998],[100,26082],[100,26166],[100,26249],[100,26333],[100,26416],[100,26499],[100,26582],[100,26666],[100,26749],[100,26833],[100,26916],[100,26999],[100,27082],[100,27166],[100,27249],[100,27332],[100,27416],[100,27499],[100,27582],[100,27666],[100,27748],[100,27832],[100,27915],[100,27999],[100,28082],[100,28165],[100,28249],[100,28333],[100,28415],[100,28498],[100,28582],[100,28666],[100,28749],[100,28832],[100,28915],[100,28999],[100,29082],[100,29166],[100,29248],[100,29333],[100,29416]]",1739.3627,1741.8292,98.52734375,2.024,"[{""rating"":98.52734375,""responseTime"":2.0239999999998872}]",space,1.9573,,1741.8293,Definitely yes,100,1741.8307,,,[],,0,2,2,2,1,audio/Narrative7Situation2.wav,audio/Narrative8Situation2.wav,audio/Narrative5Situation2.wav,audio/Narrative6Situation2.wav,3,3,3,3,,,,,,,,,,,,,,,,,,,,,,,,,,,,,,,,,,,,,,,
,,,,,66fdd6ecd96e23c98cf47a4a,2025-07-08_00h11.55.998,group3.4_multiperson,2023.2.2,MacIntel,120.4819277,686c2ebf0248f13bef9af11f,686c9a7367c0d97a5fdccfec,,,,,,,,,,,,,,,,,,,,,,,,,,,,,1741.8309,2,audio/Narrative5Situation3.wav,1744.8382,,1744.8383,1758.7373,"[[100,13583]]",1758.7374,1761.1294,97.17230903,1.2165,"[{""rating"":97.17230902777779,""responseTime"":1.2164999999999964}]",space,1.8704,,1761.1295,Definitely yes,100,1761.1309,,,[],,0,3,3,3,1,audio/Narrative7Situation3.wav,audio/Narrative8Situation3.wav,audio/Narrative5Situation3.wav,audio/Narrative6Situation3.wav,8,4,3,5,,,,,,,,,,,,,,,,,,,,,,,,,,,,,,,,,,,,,,,
,,,,,66fdd6ecd96e23c98cf47a4a,2025-07-08_00h11.55.998,group3.4_multiperson,2023.2.2,MacIntel,120.4819277,686c2ebf0248f13bef9af11f,686c9a7367c0d97a5fdccfec,,,,,,,,,,,,,,,,,,,,,,,,,,,,,1761.1311,2,audio/Narrative5Situation4.wav,1762.1381,,1762.1382,1782.5244,"[[999,0],[999,83],[999,165],[999,249],[999,332],[999,416],[999,499],[999,583],[999,666],[999,749],[999,832],[999,916],[999,999],[999,1082],[999,1166],[999,1249],[999,1333],[100,1416],[99.5,1499],[98.6,1582],[98.6,1665],[98.9,1749],[98.9,1833],[98.9,1915],[99.3,1998],[100,2082],[100,2166],[100,2249],[100,2332],[100,2416],[100,2499],[100,2582],[100,2666],[100,2749],[100,2832],[100,2916],[100,2998],[100,3083],[100,3166],[100,3249],[100,3333],[100,3416],[100,3499],[100,3583],[100,3665],[100,3749],[100,3833],[100,3916],[100,3999],[100,4083],[100,4166],[100,4249],[100,4332],[100,4415],[100,4499],[100,4582],[100,4666],[100,4749],[100,4832],[100,4916],[100,5000],[100,5082],[100,5165],[100,5249],[100,5333],[100,5416],[100,5498],[100,5582],[100,5666],[100,5749],[100,5833],[100,5915],[100,5999],[100,6082],[100,6165],[100,6248],[100,6332],[100,6415],[100,6500],[100,6583],[100,6665],[100,6749],[100,6833],[100,6916],[100,6999],[100,7082],[100,7165],[100,7249],[100,7333],[100,7416],[100,7499],[100,7583],[100,7666],[100,7749],[100,7833],[100,7916],[100,7999],[100,8082],[100,8165],[100,8249],[100,8333],[100,8416],[100,8499],[100,8583],[100,8665],[100,8748],[100,8833],[100,8915],[100,8998],[100,9083],[100,9166],[100,9248],[100,9333],[100,9412],[100,9494],[100,9577],[100,9662],[100,9744],[100,9827],[100,9911],[100,9995],[100,10077],[100,10161],[100,10244],[100,10327],[100,10412],[100,10494],[100,10577],[100,10662],[100,10745],[100,10829],[100,10912],[100,10995],[100,11078],[100,11162],[100,11245],[100,11328],[100,11412],[100,11495],[100,11579],[100,11661],[100,11745],[100,11828],[100,11912],[100,11995],[100,12078],[100,12161],[100,12245],[100,12328],[100,12412],[100,12494],[100,12578],[100,12662],[100,12745],[100,12828],[100,12912],[100,12994],[100,13078],[100,13161],[100,13244],[100,13328],[100,13411],[100,13494],[100,13578],[100,13662],[100,13745],[100,13828],[100,13912],[100,13995],[100,14079],[100,14161],[100,14245],[100,14328],[100,14411],[100,14495],[100,14578],[100,14662],[100,14745],[100,14828],[100,14911],[100,14994],[100,15077],[100,15162],[100,15245],[100,15329],[100,15411],[100,15495],[100,15578],[100,15662],[100,15745],[100,15828],[100,15911],[100,15995],[100,16077],[100,16161],[100,16244],[100,16328],[100,16412],[100,16495],[100,16578],[100,16662],[100,16744],[100,16828],[100,16912],[100,16995],[100,17078],[100,17162],[100,17245],[100,17327],[100,17412],[100,17495],[100,17578],[100,17662],[100,17745],[100,17828],[100,17912],[100,17995],[100,18078],[100,18162],[100,18245],[100,18328],[100,18412],[100,18494],[100,18579],[100,18661],[100,18745],[100,18828],[100,18911],[100,18996],[100,19077],[100,19162],[100,19245],[100,19329],[100,19411],[100,19495],[100,19578],[100,19663],[100,19744],[100,19828],[100,19911]]",1782.5245,1784.2838,99.56032986,1.2396,"[{""rating"":99.56032986111111,""responseTime"":1.2395999999939704}]",space,1.2473,,1784.2838,Definitely yes,100,1784.2854,,,[],,0,4,4,4,1,audio/Narrative7Situation4.wav,audio/Narrative8Situation4.wav,audio/Narrative5Situation4.wav,audio/Narrative6Situation4.wav,3,3,1,2,,,,,,,,,,,,,,,,,,,,,,,,,,,,,,,,,,,,,,,
,,,,,66fdd6ecd96e23c98cf47a4a,2025-07-08_00h11.55.998,group3.4_multiperson,2023.2.2,MacIntel,120.4819277,686c2ebf0248f13bef9af11f,686c9a7367c0d97a5fdccfec,,,,,,,,,,,,,,,,,,,,,,,,,,,,,1784.2857,2,audio/Narrative5Situation5.wav,1789.2912,,1789.2914,1804.6962,[],1804.6965,1813.4628,20.26432292,8.0469,"[{""rating"":48.79340277777778,""responseTime"":2.80600000000004},{""rating"":20.264322916666664,""responseTime"":8.046899999991183}]",space,8.2429,,1813.4628,Partially,50,1813.4647,,,[],,0,5,5,5,1,audio/Narrative7Situation5.wav,audio/Narrative8Situation5.wav,audio/Narrative5Situation5.wav,audio/Narrative6Situation5.wav,5,2,5,2,,,,,,,,,,,,,,,,,,,,,,,,,,,,,,,,,,,,,,,
,,,,,66fdd6ecd96e23c98cf47a4a,2025-07-08_00h11.55.998,group3.4_multiperson,2023.2.2,MacIntel,120.4819277,686c2ebf0248f13bef9af11f,686c9a7367c0d97a5fdccfec,,,,,,,,,,,,,,,,,,,,,,,,,,,,,1813.4648,2,audio/Narrative5Situation6.wav,1816.471,,1816.4712,1822.1381,"[[999,0],[999,83],[999,165],[999,249],[999,332],[999,416],[999,500],[999,583],[999,666],[999,748],[999,833],[999,916],[999,999],[999,1084],[999,1165],[999,1250],[999,1332],[999,1415],[999,1499],[999,1583],[999,1666],[999,1750],[999,1833],[999,1915],[999,1999],[999,2082],[999,2166],[999,2250],[999,2332],[999,2416],[999,2499],[999,2582],[999,2666],[999,2749],[999,2833],[999,2916],[999,3000],[999,3083],[999,3166],[999,3249],[999,3333],[999,3416],[999,3500],[999,3584],[999,3666],[999,3749],[999,3833],[999,3915],[999,3999],[999,4082],[999,4166],[999,4249],[999,4333],[999,4416],[999,4499],[999,4583],[999,4666],[999,4749],[999,4832],[999,4915],[999,4998],[999,5083],[999,5165],[999,5249],[999,5333],[999,5416],[999,5499],[999,5583],[999,5666]]",1822.1383,1823.6393,99.40798611,1.0947,"[{""rating"":99.40798611111111,""responseTime"":1.094700000002831}]",space,0.9752,,1823.6394,Not at all,0,1823.6432,,,[],,0,6,6,6,1,audio/Narrative7Situation6.wav,audio/Narrative8Situation6.wav,audio/Narrative5Situation6.wav,audio/Narrative6Situation6.wav,3,2,3,2,,,,,,,,,,,,,,,,,,,,,,,,,,,,,,,,,,,,,,,
,,,,,66fdd6ecd96e23c98cf47a4a,2025-07-08_00h11.55.998,group3.4_multiperson,2023.2.2,MacIntel,120.4819277,686c2ebf0248f13bef9af11f,686c9a7367c0d97a5fdccfec,,,,,,,,,,,,,,,,,,,,,,,,,,,,,1823.6434,2,audio/Narrative5Situation7.wav,1827.6463,,1827.6463,1848.671,"[[999,0],[999,83],[999,166],[999,250],[999,334],[999,416],[999,499],[999,584],[999,667],[999,749],[999,833],[999,916],[999,1000],[999,1083],[99.2,1167],[100,1415],[100,1500],[100,1583],[100,1666],[100,1749],[100,1832],[100,1915],[100,1999],[100,2082],[100,2166],[100,2250],[100,2333],[100,2415],[100,2499],[100,2583],[100,2666],[100,2749],[100,2832],[100,2916],[100,2999],[100,3083],[100,3166],[100,3249],[100,3333],[100,3416],[100,3499],[100,3583],[100,3666],[100,3748],[100,3833],[100,3916],[100,3999],[100,4083],[100,4166],[100,4249],[100,4332],[100,4416],[100,4499],[100,4583],[100,4667],[100,4749],[100,4833],[100,4916],[100,4999],[100,5082],[100,5166],[100,5249],[100,5333],[100,5417],[100,5500],[100,5583],[100,5666],[100,5749],[100,5833],[100,5915],[100,5999],[100,6083],[100,6166],[100,6250],[100,6333],[100,6416],[100,6499],[100,6583],[100,6666],[100,6750],[100,6833],[100,6916],[100,6998],[100,7083],[100,7166],[100,7250],[100,7332],[100,7416],[100,7499],[100,7582],[100,7665],[100,7749],[100,7833],[100,7915],[100,7999],[100,8083],[100,8166],[100,8249],[100,8333],[100,8415],[100,8499],[100,8582],[100,8666],[100,8749],[100,8834],[100,8916],[100,9000],[100,9083],[100,9166],[100,9250],[100,9332],[100,9415],[100,9499],[100,9582],[100,9666],[100,9749],[100,9833],[100,9916],[100,10000],[100,10083],[100,10166],[100,10250],[100,10332],[100,10416],[100,10500],[100,10583],[100,10666],[100,10750],[100,10833],[100,10916],[100,11000],[100,11082],[100,11165],[100,11249],[100,11333],[100,11416],[100,11499],[100,11583],[100,11666],[100,11749],[100,11833],[100,11916],[100,11999],[100,12083],[100,12165],[100,12249],[100,12332],[100,12416],[100,12499],[100,12583],[100,12666],[100,12749],[100,12833],[100,12916],[100,12999],[100,13083],[100,13166],[100,13250],[100,13333],[100,13416],[100,13498],[100,13583],[100,13665],[100,13749],[100,13832],[100,13916],[100,14000],[100,14083],[100,14165],[100,14250],[100,14333],[100,14416],[100,14498],[100,14582],[100,14666],[100,14749],[100,14832],[100,14916],[100,14999],[100,15083],[100,15165],[100,15249],[100,15334],[100,15416],[100,15499],[100,15582],[100,15666],[100,15749],[100,15832],[100,15916],[100,15999],[100,16082],[100,16166],[100,16249],[100,16333],[100,16583],[100,16833],[100,16916],[100,16998],[100,17082],[100,17166],[100,17249],[100,17333],[100,17416],[100,17499],[100,17583],[100,17666],[100,17750],[100,17833],[100,17916],[100,17999],[100,18083],[100,18166],[100,18249],[100,18333],[100,18416],[100,18499],[100,18583],[100,18666],[100,18750],[100,18833],[100,18915],[100,18999],[100,19083],[100,19166],[100,19249],[100,19332],[100,19416],[100,19499],[100,19583],[100,19666],[100,19750],[100,19833],[100,19916],[100,19999],[100,20083],[100,20166],[100,20249],[100,20333],[100,20415],[100,20499],[100,20583],[100,20665],[100,20749],[100,20832],[100,20916],[100,20999]]",1848.6714,1854.0711,20.59982639,5.247,"[{""rating"":12.311197916666666,""responseTime"":3.9829999999999472},{""rating"":20.599826388888886,""responseTime"":5.247000000000071}]",space,4.8754,,1854.0711,Not at all,0,1854.0726,,,[],,0,7,7,7,1,audio/Narrative7Situation7.wav,audio/Narrative8Situation7.wav,audio/Narrative5Situation7.wav,audio/Narrative6Situation7.wav,5,3,4,5,,,,,,,,,,,,,,,,,,,,,,,,,,,,,,,,,,,,,,,
,,,,,66fdd6ecd96e23c98cf47a4a,2025-07-08_00h11.55.998,group3.4_multiperson,2023.2.2,MacIntel,120.4819277,686c2ebf0248f13bef9af11f,686c9a7367c0d97a5fdccfec,,,,,,,,,,,,,,,,,,,,,,,,,,,,,1854.0728,2,audio/Narrative5Situation8.wav,1857.0801,,1857.0801,1865.888,"[[24.1,6582],[42.5,6666],[100,7583],[100,7665],[100,7749],[100,7832],[100,7915],[100,7998],[100,8081],[100,8165],[100,8249],[100,8331]]",1865.8881,1867.5961,99.30772569,1.4786,"[{""rating"":99.30772569444444,""responseTime"":1.4785999999940032}]",space,1.1938,,1867.5963,Definitely yes,100,1867.5988,,,[],,0,8,8,8,1,audio/Narrative7Situation8.wav,audio/Narrative8Situation8.wav,audio/Narrative5Situation8.wav,audio/Narrative6Situation8.wav,2,3,3,5,,,,,,,,,,,,,,,,,,,,,,,,,,,,,,,,,,,,,,,
,,,,,66fdd6ecd96e23c98cf47a4a,2025-07-08_00h11.55.998,group3.4_multiperson,2023.2.2,MacIntel,120.4819277,686c2ebf0248f13bef9af11f,686c9a7367c0d97a5fdccfec,,,,,,,,,,,,,,,,,,,,,,,,,,,,,1867.5989,2,audio/Narrative5Situation9.wav,1870.6039,,1870.6042,1910.131,"[[100,8250],[100,8333],[100,8417],[100,8500],[100,8583],[100,8665],[100,8750],[100,8834],[100,8916],[100,9000],[100,9084],[100,9167],[100,9249],[100,9332],[100,9416],[100,9500],[100,9583],[100,9666],[100,9750],[100,9833],[100,9917],[100,9999],[100,10082],[100,10166],[100,10249],[100,10334],[100,10416],[100,10500],[100,10583],[100,10665],[100,10750],[100,10833],[100,10916],[100,11000],[100,11083],[100,11166],[100,11250],[100,11333],[100,11416],[100,11500],[100,11583],[100,11667],[100,11750],[100,11833],[100,11916],[100,12000],[100,12083],[100,12168],[100,12249],[100,12333],[100,12416],[100,12500],[100,12583],[100,12667],[100,12749],[100,12833],[100,12916],[100,13000],[100,13083],[100,13167],[100,13250],[100,13332],[100,13416],[100,13500],[100,13583],[100,13666],[100,13750],[100,13833],[100,13917],[100,14001],[100,14083],[100,14167],[100,14250],[100,14333],[100,14417],[100,14500],[100,14584],[100,14666],[100,14750],[100,14832],[100,14917],[100,15001],[100,15083],[100,15167],[100,15249],[100,15334],[100,15417],[100,15500],[100,15583],[100,15666],[100,15750],[100,15833],[100,15917],[100,15999],[100,16083],[100,16166],[100,16250],[100,16333],[100,16417],[100,16501],[100,16583],[100,16666],[100,16750],[100,16833],[100,16916],[100,17000],[100,17083],[100,17167],[100,17250],[100,17332],[100,17416],[100,17500],[100,17582],[100,17667],[100,17749],[100,17833],[100,17916],[100,17999],[100,18082],[100,18166],[100,18249],[100,18332],[100,18417],[100,18500],[100,18584],[100,18667],[100,18750],[100,18833],[100,18916],[100,19000],[100,19083],[100,19166],[100,19250],[100,19334],[100,19416],[100,19500],[100,19583],[100,19666],[100,19749],[100,19833],[100,19916],[100,20000],[100,20083],[100,20166],[100,20250],[100,20333],[100,20416],[100,20500],[100,20583],[100,20667],[100,20749],[100,20832],[100,20917],[100,21000],[100,21083],[100,21167],[100,21250],[100,21333],[100,21417],[100,21500],[100,21582],[100,21666],[100,21749],[100,21833],[100,21916],[100,22000],[100,22084],[100,22167],[100,22249],[100,22333],[100,22417],[100,22500],[100,22583],[100,22666],[100,22749],[100,22834],[100,22917],[100,23000],[100,23083],[100,23167],[100,23250],[100,23333],[100,23416],[100,23499],[100,23583],[100,23666],[100,23750],[100,23833],[100,23916],[100,23999],[100,24082],[100,24166],[100,24249],[100,24333],[100,24416],[100,24499],[100,24583],[100,24666],[100,24750],[100,24832],[100,24917],[100,24999],[100,25084],[100,25167],[100,25250],[100,25334],[100,25416],[100,25500],[100,25583],[100,25666],[100,25749],[100,25833],[100,25917],[100,26000],[100,26083],[100,26167],[100,26250],[100,26333],[100,26417],[100,26500],[100,26583],[100,26666],[100,26750],[100,26833],[100,26916],[100,27000],[100,27083],[100,27167],[100,27249],[100,27333],[100,27416],[100,27500],[100,27582],[100,27666],[100,27749],[100,27833],[100,27916],[100,28000],[100,28083],[100,28167],[100,28250],[100,28333],[100,28416],[100,28500],[100,28583],[100,28666],[100,28750],[100,28833],[100,28916],[100,29000],[100,29083],[100,29166],[100,29250],[100,29332],[100,29416],[100,29500],[100,29583],[100,29666],[100,29750],[100,29833],[100,29916],[100,29999],[100,30083],[100,30166],[100,30250],[100,30333],[100,30416],[100,30500],[100,30583],[100,30666],[100,30750],[100,30833],[100,30917],[100,31000],[100,31083],[100,31167],[100,31249],[100,31333],[100,31416],[100,31500],[100,31583],[100,31666],[100,31749],[100,31833],[100,31917],[100,32000],[100,32084],[100,32167],[100,32250],[100,32333],[100,32416],[100,32500],[100,32582],[100,32666],[100,32750],[100,32832],[100,32917],[100,33000],[100,33083],[100,33166],[100,33250],[100,33332],[100,33417],[100,33499],[100,33583],[100,33667],[100,33750],[100,33833],[100,33917],[100,34000],[100,34083],[100,34166],[100,34249],[100,34333],[100,34416],[100,34500],[100,34583],[100,34666],[100,34750],[100,34833],[100,34916],[100,35000],[100,35083],[100,35166],[100,35250],[100,35333],[100,35416],[100,35500],[100,35583],[100,35666],[100,35750],[100,35833],[100,35916],[100,36000],[100,36084],[100,36166],[100,36249],[100,36334],[100,36416],[100,36500],[100,36583],[100,36666],[100,36750],[100,36833],[100,36916],[100,37000],[100,37083],[100,37167],[100,37250],[100,37333],[100,37417],[100,37499],[100,37582],[100,37666],[100,37749],[100,37833],[100,37916],[100,38000],[100,38083],[100,38167],[100,38254],[100,38333],[100,38416],[100,38500],[100,38583],[100,38666],[100,38750],[100,38832],[100,38916],[100,39000],[100,39084],[100,39166],[100,39250],[100,39333],[100,39417]]",1910.1312,1911.6212,99.57074653,0.763,"[{""rating"":99.57074652777777,""responseTime"":0.76299999999992}]",space,0.9696,,1911.6213,Definitely yes,100,1911.6226,,,[],,0,9,9,9,1,audio/Narrative7Situation9.wav,audio/Narrative8Situation9.wav,audio/Narrative5Situation9.wav,audio/Narrative6Situation9.wav,2,3,3,4,,,,,,,,,,,,,,,,,,,,,,,,,,,,,,,,,,,,,,,
,,,,,66fdd6ecd96e23c98cf47a4a,2025-07-08_00h11.55.998,group3.4_multiperson,2023.2.2,MacIntel,120.4819277,686c2ebf0248f13bef9af11f,686c9a7367c0d97a5fdccfec,,,,,,,,,,,,,,,,,,,,,,,,,,,,,1911.6228,2,audio/Narrative6Situation1.wav,1913.6301,,1913.6302,1940.1963,"[[19.3,19750],[10.1,19999],[10,20082],[9.9,20166],[9.8,20249],[7.9,20332],[2.8,20416],[1.1,20499],[3.5,20582],[18.2,20665],[21.2,20749],[21.3,20832],[17.6,20916],[13.7,20999],[12.7,21082],[12.7,21165],[18.9,21250],[70.8,21999],[57.5,22082],[51.2,22166],[52.7,22249],[53.5,22332],[51.2,22416],[50.9,22499],[50.9,22582],[50.9,22666],[50.9,22750],[50.9,22832],[50.9,22916],[50.9,22999],[50.9,23082],[50.9,23165],[50.9,23249],[50.9,23332],[50.9,23415],[50.9,23499],[50.9,23582],[50.9,23665],[50.9,23749],[50.9,23832],[50.9,23917],[50.9,23999],[50.9,24081],[50.9,24166],[50.9,24248],[50.9,24332],[50.9,24415],[50.9,24499],[50.9,24582],[50.9,24665],[50.9,24749],[50.9,24833],[50.9,24915],[50.9,24999],[50.9,25082],[50.9,25165],[50.9,25249],[50.9,25332],[50.9,25415],[50.9,25499],[50.9,25582],[50.9,25666],[50.9,25749],[50.9,25832],[50.9,25915],[50.9,25999],[50.9,26082],[50.9,26165],[50.9,26249],[50.9,26333],[50.9,26415],[50.9,26499]]",1940.1965,1942.846,98.00607639,1.52,"[{""rating"":98.0060763888889,""responseTime"":1.5199999999999818}]",space,2.1345,,1942.8461,Not at all,0,1942.8481,,,[],,0,10,10,10,1,audio/Narrative8Situation1.wav,audio/Narrative7Situation1.wav,audio/Narrative6Situation1.wav,audio/Narrative5Situation1.wav,5,2,2,5,,,,,,,,,,,,,,,,,,,,,,,,,,,,,,,,,,,,,,,
,,,,,66fdd6ecd96e23c98cf47a4a,2025-07-08_00h11.55.998,group3.4_multiperson,2023.2.2,MacIntel,120.4819277,686c2ebf0248f13bef9af11f,686c9a7367c0d97a5fdccfec,,,,,,,,,,,,,,,,,,,,,,,,,,,,,1942.8482,2,audio/Narrative6Situation2.wav,1945.8548,,1945.8548,1974.3467,"[[98.2,1999],[95.3,19249],[93.2,19333],[95.6,19417],[99.2,19499],[99.4,19582],[99.4,19666],[99.4,19749],[99.4,19832],[99.4,19916],[99.4,20000],[99.4,20082],[99.4,20165],[99.4,20249],[99.4,20332],[99.4,20416],[99.4,20499],[99.4,20582],[99.4,20666],[99.4,20750],[99.4,20833],[99.4,20916],[99.4,20999],[99.4,21083],[99.4,21166],[99.4,21250],[99.4,21333],[99.4,21416],[99.4,21498],[99.4,21583],[99.4,21666],[99.4,21749],[99.4,21833],[99.4,21915],[99.4,22000],[99.4,22083],[99.4,22165],[99.4,22249],[99.4,22333],[99.4,22416],[99.4,22500],[99.4,22583],[99.4,22665],[99.4,22748],[99.4,22833],[99.4,22916],[99.4,22999],[99.4,23083],[99.4,23166],[99.4,23250],[99.4,23332],[99.4,23416],[99.4,23499],[99.4,23582],[99.4,23666],[99.4,23749],[99.4,23832],[99.4,23915],[99.4,23999],[99.4,24083],[99.4,24166],[99.4,24249],[99.4,24333],[99.4,24415],[99.4,24499],[99.4,24583],[99.4,24666],[99.4,24749],[99.4,24833],[99.4,24917],[99.4,24999],[99.4,25082],[99.4,25165],[99.4,25249],[99.4,25333],[99.4,25416],[99.4,25499],[99.4,25583],[99.4,25666],[99.4,25750],[99.4,25833],[99.4,25916],[99.4,26000],[99.4,26083],[99.4,26167],[99.4,26249],[99.4,26333],[99.4,26416],[99.4,26498],[99.4,26583],[99.4,26665],[99.4,26749],[99.4,26833],[99.4,26916],[99.4,26999],[99.4,27082],[99.4,27166],[99.4,27249],[99.4,27333],[99.4,27415],[99.4,27500],[99.4,27583],[99.4,27665],[99.4,27750],[99.4,27833],[99.4,27916],[99.4,28000],[99.4,28083],[99.4,28166],[99.4,28250],[99.4,28332],[99.4,28415]]",1974.3469,1978.1385,98.71397569,3.1387,"[{""rating"":98.71397569444444,""responseTime"":3.1387000000029275}]",space,3.2682,,1978.1387,Not at all,0,1978.1416,,,[],,0,11,11,11,1,audio/Narrative8Situation2.wav,audio/Narrative7Situation2.wav,audio/Narrative6Situation2.wav,audio/Narrative5Situation2.wav,3,3,3,3,,,,,,,,,,,,,,,,,,,,,,,,,,,,,,,,,,,,,,,
,,,,,66fdd6ecd96e23c98cf47a4a,2025-07-08_00h11.55.998,group3.4_multiperson,2023.2.2,MacIntel,120.4819277,686c2ebf0248f13bef9af11f,686c9a7367c0d97a5fdccfec,,,,,,,,,,,,,,,,,,,,,,,,,,,,,1978.1418,2,audio/Narrative6Situation3.wav,1983.1465,,1983.1466,1995.7461,"[[98.8,334],[94,1416],[95.7,1499],[95.8,1583],[95.8,1666],[95.7,1750],[97.5,1833],[97.9,1916],[97.9,1999],[97.9,2082],[97.9,2166],[97.9,2249],[97.9,2333],[97.9,2416],[97.9,2499],[97.9,2582],[97.9,2665],[97.9,2749],[97.9,2833],[97.9,2916],[97.9,2999],[97.9,3082],[97.9,3166],[97.9,3249],[97.9,3332],[97.9,3416],[97.9,3498],[97.9,3582],[97.9,3666],[97.9,3749],[97.9,3833],[97.9,3917],[97.9,3999],[97.9,4082],[97.9,4165],[97.9,4249],[97.9,4333],[97.9,4416],[97.9,4499],[97.9,4582],[97.9,4666],[97.9,4749],[97.9,4833],[97.9,4916],[97.9,4999],[97.9,5083],[97.9,5166],[97.9,5249],[97.9,5333],[97.9,5416],[97.9,5499],[97.9,5583],[97.9,5666],[97.9,5748],[97.9,5832],[97.9,5916],[97.9,5999],[97.9,6083],[97.9,6166],[97.9,6249],[97.9,6332],[97.9,6416],[97.9,6498],[97.9,6583],[97.9,6666],[97.9,6749],[97.9,6832],[97.9,6916],[97.9,6999],[97.9,7083],[97.9,7165],[97.9,7249],[97.9,7333],[97.9,7416],[97.9,7499],[97.9,7582],[97.9,7666],[97.9,7749],[97.9,7832],[97.9,7916],[97.9,7999],[97.9,8083],[97.9,8165],[97.9,8249],[97.9,8332],[97.9,8416],[97.9,8499],[97.9,8582],[97.9,8666],[97.9,8749],[97.9,8833],[97.9,8916],[97.9,8999],[97.9,9083],[97.9,9166],[97.9,9249],[97.9,9333],[97.9,9416],[97.9,9499],[97.9,9583],[97.9,9666],[97.9,9749],[97.9,9832],[97.9,9916],[97.9,9999],[97.9,10083],[97.9,10166],[97.9,10249],[97.9,10332],[97.9,10415],[97.9,10499],[97.9,10583],[97.9,10666],[97.9,10749],[97.9,10832],[97.9,10916],[97.9,10999],[97.9,11082],[97.9,11167],[97.9,11249],[97.9,11332],[97.9,11416],[97.9,11499],[97.9,11583],[97.9,11666],[97.9,11749],[97.9,11832],[97.9,11916],[97.9,12000],[97.9,12082],[97.9,12166],[97.9,12249],[97.9,12333],[97.9,12415],[97.9,12498],[97.9,12583]]",1995.7462,2000.2462,98.38932292,3.7805,"[{""rating"":98.38932291666667,""responseTime"":3.780499999999847}]",space,3.9838,,2000.2462,Not at all,0,2000.2477,,,[],,0,12,12,12,1,audio/Narrative8Situation3.wav,audio/Narrative7Situation3.wav,audio/Narrative6Situation3.wav,audio/Narrative5Situation3.wav,4,8,5,3,,,,,,,,,,,,,,,,,,,,,,,,,,,,,,,,,,,,,,,
,,,,,66fdd6ecd96e23c98cf47a4a,2025-07-08_00h11.55.998,group3.4_multiperson,2023.2.2,MacIntel,120.4819277,686c2ebf0248f13bef9af11f,686c9a7367c0d97a5fdccfec,,,,,,,,,,,,,,,,,,,,,,,,,,,,,2000.2479,2,audio/Narrative6Situation4.wav,2002.2543,,2002.2544,2014.8464,"[[999,0],[999,83],[999,166],[999,249],[999,333],[999,416],[999,499],[999,583],[999,666],[999,750],[999,833],[999,916],[999,1000],[999,1083],[999,1167],[999,1252],[999,1333],[999,1417],[999,1500],[999,1584],[999,1666],[999,1750],[999,1833],[999,1917],[999,2000],[999,2083],[999,2167],[999,2254],[999,2333],[999,2417],[999,2500],[999,2583],[999,2666],[999,2752],[999,2833],[999,2917],[999,3000],[999,3083],[999,3166],[999,3250],[59,3333],[68,3416],[98.1,3916],[100,4000],[100,4086],[100,4167],[100,4250],[100,4333],[100,4417],[100,4500],[100,4583],[100,4667],[100,4750],[100,4832],[100,4917],[100,5000],[100,5083],[100,5166],[100,5250],[100,5333],[100,5416],[100,5500],[100,5583],[100,5666],[100,5750],[100,5833],[100,5917],[100,6000],[100,6083],[100,6167],[100,6249],[100,6333],[100,6417],[100,6499],[100,6583],[100,6667],[100,6749],[100,6834],[100,6917],[100,7000],[100,7083],[100,7166],[100,7250],[100,7333],[100,7417],[100,7500],[100,7583],[100,7666],[100,7750],[100,7833],[100,7917],[100,8000],[100,8084],[100,8167],[100,8250],[100,8333],[100,8417],[100,8500],[100,8583],[100,8667],[100,8750],[100,8833],[100,8917],[100,9000],[100,9083],[100,9167],[100,9249],[100,9333],[100,9417],[100,9500],[100,9583],[100,9667],[100,9750],[100,9833],[100,9916],[100,10000],[100,10083],[100,10167],[100,10250],[100,10333],[100,10416],[100,10500],[100,10583],[100,10667],[100,10750],[100,10833],[100,10917],[100,11000],[100,11083],[100,11166],[100,11250],[100,11332],[100,11417],[100,11500],[100,11583],[100,11667],[100,11750],[100,11833],[100,11917],[100,12000],[100,12083],[100,12167],[100,12249],[100,12333],[100,12416],[100,12500]]",2014.8465,2016.6545,99.40451389,1.1775,"[{""rating"":99.40451388888889,""responseTime"":1.177500000000009}]",space,1.2861,,2016.6547,Partially,50,2016.6566,,,[],,0,13,13,13,1,audio/Narrative8Situation4.wav,audio/Narrative7Situation4.wav,audio/Narrative6Situation4.wav,audio/Narrative5Situation4.wav,3,3,2,1,,,,,,,,,,,,,,,,,,,,,,,,,,,,,,,,,,,,,,,
,,,,,66fdd6ecd96e23c98cf47a4a,2025-07-08_00h11.55.998,group3.4_multiperson,2023.2.2,MacIntel,120.4819277,686c2ebf0248f13bef9af11f,686c9a7367c0d97a5fdccfec,,,,,,,,,,,,,,,,,,,,,,,,,,,,,2016.6569,2,audio/Narrative6Situation5.wav,2018.6631,,2018.6633,2026.6046,[],2026.6047,2030.7462,98.31380208,3.5995,"[{""rating"":98.31380208333333,""responseTime"":3.5995000000000346}]",space,3.6189,,2030.7463,Partially,50,2030.7477,,,[],,0,14,14,14,1,audio/Narrative8Situation5.wav,audio/Narrative7Situation5.wav,audio/Narrative6Situation5.wav,audio/Narrative5Situation5.wav,2,5,2,5,,,,,,,,,,,,,,,,,,,,,,,,,,,,,,,,,,,,,,,
,,,,,66fdd6ecd96e23c98cf47a4a,2025-07-08_00h11.55.998,group3.4_multiperson,2023.2.2,MacIntel,120.4819277,686c2ebf0248f13bef9af11f,686c9a7367c0d97a5fdccfec,,,,,,,,,,,,,,,,,,,,,,,,,,,,,2030.7478,2,audio/Narrative6Situation6.wav,2032.7551,,2032.7551,2043.813,"[[999,0],[999,83],[999,166],[999,250],[999,332],[999,415],[999,500],[999,583],[999,665],[999,750],[999,832],[999,916],[999,999],[999,1083],[999,1165],[999,1249],[999,1332],[999,1416],[999,1500],[999,1583],[999,1666],[999,1749],[999,1833],[999,1916],[999,1999],[999,2082],[999,2166],[999,2249],[999,2333],[999,2417],[999,2499],[999,2583],[999,2666],[999,2749],[999,2832],[999,2916],[999,2999],[999,3083],[999,3166],[999,3249],[999,3332],[999,3416],[999,3499],[999,3582],[999,3665],[999,3749],[999,3833],[999,3916],[999,3999],[999,4083],[999,4166],[999,4249],[999,4333],[999,4418],[999,4499],[999,4582],[999,4666],[999,4749],[999,4832],[999,4916],[999,4999],[999,5083],[999,5166],[999,5249],[999,5333],[999,5416],[999,5499],[999,5582],[999,5666],[999,5750],[999,5832],[999,5916],[999,5999],[999,6083],[999,6166],[999,6248],[999,6332],[999,6416],[999,6499],[999,6582],[999,6666],[999,6749],[999,6833],[999,6916],[999,6999],[999,7081],[999,7166],[999,7249],[999,7333],[999,7416],[999,7499],[999,7583],[999,7665],[999,7750],[999,7832],[99,7917],[98.8,7999],[98.7,8082],[98.7,8166],[98.7,8250],[98.7,8333],[98.7,8416],[98.7,8499],[98.7,8583],[98.7,8666],[98.7,8749],[98.7,8833],[98.7,8915],[98.7,8999],[98.7,9082],[98.7,9166],[98.7,9249],[98.7,9332],[98.7,9416],[98.7,9499],[98.7,9583],[98.7,9666],[98.7,9749],[98.7,9833],[98.7,9916],[98.7,9999],[98.7,10082],[98.7,10166],[98.7,10248],[98.7,10333],[98.7,10416],[98.7,10499],[98.7,10583],[98.7,10666],[98.7,10749],[98.7,10833],[98.7,10916]]",2043.8132,2045.1294,99.64279514,1.0031,"[{""rating"":99.6427951388889,""responseTime"":1.003100000008999}]",space,0.7948,,2045.1295,Definitely yes,100,2045.1307,,,[],,0,15,15,15,1,audio/Narrative8Situation6.wav,audio/Narrative7Situation6.wav,audio/Narrative6Situation6.wav,audio/Narrative5Situation6.wav,2,3,2,3,,,,,,,,,,,,,,,,,,,,,,,,,,,,,,,,,,,,,,,
,,,,,66fdd6ecd96e23c98cf47a4a,2025-07-08_00h11.55.998,group3.4_multiperson,2023.2.2,MacIntel,120.4819277,686c2ebf0248f13bef9af11f,686c9a7367c0d97a5fdccfec,,,,,,,,,,,,,,,,,,,,,,,,,,,,,2045.1308,2,audio/Narrative6Situation7.wav,2050.1384,,2050.1385,2074.9805,"[[99.9,2168],[98.8,2499],[94.1,2582],[93.4,2665],[95.4,2749],[98.6,2832],[100,2917],[100,2999],[100,3082],[100,3166],[100,3249],[100,3332],[100,3416],[100,3499],[100,3582],[100,3665],[100,3749],[100,3831],[100,3915],[100,3999],[15.2,5083],[19.1,6166],[19.1,6250],[12.2,6332],[11.8,6417],[59.2,7169],[66.4,7249],[63.1,7334],[70,7416],[90.5,7667],[94,7749],[97.9,7832],[97.9,7916],[97.9,7999],[100,8084],[100,8166],[100,8249],[100,8333],[100,8416],[100,8499],[100,8583],[100,8665],[100,8749],[100,8833],[100,8916],[100,8999],[100,9082],[100,9166],[100,9249],[100,9333],[100,9415],[100,9498],[100,9582],[100,9666],[100,9749],[100,9832],[100,9915],[100,9999],[100,10082],[100,10166],[100,10249],[100,10332],[100,10416],[100,10499],[100,10582],[100,10666],[100,10749],[100,10832],[100,10916],[100,11000],[100,11082],[100,11165],[100,11249],[100,11333],[100,11415],[100,11499],[100,11582],[100,11666],[100,11749],[100,11832],[100,11915],[100,11999],[100,12082],[100,12166],[100,12248],[100,12332],[100,12416],[100,12498],[100,12582],[100,12665],[100,12749],[100,12833],[100,12915],[100,12999],[100,13083],[100,13166],[100,13249],[100,13332],[100,13415],[100,13499],[100,13582],[100,13665],[100,13749],[100,13832],[100,13916],[100,13999],[100,14084],[100,14166],[100,14249],[100,14332],[100,14415],[100,14499],[100,14582],[100,14666],[100,14749],[100,14832],[100,14916],[100,14999],[100,15083],[100,15166],[100,15249],[100,15332],[100,15416],[100,15499],[100,15582],[100,15666],[100,15749],[100,15831],[100,15916],[100,15999],[100,16082],[100,16165],[100,16249],[100,16332],[100,16416],[100,16499],[100,16582],[100,16666],[100,16749],[100,16833],[100,16916],[100,16999],[100,17083],[100,17166],[100,17249],[100,17331],[100,17416],[100,17498],[100,17583],[100,17665],[100,17749],[100,17833],[100,17916],[100,17999],[100,18083],[100,18165],[100,18249],[100,18333],[100,18416],[100,18498],[100,18582],[100,18666],[100,18749],[100,18833],[100,18916],[100,18999],[100,19082],[100,19165],[100,19249],[100,19333],[100,19415],[100,19499],[100,19583],[100,19665],[100,19749],[100,19833],[100,19915],[100,19999],[100,20082],[100,20166],[100,20249],[100,20332],[100,20416],[100,20499],[100,20582],[100,20666],[100,20749],[100,20832],[100,20915],[100,20999],[100,21082],[100,21165],[100,21249],[100,21332],[100,21414],[100,21499],[100,21582],[100,21666],[100,21748],[100,21833],[100,21916],[100,21998],[100,22082],[100,22165],[100,22249],[100,22333],[100,22416],[100,22499],[100,22582],[100,22665],[100,22749],[100,22833],[100,22916],[100,23000],[100,23082],[100,23165],[100,23248],[100,23332],[100,23416],[100,23499],[100,23583],[100,23665],[100,23749],[100,23833],[100,23916],[100,23999],[100,24083],[100,24165],[100,24249],[100,24333],[100,24415],[100,24499],[100,24582],[100,24666],[100,24750]]",2074.9808,2078.9543,98.46744792,2.1735,"[{""rating"":98.46744791666666,""responseTime"":2.1734999999998763}]",space,3.4563,,2078.9544,Definitely yes,100,2078.9557,,,[],,0,16,16,16,1,audio/Narrative8Situation7.wav,audio/Narrative7Situation7.wav,audio/Narrative6Situation7.wav,audio/Narrative5Situation7.wav,3,5,5,4,,,,,,,,,,,,,,,,,,,,,,,,,,,,,,,,,,,,,,,
,,,,,66fdd6ecd96e23c98cf47a4a,2025-07-08_00h11.55.998,group3.4_multiperson,2023.2.2,MacIntel,120.4819277,686c2ebf0248f13bef9af11f,686c9a7367c0d97a5fdccfec,,,,,,,,,,,,,,,,,,,,,,,,,,,,,2078.9559,2,audio/Narrative6Situation8.wav,2083.9633,,2083.9633,2090.805,[],2090.8053,2094.9962,6.668402778,3.5698,"[{""rating"":6.668402777777777,""responseTime"":3.5698000000115826}]",space,3.6686,,2094.9962,Definitely yes,100,2094.998,,,[],,0,17,17,17,1,audio/Narrative8Situation8.wav,audio/Narrative7Situation8.wav,audio/Narrative6Situation8.wav,audio/Narrative5Situation8.wav,3,2,5,3,,,,,,,,,,,,,,,,,,,,,,,,,,,,,,,,,,,,,,,
,,,,,66fdd6ecd96e23c98cf47a4a,2025-07-08_00h11.55.998,group3.4_multiperson,2023.2.2,MacIntel,120.4819277,686c2ebf0248f13bef9af11f,686c9a7367c0d97a5fdccfec,,,,,,,,,,,,,,,,,,,,,,,,,,,,,2094.9983,2,audio/Narrative6Situation9.wav,2099.005,,2099.005,2108.9386,"[[999,0],[999,83],[999,166],[999,249],[999,332],[999,416],[999,499],[999,582],[999,666],[999,749],[999,832],[999,916],[999,1000],[999,1082],[999,1165],[999,1250],[999,1332],[999,1415],[999,1500],[999,1582],[999,1666],[999,1749],[999,1833],[999,1915],[999,1998],[999,2083],[999,2165],[999,2249],[999,2332],[999,2416],[999,2499],[999,2582],[999,2666],[999,2749],[999,2833],[999,2915],[999,2999],[999,3082],[999,3166],[999,3249],[999,3332],[999,3416],[7.1,3749],[8.4,3834],[8.1,3916],[7.6,3999],[8,4083],[8,4165],[8,4249],[8,4332],[8,4416],[8,4499],[8,4582],[8,4666],[8,4749],[8,4833],[8,4916],[8,4999],[8,5083],[8,5166],[8,5249],[8,5332],[8,5416],[8,5498],[8,5582],[8,5666],[8,5750],[8,5832],[8,5916],[8,6000],[8,6083],[8,6166],[8,6249],[8,6333],[8,6416],[8,6500],[8,6583],[8,6666],[8,6749],[8,6833],[8,6916],[8,7000],[8,7083],[8,7166],[8,7249],[8,7333],[8,7417],[8,7499],[8,7583],[8,7666],[8,7749],[8,7832],[8,7916],[8,7999],[8,8083],[8,8165],[8,8248],[8,8333],[8,8416],[8,8499],[8,8582],[8,8666],[8,8750],[8,8832],[8,8916],[8,8999],[8,9083],[8,9166],[8,9250],[8,9332],[8,9415],[8,9500],[8,9582],[8,9666],[8,9750],[8,9832],[8,9916]]",2108.939,2111.9961,4.880208333,2.4927,"[{""rating"":4.880208333333336,""responseTime"":2.4927000000029693}]",space,2.5338,,2111.9962,Partially,50,2111.9983,,,[],,0,18,18,18,1,audio/Narrative8Situation9.wav,audio/Narrative7Situation9.wav,audio/Narrative6Situation9.wav,audio/Narrative5Situation9.wav,3,2,4,3,,,,,,,,,,,,,,,,,,,,,,,,,,,,,,,,,,,,,,,
,,,,,66fdd6ecd96e23c98cf47a4a,2025-07-08_00h11.55.998,group3.4_multiperson,2023.2.2,MacIntel,120.4819277,686c2ebf0248f13bef9af11f,686c9a7367c0d97a5fdccfec,,,,,,,,,,,,,,,,,,,,,,,,,,,,,,,,,,,,,,,,,,,,,,,,,,,,,,,,,,,,,,,,,,,,,,2111.9985,2119.3296,space,6.8161,,2119.3299,2394.5635,space,274.9171,,,,,,,,,,,,,,,,,,,,,,,,,,
,,,,,66fdd6ecd96e23c98cf47a4a,2025-07-08_00h11.55.998,group3.4_multiperson,2023.2.2,MacIntel,120.4819277,686c2ebf0248f13bef9af11f,686c9a7367c0d97a5fdccfec,,,,,,,,,,,,,,,,,,,,,,,,,,,,,2397.1603,1,audio/Narrative8Situation9.wav,2399.1632,,,,,2431.0141,2434.4629,98.32204861,3.0371,"[{""rating"":98.32204861111111,""responseTime"":3.0370999999940977}]",space,2.9262,,2434.463,Not at all,0,2434.4656,,,[],,,,,,,,,,,2,2,2,2,,,,,,,,,,,,,,,2394.5655,2397.1462,2399.164,3,2431.0139,"[[999,1],[999,90],[999,174],[999,256],[999,339],[999,424],[999,507],[999,590],[999,674],[999,757],[999,840],[999,923],[999,1006],[999,1089],[999,1173],[999,1257],[999,1339],[999,1423],[999,1507],[999,1590],[999,1673],[999,1757],[999,1840],[999,1924],[999,2006],[999,2090],[999,2173],[999,2256],[999,2341],[999,2423],[999,2507],[999,2589],[999,2673],[999,2757],[999,2840],[999,2923],[999,3006],[999,3091],[999,3173],[999,3257],[999,3340],[999,3423],[999,3507],[999,3590],[999,3674],[999,3757],[52.9,3841],[60,3923],[60.4,4006],[55.7,4091],[51.6,4173],[51.6,4257],[51.6,4340],[51.6,4424],[51.6,4506],[51.6,4589],[51.6,4674],[51.6,4756],[59.2,4840],[69.6,4922],[69.6,5007],[69.6,5089],[69.6,5173],[69.6,5257],[69.6,5341],[45.4,5924],[19.8,6257],[11.5,6340],[11.1,6424],[11.7,6507],[12.1,6590],[12.1,6673],[11.1,6757],[10.8,6840],[10.8,6923],[10.8,7006],[10.8,7090],[10.8,7173],[10.8,7257],[10.8,7340],[10.8,7423],[10.8,7507],[10.8,7590],[10.8,7673],[10.8,7756],[10.8,7841],[10.8,7923],[10.8,8007],[10.8,8090],[10.8,8173],[10.8,8257],[10.8,8340],[10.8,8424],[10.8,8506],[10.8,8590],[10.8,8673],[10.8,8757],[10.8,8840],[10.8,8923],[10.8,9007],[10.8,9090],[10.8,9173],[9.5,9257],[9.2,9340],[9.2,9423],[9.2,9507],[9.2,9590],[4.4,9674],[1.3,10257],[1.5,10339],[1.5,10423],[1.5,10507],[1.5,10589],[1.5,10673],[1.5,10756],[1.5,10840],[1.5,10923],[1.5,11006],[1.5,11090],[1.5,11173],[1.5,11256],[1.5,11339],[1.5,11423],[1.5,11506],[1.5,11591],[1.5,11673],[1.5,11756],[1.5,11841],[1.5,11924],[1.5,12008],[1.5,12090],[1.5,12174],[1.5,12257],[1.5,12340],[1.5,12423],[1.5,12506],[1.5,12590],[1.5,12673],[1.5,12757],[1.5,12839],[1.5,12923],[1.5,13006],[1.5,13090],[1.5,13174],[1.5,13257],[1.5,13340],[1.5,13423],[1.5,13507],[1.5,13590],[1.5,13673],[1.5,13756],[1.5,13839],[1.5,13923],[1.5,14007],[1.5,14090],[1.5,14172],[1.5,14257],[1.5,14339],[1.5,14424],[1.5,14506],[1.5,14590],[1.5,14674],[1.5,14757],[1.5,14840],[1.5,14923],[1.5,15007],[1.5,15090],[1.5,15173],[1.5,15257],[1.5,15341],[1.5,15423],[1.5,15507],[1.5,15590],[1.5,15673],[1.5,15756],[1.5,15840],[1.5,15923],[1.5,16008],[1.5,16090],[1.5,16172],[1.5,16256],[1.5,16340],[1.5,16423],[1.5,16507],[1.5,16589],[1.5,16674],[1.5,16756],[1.5,16839],[1.5,16923],[1.5,17007],[1.5,17091],[1.5,17173],[1.5,17257],[1.5,17339],[1.5,17423],[1.5,17507],[1.5,17589],[1.5,17674],[1.5,17757],[1.5,17840],[1.5,17923],[1.5,18006],[1.5,18091],[1.5,18173],[1.5,18256],[1.5,18340],[1.5,18424],[1.5,18507],[1.5,18589],[1.5,18674],[1.5,18756],[1.5,18839],[1.5,18924],[1.5,19007],[1.5,19089],[1.5,19174],[1.5,19256],[1.5,19340],[1.5,19423],[1.5,19506],[1.5,19589],[1.5,19673],[1.5,19757],[1.5,19840],[1.5,19923],[1.5,20008],[1.5,20090],[1.5,20173],[1.5,20257],[1.5,20341],[1.5,20423],[1.5,20507],[1.5,20590],[1.5,20673],[1.5,20757],[1.5,20839],[1.5,20924],[1.5,21007],[1.5,21090],[1.5,21173],[1.5,21257],[1.5,21340],[1.5,21423],[1.5,21506],[1.5,21590],[1.5,21673],[1.5,21757],[1.5,21839],[1.5,21923],[1.5,22007],[1.5,22090],[1.5,22174],[1.5,22257],[1.5,22340],[1.5,22424],[1.5,22507],[1.5,22590],[1.5,22673],[1.5,22756],[1.5,22841],[1.5,22923],[1.5,23006],[1.5,23089],[1.5,23173],[1.5,23257],[1.5,23340],[4.5,23424],[22.2,23507],[35.6,23589],[43.7,23674],[53.3,23758],[54.3,23840],[54.3,23923],[54.3,24007],[55.6,24090],[61,24174],[61.6,24256],[61.6,24339],[61.1,24424],[61,24507],[61,24590],[61,24674],[61,24756],[61,24840],[61,24924],[61.8,25006],[62.7,25090],[63.6,25173],[65.6,25257],[67.5,25340],[67.7,25423],[67.7,25507],[67.7,25590],[67.7,25673],[67.7,25757],[67.7,25839],[67.7,25924],[67.7,26007],[67.7,26090],[67.7,26173],[67.7,26257],[67.7,26339],[67.7,26423],[67.7,26507],[67.7,26590],[67.7,26674],[67.7,26757],[67.7,26840],[67.7,26923],[67.7,27007],[67.7,27090],[67.7,27173],[67.7,27257],[67.7,27339],[67.7,27424],[66.8,27507],[55.3,27589],[53.1,27673],[53.1,27758],[53.1,27840],[53.2,27923],[58,28007],[59.5,28173],[52.1,28257],[43,28340],[41.7,28423],[41.7,28507],[41.7,28591],[41.7,28673],[41.7,28756],[41.7,28840],[44.9,28923],[48.4,29007],[48.8,29089],[47.2,29174],[46.1,29257],[45.5,29339],[45.5,29423],[45.5,29506],[70.9,31756],[74.8,31840]]",0,0,0,0,1,"Larry had recently lost his family, job and home, and was now living on his own in the park. He had most of his belongings, including some clothes, a blanket, and his mother’s special necklace. His family had been very important to him and he felt as though he did not have much going for him. One of his first days in the park he came across a family that did not have much food and looked very cold. He decided to give them some of his food and his blanket.","Larry had recently lost his family, job and home, and was now living on his own in the park. He had most of his belongings, including some clothes, a blanket, and his mother’s special necklace. His family had been very important to him and he felt as though he did not have much going for him. One of his first days in the park he came across a family that did not have much food and looked very cold. He decided to give them some of his food and his blanket.","Larry had recently lost his family, job and home, and was now living on his own in the park. He had most of his belongings, including some clothes, a blanket, and his mother’s special necklace. His family had been very important to him and he felt as though he did not have much going for him. One of his first days in the park he came across a family that did not have much food and looked very cold. He decided to give them some of his food and his blanket.","Larry had recently lost his family, job and home, and was now living on his own in the park. He had most of his belongings, including some clothes, a blanket, and his mother’s special necklace. His family had been very important to him and he felt as though he did not have much going for him. One of his first days in the park he came across a family that did not have much food and looked very cold. He decided to give them some of his food and his blanket.",,,,,,,,,,
,,,,,66fdd6ecd96e23c98cf47a4a,2025-07-08_00h11.55.998,group3.4_multiperson,2023.2.2,MacIntel,120.4819277,686c2ebf0248f13bef9af11f,686c9a7367c0d97a5fdccfec,,,,,,,,,,,,,,,,,,,,,,,,,,,,,2434.466,1,audio/Narrative8Situation9.wav,2505.0882,space,,,,2538.597,2543.1386,4.674045139,2.5797,"[{""rating"":4.674045138888888,""responseTime"":2.5797000000029584}]",space,4.0156,,2543.1387,Definitely yes,100,2543.1433,,,[],,,,,,,,,,,6,2,3,9,70.6095,,,,,,,,,,,,,,,,2505.0883,3,2538.5967,"[[999,0],[999,83],[999,166],[999,249],[999,333],[999,416],[999,499],[999,583],[999,666],[999,749],[999,833],[999,916],[999,1001],[999,1083],[999,1166],[999,1249],[999,1332],[999,1416],[999,1499],[999,1583],[999,1665],[999,1749],[999,1832],[999,1915],[999,1999],[999,2082],[999,2166],[17.2,2249],[12.6,2333],[12.3,2415],[12.3,2501],[12.1,2583],[11.9,2666],[11.8,2749],[11.8,2833],[11.7,2916],[11.7,2999],[11.7,3083],[11.7,3166],[11.7,3249],[11.7,3333],[10.8,3416],[9.4,3499],[8.7,3582],[8.3,3668],[8,3749],[8,3832],[8,3916],[8,3999],[8,4083],[8,4166],[8,4249],[8,4333],[8,4416],[8,4499],[8,4582],[8,4666],[8,4749],[8,4833],[8,4916],[8,4999],[8,5082],[8,5166],[8,5250],[8,5333],[8,5416],[8,5499],[8,5583],[8,5666],[8,5749],[8,5833],[8,5916],[8,6000],[8,6083],[8,6166],[8,6249],[8,6332],[8,6416],[8,6499],[8,6583],[8,6666],[8,6749],[8,6832],[8,6916],[8,6999],[8,7083],[8,7166],[8,7249],[8,7333],[8,7416],[8,7499],[8,7583],[8,7666],[8,7750],[8,7832],[8,7916],[8,7999],[8,8083],[8,8166],[8,8250],[8,8332],[8,8416],[8,8499],[8,8583],[8,8667],[8,8750],[8,8833],[8,8916],[8,8999],[8,9082],[8,9165],[8,9250],[8,9332],[8,9416],[8,9500],[8,9583],[8,9666],[8,9749],[8,9833],[8,9916],[8,9999],[8,10083],[8,10166],[8,10249],[8,10333],[10.5,10416],[57.8,11333],[58.4,11416],[56.7,11500],[55.1,11583],[54.5,11666],[54.3,11750],[54.3,11833],[76.4,11918],[93.2,11999],[93.2,12082],[93.2,12166],[93.2,12250],[93.2,12332],[93.2,12416],[93.2,12499],[93.2,12583],[93.2,12666],[93.2,12749],[93.2,12833],[93.2,12915],[93.2,13000],[93.2,13083],[99.7,13166],[100,13249],[100,13333],[100,13417],[100,13499],[100,13583],[100,13666],[100,13749],[100,13832],[100,13915],[100,14000],[100,14083],[100,14166],[100,14249],[100,14332],[100,14416],[100,14500],[100,14583],[100,14666],[100,14749],[100,14832],[100,14916],[100,14999],[100,15083],[100,15166],[100,15249],[100,15332],[100,15415],[100,15499],[100,15583],[100,15666],[100,15749],[100,15832],[100,15916],[100,15999],[100,16082],[100,16166],[100,16249],[100,16332],[100,16416],[100,16499],[100,16583],[100,16666],[100,16749],[100,16832],[100,16916],[100,16999],[100,17084],[100,17166],[100,17249],[100,17333],[100,17416],[100,17499],[100,17583],[100,17666],[100,17749],[100,17833],[100,17916],[100,17999],[100,18083],[100,18165],[100,18249],[100,18333],[100,18417],[100,18499],[100,18582],[100,18666],[100,18749],[100,18833],[100,18916],[100,18999],[100,19083],[100,19165],[100,19250],[100,19332],[100,19416],[100,19499],[100,19583],[100,19666],[100,19749],[100,19833],[100,19915],[100,19999],[100,20083],[100,20166],[100,20249],[100,20333],[100,20416],[100,20499],[100,20583],[100,20666],[100,20749],[100,20833],[100,20916],[100,21000],[100,21083],[100,21166],[100,21249],[100,21332],[100,21416],[100,21499],[100,21583],[100,21666],[100,21749],[100,21833],[100,21915],[100,21999],[100,22083],[100,22165],[100,22250],[100,22333],[100,22416],[100,22499],[100,22583],[100,22666],[100,22750],[100,22833],[100,22916],[100,23000],[100,23083],[100,23165],[100,23250],[100,23333],[100,23416],[100,23499],[100,23583],[100,23666],[100,23749],[100,23833],[100,23916],[100,24000],[100,24083],[100,24166],[100,24250],[100,24333],[100,24416],[100,24499],[100,24583],[100,24666],[100,24749],[100,24833],[100,24916],[100,24999],[100,25082],[100,25166],[100,25249],[100,25333],[100,25417],[100,25499],[100,25583],[100,25666],[100,25749],[100,25833],[100,25916],[100,25999],[100,26083],[100,26166],[100,26250],[100,26333],[100,26416],[100,26500],[100,26583],[100,26666],[100,26749],[100,26833],[100,26916],[100,26999],[100,27083],[100,27166],[100,27249],[100,27333],[100,27416],[100,27499],[100,27583],[100,27666],[100,27750],[99.8,27835],[97.4,27916],[94.1,28000],[51.7,28833],[46.6,28916],[46.4,28999],[46.4,29082],[46.4,29166],[46.4,29249],[36,29332],[20.1,29999],[20.1,30083],[20.1,30166],[20.1,30250],[20.1,30332],[20.1,30416],[20.1,30499],[20.1,30583],[20.1,30666],[20.1,30749],[20.1,30833],[20.1,30916],[20.1,30999],[20.1,31083],[20.1,31166],[20.1,31250],[20.1,31333],[20.1,31416],[20.1,31499],[20.1,31583],[20.1,31666],[20.1,31749],[20.1,31833],[20.1,31916],[20.1,31999],[20.1,32083],[20.1,32166],[20.1,32249],[20.1,32333],[20.1,32416],[20.1,32499],[20.1,32583],[20.1,32666],[20.1,32750],[20.1,32833],[20.1,32916],[20.1,32999],[20.1,33083],[20.1,33166],[20.1,33250],[20.1,33333],[20.1,33416],[20.1,33500]]",0,1,1,1,1,"It was just another Sunday afternoon for Lucy, she was on her way to the farmer's market to pick up some produce. When she arrived at the old train depot that housed the market, she noticed two men fighting on the steps. Before she could call for help, one of the men crumpled to his knees. The other man dropped an object that appeared to be a knife and ran off. When Lucy approached the crime scene she realized that the man who had been murdered was the Mayor and that he had a gunshot wound.","One day at work, Margaret walked up to her partner, Al, to ask him to talk to the chief of staff at the local hospital where she worked as a nurse.","Luke always thought of himself as an honest man. That's why during his evening jog around the swamp, he pondered his recent affair with the receptionist at work. Luke looked up at the sky and asked God why he was so weak and unfaithful. He thought of the impact this would have on his family and told God of his conflicted feelings toward telling his wife Marta.","Linda and Amy had been best friends since kindergarten, they even found homes on the same street in the forest on the edge of town. Their biggest fight had been over who gets the bigger slice of cake, until Amy married Dan. Linda loathed Dan, she thought he was manipulative and had a violent temper. She only put up with him because Amy loved him. ",,,,,,,,,,
,,,,,66fdd6ecd96e23c98cf47a4a,2025-07-08_00h11.55.998,group3.4_multiperson,2023.2.2,MacIntel,120.4819277,686c2ebf0248f13bef9af11f,686c9a7367c0d97a5fdccfec,,,,,,,,,,,,,,,,,,,,,,,,,,,,,2543.1436,1,audio/Narrative8Situation9.wav,2547.1463,,,,,2565.6546,2568.5971,97.07248264,2.6925,"[{""rating"":97.07248263888889,""responseTime"":2.692500000000109}]",space,2.4245,,2568.5972,Not at all,0,2568.6008,,,[],,,,,,,,,,,4,5,2,2,,,,,,,,,,,,,,,,,2547.1464,3,2565.6545,"[[999,0],[999,83],[999,166],[999,249],[999,333],[999,416],[999,499],[999,583],[999,666],[999,750],[999,833],[999,916],[999,999],[999,1083],[999,1165],[999,1250],[999,1332],[999,1416],[999,1500],[999,1583],[999,1667],[999,1749],[999,1832],[999,1916],[999,2000],[999,2083],[999,2166],[999,2249],[999,2333],[999,2416],[999,2500],[999,2583],[999,2667],[999,2750],[999,2833],[999,2916],[999,3000],[999,3083],[999,3166],[999,3249],[999,3333],[999,3417],[999,3500],[999,3582],[999,3666],[21.8,3750],[6.3,4334],[0.2,4416],[0.2,4500],[0.2,4583],[0.2,4666],[0.2,4749],[0.2,4833],[0.2,4916],[0.2,5000],[0.2,5083],[0.2,5166],[0.2,5249],[0.2,5333],[0.2,5417],[0.2,5499],[0.2,5583],[0.2,5666],[0.2,5749],[0.2,5833],[0.2,5916],[0.2,6000],[0.2,6083],[0.2,6166],[0.2,6249],[0.2,6333],[0.2,6416],[0.2,6500],[0.2,6583],[0.2,6666],[0.2,6750],[0.2,6833],[0.2,6916],[0.2,6999],[0.2,7083],[0.2,7167],[0.2,7250],[0.2,7333],[0.2,7416],[0.2,7499],[0.2,7583],[0.2,7666],[0.2,7750],[0.2,7833],[0.2,7916],[0.2,8000],[0.2,8083],[0.2,8166],[0.2,8249],[0.2,8333],[0.2,8416],[0.2,8500],[0.2,8583],[0.2,8668],[0.2,8749],[0.2,8833],[0.2,8916],[0.2,9000],[0.2,9083],[0.2,9167],[0.2,9250],[0.2,9333],[0.2,9416],[0.2,9500],[0.2,9583],[0.2,9666],[0.2,9749],[0.2,9833],[0.2,9916],[0.2,10000],[0.2,10083],[0.2,10166],[0.2,10250],[0.2,10333],[0.2,10416],[0.2,10500],[0.2,10582],[0.2,10666],[0.2,10749],[0.2,10832],[0.2,10917],[0.2,10999],[0.2,11083],[0.2,11166],[0.2,11249],[0.2,11333],[0.2,11416],[0.2,11500],[0.2,11582],[0.2,11666],[0.2,11750],[0.2,11833],[0.2,11916],[0.2,11999],[0.2,12083],[0.2,12167],[0.2,12249],[0.2,12333],[0.2,12416],[0.2,12499],[0.2,12583],[0.2,12666],[0.2,12749],[0.2,12833],[0.2,12916],[0.2,12999],[0.2,13083],[0.2,13166],[0.2,13250],[0.2,13333],[0.2,13416],[0.2,13499],[0.2,13583],[0.2,13666],[0.2,13749],[5.5,13834],[80.4,14333],[50.8,14750],[49.6,14833],[53.7,14916],[62.6,14999],[64.6,15084],[64.6,15166],[64.5,15250],[71.3,15334],[87.4,15417]]",0,2,2,2,1,On the ground beside him was a pen that she had mistaken for a knife. Lucy looked for the gunman and saw a suspicious man in black with distinct pointy features darting into an alley across the street. Cops who were nearby chased the man who had fled and arrested him.,"While waiting outside the chief of staff's office, Al heard nondescript shouting and yelling, there was a loud clatter in the room and then an eerie silence. An unfamiliar employee ran hastily out of the office with a terrified look on their face.","Suddenly, Luke heard a woman call out his name and when he turned around he saw Carly, his receptionist, across the road with a gun in her hand. Carly ran to him and explained how she had followed him here to confess her love. She exclaimed if Luke didn't love her back that she would kill him and his family. Carly explained that the only way they could be together is to kill Marta.","This feeling of hate between Amy and Dan was mutual, Dan didn't like how much time his wife spent with her and thought Amy was creating distance between their marriage. That's why Dan decided to try and tarnish Linda's reputation with his wife, in hopes it would get rid of her. He came home one afternoon and exclaimed that Linda had tried to kiss him. Amy was taken aback and immediately called Linda to confront her about these accusations. When Linda arrived she denied having made a move on Dan, but discovered Dan had enlisted the help of his friend Will who said he witnessed it all happen.",,,,,,,,,,
,,,,,66fdd6ecd96e23c98cf47a4a,2025-07-08_00h11.55.998,group3.4_multiperson,2023.2.2,MacIntel,120.4819277,686c2ebf0248f13bef9af11f,686c9a7367c0d97a5fdccfec,,,,,,,,,,,,,,,,,,,,,,,,,,,,,2568.6011,1,audio/Narrative8Situation9.wav,2570.6038,,,,,2582.455,2584.3045,6.266493056,1.1608,"[{""rating"":6.266493055555555,""responseTime"":1.1607999999969252}]",space,1.3274,,2584.3046,Not at all,0,2584.3057,,,[],,,,,,,,,,,2,2,1,4,,,,,,,,,,,,,,,,,2570.6038,3,2582.4549,"[[86.4,2752],[87.8,2834],[69.6,3334],[27.4,3835],[26.8,3917],[25,4002],[24.5,4084],[24.5,4167],[24.5,4249],[24.5,4334],[24.5,4417],[24.5,4500],[24.5,4584],[24.5,4666],[24.5,4751],[24.5,4834],[24.5,4917],[24.5,5001],[24.5,5083],[24.5,5167],[24.5,5251],[24.5,5334],[24.5,5417],[24.5,5500],[24.5,5584],[24.5,5667],[24.5,5750],[24.5,5834],[24.5,5917],[24.5,6001],[24.5,6084],[24.5,6167],[24.5,6250],[24.5,6334],[24.5,6416],[24.5,6500],[24.5,6584],[24.5,6667],[24.5,6750],[24.5,6834],[24.5,6917],[24.5,7000],[24.5,7084],[24.5,7166],[24.5,7250],[24.5,7334],[24.5,7416],[24.5,7501],[24.5,7583],[24.5,7667],[24.5,7750],[24.5,7833],[24.5,7916],[24.5,8000],[24.5,8084],[24.5,8167],[24.5,8250],[24.5,8334],[24.5,8417],[24.5,8500],[24.5,8584],[24.5,8666],[24.5,8750],[24.5,8833],[26.7,8916],[47.7,9166],[46.7,9250],[47.2,9333],[47.2,9418],[46.8,9500],[46.4,9583],[46.4,9667],[46.4,9750],[46.4,9834],[46.4,9917],[54.8,10002],[60.3,10084],[60.5,10166],[60.5,10251],[60.5,10334],[62.5,10417],[72.3,10501],[72.3,10584],[72.3,10666],[72.3,10750],[64.9,10835],[57.1,10917],[56,11000],[56,11084],[56,11167],[56,11249],[55.8,11333],[55.8,11416],[55.8,11501],[54.4,11584]]",0,3,3,3,1,"But Lucy knew the charged man was innocent, which meant the killer was free. Lucy vowed to find out who the real murderer was and to stop him at all costs.","Al explained to the chief of staff that Margaret wanted to be excused from her absences last week. The chief of staff, Susan, revealed that she wanted to fire Margaret and never see her again. Susan and Al had been having an affair and she wanted Margaret ""out of the picture"". Al was conflicted, but agreed it would be for the best.","Luke thought of his child and felt like this was his only option. He agreed to the plan and called his wife to meet him at the swamp to watch the sunset with him. When she arrived, Marta called out for her husband, but found Carly waiting for her. She immediately drew her gun and shot her in the chest, knocking her unconscious.","Since it was their word against her own, she decided to go home and admit defeat. She knew how much it would hurt Amy to know the truth.",,,,,,,,,,
