consent.started,consent.stopped,consentResponse.keys,consentResponse.rt,consentResponse.duration,participantID,date,expName,psychopyVersion,OS,frameRate,STUDY_ID,SESSION_ID,opening1.started,opening1.stopped,keyEndingOpening1.keys,keyEndingOpening1.rt,keyEndingOpening1.duration,volumeAdjust.started,volumeAdjust.stopped,endingAdjust.keys,endingAdjust.rt,endingAdjust.duration,opening2.started,opening2.stopped,keyEndingOpening.keys,keyEndingOpening.rt,keyEndingOpening.duration,mouse.x,mouse.y,mouse.leftButton,mouse.midButton,mouse.rightButton,mouse.time,instructionLoop.thisRepN,instructionLoop.thisTrialN,instructionLoop.thisN,instructionLoop.thisIndex,instructionLoop.ran,readyForAudio.started,readyForAudio.stopped,fixation.started,run,audio_played,fixation.stopped,endPractice.keys,audioPre.started,audioPre.stopped,continuousResponses_audio,intRating.started,intRating.stopped,intQuestionSlider.response,intQuestionSlider.rt,intQuestionSlider.history,confirmResponse.keys,confirmResponse.rt,confirmResponse.duration,catchQuestion.started,catch_label,catch_value,catchQuestion.stopped,catchQuestionSlider.response,catchQuestionSlider.rt,catchQuestionSlider.history,confirmResponse_2.keys,audioRunLoop.thisRepN,audioRunLoop.thisTrialN,audioRunLoop.thisN,audioRunLoop.thisIndex,audioRunLoop.ran,conditions1_1,conditions2_1,conditions1_2,conditions2_2,dur1_1,dur2_1,dur1_2,dur2_2,endPractice.rt,endPractice.duration,confirmResponse_2.rt,confirmResponse_2.duration,runIntervalBreak.started,runIntervalBreak.stopped,endingBreakKey.keys,endingBreakKey.rt,endingBreakKey.duration,connection.started,connection.stopped,connectionEnding.keys,connectionEnding.rt,connectionEnding.duration,readyForText.started,readyForText.stopped,textPre.started,run_dup,textPre.stopped,continuousResponses_text,textRunLoop.thisRepN,textRunLoop.thisTrialN,textRunLoop.thisN,textRunLoop.thisIndex,textRunLoop.ran,text1_1,text1_2,text2_1,text2_2,runBreakText.started,runBreakText.stopped,endingBreakKey_2.keys,endingBreakKey_2.rt,endingBreakKey_2.duration,ending.started,ending.stopped,endingEnding.keys,endingEnding.rt,endingEnding.duration
0.0002,23.8516,y,23.5478,,67094d6215b6d0fe3e8c3e39,2025-07-07_21h03.15.010,group3.4_multiperson,2023.2.2,Win32,178.5714286,686c2ebf0248f13bef9af11f,686c7b862b9ae4e0cabe4ba2,,,,,,,,,,,,,,,,,,,,,,,,,,,,,,,,,,,,,,,,,,,,,,,,,,,,,,,,,,,,,,,,,,,,,,,,,,,,,,,,,,,,,,,,,,,,,,,,,,,,,,,,
,,,,,67094d6215b6d0fe3e8c3e39,2025-07-07_21h03.15.010,group3.4_multiperson,2023.2.2,Win32,178.5714286,686c2ebf0248f13bef9af11f,686c7b862b9ae4e0cabe4ba2,23.8517,45.5382,space,21.6711,,,,,,,,,,,,,,,,,,,,,,,,,,,,,,,,,,,,,,,,,,,,,,,,,,,,,,,,,,,,,,,,,,,,,,,,,,,,,,,,,,,,,,,,,,,,,,,,,,,,
,,,,,67094d6215b6d0fe3e8c3e39,2025-07-07_21h03.15.010,group3.4_multiperson,2023.2.2,Win32,178.5714286,686c2ebf0248f13bef9af11f,686c7b862b9ae4e0cabe4ba2,,,,,,45.5383,84.6317,space,38.7827,,,,,,,,,,,,,,,,,,,,,,,,,,,,,,,,,,,,,,,,,,,,,,,,,,,,,,,,,,,,,,,,,,,,,,,,,,,,,,,,,,,,,,,,,,,,,,,
,,,,,67094d6215b6d0fe3e8c3e39,2025-07-07_21h03.15.010,group3.4_multiperson,2023.2.2,Win32,178.5714286,686c2ebf0248f13bef9af11f,686c7b862b9ae4e0cabe4ba2,,,,,,,,,,,84.634,98.1019,space,13.4584,,[],[],[],[],[],[],0,0,0,0,1,,,,,,,,,,,,,,,,,,,,,,,,,,,,,,,,,,,,,,,,,,,,,,,,,,,,,,,,,,,,,,,,,,,,,,,,,,,,,,
,,,,,67094d6215b6d0fe3e8c3e39,2025-07-07_21h03.15.010,group3.4_multiperson,2023.2.2,Win32,178.5714286,686c2ebf0248f13bef9af11f,686c7b862b9ae4e0cabe4ba2,,,,,,,,,,,98.1023,149.726,space,51.5793,,[],[],[],[],[],[],1,0,1,0,1,,,,,,,,,,,,,,,,,,,,,,,,,,,,,,,,,,,,,,,,,,,,,,,,,,,,,,,,,,,,,,,,,,,,,,,,,,,,,,
,,,,,67094d6215b6d0fe3e8c3e39,2025-07-07_21h03.15.010,group3.4_multiperson,2023.2.2,Win32,178.5714286,686c2ebf0248f13bef9af11f,686c7b862b9ae4e0cabe4ba2,,,,,,,,,,,149.7262,164.8028,space,15.0628,,[],[],[],[],[],[],2,0,2,0,1,,,,,,,,,,,,,,,,,,,,,,,,,,,,,,,,,,,,,,,,,,,,,,,,,,,,,,,,,,,,,,,,,,,,,,,,,,,,,,
,,,,,67094d6215b6d0fe3e8c3e39,2025-07-07_21h03.15.010,group3.4_multiperson,2023.2.2,Win32,178.5714286,686c2ebf0248f13bef9af11f,686c7b862b9ae4e0cabe4ba2,,,,,,,,,,,164.803,213.6417,space,48.8317,,[],[],[],[],[],[],3,0,3,0,1,,,,,,,,,,,,,,,,,,,,,,,,,,,,,,,,,,,,,,,,,,,,,,,,,,,,,,,,,,,,,,,,,,,,,,,,,,,,,,
,,,,,67094d6215b6d0fe3e8c3e39,2025-07-07_21h03.15.010,group3.4_multiperson,2023.2.2,Win32,178.5714286,686c2ebf0248f13bef9af11f,686c7b862b9ae4e0cabe4ba2,,,,,,,,,,,213.6419,251.3286,space,37.6776,,[],[],[],[],[],[],4,0,4,0,1,,,,,,,,,,,,,,,,,,,,,,,,,,,,,,,,,,,,,,,,,,,,,,,,,,,,,,,,,,,,,,,,,,,,,,,,,,,,,,
,,,,,67094d6215b6d0fe3e8c3e39,2025-07-07_21h03.15.010,group3.4_multiperson,2023.2.2,Win32,178.5714286,686c2ebf0248f13bef9af11f,686c7b862b9ae4e0cabe4ba2,,,,,,,,,,,251.3287,266.5556,space,15.2213,,[],[],[],[],[],[],5,0,5,0,1,,,,,,,,,,,,,,,,,,,,,,,,,,,,,,,,,,,,,,,,,,,,,,,,,,,,,,,,,,,,,,,,,,,,,,,,,,,,,,
,,,,,67094d6215b6d0fe3e8c3e39,2025-07-07_21h03.15.010,group3.4_multiperson,2023.2.2,Win32,178.5714286,686c2ebf0248f13bef9af11f,686c7b862b9ae4e0cabe4ba2,,,,,,,,,,,,,,,,,,,,,,,,,,,266.5569,269.1352,269.1452,1,audio/Narrative13Situation2.wav,271.1476,,271.1477,300.8792,"[[999,0],[999,94],[999,177],[999,261],[999,344],[999,427],[999,511],[999,594],[999,678],[47.4,761],[47.8,844],[48.6,928],[49.4,1011],[49.1,1095],[48.4,1178],[47.9,1261],[47.9,1345],[47.9,1428],[47.5,1512],[47,1595],[46.5,1678],[46.3,1762],[46.3,1845],[46.3,1928],[45.9,2012],[45.2,2095],[45.1,2179],[45.1,2262],[45.1,2346],[45.1,2429],[45.1,2512],[45.1,2596],[45.1,2679],[45.1,2762],[45.2,2847],[47.7,2930],[51.3,3013],[55.4,3097],[58.4,3180],[60.1,3264],[60.8,3347],[63.1,3431],[66.4,3514],[68.9,3597],[72.1,3681],[75.2,3764],[76.9,3847],[79,3931],[80.9,4014],[82.5,4097],[80.2,4181],[80.2,4264],[80.2,4347],[80.2,4431],[79.4,4515],[78.5,4597],[81,4681],[82.7,4764],[83.4,4848],[85.2,4931],[86.7,5015],[87.4,5098],[87.6,5181],[87.8,5265],[87.8,5347],[87.8,5431],[87.8,5514],[89.8,5599],[98.7,6016],[98,6098],[98,6181],[98,6265],[98.7,6348],[99,6432],[99.1,6515],[99.1,6598],[100,6683],[100,6765],[100,6848],[100,6933],[100,7015],[100,7099],[100,7182],[100,7265],[100,7349],[100,7432],[100,7516],[100,7600],[100,7682],[100,7766],[100,7849],[100,7932],[100,8016],[100,8099],[100,8183],[100,8266],[100,8350],[100,8433],[100,8516],[100,8600],[100,8683],[100,8767],[100,8850],[100,8933],[100,9016],[100,9100],[100,9183],[100,9268],[100,9350],[100,9434],[100,9517],[100,9600],[100,9684],[100,9767],[100,9850],[100,9934],[100,10017],[100,10101],[100,10184],[100,10267],[100,10351],[100,10434],[100,10518],[100,10601],[100,10684],[100,10768],[100,10851],[100,10935],[100,11018],[100,11101],[100,11185],[100,11268],[100,11351],[100,11435],[100,11518],[100,11602],[100,11685],[100,11768],[100,11852],[100,11935],[100,12019],[100,12103],[100,12185],[100,12269],[100,12352],[100,12436],[100,12519],[100,12602],[100,12686],[100,12769],[100,12853],[100,12936],[100,13019],[100,13103],[100,13186],[100,13270],[100,13353],[100,13436],[100,13520],[100,13603],[100,13686],[100,13770],[100,13853],[100,13937],[100,14020],[100,14103],[100,14187],[100,14270],[100,14354],[100,14437],[100,14520],[100,14604],[100,14687],[100,14771],[100,14854],[100,14937],[100,15021],[100,15104],[100,15187],[100,15271],[100,15354],[100,15438],[100,15521],[100,15604],[100,15688],[100,15771],[100,15855],[100,15938],[100,16021],[100,16105],[100,16188],[100,16271],[100,16355],[100,16438],[100,16522],[100,16605],[100,16688],[100,16772],[100,16855],[100,16939],[100,17022],[100,17105],[100,17189],[100,17272],[100,17356],[98.8,17439],[94.5,17523],[58.3,18107],[55.1,18191],[51.6,18274],[48,18357],[44.1,18441],[41.5,18524],[39.1,18608],[37,18691],[33,18773],[31.2,18858],[28.1,18941],[21.4,19024],[13.8,19108],[10.9,19191],[10.6,19275],[10.3,19357],[10.1,19440],[9.2,19525],[8.8,19607],[8.8,19691],[8.3,19775],[8.3,19857],[8.3,19942],[8.3,20024],[8.1,20108],[7.7,20191],[7.7,20274],[7.7,20358],[7.7,20441],[7.7,20525],[7.7,20608],[7.7,20691],[7.7,20775],[7.7,20858],[7.7,20941],[7.7,21025],[7.7,21108],[7.7,21192],[7.7,21275],[7.7,21359],[7.7,21442],[7.7,21525],[7.7,21609],[7.7,21692],[7.7,21776],[7.7,21859],[7.7,21942],[7.7,22026],[7.7,22109],[7.7,22192],[7.7,22276],[7.7,22359],[7.7,22442],[7.7,22526],[7.7,22610],[9.7,22694],[20.6,22777],[37.9,22860],[49.5,22944],[55.5,23027],[59,23110],[63,23194],[66.8,23277],[70,23361],[71,23444],[71.3,23527],[71.3,23610],[71.3,23694],[71.3,23777],[71.3,23861],[68.6,23944],[62.9,24028],[61.2,24111],[60.4,24195],[56.5,24278],[53.1,24361],[51.6,24445],[51.3,24527],[51.2,24611],[50.9,24695],[50.3,24778],[50.2,24861],[50.2,24944],[50.2,25028],[50.2,25111],[50.2,25194],[50.2,25278],[50.2,25361],[50.2,25445],[50.2,25528],[50.2,25611],[50.2,25695],[50.2,25778],[50.2,25861],[50.2,25945],[50.2,26028],[50.8,26113],[54.5,26196],[58.1,26279],[62,26363],[66.1,26446],[69.1,26530],[71.8,26613],[73.4,26695],[75.4,26780],[77.2,26863],[77.7,26946],[77.7,27029],[77.7,27112],[77.7,27196],[77.7,27279],[77.7,27362],[77.7,27446],[77.7,27529],[77.7,27613],[77.7,27696],[77.7,27779],[77.7,27863],[77.7,27946],[77.7,28030],[77.7,28113],[77.7,28196],[77.7,28280],[77.3,28364],[75.3,28448],[70.9,28531],[65.4,28614],[59,28698],[52.2,28781],[49.8,28863],[49.8,28947],[49.8,29031],[49.8,29114],[49.8,29197],[49.8,29280],[49.8,29364],[49.7,29447],[49.4,29531],[49.3,29614],[49.3,29698]]",300.8793,309.3691,76.171875,5.1763,"[{""rating"":76.171875,""responseTime"":5.176300000011906}]",space,7.9726,,309.3693,Definitely yes,100,309.3713,,,[],,0,0,0,0,1,audio/Narrative13Situation2.wav,audio/Narrative13Situation2.wav,audio/Narrative13Situation2.wav,audio/Narrative13Situation2.wav,2,2,2,2,,,,,,,,,,,,,,,,,,,,,,,,,,,,,,,,,,,,,,,
,,,,,67094d6215b6d0fe3e8c3e39,2025-07-07_21h03.15.010,group3.4_multiperson,2023.2.2,Win32,178.5714286,686c2ebf0248f13bef9af11f,686c7b862b9ae4e0cabe4ba2,,,,,,,,,,,,,,,,,,,,,,,,,,,,,309.3715,1,audio/Narrative8Situation1.wav,312.1589,space,312.159,328.0587,"[[65.3,501],[63.4,584],[63.4,666],[62.7,751],[59.9,834],[57.3,917],[57,1000],[56.9,1083],[56.9,1167],[56.9,1250],[56.9,1334],[56.7,1417],[51.5,1501],[50.1,1584],[50.1,1667],[50.3,1752],[56.3,1835],[66.6,1918],[73.5,2002],[77.7,2085],[83.8,2168],[88,2252],[88.8,2334],[88.8,2418],[88.8,2502],[90.8,2586],[92.3,2669],[92.3,2751],[92.3,2835],[92.3,2918],[92.3,3001],[92.3,3085],[92.3,3169],[92.3,3252],[92.3,3335],[92.3,3418],[92.6,3502],[93.6,3586],[93.6,3668],[93.6,3752],[93.6,3836],[93.6,3919],[93.6,4002],[93.6,4086],[93.1,4170],[91.1,4253],[89.1,4337],[85.2,4420],[84,4503],[83.8,4587],[83.6,4670],[83.1,4753],[83.1,4836],[83.1,4919],[83.1,5004],[83.1,5086],[83.1,5170],[83.1,5254],[83.1,5336],[82.9,5421],[82.7,5503],[83,5587],[83.1,5670],[83.2,5754],[83.4,5837],[83.4,5921],[83.4,6003],[83.4,6087],[83.4,6170],[83.5,6254],[82.8,6337],[82.4,6421],[82.3,6504],[82.3,6587],[82.3,6670],[82.3,6754],[82.3,6837],[82.3,6921],[82.3,7004],[82.3,7088],[82.3,7171],[82.3,7254],[82.3,7338],[82.3,7421],[82.3,7505],[82.2,7589],[82,7671],[82,7755],[81.9,7839],[81.9,7921],[81.9,8005],[81.9,8088],[81.9,8171],[81.9,8255],[81.9,8338],[81.9,8422],[81.9,8505],[81.9,8589],[81.9,8673],[81.9,8755],[81.9,8840],[81.9,8922],[81.6,9006],[81.4,9090],[81.4,9173],[81.4,9256],[81.3,9340],[81.1,9422],[81.1,9506],[81.1,9589],[79.9,9673],[76.5,9757],[66.3,9840],[58,9924],[54.2,10007],[51.8,10091],[51.3,10174],[50.7,10257],[50.6,10340],[50.6,10423],[50.2,10507],[49.8,10590],[49.8,10673],[49.8,10757],[49.8,10840],[49.8,10923],[49.8,11007],[49.8,11090],[49.8,11174],[49.8,11257],[49.8,11340],[49.5,11424],[47,11508],[45.3,11591],[45.2,11674],[45.2,11757],[45.2,11841],[44.6,11925],[42.7,12009],[41.7,12091],[41.7,12174],[41.7,12258],[41.7,12341],[41.7,12425],[41.7,12508],[41.7,12591],[41.7,12675],[41.7,12758],[41.7,12841],[41.7,12925],[42,13008],[44.1,13093],[47.4,13176],[49.6,13259],[50.6,13343],[50.7,13425],[50.7,13509],[50.7,13592],[50.3,13675],[50.1,13760],[49.7,13843],[49.7,13926],[49.7,14009],[49.7,14093],[49.7,14177],[49.7,14259],[49.7,14343],[49.7,14426],[49.7,14509],[49.7,14593],[49.7,14676],[49.8,14759],[49.8,14843],[49.9,14926],[49.9,15010],[49.9,15093],[49.9,15176],[49.9,15260],[49.9,15343],[49.9,15427],[49.9,15510],[49.9,15593],[49.9,15677],[49.9,15760],[49.9,15844]]",328.0589,333.7635,50.15625,4.5533,"[{""rating"":50.15625,""responseTime"":4.553300000011916}]",space,5.1967,,333.7635,Definitely yes,100,333.7644,,,[],,0,1,1,1,1,audio/Narrative7Situation1.wav,audio/Narrative8Situation1.wav,audio/Narrative5Situation1.wav,audio/Narrative6Situation1.wav,2,5,5,2,2.7807,,,,,,,,,,,,,,,,,,,,,,,,,,,,,,,,,,,,,,
,,,,,67094d6215b6d0fe3e8c3e39,2025-07-07_21h03.15.010,group3.4_multiperson,2023.2.2,Win32,178.5714286,686c2ebf0248f13bef9af11f,686c7b862b9ae4e0cabe4ba2,,,,,,,,,,,,,,,,,,,,,,,,,,,,,333.7644,1,audio/Narrative8Situation2.wav,336.7646,,336.7646,346.8548,"[[51.2,1001],[51.3,1084],[51.3,1167],[51.3,1250],[51.3,1334],[51.3,1417],[51.3,1500],[51.3,1584],[51.3,1667],[51.3,1751],[51.3,1834],[51.3,1917],[51.3,2001],[51.3,2084],[51.3,2168],[51.3,2251],[51.3,2334],[51.3,2418],[51.3,2501],[51.3,2584],[51.3,2668],[51.3,2751],[51.3,2835],[51.3,2918],[51.3,3002],[51.3,3085],[51.3,3168],[51.3,3252],[51.3,3335],[51.3,3418],[51.3,3502],[51.3,3585],[51.3,3669],[51.3,3752],[51.3,3835],[51.3,3919],[51.3,4002],[51.3,4086],[51.3,4169],[51.3,4252],[51.3,4336],[51.3,4419],[51.3,4503],[51.3,4586],[51.3,4670],[47.1,4754],[40.7,4837],[36.1,4921],[29.5,5004],[24.8,5087],[20.9,5171],[16.4,5254],[12,5337],[7.9,5421],[5.5,5504],[4.6,5588],[4.1,5671],[3.6,5754],[3,5837],[2.2,5920],[1.2,6004],[0.7,6087],[0.7,6170],[0.6,6254],[0.5,6338],[0.5,6420],[0.5,6504],[0.3,6588],[0.3,6671],[0.2,6754],[0.2,6837],[0.2,6921],[0.2,7004]]",346.8549,354.8111,0.3125,4.6388,"[{""rating"":0.3124999999999989,""responseTime"":4.6388000000119405}]",space,7.4431,,354.8111,Not at all,0,354.8126,,,[],,0,2,2,2,1,audio/Narrative7Situation2.wav,audio/Narrative8Situation2.wav,audio/Narrative5Situation2.wav,audio/Narrative6Situation2.wav,3,3,3,3,,,,,,,,,,,,,,,,,,,,,,,,,,,,,,,,,,,,,,,
,,,,,67094d6215b6d0fe3e8c3e39,2025-07-07_21h03.15.010,group3.4_multiperson,2023.2.2,Win32,178.5714286,686c2ebf0248f13bef9af11f,686c7b862b9ae4e0cabe4ba2,,,,,,,,,,,,,,,,,,,,,,,,,,,,,354.8127,1,audio/Narrative8Situation3.wav,358.8137,,358.8137,381.179,"[[42.3,667],[45.6,750],[48.7,834],[49.4,916],[49.7,999],[49.7,1083],[49.7,1166],[49.7,1250],[49.7,1333],[49.8,1416],[49.9,1500],[49.9,1583],[49.9,1667],[49.9,1750],[49.9,1833],[49.9,1917],[49.9,2000],[49.9,2084],[49.9,2167],[49.9,2250],[49.9,2334],[49.9,2417],[49.9,2500],[49.9,2584],[49.9,2667],[49.9,2751],[49.9,2834],[49.9,2918],[49.9,3001],[49.9,3085],[49.9,3168],[49.9,3251],[49.9,3334],[49.9,3419],[49.9,3502],[49.9,3585],[49.9,3668],[49.9,3752],[49.9,3835],[49.9,3918],[49.9,4002],[49.9,4085],[49.9,4169],[49.9,4253],[49.9,4335],[49.9,4418],[49.9,4502],[49.9,4585],[49.9,4669],[49.8,4752],[49.8,4835],[49.6,4919],[49.5,5002],[49.5,5086],[49.4,5169],[49.4,5252],[49.4,5336],[49.4,5419],[49.4,5502],[49.4,5586],[49.4,5669],[49.9,5754],[50.2,5836],[51.5,5920],[52.2,6003],[52.3,6087],[52.3,6170],[52.3,6253],[52.3,6337],[52.2,6420],[51.5,6504],[50.2,6588],[49,6671],[48.4,6754],[48.4,6837],[48.4,6920],[49,7004],[55.7,7088],[65.2,7171],[79.3,7255],[92.1,7338],[93.8,7420],[95.2,7504],[95.2,7587],[95.5,7671],[97.6,7755],[97.7,7837],[98.6,7922],[100,8004],[100,8088],[100,8171],[100,8255],[100,8339],[100,8422],[100,8505],[100,8588],[100,8671],[100,8755],[100,8838],[100,8922],[100,9005],[100,9088],[100,9172],[100,9255],[100,9338],[100,9422],[100,9505],[100,9589],[100,9672],[100,9755],[100,9839],[100,9922],[100,10006],[100,10089],[100,10172],[100,10256],[100,10339],[100,10422],[100,10506],[100,10589],[100,10673],[100,10756],[100,10839],[100,10923],[100,11006],[100,11090],[100,11173],[100,11256],[100,11340],[100,11423],[100,11507],[100,11590],[100,11673],[100,11757],[100,11840],[100,11924],[100,12007],[100,12090],[100,12174],[100,12257],[100,12341],[100,12424],[100,12507],[100,12591],[100,12674],[100,12757],[100,12841],[100,12924],[100,13008],[100,13091],[100,13174],[100,13258],[100,13341],[100,13425],[100,13508],[100,13591],[100,13675],[100,13758],[100,13842],[100,13925],[100,14008],[100,14092],[100,14175],[100,14258],[100,14343],[100,14425],[100,14509],[100,14592],[100,14676],[100,14759],[100,14842],[100,14926],[100,15009],[100,15092],[100,15176],[100,15259],[100,15343],[100,15426],[100,15509],[100,15593],[100,15676],[100,15760],[100,15843],[100,15926],[100,16010],[100,16094],[100,16176],[100,16261],[100,16343],[100,16427],[100,16510],[100,16593],[100,16677],[100,16760],[100,16843],[100,16927],[100,17010],[100,17094],[100,17177],[100,17260],[100,17344],[100,17427],[100,17511],[100,17594],[100,17677],[100,17761],[100,17844],[100,17928],[100,18011],[100,18094],[100,18179],[100,18261],[100,18345],[100,18428],[100,18511],[100,18595],[100,18678],[100,18762],[100,18845],[100,18928],[100,19012],[100,19095],[100,19179],[100,19262],[100,19345],[100,19429],[100,19512],[100,19596],[100,19679],[100,19762],[100,19847],[100,19929],[100,20013],[100,20096],[100,20179],[100,20263],[100,20346],[100,20429],[100,20514],[100,20596],[100,20680],[100,20763],[100,20846],[100,20930],[100,21013],[100,21096],[100,21180],[100,21263],[100,21347],[100,21430],[100,21514],[100,21597],[100,21680],[100,21764],[100,21847],[100,21930],[100,22014],[100,22097],[100,22181],[100,22264],[100,22347]]",381.1791,387.3498,99.84375,5.3161,"[{""rating"":99.84375,""responseTime"":5.31610000002388}]",space,5.6545,,387.3498,Not at all,0,387.3505,,,[],,0,3,3,3,1,audio/Narrative7Situation3.wav,audio/Narrative8Situation3.wav,audio/Narrative5Situation3.wav,audio/Narrative6Situation3.wav,8,4,3,5,,,,,,,,,,,,,,,,,,,,,,,,,,,,,,,,,,,,,,,
,,,,,67094d6215b6d0fe3e8c3e39,2025-07-07_21h03.15.010,group3.4_multiperson,2023.2.2,Win32,178.5714286,686c2ebf0248f13bef9af11f,686c7b862b9ae4e0cabe4ba2,,,,,,,,,,,,,,,,,,,,,,,,,,,,,387.3506,1,audio/Narrative8Situation4.wav,390.3511,,390.3512,404.4998,"[[99.5,250],[99.5,333],[99.5,416],[99.5,500],[99.5,583],[99.5,666],[98.7,750],[98.5,833],[98.4,917],[98.4,1000],[98.4,1083],[98.4,1168],[97.3,1251],[97.2,1334],[97.2,1417],[97.2,1500],[97.2,1584],[97.2,1667],[97.2,1751],[97.2,1834],[97.2,1917],[97.2,2001],[97.2,2084],[97.2,2168],[97.2,2252],[97.2,2334],[96.1,2419],[89.4,2502],[82.6,2586],[55.9,2836],[55.7,2918],[57.4,3003],[65.2,3086],[74.5,3169],[80.5,3253],[87.8,3336],[93,3419],[96.4,3502],[98,3586],[99.5,3670],[100,3753],[100,3835],[100,3919],[100,4002],[100,4086],[100,4169],[100,4252],[100,4336],[100,4419],[100,4502],[100,4586],[100,4669],[100,4753],[100,4836],[100,4919],[100,5003],[100,5087],[100,5170],[100,5253],[100,5337],[100,5420],[100,5503],[100,5587],[100,5670],[100,5753],[100,5838],[100,5920],[100,6004],[100,6087],[100,6170],[100,6255],[100,6338],[100,6420],[100,6504],[100,6587],[100,6672],[100,6755],[100,6838],[100,6921],[100,7005],[100,7088],[100,7171],[100,7254],[100,7338],[100,7421],[100,7505],[100,7588],[100,7671],[100,7755],[100,7839],[100,7922],[100,8006],[100,8089],[100,8172],[100,8255],[100,8338],[100,8423],[100,8505],[100,8589],[100,8673],[100,8755],[100,8839],[100,8922],[100,9006],[100,9089],[100,9173],[100,9256],[100,9339],[100,9423],[100,9506],[100,9589],[100,9674],[100,9756],[100,9839],[100,9923],[100,10006],[100,10091],[100,10173],[100,10256],[100,10341],[100,10423],[100,10507],[100,10590],[100,10673],[100,10757],[100,10840],[100,10924],[100,11007],[100,11090],[100,11174],[100,11257],[100,11341],[100,11424],[100,11507],[100,11591],[100,11674],[100,11757],[100,11841],[100,11925],[100,12009],[100,12091],[100,12174],[100,12259],[100,12341],[100,12425],[100,12509],[100,12592],[100,12675],[100,12758],[100,12842],[100,12925],[100,13009],[100,13092],[100,13176],[100,13259],[100,13342],[100,13425],[100,13509],[100,13592],[100,13675],[100,13759],[100,13842],[100,13925],[100,14009],[100,14092]]",404.4999,424.797,99.6875,19.4252,"[{""rating"":99.6875,""responseTime"":19.42519999998808}]",space,19.7871,,424.797,Not at all,0,424.7978,,,[],,0,4,4,4,1,audio/Narrative7Situation4.wav,audio/Narrative8Situation4.wav,audio/Narrative5Situation4.wav,audio/Narrative6Situation4.wav,3,3,1,2,,,,,,,,,,,,,,,,,,,,,,,,,,,,,,,,,,,,,,,
,,,,,67094d6215b6d0fe3e8c3e39,2025-07-07_21h03.15.010,group3.4_multiperson,2023.2.2,Win32,178.5714286,686c2ebf0248f13bef9af11f,686c7b862b9ae4e0cabe4ba2,,,,,,,,,,,,,,,,,,,,,,,,,,,,,424.798,1,audio/Narrative8Situation5.wav,426.7982,,426.7983,435.0206,"[[100,1250],[98.7,1335],[97.3,1418],[93.8,1502],[91.5,1585],[88.8,1668],[87,1752],[86.6,1834],[86.6,1918],[86.6,2001],[86.6,2084],[86.6,2168],[86.6,2252],[86.6,2335],[86.7,2418],[86.7,2501],[86.7,2585],[87.7,2669],[88.4,2751],[89.4,2835],[90.6,2918],[92,3003],[93.2,3086],[94.1,3169],[95.9,3253],[97.7,3336],[99.5,3420],[100,3502],[100,3586],[100,3669],[100,3752],[100,3836],[100,3920],[100,4002],[100,4086],[100,4169],[100,4252],[100,4336],[100,4419],[100,4503],[100,4586],[100,4670],[100,4754],[100,4836],[100,4920],[100,5004],[100,5086],[100,5171],[100,5253],[100,5337],[100,5421],[100,5503],[100,5587],[100,5670],[100,5754],[100,5837],[100,5920],[100,6004],[100,6087],[100,6170],[100,6254],[100,6338],[100,6420],[100,6504],[100,6587],[100,6671],[100,6754],[100,6838],[100,6921],[100,7004],[100,7088],[100,7171],[100,7254],[100,7338],[100,7421],[100,7505],[100,7588],[100,7671],[100,7755],[100,7838],[100,7922],[100,8005],[100,8088],[100,8172]]",435.0207,440.4688,99.375,4.8492,"[{""rating"":99.375,""responseTime"":4.849199999988116}]",space,4.9391,,440.4688,Partially,50,440.4701,,,[],,0,5,5,5,1,audio/Narrative7Situation5.wav,audio/Narrative8Situation5.wav,audio/Narrative5Situation5.wav,audio/Narrative6Situation5.wav,5,2,5,2,,,,,,,,,,,,,,,,,,,,,,,,,,,,,,,,,,,,,,,
,,,,,67094d6215b6d0fe3e8c3e39,2025-07-07_21h03.15.010,group3.4_multiperson,2023.2.2,Win32,178.5714286,686c2ebf0248f13bef9af11f,686c7b862b9ae4e0cabe4ba2,,,,,,,,,,,,,,,,,,,,,,,,,,,,,440.4703,1,audio/Narrative8Situation6.wav,442.4757,,442.4757,448.919,[],448.919,454.8849,99.453125,4.9596,"[{""rating"":99.453125,""responseTime"":4.9596000000238405}]",space,5.4538,,454.8849,Not at all,0,454.886,,,[],,0,6,6,6,1,audio/Narrative7Situation6.wav,audio/Narrative8Situation6.wav,audio/Narrative5Situation6.wav,audio/Narrative6Situation6.wav,3,2,3,2,,,,,,,,,,,,,,,,,,,,,,,,,,,,,,,,,,,,,,,
,,,,,67094d6215b6d0fe3e8c3e39,2025-07-07_21h03.15.010,group3.4_multiperson,2023.2.2,Win32,178.5714286,686c2ebf0248f13bef9af11f,686c7b862b9ae4e0cabe4ba2,,,,,,,,,,,,,,,,,,,,,,,,,,,,,454.8861,1,audio/Narrative8Situation7.wav,457.8862,,457.8862,469.95,"[[95.9,5671],[95.6,5753],[95.6,5837],[95.6,5920],[95.6,6003],[95.6,6088],[95.5,6170],[94.8,6254],[94.8,6337],[94.4,6421],[94.3,6504],[94.3,6587],[94.9,6671],[96.3,6755],[97.5,6837],[97.5,6921],[97.7,7005],[98.2,7088],[99.1,7171],[99.3,7254],[99.4,7339],[99.5,7421],[99.5,7505],[99.5,7588],[99.5,7671],[99.5,7755],[99.5,7838],[99.4,7921],[99,8006],[98.8,8088],[98.8,8172],[98.8,8255],[98.8,8338],[98.8,8422],[98.9,8506],[99,8589],[99,8672],[98.9,8755],[98.8,8839],[98.8,8922],[98.8,9006],[98.8,9089],[98.8,9172],[99.1,9257],[99.8,9340],[99.8,9422],[100,9507],[100,9589],[100,9673],[100,9756],[100,9839],[100,9923],[100,10006],[100,10090],[100,10173],[100,10256],[100,10340],[100,10423],[100,10507],[100,10590],[100,10673],[100,10757],[100,10840],[100,10924],[100,11007],[100,11090],[100,11174],[100,11257],[100,11340],[100,11424],[100,11507],[100,11591],[100,11674],[100,11757],[100,11841],[100,11924],[100,12008]]",469.9501,478.5058,99.453125,8.3852,"[{""rating"":99.453125,""responseTime"":8.38519999998806}]",space,8.0445,,478.5059,Definitely yes,100,478.5071,,,[],,0,7,7,7,1,audio/Narrative7Situation7.wav,audio/Narrative8Situation7.wav,audio/Narrative5Situation7.wav,audio/Narrative6Situation7.wav,5,3,4,5,,,,,,,,,,,,,,,,,,,,,,,,,,,,,,,,,,,,,,,
,,,,,67094d6215b6d0fe3e8c3e39,2025-07-07_21h03.15.010,group3.4_multiperson,2023.2.2,Win32,178.5714286,686c2ebf0248f13bef9af11f,686c7b862b9ae4e0cabe4ba2,,,,,,,,,,,,,,,,,,,,,,,,,,,,,478.5073,1,audio/Narrative8Situation8.wav,481.5086,,481.5086,494.3445,"[[999,0],[999,83],[999,167],[999,249],[999,332],[999,416],[999,500],[999,582],[999,666],[999,749],[999,833],[999,916],[999,999],[999,1083],[999,1167],[999,1250],[999,1333],[999,1417],[999,1500],[999,1584],[999,1668],[999,1751],[999,1833],[999,1917],[999,2000],[999,2085],[999,2168],[999,2251],[999,2335],[999,2418],[999,2501],[77.7,2585],[78.1,2667],[78.2,2751],[78.2,2834],[78.2,2918],[78.2,3001],[78.3,3084],[78.3,3168],[78.3,3251],[78.3,3335],[78.4,3418],[78.5,3502],[78.5,3585],[78.5,3669],[78.6,3751],[78.6,3835],[78.6,3919],[78.6,4002],[78.6,4086],[78.7,4168],[78.8,4252],[79.1,4336],[80.1,4419],[80.2,4503],[80.2,4585],[80.2,4670],[80.2,4752],[80.2,4835],[80.2,4920],[80.2,5002],[80.2,5086],[80.2,5169],[80.2,5252],[80.2,5336],[80.2,5419],[80.2,5502],[80.2,5586],[80.2,5669],[80.2,5753],[80.2,5836],[80.1,5919],[79.7,6003],[79.1,6087],[78.9,6170],[78.8,6254],[79.8,6338],[83.3,6421],[95.9,7005],[99,7088],[99.2,7171],[98.8,7254],[98.3,7338],[98.2,7421],[98.3,7504],[98.5,7588],[98.9,7671],[99.9,7755],[100,7837],[100,7921],[100,8004],[100,8088],[100,8171],[100,8254],[100,8338],[100,8421],[100,8505],[100,8588],[100,8671],[100,8755],[100,8838],[100,8922],[100,9005],[100,9088],[100,9172],[100,9256],[100,9339],[100,9422],[100,9505],[100,9589],[100,9672],[100,9756],[100,9839],[100,9923],[100,10006],[100,10089],[100,10173],[100,10256],[100,10339],[100,10423],[100,10507],[100,10590],[100,10673],[100,10756],[100,10840],[100,10924],[100,11006],[100,11090],[100,11173],[100,11257],[100,11340],[100,11423],[100,11507],[100,11590],[100,11673],[100,11757],[100,11841],[100,11924],[100,12007],[100,12090],[100,12174],[100,12257],[100,12341],[100,12424],[100,12507],[100,12591],[100,12674],[100,12757]]",494.3445,498.942,99.765625,2.1325,"[{""rating"":99.765625,""responseTime"":2.132499999999993}]",space,4.0867,,498.9421,Partially,50,498.9435,,,[],,0,8,8,8,1,audio/Narrative7Situation8.wav,audio/Narrative8Situation8.wav,audio/Narrative5Situation8.wav,audio/Narrative6Situation8.wav,2,3,3,5,,,,,,,,,,,,,,,,,,,,,,,,,,,,,,,,,,,,,,,
,,,,,67094d6215b6d0fe3e8c3e39,2025-07-07_21h03.15.010,group3.4_multiperson,2023.2.2,Win32,178.5714286,686c2ebf0248f13bef9af11f,686c7b862b9ae4e0cabe4ba2,,,,,,,,,,,,,,,,,,,,,,,,,,,,,498.9436,1,audio/Narrative8Situation9.wav,501.9441,,501.9441,513.2351,"[[98.4,1084],[98,1167],[98,1250],[98,1334],[98,1417],[98.5,1502],[99.1,1584],[99.5,1667],[99.5,1751],[99.5,1834],[99.5,1917],[99.5,2001],[99.5,2084],[99.5,2168],[99.5,2252],[99.5,2334],[99.5,2418],[99.5,2501],[99.5,2585],[99.5,2668],[99.5,2751],[99.5,2835],[99.5,2918],[99.5,3002],[99.5,3085],[99.5,3168],[99.5,3252],[99.5,3335],[99.5,3418],[99.5,3502],[99.5,3586],[99.5,3669],[99.5,3752],[99.5,3835],[99.5,3919],[99.5,4002],[99.5,4086],[99.5,4170],[99.5,4252],[99.5,4336],[99.5,4419],[99.5,4503],[99.5,4586],[99.5,4669],[99.5,4753],[99.5,4836],[99.5,4919],[99.5,5003],[99.5,5086],[99.5,5170],[99.5,5253],[99.5,5336],[99.5,5420],[99.5,5503],[99.5,5587],[99.5,5670],[99.5,5753],[99.5,5837],[99.5,5920],[99.5,6004],[99.5,6087],[99.5,6170],[99.5,6254],[99.5,6337],[99.5,6421],[99.5,6505],[99.5,6587],[99.5,6671],[99.5,6754],[99.5,6837],[99.5,6921],[99.5,7004],[99.5,7088],[99.5,7171],[99.5,7254],[99.5,7338],[99.5,7422],[99.5,7505],[99.5,7588],[99.5,7671],[99.5,7755],[99.5,7838],[99.5,7922],[99.5,8005],[99.5,8088],[99.5,8172],[99.5,8255],[99.5,8338],[99.5,8422],[99.5,8505],[99.5,8589],[99.5,8672],[99.5,8755],[99.5,8839],[99.5,8922],[99.5,9006],[99.5,9089],[99.5,9172],[99.5,9256],[99.5,9339],[99.5,9423],[99.5,9506],[99.5,9589],[99.5,9673],[99.5,9756],[99.5,9840],[99.5,9923],[99.5,10006],[99.5,10090],[99.5,10173],[99.5,10256],[99.5,10340],[99.5,10423],[99.5,10507],[99.5,10590],[99.5,10673],[99.5,10757],[99.5,10840],[99.5,10923],[99.5,11007],[99.5,11090],[99.5,11174],[99.5,11258]]",513.2353,521.425,99.765625,6.8476,"[{""rating"":99.765625,""responseTime"":6.847600000023817}]",space,7.6796,,521.425,Partially,50,521.4259,,,[],,0,9,9,9,1,audio/Narrative7Situation9.wav,audio/Narrative8Situation9.wav,audio/Narrative5Situation9.wav,audio/Narrative6Situation9.wav,2,3,3,4,,,,,,,,,,,,,,,,,,,,,,,,,,,,,,,,,,,,,,,
,,,,,67094d6215b6d0fe3e8c3e39,2025-07-07_21h03.15.010,group3.4_multiperson,2023.2.2,Win32,178.5714286,686c2ebf0248f13bef9af11f,686c7b862b9ae4e0cabe4ba2,,,,,,,,,,,,,,,,,,,,,,,,,,,,,521.4259,1,audio/Narrative7Situation1.wav,523.431,,523.4311,579.2914,"[[98.9,5087],[94.1,5171],[90.6,5254],[89.2,5337],[87.8,5421],[75.4,5504],[65,5588],[63.4,5670],[63.4,5753],[63.4,5837],[63.4,5921],[63.4,6004],[63.4,6088],[63,6171],[63,6255],[63.4,6338],[63.4,6420],[63.4,6505],[65.6,6588],[68.8,6672],[70.2,6754],[70.2,6837],[70.2,6921],[70.2,7004],[70.2,7088],[70.3,7172],[71.3,7255],[74,7339],[76.2,7422],[78.4,7506],[80.8,7588],[81.2,7671],[81.2,7755],[81.2,7839],[81.2,7921],[81.2,8005],[81.2,8089],[81.2,8172],[81.2,8255],[81.2,8338],[81.2,8422],[81.2,8506],[81.2,8589],[81.2,8672],[81.2,8755],[81.2,8839],[81.2,8922],[81.2,9006],[83.4,9090],[87.7,9173],[88,9256],[88.5,9340],[91.5,9424],[91.5,9506],[91.5,9589],[91.5,9673],[91.5,9756],[93,9841],[96,9924],[99.1,10007],[100,10090],[100,10173],[100,10256],[100,10340],[100,10423],[100,10507],[100,10591],[100,10673],[100,10757],[100,10841],[100,10924],[100,11007],[100,11090],[100,11174],[100,11257],[100,11340],[100,11424],[100,11507],[100,11591],[100,11674],[100,11757],[100,11841],[100,11924],[100,12008],[100,12091],[100,12174],[100,12258],[100,12341],[100,12424],[100,12508],[100,12591],[100,12675],[100,12758],[100,12841],[100,12925],[100,13008],[100,13092],[100,13175],[100,13258],[100,13342],[100,13425],[100,13509],[100,13592],[100,13675],[100,13759],[100,13842],[100,13926],[100,14009],[100,14092],[100,14176],[100,14259],[100,14342],[100,14426],[100,14509],[100,14593],[100,14676],[100,14759],[100,14843],[100,14927],[100,15010],[100,15094],[100,15176],[100,15260],[100,15344],[100,15427],[100,15511],[100,15593],[100,15677],[100,15760],[100,15844],[100,15927],[100,16010],[100,16094],[100,16177],[100,16260],[100,16344],[100,16427],[100,16511],[100,16594],[100,16677],[100,16761],[100,16844],[100,16927],[100,17011],[100,17094],[100,17178],[100,17261],[100,17345],[100,17428],[100,17511],[100,17595],[100,17678],[100,17762],[100,17845],[100,17928],[100,18012],[100,18095],[100,18178],[100,18262],[100,18346],[100,18429],[100,18512],[100,18596],[100,18679],[100,18762],[100,18846],[100,18930],[100,19013],[100,19097],[100,19180],[100,19263],[100,19346],[100,19429],[100,19513],[100,19596],[100,19679],[100,19763],[100,19846],[100,19930],[100,20013],[100,20096],[100,20180],[100,20263],[100,20347],[100,20430],[100,20513],[100,20597],[100,20680],[100,20764],[100,20848],[100,20930],[100,21014],[100,21097],[100,21180],[100,21264],[100,21347],[100,21431],[100,21514],[100,21597],[100,21681],[100,21764],[100,21848],[100,21931],[100,22014],[100,22098],[100,22181],[100,22265],[100,22348],[100,22431],[100,22515],[100,22598],[100,22682],[100,22765],[100,22849],[100,22932],[100,23015],[100,23098],[100,23183],[100,23265],[100,23349],[100,23433],[100,23516],[100,23599],[100,23682],[100,23766],[100,23849],[100,23932],[100,24016],[100,24099],[100,24183],[100,24266],[100,24349],[100,24433],[100,24516],[100,24600],[100,24683],[100,24766],[100,24851],[100,24934],[100,25016],[100,25100],[100,25183],[100,25267],[99.8,25351],[99.8,25434],[99.8,25517],[99.8,25600],[99.8,25684],[100,25768],[100,25850],[100,25934],[100,26017],[100,26101],[100,26184],[100,26268],[100,26351],[100,26434],[100,26518],[100,26601],[100,26685],[100,26768],[100,26851],[100,26935],[100,27019],[100,27101],[100,27185],[100,27268],[100,27351],[100,27435],[100,27518],[100,27603],[100,27686],[100,27768],[100,27852],[100,27935],[100,28019],[99.6,28102],[99.4,28185],[99.3,28269],[99.3,28352],[99.3,28436],[99.9,28520],[100,28602],[100,28686],[100,28769],[100,28853],[100,28936],[100,29019],[100,29103],[100,29186],[100,29270],[100,29353],[100,29436],[100,29520],[100,29604],[100,29686],[100,29770],[100,29853],[100,29937],[100,30020],[100,30103],[100,30188],[100,30271],[100,30353],[99.8,30437],[99.8,30520],[99.6,30604],[99.6,30687],[99.6,30770],[99.6,30855],[99.6,30938],[99.6,31021],[99.9,31105],[100,31187],[100,31271],[100,31355],[100,31438],[100,31521],[100,31604],[100,31688],[100,31771],[100,31854],[100,31938],[100,32021],[100,32105],[100,32188],[100,32272],[100,32355],[100,32439],[100,32522],[100,32605],[100,32688],[99.8,32772],[99.7,32856],[99.7,32939],[99.7,33022],[99.7,33106],[99.7,33189],[99.7,33272],[99.7,33356],[99.7,33439],[99.7,33523],[99.7,33607],[99.7,33690],[99.8,33773],[100,33856],[100,33940],[100,34024],[100,34107],[100,34190],[100,34273],[100,34356],[100,34440],[100,34523],[100,34606],[100,34690],[100,34773],[99.8,34857],[99.8,34940],[99.8,35024],[99.8,35107],[99.8,35191],[99.8,35274],[99.8,35357],[99.8,35440],[99.8,35524],[99.8,35608],[99.8,35690],[99.8,35774],[99.8,35857],[99.8,35941],[99.8,36024],[99.8,36108],[99.8,36191],[99.8,36275],[99.8,36358],[99.8,36441],[99.8,36524],[99.8,36608],[99.8,36691],[99.8,36775],[99.8,36858],[99.8,36941],[99.8,37025],[99.8,37108],[99.8,37192],[99.8,37275],[99.8,37358],[99.8,37442],[99.8,37525],[99.8,37608],[99.8,37693],[99.8,37775],[99.8,37859],[99.8,37943],[99.8,38025],[99.8,38110],[99.8,38193],[99.8,38276],[99.8,38359],[99.8,38442],[99.8,38526],[99.8,38610],[99.8,38693],[99.8,38776],[99.8,38860],[99.8,38943],[99.8,39026],[99.8,39109],[99.8,39194],[99.8,39276],[99.8,39360],[99.8,39443],[99.8,39526],[99.8,39610],[99.8,39693],[99.8,39777],[99.8,39861],[99.8,39943],[99.8,40027],[99.8,40110],[99.8,40194],[99.8,40277],[99.8,40360],[99.8,40444],[99.8,40528],[99.8,40610],[99.8,40694],[99.8,40777],[99.8,40861],[99.8,40944],[99.8,41027],[99.8,41111],[99.8,41194],[99.8,41278],[99.8,41361],[99.8,41444],[99.8,41528],[99.8,41611],[99.8,41695],[99.8,41778],[99.8,41861],[99.8,41945],[99.8,42028],[99.8,42111],[99.8,42195],[99.8,42278],[99.8,42362],[99.8,42445],[99.8,42528],[99.8,42612],[99.8,42695],[99.8,42779],[99.8,42862],[99.8,42945],[99.8,43029],[99.8,43112],[99.8,43196],[99.8,43279],[99.8,43362],[99.8,43446],[99.8,43529],[99.8,43612],[99.8,43696],[99.8,43779],[99.8,43863],[99.8,43946],[99.8,44029],[99.8,44113],[99.8,44196],[99.8,44280],[99.8,44363],[99.8,44446],[99.8,44530],[99.8,44613],[99.8,44697],[99.8,44780],[99.8,44863],[99.8,44947],[99.8,45030],[99.8,45114],[99.8,45198],[99.8,45280],[99.8,45364],[99.8,45447],[99.8,45531],[99.8,45614],[99.8,45697],[99.8,45781],[99.8,45864],[99.8,45947],[99.8,46031],[99.8,46114],[99.7,46199],[99.6,46281],[99.6,46364],[99.6,46448],[99.5,46531],[99.5,46615],[99.5,46698],[99.5,46781],[99.5,46865],[99.5,46948],[99.5,47032],[99.5,47115],[99.5,47198],[99.5,47282],[99.5,47365],[99.5,47448],[99.5,47532],[99.5,47615],[99.5,47699],[99.5,47782],[99.5,47865],[99.5,47949],[99.5,48032],[99.5,48116],[99.5,48199],[99.5,48282],[99.5,48366],[99.5,48449],[99.5,48533],[99.5,48616],[99.5,48700],[99.5,48784],[99.5,48867],[99.5,48950],[99.5,49033],[99.5,49116],[99.5,49200],[99.5,49283],[99.5,49366],[99.5,49450],[99.5,49533],[99.5,49617],[99.5,49700],[99.5,49784],[99.5,49867],[99.5,49950],[99.5,50034],[99.5,50118],[99.5,50200],[99.5,50284],[99.5,50368],[99.5,50451],[99.5,50535],[99.5,50617],[99.5,50701],[99.5,50784],[99.5,50868],[99.5,50951],[99.5,51034],[99.5,51118],[99.5,51201],[99.5,51284],[99.5,51368],[99.5,51452],[99.5,51535],[99.5,51618],[99.5,51701],[99.5,51785],[99.5,51869],[99.5,51952],[99.5,52035],[99.5,52119],[99.5,52202],[99.5,52286],[99.5,52369],[99.5,52453],[99.5,52536],[99.5,52619],[99.5,52702],[99.5,52786],[99.5,52869],[99.5,52952],[99.5,53036],[99.5,53119],[99.5,53202],[99.5,53286],[99.5,53369],[99.5,53453],[99.5,53536],[99.5,53619],[99.5,53703],[99.5,53786],[99.5,53870],[99.5,53953],[99.5,54036],[99.5,54120],[99.5,54204],[99.5,54286],[99.5,54370],[99.5,54453],[99.5,54537],[99.5,54621],[99.5,54703],[99.5,54788],[99.5,54870],[99.5,54954],[99.5,55037],[99.5,55120],[99.5,55204],[99.5,55287],[99.5,55371],[99.5,55454],[99.5,55537],[99.5,55621],[99.5,55704],[99.5,55788]]",579.2917,583.7889,99.375,3.7863,"[{""rating"":99.375,""responseTime"":3.78630000001192}]",space,3.9861,,583.789,Definitely yes,100,583.7902,,,[],,0,10,10,10,1,audio/Narrative8Situation1.wav,audio/Narrative7Situation1.wav,audio/Narrative6Situation1.wav,audio/Narrative5Situation1.wav,5,2,2,5,,,,,,,,,,,,,,,,,,,,,,,,,,,,,,,,,,,,,,,
,,,,,67094d6215b6d0fe3e8c3e39,2025-07-07_21h03.15.010,group3.4_multiperson,2023.2.2,Win32,178.5714286,686c2ebf0248f13bef9af11f,686c7b862b9ae4e0cabe4ba2,,,,,,,,,,,,,,,,,,,,,,,,,,,,,583.7903,1,audio/Narrative7Situation2.wav,586.791,,586.7911,594.246,"[[95.9,917],[95.9,1001],[95.9,1084],[95.9,1168],[95.9,1250],[95.9,1334],[95.9,1417],[95.9,1500],[95.9,1584],[95.9,1667],[95.9,1751],[95.9,1834],[95.9,1917],[95.9,2001],[95.9,2084],[95.9,2168],[95.9,2251],[95.9,2334],[95.9,2418],[95.9,2501],[95.9,2584],[95.9,2669],[95.9,2752],[95.9,2835],[95.9,2918],[95.9,3002],[95.9,3085],[95.9,3168],[95.9,3252],[95.9,3335],[95.9,3418],[95.9,3502],[95.9,3585],[95.9,3669],[95.9,3753],[95.9,3835],[95.9,3919],[95.9,4002],[95.9,4085],[95.9,4169],[95.9,4252],[95.9,4336],[95.9,4419],[95.9,4502],[95.9,4586],[95.9,4669],[95.9,4753],[95.9,4836],[95.9,4919],[95.9,5003],[95.9,5087],[95.9,5170],[95.9,5253],[95.9,5336],[95.9,5420],[95.9,5503],[95.9,5586],[95.9,5670],[95.9,5754],[95.9,5837],[95.9,5920],[95.9,6004],[95.9,6087],[95.9,6170],[95.9,6254],[95.9,6337],[95.9,6420],[95.9,6505],[95.9,6587],[95.9,6671],[95.9,6755],[95.9,6837],[95.9,6921],[95.9,7004],[95.8,7088],[95.5,7171],[95.2,7255],[95.2,7339],[95.2,7422]]",594.2461,606.5888,99.53125,10.1018,"[{""rating"":99.53125,""responseTime"":10.101800000011849}]",space,11.8307,,606.5888,Not at all,0,606.59,,,[],,0,11,11,11,1,audio/Narrative8Situation2.wav,audio/Narrative7Situation2.wav,audio/Narrative6Situation2.wav,audio/Narrative5Situation2.wav,3,3,3,3,,,,,,,,,,,,,,,,,,,,,,,,,,,,,,,,,,,,,,,
,,,,,67094d6215b6d0fe3e8c3e39,2025-07-07_21h03.15.010,group3.4_multiperson,2023.2.2,Win32,178.5714286,686c2ebf0248f13bef9af11f,686c7b862b9ae4e0cabe4ba2,,,,,,,,,,,,,,,,,,,,,,,,,,,,,606.5902,1,audio/Narrative7Situation3.wav,614.5932,,614.5932,623.8219,"[[97,3086],[97.7,3169],[97.7,3252],[97,3336],[96,3419],[95.9,3502],[94.8,3586],[94.8,3669],[94.8,3752],[94.8,3836],[94.8,3919],[94.8,4002],[94.8,4086],[94.8,4169],[94.8,4253],[94.8,4336],[94.8,4419],[94.8,4503],[96.4,4587],[98.6,4670],[99.7,4754],[99.8,4836],[99.8,4920],[99.8,5003],[99.9,5086],[99.9,5171],[99.9,5253],[99.4,5337],[98.7,5421],[98.7,5504],[98.7,5587],[98.7,5670],[98.7,5753],[98.7,5838],[98.7,5921],[98.7,6004],[98.7,6087],[98.7,6171],[98.7,6254],[98.7,6337],[98.7,6421],[98.7,6504],[98.7,6588],[98.7,6672],[98.7,6754],[98.7,6838],[98.4,6922],[98.4,7004],[98.4,7088],[98.4,7172],[98.9,7255],[99.1,7339],[99.2,7421],[99.2,7505],[99.2,7589],[99.2,7672],[99.2,7756],[99.2,7839],[99.2,7923],[99.1,8006],[98.8,8089],[98.8,8173],[98.8,8255],[99.1,8340],[99.1,8422],[99.1,8505],[99.1,8590],[99.2,8673],[99.2,8756],[99.2,8839],[99.2,8923],[99.2,9007],[99.1,9090],[99,9173]]",623.822,634.1187,99.453125,1.5077,"[{""rating"":99.453125,""responseTime"":1.5076999999880627}]",space,9.7793,,634.1187,Partially,50,634.12,,,[],,0,12,12,12,1,audio/Narrative8Situation3.wav,audio/Narrative7Situation3.wav,audio/Narrative6Situation3.wav,audio/Narrative5Situation3.wav,4,8,5,3,,,,,,,,,,,,,,,,,,,,,,,,,,,,,,,,,,,,,,,
,,,,,67094d6215b6d0fe3e8c3e39,2025-07-07_21h03.15.010,group3.4_multiperson,2023.2.2,Win32,178.5714286,686c2ebf0248f13bef9af11f,686c7b862b9ae4e0cabe4ba2,,,,,,,,,,,,,,,,,,,,,,,,,,,,,634.1201,1,audio/Narrative7Situation4.wav,637.1206,,637.1206,648.8233,"[[999,0],[999,82],[999,166],[999,250],[68.4,332],[68.4,416],[68.4,499],[68.4,583],[68.4,666],[68.4,749],[71.4,834],[74.5,1251],[73.9,1334],[74.8,1417],[77.1,1501],[77.3,1583],[77.3,1667],[77.1,1751],[70.5,1834],[59.1,1918],[56.1,2001],[54.1,2085],[52.4,2170],[51.4,2250],[50.9,2335],[50.8,2417],[50.6,2500],[50.5,2584],[50.5,2667],[50.5,2750],[50.5,2834],[50.3,2917],[50.3,3001],[53.9,3085],[67.2,3168],[73.4,3251],[73.4,3334],[73.4,3418],[73.5,3501],[75.4,3585],[77.1,3669],[77.5,3751],[77.6,3835],[77.7,3918],[77.9,4001],[78,4086],[78.2,4168],[78.5,4251],[78.6,4335],[78.6,4418],[78.7,4502],[78.7,4585],[73.6,4669],[61.7,4753],[55.5,4836],[52.9,4919],[52,5003],[51.4,5086],[50.8,5170],[50.6,5252],[50.3,5336],[50.2,5419],[50.2,5502],[50.2,5586],[50.9,5670],[51.8,5754],[53,5837],[55.2,5920],[56.8,6004],[57.6,6087],[57.9,6170],[58.2,6253],[59.8,6337],[63.8,6421],[67.6,6504],[68,6587],[68.2,6670],[68.9,6754],[69.1,6837],[69.1,6920],[69.1,7004],[69.2,7088],[69.2,7171],[69.2,7254],[69.2,7337],[69.2,7420],[69.2,7504],[69.2,7587],[69.2,7671],[69.2,7754],[69.2,7837],[69.2,7921],[69.2,8004],[69.2,8088],[65.8,8172],[53,8255],[48.9,8338],[48.9,8421],[48.9,8505],[49.5,8589],[49.6,8672],[49.6,8755],[49.6,8839],[49.6,8922],[49.6,9006],[49.6,9088],[49.6,9172],[49.6,9256],[49.6,9339],[49.6,9422],[49.6,9505],[49.6,9590],[49.6,9672],[49.6,9755],[49.6,9839],[49.6,9922],[49.6,10006],[49.6,10089],[49.6,10173],[49.6,10256],[49.6,10339],[49.6,10423],[49.6,10507],[49.6,10590],[49.6,10673],[49.6,10757],[49.6,10840],[49.6,10923],[49.6,11007],[49.6,11091],[49.6,11173],[49,11257],[48.7,11340],[47.6,11424],[44.8,11508],[37.1,11591],[26.9,11674]]",648.8234,653.8266,0.078125,3.4129,"[{""rating"":0.07812500000000111,""responseTime"":3.412899999976162}]",space,4.4913,,653.8266,Partially,50,653.8275,,,[],,0,13,13,13,1,audio/Narrative8Situation4.wav,audio/Narrative7Situation4.wav,audio/Narrative6Situation4.wav,audio/Narrative5Situation4.wav,3,3,2,1,,,,,,,,,,,,,,,,,,,,,,,,,,,,,,,,,,,,,,,
,,,,,67094d6215b6d0fe3e8c3e39,2025-07-07_21h03.15.010,group3.4_multiperson,2023.2.2,Win32,178.5714286,686c2ebf0248f13bef9af11f,686c7b862b9ae4e0cabe4ba2,,,,,,,,,,,,,,,,,,,,,,,,,,,,,653.8276,1,audio/Narrative7Situation5.wav,658.8291,,658.8291,667.2904,"[[999,0],[999,83],[999,167],[999,250],[999,333],[999,416],[999,500],[999,583],[999,667],[999,751],[999,833],[999,918],[999,1000],[999,1084],[999,1167],[999,1250],[999,1334],[999,1418],[999,1501],[999,1584],[999,1667],[999,1751],[999,1835],[999,1917],[999,2001],[999,2084],[999,2168],[999,2251],[999,2335],[999,2419],[999,2502],[999,2586],[55.2,2669],[51.7,2752],[50,2836],[49.1,2919],[47.2,3002],[47.2,3085],[47.2,3169],[47.2,3253],[47.1,3336],[46.9,3419],[46.9,3503],[46.7,3586],[46.4,3670],[46.2,3752],[45.7,3836],[45.7,3920],[45.7,4003],[45.9,4086],[47.6,4170],[49.2,4253],[50.2,4337],[50.3,4419],[50.3,4503],[50.3,4587],[50.3,4669],[51.7,4754],[53.4,4837],[54.8,4920],[55.7,5004],[56.1,5087],[56.4,5171],[57.4,5254],[59.5,5337],[63.8,5421],[69.2,5504],[71.8,5588],[72.2,5671],[72.2,5754],[72.2,5838],[72.2,5920],[72.2,6004],[72.2,6087],[74.4,6171],[78.9,6255],[80.8,6337],[80.8,6421],[80.8,6504],[80.8,6587],[80.8,6671],[80.8,6754],[80.8,6837],[80.8,6921],[80.8,7004],[80.8,7088],[80.8,7171],[80.8,7254],[80.8,7338],[80.8,7421],[80.8,7504],[80.8,7588],[80.8,7671],[80.8,7755],[80.8,7838],[80.8,7922],[80.8,8005],[80.8,8088],[80.8,8172],[80.8,8255],[80.8,8339],[80.8,8422]]",667.2905,671.422,99.375,2.428,"[{""rating"":99.375,""responseTime"":2.4279999999999973}]",space,3.6201,,671.422,Partially,50,671.4228,,,[],,0,14,14,14,1,audio/Narrative8Situation5.wav,audio/Narrative7Situation5.wav,audio/Narrative6Situation5.wav,audio/Narrative5Situation5.wav,2,5,2,5,,,,,,,,,,,,,,,,,,,,,,,,,,,,,,,,,,,,,,,
,,,,,67094d6215b6d0fe3e8c3e39,2025-07-07_21h03.15.010,group3.4_multiperson,2023.2.2,Win32,178.5714286,686c2ebf0248f13bef9af11f,686c7b862b9ae4e0cabe4ba2,,,,,,,,,,,,,,,,,,,,,,,,,,,,,671.423,1,audio/Narrative7Situation6.wav,674.423,,674.4231,684.3751,"[[999,0],[999,83],[999,166],[999,250],[999,333],[999,416],[999,500],[999,583],[999,667],[999,750],[999,833],[999,917],[999,1000],[999,1083],[999,1167],[999,1250],[999,1334],[999,1417],[999,1500],[999,1584],[999,1667],[999,1751],[999,1834],[999,1917],[999,2001],[999,2084],[999,2168],[999,2251],[999,2334],[999,2418],[999,2501],[999,2585],[999,2668],[94.3,2752],[93,2835],[93,2918],[93,3001],[93,3085],[93,3168],[93.3,3252],[93.6,3335],[93.7,3419],[93.7,3502],[93.7,3585],[93.7,3668],[93.7,3752],[94.5,3836],[96.4,3919],[97.4,4002],[97.6,4086],[97.6,4169],[97.6,4252],[97.6,4336],[97.6,4419],[97.7,4504],[98,4586],[98.5,4669],[98.7,4753],[98.8,4836],[98.8,4919],[98.8,5003],[99.1,5087],[99.4,5170],[99.4,5253],[99.4,5336],[99.4,5420],[99.4,5503],[99.4,5587],[99.4,5671],[99.4,5753],[99.3,5837],[99.3,5920],[99.3,6004],[99.3,6087],[99,6170],[98.8,6254],[98.8,6337],[98.8,6420],[99,6504],[99.1,6587],[99.2,6671],[99.4,6754],[99.9,6837],[100,6921],[100,7004],[100,7088],[100,7171],[100,7255],[99.8,7338],[99.8,7422],[99.8,7505],[99.8,7588],[99.8,7671],[99.8,7755],[99.8,7838],[99.8,7922],[99.8,8005],[99.8,8089],[99.8,8173],[99.8,8255],[99.8,8339],[99.8,8422],[99.8,8506],[99.8,8589],[99.8,8673],[99.8,8756],[99.8,8839],[99.8,8923],[99.8,9006],[99.8,9089],[99.8,9172],[99.8,9256],[99.8,9339],[99.8,9423],[99.8,9506],[99.8,9590],[99.8,9673],[99.8,9757],[99.8,9840],[99.8,9923]]",684.3752,687.394,99.921875,0.8726,"[{""rating"":99.921875,""responseTime"":0.8726000000237946}]",space,2.5119,,687.3941,Partially,50,687.3949,,,[],,0,15,15,15,1,audio/Narrative8Situation6.wav,audio/Narrative7Situation6.wav,audio/Narrative6Situation6.wav,audio/Narrative5Situation6.wav,2,3,2,3,,,,,,,,,,,,,,,,,,,,,,,,,,,,,,,,,,,,,,,
,,,,,67094d6215b6d0fe3e8c3e39,2025-07-07_21h03.15.010,group3.4_multiperson,2023.2.2,Win32,178.5714286,686c2ebf0248f13bef9af11f,686c7b862b9ae4e0cabe4ba2,,,,,,,,,,,,,,,,,,,,,,,,,,,,,687.3949,1,audio/Narrative7Situation7.wav,692.3964,,692.3965,709.5472,"[[99.5,2918],[99.3,3001],[99.3,3085],[99.3,3168],[99.3,3252],[99.3,3335],[99.3,3418],[99.3,3502],[99.3,3585],[99.3,3669],[99.3,3752],[99.3,3835],[99.3,3919],[99.3,4002],[99.3,4086],[99.3,4169],[99.3,4252],[99.3,4336],[99.3,4419],[99.3,4503],[99.3,4586],[99.3,4669],[99.3,4754],[99.3,4836],[99.3,4920],[99.3,5004],[99.3,5086],[99.3,5170],[99.3,5253],[99.3,5337],[99.3,5420],[99.3,5503],[99.3,5588],[99.3,5671],[99.3,5754],[99.3,5838],[99.3,5921],[99.3,6004],[99.3,6088],[99.3,6171],[99.3,6255],[99.3,6337],[99.3,6421],[99.3,6504],[99.3,6588],[99.3,6671],[99.3,6755],[99.3,6837],[99.3,6922],[99.3,7005],[99.3,7088],[99.3,7171],[99.3,7255],[99.3,7338],[99.3,7421],[99.3,7505],[99.3,7589],[99.3,7672],[99.3,7755],[99.3,7839],[99.3,7922],[99.3,8005],[99.3,8089],[99.3,8172],[99.3,8255],[99.3,8339],[99.3,8422],[99.3,8506],[99.3,8589],[99.3,8672],[99.3,8755],[99.3,8839],[99.3,8923],[99.3,9006],[99.3,9089],[99.3,9173],[99.3,9257],[99.3,9340],[99.3,9423],[99.3,9507],[99.3,9589],[99.2,9674],[99.1,9757],[99.1,9840],[99.1,9923],[99.1,10006],[99.1,10091],[99.7,10173],[100,10258],[100,10340],[100,10423],[100,10507],[99.9,10591],[99.4,10673],[99.4,10758],[99.4,10840],[99.4,10924],[99.7,11008],[99.8,11091],[99.8,11174],[99.8,11257],[99.8,11341],[99.8,11425],[99.8,11507],[99.8,11591],[99.8,11675],[99.8,11758],[99.8,11841],[99.8,11924],[99.8,12008],[99.8,12092],[99.8,12174],[99.8,12258],[99.8,12341],[99.8,12425],[99.8,12509],[99.8,12591],[99.8,12675],[99.8,12758],[99.8,12841],[99.8,12925],[99.8,13008],[99.8,13092],[99.8,13175],[99.8,13259],[99.8,13342],[99.8,13425],[99.8,13509],[99.8,13592],[99.8,13675],[99.8,13759],[99.8,13842],[99.8,13926],[99.8,14009],[99.8,14092],[99.8,14176],[99.8,14259],[99.8,14343],[99.8,14426],[99.8,14509],[99.8,14593],[99.8,14676],[99.8,14760],[99.8,14844],[99.8,14926],[99.8,15011],[99.8,15093],[99.8,15177],[99.8,15260],[99.8,15343],[99.8,15427],[99.8,15510],[99.8,15594],[99.8,15677],[99.8,15761],[99.8,15844],[99.7,15927],[99.5,16011],[99.5,16094],[99.5,16178],[99.5,16261],[99.5,16344],[99.5,16427],[99.5,16511],[99.5,16595],[99.5,16678],[99.5,16761],[99.5,16845],[99.5,16928],[99.5,17011],[99.5,17095]]",709.5474,715.8189,99.53125,3.2415,"[{""rating"":99.53125,""responseTime"":3.2414999999999736}]",space,5.7527,,715.819,Partially,50,715.8198,,,[],,0,16,16,16,1,audio/Narrative8Situation7.wav,audio/Narrative7Situation7.wav,audio/Narrative6Situation7.wav,audio/Narrative5Situation7.wav,3,5,5,4,,,,,,,,,,,,,,,,,,,,,,,,,,,,,,,,,,,,,,,
,,,,,67094d6215b6d0fe3e8c3e39,2025-07-07_21h03.15.010,group3.4_multiperson,2023.2.2,Win32,178.5714286,686c2ebf0248f13bef9af11f,686c7b862b9ae4e0cabe4ba2,,,,,,,,,,,,,,,,,,,,,,,,,,,,,715.82,1,audio/Narrative7Situation8.wav,717.8249,,717.8249,727.8207,"[[99.3,3670],[97.7,3753],[97,3835],[97,3920],[96.3,4002],[96.3,4086],[97.4,4170],[98.4,4253],[98.8,4336],[98.9,4419],[99.1,4504],[99.5,4586],[99.7,4669],[99.7,4753],[99.8,4837],[99.8,4920],[99.9,5003],[99.9,5086],[99.9,5170],[100,5253],[100,5337],[100,5420],[100,5503],[100,5587],[100,5670],[100,5754],[100,5837],[100,5920],[100,6004],[100,6088],[100,6170],[100,6255],[100,6338],[100,6421],[100,6505],[100,6588],[100,6671],[100,6755],[100,6838],[100,6922],[100,7004],[100,7088],[100,7172],[100,7254],[100,7338],[100,7421],[100,7505],[100,7588],[100,7671],[100,7755],[100,7838],[100,7922],[100,8005],[100,8089],[100,8173],[100,8255],[100,8339],[100,8423],[100,8506],[100,8589],[100,8673],[100,8755],[100,8840],[100,8922],[100,9006],[100,9089],[100,9172],[100,9256],[100,9339],[100,9423],[100,9506],[100,9590],[100,9674],[100,9756],[100,9840],[100,9923]]",727.8208,739.9179,99.53125,10.8438,"[{""rating"":99.53125,""responseTime"":10.843800000011925}]",space,11.5898,,739.9179,Definitely yes,100,739.9193,,,[],,0,17,17,17,1,audio/Narrative8Situation8.wav,audio/Narrative7Situation8.wav,audio/Narrative6Situation8.wav,audio/Narrative5Situation8.wav,3,2,5,3,,,,,,,,,,,,,,,,,,,,,,,,,,,,,,,,,,,,,,,
,,,,,67094d6215b6d0fe3e8c3e39,2025-07-07_21h03.15.010,group3.4_multiperson,2023.2.2,Win32,178.5714286,686c2ebf0248f13bef9af11f,686c7b862b9ae4e0cabe4ba2,,,,,,,,,,,,,,,,,,,,,,,,,,,,,739.9194,1,audio/Narrative7Situation9.wav,741.9248,,741.9248,750.5307,"[[98.9,2001],[98.9,2084],[98.9,2168],[99.2,2251],[99.4,2334],[99.5,2418],[99.8,2501],[100,2585],[100,2669],[100,2752],[100,2835],[100,2919],[100,3001],[100,3086],[100,3168],[100,3252],[100,3336],[100,3418],[100,3502],[100,3585],[100,3668],[100,3752],[100,3835],[100,3919],[100,4002],[100,4086],[100,4169],[100,4252],[100,4336],[100,4419],[100,4502],[100,4586],[100,4669],[99.9,4753],[99.9,4836],[99.9,4919],[99.9,5003],[99.9,5086],[99.9,5170],[99.9,5253],[99.9,5336],[99.9,5420],[99.9,5503],[99.9,5586],[99.9,5670],[99.9,5753],[99.9,5837],[99.9,5920],[99.9,6004],[99.9,6088],[99.9,6170],[99.9,6254],[99.8,6338],[99.8,6421],[99.7,6505],[99.5,6587],[99.5,6671],[99.4,6754],[99.4,6837],[99.4,6922],[99.3,7004],[99.3,7088],[99.3,7171],[99.3,7255],[99.3,7338],[99.3,7421],[99.3,7505],[99.3,7589],[99.3,7671],[99.3,7755],[99.3,7838],[99.3,7922],[99.1,8006],[99.1,8088],[99.1,8172],[99.1,8256],[99.1,8338],[99.1,8422],[99.2,8505],[99.4,8589]]",750.5308,760.8776,99.53125,1.7878,"[{""rating"":99.53125,""responseTime"":1.7878000000118845}]",space,9.8367,,760.8776,Not at all,0,771.8119,0.234375,9.428,"[{""rating"":0.23437499999999778,""responseTime"":9.427999999999997}]",space,0,18,18,18,1,audio/Narrative8Situation9.wav,audio/Narrative7Situation9.wav,audio/Narrative6Situation9.wav,audio/Narrative5Situation9.wav,3,2,4,3,,,10.419,,,,,,,,,,,,,,,,,,,,,,,,,,,,,,,,,,,,
,,,,,67094d6215b6d0fe3e8c3e39,2025-07-07_21h03.15.010,group3.4_multiperson,2023.2.2,Win32,178.5714286,686c2ebf0248f13bef9af11f,686c7b862b9ae4e0cabe4ba2,,,,,,,,,,,,,,,,,,,,,,,,,,,775.548,778.1273,778.1341,2,audio/Narrative13Situation2.wav,778.1341,,778.1341,807.8652,"[[3.5,1744],[7.1,1828],[20.7,1912],[26.1,1995],[26.1,2078],[26.1,2162],[30.9,2245],[32.7,2328],[32.7,2412],[32.7,2495],[32.7,2578],[41.5,2662],[57.4,2746],[82.7,3163],[96.4,3328],[96.4,3412],[96.8,3496],[97.2,3579],[97.6,3662],[97.7,3745],[98.1,3829],[98.5,3913],[98.9,3996],[99,4079],[99,4162],[99,4246],[99,4329],[99.1,4413],[99.1,4496],[99.1,4580],[99.3,4663],[99.5,4747],[99.6,4830],[99.5,4914],[99.5,4997],[99.4,5080],[99.1,5163],[99.1,5247],[99.1,5330],[99.1,5413],[99.1,5497],[99.1,5581],[99.1,5663],[99.1,5746],[99.1,5831],[99.1,5913],[99.1,5997],[99.1,6081],[99.1,6163],[99.1,6248],[99.1,6330],[99.1,6414],[99.1,6497],[99.1,6581],[99.1,6665],[99.1,6747],[99.1,6831],[99.1,6914],[99.1,6997],[99.1,7082],[99.1,7165],[99.1,7248],[99.1,7331],[99.1,7414],[99.1,7498],[99.1,7581],[99.1,7664],[99.1,7748],[99.1,7831],[99.1,7915],[99.1,7998],[99.1,8081],[99.1,8165],[99.1,8248],[99.1,8332],[99.1,8415],[99.1,8498],[99.1,8582],[99.1,8665],[99.1,8749],[99.1,8832],[99.1,8916],[99.1,8999],[99.1,9082],[99.1,9165],[99.1,9249],[99.1,9332],[99.1,9416],[99.1,9499],[99.1,9582],[99.1,9666],[99.1,9750],[99.1,9833],[99.1,9917],[99.1,10000],[99.1,10083],[99.1,10166],[99.1,10250],[99.1,10334],[99.1,10416],[99.1,10500],[99.1,10583],[99.1,10667],[99.1,10750],[99.1,10834],[99.1,10917],[99.1,11001],[99.1,11084],[99.1,11167],[99.1,11250],[99.1,11334],[99.1,11417],[99.1,11501],[99.1,11584],[99.1,11667],[99.1,11752],[99.1,11835],[99.1,11918],[99.1,12001],[99.1,12085],[99.1,12168],[99.1,12252],[99.1,12335],[99.1,12419],[99.1,12501],[99.1,12585],[99.1,12668],[99.1,12751],[99.1,12835],[99.1,12918],[99.1,13002],[99.1,13086],[99.1,13169],[99.1,13252],[99.1,13336],[99.1,13419],[99.1,13503],[99.1,13586],[99.1,13670],[99.1,13752],[98.3,13836],[83.4,13920],[70.8,14003],[59,14420],[54.3,14504],[52.2,14587],[52,14669],[51.6,14753],[51.1,14836],[50.6,14919],[50.5,15003],[50.4,15087],[50.3,15170],[50.3,15253],[50.3,15337],[50.3,15421],[50.3,15504],[50.3,15587],[50.3,15671],[50.3,15754],[50.3,15837],[50.3,15920],[50.3,16004],[50.3,16087],[50.3,16170],[50.3,16254],[50.3,16338],[50.3,16421],[50.3,16504],[50.3,16587],[50.3,16671],[50.3,16755],[50.3,16838],[50.3,16922],[50.3,17004],[50.3,17088],[50.3,17172],[50.3,17254],[50.3,17338],[50.3,17421],[50.3,17505],[50.3,17588],[50.3,17671],[50.3,17756],[50.3,17839],[50.3,17923],[50.3,18005],[50.3,18088],[48.9,18173],[43.7,18256],[42.1,18340],[39,18423],[36.3,18506],[36.2,18589],[36.2,18672],[36.2,18755],[41.3,18840],[45.9,18922],[45.9,19006],[46.1,19090],[46.7,19172],[46.7,19256],[47.7,19340],[48.4,19423],[49,19507],[49.3,19590],[49.5,19674],[49.5,19757],[49.5,19840],[49.4,19923],[49.4,20006],[49.3,20091],[49.2,20173],[49.2,20256],[49.2,20341],[49.2,20423],[49.2,20507],[49.5,20591],[49.8,20673],[49.8,20758],[49.8,20840],[49.8,20924],[49.8,21007],[49.8,21091],[49.5,21175],[48.8,21258],[48.8,21341],[48.8,21424],[48.8,21508],[48.8,21591],[48.8,21674],[48.8,21758],[49.2,21842],[49.3,21924],[49.9,22009],[49.9,22092],[49.9,22174],[49.9,22258],[49.9,22342],[49.9,22425],[49.9,22509],[49.9,22592],[46,22676],[22.8,23009],[21.3,23093],[20.9,23176],[20.5,23259],[20.3,23343],[20.4,23425],[34.3,23510],[44.8,23593],[49.5,23677],[49.8,23759],[49.9,23843],[49.9,23926],[49.9,24010],[49.9,24092],[49.9,24177],[49.9,24259],[49.9,24343],[49.9,24427],[49.9,24509],[49.9,24593],[49.9,24677],[49.9,24760],[49.9,24844],[49.9,24927],[49.9,25010],[49.9,25094],[49.9,25177],[49.9,25261],[49.9,25344],[49.9,25427],[49.9,25511],[49.9,25594],[49.9,25678],[49.9,25761],[49.9,25844],[49.9,25927],[49.9,26010],[49.9,26095],[49.9,26177],[49.9,26261],[49.9,26344],[49.9,26428],[49.9,26512],[49.9,26594],[49.9,26678],[49.9,26762],[49.9,26844],[49.8,26929],[49.7,27012],[49.6,27094],[49.2,27179],[48.7,27261],[48.4,27346],[48.2,27428],[48,27511],[48,27595],[47.7,27678],[47.7,27762],[47.6,27845],[47.5,27929],[47.3,28012],[47.3,28095],[47.2,28178],[47.1,28262],[47,28346],[47,28429],[47,28512],[47,28596],[47,28680],[47,28762],[47,28846],[47,28929],[47,29013],[47,29096],[47,29179],[47,29263],[47,29346],[47,29430],[47,29514],[47,29596],[47,29680]]",807.8652,807.8661,,,[],,,,807.8662,Partially,50,807.8672,,,[],,0,0,0,0,1,audio/Narrative13Situation2.wav,audio/Narrative13Situation2.wav,audio/Narrative13Situation2.wav,audio/Narrative13Situation2.wav,2,2,2,2,,,,,771.8121,775.5479,space,3.2334,,,,,,,,,,,,,,,,,,,,,,,,,,,,,,,
,,,,,67094d6215b6d0fe3e8c3e39,2025-07-07_21h03.15.010,group3.4_multiperson,2023.2.2,Win32,178.5714286,686c2ebf0248f13bef9af11f,686c7b862b9ae4e0cabe4ba2,,,,,,,,,,,,,,,,,,,,,,,,,,,,,807.8673,2,audio/Narrative6Situation1.wav,809.8712,,809.8713,836.4294,"[[47.6,250],[47.6,333],[47.6,417],[47.6,500],[47.6,583],[47.6,666],[47.8,750],[48,833],[48,917],[48,1000],[48,1083],[48,1167],[48,1250],[48,1334],[49.5,1418],[50.1,1500],[50.2,1584],[50.2,1667],[49.8,1751],[49.7,1835],[49.7,1917],[49.7,2002],[49.7,2085],[49.6,2168],[49.4,2251],[49.4,2335],[49.4,2419],[49.4,2501],[49.4,2584],[49.4,2668],[49.4,2751],[49.4,2836],[49.8,2919],[50,3002],[50,3085],[50,3169],[56.3,3253],[61,3336],[62.2,3419],[62.2,3502],[62.2,3585],[62.2,3669],[62.3,3753],[62.6,3835],[61,3920],[53.4,4003],[40.1,4086],[33.3,4170],[34.4,4252],[34.4,4336],[34.8,4420],[37.4,4503],[44.8,4587],[46.9,4670],[47.8,4754],[49,4837],[49.7,4920],[49.8,5004],[49.8,5087],[49.8,5170],[49.8,5253],[49.8,5336],[49.6,5421],[49.6,5504],[49.6,5587],[49.6,5670],[49.6,5753],[49.6,5837],[49.6,5920],[49.6,6003],[49.6,6087],[49.6,6170],[49.6,6254],[49.6,6337],[49.6,6420],[49.6,6504],[49.6,6587],[49.6,6671],[49.6,6754],[49.6,6837],[49.6,6922],[49.6,7005],[49.8,7088],[49.8,7172],[49.8,7254],[49.8,7338],[49.8,7421],[49.8,7505],[49.8,7589],[49.8,7671],[49.8,7755],[47.4,7839],[47,7922],[47,8005],[46.6,8088],[46.6,8172],[47.8,8256],[49.6,8339],[50.1,8423],[50.1,8505],[50,8589],[49.6,8672],[49.5,8755],[49.5,8839],[49.5,8922],[49.5,9005],[49.5,9089],[49.4,9173],[49.2,9256],[49.2,9340],[49.2,9423],[49.2,9507],[49.2,9590],[49.2,9673],[49.2,9756],[49.2,9840],[49.2,9923],[49.2,10006],[49.2,10090],[49.2,10174],[49.2,10256],[49.2,10341],[49.2,10423],[49.2,10507],[49.2,10591],[49.2,10674],[49.2,10758],[49.2,10840],[49.2,10924],[49.2,11007],[49.2,11090],[49.2,11174],[49.2,11257],[49,11341],[49,11425],[49,11507],[49,11591],[49,11674],[49,11758],[49,11842],[49,11924],[49,12007],[49,12091],[49,12174],[49,12258],[49,12341],[49,12424],[49,12508],[49,12591],[49,12675],[49,12758],[49,12841],[49,12925],[49,13008],[49,13092],[49,13175],[49,13258],[49,13342],[49,13425],[49,13509],[49,13592],[48.9,13675],[48.9,13759],[48.9,13842],[48.8,13926],[48.5,14009],[48.3,14092],[48.2,14176],[48.1,14259],[48,14342],[48,14426],[48,14509],[48,14593],[48,14676],[48,14759],[48,14843],[48,14926],[48,15010],[48,15093],[48,15176],[48,15260],[48,15343],[48,15427],[48,15510],[48,15593],[48,15677],[48,15760],[48,15843],[48,15927],[48,16010],[48,16094],[48,16177],[48.4,16260],[48.4,16344],[48.4,16427],[48.4,16511],[48.4,16594],[48.4,16677],[48.4,16761],[48.4,16844],[48.4,16928],[48.4,17011],[48.4,17094],[48.4,17178],[48.4,17261],[48.4,17344],[48.4,17428],[48.4,17511],[48.3,17595],[48.3,17678],[48.4,17761],[48.5,17845],[48.5,17928],[48.5,18012],[48.5,18095],[48.9,18178],[49.1,18262],[49.1,18345],[49.1,18429],[49.1,18512],[49.1,18595],[49.1,18679],[49.1,18762],[49.1,18846],[49.1,18929],[49.1,19012],[49.1,19096],[48.7,19180],[48.3,19263],[48.2,19346],[48.2,19429],[48,19514],[48,19597],[48,19680],[48,19764],[48,19846],[47.6,19931],[47.3,20014],[46.9,20097],[46.7,20181],[46.6,20263],[46.6,20347],[46.6,20431],[46.6,20513],[46.9,20597],[46.9,20680],[46.9,20764],[46.9,20847],[46.9,20931],[46.9,21015],[46.9,21098],[46.9,21181],[46.9,21264],[46.9,21347],[46.9,21431],[46.9,21514],[46.9,21597],[46.9,21681],[46.9,21764],[46.9,21848],[46.9,21931],[46.9,22015],[46.6,22098],[46.6,22182],[46.6,22266],[50.4,22349],[52.5,22432],[56.6,23099],[61,23183],[68.2,23266],[74.2,23350],[76.3,23433],[76.8,23516],[76.3,23600],[76.3,23683],[76.3,23766],[76.3,23849],[78,23933],[78.1,24016],[78.1,24100],[76.3,24184],[71.8,24267],[68,24350],[68.4,24433],[72.3,24517],[76,24600],[77.9,24684],[78,24767],[78,24850],[78,24934],[79.5,25017],[82.3,25101],[84.4,25184],[88,25268],[88,25350],[88,25433],[88,25517],[88,25601],[88,25684],[88.8,25768],[89.3,25850],[89.3,25934],[89.4,26017],[89.4,26101],[89.5,26184],[90.1,26268],[91.7,26351],[95.9,26435],[99.5,26519]]",836.4295,841.9997,57.8125,4.2473,"[{""rating"":57.8125,""responseTime"":4.247299999952361}]",space,5.0512,,841.9997,Definitely yes,100,842.0009,,,[],,0,1,1,1,1,audio/Narrative7Situation1.wav,audio/Narrative8Situation1.wav,audio/Narrative5Situation1.wav,audio/Narrative6Situation1.wav,2,5,5,2,,,,,,,,,,,,,,,,,,,,,,,,,,,,,,,,,,,,,,,
,,,,,67094d6215b6d0fe3e8c3e39,2025-07-07_21h03.15.010,group3.4_multiperson,2023.2.2,Win32,178.5714286,686c2ebf0248f13bef9af11f,686c7b862b9ae4e0cabe4ba2,,,,,,,,,,,,,,,,,,,,,,,,,,,,,842.001,2,audio/Narrative6Situation2.wav,845.0063,,845.0064,873.4814,"[[55,834],[52,917],[50.8,1000],[50.2,1085],[49.8,1167],[49.8,1251],[50.6,1335],[50.9,1418],[50.7,1500],[50.1,1585],[49.7,1667],[49.5,1751],[49.5,1834],[49.5,1917],[49.5,2002],[49.5,2084],[49.5,2168],[49.5,2251],[49.5,2335],[49.5,2418],[49.5,2501],[49.5,2585],[49.5,2669],[49.5,2752],[49.5,2836],[49.5,2918],[49.5,3002],[49.5,3085],[49.5,3168],[52.1,3253],[59.5,3336],[71.3,3419],[84.3,3503],[90.1,3585],[90.2,3668],[91.6,3752],[91.6,3835],[91.6,3919],[91.3,4003],[93,4087],[95.3,4170],[98.4,4253],[99,4337],[99.2,4420],[99.2,4503],[99.3,4586],[99.6,4670],[100,4754],[100,4837],[100,4920],[100,5003],[100,5086],[100,5170],[100,5253],[100,5336],[100,5420],[100,5503],[100,5587],[100,5670],[100,5754],[100,5837],[100,5920],[100,6004],[100,6088],[100,6171],[100,6254],[100,6338],[100,6421],[100,6504],[100,6587],[100,6672],[100,6755],[100,6837],[100,6921],[100,7005],[100,7088],[100,7172],[100,7255],[100,7339],[100,7421],[100,7504],[100,7588],[100,7671],[100,7755],[100,7839],[100,7922],[100,8006],[100,8089],[100,8172],[100,8256],[100,8338],[100,8422],[100,8505],[100,8589],[100,8673],[100,8756],[100,8839],[100,8922],[100,9007],[100,9089],[100,9173],[100,9256],[100,9339],[100,9423],[100,9507],[100,9589],[100,9673],[100,9756],[100,9839],[100,9924],[100,10006],[100,10091],[100,10173],[100,10257],[100,10340],[100,10424],[100,10507],[100,10590],[100,10673],[100,10757],[100,10840],[100,10923],[100,11007],[100,11090],[100,11174],[100,11257],[100,11340],[100,11424],[100,11507],[100,11591],[100,11674],[100,11758],[100,11841],[100,11924],[100,12008],[100,12091],[100,12174],[100,12258],[100,12341],[100,12425],[100,12508],[100,12591],[100,12675],[100,12759],[100,12842],[100,12926],[100,13008],[100,13093],[100,13176],[100,13258],[100,13343],[100,13426],[100,13509],[100,13593],[100,13675],[100,13759],[100,13843],[100,13926],[100,14009],[100,14093],[100,14176],[100,14259],[100,14343],[100,14427],[100,14509],[100,14594],[100,14677],[100,14759],[100,14843],[100,14927],[100,15011],[100,15094],[100,15177],[100,15261],[100,15343],[100,15427],[100,15511],[100,15594],[100,15678],[100,15761],[100,15844],[100,15928],[100,16011],[100,16094],[100,16177],[100,16261],[100,16344],[100,16427],[100,16512],[100,16594],[100,16677],[100,16762],[100,16844],[100,16928],[100,17011],[100,17095],[100,17178],[100,17261],[100,17345],[100,17428],[100,17511],[100,17595],[100,17678],[100,17762],[100,17845],[100,17928],[100,18012],[100,18095],[100,18179],[100,18262],[100,18346],[100,18429],[100,18512],[100,18596],[100,18679],[100,18763],[100,18847],[100,18929],[100,19012],[100,19097],[100,19180],[100,19263],[100,19346],[100,19429],[100,19514],[100,19597],[100,19680],[100,19764],[100,19846],[100,19930],[100,20014],[100,20096],[100,20181],[100,20264],[100,20347],[100,20430],[100,20514],[100,20597],[100,20680],[100,20764],[100,20847],[100,20930],[100,21014],[100,21097],[100,21181],[100,21264],[100,21347],[100,21431],[100,21514],[100,21598],[100,21681],[100,21764],[100,21848],[100,21931],[100,22014],[100,22099],[100,22182],[100,22265],[100,22348],[100,22431],[100,22516],[100,22598],[100,22682],[100,22765],[100,22848],[100,22932],[100,23016],[100,23099],[100,23183],[100,23266],[100,23349],[100,23432],[100,23516],[100,23600],[100,23682],[100,23767],[100,23850],[100,23932],[100,24017],[100,24099],[100,24183],[100,24266],[100,24350],[100,24434],[100,24517],[100,24600],[100,24683],[100,24767],[100,24850],[100,24934],[100,25017],[100,25100],[100,25183],[100,25267],[100,25350],[100,25434],[100,25517],[100,25600],[100,25684],[100,25767],[100,25850],[100,25934],[100,26017],[100,26101],[100,26184],[100,26267],[100,26351],[100,26434],[100,26518],[100,26601],[100,26684],[100,26768],[100,26851],[100,26935],[100,27018],[100,27101],[100,27185],[100,27268],[100,27351],[100,27435],[100,27518],[100,27602],[100,27685],[100,27768],[100,27852],[100,27935],[100,28019],[100,28102],[100,28185],[100,28269],[100,28352],[100,28436]]",873.4815,879.7134,99.6875,3.1108,"[{""rating"":99.6875,""responseTime"":3.1107999999522917}]",space,5.7238,,879.7134,Not at all,0,879.7146,,,[],,0,2,2,2,1,audio/Narrative7Situation2.wav,audio/Narrative8Situation2.wav,audio/Narrative5Situation2.wav,audio/Narrative6Situation2.wav,3,3,3,3,,,,,,,,,,,,,,,,,,,,,,,,,,,,,,,,,,,,,,,
,,,,,67094d6215b6d0fe3e8c3e39,2025-07-07_21h03.15.010,group3.4_multiperson,2023.2.2,Win32,178.5714286,686c2ebf0248f13bef9af11f,686c7b862b9ae4e0cabe4ba2,,,,,,,,,,,,,,,,,,,,,,,,,,,,,879.7147,2,audio/Narrative6Situation3.wav,884.7168,,884.7168,897.3033,"[[98.5,4003],[98,4087],[97.6,4170],[97.6,4252],[97.6,4336],[97.8,4419],[98.8,4504],[99.8,4587],[99.8,4669],[99.8,4754],[99.8,4836],[99.8,4920],[99.8,5003],[99.8,5086],[99.8,5170],[99.8,5253],[99.8,5336],[99.8,5421],[99.8,5504],[99.8,5587],[99.8,5671],[99.8,5754],[99.8,5837],[99.8,5920],[99.8,6004],[99.8,6088],[99.8,6170],[99.8,6254],[99.8,6337],[99.8,6421],[99.8,6505],[99.8,6587],[99.8,6671],[99.8,6755],[99.8,6838],[99.8,6921],[99.8,7004],[99.8,7089],[99.8,7171],[99.8,7255],[99.8,7338],[99.8,7421],[99.8,7505],[99.8,7588],[99.8,7671],[99.8,7755],[99.8,7838],[99.8,7922],[99.8,8005],[99.8,8088],[99.8,8173],[99.8,8255],[99.8,8339],[99.8,8422],[99.8,8505],[99.8,8589],[99.8,8672],[99.8,8756],[99.8,8839],[99.8,8922],[99.8,9007],[99.8,9089],[99.8,9172],[99.8,9256],[99.8,9339],[99.8,9423],[99.8,9507],[99.8,9590],[99.8,9673],[99.8,9756],[99.8,9840],[99.8,9923],[99.8,10006],[99.8,10091],[99.8,10174],[99.8,10257],[99.8,10341],[99.8,10424],[99.8,10507],[99.8,10590],[99.8,10674],[99.8,10758],[99.8,10841],[99.8,10925],[99.8,11007],[99.8,11091],[99.8,11174],[99.8,11257],[99.8,11341],[99.8,11424],[99.8,11507],[99.8,11591],[99.8,11674],[99.8,11758],[99.8,11841],[99.8,11924],[99.8,12008],[99.8,12091],[99.8,12175],[99.8,12258],[99.8,12341],[99.8,12425],[99.8,12508]]",897.3033,902.1574,99.609375,3.8588,"[{""rating"":99.609375,""responseTime"":3.858800000011911}]",space,4.3476,,902.1575,Partially,50,902.1587,,,[],,0,3,3,3,1,audio/Narrative7Situation3.wav,audio/Narrative8Situation3.wav,audio/Narrative5Situation3.wav,audio/Narrative6Situation3.wav,8,4,3,5,,,,,,,,,,,,,,,,,,,,,,,,,,,,,,,,,,,,,,,
,,,,,67094d6215b6d0fe3e8c3e39,2025-07-07_21h03.15.010,group3.4_multiperson,2023.2.2,Win32,178.5714286,686c2ebf0248f13bef9af11f,686c7b862b9ae4e0cabe4ba2,,,,,,,,,,,,,,,,,,,,,,,,,,,,,902.1587,2,audio/Narrative6Situation4.wav,904.1636,,904.1636,916.7498,"[[96.2,8423],[95.2,8506],[95.2,8589],[95.2,8672],[95.2,8755],[95.6,8840],[96.6,8923],[97.4,9006],[98.6,9089],[98.9,9173],[99,9256],[99.6,9340],[99.9,9422],[99.9,9506],[99.9,9590],[99.9,9673],[99.9,9756],[99.9,9839],[99.9,9923],[99.9,10006],[99.9,10090],[99.9,10173],[99.9,10256],[99.9,10340],[99.9,10423],[99.9,10506],[99.9,10591],[99.9,10674],[99.9,10757],[99.9,10840],[99.9,10923],[99.9,11007],[99.9,11090],[99.9,11174],[99.9,11258],[99.9,11341],[99.9,11424],[99.9,11507],[99.9,11591],[99.8,11675],[99.7,11757],[99.7,11841],[99.7,11924],[99.7,12007],[99.7,12091],[99.7,12174],[99.7,12258],[99.4,12341],[99.4,12424],[99.4,12508]]",916.7499,919.9307,99.6875,1.1999,"[{""rating"":99.6875,""responseTime"":1.1998999999761963}]",space,2.6734,,919.9307,Not at all,0,919.9319,,,[],,0,4,4,4,1,audio/Narrative7Situation4.wav,audio/Narrative8Situation4.wav,audio/Narrative5Situation4.wav,audio/Narrative6Situation4.wav,3,3,1,2,,,,,,,,,,,,,,,,,,,,,,,,,,,,,,,,,,,,,,,
,,,,,67094d6215b6d0fe3e8c3e39,2025-07-07_21h03.15.010,group3.4_multiperson,2023.2.2,Win32,178.5714286,686c2ebf0248f13bef9af11f,686c7b862b9ae4e0cabe4ba2,,,,,,,,,,,,,,,,,,,,,,,,,,,,,919.9321,2,audio/Narrative6Situation5.wav,921.9367,,921.9367,929.8708,"[[99.3,1334],[99.3,1417],[99.3,1500],[99.4,1585],[99.6,1667],[100,1752],[100,1834],[100,1917],[100,2002],[100,2084],[100,2169],[100,2252],[100,2335],[100,2418],[100,2501],[100,2585],[100,2668],[100,2751],[100,2835],[100,2919],[100,3002],[100,3085],[100,3169],[100,3253],[100,3335],[100,3418],[100,3503],[100,3586],[100,3669],[100,3752],[100,3835],[100,3919],[100,4003],[100,4086],[100,4169],[100,4252],[100,4336],[100,4419],[100,4503],[100,4586],[100,4669],[100,4753],[100,4836],[100,4920],[100,5003],[100,5086],[100,5170],[100,5253],[100,5336],[100,5420],[100,5504],[100,5588],[100,5671],[99.9,5754],[99.5,5838],[99.5,5921],[99.5,6004],[99.5,6087],[99.5,6171],[99.8,6254],[99.8,6337],[99.9,6421],[100,6505],[100,6588],[100,6671],[100,6755],[100,6838],[100,6922],[100,7004],[100,7088],[100,7172],[100,7255],[100,7339],[100,7421],[100,7506],[100,7588],[100,7672],[100,7755],[100,7838],[100,7922]]",929.8709,936.8535,99.453125,5.8204,"[{""rating"":99.453125,""responseTime"":5.820399999976189}]",space,6.4702,,936.8535,Definitely yes,100,936.8548,,,[],,0,5,5,5,1,audio/Narrative7Situation5.wav,audio/Narrative8Situation5.wav,audio/Narrative5Situation5.wav,audio/Narrative6Situation5.wav,5,2,5,2,,,,,,,,,,,,,,,,,,,,,,,,,,,,,,,,,,,,,,,
,,,,,67094d6215b6d0fe3e8c3e39,2025-07-07_21h03.15.010,group3.4_multiperson,2023.2.2,Win32,178.5714286,686c2ebf0248f13bef9af11f,686c7b862b9ae4e0cabe4ba2,,,,,,,,,,,,,,,,,,,,,,,,,,,,,936.8549,2,audio/Narrative6Situation6.wav,938.8601,,938.8602,949.9115,"[[99.4,917],[99.3,999],[99.1,1083],[98.7,1166],[98.5,1250],[98.5,1334],[98.5,1416],[98.5,1500],[98.5,1583],[98.5,1667],[98.5,1750],[98.5,1834],[98.5,1918],[98.5,2000],[98.5,2084],[98.5,2168],[98.5,2251],[98.5,2334],[98.5,2417],[98.5,2500],[98.5,2584],[98.5,2668],[98.5,2751],[98.5,2834],[98.4,2917],[98.4,3002],[98.4,3084],[98.4,3168],[98.4,3252],[98.4,3335],[98.4,3419],[98.4,3501],[98.4,3585],[98.3,3668],[98,3752],[98,3836],[98,3918],[98,4002],[98,4086],[98,4169],[98,4252],[98,4335],[98,4419],[98,4502],[98,4585],[98,4669],[98,4752],[98,4835],[98,4919],[98,5002],[98,5086],[98,5169],[98,5253],[98,5336],[98,5420],[98,5503],[98,5587],[98,5670],[98,5753],[98,5837],[98,5919],[97.9,6004],[97.8,6087],[97.8,6170],[97.8,6253],[97.7,6336],[97.7,6420],[97.7,6503],[97.7,6586],[97.7,6670],[97.7,6753],[97.7,6837],[97.7,6920],[97.7,7004],[97.7,7087],[97.7,7170],[98,7254],[98,7337],[98.3,7421],[98.5,7504],[98.6,7587],[98.7,7671],[98.9,7754],[99.1,7837],[99.2,7921],[99.2,8004],[99.2,8088],[99.2,8171],[99.2,8254],[99.2,8338],[99.2,8421],[99.3,8504],[99.5,8589],[99.5,8671],[99.5,8755],[99.5,8838],[99.5,8921],[99.5,9005],[99.5,9088],[99.5,9172],[99.5,9255],[99.5,9338],[99.5,9422],[99.5,9506],[99.5,9589],[99.5,9673],[99.5,9756],[99.5,9839],[99.5,9922],[99.5,10007],[99.5,10089],[99.5,10172],[99.5,10256],[99.5,10339],[99.5,10423],[99.5,10507],[99.5,10589],[99.5,10673],[99.5,10756],[99.5,10840],[99.5,10923],[99.5,11007]]",949.9116,961.0755,99.609375,5.9322,"[{""rating"":99.609375,""responseTime"":5.932200000047601}]",space,10.6498,,961.0755,Definitely yes,100,961.0764,,,[],,0,6,6,6,1,audio/Narrative7Situation6.wav,audio/Narrative8Situation6.wav,audio/Narrative5Situation6.wav,audio/Narrative6Situation6.wav,3,2,3,2,,,,,,,,,,,,,,,,,,,,,,,,,,,,,,,,,,,,,,,
,,,,,67094d6215b6d0fe3e8c3e39,2025-07-07_21h03.15.010,group3.4_multiperson,2023.2.2,Win32,178.5714286,686c2ebf0248f13bef9af11f,686c7b862b9ae4e0cabe4ba2,,,,,,,,,,,,,,,,,,,,,,,,,,,,,961.0765,2,audio/Narrative6Situation7.wav,966.0789,,966.0789,990.9116,"[[97.4,2835],[97,2917],[97.2,3001],[97.3,3084],[98.1,3167],[98.1,3251],[98.4,3334],[98.7,3418],[98.7,3501],[98.7,3584],[98.7,3668],[98.7,3751],[98.7,3835],[98.7,3918],[98.7,4001],[98.7,4085],[98.7,4168],[98.7,4251],[98.7,4335],[98.7,4418],[98.7,4502],[98.7,4585],[98.7,4668],[98.7,4752],[98.7,4835],[98.7,4919],[98.7,5002],[98.7,5085],[98.7,5169],[98.7,5252],[98.7,5336],[98.7,5419],[98.7,5502],[98.7,5586],[98.7,5669],[99.2,5754],[99.8,5837],[99.8,5920],[99.8,6004],[99.8,6087],[99.8,6170],[99.8,6253],[99.8,6337],[99.8,6420],[99.7,6504],[99.7,6587],[99.7,6671],[99.7,6754],[99.7,6837],[99.7,6920],[99.7,7003],[99.7,7088],[99.7,7171],[99.7,7254],[99.6,7338],[99.5,7420],[99.5,7504],[99.5,7587],[99.5,7671],[99.5,7754],[99.5,7837],[99.5,7921],[99.5,8005],[99.5,8088],[99.5,8172],[99.5,8254],[99.5,8338],[99.5,8421],[99.1,8505],[98.8,8588],[98.7,8672],[98.5,8755],[98.4,8839],[98.2,8922],[98.1,9005],[98,9088],[97.8,9172],[97.7,9255],[97.7,9339],[97.7,9422],[97.7,9506],[97.7,9589],[97.7,9673],[97.7,9756],[97.7,9840],[97.9,9922],[98,10006],[98,10089],[98.2,10172],[98.3,10256],[98.3,10339],[98.3,10422],[98.3,10506],[98.3,10589],[98.3,10673],[98.3,10756],[98.3,10839],[98.3,10923],[98.3,11006],[98.3,11089],[98.3,11173],[98.3,11256],[98.3,11340],[98.3,11423],[98.3,11506],[98.3,11590],[98.3,11673],[98.3,11757],[98.3,11840],[98.3,11923],[98.3,12007],[98.3,12090],[98.3,12174],[98.3,12258],[98.3,12340],[98.3,12424],[98.3,12508],[98.3,12591],[98.3,12675],[98.3,12758],[98.3,12842],[98.3,12924],[98.3,13008],[98.3,13091],[98.3,13174],[98.3,13258],[98.4,13341],[98.6,13424],[98.7,13508],[98.9,13591],[98.9,13675],[98.9,13759],[98.9,13842],[99,13925],[99,14008],[99,14092],[99,14176],[99,14259],[99,14342],[99,14425],[99,14508],[99,14592],[99,14676],[99,14759],[99,14842],[99,14925],[99,15009],[99,15092],[99,15176],[99,15259],[99,15342],[99,15426],[99,15509],[99,15593],[99,15676],[99,15759],[99,15843],[99,15926],[99,16009],[99,16093],[99,16177],[99,16261],[99,16344],[99,16427],[99,16511],[99,16593],[99,16677],[99,16760],[99,16843],[99,16927],[99,17010],[98.8,17094],[98.7,17177],[98.7,17260],[98.7,17344],[98.7,17428],[98.7,17511],[98.7,17594],[98.6,17678],[98.6,17761],[98.6,17844],[98.6,17927],[98.6,18012],[98.6,18095],[98.6,18178],[98.6,18261],[98.6,18344],[98.6,18428],[98.6,18511],[98.6,18595],[98.6,18678],[98.6,18761],[98.6,18845],[98.6,18928],[98.6,19012],[98.6,19095],[98.6,19179],[98.6,19262],[98.7,19345],[98.7,19429],[98.7,19512],[98.7,19595],[98.7,19679],[98.7,19762],[98.7,19846],[98.7,19929],[98.7,20012],[98.7,20096],[98.7,20179],[98.7,20262],[98.7,20346],[98.7,20429],[98.7,20513],[98.7,20596],[98.7,20679],[98.7,20763],[98.7,20846],[98.7,20930],[98.7,21013],[98.7,21096],[98.7,21180],[98.7,21263],[98.7,21347],[98.7,21430],[98.7,21513],[98.7,21597],[98.7,21680],[98.7,21763],[98.7,21847],[98.7,21930],[98.7,22014],[98.7,22097],[98.7,22180],[98.7,22264],[98.7,22347],[98.7,22431],[98.7,22514],[98.7,22597],[98.7,22681],[98.7,22764],[98.7,22848],[98.7,22931],[98.7,23014],[98.7,23098],[98.7,23181],[98.7,23264],[98.7,23348],[98.7,23431],[98.7,23515],[98.7,23598],[98.7,23681],[98.7,23765],[98.7,23848],[98.7,23932],[98.7,24015],[98.7,24098],[98.7,24183],[98.7,24265],[98.7,24349],[98.7,24432],[98.7,24515],[98.7,24599],[98.7,24682],[98.7,24766]]",990.9117,1004.621,99.21875,12.7984,"[{""rating"":99.21875,""responseTime"":12.79839999997614}]",space,13.1992,,1004.6211,Not at all,0,1004.6223,,,[],,0,7,7,7,1,audio/Narrative7Situation7.wav,audio/Narrative8Situation7.wav,audio/Narrative5Situation7.wav,audio/Narrative6Situation7.wav,5,3,4,5,,,,,,,,,,,,,,,,,,,,,,,,,,,,,,,,,,,,,,,
,,,,,67094d6215b6d0fe3e8c3e39,2025-07-07_21h03.15.010,group3.4_multiperson,2023.2.2,Win32,178.5714286,686c2ebf0248f13bef9af11f,686c7b862b9ae4e0cabe4ba2,,,,,,,,,,,,,,,,,,,,,,,,,,,,,1004.6225,2,audio/Narrative6Situation8.wav,1009.6244,,1009.6246,1016.4524,"[[90.5,584],[88.5,667],[87.3,751],[86.9,833],[86.9,916],[86.9,1000],[86.8,1083],[85.9,1167],[85.9,1250],[85.9,1333],[85.9,1417],[85.9,1500],[85.9,1585],[85.5,1667],[83.4,1751],[78.5,1835],[75.2,1918],[72.4,2002],[70.2,2085],[68.8,2169],[68.7,2252],[68.5,2335],[67.7,2419],[65.1,2502],[62.5,2586],[58.5,2669],[54.6,2752],[52.7,2836],[51.3,2919],[50.1,3002],[49.6,3085],[49.6,3168],[49.6,3251],[49.6,3335],[49.6,3418],[49.6,3502],[49.6,3585],[49.7,3668],[49.7,3752],[49.7,3835],[49.8,3919],[49.8,4002],[49.8,4086],[49.8,4169],[49.8,4252],[49.8,4336],[49.8,4419],[49.8,4502],[49.8,4586],[50,4669],[49.2,4752],[49.2,4836],[49.2,4919],[49.2,5003],[49.2,5086],[46.4,5170],[31.4,5254],[24.4,5337],[20,5421],[14.8,5504],[10.4,5588],[9.4,5671],[7.1,5754],[5.6,5837],[5.6,5920],[5.6,6004],[5.6,6088],[5.2,6170],[4.8,6254],[4.8,6337],[4.3,6421],[3.4,6505],[2.7,6588],[2.2,6671],[2.1,6754]]",1016.4525,1020.3985,0.3125,1.3448,"[{""rating"":0.3124999999999989,""responseTime"":1.344800000011901}]",space,3.4338,,1020.3986,Partially,50,1020.3997,,,[],,0,8,8,8,1,audio/Narrative7Situation8.wav,audio/Narrative8Situation8.wav,audio/Narrative5Situation8.wav,audio/Narrative6Situation8.wav,2,3,3,5,,,,,,,,,,,,,,,,,,,,,,,,,,,,,,,,,,,,,,,
,,,,,67094d6215b6d0fe3e8c3e39,2025-07-07_21h03.15.010,group3.4_multiperson,2023.2.2,Win32,178.5714286,686c2ebf0248f13bef9af11f,686c7b862b9ae4e0cabe4ba2,,,,,,,,,,,,,,,,,,,,,,,,,,,,,1020.3998,2,audio/Narrative6Situation9.wav,1024.4012,,1024.4012,1034.3247,"[[4.6,834],[7.1,918],[7.3,1000],[6.6,1085],[1.9,1168],[0.6,1502],[1.2,1585],[1.2,1667],[1.2,1751],[0.3,1835],[0.2,2251],[0.2,2334],[0.2,2418],[0.2,2501],[0.2,2585],[0.2,2668],[0.2,2751],[0.2,2835],[0.2,2918],[0.2,3002],[0.2,3085],[0.2,3168],[0.2,3252],[0.2,3335],[0.2,3418],[0.2,3502],[0.2,3585],[0.2,3670],[0.2,3752],[0.2,3836],[0.2,3919],[0.2,4003],[0.2,4086],[0.2,4170],[2.4,4253],[2.7,4337],[2.8,4420],[2.8,4503],[2.8,4587],[2.8,4670],[2.8,4753],[2.8,4837],[2.8,4920],[2.8,5004],[2.8,5087],[2.5,5171],[2.2,5254],[1.3,5336],[1.1,5420],[1.1,5503],[1.1,5587],[1.1,5670],[1.1,5753],[1.1,5837],[1.1,5920],[1.1,6004],[1.1,6088],[1.1,6170],[1.1,6255],[1.1,6337],[1.1,6421],[1.1,6505],[1.1,6588],[1.1,6671],[1.1,6755],[1.1,6837],[1.1,6921],[1.1,7004],[1.1,7088],[1.1,7171],[1.1,7255],[1.1,7339],[1.1,7421],[1.1,7505],[1.1,7588],[1.1,7672],[1.1,7756],[1.1,7839],[1.1,7922],[1.1,8005],[1.1,8088],[1.1,8173],[1.1,8255],[1.1,8339],[1.1,8423],[1.1,8506],[1.1,8590],[1.1,8672],[1.1,8756],[1.1,8839],[1.1,8923],[1.1,9007],[1.1,9089],[1.1,9173],[1.1,9257],[1.1,9339],[1.1,9423],[1.1,9506],[1.1,9590],[1.1,9673],[1.1,9756],[1.1,9840],[1.1,9923]]",1034.3248,1051.6532,0,16.4625,"[{""rating"":0,""responseTime"":16.462499999999864}]",space,16.8187,,1051.6533,Partially,50,1051.6541,,,[],,0,9,9,9,1,audio/Narrative7Situation9.wav,audio/Narrative8Situation9.wav,audio/Narrative5Situation9.wav,audio/Narrative6Situation9.wav,2,3,3,4,,,,,,,,,,,,,,,,,,,,,,,,,,,,,,,,,,,,,,,
,,,,,67094d6215b6d0fe3e8c3e39,2025-07-07_21h03.15.010,group3.4_multiperson,2023.2.2,Win32,178.5714286,686c2ebf0248f13bef9af11f,686c7b862b9ae4e0cabe4ba2,,,,,,,,,,,,,,,,,,,,,,,,,,,,,1051.6543,2,audio/Narrative5Situation1.wav,1056.6574,,1056.6574,1069.9213,"[[0.3,2669],[1.3,2753],[1.3,2836],[59.7,3669],[54.8,3752],[53.8,3836],[52.3,3919],[50.8,4002],[50.7,4086],[50.9,4169],[50.9,4252],[50.9,4335],[50.9,4419],[51.7,4502],[51.7,4586],[51.5,4669],[51.5,4752],[52.5,4836],[53,4919],[52.7,5003],[52.3,5086],[52.3,5170],[52.3,5252],[52.3,5336],[52.3,5420],[52.7,5503],[53.2,5587],[53.8,5670],[54.2,5754],[54.8,5836],[55.9,5920],[57,6004],[57.7,6086],[58,6171],[58,6254],[56.9,6336],[56.7,6421],[55.5,6504],[55.2,6587],[54.9,6670],[54.2,6754],[53.4,6837],[52.7,6921],[52,7004],[51.9,7088],[51.9,7171],[51.9,7254],[51.9,7338],[51.9,7421],[51.9,7504],[51.9,7588],[51.9,7672],[51.9,7755],[51.9,7838],[51.9,7922],[51.9,8005],[51.9,8088],[51.9,8172],[51.9,8254],[51.9,8338],[51.9,8421],[51.9,8504],[51.9,8588],[51.9,8671],[51.9,8755],[51.9,8838],[51.9,8921],[51.9,9005],[51.9,9088],[51.9,9173],[51.9,9256],[51.9,9338],[51.9,9423],[51.9,9505],[51.9,9588],[51.9,9673],[51.9,9755],[51.9,9840],[51.9,9923],[51.9,10006],[51.9,10089],[51.9,10172],[51.9,10256],[51.9,10339],[51.9,10422],[51.9,10506],[51.9,10589],[51.9,10673],[51.9,10756],[51.9,10839],[51.9,10923],[51.9,11006],[51.9,11089],[51.9,11173],[51.9,11256],[51.9,11340],[51.9,11423],[51.9,11507],[51.9,11590],[51.9,11673],[51.9,11757],[51.9,11840],[51.9,11923],[51.9,12007],[51.9,12090],[51.9,12174],[51.9,12257],[51.9,12340],[51.9,12424],[51.9,12508],[51.9,12591],[51.9,12674],[51.9,12758],[51.9,12841],[51.9,12924],[51.9,13008],[51.9,13091],[51.9,13175],[51.9,13258]]",1069.9215,1073.8139,50.78125,2.6117,"[{""rating"":50.78125,""responseTime"":2.6116999999881045}]",space,3.3807,,1073.814,Partially,50,1073.8147,,,[],,0,10,10,10,1,audio/Narrative8Situation1.wav,audio/Narrative7Situation1.wav,audio/Narrative6Situation1.wav,audio/Narrative5Situation1.wav,5,2,2,5,,,,,,,,,,,,,,,,,,,,,,,,,,,,,,,,,,,,,,,
,,,,,67094d6215b6d0fe3e8c3e39,2025-07-07_21h03.15.010,group3.4_multiperson,2023.2.2,Win32,178.5714286,686c2ebf0248f13bef9af11f,686c7b862b9ae4e0cabe4ba2,,,,,,,,,,,,,,,,,,,,,,,,,,,,,1073.8147,2,audio/Narrative5Situation2.wav,1076.8148,,1076.8149,1106.2524,"[[49.5,1752],[49.5,1834],[49.5,1917],[49.5,2002],[49.4,2085],[49.4,2167],[49.4,2252],[49.4,2335],[49.4,2418],[49.9,2502],[50.5,2585],[50.9,2668],[51.8,2752],[54.8,2836],[56.1,2918],[56.2,3002],[56.4,3086],[58.4,3169],[60.8,3253],[63.9,3336],[65.1,3418],[64.8,3502],[64.8,3585],[64.4,3670],[60.4,3753],[54.5,3836],[54.5,3919],[54.5,4002],[54.3,4086],[53.8,4169],[53.3,4253],[51.2,4337],[48.1,4419],[48.6,4503],[50.2,4587],[53.9,4670],[55.2,4754],[55.2,4837],[55.3,4920],[56.3,5004],[57,5086],[57.1,5170],[57.1,5253],[57.1,5337],[57.1,5421],[57.1,5504],[57.1,5586],[57.1,5670],[57.1,5753],[57.1,5838],[57.4,5921],[59.6,6004],[61.6,6088],[62.7,6171],[64.1,6255],[65.2,6337],[65.2,6421],[65.2,6505],[65.2,6587],[67.6,6672],[69.8,6755],[70.2,6838],[70.7,6922],[72.8,7005],[75.4,7089],[74,7172],[73.9,7254],[73.9,7339],[73.9,7422],[74.8,7506],[74.8,7588],[74.8,7671],[75.2,7756],[75.2,7838],[75,7922],[75,8005],[75,8088],[75,8173],[75,8256],[75,8338],[75,8422],[75,8506],[75,8589],[72.9,8672],[69.5,8756],[68.4,8840],[65.5,8923],[63,9006],[62,9090],[62,9173],[62,9257],[62,9339],[62,9423],[62,9507],[62,9590],[62,9674],[63,9757],[64.1,9840],[64.2,9923],[64.2,10006],[64.2,10089],[64.2,10173],[64.2,10256],[64.2,10340],[64.2,10423],[64.2,10506],[64.2,10591],[64.2,10673],[64.2,10757],[64.2,10840],[64.2,10923],[64.2,11007],[64.2,11090],[64.2,11174],[64.2,11257],[64.2,11340],[64.2,11424],[64.2,11507],[64.2,11591],[64.2,11674],[64.2,11757],[64.2,11841],[64.2,11924],[64.2,12008],[64.2,12091],[64.2,12174],[64.2,12258],[64.2,12341],[64.2,12424],[64.2,12508],[64.2,12591],[64.2,12675],[64.2,12758],[64.2,12841],[64.2,12925],[64.2,13008],[64.2,13092],[64.2,13175],[64.2,13258],[64.2,13342],[64.2,13425],[64.2,13509],[64.2,13592],[64.2,13675],[64.2,13760],[64.2,13843],[64.2,13925],[64.2,14009],[64.2,14092],[64.2,14176],[64.2,14259],[64.2,14342],[64.2,14426],[64.2,14509],[64.2,14593],[64.2,14676],[64.2,14759],[64.2,14843],[64.2,14926],[64.2,15010],[64.2,15093],[64.2,15176],[64.2,15260],[64.2,15343],[64.2,15426],[64.2,15510],[64.2,15593],[64.2,15677],[64.2,15760],[64.2,15844],[64.2,15927],[64.2,16010],[64.2,16094],[64.2,16177],[64.2,16260],[64.2,16344],[64.2,16427],[64.2,16511],[64.2,16594],[64.2,16678],[64.2,16761],[64.2,16845],[64.2,16928],[64.2,17012],[64.2,17095],[64.2,17178],[64.2,17262],[64.2,17345],[64.2,17428],[64.2,17512],[64.2,17595],[64.2,17678],[64.2,17761],[64.2,17845],[64.2,17928],[64.2,18012],[64.2,18095],[64.2,18178],[64.2,18263],[64.2,18345],[64.2,18429],[64.2,18513],[64.2,18596],[64.2,18680],[64.2,18763],[64.2,18846],[64.2,18930],[64.2,19012],[64.2,19096],[64.2,19180],[64.2,19263],[64.2,19346],[64.2,19430],[64.2,19513],[64.2,19597],[64.2,19679],[64.2,19763],[64.2,19846],[64.2,19930],[64.2,20013],[64.2,20096],[64.2,20180],[64.2,20263],[64.2,20347],[64.2,20431],[64.2,20513],[64.2,20597],[64.2,20681],[64.2,20764],[64.2,20848],[64.2,20931],[64.2,21014],[64.2,21098],[64.2,21181],[64.2,21264],[64.2,21347],[64.2,21432],[64.2,21515],[64.2,21597],[64.2,21681],[64.2,21764],[64.2,21848],[64.2,21932],[64.2,22015],[64.2,22099],[64.2,22181],[64.2,22265],[64.2,22348],[64.2,22431],[64.2,22515],[64.2,22598],[64.2,22682],[64.2,22765],[64.2,22848],[64.2,22932],[64.2,23015],[64.2,23099],[64.2,23182],[64.2,23266],[64.2,23349],[64.2,23432],[64.2,23516],[64.2,23600],[64.2,23682],[64.2,23766],[64.2,23850],[64.2,23933],[64.2,24017],[64.2,24099],[64.2,24183],[64.2,24267],[64.2,24350],[64.2,24433],[64.2,24516],[64.2,24599],[64.2,24683],[64.2,24767],[64.2,24850],[64.2,24934],[64.2,25016],[64.2,25100],[64.2,25184],[64.2,25268],[64.2,25350],[64.2,25434],[64.2,25517],[64.2,25600],[64.2,25684],[64.2,25767],[64.2,25851],[64.2,25934],[64.2,26017],[64.2,26101],[64.2,26184],[64.2,26268],[64.2,26351],[64.2,26435],[64.2,26518],[64.2,26602],[64.2,26684],[64.2,26769],[64.2,26852],[64.2,26934],[64.2,27018],[64.2,27101],[64.2,27185],[64.2,27269],[64.2,27352],[64.2,27436],[64.2,27518],[64.2,27602],[64.2,27685],[64.2,27769],[64.2,27852],[64.2,27936],[64.2,28019],[64.2,28102],[64.2,28185],[64.2,28269],[64.2,28352],[64.2,28435],[64.2,28520],[64.2,28602],[64.2,28686],[64.2,28770],[64.2,28852],[64.2,28936],[64.2,29020],[64.2,29103],[64.2,29186],[64.2,29269],[64.2,29353],[64.2,29437]]",1106.2525,1109.8383,99.609375,2.0735,"[{""rating"":99.609375,""responseTime"":2.0735000000001946}]",space,3.069,,1109.8384,Definitely yes,100,1109.8396,,,[],,0,11,11,11,1,audio/Narrative8Situation2.wav,audio/Narrative7Situation2.wav,audio/Narrative6Situation2.wav,audio/Narrative5Situation2.wav,3,3,3,3,,,,,,,,,,,,,,,,,,,,,,,,,,,,,,,,,,,,,,,
,,,,,67094d6215b6d0fe3e8c3e39,2025-07-07_21h03.15.010,group3.4_multiperson,2023.2.2,Win32,178.5714286,686c2ebf0248f13bef9af11f,686c7b862b9ae4e0cabe4ba2,,,,,,,,,,,,,,,,,,,,,,,,,,,,,1109.8397,2,audio/Narrative5Situation3.wav,1112.8451,,1112.8451,1126.7324,"[[88.4,333],[88.4,416],[88.4,500],[88.4,583],[88.4,667],[77.6,1335],[73.4,1418],[72.4,1501],[72.4,1585],[72.4,1667],[72.4,1751],[72.4,1835],[72.3,1918],[72.3,2002],[72.3,2084],[72,2168],[72,2251],[72,2334],[71.9,2418],[71.9,2501],[71.9,2585],[71.9,2669],[71.9,2752],[71.9,2835],[71.1,2919],[71.1,3001],[71.1,3085],[71.1,3168],[70.2,3252],[70.1,3335],[70.1,3419],[70.1,3503],[70.1,3586],[70.6,3669],[70.6,3752],[70.6,3835],[70.6,3919],[70.6,4003],[70.6,4086],[70.6,4169],[70.6,4252],[70.7,4336],[73.2,5087],[73.4,5170],[73.5,5254],[73.6,5336],[73.6,5420],[72.9,5503],[72.9,5587],[73.1,5671],[73.7,5754],[74.8,5838],[75.9,5921],[76.1,6004],[76.1,6087],[76.1,6170],[76.1,6254],[76.1,6338],[76.1,6420],[76.1,6504],[76.1,6588],[76.1,6672],[75.9,6754],[75.9,6837],[75.9,6922],[75.9,7004],[75.9,7088],[75.9,7172],[75.9,7255],[76.2,7338],[76.3,7421],[76.3,7505],[76.3,7588],[76.3,7672],[76.3,7755],[76.3,7839],[76.2,7922],[76.2,8006],[76.2,8088],[76.3,8173],[78.6,8673],[78.9,8756],[78.9,8839],[78.9,8923],[78.6,9006],[78,9090],[77.4,9172],[76.9,9257],[76.7,9340],[76.5,9423],[76.4,9839],[76.4,9924],[75.9,10007],[74.9,10090],[73.9,10174],[73.8,10256],[73.8,10340],[73.8,10423],[73.8,10507],[73.8,10591],[73.8,10674],[73.8,10757],[73.8,10841],[73.8,10924],[74.6,11008],[75.5,11090],[75.9,11174],[76,11258],[76.2,11341],[76.5,11424],[76.7,11508],[76.7,11591],[76.7,11674],[76.7,11757],[76.7,11842],[76.7,11924],[76.7,12008],[77.3,12092],[77.3,12174],[77.3,12258],[77.4,12341],[77.4,12424],[77.7,12508],[77.8,12591],[78,12675],[78.2,12758],[78.2,12841],[78.2,12925],[78.2,13008],[78.2,13092],[78.2,13175],[78.2,13258],[78.2,13342],[78.2,13425],[78.2,13509],[78.2,13592],[78.2,13675],[78.2,13759],[78.2,13842]]",1126.7324,1131.1363,99.53125,1.7933,"[{""rating"":99.53125,""responseTime"":1.7933000000118682}]",space,3.8927,,1131.1363,Partially,50,1131.1375,,,[],,0,12,12,12,1,audio/Narrative8Situation3.wav,audio/Narrative7Situation3.wav,audio/Narrative6Situation3.wav,audio/Narrative5Situation3.wav,4,8,5,3,,,,,,,,,,,,,,,,,,,,,,,,,,,,,,,,,,,,,,,
,,,,,67094d6215b6d0fe3e8c3e39,2025-07-07_21h03.15.010,group3.4_multiperson,2023.2.2,Win32,178.5714286,686c2ebf0248f13bef9af11f,686c7b862b9ae4e0cabe4ba2,,,,,,,,,,,,,,,,,,,,,,,,,,,,,1131.1377,2,audio/Narrative5Situation4.wav,1132.1426,,1132.1426,1152.5111,"[[85.7,83],[85.5,165],[85.5,249],[85.8,333],[87,416],[87,500],[87,583],[88.6,667],[91.1,749],[91.8,832],[92.8,917],[95.7,1000],[97.3,1084],[98.7,1167],[99.6,1250],[100,1333],[100,1417],[100,1500],[99.8,1583],[99.8,1667],[99.8,1750],[99.8,1834],[99.8,1916],[99.6,2001],[99.4,2084],[99.2,2167],[99.1,2251],[99.1,2333],[99.1,2418],[99.1,2501],[99.1,2584],[99.1,2668],[99.1,2751],[99.1,2834],[99.2,2917],[99.5,3001],[99.7,3084],[99.7,3168],[99.6,3252],[99.6,3335],[99.6,3418],[99.6,3502],[99.6,3585],[99.6,3669],[99.6,3751],[100,3835],[100,3919],[100,4001],[100,4085],[100,4168],[100,4251],[100,4335],[100,4418],[100,4501],[100,4585],[100,4669],[100,4752],[100,4835],[100,4918],[100,5003],[100,5085],[100,5169],[100,5252],[100,5335],[100,5419],[100,5503],[99.9,5586],[99.8,5669],[99.6,5752],[99.6,5836],[99.6,5919],[99.6,6003],[99.6,6086],[99.6,6169],[100,6253],[100,6336],[100,6419],[100,6503],[99.9,6587],[99.8,6670],[99.8,6753],[99.8,6836],[100,6920],[100,7004],[100,7087],[100,7171],[100,7254],[100,7337],[100,7421],[100,7504],[100,7587],[100,7670],[99.8,7754],[99.7,7838],[99.7,7921],[99.7,8004],[99.7,8088],[99.7,8171],[99.7,8254],[99.7,8337],[100,8422],[100,8505],[100,8588],[100,8672],[100,8754],[100,8838],[100,8921],[100,9005],[100,9089],[100,9171],[100,9255],[100,9339],[100,9422],[100,9506],[99.9,9588],[99.8,9673],[99.6,9755],[99.6,9839],[99.6,9922],[99.6,10005],[99.5,10089],[99.4,10172],[99.4,10255],[99.4,10340],[99.4,10422],[99.4,10507],[99.4,10589],[99.4,10673],[99.4,10756],[99.6,10839],[100,10923],[100,11006],[100,11090],[100,11173],[100,11256],[100,11340],[100,11423],[100,11506],[100,11591],[100,11673],[100,11757],[100,11841],[100,11923],[99.9,12008],[99.8,12090],[99.8,12173],[99.8,12258],[99.8,12340],[99.8,12424],[99.8,12507],[99.8,12591],[99.7,12674],[99.7,12757],[99.7,12841],[99.7,12925],[99.7,13007],[99.7,13091],[99.7,13174],[99.7,13258],[99.7,13342],[99.7,13424],[99.7,13508],[99.7,13592],[99.7,13675],[99.7,13758],[99.7,13842],[99.7,13926],[99.7,14009],[99.7,14091],[99.7,14176],[99.7,14258],[99.7,14342],[99.7,14426],[99.7,14508],[99.7,14593],[99.7,14676],[99.7,14759],[99.7,14842],[99.7,14926],[99.7,15009],[99.7,15092],[99.7,15175],[99.7,15259],[99.7,15342],[99.7,15426],[99.7,15509],[99.7,15592],[99.7,15676],[99.7,15759],[99.7,15843],[99.7,15926],[99.7,16009],[99.7,16093],[99.7,16176],[99.7,16259],[99.7,16343],[99.7,16426],[99.7,16510],[99.7,16593],[99.7,16677],[99.7,16760],[99.7,16843],[99.7,16927],[99.7,17010],[99.7,17093],[99.7,17177],[99.7,17260],[99.7,17344],[99.7,17427],[99.7,17510],[99.7,17594],[99.7,17677],[99.7,17761],[99.7,17844],[99.7,17927],[99.7,18011],[99.7,18094],[99.7,18178],[99.7,18261],[99.7,18344],[99.7,18428],[99.7,18511],[99.7,18594],[99.7,18678],[99.7,18761],[99.7,18845],[99.7,18928],[99.7,19011],[99.7,19095],[99.7,19178],[99.7,19261],[99.7,19345],[99.7,19428],[99.7,19512],[99.7,19595],[99.7,19679],[99.7,19762],[99.7,19845],[99.7,19929],[99.7,20012],[99.7,20095],[99.7,20179],[99.7,20262],[99.7,20346]]",1152.5112,1161.7461,99.375,8.284,"[{""rating"":99.375,""responseTime"":8.283999999999878}]",space,8.7235,,1161.7461,Partially,50,1161.7468,,,[],,0,13,13,13,1,audio/Narrative8Situation4.wav,audio/Narrative7Situation4.wav,audio/Narrative6Situation4.wav,audio/Narrative5Situation4.wav,3,3,2,1,,,,,,,,,,,,,,,,,,,,,,,,,,,,,,,,,,,,,,,
,,,,,67094d6215b6d0fe3e8c3e39,2025-07-07_21h03.15.010,group3.4_multiperson,2023.2.2,Win32,178.5714286,686c2ebf0248f13bef9af11f,686c7b862b9ae4e0cabe4ba2,,,,,,,,,,,,,,,,,,,,,,,,,,,,,1161.7469,2,audio/Narrative5Situation5.wav,1166.7485,,1166.7486,1182.1425,"[[94.5,834],[95.2,917],[95.2,1001],[93,1084],[88.8,1168],[88,1250],[88,1334],[88,1417],[88,1500],[88,1584],[88,1667],[88,1751],[88,1834],[88,1917],[88,2001],[88,2084],[88,2168],[88,2251],[88,2334],[88,2418],[88.3,2501],[89.1,2586],[91.6,2669],[95.9,2752],[96.8,2835],[97.3,2918],[97.6,3001],[98.1,3086],[98.5,3169],[98.7,3252],[98.8,3336],[98.8,3418],[99,3502],[99.2,3586],[99.6,3670],[99.7,3753],[99.8,3836],[100,3919],[100,4003],[100,4086],[100,4169],[100,4253],[100,4336],[100,4419],[100,4502],[100,4586],[100,4669],[100,4753],[100,4837],[100,4920],[100,5004],[100,5087],[100,5170],[100,5254],[100,5336],[100,5421],[100,5504],[100,5587],[100,5671],[100,5754],[100,5837],[100,5920],[100,6004],[100,6088],[100,6170],[100,6254],[100,6337],[100,6421],[100,6504],[100,6588],[100,6671],[100,6755],[100,6838],[100,6921],[100,7005],[100,7088],[100,7171],[100,7255],[100,7339],[100,7422],[100,7505],[100,7588],[100,7671],[100,7755],[100,7838],[100,7922],[100,8006],[100,8089],[100,8172],[100,8256],[100,8339],[100,8422],[100,8505],[100,8590],[100,8672],[100,8756],[100,8839],[100,8922],[100,9006],[100,9089],[100,9172],[100,9256],[100,9339],[100,9423],[100,9506],[100,9590],[100,9673],[100,9756],[100,9840],[100,9923],[100,10006],[100,10090],[100,10174],[100,10257],[100,10341],[100,10424],[100,10507],[100,10590],[100,10673],[100,10757],[100,10840],[100,10923],[100,11007],[100,11090],[100,11174],[100,11257],[100,11340],[100,11424],[100,11507],[100,11591],[100,11674],[100,11757],[100,11841],[100,11924],[100,12008],[100,12091],[100,12174],[100,12258],[100,12341],[100,12424],[100,12508],[100,12591],[100,12675],[100,12758],[100,12842],[100,12925],[100,13008],[100,13092],[100,13175],[100,13259],[100,13342],[100,13425],[100,13509],[100,13592],[100,13675],[100,13759],[100,13842],[100,13926],[100,14009],[100,14092],[100,14176],[100,14259],[100,14343],[100,14426],[100,14509],[100,14593],[100,14676],[100,14759],[100,14843],[100,14926],[100,15010],[100,15093],[100,15176],[100,15261],[100,15344]]",1182.1425,1190.1765,0.46875,7.0502,"[{""rating"":0.4687500000000011,""responseTime"":7.050199999988081}]",space,7.518,,1190.1766,Partially,50,1190.1775,,,[],,0,14,14,14,1,audio/Narrative8Situation5.wav,audio/Narrative7Situation5.wav,audio/Narrative6Situation5.wav,audio/Narrative5Situation5.wav,2,5,2,5,,,,,,,,,,,,,,,,,,,,,,,,,,,,,,,,,,,,,,,
,,,,,67094d6215b6d0fe3e8c3e39,2025-07-07_21h03.15.010,group3.4_multiperson,2023.2.2,Win32,178.5714286,686c2ebf0248f13bef9af11f,686c7b862b9ae4e0cabe4ba2,,,,,,,,,,,,,,,,,,,,,,,,,,,,,1190.1776,2,audio/Narrative5Situation6.wav,1193.1778,,1193.1778,1198.8381,"[[0.9,1251],[2.1,1335],[3.5,1418],[4.6,1501],[5.5,1585],[6.4,1667],[7.6,1752],[8.4,1835],[10,1918],[11.7,2002],[14.5,2085],[20.6,2169],[27.3,2252],[31.4,2336],[36.2,2419],[39.8,2502],[42.3,2586],[44.5,2669],[46.8,2752],[49,2836],[56.9,2919],[75.3,3002],[82,3086],[82,3168],[81,3253],[80.6,3336],[82.3,3419],[81.5,3752],[94.2,3836],[100,3920],[100,4002],[100,4086],[100,4170],[100,4253],[100,4336],[100,4419],[100,4503],[100,4587],[100,4669],[100,4753],[100,4836],[100,4919],[100,5003],[100,5087],[100,5170],[100,5254],[100,5337],[100,5420],[100,5503],[100,5587]]",1198.8382,1201.4788,99.53125,0.7766,"[{""rating"":99.53125,""responseTime"":0.776599999964219}]",space,2.1239,,1201.4788,Not at all,0,1201.4799,,,[],,0,15,15,15,1,audio/Narrative8Situation6.wav,audio/Narrative7Situation6.wav,audio/Narrative6Situation6.wav,audio/Narrative5Situation6.wav,2,3,2,3,,,,,,,,,,,,,,,,,,,,,,,,,,,,,,,,,,,,,,,
,,,,,67094d6215b6d0fe3e8c3e39,2025-07-07_21h03.15.010,group3.4_multiperson,2023.2.2,Win32,178.5714286,686c2ebf0248f13bef9af11f,686c7b862b9ae4e0cabe4ba2,,,,,,,,,,,,,,,,,,,,,,,,,,,,,1201.48,2,audio/Narrative5Situation7.wav,1205.4806,,1205.4806,1226.495,"[[99.8,834],[97.9,918],[96.3,1000],[95.6,1084],[95.5,1167],[95.4,1250],[95.5,1334],[96.2,1418],[96.3,1500],[96.3,1584],[96.3,1668],[96.3,1751],[96.3,1834],[96.3,1917],[96.3,2001],[96.3,2084],[96.3,2168],[96.3,2251],[96.3,2334],[96.3,2418],[96.3,2501],[96.3,2585],[96.3,2668],[96.3,2751],[96.3,2835],[96.3,2919],[96.3,3002],[96.3,3085],[96.3,3168],[96.3,3252],[96.3,3335],[96.3,3419],[96.3,3502],[96.3,3586],[97.3,3670],[97.3,3753],[97.3,3836],[97.6,3920],[98.4,4002],[98.4,4086],[98.4,4170],[98.4,4253],[98.3,4337],[98.3,4419],[97.7,4504],[87.9,4587],[79.8,4671],[79.8,4754],[71,5171],[85.2,5254],[87.5,5338],[89.3,5421],[93.1,5504],[94.4,5588],[94.4,5670],[93.5,5755],[88.3,5838],[86.6,5920],[86.6,6004],[89.2,6088],[94.1,6171],[95,6255],[95.6,6338],[96.7,6422],[98,6505],[98.6,6587],[99.8,6671],[99.9,6754],[99.9,6838],[99.9,6921],[99.9,7004],[99.9,7088],[93.3,7172],[70.5,7256],[60.5,7339],[56.3,7422],[55.3,7506],[54.8,7589],[53,7673],[51.9,7756],[50.9,7838],[50.3,7922],[50.2,8006],[50.2,8088],[50.2,8172],[50.6,8256],[54.8,8340],[59.1,8423],[59.2,8505],[59.3,8589],[59.5,8672],[59.5,8756],[59.3,8840],[55.5,8923],[51.3,9007],[50,9090],[50,9173],[50.1,9257],[50.2,9339],[50.4,9424],[56.5,9507],[68,9590],[70.6,9674],[71.6,9756],[72.2,9839],[72.3,9923],[73.4,10006],[73.5,10090],[73.6,10173],[75.1,10258],[77,10341],[77,10423],[77,10508],[77,10590],[77,10674],[77,10757],[77,10841],[77,10924],[77,11007],[77,11091],[77,11175],[77,11257],[77,11341],[77,11424],[77,11508],[77,11592],[77,11675],[77,11758],[77,11842],[77,11924],[77,12008],[77,12091],[77,12174],[77,12258],[77,12341],[77,12425],[77,12508],[77,12591],[77,12675],[77,12758],[77,12842],[77,12925],[77,13008],[77,13092],[77,13175],[77,13259],[77,13342],[77,13425],[77,13509],[77,13592],[77,13676],[77,13759],[77,13842],[77,13926],[77,14009],[77,14092],[77,14176],[77,14260],[77,14344],[77,14426],[77,14509],[77,14593],[77,14677],[77,14760],[77,14843],[77,14927],[77,15010],[77,15093],[77,15177],[77,15261],[77,15343],[77,15427],[77,15510],[77,15594],[77,15677],[77,15760],[77,15844],[77,15928],[77,16010],[77,16094],[77,16177],[77,16261],[77,16344],[77,16427],[77,16511],[77,16595],[77,16678],[77,16761],[77,16844],[77,16928],[77,17011],[77,17094],[77,17178],[77,17262],[77,17346],[77,17428],[77,17511],[77,17595],[77,17678],[77,17762],[77,17845],[77,17929],[77,18013],[77,18095],[77,18179],[77,18263],[77,18345],[77,18429],[77,18513],[77,18596],[77,18680],[77,18763],[77,18846],[77,18929],[77,19013],[77,19097],[77,19179],[77,19263],[77,19346],[77,19429],[77,19514],[77,19597],[77,19681],[77,19764],[77,19847],[77,19931],[77,20014],[77,20096],[77,20180],[77,20263],[77,20347],[77,20431],[77,20514],[77,20597],[77,20680],[77,20764],[77,20847],[77,20930],[77,21014]]",1226.4952,1230.5755,50.15625,2.7904,"[{""rating"":50.15625,""responseTime"":2.7904000000357883}]",space,3.5646,,1230.5755,Not at all,0,1230.5763,,,[],,0,16,16,16,1,audio/Narrative8Situation7.wav,audio/Narrative7Situation7.wav,audio/Narrative6Situation7.wav,audio/Narrative5Situation7.wav,3,5,5,4,,,,,,,,,,,,,,,,,,,,,,,,,,,,,,,,,,,,,,,
,,,,,67094d6215b6d0fe3e8c3e39,2025-07-07_21h03.15.010,group3.4_multiperson,2023.2.2,Win32,178.5714286,686c2ebf0248f13bef9af11f,686c7b862b9ae4e0cabe4ba2,,,,,,,,,,,,,,,,,,,,,,,,,,,,,1230.5764,2,audio/Narrative5Situation8.wav,1233.5776,,1233.5776,1242.3734,"[[50.2,84],[50.2,167],[50.2,250],[50.2,333],[50.2,417],[50.2,501],[50.2,583],[50.4,667],[52.3,751],[53.4,834],[53.4,917],[53.4,1000],[53.4,1084],[53.4,1167],[53.4,1250],[53.4,1335],[53.4,1418],[53.4,1501],[53.4,1584],[53.4,1667],[53.4,1751],[53.4,1835],[53.4,1917],[53.4,2001],[53.4,2085],[53.4,2168],[53.4,2251],[53.4,2334],[53.4,2419],[53.4,2502],[53.4,2585],[53.4,2669],[53.4,2752],[53.4,2835],[53.4,2918],[53.4,3002],[56.5,3086],[73.4,3169],[81.3,3253],[81.3,3335],[81.3,3419],[81.3,3502],[81.9,3586],[85.6,3670],[86.8,3753],[87,3836],[87,3919],[86.8,4003],[83.6,4087],[74.1,4170],[62.1,4253],[54.8,4337],[52.1,4420],[51.6,4503],[51.4,4586],[51.3,4669],[51.2,4754],[51,4836],[50.9,4921],[50.8,5003],[50.2,5087],[50,5170],[50,5253],[50,5336],[50,5420],[50,5503],[50,5587],[50,5670],[50,5753],[50,5837],[50,5920],[50,6004],[49.8,6088],[49.5,6171],[49.3,6254],[49.1,6337],[48.9,6421],[48.9,6504],[49.2,6588],[50,6671],[50.3,6754],[50.3,6837],[50.3,6921],[48.5,7005],[45.3,7089],[44.9,7171],[44.9,7254],[45.8,7339],[48.3,7422],[50.3,7506],[52.1,7589],[52.7,7671],[52.7,7755],[51,7839],[48.4,7923],[46.8,8006],[46.7,8088],[50.1,8173],[54.8,8256],[56.1,8338],[55.5,8423],[49.7,8506],[46.3,8590],[46.6,8673],[56.8,8757]]",1242.3736,1246.2084,50,1.3687,"[{""rating"":50,""responseTime"":1.3686999999881664}]",space,3.3237,,1246.2084,Not at all,0,1246.2092,,,[],,0,17,17,17,1,audio/Narrative8Situation8.wav,audio/Narrative7Situation8.wav,audio/Narrative6Situation8.wav,audio/Narrative5Situation8.wav,3,2,5,3,,,,,,,,,,,,,,,,,,,,,,,,,,,,,,,,,,,,,,,
