consent.started,consent.stopped,consentResponse.keys,consentResponse.rt,consentResponse.duration,participantID,date,expName,psychopyVersion,OS,frameRate,STUDY_ID,SESSION_ID,opening1.started,opening1.stopped,keyEndingOpening1.keys,keyEndingOpening1.rt,keyEndingOpening1.duration,volumeAdjust.started,volumeAdjust.stopped,endingAdjust.keys,endingAdjust.rt,endingAdjust.duration,opening2.started,opening2.stopped,keyEndingOpening.keys,keyEndingOpening.rt,keyEndingOpening.duration,mouse.x,mouse.y,mouse.leftButton,mouse.midButton,mouse.rightButton,mouse.time,instructionLoop.thisRepN,instructionLoop.thisTrialN,instructionLoop.thisN,instructionLoop.thisIndex,instructionLoop.ran,readyForAudio.started,readyForAudio.stopped,fixation.started,run,audio_played,fixation.stopped,endPractice.keys,audioPre.started,audioPre.stopped,continuousResponses_audio,intRating.started,intRating.stopped,intQuestionSlider.response,intQuestionSlider.rt,intQuestionSlider.history,confirmResponse.keys,confirmResponse.rt,confirmResponse.duration,catchQuestion.started,catch_label,catch_value,catchQuestion.stopped,catchQuestionSlider.response,catchQuestionSlider.rt,catchQuestionSlider.history,confirmResponse_2.keys,audioRunLoop.thisRepN,audioRunLoop.thisTrialN,audioRunLoop.thisN,audioRunLoop.thisIndex,audioRunLoop.ran,conditions1_1,conditions2_1,conditions1_2,conditions2_2,dur1_1,dur2_1,dur1_2,dur2_2,endPractice.rt,endPractice.duration,confirmResponse_2.rt,confirmResponse_2.duration,runIntervalBreak.started,runIntervalBreak.stopped,endingBreakKey.keys,endingBreakKey.rt,endingBreakKey.duration,connection.started,connection.stopped,connectionEnding.keys,connectionEnding.rt,connectionEnding.duration,readyForText.started,readyForText.stopped,textPre.started,run_dup,textPre.stopped,continuousResponses_text,textRunLoop.thisRepN,textRunLoop.thisTrialN,textRunLoop.thisN,textRunLoop.thisIndex,textRunLoop.ran,text1_1,text1_2,text2_1,text2_2,runBreakText.started,runBreakText.stopped,endingBreakKey_2.keys,endingBreakKey_2.rt,endingBreakKey_2.duration,ending.started,ending.stopped,endingEnding.keys,endingEnding.rt,endingEnding.duration
0.0002,12.9627,y,12.6399,,6709224f70eacdb20761ae3c,2025-07-07_22h37.23.174,group3.4_multiperson,2023.2.2,Win32,60.24096386,686c2ebf0248f13bef9af11f,686c91bb8e9dbeb5c8f68542,,,,,,,,,,,,,,,,,,,,,,,,,,,,,,,,,,,,,,,,,,,,,,,,,,,,,,,,,,,,,,,,,,,,,,,,,,,,,,,,,,,,,,,,,,,,,,,,,,,,,,,,
,,,,,6709224f70eacdb20761ae3c,2025-07-07_22h37.23.174,group3.4_multiperson,2023.2.2,Win32,60.24096386,686c2ebf0248f13bef9af11f,686c91bb8e9dbeb5c8f68542,12.963,21.8111,space,8.8107,,,,,,,,,,,,,,,,,,,,,,,,,,,,,,,,,,,,,,,,,,,,,,,,,,,,,,,,,,,,,,,,,,,,,,,,,,,,,,,,,,,,,,,,,,,,,,,,,,,,
,,,,,6709224f70eacdb20761ae3c,2025-07-07_22h37.23.174,group3.4_multiperson,2023.2.2,Win32,60.24096386,686c2ebf0248f13bef9af11f,686c91bb8e9dbeb5c8f68542,,,,,,21.8112,41.0563,space,18.9153,,,,,,,,,,,,,,,,,,,,,,,,,,,,,,,,,,,,,,,,,,,,,,,,,,,,,,,,,,,,,,,,,,,,,,,,,,,,,,,,,,,,,,,,,,,,,,,
,,,,,6709224f70eacdb20761ae3c,2025-07-07_22h37.23.174,group3.4_multiperson,2023.2.2,Win32,60.24096386,686c2ebf0248f13bef9af11f,686c91bb8e9dbeb5c8f68542,,,,,,,,,,,41.0746,274.6782,space,233.5771,,[],[],[],[],[],[],0,0,0,0,1,,,,,,,,,,,,,,,,,,,,,,,,,,,,,,,,,,,,,,,,,,,,,,,,,,,,,,,,,,,,,,,,,,,,,,,,,,,,,,
,,,,,6709224f70eacdb20761ae3c,2025-07-07_22h37.23.174,group3.4_multiperson,2023.2.2,Win32,60.24096386,686c2ebf0248f13bef9af11f,686c91bb8e9dbeb5c8f68542,,,,,,,,,,,274.6952,317.9031,space,43.1265,,[],[],[],[],[],[],1,0,1,0,1,,,,,,,,,,,,,,,,,,,,,,,,,,,,,,,,,,,,,,,,,,,,,,,,,,,,,,,,,,,,,,,,,,,,,,,,,,,,,,
,,,,,6709224f70eacdb20761ae3c,2025-07-07_22h37.23.174,group3.4_multiperson,2023.2.2,Win32,60.24096386,686c2ebf0248f13bef9af11f,686c91bb8e9dbeb5c8f68542,,,,,,,,,,,317.9196,357.0149,space,39.0539,,[-0.84375],[0.26666666666666666],[1],[0],[0],[38.02970000004768],2,0,2,0,1,,,,,,,,,,,,,,,,,,,,,,,,,,,,,,,,,,,,,,,,,,,,,,,,,,,,,,,,,,,,,,,,,,,,,,,,,,,,,,
,,,,,6709224f70eacdb20761ae3c,2025-07-07_22h37.23.174,group3.4_multiperson,2023.2.2,Win32,60.24096386,686c2ebf0248f13bef9af11f,686c91bb8e9dbeb5c8f68542,,,,,,,,,,,357.0158,390.9439,space,33.8954,,[],[],[],[],[],[],3,0,3,0,1,,,,,,,,,,,,,,,,,,,,,,,,,,,,,,,,,,,,,,,,,,,,,,,,,,,,,,,,,,,,,,,,,,,,,,,,,,,,,,
,,,,,6709224f70eacdb20761ae3c,2025-07-07_22h37.23.174,group3.4_multiperson,2023.2.2,Win32,60.24096386,686c2ebf0248f13bef9af11f,686c91bb8e9dbeb5c8f68542,,,,,,,,,,,390.9571,459.2855,space,68.3033,,[-0.7625],[0.24833333333333332],[1],[0],[0],[42.77479999995239],4,0,4,0,1,,,,,,,,,,,,,,,,,,,,,,,,,,,,,,,,,,,,,,,,,,,,,,,,,,,,,,,,,,,,,,,,,,,,,,,,,,,,,,
,,,,,6709224f70eacdb20761ae3c,2025-07-07_22h37.23.174,group3.4_multiperson,2023.2.2,Win32,60.24096386,686c2ebf0248f13bef9af11f,686c91bb8e9dbeb5c8f68542,,,,,,,,,,,459.3123,481.1655,space,21.8201,,[],[],[],[],[],[],5,0,5,0,1,,,,,,,,,,,,,,,,,,,,,,,,,,,,,,,,,,,,,,,,,,,,,,,,,,,,,,,,,,,,,,,,,,,,,,,,,,,,,,
,,,,,6709224f70eacdb20761ae3c,2025-07-07_22h37.23.174,group3.4_multiperson,2023.2.2,Win32,60.24096386,686c2ebf0248f13bef9af11f,686c91bb8e9dbeb5c8f68542,,,,,,,,,,,,,,,,,,,,,,,,,,,481.1843,483.7659,483.8064,1,audio/Narrative13Situation2.wav,485.8147,,485.8151,515.579,"[[999,3],[999,132],[999,216],[999,299],[999,382],[999,465],[999,549],[999,632],[999,716],[999,799],[999,882],[999,965],[999,1049],[999,1132],[999,1215],[999,1299],[999,1382],[999,1465],[999,1548],[999,1632],[999,1715],[999,1799],[999,1882],[999,1966],[999,2049],[999,2132],[999,2215],[999,2298],[999,2382],[999,2465],[999,2548],[999,2632],[999,2715],[999,2798],[999,2882],[999,2965],[999,3049],[999,3132],[999,3215],[999,3298],[999,3382],[999,3465],[999,3549],[999,3632],[999,3715],[999,3798],[999,3882],[999,3967],[999,4048],[999,4132],[999,4215],[999,4298],[999,4382],[999,4465],[999,4549],[999,4633],[999,4715],[999,4798],[999,4883],[999,4965],[999,5048],[999,5131],[53.6,5215],[53,5299],[52.5,5381],[53.8,5465],[57.6,5548],[65.7,5631],[73.3,5715],[80.6,5799],[81.8,5881],[81.8,5965],[81.8,6048],[81.8,6132],[81.8,6215],[81.8,6298],[81.8,6381],[81.8,6465],[81.8,6548],[81.8,6631],[81.8,6715],[81.8,6798],[81.8,6881],[81.8,6965],[81.8,7048],[81.8,7131],[81.8,7215],[81.8,7298],[81.8,7381],[81.8,7465],[81.8,7548],[81.8,7631],[81.8,7714],[81.8,7798],[81.8,7881],[81.8,7965],[81.8,8048],[81.8,8131],[81.8,8215],[81.8,8298],[81.8,8381],[81.8,8465],[81.8,8548],[81.8,8631],[81.8,8714],[81.8,8798],[81.8,8881],[81.8,8964],[81.8,9047],[81.8,9131],[81.8,9214],[81.8,9297],[81.8,9381],[81.8,9464],[81.8,9547],[81.8,9631],[81.7,9714],[81.7,9797],[81.7,9881],[81.7,9964],[81.7,10047],[81.7,10131],[81.7,10214],[80,10297],[74.1,10381],[67.8,10464],[56.6,10548],[47.9,10631],[40.5,10714],[33.9,10797],[28.1,10881],[22.2,10964],[19,11047],[17.6,11131],[17.6,11214],[17.6,11297],[17.6,11381],[17.6,11464],[17.6,11547],[17.6,11630],[17.6,11714],[17.6,11797],[17.6,11881],[17.6,11964],[17.6,12047],[17.6,12131],[17.6,12214],[17.6,12297],[17.6,12380],[17.6,12464],[17.6,12547],[17.6,12631],[17.6,12714],[17.6,12797],[17.6,12880],[17.6,12964],[17.6,13047],[17.6,13130],[17.6,13214],[17.6,13297],[17.6,13380],[17.6,13464],[17.6,13547],[17.6,13630],[17.6,13714],[17.6,13797],[17.6,13880],[17.6,13964],[17.6,14047],[17.6,14130],[17.6,14214],[17.6,14297],[17.6,14380],[17.6,14464],[17.6,14547],[17.6,14630],[17.6,14714],[17.6,14797],[17.6,14880],[17.6,14964],[17.6,15047],[17.6,15130],[17.6,15214],[17.6,15298],[17.6,15380],[17.6,15464],[17.6,15547],[17.6,15630],[17.6,15713],[17.6,15797],[17.6,15880],[17.6,15964],[17.6,16047],[17.6,16130],[17.6,16214],[17.6,16297],[17.6,16380],[17.6,16464],[17.6,16547],[17.6,16630],[17.6,16713],[17.6,16797],[17.6,16880],[17.6,16963],[17.6,17047],[17.6,17130],[17.6,17213],[17.6,17296],[17.6,17380],[17.6,17463],[17.6,17546],[17.6,17630],[17.6,17713],[17.6,17796],[17.6,17880],[17.6,17963],[17.6,18046],[17.6,18130],[17.6,18213],[17.6,18296],[17.6,18380],[17.6,18463],[17.6,18546],[17.6,18630],[16.1,18713],[15.1,18797],[13.4,18880],[13,18963],[12.2,19046],[12,19130],[12,19214],[10.7,19297],[8.6,19380],[8.4,19463],[7.8,19546],[6.7,19629],[6.7,19713],[6.7,19796],[6.6,19880],[6.6,19963],[6.6,20046],[6.6,20130],[6.6,20213],[6.6,20296],[6.6,20379],[6.6,20463],[6.6,20546],[6.6,20629],[6.6,20713],[6.6,20796],[6.6,20879],[6.6,20963],[6.6,21046],[6.6,21129],[6.6,21213],[6.6,21296],[6.6,21379],[6.6,21463],[6.6,21546],[6.6,21629],[6.6,21713],[6.6,21796],[6.6,21879],[6.6,21963],[6.6,22046],[6.6,22129],[6.6,22213],[6.6,22296],[6.6,22379],[6.6,22463],[6.6,22546],[6.6,22629],[6.6,22713],[6.6,22796],[6.6,22879],[6.6,22962],[6.6,23046],[6.6,23129],[6.6,23212],[6.6,23296],[6.6,23379],[6.6,23462],[6.6,23546],[6.6,23629],[6.6,23713],[6.6,23796],[6.6,23879],[6.6,23963],[6.6,24046],[6.6,24129],[6.6,24213],[6.6,24296],[6.6,24379],[6.6,24462],[6.6,24546],[6.6,24629],[6.6,24712],[6.6,24796],[6.6,24879],[6.6,24963],[6.6,25046],[6.6,25129],[6.6,25212],[6.6,25296],[6.6,25379],[6.6,25462],[6.6,25546],[6.6,25629],[6.6,25712],[6.6,25796],[6.6,25879],[6.6,25962],[6.6,26046],[6.6,26129],[6.6,26212],[6.6,26296],[6.6,26379],[6.6,26462],[6.6,26546],[6.6,26629],[6.6,26712],[6.6,26795],[6.6,26878],[6.6,26962],[6.6,27045],[6.6,27128],[6.6,27212],[6.6,27295],[6.6,27378],[6.6,27462],[6.6,27546],[6.6,27629],[6.6,27712],[6.6,27796],[6.6,27879],[6.6,27962],[6.6,28045],[6.6,28129],[6.7,28213],[7.8,28295],[11.6,28378],[22.3,28462],[34.6,28545],[60,29212],[54.9,29295],[48.2,29379],[45.1,29462],[45,29545],[45.8,29629],[51.5,29713]]",515.5795,526.0269,80.72916667,7.0085,"[{""rating"":80.72916666666667,""responseTime"":7.008499999999913}]",space,9.901,,526.0274,Not at all,0,526.033,,,[],,0,0,0,0,1,audio/Narrative13Situation2.wav,audio/Narrative13Situation2.wav,audio/Narrative13Situation2.wav,audio/Narrative13Situation2.wav,2,2,2,2,,,,,,,,,,,,,,,,,,,,,,,,,,,,,,,,,,,,,,,
,,,,,6709224f70eacdb20761ae3c,2025-07-07_22h37.23.174,group3.4_multiperson,2023.2.2,Win32,60.24096386,686c2ebf0248f13bef9af11f,686c91bb8e9dbeb5c8f68542,,,,,,,,,,,,,,,,,,,,,,,,,,,,,526.0334,1,audio/Narrative8Situation1.wav,535.4918,space,535.4919,551.4229,"[[48.4,666],[48.4,750],[48.1,1749],[48.1,1833],[47.3,1916],[47.3,1999],[47.5,2082],[47.7,2166],[47.7,2249],[47.7,2332],[47.7,2415],[47.7,2498],[47.7,2582],[47.7,2665],[47.7,2748],[47.7,2832],[48,2915],[57.2,2998],[62.3,3082],[64,3165],[68.3,3248],[74.4,3332],[75.3,3415],[75.3,3498],[75.3,3581],[75.3,3665],[75.3,3748],[75.3,3832],[75.3,3915],[75.3,3998],[75.3,4082],[75.3,4165],[75.3,4248],[76.7,4332],[82,4415],[86.4,4500],[88.3,4582],[90.3,4666],[91.6,4749],[91.8,4832],[91.8,4915],[91.8,4999],[91.8,5082],[91.8,5165],[91.8,5249],[91.8,5332],[91.8,5415],[91.8,5499],[91.8,5582],[91.8,5665],[91.8,5749],[91.8,5832],[91.8,5915],[91.8,5998],[91.8,6082],[91.8,6165],[91.8,6248],[91.8,6331],[91.8,6415],[91.8,6498],[91.8,6582],[91.8,6665],[91.8,6748],[91.8,6831],[91.8,6915],[91.8,6998],[91.8,7081],[91.8,7165],[91.8,7248],[91.8,7332],[91.8,7415],[91.8,7498],[91.8,7581],[91.8,7665],[91.8,7748],[91.8,7831],[91.8,7915],[91.8,7998],[91.8,8082],[91.8,8165],[91.8,8248],[91.8,8332],[91.8,8415],[91.8,8498],[91.8,8581],[91.8,8665],[91.8,8748],[91.8,8831],[93.4,8915],[93.6,8999],[95.2,9081],[96.1,9165],[97.6,9248],[98,9331],[98,9414],[98,9498],[98,9581],[98,9665],[98,9748],[98,9831],[98,9915],[98,9998],[98,10081],[98,10164],[98,10248],[98,10331],[98,10414],[98,10498],[98,10581],[98,10664],[98,10748],[98,10831],[98,10914],[97.3,10998],[96.5,11081],[96.5,11164],[96.5,11248],[96.5,11331],[96.5,11414],[96.5,11498],[96.5,11581],[95.6,11664],[93.8,11747],[91.7,11832],[90.3,11914],[90.3,11997],[90.2,12081],[88.9,12165],[88,12249],[86.1,12331],[82.8,12415],[77.9,12497],[72.5,12581],[69.7,12664],[66.9,12749],[64.8,12831],[62.9,12914],[58.6,12997],[57,13081],[55.1,13164],[55,13247],[54.1,13331],[53.8,13414],[53.8,13497],[53.8,13580],[53.8,13664],[53.8,13747],[53.8,13830],[53.8,13914],[53.8,13997],[53.8,14081],[53.8,14164],[53.8,14247],[53.8,14330],[53.8,14414],[53.8,14497],[53.8,14580],[53.8,14664],[53.8,14747],[53.8,14830],[53.8,14914],[53.8,14997],[53.8,15080],[53.8,15164],[53.8,15247],[53.8,15330],[53.8,15414],[53.8,15497],[53.8,15580],[53.8,15664],[53.8,15747],[53.8,15830],[53.8,15914]]",551.4233,558.2552,87.70833333,3.3428,"[{""rating"":87.70833333333333,""responseTime"":3.3427999999522626}]",space,6.283,,558.2553,Definitely yes,100,558.272,,,[],,0,1,1,1,1,audio/Narrative7Situation1.wav,audio/Narrative8Situation1.wav,audio/Narrative5Situation1.wav,audio/Narrative6Situation1.wav,2,5,5,2,9.4296,,,,,,,,,,,,,,,,,,,,,,,,,,,,,,,,,,,,,,
,,,,,6709224f70eacdb20761ae3c,2025-07-07_22h37.23.174,group3.4_multiperson,2023.2.2,Win32,60.24096386,686c2ebf0248f13bef9af11f,686c91bb8e9dbeb5c8f68542,,,,,,,,,,,,,,,,,,,,,,,,,,,,,558.2723,1,audio/Narrative8Situation2.wav,561.2881,,561.2882,571.4205,"[[75,3585],[73.1,3666],[72.7,3749],[72.5,3832],[72.4,3916],[72.2,3999],[72.2,4082],[72.2,4166],[71.7,4249],[70.3,4332],[69.9,4415],[69.9,4499],[69.5,4582],[67.9,4666],[67.6,4749],[64.2,4832],[54.2,4916],[42.1,4999],[37.6,5082],[35.6,5165],[30.9,5249],[27.1,5332],[23.1,5416],[20.7,5500],[19.1,5582],[17.6,5666],[17.2,5749],[17.1,5832],[16.1,5916],[15.8,5999],[15.6,6082],[15,6165],[14.6,6253],[13.8,6332],[12.7,6415],[11.4,6499],[9.9,6582],[8.9,6665],[8.5,6749],[8,6832],[7.7,6915],[7.6,6999],[7.6,7082],[7.4,7165],[7.3,7248],[7.3,7332],[7.3,7415],[7.3,7499],[7.3,7582],[7.3,7665],[7.3,7748],[7.3,7832],[7.3,7915],[7.3,7999],[7.3,8082],[7.3,8165],[7.3,8248],[7.3,8331],[7.3,8415],[7.3,8498],[7.3,8582],[7.3,8665],[7.3,8748],[7.3,8832],[7.3,8915],[7.3,8998],[7.3,9081],[7.3,9165],[7.3,9248],[7.3,9331],[7.3,9415],[7.3,9498],[7.3,9581],[7.3,9665],[7.3,9748],[7.3,9831],[7.3,9915],[7.3,9998],[7.3,10081]]",571.4207,585.3351,9.791666667,6.4241,"[{""rating"":9.791666666666664,""responseTime"":6.424100000023827}]",space,13.3724,,585.3353,Not at all,0,585.3414,,,[],,0,2,2,2,1,audio/Narrative7Situation2.wav,audio/Narrative8Situation2.wav,audio/Narrative5Situation2.wav,audio/Narrative6Situation2.wav,3,3,3,3,,,,,,,,,,,,,,,,,,,,,,,,,,,,,,,,,,,,,,,
,,,,,6709224f70eacdb20761ae3c,2025-07-07_22h37.23.174,group3.4_multiperson,2023.2.2,Win32,60.24096386,686c2ebf0248f13bef9af11f,686c91bb8e9dbeb5c8f68542,,,,,,,,,,,,,,,,,,,,,,,,,,,,,585.3419,1,audio/Narrative8Situation3.wav,589.3517,,589.3518,611.7486,"[[999,12],[999,82],[999,165],[999,249],[999,332],[999,416],[999,499],[999,582],[999,665],[999,749],[999,832],[999,915],[999,999],[999,1082],[999,1165],[999,1249],[999,1332],[999,1415],[999,1499],[999,1582],[999,1665],[999,1749],[999,1832],[999,1915],[999,1999],[999,2082],[999,2165],[999,2249],[999,2332],[999,2415],[999,2499],[999,2582],[999,2665],[999,2749],[999,2832],[999,2915],[999,2999],[999,3082],[999,3165],[999,3248],[999,3332],[999,3415],[999,3499],[999,3581],[999,3665],[999,3748],[999,3831],[999,3915],[999,3998],[999,4082],[999,4165],[999,4248],[999,4331],[999,4415],[999,4498],[52.7,4581],[65.4,4666],[73.5,4749],[73.6,4831],[74.2,4915],[77.3,4998],[79.8,5081],[81.1,5165],[81.1,5248],[81.1,5331],[81.1,5415],[81.1,5498],[81.1,5582],[81.1,5665],[81.1,5748],[81.1,5831],[81.1,5915],[81.1,5998],[76.4,6082],[66.6,6166],[62.2,6250],[50.7,6331],[39.3,6416],[24.8,6498],[19,6581],[12.8,6665],[11.4,6748],[11.4,6831],[11.4,6915],[11.4,6998],[12.5,7081],[16,7165],[16,7248],[16,7331],[16,7414],[16,7498],[16,7581],[16,7664],[16,7748],[16,7831],[16,7915],[16,7998],[16,8081],[16,8164],[16,8248],[16,8331],[16,8414],[16,8498],[16,8581],[16,8664],[16,8748],[16,8831],[16,8914],[16,8998],[16,9081],[16,9164],[16,9248],[16,9331],[16,9414],[16,9498],[16,9581],[16,9664],[16,9748],[16,9831],[16,9914],[17.2,9998],[31.4,10081],[53.1,10164],[65.3,10248],[71.5,10331],[77.9,10414],[79.4,10498],[82.9,10583],[83.4,10664],[83.5,10747],[83.5,10831],[83.6,10914],[83.8,10997],[84.7,11081],[85.5,11164],[87.2,11248],[87.3,11331],[87.3,11414],[87.3,11497],[87.3,11581],[87.3,11664],[87.3,11747],[87.3,11831],[87.3,11914],[87.3,11997],[87.3,12080],[87.3,12164],[87.3,12247],[87.3,12331],[87.3,12414],[87.3,12497],[87.3,12581],[87.3,12664],[87.3,12747],[87.3,12830],[87.3,12914],[87.3,12997],[87.3,13080],[87.3,13164],[87.3,13247],[87.3,13330],[87.3,13414],[87.3,13497],[87.3,13581],[87.3,13664],[95,14081],[100,14165],[100,14248],[100,14331],[100,14414],[100,14498],[100,14581],[100,14664],[100,14747],[100,14831],[100,14914],[100,14997],[100,15080],[100,15164],[100,15247],[100,15330],[100,15414],[100,15497],[100,15581],[100,15664],[100,15747],[100,15830],[100,15914],[100,15998],[100,16080],[100,16164],[100,16247],[100,16331],[100,16414],[100,16497],[100,16580],[100,16664],[100,16747],[100,16830],[100,16914],[100,16997],[100,17080],[100,17164],[100,17247],[100,17330],[100,17413],[100,17497],[100,17580],[100,17663],[100,17747],[100,17830],[100,17913],[100,17997],[100,18080],[100,18163],[100,18246],[100,18330],[100,18413],[100,18497],[100,18580],[100,18663],[100,18746],[100,18830],[100,18913],[100,18996],[100,19080],[100,19163],[100,19246],[100,19330],[100,19413],[100,19496],[100,19580],[100,19663],[100,19746],[100,19830],[100,19913],[100,19996],[100,20079],[100,20163],[100,20246],[100,20329],[100,20413],[100,20496],[100,20579],[100,20663],[100,20746],[100,20829],[100,20913],[100,20996],[100,21079],[100,21163],[100,21246],[100,21329],[100,21413],[100,21496],[100,21579],[100,21663],[100,21746],[100,21829],[100,21913],[100,21996],[100,22079],[100,22163],[100,22246],[100,22329]]",611.7488,613.3979,95.83333333,1.0262,"[{""rating"":95.83333333333333,""responseTime"":1.0262000000476519}]",space,1.1008,,613.398,Partially,50,613.4031,,,[],,0,3,3,3,1,audio/Narrative7Situation3.wav,audio/Narrative8Situation3.wav,audio/Narrative5Situation3.wav,audio/Narrative6Situation3.wav,8,4,3,5,,,,,,,,,,,,,,,,,,,,,,,,,,,,,,,,,,,,,,,
,,,,,6709224f70eacdb20761ae3c,2025-07-07_22h37.23.174,group3.4_multiperson,2023.2.2,Win32,60.24096386,686c2ebf0248f13bef9af11f,686c91bb8e9dbeb5c8f68542,,,,,,,,,,,,,,,,,,,,,,,,,,,,,613.4035,1,audio/Narrative8Situation4.wav,616.4144,,616.4145,630.5961,"[[70.3,749],[70.3,834],[70.3,916],[70.3,1000],[70.3,1084],[70.3,1166],[70.3,1249],[70.3,1333],[70.3,1416],[70.3,1499],[70.3,1582],[70.3,1666],[70.4,1749],[70.4,1832],[74.5,1916],[75.2,1999],[75.2,2082],[75.2,2166],[75.2,2249],[75.2,2332],[75.2,2415],[75.2,2499],[75.2,2582],[75.2,2666],[75.2,2749],[75.2,2832],[75.2,2916],[75.2,2999],[75.3,3082],[75.5,3166],[75.5,3249],[75.6,3332],[75.6,3415],[75.6,3499],[75.6,3582],[75.6,3666],[75.6,3749],[75.6,3832],[75.6,3915],[75.6,3999],[75.6,4082],[75.6,4165],[75.6,4249],[75.6,4332],[76,4415],[81,4499],[86.1,4583],[88.9,4666],[90.3,4749],[90.3,4832],[90.3,4915],[92,4999],[100,5082],[100,5165],[100,5248],[100,5332],[100,5415],[100,5498],[100,5582],[100,5665],[100,5748],[100,5832],[100,5915],[100,5999],[100,6082],[100,6165],[100,6248],[100,6332],[100,6415],[100,6499],[100,6582],[100,6665],[100,6749],[100,6832],[100,6915],[100,6998],[100,7082],[100,7165],[100,7249],[100,7332],[100,7415],[100,7498],[100,7582],[99.7,7665],[98.5,7748],[98.3,7832],[98.3,7915],[98,7998],[98,8082],[98,8165],[98,8248],[98,8332],[98,8415],[98,8498],[98,8581],[98,8665],[98,8748],[98,8831],[98,8915],[98,8998],[98,9081],[98,9165],[98,9248],[98,9331],[98,9415],[98,9498],[98,9581],[98,9665],[97.2,9749],[94.8,9831],[94.8,9915],[94.8,9998],[94.8,10081],[94.8,10165],[96.8,10248],[97.9,10331],[97.9,10415],[97.9,10498],[97.9,10581],[97.9,10665],[97.9,10748],[97.9,10831],[97.9,10915],[97.9,10998],[97.9,11081],[97.9,11165],[97.9,11248],[97.9,11331],[97.9,11415],[97.9,11498],[97.9,11581],[97.9,11665],[98.1,11748],[98.2,11831],[98.2,11914],[98.2,11998],[98.2,12081],[98.2,12164],[98.2,12248],[98.2,12331],[98.2,12414],[98.2,12498],[98.2,12581],[98.2,12664],[98.2,12747],[98.2,12831],[98.3,12914],[98.3,12997],[98.3,13081],[98.3,13164],[98.3,13248],[98.4,13332],[98.4,13414],[98.4,13498],[98.4,13581],[98.4,13664],[98.4,13748],[98.4,13831],[98.4,13914],[98.4,13998],[98.4,14081],[98.4,14164]]",630.5963,632.4623,97.5,0.9601,"[{""rating"":97.5,""responseTime"":0.9601000000238855}]",space,1.3172,,632.4624,Partially,50,632.4655,,,[],,0,4,4,4,1,audio/Narrative7Situation4.wav,audio/Narrative8Situation4.wav,audio/Narrative5Situation4.wav,audio/Narrative6Situation4.wav,3,3,1,2,,,,,,,,,,,,,,,,,,,,,,,,,,,,,,,,,,,,,,,
,,,,,6709224f70eacdb20761ae3c,2025-07-07_22h37.23.174,group3.4_multiperson,2023.2.2,Win32,60.24096386,686c2ebf0248f13bef9af11f,686c91bb8e9dbeb5c8f68542,,,,,,,,,,,,,,,,,,,,,,,,,,,,,632.4661,1,audio/Narrative8Situation5.wav,634.4788,,634.4789,642.7279,"[[90.3,1083],[90.5,1166],[91.5,1250],[91.5,1332],[91.5,1416],[91.5,1499],[91.5,1582],[91.5,1666],[91.5,1749],[91.5,1832],[91.5,1916],[91.5,1999],[91.5,2082],[91.5,2166],[91.5,2249],[91.5,2332],[91.5,2416],[91.5,2499],[91.5,2582],[91.5,2666],[91.5,2749],[91.5,2832],[91.5,2915],[91.5,2999],[91.5,3082],[91.5,3165],[91.5,3249],[91.5,3332],[91.5,3415],[91.5,3499],[91.5,3582],[91.5,3665],[91.5,3749],[91.5,3832],[91.5,3915],[91.5,3999],[91.5,4082],[91.5,4165],[91.5,4249],[91.5,4332],[91.5,4415],[91.5,4499],[91.5,4582],[91.5,4665],[91.5,4749],[91.5,4832],[91.5,4915],[91.5,4999],[91.5,5082],[91.5,5165],[91.5,5249],[91.5,5332],[91.5,5415],[91.5,5499],[91.5,5582],[91.5,5665],[91.5,5749],[91.5,5832],[91.5,5915],[91.5,5998],[91.5,6082],[91.5,6165],[91.5,6248],[91.5,6332],[91.5,6415],[91.5,6498],[91.5,6582],[91.5,6665],[91.5,6748],[91.5,6832],[91.5,6915],[91.5,6998],[91.5,7082],[91.5,7165],[91.5,7248],[91.5,7332],[91.5,7415],[91.5,7498],[91.5,7581],[91.5,7665],[91.5,7748],[91.5,7832],[91.5,7915],[91.5,7999],[91.5,8082],[91.5,8165],[91.5,8248]]",642.7281,656.7259,88.22916667,12.7941,"[{""rating"":88.22916666666667,""responseTime"":12.794100000023832}]",space,13.4511,,656.726,Not at all,0,664.4081,0.3125,6.6124,"[{""rating"":0.3124999999999989,""responseTime"":6.612399999976105}]",space,0,5,5,5,1,audio/Narrative7Situation5.wav,audio/Narrative8Situation5.wav,audio/Narrative5Situation5.wav,audio/Narrative6Situation5.wav,5,2,5,2,,,7.1336,,,,,,,,,,,,,,,,,,,,,,,,,,,,,,,,,,,,
,,,,,6709224f70eacdb20761ae3c,2025-07-07_22h37.23.174,group3.4_multiperson,2023.2.2,Win32,60.24096386,686c2ebf0248f13bef9af11f,686c91bb8e9dbeb5c8f68542,,,,,,,,,,,,,,,,,,,,,,,,,,,,,664.4087,1,audio/Narrative8Situation6.wav,666.4245,,666.4247,672.9071,"[[999,0],[999,82],[999,166],[999,249],[999,332],[999,416],[999,499],[999,583],[999,666],[999,749],[999,832],[999,917],[999,999],[999,1082],[999,1166],[999,1249],[999,1332],[999,1416],[999,1499],[999,1582],[999,1666],[999,1749],[999,1832],[999,1915],[999,1999],[999,2082],[999,2166],[999,2249],[999,2332],[999,2416],[999,2499],[999,2582],[999,2665],[999,2749],[999,2832],[999,2916],[999,2999],[999,3082],[999,3165],[999,3248],[999,3332],[999,3415],[999,3498],[999,3582],[999,3665],[999,3749],[999,3832],[999,3916],[999,3999],[999,4082],[999,4166],[999,4248],[999,4332],[999,4415],[999,4499],[999,4582],[999,4665],[999,4749],[999,4832],[999,4915],[999,4999],[999,5082],[999,5165],[999,5249],[999,5332],[999,5415],[999,5498],[999,5582],[999,5665],[999,5748],[999,5832],[999,5917],[999,5998],[999,6082],[999,6165],[999,6249],[51.7,6332],[51.6,6415]]",672.9074,677.2734,68.95833333,3.0915,"[{""rating"":68.95833333333333,""responseTime"":3.0914999999999964}]",space,3.8177,,677.2735,Definitely yes,100,677.2788,,,[],,0,6,6,6,1,audio/Narrative7Situation6.wav,audio/Narrative8Situation6.wav,audio/Narrative5Situation6.wav,audio/Narrative6Situation6.wav,3,2,3,2,,,,,,,,,,,,,,,,,,,,,,,,,,,,,,,,,,,,,,,
,,,,,6709224f70eacdb20761ae3c,2025-07-07_22h37.23.174,group3.4_multiperson,2023.2.2,Win32,60.24096386,686c2ebf0248f13bef9af11f,686c91bb8e9dbeb5c8f68542,,,,,,,,,,,,,,,,,,,,,,,,,,,,,677.2791,1,audio/Narrative8Situation7.wav,680.2897,,680.2898,692.3881,"[[69.5,1000],[64.5,1499],[65.7,1583],[66.3,1665],[66.9,1749],[66.9,1832],[66.9,1916],[66.9,1999],[66.9,2082],[66.9,2165],[66.9,2249],[66.9,2332],[66.9,2415],[66.9,2499],[66.8,2582],[65.4,2665],[62.7,2749],[60.4,2832],[59.7,2916],[59.4,2999],[58.4,3082],[58.1,3165],[58.1,3249],[58.1,3332],[58.1,3415],[57.5,3499],[57.5,3582],[57.5,3665],[57.5,3749],[57.5,3832],[58.2,3916],[68.9,3998],[77.7,4083],[77.9,4165],[78.2,4249],[81.1,4332],[84.7,4415],[87.1,4499],[88.5,4582],[88.9,4665],[89.1,4748],[89.1,4832],[89.2,4916],[89.2,4998],[89.2,5082],[89.2,5165],[89.2,5249],[89.2,5332],[89.2,5415],[89.3,5498],[89.3,5582],[89.3,5665],[89.3,5748],[89.3,5831],[89.3,5915],[89.3,5998],[89.3,6081],[89.3,6165],[89.3,6248],[89.3,6331],[89.3,6415],[89.3,6499],[89.2,6581],[89.1,6665],[89.1,6748],[89.1,6831],[89.1,6915],[89.1,6998],[89.1,7081],[89.1,7165],[89.1,7248],[89.1,7331],[89.1,7415],[89.1,7498],[89.1,7581],[89.1,7665],[89.1,7748],[89.1,7831],[89.1,7915],[89.1,7998],[89.1,8081],[89.3,8165],[89.3,8248],[89.3,8331],[89.3,8415],[89.3,8498],[89.3,8581],[89.3,8665],[89.3,8748],[89.3,8831],[89.3,8915],[89.3,8998],[89.3,9081],[89.3,9164],[89.4,9248],[89.4,9331],[89.4,9414],[89.4,9498],[89.4,9581],[89.4,9664],[89.4,9748],[89.4,9831],[89.4,9915],[89.4,9998],[89.4,10081],[89.4,10165],[89.4,10248],[89.4,10331],[89.4,10414],[89.4,10498],[89.4,10581],[89.4,10664],[89.4,10748],[89.4,10831],[89.4,10914],[89.4,10998],[89.4,11081],[89.4,11164],[89.4,11248],[89.4,11331],[89.4,11414],[89.4,11498],[89.4,11581],[89.4,11664],[89.4,11748],[89.4,11831],[89.4,11914],[89.4,11997],[89.4,12081]]",692.3883,693.4211,91.04166667,0.7069,"[{""rating"":91.04166666666667,""responseTime"":0.7068999999761445}]",space,0.4884,,693.4213,Definitely yes,100,693.424,,,[],,0,7,7,7,1,audio/Narrative7Situation7.wav,audio/Narrative8Situation7.wav,audio/Narrative5Situation7.wav,audio/Narrative6Situation7.wav,5,3,4,5,,,,,,,,,,,,,,,,,,,,,,,,,,,,,,,,,,,,,,,
,,,,,6709224f70eacdb20761ae3c,2025-07-07_22h37.23.174,group3.4_multiperson,2023.2.2,Win32,60.24096386,686c2ebf0248f13bef9af11f,686c91bb8e9dbeb5c8f68542,,,,,,,,,,,,,,,,,,,,,,,,,,,,,693.4244,1,audio/Narrative8Situation8.wav,696.4377,,696.4378,709.3026,"[[91.3,249],[91.3,332],[91.3,416],[91.3,499],[91.3,582],[91.3,666],[91.3,749],[91.3,832],[91.3,915],[91.3,999],[91.3,1082],[91.3,1166],[91.3,1249],[91.3,1332],[91.3,1415],[91.3,1499],[91.3,1582],[91.3,1665],[91.3,1749],[91.3,1832],[91.3,1915],[91.3,1999],[91.3,2082],[91.3,2165],[91.3,2249],[91.3,2332],[91.3,2415],[91.3,2499],[91.3,2582],[91.3,2665],[91.3,2749],[91.3,2832],[91.3,2915],[91.3,2999],[91.3,3082],[91.3,3165],[91.3,3249],[91.3,3332],[91.3,3415],[91.3,3499],[91.3,3582],[91.3,3665],[91.3,3749],[91.3,3832],[91.3,3915],[91.3,3999],[91.3,4082],[91.3,4165],[91.3,4249],[91.3,4332],[91.3,4415],[91.3,4498],[91.3,4582],[91.3,4665],[91.3,4749],[91.3,4832],[91.3,4915],[91.3,4998],[91.3,5082],[91.3,5165],[91.3,5249],[91.3,5332],[91.3,5415],[91.3,5498],[91.3,5581],[91.3,5665],[91.3,5748],[91.3,5831],[91.3,5916],[91.3,5998],[91.3,6082],[91.3,6165],[91.3,6248],[91.3,6332],[91.3,6415],[91.3,6498],[91.3,6582],[91.3,6665],[91.3,6748],[91.3,6831],[91.3,6915],[91.3,6998],[91.3,7081],[91.3,7165],[91.3,7248],[91.3,7332],[91.3,7415],[91.3,7498],[91.3,7581],[91.3,7665],[91.3,7748],[91.3,7831],[91.3,7914],[91.3,7998],[91.3,8082],[91.3,8165],[91.3,8248],[91.3,8331],[91.3,8415],[91.3,8498],[91.3,8581],[91.3,8665],[91.3,8748],[91.3,8831],[91,8916],[89.6,8999],[87.9,9081],[86.3,9164],[84.9,9248],[81.5,9331],[80.2,9414],[78.8,9498],[76,9581],[75.5,9664],[75.4,9748],[75.4,9831],[75.4,9914],[75.4,9998],[75.4,10081],[75.4,10164],[75.4,10248],[75.4,10331],[75.4,10414],[75.4,10498],[75.4,10581],[75.4,10664],[75.4,10747],[75.4,10831],[75.4,10914],[75.4,10998],[75.4,11081],[75.4,11164],[75.4,11248],[75.4,11331],[75.4,11414],[75.4,11498],[75.4,11581],[75.4,11664],[75.4,11747],[75.4,11831],[75.4,11914],[75.4,11997],[75.4,12081],[75.4,12164],[75.4,12247],[75.4,12331],[75.4,12414],[75.4,12497],[75.4,12581],[75.4,12664],[75.4,12747],[75.4,12831]]",709.3027,711.3688,76.45833333,1.7314,"[{""rating"":76.45833333333334,""responseTime"":1.7313999999761336}]",space,1.5165,,711.3688,Not at all,0,711.3732,,,[],,0,8,8,8,1,audio/Narrative7Situation8.wav,audio/Narrative8Situation8.wav,audio/Narrative5Situation8.wav,audio/Narrative6Situation8.wav,2,3,3,5,,,,,,,,,,,,,,,,,,,,,,,,,,,,,,,,,,,,,,,
,,,,,6709224f70eacdb20761ae3c,2025-07-07_22h37.23.174,group3.4_multiperson,2023.2.2,Win32,60.24096386,686c2ebf0248f13bef9af11f,686c91bb8e9dbeb5c8f68542,,,,,,,,,,,,,,,,,,,,,,,,,,,,,711.3735,1,audio/Narrative8Situation9.wav,714.3849,,714.385,725.7171,"[[76.7,1166],[76.8,1249],[76.8,1333],[76.8,1416],[76.8,1499],[76.8,1583],[76.8,1666],[76.8,1749],[76.8,1833],[76.8,1916],[76.8,1999],[76.8,2082],[76.8,2166],[76.8,2249],[76.8,2333],[76.8,2416],[76.8,2499],[76.8,2582],[76.8,2666],[76.8,2749],[76.8,2832],[76.8,2916],[76.8,2999],[76.8,3082],[76.8,3166],[76.8,3249],[76.8,3332],[76.8,3416],[76.8,3499],[76.8,3582],[76.8,3666],[76.8,3749],[76.8,3832],[76.8,3916],[76.8,3999],[76.8,4082],[76.8,4166],[76.8,4249],[76.8,4332],[76.8,4416],[76.8,4499],[76.8,4582],[76.8,4666],[76.8,4749],[76.8,4832],[76.8,4915],[76.8,4999],[76.8,5082],[76.8,5166],[76.8,5249],[76.8,5332],[76.8,5416],[76.8,5499],[76.8,5582],[76.8,5665],[76.8,5749],[76.8,5832],[76.8,5916],[76.8,5999],[76.8,6082],[76.8,6165],[76.8,6248],[76.8,6332],[76.8,6416],[76.8,6499],[76.8,6582],[76.8,6665],[76.8,6749],[76.8,6832],[76.8,6915],[76.8,6999],[76.8,7082],[76.8,7165],[76.8,7249],[76.8,7332],[76.8,7415],[76.8,7499],[76.8,7581],[76.8,7665],[76.8,7749],[76.8,7832],[76.8,7915],[76.8,7999],[76.8,8082],[76.8,8165],[76.8,8249],[76.8,8332],[76.8,8415],[76.8,8499],[76.8,8582],[76.8,8665],[76.8,8749],[76.8,8832],[76.8,8915],[76.8,8998],[76.8,9082],[76.8,9165],[76.8,9248],[76.8,9332],[77,9425],[79.4,9498],[83.8,9581],[89,9665],[92.7,9749],[96.6,9831],[97,9915],[97.1,9999],[97.1,10082],[97.1,10165],[97.1,10249],[97.1,10331],[97.1,10415],[97.1,10498],[97.1,10581],[97.1,10665],[97.1,10748],[97.1,10831],[97.1,10915],[97.1,10998],[97.1,11081],[97.1,11165],[97.1,11248],[97.1,11331]]",725.7174,728.2333,96.5625,2.0068,"[{""rating"":96.5625,""responseTime"":2.006800000071621}]",space,1.9714,,728.2334,Not at all,0,728.2362,,,[],,0,9,9,9,1,audio/Narrative7Situation9.wav,audio/Narrative8Situation9.wav,audio/Narrative5Situation9.wav,audio/Narrative6Situation9.wav,2,3,3,4,,,,,,,,,,,,,,,,,,,,,,,,,,,,,,,,,,,,,,,
,,,,,6709224f70eacdb20761ae3c,2025-07-07_22h37.23.174,group3.4_multiperson,2023.2.2,Win32,60.24096386,686c2ebf0248f13bef9af11f,686c91bb8e9dbeb5c8f68542,,,,,,,,,,,,,,,,,,,,,,,,,,,,,728.2366,1,audio/Narrative7Situation1.wav,730.2498,,730.2498,786.1428,"[[95.5,750],[93.4,832],[89.4,917],[88.9,999],[88.9,1082],[88.9,1166],[88.6,1250],[86.3,1333],[85.5,1416],[85.4,1499],[85.4,1582],[85.4,1666],[85.4,1749],[85.4,1832],[85.4,1916],[85.4,1999],[85.4,2082],[85.4,2166],[85.4,2249],[85.4,2332],[85.4,2416],[85.4,2499],[85.4,2582],[85.4,2666],[85.4,2749],[85.4,2832],[85.4,2916],[85.4,2999],[85.4,3082],[85.4,3166],[85.4,3249],[85.4,3332],[85.4,3416],[85.4,3499],[85.2,3588],[85.1,3666],[84.5,3749],[83.9,3832],[82.5,3916],[80.5,3999],[79.2,4083],[79.2,4165],[79.2,4249],[79.2,4332],[79.2,4415],[79.2,4499],[79.2,4582],[79.2,4665],[79.7,4750],[81.6,4832],[82,4916],[83,4999],[84.9,5082],[86.6,5166],[89.2,5249],[90.4,5332],[90.9,5416],[92.7,5499],[93.2,5582],[93.4,5665],[93.5,5749],[93.5,5832],[93.5,5915],[93.5,5998],[93.8,6082],[95.2,6166],[95.5,6249],[96.6,6332],[96.7,6415],[96.7,6498],[96.7,6582],[96.7,6665],[96.7,6749],[96.7,6832],[96.7,6915],[96.7,6999],[96.7,7082],[96.7,7165],[96.6,7249],[96.6,7332],[96.6,7415],[96.6,7498],[96.7,7581],[96.8,7665],[96.8,7748],[96.8,7831],[96.8,7915],[96.8,7998],[96.8,8081],[96.8,8165],[96.8,8248],[96.8,8332],[96.8,8415],[96.8,8498],[96.8,8581],[96.8,8665],[96.8,8748],[96.8,8831],[96.8,8915],[96.8,8998],[96.8,9081],[96.8,9165],[96.8,9248],[96.8,9331],[96.8,9415],[96.8,9498],[96.8,9581],[96.8,9665],[96.8,9748],[96.8,9831],[96.8,9915],[96.8,9998],[96.8,10081],[96.8,10165],[96.8,10248],[96.8,10331],[96.8,10414],[96.8,10498],[96.8,10581],[96.8,10664],[96.8,10748],[96.8,10831],[96.8,10914],[96.8,10998],[96.8,11081],[96.8,11165],[96.8,11248],[96.8,11331],[96.8,11414],[96.8,11498],[96.8,11581],[96.8,11664],[96.8,11748],[96.8,11831],[96.8,11914],[96.8,11998],[96.8,12081],[96.8,12164],[96.8,12248],[96.8,12331],[96.8,12414],[96.8,12498],[96.8,12581],[96.8,12664],[96.8,12748],[96.8,12831],[96.8,12914],[96.8,12998],[96.8,13081],[96.8,13164],[96.8,13247],[96.8,13331],[96.8,13414],[96.8,13498],[96.8,13581],[96.8,13664],[96.8,13747],[96.8,13831],[96.8,13914],[96.8,13998],[96.8,14081],[96.8,14164],[96.8,14247],[96.8,14331],[96.8,14414],[96.8,14497],[96.8,14581],[96.8,14664],[96.8,14747],[96.8,14831],[96.8,14914],[96.8,14997],[96.8,15081],[96.8,15164],[96.8,15247],[96.8,15331],[96.8,15414],[96.8,15497],[96.8,15581],[96.8,15664],[96.8,15747],[96.8,15831],[96.8,15914],[96.8,15997],[96.8,16081],[96.8,16164],[96.8,16247],[96.8,16331],[96.8,16414],[96.8,16497],[96.8,16580],[96.8,16664],[96.8,16747],[96.8,16831],[96.8,16914],[96.8,16997],[96.8,17081],[96.8,17164],[96.8,17247],[96.8,17330],[96.8,17414],[96.8,17497],[96.8,17581],[96.8,17664],[96.8,17747],[96.8,17830],[96.8,17914],[96.8,17997],[96.7,18080],[96.5,18164],[96.5,18247],[96.5,18330],[96.5,18414],[96.4,18497],[96.4,18580],[96.4,18663],[96.4,18747],[96.4,18830],[96.4,18913],[96.4,18997],[96.4,19080],[96.4,19163],[97.9,19247],[98.1,19330],[98.1,19413],[98.1,19497],[98.1,19580],[98.1,19663],[98.1,19747],[98.1,19830],[98.1,19913],[98.1,19997],[98.1,20080],[98.1,20163],[98.1,20247],[98.1,20330],[98.1,20413],[98.1,20497],[98.1,20580],[98.1,20663],[98.1,20747],[98.1,20830],[98.1,20913],[98.1,20997],[98.1,21080],[98.1,21163],[98.1,21247],[98.1,21330],[98.1,21413],[98.1,21496],[98.1,21580],[98.1,21663],[98.1,21746],[98.1,21830],[98.1,21913],[98.1,21996],[98.1,22080],[98.1,22163],[98.1,22246],[98.1,22330],[98.1,22413],[98.1,22496],[98.1,22580],[98.1,22663],[98.1,22746],[98.1,22829],[98.1,22913],[98.1,22996],[98.1,23080],[98.1,23163],[98.1,23246],[98.1,23330],[98.1,23413],[98.1,23496],[98.1,23580],[98.1,23663],[98.1,23746],[98.1,23830],[98.1,23913],[98.1,23996],[98.1,24080],[98.1,24163],[98.1,24246],[98.1,24330],[98.1,24413],[98.1,24496],[98.1,24580],[98.1,24663],[98.1,24746],[98.1,24830],[98.1,24913],[98.1,24996],[98.1,25080],[98.1,25163],[98.1,25246],[98.1,25329],[98.1,25413],[98.1,25496],[98.1,25579],[98.1,25663],[98.1,25746],[98.1,25829],[98.1,25913],[98.1,25996],[98.1,26079],[98.1,26163],[98.1,26246],[98.1,26329],[98.1,26412],[98.1,26496],[98.1,26579],[98.1,26663],[98.1,26746],[98.1,26829],[98.1,26912],[98.1,26996],[98.1,27079],[98.1,27162],[98.1,27246],[98.1,27329],[98.1,27413],[98.1,27496],[98.1,27579],[98.1,27662],[98.1,27746],[98.1,27829],[98.1,27912],[98.1,27996],[98.1,28079],[98.1,28162],[98.1,28246],[98.1,28329],[98.1,28412],[98.1,28496],[98.1,28579],[98.1,28662],[98.1,28746],[98.1,28829],[98.1,28912],[98.1,28996],[98.1,29079],[98.1,29162],[98.1,29246],[98.1,29329],[98.1,29412],[98.1,29495],[98.1,29579],[98.1,29662],[98.1,29745],[98.1,29829],[98.1,29912],[98.1,29995],[98.1,30079],[98.1,30162],[98.1,30245],[98.1,30329],[98.1,30412],[98.1,30495],[98.1,30579],[98.1,30662],[98.1,30745],[98.1,30829],[98.1,30912],[98.1,30995],[98.1,31078],[98.1,31162],[98.1,31245],[98.1,31329],[98.1,31412],[98.1,31495],[98.1,31578],[98.1,31662],[98.1,31745],[98.1,31828],[98.1,31912],[98.1,31995],[98.1,32078],[98.1,32162],[98.1,32245],[98.1,32329],[98.1,32412],[98.1,32495],[98.1,32578],[98.1,32662],[98.1,32745],[98.1,32828],[98.1,32912],[98.1,32995],[98.1,33078],[98.1,33162],[98.1,33245],[98.1,33328],[98.1,33412],[98.1,33495],[98.1,33578],[98.1,33661],[98.1,33745],[98.1,33828],[98.1,33912],[98.1,33995],[98.1,34078],[98.1,34162],[98.1,34245],[98.1,34328],[98.1,34411],[98.1,34495],[98.1,34578],[98.1,34661],[98.1,34745],[98.1,34828],[98.1,34911],[98.1,34995],[98.1,35078],[98.1,35162],[98.1,35245],[98.1,35328],[98.1,35411],[98.1,35495],[98.1,35578],[98.1,35661],[98.1,35745],[98.1,35828],[98.1,35911],[98.1,35995],[98.1,36078],[98.1,36161],[98.1,36244],[98.1,36328],[98.1,36411],[98.1,36494],[98.1,36578],[98.1,36661],[98.1,36745],[98.1,36828],[98.1,36911],[98.1,36995],[98.1,37078],[98.1,37161],[98.1,37245],[98.1,37328],[98.1,37411],[98.1,37495],[98.1,37578],[98.1,37661],[98.1,37744],[98.1,37828],[98.1,37911],[98.1,37994],[98.1,38078],[98.1,38161],[98.1,38244],[98.1,38328],[98.1,38411],[98.1,38494],[98.1,38578],[98.1,38661],[98.1,38745],[98.1,38828],[98.1,38911],[98.1,38994],[98.1,39078],[98.1,39161],[98.1,39246],[98.1,39328],[98.1,39411],[98.1,39494],[98.1,39577],[98.1,39661],[98.1,39744],[98.1,39828],[98.1,39911],[98.1,39994],[98.1,40078],[98.1,40161],[98.1,40244],[98.1,40328],[98.1,40411],[98.1,40494],[98.1,40577],[98.1,40661],[98.1,40744],[98.1,40827],[98.1,40911],[98.1,40994],[98.1,41077],[98.1,41161],[98.1,41244],[98.1,41327],[98.1,41411],[98.1,41494],[98.1,41577],[98.1,41661],[98.1,41744],[98.1,41827],[98.1,41911],[98.1,41994],[98.1,42077],[98.1,42161],[98.1,42244],[98.1,42327],[98.1,42411],[98.1,42494],[98.1,42578],[98.1,42660],[98.1,42744],[98.1,42827],[98.1,42911],[98.1,42994],[98.1,43077],[98.1,43161],[98.1,43244],[98.1,43327],[98.1,43410],[98.1,43494],[98.1,43577],[98.1,43660],[98.1,43744],[98.1,43827],[98.1,43911],[98.1,43994],[98.1,44077],[98.1,44160],[98.1,44244],[98.1,44327],[98.1,44410],[98.1,44494],[98.1,44577],[98.1,44660],[98.1,44743],[98.1,44827],[98.1,44910],[98.1,44994],[98.1,45077],[98.1,45160],[98.1,45243],[98.1,45327],[98.1,45410],[98.1,45493],[98.1,45577],[98.1,45660],[98.1,45743],[98.1,45827],[98.1,45910],[98.1,45993],[98.1,46077],[98.1,46160],[98.1,46243],[98.1,46327],[98.1,46410],[98.1,46493],[98.1,46577],[98.1,46660],[98.1,46743],[98.1,46827],[98.1,46910],[98.1,46993],[98.1,47077],[98.1,47160],[98.1,47243],[98.1,47327],[98.1,47410],[98.1,47493],[98.1,47577],[98.1,47660],[98.1,47743],[98.1,47827],[98.1,47910],[98.1,47993],[98.1,48077],[98.1,48160],[98.1,48243],[98.1,48327],[98.1,48410],[98.1,48493],[98.1,48576],[98.1,48659],[98.1,48743],[98.1,48826],[98.1,48909],[98.1,48993],[98.1,49076],[98.1,49159],[98.1,49243],[98.1,49326],[98.1,49410],[98.1,49493],[98.1,49576],[98.1,49659],[98.1,49743],[98.1,49826],[98.1,49909],[98.1,49993],[98.1,50076],[98,50164],[97.7,50243],[97.4,50326],[97.1,50409],[95.6,50493],[95.3,50576],[95,50660],[94.6,50743],[94,50827],[92,50909],[91.4,50993],[90.9,51077],[90.1,51159],[87.8,51243],[86,51326],[85.1,51410],[79.9,51493],[72.3,51577],[64.8,51659],[55.7,51743],[46,51826],[40.1,51910],[39,51993],[35.1,52077],[29.1,52159],[22.6,52243],[19.4,52326],[18,52409],[16.1,52493],[14.3,52576],[13.9,52659],[13.2,52743],[12.4,52826],[12.3,52909],[12.3,52992],[12.3,53076],[12.2,53159],[12.2,53242],[12.1,53326],[12,53409],[12,53493],[12,53576],[12,53659],[12,53742],[12,53826],[12,53909],[11.9,53992],[11.9,54076],[11.9,54159],[11.9,54242],[11.9,54326],[11.9,54409],[11.9,54492],[11.9,54576],[11.9,54659],[11.9,54742],[11.9,54826],[11.9,54909],[11.9,54992],[11.9,55076],[11.9,55159],[11.9,55242],[11.9,55326],[11.9,55409],[11.9,55492],[11.9,55575],[11.9,55659],[11.9,55742],[11.9,55825]]",786.1433,791.4085,85.625,4.5807,"[{""rating"":85.625,""responseTime"":4.58069999992847}]",space,4.7227,,791.4086,Not at all,0,791.411,,,[],,0,10,10,10,1,audio/Narrative8Situation1.wav,audio/Narrative7Situation1.wav,audio/Narrative6Situation1.wav,audio/Narrative5Situation1.wav,5,2,2,5,,,,,,,,,,,,,,,,,,,,,,,,,,,,,,,,,,,,,,,
,,,,,6709224f70eacdb20761ae3c,2025-07-07_22h37.23.174,group3.4_multiperson,2023.2.2,Win32,60.24096386,686c2ebf0248f13bef9af11f,686c91bb8e9dbeb5c8f68542,,,,,,,,,,,,,,,,,,,,,,,,,,,,,791.4119,1,audio/Narrative7Situation2.wav,794.4257,,794.4257,801.9068,"[[999,13],[999,82],[999,165],[999,248],[999,332],[999,415],[999,498],[999,582],[999,665],[999,748],[999,832],[999,916],[999,999],[59.5,1082],[59.6,1165],[59.6,1248],[59.6,1332],[59.6,1415],[59.6,1498],[59.6,1582],[59.6,1665],[59.6,1748],[59.6,1831],[59.6,1915],[59.6,1998],[59.6,2081],[59.6,2165],[59.6,2248],[59.6,2331],[59.6,2415],[59.6,2498],[59.6,2581],[59.6,2665],[59.6,2748],[59.6,2831],[59.6,2915],[59.6,2998],[59.5,3082],[59.5,3165],[59.5,3248],[59.5,3331],[59.5,3415],[64.7,3498],[71,3582],[74.1,3665],[74.4,3748],[74.6,3831],[74.8,3915],[74.8,3998],[74.8,4081],[74.8,4165],[74.8,4248],[74.8,4331],[74.8,4415],[74.8,4498],[74.8,4581],[74.8,4665],[74.8,4748],[74.8,4831],[74.8,4914],[74.8,4998],[74.8,5081],[74.8,5164],[74.8,5248],[74.8,5331],[74.8,5415],[74.8,5498],[74.8,5581],[73.6,5665],[73.6,5748],[73.6,5831],[73.6,5914],[73.6,5998],[73.6,6081],[73.6,6164],[73.6,6247],[73.6,6331],[73.6,6414],[73.6,6498],[73.5,6581],[73.3,6664],[73.2,6747],[73.2,6831],[73.2,6914],[73.2,6997],[73.2,7081],[73.2,7164],[73.2,7248],[73.2,7331],[73.2,7414]]",801.9069,804.7233,83.02083333,1.0574,"[{""rating"":83.02083333333333,""responseTime"":1.0573999999761554}]",space,2.2671,,804.7234,Not at all,0,804.7261,,,[],,0,11,11,11,1,audio/Narrative8Situation2.wav,audio/Narrative7Situation2.wav,audio/Narrative6Situation2.wav,audio/Narrative5Situation2.wav,3,3,3,3,,,,,,,,,,,,,,,,,,,,,,,,,,,,,,,,,,,,,,,
,,,,,6709224f70eacdb20761ae3c,2025-07-07_22h37.23.174,group3.4_multiperson,2023.2.2,Win32,60.24096386,686c2ebf0248f13bef9af11f,686c91bb8e9dbeb5c8f68542,,,,,,,,,,,,,,,,,,,,,,,,,,,,,804.7265,1,audio/Narrative7Situation3.wav,812.7388,,812.7388,821.9877,"[[999,0],[999,83],[999,166],[999,250],[999,333],[999,416],[999,500],[999,583],[999,666],[999,752],[23,834],[27.5,916],[59.8,1499],[63.2,1583],[65.2,1666],[66.1,1750],[66.7,1833],[68.5,1916],[71.8,2000],[75.5,2084],[79.9,2166],[79.9,2249],[79.9,2332],[79.9,2416],[79.9,2499],[79.9,2582],[79.9,2666],[79.9,2749],[79.9,2832],[79.9,2916],[79.9,2999],[79.9,3082],[79.9,3166],[79.9,3249],[79.9,3332],[79.9,3416],[79.9,3499],[79.9,3582],[79.9,3666],[79.9,3749],[79.9,3833],[79.9,3916],[79.9,3999],[79.9,4082],[79.9,4166],[79.9,4249],[79.9,4332],[79.9,4416],[79.9,4499],[79.9,4582],[79.9,4666],[80,4749],[80,4832],[80,4916],[80,4999],[80,5082],[80,5165],[80,5249],[80,5332],[80,5416],[80,5499],[79.9,5583],[76.9,5666],[68.1,5750],[64.2,5832],[64.2,5915],[63.6,5999],[62.6,6082],[62.6,6165],[62.2,6250],[62,6332],[61.1,6416],[61.1,6499],[61.4,6582],[67.8,6665],[75.6,6749],[77.7,6832],[81.3,6916],[85,7000],[87.4,7083],[91.1,7166],[92.2,7249],[94,7332],[95.5,7415],[95.7,7499],[96.7,7582],[97.2,7665],[97.2,7749],[97.2,7832],[97.2,7915],[97.2,7999],[97.2,8082],[97,8165],[97,8249],[97,8332],[97,8415],[97,8499],[97,8582],[97,8665],[97,8749],[97,8832],[97,8915],[97,8999],[97,9082],[97,9165],[97,9248]]",821.9878,823.7377,86.66666667,1.4245,"[{""rating"":86.66666666666667,""responseTime"":1.42450000000008}]",space,1.217,,823.7377,Partially,50,823.741,,,[],,0,12,12,12,1,audio/Narrative8Situation3.wav,audio/Narrative7Situation3.wav,audio/Narrative6Situation3.wav,audio/Narrative5Situation3.wav,4,8,5,3,,,,,,,,,,,,,,,,,,,,,,,,,,,,,,,,,,,,,,,
,,,,,6709224f70eacdb20761ae3c,2025-07-07_22h37.23.174,group3.4_multiperson,2023.2.2,Win32,60.24096386,686c2ebf0248f13bef9af11f,686c91bb8e9dbeb5c8f68542,,,,,,,,,,,,,,,,,,,,,,,,,,,,,823.7413,1,audio/Narrative7Situation4.wav,826.7539,,826.7539,838.4858,"[[84.5,2166],[83.1,2249],[82.2,2333],[81.8,2416],[80.1,2499],[78.8,2583],[77.2,2666],[74.6,2749],[70.1,2832],[65.4,2916],[60,2999],[53.8,3083],[44.2,3167],[37.5,3249],[32.6,3332],[31,3415],[31.7,3499],[44.7,3583],[64.7,3666],[75.3,3749],[84.5,3832],[87.1,3916],[91.6,4000],[93.3,4083],[93.3,4166],[93.3,4249],[93.3,4332],[93.3,4415],[93.3,4499],[93.3,4582],[93.3,4666],[93.3,4749],[93.3,4832],[93.3,4915],[93.3,4999],[93.3,5082],[93.3,5166],[93.3,5249],[93.3,5332],[93.3,5415],[93.3,5499],[93.3,5582],[93.3,5665],[93.3,5749],[93.3,5832],[93.3,5915],[93.3,5999],[93.3,6082],[93.3,6165],[93.2,6249],[92,6332],[90.2,6415],[89.2,6499],[87.7,6583],[86.9,6665],[85.2,6748],[84.6,6832],[83.9,6915],[82.9,6999],[81,7082],[78,7165],[73.4,7248],[69.8,7333],[60.7,7415],[45.8,7499],[28.2,7582],[19.7,7666],[17,7748],[12.2,7831],[8.5,7915],[8.2,7998],[8,8082],[8,8165],[8,8248],[8,8332],[8,8415],[8,8499],[8,8582],[8.3,8665],[10.9,8749],[11.8,8832],[11.9,8915],[11.9,8998],[11.9,9081],[11.9,9165],[11.9,9248],[11.8,9332],[11,9415],[9.3,9498],[8.2,9582],[8,9665],[6.9,9748],[6.1,9832],[6.1,9915],[6.1,9998],[6,10082],[6,10165],[6,10248],[6,10331],[6,10415],[6,10498],[6,10581],[6,10665],[6,10748],[6,10831],[6,10915],[6,10998],[6,11081],[6,11165],[6,11248],[6,11331],[6,11415],[6,11498],[6,11581],[6,11665]]",838.486,848.4679,22.29166667,1.2244,"[{""rating"":22.291666666666664,""responseTime"":1.2243999999761854}]",space,9.4339,,848.468,Not at all,0,848.4857,,,[],,0,13,13,13,1,audio/Narrative8Situation4.wav,audio/Narrative7Situation4.wav,audio/Narrative6Situation4.wav,audio/Narrative5Situation4.wav,3,3,2,1,,,,,,,,,,,,,,,,,,,,,,,,,,,,,,,,,,,,,,,
,,,,,6709224f70eacdb20761ae3c,2025-07-07_22h37.23.174,group3.4_multiperson,2023.2.2,Win32,60.24096386,686c2ebf0248f13bef9af11f,686c91bb8e9dbeb5c8f68542,,,,,,,,,,,,,,,,,,,,,,,,,,,,,848.4861,1,audio/Narrative7Situation5.wav,853.5006,space,853.5007,861.9995,"[[50.2,833],[51.4,916],[51.5,999],[51.5,1082],[51.5,1166],[51.5,1249],[51.5,1332],[51.5,1416],[51.5,1499],[51.5,1582],[51.5,1666],[51.5,1749],[51.5,1832],[51.5,1916],[51.5,1999],[51.5,2082],[51.5,2166],[50.3,2249],[36,2333],[19.1,2417],[8.3,2499],[6.9,2582],[6.9,2666],[6.9,2749],[6.9,2832],[6.9,2916],[6.9,2999],[6.9,3082],[6.9,3165],[6.9,3249],[6.9,3332],[6.9,3416],[6.9,3499],[6.9,3582],[6.9,3665],[6.9,3749],[6.9,3832],[6.9,3915],[6.9,3999],[6.9,4082],[6.9,4165],[6.9,4249],[6.9,4332],[6.9,4415],[6.9,4499],[6.9,4582],[6.9,4665],[6.9,4749],[6.9,4832],[6.9,4915],[6.9,4998],[6.9,5082],[6.9,5165],[6.9,5249],[6.9,5332],[6.9,5415],[6.9,5498],[6.9,5582],[6.9,5665],[6.9,5749],[6.9,5832],[6.9,5915],[6.9,5998],[6.9,6082],[6.9,6165],[6.9,6248],[6.9,6332],[6.9,6415],[6.9,6498],[6.9,6582],[6.9,6665],[6.9,6748],[6.9,6832],[6.9,6915],[6.9,6999],[6.9,7082],[6.9,7165],[6.9,7248],[6.9,7332],[6.9,7415],[6.9,7498],[6.9,7581],[6.9,7665],[6.9,7748],[6.9,7831],[6.9,7915],[6.9,7998],[6.9,8081],[6.9,8165],[6.9,8248],[6.9,8331],[6.9,8415],[6.9,8498]]",861.9997,864.499,5.729166667,2.1352,"[{""rating"":5.729166666666669,""responseTime"":2.135200000047689}]",space,1.954,,864.4992,Partially,50,864.5028,,,[],,0,14,14,14,1,audio/Narrative8Situation5.wav,audio/Narrative7Situation5.wav,audio/Narrative6Situation5.wav,audio/Narrative5Situation5.wav,2,5,2,5,3.671,,,,,,,,,,,,,,,,,,,,,,,,,,,,,,,,,,,,,,
,,,,,6709224f70eacdb20761ae3c,2025-07-07_22h37.23.174,group3.4_multiperson,2023.2.2,Win32,60.24096386,686c2ebf0248f13bef9af11f,686c91bb8e9dbeb5c8f68542,,,,,,,,,,,,,,,,,,,,,,,,,,,,,864.503,1,audio/Narrative7Situation6.wav,867.5151,space,867.5152,877.4813,"[[5.7,1749],[5.7,1833],[5.8,1916],[6.4,2000],[7.3,2084],[7.7,2166],[7.7,2249],[7.7,2333],[7.7,2416],[7.7,2499],[7.7,2583],[7.7,2666],[7.5,2749],[6.8,2833],[6,2916],[5.8,2999],[5.8,3082],[5.8,3166],[5.8,3249],[5.8,3333],[5.7,3416],[5.5,3499],[5.2,3583],[4.8,3666],[4.8,3749],[4.8,3832],[4.7,3916],[4.7,3999],[4.7,4082],[4.7,4166],[4.7,4249],[4.7,4332],[4.7,4416],[4.7,4499],[4.7,4582],[4.7,4666],[4.7,4749],[4.7,4832],[4.7,4916],[4.7,4999],[4.7,5082],[4.7,5165],[4.7,5249],[4.8,5332],[4.8,5415],[4.8,5499],[4.8,5582],[4.8,5665],[4.8,5749],[4.8,5832],[4.8,5915],[4.8,5999],[4.8,6082],[4.8,6165],[4.8,6249],[4.8,6332],[4.8,6415],[4.8,6499],[4.8,6582],[4.8,6665],[4.8,6749],[4.8,6832],[4.8,6915],[4.8,6999],[4.8,7083],[4.8,7165],[4.8,7249],[4.8,7332],[4.8,7415],[4.8,7499],[4.8,7582],[4.8,7665],[4.8,7749],[4.8,7832],[4.8,7915],[4.8,7999],[4.8,8082],[4.8,8165],[4.8,8248],[4.8,8332],[4.8,8415],[4.8,8498],[4.8,8582],[4.8,8665],[4.8,8748],[4.8,8832],[4.8,8915],[4.8,8998],[4.8,9082],[4.8,9165],[4.8,9248],[4.8,9332],[4.8,9415],[4.8,9498],[4.8,9582],[4.8,9665],[4.8,9748],[4.8,9832],[4.8,9915]]",877.4816,880.2637,37.60416667,2.3578,"[{""rating"":37.604166666666664,""responseTime"":2.3577999999524764}]",space,2.2339,,880.2637,Partially,50,880.2662,,,[],,0,15,15,15,1,audio/Narrative8Situation6.wav,audio/Narrative7Situation6.wav,audio/Narrative6Situation6.wav,audio/Narrative5Situation6.wav,2,3,2,3,1.9666,,,,,,,,,,,,,,,,,,,,,,,,,,,,,,,,,,,,,,
,,,,,6709224f70eacdb20761ae3c,2025-07-07_22h37.23.174,group3.4_multiperson,2023.2.2,Win32,60.24096386,686c2ebf0248f13bef9af11f,686c91bb8e9dbeb5c8f68542,,,,,,,,,,,,,,,,,,,,,,,,,,,,,880.2666,1,audio/Narrative7Situation7.wav,885.2796,,885.2797,902.4442,"[[37.7,2916],[39.5,2999],[42.6,3083],[44.1,3166],[44.2,3249],[44.8,3332],[45.9,3416],[49.7,3499],[56.3,3582],[58.8,3666],[60.6,3749],[65.4,3832],[69.4,3915],[69.9,3999],[69.9,4082],[69.9,4166],[69.9,4249],[69.9,4332],[69.9,4416],[69.9,4499],[69.9,4582],[69.9,4665],[69.9,4749],[69.9,4832],[69.9,4915],[69.9,4999],[69.5,5083],[67.7,5165],[61.9,5249],[56.5,5332],[51.7,5415],[46.7,5499],[42.2,5582],[39.9,5666],[37.5,5750],[32.6,5832],[28,5915],[26.1,5998],[24.6,6082],[23.3,6165],[21,6249],[17.3,6332],[13.8,6416],[12.6,6499],[12,6582],[11.1,6665],[9.4,6748],[8.5,6832],[8.4,6915],[7.9,6999],[7.9,7082],[7.9,7165],[7.9,7248],[7.9,7332],[7.9,7415],[7.9,7498],[7.9,7582],[7.9,7665],[7.9,7749],[7.9,7832],[7.9,7915],[8.8,7999],[22.2,8082],[40.3,8166],[52.9,8249],[63.1,8332],[71.5,8415],[80.2,8498],[85.8,8583],[89.4,8665],[89.4,8748],[89.4,8832],[89.4,8915],[89.4,8998],[89.4,9082],[89.4,9165],[89.6,9249],[90.4,9332],[90.6,9415],[90.6,9498],[90.6,9582],[90.6,9665],[90.6,9749],[90.6,9832],[90.6,9915],[90.6,9998],[90.6,10082],[90.6,10165],[90.6,10248],[90.6,10331],[90.6,10415],[90.6,10498],[90.6,10581],[90.6,10665],[90.6,10749],[90.6,10832],[90.6,10915],[90.6,10998],[90.6,11081],[90.6,11164],[90.6,11248],[90.6,11331],[90.6,11415],[90.6,11498],[90.6,11581],[90.6,11665],[90.6,11748],[90.6,11831],[90.6,11915],[90.6,11998],[90.6,12081],[90.6,12164],[90.6,12248],[90.6,12331],[90.6,12414],[90.6,12498],[90.6,12581],[90.6,12665],[90.6,12748],[90.6,12831],[90.6,12914],[90.6,12998],[90.6,13081],[90.6,13164],[90.6,13249],[90.6,13331],[91.1,13414],[91.1,13498],[91.1,13581],[91.1,13664],[91.1,13748],[91.1,13831],[91.1,13915],[91.1,13998],[91.1,14081],[91.1,14164],[91.1,14248],[91.1,14331],[91.1,14414],[91.1,14498],[91.1,14581],[91.1,14664],[91.1,14748],[91.1,14831],[91.1,14914],[91.1,14998],[91.1,15081],[91.1,15164],[91.1,15248],[91.1,15331],[91.1,15414],[91.1,15498],[91.1,15581],[91.1,15664],[91.1,15747],[91.1,15831],[91.1,15914],[91.1,15997],[91.1,16081],[91.1,16164],[91.1,16247],[91.1,16331],[91.1,16414],[91.1,16497],[91.1,16581],[91.1,16664],[91.1,16747],[91.1,16831],[91.1,16914],[91.1,16997],[91.1,17080],[91.1,17164]]",902.4444,904.2939,89.6875,1.0745,"[{""rating"":89.6875,""responseTime"":1.074500000000171}]",space,1.3189,,904.294,Not at all,0,904.2987,,,[],,0,16,16,16,1,audio/Narrative8Situation7.wav,audio/Narrative7Situation7.wav,audio/Narrative6Situation7.wav,audio/Narrative5Situation7.wav,3,5,5,4,,,,,,,,,,,,,,,,,,,,,,,,,,,,,,,,,,,,,,,
,,,,,6709224f70eacdb20761ae3c,2025-07-07_22h37.23.174,group3.4_multiperson,2023.2.2,Win32,60.24096386,686c2ebf0248f13bef9af11f,686c91bb8e9dbeb5c8f68542,,,,,,,,,,,,,,,,,,,,,,,,,,,,,904.2991,1,audio/Narrative7Situation8.wav,906.3103,,906.3103,916.3425,"[[88.8,1250],[88.6,1332],[87.6,1416],[87.4,1499],[87.4,1583],[87.4,1666],[87.4,1749],[87.4,1833],[86.1,1916],[80.4,1999],[77,2083],[77,2166],[77.1,2249],[81.1,2332],[84,2418],[85.9,2500],[87.6,2583],[89.5,2666],[91.4,2749],[91.6,2832],[91.6,2916],[91.6,2999],[91.6,3082],[91.6,3166],[91.6,3249],[91.6,3332],[91.6,3416],[91.6,3499],[91.6,3582],[91.6,3666],[91.6,3749],[91.6,3832],[91.6,3916],[91.6,3999],[91.6,4082],[91.6,4165],[91.6,4249],[91.6,4332],[91.6,4416],[91.6,4499],[91.6,4582],[91.6,4665],[91.6,4749],[91.6,4832],[91.6,4915],[91.6,4999],[91.6,5082],[91.6,5165],[91.6,5249],[91.6,5332],[91.6,5415],[91.6,5499],[91.6,5582],[91.6,5665],[91.6,5749],[91.6,5832],[91.6,5915],[91.6,5999],[91.6,6082],[91.6,6165],[91.6,6249],[91.6,6332],[91.6,6415],[91.6,6499],[91.6,6582],[91.6,6665],[91.6,6748],[91.6,6832],[91.6,6915],[91.6,6999],[91.6,7082],[91.6,7165],[91.6,7249],[91.6,7332],[91.6,7415],[91.6,7499],[91.6,7582],[91.6,7665],[91.6,7748],[91.6,7832],[91.6,7915],[91.6,7999],[91.6,8082],[91.6,8165],[91.6,8248],[91.6,8332],[91.6,8415],[91.6,8498],[91.6,8582],[91.6,8665],[91.6,8748],[91.6,8832],[91.6,8915],[91.6,8998],[91.6,9082],[91.6,9165],[91.6,9248],[91.6,9332],[91.6,9415],[91.6,9498],[91.6,9582],[91.6,9665],[91.6,9748],[91.6,9831],[91.6,9915],[91.6,9998]]",916.3428,918.6921,71.77083333,1.883,"[{""rating"":71.77083333333334,""responseTime"":1.8830000000000382}]",space,1.8088,,918.6923,Partially,50,918.6985,,,[],,0,17,17,17,1,audio/Narrative8Situation8.wav,audio/Narrative7Situation8.wav,audio/Narrative6Situation8.wav,audio/Narrative5Situation8.wav,3,2,5,3,,,,,,,,,,,,,,,,,,,,,,,,,,,,,,,,,,,,,,,
,,,,,6709224f70eacdb20761ae3c,2025-07-07_22h37.23.174,group3.4_multiperson,2023.2.2,Win32,60.24096386,686c2ebf0248f13bef9af11f,686c91bb8e9dbeb5c8f68542,,,,,,,,,,,,,,,,,,,,,,,,,,,,,918.6994,1,audio/Narrative7Situation9.wav,920.7087,,920.7088,929.3408,"[[71.4,2832],[69.2,2915],[69.1,2999],[69.1,3082],[71,3166],[74.5,3249],[75.7,3334],[78,3416],[79.3,3499],[82.9,3582],[85.8,3665],[86.7,3749],[88.6,3832],[89.6,3916],[91.5,3999],[91.5,4082],[90.4,4165],[85.8,4250],[73,4332],[69.8,4415],[63.1,4499],[49.1,4582],[35.8,4665],[17.8,4749],[6.3,4833],[4.9,4915],[4.3,4999],[4.1,5082],[4.8,5166],[15.4,5249],[27.1,5332],[35.8,5415],[48.5,5499],[62.4,5582],[70.9,5665],[77.7,5750],[84.5,5833],[85.2,5916],[87.1,5998],[89.2,6082],[89.3,6165],[89.3,6248],[90.7,6332],[90.8,6415],[90.8,6498],[90.5,6582],[77.2,6665],[63.4,6748],[53.1,6832],[45.4,6916],[38.8,7000],[31.6,7081],[24.7,7165],[18.9,7248],[15.5,7331],[14.9,7415],[14.9,7499],[20.1,7582],[33.5,7665],[45.5,7748],[54.6,7833],[59.2,7915],[61.8,7998],[66.7,8081],[71.7,8165],[74.3,8248],[78,8332],[82.5,8415],[85.9,8498],[86.3,8581]]",929.3411,932.0902,81.45833333,2.0805,"[{""rating"":81.45833333333333,""responseTime"":2.080500000000029}]",space,2.1993,,932.0902,Definitely yes,100,932.0927,,,[],,0,18,18,18,1,audio/Narrative8Situation9.wav,audio/Narrative7Situation9.wav,audio/Narrative6Situation9.wav,audio/Narrative5Situation9.wav,3,2,4,3,,,,,,,,,,,,,,,,,,,,,,,,,,,,,,,,,,,,,,,
,,,,,6709224f70eacdb20761ae3c,2025-07-07_22h37.23.174,group3.4_multiperson,2023.2.2,Win32,60.24096386,686c2ebf0248f13bef9af11f,686c91bb8e9dbeb5c8f68542,,,,,,,,,,,,,,,,,,,,,,,,,,,936.557,939.1228,939.1502,2,audio/Narrative13Situation2.wav,939.1503,,939.1503,968.9024,"[[67,1572],[63.5,1655],[62.3,1739],[58.4,1822],[54,1905],[52.1,1988],[51.9,2072],[50.9,2155],[47.5,2238],[45.3,2323],[43.3,2405],[42.1,2488],[67.2,3072],[68.6,3155],[72.4,3239],[76,3322],[78.3,3405],[79.1,3488],[79.1,3571],[79.5,3655],[81.4,3739],[82,3822],[82,3904],[82,3988],[82,4071],[82,4155],[82,4238],[82,4322],[82.1,4405],[82.1,4488],[82.1,4571],[82.1,4655],[82.1,4738],[82.1,4821],[82.1,4905],[82.1,4988],[82.1,5071],[82.1,5155],[82.1,5238],[82.1,5321],[82.1,5404],[82.1,5488],[82.1,5571],[82.1,5654],[82.1,5738],[82.1,5821],[82.1,5904],[82.1,5988],[82.1,6071],[82.1,6154],[82.1,6238],[82.1,6321],[82.1,6404],[82.1,6488],[82.1,6571],[82.1,6654],[82.1,6738],[82.1,6821],[82.1,6904],[82.1,6988],[82.1,7071],[82.1,7154],[82.1,7238],[82.1,7321],[82.1,7404],[82.1,7488],[82.1,7571],[82.1,7654],[82.1,7738],[82.1,7821],[82.1,7904],[82.1,7988],[80.3,8071],[78.8,8155],[69.9,8237],[58,8322],[50.9,8405],[50.5,8487],[49.1,8572],[46.6,8654],[43.6,8738],[37.9,8821],[37.7,8904],[37.1,8987],[36.6,9071],[35.6,9154],[31.8,9821],[31.7,9903],[31.7,9987],[31.7,10070],[31.7,10154],[31.7,10237],[32.3,10321],[34.4,10404],[40.3,10487],[46.6,10572],[50.2,10654],[52.2,10737],[55,10822],[57.4,10904],[59.4,10987],[60.5,11070],[62,11154],[64,11238],[65.3,11321],[65.7,11405],[66.1,11487],[67.6,11570],[68.5,11655],[70,11737],[71.8,11820],[73.8,11903],[79.9,20569],[80.5,20652],[81.5,20736],[82,20819],[82.5,20902],[82.6,20986],[82.6,21069],[83.2,21152],[84.1,21236],[84.8,21321],[85.6,21402],[86.5,21486],[87.1,21569],[87.1,21652],[87.1,21736],[87.1,21819],[87.2,21902],[88.2,21986],[88.4,22069],[89.3,22153],[89.3,22236],[89.3,22319],[89.3,22403],[89.3,22486],[89.3,22569],[88.3,22653],[88,22736],[87,22819],[85.9,22902],[85.2,22985],[85.1,23069],[85.1,23152],[85.1,23236],[85.1,23319],[85.1,23402],[85.1,23486],[85.1,23569],[85.1,23652],[85.1,23736],[85.1,23819],[85.1,23903],[85.1,23985],[85.1,24069],[85.1,24152],[85.1,24236],[85.1,24319],[85.1,24402],[85.1,24486],[85.1,24569],[85.1,24652],[85.1,24736],[85.1,24819],[85.1,24902],[85.1,24985],[85.1,25069],[85.1,25152],[85.1,25235],[85.1,25319],[85.1,25402],[85.1,25485],[85.1,25569],[85.1,25652],[85.1,25735],[85.1,25819],[85.1,25902],[85.1,25985],[85.1,26069],[85.1,26152],[85.1,26235],[85.1,26319],[85.1,26402],[85.1,26485],[85.1,26569],[85.1,26652],[85.1,26735],[85.1,26818],[85.1,26902],[85.1,26985],[85.1,27068],[85.1,27152],[85.1,27235],[85.1,27318],[85.1,27402],[85.1,27485],[85.1,27568],[85.1,27652],[85.1,27735],[85.1,27818],[85.1,27902],[85.1,27985],[85.1,28068],[85.1,28152],[85.1,28235],[85.1,28318],[85.1,28401],[85.1,28485],[85.1,28568],[85.1,28652],[85.1,28735],[85.1,28818],[85.1,28901],[85.1,28985],[85.1,29068],[85.1,29151],[85.1,29235],[85.1,29318],[85.1,29401],[85.1,29485],[85.1,29568],[85.1,29651],[85.1,29735]]",968.9026,968.9167,,,[],,,,968.9167,Not at all,0,968.9191,,,[],,0,0,0,0,1,audio/Narrative13Situation2.wav,audio/Narrative13Situation2.wav,audio/Narrative13Situation2.wav,audio/Narrative13Situation2.wav,2,2,2,2,,,,,932.0934,936.5406,space,3.9231,,,,,,,,,,,,,,,,,,,,,,,,,,,,,,,
,,,,,6709224f70eacdb20761ae3c,2025-07-07_22h37.23.174,group3.4_multiperson,2023.2.2,Win32,60.24096386,686c2ebf0248f13bef9af11f,686c91bb8e9dbeb5c8f68542,,,,,,,,,,,,,,,,,,,,,,,,,,,,,968.9194,2,audio/Narrative6Situation1.wav,970.9353,,970.9353,997.5154,"[[83.8,333],[83.5,416],[83.1,499],[81.5,584],[74.4,666],[71.5,749],[71.5,832],[71.4,916],[71.4,999],[71.1,1082],[71.1,1166],[71.1,1249],[71.1,1333],[71.1,1416],[71.1,1499],[71.1,1583],[71.1,1666],[71.1,1749],[71.1,1833],[71.1,1916],[71.1,1999],[71.1,2082],[71.1,2166],[71.1,2249],[71.1,2332],[71.1,2416],[71.1,2499],[71.1,2582],[71.1,2666],[71.1,2749],[70,2832],[61.8,2916],[53.5,2999],[53.3,3082],[53.2,3166],[51.3,3250],[43.5,3333],[36.6,3416],[35.6,3500],[35.6,3582],[35.6,3666],[35.5,3749],[35.4,3832],[35.4,3916],[35.4,3999],[35.4,4082],[35.4,4166],[35.4,4249],[35.4,4332],[35.4,4416],[35.4,4499],[35.4,4582],[35.4,4666],[35.4,4749],[35.4,4832],[35.4,4915],[35.4,4999],[35.4,5082],[35.4,5165],[35.4,5249],[35.4,5332],[35.4,5416],[35.4,5499],[35.4,5582],[35.4,5665],[35.4,5749],[35.4,5832],[35.4,5915],[35.4,5999],[35.4,6082],[35.4,6165],[35.4,6249],[35.4,6332],[35.4,6415],[35.4,6499],[35.4,6582],[35.4,6665],[35.4,6749],[35.7,6832],[36.8,6916],[38.8,6999],[42.2,7082],[46,7165],[48,7249],[48.8,7332],[51.9,7415],[55.7,7498],[55.7,7582],[42.3,7666],[25.9,7748],[25.2,7832],[20.4,7916],[15.2,7998],[13.5,8083],[12.3,8166],[11.5,8248],[10.9,8331],[10.1,8415],[10,8498],[10,8581],[10,8665],[10,8748],[10,8831],[10,8915],[10,8998],[10,9081],[10,9165],[10,9248],[10,9331],[10,9415],[10,9498],[10,9581],[10,9665],[10,9748],[10,9831],[10,9915],[10,9998],[10,10081],[10,10165],[10,10248],[10,10331],[10,10415],[10,10498],[10,10581],[10,10665],[10,10748],[10,10831],[10,10915],[10,10998],[10,11081],[10,11165],[10,11248],[10,11331],[10,11415],[10,11498],[10,11581],[10,11665],[10,11748],[9.5,11831],[9,11916],[8.3,11998],[8,12081],[8,12164],[8,12248],[8,12331],[8,12414],[8,12498],[8,12581],[8,12664],[8,12748],[8,12831],[8,12914],[8,12998],[8,13081],[8,13164],[8,13248],[8,13331],[8,13414],[8,13498],[8,13581],[8,13664],[8,13748],[8,13831],[8,13914],[8,13998],[8,14081],[8,14164],[8,14248],[8,14331],[8,14414],[8,14498],[8,14581],[8,14664],[8,14748],[8,14831],[8,14914],[8,14998],[8,15081],[8,15164],[8,15248],[8,15331],[8,15414],[8,15498],[8,15581],[8,15664],[8,15748],[8,15831],[8,15914],[8,15997],[8,16081],[8,16164],[8,16247],[8,16330],[8,16414],[8,16497],[8,16581],[8,16664],[8,16747],[8,16830],[8,16914],[8,16997],[8,17080],[8,17164],[8,17247],[8,17331],[8,17414],[8,17497],[8,17580],[8,17664],[8,17747],[8,17830],[8,17914],[8,17997],[8,18080],[8,18164],[8,18247],[8,18330],[8,18414],[8,18497],[8,18580],[8,18664],[8,18747],[8,18830],[8,18914],[8,18997],[8,19080],[8,19164],[8,19247],[8,19330],[8,19414],[8,19497],[8,19580],[8,19664],[8,19747],[8,19830],[8,19913],[8,19997],[8,20080],[8,20163],[8,20247],[8,20330],[8,20414],[8,20497],[8,20580],[8,20663],[8,20747],[8,20830],[8,20913],[8,20997],[8,21080],[8,21163],[8,21247],[8,21330],[8,21413],[8,21497],[8,21580],[8,21663],[8,21747],[8,21830],[8,21913],[8,21997],[8,22080],[8,22163],[8,22246],[8,22330],[8,22413],[8,22496],[8,22580],[8,22663],[8,22747],[8,22830],[8,22913],[8,22996],[8,23080],[8,23163],[8,23246],[8,23330],[8,23413],[8,23496],[8,23580],[8,23663],[8,23746],[8,23830],[8,23913],[8,23996],[8,24080],[8,24163],[8,24247],[8,24329],[8,24413],[8,24496],[8,24579],[8,24663],[8,24746],[8,24829],[8,24913],[8,24996],[8,25079],[8,25163],[8,25246],[8,25330],[8,25413],[8,25496],[8,25579],[8,25663],[8,25746],[8,25829],[8,25913],[8,25996],[8,26079],[8,26163],[8,26246],[8,26329],[8,26413],[8,26496],[8,26579]]",997.5156,999.8985,32.39583333,1.9332,"[{""rating"":32.395833333333336,""responseTime"":1.933200000047691}]",space,1.8374,,999.8985,Definitely yes,100,999.9048,,,[],,0,1,1,1,1,audio/Narrative7Situation1.wav,audio/Narrative8Situation1.wav,audio/Narrative5Situation1.wav,audio/Narrative6Situation1.wav,2,5,5,2,,,,,,,,,,,,,,,,,,,,,,,,,,,,,,,,,,,,,,,
,,,,,6709224f70eacdb20761ae3c,2025-07-07_22h37.23.174,group3.4_multiperson,2023.2.2,Win32,60.24096386,686c2ebf0248f13bef9af11f,686c91bb8e9dbeb5c8f68542,,,,,,,,,,,,,,,,,,,,,,,,,,,,,999.9054,2,audio/Narrative6Situation2.wav,1002.9146,,1002.9146,1031.4276,"[[33.1,2583],[34.3,2666],[33.6,2749],[35.3,4582],[35.6,4665],[35.6,4749],[34.9,4832],[34.8,4915],[34.8,4999],[34.8,5082],[36,5166],[42.7,5248],[48.9,5333],[56.1,5415],[59.2,5498],[59.2,5582],[61,5665],[65.2,5749],[72.1,5832],[75.7,5915],[76,5998],[76,6082],[76,6165],[75.2,6249],[62.1,6333],[49.5,6415],[41.5,6499],[38.8,6583],[32,6665],[25.3,6748],[25,6832],[25,6915],[25,6998],[25,7082],[24.9,7165],[24.8,7249],[24.8,7332],[24.8,7415],[24.8,7498],[24.8,7582],[24.8,7665],[24.8,7748],[24.8,7832],[24.8,7915],[24.8,7998],[24.8,8082],[24.8,8165],[24.8,8248],[24.8,8332],[24.8,8415],[24.8,8498],[24.8,8582],[24.8,8665],[24.8,8748],[24.8,8831],[24.8,8915],[24.8,8998],[24.8,9082],[24.8,9165],[24.8,9248],[24.8,9331],[24.8,9415],[24.8,9498],[24.8,9581],[24.8,9665],[24.8,9748],[24.8,9831],[24.8,9915],[24.8,9998],[24.8,10081],[24.8,10165],[24.7,10248],[24.7,10331],[22.8,10415],[19.3,10498],[17.2,10581],[15.9,10664],[15.8,10748],[15.8,10831],[15.8,10915],[15.8,10998],[15.8,11081],[15.8,11165],[15.8,11248],[15.8,11331],[15.8,11415],[15.8,11498],[15.8,11581],[15.9,11665],[16.1,11748],[17.6,11832],[29.9,11916],[53.6,11998],[66.6,12081],[71.9,12164],[78.4,12248],[82.8,12331],[84,12415],[84,12498],[84,12581],[84,12664],[84,12748],[84,12831],[84,12914],[84,12998],[84,13081],[84,13164],[84,13248],[84,13331],[84,13414],[84,13498],[84,13581],[84,13664],[84,13748],[84,13831],[84,13914],[84,13997],[84,14080],[84,14164],[84,14247],[84,14331],[84,14414],[84,14498],[84,14581],[84,14664],[84,14747],[84,14831],[84,14914],[84,14997],[84,15081],[84,15164],[84,15247],[84,15331],[84,15414],[84,15497],[84,15581],[84,15664],[84,15747],[84,15831],[84,15914],[84,15997],[84,16081],[84,16164],[84,16247],[84,16330],[84,16414],[84,16497],[84,16580],[84,16664],[84,16747],[84,16830],[84,16914],[84,16997],[84,17080],[84,17164],[84,17247],[84,17330],[84,17414],[84,17497],[84,17580],[84,17664],[84,17747],[84,17830],[84,17914],[84,17997],[84,18080],[84,18164],[84,18247],[84,18330],[84,18414],[84,18497],[84,18580],[84,18664],[84,18747],[84,18830],[84,18914],[84,18997],[84,19080],[84,19164],[84,19247],[84,19330],[84,19414],[84,19497],[84,19580],[84,19663],[84,19747],[84,19830],[84,19913],[84,19997],[84,20080],[84,20163],[84,20246],[84,20330],[84,20413],[84,20497],[84,20580],[84,20663],[84,20747],[84,20830],[84,20913],[84,20997],[84,21080],[84,21163],[84,21247],[84,21330],[84,21413],[84,21497],[84,21580],[84,21663],[84,21747],[84,21830],[84,21913],[84,21996],[84,22080],[84,22163],[84,22247],[84,22330],[84,22413],[84,22496],[84,22580],[84,22663],[84,22746],[84,22830],[84,22913],[84,22996],[84,23080],[84,23163],[84,23246],[84,23330],[84,23413],[84,23496],[84,23580],[84,23663],[84,23747],[84,23830],[84,23913],[84,23996],[84,24079],[84,24163],[84,24246],[84,24329],[84,24413],[84,24496],[84,24579],[84,24663],[84,24746],[84,24829],[84,24913],[84,24996],[84,25079],[84,25163],[84,25246],[84,25329],[84,25413],[84,25496],[84,25579],[84,25663],[84,25746],[84,25829],[84,25913],[84,25996],[84,26079],[84,26163],[84,26246],[84,26329],[84,26413],[84,26496],[84,26579],[84,26663],[84,26746],[84,26829],[84,26913],[84,26996],[84,27079],[84,27163],[84,27246],[84,27329],[84,27412],[84,27496],[84,27579],[84,27662],[84,27746],[84,27829],[84,27912],[84,27996],[84,28079],[84,28162],[84,28246],[84,28329],[84,28412],[84,28496]]",1031.4278,1033.9606,87.60416667,1.4633,"[{""rating"":87.60416666666666,""responseTime"":1.463299999952369}]",space,1.9902,,1033.9607,Definitely yes,100,1033.9634,,,[],,0,2,2,2,1,audio/Narrative7Situation2.wav,audio/Narrative8Situation2.wav,audio/Narrative5Situation2.wav,audio/Narrative6Situation2.wav,3,3,3,3,,,,,,,,,,,,,,,,,,,,,,,,,,,,,,,,,,,,,,,
,,,,,6709224f70eacdb20761ae3c,2025-07-07_22h37.23.174,group3.4_multiperson,2023.2.2,Win32,60.24096386,686c2ebf0248f13bef9af11f,686c91bb8e9dbeb5c8f68542,,,,,,,,,,,,,,,,,,,,,,,,,,,,,1033.9639,2,audio/Narrative6Situation3.wav,1038.9766,,1038.9767,1051.5916,"[[999,13],[999,83],[999,166],[999,249],[999,333],[999,416],[999,499],[999,583],[39,666],[32.8,749],[31.8,833],[31.7,916],[31.5,999],[31.5,1082],[31.5,1166],[31.5,1249],[31.5,1332],[31.5,1416],[31.5,1499],[31.5,1582],[31.5,1666],[31.5,1749],[31.5,1832],[31.5,1916],[31.5,1999],[31.5,2082],[31.5,2166],[31.5,2249],[31.5,2332],[31.5,2416],[31.5,2499],[31.5,2582],[31.5,2666],[31.5,2749],[34.6,2832],[42.1,2915],[53.3,2999],[65.5,3082],[72.1,3166],[74.4,3250],[76.3,3333],[78.2,3415],[80.3,3499],[83.5,3582],[84.6,3665],[85.1,3749],[85.1,3832],[85.1,3915],[85.1,3999],[85.1,4082],[85.1,4165],[85.1,4249],[85.1,4332],[85.1,4415],[85.1,4499],[85.1,4582],[85.1,4665],[85.1,4749],[85.1,4832],[85.1,4915],[85.1,4999],[85.1,5082],[85.1,5165],[85.1,5249],[85.1,5332],[85.1,5415],[85.1,5499],[85.1,5582],[85.1,5665],[85.1,5749],[85.1,5832],[85.1,5915],[85.1,5999],[85.1,6082],[85.1,6165],[85.1,6249],[85.1,6332],[85.1,6415],[85.1,6499],[85.1,6582],[85.1,6665],[85.1,6748],[85.1,6832],[85.1,6915],[85.1,6999],[85.1,7081],[85.1,7165],[85.1,7248],[85.1,7332],[85.1,7415],[85.1,7498],[85.1,7582],[85.1,7665],[85.1,7748],[85.1,7832],[85.1,7915],[85.1,7998],[85.1,8081],[85.1,8165],[85.1,8248],[85.1,8331],[85.1,8415],[85.1,8498],[85.1,8582],[85.1,8665],[85.1,8748],[85.1,8831],[85.1,8915],[85.1,8998],[85.1,9081],[85.1,9165],[85.1,9248],[85.1,9331],[85.1,9414],[85.1,9498],[85.1,9581],[85.1,9665],[85.1,9748],[85.1,9831],[85.1,9915],[85.1,9998],[85.1,10081],[85.1,10165],[85.1,10248],[85.1,10331],[85.1,10415],[85.1,10498],[85.1,10581],[85.1,10665],[85.1,10748],[85.1,10831],[85.1,10914],[85.1,10998],[85.1,11081],[85.1,11164],[85.1,11248],[85.1,11331],[85.1,11414],[85.1,11498],[85.1,11581],[85.1,11664],[85.1,11748],[85.1,11831],[85.1,11914],[85.1,11998],[85.1,12081],[85.1,12164],[85.1,12248],[85.1,12331],[85.1,12414],[85.1,12498],[85.1,12581]]",1051.5918,1055.0417,67.60416667,2.5528,"[{""rating"":67.60416666666667,""responseTime"":2.5528000000715565}]",space,2.9063,,1055.0418,Partially,50,1055.0459,,,[],,0,3,3,3,1,audio/Narrative7Situation3.wav,audio/Narrative8Situation3.wav,audio/Narrative5Situation3.wav,audio/Narrative6Situation3.wav,8,4,3,5,,,,,,,,,,,,,,,,,,,,,,,,,,,,,,,,,,,,,,,
,,,,,6709224f70eacdb20761ae3c,2025-07-07_22h37.23.174,group3.4_multiperson,2023.2.2,Win32,60.24096386,686c2ebf0248f13bef9af11f,686c91bb8e9dbeb5c8f68542,,,,,,,,,,,,,,,,,,,,,,,,,,,,,1055.0462,2,audio/Narrative6Situation4.wav,1057.0574,,1057.0574,1069.6727,"[[999,0],[999,83],[47.6,166],[46.9,250],[42.9,333],[42.2,417],[41.9,500],[41.9,583],[41.9,667],[41.9,750],[41.9,833],[41.9,916],[41.9,999],[41.9,1083],[41.9,1166],[41.9,1250],[41.9,1333],[41.9,1416],[41.9,1499],[41.9,1583],[41.9,1666],[41.9,1749],[41.9,1833],[41.9,1916],[41.9,2000],[42.3,2083],[42.6,2166],[42.6,2249],[42.6,2333],[42.6,2416],[42.6,2499],[42.6,2583],[42.6,2666],[42.6,2749],[42.6,2833],[42.6,2916],[42.6,2999],[42.6,3083],[42.6,3166],[42.6,3249],[42.6,3333],[42.6,3416],[42.7,3499],[43.9,3584],[52.8,3666],[61.9,3750],[63.6,3832],[63.6,3916],[63.6,3999],[66.4,4083],[67.2,4166],[67.2,4249],[67.2,4332],[67.2,4416],[67.2,4499],[67.2,4582],[67.2,4666],[67.2,4749],[67.2,4832],[67.2,4916],[67.2,4999],[67.2,5082],[67.2,5166],[67.2,5249],[67.2,5332],[67.2,5416],[67.2,5499],[67.2,5582],[67.2,5665],[67.2,5749],[67.2,5832],[67.2,5916],[67.2,5999],[67.2,6082],[67.2,6166],[67.2,6249],[67.2,6332],[67.2,6415],[67.2,6499],[67.2,6582],[67.2,6665],[67.2,6749],[67.2,6832],[67.2,6916],[67.2,6999],[67.2,7082],[67.2,7165],[67.2,7249],[67.2,7332],[67.2,7415],[67.2,7499],[67.2,7582],[67.2,7665],[67.2,7749],[67.2,7832],[67.2,7915],[67.2,7998],[67.2,8082],[67.2,8165],[67.2,8248],[67.2,8332],[67.2,8415],[67.2,8499],[67.2,8582],[67.2,8665],[67.2,8749],[67.2,8832],[67.2,8915],[67.2,8999],[67.2,9082],[67.2,9165],[67.2,9248],[67.2,9332],[67.2,9415],[67.2,9499],[67.2,9582],[67.2,9665],[67.2,9748],[67.2,9832],[67.2,9915],[67.2,9998],[67.2,10082],[67.2,10165],[67.2,10248],[67.2,10332],[67.2,10415],[67.2,10498],[67.2,10582],[67.2,10665],[67.2,10748],[67.2,10832],[67.2,10915],[67.2,10998],[67.2,11082],[67.2,11165],[67.2,11248],[67.2,11332],[67.2,11415],[67.2,11498],[67.2,11582],[67.2,11665],[67.2,11748],[67.2,11831],[67.2,11915],[67.2,11998],[67.2,12081],[67.2,12165],[67.2,12248],[67.2,12331],[67.2,12415],[67.2,12498],[67.2,12581]]",1069.6729,1078.8882,44.89583333,8.2623,"[{""rating"":44.895833333333336,""responseTime"":8.262300000071491}]",space,8.6707,,1078.8883,Not at all,0,1078.8928,,,[],,0,4,4,4,1,audio/Narrative7Situation4.wav,audio/Narrative8Situation4.wav,audio/Narrative5Situation4.wav,audio/Narrative6Situation4.wav,3,3,1,2,,,,,,,,,,,,,,,,,,,,,,,,,,,,,,,,,,,,,,,
,,,,,6709224f70eacdb20761ae3c,2025-07-07_22h37.23.174,group3.4_multiperson,2023.2.2,Win32,60.24096386,686c2ebf0248f13bef9af11f,686c91bb8e9dbeb5c8f68542,,,,,,,,,,,,,,,,,,,,,,,,,,,,,1078.8932,2,audio/Narrative6Situation5.wav,1080.9046,,1080.9046,1088.8701,"[[53.6,3417],[53.6,3499],[53.6,3582],[53.6,3665],[53.6,3749],[53.6,3832],[53.6,3915],[53.6,3999],[53.6,4082],[53.6,4166],[55.7,4249],[58.2,4332],[60.3,4415],[62.1,4500],[65.3,4582],[68.2,4665],[68.2,4749],[68.3,4832],[71.8,4915],[75.5,4999],[75.5,5082],[75.5,5165],[80.8,5249],[85.7,5332],[85.7,5415],[86.3,5499],[86.4,5582],[86.4,5665],[86.4,5749],[86.4,5832],[86.4,5915],[86.4,5998],[86.4,6082],[86.4,6165],[86.4,6248],[86.4,6332],[86.4,6415],[86.4,6498],[86.4,6582],[86.4,6665],[86.4,6748],[86.4,6832],[86.4,6915],[86.4,6998],[86.4,7082],[86.4,7165],[86.4,7248],[86.4,7332],[86.4,7415],[86.4,7498],[86.5,7582],[86.5,7665],[86.5,7748],[86.5,7832],[86.5,7915]]",1088.8703,1093.4867,74.79166667,3.8065,"[{""rating"":74.79166666666667,""responseTime"":3.8064999999999145}]",space,4.0668,,1093.4868,Partially,50,1093.4923,,,[],,0,5,5,5,1,audio/Narrative7Situation5.wav,audio/Narrative8Situation5.wav,audio/Narrative5Situation5.wav,audio/Narrative6Situation5.wav,5,2,5,2,,,,,,,,,,,,,,,,,,,,,,,,,,,,,,,,,,,,,,,
,,,,,6709224f70eacdb20761ae3c,2025-07-07_22h37.23.174,group3.4_multiperson,2023.2.2,Win32,60.24096386,686c2ebf0248f13bef9af11f,686c91bb8e9dbeb5c8f68542,,,,,,,,,,,,,,,,,,,,,,,,,,,,,1093.4927,2,audio/Narrative6Situation6.wav,1095.5026,,1095.5026,1106.5846,"[[74.9,4582],[75.5,4666],[78.2,4749],[78.2,4832],[78.2,4916],[78.2,4999],[77.4,5082],[76.8,5166],[75.1,5249],[74.8,5333],[74.6,5415],[74.6,5499],[74.5,5582],[75.7,5666],[77.9,5749],[79.7,5832],[79.9,5915],[81.9,5999],[83.1,6082],[84.7,6165],[85.5,6250],[87,6333],[87.2,6415],[87.7,6500],[87.9,6582],[88.8,6666],[89.4,6749],[90.2,6832],[90.5,6915],[90.8,6999],[91.7,7082],[91.7,7165],[91.7,7248],[91.7,7332],[91.7,7415],[91.7,7499],[91.7,7582],[91.7,7665],[91.7,7748],[91.7,7832],[91.7,7915],[91.7,7998],[91.7,8082],[91.7,8165],[91.7,8248],[91.7,8332],[91.7,8415],[91.7,8498],[91.7,8582],[91.7,8665],[91.7,8748],[91.7,8832],[91.7,8915],[91.7,8998],[91.7,9082],[91.7,9165],[91.7,9248],[91.7,9331],[91.7,9415],[91.7,9498],[91.7,9581],[91.7,9665],[91.7,9748],[91.7,9831],[91.7,9915],[91.7,9998],[91.7,10081],[91.7,10165],[91.7,10248],[91.7,10332],[91.7,10415],[91.7,10498],[91.7,10581],[91.7,10665],[91.7,10748],[91.7,10831],[91.7,10915],[91.7,10998],[91.7,11081]]",1106.5847,1109.6175,74.16666667,2.7303,"[{""rating"":74.16666666666667,""responseTime"":2.730299999952422}]",space,2.4899,,1109.6175,Partially,50,1109.6203,,,[],,0,6,6,6,1,audio/Narrative7Situation6.wav,audio/Narrative8Situation6.wav,audio/Narrative5Situation6.wav,audio/Narrative6Situation6.wav,3,2,3,2,,,,,,,,,,,,,,,,,,,,,,,,,,,,,,,,,,,,,,,
,,,,,6709224f70eacdb20761ae3c,2025-07-07_22h37.23.174,group3.4_multiperson,2023.2.2,Win32,60.24096386,686c2ebf0248f13bef9af11f,686c91bb8e9dbeb5c8f68542,,,,,,,,,,,,,,,,,,,,,,,,,,,,,1109.6208,2,audio/Narrative6Situation7.wav,1114.6336,,1114.6336,1139.4975,"[[74,1166],[72.6,1249],[72.5,1333],[72.3,1416],[72.3,1499],[72.3,1583],[72.3,1666],[72.3,1749],[72.3,1832],[72.3,1916],[72.3,1999],[72.3,2082],[72.3,2166],[72.3,2249],[72.3,2332],[72.3,2416],[72.3,2499],[67.9,2583],[53.3,2666],[42.9,2750],[30.2,2832],[23.4,2917],[18.2,3000],[16.5,3082],[15.1,3166],[13.5,3249],[13.5,3332],[13.4,3416],[12.3,3499],[12.2,3582],[12.2,3666],[12.2,3750],[12.2,3832],[12.2,3916],[12.2,3999],[12.2,4082],[12.2,4165],[12.2,4249],[12.2,4332],[12.2,4415],[12.2,4499],[12.2,4582],[12.2,4666],[12.2,4749],[12.2,4832],[12.2,4915],[12.2,4999],[12.2,5082],[12.2,5165],[12.2,5249],[12.2,5332],[12.2,5415],[12.2,5499],[12.2,5582],[12.2,5665],[12.2,5748],[12.2,5832],[12.2,5915],[12.2,5999],[12.2,6082],[12.2,6165],[12.2,6249],[12.2,6332],[12.2,6415],[12.2,6498],[12.2,6582],[12.2,6665],[12.2,6748],[12.2,6832],[12.2,6915],[12.2,6999],[12.2,7082],[12.2,7165],[12.2,7249],[12.2,7332],[12.2,7415],[12.2,7498],[12.2,7582],[12.2,7665],[12.2,7748],[12.2,7832],[12.2,7915],[12.2,7998],[12.2,8082],[12.2,8165],[12.2,8248],[12.2,8332],[12.2,8415],[12.2,8498],[12.2,8582],[12.2,8665],[12.2,8748],[12.2,8832],[12.2,8915],[12.2,8998],[12.2,9082],[12.2,9165],[12.2,9248],[12.2,9331],[12.2,9415],[12.2,9498],[12.2,9581],[12.2,9665],[12.2,9748],[12.2,9831],[12.2,9915],[12.2,9998],[12.2,10081],[12.2,10165],[12.2,10248],[12.2,10331],[12.2,10415],[12.2,10498],[12.2,10581],[12.2,10665],[12.2,10748],[12.2,10831],[12.2,10915],[12.2,10998],[12.2,11081],[12.2,11165],[12.2,11248],[12.2,11331],[12.2,11414],[12.2,11498],[12.2,11581],[12.2,11664],[12.2,11748],[12.2,11831],[12.2,11914],[12.2,11998],[12.2,12081],[12.2,12164],[21.9,12249],[25.5,12332],[25.7,12414],[26.5,12498],[26.5,12582],[26.5,12665],[26.5,12749],[26.5,12831],[26.5,12915],[26.5,12998],[26.5,13081],[26.5,13165],[26.5,13248],[26.5,13331],[26.5,13415],[26.5,13498],[26.5,13581],[26.5,13665],[26.5,13748],[26.5,13831],[26.5,13914],[26.5,13998],[26.5,14081],[26.5,14165],[26.5,14248],[26.5,14331],[26.5,14414],[26.5,14498],[26.5,14581],[26.5,14664],[26.5,14748],[26.5,14831],[26.5,14914],[26.5,14998],[26.5,15081],[26.5,15165],[26.5,15248],[26.5,15331],[26.5,15415],[26.5,15498],[26.5,15581],[26.5,15664],[26.5,15748],[26.5,15831],[26.5,15915],[26.5,15998],[26.5,16081],[26.5,16164],[26.5,16248],[26.5,16331],[26.5,16414],[26.5,16498],[26.5,16581],[26.5,16665],[26.5,16748],[26.5,16831],[26.5,16914],[26.5,16998],[26.5,17081],[26.5,17164],[26.5,17248],[26.5,17331],[26.5,17414],[26.5,17498],[26.5,17581],[26.5,17664],[26.5,17748],[26.5,17831],[26.5,17914],[26.5,17998],[26.5,18081],[26.5,18164],[26.5,18247],[26.5,18331],[26.5,18414],[26.5,18498],[26.5,18580],[26.5,18664],[26.5,18747],[26.5,18831],[26.5,18914],[26.5,18997],[26.5,19081],[26.5,19164],[26.5,19248],[26.5,19331],[26.5,19414],[26.5,19498],[26.5,19580],[26.5,19664],[26.5,19747],[26.5,19831],[26.5,19914],[26.5,19997],[26.5,20081],[26.5,20164],[26.5,20247],[26.5,20330],[26.5,20413],[26.5,20497],[26.5,20580],[26.5,20664],[26.5,20747],[26.5,20831],[28.2,20913],[29.3,20997],[29.3,21080],[29.3,21163],[29.3,21247],[29.3,21330],[29.3,21413],[29.3,21497],[29.3,21580],[29.3,21663],[29.3,21747],[29.3,21830],[30,21914],[40.1,21997],[44,22080],[44.3,22163],[44.5,22247],[46.4,22330],[50.5,22413],[52.4,22497],[54.3,22581],[56.8,22663],[57.4,22746],[57.4,22830],[57.4,22913],[57.4,22997],[57.4,23080],[57.4,23163],[57.4,23246],[57.4,23330],[57.4,23413],[60.4,23496],[64.5,23580],[67.1,23663],[67.8,23746],[67.8,23830],[67.8,23913],[67.8,23996],[67.8,24080],[67.8,24163],[67.8,24246],[68,24330],[76.4,24413],[83.6,24496],[85.2,24580],[85.9,24663],[88.5,24746],[90.9,24830]]",1139.4981,1142.8296,88.75,3.3299,"[{""rating"":88.75,""responseTime"":3.3299000000954493}]",space,1.2239,,1142.8297,Partially,50,1142.8322,,,[],,0,7,7,7,1,audio/Narrative7Situation7.wav,audio/Narrative8Situation7.wav,audio/Narrative5Situation7.wav,audio/Narrative6Situation7.wav,5,3,4,5,,,,,,,,,,,,,,,,,,,,,,,,,,,,,,,,,,,,,,,
,,,,,6709224f70eacdb20761ae3c,2025-07-07_22h37.23.174,group3.4_multiperson,2023.2.2,Win32,60.24096386,686c2ebf0248f13bef9af11f,686c91bb8e9dbeb5c8f68542,,,,,,,,,,,,,,,,,,,,,,,,,,,,,1142.8325,2,audio/Narrative6Situation8.wav,1147.846,,1147.8461,1154.7118,"[[999,14],[999,83],[999,166],[999,249],[999,332],[999,416],[999,499],[999,583],[999,666],[999,749],[999,833],[999,916],[999,1001],[999,1083],[999,1166],[999,1249],[59.5,1332],[59.1,1416],[58.9,1499],[57.9,1583],[57.3,1666],[57.2,1749],[57.2,1833],[57.2,1916],[57.6,1999],[60.5,2082],[64.5,2166],[64.5,2249],[64.5,2332],[64.8,2415],[64.8,2499],[64.8,2582],[64.8,2665],[64.8,2749],[64.9,2833],[64.9,2915],[64.9,2999],[64.9,3082],[64.9,3165],[64.9,3249],[65,3332],[65,3416],[65,3499],[65,3582],[65.1,3665],[65.2,3749],[65.2,3832],[65.2,3915],[65.2,3999],[65.2,4082],[65.3,4165],[64.9,4249],[53.4,4332],[41,4415],[37.8,4498],[35.7,4582],[27.3,4665],[18.9,4749],[17.1,4832],[15.2,4916],[12.8,4998],[11.8,5083],[10.6,5166],[10.6,5249],[10.6,5332],[10.6,5415],[10.3,5499],[10.1,5582],[10.1,5665],[10.1,5748],[10.1,5832],[10.1,5915],[10.1,5998],[10.1,6082],[10.1,6165],[10.1,6249],[10.1,6332],[10.1,6415],[10.1,6498],[10.2,6582],[10.2,6665],[10.2,6748],[10.2,6832]]",1154.7122,1161.2276,0.104166667,3.4728,"[{""rating"":0.1041666666666663,""responseTime"":3.472799999952258}]",space,5.9703,,1161.2276,Definitely yes,100,1161.2322,,,[],,0,8,8,8,1,audio/Narrative7Situation8.wav,audio/Narrative8Situation8.wav,audio/Narrative5Situation8.wav,audio/Narrative6Situation8.wav,2,3,3,5,,,,,,,,,,,,,,,,,,,,,,,,,,,,,,,,,,,,,,,
,,,,,6709224f70eacdb20761ae3c,2025-07-07_22h37.23.174,group3.4_multiperson,2023.2.2,Win32,60.24096386,686c2ebf0248f13bef9af11f,686c91bb8e9dbeb5c8f68542,,,,,,,,,,,,,,,,,,,,,,,,,,,,,1161.2327,2,audio/Narrative6Situation9.wav,1165.244,,1165.2442,1175.2089,"[[999,19],[999,99],[999,182],[999,266],[999,349],[999,432],[999,516],[999,599],[999,682],[999,766],[999,849],[38,932],[43.3,1016],[46.6,1100],[46.8,1182],[46.7,1265],[46.7,1348],[46.7,1432],[46.7,1515],[46.7,1599],[47.1,1682],[54.7,1766],[62.9,1848],[67.6,1932],[71.1,2015],[77.4,2098],[80,2182],[81.7,2265],[82.5,2348],[84.5,2432],[86.4,2516],[86.9,2598],[86.9,2682],[87.7,2766],[88.8,2849],[88.9,2932],[88.9,3015],[88.9,3098],[88.9,3182],[88.9,3265],[88.9,3348],[88.9,3432],[88.9,3515],[88.9,3598],[88.9,3682],[88.9,3765],[88.9,3848],[88.9,3932],[88.9,4015],[88.9,4098],[88.9,4182],[88.9,4265],[88.9,4348],[88.9,4432],[88.9,4515],[89,4598],[89,4682],[89,4765],[89,4848],[89,4932],[89,5015],[89,5098],[89,5182],[89,5265],[89,5348],[89,5431],[89,5515],[89,5598],[89,5681],[89,5765],[89,5848],[89,5931],[89,6015],[89,6098],[89,6181],[89,6265],[89,6348],[89,6431],[89,6515],[89,6598],[89,6682],[89,6765],[89,6848],[89,6931],[89,7015],[89,7098],[89,7181],[89,7264],[89,7347],[89,7431],[89,7514],[89,7598],[89,7681],[89,7764],[89,7847],[89,7931],[89,8015],[89,8098],[89,8181],[89,8265],[89,8348],[89,8431],[88.6,8521],[88.4,8598],[87,8682],[85.1,8766],[84,8848],[83.8,8931],[83.1,9015],[82.5,9097],[82.3,9181],[82,9264],[81.9,9348],[81.7,9431],[81.6,9514],[81.6,9598],[81.6,9681],[81.6,9764],[81.6,9848],[81.6,9931]]",1175.2091,1177.7087,3.541666667,1.7421,"[{""rating"":3.541666666666665,""responseTime"":1.742100000023811}]",space,1.9652,,1177.7087,Not at all,0,1177.7121,,,[],,0,9,9,9,1,audio/Narrative7Situation9.wav,audio/Narrative8Situation9.wav,audio/Narrative5Situation9.wav,audio/Narrative6Situation9.wav,2,3,3,4,,,,,,,,,,,,,,,,,,,,,,,,,,,,,,,,,,,,,,,
,,,,,6709224f70eacdb20761ae3c,2025-07-07_22h37.23.174,group3.4_multiperson,2023.2.2,Win32,60.24096386,686c2ebf0248f13bef9af11f,686c91bb8e9dbeb5c8f68542,,,,,,,,,,,,,,,,,,,,,,,,,,,,,1177.7125,2,audio/Narrative5Situation1.wav,1182.725,space,1182.7252,1196.0232,"[[999,16],[999,82],[999,165],[999,250],[999,332],[999,415],[999,499],[999,582],[999,666],[999,749],[999,833],[42.8,916],[44.8,999],[46.7,1083],[48.4,1165],[49.3,1249],[49.3,1332],[49.3,1416],[49.3,1499],[49.3,1582],[49.3,1666],[49.3,1749],[49.3,1832],[49.3,1915],[49.3,1999],[49.3,2082],[49.3,2165],[49.3,2249],[49.3,2332],[49.3,2415],[49.3,2499],[49.3,2582],[49.3,2665],[49.3,2749],[49.3,2832],[49.3,2915],[49.3,2999],[49.3,3082],[49.3,3165],[49.3,3248],[49.3,3332],[49.3,3416],[49.3,3499],[49.3,3582],[49.3,3665],[49.3,3749],[49.3,3832],[49.3,3915],[49.3,3999],[49.3,4082],[49.3,4165],[49.3,4248],[49.3,4332],[49.3,4415],[49.3,4498],[49.3,4582],[49.3,4665],[49.3,4748],[49.3,4832],[49.3,4915],[49.3,4998],[49.3,5082],[49.3,5165],[49.3,5248],[49.3,5332],[47.4,5415],[46.8,5499],[39.2,5582],[33.9,5665],[31.7,5749],[30.4,5832],[30.4,5915],[30,5998],[25.2,6081],[26.8,6166],[51,6248],[65.5,6331],[70.8,6414],[82.1,6498],[86.3,6582],[88.3,6665],[89.3,6748],[89.3,6831],[89.3,6915],[89.3,6998],[89.3,7081],[89.3,7165],[89.3,7248],[89.3,7331],[89.3,7415],[89.3,7498],[89.3,7581],[89.3,7665],[89.3,7748],[89.3,7831],[89.3,7915],[89.3,7998],[89.3,8081],[89.3,8165],[89.3,8248],[89.3,8332],[89.3,8415],[89.3,8498],[89.3,8581],[89.3,8665],[89.3,8748],[89.3,8831],[89.3,8915],[89.3,8999],[89.3,9081],[89.3,9164],[89.3,9248],[89.3,9331],[89.3,9414],[89.3,9497],[89.3,9581],[89.3,9664],[89.3,9747],[89.3,9831],[89.3,9914],[89.3,9997],[89.3,10081],[89.3,10164],[89.3,10247],[89.3,10331],[89.3,10414],[89.3,10497],[89.3,10581],[89.3,10664],[90.3,10748],[94.6,10831],[94.7,10914],[94.7,10997],[96.5,11082],[97.4,11164],[97.5,11248],[100,11331],[100,11414],[100,11497],[100,11581],[100,11664],[100,11747],[100,11830],[100,11914],[100,11997],[100,12081],[100,12164],[100,12247],[100,12331],[100,12414],[100,12497],[100,12581],[100,12664],[100,12747],[100,12831],[100,12914],[100,12997],[100,13081],[100,13164],[100,13247]]",1196.0234,1197.9894,98.54166667,1.6066,"[{""rating"":98.54166666666666,""responseTime"":1.6066000000237182}]",space,1.417,,1197.9895,Definitely yes,100,1197.9933,,,[],,0,10,10,10,1,audio/Narrative8Situation1.wav,audio/Narrative7Situation1.wav,audio/Narrative6Situation1.wav,audio/Narrative5Situation1.wav,5,2,2,5,4.1777,,,,,,,,,,,,,,,,,,,,,,,,,,,,,,,,,,,,,,
,,,,,6709224f70eacdb20761ae3c,2025-07-07_22h37.23.174,group3.4_multiperson,2023.2.2,Win32,60.24096386,686c2ebf0248f13bef9af11f,686c91bb8e9dbeb5c8f68542,,,,,,,,,,,,,,,,,,,,,,,,,,,,,1197.9936,2,audio/Narrative5Situation2.wav,1201.0056,,1201.0056,1230.4687,"[[999,0],[999,83],[999,166],[999,250],[999,333],[999,416],[999,499],[999,583],[46.3,666],[47,749],[47.1,833],[47.1,916],[47.6,999],[47.6,1083],[47.6,1166],[47.6,1249],[47.6,1333],[47.9,1416],[50.1,1499],[51,1583],[53,1666],[54.6,1749],[54.6,1833],[55.1,1916],[56.9,2000],[57.1,2083],[57.1,2166],[57.1,2249],[57.1,2332],[57.1,2416],[57.1,2499],[57.1,2583],[57.1,2665],[59.5,2749],[72.8,2833],[95.3,3583],[95.4,3665],[95.5,3749],[96,3833],[96.8,3916],[96.9,3999],[96.9,4082],[96.9,4166],[96.9,4249],[96.9,4332],[96.9,4415],[96.9,4499],[96.9,4582],[96.9,4665],[96.9,4749],[96.9,4832],[96.9,4915],[96.9,4999],[96.9,5082],[96.9,5165],[96.9,5249],[96.9,5332],[96.9,5415],[96.9,5499],[96.9,5582],[96.9,5665],[96.9,5749],[96.9,5832],[96.9,5915],[96.9,5999],[96.9,6082],[96.9,6165],[96.9,6249],[96.9,6332],[96.9,6415],[96.9,6498],[96.9,6582],[96.9,6665],[96.9,6748],[96.9,6832],[96.9,6915],[96.9,6999],[96.9,7082],[96.9,7165],[96.9,7248],[96.9,7332],[96.9,7415],[96.9,7499],[96.9,7582],[96.9,7665],[96.9,7749],[96.9,7832],[96.9,7915],[96.9,7999],[96.9,8082],[96.9,8165],[96.9,8248],[96.9,8332],[96.9,8415],[96.9,8498],[96.9,8582],[96.9,8665],[96.9,8748],[96.9,8832],[96.9,8915],[96.9,8998],[96.9,9082],[96.9,9165],[96.9,9248],[96.9,9332],[96.9,9415],[96.9,9498],[96.9,9582],[96.9,9665],[96.9,9748],[96.9,9831],[96.9,9915],[96.9,9998],[96.9,10082],[96.9,10165],[96.9,10248],[96.9,10332],[96.9,10415],[96.9,10498],[96.9,10582],[96.9,10664],[96.9,10748],[96.9,10831],[96.9,10915],[96.9,10998],[96.9,11081],[96.9,11165],[96.9,11248],[96.9,11331],[96.9,11415],[96.9,11498],[96.9,11581],[96.9,11665],[96.9,11748],[96.9,11831],[96.9,11915],[96.9,11998],[96.9,12081],[96.9,12165],[96.9,12248],[96.9,12331],[96.9,12415],[96.9,12498],[96.9,12581],[96.9,12664],[96.9,12748],[96.9,12831],[96.9,12914],[96.9,12998],[96.9,13081],[96.9,13165],[96.9,13248],[96.9,13331],[96.9,13414],[96.9,13498],[96.9,13581],[96.9,13664],[94.8,13748],[80.9,13832],[70.4,13915],[60.8,13998],[51.6,14081],[42.5,14166],[35.5,14248],[32.4,14331],[30.3,14414],[29,14497],[29,14581],[29,14664],[29,14748],[27.4,26913],[28.8,26997],[28.8,27079],[28.8,27163],[25.3,27247],[21.3,27329],[19.5,27414],[17.5,27496],[14,27579],[11,27664],[8.9,27746],[8.9,27829],[8.9,27913],[8.9,27996],[8.9,28079],[8.9,28163],[8.9,28246],[8.9,28329],[8.9,28413],[8.9,28496],[8.9,28579],[8.9,28662],[8.9,28746],[8.9,28829],[8.9,28912],[8.9,28996],[8.9,29079],[8.9,29162],[8.9,29246],[8.9,29329],[8.9,29412]]",1230.4688,1234.6513,65.52083333,3.4921,"[{""rating"":80.41666666666667,""responseTime"":2.5485000000001037},{""rating"":65.52083333333334,""responseTime"":3.4921000000240383}]",space,3.6353,,1234.6514,Definitely yes,100,1234.6534,,,[],,0,11,11,11,1,audio/Narrative8Situation2.wav,audio/Narrative7Situation2.wav,audio/Narrative6Situation2.wav,audio/Narrative5Situation2.wav,3,3,3,3,,,,,,,,,,,,,,,,,,,,,,,,,,,,,,,,,,,,,,,
,,,,,6709224f70eacdb20761ae3c,2025-07-07_22h37.23.174,group3.4_multiperson,2023.2.2,Win32,60.24096386,686c2ebf0248f13bef9af11f,686c91bb8e9dbeb5c8f68542,,,,,,,,,,,,,,,,,,,,,,,,,,,,,1234.6538,2,audio/Narrative5Situation3.wav,1237.6674,,1237.6674,1251.5659,"[[66.3,416],[66.4,500],[66.4,583],[66.4,666],[66.4,749],[66.4,833],[66.4,916],[66.4,1000],[66.4,1083],[66.4,1166],[66.4,1250],[66.4,1333],[66.4,1416],[66.4,1500],[66.4,1583],[66.4,1666],[66.4,1749],[66.4,1833],[66.3,1916],[47.8,2000],[37.2,2083],[30.7,2166],[26.8,2249],[24.2,2333],[21.8,2416],[20,2499],[18.4,2583],[18,2666],[17.2,2749],[17.2,2833],[16.8,2916],[16.8,2999],[16.8,3083],[16.8,3166],[16.8,3249],[16.8,3332],[16.8,3416],[16.8,3499],[16.8,3583],[16.8,3666],[16.8,3749],[16.8,3833],[16.8,3916],[16.8,3999],[16.8,4083],[16.8,4166],[16.8,4249],[16.8,4333],[16.8,4416],[16.8,4499],[16.8,4583],[16.8,4665],[16.8,4749],[16.8,4832],[16.8,4915],[16.8,4999],[16.8,5082],[16.8,5165],[16.8,5249],[16.8,5332],[16.8,5416],[16.8,5499],[16.8,5582],[16.8,5665],[16.8,5749],[16.8,5832],[16.8,5915],[16.8,5999],[16.8,6082],[16.8,6165],[16.8,6249],[16.8,6332],[16.8,6415],[16.8,6499],[16.8,6582],[16.8,6665],[16.8,6749],[16.8,6832],[16.8,6916],[16.8,6999],[16.8,7082],[16.8,7165],[16.8,7249],[16.8,7332],[16.8,7415],[16.8,7499],[16.8,7582],[16.8,7665],[16.8,7749],[16.8,7832],[16.8,7915],[16.8,7999],[16.8,8082],[16.8,8165],[16.8,8249],[16.8,8332],[16.8,8415],[16.8,8499],[16.8,8582],[16.8,8665],[16.8,8749],[16.8,8832],[16.8,8915],[16.8,8998],[16.8,9082],[16.8,9165],[16.8,9249],[16.8,9332],[16.8,9415],[16.8,9498],[16.8,9582],[16.8,9665],[16.8,9748],[16.8,9832],[16.8,9915],[16.8,9998],[16.8,10082],[16.8,10165],[16.8,10248],[16.8,10331],[16.8,10415],[16.8,10498],[16.8,10581],[16.8,10665],[16.8,10748],[16.8,10831],[16.8,10915],[16.8,10998],[16.8,11082],[16.8,11165],[16.8,11248],[16.8,11331],[16.8,11415],[16.8,11498],[16.8,11581],[16.8,11665],[16.8,11748],[16.8,11831],[16.8,11915],[16.8,11998],[16.8,12081],[17.4,12164],[17.4,12248],[17.4,12331],[17.3,12415],[17,12498],[16.7,12581],[17,12665],[18.9,12748],[19.8,12831],[19.8,12914],[18.8,12998],[16.1,13082],[13.5,13165],[12.7,13248],[11,13331],[19.6,13582],[20.1,13665],[22.5,13749],[30.5,13832]]",1251.5661,1256.7985,0.729166667,4.4066,"[{""rating"":0.7291666666666641,""responseTime"":4.4066000000239}]",space,4.6877,,1256.7985,Partially,50,1256.8021,,,[],,0,12,12,12,1,audio/Narrative8Situation3.wav,audio/Narrative7Situation3.wav,audio/Narrative6Situation3.wav,audio/Narrative5Situation3.wav,4,8,5,3,,,,,,,,,,,,,,,,,,,,,,,,,,,,,,,,,,,,,,,
,,,,,6709224f70eacdb20761ae3c,2025-07-07_22h37.23.174,group3.4_multiperson,2023.2.2,Win32,60.24096386,686c2ebf0248f13bef9af11f,686c91bb8e9dbeb5c8f68542,,,,,,,,,,,,,,,,,,,,,,,,,,,,,1256.8024,2,audio/Narrative5Situation4.wav,1257.815,,1257.815,1278.2127,"[[1.4,1667],[2,1749],[2,1833],[2,1916],[2,1999],[2,2083],[2,2166],[2,2249],[2,2333],[2,2416],[2,2499],[2,2583],[2,2666],[2,2749],[2,2832],[2,2916],[2,2999],[2,3082],[2,3166],[2,3249],[2,3332],[2,3416],[2,3499],[2,3582],[2,3666],[2,3749],[2,3832],[2,3916],[2,3999],[2,4082],[2,4166],[2,4249],[2,4332],[2,4416],[2,4499],[2,4582],[2,4665],[2,4749],[2,4832],[2,4915],[2,4999],[2,5082],[2.3,5165],[2.3,5249],[2.6,5332],[3.5,5416],[4.2,5500],[4.8,5582],[4.8,5665],[5.3,5749],[5.9,5832],[5.9,5915],[6.4,5998],[6.5,6083],[7.4,6165],[8,6249],[8.3,6332],[8.6,6415],[9.2,6498],[9.3,6582],[10.2,6666],[10.6,6749],[10.8,6832],[10.8,6915],[10.8,6999],[10.8,7082],[10.8,7165],[10.8,7249],[10.8,7332],[10.8,7415],[10.8,7498],[10.8,7581],[10.8,7665],[10.8,7749],[10.8,7832],[10.8,7915],[10.8,7998],[10.8,8081],[10.8,8165],[10.8,8248],[10.8,8332],[10.8,8415],[10.8,8498],[10.8,8581],[10.8,8665],[10.8,8748],[10.8,8831],[10.8,8915],[10.8,8998],[10.8,9082],[10.8,9165],[10.8,9248],[10.8,9331],[10.8,9415],[10.8,9498],[10.8,9582],[10.8,9665],[10.8,9748],[10.8,9831],[10.8,9915],[10.8,9998],[10.8,10081],[10.8,10165],[10.8,10248],[10.8,10331],[10.8,10415],[10.8,10498],[10.8,10581],[10.8,10665],[10.8,10748],[10.8,10831],[10.8,10914],[10.8,10998],[10.8,11081],[10.8,11165],[10.8,11248],[10.8,11331],[10.8,11414],[10.8,11498],[10.8,11581],[10.8,11665],[10.8,11748],[10.8,11831],[10.8,11914],[10.8,11998],[10.8,12081],[10.8,12164],[10.8,12248],[10.8,12331],[10.8,12414],[10.8,12498],[10.8,12581],[10.8,12664],[10.8,12748],[10.8,12831],[10.8,12915],[10.8,12998],[10.8,13081],[10.8,13164],[10.8,13248],[10.8,13331],[22.5,13415],[45.6,13498],[64.9,13581],[72.7,13664],[80.7,13748],[84.3,13831],[85.8,13914],[87.3,13998],[87.3,14081],[87.3,14164],[87.3,14247],[87.3,14331],[87.3,14414],[87.3,14498],[87.3,14581],[87.3,14664],[87.3,14748],[87.3,14831],[87.3,14914],[87.3,14998],[87.3,15081],[87.3,15164],[87.3,15247],[87.3,15331],[87.3,15414],[87.3,15497],[87.3,15581],[87.3,15664],[87.3,15747],[87.3,15831],[87.3,15914],[87.3,15997],[87.3,16081],[87.3,16164],[87.3,16247],[87.3,16331],[87.3,16414],[87.3,16497],[87.3,16581],[87.3,16664],[87.3,16747],[87.3,16831],[87.3,16914],[87.3,16997],[87.3,17080],[87.3,17164],[86.8,17250],[85.6,17330],[84.6,17414],[83.1,17498],[80.6,17581],[77.8,17664],[76.8,17747],[76.8,17830],[76.8,17914],[76.8,17997],[76.8,18080],[76.8,18164],[76.8,18247],[76.8,18330],[76.8,18414],[76.8,18497],[76.8,18580],[76.8,18664],[76.8,18747],[76.8,18830],[76.8,18914],[76.8,18997],[76.8,19080],[76.8,19164],[76.8,19247],[76.8,19330],[76.8,19414],[76.8,19497],[76.8,19580],[76.8,19664],[76.8,19747],[76.8,19830],[76.8,19913],[76.8,19997],[76.8,20080],[76.8,20163],[76.8,20247],[76.8,20330]]",1278.2129,1279.3122,77.8125,0.8475,"[{""rating"":77.8125,""responseTime"":0.8474999999998545}]",space,0.5585,,1279.3123,Not at all,0,1279.3157,,,[],,0,13,13,13,1,audio/Narrative8Situation4.wav,audio/Narrative7Situation4.wav,audio/Narrative6Situation4.wav,audio/Narrative5Situation4.wav,3,3,2,1,,,,,,,,,,,,,,,,,,,,,,,,,,,,,,,,,,,,,,,
,,,,,6709224f70eacdb20761ae3c,2025-07-07_22h37.23.174,group3.4_multiperson,2023.2.2,Win32,60.24096386,686c2ebf0248f13bef9af11f,686c91bb8e9dbeb5c8f68542,,,,,,,,,,,,,,,,,,,,,,,,,,,,,1279.3162,2,audio/Narrative5Situation5.wav,1284.3284,,1284.3285,1299.7595,"[[77.6,1915],[77.6,1999],[77.6,2082],[77.5,2165],[78.3,2250],[79,2332],[79,2415],[79,2499],[79,2582],[79,2666],[79,2749],[79,2832],[79,2915],[79,2999],[79,3082],[79,3165],[79,3249],[79,3332],[79,3415],[79,3499],[79,3582],[79,3665],[79,3749],[79,3832],[79,3915],[79,3999],[79,4082],[79,4165],[79,4249],[79,4332],[79,4415],[79,4499],[79,4582],[79,4665],[79,4749],[79,4832],[79,4915],[79,4999],[79,5082],[79,5165],[79,5249],[79,5332],[79,5415],[79,5499],[79,5582],[79,5665],[79,5748],[79,5832],[79,5915],[79,5999],[79,6082],[79,6165],[79,6248],[79,6332],[79,6415],[79,6498],[79,6582],[79,6665],[79,6748],[79,6832],[79,6915],[79,6998],[79,7081],[79,7165],[79,7248],[79,7332],[79,7415],[79,7498],[79,7581],[79,7665],[79,7748],[79,7831],[79,7915],[56.9,8009],[32.9,8081],[39.5,8831],[26.3,8915],[24.3,8998],[21.5,9081],[22.3,9166],[24.5,9248],[24.5,9331],[22.4,9415],[10.5,9498],[10.4,9581],[10.3,9665],[9.5,9748],[9.5,9831],[9.5,9915],[9.5,9998],[9.8,10081],[25.7,10165],[56.5,10249],[77.9,10331],[84.4,10414],[89.5,10498],[90.9,10581],[90.9,10664],[90.9,10747],[90.9,10831],[90.9,10915],[90.9,10998],[90.9,11081],[90.9,11164],[90.9,11248],[90.9,11331],[90.9,11414],[90.9,11498],[90.9,11581],[90.9,11664],[90.9,11747],[90.9,11831],[90.9,11914],[90.9,11998],[90.9,12081],[90.9,12164],[90.9,12248],[90.9,12331],[90.9,12414],[90.9,12497],[90.9,12581],[90.9,12664],[90.9,12748],[83.5,12831],[58.6,12914],[40.4,12998],[40.4,13081],[40.4,13165],[42.9,13248],[51,13331],[53.5,13414],[53.5,13497],[53.5,13581],[55.2,13664],[60.4,13748],[62.9,13831],[62.9,13914],[62.9,13997],[62.9,14081],[62.9,14164],[62.9,14247],[64.5,14331],[66.9,14414],[67.7,14497],[67.7,14581],[67.7,14664],[67.8,14747],[67.8,14831],[67.8,14914],[67.8,14997],[67.8,15080],[67.8,15164],[67.8,15247],[67.8,15331],[67.8,15414]]",1299.7596,1301.5094,26.97916667,1.1407,"[{""rating"":26.979166666666664,""responseTime"":1.1407000000476728}]",space,1.2157,,1301.5095,Not at all,0,1301.5123,,,[],,0,14,14,14,1,audio/Narrative8Situation5.wav,audio/Narrative7Situation5.wav,audio/Narrative6Situation5.wav,audio/Narrative5Situation5.wav,2,5,2,5,,,,,,,,,,,,,,,,,,,,,,,,,,,,,,,,,,,,,,,
,,,,,6709224f70eacdb20761ae3c,2025-07-07_22h37.23.174,group3.4_multiperson,2023.2.2,Win32,60.24096386,686c2ebf0248f13bef9af11f,686c91bb8e9dbeb5c8f68542,,,,,,,,,,,,,,,,,,,,,,,,,,,,,1301.5127,2,audio/Narrative5Situation6.wav,1304.5255,,1304.5256,1310.1915,"[[26.1,84],[26.3,166],[26.3,250],[26.5,333],[26.5,416],[26.6,499],[26.8,583],[26.7,666],[26.1,750],[26.6,833],[27.8,916],[27.8,999],[27.8,1083],[27.8,1166],[27.8,1249],[27.8,1333],[27.8,1416],[27.8,1499],[27.8,1583],[27.8,1666],[27.8,1749],[27.8,1833],[27.8,1916],[27.8,1999],[27.8,2083],[27.8,2166],[27.8,2249],[27.8,2333],[27.8,2416],[27.8,2499],[27.8,2583],[27.8,2666],[27.8,2749],[27.8,2832],[27.8,2915],[27.8,2999],[27.8,3082],[27.8,3166],[27.8,3249],[27.8,3332],[27.8,3415],[27.8,3499],[27.8,3582],[27.8,3666],[27.8,3749],[27.8,3832],[27.8,3916],[27.8,3999],[27.8,4082],[27.8,4166],[27.8,4249],[27.8,4332],[27.8,4415],[27.8,4499],[27.8,4582],[27.8,4665],[27.8,4749],[27.8,4832],[27.8,4915],[27.8,4999],[27.8,5082],[27.8,5165],[27.8,5249],[27.8,5332],[27.8,5415],[27.8,5499],[27.8,5582],[27.8,5665]]",1310.1917,1313.8412,80.72916667,2.5551,"[{""rating"":80.72916666666667,""responseTime"":2.555100000023913}]",space,3.1052,,1313.8414,Not at all,0,1313.8442,,,[],,0,15,15,15,1,audio/Narrative8Situation6.wav,audio/Narrative7Situation6.wav,audio/Narrative6Situation6.wav,audio/Narrative5Situation6.wav,2,3,2,3,,,,,,,,,,,,,,,,,,,,,,,,,,,,,,,,,,,,,,,
,,,,,6709224f70eacdb20761ae3c,2025-07-07_22h37.23.174,group3.4_multiperson,2023.2.2,Win32,60.24096386,686c2ebf0248f13bef9af11f,686c91bb8e9dbeb5c8f68542,,,,,,,,,,,,,,,,,,,,,,,,,,,,,1313.8446,2,audio/Narrative5Situation7.wav,1317.8574,,1317.8574,1338.9048,"[[73.8,1166],[72.2,1249],[70,1334],[68,1416],[67,1499],[66.7,1582],[66.7,1666],[66.7,1749],[66.7,1832],[66.7,1916],[66.7,1999],[66.7,2082],[66.9,2165],[68.9,2250],[73.3,2332],[76.8,2416],[77.8,2499],[79.7,2582],[80.4,2666],[81.9,2749],[84,2832],[86,2917],[87.1,2999],[88.8,3082],[90.1,3166],[90.4,3249],[90.5,3332],[90.6,3416],[90.6,3499],[90.6,3582],[90.6,3665],[90.6,3749],[90.6,3832],[90.6,3915],[90.6,3999],[90.6,4082],[90.6,4165],[90.6,4249],[90.6,4332],[90.6,4415],[90.6,4499],[90.6,4582],[90.6,4665],[90.6,4749],[90.6,4832],[90.6,4915],[90.6,4999],[90.6,5082],[90.6,5165],[90.6,5248],[90.6,5332],[90.6,5415],[90.6,5498],[90.6,5582],[90.6,5665],[90.6,5749],[90.6,5832],[90.6,5915],[90.6,5999],[90.6,6082],[90.6,6165],[90.6,6248],[90.6,6332],[90.6,6415],[90.6,6498],[90.6,6582],[90.6,6665],[90.6,6749],[90.6,6832],[90.6,6915],[90.6,6998],[90.6,7082],[90.6,7165],[90.6,7248],[90.6,7332],[90.6,7415],[90.6,7498],[90.6,7582],[90.6,7665],[90.6,7748],[90.6,7831],[90.6,7915],[90.6,7998],[90.6,8081],[90.6,8165],[90.6,8248],[90.6,8331],[90.6,8415],[90.6,8498],[90.6,8581],[89.4,8665],[87,8748],[85.4,8832],[82.6,8915],[78.9,8998],[71.8,9081],[65.2,9166],[58.1,9248],[52.2,9332],[43.4,9415],[39.4,9498],[34.9,9581],[30.1,9665],[28.5,9748],[24.9,9831],[20.5,9914],[19.9,9998],[19.7,10081],[18.9,10166],[17.8,10248],[16.4,10331],[15.6,10415],[13.6,10498],[13.1,10581],[13,10664],[12.9,10748],[12.6,10831],[12.5,10915],[12.5,10998],[12.2,11081],[11.9,11165],[11.4,11248],[11.4,11331],[11.4,11414],[11.4,11498],[11.4,11581],[11.4,11664],[11.4,11748],[12.3,11831],[13.2,11914],[15.3,11998],[17.5,12081],[22.4,12166],[26.8,12248],[30.7,12331],[34.7,12415],[39.7,12498],[44.7,12581],[50.2,12665],[56.4,12748],[62,12832],[67.5,12915],[75.9,12997],[82.9,13081],[84.8,13164],[85.6,13248],[85.6,13331],[86.8,13415],[87.8,13497],[87.8,13581],[88.9,13665],[90.4,13748],[91.1,13831],[91.6,13914],[91.6,13997],[91.6,14081],[92.7,14164],[93,14247],[93,14331],[93,14414],[93,14497],[93,14581],[93,14664],[93,14747],[93,14831],[93,14914],[93,14997],[92.9,15081],[92.9,15164],[92.9,15247],[92.9,15330],[92.9,15414],[92.9,15497],[92.9,15580],[92.9,15664],[92.9,15747],[92.9,15831],[92.9,15914],[92.9,15997],[92.9,16080],[92.9,16164],[92.5,16247],[91.5,16331],[91.4,16414],[91.4,16497],[91.4,16581],[91.4,16664],[91.4,16747],[91.3,16831],[91.3,16914],[91.3,16997],[91.3,17080],[91.3,17164],[91.3,17247],[91.3,17330],[91.3,17414],[91.3,17497],[91.3,17580],[91.3,17664],[91.3,17747],[91.3,17830],[91.3,17913],[91.3,17997],[91.3,18080],[91.3,18163],[91.3,18247],[91.3,18330],[91.3,18413],[91.3,18497],[91.3,18580],[91.3,18663],[91.3,18747],[91.3,18830],[91.3,18913],[91.3,18997],[91.3,19080],[91.3,19163],[91.3,19247],[91.3,19330],[91.3,19413],[91.3,19497],[91.3,19580],[91.3,19663],[91.3,19747],[91.3,19830],[91.3,19913],[91.3,19997],[91.3,20080],[91.3,20163],[91.3,20247],[91.3,20330],[91.3,20413],[91.3,20497],[91.3,20580],[91.3,20663],[91.3,20746],[91.3,20830],[91.3,20913],[91.3,20996]]",1338.9052,1342.4542,91.04166667,3.5291,"[{""rating"":91.04166666666667,""responseTime"":3.5291000000238455}]",space,1.183,,1342.4542,Not at all,0,1342.4563,,,[],,0,16,16,16,1,audio/Narrative8Situation7.wav,audio/Narrative7Situation7.wav,audio/Narrative6Situation7.wav,audio/Narrative5Situation7.wav,3,5,5,4,,,,,,,,,,,,,,,,,,,,,,,,,,,,,,,,,,,,,,,
