consent.started,consent.stopped,consentResponse.keys,consentResponse.rt,consentResponse.duration,participantID,date,expName,psychopyVersion,OS,frameRate,STUDY_ID,SESSION_ID,opening1.started,opening1.stopped,keyEndingOpening1.keys,keyEndingOpening1.rt,keyEndingOpening1.duration,volumeAdjust.started,volumeAdjust.stopped,endingAdjust.keys,endingAdjust.rt,endingAdjust.duration,opening2.started,opening2.stopped,keyEndingOpening.keys,keyEndingOpening.rt,keyEndingOpening.duration,mouse.x,mouse.y,mouse.leftButton,mouse.midButton,mouse.rightButton,mouse.time,instructionLoop.thisRepN,instructionLoop.thisTrialN,instructionLoop.thisN,instructionLoop.thisIndex,instructionLoop.ran,readyForAudio.started,readyForAudio.stopped,fixation.started,run,audio_played,fixation.stopped,endPractice.keys,audioPre.started,audioPre.stopped,continuousResponses_audio,intRating.started,intRating.stopped,intQuestionSlider.response,intQuestionSlider.rt,intQuestionSlider.history,confirmResponse.keys,confirmResponse.rt,confirmResponse.duration,catchQuestion.started,catch_label,catch_value,catchQuestion.stopped,catchQuestionSlider.response,catchQuestionSlider.rt,catchQuestionSlider.history,confirmResponse_2.keys,audioRunLoop.thisRepN,audioRunLoop.thisTrialN,audioRunLoop.thisN,audioRunLoop.thisIndex,audioRunLoop.ran,conditions1_1,conditions2_1,conditions1_2,conditions2_2,dur1_1,dur2_1,dur1_2,dur2_2,endPractice.rt,endPractice.duration,confirmResponse_2.rt,confirmResponse_2.duration,runIntervalBreak.started,runIntervalBreak.stopped,endingBreakKey.keys,endingBreakKey.rt,endingBreakKey.duration,connection.started,connection.stopped,connectionEnding.keys,connectionEnding.rt,connectionEnding.duration,readyForText.started,readyForText.stopped,textPre.started,run_dup,textPre.stopped,continuousResponses_text,textRunLoop.thisRepN,textRunLoop.thisTrialN,textRunLoop.thisN,textRunLoop.thisIndex,textRunLoop.ran,text1_1,text1_2,text2_1,text2_2,runBreakText.started,runBreakText.stopped,endingBreakKey_2.keys,endingBreakKey_2.rt,endingBreakKey_2.duration,ending.started,ending.stopped,endingEnding.keys,endingEnding.rt,endingEnding.duration
0.0011,23.1985,y,22.4342,,670debf636edeecf039af7f6,2025-07-07_22h42.50.585,group3.4_multiperson,2023.2.2,Win32,59.88023952,686c2ebf0248f13bef9af11f,686c93578c20f19c300d8a2a,,,,,,,,,,,,,,,,,,,,,,,,,,,,,,,,,,,,,,,,,,,,,,,,,,,,,,,,,,,,,,,,,,,,,,,,,,,,,,,,,,,,,,,,,,,,,,,,,,,,,,,,
,,,,,670debf636edeecf039af7f6,2025-07-07_22h42.50.585,group3.4_multiperson,2023.2.2,Win32,59.88023952,686c2ebf0248f13bef9af11f,686c93578c20f19c300d8a2a,23.1988,89.6013,space,66.261,,,,,,,,,,,,,,,,,,,,,,,,,,,,,,,,,,,,,,,,,,,,,,,,,,,,,,,,,,,,,,,,,,,,,,,,,,,,,,,,,,,,,,,,,,,,,,,,,,,,
,,,,,670debf636edeecf039af7f6,2025-07-07_22h42.50.585,group3.4_multiperson,2023.2.2,Win32,59.88023952,686c2ebf0248f13bef9af11f,686c93578c20f19c300d8a2a,,,,,,89.6015,117.7396,space,27.7946,,,,,,,,,,,,,,,,,,,,,,,,,,,,,,,,,,,,,,,,,,,,,,,,,,,,,,,,,,,,,,,,,,,,,,,,,,,,,,,,,,,,,,,,,,,,,,,
,,,,,670debf636edeecf039af7f6,2025-07-07_22h42.50.585,group3.4_multiperson,2023.2.2,Win32,59.88023952,686c2ebf0248f13bef9af11f,686c93578c20f19c300d8a2a,,,,,,,,,,,117.771,134.1732,space,16.3743,,[],[],[],[],[],[],0,0,0,0,1,,,,,,,,,,,,,,,,,,,,,,,,,,,,,,,,,,,,,,,,,,,,,,,,,,,,,,,,,,,,,,,,,,,,,,,,,,,,,,
,,,,,670debf636edeecf039af7f6,2025-07-07_22h42.50.585,group3.4_multiperson,2023.2.2,Win32,59.88023952,686c2ebf0248f13bef9af11f,686c93578c20f19c300d8a2a,,,,,,,,,,,134.1946,189.2739,space,54.9277,,[],[],[],[],[],[],1,0,1,0,1,,,,,,,,,,,,,,,,,,,,,,,,,,,,,,,,,,,,,,,,,,,,,,,,,,,,,,,,,,,,,,,,,,,,,,,,,,,,,,
,,,,,670debf636edeecf039af7f6,2025-07-07_22h42.50.585,group3.4_multiperson,2023.2.2,Win32,59.88023952,686c2ebf0248f13bef9af11f,686c93578c20f19c300d8a2a,,,,,,,,,,,189.293,226.3748,space,36.9615,,[],[],[],[],[],[],2,0,2,0,1,,,,,,,,,,,,,,,,,,,,,,,,,,,,,,,,,,,,,,,,,,,,,,,,,,,,,,,,,,,,,,,,,,,,,,,,,,,,,,
,,,,,670debf636edeecf039af7f6,2025-07-07_22h42.50.585,group3.4_multiperson,2023.2.2,Win32,59.88023952,686c2ebf0248f13bef9af11f,686c93578c20f19c300d8a2a,,,,,,,,,,,226.389,297.5455,space,71.1295,,[],[],[],[],[],[],3,0,3,0,1,,,,,,,,,,,,,,,,,,,,,,,,,,,,,,,,,,,,,,,,,,,,,,,,,,,,,,,,,,,,,,,,,,,,,,,,,,,,,,
,,,,,670debf636edeecf039af7f6,2025-07-07_22h42.50.585,group3.4_multiperson,2023.2.2,Win32,59.88023952,686c2ebf0248f13bef9af11f,686c93578c20f19c300d8a2a,,,,,,,,,,,297.5713,328.0788,space,30.4381,,[],[],[],[],[],[],4,0,4,0,1,,,,,,,,,,,,,,,,,,,,,,,,,,,,,,,,,,,,,,,,,,,,,,,,,,,,,,,,,,,,,,,,,,,,,,,,,,,,,,
,,,,,670debf636edeecf039af7f6,2025-07-07_22h42.50.585,group3.4_multiperson,2023.2.2,Win32,59.88023952,686c2ebf0248f13bef9af11f,686c93578c20f19c300d8a2a,,,,,,,,,,,328.0991,424.9854,space,96.8037,,[],[],[],[],[],[],5,0,5,0,1,,,,,,,,,,,,,,,,,,,,,,,,,,,,,,,,,,,,,,,,,,,,,,,,,,,,,,,,,,,,,,,,,,,,,,,,,,,,,,
,,,,,670debf636edeecf039af7f6,2025-07-07_22h42.50.585,group3.4_multiperson,2023.2.2,Win32,59.88023952,686c2ebf0248f13bef9af11f,686c93578c20f19c300d8a2a,,,,,,,,,,,,,,,,,,,,,,,,,,,425.0079,427.5824,427.7367,1,audio/Narrative13Situation2.wav,429.7481,,429.7498,459.5225,"[[999,1],[999,196],[999,279],[999,362],[999,446],[999,529],[999,612],[999,696],[999,779],[999,863],[999,945],[999,1028],[999,1112],[999,1195],[999,1278],[999,1361],[999,1445],[999,1528],[999,1611],[999,1695],[999,1778],[999,1861],[999,1945],[999,2028],[999,2111],[999,2195],[999,2278],[999,2361],[999,2444],[999,2527],[999,2610],[999,2694],[999,2777],[999,2861],[999,2944],[999,3027],[999,3110],[999,3194],[999,3277],[999,3360],[999,3443],[999,3526],[999,3610],[999,3693],[999,3776],[999,3859],[999,3943],[999,4026],[999,4109],[999,4192],[999,4276],[999,4359],[999,4442],[999,4525],[999,4609],[999,4692],[999,4776],[999,4859],[999,4942],[999,5027],[999,5109],[74.5,5192],[75.1,5275],[75.1,5358],[75.1,5441],[75.1,5525],[75.1,5608],[75.1,5691],[75.1,5774],[75.1,5858],[75.1,5941],[78.4,6025],[83,6108],[84.9,6191],[84.9,6274],[84.9,6357],[84.9,6440],[84.9,6524],[85.8,6608],[86.5,6690],[86.8,6773],[86.9,6857],[86.9,6940],[86.9,7023],[86.9,7107],[86.9,7190],[86.9,7273],[86.9,7356],[86.9,7439],[86.9,7523],[86.9,7606],[86.9,7689],[86.9,7773],[86.9,7856],[86.9,7939],[86.9,8023],[86.9,8106],[86.9,8189],[86.9,8272],[86.9,8355],[86.9,8439],[86.9,8522],[86.9,8605],[86.9,8690],[86.9,8772],[86.9,8855],[86.9,8938],[86.9,9022],[86.9,9105],[86.9,9188],[86.9,9272],[86.9,9355],[86.9,9438],[86.9,9521],[86.9,9605],[86.9,9688],[86.9,9771],[86.9,9854],[86.9,9937],[86.9,10021],[86.9,10104],[86.9,10187],[86.9,10271],[86.9,10354],[86.9,10437],[86.9,10520],[86.9,10604],[86.9,10687],[86.9,10771],[86.9,10853],[86.9,10937],[86.9,11020],[86.9,11103],[86.9,11186],[86.9,11269],[86.9,11353],[86.9,11436],[86.9,11520],[86.9,11603],[86.9,11686],[86.9,11769],[86.9,11852],[86.9,11936],[86.9,12019],[86.9,12103],[86.9,12185],[86.9,12269],[86.9,12352],[86.9,12435],[86.9,12518],[86.9,12602],[86.9,12685],[86.9,12769],[86.9,12851],[86.9,12935],[86.9,13018],[86.9,13101],[86.9,13184],[86.9,13268],[86.9,13351],[86.9,13435],[86.9,13518],[86.9,13602],[86.9,13684],[86.9,13767],[86.9,13851],[86.9,13934],[86.9,14017],[86.9,14101],[86.9,14184],[86.9,14267],[86.9,14350],[86.9,14434],[86.9,14517],[86.9,14600],[86.9,14683],[86.9,14767],[86.9,14850],[86.9,14933],[86.9,15017],[86.9,15100],[86.9,15183],[86.9,15266],[86.9,15349],[86.9,15433],[86.9,15516],[86.9,15600],[86.9,15682],[86.9,15766],[86.9,15849],[86.9,15932],[86.9,16016],[86.9,16099],[86.9,16182],[86.9,16265],[86.9,16349],[86.9,16432],[86.9,16515],[86.9,16599],[86.9,16682],[86.9,16765],[86.9,16848],[86.9,16931],[86.9,17015],[86.9,17098],[86.9,17182],[86.9,17265],[86.9,17348],[86.9,17431],[86.9,17514],[86.9,17598],[86.9,17681],[86.9,17764],[86.9,17848],[86.9,17931],[86.9,18014],[86.9,18097],[86.9,18181],[86.9,18264],[86.9,18347],[86.9,18430],[86.9,18513],[86.9,18598],[86.9,18680],[86.9,18763],[86.9,18847],[86.9,18930],[86.9,19013],[86.9,19096],[86.9,19179],[86.9,19263],[86.9,19346],[86.9,19429],[86.9,19513],[86.9,19596],[86.9,19679],[86.9,19762],[86.9,19846],[86.9,19929],[86.9,20012],[86.9,20095],[86.9,20178],[86.9,20262],[86.9,20345],[86.9,20428],[86.9,20512],[86.9,20595],[86.9,20678],[86.9,20762],[86.9,20845],[86.9,20928],[86.9,21011],[86.9,21095],[86.9,21178],[86.9,21261],[86.9,21344],[86.9,21428],[86.9,21511],[86.9,21594],[86.9,21677],[86.9,21760],[86.9,21844],[86.9,21927],[86.9,22010],[86.9,22094],[86.9,22177],[86.9,22260],[86.9,22343],[86.9,22427],[86.9,22510],[86.9,22593],[86.9,22676],[86.9,22759],[86.9,22843],[86.9,22926],[86.9,23009],[86.9,23093],[86.9,23176],[86.9,23259],[86.9,23342],[86.9,23426],[86.9,23509],[86.9,23592],[86.9,23676],[86.9,23759],[86.9,23842],[86.9,23925],[86.9,24009],[86.9,24092],[86.9,24175],[86.9,24258],[86.9,24342],[86.9,24425],[86.9,24508],[86.9,24591],[86.9,24675],[86.9,24758],[86.9,24841],[86.9,24925],[86.9,25008],[86.9,25091],[86.9,25174],[86.9,25257],[86.9,25340],[86.9,25424],[86.9,25507],[86.9,25591],[86.9,25674],[86.9,25757],[86.9,25840],[86.9,25924],[86.9,26007],[86.9,26090],[86.9,26174],[86.9,26257],[86.9,26340],[86.9,26423],[86.9,26506],[86.9,26590],[86.9,26673],[86.9,26756],[86.9,26839],[86.9,26923],[86.9,27006],[86.9,27089],[86.9,27172],[86.9,27256],[86.9,27339],[86.9,27422],[86.9,27506],[86.9,27589],[86.9,27672],[86.9,27756],[86.9,27838],[86.9,27922],[86.9,28005],[86.9,28088],[86.9,28171],[86.9,28255],[86.9,28338],[86.9,28421],[86.9,28504],[86.9,28588],[86.9,28671],[86.9,28754],[86.9,28837],[86.9,28921],[86.9,29004],[86.9,29087],[86.9,29171],[86.9,29254],[86.9,29337],[86.9,29421],[86.9,29504],[86.9,29587],[86.9,29677],[86.9,29753]]",459.5237,471.3614,86.87500954,9.1868,"[{""rating"":86.87500953674316,""responseTime"":9.186799999952314}]",space,11.2912,,471.3633,Partially,50,471.3712,,,[],,0,0,0,0,1,audio/Narrative13Situation2.wav,audio/Narrative13Situation2.wav,audio/Narrative13Situation2.wav,audio/Narrative13Situation2.wav,2,2,2,2,,,,,,,,,,,,,,,,,,,,,,,,,,,,,,,,,,,,,,,
,,,,,670debf636edeecf039af7f6,2025-07-07_22h42.50.585,group3.4_multiperson,2023.2.2,Win32,59.88023952,686c2ebf0248f13bef9af11f,686c93578c20f19c300d8a2a,,,,,,,,,,,,,,,,,,,,,,,,,,,,,471.3718,1,audio/Narrative7Situation1.wav,476.2926,space,476.2929,532.2072,"[[89.7,5592],[89.6,5675],[84.4,5759],[82.7,5841],[82.5,5924],[81.4,6008],[80.8,6090],[80.7,6174],[80.7,6257],[80.7,6341],[80.7,6423],[80.7,6507],[80.7,6590],[80.7,6673],[80.7,6757],[80.7,6840],[80.7,6923],[80.7,7006],[80.7,7090],[80.7,7173],[80.7,7256],[80.7,7339],[80.7,7423],[80.7,7506],[80.7,7589],[80.7,7672],[80.7,7756],[80.7,7839],[80.7,7922],[80.7,8005],[80.7,8089],[80.7,8172],[80.7,8255],[80.7,8339],[80.7,8422],[80.7,8505],[80.7,8588],[80.7,8672],[80.7,8755],[80.7,8838],[80.7,8921],[80.7,9005],[80.7,9088],[80.7,9171],[80.7,9254],[80.7,9337],[80.7,9421],[80.7,9504],[80.7,9587],[80.7,9671],[80.7,9754],[80.7,9837],[80.7,9920],[80.7,10004],[80.7,10087],[80.7,10170],[80.7,10254],[80.7,10337],[80.7,10420],[80.7,10503],[80.7,10586],[80.7,10670],[80.7,10753],[80.7,10836],[80.7,10920],[80.7,11003],[80.7,11086],[80.7,11169],[80.7,11253],[80.7,11336],[80.7,11419],[80.7,11502],[80.7,11586],[80.7,11668],[80.7,11752],[80.7,11836],[80.7,11918],[80.7,12002],[80.7,12085],[80.7,12168],[80.7,12251],[80.7,12335],[80.7,12418],[80.7,12502],[80.7,12585],[80.7,12668],[80.7,12751],[80.7,12835],[80.7,12918],[80.7,13001],[80.7,13084],[80.7,13168],[80.7,13251],[80.7,13334],[80.7,13418],[80.7,13501],[80.7,13584],[80.7,13667],[80.7,13750],[80.7,13834],[80.7,13917],[80.7,14000],[80.7,14084],[80.7,14167],[80.7,14250],[80.7,14334],[80.7,14417],[80.7,14500],[80.7,14583],[80.7,14667],[80.7,14750],[80.7,14833],[80.7,14916],[80.7,14999],[80.7,15083],[80.7,15166],[80.7,15249],[80.7,15332],[80.7,15416],[80.7,15499],[80.7,15582],[80.7,15665],[80.7,15749],[80.7,15832],[80.7,15915],[80.7,15998],[80.7,16081],[80.7,16165],[80.7,16248],[80.7,16331],[80.7,16415],[80.7,16498],[80.7,16581],[80.7,16664],[80.7,16748],[80.7,16831],[80.7,16914],[80.7,16997],[80.7,17081],[80.7,17164],[80.7,17247],[80.7,17330],[80.7,17414],[80.7,17497],[80.7,17580],[80.7,17663],[80.7,17747],[80.7,17830],[80.7,17913],[80.7,17997],[80.7,18080],[80.7,18163],[80.7,18246],[80.7,18330],[80.7,18413],[80.7,18496],[80.7,18580],[80.7,18663],[80.7,18746],[80.7,18830],[80.7,18913],[80.7,18996],[80.7,19079],[80.7,19162],[80.7,19246],[80.7,19329],[80.7,19412],[80.7,19496],[80.7,19579],[80.7,19662],[80.7,19745],[80.7,19828],[80.7,19912],[80.7,19995],[80.7,20078],[80.7,20162],[80.7,20245],[80.7,20328],[80.7,20411],[80.7,20494],[80.7,20578],[80.7,20661],[80.7,20744],[80.7,20828],[80.7,20911],[80.7,20994],[80.7,21078],[80.7,21161],[80.7,21244],[80.7,21327],[80.7,21410],[80.7,21494],[80.7,21577],[80.7,21660],[80.7,21744],[80.7,21827],[80.7,21910],[80.7,21993],[80.7,22077],[80.7,22160],[80.7,22243],[80.7,22326],[80.7,22409],[80.7,22493],[80.7,22576],[80.7,22659],[80.7,22743],[80.7,22826],[80.7,22909],[80.7,22993],[80.7,23076],[80.7,23159],[80.7,23242],[80.7,23326],[80.7,23409],[80.7,23492],[80.7,23575],[80.7,23660],[80.7,23742],[80.7,23825],[80.7,23908],[80.7,23992],[80.7,24075],[80.7,24158],[80.7,24241],[80.7,24325],[80.7,24408],[80.7,24491],[80.7,24575],[80.7,24658],[80.7,24741],[80.7,24824],[80.7,24908],[80.7,24991],[80.7,25074],[80.7,25157],[80.7,25240],[80.7,25324],[80.7,25407],[80.7,25490],[80.7,25573],[80.7,25657],[80.7,25740],[80.7,25823],[80.7,25906],[80.7,25990],[80.7,26073],[80.7,26156],[80.7,26239],[80.7,26323],[80.7,26406],[80.7,26489],[80.7,26573],[80.7,26656],[80.7,26739],[80.7,26822],[80.7,26906],[80.7,26989],[80.7,27072],[80.7,27155],[80.7,27239],[80.7,27322],[80.7,27405],[80.7,27488],[80.7,27571],[80.7,27655],[80.7,27738],[80.7,27821],[80.7,27905],[80.7,27988],[80.7,28071],[80.7,28155],[80.7,28240],[80.7,28321],[80.7,28405],[80.7,28488],[80.7,28571],[80.7,28654],[80.7,28737],[80.7,28821],[80.7,28904],[80.7,28987],[80.7,29070],[80.7,29153],[80.7,29237],[80.7,29320],[80.7,29404],[80.7,29487],[80.7,29570],[80.7,29653],[80.7,29737],[80.7,29820],[80.7,29903],[80.7,29987],[80.7,30070],[80.7,30153],[80.7,30236],[80.7,30319],[80.7,30403],[80.7,30486],[80.7,30569],[80.7,30653],[80.7,30735],[80.7,30819],[80.7,30902],[80.7,30985],[80.7,31069],[80.7,31152],[80.7,31235],[80.7,31319],[80.7,31402],[80.7,31485],[80.7,31569],[80.7,31652],[80.7,31735],[80.7,31818],[80.7,31901],[80.7,31985],[80.7,32068],[80.7,32151],[80.7,32234],[80.7,32317],[80.7,32401],[80.7,32484],[80.7,32567],[80.7,32651],[80.7,32734],[80.7,32817],[80.7,32900],[80.7,32984],[80.7,33067],[80.7,33150],[80.7,33233],[80.7,33317],[80.7,33400],[80.7,33484],[80.7,33567],[80.7,33650],[80.7,33733],[80.7,33816],[80.7,33899],[80.7,33983],[80.7,34066],[80.7,34149],[80.7,34234],[80.7,34316],[80.7,34399],[80.7,34483],[80.7,34566],[80.7,34649],[80.7,34732],[80.7,34815],[80.7,34899],[80.7,34982],[80.7,35065],[80.7,35148],[80.7,35232],[80.7,35315],[80.7,35399],[80.7,35482],[80.7,35565],[80.7,35648],[80.7,35731],[80.7,35815],[80.7,35898],[80.7,35981],[80.7,36065],[80.7,36148],[80.7,36231],[80.7,36314],[80.7,36398],[80.7,36481],[80.7,36564],[80.7,36647],[80.7,36730],[80.7,36814],[80.7,36897],[80.7,36980],[80.7,37064],[80.7,37147],[80.7,37230],[80.7,37314],[80.7,37397],[80.7,37480],[80.7,37563],[80.7,37646],[80.7,37730],[80.7,37813],[80.7,37896],[80.7,37980],[80.7,38063],[80.7,38146],[80.7,38229],[80.7,38312],[80.7,38396],[80.7,38479],[80.7,38562],[80.7,38646],[80.7,38729],[80.7,38812],[80.7,38895],[80.7,38978],[80.7,39062],[80.7,39145],[80.7,39228],[80.7,39312],[80.7,39395],[80.7,39479],[80.7,39561],[80.7,39645],[80.7,39727],[80.7,39811],[80.7,39894],[80.7,39978],[80.7,40061],[80.7,40144],[80.7,40229],[80.7,40311],[80.7,40394],[80.7,40477],[80.7,40561],[80.7,40644],[80.7,40727],[80.7,40810],[80.7,40894],[80.7,40977],[80.7,41060],[80.7,41144],[80.7,41226],[80.7,41310],[80.7,41393],[80.7,41476],[80.7,41559],[80.7,41643],[80.7,41726],[80.7,41810],[80.7,41893],[80.7,41976],[80.7,42059],[80.7,42142],[80.7,42226],[80.7,42309],[80.7,42393],[80.7,42476],[80.7,42559],[80.7,42642],[80.7,42725],[80.7,42808],[80.7,42892],[80.7,42975],[80.7,43058],[80.7,43142],[80.7,43225],[80.7,43308],[80.7,43391],[80.7,43475],[80.7,43558],[80.7,43641],[80.7,43724],[80.7,43808],[80.7,43891],[80.7,43974],[80.7,44057],[80.7,44140],[80.7,44224],[80.7,44307],[80.7,44391],[80.7,44474],[80.7,44557],[80.7,44640],[80.7,44723],[80.7,44806],[80.7,44890],[80.7,44973],[80.7,45056],[80.7,45140],[80.7,45223],[80.7,45306],[80.7,45389],[80.7,45473],[80.7,45556],[80.7,45639],[80.7,45722],[80.7,45806],[80.7,45889],[80.7,45972],[80.7,46055],[80.7,46139],[80.7,46222],[80.7,46305],[80.7,46388],[80.7,46473],[80.7,46555],[80.7,46638],[80.7,46721],[80.7,46805],[80.7,46888],[80.7,46971],[80.7,47055],[80.7,47138],[80.7,47221],[80.7,47304],[80.7,47388],[80.7,47471],[80.7,47554],[80.7,47638],[80.7,47721],[80.7,47804],[80.7,47887],[80.7,47971],[80.7,48054],[80.7,48137],[80.7,48220],[80.7,48304],[80.7,48387],[80.7,48470],[80.7,48554],[80.7,48637],[80.7,48720],[80.7,48803],[80.7,48887],[80.7,48971],[80.7,49053],[80.7,49136],[80.7,49220],[80.7,49303],[80.7,49386],[80.7,49469],[80.7,49552],[80.7,49636],[80.7,49719],[80.7,49802],[80.7,49886],[80.7,49969],[80.7,50052],[80.7,50135],[80.7,50218],[80.7,50302],[80.7,50385],[80.7,50469],[80.7,50552],[80.7,50635],[80.7,50718],[80.7,50802],[80.7,50885],[80.7,50968],[80.7,51051],[80.7,51134],[80.7,51218],[80.7,51301],[80.7,51384],[80.7,51468],[80.7,51551],[80.7,51634],[80.7,51717],[80.7,51801],[80.7,51884],[80.7,51967],[80.7,52051],[80.7,52134],[80.7,52217],[80.7,52300],[80.7,52384],[80.7,52466],[80.7,52550],[80.7,52633],[80.7,52716],[80.7,52800],[80.7,52883],[80.7,52966],[80.7,53049],[80.7,53133],[80.7,53216],[80.7,53299],[80.7,53383],[80.7,53466],[80.7,53549],[80.7,53633],[80.7,53716],[80.7,53799],[80.7,53882],[80.7,53965],[80.7,54049],[80.7,54132],[80.7,54215],[80.7,54299],[80.7,54382],[80.7,54465],[80.7,54548],[80.7,54631],[80.7,54715],[80.7,54798],[80.7,54882],[80.7,54965],[80.7,55048],[80.7,55131],[80.7,55214],[80.7,55298],[80.7,55381],[80.7,55464],[80.7,55547],[80.7,55631],[80.7,55714],[80.7,55798],[80.7,55880]]",532.2079,537.5945,85.72916985,3.9666,"[{""rating"":85.72916984558105,""responseTime"":3.417400000095313},{""rating"":85.72916984558105,""responseTime"":3.9666000000238455}]",space,4.8459,,537.5947,Definitely yes,100,537.6057,,,[],,0,1,1,1,1,audio/Narrative7Situation1.wav,audio/Narrative8Situation1.wav,audio/Narrative5Situation1.wav,audio/Narrative6Situation1.wav,2,5,5,2,4.8892,,,,,,,,,,,,,,,,,,,,,,,,,,,,,,,,,,,,,,
,,,,,670debf636edeecf039af7f6,2025-07-07_22h42.50.585,group3.4_multiperson,2023.2.2,Win32,59.88023952,686c2ebf0248f13bef9af11f,686c93578c20f19c300d8a2a,,,,,,,,,,,,,,,,,,,,,,,,,,,,,537.6061,1,audio/Narrative7Situation2.wav,540.6165,,540.6166,548.11,"[[84.6,7460]]",548.1102,553.4887,83.22916826,3.6555,"[{""rating"":83.22916825612386,""responseTime"":3.6555000000000746}]",space,4.8328,,553.489,Not at all,0,553.4979,,,[],,0,2,2,2,1,audio/Narrative7Situation2.wav,audio/Narrative8Situation2.wav,audio/Narrative5Situation2.wav,audio/Narrative6Situation2.wav,3,3,3,3,,,,,,,,,,,,,,,,,,,,,,,,,,,,,,,,,,,,,,,
,,,,,670debf636edeecf039af7f6,2025-07-07_22h42.50.585,group3.4_multiperson,2023.2.2,Win32,59.88023952,686c2ebf0248f13bef9af11f,686c93578c20f19c300d8a2a,,,,,,,,,,,,,,,,,,,,,,,,,,,,,553.4983,1,audio/Narrative7Situation3.wav,561.4989,,561.4991,570.7573,"[[83.9,7443],[84.2,7525],[84.3,7609],[84.3,7692],[84.3,7775],[84.6,7859],[84.8,7942],[85.2,8026],[86.1,8110],[86.5,8192],[86.9,8275],[87.1,8358],[87.1,8441],[87.1,8524],[87.1,8608],[87.1,8691],[87.1,8774],[87.1,8858],[87.1,8941],[87.1,9024],[87.1,9107],[87.1,9191]]",570.7575,574.8279,88.43750954,1.8546,"[{""rating"":88.43750953674316,""responseTime"":1.8546000000238791}]",space,3.5373,,574.8282,Partially,50,574.8327,,,[],,0,3,3,3,1,audio/Narrative7Situation3.wav,audio/Narrative8Situation3.wav,audio/Narrative5Situation3.wav,audio/Narrative6Situation3.wav,8,4,3,5,,,,,,,,,,,,,,,,,,,,,,,,,,,,,,,,,,,,,,,
,,,,,670debf636edeecf039af7f6,2025-07-07_22h42.50.585,group3.4_multiperson,2023.2.2,Win32,59.88023952,686c2ebf0248f13bef9af11f,686c93578c20f19c300d8a2a,,,,,,,,,,,,,,,,,,,,,,,,,,,,,574.833,1,audio/Narrative7Situation4.wav,577.8348,,577.8351,589.5745,"[[88.1,11697]]",589.5746,594.9604,48.33333492,3.5377,"[{""rating"":48.33333492279053,""responseTime"":3.537700000047721}]",space,4.8303,,594.9607,Not at all,0,594.9708,,,[],,0,4,4,4,1,audio/Narrative7Situation4.wav,audio/Narrative8Situation4.wav,audio/Narrative5Situation4.wav,audio/Narrative6Situation4.wav,3,3,1,2,,,,,,,,,,,,,,,,,,,,,,,,,,,,,,,,,,,,,,,
,,,,,670debf636edeecf039af7f6,2025-07-07_22h42.50.585,group3.4_multiperson,2023.2.2,Win32,59.88023952,686c2ebf0248f13bef9af11f,686c93578c20f19c300d8a2a,,,,,,,,,,,,,,,,,,,,,,,,,,,,,594.9727,1,audio/Narrative7Situation5.wav,599.9823,,599.9827,608.4753,"[[59.6,5311],[65.4,5394],[68.1,5477],[70.4,5561],[72.4,5643],[73.3,5726],[73.3,5809],[75,5893],[75.9,5976],[75.9,6059],[75.9,6143],[75.9,6226],[75.9,6309],[75.9,6393],[75.9,6476],[75.9,6559],[75.9,6642],[75.9,6726],[75.9,6809],[75.9,6892],[75.9,6975],[75.9,7059],[75.9,7142],[75.9,7225],[75.9,7308],[75.9,7392],[75.9,7475],[75.9,7558],[75.9,7641],[75.9,7725],[75.9,7808],[75.9,7891],[75.9,7974],[75.9,8058],[75.9,8141],[75.9,8224],[75.9,8308],[75.9,8391],[75.9,8474]]",608.4757,613.9026,72.70833651,2.0296,"[{""rating"":72.70833651224771,""responseTime"":2.0296000000238337}]",space,4.8832,,613.903,Definitely yes,100,613.9202,,,[],,0,5,5,5,1,audio/Narrative7Situation5.wav,audio/Narrative8Situation5.wav,audio/Narrative5Situation5.wav,audio/Narrative6Situation5.wav,5,2,5,2,,,,,,,,,,,,,,,,,,,,,,,,,,,,,,,,,,,,,,,
,,,,,670debf636edeecf039af7f6,2025-07-07_22h42.50.585,group3.4_multiperson,2023.2.2,Win32,59.88023952,686c2ebf0248f13bef9af11f,686c93578c20f19c300d8a2a,,,,,,,,,,,,,,,,,,,,,,,,,,,,,613.9211,1,audio/Narrative7Situation6.wav,616.9338,,616.934,626.908,"[[73.1,4196],[74.7,4278],[75.5,4362],[75.5,4444],[75.5,4528],[75.5,4611],[75.5,4694],[75.5,4778],[75.5,4861],[75.5,4944],[75.5,5027],[75.5,5111],[75.5,5195],[75.5,5277],[75.5,5361],[75.5,5444],[75.5,5527],[75.5,5610],[75.5,5693],[75.5,5777],[75.5,5860],[75.5,5944],[75.5,6027],[75.5,6110],[75.5,6193],[75.5,6276],[75.5,6360],[75.5,6443],[75.5,6526],[75.5,6610],[75.5,6693],[75.5,6776],[75.5,6859],[75.5,6942],[75.5,7026],[75.5,7109],[75.5,7192],[75.5,7276],[75.5,7359],[75.5,7442],[75.5,7525],[75.5,7608],[75.5,7692],[75.5,7775],[75.5,7859],[75.5,7942],[75.5,8025],[75.5,8108],[75.5,8191],[75.5,8275],[75.5,8358],[75.5,8441],[75.5,8524],[75.5,8608],[75.5,8692],[75.5,8774],[75.5,8857],[75.5,8941],[75.5,9024],[75.5,9107],[75.5,9190],[75.5,9274],[75.5,9357],[75.5,9441],[75.5,9524],[75.5,9607],[75.5,9690],[75.5,9773],[75.5,9857],[75.5,9940]]",626.9084,629.8058,69.27083333,1.898,"[{""rating"":69.27083333333334,""responseTime"":1.8980000000000246}]",space,2.3502,,629.8059,Definitely yes,100,629.8119,,,[],,0,6,6,6,1,audio/Narrative7Situation6.wav,audio/Narrative8Situation6.wav,audio/Narrative5Situation6.wav,audio/Narrative6Situation6.wav,3,2,3,2,,,,,,,,,,,,,,,,,,,,,,,,,,,,,,,,,,,,,,,
,,,,,670debf636edeecf039af7f6,2025-07-07_22h42.50.585,group3.4_multiperson,2023.2.2,Win32,59.88023952,686c2ebf0248f13bef9af11f,686c93578c20f19c300d8a2a,,,,,,,,,,,,,,,,,,,,,,,,,,,,,629.8124,1,audio/Narrative7Situation7.wav,634.8187,,634.8189,652.0026,"[[68.9,3628],[68.9,3711],[68.9,3794],[68.9,3878],[68.9,3961],[68.9,4044],[68.9,4128],[68.9,4211],[68.9,4294],[68.9,4377],[68.9,4461],[68.9,4544],[68.9,4627],[68.9,4711],[68.9,4794],[68.9,4877],[68.9,4960],[68.9,5044],[68.9,5127],[68.9,5210],[68.9,5293],[68.9,5377],[68.9,5460],[68.9,5543],[68.9,5627],[68.9,5710],[68.9,5793],[68.9,5876],[68.9,5960],[68.9,6043],[68.9,6126],[68.9,6210],[68.9,6293],[68.9,6376],[68.9,6459],[68.9,6543],[68.9,6626],[68.9,6709],[68.9,6793],[68.9,6875],[68.9,6959],[68.9,7042],[68.9,7125],[68.9,7209],[68.9,7292],[68.9,7375],[68.9,7458],[68.9,7542],[68.9,7625],[68.9,7708],[68.9,7791],[68.9,7875],[68.9,7958],[68.9,8041],[68.9,8125],[68.9,8208],[68.9,8291],[68.9,8374],[68.9,8457],[68.9,8541],[68.9,8624],[68.9,8707],[68.9,8790],[68.9,8874],[68.9,8957],[68.9,9040],[68.9,9124],[68.9,9207],[68.9,9290],[68.9,9373],[68.9,9456],[68.9,9540],[68.9,9623],[68.9,9706],[68.9,9789],[72.2,9873],[77.4,9956],[80.3,10039],[82.1,10124],[84.5,10206],[84.5,10289],[84.5,10372],[84.5,10456],[84.5,10539],[84.5,10622],[84.5,10705],[84.5,10789],[84.5,10872],[84.5,10955],[84.5,11039],[84.5,11122],[84.5,11205],[84.5,11288],[84.5,11371],[84.5,11455],[84.5,11538],[84.5,11622],[84.5,11705],[84.5,11788],[84.5,11871],[84.5,11954],[84.5,12038],[84.5,12121],[84.5,12205],[84.5,12288],[84.5,12371],[84.5,12454],[84.5,12537],[84.5,12621],[84.5,12704],[84.5,12787],[84.5,12870],[84.5,12953],[84.5,13037],[84.5,13120],[84.5,13203],[84.5,13286],[84.5,13370],[84.5,13453],[84.5,13536],[84.5,13620],[84.5,13703],[84.5,13786],[84.5,13870],[84.5,13953],[84.5,14036],[84.5,14119],[84.5,14202],[84.5,14286],[84.5,14369],[84.5,14452],[84.5,14536],[84.5,14619],[84.5,14702],[84.5,14785],[84.5,14868],[84.5,14952],[84.5,15035],[84.5,15119],[84.5,15201],[84.5,15285],[84.5,15368],[84.5,15451],[84.5,15534],[84.5,15618],[84.5,15701],[84.5,15785],[84.5,15868],[84.5,15951],[84.5,16034],[84.5,16117],[84.5,16201],[84.5,16284],[84.5,16367],[84.5,16450],[84.5,16534],[84.5,16617],[84.5,16700],[84.5,16783],[84.5,16867],[84.5,16950],[84.5,17033],[84.5,17116]]",652.0028,657.9812,94.06250318,4.6532,"[{""rating"":94.06250317891438,""responseTime"":4.653199999928461}]",space,5.4357,,657.9814,Not at all,0,657.9911,,,[],,0,7,7,7,1,audio/Narrative7Situation7.wav,audio/Narrative8Situation7.wav,audio/Narrative5Situation7.wav,audio/Narrative6Situation7.wav,5,3,4,5,,,,,,,,,,,,,,,,,,,,,,,,,,,,,,,,,,,,,,,
,,,,,670debf636edeecf039af7f6,2025-07-07_22h42.50.585,group3.4_multiperson,2023.2.2,Win32,59.88023952,686c2ebf0248f13bef9af11f,686c93578c20f19c300d8a2a,,,,,,,,,,,,,,,,,,,,,,,,,,,,,657.9918,1,audio/Narrative7Situation8.wav,659.9955,,659.9956,670.021,"[[93.9,3033],[93.9,3113],[93.2,3197],[93,3280],[93,3363],[92.4,3447],[90.7,3530],[90.3,3613],[89.4,3698],[89.2,3780],[89.2,3863],[89.2,3946],[89.2,4029],[89.2,4112],[89.2,4196],[89.2,4279],[89.2,4363],[89.2,4446],[89.2,4529],[89.2,4612],[89.2,4696],[89.2,4779],[89.2,4862],[89.2,4945],[89.2,5029],[89.2,5112],[89.2,5195],[89.2,5278],[89.2,5361],[89.2,5445],[89.2,5528],[89.2,5611],[89.2,5695],[89.2,5778],[89.2,5861],[89.2,5944],[89.2,6028],[89.2,6111],[89.2,6194],[89.2,6277],[89.2,6360],[89.2,6444],[89.2,6527],[89.2,6610],[89.2,6694],[89.2,6777],[89.2,6860],[89.2,6943],[89.2,7027],[89.2,7110],[89.2,7193],[89.2,7276],[89.2,7360],[89.2,7443],[89.2,7526],[89.2,7610],[89.2,7693],[89.2,7776],[89.2,7860],[89.2,7943],[89.2,8026],[89.2,8109],[89.2,8192],[89.2,8276],[88.7,8365],[87.8,8442],[87.2,8525],[87.2,8608],[87.2,8692],[87.2,8775],[87.2,8859],[87.2,8942],[87.2,9025],[87.2,9108],[87.2,9191],[87.2,9275],[87.2,9358],[87.2,9441],[87.2,9524],[87.2,9608],[87.2,9691],[87.2,9774],[87.2,9858],[87.2,9941],[87.2,10024]]",670.0212,674.7994,85.72916985,3.8548,"[{""rating"":85.72916984558105,""responseTime"":3.85479999995232}]",space,4.2153,,674.7995,Definitely yes,100,674.8061,,,[],,0,8,8,8,1,audio/Narrative7Situation8.wav,audio/Narrative8Situation8.wav,audio/Narrative5Situation8.wav,audio/Narrative6Situation8.wav,2,3,3,5,,,,,,,,,,,,,,,,,,,,,,,,,,,,,,,,,,,,,,,
,,,,,670debf636edeecf039af7f6,2025-07-07_22h42.50.585,group3.4_multiperson,2023.2.2,Win32,59.88023952,686c2ebf0248f13bef9af11f,686c93578c20f19c300d8a2a,,,,,,,,,,,,,,,,,,,,,,,,,,,,,674.8064,1,audio/Narrative7Situation9.wav,676.814,,676.8141,685.4574,"[[85.1,4435],[84.1,4513],[84,4595],[83.6,4679],[83.6,4762],[83.6,4845],[83.6,4928],[83.6,5012],[83.6,5095],[83.6,5178],[83.6,5262],[83.6,5345],[83.6,5428],[83.6,5512],[83.6,5595],[83.8,5679],[84.4,5762],[85.2,5846],[85.4,5928],[85.4,6011],[85.4,6094],[85.4,6177],[85.4,6261],[85.4,6344],[85.4,6427],[85.4,6510],[85.4,6594],[85.4,6677],[85.4,6760],[85.4,6844],[85.4,6927],[85.4,7010],[85.4,7093],[85.4,7176],[85.4,7260],[85.4,7344],[85.4,7426],[85.4,7510],[85.4,7593],[85.4,7676],[85.4,7759],[85.4,7843],[85.4,7926],[85.4,8010],[85.4,8093],[85.4,8176],[85.4,8259],[85.4,8342],[85.4,8426],[85.4,8509],[85.4,8592]]",685.4578,688.3298,84.375,2.1543,"[{""rating"":84.375,""responseTime"":2.1543000000715438}]",space,2.3333,,688.3299,Partially,50,688.3342,,,[],,0,9,9,9,1,audio/Narrative7Situation9.wav,audio/Narrative8Situation9.wav,audio/Narrative5Situation9.wav,audio/Narrative6Situation9.wav,2,3,3,4,,,,,,,,,,,,,,,,,,,,,,,,,,,,,,,,,,,,,,,
,,,,,670debf636edeecf039af7f6,2025-07-07_22h42.50.585,group3.4_multiperson,2023.2.2,Win32,59.88023952,686c2ebf0248f13bef9af11f,686c93578c20f19c300d8a2a,,,,,,,,,,,,,,,,,,,,,,,,,,,,,688.3347,1,audio/Narrative8Situation1.wav,693.3399,,693.3399,709.27,"[[84.9,3940],[86.1,4023],[87,4106],[87,4189],[87,4272],[87,4355],[87,4439],[87,4523],[84.9,4606],[84.7,4689],[83.8,4773],[82.6,4856],[79.9,4939],[78.3,5022],[77.6,5105],[77.4,5188],[77.3,5271],[77.1,5355],[77.1,5439],[77.1,5521],[77.1,5605],[77.1,5688],[77.1,5771],[77.1,5854],[77.1,5937],[77.1,6021],[77.1,6104],[77.1,6187],[77.1,6270],[77.1,6354],[77.1,6437],[77.1,6520],[77.1,6604],[77.1,6687],[77.1,6771],[77.1,6854],[77.1,6937],[77.1,7020],[77.1,7103],[77.1,7187],[77.1,7270],[77.1,7353],[77.1,7436],[77.1,7519],[77.1,7603],[77.1,7686],[77.1,7769],[77.1,7853],[77.1,7936],[77.1,8019],[77.1,8102],[77.1,8186],[77.1,8269],[77.1,8352],[77.1,8436],[77.1,8519],[77.1,8602],[77.1,8685],[77.1,8769],[77.1,8852],[77.1,8935],[77.1,9018],[77.1,9102],[77.1,9185],[77.1,9268],[77.1,9351],[77.1,9435],[77.1,9518],[77.1,9601],[77.1,9685],[77.1,9768],[77.1,9851],[77.1,9934],[77.1,10017],[77.1,10101],[77.1,10184],[77.1,10267],[77.1,10351],[77.1,10434],[77.1,10517],[77.1,10600],[77.1,10684],[77.1,10767],[77.1,10850],[77.1,10933],[77.1,11017],[77.1,11100],[77.1,11183],[77.1,11266],[77.1,11349],[77.1,11433],[77.1,11516],[77.1,11599],[77.1,11683],[77.1,11766],[77.1,11849],[77.1,11932],[77.1,12016],[77.1,12099],[77.1,12182],[77.1,12265],[77.1,12348],[77.1,12432],[77.1,12515],[77.1,12598],[77.1,12682],[77.1,12765],[77.1,12848],[77.1,12931],[77.1,13014],[77.1,13098],[77.1,13181],[77.1,13265],[77.1,13348],[77.1,13431],[77.1,13514],[77.1,13597],[77.1,13681],[77.1,13764],[77.1,13847],[77.1,13931],[77.1,14014],[77.1,14097],[77.1,14180],[77.1,14264],[77.1,14347],[77.1,14431],[77.1,14514],[77.1,14597],[77.1,14680],[77.1,14763],[77.1,14846],[77.1,14930],[77.1,15013],[77.1,15096],[77.1,15180],[77.1,15263],[77.1,15346],[77.1,15429],[77.1,15513],[77.1,15596],[77.1,15679],[77.1,15762],[77.1,15846],[77.1,15929]]",709.2703,712.6166,82.50000477,1.9562,"[{""rating"":82.50000476837158,""responseTime"":1.9562000000477155}]",space,2.7961,,712.6168,Not at all,0,712.6246,,,[],,0,10,10,10,1,audio/Narrative8Situation1.wav,audio/Narrative7Situation1.wav,audio/Narrative6Situation1.wav,audio/Narrative5Situation1.wav,5,2,2,5,,,,,,,,,,,,,,,,,,,,,,,,,,,,,,,,,,,,,,,
,,,,,670debf636edeecf039af7f6,2025-07-07_22h42.50.585,group3.4_multiperson,2023.2.2,Win32,59.88023952,686c2ebf0248f13bef9af11f,686c93578c20f19c300d8a2a,,,,,,,,,,,,,,,,,,,,,,,,,,,,,712.6249,1,audio/Narrative8Situation2.wav,715.6315,,715.6321,725.755,"[[82.9,6863],[83,6942],[83,7025],[83,7108],[83,7191],[83,7275],[83,7358],[83,7441],[83,7525],[83,7607],[83,7691],[83,7774],[83,7857],[83,7941],[83,8024],[83,8107],[83,8190],[83,8274],[83,8357],[83,8440],[83,8524],[83,8607],[83,8690],[83,8774],[83,8857],[83,8940],[83,9023],[83,9107],[83,9190],[83,9273],[83,9356],[83,9439],[83,9523],[83,9606],[83,9689],[83,9772],[83,9856],[83,9939],[83,10022],[83,10105]]",725.7551,731.117,57.60416985,3.7315,"[{""rating"":57.604169845581055,""responseTime"":3.7314999999999827}]",space,4.8157,,731.117,Partially,50,731.1244,,,[],,0,11,11,11,1,audio/Narrative8Situation2.wav,audio/Narrative7Situation2.wav,audio/Narrative6Situation2.wav,audio/Narrative5Situation2.wav,3,3,3,3,,,,,,,,,,,,,,,,,,,,,,,,,,,,,,,,,,,,,,,
,,,,,670debf636edeecf039af7f6,2025-07-07_22h42.50.585,group3.4_multiperson,2023.2.2,Win32,59.88023952,686c2ebf0248f13bef9af11f,686c93578c20f19c300d8a2a,,,,,,,,,,,,,,,,,,,,,,,,,,,,,731.1247,1,audio/Narrative8Situation3.wav,735.1299,,735.1299,757.5275,"[[59.1,3780],[61.3,3863],[63.2,3947],[65.1,4030],[67.6,4113],[68.1,4196],[68.1,4279],[69.1,4363],[70.7,4447],[71.7,4529],[71.9,4612],[71.9,4695],[71.9,4778],[71.9,4862],[71.9,4945],[71.9,5028],[71.9,5112],[71.9,5195],[71.9,5278],[71.9,5361],[71.9,5445],[71.9,5528],[71.9,5611],[71.9,5695],[71.9,5778],[71.9,5861],[71.9,5944],[71.9,6028],[71.9,6111],[71.9,6194],[71.9,6277],[73.3,6361],[74.2,6444],[74.2,6527],[74.2,6610],[74.2,6694],[74.2,6777],[74.2,6860],[74.2,6943],[74.2,7027],[74.2,7110],[74.2,7193],[74.2,7277],[74.2,7360],[74.2,7443],[74.2,7526],[74.2,7610],[74.2,7693],[74.2,7776],[74.2,7859],[74.2,7943],[74.2,8026],[74.2,8109],[74.2,8193],[74.2,8276],[74.2,8359],[74.2,8442],[74.2,8525],[74.2,8609],[74.2,8692],[74.2,8776],[74.2,8859],[74.2,8942],[74.2,9025],[74.2,9109],[74.2,9192],[74.2,9275],[74.2,9358],[74.2,9441],[74.2,9525],[74.2,9608],[74.2,9691],[74.2,9774],[74.2,9858],[74.9,9942],[78.1,10025],[80.2,10109],[81.8,10192],[83.1,10275],[84.1,10358],[84.3,10441],[84.3,10524],[84.3,10608],[84.3,10690],[84.3,10774],[84.3,10857],[84.3,10940],[84.3,11023],[84.3,11107],[84.3,11190],[84.3,11273],[84.3,11356],[84.3,11440],[84.3,11523],[84.3,11606],[84.3,11689],[84.3,11773],[84.3,11856],[84.3,11939],[84.3,12023],[84.3,12106],[84.3,12189],[84.3,12272],[84.3,12355],[84.3,12439],[84.3,12522],[84.3,12605],[84.3,12689],[84.3,12772],[84.3,12855],[84.3,12938],[84.3,13022],[84.3,13105],[84.3,13188],[84.3,13271],[84.3,13354],[84.3,13438],[84.3,13521],[84.3,13604],[84.3,13688],[84.3,13771],[84.3,13854],[84.3,13937],[84.3,14021],[84.3,14104],[84.3,14187],[84.3,14271],[84.3,14354],[84.3,14437],[84.3,14520],[84.3,14604],[84.3,14687],[84.3,14770],[84.3,14853],[84.3,14937],[84.3,15020],[84.3,15103],[84.3,15186],[84.3,15270],[84.3,15353],[84.3,15436],[84.3,15519],[84.3,15603],[84.3,15686],[84.3,15769],[84.3,15853],[84.3,15936],[84.3,16019],[84.3,16102],[84.3,16186],[84.3,16269],[84.3,16352],[84.3,16435],[84.3,16518],[84.3,16602],[84.3,16685],[84.3,16768],[84.3,16852],[84.3,16935],[84.3,17018],[84.3,17101],[84.3,17185],[84.3,17268],[84.3,17351],[84.3,17435],[84.3,17518],[84.3,17601],[84.3,17684],[84.3,17767],[84.3,17851],[84.3,17934],[84.3,18017],[84.3,18101],[84.3,18184],[84.3,18267],[84.3,18350],[84.3,18434],[84.3,18517],[84.3,18600],[84.3,18683],[84.3,18766],[84.3,18850],[84.3,18933],[84.3,19017],[84.3,19100],[84.3,19183],[84.3,19266],[84.3,19349],[84.3,19433],[84.3,19516],[84.3,19599],[84.3,19682],[84.3,19766],[84.3,19849],[84.3,19932],[84.3,20015],[84.3,20099],[84.3,20182],[84.3,20265],[84.3,20348],[84.3,20432],[84.3,20515],[84.3,20598],[84.3,20681],[84.3,20765],[84.3,20848],[84.3,20931],[84.3,21015],[84.3,21098],[84.3,21182],[84.3,21265],[84.3,21348],[84.3,21431],[84.3,21514],[84.3,21598],[84.3,21681],[84.3,21764],[84.3,21847],[84.3,21931],[84.3,22014],[84.3,22099],[84.3,22181],[84.3,22263],[84.3,22347]]",757.5281,764.4382,86.14583015,3.2963,"[{""rating"":86.14583015441895,""responseTime"":3.296300000071483}]",space,6.3644,,764.4383,Definitely yes,100,764.475,,,[],,0,12,12,12,1,audio/Narrative8Situation3.wav,audio/Narrative7Situation3.wav,audio/Narrative6Situation3.wav,audio/Narrative5Situation3.wav,4,8,5,3,,,,,,,,,,,,,,,,,,,,,,,,,,,,,,,,,,,,,,,
,,,,,670debf636edeecf039af7f6,2025-07-07_22h42.50.585,group3.4_multiperson,2023.2.2,Win32,59.88023952,686c2ebf0248f13bef9af11f,686c93578c20f19c300d8a2a,,,,,,,,,,,,,,,,,,,,,,,,,,,,,764.4756,1,audio/Narrative8Situation4.wav,767.4859,,767.4862,781.6729,"[[85.8,6368],[85.3,6443],[85.3,6526],[85.3,6609],[85.3,6692],[85.1,6776],[84.6,6859],[84.6,6943],[84.6,7025],[84.6,7109],[84.6,7192],[84.6,7275],[84.6,7359],[84.6,7442],[84.6,7525],[84.6,7608],[84.6,7692],[84.6,7775],[84.6,7858],[84.6,7941],[84.6,8025],[84.6,8108],[84.6,8191],[84.6,8274],[84.6,8358],[84.6,8441],[84.6,8524],[84.6,8607],[84.6,8691],[84.6,8774],[84.6,8857],[84.6,8940],[84.6,9024],[84.6,9107],[84.6,9190],[84.6,9274],[84.6,9357],[84.6,9440],[84.6,9523],[84.6,9606],[84.6,9690],[84.6,9773],[84.6,9857],[84.6,9940],[84.6,10023],[84.6,10106],[84.6,10189],[84.6,10273],[84.6,10356],[84.6,10439],[84.6,10522],[84.6,10606],[84.6,10689],[84.6,10772],[84.6,10855],[84.6,10939],[84.6,11022],[84.6,11105],[84.6,11188],[84.6,11272],[84.6,11355],[84.6,11438],[84.6,11522],[84.6,11605],[84.6,11688],[84.6,11771],[84.6,11855],[84.6,11938],[84.6,12021],[84.6,12105],[84.6,12188],[84.6,12271],[84.6,12354],[84.6,12437],[84.6,12521],[84.6,12604],[84.6,12687],[84.6,12770],[84.6,12854],[84.6,12937],[84.6,13020],[84.6,13104],[84.6,13187],[84.6,13270],[84.6,13353],[84.6,13437],[84.6,13520],[84.6,13603],[84.6,13686],[84.6,13770],[84.6,13853],[84.6,13936],[84.6,14019],[84.6,14103],[84.6,14186]]",781.6731,785.4031,88.54166667,2.6077,"[{""rating"":88.54166666666667,""responseTime"":2.6076999999285135}]",space,3.1846,,785.4032,Not at all,0,785.4101,,,[],,0,13,13,13,1,audio/Narrative8Situation4.wav,audio/Narrative7Situation4.wav,audio/Narrative6Situation4.wav,audio/Narrative5Situation4.wav,3,3,2,1,,,,,,,,,,,,,,,,,,,,,,,,,,,,,,,,,,,,,,,
,,,,,670debf636edeecf039af7f6,2025-07-07_22h42.50.585,group3.4_multiperson,2023.2.2,Win32,59.88023952,686c2ebf0248f13bef9af11f,686c93578c20f19c300d8a2a,,,,,,,,,,,,,,,,,,,,,,,,,,,,,785.4103,1,audio/Narrative8Situation5.wav,787.4181,,787.4183,795.6776,[],795.6779,799.3911,83.0208381,3.0406,"[{""rating"":83.02083810170491,""responseTime"":3.0406000000239146}]",space,3.1673,,799.3913,Definitely yes,100,799.3972,,,[],,0,14,14,14,1,audio/Narrative8Situation5.wav,audio/Narrative7Situation5.wav,audio/Narrative6Situation5.wav,audio/Narrative5Situation5.wav,2,5,2,5,,,,,,,,,,,,,,,,,,,,,,,,,,,,,,,,,,,,,,,
,,,,,670debf636edeecf039af7f6,2025-07-07_22h42.50.585,group3.4_multiperson,2023.2.2,Win32,59.88023952,686c2ebf0248f13bef9af11f,686c93578c20f19c300d8a2a,,,,,,,,,,,,,,,,,,,,,,,,,,,,,799.3975,1,audio/Narrative8Situation6.wav,801.4055,,801.4056,807.8864,"[[82.7,6348],[82.6,6433]]",807.8867,810.5644,81.97917144,1.871,"[{""rating"":81.97917143503825,""responseTime"":1.870999999999981}]",space,2.1337,,810.5645,Partially,50,810.5739,,,[],,0,15,15,15,1,audio/Narrative8Situation6.wav,audio/Narrative7Situation6.wav,audio/Narrative6Situation6.wav,audio/Narrative5Situation6.wav,2,3,2,3,,,,,,,,,,,,,,,,,,,,,,,,,,,,,,,,,,,,,,,
,,,,,670debf636edeecf039af7f6,2025-07-07_22h42.50.585,group3.4_multiperson,2023.2.2,Win32,59.88023952,686c2ebf0248f13bef9af11f,686c93578c20f19c300d8a2a,,,,,,,,,,,,,,,,,,,,,,,,,,,,,810.575,1,audio/Narrative8Situation7.wav,813.5784,,813.5784,825.6514,"[[82.6,3264],[83.1,3347],[83.1,3429],[83.1,3513],[83.1,3596],[83.1,3679],[82.5,3763],[82,3846],[81.9,3929],[81.9,4013],[81.9,4096],[81.9,4179],[81.9,4262],[81.9,4345],[81.9,4429],[81.9,4512],[81.9,4595],[81.9,4678],[81.9,4762],[81.9,4845],[83.4,4929],[85.2,5012],[85.2,5095],[85.2,5178],[85.2,5261],[85.2,5345],[84.8,5428],[84.3,5512],[83.2,5595],[82.4,5678],[82.4,5761],[82.4,5844],[82.4,5927],[82.4,6010],[82.4,6094],[82.4,6177],[82.4,6260],[82.4,6344],[82.4,6427],[82.4,6510],[82.4,6593],[82.4,6677],[82.4,6760],[82.4,6843],[82.4,6926],[82.4,7010],[82.4,7093],[82.4,7176],[82.4,7260],[82.4,7343],[82.4,7426],[82.4,7509],[82.4,7593],[82.4,7676],[82.4,7760],[82.4,7843],[82.4,7926],[82.4,8009],[82.4,8093],[82.4,8176],[82.4,8259],[82.4,8342],[82.4,8425],[82.4,8509],[82.4,8592],[82.4,8675],[82.4,8759],[82.4,8842],[82.4,8925],[82.4,9008],[82.4,9092],[82.4,9175],[82.4,9258],[82.4,9341],[82.4,9424],[82.4,9507],[82.4,9591],[82.4,9674],[82.4,9757],[82.4,9841],[82.4,9924],[82.4,10007],[82.4,10091],[82.4,10174],[82.4,10257],[82.4,10340],[82.4,10423],[82.4,10507],[82.4,10590],[82.4,10674],[82.4,10757],[82.4,10840],[82.4,10923],[82.4,11007],[82.4,11090],[82.4,11173],[82.4,11256],[82.4,11340],[82.4,11423],[82.4,11506],[82.4,11589],[82.4,11673],[82.4,11756],[82.4,11839],[82.4,11922],[82.4,12006]]",825.6518,827.6492,84.16666985,1.3795,"[{""rating"":84.16666984558105,""responseTime"":1.3795000000000073}]",space,1.4496,,827.6493,Not at all,0,827.6563,,,[],,0,16,16,16,1,audio/Narrative8Situation7.wav,audio/Narrative7Situation7.wav,audio/Narrative6Situation7.wav,audio/Narrative5Situation7.wav,3,5,5,4,,,,,,,,,,,,,,,,,,,,,,,,,,,,,,,,,,,,,,,
,,,,,670debf636edeecf039af7f6,2025-07-07_22h42.50.585,group3.4_multiperson,2023.2.2,Win32,59.88023952,686c2ebf0248f13bef9af11f,686c93578c20f19c300d8a2a,,,,,,,,,,,,,,,,,,,,,,,,,,,,,827.6567,1,audio/Narrative8Situation8.wav,830.6634,,830.6635,843.5269,"[[84.1,5112],[83.5,5196],[83.2,5279],[83.2,5361],[83.2,5444],[83.2,5528],[83.2,5611],[83.2,5694],[83.2,5777],[83.2,5861],[83.2,5944],[83.2,6027],[83.2,6111],[83.2,6194],[83.2,6277],[83.2,6360],[83.2,6444],[83.2,6527],[83.2,6610],[83.3,6693],[83.5,6777],[84.2,6860],[84.3,6943],[84.3,7026],[84.3,7110],[84.3,7193],[84.3,7276],[84.3,7359],[84.3,7443],[84.3,7526],[84.3,7609],[84.3,7692],[84.3,7776],[84.3,7859],[84.3,7942],[84.3,8025],[84.3,8109],[84.3,8192],[84.3,8275],[84.3,8359],[84.3,8442],[84.3,8525],[84.3,8608],[84.3,8692],[84.3,8775],[84.3,8858],[84.3,8941],[84.3,9025],[84.3,9110],[84.3,9191],[84.3,9275],[84.3,9358],[84.3,9441],[84.3,9524],[84.3,9608],[84.3,9691],[84.3,9774],[84.3,9857],[84.3,9941],[84.3,10024],[84.3,10107],[84.3,10190],[84.3,10274],[84.3,10479],[84.3,10577],[84.3,10665],[84.3,10744],[84.3,10824],[84.3,10907],[84.3,10994],[84.3,11085],[84.3,11156],[84.3,11240],[84.3,11331],[84.3,11408],[84.3,11499],[84.3,11573],[84.3,11663],[84.3,11747],[84.3,11830],[84.3,11914],[84.3,11997],[84.3,12081],[84.3,12160],[84.3,12241],[84.3,12330],[84.3,12406],[84.3,12496],[84.3,12574],[84.3,12658],[84.3,12749],[84.3,12824]]",843.527,846.17,86.66666349,1.8039,"[{""rating"":86.66666348775227,""responseTime"":1.803900000095382}]",space,2.1063,,846.1702,Definitely yes,100,846.1754,,,[],,0,17,17,17,1,audio/Narrative8Situation8.wav,audio/Narrative7Situation8.wav,audio/Narrative6Situation8.wav,audio/Narrative5Situation8.wav,3,2,5,3,,,,,,,,,,,,,,,,,,,,,,,,,,,,,,,,,,,,,,,
,,,,,670debf636edeecf039af7f6,2025-07-07_22h42.50.585,group3.4_multiperson,2023.2.2,Win32,59.88023952,686c2ebf0248f13bef9af11f,686c93578c20f19c300d8a2a,,,,,,,,,,,,,,,,,,,,,,,,,,,,,846.1757,1,audio/Narrative8Situation9.wav,849.1816,,849.1824,860.4889,"[[86.3,2105],[85.5,2187],[85,2272],[85,2354],[85,2431],[85,2514],[85,2597],[85,2679],[85,2763],[85,2846],[85,2929],[85,3019],[85,3096],[85,3180],[85,3269],[85,3353],[85,3436],[85,3512],[85,3602],[85,3679],[85,3762],[85,3845],[85,3929],[85,4011],[85,4101],[85,4178],[85,4262],[85,4351],[85,4435],[85,4511],[85,4601],[85,4685],[85,4768],[85,4851],[85,4927],[85,5011],[85,5102],[85,5177],[85,5267],[85,5351],[85,5428],[85,5510],[85,5594],[85,5677],[85,5760],[85,5843],[85,5927],[85,6009],[85,6100],[85,6176],[85,6261],[85,6350],[85,6426],[85,6509],[85,6599],[85,6676],[85,6759],[85,6849],[85,6932],[85,7009],[85,7098],[85,7182],[85,7265],[85,7341],[85,7427],[85,7509],[85,7591],[85,7675],[85,7758],[85,7841],[85,7924],[85,8008],[85,8093],[85,8181],[85,8264],[85,8344],[85,8424],[85,8514],[85,8598],[85,8673],[85,8764],[85,8849],[85,8931],[85,9008],[85,9090],[85,9174],[85,9257],[85,9341],[85,9431],[85,9511],[85,9590],[85,9680],[85,9757],[85,9840],[85,9936],[85,10013],[85,10096],[85,10173],[85,10256],[85,10339],[85,10422],[85,10505],[85,10591],[85,10673],[85,10763],[85,10846],[85,10929],[85,11005],[85,11092],[85,11181],[85,11260]]",860.4902,863.1353,87.18749682,1.8526,"[{""rating"":87.18749682108562,""responseTime"":1.8526000000238128}]",space,2.104,,863.1354,Not at all,0,869.5298,0.312499205,5.4002,"[{""rating"":0.31249920527140485,""responseTime"":5.4002000000476755}]",space,0,18,18,18,1,audio/Narrative8Situation9.wav,audio/Narrative7Situation9.wav,audio/Narrative6Situation9.wav,audio/Narrative5Situation9.wav,3,2,4,3,,,5.8517,,,,,,,,,,,,,,,,,,,,,,,,,,,,,,,,,,,,
,,,,,670debf636edeecf039af7f6,2025-07-07_22h42.50.585,group3.4_multiperson,2023.2.2,Win32,59.88023952,686c2ebf0248f13bef9af11f,686c93578c20f19c300d8a2a,,,,,,,,,,,,,,,,,,,,,,,,,,,874.8643,877.4399,877.4673,2,audio/Narrative13Situation2.wav,877.4673,,877.4675,907.2139,"[[75.3,5017],[77,5101],[77.4,5183],[78.3,5267],[78.5,5350],[78.5,5433],[78.5,5516],[78.5,5600],[78.5,5683],[78.5,5766],[78.5,5849],[78.5,5933],[78.5,6016],[78.5,6100],[78.5,6183],[78.5,6266],[78.5,6349],[78.5,6432],[78.5,6516],[78.5,6599],[78.5,6682],[78.5,6766],[78.5,6849],[78.5,6932],[78.5,7015],[78.5,7099],[78.5,7182],[78.5,7265],[78.5,7348],[78.5,7431],[78.5,7515],[78.5,7598],[78.5,7681],[78.5,7764],[78.5,7848],[78.5,7931],[78.5,8014],[78.5,8098],[78.5,8181],[78.5,8264],[78.5,8347],[78.5,8431],[78.5,8514],[78.5,8597],[78.5,8680],[78.5,8764],[78.5,8847],[78.5,8930],[78.5,9013],[78.5,9097],[78.5,9180],[78.5,9263],[78.5,9346],[78.5,9430],[78.5,9513],[78.5,9596],[78.5,9679],[78.5,9763],[78.5,9846],[78.5,9930],[78.5,10013],[78.5,10096],[78.5,10179],[78.5,10262],[78.5,10346],[78.5,10429],[78.5,10512],[78.5,10596],[78.5,10679],[78.5,10762],[78.5,10845],[78.5,10929],[78.5,11012],[78.5,11095],[78.5,11178],[78.5,11261],[78.5,11345],[78.5,11428],[78.5,11511],[78.5,11594],[78.5,11678],[78.5,11761],[78.5,11844],[78.5,11927],[78.5,12011],[78.5,12094],[78.5,12177],[78.5,12261],[78.5,12344],[78.5,12427],[78.5,12510],[78.5,12594],[78.5,12677],[78.5,12760],[78.5,12844],[78.5,12927],[78.5,13010],[78.5,13093],[78.5,13176],[78.5,13260],[78.5,13343],[78.5,13426],[78.5,13509],[78.5,13593],[78.5,13676],[78.5,13759],[78.5,13843],[78.5,13926],[78.5,14009],[78.5,14092],[78.5,14176],[78.5,14259],[78.5,14342],[78.5,14425],[78.5,14509],[78.5,14592],[78.5,14675],[78.5,14759],[78.5,14842],[78.5,14925],[78.5,15008],[78.5,15091],[78.5,15175],[78.5,15258],[78.5,15341],[80,15425],[81.1,15509],[82,15591],[82.5,15675],[83.1,15757],[83.1,15841],[83.1,15924],[83.1,16007],[83.1,16091],[83.1,16174],[83.1,16257],[83.1,16341],[83.1,16423],[83.1,16507],[83.1,16590],[83.1,16673],[83.1,16757],[83.1,16840],[83.1,16923],[83.1,17006],[83.1,17090],[83.1,17173],[83.1,17256],[83.1,17340],[83.1,17423],[83.1,17506],[83.1,17589],[83.1,17673],[83.1,17756],[83.1,17839],[83.1,17922],[83.1,18006],[83.1,18089],[83.1,18172],[83.1,18256],[83.1,18339],[83.1,18422],[83.1,18505],[83.1,18588],[83.1,18672],[83.1,18755],[83.1,18838],[83.1,18921],[83.1,19005],[83.1,19088],[83.1,19171],[83.1,19254],[83.1,19338],[83.1,19421],[83.1,19504],[83.1,19588],[83.1,19672],[83.1,19754],[83.1,19837],[83.1,19921],[83.1,20004],[83.1,20087],[83.1,20170],[83.1,20254],[83.1,20337],[83.1,20420],[83.1,20503],[83.1,20587],[83.1,20670],[83.1,20753],[83.1,20836],[83.1,20920],[83.1,21003],[83.1,21086],[83.1,21169],[83.1,21253],[83.1,21336],[83.1,21419],[83.1,21502],[83.1,21586],[83.1,21669],[83.1,21752],[83.1,21836],[83.1,21919],[83.1,22002],[83.1,22085],[83.1,22169],[83.1,22252],[83.1,22335],[83.1,22418],[83.1,22502],[83.1,22585],[83.1,22668],[83.1,22751],[83.1,22835],[83.1,22918],[83.1,23001],[83.1,23085],[83.1,23218],[83.1,23301],[83.1,23384],[83.1,23468],[83.1,23551],[83.1,23634],[83.1,23717],[83.1,23801],[83.1,23884],[83.1,23967],[83.1,24050],[83.1,24134],[83.1,24217],[83.1,24300],[83.1,24383],[83.1,24467],[83.1,24550],[83.1,24633],[83.1,24716],[83.1,24800],[83.1,24883],[83.1,24966],[83.1,25049],[83.1,25132],[83.1,25216],[83.1,25299],[83.1,25382],[83.1,25466],[83.1,25549],[83.1,25632],[83.1,25715],[83.1,25799],[83.1,25882],[83.1,25965],[83.1,26048],[83.1,26132],[83.1,26215],[83.1,26298],[83.1,26381],[83.1,26465],[83.1,26548],[83.1,26631],[83.1,26715],[83.1,26798],[83.1,26881],[83.1,26964],[83.1,27048],[83.1,27131],[83.1,27214],[83.1,27298],[83.1,27381],[83.1,27464],[83.1,27548],[83.1,27630],[83.1,27714],[83.1,27797],[83.1,27880],[83.1,27963],[83.1,28047],[83.1,28130],[83.1,28213],[83.1,28297],[83.1,28380],[83.1,28463],[83.1,28546],[83.1,28629],[83.1,28713],[83.1,28796],[83.1,28880],[83.1,28963],[83.1,29046],[83.1,29129],[83.1,29213],[83.1,29296],[83.1,29380],[83.1,29462],[83.1,29546],[83.1,29629],[83.1,29712]]",907.2144,907.2446,,,[],,,,907.2447,Definitely yes,100,907.2515,,,[],,0,0,0,0,1,audio/Narrative13Situation2.wav,audio/Narrative13Situation2.wav,audio/Narrative13Situation2.wav,audio/Narrative13Situation2.wav,2,2,2,2,,,,,869.5824,874.8447,space,4.7355,,,,,,,,,,,,,,,,,,,,,,,,,,,,,,,
,,,,,670debf636edeecf039af7f6,2025-07-07_22h42.50.585,group3.4_multiperson,2023.2.2,Win32,59.88023952,686c2ebf0248f13bef9af11f,686c93578c20f19c300d8a2a,,,,,,,,,,,,,,,,,,,,,,,,,,,,,907.2521,2,audio/Narrative5Situation1.wav,912.2608,,912.2609,925.5477,"[[82.7,2796],[80.9,2879],[80.4,2961],[80.4,3045],[80.4,3128],[80.4,3212],[80.4,3295],[80.4,3378],[80.4,3461],[80.4,3544],[80.4,3627],[80.4,3711],[80.4,3794],[80.4,3877],[80.4,3960],[80.4,4044],[80.4,4127],[80.4,4211],[80.4,4293],[80.4,4377],[80.4,4460],[80.4,4543],[80.4,4627],[80.4,4710],[80.4,4793],[80.4,4876],[80.4,4960],[80.4,5043],[80.4,5127],[80.4,5209],[80.4,5293],[80.4,5376],[80.4,5459],[80.4,5543],[80.4,5626],[80.4,5709],[80.4,5792],[80.4,5876],[80.4,5959],[80.4,6042],[80.4,6125],[80.4,6209],[80.4,6292],[80.4,6375],[80.4,6458],[80.4,6542],[80.4,6625],[80.4,6708],[80.4,6791],[80.4,6875],[80.4,6958],[80.4,7041],[80.4,7125],[80.4,7208],[80.4,7291],[80.4,7374],[80.4,7458],[80.4,7541],[80.4,7624],[80.4,7707],[80.4,7791],[80.4,7874],[80.4,7957],[80.4,8040],[80.4,8123],[80.1,8207],[80,8290],[80,8373],[80,8456],[79.6,8540],[78.9,8623],[78.7,8707],[77.7,8790],[76.5,8874],[75.8,8957],[75.6,9040],[73.4,9123],[73.2,9206],[73.2,9290],[73.2,9372],[73.2,9456],[73.2,9539],[73.2,9622],[73.2,9706],[73.2,9789],[73.2,9872],[73.2,9955],[73.2,10039],[73.2,10122],[73.2,10205],[73.2,10289],[73.2,10372],[73.2,10455],[73.2,10538],[73.2,10622],[73.2,10705],[73.2,10788],[73.2,10871],[73.2,10954],[73.2,11038],[73.2,11121],[73.2,11204],[73.2,11288],[73.2,11371],[73.2,11454],[73.2,11537],[73.2,11620],[73.2,11704],[73.2,11787],[73.2,11870],[73.2,11954],[73.2,12037],[73.2,12120],[73.2,12203],[73.2,12287],[73.2,12370],[73.2,12453],[73.2,12537],[73.2,12620],[73.2,12703],[73.2,12786],[73.2,12869],[73.2,12953],[73.2,13036],[73.2,13119],[73.2,13202],[73.2,13286]]",925.548,927.9452,74.37500159,1.4667,"[{""rating"":74.37500158945718,""responseTime"":1.4666999999284371}]",space,1.8471,,927.9452,Not at all,0,927.9516,,,[],,0,1,1,1,1,audio/Narrative7Situation1.wav,audio/Narrative8Situation1.wav,audio/Narrative5Situation1.wav,audio/Narrative6Situation1.wav,2,5,5,2,,,,,,,,,,,,,,,,,,,,,,,,,,,,,,,,,,,,,,,
,,,,,670debf636edeecf039af7f6,2025-07-07_22h42.50.585,group3.4_multiperson,2023.2.2,Win32,59.88023952,686c2ebf0248f13bef9af11f,686c93578c20f19c300d8a2a,,,,,,,,,,,,,,,,,,,,,,,,,,,,,927.9518,2,audio/Narrative5Situation2.wav,930.9592,,930.9593,960.4173,"[[74.8,5936],[74.9,6034],[74.9,6112],[74.9,6202],[74.9,6278],[74.9,6363],[77,6453],[77.7,6536],[77.7,6618],[77.7,6701],[78.5,6787],[80,6868],[80.5,6952],[80.5,7035],[80.5,7110],[80.5,7201],[80.5,7285],[80.5,7360],[80.5,7450],[80.5,7534],[80.5,7610],[80.5,7693],[80.5,7777],[80.5,7861],[80.5,7943],[80.5,8033],[80.5,8109],[80.5,8193],[80.5,8276],[80.5,8360],[80.5,8443],[80.5,8533],[80.5,8610],[80.5,8699],[80.5,8783],[80.5,8859],[80.5,8942],[80.5,9026],[80.5,9109],[80.5,9200],[80.5,9275],[80.5,9359],[80.7,9450],[81.5,9533],[81.5,9615],[81.5,9691],[81.5,9778],[81.5,9858],[81.5,9941],[81.5,10032],[81.5,10115],[81.5,10192],[81.5,10275],[81.5,10365],[81.5,10441],[81.5,10531],[81.5,10607],[81.5,10692],[81.5,10781],[81.5,10859],[81.5,10943],[81.5,11025],[81.5,11108],[81.5,11190],[81.5,11282],[81.5,11357],[81.5,11447],[81.5,11523],[81.5,11609],[81.5,11695],[81.5,11775],[81.5,11863],[81.5,11947],[81.5,12023],[81.5,12113],[81.5,12189],[81.5,12273],[81.5,12356],[81.5,12439],[81.5,12531],[81.5,12606],[81.5,12690],[81.5,12779],[81.5,12856],[81.5,12946],[81.5,13022],[81.5,13105],[81.5,13189],[81.5,13274],[81.5,13362],[81.5,13445],[81.5,13529],[81.5,13612],[81.5,13695],[81.5,13772],[81.5,13857],[81.5,13946],[81.5,14022],[81.5,14112],[81.5,14196],[81.5,14270],[81.5,14358],[81.5,14437],[81.5,14521],[81.5,14604],[81.5,14687],[81.5,14771],[81.5,14854],[81.5,14937],[81.5,15024],[81.5,15103],[81.5,15187],[81.5,15276],[81.5,15353],[81.5,15443],[81.5,15520],[81.5,15603],[81.5,15689],[81.5,15778],[81.5,15861],[81.5,15936],[81.5,16026],[81.5,16102],[81.5,16187],[82,16288],[82,16368],[83.1,16452],[83.9,16535],[84.1,16618],[84.1,16701],[84.1,16785],[84.1,16868],[84.1,16951],[84.1,17035],[84.1,17118],[84.1,17201],[84.1,17284],[84.1,17368],[84.1,17452],[84.1,17534],[84.1,17617],[84.1,17701],[84.1,17784],[84.1,17867],[84.1,17951],[84.1,18034],[84.1,18117],[84.1,18201],[84.1,18284],[84.1,18367],[84.1,18450],[84.1,18533],[84.1,18617],[84.1,18700],[84.1,18783],[84.1,18866],[84.1,18949],[84.1,19033],[84.1,19116],[84.1,19199],[84.1,19283],[84.1,19366],[84.1,19450],[84.1,19532],[84.1,19615],[84.1,19699],[84.1,19782],[84.1,19865],[84.1,19949],[84.1,20032],[84.1,20115],[84.1,20199],[84.1,20282],[84.1,20365],[84.1,20448],[84.1,20532],[84.1,20615],[84.1,20698],[84.1,20781],[84.1,20864],[84.1,20948],[84.1,21031],[84.1,21114],[84.1,21197],[84.1,21281],[84.1,21364],[84.1,21447],[84.1,21531],[84.1,21614],[84.1,21697],[84.1,21780],[84.1,21864],[84.1,21947],[84.1,22030],[84.1,22114],[84.1,22197],[84.1,22280],[84.1,22363],[84.1,22446],[84.1,22530],[84.1,22613],[84.1,22696],[84.1,22780],[84.1,22863],[84.1,22946],[84.1,23029],[84.1,23113],[84.1,23196],[84.1,23279],[84.1,23363],[84.1,23446],[84.1,23529],[84.1,23612],[84.1,23696],[84.1,23779],[84.1,23862],[84.1,23945],[84.1,24029],[84.1,24112],[84.1,24195],[84.1,24278],[84.1,24361],[84.1,24445],[84.1,24528],[84.1,24611],[84.1,24695],[84.1,24778],[84.1,24861],[84.1,24944],[84.1,25028],[84.1,25111],[84.1,25194],[84.1,25277],[84.1,25361],[84.1,25444],[84.1,25527],[84.1,25610],[84.1,25694],[84.1,25777],[84.1,25860],[84.1,25943],[84.1,26027],[84.1,26110],[84.1,26193],[84.1,26276],[84.1,26360],[84.1,26443],[84.1,26526],[84.1,26610],[84.1,26693],[84.1,26776],[84.1,26860],[84.1,26943],[84.1,27026],[84.1,27109],[84.1,27192],[84.1,27276],[84.1,27359],[84.1,27442],[84.1,27526],[84.1,27609],[84.1,27692],[84.1,27775],[84.1,27858],[84.1,27942],[84.1,28025],[84.1,28108],[84.1,28191],[84.1,28275],[84.1,28358],[84.1,28442],[84.1,28525],[84.1,28608],[84.1,28691],[84.1,28774],[84.1,28858],[84.1,28941],[84.1,29024],[84.1,29107],[84.1,29191],[84.1,29275],[84.1,29357],[84.1,29440]]",960.4177,963.0147,90.72917302,1.6146,"[{""rating"":90.72917302449544,""responseTime"":1.6146000000239837}]",space,2.0478,,963.0149,Not at all,0,963.0198,,,[],,0,2,2,2,1,audio/Narrative7Situation2.wav,audio/Narrative8Situation2.wav,audio/Narrative5Situation2.wav,audio/Narrative6Situation2.wav,3,3,3,3,,,,,,,,,,,,,,,,,,,,,,,,,,,,,,,,,,,,,,,
,,,,,670debf636edeecf039af7f6,2025-07-07_22h42.50.585,group3.4_multiperson,2023.2.2,Win32,59.88023952,686c2ebf0248f13bef9af11f,686c93578c20f19c300d8a2a,,,,,,,,,,,,,,,,,,,,,,,,,,,,,963.0201,2,audio/Narrative5Situation3.wav,966.0297,,966.0298,979.9504,"[[90.3,4611],[89.9,4695],[89.6,4778],[89.5,4861],[89.3,4945],[88.4,5028],[88.1,5111],[86.3,5194],[86,5277],[85.8,5360],[85.8,5443],[86.3,5527],[87,5610],[87.5,5693],[88,5777],[88,5860],[88,5943],[88,6026],[88,6109],[88,6193],[88,6276],[88,6359],[88,6442],[88,6526],[88,6609],[88,6692],[88,6776],[88,6859],[88,6942],[88,7025],[88,7109],[88,7192],[88,7275],[88,7358],[88,7442],[88,7525],[88,7608],[88,7692],[88,7775],[88,7858],[88,7941],[88,8025],[88,8108],[88,8191],[88,8274],[88,8358],[88,8441],[88,8524],[88,8608],[88,8691],[88,8774],[88,8857],[88,8940],[88,9024],[88,9107],[88,9190],[88,9273],[88,9357],[88,9440],[88,9523],[88,9607],[88,9690],[88,9773],[88,9856],[88,9940],[88,10023],[88,10106],[88,10189],[88,10272],[88,10356],[88,10439],[88,10522],[88,10606],[88,10689],[88,10772],[88,10855],[88,10938],[88,11022],[88,11105],[88,11188],[88,11272],[88,11355],[88,11438],[88,11521],[88,11605],[88,11688],[88,11771],[88,11855],[88,11938],[88,12021],[88,12105],[88,12188],[88,12271],[88,12354],[88,12438],[88,12521],[88,12604],[88,12687],[88,12770],[88,12854],[88,12937],[88,13020],[88,13103],[88,13187],[88,13270],[88,13353],[88,13437],[88,13520],[88,13603],[88,13686],[88,13769],[88,13853]]",979.9507,982.4145,88.02083333,0.9497,"[{""rating"":88.02083333333333,""responseTime"":0.9497000000476419}]",space,1.9211,,982.4147,Partially,50,982.4237,,,[],,0,3,3,3,1,audio/Narrative7Situation3.wav,audio/Narrative8Situation3.wav,audio/Narrative5Situation3.wav,audio/Narrative6Situation3.wav,8,4,3,5,,,,,,,,,,,,,,,,,,,,,,,,,,,,,,,,,,,,,,,
,,,,,670debf636edeecf039af7f6,2025-07-07_22h42.50.585,group3.4_multiperson,2023.2.2,Win32,59.88023952,686c2ebf0248f13bef9af11f,686c93578c20f19c300d8a2a,,,,,,,,,,,,,,,,,,,,,,,,,,,,,982.4242,2,audio/Narrative5Situation4.wav,983.4304,,983.431,1003.8291,"[[85.8,4695],[84.8,4778],[84.8,4861],[84.8,4944],[84.8,5028],[84,5112],[83.6,5194],[83.5,5277],[82.4,5361],[82.2,5444],[82.2,5527],[82.2,5610],[82.2,5694],[82.2,5777],[82.2,5860],[82.2,5944],[82.2,6027],[82.2,6110],[82.2,6193],[82.2,6277],[82.2,6360],[82.2,6443],[82.2,6526],[82.2,6609],[82.2,6693],[82.2,6776],[82.2,6859],[82.2,6943],[82.2,7026],[82.2,7109],[82.2,7192],[82.2,7276],[82.2,7359],[82.2,7442],[82.2,7525],[82.2,7609],[82.2,7692],[82.2,7775],[82.2,7858],[82.2,7942],[82.2,8025],[82.2,8108],[82.2,8191],[82.2,8275],[82.2,8358],[82.2,8441],[82.2,8525],[82.2,8608],[82.2,8691],[82.2,8774],[82.2,8858],[82.2,8941],[82.2,9024],[82.2,9107],[82.2,9191],[82.2,9274],[82.2,9357],[82.2,9441],[82.2,9524],[82.2,9607],[82.2,9690],[82.2,9774],[82.2,9857],[82.2,9940],[82.2,10023],[82.2,10106],[82.2,10190],[82.2,10273],[82.2,10356],[82.2,10440],[82.2,10523],[82.2,10606],[82.2,10689],[82.2,10773],[82.2,10856],[82.2,10939],[82.2,11022],[82.2,11106],[82.2,11189],[82.2,11272],[82.2,11355],[82.2,11439],[82.2,11522],[82.2,11605],[82.2,11689],[82.2,11772],[82.2,11855],[82.2,11938],[82.2,12022],[82.2,12105],[82.2,12188],[82.2,12271],[82.2,12355],[82.2,12438],[82.2,12521],[82.2,12604],[82.2,12688],[82.2,12771],[82.2,12854],[82.2,12938],[82.2,13021],[82.2,13104],[82.2,13187],[82.2,13270],[82.2,13354],[82.2,13437],[82.2,13520],[82.2,13603],[82.2,13687],[82.2,13770],[82.2,13853],[82.2,13937],[82.2,14020],[82.2,14103],[82.2,14186],[82.2,14270],[82.2,14353],[82.2,14436],[82.2,14520],[82.2,14603],[82.2,14686],[82.2,14769],[82.2,14852],[82.2,14936],[82.2,15019],[82.2,15102],[82.2,15185],[82.2,15269],[82.2,15352],[82.2,15435],[82.2,15519],[82.2,15602],[82.2,15685],[82.2,15768],[82.2,15852],[82.2,15935],[82.2,16018],[82.2,16101],[82.2,16185],[82.2,16268],[82.2,16351],[82.2,16434],[82.2,16518],[82.2,16601],[82.2,16684],[82.2,16768],[82.2,16850],[82.2,16934],[82.2,17017],[82.2,17100],[82.2,17184],[82.2,17267],[82.2,17350],[82.2,17434],[82.2,17517],[82.2,17600],[82.2,17683],[82.2,17767],[82.2,17850],[82.2,17933],[82.2,18016],[82.2,18100],[82.2,18183],[82.2,18266],[82.2,18349],[82.2,18433],[82.2,18516],[82.2,18599],[82.2,18682],[82.2,18765],[82.2,18849],[82.2,18932],[82.2,19015],[82.2,19099],[82.2,19182],[82.2,19265],[82.2,19349],[82.2,19432],[82.2,19515],[82.2,19598],[82.2,19682],[82.2,19765],[82.2,19848],[82.2,19931],[82.2,20015],[82.2,20098],[82.2,20181],[82.2,20264],[82.2,20347]]",1003.8295,1008.2417,84.375,3.6691,"[{""rating"":84.375,""responseTime"":3.669100000023718}]",space,3.8667,,1008.2417,Not at all,0,1008.2485,,,[],,0,4,4,4,1,audio/Narrative7Situation4.wav,audio/Narrative8Situation4.wav,audio/Narrative5Situation4.wav,audio/Narrative6Situation4.wav,3,3,1,2,,,,,,,,,,,,,,,,,,,,,,,,,,,,,,,,,,,,,,,
,,,,,670debf636edeecf039af7f6,2025-07-07_22h42.50.585,group3.4_multiperson,2023.2.2,Win32,59.88023952,686c2ebf0248f13bef9af11f,686c93578c20f19c300d8a2a,,,,,,,,,,,,,,,,,,,,,,,,,,,,,1008.2488,2,audio/Narrative5Situation5.wav,1013.2544,,1013.2545,1028.6924,"[[83.9,3465],[82.6,3554],[82.6,3630],[82.6,3720],[82.6,3804],[81.3,3888],[79.3,3970],[79.3,4046],[79.3,4129],[79.3,4212],[79.3,4298],[79.3,4379],[79.3,4464],[79.3,4546],[79.3,4636],[79.3,4719],[79.3,4796],[79.3,4886],[79.3,4962],[79.3,5053],[79.3,5129],[79.3,5214],[79.3,5298],[79.3,5385],[79.3,5466],[79.3,5553],[79.3,5628],[79.3,5720],[79.3,5801],[79.3,5886],[79.3,5963],[79.3,6051],[79.3,6132],[79.3,6218],[79.3,6294],[79.3,6377],[79.3,6461],[79.3,6544],[79.3,6629],[79.3,6711],[79.3,6794],[79.3,6877],[79.3,6967],[79.3,7043],[79.3,7134],[79.3,7217],[79.3,7293],[79.3,7377],[79.3,7460],[79.3,7544],[79.3,7627],[79.3,7717],[79.3,7793],[79.3,7877],[79.3,7967],[79.3,8049],[79.3,8126],[79.3,8210],[79.3,8292],[79.3,8382],[79.3,8466],[79.3,8549],[79.3,8626],[79.3,8708],[79.3,8799],[79.3,8883],[79.3,8959],[79.3,9049],[79.3,9132],[79.3,9215],[79.3,9292],[79.3,9375],[79.3,9458],[79.3,9541],[79.3,9624],[79.3,9708],[79.3,9791],[79.3,9881],[79.3,9964],[79.3,10048],[79.3,10124],[79.3,10207],[79.3,10299],[79.3,10375],[79.3,10457],[79.3,10540],[79.3,10623],[79.3,10707],[79.3,10798],[79.3,10881],[79.3,10957],[79.3,11048],[79.3,11125],[79.3,11208],[79.3,11296],[79.3,11380],[79.3,11456],[79.3,11540],[79.3,11623],[79.3,11714],[79.3,11791],[79.3,11873],[79.3,11963],[79.3,12046],[79.3,12123],[79.3,12213],[79.3,12290],[79.3,12372],[79.3,12464],[79.3,12546],[79.3,12622],[79.3,12706],[79.3,12792],[79.3,12879],[79.3,12955],[79.3,13039],[79.3,13121],[79.3,13205],[79.3,13288],[79.3,13378],[79.3,13455],[79.3,13538],[79.3,13629],[79.3,13712],[79.3,13796],[79.3,13871],[79.3,13956],[79.3,14044],[79.3,14124],[79.3,14211],[79.3,14287],[79.3,14371],[79.3,14461],[79.3,14537],[79.3,14621],[79.3,14704],[79.3,14794],[79.3,14878],[79.3,14961],[79.3,15045],[79.3,15120],[79.3,15203],[79.3,15288],[79.3,15371]]",1028.6934,1035.0357,60.10417144,4.6249,"[{""rating"":60.104171435038246,""responseTime"":4.624899999976151}]",space,5.7964,,1035.036,Definitely yes,100,1035.045,,,[],,0,5,5,5,1,audio/Narrative7Situation5.wav,audio/Narrative8Situation5.wav,audio/Narrative5Situation5.wav,audio/Narrative6Situation5.wav,5,2,5,2,,,,,,,,,,,,,,,,,,,,,,,,,,,,,,,,,,,,,,,
,,,,,670debf636edeecf039af7f6,2025-07-07_22h42.50.585,group3.4_multiperson,2023.2.2,Win32,59.88023952,686c2ebf0248f13bef9af11f,686c93578c20f19c300d8a2a,,,,,,,,,,,,,,,,,,,,,,,,,,,,,1035.0458,2,audio/Narrative5Situation6.wav,1038.0494,,1038.0495,1043.752,"[[51.7,5445],[56.7,5536],[58.9,5619],[59.6,5702]]",1043.7521,1047.5289,65.20833174,1.9981,"[{""rating"":65.20833174387613,""responseTime"":1.9981000000238964}]",space,3.2345,,1047.5291,Not at all,0,1050.9547,0.208334128,2.8125,"[{""rating"":0.2083341280619322,""responseTime"":2.8125}]",space,0,6,6,6,1,audio/Narrative7Situation6.wav,audio/Narrative8Situation6.wav,audio/Narrative5Situation6.wav,audio/Narrative6Situation6.wav,3,2,3,2,,,2.8796,,,,,,,,,,,,,,,,,,,,,,,,,,,,,,,,,,,,
,,,,,670debf636edeecf039af7f6,2025-07-07_22h42.50.585,group3.4_multiperson,2023.2.2,Win32,59.88023952,686c2ebf0248f13bef9af11f,686c93578c20f19c300d8a2a,,,,,,,,,,,,,,,,,,,,,,,,,,,,,1050.9556,2,audio/Narrative5Situation7.wav,1054.9679,,1054.968,1076.0169,"[[0.7,2965],[73.9,4213],[74.8,4296],[74.8,4379],[74.8,4462],[74.8,4545],[74.8,4628],[74.7,4712],[74.1,4795],[73.8,4878],[73.8,4961],[73.8,5045],[73.8,5128],[73.8,5212],[73.8,5294],[73.8,5378],[73.8,5461],[73.8,5544],[73.8,5627],[73.8,5711],[75,5794],[75.5,5877],[75.5,5961],[75.8,6045],[75.8,6127],[75.8,6210],[75.8,6294],[75.8,6377],[75.8,6460],[75.8,6543],[75.8,6627],[75.8,6710],[75.8,6793],[75.8,6876],[75.8,6960],[75.8,7043],[75.8,7127],[75.8,7210],[75.8,7293],[75.8,7376],[75.8,7460],[75.8,7543],[75.8,7626],[75.8,7709],[75.8,7793],[75.8,7876],[75.8,7959],[75.8,8042],[75.8,8125],[75.8,8209],[75.8,8293],[75.8,8375],[75.8,8459],[75.8,8542],[75.8,8625],[75.8,8709],[75.8,8792],[75.8,8875],[75.8,8958],[75.8,9041],[75.8,9125],[75.8,9208],[75.8,9292],[75.8,9375],[75.8,9458],[75.8,9541],[75.8,9624],[75.8,9708],[75.8,9791],[75.8,9874],[75.8,9957],[75.8,10041],[75.8,10124],[75.8,10207],[75.8,10291],[75.8,10374],[75.8,10458],[75.8,10540],[75.8,10623],[75.8,10707],[75.8,10790],[75.8,10873],[75.8,10956],[75.8,11040],[75.8,11123],[75.8,11206],[75.8,11289],[75.8,11372],[75.8,11456],[75.8,11539],[75.8,11622],[75.8,11706],[75.8,11789],[75.8,11872],[75.8,11955],[75.8,12039],[75.8,12122],[75.8,12205],[75.8,12289],[75.8,12372],[75.8,12455],[75.8,12538],[75.8,12621],[75.8,12705],[75.8,12788],[75.8,12871],[75.8,12954],[75.8,13039],[75.8,13121],[75.8,13204],[75.8,13288],[75.8,13371],[75.8,13454],[75.8,13538],[75.8,13621],[75.8,13704],[75.8,13787],[75.8,13871],[75.8,13954],[75.8,14037],[75.8,14121],[75.8,14204],[75.8,14287],[75.8,14370],[75.8,14453],[75.8,14537],[75.8,14619],[75.8,14703],[75.8,14786],[75.8,14870],[75.8,14953],[75.8,15036],[75.8,15120],[75.8,15203],[75.8,15286],[75.8,15369],[75.8,15452],[75.8,15536],[75.8,15619],[75.8,15702],[75.8,15785],[75.8,15869],[75.8,15952],[75.8,16035],[75.8,16118],[75.8,16202],[75.8,16285],[75.8,16368],[75.8,16451],[75.8,16535],[75.8,16618],[75.8,16701],[75.8,16785],[75.8,16868],[75.8,16951],[75.8,17034],[75.8,17118],[75.8,17201],[75.8,17284],[75.8,17368],[75.8,17451],[75.8,17534],[75.8,17617],[75.8,17700],[75.8,17784],[75.8,17867],[75.8,17950],[75.8,18034],[75.8,18117],[75.8,18200],[75.8,18283],[75.8,18366],[75.8,18450],[75.8,18533],[75.8,18616],[75.8,18700],[75.8,18783],[75.8,18866],[75.8,18949],[75.8,19033],[75.8,19116],[75.8,19199],[75.8,19282],[75.8,19366],[75.8,19449],[75.8,19532],[75.8,19616],[75.8,19699],[75.8,19782],[75.8,19865],[75.8,19948],[75.8,20032],[75.8,20115],[75.8,20198],[75.8,20281],[75.8,20365],[75.8,20448],[75.8,20531],[75.8,20615],[75.8,20698],[75.8,20781],[75.8,20865],[75.8,20948],[75.8,21031]]",1076.0174,1080.2293,75.83333651,1.7958,"[{""rating"":75.83333651224773,""responseTime"":1.7958000000714947}]",space,3.666,,1080.2294,Partially,50,1080.2658,,,[],,0,7,7,7,1,audio/Narrative7Situation7.wav,audio/Narrative8Situation7.wav,audio/Narrative5Situation7.wav,audio/Narrative6Situation7.wav,5,3,4,5,,,,,,,,,,,,,,,,,,,,,,,,,,,,,,,,,,,,,,,
,,,,,670debf636edeecf039af7f6,2025-07-07_22h42.50.585,group3.4_multiperson,2023.2.2,Win32,59.88023952,686c2ebf0248f13bef9af11f,686c93578c20f19c300d8a2a,,,,,,,,,,,,,,,,,,,,,,,,,,,,,1080.2663,2,audio/Narrative5Situation8.wav,1083.2772,,1083.2774,1092.1023,"[[75.3,3279],[75.3,3362],[74.8,3447],[74.5,3529],[74.3,3612],[74.2,3695],[74.2,3778],[74.2,3862],[74.2,3945],[74.2,4028],[74.2,4112],[74.2,4195],[74.2,4278],[74.3,4362],[74.8,4445],[74.8,4528],[74.8,4611],[74.8,4694],[74.8,4778],[74.8,4861],[74.8,4944],[74.8,5027],[74.9,5111],[75.7,5194],[76.8,5278],[77.6,5361],[78.1,5443],[78.1,5527],[78.1,5611],[78.1,5693],[78.1,5777],[78.1,5860],[78.1,5943],[78.1,6027],[78.1,6110],[78.1,6193],[78.1,6276],[78.1,6359],[78.1,6443],[78.1,6526],[78.1,6609],[78.1,6693],[78.1,6776],[78.1,6859],[78.1,6943],[78.1,7026],[78.1,7109],[78.1,7193],[78.1,7276],[78.1,7359],[78.1,7442],[78.1,7526],[78.1,7609],[78.1,7692],[78.1,7775],[78.1,7858],[78.1,7942],[78.1,8025],[78.1,8108],[78.1,8191],[78.1,8274],[78.1,8358],[78.1,8441],[78.1,8524],[78.1,8608],[78.1,8691],[78.1,8774]]",1092.1025,1095.775,77.50000159,1.9864,"[{""rating"":77.5000015894572,""responseTime"":1.9864000000955002}]",space,3.1319,,1095.7751,Partially,50,1095.7791,,,[],,0,8,8,8,1,audio/Narrative7Situation8.wav,audio/Narrative8Situation8.wav,audio/Narrative5Situation8.wav,audio/Narrative6Situation8.wav,2,3,3,5,,,,,,,,,,,,,,,,,,,,,,,,,,,,,,,,,,,,,,,
,,,,,670debf636edeecf039af7f6,2025-07-07_22h42.50.585,group3.4_multiperson,2023.2.2,Win32,59.88023952,686c2ebf0248f13bef9af11f,686c93578c20f19c300d8a2a,,,,,,,,,,,,,,,,,,,,,,,,,,,,,1095.7797,2,audio/Narrative5Situation9.wav,1098.7806,,1098.7813,1138.3547,"[[82.3,10704],[86.9,10779],[88.5,10864],[89.6,10939],[89.9,11029],[90.1,11105],[90.1,11189],[90.1,11278],[90.1,11355],[89.7,11441],[88.6,11530],[88.3,11605],[88.3,11695],[88.3,11778],[88.3,11855],[88.3,11938],[88.3,12028],[88.3,12108],[88.3,12195],[88.3,12272],[88.3,12354],[88.3,12444],[88.3,12521],[88.3,12604],[88.3,12693],[88.3,12778],[88.3,12854],[88.3,12942],[88.3,13021],[88.3,13111],[88.3,13187],[88.3,13277],[88.3,13354],[88.3,13437],[88.3,13520],[88.3,13612],[88.3,13688],[88.3,13777],[88.3,13861],[88.3,13936],[88.3,14027],[88.3,14111],[88.3,14193],[88.3,14269],[88.3,14352],[88.3,14435],[88.3,14522],[88.3,14602],[88.3,14694],[88.3,14769],[88.3,14859],[88.3,14935],[88.3,15018],[88.3,15102],[88.3,15190],[88.3,15268],[88.3,15358],[88.3,15435],[88.3,15525],[88.3,15608],[88.3,15686],[88.3,15772],[88.3,15851],[88.3,15935],[88.3,16025],[88.3,16109],[88.3,16184],[88.3,16275],[88.3,16360],[88.3,16435],[88.3,16518],[88.3,16601],[88.3,16684],[88.3,16775],[88.3,16850],[88.3,16941],[88.3,17017],[88.3,17101],[88.3,17187],[88.3,17267],[88.3,17351],[88.3,17440],[88.3,17517],[88.3,17600],[88.3,17683],[88.3,17767],[88.3,17851],[88.3,17933],[88.3,18024],[88.3,18106],[88.3,18183],[88.3,18273],[88.3,18349],[88.3,18432],[88.3,18516],[88.3,18607],[88.3,18683],[88.3,18773],[88.3,18856],[88.3,18932],[88.3,19022],[88.3,19099],[88.3,19182],[88.3,19272],[88.3,19348],[88.3,19439],[88.3,19515],[88.3,19606],[88.3,19685],[88.3,19765],[88.3,19849],[88.3,19931],[88.3,20014],[88.3,20098],[88.3,20181],[88.3,20271],[88.3,20355],[88.3,20437],[88.3,20522],[88.3,20597],[88.3,20680],[88.3,20767],[88.3,20851],[88.3,20931],[88.3,21014],[88.3,21103],[88.3,21180],[88.3,21263],[88.3,21347],[88.3,21430],[88.3,21513],[88.3,21603],[88.3,21681],[88.3,21770],[88.3,21846],[88.3,21936],[88.3,22013],[88.3,22096],[88.3,22180],[88.3,22263],[88.3,22353],[88.3,22436],[88.3,22512],[88.3,22596],[88.3,22686],[88.3,22770],[88.3,22845],[88.3,22928],[88.3,23012],[88.3,23095],[88.3,23178],[88.3,23268],[88.3,23345],[88.3,23428],[88.3,23511],[88.3,23595],[88.3,23678],[88.3,23761],[88.3,23845],[88.3,23927],[88.3,24017],[88.3,24101],[88.3,24177],[88.3,24264],[88.3,24351],[88.3,24427],[88.3,24517],[88.3,24593],[88.3,24680],[88.3,24760],[88.3,24849],[88.3,24927],[88.3,25011],[88.3,25093],[88.3,25177],[88.3,25260],[88.3,25350],[88.3,25426],[88.3,25510],[88.3,25593],[88.3,25681],[88.3,25760],[88.3,25843],[88.3,25934],[88.3,26015],[88.3,26099],[88.3,26175],[88.3,26266],[88.3,26342],[88.3,26425],[88.3,26508],[88.3,26591],[88.3,26682],[88.3,26765],[88.3,26842],[88.3,26932],[88.3,27010],[88.3,27091],[88.3,27175],[88.3,27259],[88.3,27342],[88.3,27433],[88.3,27515],[88.3,27594],[88.3,27674],[88.3,27764],[88.3,27841],[88.3,27932],[88.3,28007],[88.3,28092],[88.3,28174],[88.3,28257],[88.3,28347],[88.3,28424],[88.3,28514],[88.3,28591],[88.3,28673],[88.3,28764],[88.3,28841],[88.3,28930],[88.3,29015],[88.3,29090],[88.3,29180],[88.3,29256],[88.3,29340],[88.3,29431],[88.3,29507],[88.3,29598],[88.3,29680],[88.3,29756],[88.3,29846],[88.3,29923],[88.3,30014],[88.3,30088],[88.3,30174],[88.3,30256],[88.3,30346],[88.3,30429],[88.3,30512],[88.3,30588],[88.3,30678],[88.3,30762],[88.3,30838],[88.3,30928],[88.3,31012],[88.3,31095],[88.3,31171],[88.3,31261],[88.3,31338],[88.3,31421],[88.3,31505],[88.3,31588],[88.3,31671],[88.3,31755],[88.3,31844],[88.3,31927],[88.3,32003],[88.3,32087],[88.3,32170],[88.3,32255],[88.3,32337],[88.3,32427],[88.3,32504],[88.3,32594],[88.3,32670],[88.3,32761],[88.3,32837],[88.3,32920],[88.3,33004],[88.3,33090],[88.3,33176],[88.3,33253],[88.3,33338],[88.3,33427],[88.3,33502],[88.3,33585],[88.3,33669],[88.3,33753],[88.3,33836],[88.3,33919],[88.3,34005],[88.3,34093],[88.3,34169],[88.3,34252],[88.3,34342],[88.3,34426],[88.3,34503],[88.3,34585],[88.3,34676],[88.3,34758],[88.3,34842],[88.3,34920],[88.3,35001],[88.3,35085],[88.3,35168],[88.3,35258],[88.3,35337],[88.3,35418],[88.3,35508],[88.3,35584],[88.3,35667],[88.3,35751],[88.3,35834],[88.3,35918],[88.3,36004],[88.3,36091],[88.3,36174],[88.3,36250],[88.3,36341],[88.3,36416],[88.3,36507],[88.3,36583],[88.3,36667],[88.3,36750],[88.3,36840],[88.3,36923],[88.3,37000],[88.3,37084],[88.3,37173],[88.3,37250],[88.3,37333],[88.3,37416],[88.3,37499],[88.3,37582],[88.3,37672],[88.3,37756],[88.3,37832],[88.3,37916],[88.3,37999],[88.3,38084],[88.3,38166],[88.3,38248],[88.3,38331],[88.3,38422],[88.3,38498],[88.3,38588],[88.3,38672],[88.3,38748],[88.3,38832],[88.3,38914],[88.3,38998],[88.3,39081],[88.3,39164],[88.3,39247],[88.3,39331],[88.3,39422],[88.3,39498]]",1138.3553,1141.0853,85.72916985,2.0025,"[{""rating"":85.72916984558105,""responseTime"":2.0025000000000546}]",space,2.1785,,1141.0854,Definitely yes,100,1141.0901,,,[],,0,9,9,9,1,audio/Narrative7Situation9.wav,audio/Narrative8Situation9.wav,audio/Narrative5Situation9.wav,audio/Narrative6Situation9.wav,2,3,3,4,,,,,,,,,,,,,,,,,,,,,,,,,,,,,,,,,,,,,,,
,,,,,670debf636edeecf039af7f6,2025-07-07_22h42.50.585,group3.4_multiperson,2023.2.2,Win32,59.88023952,686c2ebf0248f13bef9af11f,686c93578c20f19c300d8a2a,,,,,,,,,,,,,,,,,,,,,,,,,,,,,1141.0905,2,audio/Narrative6Situation1.wav,1143.0943,,1143.095,1169.6678,"[[85.3,5626],[84.2,5708],[82.9,5790],[82.7,5873],[82.7,5957],[82.7,6040],[82.7,6123],[82.7,6206],[82.7,6290],[82.7,6373],[82.7,6456],[82.7,6539],[82.7,6623],[82.7,6706],[82.7,6789],[82.7,6873],[82.7,6956],[82.7,7039],[82.7,7122],[82.7,7205],[82.7,7289],[82.7,7372],[82.7,7456],[82.7,7539],[82.7,7622],[82.7,7705],[82.7,7788],[82.7,7872],[82.7,7955],[82.7,8038],[82.7,8121],[82.7,8205],[82.7,8288],[82.7,8371],[82.7,8454],[82.7,8538],[82.7,8621],[82.7,8705],[82.7,8788],[82.7,8871],[82.7,8954],[82.7,9038],[82.7,9121],[82.7,9204],[82.7,9287],[82.7,9371],[82.7,9454],[82.7,9537],[82.7,9620],[82.7,9704],[82.7,9787],[82.7,9870],[82.7,9953],[82.7,10037],[82.7,10120],[82.7,10203],[82.7,10286],[82.7,10370],[82.7,10453],[82.7,10536],[82.7,10619],[82.7,10703],[82.7,10786],[82.7,10869],[82.7,10953],[82.7,11036],[82.7,11119],[82.7,11202],[82.7,11285],[82.7,11369],[82.7,11452],[82.7,11535],[82.7,11619],[82.7,11702],[82.7,11786],[82.7,11868],[82.7,11951],[82.7,12035],[82.7,12118],[82.7,12202],[82.7,12285],[82.7,12368],[82.7,12451],[82.7,12534],[82.7,12618],[82.7,12701],[82.7,12784],[82.7,12868],[82.7,12951],[82.7,13034],[82.7,13117],[82.7,13200],[82.7,13283],[82.7,13367],[82.7,13450],[82.7,13534],[82.7,13617],[82.7,13700],[82.7,13783],[82.7,13867],[82.7,13950],[82.7,14033],[82.7,14117],[82.7,14200],[82.7,14283],[82.7,14366],[82.7,14449],[82.7,14532],[82.7,14616],[82.7,14699],[82.7,14782],[82.7,14866],[82.7,14949],[82.7,15032],[82.7,15115],[82.7,15199],[82.7,15282],[82.7,15365],[82.7,15448],[82.7,15532],[82.7,15615],[82.7,15698],[82.7,15781],[82.7,15865],[82.7,15948],[82.7,16031],[82.7,16115],[82.7,16198],[82.7,16281],[82.7,16364],[82.7,16448],[82.7,16531],[82.7,16614],[82.7,16697],[82.7,16782],[82.7,16864],[82.7,16947],[82.7,17030],[82.7,17113],[82.7,17197],[82.7,17280],[82.7,17363],[82.7,17447],[82.7,17530],[82.7,17613],[82.7,17696],[82.7,17780],[82.7,17863],[82.7,17946],[82.7,18030],[82.7,18113],[82.7,18196],[82.7,18279],[82.7,18362],[82.7,18446],[82.7,18529],[82.7,18612],[82.7,18696],[82.7,18779],[82.7,18864],[82.7,18945],[82.7,19029],[82.7,19112],[82.7,19195],[82.7,19278],[82.7,19362],[82.7,19445],[82.7,19528],[82.7,19612],[82.7,19695],[82.7,19778],[82.7,19861],[82.7,19945],[82.7,20028],[82.7,20111],[82.7,20194],[82.7,20278],[82.7,20361],[82.7,20444],[82.7,20528],[82.7,20611],[82.7,20694],[82.7,20777],[82.7,20860],[82.7,20944],[82.7,21027],[82.7,21110],[82.7,21193],[82.7,21277],[82.7,21360],[82.7,21443],[82.7,21527],[82.7,21610],[82.7,21693],[82.7,21776],[82.7,21860],[82.7,21943],[82.7,22026],[82.7,22109],[82.7,22193],[82.7,22276],[82.7,22359],[82.7,22442],[82.7,22525],[82.7,22609],[82.7,22692],[82.7,22776],[82.7,22859],[82.7,22942],[82.7,23026],[82.7,23108],[82.7,23192],[82.7,23275],[82.7,23359],[82.7,23442],[82.7,23525],[82.7,23608],[82.7,23691],[82.7,23774],[82.7,23858],[82.7,23941],[82.7,24024],[82.7,24108],[82.7,24191],[82.7,24274],[82.7,24357],[82.7,24441],[82.7,24524],[82.7,24607],[82.7,24690],[82.7,24774],[82.7,24857],[82.7,24941],[82.7,25024],[82.7,25107],[82.7,25190],[82.7,25273],[82.7,25357],[82.7,25440],[82.7,25523],[82.7,25606],[82.7,25690],[82.7,25773],[82.7,25856],[82.7,25939],[82.7,26022],[82.7,26106],[82.7,26189],[82.7,26272],[82.7,26355],[82.7,26439],[82.7,26522]]",1169.6682,1172.4159,81.25,1.8097,"[{""rating"":81.25,""responseTime"":1.8097000000475418}]",space,2.2009,,1172.4163,Partially,50,1172.425,,,[],,0,10,10,10,1,audio/Narrative8Situation1.wav,audio/Narrative7Situation1.wav,audio/Narrative6Situation1.wav,audio/Narrative5Situation1.wav,5,2,2,5,,,,,,,,,,,,,,,,,,,,,,,,,,,,,,,,,,,,,,,
,,,,,670debf636edeecf039af7f6,2025-07-07_22h42.50.585,group3.4_multiperson,2023.2.2,Win32,59.88023952,686c2ebf0248f13bef9af11f,686c93578c20f19c300d8a2a,,,,,,,,,,,,,,,,,,,,,,,,,,,,,1172.4257,2,audio/Narrative6Situation2.wav,1175.4318,,1175.4325,1203.939,"[[77.3,5877],[73.6,5959],[73.2,6042],[72.9,6125],[72.8,6208],[72.8,6291],[72.8,6375],[72.8,6458],[72.8,6541],[72.8,6625],[72.8,6708],[72.8,6791],[72.8,6874],[72.8,6957],[72.8,7041],[72.8,7124],[72.8,7207],[72.8,7290],[72.8,7374],[72.8,7457],[72.8,7540],[72.8,7624],[72.8,7706],[72.8,7790],[72.8,7873],[72.8,7956],[72.8,8040],[72.8,8123],[72.8,8206],[72.8,8289],[72.8,8373],[72.8,8456],[72.8,8539],[72.8,8623],[72.8,8706],[72.8,8789],[72.8,8872],[72.8,8956],[72.8,9039],[72.8,9122],[72.8,9205],[72.8,9289],[72.8,9372],[72.8,9455],[72.8,9539],[72.8,9622],[72.8,9705],[72.8,9788],[72.8,9871],[72.8,9955],[72.8,10038],[72.8,10121],[72.8,10204],[72.8,10288],[72.8,10371],[72.8,10454],[72.8,10537],[72.8,10621],[72.8,10704],[72.8,10787],[72.8,10870],[72.8,10954],[72.8,11037],[72.8,11120],[72.8,11204],[72.8,11287],[72.8,11370],[72.8,11454],[72.8,11537],[72.8,11620],[72.8,11703],[72.8,11787],[72.8,11870],[72.8,11953],[72.8,12036],[72.8,12120],[72.8,12203],[72.8,12286],[72.8,12369],[72.8,12453],[72.8,12536],[72.8,12619],[72.8,12702],[72.8,12786],[72.8,12869],[72.8,12952],[72.8,13035],[72.8,13119],[72.8,13202],[72.8,13285],[72.8,13368],[72.8,13452],[72.8,13535],[72.8,13618],[72.8,13701],[72.8,13785],[72.8,13868],[72.8,13951],[72.8,14034],[72.8,14118],[72.8,14201],[72.8,14284],[72.8,14368],[72.8,14451],[78.6,14551],[79.6,14634],[79.6,14717],[79.6,14800],[80.1,14884],[80.5,14967],[80.5,15050],[80.5,15133],[80.5,15217],[80.5,15300],[80.5,15383],[80.5,15466],[80.5,15550],[80.5,15633],[80.5,15716],[80.5,15800],[80.5,15883],[80.5,15966],[80.5,16049],[80.5,16133],[80.5,16216],[80.5,16299],[80.5,16382],[80.5,16466],[80.5,16549],[80.5,16632],[80.5,16715],[80.5,16799],[80.5,16882],[80.5,16965],[80.5,17048],[80.5,17132],[80.5,17215],[80.5,17298],[80.5,17382],[80.5,17465],[80.5,17548],[80.5,17631],[80.5,17715],[80.5,17798],[80.5,17881],[80.5,17965],[80.5,18048],[80.5,18131],[80.5,18214],[80.5,18298],[80.5,18381],[80.5,18464],[80.5,18548],[80.5,18631],[80.5,18714],[80.5,18797],[80.5,18880],[80.5,18965],[80.5,19047],[80.5,19130],[80.5,19213],[80.5,19296],[80.5,19380],[80.5,19463],[80.5,19546],[80.5,19630],[80.5,19713],[80.5,19796],[80.5,19879],[80.5,19963],[80.5,20046],[80.5,20129],[80.5,20213],[80.5,20296],[80.5,20379],[80.5,20463],[80.5,20546],[80.5,20629],[80.5,20712],[80.5,20795],[80.5,20879],[80.5,20962],[80.5,21045],[80.5,21128],[80.5,21212],[80.5,21295],[80.5,21378],[80.5,21461],[80.5,21544],[80.5,21628],[80.5,21711],[80.5,21794],[80.5,21878],[80.5,21961],[80.5,22044],[80.5,22127],[80.5,22211],[80.5,22294],[80.5,22377],[80.5,22461],[80.5,22544],[80.5,22627],[80.5,22710],[80.5,22794],[80.5,22877],[80.5,22960],[80.5,23043],[80.5,23126],[80.5,23210],[80.5,23293],[80.5,23376],[80.5,23460],[80.5,23543],[80.5,23626],[80.5,23709],[80.5,23793],[80.5,23876],[80.5,23959],[80.5,24042],[80.5,24126],[80.5,24209],[80.5,24292],[80.5,24375],[80.5,24459],[80.5,24542],[80.5,24625],[80.5,24708],[80.5,24792],[80.5,24875],[80.5,24958],[80.5,25042],[80.5,25125],[80.5,25208],[80.5,25291],[80.5,25375],[80.5,25458],[80.5,25541],[80.5,25624],[80.5,25708],[80.5,25791],[80.5,25874],[80.5,25957],[80.5,26041],[80.5,26124],[80.5,26207],[80.5,26290],[80.5,26374],[80.5,26457],[80.5,26540],[80.5,26624],[80.5,26707],[80.5,26790],[80.5,26873],[80.5,26957],[80.5,27040],[80.5,27123],[80.5,27206],[80.5,27290],[80.5,27373],[80.5,27456],[80.5,27539],[80.5,27623],[80.5,27706],[80.5,27789],[80.5,27872],[80.5,27956],[80.5,28039],[80.5,28122],[80.5,28205],[80.5,28289],[80.5,28372],[80.5,28455]]",1203.9398,1206.253,82.39583174,1.375,"[{""rating"":82.39583174387614,""responseTime"":1.375}]",space,1.7706,,1206.2532,Not at all,0,1206.2625,,,[],,0,11,11,11,1,audio/Narrative8Situation2.wav,audio/Narrative7Situation2.wav,audio/Narrative6Situation2.wav,audio/Narrative5Situation2.wav,3,3,3,3,,,,,,,,,,,,,,,,,,,,,,,,,,,,,,,,,,,,,,,
,,,,,670debf636edeecf039af7f6,2025-07-07_22h42.50.585,group3.4_multiperson,2023.2.2,Win32,59.88023952,686c2ebf0248f13bef9af11f,686c93578c20f19c300d8a2a,,,,,,,,,,,,,,,,,,,,,,,,,,,,,1206.2629,2,audio/Narrative6Situation3.wav,1211.2658,,1211.266,1223.8875,"[[81.3,6044],[72.6,6126],[59,6210],[52.2,6293],[52,6376],[51.9,6460],[54.7,6543],[58.1,6627],[59.1,6709],[59.1,6792],[59.1,6875],[60.2,6959],[64.7,7043],[71.5,7126],[74.9,7209],[75,7292],[73.2,7376],[70,7459],[69.4,7542],[69.2,7625],[68,7709],[67.9,7791],[67.9,7875],[67.9,7958],[67.9,8041],[67.9,8125],[67.9,8208],[67.9,8291],[67.9,8375],[67.9,8457],[67.9,8541],[67.9,8625],[67.9,8707],[67.9,8791],[67.9,8874],[67.9,8959],[67.9,9040],[67.9,9123],[67.9,9207],[67.9,9290],[67.9,9375],[67.9,9457],[69.6,9541],[73.5,9624],[75.1,9707],[75.2,9790],[75.2,9873],[75.2,9956],[75.2,10040],[75.2,10123],[75.2,10206],[75.2,10289],[75.2,10373],[75.2,10456],[75.2,10539],[75.2,10622],[75.2,10706],[75.2,10789],[75.2,10872],[75.2,10955],[75.2,11039],[75.2,11122],[75.2,11205],[75.2,11288],[75.2,11372],[75.2,11455],[75.2,11538],[75.2,11622],[75.2,11705],[75.2,11788],[75.2,11871],[75.2,11955],[75.2,12038],[75.2,12121],[75.2,12205],[75.2,12288],[75.2,12371],[75.2,12454],[75.2,12537],[75.2,12621]]",1223.8877,1228.6834,77.18749841,2.5883,"[{""rating"":77.1874984105428,""responseTime"":2.5882999999521417}]",space,4.2517,,1228.6836,Partially,50,1228.6905,,,[],,0,12,12,12,1,audio/Narrative8Situation3.wav,audio/Narrative7Situation3.wav,audio/Narrative6Situation3.wav,audio/Narrative5Situation3.wav,4,8,5,3,,,,,,,,,,,,,,,,,,,,,,,,,,,,,,,,,,,,,,,
,,,,,670debf636edeecf039af7f6,2025-07-07_22h42.50.585,group3.4_multiperson,2023.2.2,Win32,59.88023952,686c2ebf0248f13bef9af11f,686c93578c20f19c300d8a2a,,,,,,,,,,,,,,,,,,,,,,,,,,,,,1228.6909,2,audio/Narrative6Situation4.wav,1230.7023,,1230.7024,1243.3201,"[[79.2,6439],[77.4,6523],[76.1,6606],[74.9,6690],[73.1,6773],[71,6856],[70.4,6939],[70,7022],[70,7105],[69.9,7188],[69.9,7272],[70,7357],[73.1,7439],[74,7522],[74.8,7606],[76.1,7689],[77.4,7771],[77.4,7855],[77.4,7938],[77.4,8021],[77.4,8104],[77.4,8188],[77.4,8271],[77.4,8354],[77.4,8437],[77.4,8520],[77.4,8604],[77.4,8688],[77.4,8770],[77.4,8854],[77.4,8937],[77.4,9020],[77.4,9104],[77.4,9187],[77.4,9270],[77.4,9354],[77.4,9437],[77.4,9520],[77.4,9604],[77.4,9687],[77.4,9770],[77.4,9853],[77.4,9936],[77.4,10020],[77.4,10103],[77.4,10186],[77.4,10269],[77.4,10354],[77.4,10436],[77.4,10519],[77.4,10602],[77.4,10686],[77.4,10769],[77.4,10852],[77.4,10936],[77.4,11018],[77.4,11102],[77.4,11185],[77.4,11268],[77.4,11352],[77.4,11435],[77.4,11518],[77.4,11602],[77.4,11685],[77.4,11768],[77.4,11851],[77.4,11934],[77.4,12018],[77.4,12101],[77.4,12184],[77.4,12268],[77.4,12351],[77.4,12434],[77.4,12517],[77.4,12600]]",1243.3204,1246.384,86.87500954,2.3119,"[{""rating"":86.87500953674316,""responseTime"":2.3118999999762764}]",space,2.5189,,1246.3841,Partially,50,1246.3884,,,[],,0,13,13,13,1,audio/Narrative8Situation4.wav,audio/Narrative7Situation4.wav,audio/Narrative6Situation4.wav,audio/Narrative5Situation4.wav,3,3,2,1,,,,,,,,,,,,,,,,,,,,,,,,,,,,,,,,,,,,,,,
,,,,,670debf636edeecf039af7f6,2025-07-07_22h42.50.585,group3.4_multiperson,2023.2.2,Win32,59.88023952,686c2ebf0248f13bef9af11f,686c93578c20f19c300d8a2a,,,,,,,,,,,,,,,,,,,,,,,,,,,,,1246.3887,2,audio/Narrative6Situation5.wav,1248.3992,,1248.3993,1256.3588,"[[85.5,3696],[84.2,3780],[83.1,3863],[82.7,3946],[82.5,4029],[82.2,4112],[82.2,4195],[82.2,4279],[82.2,4362],[82.2,4445],[82.2,4528],[82.2,4612],[82.2,4695],[82.2,4778],[82.2,4861],[82.2,4945],[82.2,5028],[82.2,5111],[82.2,5195],[82.2,5278],[82.2,5361],[82.2,5444],[82.2,5528],[82.2,5611],[82.2,5695],[82.2,5778],[82.2,5861],[81.9,5944],[81.5,6028],[81.5,6110],[81.1,6195],[80.9,6277],[80.9,6360],[80.9,6443],[80.9,6527],[80.9,6610],[80.9,6693],[80.9,6776],[80.9,6860],[80.9,6944],[80.9,7026],[80.9,7110],[80.9,7193],[80.9,7276],[80.9,7359],[80.9,7443],[80.9,7526],[80.9,7609],[80.3,7693],[79.6,7776],[79.3,7859],[78.9,7942]]",1256.359,1260.2555,78.85417144,1.1563,"[{""rating"":78.85417143503825,""responseTime"":1.1562999999521253}]",space,3.3519,,1260.2555,Partially,50,1260.2873,,,[],,0,14,14,14,1,audio/Narrative8Situation5.wav,audio/Narrative7Situation5.wav,audio/Narrative6Situation5.wav,audio/Narrative5Situation5.wav,2,5,2,5,,,,,,,,,,,,,,,,,,,,,,,,,,,,,,,,,,,,,,,
,,,,,670debf636edeecf039af7f6,2025-07-07_22h42.50.585,group3.4_multiperson,2023.2.2,Win32,59.88023952,686c2ebf0248f13bef9af11f,686c93578c20f19c300d8a2a,,,,,,,,,,,,,,,,,,,,,,,,,,,,,1260.2878,2,audio/Narrative6Situation6.wav,1262.3036,,1262.3037,1273.394,"[[80.7,7359],[81.1,7443],[81.3,7526],[81.5,7609],[82.6,7693],[85.2,7776],[85.9,7859],[85.9,7942],[86.1,8026],[86.1,8109],[86.1,8192],[86.1,8275],[86.1,8359],[86.1,8442],[86.1,8525],[86.1,8609],[86.1,8692],[86.1,8775],[86.1,8858],[86.1,8941],[86.1,9025],[86.1,9108],[86.1,9191],[86.1,9275],[86.1,9358],[86.1,9441],[86.1,9524],[86.1,9607],[86.1,9691],[86.1,9774],[86.1,9858],[86.1,9941],[86.1,10024],[86.1,10107],[86.1,10190],[86.1,10274],[86.1,10357],[86.1,10440],[86.1,10523],[86.1,10607],[86.1,10690],[86.1,10773],[86.1,10856],[86.1,10940],[86.1,11023]]",1273.3941,1275.9085,86.14583015,1.7308,"[{""rating"":86.14583015441895,""responseTime"":1.7307999999522963}]",space,1.9694,,1275.9086,Definitely yes,100,1275.915,,,[],,0,15,15,15,1,audio/Narrative8Situation6.wav,audio/Narrative7Situation6.wav,audio/Narrative6Situation6.wav,audio/Narrative5Situation6.wav,2,3,2,3,,,,,,,,,,,,,,,,,,,,,,,,,,,,,,,,,,,,,,,
,,,,,670debf636edeecf039af7f6,2025-07-07_22h42.50.585,group3.4_multiperson,2023.2.2,Win32,59.88023952,686c2ebf0248f13bef9af11f,686c93578c20f19c300d8a2a,,,,,,,,,,,,,,,,,,,,,,,,,,,,,1275.9153,2,audio/Narrative6Situation7.wav,1280.9205,,1280.9205,1305.7857,"[[85.8,3967],[84.9,4047],[82.3,4130],[78.4,4213],[75.7,4297],[72.8,4380],[72,4462],[71.7,4546],[71.7,4629],[71.7,4712],[71.7,4795],[71.7,4878],[71.7,4962],[71.7,5045],[71.7,5128],[71.7,5211],[71.7,5295],[71.7,5378],[71.7,5462],[71.7,5545],[71.7,5628],[71.7,5711],[71.7,5795],[71.7,5878],[71.7,5961],[71.7,6045],[71.7,6128],[71.7,6211],[71.7,6294],[71.7,6378],[71.7,6461],[71.7,6544],[71.7,6627],[71.7,6711],[71.7,6794],[71.7,6877],[71.7,6960],[71.7,7043],[71.7,7127],[71.7,7210],[71.7,7293],[71.7,7376],[71.7,7460],[71.7,7543],[71.7,7626],[71.7,7710],[71.7,7793],[71.7,7876],[71.7,7960],[71.7,8043],[71.7,8126],[71.7,8209],[71.7,8293],[71.7,8376],[71.7,8459],[71.7,8542],[71.7,8626],[71.7,8709],[71.7,8792],[71.7,8875],[71.7,8959],[71.7,9042],[71.7,9125],[71.7,9208],[71.7,9292],[71.7,9375],[71.7,9458],[71.7,9541],[71.7,9625],[71.7,9708],[71.7,9791],[71.7,9875],[71.7,9958],[71.7,10041],[71.7,10124],[71.7,10207],[71.7,10290],[71.7,10374],[71.7,10457],[71.7,10540],[71.7,10624],[71.7,10707],[71.7,10790],[71.7,10873],[71.7,10957],[71.7,11040],[71.7,11123],[71.7,11206],[71.7,11290],[71.7,11373],[71.7,11456],[71.7,11540],[71.7,11623],[71.7,11706],[71.7,11790],[71.7,11873],[71.7,11956],[71.7,12039],[71.7,12122],[71.7,12206],[71.7,12289],[71.7,12372],[71.7,12455],[71.7,12539],[71.7,12622],[71.7,12705],[71.7,12789],[71.7,12872],[71.7,12955],[71.7,13038],[71.7,13122],[71.7,13205],[71.7,13288],[71.7,13371],[77.3,13463],[83,13546],[85.4,13630],[85.6,13707],[87.5,13796],[87.5,13871],[87.3,13958],[87.3,14039],[87.3,14121],[87.3,14204],[87.3,14288],[87.3,14371],[87.3,14458],[87.3,14537],[87.3,14622],[87.3,14708],[87.3,14788],[87.3,14871],[87.3,14961],[87.3,15044],[87.3,15120],[87.3,15211],[87.3,15287],[87.3,15373],[87.3,15459],[87.3,15544],[87.3,15627],[87.3,15711],[87.3,15787],[87.3,15877],[87.3,15954],[87.3,16036],[87.3,16125],[87.3,16204],[87.3,16293],[87.3,16377],[87.3,16452],[87.3,16543],[87.3,16619],[87.3,16710],[87.3,16786],[87.3,16869],[87.3,16953],[87.3,17038],[87.3,17125],[87.3,17209],[87.3,17285],[87.3,17370],[87.3,17451],[87.3,17542],[87.3,17626],[87.3,17702],[87.3,17791],[87.3,17868],[87.3,17951],[87.3,18041],[87.3,18117],[87.3,18201],[87.3,18289],[87.3,18368],[87.3,18458],[87.3,18541],[87.3,18624],[87.3,18708],[87.3,18784],[87.3,18867],[87.3,18951],[87.3,19041],[87.3,19124],[87.3,19201],[87.3,19291],[87.3,19374],[87.3,19449],[87.3,19534],[87.3,19616],[87.3,19700],[87.3,19791],[87.3,19868],[87.3,19956],[87.3,20040],[87.3,20124],[87.3,20199],[87.3,20290],[87.3,20366],[87.3,20456],[87.3,20532],[87.3,20616],[87.3,20700],[87.3,20782],[87.3,20872],[87.3,20956],[87.3,21032],[87.3,21115],[87.3,21200],[87.3,21282],[87.3,21372],[87.3,21457],[87.3,21538],[87.3,21622],[87.3,21706],[87.3,21782],[87.3,21865],[87.3,21955],[87.3,22032],[87.3,22122],[87.3,22198],[87.3,22288],[87.3,22364],[87.3,22447],[87.3,22531],[87.3,22614],[87.3,22697],[87.3,22788],[87.3,22871],[87.3,22954],[87.3,23039],[87.3,23114],[87.3,23197],[87.3,23282],[87.3,23370],[87.3,23454],[87.3,23530],[87.3,23620],[87.3,23704],[87.3,23786],[87.3,23863],[87.3,23953],[87.3,24029],[87.3,24114],[87.3,24198],[87.3,24281],[87.3,24363],[87.3,24453],[87.3,24536],[87.3,24612],[87.3,24695],[87.3,24783],[87.3,24863]]",1305.7863,1308.9132,85.52083969,1.519,"[{""rating"":85.52083969116211,""responseTime"":1.5190000000000055}]",space,2.5841,,1308.9133,Not at all,0,1308.9222,,,[],,0,16,16,16,1,audio/Narrative8Situation7.wav,audio/Narrative7Situation7.wav,audio/Narrative6Situation7.wav,audio/Narrative5Situation7.wav,3,5,5,4,,,,,,,,,,,,,,,,,,,,,,,,,,,,,,,,,,,,,,,
,,,,,670debf636edeecf039af7f6,2025-07-07_22h42.50.585,group3.4_multiperson,2023.2.2,Win32,59.88023952,686c2ebf0248f13bef9af11f,686c93578c20f19c300d8a2a,,,,,,,,,,,,,,,,,,,,,,,,,,,,,1308.9227,2,audio/Narrative6Situation8.wav,1313.9258,,1313.9259,1320.7865,"[[85.3,1298],[85.3,1381],[84.6,1465],[82.6,1548],[75.3,3629],[71.7,3713],[69.4,3796],[68.3,3879],[67.4,3962],[64.3,4046],[63.2,4129],[61.8,4212],[60.4,4296],[59.4,4379],[57.4,4462],[56.8,4545],[56.4,4628],[56.4,4711],[56.4,4795],[56.4,4878],[56.4,4961],[56.4,5044],[56.4,5128],[56.4,5211],[56.4,5294],[56.4,5378],[56.4,5461],[56.4,5544],[56.4,5627],[56.4,5710],[56.4,5794],[56.4,5877],[56.4,5960],[56.4,6043],[56.4,6127],[56.4,6210],[56.4,6293],[56.4,6376],[56.4,6460],[56.4,6543],[56.4,6626],[56.4,6710],[56.4,6793]]",1320.7868,1324.8658,36.56249841,2.5557,"[{""rating"":36.56249841054281,""responseTime"":2.5557000000476364}]",space,3.5387,,1324.8659,Not at all,0,1324.8716,,,[],,0,17,17,17,1,audio/Narrative8Situation8.wav,audio/Narrative7Situation8.wav,audio/Narrative6Situation8.wav,audio/Narrative5Situation8.wav,3,2,5,3,,,,,,,,,,,,,,,,,,,,,,,,,,,,,,,,,,,,,,,
,,,,,670debf636edeecf039af7f6,2025-07-07_22h42.50.585,group3.4_multiperson,2023.2.2,Win32,59.88023952,686c2ebf0248f13bef9af11f,686c93578c20f19c300d8a2a,,,,,,,,,,,,,,,,,,,,,,,,,,,,,1324.8721,2,audio/Narrative6Situation9.wav,1328.8803,,1328.8806,1338.8372,"[[40.8,6043],[41.5,6126],[43.4,6209],[44.1,6292],[40.5,6376],[30.3,6459],[7.1,7792],[4.2,7874],[8.6,7958],[12.9,8540],[11.9,8624],[9.2,8707],[9.2,8790],[9.2,8873],[9.2,8957],[9.2,9040],[9.2,9123],[9.2,9206],[9.2,9290],[9.2,9373],[9.2,9456],[9.2,9540],[9.2,9623],[9.2,9706],[9.2,9789],[9.2,9873],[9.2,9956]]",1338.8375,1341.8675,9.166665872,1.7613,"[{""rating"":9.166665871938068,""responseTime"":1.7612999999523709}]",space,2.4864,,1341.8676,Not at all,0,1341.8734,,,[],,0,18,18,18,1,audio/Narrative8Situation9.wav,audio/Narrative7Situation9.wav,audio/Narrative6Situation9.wav,audio/Narrative5Situation9.wav,3,2,4,3,,,,,,,,,,,,,,,,,,,,,,,,,,,,,,,,,,,,,,,
,,,,,670debf636edeecf039af7f6,2025-07-07_22h42.50.585,group3.4_multiperson,2023.2.2,Win32,59.88023952,686c2ebf0248f13bef9af11f,686c93578c20f19c300d8a2a,,,,,,,,,,,,,,,,,,,,,,,,,,,,,,,,,,,,,,,,,,,,,,,,,,,,,,,,,,,,,,,,,,,,,,1341.8735,1371.7093,space,29.3108,,1371.7118,1392.8911,space,20.8507,,,,,,,,,,,,,,,,,,,,,,,,,,
,,,,,670debf636edeecf039af7f6,2025-07-07_22h42.50.585,group3.4_multiperson,2023.2.2,Win32,59.88023952,686c2ebf0248f13bef9af11f,686c93578c20f19c300d8a2a,,,,,,,,,,,,,,,,,,,,,,,,,,,,,1395.4852,1,audio/Narrative8Situation9.wav,1397.4896,,,,,1429.4509,1434.2036,71.97916508,4.2608,"[{""rating"":63.64583174387614,""responseTime"":2.293700000047693},{""rating"":71.97916507720947,""responseTime"":4.260799999952269}]",space,4.2219,,1434.2038,Partially,50,1434.2116,,,[],,,,,,,,,,,2,2,2,2,,,,,,,,,,,,,,,1392.906,1395.4741,1397.491,3,1429.4506,"[[3.9,2709],[12.8,2792],[20.1,2875],[25.9,2959],[29.4,3043],[30.2,3125],[30.2,3208],[30.2,3291],[30.2,3385],[30.2,3458],[30.2,3541],[30.2,3624],[30.2,3708],[30.2,3791],[30.2,3874],[30.2,3957],[30.2,4040],[30.2,4124],[30.2,4207],[30.2,4290],[30.2,4374],[30.2,4457],[30.2,4540],[30.2,4623],[30.2,4707],[30.2,4790],[30.2,4873],[30.2,4957],[30.2,5040],[31.9,5124],[44.4,5207],[52.7,5290],[56.9,5373],[62.1,5456],[64.7,5540],[68,5623],[73.3,5707],[76.7,5789],[76.7,5872],[76.7,5955],[76.7,6039],[76.7,6122],[76.7,6205],[76.7,6289],[76.7,6373],[76.7,6456],[65.7,6539],[20.9,8538],[25.5,8621],[27,8704],[27,8786],[27,8870],[27,8953],[26.9,9036],[26.9,9120],[26.9,9203],[26.9,9286],[26.9,9369],[26.9,9452],[26.9,9536],[26.9,9619],[26.9,9702],[26.9,9785],[26.9,9869],[26.9,9952],[26.9,10035],[26.9,10135],[26.9,10219],[26.9,10302],[26.9,10387],[26.9,10476],[26.9,10559],[26.9,10642],[26.9,10725],[26.9,10802],[26.9,10885],[26.9,10969],[26.9,11052],[26.9,11137],[26.9,11222],[26.9,11305],[26.9,11391],[26.9,11468],[26.9,11551],[26.9,11634],[26.9,11718],[26.9,11808],[26.9,11891],[26.9,11970],[26.9,12057],[26.9,12140],[26.9,12220],[26.9,12307],[26.9,12385],[26.9,12467],[26.9,12557],[26.9,12634],[26.9,12724],[26.9,12807],[26.9,12883],[26.9,12974],[26.9,13050],[26.9,13135],[26.9,13223],[26.9,13309],[26.9,13383],[26.9,13482],[26.9,13566],[26.9,13649],[26.9,13732],[26.9,13815],[26.9,13899],[25.1,13982],[21.8,14066],[19.4,14149],[18.3,14232],[16.9,14315],[16.1,14398],[16.1,14481],[16.1,14565],[16.1,14648],[16.1,14731],[16.1,14814],[16.1,14898],[16.1,14981],[16.1,15064],[16.1,15147],[16.1,15231],[16.1,15314],[16.1,15397],[16.1,15481],[16.1,15564],[16.1,15647],[16.1,15730],[16.1,15814],[16.1,15897],[16.1,15980],[16.1,16063],[16.1,16147],[16.1,16230],[16.1,16313],[16.1,16398],[16.1,16480],[16.1,16563],[16.1,16646],[16.1,16730],[16.1,16813],[16.1,16896],[16.1,16979],[16.1,17062],[16.1,17146],[16.1,17229],[16.1,17312],[16.1,17396],[16.1,17479],[16.1,17562],[16.1,17645],[16.1,17729],[16.1,17812],[16.1,17895],[16.1,17979],[16.1,18062],[16.1,18145],[16.1,18229],[16.1,18312],[16.1,18395],[16.1,18478],[16.1,18561],[16.1,18644],[16.1,18728],[16.1,18811],[16.1,18894],[16.1,18977],[16.1,19061],[16.1,19144],[16.1,19227],[16.1,19310],[16.1,19394],[16.1,19477],[16.1,19560],[16.1,19644],[16.1,19727],[16.1,19810],[16.1,19893],[16.1,19977],[16.1,20060],[16.1,20150],[16.1,20234],[16.1,20310],[16.1,20393],[16.1,20476],[16.1,20563],[16.1,20643],[16.1,20734],[16.1,20817],[16.1,20893],[16.1,20979],[16.1,21067],[16.1,21143],[16.1,21226],[16.1,21316],[16.1,21393],[16.1,21483],[16.1,21566],[16.1,21642],[16.1,21733],[16.1,21810],[16.1,21893],[16.1,21976],[16.1,22059],[16.1,22142],[16.1,22233],[16.1,22309],[16.1,22399],[16.1,22478],[16.1,22559],[16.1,22642],[16.1,22725],[16.1,22815],[16.1,22898],[16.1,22975],[16.1,23065],[16.1,23148],[16.1,23231],[16.1,23307],[16.1,23391],[16.1,23490],[16.1,23573],[16.1,23657],[16.1,23740],[16.1,23823],[16.1,23906],[16.1,23990],[16.1,24073],[16.1,24156],[16.1,24240],[16.1,24323],[16.1,24406],[16.1,24489],[16.1,24573],[16.1,24656],[16.1,24739],[16.1,24822],[16.1,24906],[16.1,24989],[16.1,25072],[16.1,25155],[16.1,25239],[16.1,25322],[16.1,25405],[16.1,25489],[16.1,25572],[16.1,25655],[16.1,25738],[16.1,25821],[16.1,25905],[16.1,25988],[16.1,26071],[16.1,26154],[16.1,26238],[16.1,26321],[16.1,26405],[16.1,26488],[16.1,26571],[16.1,26654],[16.1,26738],[16.1,26838],[16.1,26921],[16.1,27004],[18,27087],[30.1,27171],[66.7,27670],[65.2,27754],[65.1,27836],[65.1,27920],[65.1,28003],[65.1,28086],[65.1,28169],[65.1,28253],[65.1,28336],[65.1,28419],[65.1,28503],[65.1,28586],[65.1,28669],[65.1,28752],[65.1,28836],[65.1,28919],[65.1,29003],[65.1,29085],[65.1,29168],[65.1,29252],[65.1,29335],[65.1,29418],[65.1,29502],[65.1,29585],[65.1,29668],[65.1,29751],[65.1,29835],[65.1,29918],[65.1,30001],[65.1,30085],[65.1,30169],[65.1,30252],[65.1,30335],[65.1,30421],[65.1,30508],[65.1,30592],[65.1,30668],[65.1,30758],[65.1,30841],[65.1,30918],[65.1,31001],[65.1,31085],[65.1,31168],[65.1,31251],[65.1,31342],[65.1,31424],[65.1,31509],[65.1,31584],[65.1,31667],[65.1,31751],[65.1,31835],[65.1,31917]]",0,0,0,0,1,"Larry had recently lost his family, job and home, and was now living on his own in the park. He had most of his belongings, including some clothes, a blanket, and his mother’s special necklace. His family had been very important to him and he felt as though he did not have much going for him. One of his first days in the park he came across a family that did not have much food and looked very cold. He decided to give them some of his food and his blanket.","Larry had recently lost his family, job and home, and was now living on his own in the park. He had most of his belongings, including some clothes, a blanket, and his mother’s special necklace. His family had been very important to him and he felt as though he did not have much going for him. One of his first days in the park he came across a family that did not have much food and looked very cold. He decided to give them some of his food and his blanket.","Larry had recently lost his family, job and home, and was now living on his own in the park. He had most of his belongings, including some clothes, a blanket, and his mother’s special necklace. His family had been very important to him and he felt as though he did not have much going for him. One of his first days in the park he came across a family that did not have much food and looked very cold. He decided to give them some of his food and his blanket.","Larry had recently lost his family, job and home, and was now living on his own in the park. He had most of his belongings, including some clothes, a blanket, and his mother’s special necklace. His family had been very important to him and he felt as though he did not have much going for him. One of his first days in the park he came across a family that did not have much food and looked very cold. He decided to give them some of his food and his blanket.",,,,,,,,,,
