consent.started,consent.stopped,consentResponse.keys,consentResponse.rt,consentResponse.duration,participantID,date,expName,psychopyVersion,OS,frameRate,STUDY_ID,SESSION_ID,opening1.started,opening1.stopped,keyEndingOpening1.keys,keyEndingOpening1.rt,keyEndingOpening1.duration,volumeAdjust.started,volumeAdjust.stopped,endingAdjust.keys,endingAdjust.rt,endingAdjust.duration,opening2.started,opening2.stopped,keyEndingOpening.keys,keyEndingOpening.rt,keyEndingOpening.duration,mouse.x,mouse.y,mouse.leftButton,mouse.midButton,mouse.rightButton,mouse.time,instructionLoop.thisRepN,instructionLoop.thisTrialN,instructionLoop.thisN,instructionLoop.thisIndex,instructionLoop.ran,readyForAudio.started,readyForAudio.stopped,fixation.started,run,audio_played,fixation.stopped,endPractice.keys,audioPre.started,audioPre.stopped,continuousResponses_audio,intRating.started,intRating.stopped,intQuestionSlider.response,intQuestionSlider.rt,intQuestionSlider.history,confirmResponse.keys,confirmResponse.rt,confirmResponse.duration,catchQuestion.started,catch_label,catch_value,catchQuestion.stopped,catchQuestionSlider.response,catchQuestionSlider.rt,catchQuestionSlider.history,confirmResponse_2.keys,audioRunLoop.thisRepN,audioRunLoop.thisTrialN,audioRunLoop.thisN,audioRunLoop.thisIndex,audioRunLoop.ran,conditions1_1,conditions2_1,conditions1_2,conditions2_2,dur1_1,dur2_1,dur1_2,dur2_2,endPractice.rt,endPractice.duration,confirmResponse_2.rt,confirmResponse_2.duration,runIntervalBreak.started,runIntervalBreak.stopped,endingBreakKey.keys,endingBreakKey.rt,endingBreakKey.duration,connection.started,connection.stopped,connectionEnding.keys,connectionEnding.rt,connectionEnding.duration,readyForText.started,readyForText.stopped,textPre.started,run_dup,textPre.stopped,continuousResponses_text,textRunLoop.thisRepN,textRunLoop.thisTrialN,textRunLoop.thisN,textRunLoop.thisIndex,textRunLoop.ran,text1_1,text1_2,text2_1,text2_2,runBreakText.started,runBreakText.stopped,endingBreakKey_2.keys,endingBreakKey_2.rt,endingBreakKey_2.duration,ending.started,ending.stopped,endingEnding.keys,endingEnding.rt,endingEnding.duration
0.0002,34.5451,y,34.2431,,6712fe1173dfa2bfa2d6294b,2025-07-07_22h41.03.894,group3.4_multiperson,2023.2.2,Win32,142.8571429,686c2ebf0248f13bef9af11f,686c83bd4acfe17d1d434055,,,,,,,,,,,,,,,,,,,,,,,,,,,,,,,,,,,,,,,,,,,,,,,,,,,,,,,,,,,,,,,,,,,,,,,,,,,,,,,,,,,,,,,,,,,,,,,,,,,,,,,,
,,,,,6712fe1173dfa2bfa2d6294b,2025-07-07_22h41.03.894,group3.4_multiperson,2023.2.2,Win32,142.8571429,686c2ebf0248f13bef9af11f,686c83bd4acfe17d1d434055,34.5453,43.3218,space,8.7581,,,,,,,,,,,,,,,,,,,,,,,,,,,,,,,,,,,,,,,,,,,,,,,,,,,,,,,,,,,,,,,,,,,,,,,,,,,,,,,,,,,,,,,,,,,,,,,,,,,,
,,,,,6712fe1173dfa2bfa2d6294b,2025-07-07_22h41.03.894,group3.4_multiperson,2023.2.2,Win32,142.8571429,686c2ebf0248f13bef9af11f,686c83bd4acfe17d1d434055,,,,,,43.3219,60.1805,space,16.5517,,,,,,,,,,,,,,,,,,,,,,,,,,,,,,,,,,,,,,,,,,,,,,,,,,,,,,,,,,,,,,,,,,,,,,,,,,,,,,,,,,,,,,,,,,,,,,,
,,,,,6712fe1173dfa2bfa2d6294b,2025-07-07_22h41.03.894,group3.4_multiperson,2023.2.2,Win32,142.8571429,686c2ebf0248f13bef9af11f,686c83bd4acfe17d1d434055,,,,,,,,,,,60.1822,72.3777,space,12.1848,,[],[],[],[],[],[],0,0,0,0,1,,,,,,,,,,,,,,,,,,,,,,,,,,,,,,,,,,,,,,,,,,,,,,,,,,,,,,,,,,,,,,,,,,,,,,,,,,,,,,
,,,,,6712fe1173dfa2bfa2d6294b,2025-07-07_22h41.03.894,group3.4_multiperson,2023.2.2,Win32,142.8571429,686c2ebf0248f13bef9af11f,686c83bd4acfe17d1d434055,,,,,,,,,,,72.378,106.1907,space,33.7667,,[],[],[],[],[],[],1,0,1,0,1,,,,,,,,,,,,,,,,,,,,,,,,,,,,,,,,,,,,,,,,,,,,,,,,,,,,,,,,,,,,,,,,,,,,,,,,,,,,,,
,,,,,6712fe1173dfa2bfa2d6294b,2025-07-07_22h41.03.894,group3.4_multiperson,2023.2.2,Win32,142.8571429,686c2ebf0248f13bef9af11f,686c83bd4acfe17d1d434055,,,,,,,,,,,106.1909,121.9685,space,15.7561,,[],[],[],[],[],[],2,0,2,0,1,,,,,,,,,,,,,,,,,,,,,,,,,,,,,,,,,,,,,,,,,,,,,,,,,,,,,,,,,,,,,,,,,,,,,,,,,,,,,,
,,,,,6712fe1173dfa2bfa2d6294b,2025-07-07_22h41.03.894,group3.4_multiperson,2023.2.2,Win32,142.8571429,686c2ebf0248f13bef9af11f,686c83bd4acfe17d1d434055,,,,,,,,,,,121.9687,151.8024,space,29.8156,,[],[],[],[],[],[],3,0,3,0,1,,,,,,,,,,,,,,,,,,,,,,,,,,,,,,,,,,,,,,,,,,,,,,,,,,,,,,,,,,,,,,,,,,,,,,,,,,,,,,
,,,,,6712fe1173dfa2bfa2d6294b,2025-07-07_22h41.03.894,group3.4_multiperson,2023.2.2,Win32,142.8571429,686c2ebf0248f13bef9af11f,686c83bd4acfe17d1d434055,,,,,,,,,,,151.8025,169.7956,space,17.9789,,[],[],[],[],[],[],4,0,4,0,1,,,,,,,,,,,,,,,,,,,,,,,,,,,,,,,,,,,,,,,,,,,,,,,,,,,,,,,,,,,,,,,,,,,,,,,,,,,,,,
,,,,,6712fe1173dfa2bfa2d6294b,2025-07-07_22h41.03.894,group3.4_multiperson,2023.2.2,Win32,142.8571429,686c2ebf0248f13bef9af11f,686c83bd4acfe17d1d434055,,,,,,,,,,,169.7957,190.7464,space,20.9462,,[],[],[],[],[],[],5,0,5,0,1,,,,,,,,,,,,,,,,,,,,,,,,,,,,,,,,,,,,,,,,,,,,,,,,,,,,,,,,,,,,,,,,,,,,,,,,,,,,,,
,,,,,6712fe1173dfa2bfa2d6294b,2025-07-07_22h41.03.894,group3.4_multiperson,2023.2.2,Win32,142.8571429,686c2ebf0248f13bef9af11f,686c83bd4acfe17d1d434055,,,,,,,,,,,,,,,,,,,,,,,,,,,190.7471,193.3251,193.3338,1,audio/Narrative13Situation2.wav,195.3376,,195.3377,225.0878,"[[999,0],[999,107],[999,195],[999,282],[999,367],[999,452],[999,541],[999,626],[999,721],[999,805],[999,888],[999,971],[999,1056],[999,1138],[999,1230],[999,1316],[999,1395],[999,1483],[999,1569],[999,1652],[999,1750],[999,1834],[999,1923],[999,2016],[999,2103],[999,2195],[999,2286],[999,2372],[51.3,2465],[51.4,2555],[51.4,2648],[50.3,2741],[49.4,2826],[49.7,2923],[50.5,3020],[50.5,3112],[50.5,3208],[50.5,3293],[50.5,3383],[50.5,3465],[50.1,3556],[49,3654],[49,3742],[49,3826],[49.1,3915],[49.1,3992],[49.1,4091],[49.2,4182],[49.2,4265],[49.5,4355],[49.5,4450],[49.5,4527],[49.5,4619],[49.5,4712],[49.5,4805],[49.5,4888],[49.5,4971],[49.5,5062],[49.5,5154],[49.5,5250],[51.8,5340],[54.3,5448],[58.4,5550],[61,5649],[64.4,5740],[68.5,5834],[71.6,5941],[72.9,6020],[73.8,6103],[73.8,6187],[73.8,6282],[73.8,6367],[73.8,6451],[73.8,6539],[73.8,6624],[73.8,6715],[73.3,6805],[73,6897],[72.9,6985],[72.9,7076],[72.9,7160],[72.9,7256],[72.9,7354],[72.9,7451],[72.9,7534],[72.9,7624],[72.9,7708],[72.9,7798],[72.9,7897],[72.7,7992],[72.2,8097],[71.8,8194],[71,8293],[68,8397],[63,8499],[57.5,8615],[57.4,8701],[57.4,8785],[57.4,8890],[57.4,8986],[57.4,9090],[57.4,9187],[57.4,9282],[57.4,9372],[57.4,9459],[57.4,9548],[57.4,9648],[57.4,9728],[57.4,9826],[57.4,9915],[57.4,9992],[57.4,10076],[57.4,10161],[57.4,10250],[57.4,10333],[57.4,10423],[57.4,10516],[57.4,10597],[57.4,10682],[57.4,10765],[57.4,10862],[57.4,10948],[57.4,11040],[57.4,11124],[57.4,11217],[57.4,11298],[57.4,11402],[57.4,11485],[57.4,11569],[57.4,11652],[57.4,11751],[57.4,11840],[57.4,11932],[52.8,12034],[42.9,12133],[34.7,12231],[25.9,12328],[16.5,12432],[11.3,12529],[5.4,13207],[5.5,13291],[5.5,13388],[5.5,13482],[5.5,13576],[5.5,13659],[5.5,13751],[5.5,13833],[5.5,13923],[5.5,14016],[5.5,14097],[5.5,14187],[5.5,14270],[5.5,14354],[5.5,14450],[5.5,14529],[5.5,14617],[5.5,14701],[5.5,14792],[5.5,14882],[5.5,14965],[5.5,15055],[5.5,15152],[5.5,15242],[5.5,15326],[5.5,15415],[5.5,15507],[5.5,15597],[5.5,15680],[5.5,15763],[5.5,15847],[5.5,15930],[5.5,16020],[5.5,16114],[5.5,16194],[5.5,16280],[5.5,16360],[5.5,16458],[5.5,16548],[5.5,16633],[5.5,16729],[5.5,16814],[5.5,16895],[5.5,16986],[5.5,17084],[5.5,17166],[5.5,17256],[5.5,17354],[5.5,17448],[5.5,17549],[5.5,17633],[5.5,17722],[5.5,17805],[5.5,17897],[5.5,17981],[5.5,18082],[5.5,18173],[5.5,18256],[5.5,18349],[5.5,18430],[5.5,18527],[5.5,18614],[5.5,18707],[5.5,18800],[5.5,18895],[5.5,18994],[5.5,19083],[5.5,19166],[5.5,19256],[5.5,19340],[5.5,19424],[5.5,19517],[5.5,19626],[5.5,19718],[5.5,19805],[5.5,19909],[5.5,19994],[5.5,20084],[5.5,20166],[5.5,20258],[5.5,20361],[5.5,20451],[5.5,20550],[5.5,20639],[5.5,20736],[5.5,20820],[5.5,20917],[5.5,21001],[5.5,21104],[5.5,21187],[5.5,21282],[5.5,21361],[5.5,21451],[5.5,21541],[5.5,21631],[5.5,21723],[5.5,21814],[5.5,21907],[5.5,22000],[5.5,22090],[5.5,22189],[5.5,22270],[5.5,22374],[5.5,22481],[5.5,22563],[5.5,22652],[5.5,22736],[5.5,22827],[5.5,22923],[6.6,23022],[7.4,23115],[8.1,23194],[10.7,23293],[16.1,23395],[19.2,23487],[22.2,23590],[23.5,23689],[23.8,23781],[25,23875],[28,23966],[32,24064],[37.1,24161],[41.4,24258],[43.2,24355],[44.2,24453],[44.3,24541],[44.3,24624],[44.3,24716],[44.3,24805],[44.3,24888],[44.8,24981],[46.6,25069],[46.6,25166],[46.6,25256],[47.8,25356],[51,25448],[53.2,25550],[54.8,25649],[56.3,25730],[57.5,25826],[59.5,25923],[61.5,26016],[64.5,26115],[67.4,26207],[68.2,26315],[68.9,26402],[69,26493],[69,26585],[69,26666],[69.2,26758],[74,26862],[80.3,26960],[87.5,27063],[91.4,27161],[91.8,27251],[91.8,27346],[91.8,27430],[93.2,27529],[94.4,27618],[94.4,27701],[94.4,27793],[94.4,27895],[94.4,27993],[94.4,28090],[94.4,28187],[94.4,28280],[94.4,28368],[94.4,28465],[94.4,28562],[94.4,28662],[94.4,28756],[94.4,28848],[94.4,28932],[94.4,29020],[94.4,29113],[94.4,29201],[94.4,29291],[94.4,29382],[94.4,29467],[94.4,29576],[94.4,29680]]",225.0881,239.153,99.6875,11.9563,"[{""rating"":85.83333333333334,""responseTime"":10.489499999999992},{""rating"":99.6875,""responseTime"":11.956299999999942}]",space,13.5418,,239.1532,Not at all,0,239.155,,,[],,0,0,0,0,1,audio/Narrative13Situation2.wav,audio/Narrative13Situation2.wav,audio/Narrative13Situation2.wav,audio/Narrative13Situation2.wav,2,2,2,2,,,,,,,,,,,,,,,,,,,,,,,,,,,,,,,,,,,,,,,
,,,,,6712fe1173dfa2bfa2d6294b,2025-07-07_22h41.03.894,group3.4_multiperson,2023.2.2,Win32,142.8571429,686c2ebf0248f13bef9af11f,686c83bd4acfe17d1d434055,,,,,,,,,,,,,,,,,,,,,,,,,,,,,239.1551,1,audio/Narrative7Situation1.wav,243.4353,space,243.4354,299.3158,"[[999,0],[999,96],[999,182],[999,270],[999,367],[999,457],[999,541],[999,624],[999,715],[999,798],[999,882],[999,965],[999,1056],[999,1138],[999,1221],[999,1305],[999,1402],[999,1501],[49.6,1604],[49.6,1694],[49.6,1783],[49.7,1888],[49.8,1981],[49.8,2069],[49.8,2160],[49.8,2252],[49.8,2349],[49.8,2437],[49.8,2538],[49.8,2624],[49.8,2717],[50.2,2814],[50.2,2895],[50.2,2985],[50.2,3069],[50.2,3160],[50.2,3257],[50.2,3340],[50.2,3423],[50.2,3515],[50.2,3604],[50.2,3688],[50.2,3784],[50.2,3888],[50.2,3972],[50.2,4062],[50.2,4154],[50.2,4240],[50.2,4332],[50.2,4418],[50.2,4515],[50.2,4597],[50.2,4688],[50.2,4770],[50.2,4867],[50.2,4959],[50.2,5056],[44.5,5154],[30.5,5257],[19.9,5354],[11.8,5453],[8.8,5556],[8.8,5650],[8.8,5730],[8.8,5820],[8.8,5917],[8.8,5999],[8.8,6085],[8.8,6173],[8.8,6264],[8.8,6349],[8.8,6441],[8.8,6534],[8.8,6626],[8.8,6716],[8.8,6799],[8.8,6888],[8.8,6971],[8.8,7069],[8.8,7154],[8.8,7242],[8.8,7333],[8.8,7423],[8.8,7520],[8.8,7618],[8.8,7708],[8.8,7791],[8.8,7883],[8.8,7964],[12,8069],[18.5,8168],[27.6,8275],[38.8,8384],[46.7,8483],[54.2,8585],[62.2,8689],[69.2,8791],[74,8890],[78.5,8987],[79.9,9091],[79.9,9173],[79.9,9263],[79.9,9353],[79.9,9437],[79.9,9527],[82.3,9619],[82.3,9717],[82.3,9798],[82.3,9896],[82.2,9982],[81,10085],[81,10166],[81,10250],[81,10340],[81,10430],[81,10521],[81,10610],[81,10708],[81,10791],[81,10882],[81,10965],[81,11057],[81,11138],[81,11228],[81,11315],[81,11409],[81,11492],[81,11586],[81,11673],[81,11765],[81,11860],[81,11947],[81,12027],[81,12124],[81,12221],[81,12314],[81,12395],[81,12494],[81,12584],[81,12683],[81,12770],[81,12854],[81,12949],[81,13029],[81,13119],[81,13201],[81,13291],[81,13388],[81,13480],[81,13562],[81,13648],[81,13728],[81,13826],[81,13918],[81,14006],[81,14090],[81,14173],[81,14265],[81,14349],[81,14451],[81,14546],[81,14631],[81,14722],[81,14805],[81,14897],[81,14985],[81,15074],[81,15166],[81,15270],[81,15354],[81,15449],[81,15541],[81,15624],[81,15716],[81,15798],[81,15896],[81,15987],[81.9,16098],[83.4,16194],[84,16284],[84.1,16367],[84.1,16451],[84.1,16555],[84.1,16648],[84.1,16740],[84.1,16833],[84.1,16923],[84.1,17014],[84.1,17097],[84.1,17189],[84.1,17274],[84.1,17355],[84.1,17452],[84.1,17534],[84.1,17624],[84.1,17716],[84.1,17805],[84.1,17895],[84.1,17985],[84.1,18081],[84.1,18159],[84.1,18242],[84.1,18326],[84.1,18423],[84.1,18506],[84.1,18597],[84.1,18687],[84.1,18770],[84.1,18861],[84.1,18951],[84.1,19041],[84.1,19125],[84.1,19223],[84.1,19305],[84.1,19395],[84.1,19494],[84.1,19590],[84.1,19694],[84.1,19784],[84.1,19882],[84.1,19981],[84.1,20076],[84.1,20166],[84.1,20256],[84.1,20349],[84.1,20447],[84.1,20529],[84.1,20617],[84.1,20701],[84.1,20791],[84.1,20883],[84.1,20980],[84.1,21069],[84.1,21159],[84.1,21249],[84.1,21333],[84.1,21417],[84.1,21506],[84.1,21590],[84.1,21687],[84.1,21770],[84.1,21874],[84.1,21972],[84.1,22056],[84.1,22159],[84.1,22251],[84.1,22349],[84.1,22437],[84.1,22522],[84.1,22604],[84.1,22688],[84.1,22782],[84.1,22880],[84.1,22958],[84.1,23050],[84.1,23138],[84.1,23223],[84.1,23305],[84.1,23402],[84.1,23493],[84.1,23584],[84.1,23666],[84.1,23751],[84.1,23855],[84.1,23948],[84.1,24029],[84.1,24119],[84.1,24217],[84.1,24305],[84.1,24395],[84.1,24486],[84.1,24569],[84.1,24654],[84.1,24742],[84.1,24844],[84.1,24923],[84.1,25016],[84.1,25104],[84.1,25194],[84.1,25291],[84.1,25374],[84.1,25458],[84.1,25541],[84.1,25638],[84.1,25738],[84.1,25834],[84.1,25918],[84.1,26012],[84.1,26114],[84.1,26201],[84.1,26284],[84.1,26367],[84.1,26458],[84.2,26541],[84.6,26625],[86.1,26722],[89,26805],[91.4,26902],[93.6,26995],[93.8,27083],[93.8,27166],[93.8,27249],[93.8,27347],[93.8,27431],[93.8,27527],[93.8,27618],[93.8,27704],[93.8,27793],[93.8,27889],[93.8,27979],[93.8,28062],[93.8,28155],[93.8,28236],[93.8,28327],[93.8,28409],[93.8,28506],[93.8,28591],[93.8,28687],[93.8,28784],[93.8,28874],[93.8,28959],[93.8,29055],[93.8,29138],[93.8,29222],[93.8,29307],[93.8,29388],[93.8,29472],[93.8,29555],[93.8,29639],[93.8,29722],[93.8,29805],[93.8,29888],[93.8,29972],[93.8,30055],[93.8,30138],[93.8,30222],[93.8,30305],[93.8,30388],[93.8,30472],[93.8,30555],[93.8,30639],[93.8,30722],[93.8,30805],[93.8,30888],[93.8,30972],[93.8,31055],[93.8,31138],[93.8,31222],[93.8,31305],[93.8,31388],[93.8,31486],[93.8,31583],[93.8,31673],[93.8,31763],[93.8,31855],[93.8,31948],[93.8,32034],[93.8,32125],[93.8,32222],[93.8,32305],[93.8,32390],[93.8,32472],[93.8,32562],[93.8,32652],[93.8,32750],[93.8,32827],[93.8,32923],[93.8,33015],[93.8,33104],[93.8,33194],[93.8,33291],[93.8,33381],[93.8,33465],[93.8,33556],[93.8,33643],[93.8,33729],[93.8,33815],[93.8,33902],[93.8,33986],[93.8,34081],[93.8,34166],[93.8,34250],[93.8,34348],[93.8,34437],[93.8,34527],[93.8,34618],[93.8,34701],[93.8,34784],[93.8,34868],[94.4,34965],[94.6,35062],[94.6,35154],[94.6,35247],[94.6,35326],[94.6,35417],[94.6,35500],[94.6,35591],[94.6,35695],[95.8,35786],[97.1,35890],[100,35988],[100,36083],[100,36172],[100,36256],[100,36354],[100,36437],[100,36522],[100,36613],[100,36694],[100,36781],[100,36875],[100,36958],[100,37050],[100,37147],[100,37236],[100,37319],[100,37406],[100,37493],[100,37581],[100,37666],[100,37752],[100,37840],[100,37923],[100,38011],[100,38090],[100,38181],[100,38264],[100,38361],[100,38451],[100,38541],[100,38625],[100,38716],[100,38813],[100,38915],[100,38993],[100,39085],[100,39173],[100,39263],[100,39354],[100,39452],[100,39541],[100,39632],[100,39724],[100,39821],[100,39914],[100,40000],[100,40090],[100,40194],[100,40284],[100,40375],[100,40465],[100,40557],[100,40647],[100,40736],[100,40822],[100,40909],[100,40993],[100,41091],[100,41182],[100,41264],[100,41356],[100,41453],[100,41541],[100,41625],[100,41708],[100,41798],[100,41884],[100,41979],[100,42062],[100,42152],[100,42236],[100,42326],[100,42418],[100,42515],[100,42597],[100,42694],[100,42780],[100,42875],[100,42980],[100,43069],[100,43159],[100,43251],[100,43333],[100,43417],[100,43500],[100,43584],[100,43681],[100,43765],[100,43848],[100,43937],[100,44022],[100,44118],[100,44208],[100,44298],[100,44389],[100,44480],[100,44562],[100,44659],[100,44746],[100,44826],[100,44923],[100,45015],[100,45097],[100,45194],[100,45284],[100,45382],[100,45465],[100,45556],[100,45652],[100,45747],[100,45833],[100,45925],[100,46016],[100,46098],[100,46187],[100,46271],[100,46362],[100,46453],[100,46547],[100,46632],[100,46723],[100,46815],[100,46913],[100,46993],[100,47083],[100,47166],[100,47257],[100,47361],[100,47458],[100,47548],[100,47632],[100,47715],[100,47813],[100,47903],[100,48007],[100,48097],[100,48181],[100,48264],[100,48348],[100,48430],[100,48515],[100,48599],[100,48694],[100,48784],[100,48889],[100,48972],[100,49062],[100,49152],[100,49258],[100,49346],[100,49446],[100,49541],[100,49625],[100,49708],[100,49813],[100,49902],[100,49993],[100,50090],[100,50187],[100,50286],[100,50380],[100,50465],[100,50556],[100,50639],[100,50730],[100,50813],[100,50896],[100,50980],[100,51062],[100,51159],[100,51264],[100,51354],[100,51447],[100,51534],[100,51619],[100,51701],[100,51800],[100,51889],[100,51980],[100,52080],[100,52171],[100,52257],[100,52346],[100,52437],[100,52522],[100,52619],[100,52706],[100,52805],[100,52903],[100,52993],[100,53079],[100,53181],[100,53271],[100,53361],[100,53453],[100,53534],[100,53618],[100,53713],[100,53791],[100,53882],[100,53965],[100,54048],[100,54143],[100,54223],[100,54305],[100,54396],[100,54488],[100,54582],[100,54681],[100,54764],[100,54849],[100,54937],[100,55029],[100,55125],[100,55229],[100,55319],[100,55403],[100,55487],[100,55569],[100,55653],[100,55746],[100,55826]]",299.3159,305.1073,99.375,4.4779,"[{""rating"":99.375,""responseTime"":4.477899999999977}]",space,5.2782,,305.1073,Partially,50,305.1085,,,[],,0,1,1,1,1,audio/Narrative7Situation1.wav,audio/Narrative8Situation1.wav,audio/Narrative5Situation1.wav,audio/Narrative6Situation1.wav,2,5,5,2,4.2741,,,,,,,,,,,,,,,,,,,,,,,,,,,,,,,,,,,,,,
,,,,,6712fe1173dfa2bfa2d6294b,2025-07-07_22h41.03.894,group3.4_multiperson,2023.2.2,Win32,142.8571429,686c2ebf0248f13bef9af11f,686c83bd4acfe17d1d434055,,,,,,,,,,,,,,,,,,,,,,,,,,,,,305.1086,1,audio/Narrative7Situation2.wav,308.1094,,308.1095,315.5815,"[[50.2,543],[48.8,641],[48.6,729],[48.6,820],[50.2,925],[50.2,1013],[50.2,1097],[50.2,1180],[50.2,1278],[50.2,1373],[50.2,1451],[50.2,1541],[50.2,1625],[50.2,1708],[50.2,1791],[50.2,1881],[50.2,1979],[50.2,2062],[50.2,2159],[50.2,2249],[50.2,2341],[50.2,2446],[50.2,2538],[50.2,2617],[50.2,2708],[50.2,2798],[50.2,2881],[50.2,2986],[50.2,3076],[50.2,3171],[51.7,3273],[87,3372],[96.6,3451],[96.6,3541],[96.6,3630],[97.3,3722],[97.4,3807],[98.9,3906],[99.7,3999],[99.7,4083],[99.7,4175],[99.7,4273],[99.7,4354],[99.7,4439],[99.7,4522],[99.7,4625],[99.7,4715],[99.7,4798],[99.7,4888],[99.7,4980],[99.7,5072],[99.7,5159],[99.7,5249],[99.7,5333],[99.7,5416],[99.7,5515],[99.7,5597],[99.7,5680],[99.7,5772],[99.7,5855],[99.7,5944],[99.7,6039],[99.7,6118],[99.7,6208],[99.7,6306],[99.7,6390],[99.7,6479],[99.7,6571],[99.7,6659],[99.7,6743],[99.7,6833],[99.7,6923],[99.7,7013],[99.7,7111],[99.7,7197],[99.7,7279],[99.7,7372],[99.7,7451]]",315.5816,321.3181,99.6875,2.6389,"[{""rating"":99.6875,""responseTime"":2.6388999999999214}]",space,5.2307,,321.3181,Definitely yes,100,321.3198,,,[],,0,2,2,2,1,audio/Narrative7Situation2.wav,audio/Narrative8Situation2.wav,audio/Narrative5Situation2.wav,audio/Narrative6Situation2.wav,3,3,3,3,,,,,,,,,,,,,,,,,,,,,,,,,,,,,,,,,,,,,,,
,,,,,6712fe1173dfa2bfa2d6294b,2025-07-07_22h41.03.894,group3.4_multiperson,2023.2.2,Win32,142.8571429,686c2ebf0248f13bef9af11f,686c83bd4acfe17d1d434055,,,,,,,,,,,,,,,,,,,,,,,,,,,,,321.3199,1,audio/Narrative7Situation3.wav,329.3265,,329.3265,338.5682,"[[999,0],[999,89],[999,172],[999,271],[999,361],[999,455],[999,540],[999,637],[999,736],[52.4,831],[51.4,917],[50.9,1012],[50.9,1095],[50.9,1187],[50.9,1269],[50.9,1359],[50.9,1442],[51.3,1528],[51.3,1609],[51.3,1693],[51.3,1776],[51.3,1866],[51.3,1953],[51.3,2040],[51.3,2144],[51.3,2227],[51.3,2311],[51.3,2396],[51.3,2491],[52.4,2575],[74.8,2659],[89.9,2742],[92.3,2825],[95.9,2909],[100,2992],[100,3074],[100,3158],[100,3241],[100,3325],[100,3408],[100,3491],[100,3574],[100,3658],[100,3742],[100,3825],[100,3908],[100,3991],[100,4075],[100,4158],[100,4242],[100,4324],[100,4408],[100,4491],[100,4574],[100,4658],[100,4741],[100,4824],[100,4908],[100,4991],[100,5079],[100,5165],[100,5255],[100,5338],[100,5423],[100,5512],[100,5602],[100,5706],[100,5798],[100,5889],[100,5970],[100,6067],[100,6159],[100,6248],[100,6331],[100,6422],[100,6505],[100,6589],[100,6672],[100,6762],[100,6845],[100,6935],[100,7027],[100,7118],[100,7210],[100,7311],[100,7394],[100,7488],[100,7567],[100,7658],[100,7750],[100,7840],[100,7922],[100,8012],[100,8102],[100,8194],[100,8287],[99.3,8368],[98.4,8456],[97.9,8556],[97.8,8653],[97.8,8734],[97.8,8825],[97.8,8908],[97.8,8991],[97.8,9081],[97.8,9165]]",338.5683,347.5832,49.27083333,7.6111,"[{""rating"":49.270833333333336,""responseTime"":7.611100000000079}]",space,8.4885,,347.5833,Partially,50,347.5846,,,[],,0,3,3,3,1,audio/Narrative7Situation3.wav,audio/Narrative8Situation3.wav,audio/Narrative5Situation3.wav,audio/Narrative6Situation3.wav,8,4,3,5,,,,,,,,,,,,,,,,,,,,,,,,,,,,,,,,,,,,,,,
,,,,,6712fe1173dfa2bfa2d6294b,2025-07-07_22h41.03.894,group3.4_multiperson,2023.2.2,Win32,142.8571429,686c2ebf0248f13bef9af11f,686c83bd4acfe17d1d434055,,,,,,,,,,,,,,,,,,,,,,,,,,,,,347.5846,1,audio/Narrative7Situation4.wav,350.5907,,350.5907,362.3046,"[[51.8,970],[52.2,1057],[52.2,1137],[52.2,1223],[51.5,1310],[51.5,1395],[51.5,1484],[51.5,1574],[51.5,1665],[51.3,1757],[51,1838],[51,1930],[51,2027],[51,2109],[51,2201],[50.9,2296],[50.9,2380],[50.9,2464],[50.9,2555],[50.9,2637],[50.9,2722],[50.9,2810],[50.9,2895],[50.9,2988],[50.9,3067],[50.9,3159],[50.9,3241],[50.9,3326],[50.9,3408],[50.9,3491],[50.9,3592],[50.9,3672],[50.9,3762],[50.9,3845],[50.9,3936],[50.9,4022],[50.9,4123],[50.9,4199],[50.9,4297],[50.9,4380],[50.9,4463],[50.9,4556],[50.9,4637],[50.9,4729],[50.9,4824],[50.9,4915],[50.9,4999],[50.4,5096],[48.1,5194],[44.3,5283],[37.2,5379],[28.3,5477],[20.3,5569],[14.2,5660],[9.4,5741],[4.7,5824],[3.8,5923],[2.1,6022],[1.1,6109],[0.3,6201],[0.3,6288],[0.3,6375],[0.3,6477],[0.3,6562],[0.3,6660],[0.3,6764],[0.3,6853],[0.3,6935],[0.3,7021],[0.3,7103],[0.3,7192],[0.3,7283],[0.3,7380],[0.3,7477],[0.3,7567],[0.3,7658],[0.3,7758],[0.3,7856],[0.3,7949],[0.3,8040],[0.3,8130],[0.3,8218],[0.3,8297],[0.3,8390],[0.3,8477],[0.3,8567],[0.3,8658],[0.3,8741],[0.3,8824],[0.3,8924],[0.3,9005],[0.3,9091],[0.3,9172],[0.3,9262],[0.3,9345],[0.3,9430],[0.3,9512],[0.3,9614],[0.3,9701],[0.3,9790],[0.3,9874],[0.3,9957],[0.3,10047],[0.3,10138],[0.3,10221],[0.3,10303],[0.3,10401],[0.3,10489],[0.3,10574],[0.3,10665],[0.3,10757],[0.3,10845],[0.3,10935],[0.3,11034],[0.3,11130],[0.3,11221],[0.3,11322],[0.3,11415],[0.3,11498],[0.3,11588],[0.3,11679]]",362.3048,366.4851,0.416666667,2.8663,"[{""rating"":0.4166666666666652,""responseTime"":2.866300000000024}]",space,3.6633,,366.4851,Not at all,0,366.4862,,,[],,0,4,4,4,1,audio/Narrative7Situation4.wav,audio/Narrative8Situation4.wav,audio/Narrative5Situation4.wav,audio/Narrative6Situation4.wav,3,3,1,2,,,,,,,,,,,,,,,,,,,,,,,,,,,,,,,,,,,,,,,
,,,,,6712fe1173dfa2bfa2d6294b,2025-07-07_22h41.03.894,group3.4_multiperson,2023.2.2,Win32,142.8571429,686c2ebf0248f13bef9af11f,686c83bd4acfe17d1d434055,,,,,,,,,,,,,,,,,,,,,,,,,,,,,366.4862,1,audio/Narrative7Situation5.wav,371.4922,,371.4922,379.9645,"[[23.9,1238],[14.6,1345],[4.4,1453],[2.4,1536],[1.7,1634],[1.7,1722],[1.7,1812],[1.7,1898],[1.7,1987],[1.7,2076],[1.7,2166],[1.7,2252],[1.7,2347],[1.7,2444],[1.7,2551],[1.7,2631],[1.7,2722],[1.7,2805],[1.7,2895],[1.7,2979],[1.7,3076],[1.7,3166],[1.7,3270],[1.7,3362],[1.7,3465],[1.7,3556],[1.7,3643],[1.7,3735],[1.6,3828],[1.7,3924],[1.7,4015],[1.7,4105],[1.7,4201],[1.7,4287],[1.7,4379],[1.7,4477],[0.3,5027],[1.3,5111],[2.9,5203],[6.4,5310],[11.7,5402],[19.8,5493],[32.2,5576],[49.7,5668],[68.3,5764],[80.5,5855],[85.4,5952],[89.4,6036],[91.4,6119],[92.3,6201],[94.3,6293],[98.1,6396],[99.3,6485],[99.3,6569],[99.3,6661],[99.3,6753],[99.3,6833],[99.3,6923],[99.3,7022],[99.3,7111],[99.3,7201],[99.3,7287],[99.3,7384],[99.3,7465],[99.3,7548],[99.3,7632],[99.3,7723],[99.3,7820],[99.3,7902],[99.3,8000],[99.3,8091],[99.3,8173],[99.3,8265],[99.3,8355],[99.3,8444]]",379.9646,385.8048,99.47916667,4.4809,"[{""rating"":99.47916666666667,""responseTime"":4.480899999999906}]",space,5.3155,,385.8048,Not at all,0,385.8056,,,[],,0,5,5,5,1,audio/Narrative7Situation5.wav,audio/Narrative8Situation5.wav,audio/Narrative5Situation5.wav,audio/Narrative6Situation5.wav,5,2,5,2,,,,,,,,,,,,,,,,,,,,,,,,,,,,,,,,,,,,,,,
,,,,,6712fe1173dfa2bfa2d6294b,2025-07-07_22h41.03.894,group3.4_multiperson,2023.2.2,Win32,142.8571429,686c2ebf0248f13bef9af11f,686c83bd4acfe17d1d434055,,,,,,,,,,,,,,,,,,,,,,,,,,,,,385.8057,1,audio/Narrative7Situation6.wav,388.8145,,388.8145,398.7811,"[[65.5,783],[83,886],[91.9,978],[92.8,1075],[95.7,1170],[96.6,1263],[98,1346],[98.4,1448],[98.5,1538],[98.5,1630],[98.5,1712],[98.5,1798],[98.5,1896],[98.5,1990],[98.5,2080],[98.5,2177],[98.5,2262],[98.6,2344],[99,2434],[99.2,2531],[99.2,2622],[99.2,2714],[99.2,2811],[99.2,2896],[99.2,2990],[99.2,3080],[99.2,3177],[99.2,3274],[99.2,3367],[99.2,3471],[99.2,3563],[99.2,3649],[99.2,3735],[99.2,3823],[99.2,3906],[99.2,3997],[99.2,4092],[99.2,4172],[99.2,4261],[99.2,4344],[99.2,4429],[99.2,4525],[99.2,4615],[99.2,4706],[99.2,4809],[99.2,4902],[99.2,4983],[99.2,5066],[99.2,5156],[99.2,5241],[99.2,5333],[99.2,5428],[99.2,5511],[99.2,5603],[99.2,5691],[99.2,5774],[99.2,5866],[99.2,5955],[99.2,6045],[99.2,6136],[99.2,6219],[99.2,6304],[99.2,6395],[99.2,6498],[99.2,6597],[99.2,6696],[99.2,6781],[99.2,6867],[99.2,6955],[99.2,7038],[99.2,7130],[99.2,7212],[99.2,7297],[99.2,7379],[99.2,7470],[99.2,7552],[99.2,7650],[99.2,7740],[99.2,7830],[99.2,7930],[99.2,8018],[99.2,8110],[99.2,8205],[99.2,8288],[99.2,8379],[99.2,8469],[99.2,8552],[99.2,8643],[99.2,8733],[99.2,8816],[99.2,8900],[99.2,8983],[99.2,9066],[99.2,9149],[99.2,9240],[99.2,9329],[99.2,9430],[99.2,9518],[99.2,9619],[99.2,9714],[99.2,9804],[99.2,9896]]",398.7813,400.0273,99.16666667,0.5978,"[{""rating"":99.16666666666667,""responseTime"":0.5978000000000634}]",space,0.7343,,400.0273,Not at all,0,400.028,,,[],,0,6,6,6,1,audio/Narrative7Situation6.wav,audio/Narrative8Situation6.wav,audio/Narrative5Situation6.wav,audio/Narrative6Situation6.wav,3,2,3,2,,,,,,,,,,,,,,,,,,,,,,,,,,,,,,,,,,,,,,,
,,,,,6712fe1173dfa2bfa2d6294b,2025-07-07_22h41.03.894,group3.4_multiperson,2023.2.2,Win32,142.8571429,686c2ebf0248f13bef9af11f,686c83bd4acfe17d1d434055,,,,,,,,,,,,,,,,,,,,,,,,,,,,,400.0281,1,audio/Narrative7Situation7.wav,405.0341,,405.0342,422.2095,"[[98.6,534],[99,631],[99,715],[99,798],[99,888],[99,979],[99,1076],[99,1159],[99,1243],[99,1327],[99,1418],[99,1520],[99,1619],[99,1709],[99,1798],[99,1884],[99,1965],[99,2056],[99,2148],[99,2229],[99,2319],[99,2416],[99,2508],[99,2597],[99,2680],[99,2763],[99,2847],[99,2930],[99,3032],[99,3124],[99,3208],[99,3298],[99,3388],[99,3486],[99,3585],[99,3666],[99,3758],[99,3842],[99,3923],[99,4013],[99,4104],[99,4187],[99,4277],[99,4361],[99,4445],[99,4527],[99,4619],[99,4701],[99,4786],[99,4868],[99,4958],[99,5048],[99,5131],[99,5215],[99,5298],[99,5388],[99,5487],[99,5577],[99,5666],[99,5749],[99,5842],[99,5930],[99,6016],[99,6104],[99,6187],[99,6278],[99,6368],[99,6458],[99,6542],[99,6631],[99,6715],[99,6798],[99,6881],[99,6979],[99,7069],[99,7152],[99,7243],[99,7326],[99,7411],[99,7499],[99,7593],[99,7687],[99,7770],[99,7854],[99,7944],[99,8031],[99,8125],[99,8215],[99,8298],[99,8388],[99,8476],[99,8562],[99,8647],[99,8736],[99,8821],[99,8923],[99,9008],[99,9090],[99,9180],[99,9263],[99,9347],[99,9437],[99,9527],[99,9619],[99,9722],[99,9814],[99,9902],[99,9987],[99.3,10085],[99.4,10166],[99.4,10251],[99.4,10347],[99.4,10437],[99.4,10520],[99.4,10611],[99.4,10701],[99.4,10784],[99.4,10876],[99.4,10958],[99.4,11048],[99.4,11143],[99.4,11222],[99.4,11321],[99.4,11411],[99.4,11493],[99.4,11585],[99.4,11675],[99.4,11756],[99.4,11847],[99.4,11937],[99.4,12020],[99.4,12104],[99.4,12208],[99.4,12298],[99.4,12381],[99.4,12481],[99.4,12562],[99.4,12647],[99.4,12729],[99.4,12812],[99.4,12902],[99.4,12993],[99.4,13083],[99.4,13180],[99.4,13277],[99.4,13368],[99.4,13458],[99.4,13545],[99.4,13632],[99.4,13715],[99.4,13798],[99.4,13888],[99.4,13975],[99.4,14076],[99.4,14154],[99.4,14250],[99.4,14333],[99.4,14424],[99.4,14520],[99.4,14611],[99.4,14694],[99.4,14777],[99.4,14868],[99.4,14951],[99.4,15034],[99.4,15119],[99.4,15211],[99.4,15298],[99.4,15388],[99.4,15487],[99.4,15569],[99.4,15666],[99.4,15750],[99.4,15833],[99.4,15923],[99.4,16010],[99.4,16109],[99.4,16194],[99.4,16284],[99.4,16368],[99.4,16451],[99.4,16544],[99.4,16643],[99.4,16729],[99.4,16812],[99.4,16895],[99.4,16980],[99.4,17077],[99.4,17175]]",422.2095,425.9183,99.375,0.6331,"[{""rating"":99.375,""responseTime"":0.6331000000001268}]",space,3.1825,,425.9183,Not at all,0,425.919,,,[],,0,7,7,7,1,audio/Narrative7Situation7.wav,audio/Narrative8Situation7.wav,audio/Narrative5Situation7.wav,audio/Narrative6Situation7.wav,5,3,4,5,,,,,,,,,,,,,,,,,,,,,,,,,,,,,,,,,,,,,,,
,,,,,6712fe1173dfa2bfa2d6294b,2025-07-07_22h41.03.894,group3.4_multiperson,2023.2.2,Win32,142.8571429,686c2ebf0248f13bef9af11f,686c83bd4acfe17d1d434055,,,,,,,,,,,,,,,,,,,,,,,,,,,,,425.9191,1,audio/Narrative7Situation8.wav,427.9245,,427.9245,437.9357,"[[100,3200],[100,3297],[100,3389],[100,3500],[100,3589],[100,3688],[100,3784],[100,3873],[100,3963],[100,4061],[100,4159],[100,4257],[100,4354],[100,4443],[100,4540],[100,4642],[100,4734],[100,4832],[100,4922],[100,5021],[100,5109],[100,5193],[100,5284],[100,5368],[100,5457],[100,5547],[100,5644],[100,5728],[100,5818],[100,5901],[100,5986],[100,6075],[100,6166],[100,6252],[100,6352],[100,6436],[100,6534],[100,6630],[100,6722],[100,6820],[100,6918],[100,7012],[100,7103],[100,7187],[100,7284],[100,7373],[100,7465],[100,7554],[100,7644],[100,7736],[100,7833],[100,7936],[100,8026],[100,8130],[100,8222],[100,8304],[100,8389],[100,8484],[100,8570],[100,8672],[100,8762],[100,8852],[100,8943],[100,9040],[100,9137],[100,9222],[100,9304],[100,9394],[100,9486],[100,9568],[100,9672],[100,9755],[100,9839],[100,9936]]",437.9358,442.8555,99.47916667,1.5101,"[{""rating"":99.47916666666667,""responseTime"":1.5100999999998521}]",space,4.4014,,442.8555,Not at all,0,442.8562,,,[],,0,8,8,8,1,audio/Narrative7Situation8.wav,audio/Narrative8Situation8.wav,audio/Narrative5Situation8.wav,audio/Narrative6Situation8.wav,2,3,3,5,,,,,,,,,,,,,,,,,,,,,,,,,,,,,,,,,,,,,,,
,,,,,6712fe1173dfa2bfa2d6294b,2025-07-07_22h41.03.894,group3.4_multiperson,2023.2.2,Win32,142.8571429,686c2ebf0248f13bef9af11f,686c83bd4acfe17d1d434055,,,,,,,,,,,,,,,,,,,,,,,,,,,,,442.8562,1,audio/Narrative7Situation9.wav,444.861,,444.861,453.4791,"[[999,0],[999,91],[999,188],[999,286],[999,367],[999,467],[999,557],[999,654],[999,750],[999,848],[51,948],[54.3,1040],[59.9,1133],[72,1241],[82.6,1338],[88.1,1430],[90.8,1515],[94.4,1597],[96.8,1696],[97.6,1791],[98.3,1883],[99,1966],[99,2055],[99,2147],[99,2229],[99,2315],[99.2,2406],[99.9,2515],[100,2597],[100,2689],[100,2770],[100,2862],[100,2958],[100,3049],[100,3133],[100,3229],[100,3321],[100,3413],[100,3500],[100,3597],[100,3687],[100,3782],[100,3874],[100,3972],[100,4062],[100,4154],[100,4246],[100,4333],[100,4425],[100,4513],[100,4604],[100,4694],[100,4784],[100,4868],[100,4958],[100,5041],[100,5131],[100,5223],[100,5317],[100,5406],[100,5494],[100,5591],[100,5687],[100,5770],[100,5873],[100,5965],[100,6055],[100,6149],[100,6229],[100,6320],[100,6402],[100,6493],[100,6590],[100,6687],[100,6770],[100,6855],[100,6949],[100,7034],[100,7117],[100,7201],[100,7284],[100,7373],[100,7458],[100,7541],[100,7632],[100,7716],[100,7798],[100,7902],[100,7993],[100,8081],[100,8180],[100,8263],[100,8356],[100,8447],[100,8539]]",453.4791,456.7638,99.58333333,2.4313,"[{""rating"":99.58333333333333,""responseTime"":2.4313000000000216}]",space,2.7674,,456.7638,Not at all,0,456.7645,,,[],,0,9,9,9,1,audio/Narrative7Situation9.wav,audio/Narrative8Situation9.wav,audio/Narrative5Situation9.wav,audio/Narrative6Situation9.wav,2,3,3,4,,,,,,,,,,,,,,,,,,,,,,,,,,,,,,,,,,,,,,,
,,,,,6712fe1173dfa2bfa2d6294b,2025-07-07_22h41.03.894,group3.4_multiperson,2023.2.2,Win32,142.8571429,686c2ebf0248f13bef9af11f,686c83bd4acfe17d1d434055,,,,,,,,,,,,,,,,,,,,,,,,,,,,,456.7646,1,audio/Narrative8Situation1.wav,461.7751,,461.7752,477.6807,"[[999,0],[999,85],[999,177],[999,273],[999,365],[999,458],[999,544],[999,627],[999,711],[999,801],[999,891],[51.4,988],[51.1,1073],[51.1,1170],[51.1,1266],[51.1,1351],[51.1,1441],[51.1,1523],[51.1,1606],[51.1,1690],[51.1,1775],[51.1,1865],[51.1,1953],[51.1,2044],[51.1,2127],[51.1,2219],[51.1,2308],[51.1,2401],[51.1,2481],[51.1,2572],[51.1,2666],[51.1,2752],[51.1,2842],[54.8,2936],[59.1,3039],[61.5,3141],[61.5,3233],[61.5,3322],[61.5,3412],[61.5,3498],[61.5,3592],[61.5,3676],[61.5,3767],[61.5,3865],[61.5,3958],[61.5,4051],[61.5,4134],[61.5,4232],[61.5,4322],[61.5,4429],[61.5,4509],[61.5,4602],[61.5,4699],[61.5,4781],[61.5,4870],[61.5,4967],[61.5,5067],[61.5,5148],[61.5,5238],[61.5,5331],[61.5,5427],[61.5,5523],[61.5,5608],[61.5,5710],[61.5,5801],[61.5,5901],[61.5,5988],[61.5,6085],[61.5,6169],[61.5,6269],[61.5,6356],[61.5,6447],[61.5,6532],[61.5,6620],[61.5,6712],[61.5,6802],[61.5,6891],[61.5,6974],[61.5,7068],[61.5,7155],[61.5,7245],[61.5,7333],[61.5,7433],[61.5,7516],[61.5,7606],[61.5,7690],[61.5,7780],[61.5,7877],[61.5,7966],[61.5,8058],[61.5,8143],[61.5,8233],[61.5,8315],[61.5,8413],[61.5,8504],[61.5,8600],[61.5,8683],[61.5,8773],[61.5,8856],[61.5,8947],[61.5,9038],[61.5,9133],[61.5,9217],[61.5,9303],[61.5,9399],[61.5,9481],[61.5,9573],[61.5,9667],[61.5,9752],[61.5,9842],[61.5,9941],[61.5,10032],[61.5,10113],[61.5,10205],[61.5,10294],[61.5,10378],[61.5,10483],[61.5,10572],[61.5,10655],[62,10759],[62.4,10843],[63.1,10934],[63.8,11016],[64.4,11099],[65.2,11184],[65.8,11300],[65.9,11379],[65.9,11474],[65.9,11558],[65.9,11648],[65.9,11733],[65.9,11815],[65.9,11905],[65.9,11998],[65.9,12079],[65.9,12165],[65.9,12259],[65.9,12344],[65.9,12435],[65.9,12516],[65.9,12608],[65.9,12704],[65.9,12792],[65.9,12907],[65.9,12988],[65.9,13080],[65.9,13176],[65.9,13273],[65.9,13356],[65.9,13454],[65.9,13555],[65.9,13641],[65.9,13731],[65.9,13815],[65.9,13912],[65.9,13999],[65.9,14092],[65.9,14183],[65.9,14268],[65.9,14356],[65.9,14447],[65.9,14537],[65.9,14620],[65.9,14711],[65.9,14801],[65.9,14898],[66,14999],[66,15079],[66,15177],[66,15266],[66,15365],[66,15447],[66,15533],[66,15613],[66,15700],[66,15780],[66,15870]]",477.6808,483.4407,49.6875,5.1992,"[{""rating"":57.49999999999999,""responseTime"":2.960100000000125},{""rating"":49.6875,""responseTime"":5.199199999999962}]",space,5.2446,,483.4408,Definitely yes,100,483.4419,,,[],,0,10,10,10,1,audio/Narrative8Situation1.wav,audio/Narrative7Situation1.wav,audio/Narrative6Situation1.wav,audio/Narrative5Situation1.wav,5,2,2,5,,,,,,,,,,,,,,,,,,,,,,,,,,,,,,,,,,,,,,,
,,,,,6712fe1173dfa2bfa2d6294b,2025-07-07_22h41.03.894,group3.4_multiperson,2023.2.2,Win32,142.8571429,686c2ebf0248f13bef9af11f,686c83bd4acfe17d1d434055,,,,,,,,,,,,,,,,,,,,,,,,,,,,,483.442,1,audio/Narrative8Situation2.wav,486.4462,,486.4462,496.549,"[[50,793],[50,873],[50,963],[49.7,1069],[49.7,1151],[49.7,1234],[49.7,1327],[49.7,1408],[49.7,1498],[49.7,1586],[49.7,1679],[49.7,1769],[49.7,1862],[49.7,1944],[49.7,2033],[49.7,2116],[49.7,2206],[49.7,2298],[49.7,2396],[49.7,2479],[49.7,2567],[49.7,2661],[49.7,2748],[49.7,2838],[49.7,2928],[49.7,3019],[49.7,3104],[49.7,3185],[49.7,3270],[49.7,3360],[49.7,3442],[49.7,3540],[49.7,3631],[49.7,3718],[49.7,3805],[49.7,3896],[49.7,3984],[49.7,4081],[49.7,4165],[49.7,4248],[49.7,4331],[49.7,4422],[49.7,4513],[49.7,4602],[49.7,4685],[49.7,4776],[49.7,4866],[49.7,4960],[49.7,5053],[49.7,5137],[49.7,5229],[49.7,5318],[47.7,5420],[37.5,5517],[23.8,5609],[7.2,5706],[4.8,5796],[4.8,5901],[4.8,5984],[4.8,6075],[4.8,6166],[4.8,6251],[4.9,6331],[5.1,6427],[5.1,6513],[5.2,6602],[5.2,6699],[5.2,6793],[5.2,6873],[5.2,6961],[5.2,7040],[5.2,7138],[5.2,7220],[5.2,7311],[5.2,7396],[5.3,7477],[5.4,7568],[5.4,7665],[5.4,7748],[5.4,7832],[5.4,7922],[5.4,8019],[5.4,8109],[5.4,8199],[5.4,8297],[5.4,8380],[5.4,8463],[5.4,8547],[5.4,8644],[5.4,8734],[5.4,8826],[5.4,8915],[5.4,8998],[5.4,9081],[5.4,9180],[5.4,9262],[5.4,9352],[5.4,9442],[5.4,9540],[5.4,9632],[5.4,9720],[5.4,9805],[5.4,9896],[5.4,9977],[5.4,10062]]",496.5491,502.6417,5.625,4.8888,"[{""rating"":5.625000000000002,""responseTime"":4.888799999999833}]",space,5.5889,,502.6418,Not at all,0,502.6427,,,[],,0,11,11,11,1,audio/Narrative8Situation2.wav,audio/Narrative7Situation2.wav,audio/Narrative6Situation2.wav,audio/Narrative5Situation2.wav,3,3,3,3,,,,,,,,,,,,,,,,,,,,,,,,,,,,,,,,,,,,,,,
,,,,,6712fe1173dfa2bfa2d6294b,2025-07-07_22h41.03.894,group3.4_multiperson,2023.2.2,Win32,142.8571429,686c2ebf0248f13bef9af11f,686c83bd4acfe17d1d434055,,,,,,,,,,,,,,,,,,,,,,,,,,,,,502.6428,1,audio/Narrative8Situation3.wav,506.648,,506.6481,529.0158,"[[7.7,533],[8.8,624],[8.8,713],[7,816],[6.6,914],[6.6,1005],[6.6,1091],[6.6,1199],[6.6,1282],[6.6,1373],[6.6,1472],[6.6,1567],[6.6,1651],[6.6,1735],[6.6,1838],[6.6,1937],[6.6,2027],[6.6,2109],[6.6,2199],[6.6,2298],[6.6,2380],[6.6,2470],[6.6,2553],[6.6,2637],[6.6,2724],[6.6,2810],[6.6,2909],[6.6,2992],[6.6,3074],[6.6,3160],[6.6,3258],[6.6,3357],[6.6,3442],[6.6,3532],[6.6,3623],[6.6,3713],[6.6,3805],[6.6,3890],[6.6,3977],[6.6,4067],[6.6,4164],[6.6,4263],[6.6,4352],[6.6,4442],[6.6,4534],[6.6,4630],[6.6,4727],[6.6,4810],[6.6,4914],[6.6,5005],[6.6,5090],[6.6,5185],[6.6,5277],[6.6,5359],[6.6,5442],[6.6,5533],[6.6,5622],[6.6,5708],[6.6,5803],[6.6,5891],[6.6,5971],[6.6,6069],[6.6,6159],[6.6,6257],[6.6,6345],[6.6,6442],[6.6,6540],[6.6,6637],[6.6,6727],[6.6,6833],[6.6,6914],[6.6,6999],[6.6,7090],[6.6,7185],[6.6,7276],[6.6,7360],[6.6,7449],[6.6,7546],[6.6,7631],[6.6,7729],[6.6,7833],[6.6,7930],[6.6,8019],[6.6,8114],[6.6,8213],[6.6,8303],[6.6,8394],[6.6,8493],[6.6,8576],[6.6,8664],[6.6,8758],[6.6,8845],[6.6,8935],[6.6,9025],[6.6,9110],[6.6,9206],[6.6,9305],[6.6,9394],[6.6,9477],[6.6,9567],[6.6,9659],[6.6,9742],[6.6,9825],[6.6,9914],[6.6,10006],[6.6,10095],[6.6,10178],[6.6,10263],[6.6,10362],[6.6,10457],[6.6,10539],[6.6,10637],[6.6,10735],[6.6,10832],[6.6,10929],[6.6,11016],[7.2,11126],[10,11229],[11.3,11327],[12.9,11425],[17,11527],[23.4,11626],[29.1,11724],[35.9,11827],[41.1,11930],[44.8,12034],[48.8,12139],[51.9,12236],[54,12340],[57,12437],[59.4,12533],[61.8,12632],[63.3,12724],[64.6,12816],[65.4,12909],[65.4,13005],[65.4,13097],[65.4,13178],[65.4,13263],[65.4,13359],[65.4,13449],[65.4,13534],[65.4,13637],[65.4,13727],[65.4,13810],[65.4,13902],[65.4,13992],[65.4,14081],[65.4,14173],[65.4,14264],[65.4,14352],[65.4,14437],[65.4,14527],[65.4,14631],[65.4,14713],[65.4,14805],[65.4,14891],[65.4,14970],[65.4,15062],[65.4,15149],[65.4,15235],[65.4,15325],[65.4,15408],[65.4,15498],[65.4,15590],[65.4,15682],[65.4,15770],[65.7,15859],[69.7,15965],[74.8,16062],[82,16166],[87.3,16264],[92.1,16361],[96.7,16465],[98.3,16567],[98.4,16664],[98.4,16762],[98.4,16852],[98.4,16947],[98.4,17041],[98.4,17130],[98.4,17224],[98.4,17317],[98.4,17408],[98.4,17498],[98.4,17596],[98.4,17688],[98.4,17769],[98.4,17867],[98.4,17963],[98.4,18059],[98.4,18139],[98.4,18229],[98.4,18332],[98.4,18424],[98.4,18524],[98.4,18616],[98.4,18699],[98.4,18797],[98.4,18880],[98.4,18970],[98.4,19056],[98.4,19144],[98.4,19235],[98.4,19324],[98.4,19415],[98.4,19498],[98.4,19595],[98.4,19689],[98.4,19776],[98.4,19866],[98.4,19949],[98.4,20033],[98.4,20126],[98.4,20208],[98.4,20310],[98.4,20396],[98.4,20484],[98.4,20574],[98.4,20672],[98.4,20763],[98.4,20852],[98.4,20949],[98.4,21034],[98.4,21124],[98.4,21208],[98.4,21304],[98.4,21394],[98.4,21477],[98.4,21574],[98.4,21665],[98.4,21748],[98.4,21838],[98.4,21923],[98.4,22005],[98.4,22095],[98.4,22178],[98.4,22263],[98.4,22345]]",529.0159,530.9812,99.6875,1.1577,"[{""rating"":99.6875,""responseTime"":1.1577000000002045}]",space,1.4522,,530.9813,Not at all,0,530.982,,,[],,0,12,12,12,1,audio/Narrative8Situation3.wav,audio/Narrative7Situation3.wav,audio/Narrative6Situation3.wav,audio/Narrative5Situation3.wav,4,8,5,3,,,,,,,,,,,,,,,,,,,,,,,,,,,,,,,,,,,,,,,
,,,,,6712fe1173dfa2bfa2d6294b,2025-07-07_22h41.03.894,group3.4_multiperson,2023.2.2,Win32,142.8571429,686c2ebf0248f13bef9af11f,686c83bd4acfe17d1d434055,,,,,,,,,,,,,,,,,,,,,,,,,,,,,530.982,1,audio/Narrative8Situation4.wav,533.9881,,533.9881,548.1467,"[[57.5,383],[81.5,487],[99.7,591],[99.7,679],[99.7,769],[99.7,859],[99.7,957],[99.7,1050],[99.7,1137],[99.7,1222],[99.7,1319],[99.7,1417],[99.7,1505],[99.7,1608],[99.7,1700],[99.7,1798],[99.7,1887],[99.7,1984],[99.7,2075],[99.7,2167],[99.7,2262],[99.7,2352],[99.7,2451],[99.7,2561],[99.7,2644],[99.7,2741],[99.7,2832],[99.7,2930],[99.7,3028],[99.7,3125],[99.7,3207],[99.7,3297],[99.7,3389],[99.7,3477],[99.7,3589],[99.7,3687],[99.7,3785],[99.7,3885],[99.7,3971],[99.7,4075],[99.7,4172],[99.7,4262],[99.7,4352],[99.7,4450],[99.7,4535],[99.7,4642],[99.7,4739],[99.7,4839],[99.7,4929],[99.7,5018],[99.7,5102],[99.7,5187],[99.7,5283],[99.7,5366],[99.7,5457],[99.7,5549],[99.7,5637],[99.7,5720],[99.7,5811],[99.7,5894],[99.7,5985],[99.7,6075],[99.7,6158],[99.7,6255],[99.7,6351],[99.7,6440],[99.7,6526],[99.7,6618],[99.7,6707],[99.7,6807],[99.7,6894],[99.7,6980],[99.7,7069],[99.7,7167],[99.7,7262],[99.7,7361],[99.7,7464],[99.7,7561],[99.7,7665],[99.7,7762],[99.7,7849],[99.7,7929],[99.7,8019],[99.7,8116],[99.7,8201],[99.7,8284],[99.7,8373],[99.7,8464],[99.7,8549],[99.7,8641],[99.7,8736],[99.7,8826],[99.7,8924],[99.7,9021],[99.7,9108],[99.7,9205],[99.7,9298],[99.7,9394],[99.7,9493],[99.7,9596],[99.7,9694],[99.7,9797],[99.7,9896],[99.7,9986],[99.7,10075],[99.7,10165],[99.7,10257],[99.7,10361],[99.7,10452],[99.7,10550],[99.7,10630],[99.7,10722],[99.7,10832],[99.7,10922],[99.7,11021],[99.7,11118],[99.7,11207],[99.7,11306],[99.7,11394],[99.7,11484],[99.7,11569],[99.7,11658],[99.7,11764],[99.7,11854],[99.7,11936],[99.7,12033],[99.7,12118],[99.7,12201],[99.7,12297],[99.7,12387],[99.7,12478],[99.7,12568],[99.7,12658],[99.7,12741],[99.7,12839],[99.7,12929],[99.7,13028],[99.7,13130],[99.7,13229],[99.7,13319],[99.7,13419],[99.7,13505],[99.7,13603],[99.7,13700],[99.7,13790],[99.7,13873],[99.7,13965],[99.7,14056],[99.7,14144]]",548.1468,550.7968,99.6875,0.6007,"[{""rating"":99.6875,""responseTime"":0.6006999999999607}]",space,2.1284,,550.7969,Partially,50,550.7983,,,[],,0,13,13,13,1,audio/Narrative8Situation4.wav,audio/Narrative7Situation4.wav,audio/Narrative6Situation4.wav,audio/Narrative5Situation4.wav,3,3,2,1,,,,,,,,,,,,,,,,,,,,,,,,,,,,,,,,,,,,,,,
,,,,,6712fe1173dfa2bfa2d6294b,2025-07-07_22h41.03.894,group3.4_multiperson,2023.2.2,Win32,142.8571429,686c2ebf0248f13bef9af11f,686c83bd4acfe17d1d434055,,,,,,,,,,,,,,,,,,,,,,,,,,,,,550.7985,1,audio/Narrative8Situation5.wav,552.804,,552.804,561.0358,"[[97.8,625],[97.8,719],[98.4,816],[98.5,912],[98.6,1011],[99,1092],[99,1175],[99,1269],[99,1349],[99,1439],[99,1523],[99,1620],[99,1703],[99,1802],[99,1891],[99,1983],[99,2078],[99,2170],[99,2267],[99,2349],[99,2441],[99,2537],[99,2635],[99,2724],[99,2809],[99,2900],[99,2981],[99,3078],[99,3169],[99,3266],[99,3349],[99,3446],[99,3533],[99,3627],[99,3710],[99,3801],[99,3891],[99,3974],[99,4058],[99,4142],[99,4232],[99,4321],[99,4412],[99,4501],[99,4578],[99,4662],[99,4752],[99,4843],[99,4946],[99,5032],[99,5120],[99,5211],[99,5294],[99,5377],[99,5467],[99,5558],[99,5650],[99,5745],[99,5842],[99,5934],[99,6033],[99,6120],[99,6210],[99,6301],[99,6391],[99,6475],[99,6572],[99,6664],[99,6745],[99,6835],[99,6934],[99,7018],[99,7106],[99,7197],[99,7288],[99,7398],[99,7495],[99,7585],[99,7683],[99,7773],[99,7870],[99,7955],[99,8059],[99,8149]]",561.0359,562.9542,99.16666667,1.5716,"[{""rating"":99.16666666666667,""responseTime"":1.5716000000001031}]",space,1.3825,,562.9543,Partially,50,562.9551,,,[],,0,14,14,14,1,audio/Narrative8Situation5.wav,audio/Narrative7Situation5.wav,audio/Narrative6Situation5.wav,audio/Narrative5Situation5.wav,2,5,2,5,,,,,,,,,,,,,,,,,,,,,,,,,,,,,,,,,,,,,,,
,,,,,6712fe1173dfa2bfa2d6294b,2025-07-07_22h41.03.894,group3.4_multiperson,2023.2.2,Win32,142.8571429,686c2ebf0248f13bef9af11f,686c83bd4acfe17d1d434055,,,,,,,,,,,,,,,,,,,,,,,,,,,,,562.9551,1,audio/Narrative8Situation6.wav,564.9594,,564.9594,571.4108,"[[99.6,1536],[100,1625],[100,1719],[100,1817],[100,1902],[100,1994],[100,2093],[100,2180],[100,2263],[100,2361],[100,2444],[100,2537],[100,2618],[100,2715],[100,2798],[100,2888],[100,2979],[100,3077],[100,3166],[100,3260],[100,3363],[100,3451],[100,3561],[100,3662],[100,3749],[100,3840],[100,3937],[100,4043],[100,4131],[100,4230],[100,4312],[100,4403],[100,4490],[100,4577],[100,4675],[100,4763],[100,4854],[100,4951],[100,5041],[100,5133],[100,5222],[100,5328],[100,5409],[100,5506],[100,5599],[100,5694],[100,5793],[100,5881],[100,5972],[100,6062],[100,6146],[100,6230],[100,6326],[100,6416]]",571.411,574.5119,100,2.6996,"[{""rating"":98.95833333333333,""responseTime"":1.997700000000009},{""rating"":100,""responseTime"":2.699600000000146}]",space,2.5781,,574.5119,Partially,50,574.5127,,,[],,0,15,15,15,1,audio/Narrative8Situation6.wav,audio/Narrative7Situation6.wav,audio/Narrative6Situation6.wav,audio/Narrative5Situation6.wav,2,3,2,3,,,,,,,,,,,,,,,,,,,,,,,,,,,,,,,,,,,,,,,
,,,,,6712fe1173dfa2bfa2d6294b,2025-07-07_22h41.03.894,group3.4_multiperson,2023.2.2,Win32,142.8571429,686c2ebf0248f13bef9af11f,686c83bd4acfe17d1d434055,,,,,,,,,,,,,,,,,,,,,,,,,,,,,574.5128,1,audio/Narrative8Situation7.wav,577.5151,,577.5151,589.5857,"[[81,333],[91.9,417],[97.4,500],[97.4,583],[97.4,666],[97.4,749],[97.9,834],[98.3,935],[98.4,1022],[98.6,1112],[99,1201],[99,1284],[99.2,1369],[99.6,1451],[99.8,1534],[99.9,1617],[99.9,1701],[99.9,1784],[99.9,1867],[99.9,1951],[99.9,2035],[99.9,2118],[99.9,2201],[99.9,2284],[99.9,2368],[99.9,2451],[99.9,2534],[99.9,2617],[99.9,2701],[99.9,2784],[99.9,2868],[99.9,2952],[99.9,3035],[99.9,3117],[99.9,3201],[99.9,3285],[99.9,3368],[99.9,3452],[99.9,3535],[99.9,3618],[99.9,3701],[99.9,3784],[99.9,3868],[99.9,3951],[99.9,4035],[99.9,4118],[99.9,4201],[99.9,4298],[99.9,4390],[99.9,4479],[99.9,4577],[99.9,4673],[99.9,4756],[99.9,4848],[99.9,4940],[99.9,5043],[99.9,5141],[99.9,5238],[99.9,5326],[99.9,5423],[99.9,5513],[99.9,5610],[99.9,5708],[99.9,5806],[99.9,5889],[99.9,5979],[99.9,6071],[99.9,6152],[99.9,6242],[99.9,6326],[99.9,6416],[99.9,6515],[99.9,6611],[99.9,6694],[99.9,6791],[99.9,6883],[99.9,6965],[99.9,7057],[99.9,7145],[99.9,7238],[99.9,7326],[99.9,7416],[99.9,7508],[99.9,7611],[99.9,7694],[99.9,7791],[99.9,7904],[99.9,7986],[99.9,8076],[99.9,8166],[99.9,8263],[99.9,8347],[99.9,8444],[99.9,8527],[99.9,8618],[99.9,8704],[99.9,8791],[99.9,8894],[99.9,8979],[99.9,9071],[99.9,9152],[99.9,9243],[99.9,9326],[99.9,9416],[99.9,9508],[99.9,9597],[99.9,9680],[99.9,9771],[99.9,9854],[99.9,9938],[99.9,10021],[99.9,10111],[99.9,10194],[99.9,10284],[99.9,10376],[99.9,10458],[99.9,10541],[99.9,10631],[99.9,10735],[99.9,10812],[99.9,10902],[99.9,10993],[99.9,11083],[99.9,11173],[99.9,11261],[99.9,11354],[99.9,11439],[99.9,11527],[99.9,11619],[99.9,11726],[99.9,11812],[99.9,11895],[99.9,11987],[99.9,12070]]",589.5858,591.8547,99.375,1.3923,"[{""rating"":99.375,""responseTime"":1.3923000000000911}]",space,1.7445,,591.8547,Definitely yes,100,591.856,,,[],,0,16,16,16,1,audio/Narrative8Situation7.wav,audio/Narrative7Situation7.wav,audio/Narrative6Situation7.wav,audio/Narrative5Situation7.wav,3,5,5,4,,,,,,,,,,,,,,,,,,,,,,,,,,,,,,,,,,,,,,,
,,,,,6712fe1173dfa2bfa2d6294b,2025-07-07_22h41.03.894,group3.4_multiperson,2023.2.2,Win32,142.8571429,686c2ebf0248f13bef9af11f,686c83bd4acfe17d1d434055,,,,,,,,,,,,,,,,,,,,,,,,,,,,,591.8561,1,audio/Narrative8Situation8.wav,594.8626,,594.8626,607.7045,"[[91.7,358],[97.5,460],[98.1,548],[98.2,633],[98.6,724],[99.5,822],[99.6,902],[99.6,992],[99.6,1076],[99.6,1166],[99.6,1255],[99.6,1347],[99.6,1437],[99.6,1527],[99.6,1623],[99.6,1708],[99.6,1805],[99.6,1897],[99.6,1979],[99.6,2062],[99.6,2145],[99.6,2235],[99.6,2326],[99.6,2432],[99.6,2513],[99.6,2604],[99.6,2694],[99.6,2787],[99.6,2868],[99.6,2960],[99.6,3056],[99.6,3145],[99.6,3231],[99.6,3340],[99.6,3444],[99.6,3541],[99.6,3626],[99.6,3724],[99.6,3812],[99.6,3916],[99.6,4006],[99.6,4105],[99.6,4208],[99.6,4293],[99.6,4390],[99.6,4489],[99.6,4569],[99.6,4673],[99.6,4758],[99.6,4846],[99.6,4937],[99.6,5029],[99.6,5123],[99.6,5208],[99.6,5292],[99.6,5390],[99.6,5479],[99.6,5563],[99.6,5654],[99.6,5735],[99.6,5826],[99.6,5916],[99.6,6006],[99.6,6091],[99.6,6173],[99.6,6258],[99.6,6355],[99.6,6437],[99.6,6527],[99.6,6617],[99.6,6708],[99.6,6800],[99.6,6895],[99.6,6979],[99.6,7069],[99.6,7158],[99.6,7236],[99.6,7326],[99.6,7416],[99.6,7499],[99.6,7590],[99.6,7673],[99.6,7759],[99.6,7847],[99.6,7930],[99.6,8027],[99.6,8111],[99.6,8201],[99.6,8291],[99.6,8375],[99.6,8465],[99.6,8562],[99.6,8655],[99.6,8743],[99.6,8827],[99.6,8923],[99.6,9022],[99.6,9104],[99.6,9201],[99.6,9299],[99.6,9390],[99.6,9472],[99.6,9569],[99.6,9666],[99.6,9758],[99.6,9840],[99.6,9931],[99.6,10027],[99.6,10110],[99.6,10195],[99.6,10288],[99.6,10375],[99.6,10466],[99.6,10563],[99.6,10666],[99.6,10753],[99.6,10840],[99.6,10930],[99.6,11024],[99.6,11104],[99.6,11208],[99.6,11298],[99.6,11395],[99.6,11479],[99.6,11583],[99.6,11677],[99.6,11765],[99.6,11855],[99.6,11944],[99.6,12029],[99.6,12123],[99.6,12201],[99.6,12290],[99.6,12368],[99.6,12458],[99.6,12541],[99.6,12631],[99.6,12729],[99.6,12812]]",607.7046,609.3186,99.58333333,1.126,"[{""rating"":99.58333333333333,""responseTime"":1.1259999999999764}]",space,1.0761,,609.3186,Partially,50,609.3196,,,[],,0,17,17,17,1,audio/Narrative8Situation8.wav,audio/Narrative7Situation8.wav,audio/Narrative6Situation8.wav,audio/Narrative5Situation8.wav,3,2,5,3,,,,,,,,,,,,,,,,,,,,,,,,,,,,,,,,,,,,,,,
,,,,,6712fe1173dfa2bfa2d6294b,2025-07-07_22h41.03.894,group3.4_multiperson,2023.2.2,Win32,142.8571429,686c2ebf0248f13bef9af11f,686c83bd4acfe17d1d434055,,,,,,,,,,,,,,,,,,,,,,,,,,,,,609.3197,1,audio/Narrative8Situation9.wav,612.3293,,612.3294,623.6297,"[[99.4,1326],[98.4,1429],[98.2,1521],[98.2,1602],[98.6,1699],[99.7,1791],[100,1884],[100,1965],[100,2057],[100,2154],[100,2235],[100,2324],[100,2415],[100,2507],[100,2595],[100,2679],[100,2769],[100,2856],[100,2937],[100,3034],[100,3124],[100,3213],[100,3304],[100,3396],[100,3492],[100,3580],[100,3665],[100,3756],[100,3838],[100,3923],[100,4005],[100,4102],[100,4194],[100,4276],[100,4368],[100,4456],[100,4554],[100,4638],[100,4727],[100,4811],[100,4908],[100,4998],[100,5088],[100,5187],[100,5276],[100,5361],[100,5442],[100,5533],[100,5623],[100,5706],[100,5797],[100,5887],[100,5970],[100,6061],[100,6156],[100,6234],[100,6322],[100,6402],[100,6498],[100,6589],[100,6672],[100,6762],[100,6845],[100,6930],[100,7026],[100,7109],[100,7199],[100,7290],[100,7388],[100,7472],[100,7575],[100,7665],[100,7755],[100,7845],[100,7929],[100,8012],[100,8095],[100,8187],[100,8276],[100,8366],[100,8453],[100,8545],[100,8630],[100,8727],[100,8811],[100,8908],[100,8998],[100,9102],[100,9194],[100,9304],[100,9389],[100,9477],[100,9567],[100,9666],[100,9758],[100,9855],[100,9958],[100,10055],[100,10157],[100,10246],[100,10340],[100,10430],[100,10512],[100,10609],[100,10700],[100,10790],[100,10880],[100,10970],[100,11069],[100,11158],[100,11248]]",623.6299,625.559,99.27083333,1.0957,"[{""rating"":99.27083333333333,""responseTime"":1.0957000000001926}]",space,1.4179,,625.559,Partially,50,632.7882,49.79166667,6.0281,"[{""rating"":49.791666666666664,""responseTime"":6.028100000000109}]",space,0,18,18,18,1,audio/Narrative8Situation9.wav,audio/Narrative7Situation9.wav,audio/Narrative6Situation9.wav,audio/Narrative5Situation9.wav,3,2,4,3,,,6.7066,,,,,,,,,,,,,,,,,,,,,,,,,,,,,,,,,,,,
,,,,,6712fe1173dfa2bfa2d6294b,2025-07-07_22h41.03.894,group3.4_multiperson,2023.2.2,Win32,142.8571429,686c2ebf0248f13bef9af11f,686c83bd4acfe17d1d434055,,,,,,,,,,,,,,,,,,,,,,,,,,,637.391,639.9671,639.9724,2,audio/Narrative13Situation2.wav,639.9725,,639.9726,669.7105,"[[50.2,1952],[51.3,2057],[51.4,2144],[51.4,2253],[49.6,2355],[49.2,2445],[49.2,2545],[49.2,2633],[49.2,2730],[49.2,2813],[49.2,2919],[49.6,3011],[49.7,3110],[49.7,3202],[49.7,3286],[49.7,3378],[49.7,3461],[49.7,3551],[49.7,3643],[49.7,3730],[50.7,3822],[54.9,3913],[55.8,3994],[55.8,4091],[55.8,4190],[55.8,4279],[55.8,4369],[55.8,4452],[55.8,4557],[55.8,4654],[55.8,4746],[56.5,4829],[59.8,4926],[62.8,5010],[63.8,5093],[64.3,5182],[65.5,5287],[65.6,5378],[65.6,5459],[65.6,5557],[65.6,5648],[65.6,5730],[65.6,5813],[65.6,5897],[65.6,5987],[65.6,6070],[65.6,6161],[65.6,6245],[65.6,6327],[65.6,6418],[65.6,6501],[65.6,6584],[65.6,6677],[65.6,6766],[65.6,6855],[65.6,6946],[65.6,7036],[65.6,7120],[65.6,7216],[65.6,7308],[65.6,7390],[65.6,7476],[65.6,7557],[65.6,7654],[65.6,7737],[65.6,7820],[65.6,7904],[65.6,7989],[65.6,8084],[65.6,8177],[65.6,8258],[65.6,8355],[65.6,8445],[65.6,8529],[65.6,8619],[65.6,8712],[65.6,8800],[65.6,8903],[65.6,8989],[65.6,9085],[65.6,9168],[65.6,9265],[65.6,9355],[65.6,9447],[65.6,9551],[65.6,9643],[65.6,9737],[65.6,9820],[65.6,9911],[65.6,10001],[65.6,10091],[63.6,10182],[57.3,10286],[48,10369],[35.8,10459],[30.8,10558],[31.5,10655],[31.5,10746],[31.5,10829],[27.2,10939],[27.2,11022],[27.2,11113],[27.1,11216],[26.1,11310],[25.8,11410],[25.2,11496],[20.5,11602],[20,11688],[20,11772],[17.3,11867],[11,11966],[10.6,12064],[10.5,12154],[7.2,12253],[6.9,12343],[6.9,12425],[6.9,12508],[6.9,12598],[6.9,12688],[6.9,12779],[6.9,12862],[6.9,12947],[6.9,13050],[6.9,13149],[6.9,13230],[6.9,13323],[6.9,13412],[6.9,13501],[6.9,13587],[6.9,13675],[6.9,13776],[6.9,13862],[6.9,13954],[6.9,14044],[6.9,14126],[6.9,14212],[6.9,14293],[6.9,14383],[6.9,14466],[6.9,14571],[6.9,14661],[6.9,14747],[6.9,14834],[6.9,14925],[6.9,15015],[6.9,15098],[6.9,15189],[6.9,15286],[6.9,15380],[6.9,15459],[6.9,15550],[6.9,15644],[6.9,15730],[6.9,15822],[6.9,15904],[6.9,16009],[6.9,16091],[6.9,16182],[6.9,16272],[6.9,16355],[6.9,16438],[6.9,16529],[6.9,16612],[6.9,16709],[6.9,16786],[6.9,16879],[6.9,16980],[6.9,17069],[6.9,17147],[6.9,17237],[6.9,17322],[6.9,17404],[6.9,17494],[6.9,17579],[6.9,17668],[6.9,17758],[6.9,17855],[6.9,17946],[6.9,18034],[6.9,18126],[6.9,18212],[6.9,18311],[6.9,18397],[6.9,18488],[6.9,18584],[6.9,18683],[6.9,18779],[6.9,18862],[6.9,18952],[6.9,19046],[6.9,19133],[6.9,19230],[6.9,19315],[6.9,19397],[6.9,19489],[6.9,19578],[6.9,19668],[6.9,19758],[6.9,19848],[6.9,19935],[6.9,20022],[6.9,20114],[6.9,20196],[6.9,20288],[6.9,20385],[6.9,20482],[6.9,20571],[6.9,20662],[6.9,20751],[6.9,20836],[6.9,20941],[6.9,21029],[6.9,21119],[6.9,21216],[6.9,21300],[6.9,21391],[6.9,21489],[6.9,21571],[6.9,21654],[6.9,21746],[6.9,21835],[6.9,21925],[6.9,22015],[6.9,22108],[6.9,22196],[6.9,22300],[6.9,22383],[6.9,22466],[6.9,22551],[6.9,22633],[6.9,22718],[6.9,22810],[6.9,22891],[6.9,22982],[6.9,23077],[6.9,23161],[6.9,23244],[6.9,23328],[6.9,23426],[6.9,23524],[6.9,23612],[6.9,23701],[6.9,23809],[6.9,23890],[6.9,23975],[6.9,24057],[6.9,24140],[7.2,24223],[12.7,24309],[19.9,24402],[29.1,24496],[36.8,24591],[43.4,24689],[49.8,24786],[52.2,24879],[52.6,24961],[54.4,25050],[57.5,25143],[57.5,25225],[57.5,25314],[57.5,25412],[62.7,25511],[65.2,25609],[69.4,25712],[70.1,25808],[70.1,25890],[70.1,25987],[70.1,26071],[70.1,26161],[70.1,26251],[70.1,26335],[70.1,26418],[70.1,26517],[70.1,26610],[70.1,26700],[70.1,26793],[70.1,26890],[70.1,26980],[70.1,27068],[70.1,27154],[70.1,27237],[70.1,27332],[70.1,27419],[70.1,27501],[70.1,27585],[70.1,27676],[70.1,27758],[70.1,27862],[70.1,27954],[70.1,28050],[70.1,28133],[70.1,28216],[70.1,28310],[71.6,28397],[74.2,28482],[75.5,28585],[76.6,28678],[77.4,28774],[78.5,28875],[79.8,28967],[79.9,29064],[79.9,29154],[79.9,29244],[79.9,29342],[79.9,29425],[79.9,29523],[79.9,29619],[79.9,29711]]",669.7107,669.7116,,,[],,,,669.7116,Partially,50,669.7121,,,[],,0,0,0,0,1,audio/Narrative13Situation2.wav,audio/Narrative13Situation2.wav,audio/Narrative13Situation2.wav,audio/Narrative13Situation2.wav,2,2,2,2,,,,,632.7884,637.3908,space,4.0952,,,,,,,,,,,,,,,,,,,,,,,,,,,,,,,
,,,,,6712fe1173dfa2bfa2d6294b,2025-07-07_22h41.03.894,group3.4_multiperson,2023.2.2,Win32,142.8571429,686c2ebf0248f13bef9af11f,686c83bd4acfe17d1d434055,,,,,,,,,,,,,,,,,,,,,,,,,,,,,669.7121,2,audio/Narrative5Situation1.wav,674.7186,,674.7186,687.9841,"[[79.5,730],[69.4,834],[57.2,938],[53.2,1035],[51.3,1123],[51.1,1216],[50.1,1311],[50,1394],[50,1477],[50,1568],[50,1663],[50,1753],[50,1839],[50,1923],[50,2007],[50,2104],[50,2186],[50,2276],[50,2369],[50,2450],[50,2534],[50,2621],[50,2714],[50,2804],[50,2887],[50,2977],[50,3069],[50,3155],[50,3236],[50,3325],[50,3415],[50,3507],[50,3589],[50,3679],[50,3771],[50,3862],[50,3943],[50,4033],[50,4132],[50,4225],[50,4311],[50,4401],[50,4491],[50,4576],[50,4663],[50,4748],[50,4832],[50,4915],[50,4998],[50,5082],[50,5167],[50,5255],[50,5347],[50,5431],[50,5512],[50,5596],[50,5680],[50,5776],[50,5866],[50,5950],[50,6035],[50,6116],[50,6202],[50,6287],[50,6375],[50,6465],[50,6554],[50,6644],[50,6736],[50,6818],[50,6903],[50,6995],[50,7089],[50,7179],[50,7278],[50,7373],[50,7463],[50,7563],[50,7651],[50,7754],[50,7846],[50,7943],[50,8035],[50,8130],[50,8221],[50,8312],[50,8420],[50,8512],[50,8611],[50,8695],[50,8776],[50.4,8880],[51.3,8965],[52.1,9054],[52.8,9144],[53.9,9254],[55.7,9339],[57.3,9431],[57.8,9540],[57.8,9637],[57.8,9730],[57.8,9818],[57.8,9915],[57.8,10007],[57.8,10099],[57.8,10186],[57.8,10283],[57.8,10380],[57.8,10478],[57.8,10582],[57.8,10672],[57.8,10776],[57.8,10864],[57.8,10950],[57.8,11040],[57.8,11139],[57.8,11230],[57.8,11311],[57.8,11403],[57.8,11485],[57.8,11575],[57.8,11667],[57.8,11748],[57.8,11846],[57.8,11933],[57.8,12019],[57.8,12103],[57.8,12186],[55.6,12299]]",687.9842,692.301,54.27083333,3.0815,"[{""rating"":54.270833333333336,""responseTime"":3.0815000000000055}]",space,3.7957,,692.301,Definitely yes,100,692.3022,,,[],,0,1,1,1,1,audio/Narrative7Situation1.wav,audio/Narrative8Situation1.wav,audio/Narrative5Situation1.wav,audio/Narrative6Situation1.wav,2,5,5,2,,,,,,,,,,,,,,,,,,,,,,,,,,,,,,,,,,,,,,,
,,,,,6712fe1173dfa2bfa2d6294b,2025-07-07_22h41.03.894,group3.4_multiperson,2023.2.2,Win32,142.8571429,686c2ebf0248f13bef9af11f,686c83bd4acfe17d1d434055,,,,,,,,,,,,,,,,,,,,,,,,,,,,,692.3024,2,audio/Narrative5Situation2.wav,695.3052,,695.3052,724.7459,"[[55.2,1011],[57.2,1100],[57.2,1190],[55.9,1289],[55.7,1391],[55.7,1488],[55.7,1575],[55.7,1662],[55.7,1754],[55.7,1842],[55.7,1926],[55.7,2013],[55.7,2108],[55.7,2197],[55.7,2288],[55.7,2377],[55.7,2481],[55.7,2565],[55.7,2667],[55.7,2775],[55.7,2856],[55.7,2947],[55.7,3046],[55.7,3150],[55.7,3233],[55.7,3316],[55.7,3412],[55.7,3511],[55.7,3609],[55.7,3709],[55.7,3794],[55.7,3879],[55.7,3961],[55.7,4051],[55.7,4134],[55.7,4225],[55.7,4309],[55.7,4398],[55.7,4490],[55.7,4586],[55.7,4677],[55.7,4775],[55.7,4875],[55.7,4967],[55.7,5051],[55.7,5134],[55.7,5226],[55.7,5322],[55.7,5413],[59,5511],[62.1,5608],[66.7,5711],[71.1,5809],[75.4,5909],[79.9,6012],[84.1,6115],[87.3,6219],[90.7,6323],[92.2,6421],[93.4,6525],[95.2,6632],[95.6,6719],[96.9,6811],[96.9,6898],[96.9,6988],[96.9,7080],[96.9,7176],[96.9,7264],[96.9,7351],[96.9,7454],[96.9,7544],[96.9,7634],[96.9,7720],[96.9,7815],[96.9,7898],[96.9,7982],[96.9,8076],[96.9,8155],[96.9,8254],[96.9,8336],[96.9,8419],[96.9,8502],[96.9,8594],[96.9,8683],[96.9,8780],[96.9,8870],[96.9,8954],[96.9,9046],[96.9,9143],[96.9,9231],[96.9,9329],[96.9,9419],[96.9,9516],[96.9,9608],[96.9,9697],[96.9,9780],[96.9,9875],[96.9,9966],[96.9,10059],[96.9,10148],[98.9,10247],[100,10350],[100,10447],[100,10542],[100,10628],[100,10712],[100,10808],[100,10884],[100,10981],[100,11074],[100,11169],[100,11259],[100,11344],[100,11449],[100,11542],[100,11632],[100,11719],[100,11810],[100,11891],[100,11989],[100,12087],[100,12178],[100,12274],[100,12356],[100,12461],[100,12545],[100,12627],[100,12718],[100,12810],[100,12898],[100,13002],[100,13093],[100,13184],[100,13275],[100,13375],[100,13476],[100,13559],[100,13648],[100,13742],[100,13843],[100,13941],[100,14030],[100,14127],[100,14211],[100,14309],[100,14391],[100,14490],[100,14579],[100,14662],[100,14752],[100,14858],[100,14949],[100,15040],[100,15127],[100,15218],[100,15310],[100,15398],[100,15489],[100,15586],[100,15676],[100,15766],[100,15858],[100,15948],[100,16042],[100,16127],[100,16218],[100,16301],[100,16384],[100,16481],[100,16565],[100,16675],[100,16766],[100,16857],[100,16947],[100,17041],[100,17127],[100,17218],[100,17315],[100,17408],[100,17495],[100,17586],[100,17678],[100,17780],[100,17873],[100,17968],[100,18058],[100,18150],[100,18245],[100,18336],[100,18433],[100,18518],[100,18600],[100,18690],[100,18775],[100,18864],[100,18961],[100,19053],[100,19144],[100,19232],[100,19322],[100,19408],[100,19500],[100,19600],[100,19684],[100,19776],[100,19875],[100,19973],[100,20051],[100,20140],[100,20225],[100,20322],[100,20419],[100,20516],[100,20614],[100,20707],[100,20794],[100,20877],[100,20976],[100,21072],[100,21162],[100,21264],[100,21357],[100,21461],[100,21558],[100,21650],[100,21737],[100,21817],[100,21898],[100,21995],[100,22093],[100,22184],[100,22266],[100,22351],[100,22454],[100,22552],[100,22648],[100,22741],[100,22823],[100,22915],[100,23005],[100,23107],[100,23190],[100,23276],[100,23386],[100,23475],[100,23551],[100,23650],[100,23741],[100,23829],[100,23926],[100,24023],[100,24108],[100,24197],[100,24301],[100,24391],[100,24475],[100,24558],[100,24648],[100,24732],[100,24817],[100,24898],[100,24982],[100,25079],[100,25172],[100,25253],[100,25351],[100,25447],[100,25530],[100,25628],[100,25718],[100,25809],[100,25898],[100,25999],[100,26093],[100,26178],[100,26259],[100,26350],[100,26447],[100,26541],[100,26622],[100,26718],[100,26810],[100,26908],[100,26989],[100,27079],[100,27173],[100,27259],[100,27343],[100,27441],[100,27530],[100,27620],[100,27707],[100,27799],[100,27893],[100,27982],[100,28079],[100,28162],[100,28254],[100,28343],[100,28440],[100,28525],[100,28616],[100,28697],[100,28799],[100,28892],[100,28976],[100,29073],[100,29162],[100,29253],[100,29343]]",724.746,731.6001,99.58333333,5.6,"[{""rating"":99.58333333333333,""responseTime"":5.600000000000023}]",space,6.3438,,731.6001,Partially,50,731.6011,,,[],,0,2,2,2,1,audio/Narrative7Situation2.wav,audio/Narrative8Situation2.wav,audio/Narrative5Situation2.wav,audio/Narrative6Situation2.wav,3,3,3,3,,,,,,,,,,,,,,,,,,,,,,,,,,,,,,,,,,,,,,,
,,,,,6712fe1173dfa2bfa2d6294b,2025-07-07_22h41.03.894,group3.4_multiperson,2023.2.2,Win32,142.8571429,686c2ebf0248f13bef9af11f,686c83bd4acfe17d1d434055,,,,,,,,,,,,,,,,,,,,,,,,,,,,,731.6012,2,audio/Narrative5Situation3.wav,734.6069,,734.6069,748.5133,"[[98.9,1130],[97.9,1215],[97.8,1314],[98.5,1406],[98.9,1498],[98.9,1590],[98.9,1673],[98.9,1763],[98.9,1854],[98.9,1951],[98.9,2039],[98.9,2129],[98.9,2216],[98.9,2312],[98.9,2395],[98.9,2480],[98.9,2576],[98.9,2659],[98.9,2750],[98.9,2842],[98.9,2938],[98.9,3027],[98.9,3128],[98.9,3215],[98.9,3308],[98.9,3395],[98.9,3497],[98.9,3590],[98.9,3680],[98.9,3773],[98.9,3854],[98.9,3951],[98.9,4039],[98.9,4125],[98.9,4222],[98.9,4314],[98.9,4409],[98.9,4500],[98.9,4584],[98.9,4687],[98.9,4784],[98.9,4867],[98.9,4952],[98.9,5038],[98.9,5118],[98.9,5215],[98.9,5298],[98.9,5388],[98.9,5474],[98.9,5557],[98.9,5652],[98.9,5743],[98.9,5840],[98.9,5928],[98.9,6008],[98.9,6113],[98.9,6194],[98.9,6284],[98.9,6372],[98.9,6451],[99.1,6541],[99.3,6638],[99.3,6715],[99.5,6812],[99.7,6906],[99.9,6987],[99.9,7072],[99.9,7159],[99.9,7250],[99.9,7338],[99.9,7427],[99.9,7515],[99.9,7597],[99.9,7682],[99.9,7764],[99.9,7854],[99.9,7951],[99.9,8050],[99.9,8140],[99.9,8229],[99.9,8313],[99.9,8404],[99.9,8493],[99.9,8576],[99.9,8659],[99.9,8757],[99.9,8840],[99.9,8939],[99.9,9020],[99.9,9120],[99.9,9205],[99.9,9306],[99.9,9406],[99.9,9506],[99.9,9597],[99.9,9687],[99.9,9779],[99.9,9861],[99.9,9953],[99.9,10048],[99.9,10140],[99.9,10229],[99.9,10337],[99.9,10439],[99.9,10527],[99.9,10612],[99.9,10710],[99.9,10797],[99.9,10881],[99.9,10979],[99.9,11069],[99.9,11159],[99.9,11243],[99.9,11326],[99.9,11416],[99.9,11514],[99.9,11607],[99.9,11687],[99.9,11777],[99.9,11861],[99.9,11944],[99.9,12028],[99.9,12118],[99.9,12208],[99.9,12305],[99.9,12390],[99.9,12479],[99.9,12562],[99.9,12647],[99.9,12736],[99.9,12819],[99.9,12910],[99.9,12993],[99.9,13083],[99.9,13166],[99.9,13251],[99.9,13342],[99.9,13447],[99.9,13538],[99.9,13618],[99.9,13708],[99.9,13803],[99.9,13906]]",748.5133,750.2321,99.89583333,0.637,"[{""rating"":99.89583333333334,""responseTime"":0.6370000000000573}]",space,1.1967,,750.2321,Not at all,0,750.2332,,,[],,0,3,3,3,1,audio/Narrative7Situation3.wav,audio/Narrative8Situation3.wav,audio/Narrative5Situation3.wav,audio/Narrative6Situation3.wav,8,4,3,5,,,,,,,,,,,,,,,,,,,,,,,,,,,,,,,,,,,,,,,
,,,,,6712fe1173dfa2bfa2d6294b,2025-07-07_22h41.03.894,group3.4_multiperson,2023.2.2,Win32,142.8571429,686c2ebf0248f13bef9af11f,686c83bd4acfe17d1d434055,,,,,,,,,,,,,,,,,,,,,,,,,,,,,750.2334,2,audio/Narrative5Situation4.wav,751.239,,751.2391,771.6144,"[[99.9,710],[100,812],[100,895],[100,987],[100,1076],[100,1174],[100,1263],[100,1361],[100,1458],[100,1548],[100,1632],[100,1715],[100,1806],[100,1888],[100,1986],[100,2076],[100,2159],[100,2251],[100,2340],[100,2430],[100,2520],[100,2619],[100,2710],[100,2806],[100,2888],[100,2986],[100,3083],[100,3173],[100,3272],[100,3354],[100,3440],[100,3520],[100,3619],[100,3715],[100,3798],[100,3883],[100,3973],[100,4071],[100,4159],[100,4244],[100,4340],[100,4439],[100,4536],[100,4618],[100,4716],[100,4812],[100,4895],[100,4996],[100,5090],[100,5187],[100,5272],[100,5354],[100,5452],[100,5534],[100,5632],[100,5715],[100,5806],[100,5881],[100,5974],[100,6062],[100,6152],[100,6243],[100,6326],[100,6409],[100,6493],[100,6577],[100,6659],[100,6750],[100,6833],[100,6918],[100,7015],[100,7105],[100,7194],[100,7277],[100,7361],[100,7458],[100,7548],[100,7639],[100,7722],[100,7807],[100,7895],[100,7997],[100,8083],[100,8174],[91,8279],[58.6,8376],[26,8482],[22.5,8585],[17.5,8689],[12.8,8786],[11.5,8882],[11.5,8965],[11.5,9055],[11.5,9147],[11.5,9238],[11.5,9320],[11.5,9418],[11.5,9506],[11.5,9597],[19.8,9694],[52.5,9797],[82.1,9906],[91,10007],[96.9,10107],[97.8,10194],[97.8,10277],[97.8,10376],[97.8,10472],[97.8,10562],[97.8,10671],[98,10757],[98.4,10865],[98.5,10958],[98.5,11048],[98.6,11141],[98.8,11234],[98.9,11312],[99,11405],[99,11493],[99,11583],[99.1,11666],[99.2,11757],[99.3,11849],[99.3,11953],[99.5,12050],[99.5,12139],[99.5,12224],[99.5,12319],[99.5,12410],[99.5,12493],[99.5,12583],[99.5,12672],[99.5,12756],[99.5,12841],[99.5,12930],[99.5,13020],[99.5,13112],[99.5,13194],[99.5,13284],[99.5,13377],[99.5,13463],[99.5,13555],[99.5,13645],[99.5,13744],[99.5,13838],[99.5,13931],[99.5,14020],[99.5,14111],[99.5,14204],[99.5,14291],[99.5,14389],[99.5,14473],[99.5,14562],[99.5,14654],[99.5,14744],[99.5,14833],[99.5,14923],[99.5,15014],[99.5,15105],[99.5,15204],[99.5,15291],[99.5,15382],[99.5,15479],[99.5,15562],[99.5,15645],[99.5,15737],[99.5,15819],[99.5,15911],[99.5,16000],[99.5,16091],[99.5,16173],[99.5,16257],[99.5,16348],[99.5,16451],[99.5,16540],[99.5,16619],[99.5,16715],[99.5,16807],[99.5,16895],[99.5,16979],[99.5,17074],[99.5,17173],[99.5,17264],[99.5,17347],[99.5,17446],[99.5,17538],[99.5,17625],[99.5,17716],[99.5,17807],[99.5,17889],[99.5,17973],[99.5,18055],[99.5,18145],[99.5,18229],[99.5,18319],[99.5,18416],[99.5,18507],[99.5,18597],[99.5,18687],[99.5,18772],[99.5,18854],[99.5,18958],[99.5,19048],[99.5,19132],[99.5,19222],[99.5,19312],[99.5,19405],[99.5,19500],[99.5,19583],[99.5,19672],[99.5,19757],[99.5,19847],[99.5,19940],[99.5,20021],[99.5,20107],[99.5,20187],[99.5,20274],[99.5,20354]]",771.6144,774.3174,100,1.8711,"[{""rating"":99.16666666666667,""responseTime"":1.3103000000000975},{""rating"":100,""responseTime"":1.8711000000001832}]",space,2.1897,,774.3175,Definitely yes,100,774.3186,,,[],,0,4,4,4,1,audio/Narrative7Situation4.wav,audio/Narrative8Situation4.wav,audio/Narrative5Situation4.wav,audio/Narrative6Situation4.wav,3,3,1,2,,,,,,,,,,,,,,,,,,,,,,,,,,,,,,,,,,,,,,,
,,,,,6712fe1173dfa2bfa2d6294b,2025-07-07_22h41.03.894,group3.4_multiperson,2023.2.2,Win32,142.8571429,686c2ebf0248f13bef9af11f,686c83bd4acfe17d1d434055,,,,,,,,,,,,,,,,,,,,,,,,,,,,,774.3186,2,audio/Narrative5Situation5.wav,779.3227,,779.3227,794.744,"[[100,564],[100,668],[99,770],[99,862],[99,954],[99,1041],[99,1140],[99.3,1235],[99.3,1333],[99.3,1437],[99.3,1534],[99.3,1624],[99.3,1722],[99.3,1807],[99.3,1890],[99.3,1972],[99.3,2062],[99.3,2156],[99.2,2235],[99.1,2333],[99.1,2421],[99.1,2511],[99.1,2604],[98.9,2689],[97.1,2787],[93.1,2879],[86.7,2972],[79.8,3064],[75,3155],[69.6,3254],[65.5,3345],[63,3439],[63,3529],[63,3631],[63,3720],[63,3812],[63,3895],[58.3,3995],[45.7,4092],[36,4196],[9.2,4846],[10.3,4939],[10.4,5034],[10.4,5121],[10.4,5202],[10.4,5293],[10.4,5389],[10.4,5479],[10.4,5569],[10.4,5666],[10.4,5756],[10,5854],[9.7,5944],[9.7,6041],[9.7,6138],[8.9,6237],[6.9,6334],[3.9,6423],[3.1,6527],[2.9,6611],[2.5,6713],[1.5,6805],[0.7,6895],[0.4,6987],[0.4,7069],[4.2,7162],[6.6,7253],[6.6,7347],[6.6,7430],[6.6,7523],[6.6,7611],[6.6,7703],[6.6,7789],[6.6,7875]]",794.7441,797.3686,0.208333333,1.6735,"[{""rating"":0.2083333333333326,""responseTime"":1.67349999999999}]",space,2.1092,,797.3686,Not at all,0,797.3698,,,[],,0,5,5,5,1,audio/Narrative7Situation5.wav,audio/Narrative8Situation5.wav,audio/Narrative5Situation5.wav,audio/Narrative6Situation5.wav,5,2,5,2,,,,,,,,,,,,,,,,,,,,,,,,,,,,,,,,,,,,,,,
,,,,,6712fe1173dfa2bfa2d6294b,2025-07-07_22h41.03.894,group3.4_multiperson,2023.2.2,Win32,142.8571429,686c2ebf0248f13bef9af11f,686c83bd4acfe17d1d434055,,,,,,,,,,,,,,,,,,,,,,,,,,,,,797.3698,2,audio/Narrative5Situation6.wav,800.3715,,800.3715,806.0426,"[[0.3,5273],[0.8,5371],[2.1,5465],[5.6,5571]]",806.0426,812.3595,20,3.9008,"[{""rating"":20,""responseTime"":3.90079999999989}]",space,5.7996,,812.3595,Definitely yes,100,817.3995,99.58333333,3.7494,"[{""rating"":99.58333333333333,""responseTime"":3.7494000000001506}]",space,0,6,6,6,1,audio/Narrative7Situation6.wav,audio/Narrative8Situation6.wav,audio/Narrative5Situation6.wav,audio/Narrative6Situation6.wav,3,2,3,2,,,4.514,,,,,,,,,,,,,,,,,,,,,,,,,,,,,,,,,,,,
,,,,,6712fe1173dfa2bfa2d6294b,2025-07-07_22h41.03.894,group3.4_multiperson,2023.2.2,Win32,142.8571429,686c2ebf0248f13bef9af11f,686c83bd4acfe17d1d434055,,,,,,,,,,,,,,,,,,,,,,,,,,,,,817.3997,2,audio/Narrative5Situation7.wav,821.4095,,821.4096,842.4276,"[[44.3,631],[39.9,735],[31,832],[24.8,934],[21.1,1033],[19.9,1132],[19.9,1232],[19.9,1332],[19.9,1431],[19.9,1522],[19.9,1614],[19.9,1718],[19.9,1810],[19.9,1892],[19.9,1989],[19.9,2081],[19.9,2171],[19.9,2268],[19.9,2367],[19.9,2455],[20.1,2540],[20.2,2637],[20.2,2735],[20.2,2823],[20.5,2920],[21.3,3023],[21.6,3116],[21.7,3212],[21.8,3309],[21.9,3406],[21.9,3503],[22.1,3602],[24,3706],[27.9,3811],[33,3913],[39.2,4012],[46.7,4115],[54.3,4213],[62.6,4318],[69.8,4420],[73.8,4518],[73.9,4602],[73.9,4699],[77.7,5723],[76.3,5817],[76.1,5908],[76.1,5990],[76.1,6074],[76.1,6170],[76.7,6267],[77.7,6366],[77.8,6455],[77.8,6547],[77.8,6637],[77.8,6734],[77.8,6823],[77.8,6913],[77.8,7010],[77.8,7097],[77.8,7199],[77.8,7281],[77.8,7378],[77.8,7476],[77.8,7573],[77.8,7670],[77.8,7765],[77.8,7851],[77.8,7941],[77.8,8038],[77.8,8121],[77.8,8226],[77.8,8317],[77.8,8414],[77.8,8498],[77.8,8594],[77.8,8699],[77.8,8781],[77.8,8866],[77.8,8948],[77.8,9039],[77.8,9121],[77.8,9235],[77.8,9338],[77.8,9431],[77.8,9524],[77.8,9607],[77.8,9705],[77.8,9788],[77.8,9898],[77.8,9982],[77.8,10080],[77.8,10166],[77.8,10254],[77.8,10337],[77.8,10420],[77.8,10524],[77.8,10607],[77.8,10700],[77.8,10783],[77.8,10866],[77.8,10955],[77.8,11052],[77.8,11142],[77.8,11233],[77.8,11316],[77.8,11406],[77.8,11498],[77.8,11580],[77.8,11677],[77.8,11783],[77.8,11873],[77.8,11964],[77.8,12045],[77.8,12142],[77.8,12226],[77.8,12310],[77.8,12408],[77.8,12505],[77.8,12587],[77.4,12689],[76.5,12781],[75.3,12873],[74,12977],[72.9,13080],[71.9,13179],[70.8,13276],[69.3,13380],[68.1,13477],[66.9,13580],[65,13677],[62.3,13767],[57.3,13873],[51.7,13977],[47.1,14073],[40.4,14179],[35.4,14281],[26.6,16666],[28.6,16769],[28.6,16864],[27.1,16964],[26,17056],[24.5,17137],[22.6,17240],[21.9,17331],[21.8,17430],[21.7,17531],[21.7,17615],[21.7,17705],[21.7,17788],[21.7,17885],[21.7,17970],[21.7,18052],[21.7,18142],[21.7,18233],[21.7,18331],[21.7,18413],[21.7,18503],[21.7,18597],[21.7,18699],[21.7,18781],[21,18874],[18.3,18977],[18.2,19069],[18.2,19164],[18.2,19257],[18.2,19355],[18.2,19448],[18.2,19547],[18.2,19636],[18.3,19719],[19,19816],[19.8,19913],[20.7,20012],[21,20108],[21.1,20192],[21.1,20281],[21.1,20366],[21.1,20465],[21.1,20545],[21.1,20635],[21.1,20726],[21.1,20816],[21.1,20901],[21.1,20990]]",842.4277,845.4484,21.66666667,1.8765,"[{""rating"":21.666666666666668,""responseTime"":1.8764999999999645}]",space,2.4987,,845.4485,Not at all,0,845.4495,,,[],,0,7,7,7,1,audio/Narrative7Situation7.wav,audio/Narrative8Situation7.wav,audio/Narrative5Situation7.wav,audio/Narrative6Situation7.wav,5,3,4,5,,,,,,,,,,,,,,,,,,,,,,,,,,,,,,,,,,,,,,,
,,,,,6712fe1173dfa2bfa2d6294b,2025-07-07_22h41.03.894,group3.4_multiperson,2023.2.2,Win32,142.8571429,686c2ebf0248f13bef9af11f,686c83bd4acfe17d1d434055,,,,,,,,,,,,,,,,,,,,,,,,,,,,,845.4496,2,audio/Narrative5Situation8.wav,848.4502,,848.4502,857.2611,"[[21.6,1116],[21.4,1201],[19.7,1298],[19,1390],[19,1470],[19,1557],[19,1659],[19,1757],[19,1845],[19,1937],[19,2039],[19,2137],[19,2227],[19,2326],[19,2414],[19,2498],[19,2589],[19,2678],[19,2770],[19,2859],[19,2942],[19,3027],[19,3130],[19,3213],[19,3305],[19,3394],[19,3482],[19,3581],[19,3678],[19,3770],[19,3859],[19,3942],[19,4027],[19,4113],[19,4199],[19,4298],[19,4397],[19,4484],[19,4569],[19,4658],[19,4748],[19,4831],[19,4935],[19,5024],[19,5114],[19,5201],[19,5283],[19,5366],[19,5459],[19,5546],[19,5631],[19,5713],[19,5805],[19,5894],[19,5977],[19,6067],[19,6156],[19,6248],[19,6338],[19,6428],[19,6519],[19,6609],[19,6692],[19,6787],[19,6866],[19,6958],[19,7046],[19,7130],[19,7213],[19,7298],[19,7395],[19,7481],[19,7567],[19,7657],[19,7748],[19,7838],[19,7928],[19,8022],[19,8116],[19,8208],[19,8310],[19,8402],[19,8491],[19,8581],[19,8664],[19,8769]]",857.2612,859.6456,18.95833333,0.8368,"[{""rating"":18.958333333333332,""responseTime"":0.8368000000000393}]",space,1.8656,,859.6456,Definitely yes,100,859.6467,,,[],,0,8,8,8,1,audio/Narrative7Situation8.wav,audio/Narrative8Situation8.wav,audio/Narrative5Situation8.wav,audio/Narrative6Situation8.wav,2,3,3,5,,,,,,,,,,,,,,,,,,,,,,,,,,,,,,,,,,,,,,,
,,,,,6712fe1173dfa2bfa2d6294b,2025-07-07_22h41.03.894,group3.4_multiperson,2023.2.2,Win32,142.8571429,686c2ebf0248f13bef9af11f,686c83bd4acfe17d1d434055,,,,,,,,,,,,,,,,,,,,,,,,,,,,,859.6468,2,audio/Narrative5Situation9.wav,862.6558,,862.6558,902.1939,"[[18.2,648],[17.4,744],[17.4,850],[17.4,945],[17.4,1042],[17.4,1141],[17.4,1237],[17.1,1333],[17.5,1424],[17.5,1508],[17.5,1600],[17.5,1692],[20.5,1787],[31.4,1889],[43.2,1992],[87,2549],[90.7,2648],[92.6,2745],[96.3,2841],[97.5,2940],[98.2,3028],[98.6,3123],[98.6,3216],[98.6,3300],[98.6,3383],[99,3475],[99.3,3572],[99.5,3659],[99.5,3758],[99.5,3841],[99.5,3933],[99.5,4014],[99.5,4107],[99.5,4202],[99.5,4294],[99.5,4377],[99.5,4475],[99.5,4556],[99.5,4646],[99.5,4744],[99.5,4834],[99.5,4917],[99.5,5003],[99.5,5084],[99.5,5176],[99.5,5264],[99.5,5348],[99.5,5433],[99.5,5535],[99.5,5619],[99.5,5703],[99.5,5790],[99.5,5877],[99.5,5968],[99.5,6049],[99.5,6134],[99.5,6223],[99.5,6308],[99.5,6401],[99.5,6480],[99.5,6577],[99.5,6662],[99.5,6751],[99.5,6837],[99.5,6934],[99.5,7022],[99.5,7119],[99.5,7209],[99.5,7292],[99.5,7384],[99.5,7480],[99.5,7570],[99.5,7660],[99.5,7744],[99.5,7835],[99.5,7917],[99.5,8008],[99.5,8093],[99.5,8174],[99.5,8258],[99.5,8341],[99.5,8424],[99.5,8508],[99.5,8592],[99.5,8675],[99.5,8758],[99.5,8841],[99.5,8924],[99.5,9008],[99.5,9091],[99.5,9174],[99.5,9258],[99.5,9341],[99.5,9424],[99.5,9508],[99.5,9591],[99.5,9675],[99.5,9758],[99.5,9841],[99.5,9925],[99.5,10008],[99.5,10101],[99.5,10181],[99.5,10272],[99.5,10362],[99.5,10452],[99.5,10543],[99.5,10633],[99.5,10716],[99.5,10813],[99.5,10910],[99.5,10995],[99.5,11100],[99.5,11183],[99.5,11278],[99.5,11368],[99.5,11452],[99.5,11535],[99.5,11633],[99.5,11716],[99.5,11806],[99.5,11889],[99.5,11980],[99.5,12066],[99.5,12147],[99.5,12239],[99.5,12320],[99.5,12403],[99.5,12487],[99.5,12572],[99.5,12660],[99.5,12751],[99.5,12837],[99.5,12924],[99.5,13008],[99.5,13101],[99.5,13199],[99.5,13280],[99.5,13377],[99.5,13468],[99.5,13556],[99.5,13647],[99.5,13745],[99.5,13827],[99.5,13910],[99.5,14001],[99.5,14091],[99.5,14195],[99.5,14278],[99.5,14376],[99.5,14459],[99.5,14542],[99.5,14626],[99.5,14709],[99.5,14801],[99.5,14890],[99.5,14987],[99.5,15070],[99.5,15167],[99.5,15251],[99.5,15341],[99.5,15433],[99.5,15515],[99.5,15600],[99.5,15683],[99.5,15767],[99.5,15865],[99.5,15947],[99.5,16036],[99.5,16119],[99.5,16209],[99.5,16300],[99.5,16401],[99.5,16487],[99.5,16570],[99.5,16653],[99.5,16745],[99.5,16835],[99.5,16924],[99.5,17015],[99.5,17105],[99.5,17192],[99.5,17278],[99.5,17367],[99.5,17447],[99.5,17536],[99.5,17635],[99.5,17723],[99.5,17820],[99.5,17912],[99.5,18002],[99.5,18084],[99.5,18174],[99.5,18258],[99.5,18348],[99.5,18438],[99.5,18528],[99.5,18623],[99.5,18711],[99.5,18792],[99.5,18883],[99.5,18968],[99.5,19049],[99.5,19147],[99.5,19239],[99.5,19320],[99.5,19417],[99.5,19509],[99.5,19602],[99.5,19683],[99.5,19773],[99.5,19876],[99.5,19959],[99.5,20042],[99.5,20130],[99.5,20216],[99.5,20306],[99.5,20399],[99.5,20480],[99.5,20572],[99.5,20659],[99.5,20758],[99.5,20848],[99.5,20933],[99.5,21025],[99.5,21105],[99.5,21200],[99.5,21278],[99.5,21370],[99.5,21452],[99.5,21543],[99.5,21626],[99.5,21709],[99.5,21801],[99.5,21904],[99.5,21994],[99.5,22078],[99.5,22174],[99.5,22272],[99.5,22368],[99.5,22452],[99.5,22542],[99.5,22626],[99.5,22716],[99.5,22813],[99.5,22910],[99.5,22994],[99.5,23077],[99.5,23168],[99.5,23258],[99.5,23348],[99.5,23438],[99.5,23533],[99.5,23622],[99.5,23709],[99.5,23808],[99.5,23899],[99.5,23991],[99.5,24084],[99.5,24175],[99.5,24258],[99.5,24341],[99.5,24431],[99.5,24515],[99.5,24606],[99.5,24699],[99.5,24779],[99.5,24870],[99.5,24968],[99.5,25056],[99.5,25161],[99.5,25255],[99.5,25341],[99.5,25431],[99.5,25522],[99.5,25606],[99.5,25698],[99.5,25800],[99.5,25890],[99.5,25980],[99.5,26072],[99.5,26168],[99.5,26266],[99.5,26365],[99.5,26466],[99.5,26551],[99.5,26640],[99.5,26738],[99.5,26820],[99.5,26924],[99.5,27009],[99.5,27112],[99.5,27198],[99.5,27285],[99.5,27369],[99.5,27457],[99.5,27549],[99.5,27640],[99.5,27739],[99.5,27820],[99.5,27917],[99.5,28001],[99.5,28099],[99.5,28188],[99.5,28273],[99.5,28355],[99.5,28438],[99.5,28522],[99.5,28605],[99.5,28699],[99.5,28778],[99.5,28866],[99.5,28947],[99.5,29035],[99.5,29126],[99.5,29223],[99.5,29313],[99.5,29403],[99.5,29494],[99.5,29591],[99.5,29681],[99.5,29780],[99.5,29871],[99.5,29959],[99.5,30056],[99.5,30154],[99.5,30251],[99.5,30334],[99.5,30418],[99.5,30515],[99.5,30612],[99.5,30702],[99.5,30793],[99.5,30899],[99.5,30980],[99.5,31072],[99.5,31168],[99.5,31266],[99.5,31355],[99.5,31452],[99.5,31544],[99.5,31642],[99.5,31732],[99.5,31821],[99.5,31918],[99.5,32009],[99.5,32108],[99.5,32198],[99.5,32279],[99.5,32365],[99.5,32459],[99.5,32549],[99.5,32640],[99.5,32731],[99.5,32824],[99.5,32932],[99.5,33022],[99.5,33124],[99.5,33216],[99.5,33315],[99.5,33411],[99.5,33508],[99.5,33591],[99.5,33674],[99.5,33767],[99.5,33855],[99.5,33940],[99.5,34035],[99.5,34133],[99.5,34223],[99.5,34306],[99.5,34403],[99.6,34498],[99.6,34591],[99.7,34674],[99.7,34766],[99.7,34848],[99.7,34952],[99.7,35043],[100,35135],[100,35233],[100,35335],[100,35424],[100,35509],[100,35612],[100,35704],[100,35791],[100,35883],[100,35973],[100,36067],[100,36165],[100,36258],[100,36348],[100,36445],[100,36537],[100,36634],[100,36732],[100,36820],[100,36918],[100,37001],[100,37099],[100,37182],[100,37279],[100,37378],[100,37468],[100,37572],[100,37654],[100,37744],[100,37836],[100,37924],[100,38015],[100,38112],[100,38204],[100,38293],[100,38376],[100,38466],[100,38549],[100,38634],[100,38716],[100,38800],[100,38890],[100,38994],[100,39084],[100,39168],[100,39267],[99.2,39366],[98.9,39457]]",902.1939,904.6244,99.375,1.4479,"[{""rating"":99.375,""responseTime"":1.4479000000001179}]",space,1.9135,,904.6245,Partially,50,904.6256,,,[],,0,9,9,9,1,audio/Narrative7Situation9.wav,audio/Narrative8Situation9.wav,audio/Narrative5Situation9.wav,audio/Narrative6Situation9.wav,2,3,3,4,,,,,,,,,,,,,,,,,,,,,,,,,,,,,,,,,,,,,,,
,,,,,6712fe1173dfa2bfa2d6294b,2025-07-07_22h41.03.894,group3.4_multiperson,2023.2.2,Win32,142.8571429,686c2ebf0248f13bef9af11f,686c83bd4acfe17d1d434055,,,,,,,,,,,,,,,,,,,,,,,,,,,,,904.6257,2,audio/Narrative6Situation1.wav,906.6295,,906.6295,933.2008,"[[72.3,437],[70.4,536],[69.7,635],[69.2,729],[69.2,812],[69.2,898],[69.2,991],[69.2,1076],[69.2,1162],[67.9,1258],[59.7,1347],[50.3,1444],[48.3,1534],[48.3,1618],[48.3,1702],[48.8,1798],[49.2,1902],[49.4,2006],[49.4,2105],[49.4,2193],[49.4,2292],[49.4,2375],[49.4,2465],[49.4,2548],[49.4,2645],[49.4,2743],[49.4,2834],[49.6,2930],[49.6,3013],[49.6,3098],[49.6,3191],[49.6,3283],[49.6,3367],[49.6,3458],[49.6,3541],[49.6,3638],[49.6,3729],[49.6,3819],[49.6,3902],[49.6,4000],[49.6,4091],[49.6,4190],[49.6,4277],[49.6,4369],[49.6,4459],[49.6,4548],[49.6,4645],[49.6,4736],[49.6,4826],[49.6,4909],[49.6,5001],[49.6,5092],[49.6,5174],[49.6,5277],[49.6,5362],[49.6,5444],[49.6,5534],[49.6,5632],[49.6,5725],[50.1,5812],[50.5,5902],[50.7,5993],[51,6092],[51.1,6180],[51.1,6277],[51.1,6369],[51.1,6459],[51.1,6548],[51.1,6631],[51.1,6715],[50.3,6812],[48,6895],[45.5,6993],[44.3,7091],[44.1,7175],[44,7265],[44,7369],[43.8,7460],[42.5,7558],[39.9,7661],[39.5,7750],[39.3,7840],[39.3,7925],[39.3,8013],[39.3,8111],[38.9,8196],[37.5,8295],[35.4,8393],[33.1,8495],[30.7,8593],[28.3,8693],[26,8794],[24.3,8892],[22.2,8992],[20.8,9093],[19.9,9180],[18.1,9283],[14.4,9392],[13.3,9486],[13.3,9580],[13.3,9668],[13.3,9758],[13.3,9841],[13.3,9930],[13.3,10013],[13.3,10098],[13.3,10180],[13.3,10265],[13.3,10357],[13.3,10458],[13.3,10534],[13.3,10627],[13.3,10729],[13.3,10825],[13.3,10930],[13.3,11020],[13.3,11104],[13.3,11190],[13.3,11280],[13.3,11369],[13.3,11456],[13.3,11543],[13.3,11632],[13.3,11725],[13.3,11816],[13.3,11911],[13.3,12000],[12.2,12099],[10.7,12192],[9.6,12294],[8.5,12391],[8.2,12472],[7.5,12564],[6.6,12667],[6.4,12765],[6.4,12847],[6.4,12939],[6.4,13034],[6.4,13125],[6.4,13215],[6.4,13307],[6.4,13409],[6.4,13500],[6.4,13597],[6.4,13695],[6.4,13784],[6.4,13869],[6.4,13960],[6.4,14048],[6.4,14138],[6.4,14229],[6.4,14319],[6.4,14414],[6.4,14501],[6.4,14604],[6.4,14701],[6.4,14784],[6.4,14869],[6.4,14959],[6.4,15048],[6.4,15132],[6.4,15230],[6.4,15327],[6.4,15426],[6.4,15514],[6.4,15604],[6.4,15692],[6.4,15777],[6.4,15861],[6.4,15951],[6.4,16041],[6.4,16126],[6.4,16224],[6.4,16307],[6.4,16391],[6.4,16472],[6.4,16557],[6.4,16659],[6.4,16750],[6.4,16833],[6.4,16932],[6.4,17027],[6.4,17118],[6.4,17208],[6.4,17293],[6.4,17382],[6.4,17465],[6.4,17557],[6.4,17656],[6.4,17750],[6.4,17847],[6.4,17944],[6.4,18035],[6.4,18125],[6.4,18210],[5.1,18300],[1.4,24660],[8.8,24750],[21,24842],[35,24939],[48.6,25036],[62.8,25141],[72.7,25238],[78.8,25335],[82.7,25439],[84.1,25536],[84.1,25626],[84.1,25710],[84.1,25798],[84.1,25902],[84.1,25995],[84.1,26076],[84.1,26168],[84.1,26258],[84.1,26340],[84.1,26431],[84.1,26524]]",933.2009,937.5065,99.27083333,1.7638,"[{""rating"":99.27083333333333,""responseTime"":1.7638000000000602}]",space,3.7859,,937.5065,Partially,50,937.5073,,,[],,0,10,10,10,1,audio/Narrative8Situation1.wav,audio/Narrative7Situation1.wav,audio/Narrative6Situation1.wav,audio/Narrative5Situation1.wav,5,2,2,5,,,,,,,,,,,,,,,,,,,,,,,,,,,,,,,,,,,,,,,
,,,,,6712fe1173dfa2bfa2d6294b,2025-07-07_22h41.03.894,group3.4_multiperson,2023.2.2,Win32,142.8571429,686c2ebf0248f13bef9af11f,686c83bd4acfe17d1d434055,,,,,,,,,,,,,,,,,,,,,,,,,,,,,937.5075,2,audio/Narrative6Situation2.wav,940.5119,,940.5119,969.0052,"[[97.3,446],[96.1,548],[96.1,631],[97.7,724],[97.9,814],[99.2,902],[100,992],[100,1097],[100,1182],[100,1274],[100,1360],[100,1452],[100,1557],[100,1647],[100,1749],[100,1842],[100,1930],[100,2027],[100,2128],[100,2222],[100,2307],[100,2390],[100,2479],[100,2562],[100,2645],[100,2741],[100,2821],[100,2916],[100,2999],[100,3091],[100,3194],[100,3284],[100,3375],[100,3458],[100,3541],[100,3625],[100,3709],[100,3791],[100,3881],[100,3965],[100,4055],[100,4145],[100,4233],[100,4337],[100,4416],[100,4522],[100,4608],[100,4687],[100,4777],[100,4868],[100,4959],[100,5062],[100,5145],[100,5236],[100,5333],[100,5430],[100,5527],[100,5619],[100,5701],[100,5784],[100,5876],[100,5958],[100,6055],[100,6147],[100,6243],[100,6347],[100,6430],[100,6527],[100,6611],[100,6697],[100,6784],[100,6874],[100,6958],[100,7048],[100,7131],[100,7215],[100,7302],[100,7388],[100,7486],[100,7569],[100,7666],[100,7756],[100,7848],[100,7930],[100,8020],[100,8112],[100,8206],[100,8291],[100,8383],[100,8479],[100,8569],[100,8659],[100,8750],[100,8843],[100,8923],[100,9020],[100,9112],[100,9194],[100,9286],[100,9368],[100,9452],[100,9534],[100,9625],[100,9715],[100,9798],[100,9888],[100,9980],[100,10078],[100,10159],[100,10249],[100,10341],[100,10430],[100,10527],[100,10611],[100,10694],[100,10779],[100,10876],[100,10965],[100,11055],[100,11147],[100,11241],[100,11326],[100,11425],[100,11509],[100,11597],[100,11687],[100,11774],[100,11854],[100,11944],[100,12043],[100,12139],[100,12223],[100,12307],[100,12399],[100,12479],[100,12576],[100,12666],[100,12758],[100,12848],[100,12939],[100,13020],[100,13111],[100,13201],[100,13291],[100,13381],[100,13473],[100,13562],[100,13647],[100,13740],[100,13819],[100,13902],[100,13997],[100,14085],[100,14182],[100,14263],[100,14354],[100,14440],[100,14544],[100,14652],[100,14750],[100,14855],[100,14958],[100,15062],[100,15154],[100,15257],[100,15361],[100,15464],[100,15555],[100,15640],[100,15729],[100,15826],[100,15909],[100,15993],[100,16076],[100,16166],[100,16275],[100,16376],[100,16472],[100,16548],[100,16645],[100,16736],[100,16831],[100,16912],[100,16993],[100,17076],[100,17166],[100,17258],[100,17354],[100,17439],[100,17527],[100,17618],[100,17701],[100,17796],[100,17889],[100,17979],[100,18062],[100,18145],[100,18239],[100,18342],[100,18423],[100,18515],[100,18619],[100,18716],[100,18807],[100,18889],[100,18986],[100,19076],[100,19166],[100,19258],[100,19341],[100,19425],[100,19527],[100,19612],[100,19701],[100,19784],[100,19875],[100,19965],[100,20048],[100,20152],[100,20239],[100,20331],[100,20423],[100,20522],[100,20612],[100,20694],[100,20791],[100,20883],[100,20974],[100,21055],[100,21141],[100,21229],[100,21340],[100,21440],[100,21534],[100,21638],[100,21738],[100,21819],[100,21916],[100,22014],[100,22097],[100,22182],[100,22273],[100,22368],[100,22465],[100,22555],[100,22647],[100,22739],[100,22821],[100,22906],[100,22993],[100,23076],[100,23173],[100,23257],[100,23347],[100,23444],[100,23534],[100,23618],[100,23708],[100,23791],[100,23875],[100,23974],[100,24073],[100,24152],[100,24244],[100,24341],[100,24439],[100,24522],[100,24606],[100,24694],[100,24786],[100,24883],[100,24965],[100,25055],[100,25140],[100,25229],[100,25326],[100,25411],[100,25500],[100,25583],[100,25674],[100,25757],[100,25841],[100,25923],[100,26015],[100,26106],[100,26194],[100,26278],[100,26368],[100,26458],[100,26542],[100,26625],[100,26709],[100,26798],[100,26883],[100,26973],[100,27055],[100,27152],[100,27250],[100,27333],[100,27416],[100,27508],[100,27597],[100,27680],[100,27772],[100,27861],[100,27946],[100,28028],[100,28112],[100,28215],[100,28314],[100,28406],[100,28493]]",969.0053,973.6257,100,3.6586,"[{""rating"":100,""responseTime"":3.6586000000000922}]",space,4.1051,,973.6258,Not at all,0,973.6268,,,[],,0,11,11,11,1,audio/Narrative8Situation2.wav,audio/Narrative7Situation2.wav,audio/Narrative6Situation2.wav,audio/Narrative5Situation2.wav,3,3,3,3,,,,,,,,,,,,,,,,,,,,,,,,,,,,,,,,,,,,,,,
,,,,,6712fe1173dfa2bfa2d6294b,2025-07-07_22h41.03.894,group3.4_multiperson,2023.2.2,Win32,142.8571429,686c2ebf0248f13bef9af11f,686c83bd4acfe17d1d434055,,,,,,,,,,,,,,,,,,,,,,,,,,,,,973.627,2,audio/Narrative6Situation3.wav,978.6311,,978.6311,991.2276,"[[100,610],[98.4,712],[98.4,798],[98.4,889],[98.4,971],[99.9,1063],[100,1153],[100,1236],[100,1325],[100,1408],[100,1492],[100,1575],[100,1662],[100,1755],[100,1839],[100,1924],[100,2013],[100,2096],[100,2195],[100,2286],[100,2374],[100,2465],[100,2557],[100,2653],[100,2735],[100,2820],[100,2920],[100,3011],[100,3103],[100,3194],[100,3276],[100,3367],[100,3453],[100,3540],[100,3631],[100,3722],[100,3811],[100,3901],[100,3987],[100,4084],[100,4179],[100,4271],[100,4362],[100,4453],[100,4540],[100,4625],[100,4707],[100,4799],[100,4889],[100,4971],[100,5070],[100,5153],[100,5242],[100,5332],[100,5424],[100,5520],[100,5603],[100,5701],[100,5790],[100,5878],[100,5973],[100,6068],[100,6155],[100,6242],[100,6332],[100,6423],[100,6510],[100,6610],[100,6695],[100,6792],[100,6886],[100,6971],[100,7061],[100,7158],[100,7264],[100,7355],[100,7436],[100,7528],[100,7610],[100,7693],[100,7776],[100,7867],[100,7953],[100,8040],[100,8131],[100,8228],[100,8318],[100,8403],[100,8513],[100,8598],[100,8689],[100,8776],[100,8878],[100,8978],[100,9068],[100,9154],[100,9242],[100,9325],[100,9424],[100,9526],[100,9610],[100,9700],[100,9787],[100,9895],[100,9992],[100,10088],[100,10172],[100,10263],[100,10346],[100,10429],[100,10520],[100,10603],[100,10702],[100,10804],[100,10890],[96,11002],[82.3,11098],[71.9,11202],[64.8,11306],[60.9,11419],[54.7,11500],[35,11598],[35.4,11688],[35.4,11787],[35.4,11867],[35.4,11958],[35.4,12040],[35.4,12131],[35.4,12214],[31.6,12319],[25.4,12402],[20.6,12499],[19.9,12589]]",991.2276,994.3597,24.375,1.6991,"[{""rating"":24.375000000000004,""responseTime"":1.6990999999998166}]",space,2.6175,,994.3597,Definitely yes,100,994.3607,,,[],,0,12,12,12,1,audio/Narrative8Situation3.wav,audio/Narrative7Situation3.wav,audio/Narrative6Situation3.wav,audio/Narrative5Situation3.wav,4,8,5,3,,,,,,,,,,,,,,,,,,,,,,,,,,,,,,,,,,,,,,,
,,,,,6712fe1173dfa2bfa2d6294b,2025-07-07_22h41.03.894,group3.4_multiperson,2023.2.2,Win32,142.8571429,686c2ebf0248f13bef9af11f,686c83bd4acfe17d1d434055,,,,,,,,,,,,,,,,,,,,,,,,,,,,,994.3608,2,audio/Narrative6Situation4.wav,996.3665,,996.3666,1008.9586,"[[39,390],[32.9,493],[30.4,592],[29.2,684],[25.4,786],[23.8,874],[23.8,958],[23.8,1050],[23.8,1133],[23.8,1236],[23.8,1327],[23.8,1423],[23.8,1523],[23.8,1619],[23.8,1708],[23.8,1809],[23.8,1902],[23.8,1987],[23.8,2076],[23.8,2185],[23.8,2270],[23.8,2354],[23.8,2437],[23.8,2529],[23.8,2619],[23.8,2716],[23.8,2798],[23.8,2884],[23.8,2972],[23.8,3069],[25.3,3159],[27.4,3258],[28.3,3350],[31.9,3453],[42.7,3549],[58.2,3654],[74.3,3760],[86.6,3850],[94.7,3942],[99.2,4029],[100,4125],[100,4208],[100,4291],[100,4395],[100,4486],[100,4584],[100,4673],[100,4765],[100,4861],[100,4954],[100,5049],[100,5150],[100,5252],[100,5340],[100,5437],[100,5527],[100,5616],[100,5703],[100,5809],[100,5895],[100,6000],[100,6084],[100,6183],[100,6275],[100,6367],[100,6458],[100,6541],[100,6643],[100,6729],[100,6819],[100,6918],[100,7000],[100,7090],[100,7173],[100,7263],[100,7349],[100,7437],[100,7529],[100,7624],[100,7717],[100,7805],[100,7895],[100,7984],[100,8064],[100,8153],[100,8240],[100,8333],[100,8418],[100,8500],[100,8597],[100,8694],[100,8798],[100,8897],[100,8985],[100,9064],[100,9159],[100,9251],[100,9361],[100,9451],[100,9536],[100,9625],[100,9708],[100,9805],[100,9902],[100,9986],[100,10090],[100,10173],[100,10270],[100,10362],[100,10451],[100,10549],[100,10631],[100,10729],[100,10817],[100,10907],[100,11000],[100,11090],[100,11183],[100,11264],[100,11369],[100,11458],[100,11562],[100,11653],[100,11736],[100,11833],[100,11923],[100,12016],[100,12116],[100,12202],[100,12291],[100,12397],[100,12484],[100,12569]]",1008.9586,1010.7391,100,1.3495,"[{""rating"":100,""responseTime"":1.3495000000000346}]",space,1.2604,,1010.7391,Not at all,0,1010.7403,,,[],,0,13,13,13,1,audio/Narrative8Situation4.wav,audio/Narrative7Situation4.wav,audio/Narrative6Situation4.wav,audio/Narrative5Situation4.wav,3,3,2,1,,,,,,,,,,,,,,,,,,,,,,,,,,,,,,,,,,,,,,,
,,,,,6712fe1173dfa2bfa2d6294b,2025-07-07_22h41.03.894,group3.4_multiperson,2023.2.2,Win32,142.8571429,686c2ebf0248f13bef9af11f,686c83bd4acfe17d1d434055,,,,,,,,,,,,,,,,,,,,,,,,,,,,,1010.7403,2,audio/Narrative6Situation5.wav,1012.7457,,1012.7458,1020.6879,"[[99.8,895],[98.6,1004],[95.9,1093],[96.1,1178],[99.2,1282],[99.8,1384],[99.8,1481],[99.8,1565],[99.8,1655],[99.8,1747],[99.8,1836],[99.8,1919],[99.8,2016],[99.7,2120],[99.6,2212],[99.5,2305],[99.5,2391],[99.5,2483],[99.5,2573],[99.5,2660],[99.5,2752],[99.5,2845],[99.5,2937],[99.5,3023],[99.5,3114],[99.5,3212],[99.5,3310],[99.5,3398],[99.5,3485],[99.5,3579],[99.5,3677],[99.5,3770],[99.5,3873],[99.5,3961],[99.5,4058],[99.5,4144],[99.5,4245],[99.5,4329],[99.5,4419],[99.5,4523],[99.5,4615],[99.5,4706],[99.5,4808],[99.5,4898],[99.5,5003],[99.5,5086],[99.5,5171],[99.5,5259],[99.5,5343],[99.5,5426],[99.5,5517],[99.5,5608],[99.5,5712],[99.5,5804],[99.5,5891],[99.5,5988],[99.5,6080],[99.5,6176],[99.5,6270],[99.5,6364],[99.5,6448],[99.5,6530],[99.5,6614],[99.5,6706],[99.5,6789],[99.5,6884],[99.5,6975],[99.5,7071],[99.5,7170],[99.5,7253],[99.5,7337],[99.5,7421],[99.5,7518],[99.5,7603],[99.5,7690],[99.5,7780],[99.5,7870]]",1020.6879,1022.8336,100,1.7781,"[{""rating"":100,""responseTime"":1.778099999999995}]",space,1.6093,,1022.8336,Not at all,0,1022.8344,,,[],,0,14,14,14,1,audio/Narrative8Situation5.wav,audio/Narrative7Situation5.wav,audio/Narrative6Situation5.wav,audio/Narrative5Situation5.wav,2,5,2,5,,,,,,,,,,,,,,,,,,,,,,,,,,,,,,,,,,,,,,,
,,,,,6712fe1173dfa2bfa2d6294b,2025-07-07_22h41.03.894,group3.4_multiperson,2023.2.2,Win32,142.8571429,686c2ebf0248f13bef9af11f,686c83bd4acfe17d1d434055,,,,,,,,,,,,,,,,,,,,,,,,,,,,,1022.8346,2,audio/Narrative6Situation6.wav,1024.8391,,1024.8391,1035.916,"[[100,310],[95.1,411],[97.3,515],[99.1,611],[99.1,694],[99.1,784],[99.1,882],[99.1,976],[99.8,1076],[99.8,1161],[99.8,1257],[99.8,1355],[99.8,1445],[99.8,1534],[99.8,1638],[99.8,1722],[99.8,1810],[99.8,1911],[99.8,2000],[99.8,2097],[99.8,2187],[99.8,2279],[99.8,2362],[99.8,2452],[99.8,2556],[99.8,2647],[99.8,2736],[99.8,2849],[99.8,2937],[99.8,3034],[99.8,3124],[99.8,3211],[99.8,3298],[99.8,3388],[99.8,3479],[99.8,3562],[99.8,3659],[99.8,3751],[99.8,3847],[99.8,3944],[99.8,4029],[99.8,4117],[99.8,4210],[99.8,4294],[99.8,4376],[99.8,4465],[99.8,4555],[99.8,4652],[99.8,4745],[99.8,4843],[99.8,4923],[99.8,5013],[99.8,5110],[99.8,5194],[99.8,5293],[99.8,5390],[99.8,5479],[99.8,5576],[99.8,5659],[99.8,5751],[99.8,5833],[99.8,5923],[99.8,6022],[99.8,6111],[99.8,6210],[99.8,6291],[99.8,6377],[99.8,6459],[99.8,6555],[99.8,6638],[99.8,6733],[99.8,6826],[99.8,6916],[99.8,7013],[99.8,7108],[99.8,7194],[99.8,7286],[99.8,7376],[99.8,7480],[99.8,7577],[99.8,7671],[99.8,7764],[99.8,7855],[99.8,7951],[99.8,8055],[99.8,8147],[99.8,8236],[99.8,8326],[99.8,8411],[99.8,8500],[99.8,8604],[99.8,8694],[99.8,8786],[99.8,8876],[99.8,8965],[99.8,9062],[99.8,9166],[99.8,9258],[99.8,9347],[99.8,9451],[99.8,9544],[99.8,9632],[99.8,9729],[99.8,9820],[99.8,9930],[99.8,10027],[99.8,10132],[99.8,10222],[99.8,10312],[99.8,10401],[99.8,10493],[99.8,10590],[99.8,10681],[99.8,10777],[99.8,10868],[99.8,10958],[99.8,11055]]",1035.916,1037.7018,100,1.2001,"[{""rating"":99.0625,""responseTime"":0.8826999999998861},{""rating"":100,""responseTime"":1.200099999999793}]",space,1.2755,,1037.7018,Partially,50,1037.7031,,,[],,0,15,15,15,1,audio/Narrative8Situation6.wav,audio/Narrative7Situation6.wav,audio/Narrative6Situation6.wav,audio/Narrative5Situation6.wav,2,3,2,3,,,,,,,,,,,,,,,,,,,,,,,,,,,,,,,,,,,,,,,
,,,,,6712fe1173dfa2bfa2d6294b,2025-07-07_22h41.03.894,group3.4_multiperson,2023.2.2,Win32,142.8571429,686c2ebf0248f13bef9af11f,686c83bd4acfe17d1d434055,,,,,,,,,,,,,,,,,,,,,,,,,,,,,1037.7032,2,audio/Narrative6Situation7.wav,1042.7156,,1042.7156,1067.5508,"[[99.3,451],[97.4,548],[97.2,644],[97.6,736],[99.2,838],[99.3,922],[99.3,1005],[99.3,1088],[99.3,1179],[99.3,1269],[99.3,1367],[99.3,1450],[99.3,1548],[99.3,1639],[99.3,1743],[99.3,1841],[99.3,1922],[99.3,2007],[99.3,2100],[99.3,2200],[99.3,2284],[99.3,2369],[99.3,2467],[99.3,2547],[99.3,2646],[99.3,2736],[99.3,2819],[94.9,2915],[84.8,3007],[71.4,3099],[57,3191],[42.8,3299],[32.2,3392],[19.5,3489],[9.6,3583],[0.7,4144],[3.9,4235],[4.7,4325],[4.7,4409],[4.7,4500],[4.7,4581],[4.7,4679],[4.7,4770],[4.7,4859],[4.7,4943],[4.7,5033],[4.7,5109],[4.7,5200],[4.7,5290],[4.7,5373],[4.7,5457],[4.7,5554],[4.7,5651],[4.7,5735],[4.7,5818],[4.7,5902],[4.7,5998],[4.7,6081],[4.7,6179],[4.6,6271],[3.9,6368],[2.7,6456],[2.3,6547],[2.3,6630],[2.3,6713],[2.3,6805],[2.3,6894],[4.4,6989],[22.7,7089],[59.3,7192],[85.2,7278],[99.9,7382],[100,7472],[100,7568],[100,7651],[100,7734],[100,7825],[100,7909],[100,7991],[100,8076],[100,8158],[100,8241],[100,8334],[100,8415],[100,8505],[100,8588],[100,8679],[100,8771],[100,8859],[100,8943],[100,9033],[100,9118],[100,9201],[100,9290],[100,9380],[100,9479],[100,9561],[100,9656],[100,9755],[100,9852],[100,9936],[100,10040],[100,10123],[100,10213],[100,10298],[100,10387],[100,10470],[100,10565],[100,10656],[100,10742],[100,10841],[100,10936],[100,11033],[100,11116],[100,11214],[100,11305],[100,11387],[100,11479],[100,11561],[100,11644],[100,11736],[100,11825],[100,11915],[100,12013],[100,12100],[100,12190],[100,12283],[100,12367],[100,12457],[100,12540],[100,12633],[100,12714],[100,12799],[100,12891],[100,12977],[100,13068],[100,13151],[100,13241],[100,13340],[100,13422],[100,13505],[100,13588],[100,13674],[100,13755],[100,13847],[100,13936],[100,14019],[100,14103],[100,14200],[100,14283],[100,14373],[100,14457],[100,14547],[100,14638],[100,14727],[100,14818],[100,14909],[100,15012],[100,15109],[100,15206],[100,15301],[100,15398],[100,15477],[100,15568],[100,15656],[100,15750],[100,15840],[100,15932],[100,16026],[100,16116],[100,16207],[100,16306],[100,16398],[100,16484],[100,16569],[100,16667],[100,16750],[100,16839],[100,16931],[100,17024],[100,17118],[100,17207],[100,17304],[100,17398],[100,17478],[100,17564],[100,17657],[100,17764],[100,17859],[100,17943],[100,18034],[100,18116],[100,18200],[100,18304],[100,18398],[100,18499],[100,18582],[100,18672],[100,18769],[100,18868],[100,18957],[100,19049],[100,19137],[100,19231],[100,19331],[100,19430],[100,19512],[100,19604],[100,19699],[100,19788],[100,19875],[100,19978],[100,20075],[100,20172],[100,20255],[100,20347],[100,20444],[100,20542],[100,20651],[100,20741],[100,20825],[100,20909],[100,21012],[100,21102],[100,21193],[100,21276],[100,21368],[100,21467],[100,21554],[100,21644],[100,21736],[100,21835],[100,21915],[100,22007],[100,22100],[100,22186],[100,22276],[100,22375],[100,22468],[100,22554],[100,22637],[100,22731],[100,22839],[100,22922],[100,23012],[100,23103],[100,23190],[100,23287],[100,23382],[100,23464],[100,23547],[100,23639],[100,23736],[100,23825],[100,23915],[100,24012],[100,24111],[100,24198],[100,24306],[100,24397],[100,24491],[100,24582],[100,24672],[100,24755]]",1067.5509,1069.3831,100,1.4536,"[{""rating"":96.77083333333334,""responseTime"":1.1097999999999502},{""rating"":100,""responseTime"":1.4536000000000513}]",space,1.3177,,1069.3832,Definitely yes,100,1069.3842,,,[],,0,16,16,16,1,audio/Narrative8Situation7.wav,audio/Narrative7Situation7.wav,audio/Narrative6Situation7.wav,audio/Narrative5Situation7.wav,3,5,5,4,,,,,,,,,,,,,,,,,,,,,,,,,,,,,,,,,,,,,,,
