consent.started,consent.stopped,consentResponse.keys,consentResponse.rt,consentResponse.duration,participantID,date,expName,psychopyVersion,OS,frameRate,STUDY_ID,SESSION_ID,opening1.started,opening1.stopped,keyEndingOpening1.keys,keyEndingOpening1.rt,keyEndingOpening1.duration,volumeAdjust.started,volumeAdjust.stopped,endingAdjust.keys,endingAdjust.rt,endingAdjust.duration,opening2.started,opening2.stopped,keyEndingOpening.keys,keyEndingOpening.rt,keyEndingOpening.duration,mouse.x,mouse.y,mouse.leftButton,mouse.midButton,mouse.rightButton,mouse.time,instructionLoop.thisRepN,instructionLoop.thisTrialN,instructionLoop.thisN,instructionLoop.thisIndex,instructionLoop.ran,readyForAudio.started,readyForAudio.stopped,fixation.started,run,audio_played,fixation.stopped,endPractice.keys,audioPre.started,audioPre.stopped,continuousResponses_audio,intRating.started,intRating.stopped,intQuestionSlider.response,intQuestionSlider.rt,intQuestionSlider.history,confirmResponse.keys,confirmResponse.rt,confirmResponse.duration,catchQuestion.started,catch_label,catch_value,catchQuestion.stopped,catchQuestionSlider.response,catchQuestionSlider.rt,catchQuestionSlider.history,confirmResponse_2.keys,audioRunLoop.thisRepN,audioRunLoop.thisTrialN,audioRunLoop.thisN,audioRunLoop.thisIndex,audioRunLoop.ran,conditions1_1,conditions2_1,conditions1_2,conditions2_2,dur1_1,dur2_1,dur1_2,dur2_2,endPractice.rt,endPractice.duration,confirmResponse_2.rt,confirmResponse_2.duration,runIntervalBreak.started,runIntervalBreak.stopped,endingBreakKey.keys,endingBreakKey.rt,endingBreakKey.duration,connection.started,connection.stopped,connectionEnding.keys,connectionEnding.rt,connectionEnding.duration,readyForText.started,readyForText.stopped,textPre.started,run_dup,textPre.stopped,continuousResponses_text,textRunLoop.thisRepN,textRunLoop.thisTrialN,textRunLoop.thisN,textRunLoop.thisIndex,textRunLoop.ran,text1_1,text1_2,text2_1,text2_2,runBreakText.started,runBreakText.stopped,endingBreakKey_2.keys,endingBreakKey_2.rt,endingBreakKey_2.duration,ending.started,ending.stopped,endingEnding.keys,endingEnding.rt,endingEnding.duration
0.0002,60.9027,y,60.5684,,6714d7f42c208253099ac9d9,2025-07-07_22h00.51.254,group3.4_multiperson,2023.2.2,Win32,59.88023952,686c2ebf0248f13bef9af11f,686c7b90e99e7566aafa2ed4,,,,,,,,,,,,,,,,,,,,,,,,,,,,,,,,,,,,,,,,,,,,,,,,,,,,,,,,,,,,,,,,,,,,,,,,,,,,,,,,,,,,,,,,,,,,,,,,,,,,,,,,
,,,,,6714d7f42c208253099ac9d9,2025-07-07_22h00.51.254,group3.4_multiperson,2023.2.2,Win32,59.88023952,686c2ebf0248f13bef9af11f,686c7b90e99e7566aafa2ed4,60.9028,67.0192,space,6.0629,,,,,,,,,,,,,,,,,,,,,,,,,,,,,,,,,,,,,,,,,,,,,,,,,,,,,,,,,,,,,,,,,,,,,,,,,,,,,,,,,,,,,,,,,,,,,,,,,,,,
,,,,,6714d7f42c208253099ac9d9,2025-07-07_22h00.51.254,group3.4_multiperson,2023.2.2,Win32,59.88023952,686c2ebf0248f13bef9af11f,686c7b90e99e7566aafa2ed4,,,,,,67.0192,117.0012,space,49.6628,,,,,,,,,,,,,,,,,,,,,,,,,,,,,,,,,,,,,,,,,,,,,,,,,,,,,,,,,,,,,,,,,,,,,,,,,,,,,,,,,,,,,,,,,,,,,,,
,,,,,6714d7f42c208253099ac9d9,2025-07-07_22h00.51.254,group3.4_multiperson,2023.2.2,Win32,59.88023952,686c2ebf0248f13bef9af11f,686c7b90e99e7566aafa2ed4,,,,,,,,,,,117.0033,120.8176,space,3.7985,,[],[],[],[],[],[],0,0,0,0,1,,,,,,,,,,,,,,,,,,,,,,,,,,,,,,,,,,,,,,,,,,,,,,,,,,,,,,,,,,,,,,,,,,,,,,,,,,,,,,
,,,,,6714d7f42c208253099ac9d9,2025-07-07_22h00.51.254,group3.4_multiperson,2023.2.2,Win32,59.88023952,686c2ebf0248f13bef9af11f,686c7b90e99e7566aafa2ed4,,,,,,,,,,,120.8178,129.9171,space,9.0306,,"[-0.2140625,-0.20989580154418946]","[-0.782407463921441,-0.7768519083658855]","[1,1]","[0,0]","[0,0]","[5.0474000000059505,5.580500000000001]",1,0,1,0,1,,,,,,,,,,,,,,,,,,,,,,,,,,,,,,,,,,,,,,,,,,,,,,,,,,,,,,,,,,,,,,,,,,,,,,,,,,,,,,
,,,,,6714d7f42c208253099ac9d9,2025-07-07_22h00.51.254,group3.4_multiperson,2023.2.2,Win32,59.88023952,686c2ebf0248f13bef9af11f,686c7b90e99e7566aafa2ed4,,,,,,,,,,,129.9174,131.7074,space,1.7613,,[],[],[],[],[],[],2,0,2,0,1,,,,,,,,,,,,,,,,,,,,,,,,,,,,,,,,,,,,,,,,,,,,,,,,,,,,,,,,,,,,,,,,,,,,,,,,,,,,,,
,,,,,6714d7f42c208253099ac9d9,2025-07-07_22h00.51.254,group3.4_multiperson,2023.2.2,Win32,59.88023952,686c2ebf0248f13bef9af11f,686c7b90e99e7566aafa2ed4,,,,,,,,,,,131.7076,137.4911,space,5.7644,,[],[],[],[],[],[],3,0,3,0,1,,,,,,,,,,,,,,,,,,,,,,,,,,,,,,,,,,,,,,,,,,,,,,,,,,,,,,,,,,,,,,,,,,,,,,,,,,,,,,
,,,,,6714d7f42c208253099ac9d9,2025-07-07_22h00.51.254,group3.4_multiperson,2023.2.2,Win32,59.88023952,686c2ebf0248f13bef9af11f,686c7b90e99e7566aafa2ed4,,,,,,,,,,,137.4913,142.1336,space,4.613,,[],[],[],[],[],[],4,0,4,0,1,,,,,,,,,,,,,,,,,,,,,,,,,,,,,,,,,,,,,,,,,,,,,,,,,,,,,,,,,,,,,,,,,,,,,,,,,,,,,,
,,,,,6714d7f42c208253099ac9d9,2025-07-07_22h00.51.254,group3.4_multiperson,2023.2.2,Win32,59.88023952,686c2ebf0248f13bef9af11f,686c7b90e99e7566aafa2ed4,,,,,,,,,,,142.1339,151.7162,space,9.5468,,[],[],[],[],[],[],5,0,5,0,1,,,,,,,,,,,,,,,,,,,,,,,,,,,,,,,,,,,,,,,,,,,,,,,,,,,,,,,,,,,,,,,,,,,,,,,,,,,,,,
,,,,,6714d7f42c208253099ac9d9,2025-07-07_22h00.51.254,group3.4_multiperson,2023.2.2,Win32,59.88023952,686c2ebf0248f13bef9af11f,686c7b90e99e7566aafa2ed4,,,,,,,,,,,,,,,,,,,,,,,,,,,151.7172,154.2998,154.3096,1,audio/Narrative13Situation2.wav,156.3163,,156.3165,186.082,"[[999,0],[999,116],[999,199],[999,283],[999,366],[999,449],[999,532],[999,616],[999,699],[999,782],[999,866],[999,949],[999,1032],[999,1116],[999,1199],[999,1282],[999,1366],[999,1449],[999,1532],[999,1616],[999,1699],[999,1782],[999,1866],[999,1949],[999,2033],[999,2116],[999,2199],[999,2282],[999,2366],[999,2449],[999,2532],[999,2616],[999,2699],[999,2783],[999,2866],[999,2949],[999,3032],[999,3116],[999,3199],[999,3282],[999,3366],[999,3449],[999,3532],[999,3616],[999,3699],[999,3782],[999,3866],[999,3949],[999,4032],[999,4116],[999,4199],[999,4282],[999,4366],[999,4449],[999,4532],[999,4616],[999,4699],[999,4782],[999,4866],[999,4949],[999,5032],[999,5116],[999,5199],[999,5282],[999,5366],[999,5449],[999,5532],[999,5616],[999,5699],[999,5782],[999,5866],[999,5949],[999,6032],[999,6116],[999,6199],[999,6282],[999,6366],[999,6449],[999,6532],[999,6616],[999,6699],[999,6782],[999,6866],[999,6949],[999,7032],[999,7116],[999,7199],[999,7282],[999,7366],[999,7449],[999,7532],[999,7615],[999,7699],[999,7782],[999,7866],[999,7949],[999,8032],[999,8116],[999,8199],[999,8282],[999,8366],[999,8449],[999,8532],[999,8615],[999,8699],[999,8783],[999,8866],[999,8949],[999,9032],[999,9116],[999,9199],[999,9282],[999,9365],[999,9449],[999,9532],[999,9616],[999,9699],[999,9782],[999,9865],[999,9949],[999,10032],[999,10116],[999,10199],[999,10282],[999,10365],[999,10449],[999,10532],[999,10615],[999,10699],[999,10782],[999,10866],[999,10949],[999,11032],[999,11116],[999,11199],[999,11282],[999,11366],[999,11449],[999,11532],[85.7,11615],[85.7,11699],[85.7,11782],[85.7,11865],[85.7,11949],[85.7,12032],[85.7,12115],[85.7,12199],[85.7,12282],[85.7,12365],[85.7,12449],[86,12532],[87,12616],[87.3,12699],[87.9,12782],[89,12866],[92,12949],[93.5,13032],[93.5,13115],[93.5,13199],[93.5,13282],[93.5,13365],[93.5,13449],[93.5,13532],[93.5,13615],[93.5,13699],[93.5,13782],[93.5,13865],[93.5,13949],[93.5,14032],[93.5,14115],[93.5,14199],[93.5,14282],[93.5,14365],[93.5,14449],[93.5,14532],[93.5,14615],[93.5,14699],[93.5,14782],[93.5,14866],[93.5,14949],[93.5,15032],[93.5,15115],[93.5,15199],[93.5,15282],[93.5,15365],[93.5,15449],[93.5,15532],[93.5,15616],[93.5,15699],[93.5,15782],[93.5,15865],[93.6,15949],[94.1,16032],[94.1,16115],[95.8,16199],[96.7,16282],[96.7,16365],[97.1,16449],[98,16532],[98.4,16615],[99.2,16699],[99.2,16782],[99.3,16865],[99.3,16949],[99.3,17032],[99.3,17115],[99.3,17199],[99.3,17282],[99.2,17365],[100,18116],[100,18199],[100,18282],[100,18365],[100,18449],[100,18532],[99.9,18615],[99.1,18699],[100,19532],[100,19615],[100,19699],[100,19949],[100,20032],[100,20115],[100,20199],[100,20282],[100,20365],[100,20448],[100,20532],[100,20615],[100,20698],[100,20782],[100,20865],[100,20949],[74.5,21865],[95.3,22532],[92.8,22615],[98.3,23115],[98,23199],[97.9,23282],[97.9,23365],[97.9,23448],[97.9,23532],[97.9,23615],[97.9,23698],[97.9,23782],[97.9,23865],[98,23949],[98,24032],[98.1,24115],[98.1,24198],[98.1,24282],[98.4,24365],[99,24448],[99,24532],[99,24615],[99.1,24698],[99.8,24782],[100,24865],[100,24949],[100,25032],[100,25115],[100,25198],[100,25282],[100,25365],[8.9,26448],[46.5,26865],[86.2,26948],[100,27032],[100,27115],[100,27198],[100,27282],[100,27365],[100,27448],[100,27532],[100,27615],[100,27698],[100,27782],[100,27865],[100,27948],[100,28032],[100,28115],[100,28198],[100,28282],[100,28365],[100,28448],[100,28532],[100,28615],[100,28698],[100,28782],[100,28865],[100,28948],[100,29032],[100,29115],[100,29198],[100,29281],[100,29365],[100,29448],[100,29532],[100,29615],[100,29698]]",186.0821,193.8316,99.11458969,1.9305,"[{""rating"":99.11458969116211,""responseTime"":1.930499999999995}]",space,7.2002,,193.8318,Definitely yes,100,193.834,,,[],,0,0,0,0,1,audio/Narrative13Situation2.wav,audio/Narrative13Situation2.wav,audio/Narrative13Situation2.wav,audio/Narrative13Situation2.wav,2,2,2,2,,,,,,,,,,,,,,,,,,,,,,,,,,,,,,,,,,,,,,,
,,,,,6714d7f42c208253099ac9d9,2025-07-07_22h00.51.254,group3.4_multiperson,2023.2.2,Win32,59.88023952,686c2ebf0248f13bef9af11f,686c7b90e99e7566aafa2ed4,,,,,,,,,,,,,,,,,,,,,,,,,,,,,193.8342,1,audio/Narrative8Situation1.wav,195.7318,space,195.7318,211.6477,"[[999,0],[999,83],[999,166],[999,249],[999,333],[999,416],[999,499],[999,583],[999,666],[999,749],[999,833],[999,916],[999,999],[999,1082],[999,1166],[999,1249],[999,1333],[999,1416],[999,1499],[999,1583],[999,1666],[999,1749],[999,1833],[999,1916],[999,1999],[999,2082],[999,2166],[999,2249],[999,2333],[999,2416],[999,2499],[999,2583],[999,2666],[999,2749],[999,2832],[999,2916],[999,2999],[999,3083],[999,3166],[999,3249],[999,3332],[999,3416],[999,3499],[999,3582],[94.6,3666],[95.2,3750],[95.9,3833],[96.1,3916],[96.5,3999],[97.5,4083],[97.7,4166],[97.9,4249],[97.9,4332],[97.9,4416],[98.1,4499],[98.2,4582],[98.5,4666],[98.5,4749],[98.5,4832],[98.6,4916],[98.6,4999],[99.2,5083],[99.2,5166],[99.2,5249],[99.2,5332],[99.2,5416],[99.6,5499],[99.8,5582],[100,5666],[100,5749],[100,5832],[100,5916],[100,5999],[100,6082],[100,6166],[100,6249],[100,6332],[100,6416],[100,6499],[100,6582],[100,6666],[100,6749],[100,6832],[100,6916],[100,6999],[100,7082],[100,7166],[100,7249],[100,7332],[100,7416],[100,7499],[100,7582],[100,7666],[100,7749],[100,7832],[100,7916],[100,7999],[100,8082],[100,8166],[100,8249],[100,8332],[100,8415],[100,8499],[100,8582],[100,8666],[100,8749],[100,8832],[100,8916],[100,8999],[100,9082],[100,9166],[100,9249],[100,9332],[100,9416],[100,9499],[100,9582],[100,9666],[100,9749],[100,9832],[100,9915],[100,9999],[100,10082],[100,10166],[100,10249],[100,10332],[100,10416],[100,10499],[100,10582],[100,10666],[100,10749],[100,10832],[100,10916],[100,10999],[100,11082],[100,11166],[100,11249],[100,11332],[100,11415],[100,11499],[100,11582],[100,11666],[100,11749],[100,11832],[100,11915],[100,11999],[100,12082],[100,12165],[100,12249],[100,12332],[100,12416],[100,12499],[100,12582],[100,12665],[100,12749],[100,12832],[100,12915],[100,12999],[100,13082],[100,13165],[100,13249],[100,13332],[100,13416],[100,13499],[100,13582],[100,13666],[100,13749],[100,13832],[100,13915],[100,13999],[100,14082],[100,14166],[100,14249],[100,14332],[100,14415],[100,14499],[100,14582],[100,14665],[100,14749],[100,14832],[100,14915],[100,14999],[100,15082],[100,15165],[100,15249],[100,15332],[100,15415],[100,15499],[100,15582],[100,15665],[100,15749],[100,15832],[100,15915]]",211.6479,215.9977,50.625,2.5745,"[{""rating"":50.625,""responseTime"":2.5745000000000005}]",space,3.8034,,215.9977,Definitely yes,100,215.9986,,,[],,0,1,1,1,1,audio/Narrative7Situation1.wav,audio/Narrative8Situation1.wav,audio/Narrative5Situation1.wav,audio/Narrative6Situation1.wav,2,5,5,2,1.8725,,,,,,,,,,,,,,,,,,,,,,,,,,,,,,,,,,,,,,
,,,,,6714d7f42c208253099ac9d9,2025-07-07_22h00.51.254,group3.4_multiperson,2023.2.2,Win32,59.88023952,686c2ebf0248f13bef9af11f,686c7b90e99e7566aafa2ed4,,,,,,,,,,,,,,,,,,,,,,,,,,,,,215.9987,1,audio/Narrative8Situation2.wav,219.0141,,219.0141,229.1471,"[[999,0],[999,83],[999,166],[999,249],[999,333],[999,416],[999,500],[999,583],[999,666],[999,749],[999,833],[999,916],[999,999],[999,1083],[999,1166],[999,1250],[999,1333],[999,1416],[999,1499],[999,1583],[999,1666],[999,1749],[999,1833],[999,1916],[999,1999],[999,2083],[999,2166],[999,2249],[999,2333],[999,2416],[999,2500],[999,2583],[999,2666],[999,2750],[999,2833],[999,2916],[999,2999],[999,3083],[999,3166],[999,3249],[999,3333],[999,3416],[999,3499],[999,3583],[999,3666],[999,3749],[999,3833],[999,3916],[999,3999],[999,4083],[999,4166],[999,4249],[999,4333],[999,4416],[999,4499],[999,4583],[999,4666],[999,4749],[999,4832],[999,4916],[999,4999],[999,5083],[999,5166],[999,5249],[999,5332],[999,5416],[999,5499],[999,5583],[999,5666],[999,5749],[999,5833],[999,5916],[999,5999],[999,6083],[999,6166],[999,6249],[999,6333],[999,6416],[999,6499],[999,6583],[10.7,6666],[8.9,6749],[7.8,6832],[6.8,6916],[5.9,6999],[5.9,7083],[5.4,7166],[4,7249],[3.3,7333],[2.4,7416],[2.2,7500],[2.1,7583],[2.1,7666],[2.1,7749],[1.5,7833],[1.5,7916],[1.5,7999],[1.5,8082],[1.5,8166],[1.3,8249],[1,8333],[0.9,8416],[0.7,8500],[0.7,8583],[0.7,8666],[0.6,8749],[0.6,8832],[0.6,8916],[0.6,8999],[0.6,9083],[0.6,9166],[0.3,9249]]",229.1471,231.6636,0.052084923,0.9875,"[{""rating"":0.052084922790529564,""responseTime"":0.9875000000000114}]",space,1.9718,,231.6636,Not at all,0,231.6653,,,[],,0,2,2,2,1,audio/Narrative7Situation2.wav,audio/Narrative8Situation2.wav,audio/Narrative5Situation2.wav,audio/Narrative6Situation2.wav,3,3,3,3,,,,,,,,,,,,,,,,,,,,,,,,,,,,,,,,,,,,,,,
,,,,,6714d7f42c208253099ac9d9,2025-07-07_22h00.51.254,group3.4_multiperson,2023.2.2,Win32,59.88023952,686c2ebf0248f13bef9af11f,686c7b90e99e7566aafa2ed4,,,,,,,,,,,,,,,,,,,,,,,,,,,,,231.6654,1,audio/Narrative8Situation3.wav,235.6804,,235.6804,258.0629,"[[999,0],[999,83],[999,166],[999,249],[999,333],[999,416],[999,499],[999,583],[999,666],[999,749],[999,833],[999,916],[999,999],[999,1083],[999,1166],[999,1249],[999,1333],[999,1416],[999,1499],[999,1583],[999,1666],[999,1749],[999,1833],[999,1916],[999,1999],[999,2082],[999,2166],[999,2249],[999,2332],[999,2416],[999,2499],[999,2583],[999,2666],[999,2749],[999,2833],[999,2916],[999,3000],[38.1,3083],[38.2,3166],[38.4,3249],[37.9,3332],[32.7,3416],[32.1,3499],[25.2,3582],[11.5,3666],[10.5,3749],[8.5,3833],[18.2,4416],[32.3,4499],[34.1,4582],[40.2,4666],[44.5,4749],[53.1,4832],[60.8,4916],[61.1,4999],[62.7,5083],[70.3,5166],[84.2,5249],[93.2,5332],[98.3,5416],[98.3,5499],[97.9,5582],[97.9,5666],[97.4,5749],[96.8,5833],[95.4,5916],[94.5,5999],[94.2,6083],[91.9,6166],[87.4,6249],[81.5,6332],[82,6499],[89.9,6582],[95.9,6666],[96,6749],[96.1,6832],[98.8,6916],[100,11665],[100,11749],[100,11832],[100,11916],[100,11999],[100,12082],[100,12166],[100,12249],[100,12332],[100,12416],[100,12499],[100,12582],[100,12665],[100,12749],[100,12832],[100,12915],[100,12999],[100,13082],[100,13165],[100,13249],[100,13332],[100,13415],[100,13499],[100,13582],[100,13665],[100,13749],[100,13832],[100,13915],[100,13999],[100,14082],[100,14165],[100,14249],[100,14332],[100,14415],[100,14499],[100,14582],[100,14665],[100,14749],[100,14832],[100,14915],[100,14999],[100,15082],[100,15165],[100,15249],[100,15332],[100,15415],[100,15499],[100,15582],[100,15665],[100,15749],[100,15832],[100,15915],[100,15999],[100,16082],[100,16165],[100,16249],[100,16332],[100,16415],[100,16499],[100,16582],[100,16665],[100,16749],[100,16832],[100,16915],[100,16999],[100,17082],[100,17165],[100,17249],[100,17332],[100,17415],[100,17499],[100,17582],[100,17665],[100,17749],[100,17832],[100,17915],[100,17999],[100,18082],[100,18165],[100,18249],[100,18332],[100,18415],[100,18499],[100,18582],[100,18665],[100,18749],[100,18832],[100,18915],[100,18999],[100,19082],[100,19165],[100,19249],[100,19332],[100,19415],[100,19499],[100,19582],[100,19665],[100,19749],[100,19832],[100,19915],[100,19999],[100,20082],[100,20165],[100,20249],[100,20332],[100,20415],[100,20499],[100,20582],[100,20665],[100,20748],[100,20834],[100,20915],[100,20999],[100,21082],[100,21165],[100,21249],[100,21332],[100,21415],[100,21498],[100,21582],[100,21665],[100,21749],[100,21832],[100,21915],[100,21999],[100,22082],[100,22165],[100,22248],[100,22332]]",258.063,261.346,97.96875,1.3741,"[{""rating"":97.96875,""responseTime"":1.37409999999403}]",space,2.7605,,261.3461,Not at all,0,261.347,,,[],,0,3,3,3,1,audio/Narrative7Situation3.wav,audio/Narrative8Situation3.wav,audio/Narrative5Situation3.wav,audio/Narrative6Situation3.wav,8,4,3,5,,,,,,,,,,,,,,,,,,,,,,,,,,,,,,,,,,,,,,,
,,,,,6714d7f42c208253099ac9d9,2025-07-07_22h00.51.254,group3.4_multiperson,2023.2.2,Win32,59.88023952,686c2ebf0248f13bef9af11f,686c7b90e99e7566aafa2ed4,,,,,,,,,,,,,,,,,,,,,,,,,,,,,261.3471,1,audio/Narrative8Situation4.wav,264.3626,,264.3626,278.5455,"[[999,0],[999,83],[999,166],[999,249],[999,333],[999,417],[999,500],[999,583],[999,666],[999,749],[999,833],[999,916],[999,1000],[999,1083],[999,1166],[999,1250],[999,1333],[999,1416],[999,1499],[999,1583],[999,1666],[999,1749],[999,1833],[999,1916],[999,1999],[999,2083],[999,2166],[999,2249],[999,2333],[999,2416],[999,2500],[999,2583],[999,2666],[999,2749],[999,2833],[999,2916],[999,2999],[999,3083],[999,3166],[999,3249],[999,3333],[999,3416],[999,3500],[999,3582],[999,3666],[999,3749],[999,3833],[999,3916],[999,3999],[999,4083],[999,4166],[999,4249],[999,4333],[999,4416],[999,4499],[999,4583],[999,4666],[999,4749],[999,4833],[999,4916],[999,4999],[999,5083],[999,5166],[999,5249],[999,5333],[999,5416],[999,5500],[999,5583],[999,5666],[999,5749],[999,5833],[999,5916],[999,5999],[999,6083],[999,6166],[999,6250],[999,6333],[999,6416],[999,6499],[999,6583],[999,6666],[999,6749],[999,6833],[999,6916],[999,6999],[999,7083],[999,7166],[999,7249],[999,7332],[999,7416],[999,7499],[999,7583],[999,7666],[999,7749],[999,7833],[999,7916],[999,7999],[999,8082],[999,8166],[999,8249],[999,8332],[999,8416],[999,8499],[999,8583],[999,8666],[999,8749],[999,8832],[999,8916],[999,8999],[999,9083],[999,9166],[999,9249],[999,9333],[999,9416],[999,9499],[999,9583],[999,9666],[999,9749],[999,9833],[999,9916],[999,9999],[999,10082],[999,10166],[999,10249],[999,10332],[999,10416],[999,10499],[999,10582],[999,10666],[999,10749],[999,10832],[999,10916],[999,10999],[999,11082],[999,11166],[999,11249],[999,11332],[999,11416],[999,11499],[999,11582],[999,11666],[999,11749],[999,11832],[999,11916],[999,11999],[999,12082],[999,12166],[999,12249],[999,12332],[999,12416],[999,12499],[999,12582],[999,12666],[999,12749],[999,12832],[999,12916],[999,12999],[999,13082],[999,13166],[999,13249],[999,13332],[999,13416],[999,13499],[999,13583],[999,13666],[999,13749],[999,13832],[999,13916],[999,13999],[999,14082],[999,14166]]",278.5456,282.7286,98.69791985,2.6755,"[{""rating"":98.69791984558105,""responseTime"":2.6754999999999995}]",space,3.6453,,282.7287,Partially,50,282.7308,,,[],,0,4,4,4,1,audio/Narrative7Situation4.wav,audio/Narrative8Situation4.wav,audio/Narrative5Situation4.wav,audio/Narrative6Situation4.wav,3,3,1,2,,,,,,,,,,,,,,,,,,,,,,,,,,,,,,,,,,,,,,,
,,,,,6714d7f42c208253099ac9d9,2025-07-07_22h00.51.254,group3.4_multiperson,2023.2.2,Win32,59.88023952,686c2ebf0248f13bef9af11f,686c7b90e99e7566aafa2ed4,,,,,,,,,,,,,,,,,,,,,,,,,,,,,282.7309,1,audio/Narrative8Situation5.wav,284.7453,,284.7453,292.9783,"[[999,0],[999,83],[999,166],[999,250],[999,333],[999,416],[999,500],[999,583],[999,666],[999,750],[999,833],[999,916],[999,1000],[999,1083],[999,1166],[999,1250],[999,1333],[999,1416],[999,1499],[999,1583],[999,1666],[999,1749],[999,1833],[999,1916],[999,1999],[999,2083],[999,2166],[999,2250],[999,2333],[999,2416],[999,2499],[999,2583],[999,2666],[999,2749],[999,2833],[999,2916],[999,2999],[999,3083],[999,3166],[999,3249],[999,3333],[999,3416],[999,3499],[999,3583],[999,3666],[999,3749],[999,3833],[999,3916],[999,3999],[999,4083],[999,4166],[999,4249],[999,4333],[999,4416],[999,4499],[999,4583],[999,4666],[999,4749],[999,4832],[999,4916],[999,4999],[999,5083],[999,5166],[999,5249],[999,5333],[999,5416],[999,5499],[999,5582],[999,5666],[999,5749],[999,5833],[999,5916],[999,6000],[999,6083],[999,6166],[999,6249],[999,6333],[999,6416],[999,6499],[999,6582],[999,6666],[999,6749],[999,6832],[999,6916],[999,6999],[999,7083],[999,7166],[999,7249],[999,7332],[999,7416],[999,7499],[999,7583],[999,7666],[999,7749],[999,7832],[999,7916],[999,7999],[999,8083],[999,8166]]",292.9784,297.5283,98.90625,3.5042,"[{""rating"":98.90625,""responseTime"":3.5042000000178746}]",space,4.0047,,297.5284,Not at all,0,297.5295,,,[],,0,5,5,5,1,audio/Narrative7Situation5.wav,audio/Narrative8Situation5.wav,audio/Narrative5Situation5.wav,audio/Narrative6Situation5.wav,5,2,5,2,,,,,,,,,,,,,,,,,,,,,,,,,,,,,,,,,,,,,,,
,,,,,6714d7f42c208253099ac9d9,2025-07-07_22h00.51.254,group3.4_multiperson,2023.2.2,Win32,59.88023952,686c2ebf0248f13bef9af11f,686c7b90e99e7566aafa2ed4,,,,,,,,,,,,,,,,,,,,,,,,,,,,,297.5296,1,audio/Narrative8Situation6.wav,299.5448,,299.5448,306.0113,[],306.0114,312.1945,53.02083969,5.2558,"[{""rating"":53.02083969116212,""responseTime"":5.255799999982116}]",space,5.6345,,312.1945,Definitely yes,100,312.1961,,,[],,0,6,6,6,1,audio/Narrative7Situation6.wav,audio/Narrative8Situation6.wav,audio/Narrative5Situation6.wav,audio/Narrative6Situation6.wav,3,2,3,2,,,,,,,,,,,,,,,,,,,,,,,,,,,,,,,,,,,,,,,
,,,,,6714d7f42c208253099ac9d9,2025-07-07_22h00.51.254,group3.4_multiperson,2023.2.2,Win32,59.88023952,686c2ebf0248f13bef9af11f,686c7b90e99e7566aafa2ed4,,,,,,,,,,,,,,,,,,,,,,,,,,,,,312.1962,1,audio/Narrative8Situation7.wav,315.2111,,315.2111,327.3106,[],327.3107,334.7437,99.27083969,3.0704,"[{""rating"":99.27083969116211,""responseTime"":3.070400000005918}]",space,6.884,,334.7438,Not at all,0,334.7451,,,[],,0,7,7,7,1,audio/Narrative7Situation7.wav,audio/Narrative8Situation7.wav,audio/Narrative5Situation7.wav,audio/Narrative6Situation7.wav,5,3,4,5,,,,,,,,,,,,,,,,,,,,,,,,,,,,,,,,,,,,,,,
,,,,,6714d7f42c208253099ac9d9,2025-07-07_22h00.51.254,group3.4_multiperson,2023.2.2,Win32,59.88023952,686c2ebf0248f13bef9af11f,686c7b90e99e7566aafa2ed4,,,,,,,,,,,,,,,,,,,,,,,,,,,,,334.7452,1,audio/Narrative8Situation8.wav,337.7601,,337.7602,350.6266,"[[100,7916],[99.8,7999],[98.9,8082],[98.9,8166],[98.9,8249],[98.9,8332],[98.9,8416],[98.9,8499],[98.9,8583],[98.9,8666],[99.3,8749],[99.3,8833],[99.3,8916],[99.3,8999],[99.8,9082],[100,9166],[100,9249],[100,9332],[100,9416],[100,9499],[100,9582],[100,9666],[100,9749],[100,9832],[100,9916],[100,9999],[100,10082],[100,10166],[100,10249],[100,10332],[100,10416],[100,10499],[100,10582],[100,10666],[100,10749],[100,10832],[100,10916],[100,10999],[100,11082],[100,11166],[100,11249],[100,11332],[100,11416],[100,11499],[100,11582],[100,11666],[100,11749],[100,11832],[100,11916],[100,11999],[100,12082],[100,12166],[100,12249],[100,12332],[100,12416],[100,12499],[100,12582],[100,12666],[100,12749],[100,12832]]",350.6267,354.3431,99.6875,2.3146,"[{""rating"":99.6875,""responseTime"":2.314599999994016}]",space,3.1671,,354.3431,Partially,50,354.3442,,,[],,0,8,8,8,1,audio/Narrative7Situation8.wav,audio/Narrative8Situation8.wav,audio/Narrative5Situation8.wav,audio/Narrative6Situation8.wav,2,3,3,5,,,,,,,,,,,,,,,,,,,,,,,,,,,,,,,,,,,,,,,
,,,,,6714d7f42c208253099ac9d9,2025-07-07_22h00.51.254,group3.4_multiperson,2023.2.2,Win32,59.88023952,686c2ebf0248f13bef9af11f,686c7b90e99e7566aafa2ed4,,,,,,,,,,,,,,,,,,,,,,,,,,,,,354.3442,1,audio/Narrative8Situation9.wav,357.3596,,357.3596,368.6761,[],368.6762,371.1425,99.79166985,1.4702,"[{""rating"":99.79166984558105,""responseTime"":1.4701999999880968}]",space,1.9187,,371.1425,Partially,50,371.1434,,,[],,0,9,9,9,1,audio/Narrative7Situation9.wav,audio/Narrative8Situation9.wav,audio/Narrative5Situation9.wav,audio/Narrative6Situation9.wav,2,3,3,4,,,,,,,,,,,,,,,,,,,,,,,,,,,,,,,,,,,,,,,
,,,,,6714d7f42c208253099ac9d9,2025-07-07_22h00.51.254,group3.4_multiperson,2023.2.2,Win32,59.88023952,686c2ebf0248f13bef9af11f,686c7b90e99e7566aafa2ed4,,,,,,,,,,,,,,,,,,,,,,,,,,,,,371.1434,1,audio/Narrative7Situation1.wav,373.159,,373.159,429.0408,"[[999,0],[999,83],[999,166],[999,249],[999,333],[999,416],[999,500],[999,583],[999,666],[999,750],[999,833],[999,916],[999,1000],[999,1083],[999,1166],[999,1250],[999,1333],[999,1416],[999,1500],[999,1583],[999,1666],[999,1749],[999,1833],[999,1916],[999,1999],[999,2083],[999,2166],[999,2250],[999,2333],[999,2416],[999,2500],[999,2583],[999,2666],[999,2749],[999,2833],[999,2916],[999,3000],[999,3083],[999,3168],[999,3250],[999,3333],[999,3416],[999,3499],[999,3583],[999,3666],[999,3750],[999,3833],[999,3916],[999,3999],[999,4083],[999,4166],[999,4249],[999,4333],[999,4416],[999,4499],[999,4583],[999,4666],[999,4749],[999,4833],[999,4916],[999,4999],[999,5083],[999,5166],[999,5249],[999,5333],[999,5416],[999,5499],[999,5583],[999,5666],[999,5749],[999,5833],[999,5916],[999,5999],[999,6083],[999,6166],[999,6249],[999,6333],[999,6416],[999,6499],[999,6583],[999,6666],[999,6749],[999,6833],[999,6916],[999,6999],[999,7083],[999,7166],[999,7250],[999,7333],[999,7416],[999,7499],[999,7583],[999,7666],[999,7749],[999,7833],[999,7916],[999,7999],[999,8083],[999,8166],[999,8249],[999,8333],[999,8416],[999,8499],[999,8583],[999,8666],[999,8749],[999,8833],[999,8916],[999,8999],[999,9082],[999,9166],[999,9249],[999,9332],[999,9416],[999,9499],[999,9582],[999,9666],[999,9749],[999,9833],[999,9916],[999,9999],[999,10082],[999,10166],[999,10249],[999,10332],[999,10416],[999,10499],[999,10583],[999,10666],[999,10749],[999,10833],[999,10916],[999,10999],[999,11083],[999,11166],[999,11249],[999,11333],[999,11416],[999,11499],[999,11582],[999,11666],[999,11749],[999,11833],[999,11916],[999,11999],[999,12082],[999,12166],[999,12249],[999,12333],[999,12416],[999,12499],[999,12582],[999,12666],[999,12749],[999,12832],[999,12916],[999,12999],[999,13082],[999,13166],[999,13249],[999,13332],[999,13416],[999,13499],[999,13583],[999,13666],[999,13749],[999,13833],[999,13916],[999,13999],[999,14082],[999,14166],[999,14249],[999,14332],[999,14416],[999,14499],[999,14583],[999,14666],[999,14749],[999,14832],[999,14916],[999,14999],[999,15083],[999,15166],[999,15249],[999,15333],[999,15416],[999,15499],[999,15582],[999,15666],[999,15749],[999,15833],[999,15916],[999,15999],[999,16082],[999,16166],[999,16249],[999,16332],[999,16416],[999,16499],[999,16582],[999,16666],[999,16749],[999,16832],[999,16916],[999,16999],[999,17082],[999,17166],[999,17249],[999,17332],[999,17416],[999,17499],[999,17582],[999,17666],[999,17749],[999,17832],[999,17915],[999,17999],[999,18082],[999,18166],[999,18249],[999,18332],[999,18416],[999,18499],[999,18582],[999,18665],[999,18749],[999,18832],[999,18916],[999,18999],[999,19082],[999,19166],[999,19249],[999,19332],[999,19415],[999,19499],[999,19582],[999,19666],[999,19749],[999,19832],[999,19915],[999,19999],[999,20082],[999,20165],[999,20249],[999,20332],[999,20415],[999,20499],[999,20582],[999,20666],[999,20749],[999,20832],[999,20916],[999,20999],[999,21082],[999,21165],[999,21249],[999,21332],[999,21415],[999,21499],[999,21582],[999,21665],[999,21749],[999,21832],[999,21915],[999,21999],[999,22082],[999,22165],[999,22249],[999,22332],[999,22415],[999,22499],[999,22582],[999,22665],[999,22749],[999,22832],[999,22915],[999,22999],[999,23082],[999,23165],[999,23249],[999,23332],[999,23415],[999,23499],[999,23582],[999,23665],[999,23749],[999,23832],[999,23915],[999,23999],[999,24082],[999,24165],[999,24249],[999,24332],[999,24415],[999,24499],[999,24582],[999,24665],[999,24749],[999,24832],[999,24915],[999,24999],[999,25082],[999,25165],[999,25249],[999,25332],[999,25415],[999,25499],[999,25582],[999,25665],[999,25749],[999,25832],[999,25915],[999,25999],[999,26082],[999,26166],[999,26249],[999,26332],[999,26415],[999,26499],[999,26582],[999,26665],[999,26749],[999,26832],[999,26915],[999,26999],[999,27082],[999,27165],[999,27249],[999,27332],[999,27415],[999,27499],[999,27582],[999,27665],[999,27749],[999,27832],[999,27915],[999,27999],[999,28082],[999,28165],[999,28249],[999,28332],[999,28415],[999,28498],[999,28582],[999,28665],[999,28749],[999,28832],[999,28915],[999,28999],[999,29082],[999,29165],[999,29249],[999,29332],[999,29415],[999,29499],[999,29582],[999,29665],[999,29749],[999,29832],[999,29915],[999,29999],[999,30082],[999,30165],[999,30249],[999,30332],[999,30415],[999,30499],[999,30582],[999,30665],[999,30749],[999,30832],[999,30915],[999,30999],[999,31082],[999,31165],[999,31248],[999,31332],[999,31415],[999,31499],[999,31582],[999,31665],[999,31748],[999,31832],[999,31915],[999,31998],[999,32082],[999,32165],[999,32249],[999,32332],[999,32415],[999,32499],[999,32582],[999,32665],[999,32748],[999,32832],[999,32915],[999,32999],[999,33082],[999,33166],[999,33249],[999,33332],[999,33415],[999,33498],[999,33582],[999,33665],[999,33748],[999,33832],[999,33915],[999,33999],[999,34082],[999,34165],[999,34248],[999,34332],[999,34415],[999,34498],[999,34582],[999,34665],[999,34748],[999,34832],[999,34915],[999,34998],[999,35082],[999,35165],[999,35249],[999,35332],[999,35415],[999,35498],[999,35582],[999,35665],[999,35748],[999,35832],[999,35915],[999,35998],[999,36082],[999,36165],[999,36248],[999,36332],[999,36415],[999,36498],[999,36581],[999,36665],[999,36748],[999,36832],[999,36915],[999,36999],[999,37081],[999,37165],[999,37248],[999,37332],[999,37415],[999,37498],[999,37581],[999,37665],[999,37748],[999,37832],[999,37915],[999,37998],[999,38081],[999,38165],[999,38248],[999,38331],[999,38415],[999,38498],[999,38581],[999,38665],[999,38748],[999,38831],[999,38915],[999,38998],[999,39082],[999,39165],[999,39248],[999,39331],[999,39415],[999,39498],[999,39581],[999,39665],[999,39748],[999,39831],[999,39915],[999,39998],[999,40081],[999,40165],[999,40248],[999,40331],[999,40415],[999,40498],[999,40582],[999,40665],[999,40748],[999,40831],[999,40915],[999,40998],[999,41081],[999,41165],[999,41248],[999,41331],[999,41415],[999,41498],[999,41581],[999,41665],[999,41748],[999,41831],[999,41915],[999,41998],[999,42081],[999,42165],[999,42248],[999,42331],[999,42415],[999,42498],[999,42581],[999,42665],[999,42748],[999,42831],[999,42915],[999,42998],[999,43081],[999,43165],[999,43248],[999,43331],[999,43415],[999,43498],[999,43581],[999,43665],[999,43748],[999,43831],[999,43915],[999,43998],[999,44081],[999,44165],[999,44248],[999,44331],[999,44415],[999,44498],[999,44581],[999,44665],[999,44748],[999,44831],[999,44915],[999,44998],[999,45081],[999,45165],[999,45248],[999,45331],[999,45415],[999,45498],[999,45581],[999,45665],[999,45748],[999,45831],[999,45915],[999,45998],[999,46081],[999,46165],[999,46248],[999,46332],[999,46415],[999,46498],[999,46581],[999,46665],[999,46748],[999,46832],[999,46915],[999,46998],[999,47081],[999,47165],[999,47248],[999,47331],[999,47415],[999,47498],[999,47581],[999,47665],[999,47748],[999,47831],[999,47915],[999,47998],[999,48081],[999,48165],[999,48248],[999,48331],[999,48415],[999,48498],[999,48581],[999,48665],[999,48748],[999,48831],[999,48915],[999,48998],[999,49081],[999,49165],[999,49248],[999,49331],[999,49415],[999,49498],[999,49582],[999,49665],[999,49748],[999,49831],[999,49915],[999,49998],[999,50081],[999,50165],[999,50248],[999,50331],[999,50415],[100,50498],[100,50581],[100,50665],[100,50748],[100,50831],[100,50915],[100,50998],[100,51081],[100,51165],[100,51248],[100,51331],[100,51415],[100,51498],[100,51581],[100,51665],[100,51748],[100,51831],[100,51915],[100,51998],[100,52081],[100,52165],[100,52248],[100,52331],[100,52415],[100,52498],[100,52581],[100,52664],[100,52748],[100,52831],[100,52914],[100,52998],[100,53081],[100,53165],[100,53248],[100,53331],[100,53415],[100,53498],[100,53581],[100,53664],[100,53748],[100,53831],[100,53915],[100,53998],[100,54081],[100,54164],[100,54248],[100,54331],[100,54414],[100,54498],[100,54581],[100,54664],[100,54748],[100,54831],[100,54914],[100,54998],[100,55081],[100,55164],[100,55248],[100,55331],[100,55414],[100,55498],[100,55581],[100,55664],[100,55748],[100,55831]]",429.0408,430.9577,99.11458969,0.7929,"[{""rating"":99.11458969116211,""responseTime"":0.7929000000059432}]",space,1.3738,,430.9578,Not at all,0,430.9592,,,[],,0,10,10,10,1,audio/Narrative8Situation1.wav,audio/Narrative7Situation1.wav,audio/Narrative6Situation1.wav,audio/Narrative5Situation1.wav,5,2,2,5,,,,,,,,,,,,,,,,,,,,,,,,,,,,,,,,,,,,,,,
,,,,,6714d7f42c208253099ac9d9,2025-07-07_22h00.51.254,group3.4_multiperson,2023.2.2,Win32,59.88023952,686c2ebf0248f13bef9af11f,686c7b90e99e7566aafa2ed4,,,,,,,,,,,,,,,,,,,,,,,,,,,,,430.9593,1,audio/Narrative7Situation2.wav,433.9737,,433.9737,441.4567,[],441.4567,444.89,98.95833969,2.329,"[{""rating"":98.95833969116211,""responseTime"":2.3290000000000077}]",space,2.9063,,444.89,Not at all,0,456.7063,0,5.7218,"[{""rating"":0,""responseTime"":5.7217999999821245}]",space,0,11,11,11,1,audio/Narrative8Situation2.wav,audio/Narrative7Situation2.wav,audio/Narrative6Situation2.wav,audio/Narrative5Situation2.wav,3,3,3,3,,,11.293,,,,,,,,,,,,,,,,,,,,,,,,,,,,,,,,,,,,
,,,,,6714d7f42c208253099ac9d9,2025-07-07_22h00.51.254,group3.4_multiperson,2023.2.2,Win32,59.88023952,686c2ebf0248f13bef9af11f,686c7b90e99e7566aafa2ed4,,,,,,,,,,,,,,,,,,,,,,,,,,,,,456.7065,1,audio/Narrative7Situation3.wav,464.7227,,464.7228,473.9892,[],473.9893,478.2556,51.51041985,3.254,"[{""rating"":51.510419845581055,""responseTime"":3.254000000000019}]",space,3.7289,,478.2556,Definitely yes,100,478.2572,,,[],,0,12,12,12,1,audio/Narrative8Situation3.wav,audio/Narrative7Situation3.wav,audio/Narrative6Situation3.wav,audio/Narrative5Situation3.wav,4,8,5,3,,,,,,,,,,,,,,,,,,,,,,,,,,,,,,,,,,,,,,,
,,,,,6714d7f42c208253099ac9d9,2025-07-07_22h00.51.254,group3.4_multiperson,2023.2.2,Win32,59.88023952,686c2ebf0248f13bef9af11f,686c7b90e99e7566aafa2ed4,,,,,,,,,,,,,,,,,,,,,,,,,,,,,478.2574,1,audio/Narrative7Situation4.wav,481.2723,,481.2724,493.0051,[],493.0052,496.6883,0,2.9911,"[{""rating"":0,""responseTime"":2.991099999993992}]",space,3.137,,496.6884,Partially,50,496.6896,,,[],,0,13,13,13,1,audio/Narrative8Situation4.wav,audio/Narrative7Situation4.wav,audio/Narrative6Situation4.wav,audio/Narrative5Situation4.wav,3,3,2,1,,,,,,,,,,,,,,,,,,,,,,,,,,,,,,,,,,,,,,,
,,,,,6714d7f42c208253099ac9d9,2025-07-07_22h00.51.254,group3.4_multiperson,2023.2.2,Win32,59.88023952,686c2ebf0248f13bef9af11f,686c7b90e99e7566aafa2ed4,,,,,,,,,,,,,,,,,,,,,,,,,,,,,496.6897,1,audio/Narrative7Situation5.wav,501.7047,,501.7047,510.1879,"[[999,0],[999,83],[999,166],[999,250],[999,333],[999,417],[999,500],[999,583],[999,666],[999,750],[999,833],[999,916],[999,1000],[999,1083],[999,1166],[999,1250],[999,1333],[999,1416],[999,1500],[999,1583],[999,1666],[999,1750],[999,1833],[999,1917],[999,1999],[999,2083],[999,2166],[999,2250],[999,2333],[999,2416],[999,2500],[999,2583],[999,2666],[999,2750],[999,2833],[999,2916],[999,3000],[999,3083],[999,3166],[999,3250],[999,3333],[999,3416],[999,3500],[999,3583],[999,3666],[999,3750],[999,3833],[999,3916],[999,4000],[999,4083],[999,4166],[999,4249],[999,4333],[999,4416],[999,4500],[999,4583],[999,4667],[999,4749],[999,4833],[999,4916],[999,4999],[999,5083],[999,5166],[999,5250],[999,5333],[999,5417],[999,5500],[999,5583],[999,5666],[999,5750],[999,5833],[999,5916],[999,5999],[999,6083],[999,6166],[999,6250],[999,6333],[999,6416],[999,6499],[999,6583],[999,6667],[999,6750],[999,6833],[999,6916],[999,6999],[999,7083],[999,7166],[999,7249],[999,7333],[999,7416],[999,7499],[999,7583],[999,7666],[999,7749],[999,7833],[999,7916],[999,7999],[999,8083],[999,8166],[999,8249],[999,8333],[999,8416]]",510.188,513.8213,52.29166985,2.554,"[{""rating"":52.291669845581055,""responseTime"":2.5539999999999736}]",space,3.09,,513.8213,Definitely yes,100,513.8228,,,[],,0,14,14,14,1,audio/Narrative8Situation5.wav,audio/Narrative7Situation5.wav,audio/Narrative6Situation5.wav,audio/Narrative5Situation5.wav,2,5,2,5,,,,,,,,,,,,,,,,,,,,,,,,,,,,,,,,,,,,,,,
,,,,,6714d7f42c208253099ac9d9,2025-07-07_22h00.51.254,group3.4_multiperson,2023.2.2,Win32,59.88023952,686c2ebf0248f13bef9af11f,686c7b90e99e7566aafa2ed4,,,,,,,,,,,,,,,,,,,,,,,,,,,,,513.8229,1,audio/Narrative7Situation6.wav,516.8378,,516.8378,526.8206,[],526.8207,531.6373,0,4.0912,"[{""rating"":0,""responseTime"":4.0911999999881346}]",space,4.2838,,531.6373,Definitely yes,100,531.6384,,,[],,0,15,15,15,1,audio/Narrative8Situation6.wav,audio/Narrative7Situation6.wav,audio/Narrative6Situation6.wav,audio/Narrative5Situation6.wav,2,3,2,3,,,,,,,,,,,,,,,,,,,,,,,,,,,,,,,,,,,,,,,
,,,,,6714d7f42c208253099ac9d9,2025-07-07_22h00.51.254,group3.4_multiperson,2023.2.2,Win32,59.88023952,686c2ebf0248f13bef9af11f,686c7b90e99e7566aafa2ed4,,,,,,,,,,,,,,,,,,,,,,,,,,,,,531.6384,1,audio/Narrative7Situation7.wav,536.6539,,536.6539,553.8367,[],553.8368,560.903,99.47916985,5.8707,"[{""rating"":99.47916984558105,""responseTime"":5.870700000017905}]",space,6.5208,,560.903,Partially,50,560.9046,,,[],,0,16,16,16,1,audio/Narrative8Situation7.wav,audio/Narrative7Situation7.wav,audio/Narrative6Situation7.wav,audio/Narrative5Situation7.wav,3,5,5,4,,,,,,,,,,,,,,,,,,,,,,,,,,,,,,,,,,,,,,,
,,,,,6714d7f42c208253099ac9d9,2025-07-07_22h00.51.254,group3.4_multiperson,2023.2.2,Win32,59.88023952,686c2ebf0248f13bef9af11f,686c7b90e99e7566aafa2ed4,,,,,,,,,,,,,,,,,,,,,,,,,,,,,560.9047,1,audio/Narrative7Situation8.wav,562.9196,,562.9196,572.9526,"[[999,0],[999,83],[999,166],[999,250],[999,333],[999,416],[999,500],[999,583],[999,666],[999,749],[999,833],[999,916],[999,1000],[999,1083],[999,1166],[999,1249],[999,1333],[999,1416],[999,1499],[999,1583],[999,1666],[999,1749],[999,1833],[999,1916],[999,1999],[999,2083],[999,2166],[999,2249],[999,2333],[999,2416],[999,2500],[999,2583],[999,2666],[999,2749],[999,2833],[999,2916],[999,2999],[999,3083],[999,3166],[999,3249],[999,3333],[999,3416],[999,3499],[999,3583],[999,3666],[999,3750],[999,3833],[999,3916],[999,3999],[999,4083],[999,4166],[999,4249],[999,4333],[999,4416],[999,4499],[999,4583],[999,4666],[999,4749],[999,4833],[999,4916],[999,4999],[999,5083],[999,5166],[999,5249],[999,5333],[999,5416],[999,5500],[999,5582],[999,5666],[999,5749],[999,5833],[999,5916],[999,5999],[999,6083],[999,6166],[999,6249],[999,6332],[999,6416],[999,6499],[999,6582],[999,6666],[999,6749],[999,6833],[999,6916],[999,6999],[999,7082],[999,7166],[999,7249],[999,7332],[999,7416],[999,7499],[999,7582],[999,7666],[999,7749],[999,7833],[999,7916],[999,7999],[999,8082],[999,8166],[999,8249],[999,8332],[999,8416],[999,8499],[999,8584],[999,8666],[999,8749],[999,8832],[999,8916],[999,8999],[999,9083],[999,9166],[999,9249],[999,9333],[999,9416],[999,9499],[999,9582],[999,9666],[98.4,9749],[99.2,9832],[100,9916],[100,9999]]",572.9527,575.6193,99.73958969,1.3934,"[{""rating"":99.73958969116211,""responseTime"":1.393400000005954}]",space,2.1255,,575.6193,Definitely yes,100,575.6207,,,[],,0,17,17,17,1,audio/Narrative8Situation8.wav,audio/Narrative7Situation8.wav,audio/Narrative6Situation8.wav,audio/Narrative5Situation8.wav,3,2,5,3,,,,,,,,,,,,,,,,,,,,,,,,,,,,,,,,,,,,,,,
,,,,,6714d7f42c208253099ac9d9,2025-07-07_22h00.51.254,group3.4_multiperson,2023.2.2,Win32,59.88023952,686c2ebf0248f13bef9af11f,686c7b90e99e7566aafa2ed4,,,,,,,,,,,,,,,,,,,,,,,,,,,,,575.6209,1,audio/Narrative7Situation9.wav,577.6356,,577.6356,586.2689,[],586.2689,591.8021,99.58333969,3.8952,"[{""rating"":99.58333969116211,""responseTime"":3.895200000017894}]",space,4.9848,,591.8021,Definitely yes,100,591.8028,,,[],,0,18,18,18,1,audio/Narrative8Situation9.wav,audio/Narrative7Situation9.wav,audio/Narrative6Situation9.wav,audio/Narrative5Situation9.wav,3,2,4,3,,,,,,,,,,,,,,,,,,,,,,,,,,,,,,,,,,,,,,,
,,,,,6714d7f42c208253099ac9d9,2025-07-07_22h00.51.254,group3.4_multiperson,2023.2.2,Win32,59.88023952,686c2ebf0248f13bef9af11f,686c7b90e99e7566aafa2ed4,,,,,,,,,,,,,,,,,,,,,,,,,,,598.0356,600.6182,600.6237,2,audio/Narrative13Situation2.wav,600.6238,,600.6238,630.3844,"[[100,15660],[100,15744],[100,15827],[100,15910],[100,15994],[100,16077],[100,16160],[100,16244],[100,16327],[100,16410],[100,16493],[100,16577],[100,16660],[100,16743],[100,16827],[100,16910],[100,16993],[100,17077],[100,17160],[100,17243],[100,17327],[100,17410],[100,17493],[100,17577],[100,17660],[100,17743],[100,17827],[100,17910],[100,17993],[100,18077],[99.7,18160],[95.8,18243],[95.9,18327],[96.3,18410],[96.3,18494],[96.3,18577],[96.3,18660],[96.4,18743],[96.4,18827],[96.4,18910],[96.4,18993],[96.4,19077],[96.4,19160],[96.4,19243],[96.4,19327],[96.4,19410],[96.4,19494],[96.4,19577],[96.4,19660],[96.4,19743],[96.4,19827],[96.4,19910],[96.4,19993],[96.4,20077],[96.4,20160],[96.4,20243],[96.4,20327],[96.4,20410],[96.4,20493],[96.4,20577],[96.4,20660],[96.4,20743],[96.4,20827],[96.4,20910],[96.4,20993],[96.4,21077],[96.4,21160],[96.4,21243],[96.4,21327],[96.4,21410],[96.4,21493],[96.4,21577],[96.4,21660],[96.4,21743],[96.4,21827],[96.4,21910],[96.4,21993],[96.4,22077],[96.4,22160],[96.4,22243],[96.4,22327],[96.4,22410],[96.4,22493],[96.4,22577],[96.4,22660],[96.4,22743],[96.4,22827],[96.4,22910],[96.4,22993],[96.4,23077],[96.4,23160],[96.4,23243],[96.4,23327],[96.4,23410],[96.4,23493],[96.4,23577],[96.4,23660],[96.4,23743],[96.4,23827],[96.4,23910],[96.4,23993],[96.4,24077],[96.4,24160],[96.4,24243],[96.4,24327],[96.4,24410],[96.4,24493],[96.4,24577],[96.4,24660],[96.4,24743],[96.4,24827],[96.4,24910],[96.4,24993],[96.4,25077],[96.4,25160],[96.4,25243],[96.4,25327],[96.4,25410],[96.4,25493],[96.4,25577],[96.4,25660],[96.4,25743],[96.4,25827],[96.4,25910],[96.4,25993],[96.4,26077],[96.4,26160],[96.4,26243],[96.4,26326],[96.4,26414],[96.4,26493],[96.4,26577],[96.4,26660],[96.4,26743],[96.4,26826],[96.4,26910],[96.4,26993],[96.4,27077],[96.4,27160],[96.4,27243],[96.4,27326],[96.4,27410],[96.4,27501],[96.4,27577],[96.4,27660],[96.4,27743],[96.4,27827],[96.4,27910],[96.4,27993],[96.4,28084],[96.4,28160],[96.4,28243],[96.4,28327],[96.4,28418],[96.4,28500],[96.4,28577],[96.4,28660],[96.4,28743],[96.4,28826],[96.4,28917],[96.4,28993],[96.4,29077],[96.4,29167],[96.4,29243],[96.4,29326],[96.4,29410],[96.4,29493],[96.4,29576],[96.4,29660],[96.4,29743]]",630.3845,630.3855,,,[],,,,630.3856,Not at all,0,630.3865,,,[],,0,0,0,0,1,audio/Narrative13Situation2.wav,audio/Narrative13Situation2.wav,audio/Narrative13Situation2.wav,audio/Narrative13Situation2.wav,2,2,2,2,,,,,591.8031,598.0353,space,5.7052,,,,,,,,,,,,,,,,,,,,,,,,,,,,,,,
,,,,,6714d7f42c208253099ac9d9,2025-07-07_22h00.51.254,group3.4_multiperson,2023.2.2,Win32,59.88023952,686c2ebf0248f13bef9af11f,686c7b90e99e7566aafa2ed4,,,,,,,,,,,,,,,,,,,,,,,,,,,,,630.3866,2,audio/Narrative6Situation1.wav,632.4007,,632.4007,658.9902,"[[96.4,11999],[96.4,12082],[96.4,12166],[96.4,12249],[96.4,12337],[96.4,12416],[96.4,12499],[96.4,12582],[96.4,12666],[96.4,12749],[96.4,12839],[96.4,12922],[96.4,12999],[96.4,13082],[96.4,13166],[96.4,13249],[96.4,13332],[96.4,13416],[96.4,13506],[96.4,13582],[96.4,13672],[96.4,13749],[96.4,13839],[96.4,13916],[96.4,13999],[96.4,14082],[96.4,14166],[96.4,14249],[96.4,14339],[96.4,14416],[96.4,14499],[74.3,14589],[78.2,16590],[88.1,16673],[100,16756],[100,16832],[100,16923],[100,17006],[100,17089],[98.7,17173],[94.4,17256],[76.2,17339],[56,17423],[39.8,17923],[49.9,18006],[50.9,18089],[50.9,18165],[50.9,18249],[50.7,18339],[50.7,18415],[50.7,18499],[50.7,18583],[50.7,18670],[49.3,18756],[47.9,18839],[47.9,18915],[47.9,18999],[47.9,19089],[47.9,19165],[47.9,19249],[47.9,19339],[47.9,19416],[47.9,19499],[47.9,19582],[47.9,19665],[47.9,19749],[47.9,19832],[47.9,19916],[47.9,19999],[47.9,20082],[47.9,20165],[47.9,20249],[47.9,20332],[47.9,20422],[47.4,20506],[46.1,20589],[46.1,20665],[46.1,20756],[45.4,20839],[45.2,20915],[43.5,21006],[38,21089],[30.8,21173],[30.4,21249],[30.4,21332],[30.4,21422],[30.4,21499],[33.8,21589],[37.8,21673],[38.1,21756],[38.1,21832],[38.1,21915],[38.1,21999],[38.1,22089],[38.3,22165],[44.5,22256],[44.7,22339],[45.3,22423],[47.2,22506],[49.8,22589],[51.5,22665],[51.5,22749],[51.5,22839],[51.5,22921],[51.5,22999],[51.5,23089],[57.4,23173],[88.1,23249],[100,23339],[100,23415],[100,23499],[100,23582],[100,23673],[100,23755],[100,23839],[100,23922],[100,23999],[100,24082],[100,24172],[100,24249],[100,24332],[100,24422],[100,24499],[100,24582],[100,24665],[100,24749],[100,24832],[100,24915],[100,24999],[100,25082],[100,25165],[100,25249],[100,25338],[100,25422],[100,25499],[100,25582],[100,25672],[100,25749],[100,25839],[100,25922],[100,26006],[100,26082],[100,26170],[100,26249],[100,26332],[100,26415],[100,26506],[100,26589]]",658.9903,666.5163,50.88541985,6.1163,"[{""rating"":99.0625,""responseTime"":0.8168000000118809},{""rating"":50.88541984558106,""responseTime"":6.116300000011961}]",space,6.9874,0.0002,666.5164,Definitely yes,100,666.5177,,,[],,0,1,1,1,1,audio/Narrative7Situation1.wav,audio/Narrative8Situation1.wav,audio/Narrative5Situation1.wav,audio/Narrative6Situation1.wav,2,5,5,2,,,,,,,,,,,,,,,,,,,,,,,,,,,,,,,,,,,,,,,
,,,,,6714d7f42c208253099ac9d9,2025-07-07_22h00.51.254,group3.4_multiperson,2023.2.2,Win32,59.88023952,686c2ebf0248f13bef9af11f,686c7b90e99e7566aafa2ed4,,,,,,,,,,,,,,,,,,,,,,,,,,,,,666.5179,2,audio/Narrative6Situation2.wav,669.5329,,669.5329,698.0558,[],698.0558,703.3723,50.57291985,3.4198,"[{""rating"":50.572919845581055,""responseTime"":3.4198000000119464}]",space,4.7666,,703.3724,Definitely yes,100,709.1552,100,4.8495,"[{""rating"":100,""responseTime"":4.849500000000035}]",space,0,2,2,2,1,audio/Narrative7Situation2.wav,audio/Narrative8Situation2.wav,audio/Narrative5Situation2.wav,audio/Narrative6Situation2.wav,3,3,3,3,,,5.2385,,,,,,,,,,,,,,,,,,,,,,,,,,,,,,,,,,,,
,,,,,6714d7f42c208253099ac9d9,2025-07-07_22h00.51.254,group3.4_multiperson,2023.2.2,Win32,59.88023952,686c2ebf0248f13bef9af11f,686c7b90e99e7566aafa2ed4,,,,,,,,,,,,,,,,,,,,,,,,,,,,,709.1553,2,audio/Narrative6Situation3.wav,714.1645,,714.1646,726.7809,[],726.7811,731.1974,51.40625,3.3824,"[{""rating"":51.40625,""responseTime"":3.382400000005987}]",space,3.8826,,731.1975,Definitely yes,100,731.1982,,,[],,0,3,3,3,1,audio/Narrative7Situation3.wav,audio/Narrative8Situation3.wav,audio/Narrative5Situation3.wav,audio/Narrative6Situation3.wav,8,4,3,5,,,,,,,,,,,,,,,,,,,,,,,,,,,,,,,,,,,,,,,
,,,,,6714d7f42c208253099ac9d9,2025-07-07_22h00.51.254,group3.4_multiperson,2023.2.2,Win32,59.88023952,686c2ebf0248f13bef9af11f,686c7b90e99e7566aafa2ed4,,,,,,,,,,,,,,,,,,,,,,,,,,,,,731.1983,2,audio/Narrative6Situation4.wav,733.2138,,733.2138,745.8206,"[[54,1666],[54,1750],[54,1840],[54,1916],[54,2000],[54,2083],[54,2166],[54,2257],[54,2333],[54,2424],[54,2507],[54,2583],[54,2666],[54,2750],[54,2833],[54,2916],[54,3006],[54,3083],[54,3166],[54,3250],[54,3340],[54,3423],[54,3500],[54,3590],[54,3666],[54,3750],[54,3840],[54,3916],[54,4000],[54,4083],[54,4174],[54,4249],[54,4333],[54,4416],[54,4499],[54,4583],[54,4666],[54,4750],[54,4833],[54,4921],[54,4999],[54,5083],[54,5166],[54,5257],[54,5333],[54,5416],[54,5500],[54,5583],[54,5666],[54,5750],[54,5840],[54,5916],[54,6005],[54,6083],[54,6173],[54,6249],[54,6333],[54,6423],[54,6507],[54,6583],[54,6666],[54,6749],[54,6837],[54,6916],[54,7006],[54,7083],[54,7173],[54,7257],[54,7337],[54,7423],[54,7507],[54,7583],[54,7666],[54,7749],[54,7833],[54,7916],[54,8006],[54,8083],[54,8166],[54,8249],[54,8333],[54,8423],[54,8499],[54,8583],[54,8666],[54,8749],[54,8840],[54,8916],[54,9006],[54,9083],[54,9173],[54,9249],[54,9333],[54,9416],[54,9499],[54,9587],[54,9673],[54,9754],[54,9833],[54,9916],[54,9999],[54,10083],[54,10173],[54,10256],[54,10332],[54,10416],[54,10506],[54,10590],[54,10673],[54,10749],[54,10833],[54,10916],[54,10999],[54,11082],[54,11166],[54,11249],[54,11340],[54,11423],[54,11499],[54,11590],[54,11673],[54,11749],[54,11833],[54,11916],[54,11999],[54,12082],[54,12170],[54,12249],[54,12340],[54,12423],[54,12499],[54,12583]]",745.8206,749.404,99.79166985,2.1988,"[{""rating"":99.79166984558105,""responseTime"":2.1988000000119428}]",space,3.0449,,749.404,Definitely yes,100,749.4046,,,[],,0,4,4,4,1,audio/Narrative7Situation4.wav,audio/Narrative8Situation4.wav,audio/Narrative5Situation4.wav,audio/Narrative6Situation4.wav,3,3,1,2,,,,,,,,,,,,,,,,,,,,,,,,,,,,,,,,,,,,,,,
,,,,,6714d7f42c208253099ac9d9,2025-07-07_22h00.51.254,group3.4_multiperson,2023.2.2,Win32,59.88023952,686c2ebf0248f13bef9af11f,686c7b90e99e7566aafa2ed4,,,,,,,,,,,,,,,,,,,,,,,,,,,,,749.4047,2,audio/Narrative6Situation5.wav,751.4133,,751.4133,759.363,"[[999,0],[999,83],[999,166],[999,250],[999,333],[999,416],[999,500],[999,583],[999,666],[999,749],[999,833],[999,916],[999,1000],[999,1083],[999,1166],[999,1249],[999,1338],[999,1417],[999,1507],[999,1583],[999,1666],[999,1750],[999,1833],[999,1916],[999,1999],[999,2083],[999,2166],[999,2250],[999,2333],[999,2423],[999,2499],[999,2583],[999,2666],[999,2750],[999,2833],[999,2916],[999,2999],[999,3090],[999,3166],[999,3257],[999,3333],[999,3424],[999,3499],[999,3583],[999,3666],[999,3749],[999,3840],[999,3916],[999,3999],[999,4083],[999,4170],[999,4249],[999,4333],[999,4423],[999,4499],[999,4590],[999,4666],[999,4749],[999,4833],[999,4916],[999,5007],[999,5083],[999,5166],[999,5249],[999,5333],[999,5416],[999,5499],[999,5583],[999,5666],[999,5749],[999,5840],[999,5916],[999,6007],[999,6090],[999,6166],[999,6257],[999,6340],[999,6416],[999,6499],[999,6583],[999,6666],[999,6749],[999,6833],[999,6916],[999,7007],[999,7083],[999,7166],[999,7249],[999,7333],[999,7423],[999,7499],[999,7583],[999,7666],[999,7749],[999,7833],[999,7916]]",759.363,769.8511,81.45833969,9.5237,"[{""rating"":81.45833969116211,""responseTime"":9.523699999988139}]",space,9.9213,,769.8511,Definitely yes,100,769.852,,,[],,0,5,5,5,1,audio/Narrative7Situation5.wav,audio/Narrative8Situation5.wav,audio/Narrative5Situation5.wav,audio/Narrative6Situation5.wav,5,2,5,2,,,,,,,,,,,,,,,,,,,,,,,,,,,,,,,,,,,,,,,
,,,,,6714d7f42c208253099ac9d9,2025-07-07_22h00.51.254,group3.4_multiperson,2023.2.2,Win32,59.88023952,686c2ebf0248f13bef9af11f,686c7b90e99e7566aafa2ed4,,,,,,,,,,,,,,,,,,,,,,,,,,,,,769.8521,2,audio/Narrative6Situation6.wav,771.8533,,771.8533,782.9364,[],782.9364,790.0865,80.88541985,5.9163,"[{""rating"":80.88541984558105,""responseTime"":5.9163000000119155}]",space,6.6002,,790.0865,Definitely yes,100,790.0874,,,[],,0,6,6,6,1,audio/Narrative7Situation6.wav,audio/Narrative8Situation6.wav,audio/Narrative5Situation6.wav,audio/Narrative6Situation6.wav,3,2,3,2,,,,,,,,,,,,,,,,,,,,,,,,,,,,,,,,,,,,,,,
,,,,,6714d7f42c208253099ac9d9,2025-07-07_22h00.51.254,group3.4_multiperson,2023.2.2,Win32,59.88023952,686c2ebf0248f13bef9af11f,686c7b90e99e7566aafa2ed4,,,,,,,,,,,,,,,,,,,,,,,,,,,,,790.0876,2,audio/Narrative6Situation7.wav,795.0953,,795.0953,819.9684,"[[82.1,3090],[82.1,3166],[82.1,3249],[82.1,3340],[82.2,3416],[83.5,3507],[83.5,3590],[83.7,3673],[83.7,3749],[83.7,3833],[83.7,3916],[83.7,3999],[83.7,4083],[83.7,4166],[83.7,4249],[83.7,4340],[83.7,4416],[83.7,4499],[83.7,4583],[83.7,4666],[83.7,4749],[83.7,4833],[83.7,4916],[83.7,4999],[83.7,5083],[83.7,5173],[83.7,5249],[83.7,5333],[83.7,5416],[83.7,5499],[83.7,5590],[83.7,5673],[83.7,5749],[83.7,5832],[83.7,5923],[83.7,5999],[83.7,6090],[83.7,6166],[83.7,6257],[83.7,6332],[83.7,6416],[83.7,6499],[83.7,6582],[83.7,6673],[83.7,6749],[83.7,6833],[83.7,6916],[83.7,7006],[83.7,7083],[83.7,7166],[83.7,7249],[83.7,7340],[83.7,7416],[83.7,7506],[83.7,7583],[83.7,7666],[83.7,7749],[83.7,7833],[83.7,7916],[83.7,7999],[83.7,8083],[83.7,8173],[83.7,8249],[83.7,8332],[83.7,8423],[83.7,8500],[83.7,8582],[83.7,8666],[83.7,8749],[83.7,8839],[83.7,8916],[83.7,8999],[83.7,9082],[83.7,9166],[83.7,9249],[83.7,9340],[83.7,9416],[83.7,9506],[83.7,9589],[83.7,9666],[83.7,9753],[83.7,9839],[83.7,9920],[83.7,10006],[83.7,10082],[83.7,10166],[83.7,10249],[83.7,10340],[83.7,10423],[83.7,10499],[83.7,10582],[83.7,10673],[83.7,10749],[83.7,10840],[83.7,10923],[83.7,11006],[83.7,11082],[83.7,11166],[83.7,11256],[83.7,11340],[83.7,11416],[83.7,11499],[83.7,11589],[83.7,11666],[83.7,11753],[83.7,11832],[83.7,11916],[83.7,12006],[83.7,12082],[83.7,12166],[83.7,12249],[83.7,12332],[83.7,12416],[83.7,12499],[83.7,12582],[83.7,12666],[83.7,12756],[83.7,12832],[83.7,12916],[83.7,12999],[83.7,13082],[83.7,13166],[83.7,13249],[83.7,13339],[83.7,13416],[83.7,13499],[83.7,13589],[83.7,13673],[83.7,13756],[83.7,13832],[83.7,13916],[83.7,14006],[83.7,14082],[83.7,14166],[83.7,14249],[83.7,14332],[83.7,14423],[83.7,14499],[83.7,14582],[83.7,14666],[83.7,14756],[83.7,14840],[83.7,14916],[83.7,15006],[83.7,15082],[83.7,15173],[83.7,15249],[83.7,15332],[83.7,15416],[83.7,15499],[83.7,15582],[83.7,15666],[83.7,15749],[83.7,15840],[83.7,15916],[83.7,15999],[83.7,16090],[83.7,16166],[83.7,16249],[83.7,16332],[83.7,16416],[83.7,16499],[83.7,16582],[83.7,16666],[83.7,16749],[83.7,16840],[83.7,16916],[83.7,16999],[83.7,17082],[83.7,17173],[83.7,17255],[83.7,17332],[83.7,17415],[83.7,17499],[83.7,17582],[83.7,17665],[83.7,17749],[83.7,17837],[83.7,17916],[83.7,17999],[83.7,18089],[83.7,18173],[83.7,18249],[83.7,18332],[83.7,18423],[83.7,18499],[83.7,18582],[83.7,18672],[83.7,18749],[83.7,18832],[83.7,18915],[83.7,18999],[83.7,19082],[83.7,19166],[83.7,19249],[83.7,19332],[83.7,19416],[83.7,19499],[83.7,19582],[83.7,19670],[83.7,19749],[83.7,19837],[83.7,19915],[83.7,20006],[83.7,20082],[83.7,20166],[83.7,20249],[83.7,20332],[83.7,20415],[83.7,20499],[83.7,20589],[83.7,20666],[83.7,20749],[83.7,20840],[83.7,20916],[83.7,20999],[83.7,21089],[83.7,21173],[83.7,21249],[83.7,21339],[83.7,21415],[83.7,21499],[83.7,21582],[83.7,21673],[83.7,21756],[83.7,21832],[83.7,21916],[83.7,21999],[83.7,22082],[83.7,22165],[83.7,22249],[83.7,22332],[83.7,22416],[83.7,22499],[83.7,22582],[83.7,22665],[83.7,22749],[83.7,22832],[83.7,22915],[83.7,22999],[83.7,23089],[83.7,23173],[83.7,23249],[83.7,23332],[83.7,23415],[83.7,23499],[83.7,23582],[83.7,23665],[83.7,23749],[83.7,23832],[83.7,23923],[83.7,24006],[83.7,24089],[83.7,24165],[83.7,24249],[83.7,24332],[83.7,24415],[83.7,24499],[83.7,24589],[83.7,24673],[83.7,24749],[83.7,24832]]",819.9685,825.6184,100,3.8068,"[{""rating"":100,""responseTime"":3.806799999982104}]",space,5.1065,,825.6184,Partially,50,825.6198,,,[],,0,7,7,7,1,audio/Narrative7Situation7.wav,audio/Narrative8Situation7.wav,audio/Narrative5Situation7.wav,audio/Narrative6Situation7.wav,5,3,4,5,,,,,,,,,,,,,,,,,,,,,,,,,,,,,,,,,,,,,,,
,,,,,6714d7f42c208253099ac9d9,2025-07-07_22h00.51.254,group3.4_multiperson,2023.2.2,Win32,59.88023952,686c2ebf0248f13bef9af11f,686c7b90e99e7566aafa2ed4,,,,,,,,,,,,,,,,,,,,,,,,,,,,,825.62,2,audio/Narrative6Situation8.wav,830.6274,,830.6274,837.4773,"[[999,0],[999,83],[999,175],[999,250],[999,340],[999,416],[999,499],[999,583],[999,666],[999,757],[999,833],[999,916],[999,1000],[999,1083],[999,1166],[999,1250],[999,1340],[999,1416],[999,1499],[999,1590],[999,1666],[999,1757],[999,1833],[999,1916],[999,2000],[999,2083],[999,2166],[999,2254],[999,2338],[999,2416],[999,2500],[999,2583],[999,2666],[999,2749],[999,2833],[999,2923],[999,2999],[999,3090],[999,3170],[999,3249],[999,3333],[999,3423],[999,3504],[999,3583],[999,3666],[999,3757],[999,3833],[999,3916],[999,4005],[999,4083],[999,4166],[999,4249],[999,4340],[999,4423],[999,4507],[999,4583],[999,4673],[999,4749],[999,4833],[999,4916],[999,4999],[999,5083],[999,5166],[999,5257],[999,5333],[999,5416],[999,5499],[999,5583],[999,5666],[999,5749],[999,5832],[999,5916],[999,5999],[999,6083],[999,6166],[999,6249],[999,6340],[999,6423],[999,6499],[999,6583],[999,6666],[999,6749],[999,6833]]",837.4774,841.2436,95.3125,2.5734,"[{""rating"":95.3125,""responseTime"":2.5734000000060178}]",space,3.2038,,841.2436,Partially,50,841.2444,,,[],,0,8,8,8,1,audio/Narrative7Situation8.wav,audio/Narrative8Situation8.wav,audio/Narrative5Situation8.wav,audio/Narrative6Situation8.wav,2,3,3,5,,,,,,,,,,,,,,,,,,,,,,,,,,,,,,,,,,,,,,,
,,,,,6714d7f42c208253099ac9d9,2025-07-07_22h00.51.254,group3.4_multiperson,2023.2.2,Win32,59.88023952,686c2ebf0248f13bef9af11f,686c7b90e99e7566aafa2ed4,,,,,,,,,,,,,,,,,,,,,,,,,,,,,841.2445,2,audio/Narrative6Situation9.wav,845.2602,,845.2603,855.2339,[],855.234,861.6099,50.15625,2.6315,"[{""rating"":50.15625,""responseTime"":2.63149999999996}]",space,5.8409,,861.61,Definitely yes,100,861.6117,,,[],,0,9,9,9,1,audio/Narrative7Situation9.wav,audio/Narrative8Situation9.wav,audio/Narrative5Situation9.wav,audio/Narrative6Situation9.wav,2,3,3,4,,,,,,,,,,,,,,,,,,,,,,,,,,,,,,,,,,,,,,,
,,,,,6714d7f42c208253099ac9d9,2025-07-07_22h00.51.254,group3.4_multiperson,2023.2.2,Win32,59.88023952,686c2ebf0248f13bef9af11f,686c7b90e99e7566aafa2ed4,,,,,,,,,,,,,,,,,,,,,,,,,,,,,861.6119,2,audio/Narrative5Situation1.wav,866.6262,,866.6263,879.9483,"[[49.8,1340],[49.8,1416],[49.8,1499],[49.8,1590],[49.8,1666],[49.8,1749],[49.8,1832],[49.8,1916],[49.8,1999],[49.8,2083],[49.8,2166],[49.8,2249],[49.8,2333],[49.8,2423],[49.8,2499],[49.8,2583],[49.8,2673],[49.8,2749],[49.8,2832],[49.8,2916],[49.8,2999],[49.8,3090],[49.8,3166],[49.8,3249],[49.8,3332],[49.8,3423],[49.8,3507],[49.8,3583],[49.8,3666],[49.8,3754],[49.8,3833],[49.8,3916],[49.8,4000],[49.8,4083],[49.8,4166],[49.8,4249],[49.8,4333],[49.8,4416],[49.8,4499],[49.8,4583],[49.8,4666],[49.8,4749],[49.8,4840],[49.8,4923],[49.8,4999],[49.8,5083],[49.8,5173],[49.8,5256],[49.8,5332],[49.8,5416],[49.8,5499],[49.8,5583],[49.8,5666],[49.8,5749],[49.8,5832],[49.8,5922],[49.8,6000],[49.8,6082],[49.8,6166],[49.8,6256],[49.8,6332],[49.8,6416],[49.8,6507],[49.8,6583],[49.8,6673],[49.8,6749],[49.8,6840],[49.8,6916],[49.8,6999],[49.8,7089],[49.8,7166],[49.8,7249],[49.8,7333],[49.8,7416],[49.8,7499],[49.8,7587],[49.8,7666],[49.8,7756],[49.8,7832],[49.8,7923],[49.8,8006],[49.8,8083],[49.8,8166],[49.8,8249],[49.8,8332],[49.8,8416],[49.8,8499],[49.8,8583],[49.8,8673],[49.8,8749],[49.8,8832],[49.8,8923],[49.8,8999],[49.8,9082],[49.8,9173],[49.8,9249],[49.8,9332],[49.8,9416],[49.8,9499],[49.8,9589],[49.8,9673],[49.8,9749],[49.8,9832],[49.8,9916],[49.8,9999],[49.8,10082],[49.8,10166],[49.8,10256],[49.8,10333],[49.8,10416],[49.8,10499],[49.8,10582],[49.8,10666],[49.8,10749],[49.8,10832],[49.8,10916],[49.8,10999],[49.8,11082],[49.8,11166],[49.8,11249],[49.8,11332],[49.8,11416],[49.8,11499],[49.8,11582],[49.8,11666],[49.8,11755],[49.8,11832],[49.8,11916],[49.8,11999],[49.8,12082],[49.8,12165],[49.8,12249],[49.8,12332],[49.8,12416],[49.8,12499],[49.8,12582],[49.8,12665],[49.8,12749],[49.8,12838],[49.8,12916],[49.8,13006],[49.8,13082],[49.8,13166],[49.8,13249]]",879.9483,885.2756,100,2.5742,"[{""rating"":99.58333969116211,""responseTime"":2.05130000001202},{""rating"":100,""responseTime"":2.5742000000179814}]",space,4.7868,,885.2757,Partially,50,885.2767,,,[],,0,10,10,10,1,audio/Narrative8Situation1.wav,audio/Narrative7Situation1.wav,audio/Narrative6Situation1.wav,audio/Narrative5Situation1.wav,5,2,2,5,,,,,,,,,,,,,,,,,,,,,,,,,,,,,,,,,,,,,,,
,,,,,6714d7f42c208253099ac9d9,2025-07-07_22h00.51.254,group3.4_multiperson,2023.2.2,Win32,59.88023952,686c2ebf0248f13bef9af11f,686c7b90e99e7566aafa2ed4,,,,,,,,,,,,,,,,,,,,,,,,,,,,,885.2768,2,audio/Narrative5Situation2.wav,888.2922,,888.2923,917.7751,"[[999,0],[999,83],[999,173],[999,249],[999,340],[999,416],[999,499],[999,583],[999,666],[999,749],[999,840],[999,923],[999,999],[999,1083],[999,1166],[999,1249],[999,1333],[999,1416],[999,1499],[999,1590],[999,1666],[999,1749],[999,1833],[999,1916],[999,1999],[999,2083],[999,2173],[999,2249],[999,2340],[999,2416],[999,2499],[999,2583],[999,2666],[999,2756],[999,2833],[999,2916],[999,2999],[999,3090],[999,3166],[999,3249],[999,3333],[999,3416],[999,3499],[999,3583],[999,3666],[999,3757],[999,3833],[999,3916],[999,4007],[999,4090],[999,4166],[999,4255],[999,4332],[999,4416],[999,4499],[999,4583],[999,4666],[999,4749],[999,4832],[999,4916],[999,4999],[999,5090],[999,5173],[999,5254],[999,5332],[999,5416],[999,5499],[999,5590],[999,5673],[999,5749],[999,5832],[999,5916],[999,5999],[999,6082],[999,6166],[999,6249],[999,6333],[999,6423],[999,6499],[999,6582],[999,6666],[999,6749],[999,6840],[999,6923],[999,7006],[999,7082],[999,7173],[999,7249],[999,7340],[999,7416],[999,7506],[999,7582],[999,7666],[999,7749],[999,7833],[999,7916],[999,8006],[999,8082],[999,8166],[999,8249],[999,8332],[999,8416],[999,8499],[999,8582],[999,8673],[999,8749],[999,8832],[999,8916],[999,8999],[999,9090],[999,9173],[999,9257],[999,9340],[999,9416],[999,9506],[999,9582],[999,9666],[999,9749],[999,9832],[999,9923],[999,9999],[999,10082],[999,10166],[999,10257],[999,10340],[999,10416],[999,10499],[999,10589],[999,10673],[999,10756],[999,10832],[999,10916],[999,10999],[999,11082],[999,11173],[999,11249],[999,11332],[999,11416],[999,11499],[999,11582],[999,11666],[999,11756],[999,11832],[999,11916],[999,11999],[999,12082],[999,12166],[999,12249],[999,12339],[999,12423],[999,12506],[999,12582],[999,12666],[999,12749],[999,12832],[999,12916],[999,13006],[999,13082],[999,13173],[999,13249],[999,13332],[999,13423],[999,13506],[999,13582],[999,13666],[999,13749],[999,13832],[999,13922],[999,14006],[999,14087],[999,14173],[999,14249],[999,14332],[999,14420],[999,14499],[999,14582],[999,14666],[999,14756],[999,14832],[999,14923],[999,14999],[999,15087],[999,15166],[999,15249],[999,15332],[999,15415],[999,15499],[999,15582],[999,15665],[999,15749],[999,15832],[999,15916],[999,16006],[999,16082],[999,16166],[999,16249],[999,16332],[999,16416],[999,16506],[999,16582],[999,16666],[999,16749],[999,16832],[999,16923],[999,17006],[999,17090],[999,17166],[999,17249],[999,17332],[999,17416],[999,17499],[999,17582],[999,17665],[999,17749],[999,17832],[999,17916],[999,17999],[999,18082],[999,18165],[999,18256],[999,18332],[999,18416],[999,18499],[999,18589],[999,18665],[999,18749],[999,18839],[999,18922],[999,19006],[999,19089],[999,19165],[999,19249],[999,19332],[999,19416],[999,19506],[999,19582],[999,19666],[999,19756],[999,19839],[999,19916],[999,20006],[999,20089],[999,20165],[999,20256],[999,20332],[999,20415],[999,20499],[999,20582],[999,20665],[999,20756],[999,20832],[999,20915],[999,20999],[999,21082],[999,21165],[999,21249],[999,21332],[999,21415],[999,21499],[999,21582],[999,21665],[999,21749],[999,21832],[999,21916],[999,21999],[999,22082],[999,22173],[999,22249],[999,22332],[999,22415],[999,22506],[999,22589],[999,22672],[999,22749],[999,22832],[999,22923],[999,22999],[999,23089],[999,23165],[999,23256],[999,23332],[999,23415],[999,23499],[999,23582],[999,23665],[999,23756],[999,23832],[999,23915],[999,23998],[999,24089],[999,24173],[999,24256],[999,24332],[999,24421],[999,24506],[999,24582],[999,24673],[999,24749],[999,24832],[999,24915],[999,25006],[999,25082],[999,25165],[999,25249],[999,25332],[999,25423],[999,25506],[999,25589],[999,25665],[999,25749],[999,25832],[999,25915],[999,25998],[999,26089],[999,26165],[999,26256],[999,26339],[999,26415],[999,26499],[999,26582],[999,26665],[999,26755],[999,26832],[999,26915],[999,26998],[999,27089],[999,27172],[999,27248],[999,27332],[999,27420],[999,27506],[999,27582],[999,27672],[999,27756],[999,27832],[999,27915],[999,28006],[999,28089],[69.4,28173],[71.5,28256],[78,28339],[79.3,28415],[79.7,28506],[79.7,28582],[80.7,28673],[84.8,28756],[85.6,28832],[85.6,28915],[85.6,29006],[85.6,29082],[85.6,29165],[85.6,29255],[85.4,29339],[84.8,29422]]",917.7752,921.8651,100,2.99,"[{""rating"":84.27083969116211,""responseTime"":1.2881999999880236},{""rating"":100,""responseTime"":2.990000000000009}]",space,3.5402,,921.8652,Not at all,0,921.8663,,,[],,0,11,11,11,1,audio/Narrative8Situation2.wav,audio/Narrative7Situation2.wav,audio/Narrative6Situation2.wav,audio/Narrative5Situation2.wav,3,3,3,3,,,,,,,,,,,,,,,,,,,,,,,,,,,,,,,,,,,,,,,
,,,,,6714d7f42c208253099ac9d9,2025-07-07_22h00.51.254,group3.4_multiperson,2023.2.2,Win32,59.88023952,686c2ebf0248f13bef9af11f,686c7b90e99e7566aafa2ed4,,,,,,,,,,,,,,,,,,,,,,,,,,,,,921.8665,2,audio/Narrative5Situation3.wav,924.8744,,924.8744,938.7981,"[[999,0],[999,90],[999,171],[999,250],[999,333],[999,423],[999,500],[999,583],[999,673],[999,749],[999,833],[999,923],[999,999],[999,1083],[999,1173],[999,1255],[999,1333],[999,1416],[999,1499],[999,1587],[999,1666],[999,1749],[999,1833],[999,1916],[999,1999],[999,2083],[999,2166],[999,2249],[999,2333],[999,2416],[999,2507],[999,2583],[999,2673],[999,2757],[999,2833],[999,2916],[999,2999],[999,3090],[999,3171],[999,3249],[999,3333],[999,3416],[999,3506],[999,3590],[999,3666],[999,3756],[999,3833],[999,3923],[999,4000],[999,4090],[999,4166],[999,4249],[999,4333],[999,4416],[999,4499],[999,4582],[999,4666],[999,4749],[999,4833],[999,4920],[999,4999],[999,5083],[999,5166],[999,5249],[999,5332],[999,5423],[999,5506],[999,5590],[999,5666],[999,5749],[999,5840],[999,5916],[999,5999],[999,6087],[999,6173],[999,6249],[999,6333],[999,6416],[999,6499],[999,6582],[999,6673],[999,6749],[999,6833],[999,6923],[999,6999],[999,7083],[999,7166],[999,7249],[999,7332],[999,7416],[999,7506],[999,7582],[999,7666],[999,7756],[999,7832],[999,7916],[999,7999],[999,8090],[999,8166],[999,8255],[999,8332],[999,8416],[999,8506],[999,8582],[999,8666],[999,8749],[999,8833],[999,8916],[999,9007],[999,9090],[999,9166],[999,9256],[999,9332],[999,9416],[999,9499],[999,9582],[999,9666],[999,9749],[999,9839],[999,9923],[999,10005],[999,10082],[999,10166],[999,10249],[999,10333],[999,10416],[999,10499],[999,10582],[999,10666],[999,10757],[999,10832],[999,10916],[999,11006],[999,11082],[999,11166],[999,11257],[999,11332],[999,11416],[999,11499],[999,11582],[999,11673],[999,11749],[999,11832],[999,11923],[999,11999],[999,12090],[999,12166],[999,12255],[999,12332],[999,12416],[999,12503],[999,12590],[999,12666],[999,12749],[999,12839],[999,12916],[999,13004],[999,13090],[999,13173],[999,13249],[999,13332],[999,13416],[999,13499],[999,13582],[999,13666],[999,13749],[999,13837],[999,13923]]",938.7982,941.7977,98.54166985,1.9678,"[{""rating"":98.54166984558105,""responseTime"":1.9678000000119482}]",space,2.4603,,941.7977,Partially,50,941.7987,,,[],,0,12,12,12,1,audio/Narrative8Situation3.wav,audio/Narrative7Situation3.wav,audio/Narrative6Situation3.wav,audio/Narrative5Situation3.wav,4,8,5,3,,,,,,,,,,,,,,,,,,,,,,,,,,,,,,,,,,,,,,,
,,,,,6714d7f42c208253099ac9d9,2025-07-07_22h00.51.254,group3.4_multiperson,2023.2.2,Win32,59.88023952,686c2ebf0248f13bef9af11f,686c7b90e99e7566aafa2ed4,,,,,,,,,,,,,,,,,,,,,,,,,,,,,941.7988,2,audio/Narrative5Situation4.wav,942.8117,,942.8118,963.1898,"[[999,0],[999,78],[999,161],[999,252],[999,328],[999,411],[999,495],[999,578],[999,662],[999,745],[999,835],[999,919],[999,995],[999,1086],[999,1161],[999,1245],[999,1328],[999,1411],[999,1502],[999,1578],[999,1661],[999,1745],[999,1835],[999,1918],[999,1995],[999,2085],[999,2161],[999,2245],[999,2328],[999,2416],[999,2495],[999,2578],[999,2661],[999,2745],[999,2828],[999,2911],[999,3002],[999,3078],[999,3168],[999,3245],[999,3328],[999,3411],[999,3495],[999,3578],[999,3661],[999,3745],[999,3828],[999,3911],[999,3995],[999,4085],[999,4168],[999,4252],[999,4336],[999,4419],[999,4502],[999,4578],[999,4661],[999,4745],[999,4835],[999,4911],[999,4995],[999,5078],[999,5161],[999,5252],[999,5328],[999,5411],[999,5495],[999,5578],[999,5661],[999,5745],[999,5828],[999,5918],[999,5995],[999,6085],[999,6161],[999,6252],[999,6328],[999,6416],[999,6502],[999,6578],[999,6661],[999,6745],[999,6835],[999,6919],[999,7002],[999,7078],[999,7161],[999,7245],[999,7328],[999,7411],[999,7502],[999,7578],[999,7661],[999,7744],[999,7828],[999,7911],[999,7995],[999,8078],[999,8168],[999,8250],[999,8328],[999,8411],[999,8494],[999,8578],[999,8661],[999,8752],[999,8828],[999,8911],[999,8994],[999,9085],[999,9168],[999,9244],[999,9328],[999,9411],[999,9495],[999,9578],[999,9661],[999,9744],[999,9828],[999,9919],[999,9995],[999,10085],[999,10161],[999,10252],[999,10328],[999,10411],[999,10494],[999,10578],[999,10661],[999,10744],[999,10828],[999,10911],[999,10995],[999,11085],[999,11166],[999,11245],[999,11328],[999,11418],[999,11494],[999,11585],[999,11661],[999,11744],[999,11828],[999,11911],[999,11994],[999,12078],[999,12168],[999,12252],[999,12328],[999,12411],[999,12494],[999,12578],[999,12661],[999,12744],[999,12828],[999,12911],[999,12994],[999,13077],[999,13161],[999,13244],[999,13328],[999,13411],[999,13494],[999,13578],[999,13661],[999,13744],[999,13828],[999,13911],[999,14000],[999,14078],[999,14161],[999,14244],[999,14328],[999,14411],[999,14494],[999,14578],[999,14668],[999,14744],[999,14835],[999,14911],[999,15002],[999,15078],[999,15161],[999,15244],[999,15328],[999,15411],[999,15494],[999,15584],[999,15668],[999,15745],[999,15835],[999,15911],[999,15994],[999,16078],[999,16168],[999,16245],[999,16328],[999,16411],[999,16494],[999,16577],[999,16668],[999,16744],[999,16827],[999,16918],[999,16994],[999,17077],[999,17161],[999,17251],[999,17335],[999,17411],[999,17502],[999,17577],[999,17661],[999,17751],[999,17828],[999,17911],[999,17994],[999,18077],[999,18168],[999,18244],[999,18328],[999,18411],[999,18494],[999,18578],[999,18661],[999,18751],[999,18827],[999,18918],[999,18994],[999,19077],[999,19168],[999,19244],[999,19335],[999,19411],[999,19494],[999,19577],[999,19661],[999,19744],[999,19827],[999,19918],[999,20001],[999,20077],[999,20161],[999,20244],[999,20335]]",963.1898,966.5637,96.92708969,1.7552,"[{""rating"":96.92708969116211,""responseTime"":1.7551999999881218}]",space,2.8349,,966.5637,Definitely yes,100,966.565,,,[],,0,13,13,13,1,audio/Narrative8Situation4.wav,audio/Narrative7Situation4.wav,audio/Narrative6Situation4.wav,audio/Narrative5Situation4.wav,3,3,2,1,,,,,,,,,,,,,,,,,,,,,,,,,,,,,,,,,,,,,,,
,,,,,6714d7f42c208253099ac9d9,2025-07-07_22h00.51.254,group3.4_multiperson,2023.2.2,Win32,59.88023952,686c2ebf0248f13bef9af11f,686c7b90e99e7566aafa2ed4,,,,,,,,,,,,,,,,,,,,,,,,,,,,,966.5652,2,audio/Narrative5Situation5.wav,971.5731,,971.5731,987.0057,"[[999,0],[999,82],[999,166],[999,249],[999,332],[999,416],[999,499],[999,582],[999,666],[999,749],[999,832],[999,916],[999,999],[999,1082],[999,1166],[999,1249],[999,1332],[999,1416],[999,1499],[999,1583],[999,1666],[999,1749],[999,1832],[999,1916],[999,1999],[999,2082],[999,2166],[999,2249],[999,2333],[999,2416],[999,2499],[999,2582],[999,2666],[999,2749],[999,2832],[999,2916],[999,2999],[999,3082],[999,3166],[999,3249],[999,3333],[999,3416],[999,3499],[999,3582],[999,3666],[999,3749],[999,3832],[999,3916],[999,3999],[999,4082],[999,4166],[999,4249],[999,4332],[999,4416],[999,4499],[999,4582],[999,4666],[999,4749],[999,4832],[999,4916],[999,4999],[999,5082],[999,5166],[999,5249],[999,5332],[999,5416],[999,5499],[999,5582],[999,5666],[999,5749],[999,5832],[999,5916],[999,5999],[999,6083],[999,6166],[999,6249],[999,6332],[999,6416],[999,6499],[999,6582],[999,6666],[999,6749],[999,6832],[999,6916],[999,6999],[999,7082],[999,7166],[999,7249],[999,7332],[999,7416],[999,7499],[999,7582],[999,7666],[999,7749],[999,7832],[999,7916],[999,7999],[999,8082],[999,8166],[999,8249],[999,8332],[999,8416],[999,8499],[999,8582],[999,8666],[999,8749],[999,8832],[999,8916],[999,8999],[999,9082],[999,9166],[999,9249],[999,9332],[999,9416],[999,9499],[999,9582],[999,9665],[999,9749],[999,9832],[999,9916],[999,9999],[999,10082],[999,10166],[999,10249],[999,10332],[999,10416],[999,10499],[999,10582],[999,10666],[999,10749],[999,10832],[999,10916],[999,10999],[999,11082],[999,11166],[999,11249],[999,11332],[999,11416],[999,11499],[999,11582],[999,11665],[999,11749],[999,11832],[999,11916],[999,11999],[999,12082],[999,12165],[999,12249],[999,12332],[999,12415],[999,12499],[999,12582],[999,12666],[999,12749],[999,12832],[999,12915],[999,12999],[999,13082],[999,13165],[999,13249],[999,13332],[999,13415],[999,13499],[999,13582],[999,13666],[999,13749],[999,13832],[999,13915],[999,13999],[999,14082],[999,14166],[999,14249],[999,14332],[999,14415],[999,14499],[999,14582],[999,14665],[999,14749],[999,14832],[999,14915],[999,14999],[999,15082],[999,15165],[999,15249],[999,15332],[999,15415]]",987.0057,991.0221,52.29166985,2.6219,"[{""rating"":52.291669845581055,""responseTime"":2.621900000005894}]",space,3.4952,,991.0222,Not at all,0,991.0235,,,[],,0,14,14,14,1,audio/Narrative8Situation5.wav,audio/Narrative7Situation5.wav,audio/Narrative6Situation5.wav,audio/Narrative5Situation5.wav,2,5,2,5,,,,,,,,,,,,,,,,,,,,,,,,,,,,,,,,,,,,,,,
,,,,,6714d7f42c208253099ac9d9,2025-07-07_22h00.51.254,group3.4_multiperson,2023.2.2,Win32,59.88023952,686c2ebf0248f13bef9af11f,686c7b90e99e7566aafa2ed4,,,,,,,,,,,,,,,,,,,,,,,,,,,,,991.0236,2,audio/Narrative5Situation6.wav,994.0388,,994.0388,999.7218,[],999.7218,1003.0716,99.63541985,2.3457,"[{""rating"":99.63541984558105,""responseTime"":2.3457000000179278}]",space,2.8161,,1003.0716,Definitely yes,100,1003.0727,,,[],,0,15,15,15,1,audio/Narrative8Situation6.wav,audio/Narrative7Situation6.wav,audio/Narrative6Situation6.wav,audio/Narrative5Situation6.wav,2,3,2,3,,,,,,,,,,,,,,,,,,,,,,,,,,,,,,,,,,,,,,,
,,,,,6714d7f42c208253099ac9d9,2025-07-07_22h00.51.254,group3.4_multiperson,2023.2.2,Win32,59.88023952,686c2ebf0248f13bef9af11f,686c7b90e99e7566aafa2ed4,,,,,,,,,,,,,,,,,,,,,,,,,,,,,1003.0728,2,audio/Narrative5Situation7.wav,1007.0884,,1007.0884,1028.1376,[],1028.1376,1032.604,99.27083969,3.2412,"[{""rating"":99.27083969116211,""responseTime"":3.2411999999878844}]",space,3.9226,,1032.604,Not at all,0,1032.6053,,,[],,0,16,16,16,1,audio/Narrative8Situation7.wav,audio/Narrative7Situation7.wav,audio/Narrative6Situation7.wav,audio/Narrative5Situation7.wav,3,5,5,4,,,,,,,,,,,,,,,,,,,,,,,,,,,,,,,,,,,,,,,
,,,,,6714d7f42c208253099ac9d9,2025-07-07_22h00.51.254,group3.4_multiperson,2023.2.2,Win32,59.88023952,686c2ebf0248f13bef9af11f,686c7b90e99e7566aafa2ed4,,,,,,,,,,,,,,,,,,,,,,,,,,,,,1032.6055,2,audio/Narrative5Situation8.wav,1035.6207,,1035.6207,1044.4538,[],1044.4538,1053.3702,99.73958969,7.1916,"[{""rating"":99.73958969116211,""responseTime"":7.191600000023982}]",space,8.3666,,1053.3702,Partially,50,1053.3714,,,[],,0,17,17,17,1,audio/Narrative8Situation8.wav,audio/Narrative7Situation8.wav,audio/Narrative6Situation8.wav,audio/Narrative5Situation8.wav,3,2,5,3,,,,,,,,,,,,,,,,,,,,,,,,,,,,,,,,,,,,,,,
,,,,,6714d7f42c208253099ac9d9,2025-07-07_22h00.51.254,group3.4_multiperson,2023.2.2,Win32,59.88023952,686c2ebf0248f13bef9af11f,686c7b90e99e7566aafa2ed4,,,,,,,,,,,,,,,,,,,,,,,,,,,,,1053.3715,2,audio/Narrative5Situation9.wav,1056.3866,,1056.3866,1095.9188,"[[999,0],[999,83],[999,166],[999,249],[999,333],[999,416],[999,500],[999,583],[999,666],[999,750],[999,833],[999,916],[999,1000],[999,1083],[999,1166],[999,1249],[999,1333],[999,1416],[999,1500],[999,1583],[999,1666],[999,1749],[999,1833],[999,1916],[999,1999],[999,2083],[999,2166],[999,2249],[999,2333],[999,2416],[999,2500],[999,2583],[999,2666],[999,2749],[999,2833],[999,2916],[999,2999],[999,3083],[999,3166],[999,3249],[999,3333],[999,3416],[999,3500],[999,3583],[999,3666],[999,3749],[999,3833],[999,3916],[999,3999],[999,4083],[999,4166],[999,4250],[999,4333],[999,4416],[999,4499],[999,4583],[999,4666],[999,4749],[999,4833],[999,4916],[999,5000],[999,5083],[999,5166],[999,5249],[999,5333],[999,5416],[999,5499],[999,5583],[999,5666],[999,5749],[999,5833],[999,5916],[999,5999],[999,6083],[999,6166],[999,6249],[999,6333],[999,6416],[999,6499],[999,6583],[999,6666],[999,6749],[999,6833],[999,6916],[999,6999],[999,7083],[999,7166],[999,7249],[999,7333],[999,7416],[999,7499],[999,7583],[999,7666],[999,7749],[999,7833],[999,7916],[999,8000],[999,8083],[999,8166],[999,8249],[999,8333],[999,8416],[999,8499],[999,8582],[999,8666],[999,8749],[999,8833],[999,8916],[999,8999],[999,9083],[999,9166],[999,9249],[999,9332],[999,9416],[999,9499],[999,9582],[999,9666],[999,9749],[999,9832],[999,9916],[999,9999],[999,10083],[999,10166],[999,10249],[999,10333],[999,10416],[999,10499],[999,10583],[999,10666],[999,10750],[999,10832],[999,10916],[999,10999],[999,11082],[999,11166],[999,11249],[999,11332],[999,11416],[999,11499],[999,11583],[999,11666],[999,11749],[999,11832],[999,11916],[999,11999],[999,12082],[999,12166],[999,12249],[999,12332],[999,12416],[999,12499],[999,12582],[999,12666],[999,12750],[999,12832],[999,12916],[999,12999],[999,13082],[999,13166],[999,13249],[999,13332],[999,13416],[999,13499],[999,13582],[999,13666],[999,13749],[999,13832],[999,13916],[999,13999],[999,14082],[999,14166],[999,14249],[999,14332],[999,14416],[999,14499],[999,14582],[999,14666],[999,14749],[999,14832],[999,14916],[999,14999],[999,15082],[999,15166],[999,15249],[999,15332],[999,15416],[999,15499],[999,15582],[999,15666],[999,15749],[999,15832],[999,15916],[999,15999],[999,16082],[999,16166],[999,16249],[999,16333],[999,16416],[999,16499],[999,16582],[999,16666],[999,16749],[999,16832],[999,16916],[999,16999],[999,17082],[999,17166],[999,17249],[999,17332],[999,17416],[999,17499],[999,17582],[999,17666],[999,17749],[999,17832],[999,17916],[999,17999],[999,18082],[999,18166],[999,18249],[999,18332],[999,18416],[999,18499],[999,18582],[999,18666],[999,18749],[999,18832],[999,18916],[999,18999],[999,19082],[999,19165],[999,19249],[999,19332],[999,19416],[999,19499],[999,19582],[999,19666],[999,19749],[999,19832],[999,19916],[999,19999],[999,20082],[999,20166],[999,20249],[999,20332],[999,20416],[999,20499],[999,20582],[999,20666],[999,20749],[999,20832],[999,20916],[999,20999],[999,21082],[999,21165],[999,21249],[999,21332],[999,21416],[999,21499],[999,21582],[999,21665],[999,21749],[999,21832],[999,21916],[999,21999],[999,22082],[999,22165],[999,22249],[999,22332],[999,22415],[999,22499],[999,22582],[999,22665],[999,22749],[999,22832],[999,22915],[999,22999],[999,23082],[999,23165],[999,23249],[999,23332],[999,23415],[999,23499],[999,23582],[999,23665],[999,23749],[999,23832],[999,23916],[999,23999],[999,24082],[999,24165],[999,24249],[999,24332],[999,24415],[999,24499],[999,24582],[999,24665],[999,24749],[999,24832],[999,24915],[999,24999],[999,25082],[999,25165],[999,25249],[999,25332],[999,25415],[999,25499],[999,25582],[999,25665],[999,25749],[999,25832],[999,25915],[999,25999],[999,26082],[999,26165],[999,26249],[999,26332],[999,26415],[999,26499],[999,26582],[999,26665],[999,26749],[999,26832],[999,26915],[999,26999],[999,27082],[999,27165],[999,27249],[999,27332],[999,27415],[999,27499],[999,27582],[999,27665],[999,27749],[999,27832],[999,27915],[999,27999],[999,28082],[999,28165],[999,28249],[999,28332],[999,28415],[999,28499],[999,28582],[999,28665],[999,28749],[999,28832],[999,28915],[999,28999],[999,29082],[999,29165],[999,29249],[999,29332],[999,29415],[999,29499],[999,29582],[999,29665],[999,29749],[999,29832],[999,29915],[999,29999],[999,30082],[999,30165],[999,30249],[999,30332],[999,30415],[999,30499],[999,30582],[999,30665],[999,30749],[999,30832],[999,30915],[999,30999],[999,31082],[999,31165],[999,31249],[999,31332],[999,31415],[999,31499],[999,31582],[999,31665],[999,31749],[999,31832],[999,31915],[999,31998],[999,32082],[999,32165],[999,32249],[999,32332],[999,32415],[999,32498],[999,32582],[999,32665],[999,32749],[999,32832],[999,32915],[999,32999],[999,33082],[999,33165],[999,33249],[999,33332],[999,33415],[999,33499],[999,33582],[999,33665],[999,33748],[999,33832],[999,33915],[999,33999],[999,34082],[999,34165],[999,34248],[999,34332],[999,34415],[999,34499],[999,34582],[999,34665],[999,34749],[999,34832],[999,34915],[999,34998],[999,35082],[999,35165],[999,35249],[999,35332],[999,35415],[999,35498],[999,35582],[999,35665],[999,35748],[999,35832],[999,35915],[999,35998],[999,36082],[999,36165],[999,36249],[999,36332],[999,36415],[999,36498],[999,36582],[999,36665],[999,36748],[999,36832],[999,36915],[999,36998],[999,37082],[999,37165],[999,37248],[999,37331],[999,37415],[999,37498],[999,37582],[999,37665],[999,37748],[999,37832],[999,37915],[999,37998],[999,38082],[999,38165],[999,38248],[999,38332],[999,38415],[999,38498],[999,38582],[999,38665],[999,38748],[999,38832],[999,38915],[999,38999],[999,39081],[999,39165],[999,39248],[999,39332],[999,39415],[999,39498]]",1095.9189,1099.0853,96.92708969,1.7312,"[{""rating"":96.92708969116211,""responseTime"":1.7311999999878935}]",space,2.616,,1099.0853,Not at all,0,1099.0866,,,[],,0,18,18,18,1,audio/Narrative8Situation9.wav,audio/Narrative7Situation9.wav,audio/Narrative6Situation9.wav,audio/Narrative5Situation9.wav,3,2,4,3,,,,,,,,,,,,,,,,,,,,,,,,,,,,,,,,,,,,,,,
,,,,,6714d7f42c208253099ac9d9,2025-07-07_22h00.51.254,group3.4_multiperson,2023.2.2,Win32,59.88023952,686c2ebf0248f13bef9af11f,686c7b90e99e7566aafa2ed4,,,,,,,,,,,,,,,,,,,,,,,,,,,,,,,,,,,,,,,,,,,,,,,,,,,,,,,,,,,,,,,,,,,,,,1099.0868,1100.7687,space,1.1546,,1100.7689,1107.5186,space,6.417,,,,,,,,,,,,,,,,,,,,,,,,,,
,,,,,6714d7f42c208253099ac9d9,2025-07-07_22h00.51.254,group3.4_multiperson,2023.2.2,Win32,59.88023952,686c2ebf0248f13bef9af11f,686c7b90e99e7566aafa2ed4,,,,,,,,,,,,,,,,,,,,,,,,,,,,,1110.1078,1,audio/Narrative7Situation9.wav,1112.1182,,,,,1143.9673,1160.9074,49.84375,15.1728,"[{""rating"":49.84375,""responseTime"":15.172800000011875}]",space,16.4032,,1160.9074,Definitely yes,100,1160.9086,,,[],,,,,,,,,,,2,2,2,2,,,,,,,,,,,,,,,1107.5195,1110.1018,1112.1184,3,1143.9673,"[[99.4,17082],[99.2,17166],[95.6,17249],[91.3,17332],[87.6,17415],[73.5,17499],[59.8,17582],[44.7,17665],[36,17749],[34.3,17832],[31.1,17915],[22.8,17999],[63.9,23582],[57.2,23665],[47.4,23749],[45.1,23832],[45.1,23915],[45.1,23999],[45.3,24082],[46.4,24165],[47.2,24249],[48.1,24332],[48.9,24415],[49,24499],[49.3,24582],[49.3,24665],[49.3,24749],[49.3,24832],[49.4,24915],[49.5,24999],[49.5,25082],[49.5,25165],[49.5,25249],[49.5,25332],[49.5,25415],[49.5,25499],[49.5,25582],[49.5,25665],[49.5,25749],[49.5,25832],[49.5,25915],[49.5,25999],[49.5,26082],[49.5,26165],[49.5,26248],[49.5,26332],[49.5,26415],[49.5,26499],[49.5,26582],[49.5,26665],[49.5,26749],[49.5,26832],[49.5,26915],[49.5,26999],[49.5,27082],[49.5,27165],[49.5,27248],[49.5,27332],[49.5,27415],[49.5,27498],[49.5,27582],[49.7,27665],[49.7,27749],[49.7,27832],[49.7,27915],[49.7,27999],[49.7,28082],[49.7,28165],[49.7,28249],[49.7,28332],[49.7,28415],[49.7,28498],[49.7,28582],[49.7,28665],[49.7,28749],[49.7,28832],[49.7,28915],[49.7,28999],[49.7,29082],[49.7,29165],[49.7,29248],[49.7,29332],[49.7,29415],[49.7,29498],[49.7,29582],[49.7,29665],[49.7,29748],[49.7,29832],[49.7,29915],[49.7,29998],[49.7,30082],[49.7,30165],[49.7,30249],[49.7,30332],[49.7,30415],[49.7,30498],[49.7,30582],[49.7,30665],[49.7,30748],[49.7,30832],[49.7,30915],[49.7,30998],[49.7,31083],[49.7,31165],[49.7,31248],[49.7,31332],[49.7,31415],[49.7,31498],[49.7,31582],[49.7,31665],[49.7,31748],[49.7,31832]]",0,0,0,0,1,"Larry had recently lost his family, job and home, and was now living on his own in the park. He had most of his belongings, including some clothes, a blanket, and his mother’s special necklace. His family had been very important to him and he felt as though he did not have much going for him. One of his first days in the park he came across a family that did not have much food and looked very cold. He decided to give them some of his food and his blanket.","Larry had recently lost his family, job and home, and was now living on his own in the park. He had most of his belongings, including some clothes, a blanket, and his mother’s special necklace. His family had been very important to him and he felt as though he did not have much going for him. One of his first days in the park he came across a family that did not have much food and looked very cold. He decided to give them some of his food and his blanket.","Larry had recently lost his family, job and home, and was now living on his own in the park. He had most of his belongings, including some clothes, a blanket, and his mother’s special necklace. His family had been very important to him and he felt as though he did not have much going for him. One of his first days in the park he came across a family that did not have much food and looked very cold. He decided to give them some of his food and his blanket.","Larry had recently lost his family, job and home, and was now living on his own in the park. He had most of his belongings, including some clothes, a blanket, and his mother’s special necklace. His family had been very important to him and he felt as though he did not have much going for him. One of his first days in the park he came across a family that did not have much food and looked very cold. He decided to give them some of his food and his blanket.",,,,,,,,,,
,,,,,6714d7f42c208253099ac9d9,2025-07-07_22h00.51.254,group3.4_multiperson,2023.2.2,Win32,59.88023952,686c2ebf0248f13bef9af11f,686c7b90e99e7566aafa2ed4,,,,,,,,,,,,,,,,,,,,,,,,,,,,,1160.9087,1,audio/Narrative7Situation9.wav,1165.7832,space,,,,1189.6824,1193.3821,54.16666985,1.9058,"[{""rating"":54.16666984558105,""responseTime"":1.9057999999822641}]",space,3.1582,,1193.3821,Partially,50,1193.3833,,,[],,,,,,,,,,,6,2,3,9,4.856,,,,,,,,,,,,,,,,1165.7832,3,1189.6824,"[[49.7,507],[49.7,583],[49.7,666],[49.7,750],[49.4,840],[49.4,916],[49.4,999],[49.4,1090],[49.4,1166],[49.4,1257],[49.4,1340],[49.5,1423],[49.5,1506],[49.5,1583],[49.5,1666],[49.5,1757],[49.5,1840],[49.5,1923],[49.5,2007],[49.5,2083],[49.5,2166],[49.4,2257],[49.4,2333],[49.4,2423],[49.4,2499],[49.4,2583],[49.4,2672],[49.4,2749],[49.4,2840],[49.4,2916],[49.4,2999],[49.4,3090],[49.2,3173],[49.1,3249],[49.1,3340],[49.1,3416],[49.1,3505],[49.1,3583],[49.1,3666],[49.2,3749],[49.2,3833],[50.1,3924],[50.1,3999],[50.1,4083],[50.1,4166],[50.1,4256],[50.1,4333],[50.1,4416],[50.1,4506],[50.1,4583],[50.1,4670],[50.1,4757],[50.1,4833],[50.1,4916],[50.1,4999],[50.1,5087],[50.1,5166],[50.1,5249],[50.1,5333],[50.1,5421],[50.1,5499],[50.1,5583],[50.1,5666],[50.1,5749],[50.1,5840],[50.1,5916],[50.1,6003],[50.1,6083],[50.1,6166],[50.1,6249],[50.1,6333],[50.1,6416],[50.1,6506],[50.1,6583],[50.1,6666],[50.1,6749],[50.1,6833],[50.1,6916],[50.1,6999],[50.1,7090],[50.1,7174],[50.1,7249],[50.1,7340],[50.1,7423],[50.1,7499],[50.1,7583],[50.1,7673],[50.1,7749],[50.2,7833],[50.2,7916],[50.2,7999],[50.2,8090],[50.2,8166],[50.2,8249],[50.2,8333],[50.2,8423],[50.2,8499],[50.2,8582],[50.2,8666],[50.2,8749],[50.2,8840],[50.2,8916],[50.2,8999],[50.2,9082],[50.2,9173],[50.2,9249],[52.4,9340],[77.8,9423],[100,9507],[100,9582],[100,9666],[100,9757],[100,9840],[100,9923],[89.9,10007],[89.7,10082],[89.8,10173],[95.8,10256],[100,10340],[100,10416],[100,10499],[100,10590],[100,10673],[100,10749],[100,10840],[100,10923],[100,10999],[100,11090],[100,11166],[100,11253],[100,11332],[100,11416],[100,11506],[100,11582],[100,11666],[100,11757],[100,11840],[100,11916],[100,12004],[100,12082],[100,12171],[100,12256],[100,12332],[100,12416],[100,12499],[100,12582],[100,12673],[100,12749],[100,12832],[100,12916],[100,12999],[100,13082],[100,13166],[100,13257],[100,13332],[100,13423],[100,13506],[100,13582],[100,13673],[100,13749],[100,13832],[100,13916],[100,13999],[100,14089],[100,14166],[100,14249],[100,14332],[100,14416],[100,14499],[100,14582],[100,14666],[100,14749],[100,14840],[100,14916],[100,14999],[100,15090],[100,15165],[40,15340],[37.7,15415],[37,15499],[32.7,15590],[30.6,15673],[5.9,17090],[24.1,17173],[32.5,17256],[33.8,17339],[36.5,17423],[39.2,17506],[43.1,17589],[45.3,17673],[45.3,17756],[45.3,17839],[45.6,17923],[47.3,18006],[52,18090],[52,18165],[52,18256],[52,18332],[52,18416],[52,18499],[52,18590],[52.6,18673],[70.3,18757],[96.8,18840],[100,18923],[100,19003],[100,19089],[100,19165],[100,19249],[100,19332],[100,19422],[100,19499],[100,19589],[100,19665],[100,19756],[100,19839],[100,19923],[99.3,20006],[99.3,20090],[99.3,20165],[99.3,20249],[99.2,20339],[99.1,20423],[99.1,20503],[99.1,20589],[99.1,20665],[99.1,20749],[95.9,20840],[79.7,20916],[67.4,21006],[61.3,21088],[52.3,21173],[47.4,21256],[47.4,21332],[47.4,21417],[47.4,21506],[47.7,21589],[48.6,21673],[49.2,21756],[49.4,21832],[49.4,21922],[49.4,21999],[49.4,22082],[49.4,22165],[49.4,22249],[49.4,22339],[49.4,22423],[49.4,22506],[49.4,22582],[49.4,22672],[49.4,22749],[49.4,22839],[49.4,22922],[49.4,22999],[49.4,23082],[49.4,23165],[49.4,23249],[49.4,23339],[49.4,23423],[49.4,23499],[49.4,23589],[49.4,23673],[49.4,23756],[49.4,23832]]",0,1,1,1,1,"It was just another Sunday afternoon for Lucy, she was on her way to the farmer's market to pick up some produce. When she arrived at the old train depot that housed the market, she noticed two men fighting on the steps. Before she could call for help, one of the men crumpled to his knees. The other man dropped an object that appeared to be a knife and ran off. When Lucy approached the crime scene she realized that the man who had been murdered was the Mayor and that he had a gunshot wound.","One day at work, Margaret walked up to her partner, Al, to ask him to talk to the chief of staff at the local hospital where she worked as a nurse.","Luke always thought of himself as an honest man. That's why during his evening jog around the swamp, he pondered his recent affair with the receptionist at work. Luke looked up at the sky and asked God why he was so weak and unfaithful. He thought of the impact this would have on his family and told God of his conflicted feelings toward telling his wife Marta.","Linda and Amy had been best friends since kindergarten, they even found homes on the same street in the forest on the edge of town. Their biggest fight had been over who gets the bigger slice of cake, until Amy married Dan. Linda loathed Dan, she thought he was manipulative and had a violent temper. She only put up with him because Amy loved him. ",,,,,,,,,,
,,,,,6714d7f42c208253099ac9d9,2025-07-07_22h00.51.254,group3.4_multiperson,2023.2.2,Win32,59.88023952,686c2ebf0248f13bef9af11f,686c7b90e99e7566aafa2ed4,,,,,,,,,,,,,,,,,,,,,,,,,,,,,1193.3834,1,audio/Narrative7Situation9.wav,1198.3986,,,,,1224.6052,1228.6478,49.6875,1.8367,"[{""rating"":49.6875,""responseTime"":1.8366999999880136}]",space,3.4959,,1228.6478,Definitely yes,100,1228.649,,,[],,,,,,,,,,,4,5,2,2,,,,,,,,,,,,,,,,,1198.3986,3,1224.6051,"[[999,0],[999,90],[999,166],[999,257],[999,340],[999,416],[999,505],[999,590],[999,666],[999,750],[999,833],[999,916],[999,1000],[999,1087],[999,1173],[999,1250],[999,1333],[999,1423],[999,1500],[999,1583],[999,1674],[999,1750],[999,1840],[999,1916],[999,1999],[999,2083],[999,2173],[999,2250],[999,2340],[999,2416],[999,2499],[999,2583],[999,2666],[999,2756],[999,2840],[999,2916],[999,2999],[999,3083],[999,3166],[999,3250],[999,3340],[999,3424],[999,3507],[999,3583],[999,3674],[999,3750],[999,3838],[999,3923],[999,3999],[999,4083],[999,4166],[999,4249],[999,4333],[999,4423],[999,4499],[999,4590],[999,4666],[999,4753],[999,4840],[999,4916],[999,4999],[999,5083],[999,5166],[999,5250],[999,5333],[999,5423],[999,5507],[999,5583],[999,5666],[999,5749],[999,5833],[999,5923],[999,5999],[999,6087],[999,6166],[999,6250],[999,6333],[999,6416],[999,6499],[999,6583],[999,6666],[999,6749],[999,6840],[999,6923],[999,7007],[999,7083],[999,7166],[999,7249],[999,7333],[999,7416],[999,7499],[999,7583],[999,7666],[999,7757],[999,7840],[999,7916],[999,7999],[999,8090],[999,8174],[999,8249],[999,8340],[60.9,8424],[61.3,8507],[61.5,8590],[61.5,8666],[61.5,8749],[61.5,8840],[61.5,8923],[61.5,9007],[61.5,9090],[61.5,9166],[61.5,9249],[61.5,9333],[61.5,9416],[61.5,9505],[61.5,9583],[61.5,9673],[61.5,9749],[61.5,9833],[61.5,9923],[61.5,10007],[61.5,10083],[61.5,10166],[61.5,10256],[61.5,10340],[61.5,10423],[61.5,10506],[61.5,10583],[61.5,10666],[61.5,10757],[61.5,10840],[61.5,10916],[61.5,11007],[61.5,11088],[61.5,11173],[61.5,11249],[61.5,11333],[61.5,11416],[61.5,11499],[61.5,11590],[61.5,11673],[61.5,11749],[61.5,11840],[61.5,11916],[61.5,12006],[61.5,12090],[61.5,12166],[61.5,12249],[61.5,12333],[61.5,12416],[61.5,12499],[61.5,12582],[61.5,12666],[61.5,12757],[61.5,12832],[61.5,12916],[61.5,12999],[61.5,13082],[61.5,13173],[61.5,13249],[61.5,13340],[61.5,13423],[61.5,13499],[61.5,13583],[61.5,13666],[61.5,13749],[61.5,13832],[61.5,13916],[61.5,14000],[61.5,14082],[61.5,14166],[61.5,14257],[61.5,14340],[61.5,14420],[61.5,14499],[61.5,14582],[61.5,14666],[61.5,14749],[61.5,14840],[61.5,14923],[61.5,14999],[61.5,15090],[61.5,15166],[61.5,15249],[61.5,15340],[61.5,15416],[61.5,15499],[61.5,15583],[61.5,15670],[61.5,15757],[61.5,15832],[61.5,15916],[61.5,16007],[61.5,16082],[61.5,16173],[61.5,16249],[61.5,16340],[61.5,16423],[61.5,16503],[61.5,16590],[61.5,16666],[61.5,16757],[61.5,16832],[61.5,16916],[61.5,17007],[61.5,17083],[61.5,17172],[61.5,17257],[61.5,17333],[61.5,17416],[61.5,17506],[61.5,17590],[61.5,17665],[61.5,17749],[61.5,17832],[61.5,17915],[61.5,17999],[61.5,18082],[61.5,18166],[61.5,18249],[61.5,18337],[61.5,18423],[61.5,18499],[61.5,18590],[61.5,18673],[61.5,18749],[61.5,18832],[61.5,18915],[61.5,18999],[61.5,19082],[61.5,19166],[61.5,19249],[61.5,19340],[61.5,19423],[61.5,19499],[61.5,19590],[61.5,19666],[61.5,19749],[61.5,19832],[61.5,19916],[61.5,19999],[61.5,20082],[61.5,20166],[61.5,20256],[61.5,20340],[61.5,20423],[61.5,20499],[61.5,20582],[61.5,20670],[61.5,20749],[61.5,20832],[61.5,20916],[61.5,20999],[61.5,21089],[61.5,21165],[61.5,21249],[61.5,21332],[61.5,21423],[61.5,21499],[61.5,21582],[61.5,21665],[61.5,21749],[61.5,21839],[61.5,21923],[61.5,22006],[61.5,22089],[61.5,22173],[61.5,22256],[61.5,22332],[61.5,22423],[61.5,22499],[61.5,22582],[61.5,22665],[61.5,22755],[61.5,22832],[61.5,22915],[61.5,23006],[61.5,23082],[61.5,23165],[61.5,23256],[61.5,23340],[61.5,23415],[61.5,23499],[61.5,23582],[61.5,23670],[61.5,23749],[61.5,23832],[61.5,23916],[61.5,23999],[61.5,24082],[61.5,24165],[61.5,24256],[61.5,24332],[61.5,24415],[61.5,24506],[61.5,24589],[61.5,24665],[61.5,24753],[61.5,24832],[61.5,24923],[61.5,24999],[61.5,25082],[61.5,25165],[61.5,25254],[61.5,25332],[61.5,25415],[61.5,25506],[61.5,25582],[61.5,25665],[61.5,25749],[61.5,25839],[56.2,25923],[53.1,26006],[53.1,26090],[53.1,26165]]",0,2,2,2,1,On the ground beside him was a pen that she had mistaken for a knife. Lucy looked for the gunman and saw a suspicious man in black with distinct pointy features darting into an alley across the street. Cops who were nearby chased the man who had fled and arrested him.,"While waiting outside the chief of staff's office, Al heard nondescript shouting and yelling, there was a loud clatter in the room and then an eerie silence. An unfamiliar employee ran hastily out of the office with a terrified look on their face.","Suddenly, Luke heard a woman call out his name and when he turned around he saw Carly, his receptionist, across the road with a gun in her hand. Carly ran to him and explained how she had followed him here to confess her love. She exclaimed if Luke didn't love her back that she would kill him and his family. Carly explained that the only way they could be together is to kill Marta.","This feeling of hate between Amy and Dan was mutual, Dan didn't like how much time his wife spent with her and thought Amy was creating distance between their marriage. That's why Dan decided to try and tarnish Linda's reputation with his wife, in hopes it would get rid of her. He came home one afternoon and exclaimed that Linda had tried to kiss him. Amy was taken aback and immediately called Linda to confront her about these accusations. When Linda arrived she denied having made a move on Dan, but discovered Dan had enlisted the help of his friend Will who said he witnessed it all happen.",,,,,,,,,,
,,,,,6714d7f42c208253099ac9d9,2025-07-07_22h00.51.254,group3.4_multiperson,2023.2.2,Win32,59.88023952,686c2ebf0248f13bef9af11f,686c7b90e99e7566aafa2ed4,,,,,,,,,,,,,,,,,,,,,,,,,,,,,1228.6492,1,audio/Narrative7Situation9.wav,1230.6712,,,,,1253.2046,1258.2042,66.04166985,2.752,"[{""rating"":66.04166984558105,""responseTime"":2.7519999999999527}]",space,4.4794,,1258.2043,Definitely yes,100,1258.2053,,,[],,,,,,,,,,,2,2,1,4,,,,,,,,,,,,,,,,,1230.6713,3,1253.2046,[],0,3,3,3,1,"But Lucy knew the charged man was innocent, which meant the killer was free. Lucy vowed to find out who the real murderer was and to stop him at all costs.","Al explained to the chief of staff that Margaret wanted to be excused from her absences last week. The chief of staff, Susan, revealed that she wanted to fire Margaret and never see her again. Susan and Al had been having an affair and she wanted Margaret ""out of the picture"". Al was conflicted, but agreed it would be for the best.","Luke thought of his child and felt like this was his only option. He agreed to the plan and called his wife to meet him at the swamp to watch the sunset with him. When she arrived, Marta called out for her husband, but found Carly waiting for her. She immediately drew her gun and shot her in the chest, knocking her unconscious.","Since it was their word against her own, she decided to go home and admit defeat. She knew how much it would hurt Amy to know the truth.",,,,,,,,,,
