consent.started,consent.stopped,consentResponse.keys,consentResponse.rt,consentResponse.duration,participantID,date,expName,psychopyVersion,OS,frameRate,STUDY_ID,SESSION_ID,opening1.started,opening1.stopped,keyEndingOpening1.keys,keyEndingOpening1.rt,keyEndingOpening1.duration,volumeAdjust.started,volumeAdjust.stopped,endingAdjust.keys,endingAdjust.rt,endingAdjust.duration,opening2.started,opening2.stopped,keyEndingOpening.keys,keyEndingOpening.rt,keyEndingOpening.duration,mouse.x,mouse.y,mouse.leftButton,mouse.midButton,mouse.rightButton,mouse.time,instructionLoop.thisRepN,instructionLoop.thisTrialN,instructionLoop.thisN,instructionLoop.thisIndex,instructionLoop.ran,readyForAudio.started,readyForAudio.stopped,fixation.started,run,audio_played,fixation.stopped,endPractice.keys,audioPre.started,audioPre.stopped,continuousResponses_audio,intRating.started,intRating.stopped,intQuestionSlider.response,intQuestionSlider.rt,intQuestionSlider.history,confirmResponse.keys,confirmResponse.rt,confirmResponse.duration,catchQuestion.started,catch_label,catch_value,catchQuestion.stopped,catchQuestionSlider.response,catchQuestionSlider.rt,catchQuestionSlider.history,confirmResponse_2.keys,audioRunLoop.thisRepN,audioRunLoop.thisTrialN,audioRunLoop.thisN,audioRunLoop.thisIndex,audioRunLoop.ran,conditions1_1,conditions2_1,conditions1_2,conditions2_2,dur1_1,dur2_1,dur1_2,dur2_2,endPractice.rt,endPractice.duration,confirmResponse_2.rt,confirmResponse_2.duration,runIntervalBreak.started,runIntervalBreak.stopped,endingBreakKey.keys,endingBreakKey.rt,endingBreakKey.duration,connection.started,connection.stopped,connectionEnding.keys,connectionEnding.rt,connectionEnding.duration,readyForText.started,readyForText.stopped,textPre.started,run_dup,textPre.stopped,continuousResponses_text,textRunLoop.thisRepN,textRunLoop.thisTrialN,textRunLoop.thisN,textRunLoop.thisIndex,textRunLoop.ran,text1_1,text1_2,text2_1,text2_2,runBreakText.started,runBreakText.stopped,endingBreakKey_2.keys,endingBreakKey_2.rt,endingBreakKey_2.duration,ending.started,ending.stopped,endingEnding.keys,endingEnding.rt,endingEnding.duration
0.0001,6.8518,y,6.5426,,671f12c5d2543b67c0f12e57,2025-07-07_20h41.40.294,group3.4_multiperson,2023.2.2,MacIntel,119.047619,686c2ebf0248f13bef9af11f,686c934f26fe12b187e3cbcd,,,,,,,,,,,,,,,,,,,,,,,,,,,,,,,,,,,,,,,,,,,,,,,,,,,,,,,,,,,,,,,,,,,,,,,,,,,,,,,,,,,,,,,,,,,,,,,,,,,,,,,,
,,,,,671f12c5d2543b67c0f12e57,2025-07-07_20h41.40.294,group3.4_multiperson,2023.2.2,MacIntel,119.047619,686c2ebf0248f13bef9af11f,686c934f26fe12b187e3cbcd,6.8521,9.9773,space,3.0978,,,,,,,,,,,,,,,,,,,,,,,,,,,,,,,,,,,,,,,,,,,,,,,,,,,,,,,,,,,,,,,,,,,,,,,,,,,,,,,,,,,,,,,,,,,,,,,,,,,,
,,,,,671f12c5d2543b67c0f12e57,2025-07-07_20h41.40.294,group3.4_multiperson,2023.2.2,MacIntel,119.047619,686c2ebf0248f13bef9af11f,686c934f26fe12b187e3cbcd,,,,,,9.9774,22.6103,space,12.3168,,,,,,,,,,,,,,,,,,,,,,,,,,,,,,,,,,,,,,,,,,,,,,,,,,,,,,,,,,,,,,,,,,,,,,,,,,,,,,,,,,,,,,,,,,,,,,,
,,,,,671f12c5d2543b67c0f12e57,2025-07-07_20h41.40.294,group3.4_multiperson,2023.2.2,MacIntel,119.047619,686c2ebf0248f13bef9af11f,686c934f26fe12b187e3cbcd,,,,,,,,,,,22.6147,29.7604,space,7.1266,,[],[],[],[],[],[],0,0,0,0,1,,,,,,,,,,,,,,,,,,,,,,,,,,,,,,,,,,,,,,,,,,,,,,,,,,,,,,,,,,,,,,,,,,,,,,,,,,,,,,
,,,,,671f12c5d2543b67c0f12e57,2025-07-07_20h41.40.294,group3.4_multiperson,2023.2.2,MacIntel,119.047619,686c2ebf0248f13bef9af11f,686c934f26fe12b187e3cbcd,,,,,,,,,,,29.7608,39.7681,space,9.9696,,[],[],[],[],[],[],1,0,1,0,1,,,,,,,,,,,,,,,,,,,,,,,,,,,,,,,,,,,,,,,,,,,,,,,,,,,,,,,,,,,,,,,,,,,,,,,,,,,,,,
,,,,,671f12c5d2543b67c0f12e57,2025-07-07_20h41.40.294,group3.4_multiperson,2023.2.2,MacIntel,119.047619,686c2ebf0248f13bef9af11f,686c934f26fe12b187e3cbcd,,,,,,,,,,,39.7685,48.8681,space,9.0724,,[],[],[],[],[],[],2,0,2,0,1,,,,,,,,,,,,,,,,,,,,,,,,,,,,,,,,,,,,,,,,,,,,,,,,,,,,,,,,,,,,,,,,,,,,,,,,,,,,,,
,,,,,671f12c5d2543b67c0f12e57,2025-07-07_20h41.40.294,group3.4_multiperson,2023.2.2,MacIntel,119.047619,686c2ebf0248f13bef9af11f,686c934f26fe12b187e3cbcd,,,,,,,,,,,48.8684,60.4428,space,11.5526,,[],[],[],[],[],[],3,0,3,0,1,,,,,,,,,,,,,,,,,,,,,,,,,,,,,,,,,,,,,,,,,,,,,,,,,,,,,,,,,,,,,,,,,,,,,,,,,,,,,,
,,,,,671f12c5d2543b67c0f12e57,2025-07-07_20h41.40.294,group3.4_multiperson,2023.2.2,MacIntel,119.047619,686c2ebf0248f13bef9af11f,686c934f26fe12b187e3cbcd,,,,,,,,,,,60.4435,71.2178,space,10.7508,,[],[],[],[],[],[],4,0,4,0,1,,,,,,,,,,,,,,,,,,,,,,,,,,,,,,,,,,,,,,,,,,,,,,,,,,,,,,,,,,,,,,,,,,,,,,,,,,,,,,
,,,,,671f12c5d2543b67c0f12e57,2025-07-07_20h41.40.294,group3.4_multiperson,2023.2.2,MacIntel,119.047619,686c2ebf0248f13bef9af11f,686c934f26fe12b187e3cbcd,,,,,,,,,,,71.2183,77.8261,space,6.5895,,[],[],[],[],[],[],5,0,5,0,1,,,,,,,,,,,,,,,,,,,,,,,,,,,,,,,,,,,,,,,,,,,,,,,,,,,,,,,,,,,,,,,,,,,,,,,,,,,,,,
,,,,,671f12c5d2543b67c0f12e57,2025-07-07_20h41.40.294,group3.4_multiperson,2023.2.2,MacIntel,119.047619,686c2ebf0248f13bef9af11f,686c934f26fe12b187e3cbcd,,,,,,,,,,,,,,,,,,,,,,,,,,,77.828,80.4094,80.4261,1,audio/Narrative13Situation2.wav,82.4342,,82.4344,112.1672,"[[999,1],[999,99],[999,182],[999,265],[999,349],[999,432],[999,516],[999,599],[999,682],[999,766],[62.5,849],[66,1015],[67.6,1099],[68,1182],[68.1,1266],[68.1,1349],[68.1,1432],[68.1,1516],[68.1,1599],[68.1,1682],[68.1,1766],[68.1,1849],[68.1,1932],[68.1,2016],[68.1,2098],[68.1,2182],[68,2266],[61,2349],[55.5,2432],[54.7,2516],[55.4,2599],[55.7,2682],[55.7,2766],[55.7,2849],[55.7,2932],[55.7,3016],[54.1,3099],[51.3,3182],[50.9,3266],[50.5,3349],[50.1,3432],[50.1,3516],[50.1,3599],[50.1,3682],[50.1,3766],[50.1,3849],[50.1,3932],[50.1,4016],[50.1,4099],[50.1,4182],[50.1,4266],[50.1,4349],[50.1,4432],[50,4516],[49.6,4599],[49.1,4682],[48.9,4766],[48.7,4849],[48.3,4932],[46.9,5016],[46,5099],[47.8,5182],[65.4,5266],[73.8,5349],[76.1,5432],[77.9,5515],[78.7,5599],[78.7,5682],[78.7,5766],[78.7,5848],[78.7,5932],[78.7,6016],[78.7,6099],[78.7,6182],[78.7,6266],[79.1,6349],[82.9,6432],[85.2,6516],[86,6599],[86,6682],[86,6766],[86,6849],[86,6931],[85.2,7016],[80.6,7098],[78.5,7182],[78.5,7265],[78.5,7349],[78.5,7432],[78.5,7516],[78.5,7599],[78.5,7682],[78.4,7765],[77.9,7849],[77.8,7932],[77.7,8016],[77.7,8098],[77.7,8182],[78.5,8266],[82.4,8349],[83.8,8432],[85.8,8516],[92.1,8599],[99.1,8682],[100,8766],[100,8849],[100,8932],[100,9016],[100,9099],[100,9182],[100,9266],[100,9349],[100,9432],[100,9516],[100,9599],[100,9682],[100,9766],[100,9849],[100,9932],[100,10015],[100,10098],[100,10182],[100,10265],[100,10349],[100,10432],[100,10516],[100,10599],[100,10682],[100,10766],[100,10849],[100,10932],[100,11016],[100,11099],[100,11182],[100,11266],[100,11348],[100,11432],[100,11516],[100,11599],[100,11682],[100,11766],[100,11849],[100,11932],[100,12015],[100,12099],[100,12182],[100,12266],[100,12349],[100,12432],[100,12516],[100,12599],[100,12682],[100,12766],[100,12848],[100,12932],[100,13016],[100,13099],[100,13182],[100,13265],[100,13349],[100,13432],[100,13515],[100,13599],[100,13681],[100,13765],[100,13848],[100,13932],[100,14016],[100,14098],[100,14182],[100,14265],[100,14348],[100,14432],[100,14516],[100,14599],[100,14682],[100,14766],[100,14849],[100,14932],[100,15016],[100,15099],[100,15182],[100,15266],[100,15349],[100,15432],[100,15516],[100,15599],[100,15682],[100,15766],[100,15849],[100,15932],[100,16015],[100,16099],[100,16182],[100,16266],[100,16348],[100,16432],[100,16516],[100,16599],[100,16682],[100,16766],[100,16849],[100,16932],[100,17016],[100,17099],[100,17182],[100,17265],[100,17349],[100,17432],[100,17516],[100,17599],[100,17682],[100,17765],[100,17849],[100,17932],[100,18016],[100,18099],[100,18182],[100,18266],[100,18349],[100,18432],[100,18515],[100,18599],[100,18682],[100,18765],[100,18849],[100,18932],[100,19016],[100,19099],[100,19182],[100,19266],[100,19349],[100,19432],[100,19515],[100,19599],[100,19682],[100,19765],[100,19849],[100,19932],[100,20016],[100,20099],[100,20182],[100,20266],[100,20349],[100,20432],[100,20515],[100,20599],[100,20682],[100,20765],[100,20848],[100,20932],[100,21015],[100,21099],[100,21182],[100,21265],[100,21348],[100,21432],[100,21515],[100,21599],[100,21682],[100,21765],[100,21849],[100,21932],[100,22015],[100,22099],[100,22182],[100,22265],[100,22349],[100,22432],[100,22515],[100,22599],[100,22682],[100,22765],[100,22848],[100,22932],[100,23015],[100,23099],[100,23182],[100,23265],[100,23349],[100,23431],[100,23515],[100,23599],[100,23682],[100,23765],[100,23849],[100,23932],[100,24015],[100,24099],[100,24182],[100,24265],[100,24348],[100,24432],[100,24515],[100,24598],[100,24682],[100,24765],[100,24849],[100,24932],[100,25015],[100,25098],[100,25182],[100,25266],[100,25349],[100,25432],[100,25515],[100,25599],[100,25682],[100,25765],[100,25848],[100,25932],[100,26016],[100,26099],[100,26182],[100,26265],[100,26349],[100,26432],[100,26515],[100,26599],[100,26682],[100,26765],[100,26849],[100,26932],[100,27016],[100,27098],[100,27182],[100,27265],[100,27348],[100,27432],[100,27515],[100,27598],[100,27682],[100,27765],[100,27849],[100,27931],[100,28016],[100,28099],[100,28181],[100,28266],[100,28348],[100,28432],[100,28516],[100,28599],[100,28682],[100,28765],[100,28849],[100,28932],[100,29015],[100,29099],[100,29181],[100,29265],[100,29349],[100,29432],[100,29515],[100,29599],[100,29682]]",112.1675,132.2169,100,19.6356,"[{""rating"":100,""responseTime"":8.453000000000003},{""rating"":57.27358217592593,""responseTime"":12.647799999952326},{""rating"":63.82998511904761,""responseTime"":13.414600000023853},{""rating"":70.04588293650794,""responseTime"":14.269299999952324},{""rating"":94.8857060185185,""responseTime"":18.85260000002384},{""rating"":100,""responseTime"":19.635600000023828}]",space,19.5274,,132.2171,Definitely yes,100,132.2197,,,[],,0,0,0,0,1,audio/Narrative13Situation2.wav,audio/Narrative13Situation2.wav,audio/Narrative13Situation2.wav,audio/Narrative13Situation2.wav,2,2,2,2,,,,,,,,,,,,,,,,,,,,,,,,,,,,,,,,,,,,,,,
,,,,,671f12c5d2543b67c0f12e57,2025-07-07_20h41.40.294,group3.4_multiperson,2023.2.2,MacIntel,119.047619,686c2ebf0248f13bef9af11f,686c934f26fe12b187e3cbcd,,,,,,,,,,,,,,,,,,,,,,,,,,,,,132.2199,1,audio/Narrative8Situation1.wav,133.9417,space,133.9418,149.8582,"[[100,674],[93.7,758],[77.8,841],[74.9,924],[72.2,1007],[72.1,1091],[72.5,1174],[72.5,1258],[72.5,1341],[72.5,1424],[72.5,1508],[72.5,1591],[71.3,1675],[61.4,1757],[59,1841],[58.9,1924],[58.9,2008],[58.9,2091],[58.9,2174],[58.9,2257],[58.9,2341],[58.9,2424],[58.9,2508],[58.9,2591],[58.9,2674],[58.9,2758],[58.9,2841],[58.9,2924],[58.9,3007],[58.9,3091],[58.9,3174],[58.9,3257],[58.9,3341],[58.9,3424],[58.9,3508],[58.9,3591],[58.9,3674],[58.9,3758],[58.9,3841],[55.7,3924],[50.6,4091],[50.3,4174],[49.3,4257],[49.1,4341],[49.4,4424],[50.9,4507],[51.2,4591],[51.2,4675],[51.4,4757],[51.4,4841],[51.4,4924],[51.4,5008],[51.4,5091],[51.4,5174],[51.4,5257],[51.4,5340],[51.4,5424],[51.4,5508],[51.4,5590],[51.4,5674],[51.4,5758],[51.4,5841],[51.4,5924],[51.4,6007],[51.4,6091],[51.4,6174],[51.4,6258],[51.4,6341],[51.4,6423],[51.4,6508],[51.4,6591],[51.4,6674],[51.4,6758],[51.4,6841],[51.4,6924],[51.4,7007],[51.4,7091],[51.4,7174],[51.4,7257],[51.4,7341],[51.4,7424],[51.4,7507],[51.4,7591],[51.4,7674],[51.4,7757],[51.4,7841],[51.4,7924],[51.4,8007],[51.4,8091],[51.4,8174],[51.4,8258],[51.4,8341],[51.4,8424],[51.4,8507],[51.4,8591],[51.4,8674],[51.4,8757],[51.4,8841],[51.4,8924],[51.4,9007],[51.4,9091],[51.4,9174],[51.4,9257],[51.4,9341],[51.4,9424],[51.4,9508],[51.4,9591],[51.4,9674],[51.4,9757],[51.4,9840],[51.4,9924],[51.4,10007],[51.4,10091],[51.4,10173],[51.7,10258],[53.7,10341],[58,10424],[60.1,10507],[61.4,10590],[61.9,10674],[62.3,10757],[62.7,10841],[62.9,10924],[63.6,11007],[63.9,11091],[64,11174],[64,11257],[64,11341],[64,11424],[64,11507],[64,11591],[64,11674],[64,11757],[64,11841],[64,11924],[64,12007],[64,12091],[64,12174],[64,12257],[64,12341],[64,12424],[64,12507],[64,12591],[64,12674],[64,12757],[64,12841],[64,12924],[64,13007],[64,13091],[64,13174],[64,13257],[64,13340],[64,13423],[64,13507],[64,13591],[64,13674],[64,13757],[64,13841],[64,13924],[64,14007],[64,14091],[64,14174],[64,14257],[64,14341],[64,14424],[64,14507],[64,14590],[64,14674],[64,14757],[64,14841],[64,14924],[64,15007],[64,15090],[64,15174],[64,15257],[64,15341],[64,15424],[64,15507],[64,15591],[64,15673],[64,15757],[64,15841]]",149.8584,160.7075,49.12574405,6.0786,"[{""rating"":71.2962962962963,""responseTime"":1.9532000000477012},{""rating"":74.8201884920635,""responseTime"":2.819700000047675},{""rating"":58.04811507936508,""responseTime"":5.4863999999761575},{""rating"":49.125744047619044,""responseTime"":6.07860000002384}]",space,10.3273,,160.7076,Partially,50,160.7103,,,[],,0,1,1,1,1,audio/Narrative7Situation1.wav,audio/Narrative8Situation1.wav,audio/Narrative5Situation1.wav,audio/Narrative6Situation1.wav,2,5,5,2,1.7041,,,,,,,,,,,,,,,,,,,,,,,,,,,,,,,,,,,,,,
,,,,,671f12c5d2543b67c0f12e57,2025-07-07_20h41.40.294,group3.4_multiperson,2023.2.2,MacIntel,119.047619,686c2ebf0248f13bef9af11f,686c934f26fe12b187e3cbcd,,,,,,,,,,,,,,,,,,,,,,,,,,,,,160.7105,1,audio/Narrative8Situation2.wav,163.7159,,163.7159,173.8151,"[[38.8,4091],[18.4,4508],[18.6,4591],[21.6,4675],[26.6,4758],[27,4841],[20.4,4925],[15.8,5008],[15.1,5091],[15.1,5174],[15.1,5258],[14.9,5341],[13,5425],[12.9,5508],[12.9,5591],[12.9,5675],[12.9,5758],[12.7,5841],[12.2,5924],[12.1,6008],[12.1,6091],[11.9,6175],[11.2,6258],[10.4,6341],[10.3,6424],[10.3,6508],[11.3,6591],[22.4,6675],[32.1,6757],[37.9,6841],[38.3,6924],[37.9,7008],[35.3,7091],[27.1,7174],[24.6,7257],[24.5,7341],[24.5,7425],[24.5,7508],[24.5,7591],[24.5,7675],[24.5,7758],[24.5,7841],[24.5,7925],[24.5,8008],[24.6,8092],[25.1,8174],[29.4,8258],[38.5,8341],[41.2,8424],[41.6,8508],[43.9,8591],[48.5,8674],[49.9,8758],[49.9,8841],[49.9,8924],[49.9,9008],[49.9,9091],[49.9,9174],[49.9,9258],[49.9,9341],[49.9,9425],[49.9,9508],[49.9,9591],[49.9,9675],[49.9,9758],[49.9,9841],[49.9,9925],[48.6,10008],[42.7,10091]]",173.8152,179.0577,9.117166832,4.4149,"[{""rating"":9.117166832010582,""responseTime"":4.414899999976171}]",space,4.7305,,179.0578,Partially,50,179.0596,,,[],,0,2,2,2,1,audio/Narrative7Situation2.wav,audio/Narrative8Situation2.wav,audio/Narrative5Situation2.wav,audio/Narrative6Situation2.wav,3,3,3,3,,,,,,,,,,,,,,,,,,,,,,,,,,,,,,,,,,,,,,,
,,,,,671f12c5d2543b67c0f12e57,2025-07-07_20h41.40.294,group3.4_multiperson,2023.2.2,MacIntel,119.047619,686c2ebf0248f13bef9af11f,686c934f26fe12b187e3cbcd,,,,,,,,,,,,,,,,,,,,,,,,,,,,,179.0598,1,audio/Narrative8Situation3.wav,183.0658,,183.0659,205.4319,"[[999,0],[999,83],[999,166],[999,250],[999,333],[999,415],[999,499],[999,583],[999,665],[999,749],[39.9,833],[40.7,916],[41.3,999],[41.5,1083],[41.5,1166],[41.5,1249],[41.5,1333],[41.5,1416],[41.9,1499],[43.5,1583],[47,1666],[48.5,1749],[48.6,1832],[48.6,1916],[48.6,1999],[48.4,2083],[45.7,2166],[42.2,2249],[39.1,2333],[37.9,2415],[36.9,2499],[35.7,2582],[34.8,2666],[33.7,2832],[33.3,2916],[70.2,3999],[69.2,4082],[69.2,4166],[69.2,4249],[69.6,4332],[69.8,4416],[69.8,4499],[69.8,4583],[69.8,4666],[69.8,4749],[69.8,4832],[69.8,4916],[69.8,4999],[69.8,5083],[69.8,5166],[69.8,5249],[69.8,5333],[69.8,5416],[69.8,5499],[69.8,5583],[69.8,5666],[69.8,5749],[69.8,5833],[69.8,5916],[69.8,5999],[69.8,6082],[69.8,6166],[69.8,6249],[69.8,6332],[69.8,6416],[69.8,6499],[70.5,6583],[71,6666],[71,6749],[71,6833],[71,6916],[70.6,6999],[70.4,7082],[69.9,7165],[69.8,7249],[68.9,7333],[68.8,7415],[68.6,7499],[68.6,7582],[68.6,7666],[68.6,7748],[68.6,7833],[68.6,7916],[68.6,7999],[68.6,8083],[68.6,8166],[81.5,8499],[81.5,8583],[81.5,8666],[84.8,8748],[94.8,8832],[95.9,8915],[96.4,8999],[97.1,9082],[97,9166],[96.2,9249],[96.2,9333],[96.2,9415],[96.2,9499],[96.2,9583],[96.2,9666],[96.2,9749],[96.2,9833],[96.2,9916],[96.2,9999],[96.2,10083],[96.2,10166],[96.2,10249],[96.2,10333],[96.2,10416],[96.2,10499],[96.2,10583],[96.2,10666],[96.2,10749],[96.2,10832],[96.2,10916],[96.2,10999],[96.2,11083],[96.2,11166],[96.2,11249],[96.2,11333],[96.2,11416],[96.2,11499],[96.2,11583],[96.2,11666],[91.9,11749],[88.9,11832],[87.7,11916],[86.7,11999],[84.5,12082],[82.5,12166],[81.3,12249],[81.3,12332],[81.3,12416],[81.3,12499],[81.3,12583],[81.3,12666],[81.3,12749],[81.3,12833],[81.3,12916],[81.3,12999],[81.3,13083],[81.3,13166],[81.3,13249],[81.3,13333],[81.3,13416],[81.3,13499],[81.3,13583],[81.3,13666],[81.3,13749],[81.3,13833],[81.3,13915],[81.3,13999],[81.3,14083],[81.3,14166],[81.3,14249],[81.3,14332],[81.3,14416],[81.3,14499],[81.3,14583],[81.3,14666],[84,14749],[86.8,14832],[87.2,14916],[87.2,14999],[100,15249],[100,15332],[100,15416],[100,15499],[100,15582],[100,15666],[100,15749],[100,15832],[100,15916],[100,15999],[100,16082],[100,16166],[92.5,16416],[91.1,16499],[91.1,16582],[91,16666],[91,16749],[91.1,16832],[91.5,16916],[91.4,16999],[91,17082],[90.6,17166],[88.6,17249],[88,17332],[88.3,17416],[90.4,17499],[92.2,17582],[92.5,17666],[92.7,17749],[93.8,17832],[95.8,17916],[96.5,17999],[96.6,18082],[96.6,18166],[96.6,18249],[96.6,18333],[96.6,18416],[96.3,18499],[93.6,18582],[92.5,18666],[91.5,18749],[89.5,18832],[88.2,18916],[88.2,18999],[90.6,19083],[95.2,19166],[95.6,19249],[95.6,19332],[94.5,19416],[91.7,19499],[91.3,19582],[91.3,19666],[91.3,19749],[91.3,19832],[91.3,19916],[91.3,19999],[91.3,20083],[91.3,20166],[91.3,20249],[91.3,20332],[91.3,20416],[91.3,20499],[91.3,20582],[91.3,20666],[91.3,20749],[91.3,20832],[91.3,20916],[91.3,20999],[91.3,21082],[91.3,21165],[91.3,21249],[91.3,21333],[91.3,21416],[91.3,21498],[91.3,21583],[91.3,21665],[91.3,21749],[91.3,21832],[91.3,21916],[91.3,21999],[91.3,22083],[91.3,22165],[91.3,22248],[91.3,22332]]",205.4322,209.7906,94.22949735,3.0783,"[{""rating"":94.22949735449735,""responseTime"":3.078300000071522}]",space,3.8425,,209.7906,Definitely yes,100,215.3154,100,4.3023,"[{""rating"":97.47333829365078,""responseTime"":3.312699999928469},{""rating"":100,""responseTime"":4.302299999952311}]",space,0,3,3,3,1,audio/Narrative7Situation3.wav,audio/Narrative8Situation3.wav,audio/Narrative5Situation3.wav,audio/Narrative6Situation3.wav,8,4,3,5,,,5.0088,,,,,,,,,,,,,,,,,,,,,,,,,,,,,,,,,,,,
,,,,,671f12c5d2543b67c0f12e57,2025-07-07_20h41.40.294,group3.4_multiperson,2023.2.2,MacIntel,119.047619,686c2ebf0248f13bef9af11f,686c934f26fe12b187e3cbcd,,,,,,,,,,,,,,,,,,,,,,,,,,,,,215.3158,1,audio/Narrative8Situation4.wav,218.3238,,218.3238,232.4818,"[[100,1424],[100,1507],[90,1674],[87.4,1757],[87.2,1841],[87.1,1924],[87.1,2007],[87.1,2091],[87,2174],[87,2257],[87,2341],[87,2424],[86.8,2508],[86.8,2591],[86.6,2674],[86.3,2758],[86.2,2841],[86.2,2924],[86.2,3007],[86.2,3091],[86.2,3174],[86.2,3258],[86.2,3341],[86.2,3424],[86.2,3508],[86.2,3591],[86.2,3674],[86.2,3757],[86.3,3841],[86.2,3923],[86,4007],[85.8,4091],[85.8,4174],[85.9,4257],[96.5,4341],[100,4423],[100,4507],[100,4591],[100,4674],[100,4758],[100,4841],[100,4924],[100,5008],[100,5091],[100,5173],[100,5258],[100,5341],[100,5424],[100,5508],[100,5591],[100,5674],[100,5757],[100,5841],[100,5924],[100,6007],[100,6091],[100,6174],[100,6257],[100,6341],[100,6424],[100,6507],[100,6591],[100,6674],[100,6757],[100,6841],[100,6924],[100,7008],[100,7090],[100,7174],[100,7257],[100,7341],[100,7424],[100,7507],[100,7590],[100,7674],[100,7757],[100,7840],[100,7923],[100,8007],[100,8091],[100,8174],[100,8257],[100,8341],[100,8424],[100,8507],[100,8591],[100,8674],[100,8757],[100,8840],[100,8924],[100,9007],[100,9091],[100,9174],[100,9257],[100,9341],[100,9424],[100,9508],[100,9591],[100,9674],[100,9758],[100,9841],[100,9923],[100,10007],[100,10091],[100,10174],[100,10257],[100,10341],[100,10424],[100,10507],[100,10591],[100,10674],[100,10757],[100,10841],[100,10924],[100,11007],[100,11091],[100,11174],[100,11257],[100,11341],[100,11424],[100,11508],[100,11591],[100,11674],[100,11757],[100,11841],[100,11924],[100,12007],[100,12091],[100,12174],[100,12257],[100,12341],[100,12424],[100,12507],[100,12591],[100,12674],[100,12757],[100,12841],[100,12924],[100,13007],[100,13091],[100,13174],[100,13256],[100,13341],[100,13424],[100,13508],[100,13591],[100,13674],[100,13757],[100,13841],[100,13924],[100,14008],[100,14091]]",232.482,240.4725,99.82380539,2.9243,"[{""rating"":99.82380539021165,""responseTime"":2.924299999952325}]",space,7.4694,,240.4725,Definitely yes,100,240.474,,,[],,0,4,4,4,1,audio/Narrative7Situation4.wav,audio/Narrative8Situation4.wav,audio/Narrative5Situation4.wav,audio/Narrative6Situation4.wav,3,3,1,2,,,,,,,,,,,,,,,,,,,,,,,,,,,,,,,,,,,,,,,
,,,,,671f12c5d2543b67c0f12e57,2025-07-07_20h41.40.294,group3.4_multiperson,2023.2.2,MacIntel,119.047619,686c2ebf0248f13bef9af11f,686c934f26fe12b187e3cbcd,,,,,,,,,,,,,,,,,,,,,,,,,,,,,240.4743,1,audio/Narrative8Situation5.wav,242.4817,space,242.4818,250.715,"[[86.2,915],[83.5,999],[83.5,1083],[83.5,1166],[83.5,1249],[78.1,1332],[75,1416],[75,1499],[75,1583],[75,1666],[75,1749],[75,1833],[81.2,1915],[85.3,1999],[85.6,2082],[86.1,2166],[86.1,2249],[85.8,2332],[85.8,2415],[85.8,2499],[85.8,2583],[85.8,2666],[85.8,2749],[85.8,2833],[85.8,2916],[85.8,2999],[85.8,3083],[85.8,3166],[85.8,3249],[85.8,3333],[85.8,3416],[85.8,3499],[85.8,3583],[85.8,3666],[85.8,3749],[85.8,3833],[85.8,3916],[85.8,3999],[85.8,4083],[85.8,4166],[85.8,4249],[85.8,4333],[85.8,4416],[85.8,4499],[85.8,4583],[85.8,4666],[85.8,4749],[85.8,4833],[85.8,4916],[85.8,4999],[85.8,5083],[85.8,5166],[85.8,5249],[85.8,5333],[85.8,5416],[85.8,5499],[85.8,5583],[85.8,5665],[85.8,5749],[89.6,5832],[97.9,5916],[100,5999],[100,6082],[100,6166],[100,6249],[100,6332],[100,6416],[100,6499],[100,6583],[100,6666],[100,6749],[100,6832],[100,6916],[100,6999],[100,7083],[100,7166],[100,7249],[100,7333],[100,7416],[100,7499],[100,7583],[100,7666],[100,7749],[100,7832],[100,7916],[100,7999],[100,8083],[100,8165]]",250.7151,253.4222,76.82188327,2.4363,"[{""rating"":99.47813326719577,""responseTime"":1.7531999999284267},{""rating"":76.82188326719577,""responseTime"":2.4362999999522685}]",space,2.1845,,253.4223,Definitely yes,100,253.4237,,,[],,0,5,5,5,1,audio/Narrative7Situation5.wav,audio/Narrative8Situation5.wav,audio/Narrative5Situation5.wav,audio/Narrative6Situation5.wav,5,2,5,2,1.1502,,,,,,,,,,,,,,,,,,,,,,,,,,,,,,,,,,,,,,
,,,,,671f12c5d2543b67c0f12e57,2025-07-07_20h41.40.294,group3.4_multiperson,2023.2.2,MacIntel,119.047619,686c2ebf0248f13bef9af11f,686c934f26fe12b187e3cbcd,,,,,,,,,,,,,,,,,,,,,,,,,,,,,253.4238,1,audio/Narrative8Situation6.wav,255.4316,,255.4317,261.8898,"[[85.9,582],[83.4,666],[83.2,749],[84.1,832],[84.5,916],[84.7,999],[87.1,1082],[91.3,1166],[93.1,1249],[93.2,1332],[93.2,1416],[93.2,1498],[93.2,1583],[93.2,1666],[93.2,1748],[93.2,1832],[93.2,1915],[93.2,1998],[93.2,2082],[93.2,2166],[93.2,2249],[93.2,2332],[93.2,2415],[93.2,2499],[93.2,2582],[93.2,2666],[93.2,2749],[93.2,2832],[93.2,2916],[93.2,2999],[93.2,3083],[93.2,3166],[93.2,3248],[93.2,3332],[93.2,3416],[93.2,3499],[93.2,3582],[93.2,3666],[93.2,3749],[93.2,3832],[93.2,3916],[93.2,3999],[93.2,4082],[93.2,4166],[93.2,4249],[93.2,4332],[93.2,4416],[93.2,4499],[93.2,4582],[93.2,4666],[93.2,4749],[93.2,4832],[93.2,4916],[93.2,4998],[93.2,5082],[93.2,5166],[93.2,5249],[93.2,5332],[93.2,5416],[93.2,5499],[93.2,5582],[93.2,5666],[93.2,5749],[93.2,5832],[93.2,5916],[93.2,5999],[93.2,6082],[93.2,6166],[93.2,6249],[93.2,6332],[93.2,6416]]",261.8899,267.3397,15.44105489,3.7531,"[{""rating"":15.441054894179896,""responseTime"":3.753100000023835}]",space,4.9266,,267.3397,Partially,50,267.3418,,,[],,0,6,6,6,1,audio/Narrative7Situation6.wav,audio/Narrative8Situation6.wav,audio/Narrative5Situation6.wav,audio/Narrative6Situation6.wav,3,2,3,2,,,,,,,,,,,,,,,,,,,,,,,,,,,,,,,,,,,,,,,
,,,,,671f12c5d2543b67c0f12e57,2025-07-07_20h41.40.294,group3.4_multiperson,2023.2.2,MacIntel,119.047619,686c2ebf0248f13bef9af11f,686c934f26fe12b187e3cbcd,,,,,,,,,,,,,,,,,,,,,,,,,,,,,267.342,1,audio/Narrative8Situation7.wav,270.348,,270.3481,282.4227,"[[16.8,3674],[22.2,3757],[29.8,3841],[38.1,3924],[51.5,4007],[58,4091],[58,4174],[58,4257],[58,4340],[63.5,4424],[71.5,4507],[74.3,4591],[76.7,4674],[80.9,4757],[82.9,4841],[83,4924],[83,5007],[83,5091],[83,5174],[83,5257],[83,5341],[83,5424],[83,5507],[83,5591],[83,5674],[83,5758],[83,5841],[83,5924],[83,6008],[83,6091],[83,6174],[83,6257],[83,6340],[83,6424],[83,6507],[83,6591],[83,6674],[83.6,6757],[92.6,6841],[100,11424],[100,11507],[100,11590],[100,11674],[100,11757],[100,11841],[100,11924],[100,12007]]",282.4229,283.8643,99.63055969,0.8782,"[{""rating"":99.63055968915344,""responseTime"":0.8782000000476842}]",space,0.9215,,283.8644,Definitely yes,100,283.8666,,,[],,0,7,7,7,1,audio/Narrative7Situation7.wav,audio/Narrative8Situation7.wav,audio/Narrative5Situation7.wav,audio/Narrative6Situation7.wav,5,3,4,5,,,,,,,,,,,,,,,,,,,,,,,,,,,,,,,,,,,,,,,
,,,,,671f12c5d2543b67c0f12e57,2025-07-07_20h41.40.294,group3.4_multiperson,2023.2.2,MacIntel,119.047619,686c2ebf0248f13bef9af11f,686c934f26fe12b187e3cbcd,,,,,,,,,,,,,,,,,,,,,,,,,,,,,283.8669,1,audio/Narrative8Situation8.wav,286.8726,,286.8726,299.714,"[[96.4,333],[67.4,1083],[67.5,1166],[67.5,1249],[67.5,1333],[67.5,1416],[67.5,1499],[67.5,1583],[67.6,1666],[69.2,1749],[71,1833],[71.5,1916],[71.6,1999],[71.7,2083],[71.7,2166],[71.7,2249],[71.4,2332],[71.1,2416],[71.1,2499],[71.1,2583],[71.1,2666],[71.1,2749],[71.1,2833],[71,2916],[71.7,2999],[73.8,3583],[73.8,3666],[73.8,3749],[73.8,3832],[73.7,3916],[73.7,3999],[73.7,4082],[73.7,4166],[73.7,4249],[73.7,4333],[73.7,4416],[73.7,4499],[73.7,4583],[73.7,4666],[73.7,4749],[73.7,4832],[73.7,4916],[73.7,4999],[73.7,5083],[73.7,5166],[73.7,5249],[73.7,5333],[73.7,5416],[73.7,5499],[73.7,5583],[74,5666],[75.1,5749],[76.4,5833],[78.9,5916],[83.5,5999],[90.8,6082],[98.6,6166],[100,6249],[100,6332],[100,6416],[98.4,6499],[98,6582],[98,6666],[98,6748],[98.5,6833],[100,6916],[100,6999],[100,7082],[100,7165],[100,7249],[100,7332],[100,7416],[100,7499],[100,7583],[100,7666],[100,7749],[100,7833],[100,7916],[100,7999],[100,8083],[100,8166],[100,8249],[100,8333],[100,8416],[100,8499],[100,8583],[100,8665],[100,8749],[100,8833],[100,8916],[100,8999],[100,9083],[100,9166],[100,9249],[100,9333],[100,9416],[100,9499],[100,9583],[100,9666],[100,9749],[100,9833],[100,9915],[100,9999],[100,10083],[100,10166],[100,10249],[100,10333],[100,10416],[100,10499],[100,10583],[100,10666],[100,10749],[100,10833],[100,10916],[100,10999],[100,11082],[100,11166],[100,11249],[100,11333],[100,11416],[100,11499],[100,11583],[100,11666],[100,11749],[100,11833],[100,11916],[100,11999],[100,12082],[100,12165],[100,12249],[100,12333],[100,12416],[100,12499],[100,12583],[100,12666],[100,12749],[100,12833]]",299.7141,301.0557,99.20273231,0.8949,"[{""rating"":99.20273230820106,""responseTime"":0.8948999999761327}]",space,0.819,,301.0558,Not at all,0,301.0581,,,[],,0,8,8,8,1,audio/Narrative7Situation8.wav,audio/Narrative8Situation8.wav,audio/Narrative5Situation8.wav,audio/Narrative6Situation8.wav,2,3,3,5,,,,,,,,,,,,,,,,,,,,,,,,,,,,,,,,,,,,,,,
,,,,,671f12c5d2543b67c0f12e57,2025-07-07_20h41.40.294,group3.4_multiperson,2023.2.2,MacIntel,119.047619,686c2ebf0248f13bef9af11f,686c934f26fe12b187e3cbcd,,,,,,,,,,,,,,,,,,,,,,,,,,,,,301.0584,1,audio/Narrative8Situation9.wav,304.0641,,304.0641,315.372,"[[98.3,4507],[94.9,4591],[91.5,4674],[89.5,4757],[86.7,4841],[84.8,4924],[84.7,5007],[84.7,5091],[84.7,5174],[84.7,5257],[84.7,5341],[84.7,5424],[84.7,5507],[84.7,5591],[84.7,5674],[84.7,5757],[84.7,5841],[84.7,5923],[84.7,6008],[84.7,6091],[84.7,6174],[84.7,6258],[84.7,6341],[84.7,6424],[84.7,6508],[84.7,6591],[84.7,6674],[84.7,6758],[84.7,6841],[84.7,6924],[84.7,7008],[84.7,7091],[84.7,7174],[84.7,7258],[84.7,7341],[84.7,7424],[84.7,7507],[84.8,7591],[84.9,7674],[85,7757],[85.4,7841],[87.8,7924],[90.9,8007],[92.5,8090],[94.5,8174],[97.3,8257],[97.3,8341],[96.6,8424],[96.6,8507],[96.6,8591],[96.6,8673],[96.6,8757],[96.6,8841],[96.6,8923],[96.6,9007],[96.6,9091],[96.6,9174],[96.6,9258],[96.6,9340],[96.6,9424],[96.6,9508],[96.6,9591],[96.6,9674],[96.6,9757],[96.6,9841],[96.6,9924],[96.6,10007],[96.6,10091],[96.6,10174],[96.6,10257],[96.6,10341],[96.6,10424],[96.6,10507],[96.8,10591],[96.9,10674],[96.9,10757],[96.9,10841],[96.9,10924],[96.8,11008],[96.4,11091],[95.9,11174],[95.5,11257]]",315.372,320.3304,51.57490079,4.287,"[{""rating"":74.326740244709,""responseTime"":2.928799999952332},{""rating"":51.57490079365079,""responseTime"":4.286999999999978}]",space,4.437,,320.3305,Not at all,0,320.3319,,,[],,0,9,9,9,1,audio/Narrative7Situation9.wav,audio/Narrative8Situation9.wav,audio/Narrative5Situation9.wav,audio/Narrative6Situation9.wav,2,3,3,4,,,,,,,,,,,,,,,,,,,,,,,,,,,,,,,,,,,,,,,
,,,,,671f12c5d2543b67c0f12e57,2025-07-07_20h41.40.294,group3.4_multiperson,2023.2.2,MacIntel,119.047619,686c2ebf0248f13bef9af11f,686c934f26fe12b187e3cbcd,,,,,,,,,,,,,,,,,,,,,,,,,,,,,320.3321,1,audio/Narrative7Situation1.wav,322.3387,,322.3388,378.2046,"[[63.3,8591],[81.5,8674],[86.3,8757],[86.5,8841],[85.9,8924],[78,9007],[71.5,9091],[58.5,9174],[56.1,9257],[56.1,9341],[56.1,9424],[56.5,9508],[63.1,9591],[68.7,9674],[69.2,9757],[69.3,9841],[72,9924],[73.9,10007],[75.6,10091],[77,10174],[78,10257],[78.1,10341],[78.1,10424],[77.6,10507],[76.9,10591],[75.9,10674],[74.9,10757],[74.4,10841],[74.4,10924],[74.4,11008],[74.4,11091],[74.4,11174],[74.4,11258],[74.4,11340],[74.4,11424],[74.4,11508],[74.4,11591],[74.4,11674],[74.4,11758],[74.4,11841],[74.4,11924],[74.4,12007],[74.4,12091],[74.4,12174],[74.4,12257],[74.4,12341],[74.4,12424],[74.4,12508],[74.4,12591],[74.4,12674],[74.4,12758],[74.4,12841],[74.4,12924],[74.4,13008],[74.4,13091],[74.4,13174],[74.4,13257],[74.4,13341],[74.4,13424],[74.4,13508],[74.4,13591],[74.4,13674],[74.4,13757],[74.4,13841],[74.4,13924],[74.4,14008],[74.4,14091],[74.4,14174],[74.4,14257],[74.4,14341],[74.4,14424],[74.4,14507],[74.4,14591],[74.4,14674],[74.4,14757],[74.4,14841],[74.4,14924],[74.4,15007],[74.4,15091],[74.4,15173],[74.4,15257],[74.4,15340],[74.4,15424],[74.4,15507],[74.4,15591],[74.4,15674],[74.4,15757],[74.4,15841],[74.4,15924],[74.4,16008],[74.4,16091],[74.4,16174],[74.4,16257],[74.4,16341],[74.4,16424],[74.4,16507],[74.4,16591],[74.4,16674],[74.4,16757],[74.4,16841],[74.4,16924],[74.4,17007],[74.4,17091],[74.4,17173],[74.4,17257],[74.4,17341],[74.4,17424],[74.4,17507],[74.4,17591],[74.4,17673],[74.4,17757],[74.4,17841],[74.4,17924],[74.4,18007],[74.4,18091],[74.4,18174],[74.4,18257],[74.4,18341],[74.4,18424],[76.4,18507],[78.4,18591],[78.7,18674],[78.7,18757],[78.7,18841],[78.7,18924],[78.7,19007],[78.7,19091],[78.7,19174],[78.7,19257],[78.7,19341],[78.7,19424],[78.7,19507],[78.7,19591],[78.7,19674],[78.7,19757],[78.7,19841],[78.7,19924],[78.7,20007],[78.7,20091],[78.7,20174],[78.7,20257],[78.7,20341],[78.7,20424],[78.7,20507],[78.7,20591],[78.7,20674],[78.7,20757],[78.7,20841],[78.7,20924],[78.7,21007],[78.7,21091],[78.7,21174],[78.7,21257],[78.7,21340],[78.7,21424],[78.7,21507],[78.7,21590],[78.7,21673],[78.7,21757],[78.7,21841],[78.7,21924],[78.7,22007],[78.7,22091],[78.7,22174],[78.7,22257],[78.7,22341],[78.7,22424],[78.7,22507],[78.7,22591],[78.7,22674],[78.7,22757],[78.7,22841],[78.7,22924],[78.7,23007],[78.7,23091],[78.7,23174],[78.7,23257],[78.7,23341],[78.7,23424],[78.7,23507],[78.7,23591],[78.7,23674],[78.7,23757],[78.7,23841],[78.7,23924],[78.7,24007],[78.7,24090],[78.7,24174],[78.7,24257],[78.7,24341],[78.7,24424],[78.7,24507],[78.7,24591],[78.8,24674],[82.1,24757],[84.7,24840],[84.9,24924],[85,25007],[85,25090],[85,25174],[85,25257],[85.1,25341],[86.1,25424],[86.5,25507],[86.6,25590],[86.8,25674],[87.8,25757],[88.1,25841],[88.1,25924],[88.1,26007],[88.1,26091],[88.1,26174],[88.1,26257],[88.1,26341],[88.1,26424],[88.1,26507],[88.1,26591],[88.1,26674],[88.1,26757],[88.1,26841],[88.1,26924],[87.9,27007],[87,27090],[86.4,27174],[86.1,27257],[85.8,27340],[85.8,27424],[85.8,27507],[85.8,27591],[85.8,27674],[85.8,27757],[85.8,27841],[85.8,27924],[85.8,28007],[85.8,28091],[85.8,28174],[85.8,28257],[85.8,28341],[85.8,28424],[85.8,28507],[85.8,28591],[85.8,28674],[85.8,28757],[85.8,28841],[85.8,28924],[85.8,29007],[85.8,29090],[85.8,29174],[85.2,29257],[83.6,29340],[83.5,29424],[83.5,29507],[83.5,29591],[83.5,29674],[83.5,29757],[83.5,29841],[83.5,29924],[83.5,30007],[83.5,30091],[83.5,30174],[83.5,30257],[83.5,30341],[83.5,30423],[83.5,30507],[83.5,30591],[83.5,30674],[83.5,30757],[83.5,30840],[83.5,30924],[83.5,31007],[83.5,31090],[83.5,31174],[83.5,31257],[83.5,31341],[83.5,31423],[83.5,31507],[83.5,31591],[83.5,31674],[83.5,31757],[83.5,31841],[83.5,31924],[83.5,32007],[83.5,32090],[83.5,32173],[83.5,32257],[83.5,32341],[83.5,32424],[83.5,32507],[83.5,32591],[83.5,32673],[83.5,32757],[83.5,32841],[83.5,32923],[83.5,33007],[83.5,33091],[83.5,33173],[83.5,33257],[83.4,33341],[83.1,33424],[80.9,33507],[79.8,33590],[79.7,33674],[79.7,33757],[79.7,33840],[79.7,33924],[79.7,34006],[79.7,34091],[79.8,34174],[79.8,34257],[79.8,34341],[79.8,34424],[79.8,34507],[79.8,34590],[79.8,34674],[79.8,34757],[79.8,34841],[79.8,34924],[79.8,35007],[79.8,35090],[79.8,35174],[79.8,35257],[79.8,35340],[79.8,35423],[80.8,35507],[84,35590],[84.4,35674],[84.4,35757],[84.4,35841],[84.4,35924],[84.4,36006],[84.4,36091],[84.4,36173],[84.4,36257],[84.4,36340],[84.4,36424],[84.4,36507],[84.4,36590],[84.4,36674],[84.4,36757],[84.4,36840],[84.4,36924],[84.4,37007],[84.4,37090],[84.4,37174],[84.4,37257],[84.4,37340],[84.4,37424],[84.4,37507],[84.4,37591],[84.4,37674],[84.4,37757],[84.4,37840],[84.4,37924],[84.4,38007],[84.4,38091],[84.4,38174],[84.4,38257],[84.4,38341],[84.4,38424],[84.4,38507],[84.4,38590],[84.4,38674],[84.4,38757],[84.4,38840],[84.4,38924],[84.4,39007],[84.4,39090],[84.4,39174],[84.4,39257],[84.4,39340],[84.4,39424],[84.4,39507],[84.4,39590],[84.4,39674],[84.4,39757],[84.4,39840],[84.4,39924],[84.4,40007],[84.4,40090],[84.4,40174],[84.4,40257],[84.4,40340],[84.4,40424],[84.4,40507],[84.4,40590],[84.4,40674],[84.4,40757],[84.4,40840],[84.4,40924],[84.4,41007],[84.4,41090],[84.4,41174],[84.4,41257],[84.4,41340],[84.4,41424],[84.4,41507],[84.4,41590],[84.4,41674],[84.4,41757],[84.4,41840],[84.4,41924],[84.4,42007],[84.4,42090],[84.4,42173],[84.4,42257],[84.4,42340],[84.4,42424],[84.4,42507],[84.4,42590],[84.4,42674],[84.4,42757],[84.4,42840],[84.4,42924],[84.4,43007],[84.4,43091],[84.4,43174],[84.4,43257],[84.4,43340],[84.4,43424],[84.4,43507],[84.4,43590],[84.4,43674],[84.4,43757],[84.3,43840],[83.8,43924],[83.6,44007],[83.6,44090],[83.6,44174],[83.6,44257],[83.6,44340],[83.6,44424],[83.6,44507],[83.6,44591],[83.6,44674],[83.6,44757],[83.6,44840],[83.6,44924],[83.6,45007],[83.6,45090],[83.6,45174],[83.6,45256],[83.6,45340],[83.6,45424],[83.6,45507],[83.6,45590],[83.6,45674],[83.6,45757],[83.6,45840],[83.6,45924],[83.6,46006],[83.6,46090],[83.6,46174],[83.6,46256],[83.6,46340],[83.6,46424],[83.6,46507],[83.6,46590],[83.6,46674],[83.6,46757],[83.6,46840],[83.6,46924],[83.6,47007],[83.6,47090],[83.6,47174],[83.6,47257],[83.6,47340],[83.6,47424],[83.6,47507],[83.6,47590],[83.6,47674],[83.6,47757],[83.6,47840],[83.6,47924],[83.6,48007],[83.6,48090],[83.6,48174],[83.6,48257],[83.6,48340],[83.6,48424],[83.6,48507],[83.6,48590],[83.6,48674],[83.6,48757],[83.6,48840],[83.6,48924],[83.6,49007],[83.6,49090],[83.6,49174],[83.6,49257],[83.6,49341],[83.6,49424],[83.6,49507],[83.6,49590],[83.6,49674],[83.6,49757],[83.6,49840],[83.6,49924],[83.6,50007],[83.6,50090],[83.6,50174],[83.6,50257],[83.6,50340],[83.6,50423],[83.6,50507],[83.6,50590],[83.6,50674],[83.6,50756],[83.6,50840],[83.6,50923],[83.6,51007],[83.6,51090],[83.6,51174],[83.6,51257],[83.6,51340],[83.6,51424],[83.6,51507],[83.6,51590],[83.6,51674],[83.6,51757],[83.6,51840],[83.6,51924],[83.6,52007],[83.6,52090],[83.6,52174],[83.6,52256],[83.6,52340],[83.6,52424],[83.6,52507],[83.6,52590],[83.6,52673],[83.6,52757],[83.6,52839],[83.6,52924],[83.6,53007],[83.6,53090],[83.6,53173],[83.6,53257],[83.6,53340],[83.6,53424],[83.6,53507],[83.6,53590],[83.6,53673],[83.6,53757],[83.6,53840],[83.6,53924],[83.6,54007],[83.6,54090],[83.6,54174],[83.6,54256],[83.6,54340],[83.6,54424],[83.6,54507],[83.5,54590],[85.5,54673],[89.1,54757],[89.4,54840],[89.4,54924],[89.4,55007],[88,55090],[87.2,55173],[87.2,55257],[87.2,55340],[87.2,55424],[87.2,55507],[87.2,55590],[87.2,55674],[87.1,55757],[87.1,55840]]",378.2048,380.3128,99.31227265,1.4949,"[{""rating"":99.31227265211639,""responseTime"":1.4948999999761554}]",space,1.5866,,380.3129,Definitely yes,100,380.3155,,,[],,0,10,10,10,1,audio/Narrative8Situation1.wav,audio/Narrative7Situation1.wav,audio/Narrative6Situation1.wav,audio/Narrative5Situation1.wav,5,2,2,5,,,,,,,,,,,,,,,,,,,,,,,,,,,,,,,,,,,,,,,
,,,,,671f12c5d2543b67c0f12e57,2025-07-07_20h41.40.294,group3.4_multiperson,2023.2.2,MacIntel,119.047619,686c2ebf0248f13bef9af11f,686c934f26fe12b187e3cbcd,,,,,,,,,,,,,,,,,,,,,,,,,,,,,380.3158,1,audio/Narrative7Situation2.wav,383.321,,383.3211,390.7875,"[[88.9,666],[81.4,749]]",390.7875,393.5785,49.64089368,2.3033,"[{""rating"":49.64089368386244,""responseTime"":2.303299999952287}]",space,2.2705,,393.5786,Not at all,0,393.5806,,,[],,0,11,11,11,1,audio/Narrative8Situation2.wav,audio/Narrative7Situation2.wav,audio/Narrative6Situation2.wav,audio/Narrative5Situation2.wav,3,3,3,3,,,,,,,,,,,,,,,,,,,,,,,,,,,,,,,,,,,,,,,
,,,,,671f12c5d2543b67c0f12e57,2025-07-07_20h41.40.294,group3.4_multiperson,2023.2.2,MacIntel,119.047619,686c2ebf0248f13bef9af11f,686c934f26fe12b187e3cbcd,,,,,,,,,,,,,,,,,,,,,,,,,,,,,393.5808,1,audio/Narrative7Situation3.wav,401.5875,space,401.5876,410.829,"[[999,0],[999,91],[999,173],[999,258],[999,341],[999,424],[999,508],[999,591],[999,674],[999,758],[999,841],[53,924],[53,1007],[53,1091],[52.9,1174],[52.9,1257],[52.9,1341],[52.9,1424],[52.9,1507],[52.9,1591],[52.9,1674],[52.9,1758],[53,1840],[55.3,1924],[60.3,2007],[65.9,2091],[68.2,2174],[68.3,2257],[68.3,2341],[68.3,2424],[68.3,2507],[68.3,2591],[68.3,2674],[68.3,2757],[68.3,2841],[68.3,2924],[68.3,3008],[68.3,3091],[68.3,3174],[68.3,3257],[68.3,3341],[68.3,3424],[68.3,3508],[68.3,3591],[68.3,3674],[68.3,3758],[68.3,3840],[68.3,3924],[68.3,4008],[68.3,4091],[68.3,4174],[68.3,4257],[68.3,4341],[68.3,4424],[68.3,4507],[68.3,4591],[68.3,4674],[68.3,4757],[68.3,4841],[68.3,4924],[68.3,5007],[68.3,5091],[68.3,5174],[68.3,5258],[68.3,5341],[68.3,5424],[68.3,5507],[68.3,5591],[68.3,5674],[68.3,5758],[68.3,5841],[68.3,5924],[68.3,6007],[68.3,6091],[68.3,6174],[68.3,6258],[68.3,6341],[68.3,6424],[68.3,6507],[68.3,6591],[68.3,6674],[68,6758],[62.9,6841],[62.1,6924],[69.1,7007],[74.2,7091],[76.1,7174],[76.3,7257],[76.3,7341],[76.3,7424],[75,7507],[74.1,7591],[73.7,7674],[72.9,7757],[72.8,7841],[72.9,7924],[73,8007],[73,8091],[73,8174],[73,8257],[73,8341],[73,8424],[73,8507],[73,8591],[73,8674],[73,8757],[73,8841],[73,8924],[73,9007],[73,9091],[73,9174]]",410.8293,416.4286,72.71877067,1.6222,"[{""rating"":72.71877066798942,""responseTime"":1.6222000000476555}]",space,5.0745,,416.4287,Not at all,0,416.4295,,,[],,0,12,12,12,1,audio/Narrative8Situation3.wav,audio/Narrative7Situation3.wav,audio/Narrative6Situation3.wav,audio/Narrative5Situation3.wav,4,8,5,3,4.514,,,,,,,,,,,,,,,,,,,,,,,,,,,,,,,,,,,,,,
,,,,,671f12c5d2543b67c0f12e57,2025-07-07_20h41.40.294,group3.4_multiperson,2023.2.2,MacIntel,119.047619,686c2ebf0248f13bef9af11f,686c934f26fe12b187e3cbcd,,,,,,,,,,,,,,,,,,,,,,,,,,,,,416.4296,1,audio/Narrative7Situation4.wav,419.4372,,419.4373,431.1451,"[[71,8174],[54.9,8257],[48.4,8341],[45.1,8424],[27.2,8507],[25,8591],[25,8674],[25,8757],[15.6,8841],[6.7,8924],[6.7,9007],[6.1,9091],[3.3,9174],[2.2,9257],[1.3,9341],[1.2,9424],[1.2,9507],[1.2,9591],[1.2,9674],[1.2,9757],[1.2,9841],[1.2,9924],[1.2,10007],[1.2,10091],[1.2,10174],[1.2,10257],[1.2,10340],[1.2,10424],[1.2,10507],[1.2,10591],[1.2,10674],[1.2,10757],[1.2,10840],[1.2,10924],[1.2,11007],[1.2,11091],[1.2,11174],[1.2,11257],[1.2,11341],[1.2,11424],[1.2,11507],[1.2,11591],[1.2,11674]]",431.1452,432.8036,0.76264881,1.2119,"[{""rating"":0.7626488095238082,""responseTime"":1.21189999997614}]",space,1.1365,,432.8036,Partially,50,432.8061,,,[],,0,13,13,13,1,audio/Narrative8Situation4.wav,audio/Narrative7Situation4.wav,audio/Narrative6Situation4.wav,audio/Narrative5Situation4.wav,3,3,2,1,,,,,,,,,,,,,,,,,,,,,,,,,,,,,,,,,,,,,,,
,,,,,671f12c5d2543b67c0f12e57,2025-07-07_20h41.40.294,group3.4_multiperson,2023.2.2,MacIntel,119.047619,686c2ebf0248f13bef9af11f,686c934f26fe12b187e3cbcd,,,,,,,,,,,,,,,,,,,,,,,,,,,,,432.8064,1,audio/Narrative7Situation5.wav,437.8119,space,437.8119,446.2868,"[[1.9,1916],[4,1999],[8.6,2083],[16.1,2166],[22.2,2249],[25.9,2332],[29.7,2415],[33.9,2499],[36.5,2582],[35.3,2666],[35.3,2749],[35.3,2833],[35.3,2916],[35.3,2999],[35.3,3083],[35.3,3166],[35.3,3249],[35.3,3333],[35.3,3416],[35.3,3499],[35.3,3583],[35.3,3666],[35.3,3749],[38,3832],[67.7,3916],[84,4582],[84,4666],[84,4749],[84,4832],[84,4915],[84,5000],[84,5083],[84,5166],[84,5249],[83.9,5332],[83.5,5416],[83.1,5499],[82.9,5583],[82.6,5666],[82.3,5749],[82.3,5832],[82.2,5916],[82.2,5999],[82.2,6083],[82.2,6166],[82.2,6249],[82.2,6333],[82.2,6416],[80.8,6499],[73.6,6582],[70.4,6666],[70.4,6749],[70.4,6833],[69.1,6916],[62,6999],[61.2,7082],[61.2,7166],[61.1,7250],[59.4,7332],[55.5,7416],[54.5,7499],[54.3,7582],[53.6,7666],[53.1,7749],[51.7,7832],[49.9,7916],[49.4,7999],[49.4,8082],[49.4,8166],[49.4,8249],[49.4,8333],[49.4,8416]]",446.287,448.8696,49.70754795,1.9118,"[{""rating"":49.70754794973545,""responseTime"":0.8870999999045921},{""rating"":49.70754794973545,""responseTime"":1.9117999999522794}]",space,2.06,,448.8698,Partially,50,448.8716,,,[],,0,14,14,14,1,audio/Narrative8Situation5.wav,audio/Narrative7Situation5.wav,audio/Narrative6Situation5.wav,audio/Narrative5Situation5.wav,2,5,2,5,3.7878,,,,,,,,,,,,,,,,,,,,,,,,,,,,,,,,,,,,,,
,,,,,671f12c5d2543b67c0f12e57,2025-07-07_20h41.40.294,group3.4_multiperson,2023.2.2,MacIntel,119.047619,686c2ebf0248f13bef9af11f,686c934f26fe12b187e3cbcd,,,,,,,,,,,,,,,,,,,,,,,,,,,,,448.8719,1,audio/Narrative7Situation6.wav,451.8782,,451.8783,461.8358,"[[49.6,2583],[49.5,2666],[49.5,2749],[49.5,2833],[49.5,2916],[49.5,3000],[49.5,3083],[49.5,3166],[49.5,3249],[49.5,3333],[49.5,3416],[50,3499],[51.9,3582],[56.3,3666],[59.1,3749],[63.2,3833],[67.6,3916],[70.7,3999],[74.8,4083],[77.6,4166],[78.3,4249],[81.6,4333],[83.6,4416],[84,4499],[85.8,4583],[86.2,4666],[86.2,4749],[84.6,4833],[82.3,4916],[82.2,4999],[82.2,5082],[82.4,5166],[83.6,5249],[83.8,5333],[83.8,5416],[83.8,5499],[83.8,5582],[83.8,5666],[83.8,5750],[83.8,5833],[83.8,5916],[83.8,5998],[83.8,6083],[83.8,6165],[83.8,6249],[83.8,6333],[83.8,6416],[83.8,6499],[83.8,6583],[83.8,6666],[83.8,6749],[83.8,6833],[83.8,6916],[83.8,6999],[83.8,7083],[83.8,7166],[83.8,7249],[83.8,7333],[83.8,7416],[83.8,7499],[83.8,7583],[83.8,7666],[83.8,7749],[83.8,7833],[83.8,7916],[83.8,7999],[83.8,8083],[83.8,8166],[83.8,8249],[83.8,8333],[83.8,8416],[83.8,8499],[83.8,8583],[83.8,8666],[83.8,8749],[83.8,8833],[83.8,8916],[83.8,8999],[83.8,9083],[83.8,9166],[83.8,9249],[83.8,9333],[83.8,9416],[83.8,9499],[83.8,9583],[83.8,9666],[82.3,9749],[80.5,9832],[80.4,9916]]",461.8359,463.3865,75.09300595,0.9548,"[{""rating"":75.09300595238095,""responseTime"":0.9547999999523427}]",space,1.0349,,463.3865,Partially,50,463.3878,,,[],,0,15,15,15,1,audio/Narrative8Situation6.wav,audio/Narrative7Situation6.wav,audio/Narrative6Situation6.wav,audio/Narrative5Situation6.wav,2,3,2,3,,,,,,,,,,,,,,,,,,,,,,,,,,,,,,,,,,,,,,,
,,,,,671f12c5d2543b67c0f12e57,2025-07-07_20h41.40.294,group3.4_multiperson,2023.2.2,MacIntel,119.047619,686c2ebf0248f13bef9af11f,686c934f26fe12b187e3cbcd,,,,,,,,,,,,,,,,,,,,,,,,,,,,,463.388,1,audio/Narrative7Situation7.wav,468.3947,space,468.3947,485.5528,"[[72.1,1008],[67,1091],[61.4,1174],[61.1,1258],[61.1,1341],[61.1,1424],[61.1,1508],[61.1,1591],[61.1,1674],[61.1,1758],[61.1,1841],[61.3,1925],[62.8,2008],[62.9,2091],[62.9,2174],[62.9,2258],[62.9,2341],[62.9,2424],[62.9,2508],[62.9,2591],[62.9,2674],[62.9,2758],[62.9,2841],[62.9,2924],[62.9,3008],[62.9,3091],[62.9,3174],[62.9,3258],[62.9,3341],[62.9,3424],[62.9,3508],[62.9,3591],[62.9,3674],[62.9,3758],[62.9,3841],[62.9,3924],[62.9,4008],[62.9,4091],[62.9,4174],[62.9,4258],[62.9,4341],[62.9,4424],[62.9,4508],[62.9,4591],[62.9,4674],[62.9,4758],[62.9,4841],[62.9,4924],[62.9,5008],[62.9,5091],[62.9,5174],[62.9,5258],[62.9,5341],[63,5425],[64.5,5508],[66.3,5591],[68.3,5674],[70.5,5757],[74.8,5841],[80.2,5924],[82.2,6007],[82.3,6091],[82.3,6174],[82.3,6258],[82.3,6341],[82.1,6424],[81.8,6508],[81.4,6591],[81,6674],[80.6,6757],[80.4,6841],[80.3,6924],[79.7,7008],[78.5,7091],[77.7,7174],[77.6,7257],[77.6,7341],[77.6,7424],[77.6,7508],[77.6,7591],[77.6,7674],[77.6,7758],[77.6,7841],[77.6,7924],[77.6,8008],[77.6,8091],[77.7,8174],[77.8,8258],[77.8,8341],[78,8424],[78,8508],[78,8591],[79.4,8674],[79.8,8757],[79.8,8840],[79.8,8924],[79.8,9008],[79.8,9091],[79.8,9175],[79.8,9257],[79.8,9341],[79.8,9424],[79.8,9508],[79.8,9591],[79.8,9674],[79.8,9757],[79.8,9841],[79.8,9924],[79.8,10008],[79.8,10091],[79.8,10174],[79.8,10258],[79.8,10341],[79.8,10424],[79.8,10508],[79.8,10591],[79.8,10674],[79.8,10758],[79.8,10841],[79.8,10924],[79.8,11008],[79.8,11091],[79.8,11174],[79.8,11258],[79.8,11341],[79.8,11423],[79.8,11508],[79.8,11591],[79.8,11674],[79.8,11758],[79.8,11841],[79.8,11924],[79.8,12008],[79.8,12091],[79.8,12174],[79.8,12257],[79.8,12341],[79.8,12424],[79.8,12508],[79.8,12591],[79.8,12674],[79.8,12758],[79.8,12841],[79.8,12924],[79.8,13008],[79.8,13091],[79.8,13174],[79.8,13257],[79.8,13341],[79.8,13424],[79.8,13508],[79.8,13591],[79.8,13673],[79.8,13758],[79.8,13841],[79.8,13924],[79.8,14007],[79.8,14091],[79.8,14174],[79.8,14258],[79.8,14341],[79.8,14424],[79.8,14508],[79.8,14591],[79.8,14674],[80.7,14757],[81.7,14841],[81.7,14924],[81.7,15007],[81.8,15091],[81.9,15174],[81.9,15257],[81.9,15341],[81.9,15424],[81.9,15507],[81.9,15590],[81.9,15674],[81.9,15758],[81.9,15841],[81.9,15924],[81.9,16008],[81.9,16091],[81.9,16174],[81.7,16257],[81.7,16341],[81.7,16424],[81.7,16508],[81.7,16591],[81.7,16674],[81.7,16757],[81.7,16841],[81.7,16924],[81.7,17008],[81.7,17091]]",485.553,487.9196,84.32591353,0.97,"[{""rating"":84.32591352513228,""responseTime"":0.9700000000000273}]",space,1.8456,,487.9196,Partially,50,487.9212,,,[],,0,16,16,16,1,audio/Narrative8Situation7.wav,audio/Narrative7Situation7.wav,audio/Narrative6Situation7.wav,audio/Narrative5Situation7.wav,3,5,5,4,3.7901,,,,,,,,,,,,,,,,,,,,,,,,,,,,,,,,,,,,,,
,,,,,671f12c5d2543b67c0f12e57,2025-07-07_20h41.40.294,group3.4_multiperson,2023.2.2,MacIntel,119.047619,686c2ebf0248f13bef9af11f,686c934f26fe12b187e3cbcd,,,,,,,,,,,,,,,,,,,,,,,,,,,,,487.9215,1,audio/Narrative7Situation8.wav,489.9276,,489.9277,499.9356,"[[81.4,9591],[76.8,9674],[72.5,9758],[67.7,9841],[65.8,9924],[65.7,10007]]",499.9357,505.2359,46.91323578,4.2952,"[{""rating"":46.91323578042328,""responseTime"":4.295200000047657}]",space,4.785,,505.2359,Definitely yes,100,505.2381,,,[],,0,17,17,17,1,audio/Narrative8Situation8.wav,audio/Narrative7Situation8.wav,audio/Narrative6Situation8.wav,audio/Narrative5Situation8.wav,3,2,5,3,,,,,,,,,,,,,,,,,,,,,,,,,,,,,,,,,,,,,,,
,,,,,671f12c5d2543b67c0f12e57,2025-07-07_20h41.40.294,group3.4_multiperson,2023.2.2,MacIntel,119.047619,686c2ebf0248f13bef9af11f,686c934f26fe12b187e3cbcd,,,,,,,,,,,,,,,,,,,,,,,,,,,,,505.2383,1,audio/Narrative7Situation9.wav,507.2432,,507.2434,515.8523,[],515.8524,523.5522,58.85364997,6.7863,"[{""rating"":73.18741732804233,""responseTime"":1.1853999999761982},{""rating"":58.85364996693122,""responseTime"":6.786299999952348}]",space,7.1793,,523.5522,Not at all,0,523.5549,,,[],,0,18,18,18,1,audio/Narrative8Situation9.wav,audio/Narrative7Situation9.wav,audio/Narrative6Situation9.wav,audio/Narrative5Situation9.wav,3,2,4,3,,,,,,,,,,,,,,,,,,,,,,,,,,,,,,,,,,,,,,,
,,,,,671f12c5d2543b67c0f12e57,2025-07-07_20h41.40.294,group3.4_multiperson,2023.2.2,MacIntel,119.047619,686c2ebf0248f13bef9af11f,686c934f26fe12b187e3cbcd,,,,,,,,,,,,,,,,,,,,,,,,,,,528.7277,531.302,531.3143,2,audio/Narrative13Situation2.wav,531.3144,,531.3144,561.043,"[[999,0],[999,87],[999,170],[999,254],[999,337],[999,420],[999,504],[999,587],[999,670],[999,754],[999,837],[999,920],[999,1004],[999,1087],[999,1170],[999,1253],[60.1,1336],[60.2,1420],[59.8,1504],[58.7,1587],[58.3,1920],[57.9,2004],[57.9,2087],[58,2170],[58,2254],[51.5,2337],[45.6,2420],[46.3,2504],[46.3,2587],[46.3,2670],[46.3,2753],[46.3,2837],[35.2,2920],[21.9,3003],[22.1,3087],[22.1,3170],[22.1,3254],[22,3336],[14.1,3420],[10.4,3504],[10.4,3587],[8,3670],[4.5,3754],[4.5,3837],[4.7,3920],[4.8,4004],[5.1,4087],[5.7,4170],[6.9,4254],[8.1,4337],[9,4420],[10.4,4504],[11,4587],[11.3,4670],[11.3,4754],[11.4,4837],[11.4,4920],[11.4,5004],[11.4,5087],[11.4,5170],[11.4,5254],[11.4,5337],[11.4,5420],[11.4,5504],[11.4,5587],[11.4,5670],[11.4,5754],[11.4,5837],[11.4,5920],[11.4,6004],[11.4,6087],[11.4,6170],[11.4,6254],[11.4,6337],[11.4,6420],[11.4,6504],[11.4,6587],[11.4,6670],[11.4,6754],[11.8,6837],[14.2,6920],[17,7004],[17.2,7087],[17.2,7170],[17.2,7254],[17.2,7337],[17.2,7420],[17.2,7503],[17.2,7587],[17.2,7670],[17.9,7753],[19.1,7837],[19.3,7920],[19.3,8004],[19.3,8087],[19.3,8170],[19.3,8254],[19.3,8337],[19.3,8420],[19.3,8504],[36.9,8586],[51.3,8670],[51.7,8753],[51.7,8837],[51.7,8920],[53.9,9003],[63.1,9087],[65.6,9170],[65.8,9253],[65.8,9337],[65.9,9420],[70.3,9503],[73.3,9587],[73.7,9670],[73.7,9754],[73.7,9837],[73.7,9920],[73.7,10004],[73.7,10087],[73.7,10170],[73.7,10253],[73.7,10337],[73.7,10420],[73.7,10503],[73.7,10587],[73.7,10670],[73.7,10753],[73.7,10837],[73.7,10920],[73.7,11004],[73.7,11086],[73.7,11170],[73.7,11253],[73.7,11337],[73.7,11420],[73.7,11504],[73.7,11587],[73.7,11670],[73.7,11754],[73.7,11837],[73.7,11920],[73.7,12004],[73.7,12087],[73.7,12170],[73.7,12254],[73.7,12337],[73.7,12420],[73.7,12504],[73.7,12586],[73.7,12670],[73.7,12753],[73.7,12837],[73.7,12920],[73.7,13004],[73.7,13087],[73.7,13170],[73.7,13253],[73.7,13337],[73.7,13420],[73.7,13504],[73.7,13587],[73.7,13670],[73.7,13754],[73.7,13837],[73.7,13919],[73.7,14004],[73.7,14087],[73.7,14170],[73.7,14254],[73.7,14337],[73.7,14420],[73.7,14504],[73.7,14587],[73.7,14670],[73.7,14754],[73.7,14837],[73.7,14920],[73.7,15003],[73.7,15087],[73.7,15170],[73.7,15254],[73.7,15337],[73.7,15420],[73.7,15503],[73.7,15587],[73.7,15670],[73.7,15754],[73.7,15837],[73.7,15920],[73.7,16004],[73.7,16087],[73.7,16170],[73.7,16254],[73.7,16336],[73.7,16420],[73.7,16504],[73.7,16587],[73.7,16670],[73.7,16753],[73.7,16837],[73.7,16920],[73.7,17004],[73.7,17087],[73.7,17170],[73.7,17253],[73.7,17337],[73.7,17420],[73.7,17504],[73.7,17587],[73.7,17670],[73.7,17753],[73.7,17836],[73.7,17920],[73.7,18004],[73.7,18087],[73.7,18170],[73.7,18253],[73.7,18337],[73.7,18420],[73.7,18503],[73.7,18586],[73.7,18670],[73.7,18753],[73.7,18837],[73.7,18920],[73.7,19003],[73.7,19087],[73.7,19170],[73.7,19253],[73.7,19337],[73.7,19420],[73.7,19502],[73.7,19587],[73.7,19670],[73.7,19753],[73.7,19836],[73.7,19920],[73.7,20004],[73.7,20087],[73.7,20170],[73.7,20253],[73.7,20337],[73.7,20420],[73.7,20504],[73.7,20587],[73.7,20670],[73.7,20753],[73.9,20837],[74.8,20920],[75.8,21003],[76.5,21086],[76.5,21170],[76.6,21253],[76.7,21336],[76.7,21420],[76.7,21503],[76.7,21587],[76.7,21670],[76.7,21753],[76.7,21837],[76.7,21920],[76.7,22004],[76.7,22087],[76.7,22169],[76.7,22253],[76.7,22337],[76.7,22419],[76.7,22503],[76.7,22587],[76.7,22670],[76.7,22753],[76.7,22837],[76.7,22920],[76.7,23004],[76.7,23087],[76.7,23170],[76.7,23253],[76.7,23336],[76.7,23420],[76.1,23503],[75,23586],[74.2,23670],[73.8,23754],[72.5,23836],[70.8,23920],[70.5,24003],[70.5,24086],[70.5,24170],[70.5,24253],[71.4,24336],[72.6,24420],[73.1,24503],[73.3,24586],[73.8,24670],[74.8,24753],[75.6,24836],[75.9,24920],[75.9,25003],[75.9,25087],[75.9,25170],[75.9,25253],[75.9,25337],[75.9,25420],[75.9,25503],[75.9,25586],[75.9,25670],[75.9,25753],[75.9,25837],[75.9,25920],[75.9,26003],[75.9,26087],[75.9,26170],[75.9,26253],[75.9,26337],[75.9,26419],[75.9,26503],[75.9,26586],[75.9,26670],[75.9,26752],[75.9,26837],[75.9,26920],[75.9,27003],[75.9,27087],[75.9,27170],[75.9,27253],[75.9,27337],[75.9,27419],[75.9,27503],[75.9,27587],[75.9,27670],[75.9,27753],[75.9,27837],[75.9,27920],[75.9,28003],[75.9,28087],[75.9,28170],[75.9,28253],[75.9,28336],[75.9,28420],[75.9,28503],[75.9,28586],[75.9,28670],[75.9,28753],[75.9,28837],[75.9,28920],[76,29003],[76,29087],[76,29170],[76,29253],[76,29336],[76,29419],[75.6,29503],[73.6,29586],[73,29670]]",561.0431,561.0442,,,[],,,,561.0442,Definitely yes,100,561.0452,,,[],,0,0,0,0,1,audio/Narrative13Situation2.wav,audio/Narrative13Situation2.wav,audio/Narrative13Situation2.wav,audio/Narrative13Situation2.wav,2,2,2,2,,,,,523.5554,528.7274,space,4.6579,,,,,,,,,,,,,,,,,,,,,,,,,,,,,,,
,,,,,671f12c5d2543b67c0f12e57,2025-07-07_20h41.40.294,group3.4_multiperson,2023.2.2,MacIntel,119.047619,686c2ebf0248f13bef9af11f,686c934f26fe12b187e3cbcd,,,,,,,,,,,,,,,,,,,,,,,,,,,,,561.0454,2,audio/Narrative6Situation1.wav,563.0514,,563.0515,589.6177,"[[68.3,166],[68.3,249],[68.3,333],[68.3,416],[68.3,500],[68,583],[67.7,666],[67.5,749],[67.3,833],[66.3,916],[64.3,999],[64.2,1082],[64.2,1166],[64.2,1250],[61.8,1333],[59.9,1416],[59.6,1499],[59.6,1583],[59.6,1666],[59.6,1749],[59.6,1833],[59.6,1916],[59.6,1999],[58.3,2083],[58.2,2166],[58.2,2249],[58.2,2333],[58.2,2416],[57.3,2499],[56.1,2582],[56,2666],[56,2749],[56,2833],[56,2916],[56,2999],[56,3083],[56,3166],[56,3249],[56,3333],[56,3416],[56,3499],[57.8,3583],[62.5,3666],[63.6,3749],[64.3,3833],[66.4,3916],[66.8,3998],[66.8,4082],[66.8,4166],[66.8,4249],[66.9,4332],[70.7,4416],[73,4499],[73.3,4582],[73.3,4666],[73.3,4749],[75.8,4832],[80.6,4916],[81.8,4999],[81.9,5082],[81.9,5166],[81.9,5249],[81.9,5333],[81.9,5416],[81.9,5498],[84.6,5583],[86.6,5666],[86.7,5749],[86.7,5832],[86.7,5916],[86.7,5999],[86.7,6083],[86.7,6166],[86.7,6249],[86.7,6333],[86.7,6415],[86.7,6498],[86.7,6583],[86.7,6666],[86.7,6749],[86.7,6833],[86.7,6916],[86.7,6999],[86.7,7083],[86.7,7166],[86.7,7248],[86.7,7333],[86.7,7415],[86.7,7499],[86.7,7583],[86.7,7666],[86.7,7749],[86.7,7833],[86.8,7916],[86.8,7999],[86.8,8083],[86.8,8166],[86.8,8249],[86.8,8332],[86.8,8416],[86.8,8499],[86.8,8583],[86.8,8665],[86.8,8749],[86.8,8832],[86.8,8916],[86.8,8999],[86.8,9082],[86.8,9166],[86.8,9249],[86.8,9333],[86.8,9416],[86.8,9499],[86.8,9583],[86.8,9666],[86.8,9749],[86.3,9832],[86,9916],[85.6,9999],[84.3,10082],[82.7,10166],[82.1,10249],[82,10332],[82,10416],[83.2,10499],[87.9,10582],[88.5,10666],[88.5,10749],[89.1,10832],[89.7,10916],[89.7,10999],[89.7,11083],[90.5,11166],[92.2,11249],[93.3,11332],[93.6,11416],[93.6,11499],[93.6,11583],[93.6,11666],[93.6,11749],[93.6,11833],[93.6,11916],[93.6,11999],[93.6,12083],[93.6,12166],[93.6,12249],[93.6,12333],[93.6,12416],[93.6,12499],[93.6,12583],[93.6,12666],[93.6,12749],[93.6,12832],[93.6,12916],[93.6,12999],[93.6,13082],[93.6,13166],[93.6,13249],[93.6,13332],[93.6,13416],[93.6,13499],[93.6,13583],[93.6,13666],[93.6,13749],[93.6,13833],[93.6,13916],[93.6,13999],[93.6,14082],[93.6,14166],[93.6,14249],[93.6,14333],[93.6,14416],[93.6,14499],[93.6,14583],[93.6,14666],[93.6,14749],[93.6,14833],[93.6,14916],[93.6,14999],[93.6,15082],[93.6,15166],[93.6,15249],[93.6,15332],[93.6,15416],[93.6,15499],[93.6,15582],[93.6,15666],[93.6,15749],[93.6,15832],[93.6,15916],[93.6,15999],[93.6,16083],[93.6,16166],[93.6,16249],[93.6,16332],[93.6,16415],[93.6,16499],[93.6,16582],[93.6,16666],[93.6,16749],[93.6,16833],[93.6,16916],[93.6,16999],[93.6,17082],[93.6,17165],[93.6,17249],[93.6,17332],[93.6,17416],[93.6,17499],[93.6,17582],[93.6,17665],[93.6,17749],[93.6,17832],[93.6,17916],[93.6,17999],[93.6,18083],[93.6,18166],[93.6,18249],[93.6,18332],[93.6,18416],[93.6,18499],[93.6,18582],[93.6,18666],[93.6,18749],[93.6,18832],[93.6,18916],[93.6,18999],[93.6,19082],[93.6,19166],[93.6,19248],[93.6,19332],[93.6,19416],[93.6,19499],[93.6,19582],[93.6,19666],[93.6,19749],[93.6,19832],[93.6,19916],[93.6,19999],[93.6,20082],[93.6,20166],[93.6,20249],[93.6,20332],[93.6,20416],[93.6,20499],[93.6,20582],[93.6,20666],[93.6,20749],[93.6,20833],[93.6,20916],[93.6,20999],[93.6,21082],[93.6,21166],[93.6,21249],[93.6,21332],[93.6,21416],[93.6,21499],[93.6,21582],[93.6,21666],[93.6,21749],[93.6,21832],[93.6,21916],[93.6,21999],[93.6,22082],[93.6,22166],[93.6,22249],[93.6,22332],[93.6,22416],[93.6,22499],[93.6,22582],[93.6,22666],[93.6,22749],[93.6,22832],[93.6,22916],[93.6,22999],[93.6,23082],[93.6,23165],[93.6,23249],[93.6,23332],[93.6,23416],[93.6,23498],[93.6,23582],[93.6,23666],[93.6,23749],[93.6,23831],[93.6,23916],[93.6,23999],[93.6,24082],[93.6,24166],[93.6,24249],[93.6,24331],[93.6,24416],[93.6,24499],[93.6,24582],[93.6,24666],[93.6,24749],[93.6,24831],[93.6,24915],[93.6,24999],[93.6,25082],[93.6,25166],[93.6,25249],[93.6,25331],[93.6,25416],[93.6,25499],[93.6,25582],[93.6,25666],[93.6,25749],[93.5,25832],[93.5,25915],[94,25999],[100,26082],[100,26166],[100,26248],[100,26332],[100,26416],[100,26499]]",589.6179,592.401,88.92350777,2.0985,"[{""rating"":88.92350777116403,""responseTime"":2.0984999999999445}]",space,2.2584,,592.4011,Partially,50,592.4033,,,[],,0,1,1,1,1,audio/Narrative7Situation1.wav,audio/Narrative8Situation1.wav,audio/Narrative5Situation1.wav,audio/Narrative6Situation1.wav,2,5,5,2,,,,,,,,,,,,,,,,,,,,,,,,,,,,,,,,,,,,,,,
,,,,,671f12c5d2543b67c0f12e57,2025-07-07_20h41.40.294,group3.4_multiperson,2023.2.2,MacIntel,119.047619,686c2ebf0248f13bef9af11f,686c934f26fe12b187e3cbcd,,,,,,,,,,,,,,,,,,,,,,,,,,,,,592.4034,2,audio/Narrative6Situation2.wav,595.4093,,595.4094,623.9006,"[[75.5,5099],[73.8,5182],[71.9,5516],[71.9,5599],[71.8,5682],[71.8,5766],[71.8,5849],[71.8,5933],[67.1,6016],[60.8,6099],[60.3,6182],[60.3,6266],[60.3,6349],[60.3,6433],[60.3,6516],[60.3,6599],[56.1,6682],[49.6,6766],[49,6849],[49,6932],[49,7016],[49,7099],[49,7183],[49,7266],[49,7349],[49,7433],[49,7516],[49,7599],[49,7683],[49,7766],[49,7849],[49,7933],[49,8016],[49,8098],[49,8183],[49,8266],[49,8349],[49,8433],[49,8516],[49,8599],[49,8682],[49,8766],[49,8849],[48.6,8933],[44.2,9016],[39.7,9099],[38.9,9182],[38.9,9266],[38.9,9349],[38.9,9432],[38.9,9516],[38.9,9599],[38.9,9682],[38.9,9766],[38.9,9849],[38.9,9932],[38.9,10015],[38.9,10099],[38.9,10182],[38.9,10266],[38.9,10349],[38.9,10433],[38.9,10516],[38.9,10599],[38.9,10681],[38.9,10766],[38.9,10849],[38.9,10932],[38.9,11015],[38.9,11099],[38.9,11183],[39.8,11266],[57.8,11349],[60.3,11432],[58.4,11516],[58.4,11599],[58.4,11682],[58.4,11766],[58.4,11848],[58.4,11932],[58.4,12016],[58.4,12099],[58.4,12183],[58.4,12266],[58.4,12349],[58.4,12432],[58.4,12516],[58.4,12599],[58.4,12682],[58.4,12766],[58.4,12849],[58.8,12933],[71.9,13015],[78.2,13099],[78.3,13182],[78.3,13265],[78.1,13349],[78,13432],[78,13516],[78,13599],[78,13682],[78,13766],[78,13848],[78,13932],[78,14016],[78,14099],[78,14182],[78,14266],[78,14349],[78,14432],[78,14516],[78,14599],[78,14682],[78,14766],[78,14849],[78,14932],[78,15016],[78,15098],[78,15182],[78,15266],[78,15349],[78,15432],[78,15516],[78,15599],[78,15682],[78,15766],[78,15849],[78,15932],[78,16016],[78,16099],[78,16182],[78,16266],[78,16349],[78,16432],[78,16516],[78,16599],[78,16682],[78,16766],[78,16849],[78,16932],[78.8,17015],[100,23765],[100,23849],[100,23932],[100,24015],[100,24099],[99.9,24182],[99.7,24265],[99.7,24348],[99.7,24432],[99.7,24516],[99.7,24599],[99.7,24682],[99.7,24765],[99.7,24849],[99.7,24932],[99.7,25016],[99.7,25099],[99.7,25182],[99.7,25266],[99.7,25348],[99.7,25432],[99.7,25516],[99.7,25599],[99.7,25682],[99.7,25766],[99.7,25849],[99.7,25932],[99.7,26016],[99.7,26098],[99.7,26181],[99.7,26266],[99.7,26349],[99.7,26432],[99.7,26515],[99.7,26599],[99.7,26682],[99.7,26766],[99.7,26849],[99.7,26932],[99.7,27016],[99.7,27099],[99.7,27182],[99.7,27266],[99.7,27349],[99.7,27432],[99.7,27516],[99.7,27599],[99.7,27682],[99.7,27766],[99.7,27849],[99.7,27932],[99.7,28016],[99.7,28099],[99.7,28181],[99.7,28266],[99.7,28349],[99.7,28432]]",623.9007,626.8172,98.90511326,1.1533,"[{""rating"":98.90511326058201,""responseTime"":1.1533000000714537}]",space,2.3933,,626.8173,Not at all,0,626.82,,,[],,0,2,2,2,1,audio/Narrative7Situation2.wav,audio/Narrative8Situation2.wav,audio/Narrative5Situation2.wav,audio/Narrative6Situation2.wav,3,3,3,3,,,,,,,,,,,,,,,,,,,,,,,,,,,,,,,,,,,,,,,
,,,,,671f12c5d2543b67c0f12e57,2025-07-07_20h41.40.294,group3.4_multiperson,2023.2.2,MacIntel,119.047619,686c2ebf0248f13bef9af11f,686c934f26fe12b187e3cbcd,,,,,,,,,,,,,,,,,,,,,,,,,,,,,626.8202,2,audio/Narrative6Situation3.wav,631.8256,,631.8256,644.425,"[[100,8174],[77.1,9091],[76.6,9174],[76.5,9257],[76.3,9341],[76.3,9424],[76.3,9507],[76.5,9591],[76.9,9674],[80.4,9757],[84.6,9841],[86.1,9924],[86.2,10007],[86.2,10091],[86.2,10173],[85.6,10257],[80.5,10341],[78,10424],[78,10507],[78,10591],[78,10674],[78,10757],[78,10841],[78,10924],[78,11007],[78,11091],[78,11174],[78,11257],[78,11341],[78,11423],[78,11507],[78,11591],[78,11674],[78,11758],[77.9,11840],[76.9,11924],[76,12007],[75.1,12091],[73.4,12174],[69.2,12257],[68.9,12341],[68.9,12424],[67.6,12507],[59.1,12591]]",644.4251,646.1086,49.69514716,0.9456,"[{""rating"":49.69514715608466,""responseTime"":0.9456000000237736}]",space,1.1674,,646.1086,Definitely yes,100,646.1105,,,[],,0,3,3,3,1,audio/Narrative7Situation3.wav,audio/Narrative8Situation3.wav,audio/Narrative5Situation3.wav,audio/Narrative6Situation3.wav,8,4,3,5,,,,,,,,,,,,,,,,,,,,,,,,,,,,,,,,,,,,,,,
,,,,,671f12c5d2543b67c0f12e57,2025-07-07_20h41.40.294,group3.4_multiperson,2023.2.2,MacIntel,119.047619,686c2ebf0248f13bef9af11f,686c934f26fe12b187e3cbcd,,,,,,,,,,,,,,,,,,,,,,,,,,,,,646.1106,2,audio/Narrative6Situation4.wav,648.1168,,648.1169,660.7165,"[[50.3,12332],[53.9,12416],[58.8,12499],[63.7,12582]]",660.7165,663.8167,81.28203538,2.5784,"[{""rating"":81.28203538359789,""responseTime"":2.5783999999762273}]",space,2.5852,,663.8168,Definitely yes,100,663.8182,,,[],,0,4,4,4,1,audio/Narrative7Situation4.wav,audio/Narrative8Situation4.wav,audio/Narrative5Situation4.wav,audio/Narrative6Situation4.wav,3,3,1,2,,,,,,,,,,,,,,,,,,,,,,,,,,,,,,,,,,,,,,,
,,,,,671f12c5d2543b67c0f12e57,2025-07-07_20h41.40.294,group3.4_multiperson,2023.2.2,MacIntel,119.047619,686c2ebf0248f13bef9af11f,686c934f26fe12b187e3cbcd,,,,,,,,,,,,,,,,,,,,,,,,,,,,,663.8185,2,audio/Narrative6Situation5.wav,665.8249,,665.825,673.7667,"[[77.1,1832],[69.9,1916],[69,1999],[68.9,2082],[68.8,2166],[67.8,2249],[65.1,2333],[64.9,2416],[64.9,2499],[64.9,2583],[64.6,2666],[64.6,2749],[64.6,2833],[64.6,2916],[64.6,2999],[64.6,3083],[64.6,3166],[64.6,3249],[65.2,3332],[74.3,3416],[79.5,3499],[80.6,3582],[80.6,3666],[80.6,3749],[79.8,3832],[79.8,3916],[79.8,3999],[79.8,4083],[79.8,4166],[79.8,4249],[79.8,4333],[79.8,4416],[79.8,4499],[79.8,4583],[79.8,4666],[79.8,4749],[79.8,4832],[79.8,4916],[79.8,4999],[79.8,5083],[79.8,5166],[79.8,5249],[79.8,5333],[79.8,5416],[79.8,5499],[79.8,5583],[79.8,5666],[79.8,5749],[79.8,5832],[79.8,5915],[79.8,5999],[79.8,6083],[79.8,6166],[79.8,6249],[79.8,6333],[79.8,6416],[79.8,6499],[79.8,6582],[79.8,6666],[79.8,6749],[79.8,6832],[79.8,6916],[79.8,6999],[79.8,7083],[79.8,7166],[79.8,7249],[79.8,7333],[79.8,7416],[79.8,7499],[79.8,7582],[79.8,7666],[79.8,7749],[79.8,7833],[79.8,7916]]",673.7668,676.1914,82.63010499,1.1947,"[{""rating"":82.63010499338624,""responseTime"":1.1947000000476464}]",space,1.9013,,676.1914,Not at all,0,676.1935,,,[],,0,5,5,5,1,audio/Narrative7Situation5.wav,audio/Narrative8Situation5.wav,audio/Narrative5Situation5.wav,audio/Narrative6Situation5.wav,5,2,5,2,,,,,,,,,,,,,,,,,,,,,,,,,,,,,,,,,,,,,,,
,,,,,671f12c5d2543b67c0f12e57,2025-07-07_20h41.40.294,group3.4_multiperson,2023.2.2,MacIntel,119.047619,686c2ebf0248f13bef9af11f,686c934f26fe12b187e3cbcd,,,,,,,,,,,,,,,,,,,,,,,,,,,,,676.1938,2,audio/Narrative6Situation6.wav,678.1998,,678.1999,689.266,"[[77.6,10341],[77.2,10424],[77.2,10507],[76.8,10591],[74.8,10674],[73.2,10757],[73,10840],[73,10924],[73,11007]]",689.2661,692.7078,49.020854,1.1368,"[{""rating"":49.02085400132275,""responseTime"":1.136799999952359}]",space,2.92,,692.7078,Partially,50,692.7096,,,[],,0,6,6,6,1,audio/Narrative7Situation6.wav,audio/Narrative8Situation6.wav,audio/Narrative5Situation6.wav,audio/Narrative6Situation6.wav,3,2,3,2,,,,,,,,,,,,,,,,,,,,,,,,,,,,,,,,,,,,,,,
,,,,,671f12c5d2543b67c0f12e57,2025-07-07_20h41.40.294,group3.4_multiperson,2023.2.2,MacIntel,119.047619,686c2ebf0248f13bef9af11f,686c934f26fe12b187e3cbcd,,,,,,,,,,,,,,,,,,,,,,,,,,,,,692.7099,2,audio/Narrative6Situation7.wav,697.7161,,697.7161,722.5571,"[[49,6091],[55.8,6174],[61.8,6258],[68.4,6507],[70.4,6591],[70.6,6673],[70.7,6757],[71.1,6841],[71.3,6924],[71.3,7008],[71.3,7091],[71.2,7175],[71.2,7258],[71.2,7341],[71.2,7424],[71.2,7508],[71.2,7591],[71.2,7674],[71.3,7758],[71.3,7841],[71.3,7924],[71.3,8008],[71.3,8091],[71.3,8174],[71.3,8258],[71.3,8341],[71.3,8424],[71.3,8508],[71.2,8591],[70.7,8674],[68.1,8757],[57.2,8841],[48.4,8924],[46.8,9007],[46.8,9091],[46.8,9174],[46.8,9258],[53.6,9341],[60,9424],[61.3,9507],[62,9591],[64.9,9674],[68.4,9757],[71.8,9841],[75.3,9924],[77.6,10007],[77.7,10091],[77.5,10174],[76,10257],[76,10341],[77.3,10424],[79.1,10507],[80.6,10591],[82.1,10674],[83.5,10758],[85,10841],[86.3,10924],[86.5,11007],[86.5,11091],[86.5,11174],[86.5,11258],[86.5,11340],[86.5,11424],[86.5,11508],[86.5,11591],[86.5,11674],[86.5,11758],[86.5,11841],[86.5,11924],[86.5,12007],[86.5,12091],[86.5,12173],[86.5,12258],[86.5,12341],[86.5,12424],[86.5,12507],[86.5,12591],[86.5,12674],[86.5,12758],[86.5,12841],[86.5,12924],[86.5,13008],[86.5,13091],[86.5,13174],[86.5,13257],[86.5,13341],[86.5,13424],[86.5,13508],[86.5,13591],[86.5,13674],[86.5,13757],[86.5,13840],[86.5,13924],[86.5,14007],[86.5,14091],[86.5,14174],[86.5,14258],[86.5,14341],[86.5,14423],[86.5,14507],[86.5,14591],[86.5,14674],[86.5,14758],[86.5,14841],[86.5,14924],[86.5,15008],[86.5,15091],[86.8,15174],[87.4,15257],[87.5,15340],[88.3,15424],[89.4,15507],[90.4,15591],[90.6,15674],[90.6,15757],[90.6,15841],[90.6,15924],[90.6,16007],[90.6,16091],[90.6,16174],[90.6,16258],[90.6,16341],[90.6,16424],[90.6,16507],[90.6,16591],[90.6,16674],[90.6,16757],[90.6,16840],[90.6,16924],[90.6,17007],[90.6,17091],[90.6,17174],[90.6,17257],[90.6,17340],[90.6,17424],[90.6,17507],[90.6,17591],[90.6,17674],[90.6,17757],[90.6,17841],[90.6,17924],[90.6,18007],[90.6,18091],[90.6,18174],[90.6,18257],[90.6,18341],[90.6,18424],[90.6,18507],[90.6,18591],[90.6,18674],[90.6,18757],[90.6,18841],[90.6,18924],[90.6,19008],[90.6,19091],[90.6,19174],[90.6,19258],[90.6,19341],[90.6,19424],[90.6,19507],[90.9,19591],[91.6,19674],[92.2,19757],[92.3,19841],[92.3,19924],[92.3,20007],[92.3,20091],[92.3,20174],[92.3,20257],[92.3,20341],[92.3,20424],[92.3,20507],[92.3,20591],[92.3,20674],[92.3,20757],[92.3,20841],[92.3,20924],[92.3,21007],[92.3,21090],[92.3,21174],[92.3,21257],[92.3,21341],[92.3,21424],[92.3,21507],[92.3,21591],[92.3,21674],[92.3,21756],[92.3,21841],[92.3,21924],[92.3,22007],[92.3,22091],[92.3,22174],[92.3,22257],[92.3,22341],[92.3,22424],[92.3,22507],[92.3,22591],[92.3,22674],[92.3,22757],[92.3,22841],[92.3,22923],[92.3,23007],[92.3,23090],[92.3,23174],[92.3,23257],[92.3,23340],[92.3,23424],[92.3,23507],[92.3,23591],[92.3,23674],[92.3,23757],[92.3,23841],[92.3,23923],[92.3,24007],[92.3,24091],[92.3,24174],[92.3,24257],[92.3,24341],[92.5,24424],[94.9,24507],[95.6,24591],[95.9,24673],[95.9,24757],[95.6,24840]]",722.5572,725.2157,95.56671627,0.3287,"[{""rating"":95.56671626984127,""responseTime"":0.32870000004777467}]",space,2.1432,,725.2158,Partially,50,725.2174,,,[],,0,7,7,7,1,audio/Narrative7Situation7.wav,audio/Narrative8Situation7.wav,audio/Narrative5Situation7.wav,audio/Narrative6Situation7.wav,5,3,4,5,,,,,,,,,,,,,,,,,,,,,,,,,,,,,,,,,,,,,,,
,,,,,671f12c5d2543b67c0f12e57,2025-07-07_20h41.40.294,group3.4_multiperson,2023.2.2,MacIntel,119.047619,686c2ebf0248f13bef9af11f,686c934f26fe12b187e3cbcd,,,,,,,,,,,,,,,,,,,,,,,,,,,,,725.2177,2,audio/Narrative6Situation8.wav,730.224,space,730.224,737.0653,"[[92.9,916],[83.1,999],[47.4,4499],[23.8,4582],[23.8,4666],[23.8,4748],[19.9,4832],[5.7,4916],[6.9,4999],[7.1,5082],[7.1,5166],[7.1,5249],[7.1,5333],[7.1,5416],[7.1,5499],[7.1,5582],[7.1,5666],[7.1,5749],[7.1,5832],[7.1,5916],[7.1,5999],[7.1,6082],[7.1,6166],[7.1,6249],[7.1,6332],[7.1,6416],[7.1,6499],[7.1,6582],[7.1,6666],[5.6,6749],[1.9,6832]]",737.0654,740.2816,0.249049272,2.6788,"[{""rating"":0.24904927248677322,""responseTime"":2.678800000071533}]",space,2.6952,,740.2816,Definitely yes,100,740.2838,,,[],,0,8,8,8,1,audio/Narrative7Situation8.wav,audio/Narrative8Situation8.wav,audio/Narrative5Situation8.wav,audio/Narrative6Situation8.wav,2,3,3,5,4.6492,,,,,,,,,,,,,,,,,,,,,,,,,,,,,,,,,,,,,,
,,,,,671f12c5d2543b67c0f12e57,2025-07-07_20h41.40.294,group3.4_multiperson,2023.2.2,MacIntel,119.047619,686c2ebf0248f13bef9af11f,686c934f26fe12b187e3cbcd,,,,,,,,,,,,,,,,,,,,,,,,,,,,,740.2841,2,audio/Narrative6Situation9.wav,744.2904,,744.2904,754.2235,"[[24,2833],[74.3,3332],[73.8,3416],[66.9,3499],[45,3916],[44.8,3999],[44.8,4083],[44.8,4166],[45.1,4250],[47.2,4332],[47.6,4416],[47.6,4499],[47.6,4582],[48.4,4666],[48.7,4749],[48.7,4832],[48.7,4916],[48.7,4999],[48.7,5083],[48.7,5166],[48.7,5249],[48.7,5332],[48.7,5416],[48.7,5499],[48.7,5583],[48.7,5666],[48.7,5749],[48.7,5833],[48.7,5916],[48.7,5999],[48.7,6082],[48.7,6166],[48.7,6249],[48.7,6333],[48.7,6416],[48.7,6499],[48.7,6582],[48.7,6665],[48.7,6749],[48.7,6832],[48.7,6916],[48.7,6999],[48.7,7083],[48.7,7166],[48.7,7249],[48.7,7332],[48.7,7416],[48.7,7499],[48.7,7583],[48.7,7666],[48.7,7749],[48.7,7832],[48.7,7916],[48.7,7999],[48.7,8083],[48.7,8166],[48.7,8249],[48.7,8332],[48.7,8416],[48.7,8499],[48.7,8582],[48.7,8666],[48.7,8749],[48.7,8832],[48.7,8916],[48.7,8999],[48.7,9083],[29.2,9166],[8.4,9249],[7.7,9332],[7.7,9416],[7.7,9499],[7.7,9582],[6.5,9666],[4.1,9749],[3.9,9831],[3.9,9916]]",754.2235,755.7485,1.431258267,0.9616,"[{""rating"":1.4312582671957674,""responseTime"":0.9615999999045926}]",space,1.0024,,755.7485,Partially,50,755.7509,,,[],,0,9,9,9,1,audio/Narrative7Situation9.wav,audio/Narrative8Situation9.wav,audio/Narrative5Situation9.wav,audio/Narrative6Situation9.wav,2,3,3,4,,,,,,,,,,,,,,,,,,,,,,,,,,,,,,,,,,,,,,,
,,,,,671f12c5d2543b67c0f12e57,2025-07-07_20h41.40.294,group3.4_multiperson,2023.2.2,MacIntel,119.047619,686c2ebf0248f13bef9af11f,686c934f26fe12b187e3cbcd,,,,,,,,,,,,,,,,,,,,,,,,,,,,,755.751,2,audio/Narrative5Situation1.wav,760.7567,space,760.7568,774.0309,"[[999,0],[999,91],[999,174],[999,258],[999,341],[999,424],[999,508],[999,591],[999,674],[999,758],[999,841],[999,924],[999,1007],[999,1091],[999,1174],[999,1257],[999,1341],[999,1424],[999,1508],[999,1590],[999,1674],[999,1758],[999,1841],[999,1924],[999,2008],[999,2091],[999,2174],[999,2257],[999,2341],[999,2424],[999,2508],[999,2591],[999,2674],[999,2758],[999,2841],[999,2924],[999,3008],[999,3091],[999,3174],[999,3257],[27.3,3341],[27.1,3424],[26.3,3507],[26,3591],[26,3674],[26,3757],[26,3840],[26,3924],[26,4008],[26,4091],[26,4174],[26,4258],[26,4341],[26,4424],[26,4508],[26,4591],[26,4674],[26,4758],[26,4841],[26,4924],[26,5008],[26,5091],[26,5174],[26,5258],[26,5341],[26,5424],[26,5508],[26,5591],[26,5673],[26,5757],[26,5840],[26,5924],[26,6008],[26,6091],[26,6174],[26,6258],[26,6341],[26,6424],[26,6508],[26,6591],[26,6674],[26,6758],[26,6841],[26,6924],[26,7008],[26,7091],[26,7174],[26,7258],[26,7341],[26,7424],[26,7507],[26,7591],[26,7674],[26,7758],[26,7841],[26,7924],[26,8007],[26,8091],[26,8174],[26,8258],[26,8341],[26,8424],[26,8506],[30.6,8591],[33,8674],[37,8757],[51.1,8841],[60.2,8924],[61.4,9007],[66.6,9090],[71.5,9174],[71.4,9257],[71.4,9341],[71.4,9424],[71.4,9508],[71.4,9591],[71.4,9674],[71.4,9758],[71.4,9841],[71.4,9924],[71.4,10008],[71.4,10091],[71.4,10174],[71.4,10258],[71.4,10341],[71.4,10424],[69.7,10508],[40.2,10591],[29.5,10674],[29.4,10757],[29.4,10841],[29.4,10924],[29.4,11007],[29.4,11091],[29.4,11174],[29.4,11257],[29.4,11341],[29.4,11424],[29.4,11508],[29.4,11590],[29.4,11674],[29.4,11757],[29.4,11841],[29.4,11924],[29.4,12008],[29.4,12091],[29.4,12174],[29.4,12257],[29.4,12341],[29.4,12424],[29.4,12507],[29.4,12591],[29.4,12674],[29.4,12758],[29.4,12841],[29.4,12924],[29.4,13008],[29.4,13091],[29.4,13174],[29.4,13258]]",774.0311,778.464,75.3963087,3.3787,"[{""rating"":49.13762814153439,""responseTime"":1.0331000000238646},{""rating"":75.39630869708995,""responseTime"":3.378700000047729}]",space,3.9179,,778.4641,Not at all,0,778.4664,,,[],,0,10,10,10,1,audio/Narrative8Situation1.wav,audio/Narrative7Situation1.wav,audio/Narrative6Situation1.wav,audio/Narrative5Situation1.wav,5,2,2,5,1.38,,,,,,,,,,,,,,,,,,,,,,,,,,,,,,,,,,,,,,
,,,,,671f12c5d2543b67c0f12e57,2025-07-07_20h41.40.294,group3.4_multiperson,2023.2.2,MacIntel,119.047619,686c2ebf0248f13bef9af11f,686c934f26fe12b187e3cbcd,,,,,,,,,,,,,,,,,,,,,,,,,,,,,778.4667,2,audio/Narrative5Situation2.wav,781.4723,,781.4723,810.9143,"[[78.2,10508],[79,10591],[78.5,10675],[78.5,10758],[78.5,10842],[79.1,10924],[81.3,11008],[82.2,11091],[82.3,11175],[82.3,11258],[81.8,11341],[81.8,11425],[81.8,11507],[81.8,11592],[81.8,11675],[81.8,11758],[81.8,11842],[81.8,11925],[81.8,12008],[81.8,12091],[81.8,12175],[81.8,12258],[81.8,12342],[81.8,12425],[81.8,12508],[81.8,12591],[81.8,12675],[81.8,12758],[81.8,12841],[81.8,12925],[81.8,13008],[81.8,13092],[81.8,13175],[81.8,13258],[81.8,13341],[81.8,13425],[81.8,13509],[81.8,13592],[81.8,13675],[81.8,13758],[81.8,13842],[81.8,13925],[81.8,14008],[81.8,14092],[81.8,14175],[81.8,14258],[81.8,14341],[81.8,14424],[81.8,14508],[81.8,14592],[81.8,14675],[81.8,14758],[81.8,14842],[81.8,14925],[81.8,15008],[81.8,15092],[81.8,15175],[81.8,15258],[81.8,15342],[81.8,15425],[81.8,15508],[81.8,15592],[81.8,15675],[81.8,15758],[81.8,15842],[81.8,15925],[81.8,16008],[81.8,16091],[81.8,16175],[81.8,16258],[81.8,16342],[81.8,16425],[81.8,16508],[81.8,16591],[81.8,16675],[81.8,16758],[81.8,16842],[81.8,16925],[81.8,17008],[81.8,17092],[81.8,17175],[81.9,17258],[81.9,17341],[81.9,17425],[81.9,17508],[81.9,17591],[81.9,17675],[81.9,17758],[81.9,17841],[81.9,17925],[81.9,18009],[81.9,18091],[81.9,18175],[81.9,18258],[81.9,18342],[81.9,18425],[81.9,18508],[81.9,18591],[81.9,18675],[81.9,18758],[81.9,18841],[81.9,18924],[81.9,19008],[81.9,19092],[81.9,19175],[81.9,19258],[81.9,19342],[81.9,19425],[81.9,19508],[81.9,19592],[81.9,19675],[81.9,19758],[81.9,19842],[81.9,19925],[81.9,20008],[82.3,20091],[83.1,20175],[83.3,20258],[83.3,20341],[83.3,20425],[83.3,20508],[84.1,20591],[84.5,20675],[85,20758],[86.3,20841],[86.9,20925],[87,21008],[87,21091],[87,21175],[87,21258],[87,21341],[87,21424],[87,21508],[87,21591],[87,21675],[87,21758],[87,21841],[87,21925],[87,22008],[87,22091],[87,22175],[87,22258],[87,22341],[87,22425],[87,22508],[87,22591],[87,22675],[87,22758],[87,22841],[87,22925],[87,23008],[87,23091],[87,23175],[87,23258],[87,23341],[87,23425],[87,23508],[87,23591],[87,23675],[87,23758],[87.2,23841],[87.3,23925],[87.3,24008],[87.3,24091],[87.3,24175],[87.3,24258],[87.3,24342],[87.3,24425],[87.3,24508],[87.3,24591],[87.3,24675],[87.3,24757],[87.3,24841],[87.3,24925],[87.3,25008],[87.3,25091],[87.3,25175],[87.3,25258],[87.3,25341],[87.3,25425],[87.3,25508],[87.3,25591],[87.3,25675],[87.3,25758],[87.3,25841],[87.3,25925],[87.3,26008],[87.3,26091],[87.3,26175],[87.3,26258],[87.3,26341],[87.3,26425],[87.3,26508],[87.3,26591],[87.3,26675],[87.3,26758],[87.3,26841],[87.3,26925],[87.3,27008],[87.3,27091],[87.3,27175],[87.3,27258],[87.3,27341],[87.3,27425],[87.3,27508],[87.3,27591],[87.3,27675],[87.3,27758],[87.3,27841],[87.3,27924],[87.3,28007],[87.3,28091],[87.3,28175],[87.3,28258],[87.3,28341],[87.3,28424],[87.3,28507],[87.3,28591],[87.2,28675],[87.2,28758],[87.2,28841],[87.2,28924],[87.2,29008],[87.2,29091],[87.2,29175],[87.2,29258],[87.2,29341],[87.2,29425]]",810.9145,812.747,86.95178158,1.0932,"[{""rating"":86.95178158068784,""responseTime"":1.0931999999285154}]",space,1.309,,812.7471,Definitely yes,100,812.7496,,,[],,0,11,11,11,1,audio/Narrative8Situation2.wav,audio/Narrative7Situation2.wav,audio/Narrative6Situation2.wav,audio/Narrative5Situation2.wav,3,3,3,3,,,,,,,,,,,,,,,,,,,,,,,,,,,,,,,,,,,,,,,
,,,,,671f12c5d2543b67c0f12e57,2025-07-07_20h41.40.294,group3.4_multiperson,2023.2.2,MacIntel,119.047619,686c2ebf0248f13bef9af11f,686c934f26fe12b187e3cbcd,,,,,,,,,,,,,,,,,,,,,,,,,,,,,812.7498,2,audio/Narrative5Situation3.wav,815.7559,,815.7559,829.6554,"[[86.6,5091],[84.7,5174],[82.5,5257],[78.7,5341],[77.2,5424],[76.3,5507],[75.5,5591],[75.6,5674],[76.6,5757],[80.3,5841],[83.1,5924],[83.3,6007],[85.4,6091],[86.2,6174],[86.2,6257],[86.2,6341],[86.2,6424],[86.2,6508],[86.2,6591],[86.2,6674],[86.2,6758],[89.3,6840],[93.7,6924],[94.6,7007],[94.7,7091],[94.4,7174],[94.4,7257],[94.4,7340],[94.4,7424],[94.4,7508],[94.4,7591],[94.4,7674],[94.4,7757],[94.4,7840],[94.4,7924],[94.4,8007],[94.4,8091],[94.4,8174],[94.4,8258],[94.4,8341],[94.4,8424],[94.4,8508],[94.4,8591],[94.4,8673],[94.4,8758],[94.4,8840],[94.4,8924],[94.4,9007],[94.4,9090],[94.4,9174],[94.4,9257],[94.4,9341],[94.4,9423],[94.4,9508],[94.4,9590],[94.4,9673],[94.4,9757],[94.4,9840],[94.4,9924],[94.4,10007],[94.4,10091],[94.4,10174],[94.4,10258],[94.4,10341],[94.4,10424],[94.4,10507],[94.4,10591],[94.4,10674],[94.4,10757],[94.4,10841],[94.4,10924],[94.4,11008],[94.4,11091],[94.4,11174],[94.4,11257],[94.4,11341],[94.4,11424],[94.4,11508],[94.4,11591],[94.4,11674],[94.4,11757],[94.4,11841],[94.4,11923],[94.4,12007],[94.4,12091],[94.4,12174],[94.4,12257],[94.4,12341],[94.4,12424],[94.4,12507],[94.4,12591],[94.4,12674],[94.4,12757],[94.4,12841],[94.4,12924],[94.4,13007],[94.4,13091],[94.4,13174],[94.4,13257],[94.4,13341],[94.4,13424],[94.4,13508],[94.4,13591],[94.4,13674],[94.4,13757],[94.4,13841]]",829.6556,832.3723,94.44547784,0.2884,"[{""rating"":94.44547784391534,""responseTime"":0.28839999997614996}]",space,2.1911,,832.3723,Partially,50,832.3752,,,[],,0,12,12,12,1,audio/Narrative8Situation3.wav,audio/Narrative7Situation3.wav,audio/Narrative6Situation3.wav,audio/Narrative5Situation3.wav,4,8,5,3,,,,,,,,,,,,,,,,,,,,,,,,,,,,,,,,,,,,,,,
,,,,,671f12c5d2543b67c0f12e57,2025-07-07_20h41.40.294,group3.4_multiperson,2023.2.2,MacIntel,119.047619,686c2ebf0248f13bef9af11f,686c934f26fe12b187e3cbcd,,,,,,,,,,,,,,,,,,,,,,,,,,,,,832.3755,2,audio/Narrative5Situation4.wav,833.3805,,833.3806,853.7551,"[[86,7666],[80.4,7749],[76.7,7832],[70.2,7916],[68.2,7999],[68.2,8083],[62.3,8166],[2.8,8583],[3.1,8666],[3.2,8749],[3.5,8833],[22,8916],[40.4,8999],[42.4,9083],[42.6,9166],[42.2,9249],[41.8,9333],[41.8,9416],[41.8,9499],[40.9,9583],[29.4,9666],[21.6,9749],[19.5,9832],[15.8,9916],[9,9999],[6.1,10082],[6.1,10166],[6.1,10249],[6.1,10333],[6.1,10416],[6.1,10499],[6.1,10583],[6.4,10666],[7.1,10749],[7.9,10832],[8.9,10916],[12.4,10999],[20.6,11082],[22.4,11166],[22.4,11249],[24.3,11332],[31.1,11416],[31.5,11499],[31.5,11583],[35,11666],[43.5,11749],[44,11832],[44.1,11916],[44.3,11999],[45.7,12082],[46.4,12166],[46.6,12249],[46.4,12332],[46.4,12416],[46.4,12499],[46.4,12583],[46.4,12666],[46.4,12749],[46.4,12833],[46.4,12916],[46.4,12999],[46.4,13083],[46.4,13166],[46.4,13249],[46.4,13333],[46.4,13416],[46.4,13499],[46.4,13583],[46.4,13666],[46.4,13749],[46.4,13833],[46.4,13916],[46.4,13999],[46.4,14083],[46.4,14166],[46.4,14249],[46.4,14333],[46.4,14416],[46.4,14499],[46.4,14583],[46.4,14666],[46.4,14749],[46.4,14833],[46.4,14916],[46.4,14999],[46.4,15083],[46.4,15165],[46.4,15249],[46.4,15333],[46.4,15415],[46.4,15499],[46.4,15583],[46.4,15666],[46.4,15749],[46.4,15833],[46.4,15915],[46.4,15999],[46.4,16082],[46.4,16166],[46.4,16249],[46.4,16332],[46.4,16416],[46.4,16499],[46.4,16582],[46.4,16666],[46.4,16748],[46.4,16833],[46.4,16916],[46.4,16999],[46.4,17083],[46.4,17166],[46.4,17249],[46.4,17333],[46.4,17416],[46.4,17499],[47.1,17582],[48,17666],[48.1,17749],[48.1,17833],[48.1,17915],[48.1,17999],[48.8,18082],[49,18166],[49,18249],[49,18333],[49,18416],[49,18499],[49,18583],[49,18666],[49,18749],[49,18832],[49,18915],[49,18999],[49,19082],[49,19166],[50.3,19249],[78.4,19832],[77.8,19916],[77.2,19999],[77,20082],[77,20166],[76.7,20249],[73.9,20332]]",853.7552,855.2053,72.44491981,0.8735,"[{""rating"":72.44491980820106,""responseTime"":0.8735000000000355}]",space,0.9282,,855.2053,Partially,50,855.2067,,,[],,0,13,13,13,1,audio/Narrative8Situation4.wav,audio/Narrative7Situation4.wav,audio/Narrative6Situation4.wav,audio/Narrative5Situation4.wav,3,3,2,1,,,,,,,,,,,,,,,,,,,,,,,,,,,,,,,,,,,,,,,
,,,,,671f12c5d2543b67c0f12e57,2025-07-07_20h41.40.294,group3.4_multiperson,2023.2.2,MacIntel,119.047619,686c2ebf0248f13bef9af11f,686c934f26fe12b187e3cbcd,,,,,,,,,,,,,,,,,,,,,,,,,,,,,855.207,2,audio/Narrative5Situation5.wav,860.2132,,860.2132,875.6124,"[[71.2,7916],[54.6,7999],[51.4,8083],[51.4,8166],[51.4,8250],[38.8,8333],[36.7,8416],[36.9,8499],[36.9,8583],[36.9,8666],[34.9,8750]]",875.6125,878.7299,40.67615327,2.0122,"[{""rating"":40.676153273809526,""responseTime"":2.012199999928498}]",space,2.6018,,878.73,Definitely yes,100,878.7322,,,[],,0,14,14,14,1,audio/Narrative8Situation5.wav,audio/Narrative7Situation5.wav,audio/Narrative6Situation5.wav,audio/Narrative5Situation5.wav,2,5,2,5,,,,,,,,,,,,,,,,,,,,,,,,,,,,,,,,,,,,,,,
,,,,,671f12c5d2543b67c0f12e57,2025-07-07_20h41.40.294,group3.4_multiperson,2023.2.2,MacIntel,119.047619,686c2ebf0248f13bef9af11f,686c934f26fe12b187e3cbcd,,,,,,,,,,,,,,,,,,,,,,,,,,,,,878.7325,2,audio/Narrative5Situation6.wav,881.7384,,881.7384,887.4045,"[[40.8,1841],[40.8,1924],[40.8,2008],[40.8,2091],[40.8,2174],[40.8,2258],[40.8,2341],[40.8,2424],[40.8,2508],[40.8,2591],[40.8,2674],[40.8,2757],[40.8,2841],[40.8,2924],[40.8,3007],[42.6,3091],[44.4,3174],[44.6,3257],[44.6,3341],[44.6,3424],[44.6,3508],[44.6,3591],[44.6,3674],[44.6,3758],[44.6,3841],[44.6,3924],[44.6,4007],[44.6,4091],[44.6,4174],[44.6,4258],[44.6,4341],[44.6,4424],[44.6,4508],[44.6,4591],[44.6,4673],[44.6,4758],[44.6,4841],[44.6,4924],[44.6,5007],[44.6,5091],[44.6,5174],[44.6,5257],[44.6,5341],[44.4,5424],[41,5507],[40.5,5591]]",887.4046,890.2463,70.75789517,1.7951,"[{""rating"":70.75789517195767,""responseTime"":1.7950999999046644}]",space,2.3251,,890.2465,Definitely yes,100,890.2474,,,[],,0,15,15,15,1,audio/Narrative8Situation6.wav,audio/Narrative7Situation6.wav,audio/Narrative6Situation6.wav,audio/Narrative5Situation6.wav,2,3,2,3,,,,,,,,,,,,,,,,,,,,,,,,,,,,,,,,,,,,,,,
,,,,,671f12c5d2543b67c0f12e57,2025-07-07_20h41.40.294,group3.4_multiperson,2023.2.2,MacIntel,119.047619,686c2ebf0248f13bef9af11f,686c934f26fe12b187e3cbcd,,,,,,,,,,,,,,,,,,,,,,,,,,,,,890.2475,2,audio/Narrative5Situation7.wav,894.2546,,894.2547,915.279,"[[35.1,4841],[26.1,4924],[26.1,5007],[26.1,5090],[26.1,5174],[16.4,5257],[14.2,5341],[14.2,5424],[14.2,5508],[14.2,5591],[14.2,5674],[14.2,5758],[14.2,5840],[14.2,5924],[14.2,6007],[14.2,6091],[14.2,6173],[14.2,6258],[14.2,6341],[14.2,6424],[14.2,6507],[14.2,6591],[14.2,6673],[14.2,6758],[14.2,6841],[14.2,6924],[14.2,7008],[14.2,7091],[14.2,7174],[14.2,7258],[14.7,7341],[20.5,7424],[24.1,7507],[24.3,7591],[24.3,7674],[24.3,7758],[24.3,7840],[24.3,7924],[24.3,8008],[24.3,8090],[24.3,8174],[24.3,8257],[24.3,8341],[24.3,8424],[24.3,8508],[24.3,8591],[24.3,8674],[24.3,8758],[24.3,8841],[24.3,8924],[24.3,9008],[24.3,9091],[24.3,9174],[24.3,9258],[24.3,9341],[24.3,9424],[24.3,9508],[24.3,9591],[24.3,9674],[24.3,9757],[24.3,9841],[24.3,9924],[24.3,10007],[24.3,10091],[24.3,10174],[24.3,10258],[24.3,10341],[24.3,10424],[24.3,10508],[24.3,10591],[24.3,10674],[24.3,10758],[24.3,10841],[24.3,10924],[24.3,11007],[24.3,11091],[24.3,11174],[24.3,11258],[24.3,11341],[24.3,11424],[24.3,11507],[24.3,11590],[24.3,11674],[24.3,11757],[24.3,11840],[24.3,11924],[24.3,12007],[24.3,12090],[24.3,12174],[24.3,12258],[24.3,12341],[24.3,12424],[24.3,12507],[24.3,12591],[24.3,12674],[24.3,12757],[24.3,12841],[24.3,12924],[24.3,13008],[24.3,13091],[24.3,13174],[24.3,13258],[24.3,13341],[24.3,13423],[24.3,13507],[24.3,13591],[24.3,13674],[24.3,13758],[24.3,13841],[24.3,13924],[24.3,14008],[24.3,14091],[24.3,14174],[24.3,14258],[24.3,14341],[24.3,14424],[24.3,14507],[24.3,14591],[24.3,14674],[24.3,14757],[24.3,14841],[24.3,14924],[24.3,15007],[24.3,15091],[24.3,15174],[24.3,15257],[24.3,15341],[24.3,15424],[24.3,15507],[24.3,15591],[24.3,15674],[24.3,15757],[24.3,15841],[24.3,15924],[24.3,16007],[24.3,16091],[24.3,16174],[24.3,16257],[24.3,16341],[24.3,16424],[24.3,16508],[24.3,16591],[24.3,16674],[24.3,16757],[24.3,16841],[24.3,16924],[24.3,17007],[24.3,17091],[24.3,17174],[24.3,17257],[24.3,17341],[24.3,17424],[24.3,17507],[24.3,17591],[24.3,17674],[24.3,17757],[24.3,17841],[24.3,17924],[24.3,18007],[24.3,18091],[24.3,18174],[24.3,18257],[24.3,18340],[24.3,18424],[24.3,18507],[24.3,18590],[24.3,18674],[24.3,18757],[24.3,18841],[24.3,18924],[24.3,19007],[24.3,19091],[24.3,19174],[24.3,19257],[24.3,19341],[24.3,19424],[24.3,19508],[24.3,19590],[24.3,19674],[24.3,19757],[24.3,19841],[24.3,19924],[24.3,20007],[24.3,20091],[24.3,20174],[24.3,20257],[24.3,20341],[24.3,20424],[24.3,20507],[24.3,20591],[23.7,20674],[23.6,20757],[23.6,20841],[22,20924],[18.7,21007]]",915.2792,916.8293,15.2261078,0.9875,"[{""rating"":15.226107804232802,""responseTime"":0.9875000000000682}]",space,1.0275,,916.8294,Definitely yes,100,916.8308,,,[],,0,16,16,16,1,audio/Narrative8Situation7.wav,audio/Narrative7Situation7.wav,audio/Narrative6Situation7.wav,audio/Narrative5Situation7.wav,3,5,5,4,,,,,,,,,,,,,,,,,,,,,,,,,,,,,,,,,,,,,,,
,,,,,671f12c5d2543b67c0f12e57,2025-07-07_20h41.40.294,group3.4_multiperson,2023.2.2,MacIntel,119.047619,686c2ebf0248f13bef9af11f,686c934f26fe12b187e3cbcd,,,,,,,,,,,,,,,,,,,,,,,,,,,,,916.8311,2,audio/Narrative5Situation8.wav,919.8375,,919.8375,928.6374,"[[17.9,3416],[31.4,3499],[57.1,4082],[56.1,4165],[55.7,4249],[55.7,4333],[57.4,4416],[61.2,4499],[61.3,4583],[59.8,4666],[59.8,4749],[59.8,4832],[59.8,4916],[59.8,4999],[59.8,5083],[59.8,5166],[59.8,5249],[59.8,5333],[59.8,5416],[59.8,5499],[60.1,5583],[60.3,5666],[60.5,5749],[60.8,5833],[60.8,5916],[60.8,5999],[60.8,6083],[60.8,6166],[60.8,6250],[60.8,6333],[60.8,6416],[60.8,6499],[60.8,6583],[60.8,6666],[60.8,6750],[60.8,6833],[60.8,6916],[60.8,6999],[60.8,7083],[60.8,7166],[60.8,7249],[60.8,7333],[60.8,7415],[60.8,7499],[60.8,7583],[60.8,7666],[60.8,7749],[60.8,7833],[60.8,7916],[60.8,7999],[60.8,8083],[60.8,8166],[60.8,8249],[60.8,8333],[60.8,8416],[60.8,8499],[60.8,8583],[60.8,8666],[60.8,8749]]",928.6375,930.7958,3.434503142,1.7031,"[{""rating"":3.43450314153439,""responseTime"":1.7030999999045662}]",space,1.6354,,930.7958,Not at all,0,930.7978,,,[],,0,17,17,17,1,audio/Narrative8Situation8.wav,audio/Narrative7Situation8.wav,audio/Narrative6Situation8.wav,audio/Narrative5Situation8.wav,3,2,5,3,,,,,,,,,,,,,,,,,,,,,,,,,,,,,,,,,,,,,,,
,,,,,671f12c5d2543b67c0f12e57,2025-07-07_20h41.40.294,group3.4_multiperson,2023.2.2,MacIntel,119.047619,686c2ebf0248f13bef9af11f,686c934f26fe12b187e3cbcd,,,,,,,,,,,,,,,,,,,,,,,,,,,,,930.798,2,audio/Narrative5Situation9.wav,933.804,,933.804,973.3364,"[[5.3,3093],[14.5,3174],[17.3,3591],[17.3,3674],[17.3,3757],[17.3,3841],[17.3,3924],[17.3,4007],[38.1,4091],[71.5,5174],[71.9,5258],[72.5,5341],[75.1,5424],[77,5507],[77.1,5591],[77.1,5674],[79.8,5757],[83.2,5841],[84.8,5924],[84.8,6007],[84.8,6091],[85.4,6174],[94.5,6257],[97.3,6341],[97.4,6424],[97.4,6508],[96.9,6591],[94.9,6673],[94.4,6757],[94,6841],[93.9,6924],[93.9,7008],[93.9,7091],[93.9,7174],[93.9,7258],[93.9,7341],[93.9,7424],[93.9,7508],[93.9,7591],[93.9,7674],[93.9,7758],[93.9,7841],[93.9,7924],[93.9,8007],[93.9,8091],[93.9,8174],[93.9,8258],[93.9,8341],[93.9,8424],[93.9,8507],[93.9,8591],[93.9,8674],[93.9,8758],[93.9,8841],[93.9,8924],[93.9,9007],[93.9,9091],[93.8,9174],[93.8,9257],[93.8,9340],[93.8,9424],[93.8,9508],[93.8,9591],[93.8,9674],[93.8,9758],[93.8,9841],[93.8,9924],[93.8,10007],[93.8,10091],[93.8,10174],[93.8,10257],[93.8,10341],[93.8,10424],[93.8,10507],[93.8,10591],[93.8,10674],[93.8,10757],[93.8,10841],[93.8,10924],[93.8,11007],[93.8,11091],[93.8,11174],[93.8,11258],[93.8,11341],[93.8,11424],[93.8,11507],[93.8,11591],[93.8,11674],[93.8,11757],[93.8,11841],[93.8,11924],[93.8,12007],[93.8,12091],[93.8,12174],[93.8,12257],[93.8,12341],[93.8,12424],[93.8,12508],[93.8,12591],[93.8,12674],[93.8,12757],[93.8,12841],[93.8,12924],[93.8,13008],[93.8,13091],[93.8,13174],[93.8,13257],[93.8,13340],[93.8,13423],[93.8,13508],[93.8,13591],[93.8,13674],[93.8,13757],[93.8,13841],[93.8,13924],[93.8,14007],[93.8,14091],[93.8,14174],[93.8,14257],[93.8,14341],[93.8,14424],[93.8,14507],[93.8,14591],[93.8,14674],[93.8,14757],[93.8,14841],[93.8,14924],[93.8,15007],[93.8,15090],[93.8,15174],[93.8,15258],[93.8,15341],[93.8,15423],[93.8,15507],[93.8,15590],[93.8,15674],[93.8,15757],[93.8,15841],[93.8,15924],[93.8,16006],[93.8,16091],[93.8,16174],[93.8,16258],[93.8,16341],[93.8,16424],[93.8,16507],[93.8,16591],[93.8,16673],[93.8,16756],[93.8,16841],[93.8,16924],[93.8,17008],[93.8,17090],[93.8,17174],[93.8,17257],[93.8,17340],[93.8,17424],[93.8,17507],[93.8,17591],[93.8,17674],[93.8,17756],[93.8,17841],[93.8,17924],[93.8,18007],[93.8,18091],[93.8,18173],[93.8,18257],[93.8,18341],[93.8,18423],[93.8,18507],[93.8,18590],[93.8,18674],[93.8,18757],[93.8,18841],[93.8,18924],[93.8,19007],[93.8,19091],[93.8,19174],[93.8,19257],[93.8,19341],[93.8,19424],[93.8,19506],[93.8,19591],[93.8,19673],[93.8,19756],[93.8,19841],[93.8,19924],[93.8,20007],[93.8,20091],[93.8,20173],[93.8,20257],[93.8,20341],[93.8,20424],[93.8,20507],[93.8,20591],[93.8,20674],[93.8,20757],[93.8,20841],[93.8,20924],[93.8,21007],[93.8,21091],[93.8,21174],[93.8,21257],[93.8,21340],[93.8,21423],[93.8,21508],[93.8,21590],[93.8,21674],[93.8,21757],[93.8,21841],[93.8,21924],[93.8,22006],[93.8,22090],[93.9,22174],[93.9,22257],[93.9,22340],[93.9,22424],[94,22507],[94,22591],[94,22674],[94,22757],[94,22841],[94,22924],[94,23007],[94,23091],[94,23174],[94,23257],[94,23341],[94,23424],[94,23507],[94,23591],[94,23674],[94,23757],[94,23841],[94,23924],[94,24007],[94,24091],[94,24174],[94,24257],[94,24341],[94,24424],[94,24507],[94,24591],[94,24674],[94,24757],[94,24841],[94,24924],[94,25007],[94,25091],[94,25174],[94,25257],[94,25340],[94,25424],[94,25507],[94,25591],[94,25674],[94,25757],[94,25841],[94,25924],[94,26007],[94,26091],[94,26174],[94,26257],[94,26341],[94,26423],[94,26507],[94,26590],[94,26674],[94,26757],[94,26841],[94,26924],[94,27007],[94,27090],[94,27173],[94,27257],[94,27341],[94,27424],[94,27507],[94,27591],[94,27673],[94,27757],[94,27841],[94,27924],[94,28007],[94,28091],[94,28174],[94,28257],[94,28340],[94,28424],[94,28506],[94,28590],[94,28674],[94,28757],[94,28841],[94,28924],[94,29006],[94,29090],[94,29174],[94,29257],[94,29341],[94,29424],[94,29507],[94,29590],[94,29674],[94,29757],[94,29841],[94,29924],[94,30007],[94,30091],[94,30174],[94,30257],[94,30340],[94,30424],[94,30507],[94,30591],[94,30673],[94,30757],[94,30841],[94,30924],[94,31007],[94,31091],[94,31174],[94,31257],[94,31340],[94,31424],[94,31507],[94,31590],[94,31674],[94,31757],[94,31841],[94,31924],[94,32007],[94,32091],[94,32174],[94,32257],[94,32341],[94,32424],[94,32507],[94,32591],[94,32674],[94,32757],[94,32840],[94,32924],[94,33007],[94,33090],[94,33174],[94,33257],[94,33340],[94,33424],[94,33507],[94,33591],[94,33674],[94,33757],[94,33840],[94,33924],[94,34007],[94,34090],[94,34174],[94,34257],[94,34340],[94,34424],[93.8,34507],[92.5,34590],[92,34674],[91.7,34757],[91.6,34840],[91.6,34924],[91.6,35007],[91.7,35091],[91.7,35174],[91.7,35257],[91.7,35340],[91.4,35424],[90,35507],[88.1,35590],[86.5,35674],[85.9,35757],[85.8,35840],[85.8,35924],[85.9,36006],[85.9,36090],[85.9,36174],[85.9,36257],[85.9,36340],[85.9,36423],[85.9,36507],[85.9,36590],[85.9,36674],[85.9,36757],[85.9,36840],[85.9,36924],[85.9,37007],[85.9,37091],[85.9,37174],[85.9,37257],[85.9,37340],[85.9,37424],[85.9,37507],[85.9,37590],[85.9,37674],[85.9,37756],[85.9,37840],[85.9,37924],[85.9,38006],[85.9,38090],[85.9,38174],[85.9,38257],[85.9,38340],[85.9,38424],[85.9,38506],[85.9,38590],[85.9,38673],[85.9,38757],[85.9,38840],[85.9,38924],[85.9,39007],[85.9,39090],[85.9,39173],[85.9,39256],[85.9,39340],[85.9,39424],[85.9,39507]]",973.3366,976.3199,85.37894759,1.1707,"[{""rating"":85.37894758597884,""responseTime"":1.1706999999285017}]",space,2.4681,,976.32,Definitely yes,100,980.0365,99.92042824,2.6127,"[{""rating"":99.92042824074075,""responseTime"":2.612700000047653}]",space,0,18,18,18,1,audio/Narrative8Situation9.wav,audio/Narrative7Situation9.wav,audio/Narrative6Situation9.wav,audio/Narrative5Situation9.wav,3,2,4,3,,,3.1914,,,,,,,,,,,,,,,,,,,,,,,,,,,,,,,,,,,,
,,,,,671f12c5d2543b67c0f12e57,2025-07-07_20h41.40.294,group3.4_multiperson,2023.2.2,MacIntel,119.047619,686c2ebf0248f13bef9af11f,686c934f26fe12b187e3cbcd,,,,,,,,,,,,,,,,,,,,,,,,,,,,,,,,,,,,,,,,,,,,,,,,,,,,,,,,,,,,,,,,,,,,,,980.0368,987.4699,space,6.9168,,987.4702,1000.52,space,12.7338,,,,,,,,,,,,,,,,,,,,,,,,,,
,,,,,671f12c5d2543b67c0f12e57,2025-07-07_20h41.40.294,group3.4_multiperson,2023.2.2,MacIntel,119.047619,686c2ebf0248f13bef9af11f,686c934f26fe12b187e3cbcd,,,,,,,,,,,,,,,,,,,,,,,,,,,,,1003.1131,1,audio/Narrative7Situation9.wav,1005.1193,,,,,1036.9609,1040.4523,37.98156415,2.4209,"[{""rating"":37.98156415343915,""responseTime"":2.4208999999762}]",space,2.9684,,1040.4523,Not at all,0,1040.4546,,,[],,,,,,,,,,,2,2,2,2,,,,,,,,,,,,,,,1000.5214,1003.1026,1005.1196,3,1036.9608,"[[0.1,3166],[0.1,3249],[0.1,3333],[0.1,3416],[0.1,3499],[0.1,3582],[0.1,3666],[0.1,3749],[0.1,3833],[0.1,3916],[0.1,3999],[0.1,4083],[0.1,4166],[0.1,4249],[0.1,4333],[0.1,4416],[0.1,4499],[0.1,4583],[0.1,4666],[0.1,4749],[0.1,4833],[0.1,4916],[0.1,4999],[0.1,5083],[0.1,5166],[0.1,5249],[0.1,5333],[0.1,5416],[0.1,5499],[0.1,5582],[0.1,5666],[0.1,5749],[0.1,5833],[0.1,5915],[0.1,5999],[0.1,6083],[0.1,6166],[0.1,6249],[0.1,6333],[0.1,6416],[1.1,6499],[11.7,6582],[31.2,6666],[36.1,6749],[36.1,6832],[36.1,6916],[36.1,6999],[36.1,7083],[36.1,7166],[36.1,7249],[36.1,7333],[36.1,7416],[36.1,7498],[36.1,7583],[36.1,7665],[36.1,7748],[36.1,7833],[36.1,7916],[36.1,7999],[36.1,8083],[36.1,8166],[36.1,8249],[36.1,8333],[36.1,8416],[36.1,8499],[36.1,8583],[36.1,8666],[36.1,8749],[36.1,8833],[36.1,8916],[36.1,8999],[36.1,9083],[36.1,9166],[36.1,9249],[36.1,9333],[36.1,9416],[35.7,9499],[9,9916],[3.1,9999],[3.1,10083],[3.1,10166],[3.1,10249],[3.1,10333],[3.1,10416],[3.1,10499],[3.1,10583],[3.1,10666],[3.1,10749],[3.1,10833],[3.1,10915],[3.1,10999],[3.1,11082],[3.1,11166],[3.1,11249],[3.1,11332],[3.1,11416],[3.1,11499],[3.1,11583],[3.1,11666],[3.1,11749],[3.1,11833],[3.1,11915],[3.1,11999],[3.1,12083],[3.1,12166],[3.1,12249],[3.1,12332],[3.1,12416],[3.1,12499],[3.1,12582],[3.1,12666],[3.1,12749],[3.1,12832],[3.1,12916],[3.1,12999],[3.1,13083],[3.1,13166],[3.1,13249],[3.1,13332],[3.1,13416],[3.1,13499],[3.1,13582],[3.1,13666],[3.1,13749],[3.1,13833],[3.1,13916],[3.1,13999],[3.1,14082],[3.1,14165],[3.1,14249],[3.1,14332],[3.1,14416],[3.1,14499],[3.1,14583],[3.1,14666],[3.1,14749],[3.1,14832],[3.1,14916],[3.1,14999],[3.1,15082],[3.1,15166],[3.1,15249],[3.1,15332],[3.1,15416],[3.1,15499],[3.1,15582],[3.1,15666],[3.1,15749],[3.1,15832],[3.1,15916],[3.1,15999],[3.1,16083],[3.1,16166],[3.1,16249],[3.1,16332],[3.1,16416],[3.1,16499],[3.1,16583],[3.1,16666],[3.1,16749],[3.1,16832],[3.1,16916],[3.1,16999],[3.1,17082],[3.1,17166],[3.1,17249],[3.1,17332],[3.1,17416],[3.1,17499],[3.1,17582],[3.1,17666],[3.1,17749],[3.1,17833],[3.1,17916],[3.1,17998],[3.1,18082],[3.1,18165],[3.1,18249],[3.1,18333],[3.1,18416],[3.1,18499],[3.1,18582],[3.1,18666],[3.1,18749],[3.1,18832],[3.1,18916],[3.1,18999],[3.1,19082],[3.1,19165],[3.1,19249],[3.1,19332],[3.1,19416],[3.1,19499],[3.1,19582],[3.1,19665],[3.1,19749],[3.1,19832],[3.1,19916],[3.1,19999],[3.1,20082],[3.1,20166],[3.1,20249],[3.1,20333],[3.1,20416],[3.1,20499],[3.1,20582],[3.1,20666],[3.1,20749],[3.1,20832],[3.1,20915],[3.1,20999],[3.1,21082],[3.1,21166],[3.1,21248],[3.1,21332],[3.1,21416],[3.1,21499],[3.1,21582],[3.1,21666],[3.1,21749],[3.1,21832],[3.1,21915],[3.1,21999],[3.1,22082],[3.1,22166],[3.1,22249],[3.1,22332],[3.1,22416],[3.1,22499],[3.1,22582],[3.1,22665],[3.1,22749],[3.1,22832],[3.1,22915],[3.1,22999],[3.1,23082],[6.1,23165],[10.3,23249],[32.4,23332],[49.5,23415],[49.6,23499],[49,23582],[45.4,23665],[45.2,23749],[45.6,23832],[45.4,23915],[45.4,23998],[45.4,24082],[45.4,24166],[45.4,24249],[45.4,24332],[45.4,24415],[45.4,24499],[45.4,24582],[45.4,24666],[45.4,24749],[45.4,24832],[45.4,24915],[45.4,24999],[45.4,25082],[45.4,25165],[45.4,25249],[45.4,25332],[45.4,25415],[45.4,25499],[45.4,25582],[45.4,25665],[45.4,25749],[45.4,25832],[45.4,25916],[45.4,25999],[45.4,26082],[45.4,26166],[45.4,26249],[45.4,26332],[45.4,26416],[45.4,26499],[45.4,26582],[45.4,26666],[45.4,26749],[45.4,26832],[45.4,26915],[45.4,26999],[45.4,27082],[45.4,27166],[45.4,27249],[45.4,27332],[45.4,27415],[45.4,27498],[45.4,27582],[45.4,27665],[45.4,27749],[45.4,27832],[45.4,27915],[45.4,27999],[45.4,28082],[45.4,28165],[45.4,28249],[45.4,28332],[45.4,28416],[45.4,28499],[45.4,28582],[45.4,28666],[45.4,28748],[45.4,28832],[45.4,28915],[45.4,28999],[45.4,29082],[45.4,29165],[45.4,29249],[45.4,29332],[45.4,29415],[45.4,29499],[45.4,29582],[45.4,29665],[45.4,29749],[45.4,29832],[45.4,29916],[45.4,29999],[45.4,30082],[45.4,30165],[45.6,30249],[45.7,30332],[45.7,30416],[45.7,30499],[45.7,30582],[45.7,30665],[45.6,30749],[45.6,30832],[45.6,30916],[45.6,30999],[45.6,31082],[45.6,31166],[45.6,31249],[45.6,31332],[45.6,31415],[45.6,31499],[44.7,31582],[44.6,31665],[44.6,31749],[44.6,31832]]",0,0,0,0,1,"Larry had recently lost his family, job and home, and was now living on his own in the park. He had most of his belongings, including some clothes, a blanket, and his mother’s special necklace. His family had been very important to him and he felt as though he did not have much going for him. One of his first days in the park he came across a family that did not have much food and looked very cold. He decided to give them some of his food and his blanket.","Larry had recently lost his family, job and home, and was now living on his own in the park. He had most of his belongings, including some clothes, a blanket, and his mother’s special necklace. His family had been very important to him and he felt as though he did not have much going for him. One of his first days in the park he came across a family that did not have much food and looked very cold. He decided to give them some of his food and his blanket.","Larry had recently lost his family, job and home, and was now living on his own in the park. He had most of his belongings, including some clothes, a blanket, and his mother’s special necklace. His family had been very important to him and he felt as though he did not have much going for him. One of his first days in the park he came across a family that did not have much food and looked very cold. He decided to give them some of his food and his blanket.","Larry had recently lost his family, job and home, and was now living on his own in the park. He had most of his belongings, including some clothes, a blanket, and his mother’s special necklace. His family had been very important to him and he felt as though he did not have much going for him. One of his first days in the park he came across a family that did not have much food and looked very cold. He decided to give them some of his food and his blanket.",,,,,,,,,,
