consent.started,consent.stopped,consentResponse.keys,consentResponse.rt,consentResponse.duration,participantID,date,expName,psychopyVersion,OS,frameRate,STUDY_ID,SESSION_ID,opening1.started,opening1.stopped,keyEndingOpening1.keys,keyEndingOpening1.rt,keyEndingOpening1.duration,volumeAdjust.started,volumeAdjust.stopped,endingAdjust.keys,endingAdjust.rt,endingAdjust.duration,opening2.started,opening2.stopped,keyEndingOpening.keys,keyEndingOpening.rt,keyEndingOpening.duration,mouse.x,mouse.y,mouse.leftButton,mouse.midButton,mouse.rightButton,mouse.time,instructionLoop.thisRepN,instructionLoop.thisTrialN,instructionLoop.thisN,instructionLoop.thisIndex,instructionLoop.ran,readyForAudio.started,readyForAudio.stopped,fixation.started,run,audio_played,fixation.stopped,endPractice.keys,audioPre.started,audioPre.stopped,continuousResponses_audio,intRating.started,intRating.stopped,intQuestionSlider.response,intQuestionSlider.rt,intQuestionSlider.history,confirmResponse.keys,confirmResponse.rt,confirmResponse.duration,catchQuestion.started,catch_label,catch_value,catchQuestion.stopped,catchQuestionSlider.response,catchQuestionSlider.rt,catchQuestionSlider.history,confirmResponse_2.keys,audioRunLoop.thisRepN,audioRunLoop.thisTrialN,audioRunLoop.thisN,audioRunLoop.thisIndex,audioRunLoop.ran,conditions1_1,conditions2_1,conditions1_2,conditions2_2,dur1_1,dur2_1,dur1_2,dur2_2,endPractice.rt,endPractice.duration,confirmResponse_2.rt,confirmResponse_2.duration,runIntervalBreak.started,runIntervalBreak.stopped,endingBreakKey.keys,endingBreakKey.rt,endingBreakKey.duration,connection.started,connection.stopped,connectionEnding.keys,connectionEnding.rt,connectionEnding.duration,readyForText.started,readyForText.stopped,textPre.started,run_dup,textPre.stopped,continuousResponses_text,textRunLoop.thisRepN,textRunLoop.thisTrialN,textRunLoop.thisN,textRunLoop.thisIndex,textRunLoop.ran,text1_1,text1_2,text2_1,text2_2,runBreakText.started,runBreakText.stopped,endingBreakKey_2.keys,endingBreakKey_2.rt,endingBreakKey_2.duration,ending.started,ending.stopped,endingEnding.keys,endingEnding.rt,endingEnding.duration
0.0003,3.9666,y,3.6407,,67203bff74dea717e8b9e1ea,2025-07-07_20h57.33.703,group3.4_multiperson,2023.2.2,Win32,60.24096386,686c2ebf0248f13bef9af11f,686c7afb95ccf98822a22973,,,,,,,,,,,,,,,,,,,,,,,,,,,,,,,,,,,,,,,,,,,,,,,,,,,,,,,,,,,,,,,,,,,,,,,,,,,,,,,,,,,,,,,,,,,,,,,,,,,,,,,,
,,,,,67203bff74dea717e8b9e1ea,2025-07-07_20h57.33.703,group3.4_multiperson,2023.2.2,Win32,60.24096386,686c2ebf0248f13bef9af11f,686c7afb95ccf98822a22973,3.9672,19.7315,space,15.732,,,,,,,,,,,,,,,,,,,,,,,,,,,,,,,,,,,,,,,,,,,,,,,,,,,,,,,,,,,,,,,,,,,,,,,,,,,,,,,,,,,,,,,,,,,,,,,,,,,,
,,,,,67203bff74dea717e8b9e1ea,2025-07-07_20h57.33.703,group3.4_multiperson,2023.2.2,Win32,60.24096386,686c2ebf0248f13bef9af11f,686c7afb95ccf98822a22973,,,,,,19.7317,29.6973,space,9.6329,,,,,,,,,,,,,,,,,,,,,,,,,,,,,,,,,,,,,,,,,,,,,,,,,,,,,,,,,,,,,,,,,,,,,,,,,,,,,,,,,,,,,,,,,,,,,,,
,,,,,67203bff74dea717e8b9e1ea,2025-07-07_20h57.33.703,group3.4_multiperson,2023.2.2,Win32,60.24096386,686c2ebf0248f13bef9af11f,686c7afb95ccf98822a22973,,,,,,,,,,,29.7017,35.947,space,6.2251,,[],[],[],[],[],[],0,0,0,0,1,,,,,,,,,,,,,,,,,,,,,,,,,,,,,,,,,,,,,,,,,,,,,,,,,,,,,,,,,,,,,,,,,,,,,,,,,,,,,,
,,,,,67203bff74dea717e8b9e1ea,2025-07-07_20h57.33.703,group3.4_multiperson,2023.2.2,Win32,60.24096386,686c2ebf0248f13bef9af11f,686c7afb95ccf98822a22973,,,,,,,,,,,35.9475,47.6128,space,11.5794,,[],[],[],[],[],[],1,0,1,0,1,,,,,,,,,,,,,,,,,,,,,,,,,,,,,,,,,,,,,,,,,,,,,,,,,,,,,,,,,,,,,,,,,,,,,,,,,,,,,,
,,,,,67203bff74dea717e8b9e1ea,2025-07-07_20h57.33.703,group3.4_multiperson,2023.2.2,Win32,60.24096386,686c2ebf0248f13bef9af11f,686c7afb95ccf98822a22973,,,,,,,,,,,47.6132,56.0125,space,8.3512,,[],[],[],[],[],[],2,0,2,0,1,,,,,,,,,,,,,,,,,,,,,,,,,,,,,,,,,,,,,,,,,,,,,,,,,,,,,,,,,,,,,,,,,,,,,,,,,,,,,,
,,,,,67203bff74dea717e8b9e1ea,2025-07-07_20h57.33.703,group3.4_multiperson,2023.2.2,Win32,60.24096386,686c2ebf0248f13bef9af11f,686c7afb95ccf98822a22973,,,,,,,,,,,56.0129,70.6614,space,14.6233,,[],[],[],[],[],[],3,0,3,0,1,,,,,,,,,,,,,,,,,,,,,,,,,,,,,,,,,,,,,,,,,,,,,,,,,,,,,,,,,,,,,,,,,,,,,,,,,,,,,,
,,,,,67203bff74dea717e8b9e1ea,2025-07-07_20h57.33.703,group3.4_multiperson,2023.2.2,Win32,60.24096386,686c2ebf0248f13bef9af11f,686c7afb95ccf98822a22973,,,,,,,,,,,70.6617,77.1108,space,6.4256,,[],[],[],[],[],[],4,0,4,0,1,,,,,,,,,,,,,,,,,,,,,,,,,,,,,,,,,,,,,,,,,,,,,,,,,,,,,,,,,,,,,,,,,,,,,,,,,,,,,,
,,,,,67203bff74dea717e8b9e1ea,2025-07-07_20h57.33.703,group3.4_multiperson,2023.2.2,Win32,60.24096386,686c2ebf0248f13bef9af11f,686c7afb95ccf98822a22973,,,,,,,,,,,77.111,82.6604,space,5.5276,,[],[],[],[],[],[],5,0,5,0,1,,,,,,,,,,,,,,,,,,,,,,,,,,,,,,,,,,,,,,,,,,,,,,,,,,,,,,,,,,,,,,,,,,,,,,,,,,,,,,
,,,,,67203bff74dea717e8b9e1ea,2025-07-07_20h57.33.703,group3.4_multiperson,2023.2.2,Win32,60.24096386,686c2ebf0248f13bef9af11f,686c7afb95ccf98822a22973,,,,,,,,,,,,,,,,,,,,,,,,,,,82.6625,85.2437,85.2645,1,audio/Narrative13Situation2.wav,87.2771,,87.2772,117.0456,"[[999,0],[999,116],[999,199],[999,283],[999,366],[999,449],[999,532],[999,615],[999,699],[999,782],[999,865],[999,949],[999,1032],[999,1116],[999,1199],[999,1283],[999,1366],[999,1449],[999,1532],[999,1616],[999,1699],[999,1782],[999,1865],[999,1949],[999,2032],[999,2115],[999,2199],[999,2282],[999,2365],[999,2449],[999,2532],[999,2615],[999,2699],[999,2783],[999,2866],[32,2949],[30.5,3033],[30.5,3115],[30.5,3199],[30.5,3282],[30.5,3365],[30.5,3449],[30.5,3532],[28.9,3616],[24.1,3699],[23.8,3782],[23.8,3865],[23.8,3949],[23.8,4032],[23.8,4115],[23.8,4199],[23.8,4282],[23.8,4365],[23.8,4449],[23.8,4532],[23.8,4615],[23.8,4699],[23.8,4782],[23.8,4866],[23.8,4949],[23.8,5032],[23.8,5115],[23.8,5199],[23.8,5282],[23.8,5365],[23.8,5449],[23.8,5532],[23.8,5615],[23.8,5699],[23.8,5782],[23.8,5865],[23.8,5949],[23.8,6032],[23.8,6115],[23.8,6199],[23.8,6282],[23.8,6365],[23.8,6449],[23.8,6532],[23.8,6615],[23.8,6699],[23.8,6782],[23.8,6865],[23.8,6948],[23.8,7032],[23.8,7115],[23.8,7198],[23.8,7282],[23.8,7365],[23.8,7448],[23.8,7532],[23.8,7615],[23.8,7699],[23.8,7782],[23.8,7865],[23.8,7948],[23.8,8032],[23.8,8115],[23.8,8198],[23.8,8282],[23.8,8365],[23.8,8448],[23.8,8532],[23.8,8615],[23.8,8698],[24.1,8782],[24.1,8865],[26.9,8949],[36.2,9036],[38.1,9120],[43.7,9220],[44.6,9299],[48.7,9386],[49.4,9465],[49.4,9549],[49.4,9632],[49.4,9715],[49.4,9798],[49.4,9882],[49.4,9965],[49.4,10048],[49.4,10132],[50,10215],[52.9,10303],[52.9,10382],[53.2,10465],[54.4,10553],[55.3,10632],[55.6,10719],[55.6,10798],[55.6,10882],[55.6,10965],[55.6,11049],[55.6,11132],[55.6,11215],[55.6,11298],[55.6,11382],[55.6,11465],[56,11552],[56.3,11636],[56.3,11715],[57.8,11801],[57.8,11882],[57.8,11965],[57.8,12048],[57.8,12132],[57.8,12215],[57.8,12302],[57.8,12382],[57.8,12465],[57.8,12548],[57.8,12632],[57.8,12715],[57.8,12798],[57.8,12881],[57.8,12967],[57.8,13048],[57.8,13131],[57.8,13215],[57.8,13301],[57.8,13381],[58.2,13469],[58.6,13552],[59.2,13636],[60.4,13715],[62.2,13802],[63.5,13886],[64.6,13969],[66,14052],[66.1,14132],[66.1,14215],[66.1,14298],[66.1,14382],[71.1,14469],[77.7,14553],[83.7,14636],[86.5,14719],[89.8,14803],[93.3,14886],[94.2,14965],[97.3,15052],[97.3,15131],[97.3,15218],[97.3,15298],[97.3,15382],[97.3,15465],[97.3,15548],[97.3,15631],[97.3,15715],[97.3,15798],[97.3,15881],[97.3,15965],[97.3,16048],[97.3,16132],[97.3,16215],[97.3,16298],[97.3,16381],[97.3,16464],[97.3,16548],[97.3,16631],[97.3,16715],[97.3,16802],[97.3,16881],[97.3,16964],[97.3,17052],[97.3,17131],[97.3,17215],[97.3,17298],[97.3,17381],[97.3,17464],[97.3,17548],[97.3,17631],[97.3,17718],[97.3,17802],[97.3,17881],[97.3,17965],[97.3,18048],[97.3,18131],[97.3,18215],[97.3,18298],[97.3,18381],[97.3,18465],[97.3,18548],[97.3,18631],[97.3,18714],[97.3,18798],[97.3,18881],[97.3,18965],[97.3,19052],[97.3,19131],[97.3,19215],[97.1,19302],[97,19381],[97,19464],[97,19548],[96.7,19631],[96.7,19714],[96.4,19798],[96.3,19881],[96.3,19964],[96.3,20048],[96.3,20131],[96.3,20215],[96.3,20298],[96.3,20381],[96.3,20467],[96.3,20548],[96.3,20631],[96.3,20718],[96.3,20798],[96.3,20881],[96.3,20964],[96.3,21048],[96.3,21131],[96.3,21218],[96.3,21298],[96.3,21381],[96.3,21464],[96.3,21548],[96.3,21631],[96.3,21715],[96.3,21800],[96.3,21881],[96.3,21968],[96.3,22048],[96.3,22131],[96.3,22215],[96.3,22298],[96.3,22381],[96.3,22464],[96.3,22548],[96.3,22631],[96.3,22714],[96.3,22798],[90,22881],[51.2,22968],[44.3,23052],[39,23135],[29.9,23218],[28.3,23298],[25.4,23385],[22.5,23469],[15.9,23548],[18.1,23631],[56,23719],[66.7,23798],[72.3,23884],[84.8,23969],[86.5,24047],[86.3,24131],[86.3,24214],[86.3,24298],[86.3,24381],[86.3,24464],[86.7,24552],[87,24635],[87,24714],[87,24798],[87,24881],[87,24964],[87,25048],[87,25131],[87,25214],[87,25298],[87,25381],[87,25464],[87,25548],[87,25631],[87,25714],[87,25797],[87,25881],[87,25964],[87,26047],[87,26131],[87,26214],[87,26297],[87,26381],[87,26464],[87,26548],[87,26631],[87,26714],[87,26797],[87,26881],[87,26964],[87,27047],[87,27131],[87,27214],[87,27297],[87,27381],[87,27468],[87,27547],[87,27631],[87,27714],[87,27797],[87,27881],[87,27964],[87,28047],[87,28131],[87,28214],[87,28297],[87,28381],[87,28464],[87,28547],[87,28634],[87,28714],[87,28797],[87,28881],[87,28964],[87,29047],[87,29131],[87,29214],[87,29297],[87,29381],[87,29464],[87,29547],[87,29631],[87,29717]]",117.0459,124.5749,67.715959,6.2826,"[{""rating"":67.71595900439239,""responseTime"":6.282600000143063}]",space,6.9831,,124.5752,Definitely yes,100,124.5799,,,[],,0,0,0,0,1,audio/Narrative13Situation2.wav,audio/Narrative13Situation2.wav,audio/Narrative13Situation2.wav,audio/Narrative13Situation2.wav,2,2,2,2,,,,,,,,,,,,,,,,,,,,,,,,,,,,,,,,,,,,,,,
,,,,,67203bff74dea717e8b9e1ea,2025-07-07_20h57.33.703,group3.4_multiperson,2023.2.2,Win32,60.24096386,686c2ebf0248f13bef9af11f,686c7afb95ccf98822a22973,,,,,,,,,,,,,,,,,,,,,,,,,,,,,124.5802,1,audio/Narrative8Situation1.wav,126.2244,space,126.2245,142.1569,"[[999,1],[999,83],[999,166],[999,249],[999,333],[999,416],[999,503],[999,587],[999,670],[999,753],[999,837],[999,920],[999,999],[999,1087],[999,1166],[50.7,1253],[50.6,1333],[50.1,1420],[50.6,1503],[50.9,1583],[51,1666],[50.9,1753],[50.9,1833],[60.4,1937],[63.2,2020],[66.5,2104],[68,2187],[70.1,2287],[71.8,2370],[74.3,2454],[75.2,2554],[75.5,2636],[75.6,2720],[75.9,2799],[75.9,2882],[75.9,2966],[75.9,3049],[76.1,3137],[76.4,3216],[76.4,3299],[76.4,3382],[76.4,3469],[76.4,3549],[76.4,3633],[76.4,3718],[76.4,3799],[76.4,3882],[76.4,3966],[76.4,4049],[76.4,4132],[76.4,4216],[76.4,4303],[76.4,4382],[78.1,4470],[79.7,4553],[81.9,4637],[88.1,4720],[89.2,4803],[91.1,4886],[93.8,4970],[93.8,5049],[93.9,5132],[94.8,5216],[94.8,5299],[94.8,5382],[94.8,5466],[94.8,5549],[94.8,5632],[94.8,5716],[94.8,5799],[94.8,5882],[94.8,5966],[94.8,6052],[94.8,6132],[94.8,6216],[94.8,6299],[94.8,6382],[94.8,6466],[94.8,6549],[94.8,6632],[94.8,6715],[94.8,6799],[94.8,6882],[94.8,6966],[94.8,7049],[94.8,7132],[94.8,7215],[94.8,7299],[94.8,7382],[94.8,7466],[95.2,7553],[95.4,7632],[95.4,7716],[95.4,7799],[95.4,7882],[95.4,7968],[95.4,8049],[95.4,8132],[95.4,8216],[95.4,8299],[95.4,8382],[95.4,8466],[95.4,8549],[95.4,8632],[95.4,8718],[95.4,8799],[95.4,8882],[95.4,8966],[95.4,9053],[95.4,9134],[95.4,9219],[95.4,9299],[95.4,9382],[95.4,9468],[95.4,9549],[95.4,9632],[95.4,9715],[95.4,9799],[95.4,9882],[95.4,9965],[95.4,10049],[95.4,10132],[95.4,10215],[95.4,10299],[95.4,10382],[95.4,10465],[95.4,10549],[95.4,10634],[95.4,10715],[95.4,10802],[95.4,10882],[95.4,10965],[95.4,11049],[95.4,11132],[95.4,11216],[95.4,11299],[95.4,11382],[95.4,11469],[95.4,11549],[95.4,11632],[95.4,11715],[95.4,11799],[95.4,11882],[95.4,11965],[95.4,12049],[95.4,12132],[95.4,12215],[95.4,12299],[95.4,12382],[95.4,12465],[95.4,12548],[95.4,12634],[95.4,12715],[95.4,12798],[95.4,12882],[95.4,12965],[95.4,13048],[95.4,13136],[95.4,13215],[95.4,13298],[95.4,13382],[95.4,13465],[95.4,13549],[95.4,13632],[95.4,13715],[95.4,13798],[95.4,13882],[95.4,13965],[95.4,14048],[95.4,14132],[95.4,14215],[95.4,14302],[95.4,14382],[95.4,14465],[95.4,14548],[95.4,14632],[95.4,14715],[95.4,14798],[95.4,14885],[95.4,14965],[95.4,15048],[95.4,15132],[95.4,15215],[95.4,15298],[95.4,15382],[95.4,15465],[95.4,15548],[95.4,15632],[95.4,15715],[95.4,15798],[95.4,15882]]",142.1573,148.0398,95.68081991,2.8031,"[{""rating"":95.68081991215227,""responseTime"":2.8030999999046173}]",space,5.3373,,148.0399,Definitely yes,100,148.0426,,,[],,0,1,1,1,1,audio/Narrative7Situation1.wav,audio/Narrative8Situation1.wav,audio/Narrative5Situation1.wav,audio/Narrative6Situation1.wav,2,5,5,2,1.6235,,,,,,,,,,,,,,,,,,,,,,,,,,,,,,,,,,,,,,
,,,,,67203bff74dea717e8b9e1ea,2025-07-07_20h57.33.703,group3.4_multiperson,2023.2.2,Win32,60.24096386,686c2ebf0248f13bef9af11f,686c7afb95ccf98822a22973,,,,,,,,,,,,,,,,,,,,,,,,,,,,,148.0429,1,audio/Narrative8Situation2.wav,151.0561,,151.0561,161.1891,"[[999,0],[999,83],[999,166],[999,250],[999,333],[999,416],[999,500],[999,583],[999,670],[999,754],[999,854],[999,937],[999,1020],[72,1104],[77.7,1188],[81,1266],[84.4,1350],[84.6,1437],[87,1520],[89.2,1604],[76.9,1687],[33.5,1770],[32.9,1850],[29.6,1937],[11.1,2021],[7.4,2104],[7.4,2183],[7.4,2266],[7.4,2349],[7.4,2433],[7.4,2516],[7.4,2600],[7,2683],[5.2,2766],[5.1,2849],[5.1,2933],[3.7,3016],[3.7,3100],[3.7,3183],[3.7,3266],[3.7,3349],[3.7,3433],[3.7,3516],[3.7,3603],[3.7,3683],[3.7,3766],[3.7,3849],[3.7,3933],[3.7,4016],[3.7,4099],[3.7,4182],[3.7,4268],[3.7,4349],[3.7,4433],[3.7,4516],[3.7,4599],[3.7,4683],[3.7,4766],[3.7,4849],[3.7,4933],[3.7,5020],[3.7,5099],[3.7,5183],[3.7,5266],[3.7,5349],[3.7,5433],[3.7,5516],[3.7,5599],[3.7,5682],[3.7,5766],[3.7,5849],[3.7,5932],[3.7,6016],[3.7,6099],[3.7,6183],[3.7,6266],[3.7,6349],[3.7,6432],[3.7,6516],[3.7,6599],[3.7,6683],[3.7,6766],[3.7,6849],[3.7,6932],[3.7,7016],[3.7,7099],[3.7,7183],[3.7,7266],[3.7,7349],[3.7,7432],[3.7,7516],[3.7,7601],[3.7,7682],[3.7,7766],[3.7,7849],[3.7,7932],[3.7,8018],[3.7,8099],[3.7,8183],[3.7,8266],[3.7,8349],[3.7,8433],[3.7,8516],[3.7,8599],[3.7,8683],[3.7,8766],[3.7,8849],[3.7,8932],[3.7,9016],[3.7,9099],[3.7,9182],[3.7,9266],[3.7,9349],[3.7,9432],[3.7,9516],[3.7,9599],[3.7,9682],[3.7,9766],[3.7,9849],[3.7,9932],[3.7,10019],[3.7,10099]]",161.1895,164.7722,10.32210835,1.8233,"[{""rating"":10.322108345534408,""responseTime"":1.8233000001907556}]",space,3.0431,,164.7723,Partially,50,164.7758,,,[],,0,2,2,2,1,audio/Narrative7Situation2.wav,audio/Narrative8Situation2.wav,audio/Narrative5Situation2.wav,audio/Narrative6Situation2.wav,3,3,3,3,,,,,,,,,,,,,,,,,,,,,,,,,,,,,,,,,,,,,,,
,,,,,67203bff74dea717e8b9e1ea,2025-07-07_20h57.33.703,group3.4_multiperson,2023.2.2,Win32,60.24096386,686c2ebf0248f13bef9af11f,686c7afb95ccf98822a22973,,,,,,,,,,,,,,,,,,,,,,,,,,,,,164.776,1,audio/Narrative8Situation3.wav,168.7884,,168.7884,191.1708,"[[9.9,2337],[9.9,2416],[9.9,2499],[9.9,2583],[9.9,2666],[9.9,2749],[9.9,2832],[9.9,2916],[9.9,2999],[9.9,3083],[9.9,3166],[9.9,3249],[9.9,3333],[9.9,3420],[9.9,3499],[9.9,3582],[9.9,3666],[9.9,3749],[9.9,3833],[9.9,3916],[9.9,3999],[9.9,4083],[9.9,4166],[9.9,4249],[9.9,4332],[9.9,4420],[9.9,4499],[9.9,4583],[9.9,4666],[9.9,4749],[9.9,4832],[9.9,4916],[12.5,5004],[28.2,5083],[43.6,5170],[59.1,5254],[61.9,5337],[65.2,5420],[66.4,5504],[67.9,5587],[68.4,5666],[68.4,5749],[68.3,5837],[66.7,5916],[66.5,5999],[66.5,6082],[66.5,6166],[66.5,6249],[66.5,6336],[66.5,6419],[66.5,6499],[66.7,6583],[67.4,6666],[71.2,6749],[71.2,6836],[71.2,6916],[71.2,6999],[71.2,7082],[71.2,7166],[71.2,7249],[71.2,7332],[71.2,7416],[71.2,7499],[71.2,7582],[71.2,7666],[72.3,7753],[72.4,7832],[72.4,7915],[72.4,7999],[72.4,8082],[72.4,8166],[73.3,8249],[73.3,8332],[73.7,8415],[73.7,8499],[73.7,8585],[75.6,8666],[79.7,8753],[82.5,8836],[82.5,8915],[82.5,8999],[82.5,9082],[82.5,9165],[82.5,9249],[81,9337],[80.3,9420],[80.3,9499],[80.3,9586],[80.3,9665],[80.3,9749],[80.3,9832],[80.3,9915],[80.3,9999],[80.3,10082],[80.3,10166],[80.3,10249],[81.2,10337],[82.2,10415],[82.5,10504],[83.5,10585],[84.6,10670],[86,10753],[86,10832],[86,10915],[86,10999],[87.2,11087],[87.8,11170],[87.8,11249],[87.8,11332],[87.8,11415],[87.8,11499],[87.5,11586],[87.5,11665],[87.5,11749],[87.5,11832],[87.5,11915],[87.5,11999],[87.5,12086],[87.5,12165],[87.5,12249],[87.5,12332],[87.5,12415],[87.5,12499],[87.5,12582],[87.5,12665],[87.5,12749],[87.5,12832],[87.5,12915],[88.4,13003],[88.5,13082],[88.5,13165],[88.5,13249],[88.5,13332],[88.2,13415],[88.2,13499],[88.1,13582],[87.9,13670],[87.8,13749],[87.6,13832],[87.5,13915],[87.2,13999],[87,14082],[87,14165],[87,14249],[87,14332],[87,14415],[87,14499],[87,14582],[87.2,14669],[87.3,14748],[87.5,14832],[87.9,14915],[87.9,14999],[87.9,15082],[88.1,15165],[91.1,15253],[91.1,15332],[91.1,15415],[91.1,15499],[91.1,15582],[91.1,15665],[91.1,15748],[91.1,15832],[91.1,15915],[91.1,15999],[91.1,16086],[91.1,16165],[90.6,16249],[90.6,16332],[90.6,16415],[90.6,16499],[90.6,16582],[90.6,16665],[90.6,16749],[90.6,16832],[90.6,16919],[90.6,16999],[90.6,17084],[90.6,17165],[90.6,17248],[90.6,17336],[90.6,17415],[90.6,17498],[90.6,17582],[90.6,17665],[90.6,17748],[90.6,17832],[90.6,17915],[90.6,17998],[90.6,18082],[90.6,18165],[90.6,18248],[90.6,18332],[90.6,18419],[90.6,18498],[90.6,18582],[90.6,18665],[90.6,18748],[90.6,18832],[90.6,18915],[90.6,19002],[90.6,19082],[90.6,19165],[90.6,19248],[90.6,19332],[90.6,19415],[90.6,19498],[90.6,19581],[90.6,19665],[90.6,19752],[90.6,19832],[90.6,19915],[90.6,19998],[90.6,20081],[90.6,20165],[90.6,20248],[90.6,20332],[90.6,20415],[90.6,20498],[90.6,20581],[90.6,20665],[90.6,20748],[90.6,20835],[90.6,20915],[90.6,20998],[90.6,21082],[90.6,21165],[90.6,21252],[90.6,21331],[90.6,21415],[90.6,21498],[90.6,21582],[90.1,21665],[74.5,21752],[68.2,21836],[67.3,21915],[90,22002],[90,22081],[92.2,22165],[92.6,22248],[92.6,22331]]",191.171,193.4369,92.60614934,0.1082,"[{""rating"":92.60614934114201,""responseTime"":0.10819999980927264}]",space,1.732,,193.437,Partially,50,193.4395,,,[],,0,3,3,3,1,audio/Narrative7Situation3.wav,audio/Narrative8Situation3.wav,audio/Narrative5Situation3.wav,audio/Narrative6Situation3.wav,8,4,3,5,,,,,,,,,,,,,,,,,,,,,,,,,,,,,,,,,,,,,,,
,,,,,67203bff74dea717e8b9e1ea,2025-07-07_20h57.33.703,group3.4_multiperson,2023.2.2,Win32,60.24096386,686c2ebf0248f13bef9af11f,686c7afb95ccf98822a22973,,,,,,,,,,,,,,,,,,,,,,,,,,,,,193.4397,1,audio/Narrative8Situation4.wav,196.4532,,196.4533,210.6566,"[[39.8,504],[37,583],[42.8,670],[48.5,754],[48.8,833],[48.8,916],[48.8,1003],[48.8,1083],[38.6,1170],[37,1249],[37,1333],[37,1416],[37,1499],[37,1583],[37,1666],[36.4,1750],[20.3,1837],[2.3,2337],[4.3,2416],[4.3,2499],[4.3,2583],[4.8,2670],[5.1,2749],[5.1,2833],[20.7,2920],[27.2,3003],[27.2,3083],[27.3,3170],[43.1,3254],[53.7,3337],[60.5,3420],[61.1,3499],[66.8,3587],[73.9,3670],[74.3,3749],[76.5,3837],[84.3,3920],[84.3,3999],[84.3,4082],[84.3,4166],[84.3,4249],[84.3,4332],[84.3,4416],[84.3,4499],[84.3,4583],[84.3,4666],[84.3,4749],[84.3,4832],[84.3,4916],[84.3,4999],[84.3,5083],[84.3,5166],[84.3,5251],[84.3,5333],[84.3,5416],[84.3,5499],[84.3,5587],[84.3,5666],[84.3,5749],[84.3,5832],[84.3,5916],[84.3,5999],[84.3,6082],[84.3,6166],[84.3,6249],[84.3,6332],[84.3,6416],[84.3,6499],[84.3,6582],[84.3,6666],[84.3,6749],[84.3,6837],[84.3,6916],[84.3,6999],[84.3,7082],[84.3,7166],[84.3,7249],[84.3,7332],[84.3,7416],[84.3,7499],[84.3,7586],[84.3,7666],[84.3,7749],[86.6,7837],[87.6,7920],[88.5,7999],[89.7,8082],[92.9,8166],[94.2,8253],[96.6,8332],[96.6,8416],[96.9,8499],[99.3,8582],[99.5,8666],[99.5,8749],[99.5,8832],[99.5,8915],[99.5,8999],[100,9086],[100,9166],[100,9249],[100,9332],[100,9415],[99.2,9503],[90.1,9587],[90,9666],[88.8,9753],[86.6,9837],[86.6,9916],[86.6,10003],[86.5,10082],[86.5,10165],[86.5,10249],[86.5,10332],[86.5,10419],[86.5,10499],[86.5,10582],[86.5,10666],[86.5,10749],[86.5,10832],[86.5,10916],[86.5,10999],[86.5,11082],[86.5,11165],[86,11253],[86,11332],[86,11416],[86,11499],[86,11584],[86,11665],[86,11751],[86,11836],[86,11916],[86,11999],[86,12082],[86,12165],[86,12249],[86,12332],[86,12416],[86,12499],[86,12582],[86,12669],[86,12749],[86,12832],[86,12915],[86,12999],[86,13084],[86,13165],[86,13249],[86,13332],[86,13415],[86,13501],[85.9,13582],[86.9,13665],[92.3,13752],[94.7,13836],[95.5,13916],[95.5,14001],[96.7,14086],[96.7,14165]]",210.6568,213.9356,99.4875549,0.9827,"[{""rating"":99.48755490483163,""responseTime"":0.9827000000476858}]",space,2.7402,,213.9356,Not at all,0,213.9387,,,[],,0,4,4,4,1,audio/Narrative7Situation4.wav,audio/Narrative8Situation4.wav,audio/Narrative5Situation4.wav,audio/Narrative6Situation4.wav,3,3,1,2,,,,,,,,,,,,,,,,,,,,,,,,,,,,,,,,,,,,,,,
,,,,,67203bff74dea717e8b9e1ea,2025-07-07_20h57.33.703,group3.4_multiperson,2023.2.2,Win32,60.24096386,686c2ebf0248f13bef9af11f,686c7afb95ccf98822a22973,,,,,,,,,,,,,,,,,,,,,,,,,,,,,213.9389,1,audio/Narrative8Situation5.wav,215.9565,,215.9565,224.2062,"[[53.7,1995],[53.7,2079],[53.4,2162],[52.5,2249],[51.9,2328],[62.6,2412],[73.9,2499],[78.4,2578],[83.4,2666],[90.7,2749],[90.7,2828],[93,2912],[94.2,2999],[94.5,3078],[94.5,3161],[94.5,3245],[96.1,3332],[96.3,3416],[97.6,3495],[97.6,3578],[97.6,3662],[97.6,3745],[97.6,3828],[98,3912],[98.5,3999],[98.9,4078],[98.9,4162],[98.9,4245],[98.9,4328],[98.9,4412],[98.9,4495],[98.9,4578],[98.9,4661],[98.9,4745],[98.9,4828],[98.9,4912],[98.9,4995],[98.9,5078],[98.9,5161],[98.9,5245],[98.9,5328],[98.9,5412],[98.9,5495],[98.9,5578],[98.9,5661],[98.9,5745],[98.9,5828],[98.9,5912],[98.9,5995],[98.9,6078],[98.9,6162],[98.9,6245],[98.9,6328],[88.9,6416],[86.9,6495],[86.5,6578],[86.5,6661],[86.5,6745],[86.5,6828],[86.5,6911],[86.5,6995],[86.5,7082],[86.5,7162],[86.5,7245],[86.5,7328],[86.5,7411],[86.5,7495],[86.5,7578],[86.5,7661],[86.5,7745],[86.5,7828],[86.5,7911],[86.5,7995],[86.5,8078],[86.5,8161],[90.7,8249]]",224.2065,232.5344,98.75549048,4.639,"[{""rating"":96.41288433382138,""responseTime"":3.8472999999522983},{""rating"":98.75549048316252,""responseTime"":4.638999999999982}]",space,7.7833,,232.5346,Definitely yes,100,232.5381,,,[],,0,5,5,5,1,audio/Narrative7Situation5.wav,audio/Narrative8Situation5.wav,audio/Narrative5Situation5.wav,audio/Narrative6Situation5.wav,5,2,5,2,,,,,,,,,,,,,,,,,,,,,,,,,,,,,,,,,,,,,,,
,,,,,67203bff74dea717e8b9e1ea,2025-07-07_20h57.33.703,group3.4_multiperson,2023.2.2,Win32,60.24096386,686c2ebf0248f13bef9af11f,686c7afb95ccf98822a22973,,,,,,,,,,,,,,,,,,,,,,,,,,,,,232.5384,1,audio/Narrative8Situation6.wav,234.5513,,234.5513,241.0381,"[[999,0],[999,86],[999,166],[999,250],[999,332],[999,416],[999,499],[999,582],[999,666],[999,749],[999,832],[999,916],[999,1000],[65.1,1086],[63,1170],[63,1249],[63,1332],[63,1416],[63,1499],[63,1582],[63,1666],[63,1749],[63,1832],[63,1916],[63,1999],[63,2082],[62.9,2166],[62.9,2249],[62.9,2332],[62.9,2416],[62.9,2499],[62.9,2582],[62.9,2666],[62.9,2749],[62.9,2832],[62.9,2916],[62.9,2999],[62.9,3082],[62.9,3165],[62.9,3249],[62.9,3332],[62.9,3415],[62.9,3499],[62.9,3582],[62.9,3665],[62.9,3749],[62.9,3832],[62.9,3916],[62.9,4001],[62.9,4082],[62.9,4165],[62.9,4249],[62.9,4332],[62.9,4415],[62.9,4499],[62.9,4582],[62.9,4666],[62.9,4751],[62.9,4832],[62.9,4915],[62.9,4999],[62.9,5082],[62.9,5165],[62.9,5249],[62.9,5332],[62.9,5415],[62.9,5499],[62.9,5582],[62.9,5665],[62.9,5749],[62.9,5832],[62.9,5915],[62.9,5999],[62.9,6082],[62.9,6165],[64.8,6253],[72,6335],[77.8,6416]]",241.0382,244.0339,82.21083455,1.9829,"[{""rating"":78.55051244509517,""responseTime"":1.0086000001430477},{""rating"":82.2108345534407,""responseTime"":1.982900000095384}]",space,2.45,,244.034,Not at all,0,244.0373,,,[],,0,6,6,6,1,audio/Narrative7Situation6.wav,audio/Narrative8Situation6.wav,audio/Narrative5Situation6.wav,audio/Narrative6Situation6.wav,3,2,3,2,,,,,,,,,,,,,,,,,,,,,,,,,,,,,,,,,,,,,,,
,,,,,67203bff74dea717e8b9e1ea,2025-07-07_20h57.33.703,group3.4_multiperson,2023.2.2,Win32,60.24096386,686c2ebf0248f13bef9af11f,686c7afb95ccf98822a22973,,,,,,,,,,,,,,,,,,,,,,,,,,,,,244.0375,1,audio/Narrative8Situation7.wav,247.0505,,247.0507,259.1497,"[[999,0],[999,82],[999,166],[999,249],[999,332],[999,415],[999,499],[999,582],[999,665],[999,749],[999,832],[999,915],[999,999],[999,1103],[999,1186],[999,1265],[999,1353],[999,1436],[999,1520],[999,1599],[999,1686],[999,1766],[999,1849],[999,1932],[999,2018],[999,2103],[999,2182],[999,2265],[999,2349],[999,2432],[999,2516],[999,2599],[999,2682],[999,2766],[999,2849],[999,2932],[999,3019],[999,3099],[999,3182],[999,3266],[999,3349],[96.3,3436],[100,3519],[100,3599],[100,3686],[98,3768],[96,3849],[95.4,3936],[95.2,4015],[95.2,4099],[96.6,4186],[96.6,4268],[96.6,4349],[96.6,4432],[96.6,4515],[93.3,4620],[93.2,4699],[93.2,4782],[91.4,4865],[85.1,4953],[85.1,5032],[89.1,5120],[92,5203],[92,5282],[92,5368],[92,5449],[92,5532],[92,5615],[92,5699],[92,5782],[92,5865],[92,5948],[92,6032],[92,6115],[92,6199],[92,6282],[92,6368],[92,6449],[92,6532],[92,6615],[92,6699],[92,6784],[92,6865],[92,6949],[92,7032],[92,7115],[92,7198],[92,7282],[92,7365],[92,7449],[92,7532],[92,7615],[92,7698],[92,7782],[92,7865],[92,7949],[92,8032],[92,8115],[90.8,8203],[90.6,8282],[90.3,8365],[90.3,8448],[90.3,8532],[90.3,8617],[90.3,8699],[90.3,8782],[90.3,8865],[91.6,8952],[91.7,9032],[91.7,9115],[91.7,9199],[91.7,9282],[91.7,9365],[91.7,9448],[91.7,9532],[91.7,9617],[91.7,9699],[91.7,9782],[91.7,9869],[91.7,9951],[91.7,10031],[91.7,10119],[91.7,10198],[91.7,10281],[91.7,10365],[91.7,10448],[91.7,10532],[91.7,10617],[91.7,10698],[91.7,10781],[91.7,10865],[91.7,10949],[91.7,11031],[91.7,11115],[91.6,11198],[91.6,11281],[91.6,11365],[91.6,11448],[91.6,11532],[91.6,11619],[91.6,11698],[91.6,11781],[91.6,11865],[91.6,11948],[91.6,12031]]",259.1499,260.1663,90.70278184,0.6546,"[{""rating"":90.70278184480233,""responseTime"":0.654599999904633}]",space,0.4725,,260.1664,Partially,50,260.1694,,,[],,0,7,7,7,1,audio/Narrative7Situation7.wav,audio/Narrative8Situation7.wav,audio/Narrative5Situation7.wav,audio/Narrative6Situation7.wav,5,3,4,5,,,,,,,,,,,,,,,,,,,,,,,,,,,,,,,,,,,,,,,
,,,,,67203bff74dea717e8b9e1ea,2025-07-07_20h57.33.703,group3.4_multiperson,2023.2.2,Win32,60.24096386,686c2ebf0248f13bef9af11f,686c7afb95ccf98822a22973,,,,,,,,,,,,,,,,,,,,,,,,,,,,,260.1698,1,audio/Narrative8Situation8.wav,263.1827,,263.1827,276.0486,"[[90.6,1253],[90.4,1333],[90.4,1416],[90.4,1499],[90.3,1587],[90.1,1666],[90.1,1749],[90.1,1833],[90.1,1916],[90.1,1999],[90.1,2083],[90.1,2166],[90.1,2249],[90.1,2333],[90.1,2416],[90.1,2499],[90.1,2583],[90.1,2666],[90.1,2749],[90.1,2832],[90,2916],[90,2999],[90,3083],[89.8,3166],[89.7,3253],[89.5,3332],[89.5,3416],[89.5,3499],[89.5,3582],[89.5,3666],[89.5,3749],[89.5,3832],[89.5,3915],[89.5,3999],[89.5,4082],[89.5,4166],[89.5,4249],[89.5,4332],[89.5,4416],[89.5,4499],[89.5,4586],[89.5,4665],[89.5,4753],[89.5,4832],[89.5,4916],[89.5,4999],[89.5,5083],[89.5,5165],[89.5,5249],[85,5337],[88.4,6670],[90.1,6753],[91.3,6837],[91.3,6915],[91.3,6999],[91.3,7082],[92.2,7170],[92.3,7251],[92.3,7332],[92.3,7415],[92.3,7499],[92.3,7582],[92.3,7666],[92.3,7749],[92.3,7832],[92.3,7915],[92.3,7999],[92.3,8082],[92.3,8165],[92.3,8249],[92.3,8332],[92.3,8415],[92.3,8499],[92.3,8582],[92.3,8665],[92.3,8749],[92.3,8832],[92.3,8916],[92.3,8999],[92.3,9086],[92.3,9165],[92.3,9249],[92.3,9332],[92.3,9415],[92.3,9499],[92.3,9582],[92.3,9665],[92.3,9749],[92.3,9832],[92.3,9915],[92.3,10002],[92.3,10082],[92.3,10165],[92.3,10248],[92.3,10332],[92.3,10415],[92.3,10498],[92.3,10582],[92.3,10665],[92.3,10749],[92.3,10832],[92.3,10915],[92.3,10999],[92.3,11082],[92.3,11165],[92.3,11253],[92.3,11332],[92.3,11415],[92.3,11502],[92.3,11582],[92.3,11665],[92.3,11749],[92.3,11832],[92.3,11915],[92.3,11998],[92.3,12082],[92.3,12165],[92.3,12248],[92.3,12332],[92.3,12415],[92.3,12499],[92.3,12582],[92.3,12665],[92.3,12749],[92.3,12834]]",276.0488,278.4485,99.4875549,1.7324,"[{""rating"":99.48755490483163,""responseTime"":1.7324000000953674}]",space,1.8575,,278.4487,Definitely yes,100,278.4533,,,[],,0,8,8,8,1,audio/Narrative7Situation8.wav,audio/Narrative8Situation8.wav,audio/Narrative5Situation8.wav,audio/Narrative6Situation8.wav,2,3,3,5,,,,,,,,,,,,,,,,,,,,,,,,,,,,,,,,,,,,,,,
,,,,,67203bff74dea717e8b9e1ea,2025-07-07_20h57.33.703,group3.4_multiperson,2023.2.2,Win32,60.24096386,686c2ebf0248f13bef9af11f,686c7afb95ccf98822a22973,,,,,,,,,,,,,,,,,,,,,,,,,,,,,278.4536,1,audio/Narrative8Situation9.wav,281.4646,,281.4646,292.7812,"[[999,0],[999,83],[999,170],[999,249],[999,333],[999,416],[999,500],[999,583],[999,666],[999,750],[999,833],[999,916],[999,999],[999,1083],[999,1166],[999,1249],[999,1333],[999,1416],[999,1500],[999,1583],[999,1666],[999,1749],[999,1833],[999,1916],[999,2000],[999,2083],[999,2166],[999,2249],[999,2333],[999,2416],[999,2499],[999,2583],[999,2666],[999,2749],[999,2833],[999,2916],[999,2999],[999,3083],[999,3166],[999,3249],[999,3333],[999,3416],[999,3499],[999,3583],[999,3666],[999,3749],[999,3833],[999,3920],[999,4000],[999,4083],[999,4166],[999,4249],[999,4333],[999,4418],[999,4499],[999,4583],[999,4666],[999,4749],[999,4833],[999,4916],[999,4999],[999,5083],[999,5166],[999,5249],[999,5333],[999,5416],[999,5499],[999,5582],[999,5666],[999,5749],[999,5833],[999,5916],[999,5999],[999,6082],[999,6166],[999,6249],[999,6333],[999,6416],[999,6499],[999,6583],[999,6666],[999,6749],[999,6833],[999,6916],[999,6999],[999,7082],[999,7166],[999,7249],[999,7332],[999,7416],[999,7499],[999,7583],[999,7666],[999,7749],[999,7833],[999,7920],[999,7999],[999,8082],[999,8166],[999,8249],[999,8333],[999,8416],[999,8499],[999,8583],[999,8666],[999,8749],[999,8836],[999,8916],[999,9003],[999,9082],[999,9170],[96.7,9253],[97.4,9337],[97.9,9416],[98.2,9503],[98.3,9582],[98.3,9665],[98.3,9749],[98.3,9832],[98.5,9916],[98.9,10003],[99.2,10082],[99.2,10166],[99.2,10249],[99.2,10332],[99.2,10415],[99.2,10499],[99.2,10582],[99.2,10666],[99.2,10749],[99.2,10832],[99.2,10915],[99.2,10999],[99.2,11082],[99.2,11165],[99.2,11249]]",292.7813,295.5806,98.46266471,1.7889,"[{""rating"":98.46266471449488,""responseTime"":1.7889000000953956}]",space,2.2356,,295.5807,Definitely yes,100,295.5827,,,[],,0,9,9,9,1,audio/Narrative7Situation9.wav,audio/Narrative8Situation9.wav,audio/Narrative5Situation9.wav,audio/Narrative6Situation9.wav,2,3,3,4,,,,,,,,,,,,,,,,,,,,,,,,,,,,,,,,,,,,,,,
,,,,,67203bff74dea717e8b9e1ea,2025-07-07_20h57.33.703,group3.4_multiperson,2023.2.2,Win32,60.24096386,686c2ebf0248f13bef9af11f,686c7afb95ccf98822a22973,,,,,,,,,,,,,,,,,,,,,,,,,,,,,295.583,1,audio/Narrative7Situation1.wav,297.5971,,297.5972,353.4937,"[[999,0],[999,85],[999,166],[999,250],[999,333],[999,416],[999,500],[999,583],[999,666],[999,749],[999,833],[999,916],[999,999],[999,1083],[999,1166],[999,1249],[999,1333],[999,1416],[999,1499],[999,1583],[999,1666],[999,1749],[999,1832],[999,1920],[999,1999],[999,2083],[999,2166],[999,2249],[999,2333],[999,2416],[999,2499],[999,2583],[999,2670],[999,2749],[999,2837],[999,2916],[999,2999],[999,3082],[999,3170],[999,3253],[999,3332],[999,3416],[999,3499],[999,3586],[999,3666],[999,3750],[66.8,3837],[55.9,3916],[54.4,3999],[55.1,4082],[58.2,4166],[83.1,4254],[88.1,4333],[88.1,4416],[88.1,4499],[88.1,4582],[88.1,4665],[89.2,4753],[90.7,4836],[90.7,4915],[90.7,4999],[90.7,5082],[90.7,5169],[90.7,5249],[90.7,5332],[90.7,5415],[90.7,5499],[90.7,5582],[90.7,5665],[90.7,5749],[90.7,5832],[90.7,5916],[90.7,5999],[90.7,6082],[90.7,6166],[90.7,6249],[90.7,6332],[90.7,6415],[83.4,6503],[76.1,6586],[76.1,6665],[76.1,6749],[76.1,6832],[76.1,6915],[76.1,6999],[76.1,7082],[76.1,7165],[76.1,7249],[76.1,7332],[76.1,7415],[76.1,7499],[76.1,7582],[76.1,7669],[76.1,7749],[76.1,7832],[76.1,7915],[76.1,7999],[76.1,8082],[76.1,8165],[76.1,8249],[76.1,8332],[76.8,8415],[86.7,8503],[86.7,8582],[86.7,8665],[86.7,8749],[86.7,8832],[86.7,8915],[86.7,8999],[86.7,9082],[86.7,9165],[86.7,9249],[86.7,9332],[86.7,9415],[86.7,9499],[86.7,9582],[86.7,9665],[86.7,9749],[86.7,9832],[86.7,9915],[86.7,9999],[86.7,10082],[86.7,10165],[86.7,10249],[86.7,10332],[86.7,10415],[86.7,10499],[86.7,10582],[86.7,10669],[86.7,10749],[86.7,10836],[86.7,10915],[86.7,10999],[86.7,11082],[86.7,11165],[86.7,11249],[86.7,11332],[86.7,11415],[86.7,11499],[86.7,11582],[86.7,11665],[86.7,11749],[86.7,11832],[86.7,11915],[86.7,11999],[86.7,12082],[86.7,12165],[86.7,12252],[86.7,12336],[86.7,12415],[86.7,12499],[86.7,12582],[86.7,12665],[86.7,12749],[86.7,12832],[86.7,12915],[86.7,12998],[86.7,13082],[86.7,13165],[86.7,13249],[86.7,13332],[86.7,13415],[86.7,13499],[86.7,13582],[86.7,13665],[86.7,13748],[86.7,13832],[86.7,13915],[86.7,13998],[86.7,14082],[86.7,14165],[86.7,14248],[86.7,14332],[86.7,14415],[86.7,14502],[86.7,14582],[86.7,14667],[86.7,14752],[86.7,14832],[86.7,14915],[86.7,14998],[86.7,15082],[86.7,15165],[86.7,15248],[86.7,15332],[86.7,15415],[86.7,15498],[86.7,15582],[86.7,15665],[86.7,15748],[86.7,15832],[86.7,15915],[86.7,15999],[86.7,16082],[86.7,16165],[86.7,16248],[86.7,16332],[86.7,16415],[86.7,16498],[86.7,16582],[86.7,16665],[86.7,16748],[86.7,16832],[86.7,16915],[86.7,16998],[86.7,17082],[86.7,17165],[86.7,17248],[86.7,17331],[86.7,17415],[86.7,17498],[86.7,17582],[86.7,17665],[86.7,17752],[86.7,17832],[86.7,17915],[86.7,17998],[86.7,18082],[86.7,18165],[86.7,18248],[86.7,18332],[86.7,18415],[86.7,18498],[86.7,18582],[83.1,18665],[80.6,18749],[80.5,18832],[80.5,18915],[80.5,18998],[80.5,19081],[80.5,19165],[80.5,19248],[80.5,19332],[80.5,19415],[80.5,19498],[80.5,19582],[80.5,19665],[80.5,19748],[80.5,19831],[80.5,19915],[80.5,19998],[80.5,20081],[80.5,20169],[80.5,20248],[80.5,20331],[80.5,20415],[80.5,20498],[80.5,20581],[80.5,20665],[80.5,20748],[80.5,20831],[80.5,20918],[80.5,20998],[80.5,21081],[80.5,21165],[80.5,21248],[80.5,21331],[80.5,21415],[80.5,21498],[80.5,21581],[80.5,21669],[80.5,21748],[80.5,21831],[80.5,21915],[80.2,21998],[81.6,22086],[82.8,22169],[82.8,22248],[82.8,22331],[82.8,22414],[82.8,22498],[83.1,22585],[83.1,22665],[83.1,22748],[83.1,22831],[83.1,22915],[83.1,22998],[83.1,23081],[83.1,23165],[83.1,23248],[83.1,23331],[83.5,23419],[84.3,23498],[85.4,23586],[86.3,23665],[86.6,23748],[86.6,23831],[86.6,23914],[86.6,23998],[86.6,24081],[86.6,24165],[86.6,24248],[86.6,24331],[86.6,24414],[86.6,24498],[86.6,24581],[86.6,24664],[86.6,24748],[86.6,24831],[86.6,24914],[86.6,24998],[86.6,25081],[86.6,25164],[86.6,25248],[86.6,25331],[86.6,25414],[86.6,25498],[86.6,25581],[86.6,25664],[86.6,25748],[86.6,25831],[86.6,25918],[86.6,25997],[86.6,26081],[86.6,26164],[86.6,26248],[86.6,26331],[86.6,26414],[86.6,26498],[86.6,26581],[86.6,26664],[86.6,26748],[86.6,26831],[86.6,26914],[86.6,26998],[86.6,27081],[86.6,27165],[86.6,27248],[86.6,27331],[86.6,27414],[86.6,27497],[86.6,27581],[86.6,27666],[86.6,27748],[86.6,27831],[86.6,27914],[86.6,27998],[86.6,28081],[86.6,28164],[86.6,28250],[86.6,28331],[86.6,28415],[86.6,28498],[86.6,28581],[86.6,28664],[86.6,28747],[86.6,28831],[86.6,28914],[86.6,28997],[86.6,29081],[86.6,29164],[86.6,29247],[86.6,29331],[86.6,29414],[86.6,29498],[86.6,29581],[86.6,29664],[78.6,29752],[74.7,29867],[73.4,29948],[71.7,30035],[71.7,30114],[71.7,30198],[71.7,30281],[71.7,30368],[71.7,30447],[71.7,30531],[71.7,30614],[71.7,30697],[71.7,30781],[71.7,30864],[71.7,30947],[71.7,31033],[71.7,31114],[71.7,31198],[71.7,31281],[71.7,31364],[71.7,31448],[71.7,31531],[71.7,31614],[71.7,31697],[71.7,31781],[71.7,31868],[71.7,31947],[71.7,32031],[71.7,32114],[71.7,32198],[71.7,32281],[71.7,32364],[71.7,32447],[71.7,32531],[71.7,32614],[71.7,32697],[72,32785],[74.5,32868],[74.6,32947],[74.7,33031],[74.7,33114],[74.7,33197],[74.7,33281],[74.7,33364],[74.7,33447],[74.7,33531],[74.7,33614],[74.7,33697],[74.7,33781],[74.7,33864],[74.7,33947],[74.7,34031],[74.7,34114],[74.7,34197],[74.7,34280],[74.7,34364],[74.7,34447],[74.7,34531],[74.7,34614],[74.7,34697],[74.7,34780],[74.7,34864],[74.7,34947],[74.7,35030],[74.7,35114],[74.7,35197],[74.7,35281],[74.7,35364],[74.7,35447],[74.7,35530],[74.7,35614],[74.7,35697],[74.7,35781],[74.7,35866],[74.7,35947],[74.7,36030],[74.7,36114],[74.7,36197],[74.7,36284],[74.7,36364],[74.7,36447],[74.7,36530],[74.7,36616],[74.7,36697],[74.7,36780],[74.7,36864],[74.7,36947],[74.7,37030],[74.7,37114],[74.7,37197],[74.7,37280],[74.7,37367],[74.7,37447],[74.7,37530],[74.7,37614],[74.7,37699],[74.7,37780],[74.7,37864],[74.7,37947],[74.7,38030],[74.7,38114],[74.7,38197],[74.7,38281],[74.7,38364],[74.7,38447],[74.7,38530],[74.7,38613],[74.7,38697],[74.7,38780],[74.7,38864],[74.7,38947],[74.7,39030],[74.7,39113],[74.7,39197],[74.7,39280],[74.7,39364],[74.7,39447],[74.7,39530],[74.7,39617],[74.7,39697],[74.7,39780],[74.7,39864],[74.7,39947],[74.7,40030],[74.7,40114],[74.7,40197],[74.7,40280],[74.7,40367],[74.7,40447],[74.7,40530],[74.7,40613],[74.7,40697],[74.7,40780],[74.7,40863],[74.7,40947],[74.7,41030],[74.7,41113],[74.7,41197],[74.7,41280],[74.7,41364],[74.7,41447],[74.7,41530],[74.7,41613],[74.7,41697],[74.7,41780],[74.7,41863],[74.7,41947],[74.7,42034],[74.7,42113],[74.7,42197],[74.7,42280],[74.7,42363],[74.7,42447],[74.7,42530],[74.7,42617],[74.7,42697],[74.7,42780],[74.7,42863],[74.7,42947],[74.7,43034],[74.7,43117],[74.7,43197],[74.7,43280],[74.7,43363],[74.7,43447],[74.7,43530],[74.7,43613],[74.7,43701],[74.7,43780],[74.7,43863],[74.7,43947],[74.7,44030],[74.7,44117],[74.7,44196],[74.7,44280],[74.7,44363],[74.7,44447],[74.7,44530],[74.7,44613],[74.7,44696],[74.7,44780],[74.7,44863],[74.7,44946],[74.7,45030],[74.7,45113],[74.7,45196],[74.7,45282],[74.7,45367],[74.7,45447],[74.7,45530],[74.7,45613],[74.7,45696],[74.7,45780],[74.7,45863],[74.7,45946],[74.7,46030],[74.7,46113],[74.7,46196],[74.7,46280],[74.7,46363],[74.7,46446],[74.7,46530],[74.7,46613],[74.7,46697],[74.7,46780],[74.7,46863],[74.7,46946],[74.7,47032],[74.7,47113],[74.7,47196],[74.7,47280],[74.7,47363],[74.7,47446],[74.7,47530],[74.7,47617],[74.7,47696],[74.7,47780],[74.7,47863],[74.7,47946],[74.7,48030],[74.7,48113],[74.7,48196],[74.7,48280],[74.7,48363],[74.7,48446],[74.7,48530],[74.7,48613],[74.7,48696],[74.7,48780],[74.7,48863],[74.7,48950],[74.7,49030],[74.7,49113],[74.7,49196],[74.7,49280],[74.7,49365],[74.7,49446],[74.7,49530],[74.7,49613],[74.7,49696],[74.7,49780],[74.7,49863],[74.7,49946],[74.7,50030],[74.7,50113],[74.7,50196],[74.7,50280],[74.7,50363],[74.7,50446],[74.7,50529],[74.7,50613],[74.7,50696],[74.7,50779],[74.7,50863],[74.7,50946],[74.7,51029],[74.7,51113],[74.7,51196],[74.7,51279],[74.7,51363],[74.7,51446],[74.7,51530],[74.7,51615],[74.7,51696],[74.7,51780],[74.7,51863],[74.7,51946],[74.7,52030],[76.9,52117],[77.2,52196],[77.4,52279],[77.5,52363],[77.5,52446],[77.5,52529],[77.5,52613],[77.5,52698],[77.5,52779],[77.5,52863],[77.5,52946],[77.5,53033],[77.5,53113],[77.5,53196],[77.5,53279],[77.5,53363],[77.5,53446],[77.5,53530],[77.5,53613],[77.5,53696],[77.5,53779],[77.5,53863],[77.5,53946],[77.5,54029],[77.5,54113],[77.5,54196],[77.5,54279],[77.5,54363],[77.5,54446],[77.5,54529],[77.5,54612],[77.5,54700],[77.5,54783],[77.5,54863],[77.5,54946],[77.5,55029],[77.5,55113],[77.5,55196],[77.5,55279],[77.5,55362],[77.8,55446],[82.5,55530],[82.7,55612],[84.3,55696],[85.6,55784],[85.6,55863]]",353.4941,356.6976,88.65300146,0.6864,"[{""rating"":88.65300146412885,""responseTime"":0.686399999856917}]",space,2.6503,,356.6976,Not at all,0,356.6999,,,[],,0,10,10,10,1,audio/Narrative8Situation1.wav,audio/Narrative7Situation1.wav,audio/Narrative6Situation1.wav,audio/Narrative5Situation1.wav,5,2,2,5,,,,,,,,,,,,,,,,,,,,,,,,,,,,,,,,,,,,,,,
,,,,,67203bff74dea717e8b9e1ea,2025-07-07_20h57.33.703,group3.4_multiperson,2023.2.2,Win32,60.24096386,686c2ebf0248f13bef9af11f,686c7afb95ccf98822a22973,,,,,,,,,,,,,,,,,,,,,,,,,,,,,356.7002,1,audio/Narrative7Situation2.wav,359.7098,,359.7098,367.1968,"[[999,0],[999,83],[999,169],[999,249],[999,333],[999,416],[999,499],[999,583],[999,666],[999,749],[999,833],[999,916],[999,1000],[999,1083],[999,1166],[999,1249],[999,1333],[999,1416],[999,1500],[999,1583],[999,1666],[999,1750],[999,1837],[999,1916],[999,2000],[999,2083],[999,2166],[999,2249],[999,2333],[999,2416],[999,2499],[999,2583],[999,2670],[999,2749],[999,2833],[999,2916],[999,2999],[999,3082],[999,3166],[999,3249],[999,3332],[999,3416],[999,3499],[999,3583],[999,3666],[999,3749],[999,3832],[999,3916],[999,3999],[999,4082],[999,4166],[999,4249],[999,4333],[999,4416],[999,4499],[999,4582],[999,4666],[999,4749],[999,4832],[999,4916],[999,5000],[999,5082],[999,5166],[999,5249],[999,5332],[999,5416],[999,5499],[999,5582],[999,5666],[999,5749],[999,5832],[999,5916],[999,5999],[999,6082],[999,6166],[999,6249],[999,6332],[999,6416],[999,6499],[999,6582],[999,6666],[999,6749],[999,6832],[999,6916],[999,7003],[999,7082],[999,7166],[999,7249],[999,7336],[84.1,7420]]",367.1969,369.8761,99.19472914,2.2774,"[{""rating"":99.19472913616399,""responseTime"":1.685400000095342},{""rating"":99.19472913616399,""responseTime"":2.2774000000953265}]",space,2.1436,,369.8762,Partially,50,369.8789,,,[],,0,11,11,11,1,audio/Narrative8Situation2.wav,audio/Narrative7Situation2.wav,audio/Narrative6Situation2.wav,audio/Narrative5Situation2.wav,3,3,3,3,,,,,,,,,,,,,,,,,,,,,,,,,,,,,,,,,,,,,,,
,,,,,67203bff74dea717e8b9e1ea,2025-07-07_20h57.33.703,group3.4_multiperson,2023.2.2,Win32,60.24096386,686c2ebf0248f13bef9af11f,686c7afb95ccf98822a22973,,,,,,,,,,,,,,,,,,,,,,,,,,,,,369.8792,1,audio/Narrative7Situation3.wav,377.892,,377.8921,387.1583,"[[999,0],[999,83],[999,166],[999,250],[999,333],[999,416],[999,500],[999,583],[999,666],[999,754],[62.4,837],[64.1,920],[64.1,999],[64.1,1083],[64.1,1166],[64.1,1249],[65.7,1335],[65.7,1420],[64.3,1504],[62.4,1583],[62.4,1666],[80.9,1920],[81.5,2000],[84.7,2087],[84.8,2166],[85,2253],[85,2333],[82.4,2416],[48.8,2503],[48.5,2583],[48.5,2670],[48.5,2749],[48.5,2833],[48.5,2916],[48.5,2999],[48.5,3083],[33.7,3170],[28.3,3249],[22.8,3337],[11.1,3421],[10.5,3499],[11.2,3583],[16,3670],[16,3749],[17.8,3837],[23.1,3920],[23.2,4003],[23.4,4082],[23.4,4166],[23.4,4249],[23.4,4332],[23.4,4416],[23.4,4500],[23.4,4582],[23.4,4666],[23.4,4749],[23.4,4832],[23.4,4916],[23.4,4999],[23.4,5082],[23.4,5166],[23.4,5249],[23.4,5333],[23.4,5416],[23.4,5499],[24.4,5582],[43.7,5670],[44.3,5749],[44.3,5832],[50,5920],[51.5,6003],[53.7,6086],[53.8,6166],[53.8,6249],[53.8,6333],[53.8,6419],[53.8,6499],[55.7,6587],[58.2,6665],[58.2,6749],[58.3,6833],[62.4,6920],[62.4,6999],[62.4,7086],[62.4,7165],[62.4,7249],[62.4,7332],[62.4,7416],[62.4,7499],[62.4,7582],[62.4,7665],[62.4,7749],[62.4,7832],[62.4,7916],[62.4,8003],[62.4,8082],[62.4,8165],[62.4,8249],[62.4,8332],[62.4,8419],[62.4,8499],[62.4,8582],[62.4,8665],[62.4,8749],[62.9,8836],[63,8915],[63,8999],[63,9082],[63,9165],[63,9249]]",387.1585,390.2583,64.49487555,0.7202,"[{""rating"":64.49487554904832,""responseTime"":0.7201999998092674}]",space,2.5682,,390.2585,Not at all,0,390.2616,,,[],,0,12,12,12,1,audio/Narrative8Situation3.wav,audio/Narrative7Situation3.wav,audio/Narrative6Situation3.wav,audio/Narrative5Situation3.wav,4,8,5,3,,,,,,,,,,,,,,,,,,,,,,,,,,,,,,,,,,,,,,,
,,,,,67203bff74dea717e8b9e1ea,2025-07-07_20h57.33.703,group3.4_multiperson,2023.2.2,Win32,60.24096386,686c2ebf0248f13bef9af11f,686c7afb95ccf98822a22973,,,,,,,,,,,,,,,,,,,,,,,,,,,,,390.2619,1,audio/Narrative7Situation4.wav,393.2744,,393.2744,405.0117,"[[64.2,3587],[64.2,3666],[64.2,3749],[64.2,3832],[64.2,3916],[64.2,3999],[64.2,4083],[64.2,4166],[64.2,4249],[64.2,4332],[64.2,4420],[64.2,4499],[64.2,4582],[64.2,4666],[64.2,4749],[64.2,4833],[64.2,4920],[64.2,4999],[64.2,5083],[64.2,5170],[64.2,5249],[64.2,5332],[64.2,5416],[64.2,5499],[64.2,5582],[64.2,5666],[64.2,5749],[64.2,5836],[64.2,5916],[64.2,5999],[64.2,6082],[64.2,6166],[64.2,6249],[64.2,6333],[64.2,6416],[64.2,6499],[64.2,6582],[64.2,6666],[64.2,6749],[64.2,6832],[64.2,6916],[64.2,6999],[64.2,7082],[64.2,7166],[64.2,7249],[64.2,7332],[64.2,7416],[64.2,7499],[64.2,7586],[64.2,7665],[64.2,7749],[64.2,7832],[64.2,7916],[64.2,7999],[64.2,8082],[64.2,8165],[64.2,8249],[64.2,8332],[64.2,8415],[64.2,8499],[64.2,8582],[64.2,8666],[64.2,8749],[64.2,8832],[64.2,8916],[64.2,8999],[64.2,9082],[64.2,9166],[64.2,9249],[64.2,9332],[64.2,9416],[64.2,9499],[64.2,9582],[64.2,9666],[64.2,9749],[64.2,9833],[64.2,9916],[64.2,9999],[64.2,10082],[64.2,10166],[64.2,10249],[64.2,10332],[64.2,10420],[64.2,10499],[64.2,10582],[64.2,10665],[64.2,10749],[64.2,10832],[50.9,10920],[40,10999],[35.5,11087],[27.5,11170],[25.3,11253],[25.3,11332],[25.3,11415],[22.6,11503],[22.6,11582],[21.3,11670]]",405.0117,407.2111,11.93265007,1.0324,"[{""rating"":18.521229868228406,""responseTime"":0.2027999999523331},{""rating"":11.93265007320644,""responseTime"":1.0323999998569775}]",space,1.6399,,407.2112,Definitely yes,100,407.2135,,,[],,0,13,13,13,1,audio/Narrative8Situation4.wav,audio/Narrative7Situation4.wav,audio/Narrative6Situation4.wav,audio/Narrative5Situation4.wav,3,3,2,1,,,,,,,,,,,,,,,,,,,,,,,,,,,,,,,,,,,,,,,
,,,,,67203bff74dea717e8b9e1ea,2025-07-07_20h57.33.703,group3.4_multiperson,2023.2.2,Win32,60.24096386,686c2ebf0248f13bef9af11f,686c7afb95ccf98822a22973,,,,,,,,,,,,,,,,,,,,,,,,,,,,,407.2136,1,audio/Narrative7Situation5.wav,412.2233,,412.2233,420.7107,"[[999,0],[999,83],[999,166],[999,249],[999,333],[999,416],[999,499],[999,583],[999,666],[999,749],[999,833],[999,920],[999,999],[999,1083],[999,1166],[999,1249],[999,1333],[999,1416],[999,1499],[999,1583],[999,1666],[999,1749],[999,1837],[999,1916],[999,1999],[999,2083],[999,2166],[999,2249],[999,2333],[999,2418],[999,2499],[999,2583],[999,2666],[999,2749],[999,2833],[999,2916],[999,2999],[999,3083],[999,3166],[999,3249],[999,3333],[999,3416],[999,3499],[999,3582],[999,3666],[999,3753],[999,3832],[999,3920],[999,4003],[66.1,4103],[65.7,4183],[56.7,4287],[56.7,4366],[54.8,4454],[52.9,4532],[52.9,4616],[52.9,4699],[52.9,4782],[52.9,4866],[52.9,4949],[52.9,5032],[52.9,5116],[52.9,5199],[52.9,5283],[52.9,5370],[52.9,5449],[52.9,5532],[52.9,5616],[52.9,5699],[52.9,5782],[52.9,5866],[52.9,5949],[52.9,6032],[52.9,6116],[52.9,6199],[52.9,6282],[52.9,6366],[52.9,6449],[52.9,6533],[52.9,6616],[52.9,6699],[52.9,6782],[52.9,6866],[52.9,6949],[52.9,7032],[52.9,7116],[52.9,7199],[52.9,7282],[52.9,7366],[52.9,7449],[52.9,7532],[52.9,7616],[52.9,7699],[52.9,7782],[52.9,7866],[52.9,7949],[52.9,8032],[50,8120],[50,8199],[50,8282],[48.7,8370],[46,8453]]",420.7108,423.9894,31.99121523,2.6176,"[{""rating"":26.57393850658858,""responseTime"":0.8517000000476855},{""rating"":31.99121522693997,""responseTime"":2.6175999999046553}]",space,2.738,,423.9896,Definitely yes,100,423.9919,,,[],,0,14,14,14,1,audio/Narrative8Situation5.wav,audio/Narrative7Situation5.wav,audio/Narrative6Situation5.wav,audio/Narrative5Situation5.wav,2,5,2,5,,,,,,,,,,,,,,,,,,,,,,,,,,,,,,,,,,,,,,,
,,,,,67203bff74dea717e8b9e1ea,2025-07-07_20h57.33.703,group3.4_multiperson,2023.2.2,Win32,60.24096386,686c2ebf0248f13bef9af11f,686c7afb95ccf98822a22973,,,,,,,,,,,,,,,,,,,,,,,,,,,,,423.9922,1,audio/Narrative7Situation6.wav,427.0059,,427.006,437.0055,"[[34,1086],[34,1166],[34,1253],[34,1332],[34,1416],[34,1499],[34,1582],[34,1666],[34,1749],[34,1832],[34,1916],[34,1999],[34,2082],[34,2169],[34,2249],[34,2332],[34,2418],[34,2499],[34,2582],[34,2665],[34,2749],[34,2832],[34,2915],[34,3003],[34,3082],[34,3165],[34,3249],[34.3,3332],[34.3,3415],[34.3,3499],[34.3,3582],[34.3,3665],[34.3,3749],[34.3,3832],[34.3,3916],[34.3,3999],[34.3,4082],[34.3,4165],[34.3,4249],[34.3,4332],[34.3,4415],[34.3,4499],[34.3,4582],[34.3,4666],[34.3,4749],[34.3,4832],[34.3,4915],[34.3,5003],[34.3,5082],[34.3,5165],[34.3,5249],[34.3,5332],[34.3,5415],[34.3,5499],[34.3,5582],[34.3,5665],[34.3,5749],[34.3,5832],[34.3,5915],[34.3,5999],[34.3,6082],[34.3,6165],[34.3,6249],[34.3,6332],[34.3,6415],[34.3,6499],[34.3,6582],[34.3,6665],[34.3,6749],[34.3,6832],[34.3,6915],[34.3,6999],[34.3,7082],[34.3,7165],[34.3,7249],[34.3,7332],[34.3,7415],[34.3,7498],[34.3,7582],[34.3,7665],[34.3,7749],[34.3,7832],[34.3,7915],[34.3,7999],[34.3,8082],[34.3,8165],[34.3,8249],[34.3,8332],[34.3,8415],[34.3,8499],[34.3,8582],[34.3,8665],[34.3,8749],[34.3,8832],[34.3,8915],[34.3,8999],[34.3,9082],[34.3,9165],[34.3,9249],[34.3,9332],[37.7,9420],[59.7,9501],[64.6,9586],[73,9669],[74.3,9752],[79.4,9836],[84.4,9919],[84.6,9999]]",437.0057,438.155,92.60614934,0.6308,"[{""rating"":92.60614934114201,""responseTime"":0.6307999999523304}]",space,0.6121,,438.1551,Partially,50,438.1585,,,[],,0,15,15,15,1,audio/Narrative8Situation6.wav,audio/Narrative7Situation6.wav,audio/Narrative6Situation6.wav,audio/Narrative5Situation6.wav,2,3,2,3,,,,,,,,,,,,,,,,,,,,,,,,,,,,,,,,,,,,,,,
,,,,,67203bff74dea717e8b9e1ea,2025-07-07_20h57.33.703,group3.4_multiperson,2023.2.2,Win32,60.24096386,686c2ebf0248f13bef9af11f,686c7afb95ccf98822a22973,,,,,,,,,,,,,,,,,,,,,,,,,,,,,438.1587,1,audio/Narrative7Situation7.wav,443.1715,,443.1715,460.3706,"[[92.8,1416],[93.8,1504],[94.2,1582],[94.4,1666],[94.4,1749],[94.4,1832],[94.4,1916],[94.4,1999],[94.4,2082],[94.4,2166],[94.4,2249],[94.4,2336],[94.4,2416],[94.4,2499],[94.4,2582],[94.4,2666],[94.4,2749],[94.4,2832],[94.4,2916],[94.4,2999],[94.4,3082],[94.4,3166],[94.4,3249],[94.4,3336],[94.4,3418],[94.4,3499],[94.4,3583],[94.4,3666],[94.4,3749],[94.4,3832],[94.4,3916],[94.4,3999],[94.4,4082],[94.4,4165],[94.4,4249],[94.4,4332],[94.4,4416],[94.4,4499],[94.4,4582],[94.4,4666],[94.4,4749],[94.4,4832],[94.4,4916],[94.4,4999],[94.4,5082],[94.4,5166],[94.4,5249],[94.4,5332],[94.4,5416],[94.4,5503],[94.4,5582],[94.4,5666],[94.4,5749],[94.4,5832],[94.4,5915],[94.4,5999],[94.4,6082],[94.4,6166],[94.4,6249],[94.4,6332],[94.4,6415],[94.4,6499],[94.4,6582],[94.4,6665],[94.4,6753],[94.4,6832],[94.4,6919],[94.4,6999],[94.4,7084],[94.4,7165],[94.4,7249],[94.4,7332],[94.4,7415],[94.4,7501],[94.4,7582],[94.4,7665],[94.4,7749],[94.4,7832],[94.4,7915],[94.4,7999],[94.4,8082],[94.4,8165],[93.5,8253],[86.3,8336],[73.1,8420],[70.9,8499],[71.5,8582],[85.6,8670],[85.6,8749],[86.6,8832],[89.1,8920],[91,9003],[92.6,9086],[92.8,9165],[92.8,9249],[94.4,9336],[94.4,9415],[94.4,9502],[94.4,9582],[94.4,9665],[94.4,9749],[94.4,9832],[94.4,9915],[94.4,10001],[94.4,10082],[94.4,10165],[94.4,10249],[94.4,10332],[94.4,10415],[94.7,10499],[95.4,10586],[95.5,10665],[96,10749],[96,10832],[96,10915],[96,10998],[96.4,11086],[96.4,11165],[96.7,11249],[96.9,11332],[97,11415],[97,11498],[97,11582],[97,11665],[97,11751],[97,11836],[97,11915],[97,11999],[97,12082],[97,12165],[97,12248],[97,12332],[97,12419],[97,12498],[95.5,12586],[92.3,12669],[91.9,12748],[91.9,12832],[91.9,12915],[91.9,12998],[91.9,13082],[91.9,13165],[91.9,13248],[91.9,13332],[91.9,13415],[91.9,13498],[91.9,13582],[91.9,13665],[91.9,13749],[91.9,13832],[91.9,13915],[91.9,13998],[91.9,14082],[91.9,14165],[91.9,14248],[91.6,14332],[90.7,14415],[92.5,14498],[92.5,14582],[93.2,14669],[96.6,15098],[96.6,15181],[96.7,15269],[97,15348],[97,15436],[97.4,15515],[97.4,15598],[97.4,15685],[97.7,15765],[97.9,15848],[97.9,15931],[97.9,16015],[97.9,16098],[97.9,16181],[97.9,16265],[97.9,16348],[97.9,16432],[97.9,16515],[97.9,16598],[97.9,16681],[97.9,16765],[97,16848],[84.3,16953],[87.6,17036],[93.3,17119],[94.4,17198]]",460.3707,462.8034,98.6090776,0.8533,"[{""rating"":98.6090775988287,""responseTime"":0.8533000001906998}]",space,1.8974,,462.8035,Not at all,0,462.8065,,,[],,0,16,16,16,1,audio/Narrative8Situation7.wav,audio/Narrative7Situation7.wav,audio/Narrative6Situation7.wav,audio/Narrative5Situation7.wav,3,5,5,4,,,,,,,,,,,,,,,,,,,,,,,,,,,,,,,,,,,,,,,
,,,,,67203bff74dea717e8b9e1ea,2025-07-07_20h57.33.703,group3.4_multiperson,2023.2.2,Win32,60.24096386,686c2ebf0248f13bef9af11f,686c7afb95ccf98822a22973,,,,,,,,,,,,,,,,,,,,,,,,,,,,,462.8068,1,audio/Narrative7Situation8.wav,464.8199,,464.8199,474.8364,"[[999,0],[999,83],[999,166],[999,250],[999,337],[999,416],[999,500],[999,583],[999,666],[999,750],[999,833],[999,920],[999,999],[999,1083],[999,1166],[999,1250],[999,1333],[999,1416],[999,1499],[999,1583],[999,1666],[999,1750],[999,1833],[999,1916],[999,1999],[999,2083],[999,2166],[999,2253],[999,2333],[999,2416],[999,2499],[999,2583],[999,2666],[999,2749],[999,2833],[999,2916],[999,2999],[999,3083],[999,3166],[999,3249],[999,3333],[999,3416],[999,3499],[999,3583],[999,3666],[999,3750],[999,3833],[999,3916],[999,4000],[999,4083],[999,4166],[999,4249],[999,4333],[999,4416],[999,4499],[999,4583],[999,4666],[999,4749],[999,4833],[999,4916],[999,4999],[999,5083],[999,5166],[999,5249],[999,5332],[999,5416],[999,5500],[999,5587],[999,5670],[999,5753],[66.5,5836],[67,5916],[67,5999],[67,6082],[67,6166],[67,6249],[67,6332],[67,6416],[67,6499],[67,6582],[67,6666],[67,6749],[64.6,6833],[61,6920],[57.3,7003],[52.2,7083],[50.7,7170],[50.6,7249],[50.6,7332],[51.9,7420],[55.6,7502],[55.7,7582],[55.7,7666],[55.7,7749],[55.7,7832],[55.7,7916],[55.7,8003],[55.7,8082],[55.7,8166],[56.1,8249],[56.7,8336],[56.7,8416],[56.7,8499],[56.7,8582],[56.7,8666],[57.2,8753],[57.3,8832],[57.3,8916],[57.3,8999],[57.3,9082],[57.3,9166],[57.3,9249],[57.3,9332],[57.3,9415],[57.3,9503],[57.3,9582],[57.3,9669],[57.3,9749],[57.3,9832],[57.3,9916],[57.3,9999]]",474.8365,480.0023,77.81844802,4.6642,"[{""rating"":74.74377745241581,""responseTime"":1.459600000143098},{""rating"":77.81844802342606,""responseTime"":4.6642000000476855}]",space,4.6102,,480.0023,Partially,50,480.0049,,,[],,0,17,17,17,1,audio/Narrative8Situation8.wav,audio/Narrative7Situation8.wav,audio/Narrative6Situation8.wav,audio/Narrative5Situation8.wav,3,2,5,3,,,,,,,,,,,,,,,,,,,,,,,,,,,,,,,,,,,,,,,
,,,,,67203bff74dea717e8b9e1ea,2025-07-07_20h57.33.703,group3.4_multiperson,2023.2.2,Win32,60.24096386,686c2ebf0248f13bef9af11f,686c7afb95ccf98822a22973,,,,,,,,,,,,,,,,,,,,,,,,,,,,,480.0052,1,audio/Narrative7Situation9.wav,482.0191,,482.0193,490.6562,"[[999,0],[999,82],[999,166],[999,249],[999,332],[999,416],[999,499],[999,582],[999,666],[999,749],[999,832],[999,916],[999,999],[999,1082],[999,1165],[999,1249],[999,1332],[999,1416],[999,1499],[999,1582],[999,1669],[999,1749],[999,1832],[999,1916],[999,1999],[999,2082],[999,2166],[999,2249],[999,2332],[999,2416],[999,2499],[999,2582],[999,2665],[999,2749],[999,2832],[999,2915],[999,2999],[999,3082],[999,3166],[999,3249],[999,3332],[999,3416],[999,3499],[999,3582],[999,3666],[999,3749],[999,3832],[999,3915],[999,3999],[999,4082],[999,4166],[999,4249],[999,4332],[999,4416],[999,4503],[999,4582],[999,4665],[999,4749],[999,4832],[999,4915],[999,4999],[999,5082],[999,5165],[999,5249],[999,5332],[999,5415],[999,5498],[999,5582],[999,5665],[999,5753],[999,5836],[999,5915],[95.1,5999],[95.1,6082],[95.2,6169],[95.2,6249],[98,6336],[98.5,6419],[98.5,6498],[98.5,6582],[98.5,6665],[97.9,6753],[97.9,6832],[97.9,6915],[97.9,6999],[97.9,7082],[97.9,7165],[97.9,7249],[97.9,7332],[97.9,7415],[97.9,7499],[97.9,7582],[97.9,7665],[97.9,7749],[97.9,7832],[97.9,7915],[97.9,7998],[97.9,8082],[97.9,8165],[97.9,8249],[97.9,8334],[97.9,8415],[99.2,8503],[99.8,8586]]",490.6563,492.3184,99.34114202,0.8841,"[{""rating"":99.3411420204978,""responseTime"":0.884099999904663}]",space,1.1238,,492.3184,Not at all,0,499.9344,0,5.3106,"[{""rating"":2.1229868228404114,""responseTime"":4.405900000095357},{""rating"":0,""responseTime"":5.310599999904639}]",space,0,18,18,18,1,audio/Narrative8Situation9.wav,audio/Narrative7Situation9.wav,audio/Narrative6Situation9.wav,audio/Narrative5Situation9.wav,3,2,4,3,,,7.0442,,,,,,,,,,,,,,,,,,,,,,,,,,,,,,,,,,,,
,,,,,67203bff74dea717e8b9e1ea,2025-07-07_20h57.33.703,group3.4_multiperson,2023.2.2,Win32,60.24096386,686c2ebf0248f13bef9af11f,686c7afb95ccf98822a22973,,,,,,,,,,,,,,,,,,,,,,,,,,,511.4844,514.0669,514.0801,2,audio/Narrative13Situation2.wav,514.0802,,514.0802,543.8321,"[[999,0],[999,69],[999,153],[999,236],[999,319],[999,403],[999,486],[999,573],[999,657],[999,753],[999,836],[999,919],[999,1007],[63.2,1423],[63.3,1503],[62.9,1590],[56.9,1674],[54.1,1756],[51.5,1857],[50.6,1936],[50.6,2019],[50.6,2103],[50.6,2186],[50.6,2269],[50.6,2353],[50.6,2436],[50.6,2519],[50.6,2602],[50.6,2686],[9.4,3019],[8.9,3105],[8.9,3188],[8.9,3269],[8.9,3353],[8.9,3436],[15.4,3519],[26.3,3607],[26.3,3686],[26.1,3774],[26,3853],[26,3936],[25.7,4019],[25.7,4102],[23.1,4186],[18.8,4273],[19.8,4357],[23.4,4440],[25.3,4524],[25.3,4602],[25.3,4686],[25.3,4769],[25.3,4852],[25.3,4940],[16.6,5024],[16.3,5102],[16.3,5186],[16.3,5269],[16.3,5352],[16.3,5436],[16.3,5519],[16.3,5602],[16.3,5686],[16.3,5769],[16.3,5852],[16.3,5939],[16.3,6019],[16.3,6102],[16.3,6186],[16.3,6269],[16.3,6352],[16.3,6436],[16.3,6520],[16.3,6602],[16.3,6686],[16.3,6769],[16.3,6852],[16.3,6936],[16.3,7019],[16.3,7102],[16.3,7186],[16.3,7271],[16.3,7352],[16.3,7436],[16.3,7519],[16.3,7602],[16.3,7686],[16.3,7769],[16.3,7852],[16.3,7936],[16.3,8023],[16.3,8102],[16.3,8186],[16.3,8269],[16.3,8352],[16.3,8436],[16.3,8519],[16.3,8602],[16.3,8686],[16.3,8769],[40,8857],[46.8,8938],[46.9,9019],[46.9,9102],[46.9,9186],[50.9,9273],[51.3,9356],[51.3,9435],[51.3,9519],[51.3,9602],[51.3,9685],[51.3,9769],[51.3,9852],[51.3,9936],[51.3,10019],[51.3,10102],[51.3,10186],[52.3,10273],[52.6,10352],[52.8,10436],[55,10523],[56.9,10602],[56.9,10685],[56.9,10769],[56.9,10856],[56.9,10936],[56.9,11019],[56.9,11102],[56.9,11185],[56.9,11269],[56.9,11352],[56.9,11436],[56.9,11519],[56.9,11602],[59.8,11690],[60.4,11769],[60.4,11852],[60.4,11935],[60.4,12019],[64.5,12106],[65.1,12185],[65.1,12269],[65.1,12352],[65.1,12435],[65.1,12523],[65.1,12602],[65.1,12685],[65.1,12769],[65.1,12852],[65.1,12935],[65.1,13019],[65.1,13102],[65.1,13186],[65.1,13269],[65.1,13352],[65.1,13435],[65.1,13519],[65.1,13602],[65.1,13685],[65.1,13769],[65.1,13852],[65.1,13935],[65.1,14019],[65.1,14102],[65.1,14185],[65.1,14269],[65.1,14352],[65.1,14435],[65.1,14519],[65.1,14602],[65.1,14685],[65.1,14768],[65.1,14852],[65.1,14935],[65.1,15019],[65.1,15102],[65.1,15185],[65.1,15269],[65.1,15352],[65.1,15435],[65.1,15519],[65.1,15602],[65.1,15685],[65.1,15769],[65.1,15852],[65.1,15939],[65.1,16018],[65.1,16102],[65.1,16185],[65.1,16269],[65.1,16352],[65.1,16439],[65.1,16518],[65.1,16602],[65.1,16685],[65.1,16768],[65.1,16852],[65.1,16935],[65.1,17019],[65.1,17102],[65.1,17185],[65.1,17269],[65.1,17352],[65.1,17435],[65.1,17518],[65.1,17602],[65.1,17689],[65.1,17768],[65.1,17852],[65.1,17935],[65.1,18018],[65.1,18101],[65.1,18185],[65.1,18268],[65.1,18352],[65.1,18435],[65.1,18518],[65.1,18602],[65.1,18689],[65.1,18769],[65.1,18852],[65.1,18935],[65.1,19019],[65.1,19102],[65.1,19185],[65.1,19268],[65.1,19351],[65.1,19435],[65.1,19518],[65.1,19601],[65.1,19689],[65.1,19768],[72.1,19856],[77.8,19935],[79.7,20018],[79.7,20102],[79.7,20185],[79.7,20268],[77.2,20356],[77.1,20435],[77.1,20518],[77.1,20601],[77.1,20685],[77.1,20768],[77.1,20851],[77.1,20939],[76.9,21022],[76.9,21101],[76.9,21185],[75.5,21269],[73.3,21356],[71.7,21435],[71.2,21518],[69.3,21601],[69.3,21685],[69.3,21768],[69.3,21851],[69.2,21935],[68.4,22023],[67,22106],[65.7,22189],[65.7,22268],[65.7,22351],[65.7,22435],[65.7,22518],[65.7,22604],[65.7,22685],[65.7,22768],[65.7,22851],[65.7,22935],[65.5,23019],[65.4,23101],[65.4,23185],[65.4,23268],[65.4,23351],[65.4,23435],[65.4,23518],[65.4,23601],[65.4,23685],[65.4,23768],[65.4,23851],[65.4,23935],[65.4,24018],[65.4,24101],[65.4,24189],[65.4,24268],[65.4,24351],[65.4,24439],[64.9,24518],[64.9,24601],[62.7,24689],[51.8,24772],[51.8,24851],[51.8,24934],[51.8,25018],[51.8,25105],[51.8,25185],[51.8,25268],[51.8,25351],[51.8,25435],[51.8,25518],[51.8,25601],[51.8,25685],[51.8,25768],[51.8,25851],[51.8,25935],[51.8,26018],[51.8,26101],[51.8,26184],[51.8,26268],[51.8,26355],[51.8,26435],[51.8,26518],[51.8,26601],[51.8,26688],[51.8,26768],[51.6,26855],[51.5,26935],[51.5,27018],[51.5,27101],[51.5,27184],[50.7,27270],[50.4,27355],[50.3,27434],[50.1,27518],[50,27601],[50,27684],[50,27768],[50,27851],[50,27934],[50,28018],[52.2,28106],[54.1,28189],[54.4,28268],[54.4,28351],[54.4,28434],[54.4,28518],[54.4,28601],[54.4,28684],[54.4,28768],[54.8,28855],[55,28934],[55,29018],[55,29105],[55.3,29184],[55.4,29268],[55.4,29351],[55.4,29435],[55.4,29518],[55.4,29601],[55.4,29684]]",543.8323,543.8347,,,[],,,,543.8347,Not at all,0,543.836,,,[],,0,0,0,0,1,audio/Narrative13Situation2.wav,audio/Narrative13Situation2.wav,audio/Narrative13Situation2.wav,audio/Narrative13Situation2.wav,2,2,2,2,,,,,499.9356,511.4841,space,11.0163,,,,,,,,,,,,,,,,,,,,,,,,,,,,,,,
,,,,,67203bff74dea717e8b9e1ea,2025-07-07_20h57.33.703,group3.4_multiperson,2023.2.2,Win32,60.24096386,686c2ebf0248f13bef9af11f,686c7afb95ccf98822a22973,,,,,,,,,,,,,,,,,,,,,,,,,,,,,543.8363,2,audio/Narrative6Situation1.wav,545.8483,,545.8483,572.4468,"[[57.8,1250],[57.8,1333],[57.8,1416],[57.8,1503],[57.8,1583],[57.8,1666],[57.8,1749],[57.8,1833],[57.8,1916],[57.8,1999],[57.8,2082],[57.8,2166],[57.8,2249],[57.8,2333],[57.8,2416],[57.8,2499],[57.8,2586],[57.8,2666],[57.8,2753],[57.8,2833],[57.8,2916],[57.8,2999],[57.8,3083],[57.8,3169],[57.8,3249],[57.8,3332],[57.8,3416],[57.8,3499],[57.8,3582],[57.8,3666],[57.8,3749],[57.8,3833],[57.8,3916],[57.8,3999],[57.8,4083],[57.8,4166],[57.8,4249],[57.8,4333],[57.8,4420],[57.8,4500],[57.8,4583],[57.8,4666],[57.8,4749],[57.8,4835],[57.8,4916],[57.8,4999],[57.8,5082],[57.8,5166],[57.8,5249],[57.8,5332],[57.8,5416],[57.8,5499],[57.8,5582],[57.8,5666],[57.8,5749],[57.8,5832],[54,5920],[52.5,5999],[52.5,6082],[54.1,6170],[54.4,6249],[51.3,6337],[47.5,6420],[46.9,6499],[46.9,6582],[46.9,6666],[49.9,6753],[50,6832],[50,6916],[50,6999],[52.2,7086],[52.2,7165],[52.2,7249],[52.2,7335],[52.2,7416],[50.1,7499],[50.1,7582],[50.1,7666],[50.1,7749],[50.1,7832],[50.1,7916],[50.1,7999],[50.1,8086],[50.1,8165],[50,8249],[50,8332],[51.6,8420],[51.8,8499],[51.9,8582],[52.9,8670],[53.1,8749],[53.1,8832],[53.1,8915],[53.5,8999],[53.5,9082],[53.5,9165],[53.5,9249],[53.5,9332],[53.5,9415],[53.5,9499],[53.5,9582],[53.5,9669],[53.5,9749],[53.5,9832],[53.5,9915],[53.5,9999],[53.5,10082],[53.5,10165],[53.5,10249],[53.5,10332],[53.5,10415],[53.5,10501],[53.5,10582],[53.5,10665],[53.5,10749],[53.5,10832],[53.5,10915],[53.5,11003],[53.5,11082],[53.5,11165],[53.5,11249],[53.5,11332],[53.5,11415],[53.5,11499],[53.5,11582],[53.5,11665],[53.5,11753],[53.5,11832],[53.5,11918],[53.5,11999],[53.5,12086],[53.5,12165],[53.5,12249],[53.5,12336],[53.5,12415],[53.5,12499],[53.5,12582],[53.5,12665],[53.5,12752],[53.5,12836],[53.5,12915],[53.5,12999],[53.5,13082],[53.5,13165],[53.5,13248],[53.5,13332],[53.5,13418],[53.5,13498],[53.5,13582],[53.5,13665],[53.5,13749],[53.5,13836],[53.5,13915],[53.5,13999],[53.5,14082],[53.5,14165],[53.5,14249],[53.5,14334],[53.5,14415],[53.5,14499],[53.5,14582],[51.2,14670],[49.9,14748],[48.1,14836],[47.1,14915],[44.4,15003],[44.4,15082],[44.4,15165],[39.8,15253],[37.7,15336],[33.5,15419],[33.2,15498],[33.2,15582],[33,15669],[32.9,15748],[32.9,15832],[32.9,15915],[32.9,15999],[32.9,16082],[32.9,16165],[32.9,16248],[32.9,16332],[32.9,16415],[32.9,16498],[32.9,16582],[32.9,16665],[32.9,16752],[32.9,16832],[32.9,16915],[32.9,17002],[32.9,17082],[32.9,17165],[32.9,17248],[32.9,17332],[32.9,17415],[32.9,17498],[32.9,17582],[32.9,17665],[32.9,17749],[33.6,17836],[33.6,17915],[33.6,17998],[33.6,18082],[33.6,18165],[33.6,18248],[33.6,18336],[33.6,18415],[33.6,18502],[33.6,18582],[33.6,18665],[33.6,18748],[33.6,18831],[33.6,18915],[33.6,18998],[33.6,19081],[33.6,19169],[33.6,19248],[33.6,19332],[33.6,19415],[33.6,19498],[33.6,19581],[33.6,19665],[33.6,19748],[33.6,19832],[33.6,19915],[33.6,19998],[33.6,20081],[33.6,20165],[33.6,20248],[33.6,20331],[33.6,20415],[33.6,20500],[33.6,20581],[33.6,20665],[33.6,20748],[33.6,20831],[33.6,20915],[33.6,20998],[33.6,21081],[33.6,21165],[33.6,21248],[33.6,21331],[33.6,21415],[33.6,21498],[33.6,21582],[33.6,21665],[33.6,21748],[33.6,21831],[33.6,21915],[33.6,21998],[33.6,22082],[33.6,22165],[33.6,22248],[33.6,22335],[33.6,22414],[33.6,22498],[33.6,22581],[33.5,22668],[33.5,22748],[33.5,22831],[33.5,22915],[33.5,22998],[33.5,23081],[33.5,23165],[33.5,23248],[33.5,23332],[33.5,23414],[33.7,23502],[34.8,23582],[35.2,23669],[35.2,23748],[35.2,23831],[35.5,23915],[37.8,24002],[39.9,24102],[40.6,24185],[40.8,24264],[42.5,24352],[44.3,24431],[44.4,24514],[44.4,24598],[46,24685],[46.3,24764],[47.8,24852],[48.4,24935],[48.4,25015],[48.5,25098],[48.7,25185],[48.8,25264],[48.8,25348],[48.8,25431],[48.8,25515],[48.8,25602],[48.8,25681],[48.8,25764],[48.8,25848],[48.7,25935],[48.2,26015],[47.8,26098],[47.7,26181],[47.4,26264],[47.4,26351],[47.4,26431],[47.4,26514],[47.4,26598]]",572.447,574.5964,48.53587116,0.7951,"[{""rating"":48.535871156661784,""responseTime"":0.7951000001430657}]",space,1.6011,,574.5965,Definitely yes,100,574.5999,,,[],,0,1,1,1,1,audio/Narrative7Situation1.wav,audio/Narrative8Situation1.wav,audio/Narrative5Situation1.wav,audio/Narrative6Situation1.wav,2,5,5,2,,,,,,,,,,,,,,,,,,,,,,,,,,,,,,,,,,,,,,,
,,,,,67203bff74dea717e8b9e1ea,2025-07-07_20h57.33.703,group3.4_multiperson,2023.2.2,Win32,60.24096386,686c2ebf0248f13bef9af11f,686c7afb95ccf98822a22973,,,,,,,,,,,,,,,,,,,,,,,,,,,,,574.6002,2,audio/Narrative6Situation2.wav,577.6132,,577.6133,606.1283,"[[48.1,2666],[48.1,2751],[48.1,2832],[48.1,2916],[48.1,3003],[48.1,3082],[48.1,3165],[48.1,3249],[48.1,3332],[48.1,3416],[48.1,3499],[48.1,3582],[48.1,3669],[43.9,3753],[37,3849],[37,3932],[37,4015],[37,4099],[40.8,4185],[42.5,4270],[42.5,4349],[42.5,4432],[42.5,4515],[42.5,4599],[42.5,4682],[42.5,4765],[42.5,4849],[42.5,4932],[42.5,5016],[52.6,5103],[53.1,5182],[53.1,5266],[53.1,5349],[53.1,5432],[53.1,5515],[53.1,5599],[53.1,5682],[53.1,5766],[53.1,5849],[53.1,5932],[53.1,6015],[53.1,6099],[53.1,6182],[53.1,6265],[53.1,6349],[53.1,6434],[53.1,6515],[53.1,6599],[53.1,6682],[53.1,6765],[53.1,6849],[53.1,6932],[53.1,7015],[53.1,7098],[53.1,7182],[53.1,7265],[53.1,7349],[53.1,7432],[53.1,7515],[53.1,7598],[53.1,7682],[53.1,7765],[53.1,7849],[53.1,7936],[53.1,8015],[53.1,8098],[53.1,8182],[53.1,8265],[53.1,8348],[53.1,8432],[53.1,8515],[53.1,8598],[53.1,8682],[53.1,8765],[53.1,8849],[53.1,8932],[53.1,9015],[53.1,9098],[53.1,9182],[53.1,9265],[53.1,9348],[53.1,9432],[53.1,9515],[53.1,9598],[53.1,9682],[53.1,9765],[53.1,9848],[53.1,9932],[53.1,10015],[53.1,10098],[53.1,10186],[53.1,10265],[53.1,10348],[53.1,10432],[53.1,10515],[53.1,10598],[53.1,10682],[53.1,10765],[53.1,10848],[53.1,10932],[53.1,11015],[53.1,11098],[53.1,11182],[53.1,11265],[53.1,11348],[53.1,11432],[53.1,11515],[53.1,11598],[53.1,11682],[53.1,11765],[53.1,11848],[53.1,11936],[53.1,12015],[53.1,12098],[53.1,12182],[53.1,12265],[53.1,12348],[53.1,12432],[53.1,12515],[53.1,12601],[53.4,12682],[57.8,12765],[62.2,12849],[65.4,12936],[67.3,13020],[67.4,13099],[70.2,13186],[70.2,13265],[70.6,13352],[86.2,13436],[85.1,13519],[81.5,13598],[81.5,13682],[81.5,13765],[80.3,13853],[79.3,13932],[73.1,14019],[72.8,14098],[72.8,14182],[73.4,14269],[73.6,14348],[73.6,14432],[74.5,14519],[74.9,14615],[74.9,14698],[74.9,14782],[75,14869],[75.2,14948],[75.2,15032],[75.2,15115],[75.2,15198],[75.2,15282],[76.4,15365],[77.2,15486],[77.4,15565],[77.4,15648],[77.4,15732],[77.4,15815],[77.4,15898],[77.4,15982],[77.4,16065],[77.4,16148],[77.4,16232],[77.4,16315],[77.4,16398],[77.4,16481],[77.4,16565],[77.4,16648],[77.4,16735],[77.4,16815],[77.4,16898],[77.4,16981],[77.4,17065],[77.4,17148],[77.4,17231],[77.4,17315],[77.4,17398],[77.4,17481],[77.4,17569],[77.4,17648],[77.4,17731],[77.4,17815],[77.4,17898],[77.4,17985],[78,18069],[78,18148],[78,18231],[78.1,18319],[78.3,18402],[78.4,18484],[78.4,18564],[78.8,18649],[78.8,18731],[78.8,18814],[78.8,18898],[78.8,18981],[78.8,19064],[78.8,19148],[78.8,19231],[78.8,19314],[78.8,19398],[78.8,19481],[78.8,19565],[78.8,19648],[78.8,19731],[78.8,19814],[78.8,19898],[78.8,19981],[78.8,20065],[78.8,20148],[78.8,20231],[78.8,20314],[78.8,20398],[78.8,20485],[78.8,20565],[78.8,20648],[78.8,20735],[78.8,20814],[78.8,20898],[78.8,20981],[78.8,21065],[78.8,21148],[78.8,21231],[78.8,21314],[78.8,21398],[78.8,21481],[78.8,21564],[78.8,21648],[78.8,21731],[78.8,21815],[78.8,21898],[78.8,21981],[78.8,22064],[78.8,22152],[78.8,22231],[78.8,22314],[78.8,22398],[78.8,22485],[78.8,22564],[78.8,22648],[78.8,22731],[78.8,22814],[78.8,22902],[78.8,22981],[78.8,23064],[78.8,23151],[78.8,23231],[78.8,23314],[78.8,23398],[78.8,23481],[78.8,23564],[78.8,23648],[78.8,23731],[78.8,23814],[78.8,23898],[78.8,23981],[78.8,24064],[78.8,24148],[78.8,24231],[78.8,24314],[78.8,24398],[78.8,24481],[78.8,24564],[78.8,24648],[78.8,24735],[78.8,24814],[78.8,24898],[78.8,24981],[78.8,25064],[78.8,25148],[78.8,25231],[78.8,25314],[78.8,25398],[78.8,25481],[78.8,25564],[78.8,25651],[78.8,25731],[78.8,25814],[78.8,25898],[78.8,25981],[78.8,26064],[78.8,26147],[78.8,26233],[78.8,26314],[78.8,26401],[78.8,26481],[78.8,26564],[78.8,26648],[78.8,26731],[78.8,26814],[78.8,26898],[78.8,26981],[78.8,27068],[78.8,27151],[78.8,27231],[78.8,27314],[78.8,27397],[79.7,27485],[80.3,27568],[81.5,27651],[83.1,27735],[85,27818],[86.2,27902],[86.2,27981],[86.2,28064],[86.2,28147],[86.2,28231],[86.2,28314],[86.2,28398],[86.2,28480]]",606.1285,607.778,85.87115666,0.3281,"[{""rating"":85.87115666178624,""responseTime"":0.32809999990467986}]",space,1.1002,,607.7781,Definitely yes,100,607.7801,,,[],,0,2,2,2,1,audio/Narrative7Situation2.wav,audio/Narrative8Situation2.wav,audio/Narrative5Situation2.wav,audio/Narrative6Situation2.wav,3,3,3,3,,,,,,,,,,,,,,,,,,,,,,,,,,,,,,,,,,,,,,,
,,,,,67203bff74dea717e8b9e1ea,2025-07-07_20h57.33.703,group3.4_multiperson,2023.2.2,Win32,60.24096386,686c2ebf0248f13bef9af11f,686c7afb95ccf98822a22973,,,,,,,,,,,,,,,,,,,,,,,,,,,,,607.7805,2,audio/Narrative6Situation3.wav,612.7944,,612.7945,625.4266,"[[999,0],[999,86],[999,166],[999,249],[999,332],[999,416],[999,499],[999,582],[999,666],[999,749],[999,833],[999,918],[999,999],[999,1082],[999,1166],[999,1249],[999,1336],[999,1416],[999,1499],[999,1582],[999,1666],[999,1749],[999,1832],[999,1916],[999,1999],[999,2082],[999,2166],[999,2253],[999,2332],[999,2420],[999,2499],[84.7,2586],[85.3,2670],[87.3,2753],[90,2832],[89.8,2916],[89.5,3003],[89.5,3082],[89.4,3168],[89.4,3249],[89.4,3332],[89.1,3420],[88.2,3499],[88.1,3586],[88.1,3666],[88.1,3749],[87.9,3832],[87.6,3915],[87.6,3999],[87.2,4087],[86.9,4166],[86.9,4249],[86.9,4332],[86.5,4416],[81.8,4503],[67,4586],[54.1,4670],[48.5,4752],[47.5,4832],[47.5,4916],[47.5,4999],[47.5,5082],[47.5,5165],[47.5,5249],[47.5,5332],[47.5,5416],[47.5,5499],[47.5,5582],[47.5,5666],[47.5,5749],[47.5,5832],[47.5,5915],[47.5,5999],[47.5,6082],[47.5,6165],[47.5,6249],[47.5,6332],[47.5,6416],[47.5,6499],[47.5,6582],[47.5,6665],[51.2,6749],[59.4,6836],[60.4,6916],[60.7,6999],[63.5,7085],[63.6,7165],[63.6,7249],[62.4,7336],[62.4,7415],[62.4,7499],[62.4,7582],[57.3,7670],[57.2,7749],[54.7,7836],[54.7,7919],[54.5,7999],[54.4,8082],[54.4,8165],[54.4,8248],[54.4,8332],[54.4,8415],[54.4,8499],[54.4,8582],[54.4,8665],[54.4,8748],[54.4,8832],[54.4,8918],[54.4,8998],[54.4,9082],[54.4,9165],[54.4,9248],[54.4,9336],[54.4,9415],[54.4,9502],[54.4,9582],[54.4,9665],[54.4,9748],[54.4,9832],[54.4,9915],[54.4,9998],[54.4,10082],[54.4,10165],[54.4,10248],[54.4,10332],[54.4,10415],[54.4,10498],[54.4,10582],[54.4,10665],[54.4,10748],[54.4,10832],[54.4,10915],[54.4,10998],[54.4,11082],[54.4,11165],[54.4,11248],[54.4,11332],[54.4,11415],[54.4,11498],[54.4,11582],[54.4,11665],[54.4,11748],[54.4,11832],[54.4,11915],[54.4,12001],[54.4,12082],[54.4,12165],[54.4,12248],[54.4,12332],[54.4,12415],[54.4,12498],[54.4,12582]]",625.4268,627.6642,55.41727672,0.6914,"[{""rating"":55.417276720351396,""responseTime"":0.6914000000954275}]",space,1.717,,627.6642,Partially,50,627.6668,,,[],,0,3,3,3,1,audio/Narrative7Situation3.wav,audio/Narrative8Situation3.wav,audio/Narrative5Situation3.wav,audio/Narrative6Situation3.wav,8,4,3,5,,,,,,,,,,,,,,,,,,,,,,,,,,,,,,,,,,,,,,,
,,,,,67203bff74dea717e8b9e1ea,2025-07-07_20h57.33.703,group3.4_multiperson,2023.2.2,Win32,60.24096386,686c2ebf0248f13bef9af11f,686c7afb95ccf98822a22973,,,,,,,,,,,,,,,,,,,,,,,,,,,,,627.6671,2,audio/Narrative6Situation4.wav,629.6765,,629.6766,642.2923,"[[999,0],[999,83],[999,170],[999,249],[999,333],[999,416],[999,499],[999,582],[57.5,754],[58.5,837],[58.5,916],[58.5,999],[58.5,1083],[58.5,1166],[58.5,1249],[58.5,1333],[58.5,1416],[58.5,1499],[58.5,1583],[58.5,1666],[58.5,1749],[58.5,1833],[58.5,1916],[58.5,1999],[58.5,2082],[58.5,2169],[58.5,2249],[58.5,2332],[58.5,2416],[58.5,2499],[58.5,2583],[58.5,2666],[58.5,2749],[58.5,2832],[58.5,2916],[58.5,2999],[58.5,3083],[58.5,3166],[58.3,3249],[58.3,3332],[58.3,3416],[58.3,3499],[58.3,3582],[58.3,3666],[58.3,3749],[58.3,3832],[58.3,3916],[58.3,3999],[56.1,4087],[53.1,4182],[52,4265],[52,4349],[52,4432],[52,4516],[51.8,4599],[51.8,4682],[51.8,4765],[51.8,4849],[51.8,4932],[51.8,5015],[51.8,5099],[51.8,5182],[50.9,5266],[48.8,5353],[48,5437],[48,5515],[48,5599],[48.8,5686],[49,5765],[49,5849],[49,5932],[49,6015],[49,6103],[49,6182],[49,6265],[49,6349],[49,6432],[49,6515],[49,6599],[49,6682],[49,6765],[44.7,6849],[37.8,6932],[37.7,7015],[37.7,7099],[37.7,7182],[37.7,7265],[37.7,7349],[25.5,7437],[13.4,7520],[13.3,7599],[13.3,7682],[13.3,7765],[13.3,7849],[13.3,7932],[22.2,8020],[28.5,8099],[28.5,8182],[28.5,8265],[28.5,8349],[28.5,8432],[28.5,8515],[28.5,8603],[28.5,8682],[28.5,8765],[28.5,8849],[28.5,8932],[28.5,9015],[28.5,9099],[28.5,9182],[28.5,9265],[28.5,9349],[28.5,9432],[28.5,9518],[29.9,9603],[32.3,9686],[32.3,9765],[33.6,9853],[37,9936],[37,10015],[37,10099],[37,10182],[37,10265],[37,10352],[37,10432],[37,10515],[37,10599],[41.7,10682],[44,10765],[44.4,10853],[45,10932],[45.9,11015],[45.9,11099],[46,11186],[46.2,11265],[46.2,11349],[46.2,11432],[46.2,11515],[46.2,11599],[46.2,11682],[46.2,11765],[46.2,11849],[46.2,11932],[46.2,12015],[46.2,12102],[46.2,12182],[46.2,12265],[51.8,12353],[51.9,12432],[52.8,12515],[53.4,12601]]",642.2924,648.2755,53.22108346,0.8217,"[{""rating"":53.221083455344065,""responseTime"":0.8217000000477128}]",space,5.4374,,648.2757,Definitely yes,100,648.2786,,,[],,0,4,4,4,1,audio/Narrative7Situation4.wav,audio/Narrative8Situation4.wav,audio/Narrative5Situation4.wav,audio/Narrative6Situation4.wav,3,3,1,2,,,,,,,,,,,,,,,,,,,,,,,,,,,,,,,,,,,,,,,
,,,,,67203bff74dea717e8b9e1ea,2025-07-07_20h57.33.703,group3.4_multiperson,2023.2.2,Win32,60.24096386,686c2ebf0248f13bef9af11f,686c7afb95ccf98822a22973,,,,,,,,,,,,,,,,,,,,,,,,,,,,,648.2789,2,audio/Narrative6Situation5.wav,650.2917,,650.2917,658.2581,"[[999,0],[999,83],[999,166],[999,249],[999,333],[999,416],[999,500],[999,587],[999,666],[999,750],[999,837],[999,920],[999,1003],[999,1087],[999,1170],[999,1254],[999,1337],[63.5,1420],[63.8,1502],[63.8,1583],[63.8,1666],[63.8,1749],[63.8,1833],[63.8,1916],[63.8,2000],[63.8,2083],[63.5,2166],[63.5,2249],[63.5,2333],[63.5,2416],[63.5,2499],[63.5,2583],[63.3,2669],[63.2,2749],[63.2,2833],[63.2,2916],[63.2,2999],[56.6,3087],[53.8,3170],[53.8,3249],[53.8,3336],[53.8,3416],[56,3502],[56,3583],[56,3666],[56,3749],[56.3,3837],[56.4,3916],[52.5,4004],[52.2,4083],[52.2,4166],[52,4250],[51,4332],[57,4420],[58.5,4503],[61.3,4587],[61.3,4666],[61.3,4749],[63.9,4833],[68.4,4920],[69.8,5002],[69.8,5083],[69.9,5166],[69.9,5249],[69.9,5332],[70.2,5416],[73.9,5504],[74.5,5587],[74.6,5666],[74.6,5749],[74.6,5832],[74.6,5916],[74.6,5999],[74.6,6083],[74.6,6166],[74.6,6253],[74.6,6336],[74.6,6416],[74.3,6503],[74,6582],[73.9,6670],[73.9,6749],[73.9,6833],[73.9,6916],[73.9,6999],[73.9,7082],[73.9,7166],[73.9,7249],[73.9,7332],[73.9,7416],[73.9,7499],[73.9,7582],[73.9,7666],[73.9,7749],[73.9,7832],[73.9,7916]]",658.2583,662.1118,100,2.4515,"[{""rating"":96.70571010248902,""responseTime"":1.4602000000477346},{""rating"":100,""responseTime"":2.45150000000001}]",space,3.313,,662.1118,Partially,50,662.114,,,[],,0,5,5,5,1,audio/Narrative7Situation5.wav,audio/Narrative8Situation5.wav,audio/Narrative5Situation5.wav,audio/Narrative6Situation5.wav,5,2,5,2,,,,,,,,,,,,,,,,,,,,,,,,,,,,,,,,,,,,,,,
,,,,,67203bff74dea717e8b9e1ea,2025-07-07_20h57.33.703,group3.4_multiperson,2023.2.2,Win32,60.24096386,686c2ebf0248f13bef9af11f,686c7afb95ccf98822a22973,,,,,,,,,,,,,,,,,,,,,,,,,,,,,662.1144,2,audio/Narrative6Situation6.wav,664.1242,,664.1242,675.2072,"[[79.3,1254],[94.5,6037],[94.5,6116],[94.5,6199],[93.3,6287],[93.2,6366],[92,6466],[92,6553],[92,6632],[92,6716],[92,6799],[92,6886],[92,6966],[92,7049],[92,7132],[92,7216],[92,7299],[92,7382],[92,7466],[92,7549],[92,7632],[92,7716],[92,7799],[92,7882],[92,7966],[92,8049],[92,8133],[92,8218],[92,8299],[91.9,8386],[91.1,8470],[91.1,8549],[90.7,8637],[90.6,8716],[90.6,8799],[90.6,8882],[92.8,8966],[94.4,9053],[94.4,9132],[94.4,9216],[94.4,9299],[94.4,9382],[94.4,9466],[94.4,9549],[94.4,9632],[94.4,9716],[94.4,9799],[94.4,9882],[94.4,9966],[94.4,10049],[94.4,10132],[94.4,10216],[94.4,10299],[94.4,10382],[94.4,10466],[94.4,10549],[94.4,10636],[94.4,10716],[98,10803],[98.6,10882],[98.6,10965],[98.6,11049]]",675.2074,681.8442,98.90190337,0.5491,"[{""rating"":98.90190336749633,""responseTime"":0.5491000001429711}]",space,6.0927,,681.8442,Not at all,0,681.8465,,,[],,0,6,6,6,1,audio/Narrative7Situation6.wav,audio/Narrative8Situation6.wav,audio/Narrative5Situation6.wav,audio/Narrative6Situation6.wav,3,2,3,2,,,,,,,,,,,,,,,,,,,,,,,,,,,,,,,,,,,,,,,
,,,,,67203bff74dea717e8b9e1ea,2025-07-07_20h57.33.703,group3.4_multiperson,2023.2.2,Win32,60.24096386,686c2ebf0248f13bef9af11f,686c7afb95ccf98822a22973,,,,,,,,,,,,,,,,,,,,,,,,,,,,,681.8468,2,audio/Narrative6Situation7.wav,686.8561,,686.8562,711.7046,"[[999,0],[999,83],[999,166],[999,249],[999,333],[999,416],[999,500],[999,587],[999,668],[999,749],[999,837],[999,920],[999,1003],[999,1083],[999,1166],[999,1249],[999,1337],[999,1420],[50.4,1503],[53.7,1587],[56.4,1666],[56.4,1751],[55.9,1837],[55.6,1920],[55.6,2000],[55.6,2082],[55.6,2166],[57.6,2254],[59.7,2332],[59.7,2416],[59.7,2499],[59.7,2582],[59.7,2666],[59.7,2749],[59.7,2832],[59.7,2916],[59.7,2999],[59.7,3082],[59.7,3166],[59.4,3253],[59.4,3332],[59.2,3416],[59.2,3499],[59.2,3586],[59.2,3666],[59.2,3753],[59.2,3832],[59.2,3916],[59.2,3999],[59.2,4082],[59.2,4166],[59.5,4249],[62.2,4337],[62.7,4420],[62.9,4499],[63,4599],[62,4687],[62,4766],[61.6,4870],[61.4,4952],[61.6,5033],[61.6,5116],[61.6,5203],[61.6,5283],[61.7,5370],[61.7,5449],[61.7,5533],[61.7,5616],[61.7,5699],[61.7,5782],[61.7,5866],[61.7,5949],[61.7,6033],[61.7,6116],[61.7,6199],[61.7,6282],[61.7,6366],[61.7,6449],[61.7,6536],[61.7,6615],[61.7,6699],[61.7,6782],[49.9,7203],[49,7699],[48.8,7782],[48.8,7865],[51.6,7953],[51.9,8032],[52.6,8116],[52.9,8199],[52.9,8282],[52.9,8366],[52.9,8451],[52.9,8532],[52.9,8616],[53.1,8703],[53.1,8782],[53.1,8865],[53.1,8949],[53.1,9032],[53.1,9115],[53.1,9199],[52.8,9286],[52.8,9365],[52.8,9449],[54,9537],[56.6,9620],[56.6,9699],[56.6,9782],[56.6,9865],[56.6,9953],[56.6,10032],[56.6,10115],[56.6,10199],[56.7,10282],[56.7,10365],[58.3,10451],[60,10532],[60,10615],[60,10699],[60,10782],[60,10865],[60,10949],[60,11032],[60,11115],[60,11199],[60,11282],[60,11365],[60,11449],[60,11532],[60,11615],[60,11699],[60,11782],[60,11865],[60,11949],[60,12032],[60,12115],[60,12203],[60,12282],[60,12365],[60,12448],[60,12532],[60,12619],[60,12702],[60,12782],[60,12865],[60,12949],[60,13032],[60,13115],[60,13199],[60,13282],[60,13365],[60,13448],[60,13532],[60,13615],[60,13698],[60,13782],[60,13865],[60,13949],[60,14032],[60,14115],[60,14198],[60,14282],[60,14365],[60,14448],[60,14532],[60,14615],[60,14698],[60,14782],[60,14865],[60,14949],[60,15032],[60,15119],[60,15198],[60,15282],[60,15365],[60,15448],[60,15534],[60,15615],[60,15698],[60,15782],[60,15865],[60,15949],[60,16032],[60,16115],[60,16198],[60,16282],[60,16365],[60,16449],[60,16532],[60,16615],[60,16699],[60,16782],[60,16865],[63.3,16953],[63.8,17032],[63.8,17115],[63.8,17198],[63.8,17282],[69.8,17369],[70.4,17448],[70.4,17532],[70.4,17615],[70.4,17699],[70.4,17782],[70.4,17865],[70.4,17948],[70.4,18032],[70.4,18115],[70.4,18198],[70.4,18282],[70.4,18365],[70.4,18448],[70.4,18532],[70.4,18615],[70.4,18698],[70.4,18782],[70.4,18869],[70.4,18948],[70.4,19032],[70.4,19115],[70.4,19198],[70.4,19282],[70.4,19365],[70.4,19448],[70.4,19532],[70.4,19615],[70.4,19698],[70.4,19782],[70.4,19865],[70.4,19948],[70.4,20031],[70.4,20115],[69.8,20198],[65.2,20285],[65.1,20365],[65.1,20448],[65.1,20531],[65.1,20615],[65.1,20698],[65.1,20781],[65.1,20865],[65.1,20948],[65.1,21032],[65.1,21115],[65.1,21198],[65.1,21281],[65.1,21365],[65.1,21448],[65.1,21531],[65.1,21615],[65.1,21698],[65.1,21781],[65.1,21865],[65.1,21948],[65.1,22032],[65.1,22115],[65.1,22198],[65.1,22281],[65.1,22365],[65.1,22452],[71.2,22536],[72.1,22619],[72.1,22698],[72.1,22781],[67.1,22869],[65.8,22948],[65.8,23031],[65.8,23115],[65.8,23198],[65.8,23281],[65.8,23365],[66.8,23452],[68.3,23536],[68.3,23615],[68.3,23698],[68.3,23781],[68.4,23865],[69,23948],[69,24031],[69,24115],[69,24198],[69,24281],[69,24365],[69,24448],[69,24531],[69,24615],[69,24698],[69,24781]]",711.7047,713.5711,69.6193265,0.7571,"[{""rating"":69.61932650073206,""responseTime"":0.7571000001430548}]",space,1.3361,,713.5712,Definitely yes,100,713.574,,,[],,0,7,7,7,1,audio/Narrative7Situation7.wav,audio/Narrative8Situation7.wav,audio/Narrative5Situation7.wav,audio/Narrative6Situation7.wav,5,3,4,5,,,,,,,,,,,,,,,,,,,,,,,,,,,,,,,,,,,,,,,
,,,,,67203bff74dea717e8b9e1ea,2025-07-07_20h57.33.703,group3.4_multiperson,2023.2.2,Win32,60.24096386,686c2ebf0248f13bef9af11f,686c7afb95ccf98822a22973,,,,,,,,,,,,,,,,,,,,,,,,,,,,,713.5742,2,audio/Narrative6Situation8.wav,718.5879,,718.588,725.4539,"[[67.9,1166],[61.9,1253],[62.6,1337],[63.9,1420],[64.2,1499],[64.2,1582],[64.2,1666],[64.2,1749],[64.2,1832],[64.2,1916],[64.2,1999],[64.2,2082],[64.2,2165],[64.2,2249],[64.2,2333],[64.2,2415],[64.2,2503],[64.2,2582],[50.7,2668],[47.1,2749],[47.1,2832],[49.9,2920],[51.5,2999],[51.5,3082],[51.5,3165],[51.5,3249],[51.5,3332],[51.5,3415],[49.4,3503],[49.1,3586],[49,3665],[49,3749],[49,3832],[47.2,3916],[16.9,4003],[16.5,4082],[16.5,4165],[16.5,4249],[1.8,4336],[0.4,4415],[0.4,4499],[0.1,4586],[0.1,4665],[0.1,4749],[0.1,4832],[0.1,4915]]",725.4541,729.6034,0,2.5206,"[{""rating"":2.415812591508054,""responseTime"":1.787700000047721},{""rating"":0,""responseTime"":2.5206000001430766}]",space,3.6103,,729.6035,Not at all,0,729.6066,,,[],,0,8,8,8,1,audio/Narrative7Situation8.wav,audio/Narrative8Situation8.wav,audio/Narrative5Situation8.wav,audio/Narrative6Situation8.wav,2,3,3,5,,,,,,,,,,,,,,,,,,,,,,,,,,,,,,,,,,,,,,,
,,,,,67203bff74dea717e8b9e1ea,2025-07-07_20h57.33.703,group3.4_multiperson,2023.2.2,Win32,60.24096386,686c2ebf0248f13bef9af11f,686c7afb95ccf98822a22973,,,,,,,,,,,,,,,,,,,,,,,,,,,,,729.607,2,audio/Narrative6Situation9.wav,733.6199,,733.62,743.5693,"[[999,0],[999,83],[999,166],[999,249],[999,333],[999,416],[999,499],[999,583],[999,670],[999,749],[999,833],[999,916],[999,1000],[999,1083],[999,1166],[999,1250],[999,1332],[999,1416],[999,1499],[999,1582],[999,1666],[999,1749],[999,1833],[999,1916],[999,1999],[999,2082],[999,2166],[999,2249],[999,2332],[999,2416],[999,2499],[999,2582],[999,2666],[999,2749],[999,2832],[999,2916],[999,2999],[999,3082],[999,3166],[999,3249],[999,3332],[12.2,3420],[7.4,3502],[4.9,3582],[4.9,3666],[2.6,3754],[1.5,3832],[1.5,3916],[1.1,4003],[1.1,4082],[1.1,4166],[1.1,4249],[1.1,4332],[1.1,4416],[1.1,4499],[1.1,4582],[1.1,4666],[1.1,4749],[1.1,4832],[1.1,4916],[1.1,4999],[1.1,5082],[1.1,5166],[1.1,5249],[1.1,5332],[1.1,5416],[1.1,5503],[0.7,5587],[0.4,5670],[0.2,5749],[0.2,5832],[0.1,5916],[0.1,5999],[4.8,6587],[5.6,6666],[5.6,6749],[5.5,6836],[2.3,6920],[0.4,7004],[0.4,9087],[0.7,9165],[0.7,9253],[0.7,9332],[0.7,9416],[0.7,9499]]",743.5695,746.4901,0.219619327,1.3201,"[{""rating"":0.21961932650073068,""responseTime"":1.3200999999046417}]",space,2.3817,,746.4902,Not at all,0,746.4916,,,[],,0,9,9,9,1,audio/Narrative7Situation9.wav,audio/Narrative8Situation9.wav,audio/Narrative5Situation9.wav,audio/Narrative6Situation9.wav,2,3,3,4,,,,,,,,,,,,,,,,,,,,,,,,,,,,,,,,,,,,,,,
,,,,,67203bff74dea717e8b9e1ea,2025-07-07_20h57.33.703,group3.4_multiperson,2023.2.2,Win32,60.24096386,686c2ebf0248f13bef9af11f,686c7afb95ccf98822a22973,,,,,,,,,,,,,,,,,,,,,,,,,,,,,746.4918,2,audio/Narrative5Situation1.wav,751.5021,,751.5021,764.8014,"[[999,0],[999,83],[999,166],[999,249],[999,333],[999,416],[999,499],[999,583],[999,666],[999,749],[999,833],[999,916],[999,999],[999,1083],[999,1166],[999,1249],[999,1333],[999,1416],[999,1499],[999,1583],[999,1666],[999,1750],[999,1833],[999,1916],[999,1999],[999,2083],[999,2166],[999,2249],[999,2333],[999,2416],[999,2499],[999,2583],[999,2666],[999,2749],[999,2833],[999,2916],[999,2999],[999,3083],[999,3166],[999,3249],[999,3333],[999,3416],[999,3499],[999,3582],[999,3666],[999,3749],[999,3833],[999,3916],[999,3999],[999,4082],[999,4166],[999,4249],[999,4333],[999,4416],[999,4499],[999,4582],[999,4666],[999,4753],[999,4832],[999,4916],[999,4999],[999,5082],[999,5166],[999,5249],[999,5333],[999,5416],[51,5504],[61.6,5587],[78,5837],[78.4,5916],[79.4,6004],[80.2,6086],[80.2,6166],[80.2,6249],[78.1,6332],[77.2,6416],[76.9,6499],[76.8,6582],[76.8,6666],[76.8,6749],[76.2,6832],[76.2,6916],[76.2,6999],[76.2,7083],[76.1,7166],[76.1,7249],[76.1,7332],[76.1,7416],[76.1,7501],[76.1,7582],[76.1,7666],[75.9,7749],[75.5,7832],[74.6,7916],[72.3,8003],[71.4,8082],[71.4,8166],[71.4,8249],[71.4,8332],[71.4,8416],[72.1,8499],[72.4,8586],[72.4,8666],[72.4,8749],[72.4,8832],[72.4,8915],[72.4,8999],[72.4,9082],[72.4,9166],[72.4,9249],[72.4,9332],[72.4,9415],[72.4,9499],[72.4,9582],[72.4,9665],[72.4,9749],[72.4,9832],[72.4,9915],[72.4,9999],[72.4,10082],[72.4,10166],[72.4,10249],[72.4,10332],[72.4,10416],[72.4,10499],[72.4,10586],[72.4,10665],[73.1,10753],[73.3,10836],[73.4,10915],[73.4,11001],[73.4,11082],[73.4,11166],[73.4,11249],[73.4,11332],[73.4,11416],[73.4,11499],[73.4,11582],[73.4,11665],[73.4,11749],[73.4,11832],[73.4,11915],[73.4,11999],[73.4,12082],[73.4,12165],[73.4,12249],[73.4,12336],[73.4,12415],[73.4,12499],[73.4,12582],[73.4,12665],[73.9,12749],[74.5,12832],[74.5,12915],[78.3,13003],[78.3,13082],[79.4,13169],[80.2,13252]]",764.8015,765.7847,80.30746706,0.4705,"[{""rating"":80.30746705710102,""responseTime"":0.47050000000001546}]",space,0.4404,,765.7847,Definitely yes,100,765.7874,,,[],,0,10,10,10,1,audio/Narrative8Situation1.wav,audio/Narrative7Situation1.wav,audio/Narrative6Situation1.wav,audio/Narrative5Situation1.wav,5,2,2,5,,,,,,,,,,,,,,,,,,,,,,,,,,,,,,,,,,,,,,,
,,,,,67203bff74dea717e8b9e1ea,2025-07-07_20h57.33.703,group3.4_multiperson,2023.2.2,Win32,60.24096386,686c2ebf0248f13bef9af11f,686c7afb95ccf98822a22973,,,,,,,,,,,,,,,,,,,,,,,,,,,,,765.7876,2,audio/Narrative5Situation2.wav,768.801,,768.801,798.2697,"[[81.8,3587],[82.1,3666],[83.2,3754],[86,3835],[86.2,3920],[86.2,4002],[87.3,4087],[87.8,4166],[90.3,4254],[90.3,4336],[91,4420],[91.1,4499],[91.1,4582],[91.1,4666],[91.1,4749],[91.1,4833],[91.1,4916],[91.1,4999],[91.1,5083],[91.1,5166],[91.1,5249],[91.1,5332],[91.1,5416],[91.1,5499],[91.1,5582],[91.1,5666],[91.1,5749],[91.1,5832],[91.1,5916],[91.1,6003],[91.1,6082],[91.1,6166],[91.1,6249],[91.1,6336],[91.1,6416],[91.1,6499],[91.1,6583],[91.1,6666],[91.1,6749],[91.1,6832],[91.1,6916],[91.1,6999],[91.1,7083],[91.1,7166],[91.1,7249],[91.1,7332],[91.1,7416],[91.1,7499],[91.1,7582],[91.1,7666],[91.1,7749],[91.1,7835],[91.1,7916],[91.1,7999],[91.1,8082],[91.1,8166],[89.8,8250],[89.8,8332],[89.8,8415],[89.8,8499],[89.4,8582],[89.4,8666],[89.4,8749],[89.4,8832],[89.5,8916],[90.1,9003],[90.3,9083],[90.4,9166],[90.4,9249],[90.4,9332],[90.4,9415],[90.4,9499],[90.4,9582],[90.4,9665],[90.4,9749],[90.4,9832],[90.4,9915],[90.4,9999],[90.4,10082],[90.4,10166],[90.4,10251],[90.4,10332],[90.4,10416],[90.4,10499],[90.4,10582],[90.4,10668],[90.4,10749],[90.4,10832],[90.4,10915],[90.4,11003],[90.4,11082],[90.4,11165],[90.4,11249],[90.4,11332],[90.4,11416],[90.4,11499],[90.4,11586],[90.4,11669],[90.4,11753],[90.4,11832],[90.4,11915],[90.4,11999],[90.4,12082],[90.4,12165],[90.4,12249],[90.4,12336],[90.4,12415],[90.4,12499],[90.4,12582],[90.4,12666],[90.4,12749],[90.4,12832],[90.4,12915],[90.4,12999],[90.4,13082],[90.4,13166],[90.4,13249],[90.4,13332],[90.4,13415],[90.4,13499],[90.4,13584],[90.4,13665],[90.3,13753],[90.3,13832],[90.3,13915],[90.3,13999],[90.3,14082],[90.3,14165],[90.3,14249],[90.3,14332],[90.3,14419],[90.3,14499],[90.3,14582],[90.3,14665],[90.3,14748],[90.3,14832],[90.3,14915],[90.3,14998],[89.4,15086],[87.2,15169],[88.2,15253],[89.4,15336],[89.5,15415],[89.8,15503],[90.3,15585],[90.4,15665],[87.8,15753],[82.2,15836],[63,15919],[61.9,15998],[61.9,16082],[61.9,16165],[61.9,16249],[54.4,16336],[51.2,16419],[51.2,16499],[51.2,16582],[51.2,16665],[51.2,16748],[51.2,16832],[51.2,16915],[51.2,16998],[51.2,17082],[51.2,17165],[51.2,17249],[50,17332],[50,17415],[50,17498],[50,17582],[50,17665],[48.2,17753],[43.9,17836],[43.9,17915],[43.9,18002],[43.9,18082],[46.3,18169],[50.7,18252],[50.7,18331],[50.7,18415],[50.7,18498],[50.7,18582],[50.7,18665],[50.3,18748],[43.4,18832],[43.4,18915],[43.4,18998],[43.4,19082],[43.4,19165],[43.4,19252],[50.3,19336],[50.3,19415],[50.3,19499],[50.3,19582],[50.3,19665],[50.3,19748],[50.3,19832],[50.3,19915],[50.3,19998],[50.3,20082],[50.3,20165],[50.3,20248],[50.3,20331],[50.3,20415],[50.3,20498],[50.3,20581],[50.3,20665],[50.3,20748],[50.3,20831],[50.3,20915],[50.3,20998],[50.3,21081],[50.3,21165],[50.3,21248],[50.3,21331],[50.3,21415],[50.3,21498],[50.3,21581],[50.3,21665],[50.3,21748],[50.3,21831],[50.3,21915],[50.3,21998],[50.3,22081],[50.3,22165],[50.3,22248],[50.3,22331],[50.3,22415],[50.3,22498],[50.3,22581],[50.3,22669],[50.3,22748],[50.3,22831],[50.3,22915],[50.3,22998],[50.3,23081],[50.3,23165],[50.3,23248],[50.3,23331],[50.3,23415],[50.3,23498],[50.3,23581],[50.3,23665],[50.3,23748],[50.3,23831],[50.3,23915],[50.3,23998],[50.3,24081],[50.3,24165],[50.3,24248],[50.3,24331],[50.3,24414],[50.3,24502],[50.3,24581],[50.3,24669],[50.3,24748],[50.3,24831],[50.3,24914],[50.3,24998],[50.3,25081],[50.3,25167],[50.3,25248],[50.3,25331],[50.3,25418],[50.3,25498],[50.3,25581],[50.3,25665],[50.3,25748],[50.3,25831],[50.3,25914],[50.3,26002],[50.3,26081],[50.3,26164],[50.3,26248],[50.3,26331],[50.3,26415],[50.3,26498],[50.3,26581],[50.3,26665],[50.3,26748],[50.3,26831],[50.3,26914],[50.3,26998],[50.3,27081],[50.3,27164],[50.3,27248],[50.3,27333],[50.3,27414],[50.3,27498],[50.3,27583],[50.3,27664],[50.3,27748],[50.3,27831],[50.3,27915],[50.3,27998],[50.3,28081],[50.3,28165],[50.3,28248],[50.3,28331],[50.3,28415],[50.3,28498],[50.3,28581],[50.3,28665],[50.3,28748],[50.3,28831],[50.3,28914],[50.3,28998],[50.3,29081],[50.3,29164],[50.3,29248],[50.3,29331],[54.2,29419]]",798.2699,801.7824,56.00292826,2.156,"[{""rating"":51.464128843338216,""responseTime"":0.8839999999999009},{""rating"":56.002928257686676,""responseTime"":2.155999999999949}]",space,2.9564,,801.7825,Partially,50,801.7855,,,[],,0,11,11,11,1,audio/Narrative8Situation2.wav,audio/Narrative7Situation2.wav,audio/Narrative6Situation2.wav,audio/Narrative5Situation2.wav,3,3,3,3,,,,,,,,,,,,,,,,,,,,,,,,,,,,,,,,,,,,,,,
,,,,,67203bff74dea717e8b9e1ea,2025-07-07_20h57.33.703,group3.4_multiperson,2023.2.2,Win32,60.24096386,686c2ebf0248f13bef9af11f,686c7afb95ccf98822a22973,,,,,,,,,,,,,,,,,,,,,,,,,,,,,801.7859,2,audio/Narrative5Situation3.wav,804.7988,,804.7988,818.6981,"[[69.6,1087],[69.6,1166],[69.6,1250],[68.3,1333],[68.2,1416],[68.2,1500],[68.2,1583],[68.2,1666],[68.2,1750],[68.2,1833],[68.7,1920],[68.9,2004],[68.7,2083],[68.7,2166],[68.6,2253],[68.4,2333],[68.4,2416],[69.3,2504],[70.1,2583],[70.1,2666],[70.1,2749],[70.1,2833],[70.1,2916],[70.1,2999],[70.1,3083],[70.1,3166],[70.1,3250],[70.1,3333],[70.1,3416],[70.1,3503],[70.1,3583],[70.1,3666],[70.1,3749],[70.1,3833],[70.1,3916],[70.1,3999],[70.1,4082],[70.1,4166],[70.1,4253],[70.1,4332],[70.1,4416],[70.1,4499],[70.1,4583],[70.1,4666],[70.1,4749],[70.2,4833],[73.6,4916],[75.3,5003],[75.3,5082],[75.3,5166],[75.5,5253],[77.5,5337],[77.8,5416],[77.8,5499],[77.8,5583],[77.8,5666],[77.8,5749],[76.9,5833],[74.9,5916],[74.9,5999],[74.9,6082],[74.9,6170],[74.9,6249],[74.9,6333],[74.9,6416],[74.9,6499],[74.9,6582],[74.9,6666],[74.9,6749],[74.9,6832],[74.9,6916],[74.9,6999],[74.9,7085],[74.9,7166],[74.9,7249],[74.9,7332],[74.9,7416],[74.9,7499],[74.9,7582],[74.9,7666],[74.9,7750],[74.9,7832],[74.9,7916],[74.9,7999],[76.6,8103],[77.1,8186],[77.1,8266],[77.1,8349],[78.7,8436],[82.2,8520],[83.1,8603],[82.7,8687],[82.7,8766],[82.7,8849],[82.5,8937],[82.4,9016],[82.2,9103],[82.2,9182],[82.2,9266],[82.2,9349],[82.2,9432],[82.2,9516],[82.2,9599],[82.2,9682],[82.2,9766],[82.2,9849],[82.2,9932],[82.2,10016],[82.2,10099],[82.2,10182],[82.2,10268],[82.2,10349],[82.2,10432],[82.2,10515],[82.2,10599],[82.2,10682],[82.2,10766],[82.2,10849],[81.9,10932],[81.9,11015],[81.6,11103],[81.6,11182],[81.6,11266],[81.6,11349],[81.6,11432],[84.3,11520],[89.2,11599],[89.2,11684],[89.2,11766],[89.2,11849],[89.2,11932],[88.9,12016],[87.3,12099],[87.2,12182],[87.2,12265],[87.2,12349],[87.2,12432],[87.2,12516],[87.2,12599],[87.2,12682],[87.2,12765],[87.2,12849],[87.2,12932],[87.2,13016],[87.2,13099],[87.2,13182],[87.2,13265],[87.2,13349],[87.2,13432],[87.2,13516],[87.2,13599],[87.2,13682],[87.2,13765],[87.2,13849]]",818.6982,820.7978,87.92093704,0.7893,"[{""rating"":87.92093704245974,""responseTime"":0.7892999999522772}]",space,1.5522,,820.7979,Not at all,0,820.8006,,,[],,0,12,12,12,1,audio/Narrative8Situation3.wav,audio/Narrative7Situation3.wav,audio/Narrative6Situation3.wav,audio/Narrative5Situation3.wav,4,8,5,3,,,,,,,,,,,,,,,,,,,,,,,,,,,,,,,,,,,,,,,
,,,,,67203bff74dea717e8b9e1ea,2025-07-07_20h57.33.703,group3.4_multiperson,2023.2.2,Win32,60.24096386,686c2ebf0248f13bef9af11f,686c7afb95ccf98822a22973,,,,,,,,,,,,,,,,,,,,,,,,,,,,,820.8009,2,audio/Narrative5Situation4.wav,821.8147,,821.8148,842.1969,"[[84.4,1003],[83.4,1086],[83.2,1166],[83.2,1253],[83.2,1332],[83.2,1418],[83.2,1499],[83.2,1582],[83.2,1670],[83.2,1749],[83.2,1832],[83.2,1915],[83.2,1999],[83.2,2082],[83.2,2166],[83.2,2249],[83.2,2332],[83.2,2415],[83.2,2499],[83.2,2582],[83.2,2666],[83.2,2749],[83.2,2832],[83.2,2916],[83.2,2999],[83.2,3082],[83.2,3166],[83.2,3249],[83.2,3332],[83.2,3415],[83.2,3499],[83.2,3582],[83.2,3665],[83.2,3749],[83.2,3832],[83.2,3916],[83.2,3999],[83.2,4082],[83.2,4166],[83.2,4249],[83.2,4336],[83.2,4415],[83.2,4499],[83.2,4582],[83.2,4666],[87.2,4753],[87.9,4832],[87.9,4916],[87.9,4999],[87.9,5082],[85.6,5169],[84,5249],[83.8,5332],[83.8,5419],[83.8,5499],[83.8,5582],[83.8,5665],[83.8,5749],[83.8,5832],[83.8,5915],[83.8,6001],[83.8,6082],[83.8,6165],[83.8,6249],[83.8,6332],[83.8,6415],[83.8,6499],[83.8,6582],[83.8,6665],[83.8,6749],[83.8,6832],[83.8,6915],[83.8,6999],[83.8,7082],[83.8,7165],[83.8,7249],[83.8,7332],[83.8,7419],[83.7,7499],[82.9,7582],[82.7,7669],[82.7,7749],[83.7,7833],[87.8,7918],[87.8,7999],[87.8,8082],[87.8,8165],[87.2,8253],[85.4,8332],[85,8415],[85,8499],[85,8582],[85,8665],[85,8752],[85,8832],[85,8915],[85,8998],[85,9082],[85,9165],[85,9248],[85,9332],[85,9415],[85,9498],[85,9582],[85,9665],[85,9749],[85,9832],[85,9915],[85,9998],[85,10086],[85,10165],[85,10248],[85,10332],[85,10419],[85,10498],[85,10582],[85,10665],[85,10752],[85,10832],[85,10915],[85,10998],[85,11082],[85,11165],[85,11248],[85,11332],[85,11415],[85,11499],[85,11582],[85,11665],[85,11748],[85,11832],[85,11915],[85,11998],[85,12082],[85,12165],[85,12248],[85,12332],[85,12415],[85,12499],[85,12584],[85,12665],[85,12748],[85,12832],[85,12919],[85,12998],[85,13081],[85,13165],[85,13248],[85,13332],[85,13417],[85,13498],[85,13582],[85,13665],[85,13748],[85,13832],[85,13915],[85,13998],[85,14082],[85,14165],[85,14248],[85.6,14332],[88.7,14419],[88.7,14498],[88.7,14581],[88.7,14665],[88.7,14748],[88.7,14835],[88.7,14915],[88.7,14998],[88.7,15081],[88.7,15169],[88.7,15248],[88.7,15331],[88.7,15415],[88.7,15498],[88.7,15581],[88.7,15665],[77.5,15752],[74.6,15831],[72,15915],[72,15998],[72,16081],[72,16165],[72,16251],[72,16331],[63.9,16419],[63.3,16498],[63.3,16581],[63.3,16668],[63.3,16748],[63.3,16831],[66.5,16919],[67.7,16998],[67.7,17081],[67.7,17165],[67.7,17248],[67.7,17331],[67.7,17415],[67.7,17498],[67.7,17581],[67.7,17665],[67.7,17748],[67.7,17831],[67.7,17915],[67.7,17998],[67.7,18081],[67.7,18165],[67.7,18252],[67,18336],[66.7,18415],[66.7,18498],[66.5,18581],[66.5,18664],[66.5,18748],[66.5,18831],[66.5,18915],[66.5,18998],[66.5,19081],[66.5,19164],[66.5,19248],[68.6,19336],[70.9,19419],[71.1,19498],[71.1,19581],[71.1,19665],[71.1,19748],[71.1,19835],[70.2,19919],[69.9,19998],[69.9,20081],[69.9,20164],[69.9,20248],[69.9,20331]]",842.197,846.4296,69.91215227,2.8644,"[{""rating"":69.91215226939971,""responseTime"":2.8644000000953156}]",space,3.6933,,846.4297,Partially,50,853.3667,49.41434846,3.8874,"[{""rating"":49.41434846266471,""responseTime"":3.887399999856939}]",space,0,13,13,13,1,audio/Narrative8Situation4.wav,audio/Narrative7Situation4.wav,audio/Narrative6Situation4.wav,audio/Narrative5Situation4.wav,3,3,2,1,,,6.3834,,,,,,,,,,,,,,,,,,,,,,,,,,,,,,,,,,,,
,,,,,67203bff74dea717e8b9e1ea,2025-07-07_20h57.33.703,group3.4_multiperson,2023.2.2,Win32,60.24096386,686c2ebf0248f13bef9af11f,686c7afb95ccf98822a22973,,,,,,,,,,,,,,,,,,,,,,,,,,,,,853.367,2,audio/Narrative5Situation5.wav,858.3788,,858.3788,873.8112,"[[999,0],[999,83],[999,166],[999,250],[999,333],[999,416],[999,499],[999,583],[999,666],[999,749],[999,833],[999,916],[999,1000],[999,1083],[999,1170],[999,1254],[999,1333],[999,1420],[67.4,1504],[66.1,1585],[64.1,1670],[61.1,1752],[60.8,1837],[60.7,1916],[60.2,1999],[60,2087],[58.8,2837],[70.5,2920],[76.9,2999],[78.4,3085],[78.6,3167],[80.7,3253],[76.5,4170],[76.8,4253],[78,4335],[79.3,4420],[79.3,4503],[79.3,4583],[79.3,4668],[79.3,4749],[68.4,4833],[53.4,4920],[41.8,5004],[35.9,5082],[35.9,5166],[35.9,5249],[35.9,5332],[15.6,5420],[0.5,5670],[2.7,5749],[2.7,5832],[2.7,5916],[2.7,5999],[2.7,6082],[2.7,6166],[2.7,6249],[2.7,6332],[2.7,6416],[2.7,6499],[2.7,6582],[2.7,6666],[2.7,6749],[2.7,6832],[2.7,6916],[2.7,6999],[2.7,7082],[2.7,7166],[2.7,7249],[2.7,7332],[2.7,7416],[2.7,7499],[2.7,7582],[2.7,7666],[2.7,7749],[2.7,7832],[2.7,7916],[2.7,7999],[2.7,8082],[2.7,8166],[2.7,8249],[2.7,8332],[2.7,8418],[2.7,8499],[2.7,8583],[2.7,8666],[2.7,8749],[2.7,8832],[2.7,8916],[2.7,8999],[2.7,9082],[2.7,9166],[2.7,9249],[2.7,9332],[2.7,9416],[2.7,9499],[2.7,9582],[2.7,9666],[2.7,9749],[2.7,9832],[2.7,9916],[2.7,9999],[2.7,10084],[3.9,10170],[7.1,10270],[8,10349],[8.4,10436],[9.9,10536],[10.6,10616],[10.9,10703],[10.9,10782],[11.1,10865],[11.3,10953],[11.3,11032],[11.3,11116],[11.3,11199],[11.3,11282],[11.3,11365],[11.3,11449],[11.3,11532],[11.3,11615],[11.3,11699],[11.3,11782],[11.3,11865],[11.3,11949],[11.3,12032],[11.3,12115],[11.3,12199],[11.3,12282],[11.3,12366],[11.3,12449],[11.3,12532],[11.3,12618],[11.3,12699],[11.3,12782],[11.3,12865],[11.3,12949],[11.3,13036],[11.3,13115],[11.3,13199],[11.3,13282],[11.3,13365],[11.3,13452],[11.3,13532],[11.3,13615],[11.3,13699],[11.3,13782],[11.3,13865],[11.3,13948],[11.3,14032],[11.3,14115],[11.3,14198],[11.3,14282],[11.3,14365],[11.3,14449],[11.3,14532],[11.3,14615],[10.9,14699],[5.2,14786],[5.2,14865],[5.2,14949],[4.6,15036],[3.6,15115],[3.4,15199],[3.4,15282],[3.4,15365]]",873.8114,876.6821,0,2.1532,"[{""rating"":2.2693997071742302,""responseTime"":0.8535999999046453},{""rating"":0.21961932650073068,""responseTime"":1.9533999998569698},{""rating"":0,""responseTime"":2.1531999998092033}]",space,2.3334,,876.6822,Not at all,0,876.6846,,,[],,0,14,14,14,1,audio/Narrative8Situation5.wav,audio/Narrative7Situation5.wav,audio/Narrative6Situation5.wav,audio/Narrative5Situation5.wav,2,5,2,5,,,,,,,,,,,,,,,,,,,,,,,,,,,,,,,,,,,,,,,
