consent.started,consent.stopped,consentResponse.keys,consentResponse.rt,consentResponse.duration,participantID,date,expName,psychopyVersion,OS,frameRate,STUDY_ID,SESSION_ID,opening1.started,opening1.stopped,keyEndingOpening1.keys,keyEndingOpening1.rt,keyEndingOpening1.duration,volumeAdjust.started,volumeAdjust.stopped,endingAdjust.keys,endingAdjust.rt,endingAdjust.duration,opening2.started,opening2.stopped,keyEndingOpening.keys,keyEndingOpening.rt,keyEndingOpening.duration,mouse.x,mouse.y,mouse.leftButton,mouse.midButton,mouse.rightButton,mouse.time,instructionLoop.thisRepN,instructionLoop.thisTrialN,instructionLoop.thisN,instructionLoop.thisIndex,instructionLoop.ran,readyForAudio.started,readyForAudio.stopped,fixation.started,run,audio_played,fixation.stopped,endPractice.keys,audioPre.started,audioPre.stopped,continuousResponses_audio,intRating.started,intRating.stopped,intQuestionSlider.response,intQuestionSlider.rt,intQuestionSlider.history,confirmResponse.keys,confirmResponse.rt,confirmResponse.duration,catchQuestion.started,catch_label,catch_value,catchQuestion.stopped,catchQuestionSlider.response,catchQuestionSlider.rt,catchQuestionSlider.history,confirmResponse_2.keys,audioRunLoop.thisRepN,audioRunLoop.thisTrialN,audioRunLoop.thisN,audioRunLoop.thisIndex,audioRunLoop.ran,conditions1_1,conditions2_1,conditions1_2,conditions2_2,dur1_1,dur2_1,dur1_2,dur2_2,endPractice.rt,endPractice.duration,confirmResponse_2.rt,confirmResponse_2.duration,runIntervalBreak.started,runIntervalBreak.stopped,endingBreakKey.keys,endingBreakKey.rt,endingBreakKey.duration,connection.started,connection.stopped,connectionEnding.keys,connectionEnding.rt,connectionEnding.duration,readyForText.started,readyForText.stopped,textPre.started,run_dup,textPre.stopped,continuousResponses_text,textRunLoop.thisRepN,textRunLoop.thisTrialN,textRunLoop.thisN,textRunLoop.thisIndex,textRunLoop.ran,text1_1,text1_2,text2_1,text2_2,runBreakText.started,runBreakText.stopped,endingBreakKey_2.keys,ending.started,ending.stopped,endingEnding.keys,endingEnding.rt,endingEnding.duration
0.0002,12.8879,y,12.5516,,672ceecd4b982fd2123fa32f,2025-07-08_00h05.29.608,group3.4_multiperson,2023.2.2,Win32,59.88023952,686c2ebf0248f13bef9af11f,686c96481f210a081c6dff5b,,,,,,,,,,,,,,,,,,,,,,,,,,,,,,,,,,,,,,,,,,,,,,,,,,,,,,,,,,,,,,,,,,,,,,,,,,,,,,,,,,,,,,,,,,,,,,,,,,,,,,
,,,,,672ceecd4b982fd2123fa32f,2025-07-08_00h05.29.608,group3.4_multiperson,2023.2.2,Win32,59.88023952,686c2ebf0248f13bef9af11f,686c96481f210a081c6dff5b,12.8887,14.7665,space,1.8079,,,,,,,,,,,,,,,,,,,,,,,,,,,,,,,,,,,,,,,,,,,,,,,,,,,,,,,,,,,,,,,,,,,,,,,,,,,,,,,,,,,,,,,,,,,,,,,,,,
,,,,,672ceecd4b982fd2123fa32f,2025-07-08_00h05.29.608,group3.4_multiperson,2023.2.2,Win32,59.88023952,686c2ebf0248f13bef9af11f,686c96481f210a081c6dff5b,,,,,,14.7669,19.2137,space,4.1056,,,,,,,,,,,,,,,,,,,,,,,,,,,,,,,,,,,,,,,,,,,,,,,,,,,,,,,,,,,,,,,,,,,,,,,,,,,,,,,,,,,,,,,,,,,,,
,,,,,672ceecd4b982fd2123fa32f,2025-07-08_00h05.29.608,group3.4_multiperson,2023.2.2,Win32,59.88023952,686c2ebf0248f13bef9af11f,686c96481f210a081c6dff5b,,,,,,,,,,,19.235,20.9983,space,1.7177,,[],[],[],[],[],[],0,0,0,0,1,,,,,,,,,,,,,,,,,,,,,,,,,,,,,,,,,,,,,,,,,,,,,,,,,,,,,,,,,,,,,,,,,,,,,,,,,,,,
,,,,,672ceecd4b982fd2123fa32f,2025-07-08_00h05.29.608,group3.4_multiperson,2023.2.2,Win32,59.88023952,686c2ebf0248f13bef9af11f,686c96481f210a081c6dff5b,,,,,,,,,,,21.0001,22.1633,space,0.9662,,[],[],[],[],[],[],1,0,1,0,1,,,,,,,,,,,,,,,,,,,,,,,,,,,,,,,,,,,,,,,,,,,,,,,,,,,,,,,,,,,,,,,,,,,,,,,,,,,,
,,,,,672ceecd4b982fd2123fa32f,2025-07-08_00h05.29.608,group3.4_multiperson,2023.2.2,Win32,59.88023952,686c2ebf0248f13bef9af11f,686c96481f210a081c6dff5b,,,,,,,,,,,22.1646,23.3133,space,1.0371,,[],[],[],[],[],[],2,0,2,0,1,,,,,,,,,,,,,,,,,,,,,,,,,,,,,,,,,,,,,,,,,,,,,,,,,,,,,,,,,,,,,,,,,,,,,,,,,,,,
,,,,,672ceecd4b982fd2123fa32f,2025-07-08_00h05.29.608,group3.4_multiperson,2023.2.2,Win32,59.88023952,686c2ebf0248f13bef9af11f,686c96481f210a081c6dff5b,,,,,,,,,,,23.3145,24.9484,space,1.6049,,[],[],[],[],[],[],3,0,3,0,1,,,,,,,,,,,,,,,,,,,,,,,,,,,,,,,,,,,,,,,,,,,,,,,,,,,,,,,,,,,,,,,,,,,,,,,,,,,,
,,,,,672ceecd4b982fd2123fa32f,2025-07-08_00h05.29.608,group3.4_multiperson,2023.2.2,Win32,59.88023952,686c2ebf0248f13bef9af11f,686c96481f210a081c6dff5b,,,,,,,,,,,24.9491,26.5121,space,1.5286,,[],[],[],[],[],[],4,0,4,0,1,,,,,,,,,,,,,,,,,,,,,,,,,,,,,,,,,,,,,,,,,,,,,,,,,,,,,,,,,,,,,,,,,,,,,,,,,,,,
,,,,,672ceecd4b982fd2123fa32f,2025-07-08_00h05.29.608,group3.4_multiperson,2023.2.2,Win32,59.88023952,686c2ebf0248f13bef9af11f,686c96481f210a081c6dff5b,,,,,,,,,,,26.5129,29.5613,space,3.0292,,[],[],[],[],[],[],5,0,5,0,1,,,,,,,,,,,,,,,,,,,,,,,,,,,,,,,,,,,,,,,,,,,,,,,,,,,,,,,,,,,,,,,,,,,,,,,,,,,,
,,,,,672ceecd4b982fd2123fa32f,2025-07-08_00h05.29.608,group3.4_multiperson,2023.2.2,Win32,59.88023952,686c2ebf0248f13bef9af11f,686c96481f210a081c6dff5b,,,,,,,,,,,,,,,,,,,,,,,,,,,29.5632,32.1457,32.1886,1,audio/Narrative13Situation2.wav,34.1995,,34.2,63.9458,"[[35.9,1929],[41.1,2261],[40.9,2344],[40.8,2428],[41.8,2512],[43.3,2594],[43.3,2677],[45,2762],[46,2844],[49.1,2928],[50.4,3010],[50.7,3094],[51.3,3177],[56.1,3261],[57.9,3344],[58.3,3428],[58.6,3510],[59.1,3594],[60.5,3678],[63.6,3761],[63.8,3844],[68.4,3927],[73.1,4010],[73.3,4094],[79.9,4177],[82.8,4260],[82.8,4344],[82.8,4427],[82.8,4510],[82.8,4593],[82.9,4677],[83.1,4760],[83.1,4844],[83.1,4927],[83.1,5010],[83.1,5093],[83.1,5177],[83.1,5260],[83.1,5343],[83.1,5427],[83.1,5510],[83.1,5593],[83.1,5677],[83.1,5760],[83.1,5843],[83.1,5927],[83.1,6011],[83.1,6095],[83.1,6177],[83.1,6261],[83.1,6344],[83.1,6427],[83.1,6510],[83.1,6594],[83.1,6677],[83.1,6761],[83.1,6844],[83.1,6927],[83.1,7011],[83.1,7096],[83.1,7181],[83.1,7261],[83.1,7345],[83.1,7431],[83.1,7510],[83.1,7597],[83.1,7680],[83.1,7761],[83.1,7844],[83.1,7931],[83.1,8015],[83.1,8095],[83.1,8181],[83.1,8260],[83.1,8344],[83.1,8431],[83.1,8511],[83.1,8596],[83.1,8677],[83.1,8760],[83.1,8847],[83.1,8927],[83.1,9010],[83.1,9096],[83.1,9177],[83.1,9260],[83.1,9343],[83.1,9427],[83.1,9510],[83.1,9594],[83.1,9677],[83.1,9761],[83.1,9845],[83.1,9927],[83.1,10010],[83.1,10094],[83.2,10177],[83.2,10260],[83.2,10344],[83.2,10427],[83.2,10511],[83.4,10596],[83.7,10680],[84.1,10762],[84.7,10847],[85.4,10929],[85.9,11010],[91.9,11094],[92.2,11177],[92.3,11260],[92.3,11343],[92.3,11426],[92.3,11510],[92.3,11593],[92.3,11678],[92.3,11762],[93,11844],[93,11928],[93,12010],[93,12093],[93,12177],[93,12260],[93,12344],[93,12426],[93,12510],[93,12593],[93,12677],[93,12761],[93,12845],[93,12929],[93,13010],[93,13094],[93,13177],[93,13260],[93,13344],[93,13427],[93,13510],[93,13594],[93,13677],[93,13760],[93,13844],[93,13928],[93,14011],[93,14094],[93,14177],[93,14260],[93,14344],[93,14427],[93,14510],[93,14594],[93,14677],[93,14761],[93,14843],[93,14927],[93,15010],[93,15093],[93,15176],[93,15260],[93,15344],[93,15427],[93,15512],[93,15593],[93,15677],[93,15760],[93,15843],[93,15927],[93,16010],[93,16094],[93,16177],[93,16260],[93,16343],[93,16426],[93,16510],[93,16594],[93,16679],[93,16760],[93,16843],[93,16927],[93,17011],[93,17095],[93,17177],[93,17260],[93,17344],[93,17427],[93,17512],[92.8,17595],[92.6,17678],[92.5,17760],[92.3,17844],[92.2,17928],[92.2,18011],[92,18094],[91.4,18179],[90.3,18263],[90.1,18344],[89.7,18429],[88.7,18513],[87.8,18596],[86.9,18680],[86,18760],[85,18844],[84.6,18927],[84.3,19013],[83.7,19097],[77.2,19179],[76.5,19260],[76.4,19345],[76.4,19428],[76.1,19511],[75.9,19594],[75.5,19680],[74.9,19762],[74.7,19844],[74.3,19928],[74,20012],[72.5,20097],[72.1,20176],[71.5,20263],[70.9,20346],[70.4,20430],[69.6,20510],[69.6,20594],[69.3,20679],[68.9,20761],[66.8,20845],[66.7,20927],[66.5,21010],[66.4,21094],[61,21179],[60.5,21262],[60.5,21344],[60.5,21428],[60.4,21512],[59.5,21594],[57.8,21678],[57.8,21760],[57.5,21847],[57.3,21929],[57.3,22011],[56,22098],[55.6,22177],[55.4,22260],[55.4,22344],[55.4,22427],[55.4,22511],[53.2,22598],[52.8,22678],[52.8,22760],[52.8,22845],[52.6,22932],[52.3,23010],[52.3,23094],[51.9,23177],[51.8,23260],[51.8,23344],[51.8,23427],[51.8,23510],[51.8,23594],[51.8,23677],[51.8,23760],[51.8,23844],[51.8,23927],[51.8,24010],[51.8,24095],[51.8,24178],[51.8,24260],[51.8,24344],[51.8,24427],[51.8,24510],[51.5,24596],[51.2,24677],[51.2,24760],[51.2,24844],[51.2,24927],[51.2,25011],[51.2,25094],[49.7,25180],[49.6,25261],[49.6,25343],[48.8,25428],[48.1,25510],[47.4,25594],[47.4,25677],[47.4,25760],[46.9,25845],[46.6,25928],[46.6,26014],[46.5,26095],[46.2,26176],[46.2,26260],[46.2,26343],[46.2,26427],[58.8,26512],[68.9,26596],[70.1,26678],[70.6,26762],[73,26847],[80.2,26929],[81.3,27011],[83.7,27098],[87,27177],[87.8,27262],[90,27345],[90.7,27430],[93.8,27512],[93.9,27595],[96.7,27678],[97,27761],[97,27843],[97.3,27929],[97.4,28010],[97.4,28095],[97.4,28177],[97.4,28260],[97.4,28343],[97.4,28427],[97.3,28512],[97.3,28594],[97.3,28677],[97,28762],[96.9,28846],[96.6,28927],[96.3,29013],[96,29094],[95.5,29179],[95.1,29261],[94.7,29343],[94.5,29427],[94.5,29510],[92.5,29597],[92.3,29677]]",63.9468,70.2651,97.43777452,3.1653,"[{""rating"":97.43777452415813,""responseTime"":3.165300000000741}]",space,5.7849,,70.2662,Partially,50,70.2833,,,[],,0,0,0,0,1,audio/Narrative13Situation2.wav,audio/Narrative13Situation2.wav,audio/Narrative13Situation2.wav,audio/Narrative13Situation2.wav,2,2,2,2,,,,,,,,,,,,,,,,,,,,,,,,,,,,,,,,,,,,,
,,,,,672ceecd4b982fd2123fa32f,2025-07-08_00h05.29.608,group3.4_multiperson,2023.2.2,Win32,59.88023952,686c2ebf0248f13bef9af11f,686c96481f210a081c6dff5b,,,,,,,,,,,,,,,,,,,,,,,,,,,,,70.2844,1,audio/Narrative7Situation1.wav,279.9677,space,279.9678,335.8834,"[[999,4],[999,102],[999,185],[999,265],[999,351],[999,431],[999,515],[999,602],[999,686],[999,765],[999,848],[999,931],[999,1014],[999,1098],[999,1182],[999,1265],[999,1351],[999,1435],[999,1518],[999,1598],[49,1685],[51.5,1768],[51.6,1848],[51.6,1934],[51.6,2014],[54.8,2101],[57.6,2184],[66.1,2268],[68.9,2353],[68.9,2432],[70.1,2518],[71.7,2601],[74.9,2685],[76.5,2768],[78.6,2852],[78.6,2932],[78.7,3018],[78.8,3099],[79.4,3181],[79.4,3265],[79.4,3348],[79.4,3432],[79.4,3515],[79.4,3599],[79.4,3683],[79.4,3767],[79.4,3848],[79.4,3932],[79.4,4016],[79.6,4099],[79.7,4182],[79.7,4265],[80.3,4351],[82.1,4432],[82.2,4518],[82.4,4598],[82.4,4683],[82.4,4765],[82.5,4849],[82.5,4932],[82.5,5014],[82.5,5098],[82.5,5182],[82.5,5265],[82.5,5349],[82.5,5431],[82.5,5515],[82.5,5598],[82.5,5682],[82.5,5765],[82.5,5849],[83.1,5934],[83.1,6015],[83.1,6098],[83.1,6182],[83.1,6265],[83.1,6349],[83.1,6431],[83.1,6514],[83.1,6599],[83.1,6682],[83.1,6765],[83.1,6848],[83.1,6932],[83.1,7015],[83.1,7098],[83.1,7181],[83.1,7265],[83.1,7348],[83.1,7432],[83.1,7515],[83.1,7598],[83.1,7682],[83.1,7765],[83.1,7848],[83.2,7932],[83.2,8015],[83.2,8098],[83.2,8181],[83.2,8264],[83.2,8348],[83.2,8432],[83.2,8514],[83.2,8598],[83.2,8683],[83.2,8765],[83.2,8848],[83.2,8934],[83.2,9015],[83.2,9098],[83.2,9181],[83.2,9266],[83.2,9348],[83.5,9433],[83.5,9515],[83.7,9598],[84.4,9682],[84.4,9765],[84.4,9848],[84.4,9932],[84.4,10015],[84.4,10097],[84.4,10181],[84.7,10267],[85.1,10348],[85.1,10432],[85.1,10514],[85.1,10598],[85.3,10683],[85.6,10765],[85.6,10848],[85.6,10932],[85.6,11015],[85.6,11098],[85.6,11181],[85.6,11265],[85.6,11348],[85.6,11432],[85.6,11515],[85.6,11598],[86.3,11682],[86.3,11765],[86.3,11848],[86.3,11932],[86.3,12015],[86.3,12098],[86.3,12181],[86.3,12265],[86.3,12348],[86.3,12432],[86.3,12515],[86.3,12598],[86.3,12681],[86.3,12764],[86.3,12848],[86.3,12933],[86.3,13014],[86.3,13097],[86.3,13181],[86.3,13264],[86.3,13347],[86.3,13432],[86.3,13514],[86.3,13598],[86.3,13681],[86.3,13765],[86.3,13848],[86.3,13931],[86.3,14014],[86.3,14098],[86.3,14182],[86.3,14264],[86.3,14348],[86.5,14431],[86.9,14514],[86.9,14597],[86.9,14681],[87.3,14764],[87.6,14847],[87.6,14932],[87.6,15015],[90.6,15098],[90.8,15182],[90.8,15264],[90.8,15347],[90.8,15430],[90.8,15514],[90.8,15597],[90.8,15681],[90.8,15765],[90.8,15848],[90.8,15931],[90.8,16014],[90.8,16098],[90.8,16181],[90.8,16264],[90.8,16348],[90.8,16431],[91.1,16518],[91.1,16598],[91.1,16683],[91.1,16764],[91.1,16848],[91.1,16931],[91.1,17015],[91.1,17099],[91.1,17182],[91.1,17264],[91.1,17348],[91.1,17431],[91.1,17515],[91.1,17598],[91.1,17681],[91.1,17764],[91.1,17848],[91.1,17932],[91.1,18014],[91.1,18098],[91.1,18182],[91.1,18264],[91.1,18348],[91.1,18431],[91.1,18514],[91.1,18597],[91.1,18682],[91.1,18765],[91.1,18848],[91.1,18932],[91.1,19015],[91.1,19098],[91.1,19181],[91.1,19264],[91.1,19347],[91.1,19432],[91.1,19514],[91.1,19598],[91.1,19682],[91.1,19764],[91.1,19848],[91.1,19932],[91.1,20014],[91.1,20098],[91.1,20181],[91.1,20265],[91.1,20347],[91.1,20431],[91.1,20515],[91.1,20598],[91.1,20681],[91.1,20764],[91.1,20848],[91.1,20931],[91.1,21015],[91.1,21098],[91.1,21182],[91.1,21264],[91.3,21347],[91.3,21431],[91.3,21514],[91.3,21598],[91.3,21682],[91.3,21765],[91.3,21848],[91.3,21932],[91.3,22014],[91.3,22098],[91.3,22181],[91.3,22264],[91.3,22347],[91.3,22431],[91.3,22514],[91.3,22599],[91.3,22684],[91.3,22765],[91.3,22848],[91.3,22931],[91.3,23014],[91.3,23097],[91.3,23181],[91.3,23265],[91.3,23348],[91.3,23430],[91.4,23514],[91.4,23598],[91.4,23682],[91.4,23764],[91.4,23848],[91.4,23931],[91.4,24014],[91.4,24097],[91.4,24181],[91.4,24264],[91.4,24347],[91.4,24431],[91.4,24514],[91.4,24597],[91.4,24680],[91.4,24764],[91.4,24847],[91.4,24931],[91.4,25015],[91.4,25098],[91.6,25185],[91.7,25264],[91.7,25348],[92,25430],[92,25514],[92,25598],[92,25682],[92.6,25765],[93.5,25847],[93.5,25932],[93.8,26016],[93.8,26099],[94.4,26183],[94.4,26264],[94.8,26351],[94.9,26431],[96.7,26514],[97.3,26598],[97.4,26683],[97.4,26764],[97.4,26847],[97.4,26931],[97.4,27014],[97.4,27098],[97.4,27181],[97.4,27264],[97.4,27348],[97.4,27431],[97.4,27513],[97.4,27597],[97.4,27682],[97.4,27764],[97.4,27848],[97.4,27932],[97.4,28013],[97.4,28097],[97.4,28181],[97.4,28265],[97.4,28347],[97.4,28431],[97.4,28514],[97.4,28597],[97.4,28682],[97.4,28764],[97.4,28848],[97.4,28932],[97.4,29014],[97.4,29097],[97.4,29180],[97.4,29263],[97.4,29347],[97.4,29431],[97.4,29514],[97.4,29597],[97.4,29681],[97.4,29764],[97.4,29848],[97.4,29931],[97.4,30014],[97.4,30097],[97.4,30181],[97.4,30264],[97.4,30347],[97.4,30431],[97.4,30514],[97.4,30597],[97.4,30680],[97.4,30765],[97.4,30848],[97.4,30931],[97.4,31014],[97.4,31096],[97.4,31181],[97.4,31264],[97.4,31347],[97.4,31430],[97.4,31514],[97.4,31597],[97.4,31680],[97.4,31764],[97.4,31848],[97.4,31931],[97.4,32013],[97.4,32098],[97.4,32181],[97.4,32264],[97.4,32347],[97.4,32430],[97.4,32514],[97.4,32596],[97.4,32680],[97.4,32764],[97.4,32847],[97.4,32931],[97.4,33014],[97.4,33098],[97.4,33181],[97.4,33263],[97.4,33347],[97.4,33431],[97.4,33514],[97.4,33596],[97.4,33680],[97.4,33763],[97.4,33846],[97.4,33931],[97.4,34015],[97.4,34098],[97.4,34181],[97.4,34264],[97.4,34348],[97.4,34430],[97.4,34514],[97.4,34598],[97.4,34680],[97.4,34764],[97.4,34848],[97.4,34930],[97.4,35014],[97.4,35098],[97.4,35180],[97.4,35264],[97.4,35347],[97.4,35431],[97.4,35513],[97.4,35597],[97.4,35681],[97.6,35764],[98.5,35847],[98.5,35930],[98.5,36013],[98.5,36096],[98.5,36180],[98.5,36263],[98.5,36347],[98.5,36433],[98.8,36514],[99,36597],[100,36680],[100,36763],[100,36848],[100,36932],[100,37014],[100,37096],[100,37181],[100,37263],[100,37347],[100,37431],[100,37513],[100,37596],[100,37680],[100,37763],[100,37846],[100,37929],[100,38013],[100,38096],[100,38180],[100,38263],[100,38346],[100,38430],[100,38515],[100,38596],[100,38680],[100,38763],[100,38846],[100,38929],[100,39013],[100,39096],[99.6,39179],[99.6,39263],[99.6,39346],[99.6,39430],[99.6,39513],[99.6,39598],[99,39680],[99,39763],[99,39847],[99,39930],[99,40013],[99,40097],[99,40180],[99,40263],[99,40347],[99,40430],[99,40515],[99,40597],[99,40680],[99,40763],[99,40846],[99,40930],[99,41014],[99,41097],[99,41180],[99,41264],[99,41347],[99,41430],[99,41514],[99,41596],[99,41680],[99,41763],[99,41846],[99,41930],[99,42014],[99,42098],[99,42180],[99,42263],[99,42346],[99,42430],[99,42513],[99,42597],[99,42682],[99,42764],[99,42846],[99,42930],[99,43014],[99,43097],[99,43180],[99,43265],[99,43347],[99,43430],[99,43513],[99,43597],[99,43681],[99,43764],[99,43846],[99,43930],[99,44013],[99,44096],[99,44180],[99,44264],[99,44347],[99,44430],[99,44513],[99,44597],[99,44681],[99,44763],[99,44847],[99,44930],[99,45013],[99,45097],[99,45180],[99,45264],[99,45346],[99,45430],[99,45513],[99,45597],[99,45681],[99,45764],[99,45846],[99,45929],[99,46013],[99,46097],[99,46180],[99,46263],[99,46347],[99,46430],[99,46512],[99,46597],[99,46681],[99,46763],[99,46847],[99,46930],[99,47012],[99,47097],[99,47180],[99,47264],[99,47347],[99,47430],[99,47513],[99,47596],[99,47680],[99,47763],[99,47847],[99,47929],[99,48013],[99,48097],[99,48180],[99,48263],[99,48346],[99,48429],[99,48513],[99,48597],[99,48680],[99,48763],[99,48848],[99,48929],[99,49013],[99,49097],[99,49180],[99,49263],[99,49347],[99,49430],[99,49515],[99,49596],[99,49680],[99,49763],[99,49847],[99,49930],[99,50012],[99,50097],[99,50180],[99,50262],[99,50347],[99,50430],[99,50513],[99,50597],[99,50680],[99,50762],[99,50847],[99,50930],[99,51012],[99,51096],[99,51180],[99,51262],[99,51346],[99,51430],[99,51513],[99,51597],[99,51680],[99,51764],[99,51847],[99,51930],[99,52012],[99,52096],[99,52180],[99,52263],[99,52347],[99,52429],[99,52513],[99,52597],[99,52680],[99,52763],[99,52846],[99,52930],[99,53013],[99,53096],[99,53180],[99,53263],[99,53346],[99,53430],[99,53513],[99,53596],[99,53679],[99,53763],[99,53847],[99,53930],[99,54013],[99,54095],[99,54180],[99,54263],[99,54347],[99,54430],[99,54513],[99,54597],[99,54680],[99,54764],[99,54846],[99,54930],[99,55013],[99,55096],[99,55179],[99,55263],[99,55346],[99,55430],[99,55514],[99,55597],[99,55681],[99,55763],[99,55847]]",335.8856,346.847,85.43191801,8.11,"[{""rating"":85.43191800878478,""responseTime"":8.109999999999957}]",space,10.414,,346.8472,Definitely yes,100,360.0803,98.90190337,7.1014,"[{""rating"":98.90190336749633,""responseTime"":7.101399999998534}]",space,0,1,1,1,1,audio/Narrative7Situation1.wav,audio/Narrative8Situation1.wav,audio/Narrative5Situation1.wav,audio/Narrative6Situation1.wav,2,5,5,2,209.6427,,12.6996,,,,,,,,,,,,,,,,,,,,,,,,,,,,,,,,,,
,,,,,672ceecd4b982fd2123fa32f,2025-07-08_00h05.29.608,group3.4_multiperson,2023.2.2,Win32,59.88023952,686c2ebf0248f13bef9af11f,686c96481f210a081c6dff5b,,,,,,,,,,,,,,,,,,,,,,,,,,,,,360.0817,1,audio/Narrative7Situation2.wav,363.0958,,363.0958,370.5637,"[[51,2669],[50.6,2750],[50.4,2835],[50,2917],[50,3000],[50,3083],[49.9,3167],[49.9,3250],[49.9,3334],[49.7,3416],[52.5,3500],[54,3583],[60.1,3669],[61.1,3752],[68.7,3834],[72.4,3916],[72.4,4000],[72.4,4084],[73.3,4167],[82.9,4251],[83.1,4334],[83.1,4417],[83.1,4501],[83.4,4586],[85.3,4667],[85.3,4750],[85.3,4833],[86.3,4920],[86.3,5000],[86.3,5083],[86.3,5167],[86.3,5250],[86.3,5333],[87.3,5419],[87.3,5500],[87.3,5583],[87.9,5667],[87.9,5749],[87.9,5833],[87.9,5916],[88.2,6001],[88.7,6084],[88.7,6166],[88.7,6249],[88.7,6333],[88.7,6416],[88.7,6499],[88.7,6583],[88.7,6666],[88.7,6749],[88.7,6834],[88.7,6916],[88.7,6999],[88.7,7083],[88.7,7167],[88.7,7250],[88.7,7333],[88.7,7416]]",370.5647,377.6796,98.31625183,3.5191,"[{""rating"":98.31625183016106,""responseTime"":3.5191000000014583}]",space,6.5721,,377.6799,Partially,50,377.6901,,,[],,0,2,2,2,1,audio/Narrative7Situation2.wav,audio/Narrative8Situation2.wav,audio/Narrative5Situation2.wav,audio/Narrative6Situation2.wav,3,3,3,3,,,,,,,,,,,,,,,,,,,,,,,,,,,,,,,,,,,,,
,,,,,672ceecd4b982fd2123fa32f,2025-07-08_00h05.29.608,group3.4_multiperson,2023.2.2,Win32,59.88023952,686c2ebf0248f13bef9af11f,686c96481f210a081c6dff5b,,,,,,,,,,,,,,,,,,,,,,,,,,,,,377.6908,1,audio/Narrative7Situation3.wav,385.6946,,385.6947,394.9455,"[[58.9,3169],[63.8,3250],[67,3333],[67.3,3416],[67.3,3500],[70.4,3585],[71.4,3669],[73,3752],[75.2,3834],[75.5,3917],[77.4,4000],[78,4086],[82.7,4167],[82.8,4250],[85.9,4334],[85.9,4417],[86,4501],[86,4583],[86,4667],[88.2,4753],[90,4834],[90,4917],[90,5001],[90,5083],[90,5167],[90,5250],[90,5333],[90.3,5419],[91.4,5502],[91.6,5582],[91.6,5666],[94.1,5749],[95.2,5833],[95.2,5917],[95.2,6000],[95.2,6083],[95.2,6167],[95.2,6249],[95.2,6334],[95.2,6416],[95.2,6500],[95.2,6584],[95.2,6667],[95.2,6751],[95.2,6833],[95.2,6917],[95.2,7000],[95.2,7083],[95.2,7167],[95.2,7250],[95.2,7332],[95.2,7416],[95.2,7500],[95.2,7583],[95.2,7666],[95.2,7750],[95.2,7833],[95.2,7917],[95.2,8000],[95.2,8083],[95.2,8167],[95.2,8250],[95.2,8333],[95.2,8416],[95.2,8500],[95.2,8583],[95.2,8666],[95.2,8750],[95.2,8833],[95.2,8917],[95.2,9001],[95.2,9083],[95.2,9166],[95.2,9250]]",394.9458,405.8276,65.51976574,9.4526,"[{""rating"":65.51976573938506,""responseTime"":9.452600000001496}]",space,10.3437,,405.8276,Definitely yes,100,405.832,,,[],,0,3,3,3,1,audio/Narrative7Situation3.wav,audio/Narrative8Situation3.wav,audio/Narrative5Situation3.wav,audio/Narrative6Situation3.wav,8,4,3,5,,,,,,,,,,,,,,,,,,,,,,,,,,,,,,,,,,,,,
,,,,,672ceecd4b982fd2123fa32f,2025-07-08_00h05.29.608,group3.4_multiperson,2023.2.2,Win32,59.88023952,686c2ebf0248f13bef9af11f,686c96481f210a081c6dff5b,,,,,,,,,,,,,,,,,,,,,,,,,,,,,405.8322,1,audio/Narrative7Situation4.wav,408.8451,,408.8453,420.5619,"[[64.8,1082],[64.8,1165],[64.8,1249],[64.8,1331],[65.2,1415],[65.5,1497],[65.7,1582],[65.7,1665],[66.1,1750],[66.3,1832],[66.3,1915],[66.3,1999],[66.3,2082],[66.3,2165],[66.3,2249],[66.3,2332],[66.3,2415],[66.3,2498],[66.3,2582],[66.1,2664],[65.5,2748],[65.2,2832],[62.9,2917],[61,3002],[58.2,3084],[54,3165],[54,3249],[54,3331],[53.8,3417],[51.6,3498],[51.6,3581],[51.6,3665],[51.6,3749],[51.6,3831],[51.6,3914],[51.5,3999],[51.5,4081],[51.3,4165],[51.3,4249],[51.3,4331],[51.3,4415],[51.5,4501],[52.3,4583],[52.5,4665],[52.6,4748],[53.1,4831],[53.1,4914],[53.1,4999],[53.1,5081],[53.1,5165],[53.1,5249],[53.2,5333],[53.5,5417],[53.8,5499],[53.8,5581],[53.8,5665],[53.8,5750],[53.8,5831],[54,5915],[54,5999],[54,6082],[54,6165],[56.4,6248],[56.9,6331],[58.1,6418],[58.1,6499],[58.1,6581],[58.1,6665],[58.1,6748],[58.1,6831],[57.2,6915],[55.7,6999],[54.4,7082],[52.5,7164],[48,7248],[47.5,7333],[46.6,7415],[45.8,7498],[44,7582],[43.9,7665],[42.5,7753],[40.3,7832],[34.2,7915],[32.7,7998],[32.6,8083],[31.8,8167],[31.6,8248],[30.8,8332],[30.8,8415],[30.5,8501],[30.5,8581],[30.2,8666],[29.9,8750],[29.8,8832],[29.8,8917],[29.8,8998],[29.8,9082],[29.8,9165],[29.4,9252],[24.7,9332],[24.4,9414],[23.4,9500],[23.1,9585],[22.5,9666],[22.5,9747],[21.6,9832],[19.3,9915],[19.3,9998],[19.3,10081],[19.1,10166],[18.4,10251],[17.9,10331],[13.8,10418],[13.4,10498],[13.4,10581],[13.4,10665],[13.4,10748],[12.8,10831],[12.8,10915],[12.8,10998],[12.7,11083],[10.8,11165],[10.8,11248],[10.8,11332],[10.8,11415],[10.8,11499],[10.8,11581],[10.8,11665]]",420.5623,427.4141,13.5431918,4.7498,"[{""rating"":13.543191800878478,""responseTime"":4.749800000000789}]",space,6.3162,,427.4144,Not at all,0,427.422,,,[],,0,4,4,4,1,audio/Narrative7Situation4.wav,audio/Narrative8Situation4.wav,audio/Narrative5Situation4.wav,audio/Narrative6Situation4.wav,3,3,1,2,,,,,,,,,,,,,,,,,,,,,,,,,,,,,,,,,,,,,
,,,,,672ceecd4b982fd2123fa32f,2025-07-08_00h05.29.608,group3.4_multiperson,2023.2.2,Win32,59.88023952,686c2ebf0248f13bef9af11f,686c96481f210a081c6dff5b,,,,,,,,,,,,,,,,,,,,,,,,,,,,,427.4226,1,audio/Narrative7Situation5.wav,432.4257,,432.4258,440.9105,"[[30.7,921],[30.7,1000],[30.7,1087],[34.9,1170],[39.6,1252],[41.1,1340],[41.9,1416],[42.7,1505],[45.5,1588],[45.8,1671],[47.7,1753],[47.8,1836],[49.7,1922],[49.9,2005],[49.9,2083],[49.9,2170],[49.9,2250],[49.9,2336],[49.9,2416],[49.9,2500],[49.9,2583],[49.9,2670],[49.9,2750],[49.9,2836],[49.9,2916],[49.9,3000],[49.9,3086],[49.9,3166],[49.9,3249],[49.9,3333],[49.9,3416],[49.9,3499],[49.9,3585],[49.9,3666],[49.9,3749],[49.9,3835],[49.9,3916],[49.9,4003],[49.9,4083],[49.9,4166],[49.9,4249],[49.9,4333],[49.9,4419],[50.7,4504],[55.4,4587],[56.4,4669],[57.6,4776],[60.7,4834],[65.2,4916],[65.4,5001],[66.4,5085],[70.5,5170],[71.7,5250],[71.7,5334],[72,5419],[72.3,5500],[73.3,5583],[73.7,5669],[74.5,5750],[74.6,5833],[75.5,5917],[76.4,6002],[76.8,6083],[76.8,6167],[76.8,6250],[77.5,6333],[77.5,6416],[77.5,6500],[77.5,6583],[77.5,6667],[77.5,6750],[77.5,6832],[77.5,6916],[77.5,7002],[77.5,7083],[77.5,7166],[77.5,7250],[77.5,7334],[77.5,7417],[77.5,7500],[77.5,7583],[77.5,7668],[77.5,7750],[77.5,7833],[77.5,7916],[77.5,8000],[77.5,8083],[77.5,8166],[77.5,8250],[77.5,8333],[77.5,8416]]",440.9109,447.5928,92.31332357,4.4696,"[{""rating"":92.31332357247437,""responseTime"":4.469600000001492}]",space,6.1372,,447.5931,Definitely yes,100,447.6,,,[],,0,5,5,5,1,audio/Narrative7Situation5.wav,audio/Narrative8Situation5.wav,audio/Narrative5Situation5.wav,audio/Narrative6Situation5.wav,5,2,5,2,,,,,,,,,,,,,,,,,,,,,,,,,,,,,,,,,,,,,
,,,,,672ceecd4b982fd2123fa32f,2025-07-08_00h05.29.608,group3.4_multiperson,2023.2.2,Win32,59.88023952,686c2ebf0248f13bef9af11f,686c96481f210a081c6dff5b,,,,,,,,,,,,,,,,,,,,,,,,,,,,,447.6007,1,audio/Narrative7Situation6.wav,450.6101,,450.6103,460.5925,"[[53.2,415],[52.8,498],[52.8,581],[52.8,666],[52.8,750],[52.8,833],[52.8,915],[52.8,1001],[51.2,1086],[50.7,1165],[50.7,1248],[50.7,1331],[50.6,1415],[50.6,1498],[50.6,1581],[51.9,1665],[54.7,1748],[61.1,1831],[64.8,1915],[70.8,2001],[74.7,2082],[87.2,2164],[89.5,2250],[92.6,2333],[94.8,2416],[95.8,2497],[97,2583],[97.3,2665],[97.6,2750],[97.7,2831],[97.7,2915],[97.9,2998],[97.9,3081],[98,3165],[98,3248],[98.3,3332],[98.3,3414],[98.3,3498],[98.3,3582],[98.3,3664],[98.3,3747],[98.3,3831],[98.3,3914],[98.3,3999],[98.3,4081],[98.3,4164],[98.3,4253],[98.3,4330],[98.3,4414],[98.3,4497],[98.3,4580],[98.3,4664],[98.3,4747],[98.3,4831],[98.3,4914],[98.3,4999],[98.3,5082],[98.3,5165],[98.3,5248],[98.3,5331],[98.3,5415],[98.3,5498],[98.3,5581],[98.3,5665],[98.3,5747],[98.3,5831],[98.3,5915],[98.3,5998],[98.3,6081],[98.3,6165],[98.3,6248],[98.3,6331],[98.3,6415],[98.3,6498],[98.3,6581],[98.3,6664],[98.3,6750],[98.3,6831],[98.3,6915],[98.3,6998],[98.3,7081],[98.3,7164],[98.3,7248],[98.3,7331],[98.3,7415],[98.3,7498],[98.3,7581],[98.3,7664],[98.3,7747],[98.3,7831],[98.3,7915],[98.3,7998],[98.3,8081],[98.3,8164],[98.3,8248],[98.3,8331],[98.3,8415],[98.3,8498],[98.3,8581],[98.3,8664],[98.3,8748],[98.3,8831],[98.3,8914],[98.3,8999],[98.3,9081],[98.3,9165],[98.3,9247],[98.3,9331],[98.3,9415],[98.3,9499],[98.3,9581],[98.3,9665],[98.3,9748],[98.3,9831],[98.3,9915]]",460.5928,467.2581,76.93997072,4.9067,"[{""rating"":76.93997071742314,""responseTime"":4.906699999999262}]",space,6.1176,,467.2583,Definitely yes,100,467.2609,,,[],,0,6,6,6,1,audio/Narrative7Situation6.wav,audio/Narrative8Situation6.wav,audio/Narrative5Situation6.wav,audio/Narrative6Situation6.wav,3,2,3,2,,,,,,,,,,,,,,,,,,,,,,,,,,,,,,,,,,,,,
,,,,,672ceecd4b982fd2123fa32f,2025-07-08_00h05.29.608,group3.4_multiperson,2023.2.2,Win32,59.88023952,686c2ebf0248f13bef9af11f,686c96481f210a081c6dff5b,,,,,,,,,,,,,,,,,,,,,,,,,,,,,467.2613,1,audio/Narrative7Situation7.wav,472.2749,,472.275,489.4569,"[[999,0],[999,83],[999,166],[999,250],[999,332],[999,416],[999,499],[999,582],[999,667],[999,751],[999,834],[999,916],[999,999],[999,1082],[999,1166],[999,1250],[999,1333],[999,1417],[999,1499],[71.7,1583],[64.1,1666],[60,1751],[44,1834],[45,1917],[45.9,2002],[56.1,2085],[57,2165],[60.4,2252],[72.4,2334],[74.6,2418],[84,2502],[86,2584],[90.8,2668],[92.8,2751],[93.2,2833],[93.8,2916],[94.5,3000],[95.1,3082],[95.7,3165],[96,3248],[96.4,3333],[96.9,3415],[97.1,3499],[97.4,3582],[97.6,3666],[97.6,3749],[97.6,3831],[97.9,3915],[97.9,4000],[98,4082],[98,4166],[98,4250],[98,4331],[98,4415],[98.2,4499],[98.2,4582],[98.2,4665],[98.2,4748],[98.2,4832],[98.2,4915],[98.3,4999],[98.3,5081],[98.3,5165],[98.6,5249],[98.8,5332],[98.9,5416],[98.9,5499],[98.9,5582],[98.9,5666],[98.9,5748],[98.9,5832],[98.9,5915],[98.9,6000],[98.9,6082],[98.9,6166],[98.9,6252],[98.9,6333],[98.9,6415],[98.9,6498],[98.9,6584],[98.9,6666],[98.9,6749],[98.9,6832],[98.9,6915],[98.9,6998],[98.9,7082],[98.9,7165],[98.9,7250],[98.9,7332],[98.9,7416],[98.9,7500],[98.9,7582],[98.9,7666],[98.9,7751],[98.9,7831],[98.9,7916],[98.9,7998],[98.9,8083],[98.9,8165],[98.9,8249],[98.9,8332],[98.9,8415],[98.9,8499],[98.9,8582],[98.9,8665],[98.9,8750],[98.9,8832],[98.9,8915],[98.9,8998],[98.9,9082],[98.9,9165],[98.9,9249],[98.9,9331],[98.9,9416],[98.9,9499],[98.9,9582],[98.9,9666],[98.9,9751],[98.9,9832],[98.9,9915],[98.9,10000],[98.9,10082],[98.9,10166],[98.9,10250],[98.9,10332],[98.9,10416],[98.9,10499],[98.9,10581],[98.9,10666],[98.9,10750],[98.9,10831],[98.9,10915],[98.9,11000],[98.9,11081],[98.9,11165],[98.9,11249],[98.9,11332],[98.9,11415],[98.9,11499],[98.9,11582],[98.9,11665],[98.9,11749],[98.9,11832],[98.9,11915],[98.9,11999],[98.9,12082],[98.9,12165],[98.9,12250],[98.9,12331],[98.9,12415],[98.9,12499],[98.9,12582],[98.9,12665],[98.9,12749],[98.9,12831],[98.9,12915],[98.9,12999],[98.9,13081],[98.9,13165],[98.9,13249],[98.9,13332],[98.9,13415],[98.9,13499],[98.9,13582],[98.9,13666],[98.9,13749],[98.9,13832],[98.9,13915],[98.9,13998],[98.9,14081],[98.9,14165],[98.9,14250],[98.9,14332],[98.9,14415],[98.9,14499],[98.9,14583],[98.9,14664],[98.9,14748],[98.9,14831],[98.9,14915],[98.9,14999],[98.9,15082],[98.9,15164],[98.9,15249],[98.9,15332],[98.9,15416],[98.9,15500],[98.9,15582],[98.9,15665],[98.9,15749],[98.9,15832],[98.9,15915],[98.9,15999],[98.9,16082],[98.9,16164],[98.9,16249],[98.9,16331],[98.9,16415],[98.9,16499],[98.9,16582],[98.9,16666],[98.9,16750],[98.9,16832],[98.9,16915],[98.9,16999],[98.9,17082],[98.9,17165]]",489.4571,495.1907,79.42898975,3.8041,"[{""rating"":79.42898975109809,""responseTime"":3.80410000000154}]",space,5.2014,,495.1912,Definitely yes,100,495.1966,,,[],,0,7,7,7,1,audio/Narrative7Situation7.wav,audio/Narrative8Situation7.wav,audio/Narrative5Situation7.wav,audio/Narrative6Situation7.wav,5,3,4,5,,,,,,,,,,,,,,,,,,,,,,,,,,,,,,,,,,,,,
,,,,,672ceecd4b982fd2123fa32f,2025-07-08_00h05.29.608,group3.4_multiperson,2023.2.2,Win32,59.88023952,686c2ebf0248f13bef9af11f,686c96481f210a081c6dff5b,,,,,,,,,,,,,,,,,,,,,,,,,,,,,495.1973,1,audio/Narrative7Situation8.wav,497.2067,,497.2068,507.2259,"[[69.9,84],[69.6,169],[68.9,250],[68.7,332],[63,417],[62.7,500],[60.5,592],[59.5,666],[56.7,749],[56.7,832],[56.7,916],[56.7,999],[56.6,1082],[56.6,1166],[57,1250],[63.2,1333],[74.7,1416],[75.3,1499],[77.4,1583],[79,1669],[81,1751],[81.9,1834],[82.5,1916],[82.9,2000],[83.5,2083],[83.7,2166],[83.8,2249],[84.1,2332],[84.8,2418],[84.8,2499],[85,2582],[85,2665],[85.1,2749],[85.1,2832],[85.1,2915],[85.1,2999],[85.1,3082],[85.1,3166],[85.1,3249],[85.1,3333],[85.1,3417],[85.1,3499],[85.1,3582],[85.1,3665],[85.1,3749],[85.1,3833],[85.1,3916],[85.1,3999],[85.4,4083],[85.4,4166],[85.4,4250],[85.4,4334],[85.9,4415],[85.9,4499],[86,4584],[86,4669],[86.2,4749],[86.2,4833],[86.2,4916],[86.2,5000],[86.2,5082],[86.2,5166],[86.2,5251],[86.2,5332],[86.2,5416],[86.2,5499],[86.2,5583],[86.2,5666],[86.2,5749],[86.2,5832],[86.2,5916],[86.2,5999],[86.2,6082],[86.2,6166],[86.2,6249],[86.3,6334],[86.3,6416],[86.3,6499],[86.7,6584],[87,6668],[87,6749],[87,6833],[87,6916],[87,6999],[87,7082],[87,7165],[87,7250],[87,7332],[87,7416],[87,7499],[87,7582],[87,7666],[87.3,7749],[87.6,7834],[87.6,7916],[87.6,7999],[87.6,8082],[87.6,8166],[87.6,8249],[87.6,8332],[87.6,8416],[87.6,8499],[87.6,8583],[87.6,8666],[87.6,8749],[87.6,8832],[87.6,8916],[87.6,8999],[87.6,9082],[87.6,9166],[87.8,9250],[87.8,9332],[87.8,9426],[88.1,9499],[88.7,9582],[91.9,9666],[92.5,9749],[92.5,9833],[92.5,9916],[92.5,9999]]",507.2264,511.9225,97.14494876,3.034,"[{""rating"":97.14494875549049,""responseTime"":3.033999999999992}]",space,4.1594,,511.9226,Partially,50,511.9263,,,[],,0,8,8,8,1,audio/Narrative7Situation8.wav,audio/Narrative8Situation8.wav,audio/Narrative5Situation8.wav,audio/Narrative6Situation8.wav,2,3,3,5,,,,,,,,,,,,,,,,,,,,,,,,,,,,,,,,,,,,,
,,,,,672ceecd4b982fd2123fa32f,2025-07-08_00h05.29.608,group3.4_multiperson,2023.2.2,Win32,59.88023952,686c2ebf0248f13bef9af11f,686c96481f210a081c6dff5b,,,,,,,,,,,,,,,,,,,,,,,,,,,,,511.9268,1,audio/Narrative7Situation9.wav,513.939,,513.9392,522.555,"[[999,0],[999,83],[999,166],[999,250],[999,332],[999,416],[999,500],[999,583],[999,667],[999,751],[999,835],[999,916],[999,1002],[52.6,1086],[51.5,1166],[50.7,1251],[50.6,1334],[50.6,1417],[50.6,1500],[50.7,1587],[56,1666],[61.9,1749],[62.9,1835],[67.4,1919],[70.1,2000],[75.3,2083],[78.6,2169],[87.6,2252],[91.4,2333],[93.5,2416],[94.2,2499],[98.5,2586],[98.5,2666],[98.5,2750],[98.5,2833],[98.5,2916],[98.5,2999],[98.5,3082],[98.3,3167],[98.3,3249],[98.3,3333],[98.3,3416],[98.3,3500],[98.3,3583],[98.3,3666],[98.3,3750],[98.3,3833],[98.3,3916],[98.3,3999],[98.3,4083],[98.3,4166],[98.3,4249],[98.3,4333],[98.3,4416],[98.3,4500],[98.3,4583],[98,4667],[98,4751],[98,4833],[98,4917],[98,4999],[98,5082],[98,5166],[98,5250],[98,5333],[98,5416],[98,5500],[98,5583],[98,5667],[98,5750],[98,5833],[98,5916],[98,5999],[98,6083],[98,6166],[98,6249],[98,6333],[98,6416],[98,6499],[98,6582],[98,6667],[98,6749],[98,6832],[98,6916],[98,6999],[98,7083],[98,7166],[98,7249],[98,7332],[98,7415],[98,7500],[98,7582],[98,7666],[98,7749],[98,7834],[98,7917],[98,7999],[98,8082],[98,8167],[98,8249],[98,8332],[98,8415],[98,8498],[98,8582]]",522.555,527.2226,97.87701318,2.9539,"[{""rating"":97.87701317715958,""responseTime"":2.953899999998498}]",space,4.1208,,527.2229,Not at all,0,527.2329,,,[],,0,9,9,9,1,audio/Narrative7Situation9.wav,audio/Narrative8Situation9.wav,audio/Narrative5Situation9.wav,audio/Narrative6Situation9.wav,2,3,3,4,,,,,,,,,,,,,,,,,,,,,,,,,,,,,,,,,,,,,
,,,,,672ceecd4b982fd2123fa32f,2025-07-08_00h05.29.608,group3.4_multiperson,2023.2.2,Win32,59.88023952,686c2ebf0248f13bef9af11f,686c96481f210a081c6dff5b,,,,,,,,,,,,,,,,,,,,,,,,,,,,,527.2334,1,audio/Narrative8Situation1.wav,532.2385,,532.2386,548.1543,"[[54.1,919],[54,999],[52.5,1084],[52.3,1167],[52.3,1249],[52.3,1333],[52,1416],[52,1498],[52,1583],[52,1665],[52,1750],[52,1832],[52,1915],[52,1999],[51.5,2084],[51,2166],[51,2249],[51,2332],[51,2417],[51,2499],[51,2583],[50.9,2665],[50.9,2749],[50.9,2833],[50.9,2915],[50.9,2999],[51,3082],[51.9,3168],[51.9,3249],[51.9,3333],[51.9,3415],[51.9,3498],[51.9,3582],[51.9,3665],[51.5,3748],[51.5,3832],[51.5,3915],[51.5,3998],[51.5,4082],[51.5,4165],[51.5,4248],[51.5,4332],[51.5,4416],[51.5,4499],[51.8,4583],[52,4666],[52.5,4750],[52.6,4832],[52.6,4915],[52.6,4998],[52.8,5082],[52.9,5166],[55.7,5250],[61.4,5335],[61.4,5417],[61.9,5502],[62,5583],[62.2,5667],[62.3,5750],[62.3,5833],[62.4,5917],[62.6,5998],[62.6,6082],[62.6,6167],[62.6,6249],[62.6,6333],[62.6,6418],[62.6,6499],[62.6,6583],[62.6,6667],[62.6,6750],[62.6,6833],[62.6,6917],[62.6,6998],[62.6,7082],[62.6,7166],[62.6,7249],[62.6,7332],[62.6,7416],[62.6,7499],[62.6,7583],[62.6,7666],[62.6,7750],[62.6,7833],[62.6,7915],[62.6,8000],[62.6,8082],[62.6,8167],[62.6,8249],[62.6,8331],[62.6,8416],[62.6,8499],[62.6,8583],[62.6,8666],[62.6,8750],[62.6,8833],[62.6,8917],[62.6,8998],[62.6,9082],[62.6,9166],[62.6,9250],[62.6,9332],[62.6,9417],[62.6,9499],[62.6,9581],[63.5,9667],[63.9,9749],[67.3,9832],[68.3,9919],[70.2,9999],[70.2,10082],[70.4,10167],[73,10250],[73.6,10333],[74,10418],[75.3,10501],[75.8,10582],[77.8,10667],[80.7,10751],[80.7,10832],[81,10917],[81,10999],[81.2,11083],[81.8,11166],[83.4,11249],[84.4,11335],[85.1,11416],[85.1,11498],[85.1,11581],[85.1,11665],[85.1,11748],[85.1,11831],[85.1,11915],[85.1,11998],[85.1,12081],[85.1,12165],[85.1,12248],[85.1,12331],[85.1,12415],[85.1,12498],[88.2,12581],[88.7,12665],[88.7,12748],[88.7,12831],[88.7,12914],[88.7,12998],[88.7,13081],[88.7,13164],[88.7,13248],[88.7,13331],[88.7,13415],[88.7,13498],[88.7,13581],[88.7,13664],[88.7,13748],[88.7,13831],[88.7,13915],[88.7,13998],[88.7,14081],[88.7,14165],[88.7,14248],[88.7,14332],[88.7,14416],[88.7,14498],[88.7,14581],[88.7,14665],[88.7,14749],[88.7,14831],[88.7,14915],[88.7,14998],[88.7,15081],[88.7,15164],[88.7,15248],[88.7,15332],[88.7,15415],[88.7,15498],[88.7,15582],[88.7,15665],[88.7,15748],[88.7,15831],[88.7,15915]]",548.1546,553.0542,66.39824305,2.187,"[{""rating"":66.398243045388,""responseTime"":2.187000000000012}]",space,4.3726,,553.0544,Partially,50,553.0636,,,[],,0,10,10,10,1,audio/Narrative8Situation1.wav,audio/Narrative7Situation1.wav,audio/Narrative6Situation1.wav,audio/Narrative5Situation1.wav,5,2,2,5,,,,,,,,,,,,,,,,,,,,,,,,,,,,,,,,,,,,,
,,,,,672ceecd4b982fd2123fa32f,2025-07-08_00h05.29.608,group3.4_multiperson,2023.2.2,Win32,59.88023952,686c2ebf0248f13bef9af11f,686c96481f210a081c6dff5b,,,,,,,,,,,,,,,,,,,,,,,,,,,,,553.0643,1,audio/Narrative8Situation2.wav,556.0732,,556.0733,566.2044,"[[59.5,82],[57.3,166],[56.9,247],[55,331],[54.2,413],[53.1,499],[52.8,581],[52.3,665],[52,748],[51.6,831],[51.6,914],[51.6,998],[51.6,1081],[51.9,1165],[52.3,1247],[53.8,1332],[53.8,1413],[53.8,1497],[53.8,1581],[53.4,1666],[51.5,1746],[51.5,1832],[50.9,1915],[50.9,1997],[50.7,2081],[50.7,2164],[50.4,2247],[50.4,2330],[50.4,2414],[50.4,2496],[50.4,2581],[51.5,2665],[52,2747],[57.8,2832],[58.1,2916],[58.5,2997],[60,3083],[61.6,3166],[61.6,3246],[61.6,3330],[61.9,3415],[64.1,3497],[65.1,3582],[68,3664],[68.4,3747],[68.7,3831],[70.5,3916],[70.9,3997],[71.1,4080],[71.1,4164],[71.1,4247],[71.1,4331],[71.2,4416],[71.2,4497],[71.2,4580],[71.7,4663],[71.8,4748],[72.1,4831],[72.5,4914],[72.5,4997],[72.7,5081],[72.7,5163],[72.7,5246],[72.7,5330],[72.7,5413],[72.7,5496],[72.7,5580],[72.7,5663],[72.7,5747],[72.7,5831],[73,5913],[73,5996],[73,6080],[73,6163],[73,6247],[73,6330],[73,6413],[72.7,6496],[72.7,6579],[72.7,6663],[72.7,6747],[72.4,6830],[72.1,6916],[70.6,6998],[70.1,7082],[69.6,7163],[68.9,7247],[68.3,7333],[67.9,7415],[66.5,7499],[66.1,7582],[64.3,7665],[64.2,7747],[64.2,7831],[64.2,7914],[64.1,7997],[64.1,8080],[64.1,8163],[64.1,8246],[64.1,8330],[64.1,8413],[64.1,8496],[64.1,8580],[64.1,8663],[64.1,8747],[64.1,8830],[64.1,8913],[64.1,8996],[64.1,9081],[64.1,9162],[64.1,9246],[64.1,9340],[64.1,9413],[64.1,9496],[64.1,9579],[64.1,9662],[64.1,9746],[64.1,9830],[64.1,9914],[64.1,9996],[64.1,10081]]",566.2052,572.2204,61.71303075,3.3894,"[{""rating"":61.71303074670571,""responseTime"":3.3894000000021833}]",space,5.4713,,572.2207,Not at all,0,572.2283,,,[],,0,11,11,11,1,audio/Narrative8Situation2.wav,audio/Narrative7Situation2.wav,audio/Narrative6Situation2.wav,audio/Narrative5Situation2.wav,3,3,3,3,,,,,,,,,,,,,,,,,,,,,,,,,,,,,,,,,,,,,
,,,,,672ceecd4b982fd2123fa32f,2025-07-08_00h05.29.608,group3.4_multiperson,2023.2.2,Win32,59.88023952,686c2ebf0248f13bef9af11f,686c96481f210a081c6dff5b,,,,,,,,,,,,,,,,,,,,,,,,,,,,,572.229,1,audio/Narrative8Situation3.wav,576.2357,,576.2358,598.6182,"[[61.4,917],[60.5,1000],[57.5,1083],[56.9,1169],[56,1250],[54.7,1337],[51.5,1420],[51.5,1501],[51.5,1583],[51.5,1667],[51.5,1750],[51.5,1833],[51.5,1917],[51,2001],[51,2084],[51,2167],[51,2250],[51,2334],[51,2417],[51,2500],[51,2584],[51,2667],[51,2750],[51,2835],[52.2,2920],[53.2,3000],[54,3085],[54.7,3167],[57,3250],[60.2,3336],[61.1,3420],[66.5,3501],[68.3,3584],[69.3,3667],[69.8,3750],[69.9,3835],[71.8,3917],[71.8,3999],[71.8,4083],[72.3,4170],[73.1,4252],[73.1,4334],[73.1,4416],[73.1,4500],[73.1,4583],[73.3,4667],[74.2,4750],[74.5,4833],[74.6,4919],[74.7,5000],[74.9,5083],[75.3,5168],[75.6,5250],[76.2,5334],[76.4,5417],[76.4,5500],[76.5,5587],[76.5,5667],[76.6,5749],[76.8,5834],[76.8,5916],[76.8,5999],[76.8,6082],[76.8,6166],[76.8,6249],[76.8,6332],[76.8,6416],[76.8,6499],[76.9,6583],[76.9,6666],[77.1,6749],[77.4,6834],[77.7,6916],[77.7,7000],[77.7,7083],[77.7,7167],[77.7,7249],[77.7,7333],[77.7,7416],[77.7,7500],[77.7,7583],[77.7,7667],[77.7,7749],[77.7,7833],[77.7,7917],[77.7,8000],[77.7,8083],[77.7,8167],[75.3,8251],[75.6,8332],[75.6,8417],[75.6,8500],[76.1,8584],[76.5,8666],[76.8,8751],[76.8,8833],[76.9,8918],[76.9,9000],[77.1,9083],[77.4,9169],[77.7,9250],[78.4,9334],[78.4,9417],[78.7,9502],[79.3,9584],[79.7,9667],[80.7,9750],[80.9,9833],[80.9,9916],[80.9,10001],[80.9,10083],[80.9,10167],[80.9,10250],[81,10333],[81.3,10419],[81.3,10499],[81.3,10583],[81.3,10667],[81.3,10749],[81.3,10834],[81.3,10916],[81.3,10999],[81.3,11083],[81.3,11167],[81.3,11249],[81.3,11332],[81.3,11416],[81.3,11499],[81.3,11583],[81.3,11666],[81.3,11750],[81.3,11832],[81.3,11916],[81.3,11999],[81.3,12082],[81.3,12165],[81.3,12249],[81.3,12333],[81.3,12416],[81.3,12500],[81.3,12582],[81.3,12666],[81.3,12749],[81.3,12833],[81.3,12916],[81.3,12999],[81.3,13082],[81.3,13165],[81.3,13249],[81.3,13334],[81.3,13415],[81.3,13499],[81.8,13582],[82.9,13665],[82.9,13749],[83.7,13832],[83.8,13916],[84.3,14000],[84.6,14083],[84.6,14166],[84.8,14249],[84.8,14332],[84.8,14416],[84.8,14500],[84.8,14583],[84.8,14666],[84.8,14749],[84.8,14832],[84.8,14915],[84.8,14999],[84.8,15083],[85,15170],[85.7,15250],[85.7,15333],[85.7,15415],[86,15501],[86.5,15583],[86.5,15667],[87,15750],[87,15833],[87,15915],[87,15999],[87,16082],[87,16165],[87,16249],[87,16333],[87,16415],[87,16499],[87,16582],[87,16666],[87,16750],[87,16833],[87,16915],[87,16999],[87,17083],[87,17166],[87,17249],[87,17333],[87,17416],[87,17499],[87,17583],[87,17666],[87,17749],[87,17832],[87,17916],[87,17999],[87,18083],[87,18166],[87.2,18250],[87.2,18332],[87.2,18416],[87.3,18501],[87.6,18583],[87.6,18666],[87.6,18750],[87.8,18834],[87.9,18915],[87.9,18999],[87.9,19083],[88.2,19167],[88.2,19249],[88.7,19334],[88.7,19416],[88.7,19499],[88.7,19583],[88.7,19666],[88.7,19751],[88.7,19833],[88.7,19916],[88.7,19999],[88.7,20082],[88.7,20166],[88.7,20249],[88.7,20333],[88.7,20416],[88.7,20499],[88.7,20582],[88.7,20666],[88.7,20749],[88.7,20832],[88.7,20918],[88.7,20999],[88.7,21083],[88.7,21166],[88.7,21251],[88.7,21332],[88.7,21416],[88.7,21500],[88.7,21583],[88.7,21666],[88.7,21749],[88.7,21833],[88.7,21916],[88.7,21999],[88.7,22082],[88.7,22166],[88.7,22249],[88.7,22333]]",598.6184,602.3732,88.06734993,1.9358,"[{""rating"":88.06734992679355,""responseTime"":1.9358000000007678}]",space,3.2311,,602.3733,Definitely yes,100,602.3794,,,[],,0,12,12,12,1,audio/Narrative8Situation3.wav,audio/Narrative7Situation3.wav,audio/Narrative6Situation3.wav,audio/Narrative5Situation3.wav,4,8,5,3,,,,,,,,,,,,,,,,,,,,,,,,,,,,,,,,,,,,,
,,,,,672ceecd4b982fd2123fa32f,2025-07-08_00h05.29.608,group3.4_multiperson,2023.2.2,Win32,59.88023952,686c2ebf0248f13bef9af11f,686c96481f210a081c6dff5b,,,,,,,,,,,,,,,,,,,,,,,,,,,,,602.3799,1,audio/Narrative8Situation4.wav,605.388,,605.3881,619.5677,"[[999,0],[999,83],[999,166],[999,250],[999,334],[999,417],[999,501],[999,584],[999,667],[999,751],[999,833],[57,921],[53.7,1002],[50.1,1084],[49.3,1169],[49.3,1249],[48.8,1333],[48.8,1419],[48.8,1500],[48.8,1585],[48.8,1666],[48.8,1750],[48.8,1834],[48.8,1917],[48.8,1999],[48.8,2084],[48.8,2166],[48.8,2249],[48.8,2334],[48.8,2417],[48.8,2500],[48.8,2583],[48.8,2667],[49,2753],[50.1,2833],[51.3,2916],[51.6,3001],[53.2,3082],[59.4,3166],[62.4,3249],[64.2,3334],[64.3,3417],[65.2,3499],[66.3,3583],[68,3669],[69.5,3752],[71.5,3833],[73.4,3918],[74.7,3999],[75.9,4082],[83.4,4168],[84.8,4248],[85.4,4332],[85.9,4419],[86.3,4499],[86.3,4582],[86.3,4665],[86.3,4749],[86.3,4832],[86.3,4916],[86.3,4998],[86.3,5083],[86.3,5167],[86.3,5249],[86.5,5333],[86.6,5415],[87,5500],[87.3,5583],[87.8,5667],[87.8,5749],[88.2,5835],[88.4,5915],[88.4,5998],[88.7,6082],[88.7,6165],[88.8,6251],[89.2,6332],[89.4,6416],[89.4,6498],[89.4,6581],[89.5,6665],[89.5,6748],[89.8,6832],[90,6915],[90,6998],[90,7082],[90.4,7166],[90.4,7249],[90.4,7334],[90.4,7416],[90.4,7499],[90.7,7585],[91.6,7667],[92.6,7765],[92.6,7846],[93.6,7933],[93.9,8018],[94.4,8097],[94.8,8182],[95.5,8263],[95.8,8350],[95.8,8433],[95.5,8518],[95.4,8599],[95.7,8684],[97.4,8769],[98.5,8845],[98.6,8929],[98.6,9012],[98.6,9096],[98.8,9180],[98.9,9267],[99,9351],[99,9429],[99,9516],[99,9596],[99,9679],[99,9767],[99,9849],[99,9931],[99,10012],[99,10096],[99,10182],[99,10267],[99,10346],[99,10433],[99,10512],[99,10596],[99,10683],[99,10763],[99,10849],[99,10930],[99,11012],[99,11098],[99,11178],[99,11266],[99,11346],[99,11433],[99,11516],[99,11597],[99,11679],[99,11766],[99,11849],[99,11932],[99,12016],[99,12096],[99,12179],[99,12265],[99,12345],[99,12429],[99,12515],[99,12596],[99,12679],[99,12765],[99,12845],[99,12928],[99,13014],[99,13095],[99,13182],[99,13262],[99,13346],[99,13431],[99,13512],[99,13599],[99,13680],[99,13762],[99,13848],[99,13931],[99,14011],[99,14096],[99,14179]]",619.5682,623.2203,99.04831625,2.0507,"[{""rating"":99.04831625183016,""responseTime"":2.0506999999992104}]",space,3.1132,,623.2204,Definitely yes,100,623.2215,,,[],,0,13,13,13,1,audio/Narrative8Situation4.wav,audio/Narrative7Situation4.wav,audio/Narrative6Situation4.wav,audio/Narrative5Situation4.wav,3,3,2,1,,,,,,,,,,,,,,,,,,,,,,,,,,,,,,,,,,,,,
,,,,,672ceecd4b982fd2123fa32f,2025-07-08_00h05.29.608,group3.4_multiperson,2023.2.2,Win32,59.88023952,686c2ebf0248f13bef9af11f,686c96481f210a081c6dff5b,,,,,,,,,,,,,,,,,,,,,,,,,,,,,623.2217,1,audio/Narrative8Situation5.wav,625.2366,,625.2367,633.4832,"[[97.9,748],[90.1,831],[76.6,913],[64.2,996],[52.6,1080],[52.3,1164],[51.3,1247],[56.1,1330],[65.8,1415],[66,1497],[71.5,1580],[75.2,1664],[79,1747],[80.9,1831],[84.1,1914],[85.1,1997],[86.3,2084],[89.7,2165],[90.7,2248],[90.8,2331],[92,2415],[93.9,2498],[94.4,2580],[95.5,2666],[96.7,2746],[96.9,2832],[97,2914],[97.6,2996],[97.7,3080],[97.7,3163],[97.7,3248],[97.7,3330],[97.7,3413],[97.7,3498],[97.7,3579],[97.7,3663],[97.7,3748],[97.7,3831],[97.7,3913],[97.9,3997],[98,4080],[98.2,4164],[98.2,4248],[98.2,4330],[98.2,4414],[98.2,4498],[98.2,4580],[98.3,4663],[98.3,4748],[98.3,4830],[98.3,4914],[98.3,4997],[98.3,5080],[98.3,5163],[98.3,5248],[98.3,5330],[98.3,5414],[98.3,5497],[98.3,5580],[98.3,5664],[98.3,5748],[98.3,5830],[98.3,5913],[98.3,5997],[98.3,6080],[98.3,6163],[98.3,6246],[98.3,6330],[98.3,6414],[98.3,6496],[98.3,6579],[98.3,6663],[98.3,6748],[98.3,6830],[98.3,6914],[98.3,6996],[98.3,7079],[98.3,7163],[98.3,7247],[98.3,7330],[98.3,7413],[98.3,7496],[98.3,7580],[98.3,7663],[98.3,7747],[98.3,7830],[98.3,7913],[98.3,7996],[98.3,8079],[98.3,8162],[98.3,8246]]",633.4833,636.9006,98.31625183,1.9445,"[{""rating"":98.31625183016106,""responseTime"":1.9444999999999482}]",space,2.8705,,636.9008,Not at all,0,636.9083,,,[],,0,14,14,14,1,audio/Narrative8Situation5.wav,audio/Narrative7Situation5.wav,audio/Narrative6Situation5.wav,audio/Narrative5Situation5.wav,2,5,2,5,,,,,,,,,,,,,,,,,,,,,,,,,,,,,,,,,,,,,
,,,,,672ceecd4b982fd2123fa32f,2025-07-08_00h05.29.608,group3.4_multiperson,2023.2.2,Win32,59.88023952,686c2ebf0248f13bef9af11f,686c96481f210a081c6dff5b,,,,,,,,,,,,,,,,,,,,,,,,,,,,,636.9092,1,audio/Narrative8Situation6.wav,638.9178,,638.9179,645.4171,"[[999,1],[999,83],[999,165],[999,249],[999,332],[999,415],[999,499],[50.3,582],[50.3,668],[49.9,749],[49.9,832],[49.9,918],[49.9,1001],[49.9,1082],[49.9,1165],[50.3,1251],[50.6,1332],[50.7,1415],[50.7,1499],[51.3,1581],[51.8,1668],[54.4,1750],[56.3,1831],[58.3,1915],[62,2000],[63,2083],[63.5,2168],[64.3,2250],[64.6,2331],[65.8,2417],[66,2499],[67.4,2583],[68.6,2665],[69,2749],[71.8,2831],[73,2915],[73.6,2998],[74.6,3084],[75.2,3168],[76.2,3251],[76.5,3332],[78.6,3418],[79.3,3499],[80.6,3582],[81.3,3665],[81.8,3748],[81.9,3831],[82.5,3914],[83.5,3999],[84.8,4084],[85.6,4167],[85.9,4248],[85.9,4332],[86,4418],[87.2,4500],[89.1,4583],[89.1,4665],[89.1,4749],[89.5,4834],[90.1,4915],[90.3,4999],[90.3,5082],[90.3,5164],[90.3,5248],[91,5331],[91.1,5414],[91.1,5499],[91.6,5582],[91.6,5665],[91.6,5748],[91.6,5831],[93,5917],[94.4,5999],[94.4,6081],[94.4,6164],[94.4,6248],[95.2,6333],[97.3,6419],[97.3,6498]]",645.4175,648.4325,96.99853587,1.5718,"[{""rating"":96.99853587115666,""responseTime"":1.571800000000735}]",space,2.477,,648.4326,Definitely yes,100,648.4349,,,[],,0,15,15,15,1,audio/Narrative8Situation6.wav,audio/Narrative7Situation6.wav,audio/Narrative6Situation6.wav,audio/Narrative5Situation6.wav,2,3,2,3,,,,,,,,,,,,,,,,,,,,,,,,,,,,,,,,,,,,,
,,,,,672ceecd4b982fd2123fa32f,2025-07-08_00h05.29.608,group3.4_multiperson,2023.2.2,Win32,59.88023952,686c2ebf0248f13bef9af11f,686c96481f210a081c6dff5b,,,,,,,,,,,,,,,,,,,,,,,,,,,,,648.4351,1,audio/Narrative8Situation7.wav,651.4502,,651.4503,663.5496,"[[49.7,999],[49.7,1083],[49.7,1166],[49.9,1249],[49.9,1332],[49.9,1415],[49.9,1498],[49.9,1582],[49.9,1666],[49.9,1749],[49.9,1832],[49.9,1916],[49.9,1998],[49.9,2082],[49.9,2165],[49.9,2249],[49.9,2331],[49.9,2415],[49.9,2498],[49.9,2582],[49.9,2665],[49.9,2749],[49.9,2831],[49.9,2915],[49.9,2999],[49.9,3081],[50,3167],[50.3,3250],[51.2,3333],[51.8,3415],[52.5,3500],[60,3582],[70.6,3666],[75.2,3749],[77.8,3832],[80,3915],[81.9,3999],[83.5,4086],[84,4165],[84.6,4253],[85.3,4331],[85.3,4415],[86.6,4498],[86.9,4582],[86.9,4664],[86.9,4748],[86.9,4831],[87.2,4914],[87.2,4997],[87.3,5082],[87.3,5164],[88.2,5251],[88.4,5335],[89.4,5416],[89.5,5497],[89.5,5581],[89.8,5666],[91.4,5749],[91.6,5832],[93.8,5917],[94.2,5998],[95.4,6082],[95.4,6166],[96.3,6249],[96.4,6332],[97.4,6415],[97.4,6499],[97.4,6582],[97.4,6664],[97.4,6749],[97.4,6832],[97.4,6915],[97.4,6999],[97.4,7082],[97.4,7165],[97.4,7248],[97.4,7331],[97.4,7416],[97.4,7499],[97.4,7582],[97.4,7665],[97.4,7749],[97.4,7832],[97.4,7915],[97.4,7999],[97.4,8081],[97.4,8165],[97.4,8248],[97.4,8332],[97.4,8416],[97.4,8499],[97.4,8582],[97.4,8664],[97.4,8749],[97.4,8832],[97.4,8915],[97.4,9000],[97.4,9081],[97.4,9165],[97.4,9249],[97.4,9332],[97.4,9415],[97.4,9499],[97.4,9584],[97.4,9665],[97.4,9748],[97.4,9832],[97.4,9915],[97.4,9998],[97.4,10082],[97.4,10165],[97.4,10248],[97.4,10331],[97.4,10415],[97.4,10498],[97.4,10581],[97.4,10665],[97.4,10748],[97.4,10831],[97.4,10915],[97.4,10999],[97.4,11082],[97.4,11165],[97.4,11249],[97.4,11332],[97.4,11414],[97.4,11498],[97.4,11582],[97.4,11664],[97.4,11747],[97.4,11831],[97.4,11915],[97.4,11998],[97.4,12082]]",663.5505,666.8164,98.16983895,1.4761,"[{""rating"":98.16983894582722,""responseTime"":1.4761000000015656}]",space,2.7179,,666.8168,Partially,50,666.8248,,,[],,0,16,16,16,1,audio/Narrative8Situation7.wav,audio/Narrative7Situation7.wav,audio/Narrative6Situation7.wav,audio/Narrative5Situation7.wav,3,5,5,4,,,,,,,,,,,,,,,,,,,,,,,,,,,,,,,,,,,,,
,,,,,672ceecd4b982fd2123fa32f,2025-07-08_00h05.29.608,group3.4_multiperson,2023.2.2,Win32,59.88023952,686c2ebf0248f13bef9af11f,686c96481f210a081c6dff5b,,,,,,,,,,,,,,,,,,,,,,,,,,,,,666.8255,1,audio/Narrative8Situation8.wav,669.8323,,669.8324,682.6987,"[[999,1],[999,82],[999,166],[999,249],[999,334],[999,416],[999,501],[999,584],[49.6,668],[49.4,750],[49.4,833],[49.4,918],[49.3,1003],[49.3,1082],[49.3,1166],[49.3,1249],[49.3,1333],[49.3,1415],[49.3,1499],[49.3,1582],[49.3,1668],[49.3,1752],[49.3,1834],[49.3,1916],[49.3,1999],[49.3,2083],[49.3,2166],[49.3,2249],[49.3,2332],[49.3,2415],[49.9,2502],[50,2582],[50.6,2668],[51.5,2750],[53.1,2832],[53.7,2917],[54.1,3000],[55,3085],[57.3,3165],[58.6,3249],[58.8,3334],[59.8,3416],[60.1,3499],[60.2,3583],[60.4,3666],[61.6,3751],[62.6,3833],[63.5,3917],[64.5,4000],[65.7,4086],[68.2,4167],[69.8,4252],[70.9,4335],[72.1,4417],[72.7,4500],[73.1,4582],[73.1,4665],[74.5,4754],[76.8,4833],[76.9,4918],[76.9,4999],[77.7,5086],[87,5166],[87.3,5249],[88.5,5334],[91.4,5416],[91.6,5500],[92.6,5582],[92.9,5665],[92.9,5750],[93,5835],[93.6,5915],[95.1,6000],[95.5,6083],[96.7,6168],[98,6249],[98.5,6335],[98.6,6418],[98.6,6499],[98.6,6582],[98.6,6666],[98.6,6749],[98.6,6832],[98.6,6915],[98.6,6999],[98.6,7083],[98.6,7165],[98.6,7250],[98.6,7333],[98.6,7415],[98.6,7499],[98.6,7582],[98.6,7665],[98.6,7749],[98.6,7833],[98.6,7916],[98.6,7998],[98.6,8082],[98.6,8166],[98.6,8249],[98.6,8332],[98.6,8415],[98.6,8499],[98.6,8582],[98.6,8665],[98.6,8749],[98.6,8833],[98.6,8915],[98.6,8998],[98.6,9081],[98.6,9165],[98.6,9248],[98.6,9331],[98.6,9414],[98.6,9498],[98.6,9581],[98.6,9664],[98.6,9748],[98.6,9833],[98.6,9916],[98.6,9999],[98.6,10082],[98.6,10166],[98.6,10248],[98.6,10331],[98.6,10414],[98.6,10499],[98.6,10582],[98.6,10665],[98.6,10749],[98.6,10833],[98.6,10915],[98.6,10998],[98.6,11083],[98.6,11166],[98.6,11249],[98.6,11332],[98.6,11415],[98.6,11500],[98.6,11582],[98.6,11666],[98.6,11749],[98.6,11833],[98.6,11915],[98.6,11999],[98.6,12086],[98.6,12165],[98.6,12248],[98.6,12332],[98.6,12416],[98.6,12500],[98.6,12582],[98.6,12665],[98.6,12748],[98.6,12833]]",682.6994,687.4156,98.6090776,1.5119,"[{""rating"":98.6090775988287,""responseTime"":1.5118999999984908}]",space,4.168,,687.4158,Definitely yes,100,687.4248,,,[],,0,17,17,17,1,audio/Narrative8Situation8.wav,audio/Narrative7Situation8.wav,audio/Narrative6Situation8.wav,audio/Narrative5Situation8.wav,3,2,5,3,,,,,,,,,,,,,,,,,,,,,,,,,,,,,,,,,,,,,
,,,,,672ceecd4b982fd2123fa32f,2025-07-08_00h05.29.608,group3.4_multiperson,2023.2.2,Win32,59.88023952,686c2ebf0248f13bef9af11f,686c96481f210a081c6dff5b,,,,,,,,,,,,,,,,,,,,,,,,,,,,,687.4258,1,audio/Narrative8Situation9.wav,690.4311,,690.4312,701.7648,"[[36.5,502],[36.7,584],[36.7,666],[36.7,751],[38.9,836],[48.5,919],[48.5,999],[48.8,1085],[50.7,1166],[50.7,1249],[50.7,1334],[50.6,1415],[50.3,1500],[50.3,1583],[50.3,1666],[50.3,1749],[50.3,1833],[50.3,1916],[50.3,2000],[50.3,2083],[50.3,2166],[50.3,2249],[50.3,2334],[50.3,2415],[50.3,2499],[50.3,2583],[50.3,2666],[50.3,2749],[50.3,2832],[50.3,2916],[50.3,2999],[50.3,3082],[50.3,3166],[50.3,3251],[54,3334],[60.5,3416],[65.5,3500],[73.1,3585],[75.2,3666],[77.4,3751],[82.1,3832],[82.4,3915],[82.4,3999],[85.3,4084],[87.6,4166],[88.2,4250],[91.3,4336],[91.6,4416],[92.2,4500],[92.6,4586],[97.1,4666],[97.4,4749],[98,4832],[98,4916],[98,4999],[98,5086],[97.9,5166],[97.9,5249],[97.9,5333],[97.9,5415],[97.9,5499],[97.9,5583],[97.9,5666],[97.9,5749],[97.9,5833],[97.9,5915],[97.9,5999],[97.9,6083],[97.9,6166],[97.9,6249],[97.9,6334],[97.9,6416],[97.9,6499],[97.9,6584],[97.9,6666],[97.9,6749],[97.9,6832],[97.9,6916],[97.9,6998],[97.9,7082],[97.9,7166],[97.9,7249],[97.9,7333],[97.9,7416],[97.9,7498],[97.9,7581],[97.9,7665],[97.9,7748],[97.9,7831],[97.9,7915],[97.9,7998],[97.9,8081],[97.9,8165],[97.9,8248],[97.9,8331],[97.9,8415],[97.9,8498],[97.9,8581],[97.9,8665],[97.9,8748],[97.9,8832],[97.9,8916],[97.9,8998],[97.9,9082],[97.9,9165],[97.9,9248],[97.9,9331],[97.9,9415],[97.9,9498],[97.9,9581],[97.9,9665],[97.9,9749],[97.9,9833],[97.9,9916],[97.9,9998],[97.9,10082],[97.9,10166],[97.9,10248],[97.9,10334],[97.9,10416],[97.9,10498],[97.9,10582],[97.9,10666],[97.9,10748],[97.9,10831],[97.9,10915],[97.9,10998],[97.9,11081],[97.9,11165],[97.9,11250],[97.9,11332]]",701.7653,706.3301,98.31625183,2.0458,"[{""rating"":98.31625183016106,""responseTime"":2.0458000000007814}]",space,4.0316,,706.3301,Not at all,0,706.3347,,,[],,0,18,18,18,1,audio/Narrative8Situation9.wav,audio/Narrative7Situation9.wav,audio/Narrative6Situation9.wav,audio/Narrative5Situation9.wav,3,2,4,3,,,,,,,,,,,,,,,,,,,,,,,,,,,,,,,,,,,,,
,,,,,672ceecd4b982fd2123fa32f,2025-07-08_00h05.29.608,group3.4_multiperson,2023.2.2,Win32,59.88023952,686c2ebf0248f13bef9af11f,686c96481f210a081c6dff5b,,,,,,,,,,,,,,,,,,,,,,,,,,,724.9487,727.5296,727.5812,2,audio/Narrative13Situation2.wav,727.5815,,727.5815,757.329,"[[40.2,1582],[41.2,1663],[43.6,1747],[44,1831],[44.7,1937],[45,2014],[50.1,2100],[50.4,2181],[51,2268],[51,2347],[51,2434],[51,2514],[50.9,2597],[50.7,2680],[50.7,2767],[50.7,2847],[50.7,2930],[50.7,3018],[50.7,3097],[50.7,3181],[51.5,3266],[52.8,3350],[53.8,3433],[54.8,3516],[55.1,3599],[55.9,3680],[57.8,3764],[58.5,3846],[59.1,3930],[59.1,4014],[59.1,4097],[59.1,4181],[59.7,4263],[62.4,4347],[62.4,4430],[62.6,4514],[62.6,4598],[63.3,4683],[64.8,4765],[64.8,4847],[64.8,4930],[64.8,5014],[65.4,5099],[65.4,5181],[65.7,5263],[65.7,5346],[65.7,5430],[65.7,5514],[65.7,5597],[65.7,5680],[65.7,5764],[65.7,5847],[65.7,5930],[65.7,6014],[65.7,6097],[65.7,6181],[65.7,6264],[65.7,6347],[65.7,6431],[66.3,6516],[66.3,6597],[66.3,6680],[66.3,6763],[66.3,6847],[66.3,6929],[66.3,7013],[66.3,7097],[66.3,7181],[66.3,7264],[66.3,7347],[66.3,7431],[66.3,7514],[66.3,7598],[66.3,7680],[66.3,7763],[66.3,7846],[66.3,7930],[66.3,8013],[66.3,8097],[66.3,8181],[66.3,8264],[66.3,8347],[66.3,8431],[66.3,8514],[66.3,8598],[66.3,8680],[66.3,8764],[66.3,8847],[66.3,8930],[66.3,9013],[66.5,9098],[70.6,9182],[70.9,9266],[71.4,9347],[81.8,9430],[82.1,9513],[82.1,9597],[82.1,9680],[82.1,9763],[82.1,9847],[82.1,9930],[82.1,10013],[82.1,10097],[82.1,10181],[81.8,10267],[81.6,10348],[81.3,10434],[81.3,10514],[81,10598],[81,10680],[80.7,10765],[80.6,10849],[80.6,10932],[80.5,11013],[80.3,11097],[80.2,11180],[80.2,11263],[80.2,11347],[79.9,11434],[79.9,11515],[79.9,11597],[79.9,11679],[79.9,11763],[79.9,11846],[79.9,11931],[79.6,12013],[79.4,12097],[79.4,12180],[79.4,12264],[78.8,12349],[78.8,12431],[78.8,12513],[78.8,12596],[78.4,12680],[78.4,12763],[78.3,12849],[77.2,12931],[77.1,13014],[77.1,13096],[77.1,13180],[76.6,13264],[76.6,13347],[76.6,13431],[76.6,13514],[76.6,13599],[76.6,13680],[76.6,13764],[76.6,13847],[76.6,13930],[76.6,14012],[76.6,14096],[76.6,14180],[76.4,14266],[75.3,14347],[75,14433],[74.5,14514],[74.5,14599],[74.5,14679],[73.7,14764],[72.7,14848],[72,14930],[71.2,15016],[69.3,15096],[68.9,15182],[66.8,15265],[65.4,15348],[60.1,15433],[59.5,15515],[59.2,15597],[59.2,15679],[59.2,15763],[59.2,15847],[59.2,15929],[60.2,16013],[61.4,16096],[61.7,16180],[62.3,16264],[62.7,16346],[63.9,16430],[64.1,16515],[65.2,16597],[65.5,16683],[66.3,16763],[66.8,16849],[67.1,16932],[68.2,17015],[69.5,17096],[71.2,17181],[72.5,17265],[72.5,17347],[73.3,17433],[74.6,17515],[72.5,17596],[68.2,17679],[64.8,17763],[63.8,17847],[60.7,17932],[58.6,18013],[57.6,18096],[54.5,18179],[52.9,18263],[51.5,18347],[51.3,18429],[50.7,18513],[49.3,18596],[48.4,18679],[47.4,18762],[47.2,18847],[46.8,18929],[45.6,19013],[45.6,19096],[45,19180],[44.4,19263],[44.4,19346],[44.3,19430],[43.4,19513],[43.3,19596],[42.8,19682],[42.5,19763],[42.5,19847],[42.1,19931],[41.9,20014],[41.9,20096],[41.9,20179],[41.9,20264],[41.9,20346],[41.9,20431],[41.9,20513],[41.5,20598],[41.5,20679],[41.5,20764],[40.9,20847],[40.3,20930],[40.3,21014],[40.3,21097],[40.3,21179],[39.8,21264],[39.5,21348],[39.5,21431],[39,21514],[39,21598],[38.1,21683],[38,21763],[37.6,21849],[37.3,21930],[37,22016],[36.4,22096],[36.2,22179],[36.2,22263],[35.7,22349],[35.7,22429],[35.1,22513],[35.1,22597],[34.3,22679],[34.3,22763],[34.3,22846],[34.3,22930],[33.3,23016],[33.3,23097],[33.3,23179],[33.3,23263],[33,23348],[32.6,23430],[32.4,23514],[32.1,23596],[31,23680],[31,23763],[31,23846],[30.8,23930],[30.4,24014],[30.4,24097],[30.4,24179],[30.2,24263],[30.2,24346],[30.2,24430],[30.2,24513],[29.8,24600],[29.8,24679],[29.8,24763],[29.8,24847],[29.8,24931],[29.8,25013],[29.8,25096],[29.8,25180],[29.8,25263],[29.8,25346],[29.8,25429],[29.8,25513],[29.8,25596],[29.8,25679],[29.8,25764],[29.8,25845],[29.8,25930],[29.8,26013],[29.8,26097],[29.8,26180],[29.8,26262],[29.8,26345],[29.8,26430],[29.8,26514],[29.8,26597],[29.8,26679],[29.8,26763],[29.8,26846],[29.8,26928],[29.8,27012],[29.8,27096],[29.8,27180],[29.8,27263],[29.8,27346],[29.8,27429],[29.8,27513],[29.8,27595],[29.8,27678],[29.8,27763],[29.8,27846],[29.8,27929],[29.8,28014],[29.8,28096],[29.8,28179],[29.8,28262],[29.8,28346],[29.8,28429],[29.8,28513],[29.8,28597],[29.8,28679],[29.8,28763],[29.8,28846],[29.8,28929],[29.8,29014],[29.8,29096],[29.8,29180],[29.8,29263],[29.8,29346],[29.8,29429],[29.8,29513],[29.8,29599],[29.8,29680]]",757.3296,757.3359,,,[],,,,757.336,Definitely yes,100,757.3431,,,[],,0,0,0,0,1,audio/Narrative13Situation2.wav,audio/Narrative13Situation2.wav,audio/Narrative13Situation2.wav,audio/Narrative13Situation2.wav,2,2,2,2,,,,,706.3353,724.9479,space,18.086,,,,,,,,,,,,,,,,,,,,,,,,,,,,,
,,,,,672ceecd4b982fd2123fa32f,2025-07-08_00h05.29.608,group3.4_multiperson,2023.2.2,Win32,59.88023952,686c2ebf0248f13bef9af11f,686c96481f210a081c6dff5b,,,,,,,,,,,,,,,,,,,,,,,,,,,,,757.3449,2,audio/Narrative5Situation1.wav,762.3451,,762.3453,775.6452,"[[36.5,1249],[38,1332],[40.2,1418],[42.7,1498],[43.9,1581],[45.2,1668],[46.9,1749],[47.4,1833],[48.1,1915],[48.7,2001],[49.4,2085],[49.9,2167],[49.9,2249],[49.9,2332],[49.9,2415],[49.9,2498],[50,2583],[51.3,2666],[52.9,2748],[52.9,2831],[53.4,2915],[53.7,2999],[54,3084],[55.4,3165],[56.3,3248],[58.8,3331],[58.9,3417],[58.9,3498],[58.9,3581],[59.1,3666],[59.7,3748],[59.8,3832],[59.8,3914],[60.1,3998],[60.5,4082],[60.5,4164],[60.5,4248],[60.7,4332],[61.7,4415],[62,4499],[62,4581],[63.2,4667],[63.8,4748],[63.8,4831],[63.8,4914],[63.8,4998],[63.8,5081],[63.8,5164],[63.9,5248],[63.9,5331],[63.9,5414],[64.2,5498],[65.4,5583],[66,5664],[66,5748],[66.3,5832],[66.4,5914],[66.4,5998],[66.8,6083],[67,6165],[67.1,6251],[67.1,6331],[67.1,6416],[67.1,6500],[67.3,6583],[67.4,6665],[67.6,6748],[67.7,6832],[69.2,6916],[69.3,6999],[69.8,7081],[69.8,7165],[69.8,7250],[69.8,7332],[69.8,7415],[69.8,7500],[69,7582],[68.7,7665],[68.7,7749],[68.7,7831],[68.7,7914],[68.7,7998],[68.7,8081],[68.7,8164],[68.7,8249],[68.7,8332],[68.7,8415],[68.7,8499],[68.7,8582],[68.7,8666],[68.7,8749],[68.7,8831],[68.7,8914],[68.7,8998],[68.7,9081],[68.7,9165],[68.7,9249],[68.7,9332],[68.7,9414],[68.7,9499],[68.7,9581],[68.7,9665],[68.7,9749],[68.7,9831],[68.7,9914],[68.7,9998],[69.5,10084],[70.9,10165],[72.5,10249],[72.5,10332],[72.8,10416],[75.2,10501],[83.4,10581],[84.1,10665],[84.3,10750],[84.4,10833],[84.4,10914],[85.7,11000],[86.9,11081],[86.9,11165],[86.9,11248],[86.9,11332],[86.9,11414],[86.9,11499],[86.9,11581],[86.9,11665],[86.9,11747],[86.9,11831],[86.9,11914],[86.9,11997],[86.9,12082],[86.9,12165],[87.5,12250],[87.5,12332],[88.2,12416],[88.2,12499],[88.2,12582],[88.2,12665],[88.2,12748],[88.2,12832],[88.2,12914],[88.2,12997],[88.2,13081],[88.2,13164],[88.2,13248]]",775.646,780.4447,84.11420205,3.2291,"[{""rating"":84.11420204978037,""responseTime"":3.2291000000014947}]",space,4.2486,,780.4451,Definitely yes,100,780.4498,,,[],,0,1,1,1,1,audio/Narrative7Situation1.wav,audio/Narrative8Situation1.wav,audio/Narrative5Situation1.wav,audio/Narrative6Situation1.wav,2,5,5,2,,,,,,,,,,,,,,,,,,,,,,,,,,,,,,,,,,,,,
,,,,,672ceecd4b982fd2123fa32f,2025-07-08_00h05.29.608,group3.4_multiperson,2023.2.2,Win32,59.88023952,686c2ebf0248f13bef9af11f,686c96481f210a081c6dff5b,,,,,,,,,,,,,,,,,,,,,,,,,,,,,780.4505,2,audio/Narrative5Situation2.wav,783.4596,,783.4597,812.9078,"[[79.7,585],[74.9,670],[51.9,751],[49.9,836],[46.2,918],[45.8,1001],[46.5,1083],[46.5,1168],[47.1,1251],[47.5,1333],[48.1,1416],[48.4,1501],[50.4,1586],[50.4,1667],[50.4,1750],[50.4,1833],[50.9,1918],[51.5,2000],[51.5,2083],[51.8,2169],[52.5,2250],[54.1,2333],[54.4,2417],[55.4,2500],[55.4,2584],[55.4,2667],[55.4,2751],[55.4,2833],[55.9,2917],[55.9,2999],[56,3083],[56,3166],[56,3250],[56,3334],[56,3416],[56,3500],[56,3584],[56,3666],[56,3749],[56,3833],[56,3917],[56,3999],[56,4082],[56,4166],[56,4251],[56,4333],[56,4417],[56,4499],[56,4583],[56,4666],[56,4750],[56,4832],[56,4916],[56,5000],[56.6,5087],[56.7,5166],[56.7,5250],[56.7,5332],[56.7,5416],[56.7,5499],[56.7,5583],[56.7,5667],[56.7,5749],[56.7,5833],[57,5917],[57.6,6000],[57.6,6082],[58.9,6168],[59.4,6250],[59.8,6332],[59.8,6417],[59.8,6499],[60.5,6583],[61.1,6668],[61.6,6750],[61.9,6833],[62.2,6915],[62.2,6999],[62.2,7082],[62.4,7165],[63.2,7250],[63.5,7333],[63.8,7416],[64.5,7500],[64.5,7582],[64.6,7666],[65.5,7749],[66.4,7832],[66.5,7916],[66.5,8000],[66.7,8086],[66.1,8170],[66.1,8250],[66.5,8336],[67.4,8416],[67.7,8500],[68.2,8585],[68.4,8667],[68.4,8749],[69,8832],[69.2,8917],[69.3,9000],[70.1,9086],[70.8,9166],[70.8,9250],[71.1,9334],[71.1,9415],[71.2,9499],[71.2,9583],[72.3,9666],[72.7,9749],[72.7,9833],[72.7,9917],[72.7,9999],[72.8,10083],[73.1,10167],[73.1,10249],[73.4,10332],[74.7,10416],[74.9,10499],[75,10587],[75.3,10668],[75.5,10751],[75.5,10833],[75.6,10918],[75.6,11000],[75.8,11084],[75.9,11167],[75.9,11250],[75.9,11333],[76.1,11417],[76.1,11499],[76.2,11586],[76.4,11665],[76.4,11749],[76.4,11833],[76.4,11916],[76.4,12000],[76.5,12084],[76.6,12166],[76.6,12250],[76.8,12333],[76.8,12416],[76.9,12500],[77.2,12583],[77.4,12666],[77.4,12751],[77.5,12832],[77.5,12916],[77.5,12999],[77.5,13084],[77.7,13166],[78,13251],[81.3,13334],[81.5,13418],[81.5,13499],[81.5,13582],[92.5,13666],[96.1,13749],[96.1,13833],[96.1,13916],[96.1,13999],[96.1,14083],[96.4,14170],[96.4,14250],[96.9,14333],[96.9,14416],[97.3,14501],[98.2,14583],[98.2,14666],[98.2,14750],[98.2,14833],[98.2,14915],[98.2,14999],[98.2,15083],[98.2,15168],[98.2,15249],[98.2,15333],[98.2,15416],[98.2,15499],[98.2,15582],[98.2,15666],[98.2,15749],[98.2,15832],[98.2,15916],[98.2,16000],[98.2,16082],[98.2,16166],[98.2,16249],[98.2,16333],[98.2,16416],[98.2,16500],[98.2,16583],[98.2,16665],[98.2,16750],[98.2,16832],[98.2,16916],[98.2,16999],[98.2,17082],[98.2,17166],[98.2,17249],[98.2,17332],[98.2,17415],[98.2,17500],[98.2,17582],[98.2,17666],[98.2,17748],[98.2,17832],[98.2,17916],[98.2,18000],[98.2,18082],[98.2,18166],[98.2,18250],[98.2,18332],[98.2,18415],[98.2,18499],[98.2,18583],[98.2,18665],[98.2,18749],[98.2,18832],[98.2,18916],[98.2,18999],[98.2,19082],[98.2,19167],[98.2,19249],[98.2,19332],[98.2,19416],[98.2,19499],[98.2,19581],[98.2,19665],[98.2,19749],[98.2,19832],[98.2,19915],[98.2,19999],[98.2,20082],[98.2,20166],[98.2,20249],[98.2,20333],[98.2,20416],[98.2,20500],[98.2,20583],[98.2,20666],[98.2,20749],[98.2,20832],[98.2,20916],[98.2,20999],[98.2,21082],[98.2,21167],[98.2,21249],[98.2,21333],[98.2,21415],[98.2,21500],[98.2,21582],[98.2,21665],[98.2,21749],[98.2,21832],[98.2,21915],[98.2,21999],[98.2,22082],[98.2,22166],[98.2,22249],[98.2,22332],[98.2,22416],[98.2,22499],[98.2,22583],[98.2,22665],[98.2,22748],[98.2,22832],[98.2,22916],[98.2,22999],[98.2,23082],[98.2,23165],[98.2,23249],[98.2,23332],[98.2,23415],[98.2,23499],[98.2,23584],[98.2,23665],[98.2,23750],[98.2,23832],[98.2,23916],[98.2,23999],[98.2,24083],[98.2,24168],[98.2,24248],[98.2,24332],[98.2,24415],[98.2,24499],[98.2,24583],[98.2,24665],[98.2,24749],[98.2,24832],[98.2,24915],[98.2,24998],[98.2,25082],[98.2,25166],[98.2,25249],[98.2,25332],[98.2,25415],[98.2,25499],[98.2,25582],[98.2,25666],[98.2,25749],[98.2,25832],[98.2,25916],[98.2,25999],[98.2,26082],[98.2,26166],[98.2,26249],[98.2,26332],[98.2,26415],[98.2,26501],[98.2,26581],[98.2,26666],[98.2,26749],[98.2,26831],[98.2,26915],[98.2,26999],[98.2,27083],[98.2,27165],[98.2,27248],[98.2,27331],[98.2,27414],[98.2,27498],[98.2,27581],[98.2,27664],[98.2,27749],[98.2,27832],[98.2,27915],[98.2,27999],[98.2,28082],[98.2,28165],[98.2,28249],[98.2,28332],[98.2,28416],[98.2,28498],[98.2,28583],[98.2,28669],[98.2,28748],[98.2,28831],[98.2,28914],[98.2,28998],[98.2,29082],[98.2,29166],[98.2,29248],[98.2,29331],[98.2,29414]]",812.908,815.9771,98.02342606,1.7222,"[{""rating"":98.02342606149341,""responseTime"":1.7221999999992477}]",space,2.536,,815.9778,Partially,50,815.9856,,,[],,0,2,2,2,1,audio/Narrative7Situation2.wav,audio/Narrative8Situation2.wav,audio/Narrative5Situation2.wav,audio/Narrative6Situation2.wav,3,3,3,3,,,,,,,,,,,,,,,,,,,,,,,,,,,,,,,,,,,,,
,,,,,672ceecd4b982fd2123fa32f,2025-07-08_00h05.29.608,group3.4_multiperson,2023.2.2,Win32,59.88023952,686c2ebf0248f13bef9af11f,686c96481f210a081c6dff5b,,,,,,,,,,,,,,,,,,,,,,,,,,,,,815.9864,2,audio/Narrative5Situation3.wav,818.9923,,818.9925,832.9074,"[[64.8,415],[62.2,500],[60.4,583],[54.4,666],[52.3,749],[52,833],[51.9,918],[50.7,1000],[50.7,1082],[50.7,1165],[48.5,1253],[48.5,1333],[48.5,1416],[48.5,1498],[48.5,1582],[49,1667],[49.1,1749],[49.1,1833],[49.1,1915],[49.1,1999],[49.3,2083],[49.3,2166],[49.3,2248],[49.3,2332],[49.3,2415],[49.3,2498],[49.9,2583],[50.4,2669],[50.9,2748],[53.5,2832],[58.8,2916],[60.7,3001],[61.6,3085],[63.3,3167],[64.1,3249],[64.9,3333],[66.4,3416],[67.1,3501],[67.9,3582],[68.4,3666],[71.2,3750],[71.8,3832],[73.1,3917],[75.5,3998],[75.9,4084],[78.1,4165],[82.2,4248],[84.8,4332],[86.2,4415],[88.8,4501],[91.4,4584],[94.1,4667],[95.7,4748],[96.3,4833],[96.4,4916],[96.4,4999],[96.6,5084],[97.1,5165],[97.1,5250],[97.3,5335],[97.4,5415],[97.7,5499],[97.7,5581],[97.9,5664],[97.9,5748],[97.9,5832],[97.9,5914],[97.9,5997],[98.5,6083],[98.6,6165],[98.6,6248],[98.6,6333],[98.6,6415],[98.6,6498],[98.6,6582],[98.6,6664],[98.6,6747],[98.6,6831],[98.6,6914],[98.6,6998],[98.6,7082],[98.6,7167],[98.6,7249],[98.6,7332],[98.6,7415],[98.6,7498],[98.6,7582],[98.5,7668],[98.5,7748],[98.5,7832],[98.3,7916],[98.3,7999],[98.3,8083],[98.3,8165],[98.2,8249],[98.2,8332],[98.2,8415],[98.2,8498],[98.2,8582],[98.2,8666],[98.2,8748],[98.2,8832],[98.2,8914],[98.2,8999],[98.2,9082],[98.2,9165],[98.2,9249],[98.2,9332],[98.2,9416],[98.2,9498],[98.2,9581],[98.2,9665],[98.2,9748],[98.2,9832],[98.2,9915],[98.2,9999],[98.2,10081],[98.2,10165],[98.2,10248],[98.2,10332],[98.2,10415],[98.2,10498],[98.2,10581],[98.2,10665],[98.2,10749],[98.2,10833],[98.2,10916],[98.2,10999],[98.2,11082],[98.2,11165],[98.2,11247],[98.2,11331],[98.2,11415],[98.2,11498],[98.2,11582],[98.2,11665],[98.2,11748],[98.2,11833],[98.2,11916],[98.2,11999],[98.2,12082],[98.2,12165],[98.2,12249],[98.2,12332],[98.2,12414],[98.2,12498],[98.2,12582],[98.2,12665],[98.2,12748],[98.2,12833],[98.2,12915],[98.2,12998],[98.2,13082],[98.2,13165],[98.2,13247],[98.2,13331],[98.2,13415],[98.2,13499],[98.2,13581],[98.2,13665],[98.2,13748],[98.2,13832],[98.2,13914]]",832.9078,839.0581,89.38506589,5.1434,"[{""rating"":97.73060029282577,""responseTime"":1.6311999999992395},{""rating"":89.38506588579796,""responseTime"":5.1433999999985645}]",space,5.6058,,839.0581,Not at all,0,839.0639,,,[],,0,3,3,3,1,audio/Narrative7Situation3.wav,audio/Narrative8Situation3.wav,audio/Narrative5Situation3.wav,audio/Narrative6Situation3.wav,8,4,3,5,,,,,,,,,,,,,,,,,,,,,,,,,,,,,,,,,,,,,
,,,,,672ceecd4b982fd2123fa32f,2025-07-08_00h05.29.608,group3.4_multiperson,2023.2.2,Win32,59.88023952,686c2ebf0248f13bef9af11f,686c96481f210a081c6dff5b,,,,,,,,,,,,,,,,,,,,,,,,,,,,,839.0645,2,audio/Narrative5Situation4.wav,840.0752,,840.0758,860.4905,"[[88.1,834],[84.8,917],[84.8,999],[81.5,1085],[63.2,1166],[62,1251],[52.3,1333],[52.3,1414],[52.3,1499],[52,1581],[51.8,1664],[51.8,1747],[51.6,1832],[51.6,1915],[51.5,2003],[51.3,2081],[51.3,2164],[51.3,2249],[51.2,2331],[51.2,2414],[51.2,2499],[51.2,2581],[51.3,2664],[51.3,2747],[52.6,2833],[54.5,2914],[60.8,2998],[67.9,3082],[68,3164],[69.9,3248],[70.4,3331],[71.2,3417],[74.2,3499],[74.3,3582],[75.3,3664],[75.5,3748],[78,3831],[78,3915],[78.1,3998],[78.3,4083],[79.1,4164],[80.3,4247],[80.3,4331],[80.3,4414],[80.5,4498],[80.5,4581],[79.1,4665],[79.1,4748],[79.1,4831],[79.1,4914],[78.7,4999],[78.4,5081],[78,5165],[78,5247],[78,5331],[78,5414],[75.3,5500],[71.2,5583],[69.9,5666],[66.7,5749],[60.5,5833],[59.4,5915],[56.9,6000],[54.7,6083],[52.2,6165],[49.9,6251],[49.4,6332],[49,6413],[45.3,6497],[45.2,6581],[44.1,6666],[44,6747],[43.6,6831],[40.3,6914],[40,7001],[39.2,7082],[38.9,7164],[38.9,7249],[38.9,7330],[38,7414],[37.4,7497],[37.4,7581],[36.7,7666],[36.4,7749],[35.4,7833],[35.4,7914],[35.1,7997],[34.8,8081],[34.3,8163],[34.2,8247],[34,8331],[33.9,8413],[33.9,8497],[33.9,8581],[33.9,8663],[33.5,8747],[33.5,8831],[33.5,8914],[33.5,8997],[33.5,9080],[33.5,9164],[33.5,9248],[33.5,9331],[33.5,9414],[33.6,9499],[34.3,9583],[34.8,9664],[36.5,9750],[37.3,9831],[37.7,9915],[38.7,10000],[42.2,10082],[43.9,10164],[47.4,10249],[48.7,10330],[51.2,10414],[51.9,10499],[54.1,10582],[57.9,10667],[64.6,10750],[77.1,10832],[89.7,10916],[91,10999],[92,11080],[92,11163],[92,11246],[92,11330],[92,11413],[92,11497],[92,11581],[92,11664],[92,11747],[92,11830],[92,11913],[92,11997],[92,12080],[92,12164],[92,12248],[92,12330],[92,12415],[92,12497],[92,12581],[92,12664],[92,12749],[92,12830],[92,12914],[92,12998],[92,13081],[92,13163],[92,13247],[92,13330],[92,13413],[92,13497],[92,13580],[92,13664],[92,13747],[92,13830],[92,13914],[92,13997],[92,14081],[92,14164],[92,14250],[92,14330],[92,14413],[92,14497],[92,14581],[92,14663],[92,14747],[92,14831],[92,14913],[92,14998],[92,15081],[92,15163],[92,15248],[92,15330],[92,15413],[92,15497],[92,15580],[92,15664],[92,15748],[92,15830],[92,15913],[92,15996],[92,16080],[92,16163],[92,16247],[92,16330],[92,16413],[92,16496],[92,16579],[92,16663],[92,16746],[92,16830],[92,16914],[92,16997],[92,17080],[92,17163],[92,17247],[92,17330],[92,17413],[92,17497],[92,17580],[92,17663],[92,17747],[92,17830],[92,17914],[92,17997],[92,18081],[92,18164],[92,18246],[92,18330],[92,18414],[92,18498],[92,18581],[92,18663],[92,18746],[92,18830],[92,18913],[92,18997],[92.5,19080],[92.5,19163],[93.9,19249],[93.9,19330],[93.9,19413],[93.9,19497],[93.9,19581],[93.9,19664],[93.9,19748],[93.9,19831],[93.9,19913],[93.9,19997],[93.9,20080],[93.9,20164],[93.9,20248],[93.9,20330],[93.9,20413]]",860.4912,865.689,67.13030747,3.9596,"[{""rating"":67.13030746705711,""responseTime"":3.959600000001501}]",space,4.658,,865.6891,Not at all,0,865.6922,,,[],,0,4,4,4,1,audio/Narrative7Situation4.wav,audio/Narrative8Situation4.wav,audio/Narrative5Situation4.wav,audio/Narrative6Situation4.wav,3,3,1,2,,,,,,,,,,,,,,,,,,,,,,,,,,,,,,,,,,,,,
,,,,,672ceecd4b982fd2123fa32f,2025-07-08_00h05.29.608,group3.4_multiperson,2023.2.2,Win32,59.88023952,686c2ebf0248f13bef9af11f,686c96481f210a081c6dff5b,,,,,,,,,,,,,,,,,,,,,,,,,,,,,865.6928,2,audio/Narrative5Situation5.wav,870.7065,,870.7066,886.1393,"[[67.6,918],[65.4,999],[60.5,1084],[54.7,1167],[52.2,1251],[50.6,1334],[50.6,1416],[50.6,1499],[50.6,1582],[50.6,1665],[50.6,1749],[50.6,1832],[50.6,1916],[50.6,1999],[50.6,2082],[50.6,2165],[50.6,2249],[50.6,2333],[50.6,2415],[50.6,2499],[50.9,2584],[51.2,2665],[51.2,2750],[51.2,2833],[51.2,2915],[51.2,2999],[51.2,3082],[51.2,3166],[50.9,3251],[40.3,3332],[39.5,3419],[37.8,3501],[37.7,3581],[37.7,3665],[36.1,3749],[36.1,3832],[36.1,3916],[36.1,3998],[36.1,4082],[36.1,4165],[36.1,4249],[36.7,4334],[37.3,4416],[37.3,4499],[37.3,4582],[37.3,4666],[37.3,4749],[35.5,4835],[35.2,4915],[33,4999],[31.8,5086],[31.1,5165],[31.1,5249],[31.1,5331],[23.5,5418],[18.7,5499],[18.7,5582],[18.7,5665],[18.7,5749],[18.2,5835],[17.3,5916],[17.3,5998],[17.3,6081],[16.6,6168],[16.6,6248],[16.6,6332],[16.6,6414],[16.6,6498],[16.6,6581],[16.6,6665],[16.6,6749],[16.6,6832],[16.6,6915],[16.6,6998],[16.6,7081],[16.3,7166],[16.3,7249],[16.3,7333],[16.3,7415],[16.3,7499],[16.3,7583],[16.3,7665],[16.3,7748],[16.3,7831],[16.3,7915],[16.3,7999],[16.3,8081],[16.3,8164],[16.3,8248],[16.3,8332],[16.3,8416],[16.3,8499],[16.3,8581],[16.3,8666],[16.3,8748],[16.3,8832],[16.3,8915],[16.3,8998],[16.3,9081],[16.3,9165],[16.3,9248],[16.3,9332],[16.3,9415],[16.3,9498],[16.3,9581],[16.3,9664],[16.3,9748],[16.3,9831],[16.3,9915],[16.3,9999],[16.3,10082],[16.3,10165],[16.3,10249],[16.3,10332],[16.3,10414],[16.3,10498],[16.3,10584],[16.3,10665],[16.3,10749],[16.3,10832],[16.3,10914],[16.3,10998],[16.3,11081],[16.3,11164],[16.3,11248],[16.3,11331],[16.3,11414],[16.3,11497],[16.3,11582],[16.3,11665],[16.3,11748],[16.3,11831],[16.3,11915],[16.3,11998],[16.3,12082],[16.3,12165],[16.3,12248],[16.3,12331],[16.3,12415],[16.3,12498],[16.3,12582],[16.3,12664],[16.3,12747],[16.3,12831],[16.3,12914],[16.3,12997],[16.3,13081],[16.3,13164],[16.3,13248],[16.3,13332],[16.3,13415],[16.3,13498],[16.3,13581],[16.3,13665],[16.3,13748],[16.3,13831],[16.3,13915],[16.3,13998],[16.3,14081],[16.3,14164],[16.3,14249],[16.3,14332],[16.3,14416],[16.3,14497],[16.3,14582],[16.3,14666],[16.3,14748],[16.3,14832],[16.3,14915],[16.3,14998],[16.3,15082],[16.3,15165],[16.3,15248],[16.3,15332],[16.3,15416]]",886.1398,890.2717,11.20058565,2.7367,"[{""rating"":11.200585651537336,""responseTime"":2.7367000000029975}]",space,3.5848,,890.2718,Partially,50,890.2765,,,[],,0,5,5,5,1,audio/Narrative7Situation5.wav,audio/Narrative8Situation5.wav,audio/Narrative5Situation5.wav,audio/Narrative6Situation5.wav,5,2,5,2,,,,,,,,,,,,,,,,,,,,,,,,,,,,,,,,,,,,,
,,,,,672ceecd4b982fd2123fa32f,2025-07-08_00h05.29.608,group3.4_multiperson,2023.2.2,Win32,59.88023952,686c2ebf0248f13bef9af11f,686c96481f210a081c6dff5b,,,,,,,,,,,,,,,,,,,,,,,,,,,,,890.2769,2,audio/Narrative5Situation6.wav,893.2878,,893.2878,898.9563,"[[14.4,750],[16,833],[23.4,918],[23.9,1002],[25.4,1085],[25.5,1167],[27.6,1250],[28.3,1335],[28.6,1417],[28.6,1500],[33.7,1585],[42.2,1669],[42.4,1750],[42.4,1833],[42.4,1917],[42.5,2001],[43.4,2088],[43.9,2166],[43.9,2250],[43.9,2333],[43.9,2417],[43.9,2500],[44,2585],[46.9,2670],[48,2751],[51.2,2833],[51.9,2917],[53.8,3002],[54.4,3086],[55.9,3167],[56.9,3250],[57.8,3337],[59.1,3416],[60.1,3501],[61.6,3584],[61.7,3667],[62.7,3751],[63,3834],[63.2,3918],[63.2,4000],[63.2,4084],[63.5,4168],[63.6,4250],[63.9,4335],[67.1,4416],[67.1,4500],[67.1,4583],[67.1,4667],[67.9,4752],[69,4832],[69.5,4917],[69.5,5000],[70.1,5085],[70.1,5167],[70.1,5250],[70.1,5333],[70.1,5417],[70.1,5500],[70.1,5583],[70.1,5668]]",898.9567,902.7886,70.64421669,1.3264,"[{""rating"":70.64421669106882,""responseTime"":1.3264000000060605}]",space,3.2852,,902.7887,Partially,50,902.7944,,,[],,0,6,6,6,1,audio/Narrative7Situation6.wav,audio/Narrative8Situation6.wav,audio/Narrative5Situation6.wav,audio/Narrative6Situation6.wav,3,2,3,2,,,,,,,,,,,,,,,,,,,,,,,,,,,,,,,,,,,,,
,,,,,672ceecd4b982fd2123fa32f,2025-07-08_00h05.29.608,group3.4_multiperson,2023.2.2,Win32,59.88023952,686c2ebf0248f13bef9af11f,686c96481f210a081c6dff5b,,,,,,,,,,,,,,,,,,,,,,,,,,,,,902.7954,2,audio/Narrative5Situation7.wav,906.8056,,906.8057,927.8528,"[[999,0],[999,81],[999,164],[999,249],[999,331],[999,415],[999,497],[999,581],[999,665],[999,749],[999,833],[999,916],[999,998],[999,1081],[999,1164],[999,1249],[999,1332],[999,1414],[999,1498],[999,1582],[999,1666],[999,1749],[48.2,1833],[52.8,1916],[54.7,1999],[55,2083],[55.9,2168],[57,2248],[61.6,2331],[61.9,2414],[62.2,2502],[64.3,2582],[67.6,2665],[70.1,2748],[71.5,2833],[72.3,2916],[72.4,2998],[72.4,3081],[72.4,3165],[72.4,3249],[72.4,3331],[72.5,3415],[72.8,3498],[72.8,3581],[72.8,3665],[72.8,3748],[73,3836],[73.1,3915],[73.3,3999],[73.3,4081],[73.3,4165],[73.9,4249],[73.9,4331],[73.9,4414],[73.9,4497],[73.9,4580],[73.9,4665],[73.9,4749],[73.9,4831],[73.9,4915],[73.9,4999],[74,5082],[74.2,5166],[74.2,5248],[74.2,5331],[75,5415],[75.9,5499],[76.8,5581],[78.4,5665],[78.4,5749],[78.6,5831],[79,5915],[80.2,6000],[80.5,6081],[80.5,6165],[80.5,6249],[80.5,6331],[80.5,6414],[80.9,6500],[80.9,6580],[80.9,6664],[80.9,6749],[80.9,6831],[81,6914],[81,7000],[81,7082],[81,7166],[81,7249],[81,7331],[81,7414],[81,7498],[81,7581],[81,7664],[81,7749],[81,7831],[81,7914],[81,7997],[81.2,8081],[81.2,8165],[81.2,8248],[81.2,8332],[81.2,8415],[81.2,8499],[81.2,8581],[81.2,8664],[81.2,8748],[81.2,8831],[81.2,8915],[81.2,8999],[81.2,9081],[81.2,9164],[81.2,9247],[81.2,9331],[81.2,9415],[81.2,9498],[81.2,9581],[81.3,9664],[81.5,9750],[81.9,9831],[81.9,9915],[81.9,9998],[81.9,10081],[81.9,10167],[81.9,10248],[81.9,10331],[81.9,10414],[81.9,10497],[81.9,10581],[81.9,10663],[81.9,10747],[81.8,10833],[81.8,10915],[81.8,10998],[81.8,11081],[81.8,11165],[81.8,11249],[81.8,11331],[81.8,11413],[81.8,11497],[81.8,11581],[81.8,11664],[81.8,11747],[81.8,11831],[81.8,11914],[81.8,11999],[81.8,12081],[81.8,12164],[81.8,12249],[81.8,12331],[81.8,12413],[81.8,12499],[81.8,12580],[81.8,12664],[81.8,12747],[81.8,12831],[81.8,12914],[81.8,12999],[81.8,13081],[81.8,13166],[81.8,13249],[81.8,13331],[81.8,13414],[81.8,13499],[81.8,13581],[81.8,13663],[81.8,13748],[81.8,13831],[81.8,13914],[81.8,13998],[81.8,14081],[81.8,14163],[81.8,14247],[81.8,14330],[81.8,14414],[81.8,14498],[81.8,14581],[81.8,14664],[81.8,14747],[81.8,14830],[81.8,14914],[81.8,14997],[81.8,15080],[81.8,15164],[81.8,15247],[81.8,15331],[81.8,15413],[81.8,15497],[81.8,15581],[81.8,15663],[81.8,15746],[81.8,15830],[81.8,15913],[81.8,15996],[81.8,16081],[81.8,16164],[81.8,16248],[81.8,16331],[81.8,16415],[81.8,16497],[81.8,16581],[81.8,16664],[81.8,16748],[81.5,16831],[81.2,16913],[81,16998],[80.3,17080],[77.7,17166],[74.5,17247],[73.4,17332],[72.1,17415],[71.2,17500],[67.6,17582],[66.7,17664],[65.7,17747],[64.9,17832],[64.1,17917],[63.2,18001],[62.4,18082],[60.5,18166],[58.5,18247],[58.3,18330],[56.3,18413],[55.6,18497],[55,18580],[53.8,18663],[51.9,18748],[51,18831],[50.4,18914],[49.6,18997],[48.1,19080],[47.1,19166],[46.3,19249],[45.3,19331],[44.3,19414],[43.3,19499],[42.2,19583],[41.4,19665],[40.6,19749],[39,19832],[38.1,19915],[36.7,19999],[35.9,20080],[34.6,20166],[33.9,20248],[33.6,20332],[33,20415],[32.7,20497],[32.7,20580],[32.7,20663],[32.7,20746],[32.7,20830],[32.7,20913],[32.7,20999]]",927.853,931.5525,52.19619327,1.8239,"[{""rating"":52.19619326500732,""responseTime"":1.8239000000058923}]",space,3.1647,,931.5526,Partially,50,931.5546,,,[],,0,7,7,7,1,audio/Narrative7Situation7.wav,audio/Narrative8Situation7.wav,audio/Narrative5Situation7.wav,audio/Narrative6Situation7.wav,5,3,4,5,,,,,,,,,,,,,,,,,,,,,,,,,,,,,,,,,,,,,
,,,,,672ceecd4b982fd2123fa32f,2025-07-08_00h05.29.608,group3.4_multiperson,2023.2.2,Win32,59.88023952,686c2ebf0248f13bef9af11f,686c96481f210a081c6dff5b,,,,,,,,,,,,,,,,,,,,,,,,,,,,,931.5548,2,audio/Narrative5Situation8.wav,934.5701,,934.5702,943.402,"[[999,0],[999,82],[999,165],[999,250],[999,332],[56.4,418],[55.4,501],[55,585],[53.7,666],[52.8,749],[50.9,833],[50.6,915],[50.4,1002],[50.4,1081],[50.4,1165],[50.4,1249],[50.7,1332],[50.7,1416],[50.7,1499],[50.7,1582],[50.7,1666],[50.7,1749],[50.7,1831],[50.7,1915],[50.7,2000],[50.7,2082],[50.7,2165],[50.7,2249],[50.7,2332],[50.7,2415],[50.7,2498],[50.7,2581],[50.7,2665],[50.7,2749],[50.7,2832],[50.7,2915],[50.7,2999],[50.7,3082],[51.2,3166],[51.8,3251],[53.5,3335],[57.2,3418],[57.8,3501],[58.6,3585],[59.8,3668],[61.3,3751],[63.3,3832],[63.8,3916],[63.9,4003],[65.2,4082],[65.5,4167],[67.6,4250],[68.4,4335],[69.3,4416],[70.1,4499],[70.6,4582],[70.6,4665],[70.8,4749],[70.8,4832],[70.8,4915],[70.8,5001],[70.8,5082],[71.8,5167],[72.4,5249],[72.4,5333],[72.4,5416],[72.4,5499],[72.4,5582],[72.4,5667],[72.4,5748],[72.4,5832],[72.4,5915],[72.4,5998],[72.4,6082],[72.4,6165],[72.4,6249],[72.4,6332],[72.5,6418],[72.7,6501],[72.8,6583],[74.3,6665],[76.4,6749],[76.4,6832],[76.4,6915],[76.4,6999],[76.4,7082],[76.4,7166],[76.4,7250],[76.4,7331],[76.4,7416],[76.4,7499],[76.4,7582],[76.4,7665],[76.4,7749],[76.4,7832],[76.4,7915],[76.4,8002],[76.4,8082],[76.4,8165],[76.4,8249],[76.4,8332],[76.4,8414],[76.4,8499],[76.4,8583],[76.4,8665],[76.4,8748],[76.4,8831]]",943.4021,949.7034,53.80673499,4.9453,"[{""rating"":53.80673499267936,""responseTime"":4.945300000004522}]",space,5.7616,,949.7036,Not at all,0,949.7107,,,[],,0,8,8,8,1,audio/Narrative7Situation8.wav,audio/Narrative8Situation8.wav,audio/Narrative5Situation8.wav,audio/Narrative6Situation8.wav,2,3,3,5,,,,,,,,,,,,,,,,,,,,,,,,,,,,,,,,,,,,,
,,,,,672ceecd4b982fd2123fa32f,2025-07-08_00h05.29.608,group3.4_multiperson,2023.2.2,Win32,59.88023952,686c2ebf0248f13bef9af11f,686c96481f210a081c6dff5b,,,,,,,,,,,,,,,,,,,,,,,,,,,,,949.7111,2,audio/Narrative5Situation9.wav,952.7196,,952.7197,992.2699,"[[53.7,2748],[53.5,2832],[52.9,2917],[52.6,3000],[52.6,3082],[53.7,3167],[62.9,3250],[63,3334],[64.1,3417],[67.6,3499],[76.2,3583],[77.5,3665],[77.5,3748],[77.7,3831],[79.6,3916],[80,3998],[80,4081],[80,4166],[80,4249],[80,4332],[80,4415],[80,4501],[80,4581],[80.3,4666],[83.4,4751],[86.9,4831],[87.6,4915],[87.6,4999],[88.1,5082],[88.2,5165],[88.2,5248],[88.2,5331],[88.2,5415],[88.2,5498],[88.7,5586],[90,5665],[90,5748],[90,5831],[91.1,5915],[92.2,5998],[92.2,6082],[92.2,6168],[92.2,6249],[92.2,6332],[92.2,6415],[92.6,6500],[92.8,6585],[94.1,6666],[94.5,6749],[94.5,6832],[94.5,6915],[95.7,6999],[97,7081],[97,7165],[97.1,7250],[97.6,7332],[97.6,7415],[97.9,7499],[98,7582],[99.2,7667],[99.2,7748],[99.2,7832],[99.2,7915],[99.2,7998],[99.2,8082],[99.2,8166],[99.2,8248],[99.2,8332],[99.2,8416],[99.2,8499],[99.2,8582],[99.2,8665],[99.2,8748],[99.2,8832],[99.2,8915],[99.2,8998],[99.2,9081],[99.2,9165],[99.2,9248],[99.2,9332],[99.2,9415],[99.2,9497],[99.2,9581],[99.2,9664],[99.2,9748],[99.2,9832],[99.2,9914],[99.2,9998],[99.2,10081],[99.2,10165],[99.2,10248],[99.2,10333],[99.2,10415],[99.2,10499],[99.2,10583],[99.2,10665],[99.2,10748],[99.2,10832],[99.2,10915],[99.2,10999],[99.2,11081],[99.2,11165],[99.2,11248],[99.2,11331],[99.2,11415],[99.2,11498],[99.2,11582],[99.2,11665],[99.2,11749],[99.2,11831],[99.2,11915],[99.2,11998],[99.2,12082],[99.2,12165],[99.2,12247],[99.2,12332],[99.2,12415],[99.2,12498],[99.2,12582],[99.2,12666],[99.2,12748],[99.2,12832],[99.2,12914],[99.2,12998],[99.2,13081],[99.2,13165],[99.2,13248],[99.2,13332],[99.2,13415],[99.2,13498],[99.2,13582],[99.2,13665],[99.2,13748],[99.2,13831],[99.2,13915],[99.2,13998],[99.2,14081],[99.2,14164],[99.2,14248],[99.2,14331],[99.2,14415],[99.2,14499],[99.2,14582],[99.2,14665],[99.2,14748],[99.2,14832],[99.2,14915],[99.2,14998],[99.2,15081],[99.2,15165],[99.2,15247],[99.2,15331],[99.2,15415],[99.2,15498],[99.2,15581],[99.2,15665],[99.2,15748],[99.2,15831],[99.2,15915],[99.2,15998],[99.2,16081],[99.2,16166],[99.2,16248],[99.2,16330],[99.2,16415],[99.2,16499],[99.2,16586],[99.2,16667],[99.2,16751],[99.2,16836],[99.2,16918],[99.2,17000],[99.2,17085],[99.2,17167],[99.2,17251],[99.2,17334],[99.2,17418],[99.2,17502],[99.2,17583],[99.2,17667],[99.2,17752],[99.2,17833],[99.2,17916],[99.2,18000],[99.2,18083],[99.2,18168],[99.2,18251],[99.2,18334],[99.2,18417],[99.2,18500],[99.2,18583],[99.2,18666],[99.2,18750],[99.2,18833],[99.2,18916],[99.2,19000],[99.2,19083],[99.2,19167],[99.2,19250],[99.2,19333],[99.2,19416],[99.2,19499],[99.2,19583],[99.2,19666],[99.2,19750],[99.2,19835],[99.2,19918],[99.2,20001],[99.2,20086],[99.2,20170],[99.2,20250],[99.2,20334],[99.2,20416],[99.2,20499],[99.2,20583],[99.2,20666],[99.2,20751],[99.2,20834],[99.2,20918],[99.2,21002],[99.2,21085],[99.2,21166],[99.2,21250],[99.2,21334],[99.2,21419],[99.2,21500],[99.2,21583],[99.2,21667],[99.2,21750],[99.2,21834],[99.2,21918],[99.2,22001],[99.2,22084],[99.2,22168],[99.2,22251],[99.2,22335],[99.2,22417],[99.2,22501],[99.2,22586],[99.2,22667],[99.2,22751],[99.2,22835],[99.2,22917],[99.2,23001],[99.2,23084],[99.2,23168],[99.2,23252],[99.2,23334],[99.2,23417],[99.2,23502],[99.2,23584],[99.2,23667],[99.2,23752],[99.2,23834],[99.2,23917],[99.2,24001],[99.2,24083],[99.2,24168],[99.2,24251],[99.2,24334],[99.2,24417],[99.2,24501],[99.2,24584],[99.2,24666],[99.2,24750],[99.2,24835],[99.2,24916],[99.2,24999],[99.2,25084],[99.2,25166],[99.2,25249],[99.2,25334],[99.2,25416],[99.2,25500],[99.2,25583],[99.2,25666],[99.2,25750],[99.2,25832],[99.2,25917],[99.2,26000],[99.2,26084],[99.2,26167],[99.2,26250],[99.2,26333],[99.2,26416],[99.2,26499],[99.2,26583],[99.2,26667],[99.2,26750],[99.2,26833],[99.2,26917],[99.2,27000],[99.2,27084],[99.2,27167],[99.2,27250],[99.2,27335],[99.2,27416],[99.2,27499],[99.2,27583],[99.2,27666],[99.2,27750],[99.2,27833],[99.2,27916],[99.2,27999],[99.2,28083],[99.2,28167],[99.2,28250],[99.2,28333],[99.2,28416],[99.2,28499],[99.2,28582],[99.2,28665],[99.2,28749],[99.2,28832],[99.2,28916],[99.2,29000],[99.2,29084],[99.2,29167],[99.2,29250],[99.2,29334],[99.2,29417],[99.2,29500],[99.2,29583],[99.2,29666],[99.2,29751],[99.2,29833],[99.2,29917],[99.2,29999],[99.2,30083],[99.2,30167],[99.2,30251],[99.2,30333],[99.2,30418],[99.2,30500],[99.2,30582],[99.2,30666],[99.2,30749],[99.2,30833],[99.2,30918],[99.2,31000],[99.2,31084],[99.2,31168],[99.2,31249],[99.2,31334],[99.2,31418],[99.2,31500],[99.2,31583],[99.2,31667],[99.2,31750],[99.2,31834],[99.2,31918],[99.2,32001],[99.2,32086],[99.2,32167],[99.2,32250],[99.2,32335],[99.2,32417],[99.2,32501],[99.2,32585],[99.2,32667],[99.2,32752],[99.2,32834],[99.2,32917],[99.2,33001],[99.2,33084],[99.2,33168],[99.2,33250],[99.2,33334],[99.2,33417],[99.2,33501],[99.2,33586],[99.2,33666],[99.2,33750],[99.2,33835],[99.2,33917],[99.2,34000],[99.2,34085],[99.2,34166],[99.2,34250],[99.2,34335],[99.2,34417],[99.2,34500],[99.2,34585],[99.2,34666],[99.2,34750],[99.2,34835],[99.2,34916],[99.2,35000],[99.2,35084],[99.2,35167],[99.2,35251],[99.2,35334],[99.2,35420],[99.2,35500],[99.2,35584],[99.2,35666],[99.2,35750],[99.2,35833],[99.2,35918],[99.2,35999],[99.2,36084],[99.2,36168],[99.2,36250],[99.2,36334],[99.2,36418],[99.2,36500],[99.2,36586],[99.2,36667],[99.2,36749],[99.2,36835],[99.2,36919],[99.2,37002],[99.2,37084],[99.2,37167],[99.2,37250],[99.2,37333],[99.2,37417],[99.2,37502],[99.2,37582],[99.2,37667],[99.2,37752],[99.2,37833],[99.2,37918],[99.2,38000],[99.2,38083],[99.2,38168],[99.2,38250],[99.2,38333],[99.2,38416],[99.2,38500],[99.2,38585],[99.2,38666],[99.2,38750],[99.2,38835],[99.2,38916],[99.2,39000],[99.2,39085],[99.2,39167],[99.2,39250],[99.2,39335],[99.2,39418],[99.2,39499]]",992.27,995.722,99.04831625,2.1485,"[{""rating"":99.04831625183016,""responseTime"":2.1485000000000127}]",space,2.9012,,995.7221,Not at all,0,995.7267,,,[],,0,9,9,9,1,audio/Narrative7Situation9.wav,audio/Narrative8Situation9.wav,audio/Narrative5Situation9.wav,audio/Narrative6Situation9.wav,2,3,3,4,,,,,,,,,,,,,,,,,,,,,,,,,,,,,,,,,,,,,
,,,,,672ceecd4b982fd2123fa32f,2025-07-08_00h05.29.608,group3.4_multiperson,2023.2.2,Win32,59.88023952,686c2ebf0248f13bef9af11f,686c96481f210a081c6dff5b,,,,,,,,,,,,,,,,,,,,,,,,,,,,,995.7276,2,audio/Narrative6Situation1.wav,997.7369,,997.7371,1024.333,"[[87.2,4101],[48.1,4684],[52.5,4766],[52.5,4849],[52.5,4928],[52.5,5012],[52.5,5096],[52.5,5179],[56,5264],[64.5,5347],[64.9,5430],[68.2,5514],[69.8,5599],[69.8,5679],[69.8,5763],[71.1,5845],[71.1,5928],[71.1,6012],[71.1,6096],[71.1,6179],[71.1,6262],[71.1,6346],[71.1,6429],[71.1,6512],[71.1,6595],[71.1,6679],[71.1,6762],[71.1,6845],[71.1,6928],[71.1,7012],[71.1,7096],[71.1,7178],[71.1,7262],[71.2,7346],[71.2,7429],[71.2,7512],[71.2,7596],[71.2,7679],[71.2,7762],[71.2,7846],[71.2,7928],[71.2,8012],[71.2,8095],[71.2,8179],[71.2,8280],[71.2,8345],[71.2,8429],[71.2,8512],[71.2,8596],[71.2,8679],[71.2,8762],[71.2,8846],[71.2,8929],[71.2,9011],[71.2,9095],[71.2,9179],[71.2,9262],[71.2,9346],[71.2,9428],[71.2,9512],[71.2,9596],[71.2,9679],[71.2,9762],[71.2,9845],[71.2,9929],[71.2,10012],[71.2,10095],[71.2,10178],[71.2,10262],[71.2,10346],[71.2,10429],[71.2,10512],[71.2,10594],[71.2,10678],[71.2,10762],[71.2,10846],[71.2,10929],[71.2,11011],[71.2,11095],[71.2,11179],[71.2,11262],[71.2,11345],[71.2,11428],[71.2,11511],[71.2,11595],[71.2,11678],[71.2,11762],[71.2,11846],[71.2,11929],[71.2,12012],[71.2,12095],[71.2,12178],[71.2,12262],[71.2,12345],[71.2,12429],[71.2,12512],[71.2,12596],[71.2,12679],[71.2,12762],[71.2,12845],[71.2,12929],[71.2,13012],[71.2,13095],[71.2,13178],[71.2,13262],[71.2,13345],[71.2,13428],[71.2,13512],[71.2,13596],[71.2,13678],[71.2,13762],[71.2,13845],[71.2,13928],[71.2,14012],[71.2,14094],[71.2,14178],[71.2,14262],[71.2,14345],[71.2,14429],[71.2,14512],[71.2,14596],[71.2,14678],[71.2,14764],[71.2,14845],[71.2,14929],[71.2,15012],[71.2,15095],[71.2,15178],[71.2,15262],[71.2,15345],[71.2,15429],[71.2,15512],[71.2,15596],[71.2,15678],[71.2,15762],[71.2,15845],[71.2,15928],[71.2,16011],[71.2,16095],[71.2,16178],[71.2,16261],[71.2,16344],[71.2,16427],[71.2,16511],[71.2,16594],[71.2,16677],[71.2,16761],[71.2,16844],[71.2,16927],[71.2,17011],[71.2,17094],[71.2,17178],[71.2,17261],[71.2,17345],[71.2,17428],[71.2,17511],[71.2,17594],[71.2,17677],[71.2,17761],[71.2,17845],[71.2,17928],[71.2,18012],[71.2,18095],[71.2,18178],[71.2,18262],[71.2,18345],[71.2,18428],[71.2,18511],[71.2,18595],[71.2,18678],[71.2,18762],[71.2,18845],[71.2,18928],[71.2,19012],[71.2,19094],[71.2,19177],[71.2,19261],[71.2,19344],[71.2,19428],[71.2,19511],[71.2,19595],[71.2,19678],[71.2,19762],[71.2,19844],[71.2,19930],[71.2,20011],[71.2,20094],[71.2,20180],[71.2,20263],[71.2,20345],[71.2,20428],[71.2,20511],[71.2,20594],[71.2,20677],[71.2,20760],[71.2,20844],[71.2,20927],[71.2,21011],[71.2,21094],[71.2,21177],[71.2,21261],[71.2,21345],[71.2,21428],[71.2,21511],[71.2,21594],[71.2,21679],[71.2,21761],[71.2,21846],[71.2,21928],[71.2,22012],[71.2,22095],[71.2,22178],[71.2,22262],[71.2,22345],[71.2,22428],[71.2,22511],[71.2,22595],[71.2,22678],[71.2,22761],[71.2,22844],[71.2,22928],[71.2,23012],[71.2,23095],[71.2,23178],[71.2,23261],[71.2,23345],[71.2,23428],[71.2,23511],[71.2,23595],[71.2,23678],[71.2,23762],[71.2,23845],[71.2,23928],[71.2,24011],[71.2,24095],[73.3,24179],[73.9,24261],[74.7,24347],[76.4,24431],[77.7,24512],[79.7,24595],[81.6,24680],[81.6,24761],[82.7,24845],[83.1,24931],[83.4,25010],[83.4,25095],[83.4,25178],[83.4,25261],[84,25346],[84.7,25428],[95.7,25511],[96.7,25594],[96.7,25678],[96.7,25761],[96.7,25845],[96.7,25928],[96.7,26011],[96.7,26094],[96.7,26178],[96.7,26261],[96.7,26344],[96.7,26428],[96.7,26511],[96.7,26595]]",1024.3335,1028.3156,63.03074671,2.4688,"[{""rating"":63.03074670571011,""responseTime"":2.4688000000044212}]",space,3.4469,,1028.3157,Partially,50,1028.3235,,,[],,0,10,10,10,1,audio/Narrative8Situation1.wav,audio/Narrative7Situation1.wav,audio/Narrative6Situation1.wav,audio/Narrative5Situation1.wav,5,2,2,5,,,,,,,,,,,,,,,,,,,,,,,,,,,,,,,,,,,,,
,,,,,672ceecd4b982fd2123fa32f,2025-07-08_00h05.29.608,group3.4_multiperson,2023.2.2,Win32,59.88023952,686c2ebf0248f13bef9af11f,686c96481f210a081c6dff5b,,,,,,,,,,,,,,,,,,,,,,,,,,,,,1028.3241,2,audio/Narrative6Situation2.wav,1031.3323,,1031.3324,1059.8479,"[[62.6,1335],[62.6,1416],[62.6,1500],[61.1,1585],[61,1666],[60.1,1749],[60.1,1832],[58.8,1916],[59.4,2004],[63.2,2084],[65.4,2166],[67.1,2249],[69,2332],[74.7,2416],[76.8,2500],[77.7,2584],[78.1,2668],[79.4,2753],[81,2832],[83.2,2916],[83.8,3002],[85.7,3082],[85.7,3165],[87,3249],[88.5,3332],[88.5,3415],[88.5,3498],[88.5,3583],[88.5,3665],[88.5,3749],[88.5,3832],[88.5,3915],[88.5,4000],[88.5,4082],[88.5,4166],[88.5,4249],[88.5,4333],[88.5,4416],[88.5,4500],[88.5,4583],[88.5,4666],[88.5,4749],[88.5,4833],[88.5,4915],[88.5,4998],[88.5,5082],[88.5,5165],[88.5,5249],[88.5,5333],[88.7,5416],[88.9,5501],[88.9,5583],[88.9,5666],[89.1,5751],[89.1,5833],[89.2,5915],[89.2,5999],[90,6083],[90.7,6166],[91.4,6250],[91.4,6332],[91.4,6416],[92.2,6500],[92.6,6583],[92.6,6666],[92.6,6748],[92.8,6831],[92.8,6914],[92.8,6998],[92.8,7083],[92.8,7165],[92.8,7250],[92.8,7331],[92.8,7414],[93,7499],[93,7582],[93,7664],[93,7748],[93,7833],[93,7914],[93,7999],[93,8082],[93,8165],[93,8248],[93,8331],[93,8415],[93,8498],[93,8581],[93,8665],[93,8748],[93,8832],[93,8914],[93.2,8998],[93.6,9081],[93.6,9164],[93.6,9248],[93.6,9331],[93.6,9415],[93.6,9498],[93.6,9582],[93.8,9667],[93.8,9749],[93.8,9832],[93.8,9916],[93.8,9998],[93.8,10082],[93.8,10165],[93.8,10248],[93.8,10332],[93.8,10415],[93.8,10499],[93.8,10582],[93.8,10665],[93.8,10748],[93.8,10832],[93.8,10915],[93.8,10998],[93.8,11082],[93.8,11165],[93.8,11248],[93.8,11333],[93.8,11416],[93.8,11499],[93.8,11582],[93.8,11665],[93.8,11749],[93.8,11833],[93.8,11914],[93.8,11998],[93.8,12082],[93.8,12166],[93.8,12248],[93.8,12332],[93.8,12415],[93.8,12499],[93.8,12583],[93.8,12665],[93.8,12748],[93.8,12832],[93.8,12915],[93.8,12999],[93.8,13081],[93.8,13165],[93.8,13250],[93.8,13332],[93.8,13415],[93.8,13499],[93.8,13582],[93.8,13665],[93.8,13750],[93.8,13832],[93.8,13917],[93.8,13999],[93.8,14081],[93.8,14165],[94.4,14249],[94.5,14332],[95.7,14416],[95.8,14500],[98.3,14583],[98.3,14665],[98.3,14748],[98.3,14832],[98.3,14914],[98.3,14999],[98.3,15081],[98.3,15165],[98.3,15250],[98.3,15332],[98.3,15415],[98.3,15498],[98.3,15581],[98.3,15665],[98.3,15748],[98.3,15831],[98.3,15915],[98.3,15999],[98.3,16082],[98.3,16164],[98.3,16249],[98.3,16333],[98.3,16414],[98.3,16498],[98.3,16582],[98.3,16665],[98.3,16747],[98.3,16832],[98.3,16915],[98.3,16998],[98.3,17081],[98.3,17164],[98.3,17248],[98.3,17332],[98.3,17415],[98.3,17498],[98.3,17583],[98.3,17665],[98.3,17748],[98.3,17832],[98.3,17914],[98.3,17998],[98.3,18082],[98.3,18164],[98.3,18247],[98.3,18332],[98.3,18415],[98.3,18498],[98.3,18583],[98.3,18665],[98.3,18748],[98.3,18832],[98.3,18915],[98.3,18998],[98.3,19081],[98.3,19164],[98.3,19248],[98.3,19333],[98.3,19415],[98.3,19498],[98.3,19582],[98.3,19665],[98.3,19749],[98.3,19831],[98.3,19915],[98.3,19997],[98.3,20082],[98.3,20164],[98.3,20248],[98.3,20331],[98.3,20415],[98.3,20498],[98.3,20582],[98.3,20665],[98.3,20748],[98.3,20832],[98.3,20915],[98.3,20999],[98.3,21082],[98.3,21164],[98.3,21247],[98.3,21331],[98.3,21414],[98.3,21498],[98.3,21581],[98.3,21664],[98.3,21748],[98.3,21831],[98.3,21914],[98.3,21999],[98.3,22082],[98.3,22164],[98.3,22247],[98.3,22332],[98.3,22415],[98.3,22498],[98.3,22581],[98.3,22665],[98.3,22748],[98.3,22831],[98.3,22914],[98.3,22998],[98.3,23083],[98.3,23165],[98.2,23248],[98.2,23331],[98.2,23415],[98.2,23498],[98.2,23582],[98.2,23665],[98.2,23747],[98.2,23832],[98.2,23915],[98.2,23998],[98.2,24081],[98.2,24165],[98.2,24250],[98.2,24332],[98.2,24415],[98.2,24498],[98.2,24581],[98.2,24664],[98.2,24748],[98.2,24832],[98.2,24914],[98.2,24998],[98.2,25081],[98.2,25164],[98.2,25248],[98.2,25330],[98.2,25414],[98.2,25498],[98.2,25582],[98.2,25665],[98.2,25748],[98.2,25831],[98.2,25914],[98.2,26000],[98.2,26081],[98.2,26164],[98.2,26248],[98.2,26331],[98.2,26414],[98.2,26498],[98.2,26582],[98.2,26664],[98.2,26748],[98.2,26831],[98.2,26914],[98.2,26998],[98.2,27082],[98.2,27165],[98.2,27247],[98.2,27332],[98.2,27414],[98.2,27498],[98.2,27582],[98.2,27665],[98.2,27748],[98.2,27831],[98.2,27915],[98.2,27999],[98.2,28081],[98.2,28165],[98.2,28248],[98.2,28330],[98.2,28414],[98.2,28497]]",1059.8485,1063.8967,98.6090776,2.8578,"[{""rating"":98.6090775988287,""responseTime"":2.8578000000043176}]",space,3.4977,,1063.8968,Not at all,0,1063.8998,,,[],,0,11,11,11,1,audio/Narrative8Situation2.wav,audio/Narrative7Situation2.wav,audio/Narrative6Situation2.wav,audio/Narrative5Situation2.wav,3,3,3,3,,,,,,,,,,,,,,,,,,,,,,,,,,,,,,,,,,,,,
,,,,,672ceecd4b982fd2123fa32f,2025-07-08_00h05.29.608,group3.4_multiperson,2023.2.2,Win32,59.88023952,686c2ebf0248f13bef9af11f,686c96481f210a081c6dff5b,,,,,,,,,,,,,,,,,,,,,,,,,,,,,1063.9001,2,audio/Narrative6Situation3.wav,1068.9131,,1068.9132,1081.5303,"[[95.2,667],[75.2,751],[59.5,836],[53.4,916],[49.4,1000],[49,1083],[49,1166],[49,1250],[50,1333],[51,1416],[51,1500],[51,1583],[51.2,1668],[51.8,1751],[56.4,1836],[61,1916],[63.6,2001],[72.1,2085],[79.7,2167],[80.3,2249],[81,2335],[81.5,2416],[81.8,2499],[81.8,2583],[82.1,2667],[82.1,2750],[82.1,2833],[82.1,2916],[82.1,2999],[82.1,3082],[81.9,3166],[81.5,3249],[81.5,3332],[81.3,3418],[81.2,3500],[80.7,3585],[78.3,3667],[74.6,3751],[71.5,3834],[69.6,3919],[69.3,3999],[69.3,4083],[69.3,4167],[69.3,4249],[69.3,4333],[69.3,4417],[69.2,4500],[69,4584],[68.9,4666],[68.9,4750],[68.9,4833],[68.6,4916],[68.6,4999],[68.6,5082],[68.6,5166],[68.6,5250],[68.6,5332],[68.6,5416],[68.6,5499],[68.6,5583],[68.6,5670],[68.6,5750],[68.6,5833],[68.6,5916],[68.6,6000],[68.6,6083],[68.6,6166],[68.6,6249],[69.2,6335],[70.1,6417],[70.4,6499],[70.5,6582],[71.1,6671],[71.5,6751],[72.1,6834],[72.3,6918],[72.7,7003],[76.4,7083],[79.1,7167],[80,7249],[80.5,7337],[81.6,7416],[83.2,7500],[84.8,7583],[84.8,7666],[85.4,7750],[86.9,7835],[87.3,7917],[88.9,8001],[89.1,8083],[89.8,8165],[89.8,8249],[91.3,8333],[91.3,8417],[91.3,8499],[91.7,8584],[92.5,8668],[92.5,8749],[92.9,8834],[92.9,8915],[93,9000],[93.3,9082],[93.3,9165],[93.3,9249],[93.5,9333],[93.5,9416],[93.8,9502],[93.8,9582],[93.8,9666],[93.8,9750],[93.8,9832],[93.9,9915],[97,10004],[97.1,10083],[97.3,10165],[97.3,10249],[97.3,10332],[98.5,10418],[98.5,10499],[98.5,10583],[98.5,10666],[98.5,10750],[98.5,10833],[98.5,10916],[98.5,11000],[98.5,11082],[98.5,11165],[98.5,11249],[98.5,11333],[98.5,11416],[98.5,11499],[98.5,11583],[98.5,11666],[98.5,11749],[98.5,11833],[98.5,11916],[98.5,12000],[98.5,12082],[98.5,12166],[98.5,12249],[98.5,12332],[98.5,12416],[98.5,12499],[98.5,12582]]",1081.5307,1084.2621,98.75549048,1.2966,"[{""rating"":98.75549048316252,""responseTime"":1.2966000000014901}]",space,2.1901,,1084.2621,Definitely yes,100,1084.2666,,,[],,0,12,12,12,1,audio/Narrative8Situation3.wav,audio/Narrative7Situation3.wav,audio/Narrative6Situation3.wav,audio/Narrative5Situation3.wav,4,8,5,3,,,,,,,,,,,,,,,,,,,,,,,,,,,,,,,,,,,,,
