consent.started,consent.stopped,consentResponse.keys,consentResponse.rt,consentResponse.duration,participantID,date,expName,psychopyVersion,OS,frameRate,STUDY_ID,SESSION_ID,opening1.started,opening1.stopped,keyEndingOpening1.keys,keyEndingOpening1.rt,keyEndingOpening1.duration,volumeAdjust.started,volumeAdjust.stopped,endingAdjust.keys,endingAdjust.rt,endingAdjust.duration,opening2.started,opening2.stopped,keyEndingOpening.keys,keyEndingOpening.rt,keyEndingOpening.duration,mouse.x,mouse.y,mouse.leftButton,mouse.midButton,mouse.rightButton,mouse.time,instructionLoop.thisRepN,instructionLoop.thisTrialN,instructionLoop.thisN,instructionLoop.thisIndex,instructionLoop.ran,readyForAudio.started,readyForAudio.stopped,fixation.started,run,audio_played,fixation.stopped,endPractice.keys,audioPre.started,audioPre.stopped,continuousResponses_audio,intRating.started,intRating.stopped,intQuestionSlider.response,intQuestionSlider.rt,intQuestionSlider.history,confirmResponse.keys,confirmResponse.rt,confirmResponse.duration,catchQuestion.started,catch_label,catch_value,catchQuestion.stopped,catchQuestionSlider.response,catchQuestionSlider.rt,catchQuestionSlider.history,confirmResponse_2.keys,audioRunLoop.thisRepN,audioRunLoop.thisTrialN,audioRunLoop.thisN,audioRunLoop.thisIndex,audioRunLoop.ran,conditions1_1,conditions2_1,conditions1_2,conditions2_2,dur1_1,dur2_1,dur1_2,dur2_2,endPractice.rt,endPractice.duration,confirmResponse_2.rt,confirmResponse_2.duration,runIntervalBreak.started,runIntervalBreak.stopped,endingBreakKey.keys,endingBreakKey.rt,endingBreakKey.duration,connection.started,connection.stopped,connectionEnding.keys,connectionEnding.rt,connectionEnding.duration,readyForText.started,readyForText.stopped,textPre.started,run_dup,textPre.stopped,continuousResponses_text,textRunLoop.thisRepN,textRunLoop.thisTrialN,textRunLoop.thisN,textRunLoop.thisIndex,textRunLoop.ran,text1_1,text1_2,text2_1,text2_2,runBreakText.started,runBreakText.stopped,endingBreakKey_2.keys,endingBreakKey_2.rt,endingBreakKey_2.duration,ending.started,ending.stopped,endingEnding.keys,endingEnding.rt,endingEnding.duration
0.0003,13.2055,y,12.8817,,672c74f54295206bddb0146a,2025-07-08_00h31.09.765,group3.4_multiperson,2023.2.2,Win32,60.24096386,686c2ebf0248f13bef9af11f,686cace4967a3cd79a5bba1d,,,,,,,,,,,,,,,,,,,,,,,,,,,,,,,,,,,,,,,,,,,,,,,,,,,,,,,,,,,,,,,,,,,,,,,,,,,,,,,,,,,,,,,,,,,,,,,,,,,,,,,,
,,,,,672c74f54295206bddb0146a,2025-07-08_00h31.09.765,group3.4_multiperson,2023.2.2,Win32,60.24096386,686c2ebf0248f13bef9af11f,686cace4967a3cd79a5bba1d,13.206,19.5607,space,6.3076,,,,,,,,,,,,,,,,,,,,,,,,,,,,,,,,,,,,,,,,,,,,,,,,,,,,,,,,,,,,,,,,,,,,,,,,,,,,,,,,,,,,,,,,,,,,,,,,,,,,
,,,,,672c74f54295206bddb0146a,2025-07-08_00h31.09.765,group3.4_multiperson,2023.2.2,Win32,60.24096386,686c2ebf0248f13bef9af11f,686cace4967a3cd79a5bba1d,,,,,,19.561,38.6749,space,18.7939,,,,,,,,,,,,,,,,,,,,,,,,,,,,,,,,,,,,,,,,,,,,,,,,,,,,,,,,,,,,,,,,,,,,,,,,,,,,,,,,,,,,,,,,,,,,,,,
,,,,,672c74f54295206bddb0146a,2025-07-08_00h31.09.765,group3.4_multiperson,2023.2.2,Win32,60.24096386,686c2ebf0248f13bef9af11f,686cace4967a3cd79a5bba1d,,,,,,,,,,,38.6795,62.0775,space,23.3669,,[],[],[],[],[],[],0,0,0,0,1,,,,,,,,,,,,,,,,,,,,,,,,,,,,,,,,,,,,,,,,,,,,,,,,,,,,,,,,,,,,,,,,,,,,,,,,,,,,,,
,,,,,672c74f54295206bddb0146a,2025-07-08_00h31.09.765,group3.4_multiperson,2023.2.2,Win32,60.24096386,686c2ebf0248f13bef9af11f,686cace4967a3cd79a5bba1d,,,,,,,,,,,62.0779,91.3175,space,29.0891,,[-0.52265625],[-0.05277777777777778],[1],[0],[0],[27.26640000009536],1,0,1,0,1,,,,,,,,,,,,,,,,,,,,,,,,,,,,,,,,,,,,,,,,,,,,,,,,,,,,,,,,,,,,,,,,,,,,,,,,,,,,,,
,,,,,672c74f54295206bddb0146a,2025-07-08_00h31.09.765,group3.4_multiperson,2023.2.2,Win32,60.24096386,686c2ebf0248f13bef9af11f,686cace4967a3cd79a5bba1d,,,,,,,,,,,91.3179,116.1208,space,24.742,,[],[],[],[],[],[],2,0,2,0,1,,,,,,,,,,,,,,,,,,,,,,,,,,,,,,,,,,,,,,,,,,,,,,,,,,,,,,,,,,,,,,,,,,,,,,,,,,,,,,
,,,,,672c74f54295206bddb0146a,2025-07-08_00h31.09.765,group3.4_multiperson,2023.2.2,Win32,60.24096386,686c2ebf0248f13bef9af11f,686cace4967a3cd79a5bba1d,,,,,,,,,,,116.1212,134.7189,space,18.5721,,[],[],[],[],[],[],3,0,3,0,1,,,,,,,,,,,,,,,,,,,,,,,,,,,,,,,,,,,,,,,,,,,,,,,,,,,,,,,,,,,,,,,,,,,,,,,,,,,,,,
,,,,,672c74f54295206bddb0146a,2025-07-08_00h31.09.765,group3.4_multiperson,2023.2.2,Win32,60.24096386,686c2ebf0248f13bef9af11f,686cace4967a3cd79a5bba1d,,,,,,,,,,,134.7192,149.9649,space,15.2195,,[],[],[],[],[],[],4,0,4,0,1,,,,,,,,,,,,,,,,,,,,,,,,,,,,,,,,,,,,,,,,,,,,,,,,,,,,,,,,,,,,,,,,,,,,,,,,,,,,,,
,,,,,672c74f54295206bddb0146a,2025-07-08_00h31.09.765,group3.4_multiperson,2023.2.2,Win32,60.24096386,686c2ebf0248f13bef9af11f,686cace4967a3cd79a5bba1d,,,,,,,,,,,149.9652,375.347,space,225.3592,,[-0.3625],[-0.011111111111111112],[1],[0],[0],[224.32840000009537],5,0,5,0,1,,,,,,,,,,,,,,,,,,,,,,,,,,,,,,,,,,,,,,,,,,,,,,,,,,,,,,,,,,,,,,,,,,,,,,,,,,,,,,
,,,,,672c74f54295206bddb0146a,2025-07-08_00h31.09.765,group3.4_multiperson,2023.2.2,Win32,60.24096386,686c2ebf0248f13bef9af11f,686cace4967a3cd79a5bba1d,,,,,,,,,,,,,,,,,,,,,,,,,,,375.3496,377.9323,377.9513,1,audio/Narrative13Situation2.wav,379.9577,,379.9578,409.7083,"[[46,109],[46,192],[46,276],[45.9,359],[45.6,443],[45.6,526],[45.6,610],[47.4,693],[47.7,776],[48.1,860],[48.6,943],[49.2,1027],[49.3,1110],[49.8,1193],[49.8,1277],[49.7,1360],[49.1,1444],[48.8,1527],[48.5,1610],[48.5,1694],[48.5,1777],[48.5,1860],[48.5,1944],[48.4,2028],[48,2111],[47.9,2194],[47.9,2278],[47.7,2361],[47.7,2444],[47.7,2528],[47.7,2611],[42.4,2694],[27.3,2778],[22.2,2861],[22.2,2945],[22.2,3028],[21.7,3111],[21.7,3195],[21.7,3278],[21.7,3362],[21.7,3445],[22.1,3529],[23.6,3612],[25.5,3696],[26,3779],[26,3862],[26,3946],[26,4029],[26.5,4112],[32.3,4196],[40.9,4279],[56.1,4363],[93.2,5030],[94.4,5113],[96.8,5197],[99.6,5280],[100,5363],[100,5447],[100,5530],[100,5613],[100,5697],[100,5780],[100,5864],[100,5947],[100,6030],[100,6114],[100,6197],[100,6281],[100,6364],[100,6447],[100,6531],[99,6615],[84.4,6698],[64.8,6781],[64.5,6865],[62.8,6948],[54.7,7031],[51.9,7115],[51,7198],[50.3,7282],[50.3,7365],[50.3,7448],[50.3,7532],[50.3,7615],[50.3,7698],[50.3,7782],[50.3,7865],[50.3,7949],[50.3,8032],[50.3,8115],[50.3,8199],[50.3,8282],[50.3,8366],[50.2,8449],[49.8,8533],[49.5,8616],[49.5,8699],[49.5,8783],[49.5,8866],[50.2,8950],[50.5,9033],[51.1,9116],[51.1,9200],[51.3,9283],[52.7,9367],[54.2,9450],[54.2,9533],[54.2,9617],[55.2,9700],[57.7,9784],[58.3,9867],[58.3,9950],[58.3,10034],[60.2,10117],[64.6,10201],[66.3,10284],[66.3,10367],[66.3,10451],[66.3,10534],[66.3,10617],[66.3,10701],[66.3,10785],[66.2,10868],[66.2,10951],[66.2,11034],[66.2,11118],[66,11201],[65.9,11285],[65.9,11368],[65.9,11452],[65.9,11535],[65.9,11618],[65.9,11702],[65.9,11785],[65.9,11868],[65.9,11952],[68.3,12035],[72.5,12119],[78.4,12202],[87.6,12286],[90.4,12369],[92.9,12453],[94.1,12536],[95.1,12619],[98.6,12703],[100,12786],[100,12870],[100,12953],[100,13036],[100,13120],[100,13203],[100,13286],[100,13370],[100,13453],[100,13536],[100,13620],[100,13703],[100,13787],[100,13870],[100,13954],[100,14037],[100,14120],[100,14204],[100,14287],[100,14371],[100,14454],[100,14537],[100,14621],[100,14704],[100,14788],[100,14871],[100,14954],[100,15038],[100,15121],[100,15204],[100,15288],[100,15371],[100,15455],[100,15538],[100,15621],[100,15705],[100,15788],[100,15872],[100,15955],[100,16039],[98.4,16122],[90.9,16205],[82.4,16289],[71.8,16372],[62.5,16456],[51.6,16539],[47.3,16622],[46.9,16706],[44.5,16789],[44.4,16872],[44.4,16956],[44.4,17040],[44.4,17123],[44.3,17206],[42.6,17290],[13.4,17373],[3.3,21794],[8.2,21877],[15.2,21960],[31.8,22044],[51.9,22127],[60.9,22210],[60.9,22294],[59.6,22378],[57.1,22460],[56.7,22544],[56,22627],[56,22711],[56,22794],[59.3,22878],[64.7,22961],[70.6,23045],[72.4,23128],[80,23211],[82.4,23295],[82.4,23378],[81.7,23461],[79.8,23545],[77,23628],[73.2,23712],[71.9,23795],[71.6,23878],[71.6,23961],[70.9,24045],[67.4,24129],[65.1,24212],[64,24295],[63.3,24379],[63,24462],[60.4,24546],[60.2,24629],[60.2,24712],[60.2,24796],[59.1,24879],[57.7,24963],[57.2,25046],[55.2,25129],[51.9,25213],[51.8,25296],[51.8,25379],[51.6,25463],[51.6,25546],[51.6,25630],[51.6,25713],[51.6,25796],[51.6,25880],[51.6,25963],[51.6,26047],[51.6,26130],[51.6,26213],[44.1,26297],[26,26381],[18.4,26464],[18.3,26547],[18.3,26630],[18.4,26714],[20.5,26798],[24.5,26881],[29.1,26964],[31.5,27048],[31.6,27131],[31.6,27214],[31.6,27298],[31.6,27381],[31.6,27464],[31.6,27548],[31.6,27631],[31.6,27715],[31.6,27798],[31.6,27881],[31.6,27965],[31.6,28048],[31.6,28132],[31.6,28215],[31.6,28299],[31.6,28382],[31.6,28465],[31.6,28549],[31.6,28632],[31.6,28715],[31.6,28799],[31.6,28882],[31.6,28966],[31.6,29049],[31.6,29132],[31.6,29216],[31.6,29299],[31.6,29383],[31.6,29466],[31.6,29550],[31.6,29633],[31.6,29716]]",409.7086,419.1325,54.375,7.3787,"[{""rating"":54.37499999999999,""responseTime"":7.378700000286074}]",space,8.8823,,419.1328,Not at all,0,419.1373,,,[],,0,0,0,0,1,audio/Narrative13Situation2.wav,audio/Narrative13Situation2.wav,audio/Narrative13Situation2.wav,audio/Narrative13Situation2.wav,2,2,2,2,,,,,,,,,,,,,,,,,,,,,,,,,,,,,,,,,,,,,,,
,,,,,672c74f54295206bddb0146a,2025-07-08_00h31.09.765,group3.4_multiperson,2023.2.2,Win32,60.24096386,686c2ebf0248f13bef9af11f,686cace4967a3cd79a5bba1d,,,,,,,,,,,,,,,,,,,,,,,,,,,,,419.1376,1,audio/Narrative7Situation1.wav,423.7361,space,423.7362,479.6312,"[[58,667],[58,750],[57.7,834],[57.7,917],[57.3,1007],[57.3,1090],[57.3,1167],[57.3,1250],[55.9,1341],[51.6,1424],[50.4,1507],[49.8,1584],[49.8,1667],[53.5,1758],[63.4,1841],[68.4,1924],[68.8,2001],[68.8,2084],[68.8,2168],[68.8,2251],[68.7,2341],[68.9,2424],[70.1,2508],[70.9,2585],[72.1,2675],[73,2758],[74,2842],[74.2,2918],[74.2,3002],[74.2,3085],[74.2,3169],[74.2,3252],[74.2,3335],[74.2,3419],[74.2,3502],[74.2,3585],[74.2,3669],[74.2,3752],[74.4,3836],[75.7,3926],[76.6,4009],[80,4093],[90.2,4176],[100,4253],[100,4343],[100,4426],[100,4510],[100,4593],[100,4670],[100,4753],[100,4837],[100,4927],[100,5010],[100,5093],[100,5170],[100,5253],[100,5337],[100,5420],[100,5504],[100,5587],[100,5671],[100,5760],[98.5,5844],[92,5921],[88.8,6011],[88.7,6094],[88.4,6171],[88.4,6254],[88.4,6338],[88.4,6421],[88.4,6504],[88.4,6588],[88.4,6671],[88.4,6755],[88.4,6838],[88.4,6921],[88.4,7005],[88.4,7088],[88.4,7172],[88.4,7255],[88.4,7338],[88.4,7422],[88.4,7505],[88.4,7589],[88.4,7672],[88.4,7756],[88.4,7839],[88.4,7922],[88.4,8006],[88.4,8089],[88.4,8172],[88.4,8256],[88.4,8339],[88.4,8423],[88.4,8506],[89,8596],[91.2,8680],[94.1,8764],[100,15269],[100,15352],[100,15435],[99.8,15512],[99.7,15595],[100,15686],[100,15769],[100,15845],[100,15929],[100,16019],[100,16096],[100,16179],[100,16262],[100,16346],[100,16429],[100,16512],[100,16596],[100,16680],[100,16763],[100,16846],[100,16929],[100,17013],[100,17096],[100,17187],[96.6,17271],[86.6,17354],[75.8,17437],[75,17520],[75.9,17604],[78,17687],[78.6,17764],[78.6,17847],[78.6,17930],[78.6,18014],[78.8,18097],[78.9,18188],[79,18264],[79.1,18348],[79.1,18431],[79.3,18521],[79.5,18605],[79.7,18688],[79.8,18764],[79.8,18848],[79.8,18935],[79.8,19014],[74.1,19105],[69,19182],[62.7,19272],[53.9,19355],[50,19439],[49.1,19522],[48.7,19598],[49.5,19689],[50.9,19772],[53.4,19856],[54.8,19932],[56.9,20022],[57.5,20106],[58,20182],[58,20266],[58,20349],[65.3,20439],[75.2,20523],[87.7,20606],[100,20689],[100,20773],[100,20849],[100,20933],[100,21023],[99.8,21100],[99.8,21183],[99.8,21266],[99.8,21350],[99.8,21433],[99.8,21516],[99.8,21600],[99.4,21690],[98,21774],[93.9,21857],[93.1,21934],[92.9,22017],[92.9,22101],[92.9,22184],[93.1,22268],[94.6,22358],[96.3,22441],[97.7,22524],[99,22608],[100,22685],[100,22768],[100,22851],[100,22934],[100,23018],[100,23101],[100,23185],[100,23268],[100,23358],[100,23435],[100,23518],[100,23602],[100,23685],[100,23769],[100,23852],[100,23935],[100,24019],[100,24102],[100,24185],[100,24269],[100,24352],[100,24436],[100,24519],[100,24602],[100,24686],[100,24769],[100,24853],[100,24936],[100,25019],[100,25103],[100,25186],[100,25270],[100,25353],[100,25437],[100,25520],[100,25603],[100,25687],[100,25770],[100,25853],[100,25937],[100,26020],[100,26104],[100,26187],[100,26270],[100,26354],[100,26437],[100,26521],[100,26604],[100,26688],[100,26771],[100,26854],[100,26938],[100,27021],[100,27105],[100,27188],[100,27271],[100,27355],[100,27438],[100,27521],[100,27605],[100,27688],[100,27772],[100,27855],[100,27938],[100,28022],[100,28105],[99.4,28196],[96.3,28279],[90.9,28356],[82.7,28446],[77.5,28522],[73,28613],[72.7,28689],[72,28773],[70.7,28863],[66.1,28947],[63.3,29030],[61.7,29113],[60.5,29197],[59.7,29280],[58.9,29364],[58.4,29447],[58.4,29523],[58.4,29606],[58.4,29697],[58.4,29773],[59.1,29864],[59.6,29947],[60,30030],[60,30107],[60,30190],[60,30274],[60.1,30357],[58.8,30447],[56.5,30532],[55.1,30607],[53.4,30698],[51.3,30782],[49.7,30865],[48,30948],[46.8,31032],[45.5,31115],[45,31198],[44,31282],[42.7,31365],[42.3,31441],[42.3,31525],[42.3,31608],[42.5,31692],[47.2,31782],[49.6,31866],[52.7,31949],[54.6,32033],[55.7,32116],[56.5,32192],[57.1,32276],[57.4,32366],[57.7,32442],[58,32533],[58.7,32609],[59.1,32692],[59.1,32776],[59.3,32867],[59.8,32950],[60.3,33026],[60.5,33113],[60.7,33193],[61,33284],[61.5,33367],[61.6,33443],[61.6,33526],[61.6,33610],[61.6,33694],[61.4,33776],[61.7,33860],[64.2,33951],[67,34034],[73.4,34117],[86.3,34201],[97.9,34284],[100,34367],[100,34444],[100,34534],[100,34617],[100,34694],[100,34777],[100,34861],[100,34944],[100,35035],[100,35118],[100,35201],[100,35285],[100,35361],[100,35445],[100,35528],[100,35612],[100,35702],[99.8,35778],[99.8,35862],[99.7,35945],[99.6,36029],[99.6,36112],[99.6,36195],[99.6,36279],[99.6,36362],[99.6,36445],[99.6,36529],[99.6,36612],[99.6,36696],[99.6,36779],[99.6,36862],[99.6,36946],[99.6,37029],[99.6,37112],[99.6,37196],[99.6,37279],[99.6,37363],[99.6,37446],[99.6,37529],[99.6,37613],[99.6,37696],[99.6,37780],[99.6,37863],[99.6,37947],[99.6,38030],[99.6,38113],[99.6,38197],[99.6,38280],[99.6,38364],[99.6,38447],[99.6,38530],[99.6,38614],[99.6,38697],[99.6,38781],[99.6,38864],[99.6,38947],[99.6,39031],[99.6,39114],[99.6,39198],[99.6,39281],[99.6,39364],[99.6,39454],[99.6,39531],[99.6,39615],[99.6,39698],[99.6,39781],[99.6,39865],[99.6,39948],[99.6,40032],[99.6,40115],[99.6,40198],[99.6,40282],[99.6,40365],[99.6,40449],[99.6,40532],[99.6,40615],[99.6,40699],[99.6,40789],[99.6,40866],[99.6,40949],[99.6,41032],[99.6,41116],[99.6,41199],[99.6,41283],[99.6,41366],[99.6,41449],[99.6,41533],[99.5,41623],[99.5,41700],[99.5,41783],[100,41873],[100,41950],[100,42033],[99.6,42123],[99.5,42200],[99.5,42283],[99.7,42367],[100,42457],[100,42534],[100,42617],[100,42700],[100,42784],[100,42867],[100,42951],[100,43034],[100,43117],[100,43201],[100,43284],[100,43368],[100,43451],[100,43534],[100,43618],[100,43701],[100,43785],[100,43868],[100,43951],[100,44035],[100,44118],[100,44202],[100,44285],[100,44368],[100,44452],[100,44535],[100,44618],[100,44702],[100,44785],[100,44869],[100,44952],[100,45036],[100,45119],[100,45203],[100,45286],[100,45369],[100,45453],[100,45536],[100,45619],[100,45703],[100,45786],[100,45870],[100,45953],[100,46036],[100,46120],[100,46203],[100,46287],[100,46370],[100,46453],[100,46537],[100,46620],[100,46704],[100,46787],[100,46871],[100,46954],[100,47037],[100,47121],[100,47204],[100,47288],[100,47371],[100,47454],[100,47538],[100,47621],[100,47704],[100,47788],[100,47871],[100,47955],[100,48038],[100,48127],[100,48205],[100,48295],[100,48372],[100,48455],[100,48538],[100,48622],[100,48705],[100,48789],[100,48872],[100,48955],[100,49039],[100,49122],[100,49206],[100,49289],[100,49372],[100,49456],[100,49539],[100,49623],[100,49706],[100,49789],[100,49873],[100,49956],[100,50040],[100,50123],[100,50206],[100,50290],[100,50373],[100,50457],[100,50540],[100,50623],[100,50707],[100,50790],[100,50874],[100,50957],[100,51040],[100,51124],[100,51207],[100,51291],[100,51378],[100,51457],[100,51541],[100,51624],[100,51708],[100,51791],[100,51875],[100,51958],[100,52041],[100,52125],[100,52208],[100,52291],[100,52375],[100,52458],[100,52542],[100,52625],[100,52709],[100,52792],[100,52875],[100,52959],[100,53042],[100,53125],[100,53209],[100,53292],[100,53376],[100,53459],[100,53543],[100,53626],[100,53709],[100,53793],[100,53876],[100,53959],[100,54043],[100,54126],[100,54210],[100,54293],[100,54377],[100,54460],[100,54543],[100,54627],[100,54710],[100,54793],[100,54877],[100,54960],[100,55044],[100,55127],[100,55211],[100,55294],[100,55377],[100,55461],[100,55544],[100,55627],[100,55711],[100,55794],[100,55878]]",479.6314,482.7503,85,2.2342,"[{""rating"":85,""responseTime"":2.234199999809391}]",space,2.5953,,482.7503,Definitely yes,100,482.7533,,,[],,0,1,1,1,1,audio/Narrative7Situation1.wav,audio/Narrative8Situation1.wav,audio/Narrative5Situation1.wav,audio/Narrative6Situation1.wav,2,5,5,2,4.5689,,,,,,,,,,,,,,,,,,,,,,,,,,,,,,,,,,,,,,
,,,,,672c74f54295206bddb0146a,2025-07-08_00h31.09.765,group3.4_multiperson,2023.2.2,Win32,60.24096386,686c2ebf0248f13bef9af11f,686cace4967a3cd79a5bba1d,,,,,,,,,,,,,,,,,,,,,,,,,,,,,482.7535,1,audio/Narrative7Situation2.wav,485.7694,,485.7695,493.259,"[[83.4,173],[83.5,250],[83.5,333],[83.5,416],[83.5,500],[83.5,583],[82.1,674],[74.5,757],[63.6,840],[56.8,924],[50.9,1007],[48.4,1090],[48.7,1167],[49.7,1257],[49.8,1334],[49.8,1417],[49.6,1507],[49.6,1584],[49.6,1667],[49.6,1751],[49.6,1834],[49.4,1924],[49.4,2001],[49.4,2084],[49.4,2168],[49.4,2251],[49.4,2341],[49.4,2418],[49.4,2502],[49.4,2585],[49.4,2668],[49.4,2752],[49.4,2835],[49.2,2925],[49.2,3002],[48.6,3091],[46.9,3175],[46.1,3259],[46.1,3335],[49.8,3426],[65.8,3509],[84.8,3592],[91.7,3676],[91.9,3759],[91.9,3836],[91.9,3919],[92.7,4003],[97.8,4093],[98.9,4169],[98.9,4253],[99.8,4342],[100,4426],[100,4503],[100,4586],[100,4670],[100,4753],[100,4837],[100,4920],[100,5003],[100,5087],[100,5170],[100,5254],[100,5337],[100,5420],[100,5504],[100,5587],[100,5671],[100,5754],[100,5837],[100,5921],[100,6004],[100,6088],[100,6171],[100,6255],[100,6338],[100,6421],[100,6505],[100,6588],[100,6672],[100,6755],[100,6838],[100,6922],[100,7005],[100,7088],[100,7172],[100,7261],[100,7339],[100,7422]]",493.2591,496.836,100,3.1091,"[{""rating"":100,""responseTime"":3.109099999904629}]",space,3.054,,496.836,Not at all,0,496.8384,,,[],,0,2,2,2,1,audio/Narrative7Situation2.wav,audio/Narrative8Situation2.wav,audio/Narrative5Situation2.wav,audio/Narrative6Situation2.wav,3,3,3,3,,,,,,,,,,,,,,,,,,,,,,,,,,,,,,,,,,,,,,,
,,,,,672c74f54295206bddb0146a,2025-07-08_00h31.09.765,group3.4_multiperson,2023.2.2,Win32,60.24096386,686c2ebf0248f13bef9af11f,686cace4967a3cd79a5bba1d,,,,,,,,,,,,,,,,,,,,,,,,,,,,,496.8386,1,audio/Narrative7Situation3.wav,504.8517,,504.8517,514.1326,"[[999,0],[999,83],[999,166],[999,250],[999,333],[999,416],[999,500],[999,583],[999,667],[999,750],[999,834],[999,917],[999,1000],[999,1083],[999,1173],[999,1257],[999,1340],[999,1424],[50.9,1507],[51.3,1591],[51.4,1667],[51.4,1751],[51.4,1834],[50.7,1925],[50.4,2007],[50.4,2084],[52.3,2175],[55.9,2258],[57.3,2334],[57.3,2418],[57.3,2501],[57.3,2585],[57.1,2675],[55.9,2759],[52.4,2842],[47,2925],[44.3,3009],[42.7,3092],[42.1,3175],[42.3,3252],[42.3,3335],[42.3,3419],[42.3,3507],[42.6,3592],[42.5,3669],[40.2,3759],[38.5,3842],[36.6,3919],[34.3,4009],[33.4,4093],[33.1,4169],[33.4,4253],[45.2,4343],[59.3,4426],[60.9,4509],[60.9,4590],[58.5,4677],[51.9,4760],[45.9,4843],[41,4927],[38,5010],[37.3,5087],[37.3,5170],[37.3,5254],[45.3,5344],[64.1,5427],[81.8,5511],[95.4,5594],[99,5677],[99.5,5761],[100,5844],[100,5921],[100,6004],[100,6088],[100,6171],[100,6261],[100,6338],[100,6428],[99.5,6511],[98.8,6595],[98.4,6671],[98.4,6755],[98.4,6838],[98.4,6922],[100,7012],[100,7095],[100,7172],[100,7255],[100,7345],[100,7429],[100,7513],[99.8,7594],[99.8,7679],[99.6,7762],[99.6,7839],[99.6,7922],[99.8,8006],[100,8096],[100,8173],[100,8256],[100,8339],[100,8423],[100,8506],[100,8590],[100,8673],[100,8756],[100,8840],[100,8923],[100,9007],[100,9090],[100,9180],[100,9257]]",514.1327,518.5127,81.71875,3.1679,"[{""rating"":81.71875,""responseTime"":3.167900000095301}]",space,3.8372,,518.5128,Partially,50,518.5151,,,[],,0,3,3,3,1,audio/Narrative7Situation3.wav,audio/Narrative8Situation3.wav,audio/Narrative5Situation3.wav,audio/Narrative6Situation3.wav,8,4,3,5,,,,,,,,,,,,,,,,,,,,,,,,,,,,,,,,,,,,,,,
,,,,,672c74f54295206bddb0146a,2025-07-08_00h31.09.765,group3.4_multiperson,2023.2.2,Win32,60.24096386,686c2ebf0248f13bef9af11f,686cace4967a3cd79a5bba1d,,,,,,,,,,,,,,,,,,,,,,,,,,,,,518.5153,1,audio/Narrative7Situation4.wav,521.5318,,521.5318,533.2412,"[[999,0],[999,83],[999,166],[999,250],[999,333],[999,417],[999,500],[999,583],[999,667],[999,750],[999,834],[999,917],[999,1007],[999,1084],[62.3,1174],[52.2,1424],[52,1508],[50.7,1591],[50.5,1667],[50.7,1758],[50.9,1834],[50.9,1918],[50.9,2001],[50.9,2085],[51,2176],[51,2251],[51,2335],[51,2418],[51,2501],[51,2585],[52.2,2668],[56,2752],[57.5,2842],[57.9,2918],[57.9,3002],[57.9,3085],[59.5,3176],[61,3259],[61.3,3335],[61.6,3419],[61.7,3502],[62.5,3586],[66,3676],[69.6,3759],[71.6,3843],[72,3919],[72.1,4003],[72.1,4086],[72.1,4170],[72.1,4259],[72.1,4336],[72.1,4420],[72.1,4503],[72,4593],[72,4676],[72,4753],[72,4837],[72,4920],[55.2,5010],[23.1,5094],[16.5,5177],[10.5,5254],[5.4,5344],[3,5427],[1,6595],[1.6,6671],[1.6,6755],[1.6,6838],[1.6,6922],[1.6,7005],[1.6,7089],[1.6,7172],[0.2,7263]]",533.2413,537.8115,5.46875,3.2508,"[{""rating"":5.46875,""responseTime"":3.2507999997139905}]",space,4.0379,,537.8116,Partially,50,537.813,,,[],,0,4,4,4,1,audio/Narrative7Situation4.wav,audio/Narrative8Situation4.wav,audio/Narrative5Situation4.wav,audio/Narrative6Situation4.wav,3,3,1,2,,,,,,,,,,,,,,,,,,,,,,,,,,,,,,,,,,,,,,,
,,,,,672c74f54295206bddb0146a,2025-07-08_00h31.09.765,group3.4_multiperson,2023.2.2,Win32,60.24096386,686c2ebf0248f13bef9af11f,686cace4967a3cd79a5bba1d,,,,,,,,,,,,,,,,,,,,,,,,,,,,,537.8132,1,audio/Narrative7Situation5.wav,542.8156,,542.8157,551.2892,"[[999,0],[999,83],[999,166],[999,250],[999,333],[999,416],[999,500],[999,590],[999,674],[999,750],[50.1,834],[50.1,924],[49.7,1007],[49.5,1084],[46.1,1174],[28.7,1258],[8.8,1341],[6.6,1424],[1.3,1758],[1.6,1841],[1.9,1925],[1.9,2001],[1.9,2084],[1.9,2168],[2,2251],[2.3,2341],[2.4,2418],[2.4,2501],[2.8,2592],[5.5,2675],[11.4,2759],[21.5,2842],[31.9,2925],[37.3,3009],[42.5,3092],[44.8,3175],[46.3,3259],[49.7,3342],[51.7,3425],[53.5,3509],[53.5,3586],[53.5,3669],[53.5,3752],[55.8,3842],[58.8,3926],[59.8,4009],[60.2,4086],[60.2,4169],[60.2,4253],[60.2,4336],[60.2,4420],[60.2,4503],[60.2,4586],[60.2,4670],[60.2,4753],[60.2,4837],[60.2,4920],[60.2,5010],[60.2,5087],[60.2,5170],[60.2,5254],[60.2,5337],[60.2,5421],[60.2,5504],[60.2,5587],[60.2,5671],[60.2,5754],[60.2,5837],[60.2,5921],[60.2,6004],[60.2,6088],[60.2,6171],[60.2,6254],[60.2,6338],[60.2,6421],[60.2,6505],[60.2,6588],[60.2,6672],[60,6755],[59.5,6845],[59.5,6922],[59.5,7005],[59.5,7089],[60.5,7178],[60.7,7255],[60.7,7339],[60.7,7422],[60.7,7505],[60.7,7589],[60.7,7672],[60.7,7756],[60.7,7839],[60.7,7923],[62.1,8013],[63,8096],[63,8173],[63.4,8263],[63.4,8339],[63.4,8423]]",551.2893,557.4275,54.140625,5.2264,"[{""rating"":54.140625,""responseTime"":5.226399999618593}]",space,5.6075,,557.4276,Partially,50,561.8477,50,4.0919,"[{""rating"":50,""responseTime"":4.091900000095393}]",space,0,5,5,5,1,audio/Narrative7Situation5.wav,audio/Narrative8Situation5.wav,audio/Narrative5Situation5.wav,audio/Narrative6Situation5.wav,5,2,5,2,,,3.8959,,,,,,,,,,,,,,,,,,,,,,,,,,,,,,,,,,,,
,,,,,672c74f54295206bddb0146a,2025-07-08_00h31.09.765,group3.4_multiperson,2023.2.2,Win32,60.24096386,686c2ebf0248f13bef9af11f,686cace4967a3cd79a5bba1d,,,,,,,,,,,,,,,,,,,,,,,,,,,,,561.848,1,audio/Narrative7Situation6.wav,564.85,,564.85,574.8252,"[[50.2,83],[50.2,166],[50.2,250],[50.5,340],[50.5,416],[50.5,500],[50.5,583],[50.4,673],[50.4,750],[50.4,833],[50.4,917],[50.4,1000],[50.4,1083],[50.4,1167],[50.4,1250],[50,1341],[49.7,1418],[49.7,1501],[49.6,1591],[51.3,1674],[53.1,1758],[57.7,1841],[72.4,1924],[95.2,2008],[100,2091],[100,2168],[100,2251],[100,2335],[100,2418],[100,2501],[100,2585],[100,2668],[100,2752],[100,2835],[100,2919],[100,3002],[100,3085],[100,3172],[100,3252],[100,3336],[100,3419],[100,3502],[100,3586],[100,3669],[100,3752],[100,3836],[100,3919],[100,4003],[100,4086],[100,4170],[100,4253],[100,4336],[100,4420],[100,4503],[100,4586],[100,4670],[100,4753],[100,4837],[100,4920],[100,5003],[100,5087],[100,5170],[100,5254],[100,5337],[100,5420],[100,5504],[100,5587],[100,5671],[100,5754],[100,5837],[100,5921],[100,6004],[100,6088],[100,6171],[100,6254],[100,6338],[100,6421],[100,6505],[100,6588],[100,6672],[100,6755],[100,6838],[100,6925],[100,7005],[100,7088],[100,7172],[100,7255],[100,7339],[100,7422],[100,7506],[100,7589],[100,7672],[100,7756],[100,7839],[100,7923],[100,8006],[100,8089],[100,8173],[100,8256],[100,8339],[100,8423],[100,8506],[100,8590],[100,8673],[100,8757],[100,8840],[100,8923],[100,9007],[100,9090],[100,9173],[100,9257],[100,9340],[100,9424],[100,9507],[100,9591],[100,9674],[100,9757],[100,9841],[100,9924]]",574.8252,578.0608,100,2.5917,"[{""rating"":100,""responseTime"":2.5916999998091796}]",space,2.6858,,578.0609,Definitely yes,100,578.0632,,,[],,0,6,6,6,1,audio/Narrative7Situation6.wav,audio/Narrative8Situation6.wav,audio/Narrative5Situation6.wav,audio/Narrative6Situation6.wav,3,2,3,2,,,,,,,,,,,,,,,,,,,,,,,,,,,,,,,,,,,,,,,
,,,,,672c74f54295206bddb0146a,2025-07-08_00h31.09.765,group3.4_multiperson,2023.2.2,Win32,60.24096386,686c2ebf0248f13bef9af11f,686cace4967a3cd79a5bba1d,,,,,,,,,,,,,,,,,,,,,,,,,,,,,578.0633,1,audio/Narrative7Situation7.wav,583.0648,,583.0649,600.2288,"[[95.4,1591],[95.5,1667],[94.8,1758],[93.8,1841],[93.8,1918],[93.8,2001],[93.6,2091],[93.3,2174],[93.3,2251],[93.3,2335],[92.7,2425],[87.6,2509],[86.3,2592],[86.3,2668],[86.3,2752],[86.3,2835],[86.3,2918],[85.6,3009],[84.1,3092],[83.2,3175],[83,3252],[83,3335],[83,3419],[83,3502],[83,3586],[82.3,3676],[80.8,3752],[67,3843],[58.6,3926],[57.7,4009],[57.7,4086],[58.7,4176],[58.8,4253],[58.8,4336],[58.8,4419],[58.8,4503],[58.8,4587],[56.3,4676],[52.5,4760],[52.2,4837],[52.1,4920],[52.1,5003],[52.6,5087],[53.4,5170],[53.4,5254],[53.4,5337],[53.4,5420],[53.4,5507],[53.5,5587],[53.9,5670],[53.9,5754],[53.9,5837],[53.9,5921],[57,6011],[73.3,6095],[91.3,6178],[100,6265],[100,6338],[100,6427],[100,6511],[100,6594],[100,6678],[100,6755],[100,6838],[100,6922],[100,7005],[100,7088],[100,7172],[100,7255],[100,7338],[100,7422],[100,7505],[100,7589],[100,7672],[100,7762],[100,7839],[100,7922],[100,8006],[100,8096],[99.6,8173],[99.5,8262],[99.5,8339],[99.8,8427],[100,8506],[100,8596],[100,8673],[100,8756],[100,8840],[100,8923],[100,9007],[100,9090],[100,9173],[100,9257],[100,9340],[100,9430],[100,9514],[100,9591],[100,9674],[100,9757],[100,9841],[100,9924],[100,10014],[100,10097],[100,10178],[100,10257],[100,10341],[100,10424],[100,10508],[100,10591],[100,10674],[100,10758],[100,10841],[100,10925],[100,11008],[100,11091],[100,11175],[100,11258],[100,11342],[100,11425],[100,11509],[100,11592],[100,11683],[100,11759],[100,11842],[100,11926],[100,12009],[100,12092],[100,12176],[100,12259],[100,12343],[100,12426],[100,12509],[100,12593],[100,12676],[100,12759],[100,12843],[100,12926],[100,13010],[100,13093],[100,13177],[100,13260],[100,13344],[100,13427],[100,13510],[100,13594],[100,13677],[100,13760],[100,13844],[100,13927],[100,14011],[100,14094],[100,14177],[100,14261],[100,14344],[100,14428],[100,14511],[100,14594],[100,14678],[100,14761],[100,14845],[100,14928],[100,15011],[100,15095],[100,15178],[100,15262],[100,15345],[100,15428],[100,15512],[100,15595],[100,15678],[100,15762],[100,15846],[100,15929],[100,16012],[100,16096],[99.6,16179],[99.5,16262],[99.5,16346],[99.5,16429],[99.5,16513],[100,16603],[100,16679],[100,16770],[100,16853],[100,16930],[100,17013],[100,17096]]",600.2289,603.8982,100,1.6246,"[{""rating"":100,""responseTime"":1.6245999999046035}]",space,3.122,,603.8983,Not at all,0,603.9005,,,[],,0,7,7,7,1,audio/Narrative7Situation7.wav,audio/Narrative8Situation7.wav,audio/Narrative5Situation7.wav,audio/Narrative6Situation7.wav,5,3,4,5,,,,,,,,,,,,,,,,,,,,,,,,,,,,,,,,,,,,,,,
,,,,,672c74f54295206bddb0146a,2025-07-08_00h31.09.765,group3.4_multiperson,2023.2.2,Win32,60.24096386,686c2ebf0248f13bef9af11f,686cace4967a3cd79a5bba1d,,,,,,,,,,,,,,,,,,,,,,,,,,,,,603.9008,1,audio/Narrative7Situation8.wav,605.9068,,605.9068,615.9415,"[[57.8,83],[54.8,166],[53.5,243],[51.9,333],[49,416],[48.2,493],[48.4,577],[49.3,667],[49.8,744],[50,827],[50.5,910],[50.5,1000],[51,1084],[52.9,1167],[62.9,1250],[84.8,1334],[100,1418],[100,1494],[100,1583],[100,1661],[100,1744],[100,1827],[100,1911],[100,1994],[100,2084],[100,2161],[100,2244],[100,2328],[100,2411],[100,2495],[100,2578],[100,2661],[100,2745],[100,2828],[100,2912],[100,2995],[100,3078],[100,3162],[100,3249],[100,3329],[100,3412],[100,3495],[100,3579],[100,3662],[100,3746],[100,3829],[100,3912],[100,3996],[100,4079],[100,4163],[100,4246],[100,4330],[100,4413],[100,4496],[100,4580],[100,4663],[100,4746],[100,4830],[100,4913],[100,4997],[100,5080],[100,5163],[100,5247],[100,5330],[100,5414],[100,5497],[100,5581],[100,5664],[100,5748],[100,5831],[100,5914],[100,5997],[100,6081],[100,6164],[100,6248],[100,6331],[100,6415],[100,6498],[100,6581],[100,6665],[100,6748],[100,6831],[100,6915],[100,6998],[100,7088],[100,7165],[100,7248],[100,7332],[100,7415],[100,7499],[100,7582],[100,7665],[100,7749],[100,7832],[100,7916],[100,7999],[100,8082],[100,8166],[100,8249],[100,8333],[100,8416],[100,8500],[100,8583],[100,8666],[100,8750],[100,8833],[100,8917],[100,9000],[100,9083],[100,9173],[100,9250],[100,9333],[100,9417],[100,9500],[100,9584],[100,9667],[100,9751],[100,9834],[100,9917],[100,10001]]",615.9416,618.8271,100,2.008,"[{""rating"":100,""responseTime"":2.0079999999999245}]",space,2.3522,,618.8272,Partially,50,618.8295,,,[],,0,8,8,8,1,audio/Narrative7Situation8.wav,audio/Narrative8Situation8.wav,audio/Narrative5Situation8.wav,audio/Narrative6Situation8.wav,2,3,3,5,,,,,,,,,,,,,,,,,,,,,,,,,,,,,,,,,,,,,,,
,,,,,672c74f54295206bddb0146a,2025-07-08_00h31.09.765,group3.4_multiperson,2023.2.2,Win32,60.24096386,686c2ebf0248f13bef9af11f,686cace4967a3cd79a5bba1d,,,,,,,,,,,,,,,,,,,,,,,,,,,,,618.8296,1,audio/Narrative7Situation9.wav,620.8454,,620.8454,629.4689,"[[57.5,167],[57.2,250],[57.2,333],[57.2,416],[55.6,507],[50.7,591],[50.1,667],[49.6,750],[49.5,834],[49.5,917],[50.8,1008],[53,1091],[54.6,1175],[57.4,1258],[63.7,1341],[75.4,1424],[75.4,1501],[75.4,1584],[83.5,1675],[98.6,1758],[100,1841],[100,1918],[100,2008],[100,2091],[100,2168],[100,2251],[100,2335],[100,2418],[100,2501],[100,2585],[100,2668],[100,2752],[100,2835],[100,2918],[100,3002],[100,3085],[100,3168],[100,3252],[100,3343],[100,3426],[100,3502],[100,3586],[100,3676],[100,3760],[99.1,3836],[98.8,3919],[99.4,4010],[100,4086],[100,4177],[100,4253],[100,4336],[100,4420],[100,4503],[100,4586],[100,4670],[100,4753],[100,4837],[100,4920],[100,5003],[100,5087],[100,5170],[100,5254],[100,5337],[100,5420],[100,5504],[100,5587],[100,5671],[100,5754],[100,5837],[100,5921],[100,6004],[100,6087],[100,6171],[100,6254],[100,6338],[100,6421],[100,6505],[100,6588],[100,6671],[100,6755],[100,6844],[100,6922],[100,7005],[100,7088],[100,7172],[100,7255],[100,7339],[100,7422],[100,7505],[100,7589],[100,7672],[100,7756],[100,7839],[100,7928],[100,8006],[100,8089],[100,8173],[100,8256],[100,8340],[100,8423],[100,8506],[100,8590]]",629.4691,631.8601,100,1.79,"[{""rating"":100,""responseTime"":1.7900000000000773}]",space,1.8519,,631.8601,Not at all,0,631.8625,,,[],,0,9,9,9,1,audio/Narrative7Situation9.wav,audio/Narrative8Situation9.wav,audio/Narrative5Situation9.wav,audio/Narrative6Situation9.wav,2,3,3,4,,,,,,,,,,,,,,,,,,,,,,,,,,,,,,,,,,,,,,,
,,,,,672c74f54295206bddb0146a,2025-07-08_00h31.09.765,group3.4_multiperson,2023.2.2,Win32,60.24096386,686c2ebf0248f13bef9af11f,686cace4967a3cd79a5bba1d,,,,,,,,,,,,,,,,,,,,,,,,,,,,,631.8626,1,audio/Narrative8Situation1.wav,636.8654,,636.8655,652.8044,"[[51.3,1000],[51.1,1084],[50.5,1160],[50.2,1250],[50.2,1327],[50.2,1410],[50.4,1501],[51,1584],[53.4,1667],[60.5,1751],[61.2,1827],[61.2,1910],[61.2,1994],[60.8,2085],[60.7,2161],[60.9,2244],[63.1,2335],[63.4,2411],[63.4,2501],[63.4,2578],[63.4,2661],[63.4,2745],[63.3,2828],[63.9,2911],[64.1,2995],[64.3,3078],[64.3,3162],[64.3,3245],[67,3336],[73.3,3419],[78.8,3502],[82.5,3586],[82.7,3662],[83,3745],[83,3829],[83,3919],[82.9,4003],[82.9,4079],[82.8,4163],[82.7,4253],[82.7,4336],[81.7,4413],[80.7,4503],[80.7,4579],[80.7,4663],[80.7,4746],[80.7,4830],[85.7,4920],[95.2,5004],[100,5087],[100,5170],[100,5246],[100,5330],[100,5413],[100,5503],[100,5587],[100,5671],[100,5754],[100,5837],[100,5914],[100,5997],[100,6081],[100,6164],[100,6247],[100,6331],[100,6414],[100,6498],[100,6581],[100,6664],[100,6748],[100,6831],[100,6914],[100,6998],[100,7081],[100,7165],[100,7248],[100,7332],[100,7415],[100,7498],[100,7582],[100,7665],[100,7749],[100,7832],[100,7915],[100,7999],[100,8082],[100,8166],[100,8249],[100,8332],[100,8421],[100,8499],[100,8583],[100,8666],[99.9,8756],[97.3,8840],[95.3,8923],[95.3,8999],[93.8,9090],[69.1,9173],[59.7,9257],[59.7,9340],[63.4,9423],[85.7,9507],[100,9583],[100,9673],[100,9750],[100,9833],[100,9917],[100,10000],[100,10084],[100,10167],[100,10251],[100,10340],[100,10424],[100,10501],[100,10584],[100,10668],[100,11008],[100,11091],[100,11174],[100,11258],[100,11335],[100,11418],[100,11501],[100,11585],[100,11668],[100,11752],[100,11835],[100,11918],[100,12002],[100,12092],[100,12169],[100,12252],[100,12342],[100,12419],[100,12502],[100,12586],[100,12669],[100,12753],[100,12836],[100,12919],[100,13003],[100,13086],[100,13170],[100,13253],[100,13336],[100,13420],[100,13503],[100,13587],[100,13670],[100,13753],[100,13837],[100,13920],[100,14004],[100,14087],[100,14170],[100,14254],[100,14337],[100,14421],[100,14504],[100,14587],[100,14671],[100,14754],[100,14838],[100,14921],[100,15004],[100,15088],[100,15171],[100,15255],[100,15338],[100,15421],[100,15505],[100,15588],[100,15671],[100,15755],[100,15838],[100,15922]]",652.8045,655.2398,100,1.5103,"[{""rating"":100,""responseTime"":1.5103000001906821}]",space,1.9022,,655.2399,Not at all,0,655.2411,,,[],,0,10,10,10,1,audio/Narrative8Situation1.wav,audio/Narrative7Situation1.wav,audio/Narrative6Situation1.wav,audio/Narrative5Situation1.wav,5,2,2,5,,,,,,,,,,,,,,,,,,,,,,,,,,,,,,,,,,,,,,,
,,,,,672c74f54295206bddb0146a,2025-07-08_00h31.09.765,group3.4_multiperson,2023.2.2,Win32,60.24096386,686c2ebf0248f13bef9af11f,686cace4967a3cd79a5bba1d,,,,,,,,,,,,,,,,,,,,,,,,,,,,,655.2414,1,audio/Narrative8Situation2.wav,658.2423,,658.2424,668.3672,"[[54.2,173],[55.2,256],[55.2,333],[55.2,416],[55.2,500],[55.2,583],[54,667],[52.3,750],[51.7,840],[51.7,917],[51.7,1000],[54,1091],[58.3,1174],[63.5,1258],[71.4,1341],[89.5,1425],[100,1508],[100,1584],[100,1667],[100,1751],[100,1834],[100,1917],[100,2001],[100,2084],[100,2168],[100,2251],[100,2334],[100,2418],[100,2501],[100,2585],[100,2668],[100,2751],[100,2835],[100,2918],[100,3002],[100,3085],[100,3169],[100,3252],[100,3335],[100,3419],[100,3502],[100,3592],[100,3669],[100,3752],[100,3836],[100,3919],[100,4002],[100,4086],[100,4169],[100,4253],[100,4336],[100,4419],[100,4503],[100,4586],[100,4670],[100,4753],[100,4837],[100,4920],[100,5003],[100,5087],[100,5170],[100,5254],[100,5337],[100,5420],[100,5504],[100,5587],[100,5670],[100,5754],[100,5837],[100,5921],[100,6004],[100,6087],[100,6171],[100,6254],[100,6338],[100,6421],[100,6505],[100,6588],[100,6671],[100,6755],[100,6845],[100,6928],[98.8,7012],[88.7,7096],[77.5,7179],[73.1,7262],[72.7,7346],[72.7,7422],[72.7,7505],[53.8,7763],[53.8,7839],[53.1,7929],[53.1,8006],[53,8089],[52,8173],[50.7,8263],[50.7,8339],[50.7,8423],[50.7,8513],[50.7,8596],[50.8,8679],[50.8,8756],[49.3,8847],[47.7,8930],[46.6,9013],[46.6,9096],[46.6,9173],[46.6,9257],[46.6,9340],[46.6,9424],[46.6,9507],[46.6,9590],[46.6,9674],[46.5,9764],[46.5,9841],[46.5,9924],[46.5,10007],[46.5,10091]]",668.3673,671.0861,46.484375,1.8797,"[{""rating"":46.484375,""responseTime"":1.8796999998093042}]",space,2.1947,,671.0861,Not at all,0,671.0874,,,[],,0,11,11,11,1,audio/Narrative8Situation2.wav,audio/Narrative7Situation2.wav,audio/Narrative6Situation2.wav,audio/Narrative5Situation2.wav,3,3,3,3,,,,,,,,,,,,,,,,,,,,,,,,,,,,,,,,,,,,,,,
,,,,,672c74f54295206bddb0146a,2025-07-08_00h31.09.765,group3.4_multiperson,2023.2.2,Win32,60.24096386,686c2ebf0248f13bef9af11f,686cace4967a3cd79a5bba1d,,,,,,,,,,,,,,,,,,,,,,,,,,,,,671.0876,1,audio/Narrative8Situation3.wav,675.0891,,675.0891,697.4575,"[[999,0],[999,83],[999,166],[999,250],[999,333],[999,416],[999,500],[999,583],[999,667],[999,750],[999,833],[999,917],[999,1000],[999,1084],[999,1167],[999,1250],[999,1334],[999,1417],[999,1501],[999,1591],[999,1675],[51.1,1758],[23.4,1841],[16.1,1924],[16.1,2001],[16.1,2084],[16.1,2168],[17.3,2259],[18.7,2335],[18.7,2418],[18.7,2502],[18.7,2585],[18.7,2668],[18.5,2752],[13.1,2843],[12.4,2918],[12.3,3010],[12.2,3085],[17.9,3176],[29.1,3259],[40.5,3343],[49.5,3426],[54.3,3510],[55.3,3593],[55.5,3676],[55.5,3753],[55.5,3836],[55.5,3919],[55.5,4003],[56.5,4093],[61,4177],[63.2,4260],[63.7,4337],[64.7,4427],[64.7,4503],[64.7,4587],[64.7,4670],[64.7,4753],[64.7,4837],[64.7,4920],[64.7,5004],[64.7,5087],[64.7,5170],[64.7,5254],[64.7,5337],[64.7,5421],[64.4,5504],[64.4,5587],[64.4,5671],[64.4,5754],[64.4,5838],[67,5928],[68,6012],[68.1,6088],[68.1,6171],[68.1,6254],[68.1,6338],[68.1,6421],[68.1,6505],[68.1,6588],[68.1,6672],[67.7,6755],[67.7,6838],[67.7,6922],[67.7,7005],[67.7,7089],[67.7,7172],[67.7,7255],[67.7,7339],[67.7,7422],[68.1,7506],[73.2,7597],[73.4,7672],[75.2,7763],[84.2,7846],[93.6,7930],[96.4,8014],[99.1,8090],[100,8180],[100,8256],[100,8340],[100,8423],[100,8506],[100,8590],[100,8673],[100,8756],[100,8840],[100,8923],[100,9007],[100,9090],[100,9174],[100,9257],[100,9341],[100,9424],[100,9511],[100,9597],[100,9674],[100,9757],[100,9841],[100,9924],[100,10008],[100,10091],[100,10174],[100,10258],[100,10341],[100,10424],[100,10508],[100,10591],[100,10675],[100,10758],[100,10842],[100,10925],[100,11008],[100,11092],[100,11175],[100,11259],[100,11342],[100,11425],[100,11509],[100,11592],[100,11676],[100,11759],[100,11842],[100,11926],[100,12009],[100,12092],[100,12176],[100,12259],[100,12343],[100,12426],[100,12510],[100,12593],[100,12677],[100,12760],[100,12849],[100,12927],[100,13010],[100,13093],[100,13177],[100,13260],[100,13344],[100,13427],[100,13511],[100,13594],[100,13677],[100,13761],[100,13844],[100,13927],[100,14011],[100,14094],[100,14178],[100,14261],[100,14344],[100,14428],[100,14511],[100,14594],[100,14678],[100,14761],[100,14845],[100,14928],[100,15011],[100,15095],[100,15178],[100,15262],[100,15345],[100,15429],[100,15512],[100,15595],[100,15679],[100,15762],[100,15846],[100,15929],[100,16012],[100,16096],[100,16179],[100,16263],[100,16346],[100,16429],[100,16513],[100,16596],[100,16680],[100,16763],[100,16846],[100,16930],[100,17013],[100,17097],[100,17180],[100,17263],[100,17347],[100,17430],[100,17514],[100,17603],[100,17680],[100,17764],[100,17847],[100,17931],[100,18014],[100,18097],[100,18181],[100,18264],[100,18348],[100,18431],[100,18514],[100,18598],[100,18681],[100,18765],[100,18848],[100,18932],[100,19015],[100,19098],[100,19182],[100,19265],[100,19348],[100,19432],[100,19515],[100,19599],[100,19682],[100,19766],[100,19849],[100,19932],[100,20016],[100,20099],[100,20189],[100,20266],[100,20349],[100,20433],[100,20516],[100,20600],[100,20683],[100,20766],[100,20850],[100,20933],[100,21016],[100,21100],[100,21183],[100,21267],[100,21350],[100,21433],[100,21517],[100,21600],[100,21684],[100,21767],[100,21851],[100,21934],[100,22017],[100,22101],[100,22184],[100,22267],[100,22351]]",697.4575,699.8425,100,1.7234,"[{""rating"":100,""responseTime"":1.7234000000953529}]",space,1.8618,,699.8425,Definitely yes,100,699.8447,,,[],,0,12,12,12,1,audio/Narrative8Situation3.wav,audio/Narrative7Situation3.wav,audio/Narrative6Situation3.wav,audio/Narrative5Situation3.wav,4,8,5,3,,,,,,,,,,,,,,,,,,,,,,,,,,,,,,,,,,,,,,,
,,,,,672c74f54295206bddb0146a,2025-07-08_00h31.09.765,group3.4_multiperson,2023.2.2,Win32,60.24096386,686c2ebf0248f13bef9af11f,686cace4967a3cd79a5bba1d,,,,,,,,,,,,,,,,,,,,,,,,,,,,,699.8449,1,audio/Narrative8Situation4.wav,702.8449,,702.8449,717.0065,"[[62.9,2175],[52.8,2259],[52.1,2335],[52.1,2418],[48.5,2509],[49.5,2592],[52.3,2675],[53.8,2759],[54.1,2842],[55,2926],[55.3,3002],[58.2,3093],[61.6,3176],[71.3,3259],[93.2,3343],[100,3426],[100,3502],[100,3592],[100,3669],[100,3759],[100,3843],[100,3926],[100,4003],[100,4086],[100,4169],[100,4253],[100,4336],[100,4420],[100,4503],[100,4586],[100,4670],[100,4753],[100,4837],[100,4920],[100,5004],[100,5087],[100,5170],[100,5254],[100,5337],[100,5421],[100,5504],[100,5587],[100,5671],[100,5754],[100,5837],[100,5921],[100,6004],[100,6088],[100,6171],[100,6255],[100,6338],[100,6421],[100,6505],[100,6588],[100,6671],[100,6755],[100,6838],[100,6922],[100,7005],[100,7089],[100,7172],[100,7255],[100,7339],[100,7422],[100,7505],[100,7589],[100,7679],[100,7756],[100,7839],[100,7923],[100,8006],[100,8089],[100,8173],[100,8256],[100,8339],[100,8423],[100,8506],[100,8590],[100,8673],[100,8756],[100,8840],[100,8923],[100,9007],[100,9090],[100,9173],[100,9257],[100,9340],[100,9424],[100,9507],[100,9591],[100,9674],[100,9757],[100,9841],[100,9930],[100,10008],[100,10091],[100,10174],[100,10258],[100,10341],[100,10424],[100,10508],[100,10591],[100,10675],[100,10758],[100,10841],[100,10925],[100,11008],[100,11092],[100,11175],[100,11265],[100,11342],[100,11425],[100,11509],[100,11592],[100,11676],[100,11759],[100,11842],[100,11926],[100,12009],[100,12093],[100,12176],[100,12259],[100,12343],[100,12426],[100,12510],[100,12593],[100,12677],[100,12760],[100,12843],[100,12927],[100,13010],[100,13093],[100,13177],[100,13260],[100,13344],[100,13427],[100,13510],[100,13601],[100,13677],[100,13760],[100,13844],[100,13927],[100,14011],[100,14094]]",717.0066,721.0097,100,3.334,"[{""rating"":100,""responseTime"":3.3339999999999463}]",space,3.4768,,721.0097,Partially,50,721.0119,,,[],,0,13,13,13,1,audio/Narrative8Situation4.wav,audio/Narrative7Situation4.wav,audio/Narrative6Situation4.wav,audio/Narrative5Situation4.wav,3,3,2,1,,,,,,,,,,,,,,,,,,,,,,,,,,,,,,,,,,,,,,,
,,,,,672c74f54295206bddb0146a,2025-07-08_00h31.09.765,group3.4_multiperson,2023.2.2,Win32,60.24096386,686c2ebf0248f13bef9af11f,686cace4967a3cd79a5bba1d,,,,,,,,,,,,,,,,,,,,,,,,,,,,,721.0121,1,audio/Narrative8Situation5.wav,723.0279,,723.028,731.268,"[[100,2342],[98,2425],[96.6,2501],[98,2585],[100,2675],[100,2759],[100,2835],[100,2918],[100,3002],[100,3092],[100,3168],[100,3252],[100,3335],[100,3419],[100,3502],[100,3586],[100,3669],[100,3752],[100,3836],[100,3919],[100,4003],[100,4086],[100,4176],[100,4253],[100,4336],[100,4419],[100,4503],[100,4586],[100,4670],[100,4753],[100,4837],[100,4920],[100,5003],[100,5087],[100,5176],[100,5254],[100,5337],[100,5420],[100,5504],[100,5587],[100,5671],[100,5754],[100,5837],[100,5921],[100,6004],[100,6088],[100,6171],[100,6254],[100,6338],[100,6421],[100,6505],[100,6588],[100,6671],[100,6755],[100,6838],[100,6921],[100,7005],[100,7088],[100,7172],[100,7255],[100,7339],[100,7422],[100,7505],[100,7589],[100,7672],[100,7756],[100,7839],[100,7922],[100,8006],[100,8089],[100,8173]]",731.2681,734.1367,100,2.1902,"[{""rating"":100,""responseTime"":2.190199999809238}]",space,2.3356,,734.1368,Not at all,0,734.1389,,,[],,0,14,14,14,1,audio/Narrative8Situation5.wav,audio/Narrative7Situation5.wav,audio/Narrative6Situation5.wav,audio/Narrative5Situation5.wav,2,5,2,5,,,,,,,,,,,,,,,,,,,,,,,,,,,,,,,,,,,,,,,
,,,,,672c74f54295206bddb0146a,2025-07-08_00h31.09.765,group3.4_multiperson,2023.2.2,Win32,60.24096386,686c2ebf0248f13bef9af11f,686cace4967a3cd79a5bba1d,,,,,,,,,,,,,,,,,,,,,,,,,,,,,734.139,1,audio/Narrative8Situation6.wav,736.1552,,736.1552,742.6105,"[[100,423],[100,507],[100,591],[100,674],[100,750],[100,834],[100,917],[100,1000],[100,1084],[100,1167],[100,1250],[100,1334],[100,1417],[100,1501],[100,1584],[100,1668],[100,1751],[100,1834],[100,1918],[100,2001],[100,2085],[100,2168],[100,2251],[100,2335],[100,2418],[100,2501],[100,2585],[100,2668],[100,2752],[100,2835],[100,2918],[100,3002],[100,3085],[100,3169],[100,3252],[100,3336],[100,3419],[100,3502],[100,3586],[100,3669],[100,3753],[100,3836],[100,3919],[100,4003],[100,4086],[100,4169],[100,4253],[100,4336],[100,4420],[100,4503],[100,4587],[100,4670],[100,4753],[100,4837],[100,4920],[100,5004],[100,5087],[100,5170],[100,5254],[100,5337],[100,5420],[100,5504],[100,5587],[100,5671],[100,5754],[100,5837],[100,5921],[100,6004],[100,6088],[100,6171],[100,6254],[100,6338],[100,6421]]",742.6106,746.8638,100,3.5759,"[{""rating"":100,""responseTime"":3.5759000000953165}]",space,3.7247,,746.8638,Not at all,0,746.8653,,,[],,0,15,15,15,1,audio/Narrative8Situation6.wav,audio/Narrative7Situation6.wav,audio/Narrative6Situation6.wav,audio/Narrative5Situation6.wav,2,3,2,3,,,,,,,,,,,,,,,,,,,,,,,,,,,,,,,,,,,,,,,
,,,,,672c74f54295206bddb0146a,2025-07-08_00h31.09.765,group3.4_multiperson,2023.2.2,Win32,60.24096386,686c2ebf0248f13bef9af11f,686cace4967a3cd79a5bba1d,,,,,,,,,,,,,,,,,,,,,,,,,,,,,746.8654,1,audio/Narrative8Situation7.wav,749.8663,,749.8663,761.9427,"[[98,924],[97.6,1000],[97.6,1084],[97.7,1167],[98.8,1250],[98.8,1334],[98.8,1417],[98.8,1501],[98.8,1584],[98.8,1667],[98.8,1751],[98.8,1834],[98.8,1918],[89.3,2008],[63.8,2091],[57,2175],[54.5,2258],[48.2,2342],[48.5,2425],[49.7,2509],[50,2585],[50,2668],[51.7,2759],[58,2842],[66.4,2925],[82.3,3009],[97.8,3085],[100,3176],[100,3252],[100,3336],[100,3425],[100,3502],[100,3586],[100,3669],[100,3753],[100,3836],[100,3919],[100,4003],[100,4086],[100,4169],[100,4253],[100,4336],[100,4420],[100,4503],[100,4587],[100,4670],[100,4753],[100,4837],[100,4920],[100,5004],[100,5087],[100,5170],[100,5254],[100,5337],[100,5421],[100,5504],[100,5587],[100,5671],[100,5761],[100,5837],[100,5921],[100,6011],[100,6088],[100,6171],[100,6254],[100,6338],[100,6421],[100,6505],[100,6588],[100,6672],[100,6755],[100,6838],[100,6922],[100,7005],[100,7088],[100,7172],[100,7255],[100,7339],[100,7422],[100,7505],[100,7589],[100,7673],[100,7756],[100,7839],[100,7923],[100,8006],[100,8089],[100,8173],[100,8256],[100,8340],[100,8423],[100,8506],[100,8590],[100,8673],[100,8757],[100,8840],[100,8923],[100,9007],[100,9090],[100,9174],[100,9257],[100,9340],[100,9429],[100,9507],[100,9591],[100,9674],[100,9757],[100,9841],[100,9924],[100,10008],[100,10091],[100,10174],[100,10258],[100,10341],[100,10424],[100,10508],[100,10591],[100,10675],[100,10758],[100,10842],[100,10925],[100,11015],[100,11092],[100,11175],[100,11259],[100,11342],[100,11425],[100,11509],[100,11592],[100,11676],[100,11759],[100,11842],[100,11926],[100,12009]]",761.9429,764.6449,100,2.0082,"[{""rating"":100,""responseTime"":2.0081999998092215}]",space,2.1722,,764.645,Partially,50,764.647,,,[],,0,16,16,16,1,audio/Narrative8Situation7.wav,audio/Narrative7Situation7.wav,audio/Narrative6Situation7.wav,audio/Narrative5Situation7.wav,3,5,5,4,,,,,,,,,,,,,,,,,,,,,,,,,,,,,,,,,,,,,,,
,,,,,672c74f54295206bddb0146a,2025-07-08_00h31.09.765,group3.4_multiperson,2023.2.2,Win32,60.24096386,686c2ebf0248f13bef9af11f,686cace4967a3cd79a5bba1d,,,,,,,,,,,,,,,,,,,,,,,,,,,,,764.6472,1,audio/Narrative8Situation8.wav,767.6474,,767.6474,780.4911,"[[96.5,2091],[96.2,2174],[96.2,2251],[96.2,2335],[96.2,2418],[95.2,2501],[89.6,2592],[87.7,2668],[87.9,2752],[91.9,2842],[92.8,2919],[92.5,3008],[92.5,3085],[92.5,3169],[92.4,3259],[92.8,3336],[93,3419],[93,3502],[93.4,3592],[93.6,3675],[93.6,3753],[93.6,3836],[93.6,3919],[93.6,4003],[93.6,4086],[91,4177],[87.7,4260],[87.7,4336],[88.7,4427],[89.5,4509],[89.5,4587],[89.5,4670],[89.5,4759],[89.5,4837],[89.5,4920],[89.5,5004],[89.5,5087],[89.5,5170],[89.5,5254],[89.5,5337],[89.5,5420],[89.5,5504],[89.5,5587],[89.5,5671],[89.5,5754],[89.1,5844],[88.6,5927],[87.2,6011],[86.8,6088],[86.8,6177],[86.7,6255],[86.7,6338],[86.7,6421],[86.7,6505],[86.7,6588],[90.1,6678],[95.5,6762],[98.2,6845],[99.5,6928],[100,7012],[100,7088],[100,7172],[100,7255],[100,7339],[100,7422],[100,7505],[100,7589],[100,7672],[100,7756],[100,7839],[100,7922],[100,8006],[100,8089],[100,8173],[100,8256],[100,8340],[100,8423],[100,8506],[100,8590],[100,8673],[100,8757],[100,8840],[100,8923],[100,9007],[100,9090],[100,9173],[100,9257],[100,9341],[100,9424],[100,9513],[100,9590],[100,9674],[100,9757],[100,9841],[100,9924],[100,10008],[100,10091],[100,10174],[100,10258],[100,10341],[100,10425],[100,10508],[100,10591],[100,10675],[100,10758],[100,10841],[100,10925],[100,11008],[100,11091],[100,11175],[100,11259],[100,11342],[100,11425],[100,11509],[100,11592],[100,11676],[100,11759],[100,11842],[100,11926],[100,12009],[100,12093],[100,12176],[100,12259],[100,12343],[100,12426],[100,12510],[100,12593],[100,12676],[100,12760],[100,12843]]",780.4912,782.8764,100,1.6735,"[{""rating"":100,""responseTime"":1.6735000000001037}]",space,1.8542,,782.8764,Partially,50,782.8777,,,[],,0,17,17,17,1,audio/Narrative8Situation8.wav,audio/Narrative7Situation8.wav,audio/Narrative6Situation8.wav,audio/Narrative5Situation8.wav,3,2,5,3,,,,,,,,,,,,,,,,,,,,,,,,,,,,,,,,,,,,,,,
,,,,,672c74f54295206bddb0146a,2025-07-08_00h31.09.765,group3.4_multiperson,2023.2.2,Win32,60.24096386,686c2ebf0248f13bef9af11f,686cace4967a3cd79a5bba1d,,,,,,,,,,,,,,,,,,,,,,,,,,,,,782.8779,1,audio/Narrative8Situation9.wav,785.8786,,785.8786,797.188,"[[100,840],[99.8,924],[99.6,1000],[99.5,1084],[99.5,1167],[100,1258],[100,1335],[100,1417],[100,1501],[100,1584],[100,1668],[100,1751],[100,1835],[100,1918],[100,2001],[100,2085],[100,2168],[100,2251],[100,2335],[100,2418],[100,2502],[100,2585],[100,2668],[100,2752],[100,2835],[100,2919],[100,3002],[100,3085],[100,3169],[100,3252],[100,3336],[100,3419],[100,3503],[100,3586],[100,3669],[100,3753],[100,3836],[100,3919],[100,4003],[100,4086],[100,4170],[100,4253],[100,4336],[100,4420],[100,4503],[100,4586],[100,4670],[100,4753],[100,4837],[100,4920],[100,5004],[100,5087],[100,5171],[100,5254],[100,5337],[100,5421],[100,5504],[100,5587],[100,5671],[100,5754],[100,5838],[100,5921],[100,6011],[100,6088],[100,6171],[100,6255],[100,6338],[100,6421],[100,6505],[100,6588],[100,6672],[100,6755],[100,6838],[100,6922],[100,7005],[100,7088],[100,7172],[100,7255],[100,7339],[100,7422],[100,7506],[100,7589],[100,7672],[100,7756],[100,7839],[100,7923],[100,8006],[100,8090],[100,8173],[100,8256],[100,8340],[100,8423],[100,8506],[100,8590],[100,8673],[100,8756],[100,8840],[100,8923],[100,9007],[100,9090],[100,9174],[100,9257],[100,9340],[100,9424],[100,9507],[100,9591],[100,9674],[100,9758],[100,9847],[100,9924],[100,10008],[100,10091],[100,10174],[100,10262],[100,10341],[100,10424],[100,10508],[100,10592],[100,10675],[100,10758],[100,10842],[100,10925],[100,11009],[100,11092],[100,11175],[100,11259]]",797.1882,799.5397,100,1.7136,"[{""rating"":100,""responseTime"":1.7136000003814615}]",space,1.8222,,799.5398,Partially,50,799.5412,,,[],,0,18,18,18,1,audio/Narrative8Situation9.wav,audio/Narrative7Situation9.wav,audio/Narrative6Situation9.wav,audio/Narrative5Situation9.wav,3,2,4,3,,,,,,,,,,,,,,,,,,,,,,,,,,,,,,,,,,,,,,,
,,,,,672c74f54295206bddb0146a,2025-07-08_00h31.09.765,group3.4_multiperson,2023.2.2,Win32,60.24096386,686c2ebf0248f13bef9af11f,686cace4967a3cd79a5bba1d,,,,,,,,,,,,,,,,,,,,,,,,,,,850.7154,853.2833,853.2961,2,audio/Narrative13Situation2.wav,853.2961,,853.2962,883.0575,"[[999,0],[999,70],[999,153],[999,237],[999,327],[999,403],[999,487],[999,571],[999,654],[47.7,744],[48.9,827],[49.8,911],[49.9,987],[49.9,1071],[49.9,1154],[50.7,1245],[50.7,1321],[50.7,1404],[50.7,1488],[51.2,1578],[54.8,1661],[64.4,1745],[80.8,1828],[90.2,1912],[93.4,1995],[93.8,2072],[93.8,2155],[93.8,2238],[93,2329],[92.3,2412],[92.3,2489],[92.3,2572],[90.8,2655],[85.9,2746],[83.6,2829],[83.3,2906],[82.9,2996],[82.8,3072],[81.7,3163],[77.4,3247],[75.6,3323],[75.6,3406],[75.6,3489],[75.6,3573],[75.6,3663],[75.6,3740],[75.6,3823],[75.6,3906],[74.3,3997],[71.3,4081],[70.6,4163],[69.9,4247],[68.8,4331],[68.8,4407],[68.8,4490],[68.8,4574],[68.8,4657],[68.8,4740],[68.8,4824],[68.3,4907],[67.3,4998],[67.3,5074],[67.3,5157],[67.3,5241],[66.3,5331],[66.1,5408],[66.1,5491],[66.1,5574],[65.8,5665],[65.8,5741],[65.8,5825],[65.8,5908],[65.8,5991],[65.8,6075],[65.8,6158],[65.8,6242],[65.8,6325],[65.8,6412],[65.3,6499],[63.3,6582],[62.8,6666],[62.3,6749],[62.3,6832],[62.3,6909],[62.3,6992],[62.3,7076],[62.3,7159],[62.3,7242],[62.3,7326],[62.3,7409],[62.3,7493],[62.1,7576],[61.6,7667],[61.2,7743],[59.1,7834],[55.4,7917],[53.8,8000],[53.7,8076],[53.6,8160],[50.1,8243],[53.2,8334],[72.4,8418],[88.5,8494],[93.9,8584],[96.3,8668],[98,8751],[100,8834],[100,8910],[100,9001],[100,9077],[100,9161],[100,9251],[100,9327],[100,9411],[100,9494],[100,9578],[100,9661],[100,9744],[100,9828],[100,9911],[100,9995],[100,10078],[100,10161],[100,10245],[100,10328],[100,10412],[100,10495],[100,10578],[100,10662],[100,10752],[100,10829],[100,10912],[100,10996],[100,11079],[100,11162],[100,11245],[100,11329],[100,11413],[100,11496],[100,11579],[100,11663],[100,11746],[100,11829],[100,11913],[100,11996],[100,12080],[100,12163],[100,12246],[100,12330],[100,12413],[100,12497],[100,12580],[100,12663],[100,12747],[100,12830],[100,12914],[100,12997],[100,13080],[100,13164],[100,13247],[100,13331],[100,13414],[100,13498],[100,13581],[100,13664],[100,13748],[100,13831],[100,13914],[100,13998],[100,14081],[100,14165],[100,14248],[100,14331],[100,14415],[100,14498],[100,14582],[100,14665],[100,14749],[100,14832],[100,14915],[100,14999],[100,15082],[100,15165],[100,15249],[100,15332],[100,15416],[100,15499],[100,15582],[100,15666],[100,15749],[100,15833],[100,15916],[100,15999],[100,16083],[100,16166],[100,16250],[100,16333],[100,16416],[100,16500],[100,16583],[100,16667],[100,16750],[100,16833],[100,16917],[100,17000],[100,17084],[100,17167],[100,17251],[100,17334],[100,17417],[100,17501],[100,17584],[100,17668],[100,17751],[100,17834],[100,17918],[100,18001],[100,18085],[100,18168],[100,18252],[96.6,18342],[82.6,18425],[73.9,18508],[70.2,18592],[66.6,18675],[65.7,18758],[64.1,18842],[61.4,18925],[60.8,19002],[59.8,19092],[57.3,19176],[56.7,19252],[56.7,19336],[57.3,19426],[57.4,19502],[57.4,19586],[57.4,19669],[57.4,19753],[56.8,19842],[56.1,19926],[54.1,20009],[54.1,20086],[54.1,20170],[54.1,20253],[54.1,20336],[54.1,20420],[54.1,20503],[54.1,20586],[53.8,20670],[52.1,20760],[50.2,20844],[49.3,20927],[48.9,21004],[48.9,21087],[50,21177],[52.3,21261],[53.3,21344],[54.6,21427],[55.5,21511],[55.5,21587],[55.5,21671],[55.5,21754],[55.6,21838],[55.7,21921],[55.7,22004],[52.7,22095],[50.9,22178],[50.6,22255],[50.6,22338],[53.7,22428],[56.6,22505],[57.5,22595],[57.5,22671],[57.5,22755],[55.1,22845],[52.4,22929],[52.2,23005],[52.1,23089],[51.3,23179],[50.9,23255],[50.8,23346],[50.5,23422],[50.5,23506],[50.5,23589],[50.5,23673],[50.5,23756],[50.6,23844],[51,23929],[51.1,24006],[51.6,24097],[51.7,24173],[51.7,24256],[51.7,24340],[51.7,24423],[51.7,24506],[51.7,24590],[51.6,24673],[51,24764],[50.9,24840],[50.9,24923],[50.9,25007],[49.5,25090],[45.6,25181],[45.6,25261],[45.6,25340],[45.6,25424],[45.6,25507],[45.4,25598],[45.3,25674],[45.2,25757],[45.2,25841],[45.2,25924],[45.2,26008],[45.2,26091],[45.2,26174],[45.2,26258],[45.2,26341],[45.2,26425],[44.6,26515],[41.8,26599],[38.1,26682],[34.1,26758],[33.7,26842],[33.7,26925],[33.7,27009],[33.7,27092],[32.6,27175],[30.2,27266],[27.7,27349],[24.9,27425],[21.6,27517],[18.4,27592],[14.5,27683],[13.2,27766],[12.4,27850],[10.9,27933],[7.5,28017],[3.2,28100],[2.5,28176],[2.5,28259],[2.4,28343],[2,28427],[2,28510],[2,28593],[2,28676],[2,28760],[2,28843],[0.9,28934],[1.2,29018],[0.8,29100]]",883.0576,883.0592,,,[],,,,883.0593,Not at all,0,883.0612,,,[],,0,0,0,0,1,audio/Narrative13Situation2.wav,audio/Narrative13Situation2.wav,audio/Narrative13Situation2.wav,audio/Narrative13Situation2.wav,2,2,2,2,,,,,799.5415,850.7151,space,50.6387,,,,,,,,,,,,,,,,,,,,,,,,,,,,,,,
,,,,,672c74f54295206bddb0146a,2025-07-08_00h31.09.765,group3.4_multiperson,2023.2.2,Win32,60.24096386,686c2ebf0248f13bef9af11f,686cace4967a3cd79a5bba1d,,,,,,,,,,,,,,,,,,,,,,,,,,,,,883.0613,2,audio/Narrative5Situation1.wav,888.0614,,888.0615,901.3387,"[[50.5,166],[49.7,257],[49.5,340],[49.5,416],[49.5,500],[49.5,583],[49.7,667],[50.2,750],[50.2,833],[50.2,917],[50.2,1007],[50.2,1090],[50.2,1167],[50.2,1250],[50.2,1334],[50.2,1417],[50.2,1501],[52.7,1591],[53.3,1674],[53.3,1751],[53.3,1834],[53.3,1918],[53.7,2007],[55.3,2091],[58,2177],[61.2,2258],[63,2341],[64.7,2424],[65.1,2501],[65.1,2585],[65.1,2668],[65.2,2751],[65.5,2835],[65.5,2918],[65.5,3002],[65.5,3085],[65.5,3168],[65.5,3252],[65.5,3335],[65.5,3419],[65.5,3502],[65.5,3586],[65.5,3669],[65.5,3752],[65.5,3836],[65.5,3919],[65.5,4002],[65.5,4086],[65.5,4169],[65.5,4253],[65.5,4336],[65.5,4419],[65.5,4503],[65.5,4586],[65.5,4670],[65.5,4753],[65.5,4836],[65.5,4920],[65.5,5003],[65.5,5087],[65.5,5170],[65.5,5253],[65.5,5337],[65.5,5420],[65.5,5504],[65.5,5587],[65.5,5670],[65.5,5754],[65.5,5837],[65.5,5921],[65.5,6004],[65.5,6087],[65.5,6171],[65.5,6254],[65.5,6338],[65.5,6421],[65.5,6511],[65.5,6588],[65.5,6671],[65.5,6755],[65.5,6838],[65.5,6921],[65.5,7005],[65.5,7088],[65.2,7179],[64.3,7262],[62.7,7345],[61,7422],[59.5,7512],[58.3,7595],[57.7,7672],[57.5,7756],[56.9,7839],[56.6,7929],[56.4,8012],[56.1,8096],[55.5,8179],[54.1,8263],[50.6,8347],[48.8,8423],[47.8,8513],[47.1,8597],[47.1,8673],[47.1,8756],[47.1,8840],[47.5,8930],[47.7,9006],[47.7,9090],[47.7,9173],[47.7,9257],[47.7,9340],[48.1,9431],[48.4,9507],[48.4,9590],[48.4,9674],[49,9763],[50,9848],[50,9924],[50,10007],[50,10091],[50,10174],[50,10257],[50,10341],[49.7,10432],[48.9,10515],[48.6,10591],[48.6,10675],[48.6,10758],[48.6,10841],[48.6,10925],[49.1,11008],[49.8,11099],[50.2,11175],[50.6,11258],[51.4,11349],[52.3,11425],[52.3,11509],[52.3,11592],[51.8,11675],[51,11766],[50.5,11849],[49.8,11933],[49.5,12009],[49,12100],[48.9,12183],[48.9,12259],[48.9,12343],[48.9,12426],[48.8,12517],[48.6,12593],[48.6,12676],[48.6,12759],[48.6,12843],[48.6,12926],[48.6,13010],[48.6,13093],[48.6,13176],[48.6,13260]]",901.3388,904.2912,48.59375,1.7237,"[{""rating"":48.59375,""responseTime"":1.7236999998093552}]",space,2.4013,,904.2912,Not at all,0,904.2924,,,[],,0,1,1,1,1,audio/Narrative7Situation1.wav,audio/Narrative8Situation1.wav,audio/Narrative5Situation1.wav,audio/Narrative6Situation1.wav,2,5,5,2,,,,,,,,,,,,,,,,,,,,,,,,,,,,,,,,,,,,,,,
,,,,,672c74f54295206bddb0146a,2025-07-08_00h31.09.765,group3.4_multiperson,2023.2.2,Win32,60.24096386,686c2ebf0248f13bef9af11f,686cace4967a3cd79a5bba1d,,,,,,,,,,,,,,,,,,,,,,,,,,,,,904.2926,2,audio/Narrative5Situation2.wav,907.2935,,907.2936,936.7507,"[[49,1508],[49.5,1591],[49.5,1667],[49.5,1751],[49.5,1834],[50.8,1924],[51.6,2001],[51.6,2084],[51.6,2168],[51.6,2251],[51.6,2335],[51.6,2418],[52.3,2502],[53.3,2592],[53.6,2675],[54.1,2752],[54.1,2835],[54.1,2918],[54.1,3002],[54.1,3091],[54.1,3168],[54.1,3252],[54.1,3336],[54.1,3419],[54.1,3502],[54.1,3586],[54.1,3669],[54.1,3753],[54.1,3836],[54.1,3919],[54.1,4003],[54.1,4086],[54.1,4169],[54.1,4253],[54.1,4336],[55.2,4427],[55.5,4503],[55.8,4593],[55.8,4670],[55.8,4753],[55.5,4837],[54.1,4927],[52.3,5004],[51.2,5094],[50.8,5176],[50.8,5254],[50.8,5337],[51.4,5427],[52.7,5511],[53.3,5594],[53.4,5671],[53.4,5754],[53.4,5838],[53.4,5921],[53.4,6004],[53.4,6088],[53.4,6171],[53.4,6254],[53.4,6338],[53.4,6421],[53.4,6505],[53.4,6588],[53.4,6671],[53.4,6755],[53.4,6838],[53.4,6922],[53.4,7005],[53.4,7088],[53.4,7172],[53.4,7255],[53.4,7339],[53.4,7422],[53.4,7505],[53.4,7589],[53.4,7672],[53.4,7756],[53.4,7839],[53.4,7923],[52.7,8013],[51.9,8096],[51.6,8179],[51.5,8256],[51.5,8339],[51.5,8423],[51.6,8506],[52.7,8590],[54.9,8680],[58.8,8757],[63.1,8847],[74,8930],[88,9014],[96,9098],[100,9174],[100,9263],[100,9340],[100,9424],[100,9507],[100,9591],[100,9681],[99.4,9764],[99.3,9841],[99.3,9924],[99.3,10008],[99.3,10091],[99.3,10174],[99.3,10258],[99.3,10341],[99.9,10432],[100,10508],[100,10591],[100,10675],[100,10765],[100,10841],[100,10925],[100,11008],[100,11092],[100,11175],[100,11263],[100,11342],[100,11425],[100,11509],[100,11592],[100,11675],[100,11759],[100,11842],[100,11926],[100,12009],[100,12093],[100,12176],[100,12259],[100,12343],[100,12426],[100,12509],[100,12593],[100,12676],[100,12760],[100,12843],[100,12926],[100,13010],[100,13093],[100,13177],[100,13260],[100,13344],[100,13427],[100,13510],[100,13594],[100,13677],[100,13761],[100,13844],[100,13927],[100,14011],[100,14094],[100,14177],[100,14261],[100,14344],[100,14428],[100,14511],[100,14595],[100,14678],[100,14761],[100,14845],[100,14928],[100,15012],[100,15095],[100,15178],[100,15262],[100,15345],[100,15429],[100,15512],[100,15595],[100,15679],[100,15762],[100,15846],[100,15929],[100,16012],[100,16096],[100,16179],[100,16263],[100,16346],[100,16429],[100,16513],[100,16596],[100,16680],[100,16763],[100,16846],[100,16930],[100,17020],[100,17096],[100,17180],[100,17263],[100,17347],[100,17430],[100,17514],[100,17597],[100,17680],[100,17764],[100,17847],[100,17931],[100,18014],[100,18097],[100,18181],[100,18264],[100,18347],[100,18431],[100,18514],[100,18598],[100,18681],[100,18764],[100,18848],[100,18931],[100,19015],[100,19098],[100,19182],[100,19265],[100,19348],[100,19432],[100,19515],[100,19599],[100,19682],[100,19765],[100,19849],[100,19932],[100,20015],[100,20099],[100,20182],[100,20266],[100,20349],[100,20432],[100,20516],[100,20599],[100,20683],[100,20766],[100,20850],[100,20933],[100,21016],[100,21100],[100,21189],[100,21267],[100,21350],[100,21440],[100,21517],[100,21600],[100,21684],[100,21767],[100,21850],[100,21934],[100,22017],[100,22101],[100,22184],[100,22268],[100,22351],[100,22434],[100,22518],[100,22601],[100,22684],[100,22768],[100,22851],[100,22935],[100,23018],[100,23101],[100,23185],[100,23268],[100,23352],[100,23435],[100,23519],[100,23608],[100,23685],[100,23769],[100,23852],[100,23935],[100,24019],[100,24102],[100,24185],[100,24269],[100,24352],[100,24436],[100,24519],[100,24603],[100,24686],[100,24769],[100,24853],[100,24936],[100,25019],[100,25103],[100,25186],[100,25270],[100,25353],[100,25440],[100,25520],[100,25604],[100,25687],[100,25770],[100,25854],[100,25937],[100,26020],[100,26104],[100,26187],[100,26271],[100,26354],[100,26437],[100,26521],[100,26604],[100,26688],[100,26771],[100,26854],[100,26938],[100,27021],[100,27105],[100,27188],[100,27271],[100,27355],[100,27438],[100,27522],[100,27605],[100,27688],[100,27772],[100,27855],[100,27939],[100,28022],[100,28105],[100,28189],[100,28272],[100,28355],[100,28439],[100,28522],[100,28606],[100,28689],[100,28773],[100,28856],[100,28940],[100,29023],[100,29107],[100,29190],[100,29273],[100,29356],[100,29440]]",936.7508,941.4879,82.65625,3.9848,"[{""rating"":100,""responseTime"":2.159699999809277},{""rating"":82.65625,""responseTime"":3.984799999713914}]",space,4.2039,,941.488,Definitely yes,100,941.4904,,,[],,0,2,2,2,1,audio/Narrative7Situation2.wav,audio/Narrative8Situation2.wav,audio/Narrative5Situation2.wav,audio/Narrative6Situation2.wav,3,3,3,3,,,,,,,,,,,,,,,,,,,,,,,,,,,,,,,,,,,,,,,
,,,,,672c74f54295206bddb0146a,2025-07-08_00h31.09.765,group3.4_multiperson,2023.2.2,Win32,60.24096386,686c2ebf0248f13bef9af11f,686cace4967a3cd79a5bba1d,,,,,,,,,,,,,,,,,,,,,,,,,,,,,941.4907,2,audio/Narrative5Situation3.wav,944.5071,,944.5071,958.4015,"[[82,2175],[80.1,2259],[75.3,2342],[71.1,2425],[62.9,2508],[59.1,2592],[59.1,2668],[66.4,2759],[95,2843],[100,2925],[100,3002],[100,3085],[100,3169],[100,3252],[100,3336],[100,3419],[100,3502],[100,3586],[100,3669],[100,3752],[100,3836],[100,3919],[100,4003],[100,4092],[100,4176],[100,4253],[100,4336],[100,4420],[100,4503],[100,4586],[100,4670],[100,4753],[100,4837],[100,4920],[100,5003],[100,5087],[100,5170],[100,5254],[100,5337],[100,5420],[100,5504],[100,5587],[100,5677],[100,5754],[100,5837],[100,5921],[100,6004],[100,6087],[100,6171],[100,6254],[100,6338],[100,6421],[100,6505],[100,6588],[100,6671],[100,6755],[100,6838],[100,6922],[100,7005],[100,7088],[100,7178],[100,7255],[100,7339],[100,7422],[100,7505],[100,7589],[100,7672],[100,7756],[100,7839],[100,7922],[100,8006],[100,8089],[100,8173],[100,8256],[100,8339],[100,8423],[100,8506],[100,8589],[100,8673],[100,8756],[100,8846],[100,8923],[100,9007],[100,9090],[100,9174],[100,9257],[100,9340],[100,9424],[100,9507],[100,9590],[100,9674],[100,9757],[100,9841],[100,9924],[100,10007],[100,10091],[100,10174],[100,10257],[100,10341],[100,10424],[100,10508],[100,10591],[100,10675],[100,10758],[100,10841],[100,10925],[100,11008],[100,11091],[100,11181],[100,11258],[100,11342],[100,11429],[100,11509],[100,11592],[100,11675],[100,11759],[100,11842],[100,11926],[100,12009],[100,12092],[100,12176],[100,12259],[100,12343],[100,12426],[100,12509],[100,12593],[100,12676],[100,12759],[100,12843],[100,12926],[100,13010],[100,13093],[100,13177],[100,13260],[100,13344],[100,13427],[100,13510],[100,13594],[100,13677],[100,13760],[100,13844]]",958.4016,961.3542,100,2.3752,"[{""rating"":100,""responseTime"":2.3752000002860996}]",space,2.4191,,961.3542,Partially,50,961.357,,,[],,0,3,3,3,1,audio/Narrative7Situation3.wav,audio/Narrative8Situation3.wav,audio/Narrative5Situation3.wav,audio/Narrative6Situation3.wav,8,4,3,5,,,,,,,,,,,,,,,,,,,,,,,,,,,,,,,,,,,,,,,
,,,,,672c74f54295206bddb0146a,2025-07-08_00h31.09.765,group3.4_multiperson,2023.2.2,Win32,60.24096386,686c2ebf0248f13bef9af11f,686cace4967a3cd79a5bba1d,,,,,,,,,,,,,,,,,,,,,,,,,,,,,961.3572,2,audio/Narrative5Situation4.wav,962.3713,,962.3714,982.7712,"[[100,507],[100,591],[100,673],[100,750],[100,833],[100,917],[95.5,1008],[85,1091],[80,1174],[78.9,1258],[69.4,1341],[66.4,1417],[68,1508],[79.2,1591],[96.2,1675],[100,1758],[100,1834],[100,1918],[100,2001],[100,2085],[100,2168],[100,2251],[100,2335],[100,2418],[100,2501],[100,2585],[100,2668],[100,2752],[100,2835],[100,2919],[100,3002],[100,3085],[100,3169],[100,3252],[100,3335],[100,3419],[100,3502],[100,3586],[100,3669],[100,3753],[100,3836],[100,3919],[100,4003],[100,4086],[100,4170],[100,4253],[100,4336],[100,4420],[100,4503],[100,4586],[100,4670],[100,4754],[100,4837],[100,4920],[100,5004],[100,5087],[100,5170],[100,5254],[100,5337],[100,5420],[100,5504],[100,5587],[100,5671],[100,5754],[100,5837],[100,5921],[100,6004],[100,6088],[100,6171],[100,6255],[100,6338],[100,6421],[100,6505],[100,6588],[100,6672],[100,6755],[100,6838],[100,6922],[100,7005],[100,7089],[100,7172],[100,7255],[100,7339],[100,7422],[100,7506],[100,7589],[100,7672],[100,7756],[100,7839],[100,7923],[100,8006],[100,8089],[100,8173],[100,8256],[100,8340],[100,8423],[100,8506],[100,8590],[100,8673],[100,8757],[100,8840],[100,8923],[100,9007],[100,9090],[100,9174],[100,9257],[100,9340],[100,9424],[100,9507],[100,9591],[100,9674],[100,9757],[100,9841],[100,9924],[100,10008],[100,10091],[100,10174],[100,10258],[100,10341],[100,10425],[100,10508],[100,10591],[100,10675],[100,10758],[100,10842],[100,10925],[100,11008],[100,11092],[100,11175],[100,11259],[100,11342],[100,11425],[100,11515],[100,11592],[100,11676],[100,11759],[100,11842],[100,11926],[100,12009],[100,12093],[100,12176],[100,12259],[100,12343],[100,12426],[100,12510],[100,12593],[100,12676],[100,12760],[100,12843],[100,12927],[100,13010],[100,13093],[100,13177],[100,13260],[100,13344],[100,13427],[100,13510],[100,13594],[100,13677],[100,13761],[100,13844],[100,13927],[100,14011],[100,14094],[100,14177],[100,14261],[100,14344],[100,14428],[100,14511],[100,14595],[100,14678],[100,14765],[100,14845],[100,14928],[100,15012],[100,15095],[100,15178],[100,15262],[100,15345],[100,15429],[100,15512],[100,15595],[100,15679],[100,15762],[100,15846],[100,15929],[100,16012],[100,16096],[100,16179],[100,16263],[100,16346],[100,16429],[100,16513],[100,16596],[100,16679],[100,16763],[100,16847],[100,16930],[100,17013],[100,17096],[100,17180],[100,17263],[100,17347],[100,17430],[100,17514],[100,17597],[100,17681],[100,17771],[100,17847],[100,17931],[100,18014],[100,18097],[100,18181],[100,18264],[100,18348],[100,18431],[100,18514],[100,18598],[100,18681],[100,18765],[100,18848],[100,18931],[100,19015],[100,19098],[100,19182],[100,19265],[100,19348],[100,19432],[100,19515],[100,19599],[100,19682],[100,19766],[100,19856],[100,19932],[100,20016],[100,20105],[100,20182],[100,20266],[100,20349]]",982.7713,985.4066,100,2.4482,"[{""rating"":100,""responseTime"":2.448199999809276}]",space,2.1073,,985.4067,Not at all,0,985.4092,,,[],,0,4,4,4,1,audio/Narrative7Situation4.wav,audio/Narrative8Situation4.wav,audio/Narrative5Situation4.wav,audio/Narrative6Situation4.wav,3,3,1,2,,,,,,,,,,,,,,,,,,,,,,,,,,,,,,,,,,,,,,,
,,,,,672c74f54295206bddb0146a,2025-07-08_00h31.09.765,group3.4_multiperson,2023.2.2,Win32,60.24096386,686c2ebf0248f13bef9af11f,686cace4967a3cd79a5bba1d,,,,,,,,,,,,,,,,,,,,,,,,,,,,,985.4095,2,audio/Narrative5Situation5.wav,990.4107,,990.4107,1005.8232,"[[100,834],[100,924],[100,1007],[100,1090],[93.8,1174],[92.8,1250],[92.8,1334],[92.8,1417],[92.7,1501],[84.1,1591],[69.4,1674],[65.5,1757],[65.4,1834],[57.7,1924],[51.1,2008],[51.1,2084],[51.1,2168],[50.4,2258],[50.2,2335],[49.9,2418],[49.9,2501],[49.9,2585],[49.8,2669],[45.5,2759],[31,2842],[24.6,2925],[19.9,3002],[2,3092],[4.1,3342],[16.3,3426],[17,3502],[17,3586],[17,3669],[11.4,3759],[3.2,3843],[2.4,3926],[2.4,4003],[0.5,4093],[1.3,5010],[2.3,5094],[2.3,5170],[2.3,5254],[2.3,5337],[2.3,5421],[2,5511],[1.2,5594],[0.8,5671],[0.7,5754],[0.7,5837],[0.7,5921],[0.7,6005],[0.7,6088],[0.7,6171],[0.7,6255],[0.7,6338],[0.7,6421],[0.7,6505],[0.7,6588],[0.7,6672],[0.7,6755],[0.7,6838],[0.7,6922],[0.7,7005],[0.7,7088],[0.7,7172],[0.7,7255],[0.7,7339],[0.7,7422],[0.7,7506],[0.7,7589],[0.7,7672],[0.7,7756],[0.7,7839],[0.7,7923],[0.7,8006],[0.7,8089],[0.7,8173],[0.7,8256],[0.7,8339],[0.7,8423],[0.7,8506],[0.7,8590],[0.7,8673],[0.7,8757],[0.7,8840],[0.7,8923],[0.7,9007],[0.7,9090],[0.7,9174],[0.7,9257],[0.7,9340],[0.7,9424],[0.7,9507],[0.7,9590],[0.7,9674],[0.7,9757],[0.7,9841],[0.7,9924],[0.7,10008],[0.7,10091],[0.7,10174],[0.7,10258],[0.7,10341],[0.7,10425],[0.7,10508],[0.7,10591],[0.7,10675],[0.7,10758],[0.7,10842],[0.7,10925],[0.7,11008],[0.7,11092],[0.7,11175],[0.7,11258],[0.7,11342],[0.7,11425],[0.7,11509],[0.7,11592],[0.7,11676],[0.7,11759],[0.7,11842],[0.7,11926],[0.7,12009],[0.7,12093],[0.7,12176],[0.7,12259],[0.7,12343],[0.7,12426],[0.7,12509],[0.7,12593],[0.7,12676],[0.7,12760],[0.7,12843],[0.7,12927],[0.7,13010],[0.7,13093],[0.7,13177],[0.7,13260],[0.7,13344],[0.7,13427],[0.7,13510],[0.7,13594],[0.7,13677],[0.7,13761],[0.7,13844],[0.7,13927],[0.7,14011],[0.7,14094],[0.7,14178],[0.7,14261],[0.7,14344],[0.7,14428],[0.7,14511],[0.7,14595],[0.7,14678],[0.7,14761],[0.7,14845],[0.7,14928],[0.7,15012],[0.7,15095],[0.7,15178],[0.7,15262],[0.7,15345]]",1005.8234,1008.7923,0,2.1295,"[{""rating"":0,""responseTime"":2.1295000000000073}]",space,2.4457,,1008.7924,Partially,50,1008.7944,,,[],,0,5,5,5,1,audio/Narrative7Situation5.wav,audio/Narrative8Situation5.wav,audio/Narrative5Situation5.wav,audio/Narrative6Situation5.wav,5,2,5,2,,,,,,,,,,,,,,,,,,,,,,,,,,,,,,,,,,,,,,,
,,,,,672c74f54295206bddb0146a,2025-07-08_00h31.09.765,group3.4_multiperson,2023.2.2,Win32,60.24096386,686c2ebf0248f13bef9af11f,686cace4967a3cd79a5bba1d,,,,,,,,,,,,,,,,,,,,,,,,,,,,,1008.7947,2,audio/Narrative5Situation6.wav,1011.8114,,1011.8114,1017.4826,"[[999,0],[999,83],[999,166],[999,250],[999,339],[999,422],[999,500],[999,583],[999,667],[999,750],[999,834],[999,917],[999,1000],[999,1084],[999,1174],[999,1257],[999,1334],[999,1417],[999,1507],[999,1585],[2,2008],[2.6,2085],[3.3,2168],[3.3,2251],[3,2335],[8.8,2425],[22,2508],[34.5,2592],[41.3,2675],[44.1,2759],[45.2,2835],[45.2,2919],[45.2,3008],[47.3,3092],[53,3176],[54.8,3259],[56.1,3343],[57,3426],[57,3502],[57,3586],[62.1,3676],[72,3759],[77.4,3836],[77.4,3925],[77.4,4003],[77.4,4086],[77.7,4176],[78.3,4260],[79.8,4336],[80.3,4420],[80.9,4510],[82.8,4594],[86.6,4677],[88,4760],[88,4837],[88,4920],[88,5007],[88,5087],[85.8,5177],[83.2,5260],[82.3,5344],[82.3,5421],[82.3,5504],[82.3,5587],[82.3,5671]]",1017.4828,1022.5202,78.984375,3.7253,"[{""rating"":78.984375,""responseTime"":3.7253000001906003}]",space,4.4887,,1022.5203,Not at all,0,1022.5224,,,[],,0,6,6,6,1,audio/Narrative7Situation6.wav,audio/Narrative8Situation6.wav,audio/Narrative5Situation6.wav,audio/Narrative6Situation6.wav,3,2,3,2,,,,,,,,,,,,,,,,,,,,,,,,,,,,,,,,,,,,,,,
,,,,,672c74f54295206bddb0146a,2025-07-08_00h31.09.765,group3.4_multiperson,2023.2.2,Win32,60.24096386,686c2ebf0248f13bef9af11f,686cace4967a3cd79a5bba1d,,,,,,,,,,,,,,,,,,,,,,,,,,,,,1022.5226,2,audio/Narrative5Situation7.wav,1026.5232,,1026.5233,1047.5636,"[[999,0],[999,83],[999,166],[999,257],[50.6,340],[50.1,417],[49.5,506],[49.5,583],[49.7,674],[50,750],[50.2,833],[50.4,917],[50.6,1000],[52.7,1091],[54.8,1174],[54.8,1250],[54.8,1334],[54.8,1417],[54.3,1508],[54.3,1584],[54.3,1667],[54.1,1751],[54.1,1834],[54.1,1918],[54.1,2008],[54.1,2084],[54.1,2168],[54.5,2251],[58.4,2342],[62,2425],[63.3,2509],[65.3,2592],[67.2,2675],[67.7,2752],[67.7,2835],[67.7,2918],[67.7,3002],[67.7,3085],[67.7,3169],[67.7,3252],[67.7,3335],[67.7,3419],[67.7,3502],[68.6,3593],[68.9,3669],[68.9,3752],[68.9,3836],[68.9,3919],[68.9,4003],[68.9,4086],[68.9,4169],[68.9,4253],[68.9,4336],[68.9,4420],[68.9,4503],[68.9,4586],[68.9,4670],[68.9,4753],[68.9,4836],[68.9,4920],[68.9,5003],[68.9,5087],[68.9,5170],[68.9,5254],[68.9,5337],[68.9,5420],[68.9,5504],[68.9,5587],[68.9,5671],[68.9,5754],[68.9,5837],[68.9,5921],[68.9,6004],[68.9,6088],[68.9,6171],[68.9,6254],[68.9,6338],[68.9,6422],[68.9,6505],[68.9,6588],[68.9,6672],[68.9,6755],[68.9,6838],[68.9,6922],[68.9,7005],[68.9,7088],[68.9,7172],[68.9,7255],[68.9,7339],[68.9,7422],[68.9,7505],[68.9,7589],[68.9,7672],[68.9,7755],[68.9,7839],[68.9,7922],[68.9,8006],[68.9,8089],[68.9,8179],[68.9,8256],[68.9,8339],[68.9,8423],[68.9,8506],[68.9,8590],[68.9,8673],[68.9,8756],[68.9,8840],[68.9,8923],[68.9,9007],[68.9,9090],[68.9,9173],[68.9,9257],[68.9,9340],[68.9,9424],[68.9,9507],[68.9,9590],[68.9,9674],[68.9,9757],[68.9,9841],[68.9,9924],[68.9,10007],[68.9,10091],[68.9,10174],[68.9,10258],[68.9,10341],[68.9,10424],[68.9,10508],[68.9,10591],[68.9,10675],[68.9,10758],[68.9,10842],[68.9,10925],[68.9,11008],[68.9,11092],[68.9,11175],[68.9,11258],[68.9,11342],[68.9,11425],[68.9,11509],[68.9,11592],[68.9,11675],[68.9,11759],[68.9,11842],[68.9,11926],[68.9,12009],[68.9,12092],[68.9,12176],[68.9,12259],[68.9,12343],[68.9,12426],[68.9,12509],[68.9,12593],[68.9,12676],[68.9,12760],[68.9,12843],[68.9,12927],[68.9,13010],[68.9,13093],[68.9,13183],[68.9,13260],[68.9,13343],[68.9,13427],[68.9,13510],[68.9,13594],[68.9,13677],[68.9,13760],[68.9,13844],[68.9,13927],[68.9,14011],[68.9,14094],[68.9,14177],[68.9,14261],[68.9,14344],[68.9,14428],[68.9,14511],[68.9,14595],[68.9,14678],[68.9,14761],[68.9,14845],[68.9,14928],[68.9,15012],[68.9,15095],[68.9,15178],[68.9,15262],[68.9,15345],[68.9,15428],[68.9,15512],[68.9,15596],[68.9,15679],[68.9,15769],[68.9,15846],[68.9,15936],[68.9,16012],[68.9,16102],[68.9,16179],[68.9,16262],[68.9,16346],[68.9,16429],[68.9,16513],[68.9,16596],[68.9,16680],[68.9,16763],[68.9,16846],[68.9,16930],[68.9,17013],[68.9,17096],[68.9,17180],[69.8,17271],[71.6,17347],[71.9,17431],[72.4,17513],[71.7,17605],[71.7,17680],[71.7,17764],[71.7,17847],[71,17938],[70.8,18021],[70.8,18097],[71.3,18188],[71.7,18271],[71.8,18347],[71.8,18431],[71.8,18514],[71.8,18598],[71.8,18681],[71.8,18765],[71.8,18848],[71.8,18931],[71.8,19015],[71.8,19098],[71.8,19182],[71.8,19265],[71.8,19348],[71.8,19432],[71.8,19515],[71.8,19599],[71.8,19682],[71.8,19766],[71.8,19849],[71.8,19932],[71.8,20016],[71.8,20099],[71.8,20182],[71.8,20266],[71.8,20349],[71.8,20432],[71.8,20516],[71.8,20599],[71.8,20683],[71.8,20766],[71.8,20850],[71.8,20933],[71.8,21017]]",1047.5638,1050.3593,63.515625,1.7856,"[{""rating"":63.515625,""responseTime"":1.7855999999046617}]",space,2.2554,,1050.3593,Not at all,0,1050.3606,,,[],,0,7,7,7,1,audio/Narrative7Situation7.wav,audio/Narrative8Situation7.wav,audio/Narrative5Situation7.wav,audio/Narrative6Situation7.wav,5,3,4,5,,,,,,,,,,,,,,,,,,,,,,,,,,,,,,,,,,,,,,,
,,,,,672c74f54295206bddb0146a,2025-07-08_00h31.09.765,group3.4_multiperson,2023.2.2,Win32,60.24096386,686c2ebf0248f13bef9af11f,686cace4967a3cd79a5bba1d,,,,,,,,,,,,,,,,,,,,,,,,,,,,,1050.3608,2,audio/Narrative5Situation8.wav,1053.3616,,1053.3616,1062.1689,"[[60.5,1007],[59.9,1091],[59.9,1167],[59.5,1257],[55.2,1341],[49.1,1424],[48.3,1501],[48,1584],[51.1,1674],[51.6,1751],[50.8,1835],[50.1,1918],[50.1,2007],[50.5,2085],[50.5,2168],[36.7,2258],[25.7,2342],[12.5,2425],[13,2508],[15.3,2592],[21.1,2675],[30.3,2759],[35.5,2842],[40.8,2925],[41.4,3002],[41.4,3085],[41.4,3169],[41.5,3252],[42.4,3342],[42.9,3419],[42.9,3502],[42.9,3586],[42.9,3669],[42.8,3753],[40.8,3843],[40.6,3919],[40.6,4003],[40.6,4086],[40.5,4177],[40.5,4259],[40.9,4343],[42.6,4427],[42.7,4503],[42.6,4587],[42.5,4670],[44.2,4760],[46.8,4844],[47.9,4920],[48.2,5010],[49,5094],[49.9,5171],[50.9,5261],[51.7,5344],[52.4,5427],[53.6,5511],[54.5,5593],[54.6,5678],[54.6,5754],[54.6,5837],[54.6,5921],[54.6,6004],[54.5,6088],[54.5,6179],[54.3,6262],[54,6338],[53.2,6421],[52.2,6512],[51.2,6595],[51.2,6672],[51.2,6755],[51.2,6838],[51.2,6922],[51.2,7005],[51.2,7088],[51.2,7172],[51.2,7255],[50.8,7339],[50.5,7422],[50.5,7505],[50.5,7589],[50.5,7672],[50.5,7756],[50.5,7839],[50.5,7922],[50.5,8006],[50.5,8089],[50.5,8173],[50.5,8256],[50.5,8340],[50.5,8423],[50.5,8506],[50.5,8590],[50.5,8673],[50.5,8757]]",1062.169,1067.4563,23.203125,4.7937,"[{""rating"":14.687499999999998,""responseTime"":2.314599999904658},{""rating"":23.203125000000004,""responseTime"":4.793699999809405}]",space,4.7394,,1067.4565,Not at all,0,1067.4577,,,[],,0,8,8,8,1,audio/Narrative7Situation8.wav,audio/Narrative8Situation8.wav,audio/Narrative5Situation8.wav,audio/Narrative6Situation8.wav,2,3,3,5,,,,,,,,,,,,,,,,,,,,,,,,,,,,,,,,,,,,,,,
,,,,,672c74f54295206bddb0146a,2025-07-08_00h31.09.765,group3.4_multiperson,2023.2.2,Win32,60.24096386,686c2ebf0248f13bef9af11f,686cace4967a3cd79a5bba1d,,,,,,,,,,,,,,,,,,,,,,,,,,,,,1067.4579,2,audio/Narrative5Situation9.wav,1070.4589,,1070.4589,1110.0075,"[[26.6,83],[34.1,166],[35.5,250],[35.4,340],[40.2,423],[49.8,507],[51.8,583],[51.8,667],[51.8,750],[51.6,834],[50.4,923],[50.2,1007],[50.2,1084],[50.2,1167],[50.2,1257],[53.3,1340],[57.8,1424],[72.7,1507],[100,1591],[100,1668],[100,1751],[100,1834],[100,1918],[100,2008],[100,2091],[100,2174],[100,2257],[100,2334],[100,2418],[100,2501],[100,2585],[100,2668],[100,2752],[100,2835],[100,2918],[100,3002],[100,3085],[100,3169],[100,3252],[100,3336],[100,3419],[100,3502],[100,3585],[100,3669],[100,3753],[100,3836],[100,3919],[100,4003],[100,4086],[100,4175],[100,4253],[100,4336],[100,4420],[100,4503],[100,4586],[100,4670],[100,4753],[100,4837],[100,4920],[100,5004],[100,5087],[100,5170],[100,5254],[100,5337],[100,5420],[100,5504],[100,5587],[100,5671],[100,5754],[100,5837],[100,5921],[100,6004],[100,6088],[100,6171],[100,6255],[100,6338],[100,6421],[100,6505],[100,6588],[100,6671],[100,6755],[100,6838],[100,6922],[100,7005],[100,7089],[100,7172],[100,7255],[100,7339],[100,7422],[100,7505],[100,7589],[100,7672],[100,7756],[100,7839],[100,7923],[100,8006],[100,8089],[100,8173],[100,8256],[100,8339],[100,8423],[100,8506],[100,8590],[100,8673],[100,8756],[100,8840],[100,8923],[100,9007],[100,9090],[100,9173],[100,9257],[100,9340],[100,9424],[100,9507],[100,9590],[100,9674],[100,9757],[100,9841],[100,9924],[100,10008],[100,10091],[100,10174],[100,10258],[100,10341],[100,10424],[100,10508],[100,10591],[100,10675],[100,10758],[100,10841],[100,10925],[100,11008],[100,11092],[100,11175],[100,11259],[100,11342],[100,11425],[100,11509],[100,11592],[100,11676],[100,11759],[100,11842],[100,11926],[100,12009],[100,12093],[100,12176],[100,12259],[100,12343],[100,12430],[100,12509],[100,12593],[100,12676],[100,12760],[100,12843],[100,12926],[100,13010],[100,13093],[100,13177],[100,13260],[100,13343],[100,13427],[100,13510],[100,13594],[100,13684],[100,13760],[100,13844],[100,13927],[100,14011],[100,14094],[100,14178],[100,14261],[100,14344],[100,14428],[100,14511],[100,14594],[100,14678],[100,14761],[100,14845],[100,14928],[100,15012],[100,15095],[100,15178],[100,15262],[100,15345],[100,15429],[100,15512],[100,15595],[100,15679],[100,15762],[100,15846],[100,15929],[100,16012],[100,16096],[100,16179],[100,16263],[100,16346],[100,16436],[100,16513],[100,16596],[100,16680],[100,16763],[100,16846],[100,16930],[100,17013],[100,17096],[100,17180],[100,17263],[100,17347],[100,17430],[100,17513],[100,17597],[100,17680],[100,17764],[100,17847],[100,17931],[100,18014],[100,18097],[100,18181],[100,18264],[100,18348],[100,18431],[100,18515],[100,18598],[100,18681],[100,18765],[100,18848],[100,18931],[100,19015],[100,19098],[100,19181],[100,19265],[100,19348],[100,19432],[100,19515],[100,19599],[100,19682],[100,19765],[100,19849],[100,19932],[100,20016],[100,20099],[100,20182],[100,20266],[100,20349],[100,20433],[100,20516],[100,20599],[100,20683],[100,20766],[100,20850],[100,20933],[100,21016],[100,21100],[100,21183],[100,21267],[100,21350],[100,21433],[100,21517],[100,21600],[100,21683],[100,21767],[100,21857],[100,21934],[100,22017],[100,22101],[100,22184],[100,22267],[100,22351],[100,22434],[100,22518],[100,22601],[100,22684],[100,22768],[100,22851],[100,22935],[100,23018],[100,23101],[100,23185],[100,23268],[100,23352],[100,23435],[100,23518],[100,23602],[100,23685],[100,23769],[100,23852],[100,23935],[100,24019],[100,24102],[100,24186],[100,24269],[100,24353],[100,24436],[100,24519],[100,24603],[100,24686],[100,24770],[100,24853],[100,24936],[100,25019],[100,25103],[100,25186],[100,25270],[100,25353],[100,25437],[100,25520],[100,25603],[100,25687],[100,25770],[100,25854],[100,25937],[100,26021],[100,26104],[100,26187],[100,26271],[100,26354],[100,26437],[100,26521],[100,26604],[100,26688],[100,26771],[100,26855],[100,26938],[100,27021],[100,27105],[100,27188],[100,27278],[100,27355],[100,27438],[100,27522],[100,27605],[100,27689],[100,27772],[100,27855],[100,27939],[100,28022],[100,28105],[100,28189],[100,28272],[100,28355],[100,28439],[100,28522],[100,28606],[100,28689],[100,28773],[100,28862],[100,28940],[100,29023],[100,29113],[100,29190],[100,29273],[100,29356],[100,29440],[100,29523],[100,29607],[100,29690],[100,29773],[100,29857],[100,29940],[100,30024],[100,30107],[100,30190],[100,30274],[100,30357],[100,30441],[100,30524],[100,30608],[100,30691],[100,30774],[100,30858],[100,30941],[100,31024],[100,31108],[100,31191],[100,31275],[100,31358],[100,31442],[100,31525],[100,31609],[100,31692],[100,31775],[100,31859],[100,31942],[100,32025],[100,32109],[100,32192],[100,32275],[100,32359],[100,32442],[100,32526],[100,32609],[100,32692],[100,32776],[100,32859],[100,32943],[100,33026],[100,33109],[100,33193],[100,33276],[100,33360],[100,33443],[100,33526],[100,33610],[100,33693],[100,33777],[100,33860],[100,33943],[100,34027],[100,34110],[100,34194],[100,34277],[100,34361],[100,34444],[100,34527],[100,34611],[100,34694],[100,34778],[100,34861],[100,34944],[100,35028],[100,35111],[100,35195],[100,35278],[100,35361],[100,35445],[100,35528],[100,35612],[100,35695],[100,35778],[100,35862],[100,35945],[100,36029],[100,36112],[100,36195],[100,36279],[100,36362],[100,36446],[100,36529],[100,36612],[100,36696],[100,36779],[100,36863],[100,36946],[100,37029],[100,37113],[100,37196],[100,37279],[100,37363],[100,37446],[100,37529],[100,37613],[100,37697],[100,37780],[100,37863],[100,37947],[100,38030],[100,38114],[100,38197],[100,38280],[100,38364],[100,38447],[100,38531],[100,38614],[100,38697],[100,38781],[100,38864],[100,38948],[100,39031],[100,39114],[100,39198],[100,39281],[100,39364],[100,39448],[100,39531]]",1110.0077,1112.4093,100,1.7267,"[{""rating"":100,""responseTime"":1.7267000002862005}]",space,1.8724,,1112.4094,Definitely yes,100,1112.4115,,,[],,0,9,9,9,1,audio/Narrative7Situation9.wav,audio/Narrative8Situation9.wav,audio/Narrative5Situation9.wav,audio/Narrative6Situation9.wav,2,3,3,4,,,,,,,,,,,,,,,,,,,,,,,,,,,,,,,,,,,,,,,
,,,,,672c74f54295206bddb0146a,2025-07-08_00h31.09.765,group3.4_multiperson,2023.2.2,Win32,60.24096386,686c2ebf0248f13bef9af11f,686cace4967a3cd79a5bba1d,,,,,,,,,,,,,,,,,,,,,,,,,,,,,1112.4117,2,audio/Narrative6Situation1.wav,1114.4276,,1114.4277,1141.0159,"[[999,0],[999,83],[999,166],[999,250],[999,333],[999,423],[999,500],[999,583],[999,666],[999,750],[999,834],[49.8,923],[49,1007],[48.5,1091],[48.5,1167],[48.6,1257],[48.8,1334],[49,1417],[49,1501],[49,1584],[49,1667],[49,1751],[49,1834],[49,1918],[49,2001],[49,2084],[49,2168],[49,2251],[49,2335],[49,2418],[49,2501],[49,2585],[49,2668],[49,2752],[49,2835],[49,2918],[49,3002],[49,3085],[49,3169],[49,3252],[49,3336],[49,3419],[49,3502],[49,3586],[49,3669],[49,3752],[49,3836],[49,3919],[49,4003],[49,4086],[49,4169],[49,4253],[49,4336],[49,4420],[49,4503],[49,4587],[49,4670],[49,4753],[49,4837],[49,4920],[49,5004],[49,5087],[49,5177],[49,5260],[49,5337],[49,5421],[49,5504],[49,5587],[49,5671],[49,5754],[49,5837],[49,5921],[49,6004],[49,6087],[49,6171],[49,6254],[49,6338],[49,6421],[49,6505],[49,6588],[49,6671],[49,6755],[49,6838],[49,6922],[49,7005],[49,7088],[49,7172],[49,7255],[49,7339],[49.7,7429],[50.2,7506],[51,7596],[51.6,7679],[51.6,7756],[51.6,7839],[51.6,7922],[51.6,8006],[51.7,8089],[52,8179],[52.1,8256],[52.2,8340],[52.2,8423],[52.2,8506],[52.2,8590],[52.2,8673],[52.2,8763],[52.2,8840],[52.2,8923],[52.2,9007],[52.2,9090],[52.2,9174],[52.2,9257],[52.2,9340],[52.2,9424],[52.2,9507],[52.2,9590],[52.2,9674],[52.2,9757],[52.2,9841],[52.2,9924],[52.2,10007],[52.2,10091],[52.2,10174],[52.2,10258],[52.2,10348],[52.2,10424],[52.2,10515],[52.2,10591],[52.2,10675],[52.2,10758],[52.2,10842],[52.2,10925],[52.2,11008],[52.2,11092],[52.2,11175],[52.2,11259],[52.2,11342],[52.2,11425],[52.2,11509],[52.2,11592],[52.2,11675],[52.2,11759],[52.2,11842],[52.2,11926],[52.2,12009],[52.2,12092],[52.3,12176],[53,12259],[53,12343],[53,12426],[53,12509],[53.6,12600],[54.1,12676],[54.1,12760],[54.1,12843],[54.1,12927],[54.1,13010],[54.1,13093],[54.1,13177],[54.5,13267],[54.5,13344],[54.5,13427],[54.5,13517],[54.1,13594],[48.5,13684],[45.4,13768],[40.5,13848],[37.4,13935],[36.2,14018],[35.6,14101],[35,14185],[35,14261],[35,14344],[35,14428],[35.2,14511],[35.3,14594],[35.3,14678],[35,14761],[34.5,14852],[34.5,14928],[34.5,15011],[34.3,15095],[34.1,15186],[33.8,15269],[33.5,15352],[33.3,15429],[33.1,15519],[33,15595],[33,15679],[33,15762],[33,15846],[33,15929],[33,16012],[33,16096],[33,16179],[33,16262],[33,16346],[33,16429],[33,16513],[33,16596],[33,16680],[33,16763],[33,16846],[33,16930],[33,17013],[33,17096],[33,17180],[33,17263],[33,17347],[33,17430],[33,17514],[33,17597],[33,17680],[33,17764],[33,17847],[33,17931],[33,18014],[33,18097],[33,18181],[33,18270],[33,18348],[33,18431],[33,18514],[33,18598],[33,18681],[33,18765],[33,18848],[33,18936],[33,19015],[33,19098],[33,19182],[33,19265],[33,19348],[33,19432],[31.9,19522],[29.4,19605],[26.6,19689],[23.8,19765],[22.4,19855],[21.6,19932],[21.9,20016],[21.9,20099],[21.9,20182],[21.6,20266],[21,20349],[20.2,20439],[19.1,20523],[18.8,20606],[18.6,20689],[18.6,20766],[19,20856],[20.5,20940],[21.9,21023],[23.4,21107],[24.4,21190],[25.1,21273],[26.8,21357],[28.6,21440],[30.8,21523],[33.5,21607],[36.3,21684],[39.3,21774],[42.1,21857],[45.2,21941],[45.5,22017],[45.5,22101],[45.5,22184],[45.5,22268],[45.5,22351],[46.2,22441],[47.3,22524],[48.6,22601],[49.8,22691],[50.8,22774],[52.1,22858],[52.8,22942],[52.8,23018],[52.8,23101],[52.8,23185],[53.8,23275],[54.8,23358],[54.9,23435],[55.2,23525],[55.7,23602],[55.9,23685],[58.8,23776],[64.9,23859],[68.6,23942],[68.9,24019],[69.6,24109],[69.8,24192],[69.8,24269],[69.8,24352],[69.8,24436],[69.9,24519],[70.4,24603],[70.4,24686],[70.4,24776],[71.1,24860],[74.8,24944],[82.2,25027],[90.4,25110],[91.9,25193],[91.9,25270],[91.9,25353],[90.5,25444],[87.1,25527],[85.9,25611],[85.9,25687],[85.9,25770],[85.9,25854],[85.9,25937],[85.9,26020],[85.9,26104],[85.9,26187],[85.9,26271],[85.9,26354],[85.9,26437],[85.9,26521]]",1141.0161,1143.3512,18.59375,1.6141,"[{""rating"":18.593749999999996,""responseTime"":1.614099999904738}]",space,1.7843,,1143.3512,Not at all,0,1143.3533,,,[],,0,10,10,10,1,audio/Narrative8Situation1.wav,audio/Narrative7Situation1.wav,audio/Narrative6Situation1.wav,audio/Narrative5Situation1.wav,5,2,2,5,,,,,,,,,,,,,,,,,,,,,,,,,,,,,,,,,,,,,,,
,,,,,672c74f54295206bddb0146a,2025-07-08_00h31.09.765,group3.4_multiperson,2023.2.2,Win32,60.24096386,686c2ebf0248f13bef9af11f,686cace4967a3cd79a5bba1d,,,,,,,,,,,,,,,,,,,,,,,,,,,,,1143.3535,2,audio/Narrative6Situation2.wav,1146.3702,,1146.3702,1174.86,"[[31.2,1091],[34.5,1174],[39.1,1258],[44,1341],[50.3,2092],[49.8,2175],[49.7,2258],[49.7,2341],[49.7,2418],[49.7,2501],[49.7,2585],[49.7,2668],[49.7,2752],[49.7,2835],[49.7,2919],[49.7,3002],[49.7,3085],[49.5,3176],[49.7,3252],[49.7,3336],[49.7,3419],[49.7,3502],[49.7,3586],[49.5,3676],[49.5,3753],[49.5,3842],[49.5,3919],[49.5,4003],[49.5,4086],[49.5,4169],[49.5,4253],[49.5,4336],[49.5,4420],[49.5,4503],[49.5,4586],[49.5,4670],[49.5,4753],[49.5,4836],[49.5,4920],[49.5,5003],[49.5,5087],[49.5,5170],[49.5,5254],[50,5344],[51.3,5427],[53.6,5511],[62.8,5594],[80.1,5677],[88.4,5761],[93.8,5844],[96.7,5928],[97.6,6005],[99.9,6088],[100,6177],[100,6261],[100,6338],[100,6421],[100,6511],[100,6588],[100,6672],[100,6755],[100,6838],[100,6922],[100,7005],[100,7088],[100,7172],[100,7255],[100,7339],[100,7422],[100,7505],[100,7589],[100,7672],[100,7756],[100,7839],[100,7922],[100,8006],[100,8089],[100,8173],[100,8256],[100,8340],[100,8423],[100,8506],[100,8590],[100,8673],[100,8756],[100,8840],[100,8923],[100,9007],[100,9090],[100,9174],[100,9257],[100,9340],[100,9424],[100,9507],[100,9591],[100,9674],[100,9757],[100,9841],[100,9924],[100,10007],[100,10091],[100,10174],[100,10258],[100,10341],[100,10424],[100,10508],[100,10591],[100,10674],[100,10758],[100,10841],[100,10925],[100,11008],[100,11092],[100,11175],[100,11258],[100,11342],[100,11425],[100,11509],[100,11592],[100,11676],[100,11759],[100,11842],[100,11926],[100,12009],[100,12093],[100,12176],[100,12259],[100,12343],[100,12426],[100,12509],[100,12593],[100,12676],[100,12760],[100,12843],[100,12926],[100,13010],[100,13093],[100,13177],[100,13260],[100,13344],[100,13427],[100,13510],[100,13594],[100,13677],[100,13761],[100,13844],[100,13927],[100,14011],[100,14094],[100,14178],[100,14261],[100,14344],[100,14428],[100,14511],[100,14595],[100,14678],[100,14761],[100,14845],[100,14928],[100,15012],[100,15095],[100,15178],[100,15262],[100,15345],[100,15429],[100,15512],[100,15595],[100,15679],[100,15762],[100,15846],[100,15929],[100,16012],[100,16096],[100,16179],[100,16263],[100,16346],[100,16429],[100,16513],[100,16596],[100,16680],[100,16763],[100,16846],[100,16930],[100,17013],[100,17097],[100,17180],[100,17263],[100,17347],[100,17437],[100,17514],[100,17597],[100,17680],[100,17764],[100,17847],[100,17930],[100,18014],[100,18097],[100,18181],[100,18264],[100,18347],[100,18431],[100,18515],[100,18598],[100,18681],[100,18765],[100,18848],[100,18931],[100,19015],[100,19098],[100,19181],[100,19265],[100,19348],[100,19432],[100,19515],[100,19599],[100,19682],[100,19765],[100,19849],[100,19932],[100,20016],[100,20099],[100,20182],[100,20266],[100,20349],[100,20433],[100,20516],[100,20600],[100,20683],[100,20766],[100,20849],[100,20933],[100,21016],[100,21100],[100,21183],[100,21266],[100,21350],[100,21433],[100,21517],[100,21600],[100,21683],[100,21767],[100,21850],[100,21934],[100,22017],[100,22101],[100,22184],[100,22267],[100,22351],[100,22434],[100,22518],[100,22601],[100,22685],[100,22768],[100,22851],[100,22935],[100,23018],[100,23101],[100,23185],[100,23268],[100,23352],[100,23435],[100,23519],[100,23602],[100,23685],[100,23769],[100,23852],[100,23936],[100,24019],[100,24102],[100,24186],[100,24269],[100,24352],[100,24436],[100,24519],[100,24603],[100,24686],[100,24769],[100,24853],[100,24936],[100,25020],[100,25103],[100,25186],[100,25270],[100,25353],[100,25437],[100,25520],[100,25603],[100,25687],[100,25770],[100,25854],[100,25937],[100,26020],[100,26104],[100,26187],[100,26270],[100,26354],[100,26437],[100,26526],[100,26604],[100,26688],[100,26771],[100,26854],[100,26938],[100,27021],[100,27105],[100,27188],[100,27271],[100,27355],[100,27438],[100,27522],[100,27605],[100,27688],[100,27778],[100,27855],[100,27939],[100,28022],[100,28112],[100,28189],[100,28272],[100,28355],[100,28439]]",1174.8601,1181.8154,100,6.4116,"[{""rating"":90.3125,""responseTime"":3.9600999999045143},{""rating"":100,""responseTime"":6.411599999904638}]",space,6.4225,,1181.8155,Definitely yes,100,1181.8177,,,[],,0,11,11,11,1,audio/Narrative8Situation2.wav,audio/Narrative7Situation2.wav,audio/Narrative6Situation2.wav,audio/Narrative5Situation2.wav,3,3,3,3,,,,,,,,,,,,,,,,,,,,,,,,,,,,,,,,,,,,,,,
,,,,,672c74f54295206bddb0146a,2025-07-08_00h31.09.765,group3.4_multiperson,2023.2.2,Win32,60.24096386,686c2ebf0248f13bef9af11f,686cace4967a3cd79a5bba1d,,,,,,,,,,,,,,,,,,,,,,,,,,,,,1181.8179,2,audio/Narrative6Situation3.wav,1186.8195,,1186.8196,1199.4299,"[[999,0],[999,83],[999,166],[999,250],[999,333],[999,416],[999,500],[999,583],[999,667],[999,750],[999,834],[54.5,921],[53.4,1008],[51.8,1084],[50.7,1167],[50.5,1250],[50.2,1334],[49.5,1424],[50.1,1508],[51.2,1591],[51.2,1667],[51.2,1751],[51.2,1834],[51.3,1918],[52.4,2007],[52.4,2084],[52.4,2168],[52.3,2251],[52.3,2335],[52.3,2426],[52.4,2501],[54.8,2592],[55.1,2668],[55.1,2752],[55.1,2835],[55.1,2918],[55.4,3009],[55.6,3085],[55.6,3169],[55.6,3252],[55.6,3335],[55.3,3426],[53,3509],[51.3,3586],[51.1,3669],[51.1,3752],[51.1,3836],[51.8,3926],[52.7,4010],[54.1,4093],[55.2,4176],[56.5,4260],[58.8,4343],[63,4427],[65.5,4503],[66.9,4594],[69.5,4677],[69.8,4753],[69.8,4837],[69.8,4920],[70.1,5010],[72,5094],[72.3,5170],[72.3,5254],[72.3,5337],[72.3,5420],[72.3,5504],[72.3,5587],[72.3,5671],[72.3,5760],[72.3,5837],[72.3,5921],[72.3,6004],[72.3,6088],[72.3,6171],[72.3,6254],[72.3,6338],[72.3,6421],[72.3,6505],[72.3,6588],[72.3,6671],[72.3,6755],[72.4,6838],[78.5,6928],[90.2,7011],[100,7095],[100,7172],[100,7255],[100,7339],[100,7422],[100,7505],[100,7589],[100,7672],[100,7755],[100,7839],[100,7922],[100,8006],[100,8089],[100,8173],[100,8256],[100,8339],[100,8423],[100,8506],[100,8590],[100,8673],[100,8756],[100,8840],[100,8923],[100,9007],[100,9090],[100,9173],[100,9257],[100,9340],[100,9424],[100,9507],[100,9590],[100,9674],[100,9757],[100,9841],[100,9924],[100,10014],[100,10091],[100,10174],[100,10258],[100,10341],[100,10424],[100,10508],[100,10598],[100,10681],[100,10766],[100,10848],[100,10931],[100,11009],[100,11098],[100,11175],[100,11259],[100,11342],[100,11425],[100,11509],[100,11592],[100,11676],[100,11759],[100,11849],[100,11926],[100,12009],[100,12092],[100,12176],[100,12266],[100,12343],[100,12426],[100,12509],[100,12593]]",1199.43,1202.5323,100,2.4433,"[{""rating"":100,""responseTime"":2.443300000190675}]",space,2.5703,,1202.5324,Definitely yes,100,1210.1883,100,6.6108,"[{""rating"":100,""responseTime"":6.61079999971389}]",space,0,12,12,12,1,audio/Narrative8Situation3.wav,audio/Narrative7Situation3.wav,audio/Narrative6Situation3.wav,audio/Narrative5Situation3.wav,4,8,5,3,,,7.1225,,,,,,,,,,,,,,,,,,,,,,,,,,,,,,,,,,,,
,,,,,672c74f54295206bddb0146a,2025-07-08_00h31.09.765,group3.4_multiperson,2023.2.2,Win32,60.24096386,686c2ebf0248f13bef9af11f,686cace4967a3cd79a5bba1d,,,,,,,,,,,,,,,,,,,,,,,,,,,,,1210.1886,2,audio/Narrative6Situation4.wav,1212.1901,,1212.1902,1224.8171,"[[92.7,840],[77.2,924],[63.7,1007],[60.9,1090],[53.4,1174],[47.6,1257],[48.3,1340],[50.1,1417],[52.4,1507],[53.9,1591],[53.9,1667],[53.9,1750],[54.1,1834],[54.2,1917],[54.2,2001],[54.2,2084],[55.6,2172],[56.1,2251],[56.5,2341],[57.1,2425],[57.8,2508],[58.7,2591],[60.1,2675],[61.7,2758],[63.7,2841],[65.6,2925],[68.2,3002],[70,3092],[70.2,3175],[70.2,3252],[70.2,3335],[75.6,3419],[90.3,3509],[96.3,3592],[97.1,3669],[99.6,3759],[99.7,3836],[99.9,3926],[100,4002],[100,4086],[100,4169],[100,4253],[100,4336],[100,4419],[100,4503],[100,4586],[100,4669],[100,4753],[100,4836],[100,4920],[100,5003],[100,5087],[100,5170],[100,5260],[100,5337],[100,5420],[100,5504],[100,5587],[100,5670],[100,5754],[100,5837],[100,5921],[100,6004],[100,6087],[100,6171],[100,6254],[100,6338],[100,6421],[100,6504],[100,6594],[100,6671],[100,6755],[100,6838],[100,6921],[100,7005],[100,7088],[100,7172],[100,7255],[100,7338],[100,7422],[100,7505],[100,7589],[100,7672],[100,7755],[100,7839],[100,7922],[100,8006],[100,8089],[100,8173],[100,8256],[100,8339],[100,8423],[100,8506],[100,8590],[100,8673],[100,8756],[100,8840],[100,8923],[100,9006],[100,9090],[100,9173],[100,9257],[100,9340],[100,9424],[100,9507],[100,9590],[100,9674],[100,9757],[100,9840],[100,9924],[100,10007],[100,10091],[100,10174],[100,10258],[100,10341],[100,10424],[100,10508],[100,10591],[100,10675],[100,10758],[100,10841],[100,10925],[100,11008],[100,11091],[100,11175],[100,11258],[100,11342],[100,11425],[100,11508],[100,11592],[100,11675],[100,11759],[100,11842],[100,11926],[100,12009],[100,12092],[100,12176],[100,12259],[100,12343],[100,12426],[100,12509],[100,12593]]",1224.8172,1230.6716,100,5.061,"[{""rating"":100,""responseTime"":5.060999999999922}]",space,5.308,,1230.6717,Definitely yes,100,1230.6731,,,[],,0,13,13,13,1,audio/Narrative8Situation4.wav,audio/Narrative7Situation4.wav,audio/Narrative6Situation4.wav,audio/Narrative5Situation4.wav,3,3,2,1,,,,,,,,,,,,,,,,,,,,,,,,,,,,,,,,,,,,,,,
,,,,,672c74f54295206bddb0146a,2025-07-08_00h31.09.765,group3.4_multiperson,2023.2.2,Win32,60.24096386,686c2ebf0248f13bef9af11f,686cace4967a3cd79a5bba1d,,,,,,,,,,,,,,,,,,,,,,,,,,,,,1230.6732,2,audio/Narrative6Situation5.wav,1232.6901,,1232.6901,1240.6463,"[[100,83],[100,172],[100,256],[94.1,340],[78.6,423],[65.8,506],[63.1,590],[55.8,667],[48,757],[48.2,840],[49.2,924],[49.8,1000],[51.1,1090],[51.2,1167],[51.3,1257],[51.4,1334],[51.6,1417],[55.5,1507],[59.9,1591],[62.5,1674],[62.7,1751],[62.7,1834],[63.1,1924],[65.8,2008],[72,2091],[81.3,2174],[88.3,2258],[90.7,2341],[93.4,2425],[97.5,2508],[100,2591],[100,2675],[100,2758],[100,2835],[100,2918],[100,3002],[100,3086],[100,3175],[100,3258],[100,3335]]",1240.6463,1243.6153,100,1.9739,"[{""rating"":100,""responseTime"":1.9739000000952274}]",space,2.4441,,1243.6153,Partially,50,1243.6176,,,[],,0,14,14,14,1,audio/Narrative8Situation5.wav,audio/Narrative7Situation5.wav,audio/Narrative6Situation5.wav,audio/Narrative5Situation5.wav,2,5,2,5,,,,,,,,,,,,,,,,,,,,,,,,,,,,,,,,,,,,,,,
