consent.started,consent.stopped,consentResponse.keys,consentResponse.rt,consentResponse.duration,participantID,date,expName,psychopyVersion,OS,frameRate,STUDY_ID,SESSION_ID,opening1.started,opening1.stopped,keyEndingOpening1.keys,keyEndingOpening1.rt,keyEndingOpening1.duration,volumeAdjust.started,volumeAdjust.stopped,endingAdjust.keys,endingAdjust.rt,endingAdjust.duration,opening2.started,opening2.stopped,keyEndingOpening.keys,keyEndingOpening.rt,keyEndingOpening.duration,mouse.x,mouse.y,mouse.leftButton,mouse.midButton,mouse.rightButton,mouse.time,instructionLoop.thisRepN,instructionLoop.thisTrialN,instructionLoop.thisN,instructionLoop.thisIndex,instructionLoop.ran,readyForAudio.started,readyForAudio.stopped,fixation.started,run,audio_played,fixation.stopped,endPractice.keys,audioPre.started,audioPre.stopped,continuousResponses_audio,intRating.started,intRating.stopped,intQuestionSlider.response,intQuestionSlider.rt,intQuestionSlider.history,confirmResponse.keys,confirmResponse.rt,confirmResponse.duration,catchQuestion.started,catch_label,catch_value,catchQuestion.stopped,catchQuestionSlider.response,catchQuestionSlider.rt,catchQuestionSlider.history,confirmResponse_2.keys,audioRunLoop.thisRepN,audioRunLoop.thisTrialN,audioRunLoop.thisN,audioRunLoop.thisIndex,audioRunLoop.ran,conditions1_1,conditions2_1,conditions1_2,conditions2_2,dur1_1,dur2_1,dur1_2,dur2_2,endPractice.rt,endPractice.duration,confirmResponse_2.rt,confirmResponse_2.duration,runIntervalBreak.started,runIntervalBreak.stopped,endingBreakKey.keys,endingBreakKey.rt,endingBreakKey.duration,connection.started,connection.stopped,connectionEnding.keys,connectionEnding.rt,connectionEnding.duration,readyForText.started,readyForText.stopped,textPre.started,run_dup,textPre.stopped,continuousResponses_text,textRunLoop.thisRepN,textRunLoop.thisTrialN,textRunLoop.thisN,textRunLoop.thisIndex,textRunLoop.ran,text1_1,text1_2,text2_1,text2_2,runBreakText.started,runBreakText.stopped,endingBreakKey_2.keys,endingBreakKey_2.rt,endingBreakKey_2.duration,ending.started,ending.stopped,endingEnding.keys,endingEnding.rt,endingEnding.duration
0.0007,21.6435,y,21.3407,,673ec935d1ab67f5acdd49e3,2025-07-07_23h34.50.421,group3.4_multiperson,2023.2.2,Win32,243.902439,686c2ebf0248f13bef9af11f,686c91c0148ebdd55a6f7adf,,,,,,,,,,,,,,,,,,,,,,,,,,,,,,,,,,,,,,,,,,,,,,,,,,,,,,,,,,,,,,,,,,,,,,,,,,,,,,,,,,,,,,,,,,,,,,,,,,,,,,,,
,,,,,673ec935d1ab67f5acdd49e3,2025-07-07_23h34.50.421,group3.4_multiperson,2023.2.2,Win32,243.902439,686c2ebf0248f13bef9af11f,686c91c0148ebdd55a6f7adf,21.6437,27.0776,space,5.4091,,,,,,,,,,,,,,,,,,,,,,,,,,,,,,,,,,,,,,,,,,,,,,,,,,,,,,,,,,,,,,,,,,,,,,,,,,,,,,,,,,,,,,,,,,,,,,,,,,,,
,,,,,673ec935d1ab67f5acdd49e3,2025-07-07_23h34.50.421,group3.4_multiperson,2023.2.2,Win32,243.902439,686c2ebf0248f13bef9af11f,686c91c0148ebdd55a6f7adf,,,,,,27.0777,33.8762,space,6.4913,,,,,,,,,,,,,,,,,,,,,,,,,,,,,,,,,,,,,,,,,,,,,,,,,,,,,,,,,,,,,,,,,,,,,,,,,,,,,,,,,,,,,,,,,,,,,,,
,,,,,673ec935d1ab67f5acdd49e3,2025-07-07_23h34.50.421,group3.4_multiperson,2023.2.2,Win32,243.902439,686c2ebf0248f13bef9af11f,686c91c0148ebdd55a6f7adf,,,,,,,,,,,33.8793,143.8563,space,109.9687,,[],[],[],[],[],[],0,0,0,0,1,,,,,,,,,,,,,,,,,,,,,,,,,,,,,,,,,,,,,,,,,,,,,,,,,,,,,,,,,,,,,,,,,,,,,,,,,,,,,,
,,,,,673ec935d1ab67f5acdd49e3,2025-07-07_23h34.50.421,group3.4_multiperson,2023.2.2,Win32,243.902439,686c2ebf0248f13bef9af11f,686c91c0148ebdd55a6f7adf,,,,,,,,,,,143.8567,166.289,space,22.3693,,[],[],[],[],[],[],1,0,1,0,1,,,,,,,,,,,,,,,,,,,,,,,,,,,,,,,,,,,,,,,,,,,,,,,,,,,,,,,,,,,,,,,,,,,,,,,,,,,,,,
,,,,,673ec935d1ab67f5acdd49e3,2025-07-07_23h34.50.421,group3.4_multiperson,2023.2.2,Win32,243.902439,686c2ebf0248f13bef9af11f,686c91c0148ebdd55a6f7adf,,,,,,,,,,,166.2893,178.2221,space,11.8994,,[],[],[],[],[],[],2,0,2,0,1,,,,,,,,,,,,,,,,,,,,,,,,,,,,,,,,,,,,,,,,,,,,,,,,,,,,,,,,,,,,,,,,,,,,,,,,,,,,,,
,,,,,673ec935d1ab67f5acdd49e3,2025-07-07_23h34.50.421,group3.4_multiperson,2023.2.2,Win32,243.902439,686c2ebf0248f13bef9af11f,686c91c0148ebdd55a6f7adf,,,,,,,,,,,178.2223,199.9214,space,21.6665,,[],[],[],[],[],[],3,0,3,0,1,,,,,,,,,,,,,,,,,,,,,,,,,,,,,,,,,,,,,,,,,,,,,,,,,,,,,,,,,,,,,,,,,,,,,,,,,,,,,,
,,,,,673ec935d1ab67f5acdd49e3,2025-07-07_23h34.50.421,group3.4_multiperson,2023.2.2,Win32,243.902439,686c2ebf0248f13bef9af11f,686c91c0148ebdd55a6f7adf,,,,,,,,,,,199.9217,215.2545,space,15.2999,,[],[],[],[],[],[],4,0,4,0,1,,,,,,,,,,,,,,,,,,,,,,,,,,,,,,,,,,,,,,,,,,,,,,,,,,,,,,,,,,,,,,,,,,,,,,,,,,,,,,
,,,,,673ec935d1ab67f5acdd49e3,2025-07-07_23h34.50.421,group3.4_multiperson,2023.2.2,Win32,243.902439,686c2ebf0248f13bef9af11f,686c91c0148ebdd55a6f7adf,,,,,,,,,,,215.2547,226.3875,space,11.1,,[],[],[],[],[],[],5,0,5,0,1,,,,,,,,,,,,,,,,,,,,,,,,,,,,,,,,,,,,,,,,,,,,,,,,,,,,,,,,,,,,,,,,,,,,,,,,,,,,,,
,,,,,673ec935d1ab67f5acdd49e3,2025-07-07_23h34.50.421,group3.4_multiperson,2023.2.2,Win32,243.902439,686c2ebf0248f13bef9af11f,686c91c0148ebdd55a6f7adf,,,,,,,,,,,,,,,,,,,,,,,,,,,226.3893,228.9705,228.9827,1,audio/Narrative13Situation2.wav,230.9873,,230.9873,260.7538,"[[999,0],[999,366],[999,700],[999,1019],[999,1349],[999,1683],[999,2067],[999,2449],[8.9,2982],[8.9,3299],[8.9,3633],[42.3,4082],[49.2,4449],[50.7,4799],[53.9,5150],[60.4,5499],[60.4,5833],[60.4,6166],[60.4,6499],[60.4,6833],[60.4,7166],[60.4,7499],[68.5,7899],[80.1,8267],[94.3,8716],[100,9133],[100,9466],[100,9799],[100,10133],[100,10466],[100,10800],[100,11132],[100,11466],[100,11799],[100,12133],[100,12466],[100,12799],[100,13132],[100,13466],[100,13799],[100,14133],[100,14466],[100,14799],[100,15132],[100,15466],[100,15799],[100,16133],[100,16466],[100,16799],[100,17132],[100,17466],[100,17799],[49.3,18249],[49.3,18582],[28.3,18999],[19.2,19432],[19.2,19766],[19.2,20099],[18.6,20433],[16.4,20782],[16.4,21116],[9.5,21500],[7,21849],[7,22182],[93.2,22970],[100,23732],[100,24049],[100,24383],[100,24732],[100,25049],[100,25382],[100,25716],[100,26052],[100,26382],[100,26715],[100,27049],[100,27382],[100,27716],[100,28049],[100,28382],[100,28715],[100,29049],[100,29382],[100,29718]]",260.754,272.1028,100,10.0655,"[{""rating"":100,""responseTime"":7.565700000047684},{""rating"":100,""responseTime"":10.065499999999986}]",space,10.8,,272.103,Definitely yes,100,272.1055,,,[],,0,0,0,0,1,audio/Narrative13Situation2.wav,audio/Narrative13Situation2.wav,audio/Narrative13Situation2.wav,audio/Narrative13Situation2.wav,2,2,2,2,,,,,,,,,,,,,,,,,,,,,,,,,,,,,,,,,,,,,,,
,,,,,673ec935d1ab67f5acdd49e3,2025-07-07_23h34.50.421,group3.4_multiperson,2023.2.2,Win32,243.902439,686c2ebf0248f13bef9af11f,686c91c0148ebdd55a6f7adf,,,,,,,,,,,,,,,,,,,,,,,,,,,,,272.1057,1,audio/Narrative8Situation1.wav,274.7866,space,274.7866,290.736,"[[56.5,2233],[52.9,2701],[52.1,3033],[89.1,3552],[98.5,4000],[99.9,4367],[100,4699],[100,5033],[100,5366],[100,5700],[100,6032],[100,6366],[100,6699],[100,7034],[100,7366],[100,7699],[100,8033],[100,8366],[100,8699],[100,9033],[100,9366],[100,9699],[100,10032],[100,10365],[100,10699],[100,11033],[100,11366],[100,11699],[100,12032],[100,12366],[100,12699],[100,13032],[100,13366],[100,13699],[100,14032],[100,14366],[100,14699],[100,15032],[100,15366],[100,15699]]",290.7361,295.0359,99.74425433,2.7325,"[{""rating"":99.74425432900796,""responseTime"":2.732500000000016}]",space,3.7503,,295.0359,Not at all,0,295.0378,,,[],,0,1,1,1,1,audio/Narrative7Situation1.wav,audio/Narrative8Situation1.wav,audio/Narrative5Situation1.wav,audio/Narrative6Situation1.wav,2,5,5,2,2.6502,,,,,,,,,,,,,,,,,,,,,,,,,,,,,,,,,,,,,,
,,,,,673ec935d1ab67f5acdd49e3,2025-07-07_23h34.50.421,group3.4_multiperson,2023.2.2,Win32,243.902439,686c2ebf0248f13bef9af11f,686c91c0148ebdd55a6f7adf,,,,,,,,,,,,,,,,,,,,,,,,,,,,,295.0379,1,audio/Narrative8Situation2.wav,298.0526,,298.0526,308.1857,"[[999,0],[999,333],[999,666],[999,1000],[999,1333],[999,1733],[50.7,2249],[50.1,2583],[50.1,2916],[50.3,3249],[37.8,3667],[12.2,4166],[6.3,4549],[1.4,4882],[1.1,5216],[0.3,5599],[0.3,5916],[0.3,6249],[0.3,6582],[0.3,6916],[0.3,7249],[0.3,7582],[0.3,7916],[0.3,8249],[0.3,8582],[0.3,8916],[0.3,9249],[0.3,9599],[0.3,9916]]",308.1858,314.1352,0,2.7493,"[{""rating"":0.31364739574282763,""responseTime"":2.0491999999881045},{""rating"":0,""responseTime"":2.7493000000119423}]",space,5.4002,,314.1352,Definitely yes,100,314.1369,,,[],,0,2,2,2,1,audio/Narrative7Situation2.wav,audio/Narrative8Situation2.wav,audio/Narrative5Situation2.wav,audio/Narrative6Situation2.wav,3,3,3,3,,,,,,,,,,,,,,,,,,,,,,,,,,,,,,,,,,,,,,,
,,,,,673ec935d1ab67f5acdd49e3,2025-07-07_23h34.50.421,group3.4_multiperson,2023.2.2,Win32,243.902439,686c2ebf0248f13bef9af11f,686c91c0148ebdd55a6f7adf,,,,,,,,,,,,,,,,,,,,,,,,,,,,,314.137,1,audio/Narrative8Situation3.wav,318.1521,,318.1522,340.5347,"[[16.7,1083],[17.6,1416],[35.1,1767],[37.3,2133],[8.7,2533],[8.7,2866],[39.2,3333],[39.2,3666],[39.2,3999],[39.2,4333],[39.2,4666],[37,5033],[48.7,5416],[48.7,5749],[51.1,6115],[51.1,6449],[51.1,6783],[51.1,7116],[51.1,7449],[51.1,7782],[73.4,8201],[100,8699],[100,9033],[100,9366],[100,9699],[99,10083],[99,10415],[100,10799],[100,11115],[100,11466],[100,11782],[100,12115],[100,12449],[100,12798],[100,13132],[100,13449],[100,13782],[100,14115],[100,14449],[100,14782],[100,15115],[100,15449],[100,15782],[100,16115],[100,16449],[100,16782],[100,17115],[100,17449],[100,17783],[100,18115],[100,18449],[100,18782],[100,19116],[100,19449],[100,19783],[100,20116],[100,20449],[100,20782],[100,21115],[100,21449],[100,21799],[100,22132]]",340.5347,344.8017,100,2.5497,"[{""rating"":100,""responseTime"":2.5496999999880927}]",space,3.7335,,344.8017,Partially,50,344.8035,,,[],,0,3,3,3,1,audio/Narrative7Situation3.wav,audio/Narrative8Situation3.wav,audio/Narrative5Situation3.wav,audio/Narrative6Situation3.wav,8,4,3,5,,,,,,,,,,,,,,,,,,,,,,,,,,,,,,,,,,,,,,,
,,,,,673ec935d1ab67f5acdd49e3,2025-07-07_23h34.50.421,group3.4_multiperson,2023.2.2,Win32,243.902439,686c2ebf0248f13bef9af11f,686c91c0148ebdd55a6f7adf,,,,,,,,,,,,,,,,,,,,,,,,,,,,,344.8036,1,audio/Narrative8Situation4.wav,347.8183,,347.8184,362.0013,"[[97.1,666],[60.7,1200],[13.9,1733],[13.4,2066],[14.1,2400],[53.2,2949],[51.8,3266],[52.5,3599],[100,4199],[100,4516],[100,4849],[98.2,6067],[94,6466],[94,6799],[94,7133],[100,7466],[100,7815],[100,8132],[100,8466],[100,8799],[100,9133],[100,9466],[100,9799],[100,10132],[100,10466],[100,10799],[100,11133],[100,11466],[100,11799],[100,12133],[100,12466],[100,12816],[100,13132],[100,13466],[100,13799],[100,14132]]",362.0014,364.9008,99.58814474,1.9326,"[{""rating"":99.58814473815886,""responseTime"":1.932599999964225}]",space,2.3501,,364.9009,Definitely yes,100,364.9024,,,[],,0,4,4,4,1,audio/Narrative7Situation4.wav,audio/Narrative8Situation4.wav,audio/Narrative5Situation4.wav,audio/Narrative6Situation4.wav,3,3,1,2,,,,,,,,,,,,,,,,,,,,,,,,,,,,,,,,,,,,,,,
,,,,,673ec935d1ab67f5acdd49e3,2025-07-07_23h34.50.421,group3.4_multiperson,2023.2.2,Win32,243.902439,686c2ebf0248f13bef9af11f,686c91c0148ebdd55a6f7adf,,,,,,,,,,,,,,,,,,,,,,,,,,,,,364.9025,1,audio/Narrative8Situation5.wav,366.9178,,366.9178,375.1509,"[[70.7,1100],[49.8,1583],[49.3,1916],[100,2416],[100,2750],[100,3083],[100,3416],[100,3749],[100,4099],[100,4416],[100,4749],[100,5082],[100,5416],[100,5766],[100,6082],[100,6416],[100,6749],[100,7083],[100,7416],[100,7749],[100,8082]]",375.151,379.334,100,2.4826,"[{""rating"":99.43205744071794,""responseTime"":1.6658999999761477},{""rating"":100,""responseTime"":2.482600000023808}]",space,3.6502,,379.334,Definitely yes,100,379.335,,,[],,0,5,5,5,1,audio/Narrative7Situation5.wav,audio/Narrative8Situation5.wav,audio/Narrative5Situation5.wav,audio/Narrative6Situation5.wav,5,2,5,2,,,,,,,,,,,,,,,,,,,,,,,,,,,,,,,,,,,,,,,
,,,,,673ec935d1ab67f5acdd49e3,2025-07-07_23h34.50.421,group3.4_multiperson,2023.2.2,Win32,243.902439,686c2ebf0248f13bef9af11f,686c91c0148ebdd55a6f7adf,,,,,,,,,,,,,,,,,,,,,,,,,,,,,379.3352,1,audio/Narrative8Situation6.wav,381.3684,,381.3685,387.8672,"[[93.4,382],[82.6,715],[82.6,1048],[82.6,1382],[82.6,1715],[95.2,2098],[98.2,2449],[100,2798],[100,3115],[100,3448],[100,3782],[100,4115],[100,4449],[100,4782],[100,5115],[100,5448],[100,5782],[100,6131],[100,6449]]",387.8673,393.0008,100,2.7495,"[{""rating"":99.74425432900796,""responseTime"":2.1663000000119155},{""rating"":100,""responseTime"":2.749499999999955}]",space,4.5838,,393.0008,Definitely yes,100,393.002,,,[],,0,6,6,6,1,audio/Narrative7Situation6.wav,audio/Narrative8Situation6.wav,audio/Narrative5Situation6.wav,audio/Narrative6Situation6.wav,3,2,3,2,,,,,,,,,,,,,,,,,,,,,,,,,,,,,,,,,,,,,,,
,,,,,673ec935d1ab67f5acdd49e3,2025-07-07_23h34.50.421,group3.4_multiperson,2023.2.2,Win32,243.902439,686c2ebf0248f13bef9af11f,686c91c0148ebdd55a6f7adf,,,,,,,,,,,,,,,,,,,,,,,,,,,,,393.0022,1,audio/Narrative8Situation7.wav,396.0174,,396.0174,408.1205,"[[72.9,999],[71.8,1349],[71.8,1682],[87.4,2100],[97.1,2533],[100,2902],[100,3233],[100,3566],[100,3899],[100,4233],[100,4566],[100,4900],[100,5233],[100,5566],[100,5902],[68.4,6382],[68.4,6699],[68.4,7033],[61.8,7482],[61.2,7832],[71.7,8233],[96,8766],[100,9132],[100,9466],[100,9799],[100,10132],[100,10466],[100,10799],[100,11132],[100,11469],[100,11799]]",408.1205,411.0666,99.43205744,1.5624,"[{""rating"":99.43205744071794,""responseTime"":1.5623999999761509}]",space,2.4003,,411.0667,Partially,50,411.0682,,,[],,0,7,7,7,1,audio/Narrative7Situation7.wav,audio/Narrative8Situation7.wav,audio/Narrative5Situation7.wav,audio/Narrative6Situation7.wav,5,3,4,5,,,,,,,,,,,,,,,,,,,,,,,,,,,,,,,,,,,,,,,
,,,,,673ec935d1ab67f5acdd49e3,2025-07-07_23h34.50.421,group3.4_multiperson,2023.2.2,Win32,243.902439,686c2ebf0248f13bef9af11f,686c91c0148ebdd55a6f7adf,,,,,,,,,,,,,,,,,,,,,,,,,,,,,411.0684,1,audio/Narrative8Situation8.wav,414.0836,,414.0837,426.9329,"[[100,666],[100,999],[100,1333],[62.9,1766],[62.9,2082],[91.5,2500],[94.8,2849],[94.8,3182],[60.7,3699],[60.7,4033],[56.1,4382],[54.6,4734],[51.1,5066],[51.1,5399],[86.6,5799],[89.6,6133],[100,6532],[100,6882],[100,7199],[100,7549],[100,7882],[100,8215],[99.1,8566],[99.1,8899],[99.1,9232],[99.1,9566],[99.1,9899],[99.1,10232],[99.6,10582],[99.6,10916],[99.6,11249],[99.6,11582],[99.6,11916],[99.6,12249],[99.6,12582]]",426.933,428.6497,99.74425433,0.266,"[{""rating"":99.74425432900796,""responseTime"":0.26600000000001955}]",space,1.1504,,428.6499,Partially,50,428.6508,,,[],,0,8,8,8,1,audio/Narrative7Situation8.wav,audio/Narrative8Situation8.wav,audio/Narrative5Situation8.wav,audio/Narrative6Situation8.wav,2,3,3,5,,,,,,,,,,,,,,,,,,,,,,,,,,,,,,,,,,,,,,,
,,,,,673ec935d1ab67f5acdd49e3,2025-07-07_23h34.50.421,group3.4_multiperson,2023.2.2,Win32,243.902439,686c2ebf0248f13bef9af11f,686c91c0148ebdd55a6f7adf,,,,,,,,,,,,,,,,,,,,,,,,,,,,,428.6509,1,audio/Narrative8Situation9.wav,431.6663,,431.6664,442.983,"[[100,349],[100,683],[100,1016],[99.4,1350],[97.3,1766],[99.6,2116],[99.9,2449],[99.9,2783],[99.9,3116],[99.9,3449],[99.9,3799],[99.9,4116],[99.9,4449],[99.9,4783],[99.3,5133],[99.3,5466],[99.3,5799],[99.3,6133],[99.3,6466],[99.3,6799],[99.3,7132],[99.3,7466],[99.3,7799],[99.3,8132],[99.3,8466],[99.3,8799],[99.3,9133],[99.3,9466],[99.3,9799],[99.3,10133],[99.3,10483],[99.3,10816],[99.3,11149]]",442.9832,446.2324,99.90033048,1.7992,"[{""rating"":99.90033047974477,""responseTime"":1.7991999999880477}]",space,2.7001,,446.2325,Definitely yes,100,454.8326,100,7.5158,"[{""rating"":99.119871699132,""responseTime"":6.6825000000000045},{""rating"":100,""responseTime"":7.515800000011893}]",space,0,9,9,9,1,audio/Narrative7Situation9.wav,audio/Narrative8Situation9.wav,audio/Narrative5Situation9.wav,audio/Narrative6Situation9.wav,2,3,3,4,,,8.0502,,,,,,,,,,,,,,,,,,,,,,,,,,,,,,,,,,,,
,,,,,673ec935d1ab67f5acdd49e3,2025-07-07_23h34.50.421,group3.4_multiperson,2023.2.2,Win32,243.902439,686c2ebf0248f13bef9af11f,686c91c0148ebdd55a6f7adf,,,,,,,,,,,,,,,,,,,,,,,,,,,,,454.8327,1,audio/Narrative7Situation1.wav,456.8495,,456.8496,512.7482,"[[73.7,499],[73.7,833],[81.7,1249],[81.7,1583],[81.7,1916],[81.7,2249],[81.7,2582],[81.7,2915],[81.7,3249],[76.3,3600],[64,3951],[64,4282],[59.3,4834],[47.3,5216],[48.9,5599],[48.9,5932],[48.9,6266],[48.9,6599],[48.9,6933],[41.1,7366],[31.9,7832],[69,8232],[69,8566],[78.7,8933],[78.7,9266],[78.7,9599],[78.7,9932],[78.7,10265],[78.7,10599],[78.7,10932],[78.7,11266],[78.7,11599],[78.7,11932],[78.7,12266],[81,12599],[98.5,13032],[100,13398],[100,13715],[100,14049],[100,14382],[100,14715],[100,15048],[100,15382],[100,15715],[100,16049],[100,16382],[100,16715],[100,17048],[100,17382],[100,17715],[100,18049],[100,18398],[100,18715],[100,19048],[100,19382],[100,19715],[77.3,20099],[77.3,20432],[77.3,20765],[97.1,21166],[97.3,21499],[100,21865],[100,22182],[100,22515],[100,22865],[100,23182],[100,23515],[100,23848],[100,24182],[100,24515],[100,24848],[100,25182],[100,25515],[100,25848],[82.7,26235],[82.6,26581],[82.6,26899],[82.6,27232],[78.2,27566],[78.2,27898],[78.2,28232],[78.2,28565],[48.6,29015],[48.6,29348],[48.6,29682],[48.6,30015],[49.2,30382],[80.1,30848],[80.1,31166],[77.7,31548],[77.4,31881],[97.7,32282],[98.2,32615],[98.8,32948],[99.3,33282],[99.4,33615],[99.6,33949],[99.6,34282],[100,34615],[100,34948],[100,35281],[100,35615],[100,35948],[100,36281],[100,36615],[100,36948],[100,37281],[100,37615],[100,37948],[100,38281],[98.2,38648],[94.1,39032],[94.1,39366],[94.1,39698],[96,40032],[96.2,40366],[96.2,40698],[96.2,41031],[96.2,41365],[100,43532],[100,43915],[100,44265],[100,44632],[100,44948],[100,45281],[100,45614],[100,45948],[100,46281],[100,46615],[100,46948],[100,47281],[100,47615],[100,47948],[100,48281],[100,48615],[100,48948],[100,49281],[100,49615],[100,49948],[100,50281],[100,50615],[100,50948],[100,51281],[100,51615],[100,51948],[100,52281],[100,52615],[100,52948],[100,53281],[100,53614],[100,53948],[100,54281],[100,54614],[100,54948]]",512.7484,530.6641,100,17.0339,"[{""rating"":99.27595899657291,""responseTime"":1.0333000000118773},{""rating"":100,""responseTime"":1.6821000000237518},{""rating"":100,""responseTime"":11.181999999999903},{""rating"":100,""responseTime"":17.033900000035715}]",space,17.3825,,530.6642,Not at all,0,530.6658,,,[],,0,10,10,10,1,audio/Narrative8Situation1.wav,audio/Narrative7Situation1.wav,audio/Narrative6Situation1.wav,audio/Narrative5Situation1.wav,5,2,2,5,,,,,,,,,,,,,,,,,,,,,,,,,,,,,,,,,,,,,,,
,,,,,673ec935d1ab67f5acdd49e3,2025-07-07_23h34.50.421,group3.4_multiperson,2023.2.2,Win32,243.902439,686c2ebf0248f13bef9af11f,686c91c0148ebdd55a6f7adf,,,,,,,,,,,,,,,,,,,,,,,,,,,,,530.6659,1,audio/Narrative7Situation2.wav,533.681,,533.6811,541.1975,"[[999,0],[999,332],[999,666],[999,1000],[999,1333],[999,1666],[999,1999],[999,2349],[999,2666],[999,2999],[999,3332],[999,3666],[999,3999],[999,4333],[999,4666],[999,5000],[999,5371],[50.4,6333],[50.3,6666],[64.2,7134]]",541.1977,544.1971,100,1.5325,"[{""rating"":99.90033047974477,""responseTime"":0.9990999999641872},{""rating"":100,""responseTime"":1.5325000000000273}]",space,2.4505,,544.1973,Definitely yes,100,544.1989,,,[],,0,11,11,11,1,audio/Narrative8Situation2.wav,audio/Narrative7Situation2.wav,audio/Narrative6Situation2.wav,audio/Narrative5Situation2.wav,3,3,3,3,,,,,,,,,,,,,,,,,,,,,,,,,,,,,,,,,,,,,,,
,,,,,673ec935d1ab67f5acdd49e3,2025-07-07_23h34.50.421,group3.4_multiperson,2023.2.2,Win32,243.902439,686c2ebf0248f13bef9af11f,686c91c0148ebdd55a6f7adf,,,,,,,,,,,,,,,,,,,,,,,,,,,,,544.1991,1,audio/Narrative7Situation3.wav,552.2141,,552.2142,561.4635,"[[999,0],[999,333],[999,667],[999,1085],[50.4,1483],[74.5,1920],[75.4,2249],[61.5,2583],[53.2,2949],[53.2,3283],[53.2,3616],[49.3,3968],[32.5,4468],[31.7,4816],[26.2,5234],[24.5,5582],[20.6,5986],[17,6349],[17,6682],[16.6,7016],[10.8,7416],[11.4,7749],[15.9,8167],[8.7,8567],[2.3,8949]]",561.4635,578.4467,22.32261399,15.783,"[{""rating"":0,""responseTime"":1.6501000000238264},{""rating"":18.108134345803823,""responseTime"":6.550000000000068},{""rating"":0,""responseTime"":11.983000000000061},{""rating"":20.605603558435103,""responseTime"":15.516199999988089},{""rating"":22.3226139904536,""responseTime"":15.783000000000015}]",space,16.433,,578.4467,Partially,50,578.4483,,,[],,0,12,12,12,1,audio/Narrative8Situation3.wav,audio/Narrative7Situation3.wav,audio/Narrative6Situation3.wav,audio/Narrative5Situation3.wav,4,8,5,3,,,,,,,,,,,,,,,,,,,,,,,,,,,,,,,,,,,,,,,
,,,,,673ec935d1ab67f5acdd49e3,2025-07-07_23h34.50.421,group3.4_multiperson,2023.2.2,Win32,243.902439,686c2ebf0248f13bef9af11f,686c91c0148ebdd55a6f7adf,,,,,,,,,,,,,,,,,,,,,,,,,,,,,578.4484,1,audio/Narrative7Situation4.wav,581.4638,,581.4639,593.2131,"[[999,0],[999,366],[999,684],[30.3,1100],[34,1482],[46.5,1916],[51.8,2285],[52.8,2616],[69.9,3032],[70.6,3365],[70.6,3715],[52.9,4087],[50.7,4432],[50.7,4765],[50.7,5098],[12.2,5584],[2.8,5998],[0.9,6365],[0,6682],[0,7017],[0,7349],[0,7682],[0,8016],[0,8349]]",593.2133,596.0796,0,1.2003,"[{""rating"":0,""responseTime"":1.2003000000119073}]",space,2.3336,,596.0796,Definitely yes,100,596.0813,,,[],,0,13,13,13,1,audio/Narrative8Situation4.wav,audio/Narrative7Situation4.wav,audio/Narrative6Situation4.wav,audio/Narrative5Situation4.wav,3,3,2,1,,,,,,,,,,,,,,,,,,,,,,,,,,,,,,,,,,,,,,,
,,,,,673ec935d1ab67f5acdd49e3,2025-07-07_23h34.50.421,group3.4_multiperson,2023.2.2,Win32,243.902439,686c2ebf0248f13bef9af11f,686c91c0148ebdd55a6f7adf,,,,,,,,,,,,,,,,,,,,,,,,,,,,,596.0815,1,audio/Narrative7Situation5.wav,601.0962,,601.0964,609.5816,"[[999,0],[999,399],[31.5,832],[29.4,1217],[21.6,1583],[17.3,1949],[13,2316],[13.3,2650],[23.6,3117],[37.8,3687],[46.8,4166],[46.7,4499],[25.9,4899],[25.6,5232],[43.2,5633],[45.9,5985],[50.3,6400],[50.3,6733],[50.3,7066],[50.4,7399],[50.4,7732],[58.5,8104]]",609.5816,613.6806,100,2.6305,"[{""rating"":100,""responseTime"":2.1319000000357846},{""rating"":100,""responseTime"":2.6305000000000973}]",space,3.5173,,613.6807,Definitely yes,100,613.6816,,,[],,0,14,14,14,1,audio/Narrative8Situation5.wav,audio/Narrative7Situation5.wav,audio/Narrative6Situation5.wav,audio/Narrative5Situation5.wav,2,5,2,5,,,,,,,,,,,,,,,,,,,,,,,,,,,,,,,,,,,,,,,
,,,,,673ec935d1ab67f5acdd49e3,2025-07-07_23h34.50.421,group3.4_multiperson,2023.2.2,Win32,243.902439,686c2ebf0248f13bef9af11f,686c91c0148ebdd55a6f7adf,,,,,,,,,,,,,,,,,,,,,,,,,,,,,613.6817,1,audio/Narrative7Situation6.wav,616.6956,,616.6957,626.6956,"[[999,0],[999,333],[999,666],[999,999],[999,1333],[999,1666],[60.9,2266],[88.5,2717],[99.9,3133],[100,3466],[100,3799],[100,4149],[100,4466],[100,4800],[100,5133],[100,5466],[100,5800],[100,6133],[100,6466],[100,6800],[100,7133],[100,7466],[100,7799],[100,8133],[100,8466],[100,8799],[100,9133],[100,9466],[99.8,9849]]",626.6958,629.629,100,1.7845,"[{""rating"":100,""responseTime"":1.78449999999998}]",space,2.3849,,629.6291,Not at all,0,629.6307,,,[],,0,15,15,15,1,audio/Narrative8Situation6.wav,audio/Narrative7Situation6.wav,audio/Narrative6Situation6.wav,audio/Narrative5Situation6.wav,2,3,2,3,,,,,,,,,,,,,,,,,,,,,,,,,,,,,,,,,,,,,,,
,,,,,673ec935d1ab67f5acdd49e3,2025-07-07_23h34.50.421,group3.4_multiperson,2023.2.2,Win32,243.902439,686c2ebf0248f13bef9af11f,686c91c0148ebdd55a6f7adf,,,,,,,,,,,,,,,,,,,,,,,,,,,,,629.6307,1,audio/Narrative7Situation7.wav,634.6467,,634.6467,651.8284,"[[48.9,715],[50.7,1048],[50.9,1381],[63.5,1815],[69,2215],[76,2667],[80.9,3048],[83.5,3381],[87.3,3815],[89.8,4166],[91.8,4532],[91.8,4848],[92,5181],[92.9,5533],[92.9,5867],[92.9,6199],[92.9,6533],[92.7,6868],[92.7,7200],[97.9,7569],[100,7932],[100,8266],[100,8616],[100,8948],[100,9281],[100,9615],[100,9948],[100,10281],[100,10634],[100,10965],[100,11299],[100,11632],[100,11966],[100,12300],[100,12632],[100,12966],[100,13299],[100,13632],[100,13965],[100,14299],[100,14648],[100,14981],[100,15315],[100,15652],[100,15999],[100,16315],[100,16648],[100,16981]]",651.8285,657.1283,100,3.1172,"[{""rating"":100,""responseTime"":3.11720000004766}]",space,4.7512,,657.1284,Partially,50,657.13,,,[],,0,16,16,16,1,audio/Narrative8Situation7.wav,audio/Narrative7Situation7.wav,audio/Narrative6Situation7.wav,audio/Narrative5Situation7.wav,3,5,5,4,,,,,,,,,,,,,,,,,,,,,,,,,,,,,,,,,,,,,,,
,,,,,673ec935d1ab67f5acdd49e3,2025-07-07_23h34.50.421,group3.4_multiperson,2023.2.2,Win32,243.902439,686c2ebf0248f13bef9af11f,686c91c0148ebdd55a6f7adf,,,,,,,,,,,,,,,,,,,,,,,,,,,,,657.1301,1,audio/Narrative7Situation8.wav,659.1457,,659.1457,669.1791,"[[54.5,1082],[98.8,1650],[100,2016],[100,2349],[100,2699],[100,3015],[100,3349],[100,3682],[100,4015],[92.4,4436],[92.4,4767],[92.4,5099],[92.4,5434],[92.4,5767],[97.1,6166],[97.1,6500],[97.1,6833],[97.1,7168],[97.1,7500],[97.1,7833],[97.1,8166],[97.1,8500],[97.1,8833],[97.1,9167],[97.1,9500],[97.7,9834]]",669.1791,671.4611,100,1.2491,"[{""rating"":100,""responseTime"":1.2490999999641872}]",space,1.7338,,671.4613,Not at all,0,671.4629,,,[],,0,17,17,17,1,audio/Narrative8Situation8.wav,audio/Narrative7Situation8.wav,audio/Narrative6Situation8.wav,audio/Narrative5Situation8.wav,3,2,5,3,,,,,,,,,,,,,,,,,,,,,,,,,,,,,,,,,,,,,,,
,,,,,673ec935d1ab67f5acdd49e3,2025-07-07_23h34.50.421,group3.4_multiperson,2023.2.2,Win32,243.902439,686c2ebf0248f13bef9af11f,686c91c0148ebdd55a6f7adf,,,,,,,,,,,,,,,,,,,,,,,,,,,,,671.4631,1,audio/Narrative7Situation9.wav,673.4794,,673.4794,682.0944,"[[88.7,433],[88.7,767],[96.6,1132],[97.1,1466],[97.4,1799],[97.7,2135],[97.7,2466],[97.3,2816],[97.3,3167],[97.3,3483],[97.3,3815],[97.1,4148],[96.5,4484],[96.5,4815],[96.5,5151],[96.5,5481],[96.5,5815],[96.5,6149],[96.5,6481],[96.5,6815],[96.5,7148],[96.5,7481],[96.5,7814],[96.5,8148],[90.1,8514]]",682.0945,685.3277,100,2.2178,"[{""rating"":100,""responseTime"":2.217800000011948}]",space,2.6851,,685.3277,Definitely yes,100,685.3291,,,[],,0,18,18,18,1,audio/Narrative8Situation9.wav,audio/Narrative7Situation9.wav,audio/Narrative6Situation9.wav,audio/Narrative5Situation9.wav,3,2,4,3,,,,,,,,,,,,,,,,,,,,,,,,,,,,,,,,,,,,,,,
,,,,,673ec935d1ab67f5acdd49e3,2025-07-07_23h34.50.421,group3.4_multiperson,2023.2.2,Win32,243.902439,686c2ebf0248f13bef9af11f,686c91c0148ebdd55a6f7adf,,,,,,,,,,,,,,,,,,,,,,,,,,,689.4132,691.9943,692.0027,2,audio/Narrative13Situation2.wav,692.0028,,692.0028,721.7601,"[[57.5,2293],[57.5,2644],[54.3,3025],[54.2,3342],[54.2,3676],[55.9,4025],[50.9,4442],[45,4809],[43.9,5143],[17.8,5710],[15,6077],[15.8,6510],[50.9,7024],[50.4,7357],[50.3,7709],[86.5,8191],[96.3,8677],[99.6,9091],[100,9457],[100,9858],[100,10177],[100,10510],[100,10842],[100,11175],[100,11510],[100,11842],[100,12177],[98.8,13412],[100,13809],[100,14142],[100,14477],[100,14809],[100,15143],[100,15476],[100,15809],[100,16142],[100,16476],[100,16809],[100,17142],[100,17476],[100,17809],[100,18157],[100,18476],[100,18810],[100,19142],[53.1,19676],[51.1,20057],[50.9,20376],[50.9,20709],[52.5,21076],[51.4,21411],[47.9,21790],[47.6,22143],[73.1,22558],[84.2,22942],[84.3,23275],[84.3,23608],[84.3,23941],[84.3,24275],[84.3,24608],[84.3,24941],[84.2,25278],[82.9,25642],[82.3,25975],[91.8,26390],[98.8,26777],[100,27142],[100,27475],[100,27809],[100,28142],[100,28475],[100,28810],[100,29142],[100,29475]]",721.7602,721.7611,,,[],,,,721.7611,Partially,50,721.7624,,,[],,0,0,0,0,1,audio/Narrative13Situation2.wav,audio/Narrative13Situation2.wav,audio/Narrative13Situation2.wav,audio/Narrative13Situation2.wav,2,2,2,2,,,,,685.3295,689.4129,space,3.5517,,,,,,,,,,,,,,,,,,,,,,,,,,,,,,,
,,,,,673ec935d1ab67f5acdd49e3,2025-07-07_23h34.50.421,group3.4_multiperson,2023.2.2,Win32,243.902439,686c2ebf0248f13bef9af11f,686c91c0148ebdd55a6f7adf,,,,,,,,,,,,,,,,,,,,,,,,,,,,,721.7625,2,audio/Narrative6Situation1.wav,723.7795,,723.7795,750.3596,"[[85.9,1367],[63.9,1851],[50.7,2314],[50.7,2647],[50.4,2980],[50.4,3314],[53.2,3667],[65.9,4199],[67.3,4547],[73.1,4981],[74.8,5367],[81,5747],[85.1,6132],[85.4,6465],[85.7,6800],[57.6,7166],[41.1,7533],[48.1,7900],[54.8,8298],[52.9,8666],[84.2,9047],[100,9447],[100,9780],[100,10113],[100,10447],[100,10780],[100,11113],[100,11447],[100,11780],[100,12114],[100,12466],[100,12782],[100,13113],[100,13447],[100,13780],[96.8,14179],[96.8,14498],[96.8,14846],[96.8,15165],[62.6,15513],[45.3,15932],[26.2,16332],[48.6,16798],[48.6,17131],[25.3,17583],[3.4,18099],[46.2,22697],[47.3,23031],[50,23446],[50.1,23798],[50.1,24113],[50.1,24446],[50.1,24780],[55.3,25133],[96.2,25531],[100,25932],[100,26264]]",750.3597,753.793,99.90033048,1.8845,"[{""rating"":99.90033047974477,""responseTime"":1.8845000000000027}]",space,2.9013,,753.793,Partially,50,753.7939,,,[],,0,1,1,1,1,audio/Narrative7Situation1.wav,audio/Narrative8Situation1.wav,audio/Narrative5Situation1.wav,audio/Narrative6Situation1.wav,2,5,5,2,,,,,,,,,,,,,,,,,,,,,,,,,,,,,,,,,,,,,,,
,,,,,673ec935d1ab67f5acdd49e3,2025-07-07_23h34.50.421,group3.4_multiperson,2023.2.2,Win32,243.902439,686c2ebf0248f13bef9af11f,686c91c0148ebdd55a6f7adf,,,,,,,,,,,,,,,,,,,,,,,,,,,,,753.794,2,audio/Narrative6Situation2.wav,756.8119,,756.812,785.3455,"[[50.3,400],[52,732],[50,1080],[50,1414],[50.1,1747],[50.1,2080],[50.3,2414],[94.1,2835],[96.3,3180],[99.3,3547],[100,3899],[100,4247],[100,4565],[100,4900],[100,5247],[100,5580],[100,5899],[100,6247],[100,6565],[100,6899],[100,7231],[100,7569],[100,7900],[100,8246],[100,8566],[100,8900],[100,9247],[100,9565],[99.4,9899],[99.4,10232],[99.4,10565],[99.4,10899],[99.4,11233],[89.3,11700],[87.3,12047],[87.3,12380],[100,12780],[100,13099],[100,13433],[100,13765],[100,14099],[100,14465],[99.9,14780],[99.6,15165],[99.6,15481],[100,15813],[100,16148],[100,16480],[100,16813],[100,17147],[100,17499],[100,17832],[100,18166],[100,18498],[100,18832],[100,19165],[100,19499],[100,19834],[100,20165],[100,20499],[100,20836],[100,21166],[100,21499],[100,21832],[100,22165],[100,22498],[100,22832],[100,23165],[100,23498],[100,23833],[100,24166],[100,24502],[100,24833],[100,25200],[100,25532],[100,25866],[100,26199],[100,26531],[100,26880],[100,27199],[100,27546],[100,27879],[100,28232]]",785.3456,787.5922,99.74425433,0.8463,"[{""rating"":99.74425432900796,""responseTime"":0.8462999999522935}]",space,1.6858,,787.5923,Partially,50,787.5932,,,[],,0,2,2,2,1,audio/Narrative7Situation2.wav,audio/Narrative8Situation2.wav,audio/Narrative5Situation2.wav,audio/Narrative6Situation2.wav,3,3,3,3,,,,,,,,,,,,,,,,,,,,,,,,,,,,,,,,,,,,,,,
,,,,,673ec935d1ab67f5acdd49e3,2025-07-07_23h34.50.421,group3.4_multiperson,2023.2.2,Win32,243.902439,686c2ebf0248f13bef9af11f,686c91c0148ebdd55a6f7adf,,,,,,,,,,,,,,,,,,,,,,,,,,,,,787.5933,2,audio/Narrative6Situation3.wav,792.6107,,792.6108,805.2107,"[[86.5,1034],[94.8,1400],[100,1814],[100,2183],[100,2514],[100,2847],[100,3181],[100,3514],[100,3847],[100,4182],[100,4514],[100,4847],[100,5181],[100,5514],[100,5847],[100,6181],[100,6514],[100,6881],[100,7201],[100,7533],[100,7866],[100,8200],[100,8533],[100,8866],[100,9200],[100,9533],[100,9866],[100,10199],[100,10534],[100,10866],[100,11214],[100,11533],[100,11866],[100,12200],[100,12533]]",805.2108,810.8586,100,3.8333,"[{""rating"":100,""responseTime"":3.8333000000119455}]",space,5.1196,,810.8586,Not at all,0,810.8602,,,[],,0,3,3,3,1,audio/Narrative7Situation3.wav,audio/Narrative8Situation3.wav,audio/Narrative5Situation3.wav,audio/Narrative6Situation3.wav,8,4,3,5,,,,,,,,,,,,,,,,,,,,,,,,,,,,,,,,,,,,,,,
,,,,,673ec935d1ab67f5acdd49e3,2025-07-07_23h34.50.421,group3.4_multiperson,2023.2.2,Win32,243.902439,686c2ebf0248f13bef9af11f,686c91c0148ebdd55a6f7adf,,,,,,,,,,,,,,,,,,,,,,,,,,,,,810.8603,2,audio/Narrative6Situation4.wav,812.8621,,812.8621,825.4774,"[[999,0],[999,463],[999,829],[999,1162],[999,1496],[999,1829],[999,2162],[999,2496],[999,2848],[999,3182],[999,3514],[999,3884],[999,4215],[999,4548],[999,4882],[999,5215],[999,5597],[77.7,6016],[100,6482],[100,6848],[100,7182],[100,7514],[100,7848],[100,8181],[100,8516],[100,8848],[100,9184],[100,9516],[92.3,9929],[94.9,10263],[100,10664],[100,11029],[100,11362],[100,11696],[100,12029],[100,12381]]",825.4775,827.658,99.74425433,1.0327,"[{""rating"":99.74425432900796,""responseTime"":1.0327000000477256}]",space,1.6337,,827.6581,Not at all,0,827.6589,,,[],,0,4,4,4,1,audio/Narrative7Situation4.wav,audio/Narrative8Situation4.wav,audio/Narrative5Situation4.wav,audio/Narrative6Situation4.wav,3,3,1,2,,,,,,,,,,,,,,,,,,,,,,,,,,,,,,,,,,,,,,,
,,,,,673ec935d1ab67f5acdd49e3,2025-07-07_23h34.50.421,group3.4_multiperson,2023.2.2,Win32,243.902439,686c2ebf0248f13bef9af11f,686c91c0148ebdd55a6f7adf,,,,,,,,,,,,,,,,,,,,,,,,,,,,,827.659,2,audio/Narrative6Situation5.wav,829.6772,,829.6772,837.6579,"[[98.8,2680],[97.7,3033],[97.7,3367],[98,3699],[100,4099],[100,4433],[100,4766],[100,5101],[100,5434],[100,5766],[100,6100],[100,6433],[100,6766],[100,7100],[100,7432],[100,7766]]",837.6581,840.6912,100,2.0185,"[{""rating"":100,""responseTime"":2.0185000000000173}]",space,2.486,,840.6913,Not at all,0,840.6922,,,[],,0,5,5,5,1,audio/Narrative7Situation5.wav,audio/Narrative8Situation5.wav,audio/Narrative5Situation5.wav,audio/Narrative6Situation5.wav,5,2,5,2,,,,,,,,,,,,,,,,,,,,,,,,,,,,,,,,,,,,,,,
,,,,,673ec935d1ab67f5acdd49e3,2025-07-07_23h34.50.421,group3.4_multiperson,2023.2.2,Win32,243.902439,686c2ebf0248f13bef9af11f,686c91c0148ebdd55a6f7adf,,,,,,,,,,,,,,,,,,,,,,,,,,,,,840.6924,2,audio/Narrative6Situation6.wav,842.7102,,842.7102,853.7909,"[[100,333],[100,668],[96.2,1047],[99.6,1414],[100,1733],[100,2067],[100,2399],[100,2733],[100,3067],[100,3399],[100,3733],[99.9,4081],[99.9,4414],[99.9,4747],[99.9,5080],[99.9,5414],[99.9,5747],[100,6081],[100,6447],[100,6800],[100,7134],[100,7466],[100,7813],[100,8134],[100,8468],[100,8800],[100,9147],[100,9466],[100,9800],[100,10133],[100,10467],[100,10800]]",853.791,856.0911,99.58814474,1.2198,"[{""rating"":99.58814473815886,""responseTime"":1.2198000000120146}]",space,1.7669,,856.0911,Partially,50,856.0926,,,[],,0,6,6,6,1,audio/Narrative7Situation6.wav,audio/Narrative8Situation6.wav,audio/Narrative5Situation6.wav,audio/Narrative6Situation6.wav,3,2,3,2,,,,,,,,,,,,,,,,,,,,,,,,,,,,,,,,,,,,,,,
,,,,,673ec935d1ab67f5acdd49e3,2025-07-07_23h34.50.421,group3.4_multiperson,2023.2.2,Win32,243.902439,686c2ebf0248f13bef9af11f,686c91c0148ebdd55a6f7adf,,,,,,,,,,,,,,,,,,,,,,,,,,,,,856.0927,2,audio/Narrative6Situation7.wav,861.1101,,861.1102,885.9571,"[[98.7,1004],[100,1367],[100,1700],[100,2032],[100,2366],[100,2700],[100,3033],[100,3368],[100,3700],[100,4033],[100,4366],[100,4700],[98,5047],[47.6,5499],[47.5,5813],[47.9,6166],[48.6,6513],[5.9,6880],[5.9,7213],[2.2,7580],[41.5,7966],[64.2,8369],[100,8780],[100,9113],[100,9447],[100,9780],[100,10113],[100,10447],[100,10780],[100,11113],[100,11465],[100,11780],[100,12113],[100,12447],[100,12780],[100,13115],[100,13446],[100,13780],[100,14113],[100,14446],[100,14780],[100,15113],[100,15446],[100,15780],[100,16113],[100,16466],[100,16780],[100,17132],[100,17465],[100,17782],[100,18113],[100,18447],[100,18780],[100,19113],[100,19446],[100,19779],[100,20113],[100,20446],[100,20780],[100,21113],[100,21447],[100,21779],[100,22113],[100,22446],[100,22780],[100,23113],[100,23447],[100,23779],[100,24113],[100,24449],[100,24781]]",885.9572,890.4902,100,2.2854,"[{""rating"":100,""responseTime"":2.285400000035679}]",space,3.9872,,890.4902,Not at all,0,890.4918,,,[],,0,7,7,7,1,audio/Narrative7Situation7.wav,audio/Narrative8Situation7.wav,audio/Narrative5Situation7.wav,audio/Narrative6Situation7.wav,5,3,4,5,,,,,,,,,,,,,,,,,,,,,,,,,,,,,,,,,,,,,,,
,,,,,673ec935d1ab67f5acdd49e3,2025-07-07_23h34.50.421,group3.4_multiperson,2023.2.2,Win32,243.902439,686c2ebf0248f13bef9af11f,686c91c0148ebdd55a6f7adf,,,,,,,,,,,,,,,,,,,,,,,,,,,,,890.492,2,audio/Narrative6Situation8.wav,895.5099,,895.5099,902.3767,"[[999,0],[999,333],[999,666],[999,1013],[999,1333],[999,1666],[999,2134],[90.4,2602],[100,3033],[100,3367],[100,3700],[50.9,4270],[49.7,4700],[50.1,5031],[50.3,5364],[50.3,5713],[50.3,6032],[50.3,6366],[50.3,6699]]",902.3767,920.5759,49.7948032,17.0321,"[{""rating"":49.95090164030288,""responseTime"":3.6990999999642327},{""rating"":0,""responseTime"":11.198999999999955},{""rating"":50.41917467932973,""responseTime"":16.365399999976148},{""rating"":49.794803196157865,""responseTime"":17.032099999964203}]",space,17.653,,920.576,Not at all,0,920.577,,,[],,0,8,8,8,1,audio/Narrative7Situation8.wav,audio/Narrative8Situation8.wav,audio/Narrative5Situation8.wav,audio/Narrative6Situation8.wav,2,3,3,5,,,,,,,,,,,,,,,,,,,,,,,,,,,,,,,,,,,,,,,
,,,,,673ec935d1ab67f5acdd49e3,2025-07-07_23h34.50.421,group3.4_multiperson,2023.2.2,Win32,243.902439,686c2ebf0248f13bef9af11f,686c91c0148ebdd55a6f7adf,,,,,,,,,,,,,,,,,,,,,,,,,,,,,920.5771,2,audio/Narrative6Situation9.wav,924.5894,,924.5894,934.5603,"[[50,1086],[53.2,1466],[51.7,1833],[92.9,2266],[98.2,2633],[99.9,2986],[99.9,3299],[99.9,3633],[99.9,3966],[99.9,4299],[99.9,4633],[99.9,4966],[99.9,5299],[92.4,5720],[85.4,6151],[52.5,7188],[52.9,7566],[51.4,7922],[51.4,8253],[51.4,8586],[51.4,8919],[51.4,9252],[14.1,9687]]",934.5603,937.4558,0,1.2829,"[{""rating"":0,""responseTime"":1.2829000000357382}]",space,2.3337,,937.4558,Not at all,0,937.4566,,,[],,0,9,9,9,1,audio/Narrative7Situation9.wav,audio/Narrative8Situation9.wav,audio/Narrative5Situation9.wav,audio/Narrative6Situation9.wav,2,3,3,4,,,,,,,,,,,,,,,,,,,,,,,,,,,,,,,,,,,,,,,
,,,,,673ec935d1ab67f5acdd49e3,2025-07-07_23h34.50.421,group3.4_multiperson,2023.2.2,Win32,243.902439,686c2ebf0248f13bef9af11f,686c91c0148ebdd55a6f7adf,,,,,,,,,,,,,,,,,,,,,,,,,,,,,937.4568,2,audio/Narrative5Situation1.wav,942.4764,,942.4765,955.7554,"[[41.4,697],[50,1079],[57.3,1534],[73.8,2046],[96.2,2635],[89.8,3033],[77.4,3432],[76.2,3779],[76.2,4112],[75.4,4446],[48.2,4879],[48.4,5232],[49.8,5546],[49.8,5879],[18.4,6380],[4.4,6812],[4.2,7145],[3.9,7479],[0.3,7866],[0.3,8199],[0.3,8530],[0.3,8865],[0.3,9199],[0.3,9532],[0.3,9866],[0.3,10199],[44.8,10612],[50.9,10999],[51.1,11332],[50.3,11712],[50,12045],[50,12398],[50,12712],[50,13045]]",955.7556,961.322,49.6387159,4.2199,"[{""rating"":49.63871589871696,""responseTime"":4.219899999976178}]",space,5.0208,,961.3221,Partially,50,961.3236,,,[],,0,10,10,10,1,audio/Narrative8Situation1.wav,audio/Narrative7Situation1.wav,audio/Narrative6Situation1.wav,audio/Narrative5Situation1.wav,5,2,2,5,,,,,,,,,,,,,,,,,,,,,,,,,,,,,,,,,,,,,,,
,,,,,673ec935d1ab67f5acdd49e3,2025-07-07_23h34.50.421,group3.4_multiperson,2023.2.2,Win32,243.902439,686c2ebf0248f13bef9af11f,686c91c0148ebdd55a6f7adf,,,,,,,,,,,,,,,,,,,,,,,,,,,,,961.3238,2,audio/Narrative5Situation2.wav,964.3552,,964.3553,993.8738,"[[999,0],[999,320],[50.1,720],[50.4,1053],[50,1399],[50,1735],[50,2066],[50,2399],[50,2733],[50,3066],[50,3419],[50,3733],[54.2,4100],[65.7,4621],[72.1,5066],[75.4,5433],[85.2,5919],[87.7,6253],[89.1,6599],[91,6950],[95.9,7336],[100,7766],[100,8099],[100,8433],[100,8766],[100,9099],[100,9432],[100,9766],[100,10099],[100,10433],[100,10766],[100,11099],[100,11433],[100,11770],[100,12119],[100,12432],[100,12766],[100,13119],[100,13432],[100,13766],[100,14101],[100,14433],[100,14766],[100,15099],[100,15433],[100,15766],[100,16099],[100,16433],[100,16766],[100,17099],[100,17433],[100,17766],[100,18099],[100,18433],[100,18766],[100,19099],[100,19432],[100,19766],[100,20099],[100,20432],[100,20766],[100,21099],[100,21432],[100,21766],[100,22099],[100,22432],[100,22766],[100,23099],[100,23432],[100,23766],[100,24099],[100,24432],[100,24765],[100,25132],[100,25453],[100,25786],[100,26119],[100,26466],[100,26786],[100,27119],[100,27453],[100,27786],[100,28116],[100,28453],[100,28786],[87.9,29186]]",993.8739,995.988,100,1.801,"[{""rating"":100,""responseTime"":1.03420000004769},{""rating"":100,""responseTime"":1.8009999999999309}]",space,1.5538,,995.988,Not at all,0,995.9894,,,[],,0,11,11,11,1,audio/Narrative8Situation2.wav,audio/Narrative7Situation2.wav,audio/Narrative6Situation2.wav,audio/Narrative5Situation2.wav,3,3,3,3,,,,,,,,,,,,,,,,,,,,,,,,,,,,,,,,,,,,,,,
,,,,,673ec935d1ab67f5acdd49e3,2025-07-07_23h34.50.421,group3.4_multiperson,2023.2.2,Win32,243.902439,686c2ebf0248f13bef9af11f,686c91c0148ebdd55a6f7adf,,,,,,,,,,,,,,,,,,,,,,,,,,,,,995.9895,2,audio/Narrative5Situation3.wav,999.0211,,999.0211,1012.9209,"[[80.2,700],[85.2,1066],[96,1466],[100,1853],[98.4,2221],[98.4,2554],[64.5,2934],[51.1,3318],[51.1,3654],[87.3,4153],[96.3,4533],[99.6,4887],[100,5233],[100,5603],[100,5933],[100,6287],[100,6617],[100,6954],[100,7287],[100,7620],[100,7953],[100,8286],[100,8620],[100,8953],[100,9287],[100,9620],[100,9953],[100,10287],[100,10620],[100,10966],[100,11287],[100,11618],[100,11954],[100,12287],[100,12620],[100,12953],[100,13286],[100,13620]]",1012.9211,1017.0541,100,2.2863,"[{""rating"":100,""responseTime"":2.2863000000118063}]",space,3.6001,,1017.0541,Not at all,0,1017.055,,,[],,0,12,12,12,1,audio/Narrative8Situation3.wav,audio/Narrative7Situation3.wav,audio/Narrative6Situation3.wav,audio/Narrative5Situation3.wav,4,8,5,3,,,,,,,,,,,,,,,,,,,,,,,,,,,,,,,,,,,,,,,
,,,,,673ec935d1ab67f5acdd49e3,2025-07-07_23h34.50.421,group3.4_multiperson,2023.2.2,Win32,243.902439,686c2ebf0248f13bef9af11f,686c91c0148ebdd55a6f7adf,,,,,,,,,,,,,,,,,,,,,,,,,,,,,1017.0551,2,audio/Narrative5Situation4.wav,1018.0879,,1018.0879,1038.4872,"[[100,720],[100,1050],[100,1453],[100,1784],[100,2120],[100,2451],[100,2785],[100,3118],[100,3453],[100,3786],[100,4120],[100,4465],[100,4786],[100,5120],[100,5453],[100,5786],[100,6120],[100,6450],[100,6799],[100,7132],[100,7466],[100,7799],[100,8132],[100,8466],[100,8799],[100,9132],[100,9465],[100,9799],[100,10132],[100,10466],[100,10799],[100,11133],[100,11466],[100,11799],[100,12132],[100,12470],[100,12799],[100,13133],[100,13466],[100,13799],[100,14132],[100,14465],[100,14799],[100,15132],[100,15465],[100,15799],[100,16132],[100,16465],[100,16799],[100,17132],[100,17465],[100,17799],[100,18133],[100,18467],[100,18799],[100,19152],[100,19465],[100,19799],[100,20132]]",1038.4872,1041.2871,100,1.4996,"[{""rating"":100,""responseTime"":1.4996000000239746}]",space,2.2532,,1041.2871,Partially,50,1041.2885,,,[],,0,13,13,13,1,audio/Narrative8Situation4.wav,audio/Narrative7Situation4.wav,audio/Narrative6Situation4.wav,audio/Narrative5Situation4.wav,3,3,2,1,,,,,,,,,,,,,,,,,,,,,,,,,,,,,,,,,,,,,,,
,,,,,673ec935d1ab67f5acdd49e3,2025-07-07_23h34.50.421,group3.4_multiperson,2023.2.2,Win32,243.902439,686c2ebf0248f13bef9af11f,686c91c0148ebdd55a6f7adf,,,,,,,,,,,,,,,,,,,,,,,,,,,,,1041.2887,2,audio/Narrative5Situation5.wav,1046.3077,,1046.3077,1061.72,"[[100,346],[100,679],[91.2,1067],[91.2,1399],[100,1779],[44.7,2212],[21.9,2613],[5,3481],[9.1,3845]]",1061.7201,1064.0865,0,1.9662,"[{""rating"":0,""responseTime"":1.9661999999880209}]",space,1.835,,1064.0865,Partially,50,1064.0875,,,[],,0,14,14,14,1,audio/Narrative8Situation5.wav,audio/Narrative7Situation5.wav,audio/Narrative6Situation5.wav,audio/Narrative5Situation5.wav,2,5,2,5,,,,,,,,,,,,,,,,,,,,,,,,,,,,,,,,,,,,,,,
,,,,,673ec935d1ab67f5acdd49e3,2025-07-07_23h34.50.421,group3.4_multiperson,2023.2.2,Win32,243.902439,686c2ebf0248f13bef9af11f,686c91c0148ebdd55a6f7adf,,,,,,,,,,,,,,,,,,,,,,,,,,,,,1064.0877,2,audio/Narrative5Situation6.wav,1067.1071,,1067.1071,1072.7744,"[[13.6,713],[14.7,1050],[20.6,1413],[42.2,2001],[48.7,2467],[49.2,2799],[50,3133],[50.3,3466],[50,3830],[50,4145],[50,4479],[50,4812],[50,5145],[50,5479]]",1072.7744,1078.087,50.26307624,2.8965,"[{""rating"":49.95090164030288,""responseTime"":0.7991000000238273},{""rating"":50.263076235184734,""responseTime"":2.89650000000006}]",space,4.7654,,1078.087,Definitely yes,100,1078.0886,,,[],,0,15,15,15,1,audio/Narrative8Situation6.wav,audio/Narrative7Situation6.wav,audio/Narrative6Situation6.wav,audio/Narrative5Situation6.wav,2,3,2,3,,,,,,,,,,,,,,,,,,,,,,,,,,,,,,,,,,,,,,,
,,,,,673ec935d1ab67f5acdd49e3,2025-07-07_23h34.50.421,group3.4_multiperson,2023.2.2,Win32,243.902439,686c2ebf0248f13bef9af11f,686c91c0148ebdd55a6f7adf,,,,,,,,,,,,,,,,,,,,,,,,,,,,,1078.0887,2,audio/Narrative5Situation7.wav,1082.1045,,1082.1046,1103.1858,"[[50.3,1368],[50.3,1698],[50.3,2032],[50.3,2368],[84.3,3269],[89.1,3648],[92.1,4014],[96,4349],[97.4,4683],[98.2,5014],[100,5432],[100,5748],[100,6081],[100,6432],[100,6748],[100,7081],[100,7415],[100,7748],[100,8081],[100,8414],[100,8764],[100,9081],[100,9414],[100,9748],[100,10081],[100,10414],[100,10747],[100,11081],[100,11414],[100,11747],[100,12098],[100,12414],[100,12747],[100,13099],[100,13414],[100,13748],[100,14081],[100,14414],[100,14768],[100,15081],[100,15432],[100,15747],[100,16081],[100,16414],[100,16747],[100,17081],[100,17414],[100,17747],[100,18081],[100,18414],[100,18765],[100,19081],[100,19414],[100,19747],[100,20081],[100,20448],[100,20782]]",1103.1858,1105.9524,100,2.5336,"[{""rating"":100,""responseTime"":2.533599999964281}]",space,2.2335,,1105.9525,Not at all,0,1105.9539,,,[],,0,16,16,16,1,audio/Narrative8Situation7.wav,audio/Narrative7Situation7.wav,audio/Narrative6Situation7.wav,audio/Narrative5Situation7.wav,3,5,5,4,,,,,,,,,,,,,,,,,,,,,,,,,,,,,,,,,,,,,,,
,,,,,673ec935d1ab67f5acdd49e3,2025-07-07_23h34.50.421,group3.4_multiperson,2023.2.2,Win32,243.902439,686c2ebf0248f13bef9af11f,686c91c0148ebdd55a6f7adf,,,,,,,,,,,,,,,,,,,,,,,,,,,,,1105.954,2,audio/Narrative5Situation8.wav,1108.9708,,1108.9709,1117.803,"[[84.8,3132],[84.8,3447],[51.8,3998],[50.7,4333],[51.5,4681],[66.8,5098],[69.9,5464],[97.4,5898],[97.9,6215],[100,6581],[100,6914],[100,7247],[100,7583],[100,7914],[100,8247],[100,8581]]",1117.8031,1120.0188,100,1.9655,"[{""rating"":100,""responseTime"":1.96550000000002}]",space,1.6839,,1120.0188,Definitely yes,100,1120.0203,,,[],,0,17,17,17,1,audio/Narrative8Situation8.wav,audio/Narrative7Situation8.wav,audio/Narrative6Situation8.wav,audio/Narrative5Situation8.wav,3,2,5,3,,,,,,,,,,,,,,,,,,,,,,,,,,,,,,,,,,,,,,,
,,,,,673ec935d1ab67f5acdd49e3,2025-07-07_23h34.50.421,group3.4_multiperson,2023.2.2,Win32,243.902439,686c2ebf0248f13bef9af11f,686c91c0148ebdd55a6f7adf,,,,,,,,,,,,,,,,,,,,,,,,,,,,,1120.0205,2,audio/Narrative5Situation9.wav,1123.0359,,1123.0359,1162.5844,"[[97.6,334],[98.2,666],[98.2,999],[98.2,1333],[82.6,1816],[82.1,2166],[82.1,2499],[82.1,2849],[82.1,3166],[100,3549],[100,3882],[100,4215],[100,4549],[100,4882],[100,5215],[100,5549],[100,5882],[100,6215],[100,6549],[100,6882],[100,7215],[100,7550],[100,7882],[100,8215],[100,8549],[100,8882],[100,9215],[100,9549],[100,9882],[100,10215],[100,10549],[100,10882],[100,11215],[100,11565],[100,11882],[100,12215],[100,12549],[100,12882],[100,13215],[100,13549],[100,13882],[100,14215],[100,14551],[100,14882],[100,15215],[100,15549],[100,15882],[100,16215],[100,16548],[100,16882],[100,17215],[100,17549],[100,17882],[100,18216],[100,18548],[100,18882],[100,19215],[100,19548],[100,19899],[100,20215],[99.6,20599],[99.6,20932],[99.6,21265],[99.6,21599],[99.6,21933],[99.6,22266],[99,22599],[99.3,22932],[99.3,23265],[99.3,23598],[99.3,23932],[99.3,24265],[99.3,24598],[99.3,24932],[99.3,25266],[99.3,25599],[99.3,25932],[99.3,26265],[99.3,26599],[99.3,26932],[99.1,27266],[99.1,27598],[99.1,27932],[100,28316],[100,28648],[100,28982],[100,29315],[100,29648],[100,29982],[100,30315],[100,30648],[100,30982],[100,31314],[100,31682],[100,32032],[100,32348],[100,32682],[100,33015],[100,33348],[100,33682],[100,34015],[100,34348],[100,34682],[100,35015],[100,35349],[100,35682],[100,36015],[100,36348],[100,36682],[100,37015],[100,37348],[100,37681],[100,38015],[100,38348],[100,38682],[100,39015],[100,39348]]",1162.5845,1170.2176,100,2.6328,"[{""rating"":99.58814473815886,""responseTime"":1.7164999999999964},{""rating"":100,""responseTime"":2.632800000011912}]",space,7.0999,,1170.2177,Not at all,0,1176.5345,0,4.8159,"[{""rating"":0,""responseTime"":3.4990999999640735},{""rating"":0,""responseTime"":4.815899999975954}]",space,0,18,18,18,1,audio/Narrative8Situation9.wav,audio/Narrative7Situation9.wav,audio/Narrative6Situation9.wav,audio/Narrative5Situation9.wav,3,2,4,3,,,5.7669,,,,,,,,,,,,,,,,,,,,,,,,,,,,,,,,,,,,
,,,,,673ec935d1ab67f5acdd49e3,2025-07-07_23h34.50.421,group3.4_multiperson,2023.2.2,Win32,243.902439,686c2ebf0248f13bef9af11f,686c91c0148ebdd55a6f7adf,,,,,,,,,,,,,,,,,,,,,,,,,,,,,,,,,,,,,,,,,,,,,,,,,,,,,,,,,,,,,,,,,,,,,,1176.5347,1178.6343,space,1.5668,,1178.6345,1195.6677,space,16.7165,,,,,,,,,,,,,,,,,,,,,,,,,,
,,,,,673ec935d1ab67f5acdd49e3,2025-07-07_23h34.50.421,group3.4_multiperson,2023.2.2,Win32,243.902439,686c2ebf0248f13bef9af11f,686c91c0148ebdd55a6f7adf,,,,,,,,,,,,,,,,,,,,,,,,,,,,,1198.2576,1,audio/Narrative7Situation9.wav,1200.2673,,,,,1232.1336,1234.55,100,1.2825,"[{""rating"":100,""responseTime"":1.2825000000000273}]",space,1.867,,1234.55,Not at all,0,1234.5509,,,[],,,,,,,,,,,2,2,2,2,,,,,,,,,,,,,,,1195.6691,1198.2506,1200.2675,3,1232.1336,"[[65.6,2000],[66.4,2349],[66.4,2682],[66.4,3016],[64.8,3367],[61,3732],[61,4066],[61,4399],[61,4732],[61,5066],[61,5399],[61,5732],[61,6066],[61,6399],[61,6749],[61,7082],[61,7399],[61,7733],[61,8082],[61,8402],[82.7,8852],[79.8,9236],[54.2,9699],[52.5,10083],[52,10416],[52,10749],[52,11083],[52,11415],[52,11749],[52,12082],[52,12415],[52,12749],[52,13082],[52,13432],[52,13749],[52,14082],[52,14432],[52,14749],[52,15083],[51.8,15417],[52.1,15765],[52.1,16082],[52.1,16416],[52.1,16766],[52.1,17082],[52.1,17416],[52.1,17749],[52.1,18082],[52.1,18415],[52.1,18765],[52.1,19082],[52.1,19415],[52.1,19749],[52.1,20084],[52.1,20415],[52.1,20765],[52.1,21098],[52.1,21416],[52.1,21749],[52.1,22082],[52.1,22416],[52.1,22749],[52.1,23082],[52.1,23416],[52.1,23765],[52.1,24082],[52.1,24432],[52.1,24749],[52.1,25082],[52.1,25415],[52.1,25752],[52.1,26082],[52.1,26432],[52.1,26749],[52.1,27082],[52.1,27416],[52.1,27749],[52.1,28082],[52.1,28415],[52.1,28749],[52.1,29098],[52.1,29416],[52.1,29749],[52.1,30085],[52.1,30415],[54.5,30816],[98.8,31199],[98,31616]]",0,0,0,0,1,"Larry had recently lost his family, job and home, and was now living on his own in the park. He had most of his belongings, including some clothes, a blanket, and his mother’s special necklace. His family had been very important to him and he felt as though he did not have much going for him. One of his first days in the park he came across a family that did not have much food and looked very cold. He decided to give them some of his food and his blanket.","Larry had recently lost his family, job and home, and was now living on his own in the park. He had most of his belongings, including some clothes, a blanket, and his mother’s special necklace. His family had been very important to him and he felt as though he did not have much going for him. One of his first days in the park he came across a family that did not have much food and looked very cold. He decided to give them some of his food and his blanket.","Larry had recently lost his family, job and home, and was now living on his own in the park. He had most of his belongings, including some clothes, a blanket, and his mother’s special necklace. His family had been very important to him and he felt as though he did not have much going for him. One of his first days in the park he came across a family that did not have much food and looked very cold. He decided to give them some of his food and his blanket.","Larry had recently lost his family, job and home, and was now living on his own in the park. He had most of his belongings, including some clothes, a blanket, and his mother’s special necklace. His family had been very important to him and he felt as though he did not have much going for him. One of his first days in the park he came across a family that did not have much food and looked very cold. He decided to give them some of his food and his blanket.",,,,,,,,,,
,,,,,673ec935d1ab67f5acdd49e3,2025-07-07_23h34.50.421,group3.4_multiperson,2023.2.2,Win32,243.902439,686c2ebf0248f13bef9af11f,686c91c0148ebdd55a6f7adf,,,,,,,,,,,,,,,,,,,,,,,,,,,,,1234.5511,1,audio/Narrative7Situation9.wav,1241.984,space,,,,1265.8824,1269.5328,0,1.3004,"[{""rating"":0,""responseTime"":1.3003999999762073}]",space,3.1003,,1269.5329,Definitely yes,100,1269.5348,,,[],,,,,,,,,,,6,2,3,9,7.4004,,,,,,,,,,,,,,,,1241.9841,3,1265.8823,"[[47.5,3684],[46.1,4049],[46.1,4382],[46.1,4715],[46.2,5049],[46.2,5382],[46.2,5715],[55.6,6132],[5.9,6583],[3,23714]]",0,1,1,1,1,"It was just another Sunday afternoon for Lucy, she was on her way to the farmer's market to pick up some produce. When she arrived at the old train depot that housed the market, she noticed two men fighting on the steps. Before she could call for help, one of the men crumpled to his knees. The other man dropped an object that appeared to be a knife and ran off. When Lucy approached the crime scene she realized that the man who had been murdered was the Mayor and that he had a gunshot wound.","One day at work, Margaret walked up to her partner, Al, to ask him to talk to the chief of staff at the local hospital where she worked as a nurse.","Luke always thought of himself as an honest man. That's why during his evening jog around the swamp, he pondered his recent affair with the receptionist at work. Luke looked up at the sky and asked God why he was so weak and unfaithful. He thought of the impact this would have on his family and told God of his conflicted feelings toward telling his wife Marta.","Linda and Amy had been best friends since kindergarten, they even found homes on the same street in the forest on the edge of town. Their biggest fight had been over who gets the bigger slice of cake, until Amy married Dan. Linda loathed Dan, she thought he was manipulative and had a violent temper. She only put up with him because Amy loved him. ",,,,,,,,,,
,,,,,673ec935d1ab67f5acdd49e3,2025-07-07_23h34.50.421,group3.4_multiperson,2023.2.2,Win32,243.902439,686c2ebf0248f13bef9af11f,686c91c0148ebdd55a6f7adf,,,,,,,,,,,,,,,,,,,,,,,,,,,,,1269.5349,1,audio/Narrative7Situation9.wav,1274.5492,,,,,1300.7486,1303.2982,100,1.9498,"[{""rating"":100,""responseTime"":1.949800000011919}]",space,2.0002,,1303.2982,Partially,50,1303.2998,,,[],,,,,,,,,,,4,5,2,2,,,,,,,,,,,,,,,,,1274.5493,3,1300.7485,"[[0.3,1033],[0.3,1352],[0.5,1700],[39.8,2149],[41.1,2516],[42.3,2866],[42.3,3199],[42.3,3549],[42.3,3866],[42.3,4201],[42.3,4548],[59.3,4966],[87.7,5433],[87.7,5769],[100,6267],[100,6717],[100,7033],[100,7366],[100,7715],[100,8032],[100,8366],[100,8699],[100,9033],[100,9366],[100,9699],[100,10049],[100,10366],[100,10715],[100,11032],[100,11366],[100,11715],[100,12032],[100,12366],[100,12701],[100,13032],[100,13382],[100,13699],[100,14032],[100,14366],[100,14715],[100,15032],[100,15382],[100,15699],[100,16049],[100,16365],[100,16715],[100,17032],[100,17365],[100,17699],[100,18032],[100,18365],[100,18699],[100,19049],[100,19365],[100,19699],[100,20049],[100,20365],[100,20699],[100,21035],[100,21365],[100,21699],[100,22032],[100,22366],[100,22699],[100,23032],[100,23382],[100,23699],[100,24032],[100,24382],[100,24700],[100,25032],[100,25366],[100,25699],[100,26032]]",0,2,2,2,1,On the ground beside him was a pen that she had mistaken for a knife. Lucy looked for the gunman and saw a suspicious man in black with distinct pointy features darting into an alley across the street. Cops who were nearby chased the man who had fled and arrested him.,"While waiting outside the chief of staff's office, Al heard nondescript shouting and yelling, there was a loud clatter in the room and then an eerie silence. An unfamiliar employee ran hastily out of the office with a terrified look on their face.","Suddenly, Luke heard a woman call out his name and when he turned around he saw Carly, his receptionist, across the road with a gun in her hand. Carly ran to him and explained how she had followed him here to confess her love. She exclaimed if Luke didn't love her back that she would kill him and his family. Carly explained that the only way they could be together is to kill Marta.","This feeling of hate between Amy and Dan was mutual, Dan didn't like how much time his wife spent with her and thought Amy was creating distance between their marriage. That's why Dan decided to try and tarnish Linda's reputation with his wife, in hopes it would get rid of her. He came home one afternoon and exclaimed that Linda had tried to kiss him. Amy was taken aback and immediately called Linda to confront her about these accusations. When Linda arrived she denied having made a move on Dan, but discovered Dan had enlisted the help of his friend Will who said he witnessed it all happen.",,,,,,,,,,
,,,,,673ec935d1ab67f5acdd49e3,2025-07-07_23h34.50.421,group3.4_multiperson,2023.2.2,Win32,243.902439,686c2ebf0248f13bef9af11f,686c91c0148ebdd55a6f7adf,,,,,,,,,,,,,,,,,,,,,,,,,,,,,1303.3,1,audio/Narrative7Situation9.wav,1305.315,,,,,1327.8313,1330.7143,100,1.8327,"[{""rating"":100,""responseTime"":1.8326999999881082}]",space,2.3499,,1330.7143,Partially,50,1330.7152,,,[],,,,,,,,,,,2,2,1,4,,,,,,,,,,,,,,,,,1305.315,3,1327.8312,"[[100,333],[100,666],[100,1016],[100,1416],[100,1733],[100,2066],[100,2399],[100,2733],[100,3066],[100,3416],[100,3749],[100,4066],[100,4416],[100,4749],[100,5066],[100,5400],[100,5733],[100,6082],[51.7,6468],[50.7,6816],[50.7,7149],[93.8,7635],[100,7999],[100,8400],[100,8732],[100,9066],[100,9399],[100,9749],[100,10084],[100,10416],[100,10766],[100,11083],[100,11416],[100,11749],[100,12082],[100,12416],[100,12753],[100,13083],[100,13416],[100,13766],[100,14082],[100,14417],[100,14766],[100,15083],[100,15432],[100,15750],[100,16083],[100,16416],[100,16749],[100,17082],[100,17416],[100,17749],[100,18082],[100,18416],[100,18750],[100,19082],[100,19416],[100,19749],[100,20082],[100,20416],[100,20749],[100,21083],[100,21416],[100,21749],[100,22082],[100,22416]]",0,3,3,3,1,"But Lucy knew the charged man was innocent, which meant the killer was free. Lucy vowed to find out who the real murderer was and to stop him at all costs.","Al explained to the chief of staff that Margaret wanted to be excused from her absences last week. The chief of staff, Susan, revealed that she wanted to fire Margaret and never see her again. Susan and Al had been having an affair and she wanted Margaret ""out of the picture"". Al was conflicted, but agreed it would be for the best.","Luke thought of his child and felt like this was his only option. He agreed to the plan and called his wife to meet him at the swamp to watch the sunset with him. When she arrived, Marta called out for her husband, but found Carly waiting for her. She immediately drew her gun and shot her in the chest, knocking her unconscious.","Since it was their word against her own, she decided to go home and admit defeat. She knew how much it would hurt Amy to know the truth.",,,,,,,,,,
,,,,,673ec935d1ab67f5acdd49e3,2025-07-07_23h34.50.421,group3.4_multiperson,2023.2.2,Win32,243.902439,686c2ebf0248f13bef9af11f,686c91c0148ebdd55a6f7adf,,,,,,,,,,,,,,,,,,,,,,,,,,,,,1330.7153,1,audio/Narrative7Situation9.wav,1331.7309,,,,,1354.2475,1364.9474,100,10.4158,"[{""rating"":100,""responseTime"":3.0493000000119537},{""rating"":100,""responseTime"":5.7158000000119955},{""rating"":100,""responseTime"":10.415800000012041}]",space,10.1499,,1364.9474,Partially,50,1364.9484,,,[],,,,,,,,,,,1,1,3,3,,,,,,,,,,,,,,,,,1331.7309,3,1354.2474,"[[76.2,1084],[65.9,1516],[71.5,1850],[100,2383],[100,2734],[100,3067],[100,3400],[100,3733],[100,4067],[100,4400],[100,4733],[100,5066],[100,5400],[100,5733],[100,6066],[100,6402],[100,6736],[100,7067],[100,7400],[100,7733],[100,8067],[100,8400],[100,8733],[100,9083],[100,9400],[100,9733],[100,10068],[100,10400],[100,10733],[100,11066],[100,11399],[100,11733],[100,12067],[100,12399],[100,12733],[100,13067],[100,13401],[100,13735],[100,14066],[100,14399],[100,14733],[100,15066],[100,15399],[100,15733],[100,16066],[100,16399],[100,16734],[100,17066],[100,17399],[100,17733],[100,18066],[100,18399],[100,18732],[100,19067],[100,19403],[100,19749],[100,20067],[100,20399],[100,20732],[100,21083],[100,21400],[100,21733],[100,22066],[100,22399]]",0,4,4,4,1,"The next day the mayors successor, Mr. Smith, a man who was very unpopular due to his strong ties to the oil companies, took office. After a long day of brainstorming about the mysterious killer, Lucy decided to attend his welcome ceremony in the city. During the mayor's speech, she noticed one of the security guards looked strangely familiar. It dawned on her that this new mayor had motive to kill and that the man in black could've been the guard working for him.","Weeks passed and nobody had seen Margaret. Coworkers and friends searched the nearby city looking for her. One day on patrol in a nearby town, a police officer heard someone crying for help in the basement of a house and went in to investigate. Margaret yelled that she was being held captive and needed help.","Luke ran to Marta, and filled with regret over his decision to go along with Carly's plan, picked her up and rushed her to the hospital. The doctors tried to help Marta by taking her into emergency surgery but failed to save her life. Once the doctor called the time of death, Luke fell to his knees and sobbed over his rash decision.","Months later Dan had taken up a mistress, he was growing bored with his marriage ever since he got rid of Linda and was only still with Amy for her family's money. In a hotel room in a nearby town, Dan and his mistress, Nicole, conspired to secretly kill Amy while still obtaining her fortune.",,,,,,,,,,
,,,,,673ec935d1ab67f5acdd49e3,2025-07-07_23h34.50.421,group3.4_multiperson,2023.2.2,Win32,243.902439,686c2ebf0248f13bef9af11f,686c91c0148ebdd55a6f7adf,,,,,,,,,,,,,,,,,,,,,,,,,,,,,1364.9485,1,audio/Narrative7Situation9.wav,1365.9807,,,,,1393.1969,1396.5463,100,1.9825,"[{""rating"":100,""responseTime"":1.9825000000000728}]",space,2.7828,,1396.5464,Not at all,0,1396.5479,,,[],,,,,,,,,,,3,1,3,3,,,,,,,,,,,,,,,,,1365.9807,3,1393.1969,"[[85.1,349],[82.6,766],[67.3,1182],[65.6,1533],[65.6,1866],[93.7,2416],[99.3,2849],[99.3,3166],[100,3533],[100,3866],[100,4201],[100,4549],[100,4866],[100,5199],[100,5532],[100,5866],[100,6199],[100,6533],[100,6866],[100,7199],[100,7533],[100,7866],[100,8199],[100,8549],[100,8866],[100,9199],[100,9532],[100,9882],[100,10199],[100,10533],[100,10882],[100,11249],[100,11632],[100,11949],[100,12282],[100,12617],[100,12949],[100,13282],[100,13618],[100,13952],[100,14282],[100,14615],[100,14950],[100,15283],[100,15615],[100,15949],[100,16282],[100,16615],[100,16965],[100,17282],[100,17615],[99.8,18066],[99.8,18382],[100,18732],[100,19069],[100,19415],[100,19732],[100,20082],[100,20399],[100,20748],[100,21066],[100,21399],[100,21732],[100,22082],[100,22415],[100,22732],[100,23066],[100,23416],[100,23732],[100,24066],[100,24400],[100,24749],[100,25067],[100,25399],[100,25749],[100,26068],[100,26401],[100,26732],[100,27069]]",0,5,5,5,1,"Lucy decided to confront the mayor after his ceremony. But when she tried to accuse him, the security guards threatened to hurt her if she went to the police with her theory. Before she could say another word a man pulled her from the crowd.","In a rush, the police officer broke down the door and was attacked by a man in the house. Without hesitation, the officer shot the man and the man fell to the floor.","He then saw Marta's brother Zach enter the hospital. Zach ran over to Luke and punched him. Zach screamed at Luke that it's his fault his sister is dead and that he knew about the affair. Luke quickly tried to explain that he felt horrible about Marta's death and that Carly had manipulated him into going along with her plan. Zach, still angry at his brother-in-law, realized his mistake in judgement and shifted his anger toward Carly.","They decided to have Dan invite her to the hotel room under the guise of a romantic date. Once she arrived, Nicole was there to tie her up. Once she was secured to a chair, Nicole demanded Amy's bank passwords. Amy obliged and gave her access to her bank accounts.",,,,,,,,,,
,,,,,673ec935d1ab67f5acdd49e3,2025-07-07_23h34.50.421,group3.4_multiperson,2023.2.2,Win32,243.902439,686c2ebf0248f13bef9af11f,686c91c0148ebdd55a6f7adf,,,,,,,,,,,,,,,,,,,,,,,,,,,,,1396.5481,1,audio/Narrative7Situation9.wav,1397.5796,,,,,1422.4292,1427.5125,0,1.4162,"[{""rating"":0,""responseTime"":1.4161999999880663}]",space,4.5336,,1427.5126,Not at all,0,1427.5135,,,[],,,,,,,,,,,3,1,1,2,,,,,,,,,,,,,,,,,1397.5796,3,1422.4292,"[[90.1,1100],[88.5,1466],[100,1916],[84,2267],[77.6,2633],[48.7,3149],[48.7,3483],[50,3849],[50,4183],[50,4516],[50,4849],[50,5183],[50,5516],[50,5849],[50,6183],[50,6516],[50,6849],[50,7183],[50,7516],[50,7849],[50,8183],[50,8516],[50,8849],[50,9183],[50,9516],[50,9849],[50,10182],[50,10516],[50,10849],[50,11183],[2.2,12199],[1.7,12533]]",0,6,6,6,1,"The man in question was another security guard of Mayor Smith's, who took Lucy into a hidden alleyway. His name was Max and he quickly explained that he was a part of the initial plot to kill the former Mayor but he regretted his involvement.","The officer rushed to the basement, untied Margaret, and took her to safety.After being notified of the situation, Al rushed to meet Margaret as to not raise any suspicion. When he arrived, he saw Margaret pointing and yelling at Susan who had been handcuffed and was talking to the police. Shortly after, the police took Susan away in a police car. Al was devastated to see her being taken away, as Margaret sneered with disdain.","After the tension with Zach cooled down, Luke thought of when he should call his son and inform him of his mother's passing. He would be out of school any minute and should hear the news from him. Luke reflected on his decision and realized it was necessary to sacrifice his wife to ensure their child's safety, and that Marta had told him to above all else to protect him.",Nicole transferred all of Amy's money into Dan's bank account despite Amy's pleading for her to stop.,,,,,,,,,,
,,,,,673ec935d1ab67f5acdd49e3,2025-07-07_23h34.50.421,group3.4_multiperson,2023.2.2,Win32,243.902439,686c2ebf0248f13bef9af11f,686c91c0148ebdd55a6f7adf,,,,,,,,,,,,,,,,,,,,,,,,,,,,,1427.5136,1,audio/Narrative7Situation9.wav,1428.5289,,,,,1449.0455,1452.4954,100,1.7335,"[{""rating"":100,""responseTime"":1.7335000000000491}]",space,2.9001,,1452.4954,Partially,50,1452.4973,,,[],,,,,,,,,,,4,1,3,1,,,,,,,,,,,,,,,,,1428.5289,3,1449.0454,"[[23.7,1770],[38.4,2267],[100,8334],[100,8666],[100,9016],[100,9349],[100,9666],[100,10016],[100,10333],[100,10666],[100,10999],[100,11333],[100,11666],[100,12000],[100,12333],[100,12666],[100,13001],[100,13333],[100,13666],[100,14016],[100,14333],[100,14670],[100,14999],[100,15333],[100,15666],[100,16016],[100,16333],[100,16666],[100,17001],[100,17333],[100,17666],[100,18050],[100,18383],[100,18799],[100,19149],[100,19466],[100,19833],[99.9,20183],[99.9,20516]]",0,7,7,7,1,"He told Lucy about the Mayor's secret hideout in the forest that was used as a base for the Mayor's plots. They formed a plan to infiltrate the base with Lucy's brother Alex, a cop for the city, so they could find evidence of his crimes and arrest Mayor Smith. When the three arrived at the hideout, Max suggested they enter through the back. Once they snapped the lock off and opened the door, men grabbed hold of Lucy and Alex. The bodyguard in black came out and ordered the men to kill the cop immediately so he wouldn't talk. The man holding him instantly shot him in the chest.","Weeks later, Al went to county lockup to speak with Susan. After briefly catching up, he asked Susan about what happened at the house. Without realizing that their conversation was being recorded, Al foolishly mentioned their plans to get rid of Margaret. He even went as far to ask about what to do next. Within days, the two of them ended up confessing about their plot.","The police showed up at Carly's door a few days later, having matched the prints found on the murder weapon to hers. She was charged with first degree murder and life in prison. Years passed and she still thought of her love, Luke, and how she missed him. Until one day he showed up during visiting hours.","Once successful, the mistress knocked Amy out with a forceful blow to the head. After seeing Amy's body lying limp on the ground, she was suddenly filled with regret over her actions. Nicole quickly rushed her to the hospital, realizing she had only been jealous of Amy's marriage with Dan and that she didn't deserve to die.",,,,,,,,,,
,,,,,673ec935d1ab67f5acdd49e3,2025-07-07_23h34.50.421,group3.4_multiperson,2023.2.2,Win32,243.902439,686c2ebf0248f13bef9af11f,686c91c0148ebdd55a6f7adf,,,,,,,,,,,,,,,,,,,,,,,,,,,,,1452.4974,1,audio/Narrative7Situation9.wav,1453.5121,,,,,1493.3612,1495.995,100,0.9326,"[{""rating"":100,""responseTime"":0.9326000000239674}]",space,2.0839,,1495.9951,Definitely yes,100,1495.9975,,,[],,,,,,,,,,,2,1,1,3,,,,,,,,,,,,,,,,,1453.5121,3,1493.3611,"[[81.5,1552],[72,1983],[54.3,2570],[57.5,2933],[67,3416],[100,3985],[100,4449],[100,4782],[100,5116],[100,5449],[100,5783],[100,6119],[100,6449],[100,6782],[100,7116],[100,7449],[100,7783],[100,8116],[100,8449],[100,8782],[100,9116],[100,9449],[100,9782],[100,10116],[100,10449],[100,10782],[100,11116],[100,11449],[100,11782],[100,12116],[100,12449],[100,12782],[100,13116],[100,13449],[100,13816],[100,14165],[100,14482],[100,14817],[100,15150],[100,15482],[100,15816],[100,16149],[100,16484],[100,16816],[100,17151],[100,17484],[100,17816],[100,18152],[100,18499],[100,18816],[100,19153],[100,19485],[100,19816],[100,20149],[100,20485],[100,20816],[100,21165],[100,21482],[100,21815],[100,22149],[100,22482],[95.7,22949],[93.8,23282],[94,23620],[94.8,23949],[94.8,24282],[94.8,24617],[94.8,24949],[94.8,25282],[94.8,25615],[94.8,25949],[94.8,26282],[94.8,26616],[94.8,26949],[94.8,27298],[94.8,27616],[94.8,27949],[94.8,28285],[94.8,28615],[94.8,28949],[94.8,29286],[94.8,29632],[94.8,29949],[94.8,30282],[94.8,30615],[94.8,30949],[94.8,31282],[94.8,31615],[94.8,31949],[94.8,32284],[69.9,32733],[69.8,33066],[69.8,33400],[69.8,33732],[69.8,34065],[69.8,34399],[69.8,34748],[89.6,35215],[97.1,35551],[99.3,35882],[99.3,36215],[99.3,36549],[99.3,36882],[99.3,37215],[99.3,37549],[99.3,37882],[99.3,38215],[99.3,38548],[99.3,38882],[99.3,39215],[99.3,39548]]",0,8,8,8,1,"Lucy pleaded with the guard to let them go so she could take her brother to the hospital, she said she would give up her mission against the mayor.","Shortly after, Margaret heard about Al's confession and infidelity on the local news. She was furious that she did not know what was going on and hurt that Al had been acting so selfishly behind her back.","Luke explained he needed closure and told her how much he hated her for killing his wife. Carly was heartbroken over this because she had held on to this delusion that Luke still loved her after all these years. Once back in her cell she began to plot how to get back at Luke, she blamed him for her lifelong sentence and vowed to break out. She wanted to make him feel just as miserable as she did, and she knew the only way to do that was to take what he loved most, his son. She flirted with a guard who she knew was sweet on her and convinced him to help her escape.","Once Amy awoke from consciousness at the hospital, she was met by Linda. Linda rushed over as soon as she was called, finding out she was still Amy's emergency contact. Nicole apologized and explained to Amy and Linda what had happened at the hotel. Amy was taken aback when she realized her husband's betrayal.",,,,,,,,,,
,,,,,673ec935d1ab67f5acdd49e3,2025-07-07_23h34.50.421,group3.4_multiperson,2023.2.2,Win32,243.902439,686c2ebf0248f13bef9af11f,686c91c0148ebdd55a6f7adf,,,,,,,,,,,,,,,,,,,,,,,,,,,,,1495.9978,1,audio/Narrative7Situation9.wav,1501.0116,,,,,1514.8608,1520.1437,0,3.8661,"[{""rating"":0,""responseTime"":3.8661000000238346}]",space,4.7335,,1520.1438,Not at all,0,1520.1455,,,[],,,,,,,,,,,1,5,8,3,,,,,,,,,,,,,,,,,1501.0116,3,1514.8608,"[[92.3,683],[57,1233],[51.4,1649],[51.1,1982],[50.6,2316],[50.4,2649],[50.4,2982],[50.4,3316],[50.4,3649],[50.4,3982],[50.4,4316],[50.4,4649],[50.4,4982],[50.4,5317],[50.4,5649],[50.4,5982],[50.4,6316],[50.4,6649],[50.4,6982],[50.4,7315],[50.4,7648],[50.4,7982],[50.4,8316],[50.4,8652],[50.4,8982],[50.4,9315],[50.4,9649],[50.4,9983],[50.4,10316],[50.4,10649],[50.4,10982],[50.4,11315],[50.4,11649],[50.4,11982],[50.4,12315],[50.4,12650],[50.4,12982],[50.4,13315],[50.4,13648]]",0,9,9,9,1,"The guards laughed at her request and Lucy suddenly realized that they must have been tipped off on when they'd be at the hideout. She turned to Max and accused him of betraying them. Max shrugged and confessed to his disloyalty, he joined the other bodyguards in line and exclaimed neither of them were leaving this hideout alive. Resigned to her fate, Lucy closed her eyes and allowed the guards to kill her and any hope the former Mayor had of retribution.","Margaret went to a local bar to drown out her pain. After a few drinks at a quiet bar, she went to the back of the bar to use the facilities. On her way back, she heard someone approaching her from behind with a shuffled gait. She turned around and realized it was the man that was keeping her captive! Before she could make a sound, he covered her mouth with a rag and pulled her out the back of the bar – never to be seen again.","Once outside the prison walls, she went to the school Luke's son attended and fooled the faculty into thinking she was his aunt. She then took the child and fled with him, never to be seen again.","She decided it was best to let Dan run off with her money if that meant he was out of her life forever. Amy and Linda continued to be best friends, and years later she went on to marry a kind man with a loving family.",,,,,,,,,,
,,,,,673ec935d1ab67f5acdd49e3,2025-07-07_23h34.50.421,group3.4_multiperson,2023.2.2,Win32,243.902439,686c2ebf0248f13bef9af11f,686c91c0148ebdd55a6f7adf,,,,,,,,,,,,,,,,,,,,,,,,,,,,,1520.1456,1,audio/Narrative7Situation9.wav,1526.1602,,,,,1559.7266,1562.66,100,1.816,"[{""rating"":100,""responseTime"":1.816000000000031}]",space,2.4003,,1562.66,Definitely yes,100,1562.6615,,,[],,,,,,,,,,,2,6,9,3,,,,,,,,,,,,,,,,,1526.1603,3,1559.7266,"[[7.7,750],[29,1300],[46.7,1767],[48.6,2134],[48.7,2467],[48.7,2799],[48.7,3133],[48.7,3466],[48.7,3799],[48.7,4136],[48.7,4466],[48.7,4800],[0.5,9599],[0.5,9933],[0.5,10266],[0.5,10599],[0.5,10933],[0.5,11268],[0.5,11616],[0.5,11933],[0.5,12266],[44.5,12750],[49.2,13183],[49.5,13516],[49.5,13866],[49.5,14183],[49.5,14516],[49.5,14866],[49.8,15183],[71.2,15735],[89.8,16266],[100,16799],[100,17149],[100,17483],[100,17816],[100,18150],[100,18499],[100,18816],[100,19149],[100,19483],[100,19818],[100,20166],[100,20483],[100,20832],[100,21149],[100,21483],[100,21832],[100,22149],[100,22483],[100,22817],[100,23149],[100,23482],[100,23832],[100,24149],[100,24483],[100,24816],[100,25149],[100,25482],[100,25816],[100,26149],[100,26482],[100,26832],[100,27166],[100,27482],[100,27817],[100,28149],[100,28483],[100,28816],[100,29149],[100,29483],[100,29816],[100,30149],[100,30482],[100,30816],[100,31149],[100,31483],[100,31816],[100,32149],[100,32482],[100,32832],[97.1,33216],[95.7,33566]]",0,10,10,10,1,"Luke always thought of himself as an honest man. That's why during his evening jog around the swamp, he pondered his recent affair with the receptionist at work. Luke looked up at the sky and asked God why he was so weak and unfaithful. He thought of the impact this would have on his family and told God of his conflicted feelings toward telling his wife Marta.","Linda and Amy had been best friends since kindergarten, they even found homes on the same street in the forest on the edge of town. Their biggest fight had been over who gets the bigger slice of cake, until Amy married Dan. Linda loathed Dan, she thought he was manipulative and had a violent temper. She only put up with him because Amy loved him. ","It was just another Sunday afternoon for Lucy, she was on her way to the farmer's market to pick up some produce. When she arrived at the old train depot that housed the market, she noticed two men fighting on the steps. Before she could call for help, one of the men crumpled to his knees. The other man dropped an object that appeared to be a knife and ran off. When Lucy approached the crime scene she realized that the man who had been murdered was the Mayor and that he had a gunshot wound.","One day at work, Margaret walked up to her partner, Al, to ask him to talk to the chief of staff at the local hospital where she worked as a nurse.",,,,,,,,,,
,,,,,673ec935d1ab67f5acdd49e3,2025-07-07_23h34.50.421,group3.4_multiperson,2023.2.2,Win32,243.902439,686c2ebf0248f13bef9af11f,686c91c0148ebdd55a6f7adf,,,,,,,,,,,,,,,,,,,,,,,,,,,,,1562.6617,1,audio/Narrative7Situation9.wav,1566.6766,,,,,1585.1924,1589.3923,100,3.2663,"[{""rating"":100,""responseTime"":3.266300000012052}]",space,3.6503,,1589.3923,Definitely yes,100,1589.3932,,,[],,,,,,,,,,,5,4,2,2,,,,,,,,,,,,,,,,,1566.6766,3,1585.1923,"[[49.2,716],[50.7,1066],[50.7,1399],[50.7,1733],[50.7,2066],[50.7,2399],[50.7,2733],[81,3117],[100,3499],[100,3833],[100,4167],[100,4500],[100,4832],[100,5166],[100,5499],[100,5832],[100,6169],[100,6499],[100,6832],[100,7166],[100,7499],[100,7832],[100,8166],[100,8515],[100,8849],[100,9166],[100,9515],[100,9832],[100,10166],[100,10500],[100,10848],[100,11166],[100,11499],[100,11832],[94.9,12182],[93.5,12549],[93.5,12866],[93.5,13199],[93.5,13532],[93.5,13866],[93.5,14216],[93.5,14548],[93.5,14866],[56.4,15366],[48.2,15833],[47.9,16149],[48.9,16499],[48.9,16849],[49,17166],[49,17499],[49,17849],[49,18166],[49,18499]]",0,11,11,11,1,"Suddenly, Luke heard a woman call out his name and when he turned around he saw Carly, his receptionist, across the road with a gun in her hand. Carly ran to him and explained how she had followed him here to confess her love. She exclaimed if Luke didn't love her back that she would kill him and his family. Carly explained that the only way they could be together is to kill Marta.","This feeling of hate between Amy and Dan was mutual, Dan didn't like how much time his wife spent with her and thought Amy was creating distance between their marriage. That's why Dan decided to try and tarnish Linda's reputation with his wife, in hopes it would get rid of her. He came home one afternoon and exclaimed that Linda had tried to kiss him. Amy was taken aback and immediately called Linda to confront her about these accusations. When Linda arrived she denied having made a move on Dan, but discovered Dan had enlisted the help of his friend Will who said he witnessed it all happen.",On the ground beside him was a pen that she had mistaken for a knife. Lucy looked for the gunman and saw a suspicious man in black with distinct pointy features darting into an alley across the street. Cops who were nearby chased the man who had fled and arrested him.,"While waiting outside the chief of staff's office, Al heard nondescript shouting and yelling, there was a loud clatter in the room and then an eerie silence. An unfamiliar employee ran hastily out of the office with a terrified look on their face.",,,,,,,,,,
,,,,,673ec935d1ab67f5acdd49e3,2025-07-07_23h34.50.421,group3.4_multiperson,2023.2.2,Win32,243.902439,686c2ebf0248f13bef9af11f,686c91c0148ebdd55a6f7adf,,,,,,,,,,,,,,,,,,,,,,,,,,,,,1589.3933,1,audio/Narrative7Situation9.wav,1591.4094,,,,,1603.2755,1615.2252,0,10.7995,"[{""rating"":50.263076235184734,""responseTime"":1.31610000002388},{""rating"":0,""responseTime"":10.79950000000008}]",space,11.4168,,1615.2252,Partially,50,1615.2266,,,[],,,,,,,,,,,2,2,4,1,,,,,,,,,,,,,,,,,1591.4095,3,1603.2755,"[[50.9,2133],[48.7,2532],[49.5,2883],[50.3,3232],[50.3,3566],[50.3,3915],[50.3,4232],[50.3,4566],[50.3,4900],[50.3,5233],[50.3,5566],[50.3,5899],[50.3,6249],[50.3,6566],[50.3,6899],[50.3,7249],[50.3,7566],[50.3,7899],[50.3,8232],[50.3,8566],[50.3,8899],[50.3,9232],[50.3,9566],[50.3,9899],[50.3,10232],[50.3,10566],[50.3,10899],[50.3,11232],[50.3,11566]]",0,12,12,12,1,"Luke thought of his child and felt like this was his only option. He agreed to the plan and called his wife to meet him at the swamp to watch the sunset with him. When she arrived, Marta called out for her husband, but found Carly waiting for her. She immediately drew her gun and shot her in the chest, knocking her unconscious.","Since it was their word against her own, she decided to go home and admit defeat. She knew how much it would hurt Amy to know the truth.","But Lucy knew the charged man was innocent, which meant the killer was free. Lucy vowed to find out who the real murderer was and to stop him at all costs.","Al explained to the chief of staff that Margaret wanted to be excused from her absences last week. The chief of staff, Susan, revealed that she wanted to fire Margaret and never see her again. Susan and Al had been having an affair and she wanted Margaret ""out of the picture"". Al was conflicted, but agreed it would be for the best.",,,,,,,,,,
,,,,,673ec935d1ab67f5acdd49e3,2025-07-07_23h34.50.421,group3.4_multiperson,2023.2.2,Win32,243.902439,686c2ebf0248f13bef9af11f,686c91c0148ebdd55a6f7adf,,,,,,,,,,,,,,,,,,,,,,,,,,,,,1615.2268,1,audio/Narrative7Situation9.wav,1616.2419,,,,,1645.758,1647.858,100,1.183,"[{""rating"":100,""responseTime"":1.1829999999999927}]",space,1.5669,,1647.858,Definitely yes,100,1647.8595,,,[],,,,,,,,,,,1,1,3,3,,,,,,,,,,,,,,,,,1616.2419,3,1645.7579,"[[15.8,2100],[52.9,2683],[47.2,3083],[47.6,3400],[50.1,3767],[50.1,4100],[50.1,4433],[50.1,4767],[50.1,5100],[50.1,5433],[50.1,5766],[50.1,6100],[50.1,6433],[50.1,6766],[50.1,7099],[50.1,7433],[50.1,7766],[50.1,8100],[50.1,8433],[50.1,8767],[50.1,9099],[50.1,9433],[50.1,9766],[50.1,10099],[50.1,10433],[50.1,10766],[50.3,11100],[50.7,11433],[50.7,11783],[50.7,12099],[50.7,12433],[50.7,12768],[50.7,13099],[50.7,13433],[50.7,13766],[50.7,14099],[50.7,14433],[50.7,14766],[98.5,15233],[100,15600],[100,15933],[100,16282],[100,16600],[100,16933],[100,17266],[100,17600],[100,17932],[100,18266],[100,18601],[100,18932],[100,19266],[100,19599],[100,19933],[100,20266],[100,20600],[100,20933],[100,21266],[100,21616],[100,21932],[100,22266],[100,22602],[100,22933],[100,23266],[100,23599],[100,23933],[100,24266],[100,24599],[100,24932],[100,25266],[100,25599],[100,25932],[100,26282],[100,26599],[100,26932],[100,27282],[100,27599],[100,27932],[100,28266],[100,28599],[100,28932],[100,29282]]",0,13,13,13,1,"Luke ran to Marta, and filled with regret over his decision to go along with Carly's plan, picked her up and rushed her to the hospital. The doctors tried to help Marta by taking her into emergency surgery but failed to save her life. Once the doctor called the time of death, Luke fell to his knees and sobbed over his rash decision.","Months later Dan had taken up a mistress, he was growing bored with his marriage ever since he got rid of Linda and was only still with Amy for her family's money. In a hotel room in a nearby town, Dan and his mistress, Nicole, conspired to secretly kill Amy while still obtaining her fortune.","The next day the mayors successor, Mr. Smith, a man who was very unpopular due to his strong ties to the oil companies, took office. After a long day of brainstorming about the mysterious killer, Lucy decided to attend his welcome ceremony in the city. During the mayor's speech, she noticed one of the security guards looked strangely familiar. It dawned on her that this new mayor had motive to kill and that the man in black could've been the guard working for him.","Weeks passed and nobody had seen Margaret. Coworkers and friends searched the nearby city looking for her. One day on patrol in a nearby town, a police officer heard someone crying for help in the basement of a house and went in to investigate. Margaret yelled that she was being held captive and needed help.",,,,,,,,,,
,,,,,673ec935d1ab67f5acdd49e3,2025-07-07_23h34.50.421,group3.4_multiperson,2023.2.2,Win32,243.902439,686c2ebf0248f13bef9af11f,686c91c0148ebdd55a6f7adf,,,,,,,,,,,,,,,,,,,,,,,,,,,,,1647.8597,1,audio/Narrative7Situation9.wav,1650.8605,,,,,1667.3743,1671.3408,100,2.2995,"[{""rating"":100,""responseTime"":2.2994999999998527}]",space,3.4003,,1671.3408,Not at all,0,1671.3423,,,[],,,,,,,,,,,1,3,3,3,,,,,,,,,,,,,,,,,1650.8605,3,1667.3743,"[[100,697],[83.7,1130],[68.4,1614],[98.7,3430],[98.8,3782],[99.6,4113],[100,4447],[100,4780],[100,5114],[100,5447],[100,5781],[100,6113],[100,6447],[100,6780],[100,7113],[100,7447],[100,7780],[100,8113],[100,8447],[100,8780],[100,9114],[100,9447],[100,9797],[100,10114],[100,10447],[100,10780],[100,11115],[100,11447],[100,11780],[100,12114],[100,12447],[100,12783],[100,13113],[100,13447],[100,13780],[100,14114],[100,14447],[100,14780],[100,15114],[100,15447],[100,15780],[100,16113],[100,16447]]",0,14,14,14,1,"He then saw Marta's brother Zach enter the hospital. Zach ran over to Luke and punched him. Zach screamed at Luke that it's his fault his sister is dead and that he knew about the affair. Luke quickly tried to explain that he felt horrible about Marta's death and that Carly had manipulated him into going along with her plan. Zach, still angry at his brother-in-law, realized his mistake in judgement and shifted his anger toward Carly.","They decided to have Dan invite her to the hotel room under the guise of a romantic date. Once she arrived, Nicole was there to tie her up. Once she was secured to a chair, Nicole demanded Amy's bank passwords. Amy obliged and gave her access to her bank accounts.","Lucy decided to confront the mayor after his ceremony. But when she tried to accuse him, the security guards threatened to hurt her if she went to the police with her theory. Before she could say another word a man pulled her from the crowd.","In a rush, the police officer broke down the door and was attacked by a man in the house. Without hesitation, the officer shot the man and the man fell to the floor.",,,,,,,,,,
,,,,,673ec935d1ab67f5acdd49e3,2025-07-07_23h34.50.421,group3.4_multiperson,2023.2.2,Win32,243.902439,686c2ebf0248f13bef9af11f,686c91c0148ebdd55a6f7adf,,,,,,,,,,,,,,,,,,,,,,,,,,,,,1671.3425,1,audio/Narrative7Situation9.wav,1674.3577,,,,,1690.8739,1693.2901,100,1.4497,"[{""rating"":100,""responseTime"":1.4497000000476419}]",space,1.8836,,1693.2902,Not at all,0,1693.291,,,[],,,,,,,,,,,1,3,2,1,,,,,,,,,,,,,,,,,1674.3577,3,1690.8739,"[[47.9,349],[49.7,699],[49.7,1016],[49.7,1349],[76.3,1819],[100,2382],[100,2699],[100,3032],[100,3383],[100,3699],[100,4033],[100,4366],[100,4605],[100,4705],[100,4788],[100,4871],[100,4955],[100,5038],[100,5126],[100,5209],[100,5299],[100,5380],[100,5466],[100,5551],[100,5639],[100,6132],[87.6,6483],[100,6933],[100,7266],[100,7599],[100,7932],[100,8266],[100,8599],[100,8932],[100,9266],[100,9600],[100,9932],[100,10266],[100,10599],[100,10932],[100,11266],[100,11599],[100,11932],[100,12265],[100,12615],[100,12932],[100,13265],[100,13601],[100,13932],[100,14265],[100,14615],[100,14932],[100,15266],[100,15650],[100,15982],[100,16316]]",0,15,15,15,1,"After the tension with Zach cooled down, Luke thought of when he should call his son and inform him of his mother's passing. He would be out of school any minute and should hear the news from him. Luke reflected on his decision and realized it was necessary to sacrifice his wife to ensure their child's safety, and that Marta had told him to above all else to protect him.",Nicole transferred all of Amy's money into Dan's bank account despite Amy's pleading for her to stop.,"The man in question was another security guard of Mayor Smith's, who took Lucy into a hidden alleyway. His name was Max and he quickly explained that he was a part of the initial plot to kill the former Mayor but he regretted his involvement.","The officer rushed to the basement, untied Margaret, and took her to safety.After being notified of the situation, Al rushed to meet Margaret as to not raise any suspicion. When he arrived, he saw Margaret pointing and yelling at Susan who had been handcuffed and was talking to the police. Shortly after, the police took Susan away in a police car. Al was devastated to see her being taken away, as Margaret sneered with disdain.",,,,,,,,,,
,,,,,673ec935d1ab67f5acdd49e3,2025-07-07_23h34.50.421,group3.4_multiperson,2023.2.2,Win32,243.902439,686c2ebf0248f13bef9af11f,686c91c0148ebdd55a6f7adf,,,,,,,,,,,,,,,,,,,,,,,,,,,,,1693.2911,1,audio/Narrative7Situation9.wav,1697.3071,,,,,1735.5394,1737.5893,100,0.9998,"[{""rating"":100,""responseTime"":0.9998000000118736}]",space,1.5171,,1737.5894,Not at all,0,1737.5903,,,[],,,,,,,,,,,1,4,1,3,,,,,,,,,,,,,,,,,1697.3071,3,1735.5393,"[[999,0],[999,349],[999,666],[53.2,1133],[53.2,1482],[96,2000],[100,2416],[100,2749],[100,3099],[100,3416],[100,3749],[100,4082],[100,4419],[100,4753],[100,5103],[100,5435],[100,5769],[100,6099],[100,6433],[100,6766],[100,7099],[100,7449],[100,7766],[100,8099],[100,8432],[100,8766],[100,9099],[100,9422],[100,9553],[100,9637],[100,9720],[100,9808],[100,9891],[100,9974],[100,10058],[100,10141],[79.8,10434],[92.1,10815],[92.1,11149],[92.1,11482],[92.1,11815],[92.1,12149],[92.1,12482],[92.1,12816],[92.1,13149],[92.1,13483],[92.1,13816],[92.1,14149],[92.1,14482],[92.1,14816],[92.1,15149],[92.1,15482],[87.1,15834],[98.8,16282],[98.8,16599],[100,16949],[100,17282],[100,17683],[100,18015],[100,18349],[100,18682],[100,19015],[100,19349],[100,19682],[100,20016],[100,20349],[100,20682],[100,21016],[100,21349],[100,21682],[100,22015],[100,22349],[100,22682],[100,23015],[100,23349],[100,23682],[100,24050],[97.1,24432],[97,24766],[97,25099],[97,25432],[97,25766],[97,26099],[97,26432],[97,26782],[97,27099],[97,27432],[97,27766],[96,28099],[96,28433],[96,28766],[96,29099],[96,29432],[96,29766],[96,30115],[96,30432],[96,30766],[96,31100],[96,31432],[96,31767],[96,32099],[100,32549],[100,32866],[100,33199],[100,33532],[100,33865],[100,34199],[100,34532],[100,34865],[100,35199],[100,35533],[100,35882],[100,36215],[100,36549],[99.9,36882],[99.9,37215],[99.8,37548],[99.8,37882],[99.4,38231]]",0,16,16,16,1,"The police showed up at Carly's door a few days later, having matched the prints found on the murder weapon to hers. She was charged with first degree murder and life in prison. Years passed and she still thought of her love, Luke, and how she missed him. Until one day he showed up during visiting hours.","Once successful, the mistress knocked Amy out with a forceful blow to the head. After seeing Amy's body lying limp on the ground, she was suddenly filled with regret over her actions. Nicole quickly rushed her to the hospital, realizing she had only been jealous of Amy's marriage with Dan and that she didn't deserve to die.","He told Lucy about the Mayor's secret hideout in the forest that was used as a base for the Mayor's plots. They formed a plan to infiltrate the base with Lucy's brother Alex, a cop for the city, so they could find evidence of his crimes and arrest Mayor Smith. When the three arrived at the hideout, Max suggested they enter through the back. Once they snapped the lock off and opened the door, men grabbed hold of Lucy and Alex. The bodyguard in black came out and ordered the men to kill the cop immediately so he wouldn't talk. The man holding him instantly shot him in the chest.","Weeks later, Al went to county lockup to speak with Susan. After briefly catching up, he asked Susan about what happened at the house. Without realizing that their conversation was being recorded, Al foolishly mentioned their plans to get rid of Margaret. He even went as far to ask about what to do next. Within days, the two of them ended up confessing about their plot.",,,,,,,,,,
,,,,,673ec935d1ab67f5acdd49e3,2025-07-07_23h34.50.421,group3.4_multiperson,2023.2.2,Win32,243.902439,686c2ebf0248f13bef9af11f,686c91c0148ebdd55a6f7adf,,,,,,,,,,,,,,,,,,,,,,,,,,,,,1737.5905,1,audio/Narrative7Situation9.wav,1739.6061,,,,,1750.8059,1758.1889,50.73136042,4.3996,"[{""rating"":49.63871589871696,""responseTime"":3.9493999999760945},{""rating"":50.731360420915664,""responseTime"":4.399599999964266}]",space,6.8501,,1758.1889,Definitely yes,100,1758.1904,,,[],,,,,,,,,,,1,2,3,1,,,,,,,,,,,,,,,,,1739.6061,3,1750.8058,"[[999,0],[999,500],[95.2,1017],[97.4,1383],[97.4,1718],[97.4,2049],[97.4,2383],[97.4,2716],[97.4,3049],[97.4,3400],[97.4,3716],[97.4,4049],[97.4,4383],[97.4,4723],[97.4,5049],[97.4,5383],[97.4,5716],[97.4,6049],[85.6,6503],[85.6,6833],[85.6,7166],[85.6,7499],[85.6,7833],[85.6,8166],[85.6,8499],[85.6,8833],[85.6,9166],[85.6,9500],[85.6,9849],[85.6,10167],[100,10666],[100,10999]]",0,17,17,17,1,"Luke explained he needed closure and told her how much he hated her for killing his wife. Carly was heartbroken over this because she had held on to this delusion that Luke still loved her after all these years. Once back in her cell she began to plot how to get back at Luke, she blamed him for her lifelong sentence and vowed to break out. She wanted to make him feel just as miserable as she did, and she knew the only way to do that was to take what he loved most, his son. She flirted with a guard who she knew was sweet on her and convinced him to help her escape.","Once Amy awoke from consciousness at the hospital, she was met by Linda. Linda rushed over as soon as she was called, finding out she was still Amy's emergency contact. Nicole apologized and explained to Amy and Linda what had happened at the hotel. Amy was taken aback when she realized her husband's betrayal.","Lucy pleaded with the guard to let them go so she could take her brother to the hospital, she said she would give up her mission against the mayor.","Shortly after, Margaret heard about Al's confession and infidelity on the local news. She was furious that she did not know what was going on and hurt that Al had been acting so selfishly behind her back.",,,,,,,,,,
,,,,,673ec935d1ab67f5acdd49e3,2025-07-07_23h34.50.421,group3.4_multiperson,2023.2.2,Win32,243.902439,686c2ebf0248f13bef9af11f,686c91c0148ebdd55a6f7adf,,,,,,,,,,,,,,,,,,,,,,,,,,,,,1758.1905,1,audio/Narrative7Situation9.wav,1759.206,,,,,1788.0556,1790.4218,100,0.999,"[{""rating"":100,""responseTime"":0.9990000000000236}]",space,1.8002,,1790.4219,Not at all,0,1795.9883,0,3.7159,"[{""rating"":0,""responseTime"":3.7158999999760454}]",space,,,,,,,,,,5,1,3,8,,,5.0169,,,,,,,,,,,,,,1759.206,3,1788.0556,"[[50.9,349],[48.7,682],[52.6,1050],[62.9,1516],[62.9,1849],[94.3,2300],[100,2783],[100,3149],[100,3483],[100,3816],[100,4149],[100,4482],[100,4816],[100,5149],[100,5482],[100,5816],[100,6149],[100,6482],[100,6815],[100,7149],[100,7482],[100,7816],[100,8166],[93.5,8982],[100,9415],[94.9,9783],[88.4,10149],[100,10599],[100,10934],[100,11266],[100,11601],[100,11933],[100,12299],[100,12682],[100,13016],[100,13349],[100,13682],[100,14015],[100,14349],[100,14682],[100,15015],[100,15349],[100,15699],[100,16019],[100,16349],[100,16682],[100,17015],[100,17348],[100,17682],[100,18015],[100,18349],[100,18682],[100,19032],[100,19349],[100,19682],[100,20015],[100,20348],[100,20682],[100,21032],[100,21349],[100,21682],[100,22015],[100,22348],[100,22683],[100,23017],[100,23348],[100,23682],[100,24015],[100,24348],[100,24682],[100,25018],[100,25348],[100,25682],[100,26015],[100,26365],[100,26682],[100,27016],[100,27349],[92.7,28115],[90.9,28482]]",0,18,18,18,1,"Once outside the prison walls, she went to the school Luke's son attended and fooled the faculty into thinking she was his aunt. She then took the child and fled with him, never to be seen again.","She decided it was best to let Dan run off with her money if that meant he was out of her life forever. Amy and Linda continued to be best friends, and years later she went on to marry a kind man with a loving family.","The guards laughed at her request and Lucy suddenly realized that they must have been tipped off on when they'd be at the hideout. She turned to Max and accused him of betraying them. Max shrugged and confessed to his disloyalty, he joined the other bodyguards in line and exclaimed neither of them were leaving this hideout alive. Resigned to her fate, Lucy closed her eyes and allowed the guards to kill her and any hope the former Mayor had of retribution.","Margaret went to a local bar to drown out her pain. After a few drinks at a quiet bar, she went to the back of the bar to use the facilities. On her way back, she heard someone approaching her from behind with a shuffled gait. She turned around and realized it was the man that was keeping her captive! Before she could make a sound, he covered her mouth with a rag and pulled her out the back of the bar – never to be seen again.",,,,,,,,,,
,,,,,673ec935d1ab67f5acdd49e3,2025-07-07_23h34.50.421,group3.4_multiperson,2023.2.2,Win32,243.902439,686c2ebf0248f13bef9af11f,686c91c0148ebdd55a6f7adf,,,,,,,,,,,,,,,,,,,,,,,,,,,,,1800.5621,2,audio/Narrative5Situation9.wav,1800.5622,,,,,1800.5631,1800.5635,,,[],,,,1800.5635,Definitely yes,100,1800.5647,,,[],,,,,,,,,,,2,2,2,2,,,,,,,,,,,,,,,1797.9723,1800.5548,1800.5622,4,1800.5631,[],0,0,0,0,1,"Larry had recently lost his family, job and home, and was now living on his own in the park. He had most of his belongings, including some clothes, a blanket, and his mother’s special necklace. His family had been very important to him and he felt as though he did not have much going for him. One of his first days in the park he came across a family that did not have much food and looked very cold. He decided to give them some of his food and his blanket.","Larry had recently lost his family, job and home, and was now living on his own in the park. He had most of his belongings, including some clothes, a blanket, and his mother’s special necklace. His family had been very important to him and he felt as though he did not have much going for him. One of his first days in the park he came across a family that did not have much food and looked very cold. He decided to give them some of his food and his blanket.","Larry had recently lost his family, job and home, and was now living on his own in the park. He had most of his belongings, including some clothes, a blanket, and his mother’s special necklace. His family had been very important to him and he felt as though he did not have much going for him. One of his first days in the park he came across a family that did not have much food and looked very cold. He decided to give them some of his food and his blanket.","Larry had recently lost his family, job and home, and was now living on his own in the park. He had most of his belongings, including some clothes, a blanket, and his mother’s special necklace. His family had been very important to him and he felt as though he did not have much going for him. One of his first days in the park he came across a family that did not have much food and looked very cold. He decided to give them some of his food and his blanket.",1795.9885,1797.9721,space,1.4503,,,,,,
