consent.started,consent.stopped,consentResponse.keys,consentResponse.rt,consentResponse.duration,participantID,date,expName,psychopyVersion,OS,frameRate,STUDY_ID,SESSION_ID,opening1.started,opening1.stopped,keyEndingOpening1.keys,keyEndingOpening1.rt,keyEndingOpening1.duration,volumeAdjust.started,volumeAdjust.stopped,endingAdjust.keys,endingAdjust.rt,endingAdjust.duration,opening2.started,opening2.stopped,keyEndingOpening.keys,keyEndingOpening.rt,keyEndingOpening.duration,mouse.x,mouse.y,mouse.leftButton,mouse.midButton,mouse.rightButton,mouse.time,instructionLoop.thisRepN,instructionLoop.thisTrialN,instructionLoop.thisN,instructionLoop.thisIndex,instructionLoop.ran,readyForAudio.started,readyForAudio.stopped,fixation.started,run,audio_played,fixation.stopped,endPractice.keys,audioPre.started,audioPre.stopped,continuousResponses_audio,intRating.started,intRating.stopped,intQuestionSlider.response,intQuestionSlider.rt,intQuestionSlider.history,confirmResponse.keys,confirmResponse.rt,confirmResponse.duration,catchQuestion.started,catch_label,catch_value,catchQuestion.stopped,catchQuestionSlider.response,catchQuestionSlider.rt,catchQuestionSlider.history,confirmResponse_2.keys,audioRunLoop.thisRepN,audioRunLoop.thisTrialN,audioRunLoop.thisN,audioRunLoop.thisIndex,audioRunLoop.ran,conditions1_1,conditions2_1,conditions1_2,conditions2_2,dur1_1,dur2_1,dur1_2,dur2_2,endPractice.rt,endPractice.duration,confirmResponse_2.rt,confirmResponse_2.duration,runIntervalBreak.started,runIntervalBreak.stopped,endingBreakKey.keys,endingBreakKey.rt,endingBreakKey.duration,connection.started,connection.stopped,connectionEnding.keys,connectionEnding.rt,connectionEnding.duration,readyForText.started,readyForText.stopped,textPre.started,run_dup,textPre.stopped,continuousResponses_text,textRunLoop.thisRepN,textRunLoop.thisTrialN,textRunLoop.thisN,textRunLoop.thisIndex,textRunLoop.ran,text1_1,text1_2,text2_1,text2_2,runBreakText.started,runBreakText.stopped,endingBreakKey_2.keys,endingBreakKey_2.rt,endingBreakKey_2.duration,ending.started,ending.stopped,endingEnding.keys,endingEnding.rt,endingEnding.duration
0.0003,13.8747,y,13.5477,,673f361cb1d555345330ff1b,2025-07-07_23h30.58.936,group3.4_multiperson,2023.2.2,Win32,59.88023952,686c2ebf0248f13bef9af11f,686c9849d85b26e093433b26,,,,,,,,,,,,,,,,,,,,,,,,,,,,,,,,,,,,,,,,,,,,,,,,,,,,,,,,,,,,,,,,,,,,,,,,,,,,,,,,,,,,,,,,,,,,,,,,,,,,,,,,
,,,,,673f361cb1d555345330ff1b,2025-07-07_23h30.58.936,group3.4_multiperson,2023.2.2,Win32,59.88023952,686c2ebf0248f13bef9af11f,686c9849d85b26e093433b26,13.8758,51.008,space,37.0504,,,,,,,,,,,,,,,,,,,,,,,,,,,,,,,,,,,,,,,,,,,,,,,,,,,,,,,,,,,,,,,,,,,,,,,,,,,,,,,,,,,,,,,,,,,,,,,,,,,,
,,,,,673f361cb1d555345330ff1b,2025-07-07_23h30.58.936,group3.4_multiperson,2023.2.2,Win32,59.88023952,686c2ebf0248f13bef9af11f,686c9849d85b26e093433b26,,,,,,51.0084,85.4081,space,34.0682,,,,,,,,,,,,,,,,,,,,,,,,,,,,,,,,,,,,,,,,,,,,,,,,,,,,,,,,,,,,,,,,,,,,,,,,,,,,,,,,,,,,,,,,,,,,,,,
,,,,,673f361cb1d555345330ff1b,2025-07-07_23h30.58.936,group3.4_multiperson,2023.2.2,Win32,59.88023952,686c2ebf0248f13bef9af11f,686c9849d85b26e093433b26,,,,,,,,,,,85.4129,225.6858,space,140.2572,,[],[],[],[],[],[],0,0,0,0,1,,,,,,,,,,,,,,,,,,,,,,,,,,,,,,,,,,,,,,,,,,,,,,,,,,,,,,,,,,,,,,,,,,,,,,,,,,,,,,
,,,,,673f361cb1d555345330ff1b,2025-07-07_23h30.58.936,group3.4_multiperson,2023.2.2,Win32,59.88023952,686c2ebf0248f13bef9af11f,686c9849d85b26e093433b26,,,,,,,,,,,225.6884,531.7198,space,305.9088,,[],[],[],[],[],[],1,0,1,0,1,,,,,,,,,,,,,,,,,,,,,,,,,,,,,,,,,,,,,,,,,,,,,,,,,,,,,,,,,,,,,,,,,,,,,,,,,,,,,,
,,,,,673f361cb1d555345330ff1b,2025-07-07_23h30.58.936,group3.4_multiperson,2023.2.2,Win32,59.88023952,686c2ebf0248f13bef9af11f,686c9849d85b26e093433b26,,,,,,,,,,,531.7217,860.975,space,329.1965,,[],[],[],[],[],[],2,0,2,0,1,,,,,,,,,,,,,,,,,,,,,,,,,,,,,,,,,,,,,,,,,,,,,,,,,,,,,,,,,,,,,,,,,,,,,,,,,,,,,,
,,,,,673f361cb1d555345330ff1b,2025-07-07_23h30.58.936,group3.4_multiperson,2023.2.2,Win32,59.88023952,686c2ebf0248f13bef9af11f,686c9849d85b26e093433b26,,,,,,,,,,,860.9757,892.9748,space,31.9751,,[],[],[],[],[],[],3,0,3,0,1,,,,,,,,,,,,,,,,,,,,,,,,,,,,,,,,,,,,,,,,,,,,,,,,,,,,,,,,,,,,,,,,,,,,,,,,,,,,,,
,,,,,673f361cb1d555345330ff1b,2025-07-07_23h30.58.936,group3.4_multiperson,2023.2.2,Win32,59.88023952,686c2ebf0248f13bef9af11f,686c9849d85b26e093433b26,,,,,,,,,,,892.9752,924.0087,space,31.0086,,[],[],[],[],[],[],4,0,4,0,1,,,,,,,,,,,,,,,,,,,,,,,,,,,,,,,,,,,,,,,,,,,,,,,,,,,,,,,,,,,,,,,,,,,,,,,,,,,,,,
,,,,,673f361cb1d555345330ff1b,2025-07-07_23h30.58.936,group3.4_multiperson,2023.2.2,Win32,59.88023952,686c2ebf0248f13bef9af11f,686c9849d85b26e093433b26,,,,,,,,,,,924.0091,943.4109,space,19.3825,,[],[],[],[],[],[],5,0,5,0,1,,,,,,,,,,,,,,,,,,,,,,,,,,,,,,,,,,,,,,,,,,,,,,,,,,,,,,,,,,,,,,,,,,,,,,,,,,,,,,
,,,,,673f361cb1d555345330ff1b,2025-07-07_23h30.58.936,group3.4_multiperson,2023.2.2,Win32,59.88023952,686c2ebf0248f13bef9af11f,686c9849d85b26e093433b26,,,,,,,,,,,,,,,,,,,,,,,,,,,943.416,945.9933,946.0202,1,audio/Narrative13Situation2.wav,948.0261,,948.0263,977.7773,"[[999,2],[999,99],[999,182],[999,266],[999,349],[999,432],[999,516],[999,599],[999,682],[999,766],[999,849],[999,932],[999,1016],[999,1099],[999,1182],[999,1266],[999,1349],[999,1432],[999,1516],[999,1599],[999,1682],[999,1766],[999,1849],[999,1933],[999,2017],[999,2100],[999,2183],[999,2266],[999,2351],[999,2453],[999,2533],[999,2619],[999,2699],[999,2785],[999,2869],[999,2949],[999,3035],[999,3119],[999,3199],[999,3285],[999,3369],[999,3449],[999,3535],[999,3619],[999,3700],[999,3786],[999,3866],[999,3953],[999,4036],[999,4119],[999,4203],[91.3,4286],[87.3,4369],[66.7,5786],[64.8,5870],[62.4,5953],[61.7,6036],[61.7,6119],[61.7,6201],[61.7,6285],[61.7,6366],[61.7,6449],[61.6,6536],[61.1,6616],[60.2,6703],[60,6784],[60,6866],[60,6952],[60,7036],[60,7116],[60,7202],[60,7285],[60,7366],[60,7452],[60,7535],[60,7618],[63.6,7703],[70.6,7786],[72.5,7869],[73,7949],[73.6,8033],[73.7,8119],[74,8199],[74,8283],[74,8369],[74,8452],[74,8533],[74,8618],[74,8702],[74,8783],[74,8869],[74,8952],[74,9033],[74,9119],[74,9203],[74,9283],[74,9369],[74,9452],[74,9533],[74,9616],[74,9699],[74,9785],[74,9866],[74,9949],[74,10035],[74,10119],[74,10199],[74,10285],[74,10366],[74.3,10453],[74.6,10533],[75,10619],[75.2,10702],[75.5,10786],[75.9,10869],[76.4,10950],[77.5,11036],[78.4,11119],[78.7,11202],[79.1,11286],[79.4,11369],[79.4,11449],[79.4,11535],[79.4,11619],[79.4,11699],[79.4,11785],[79.6,11869],[79.9,11951],[80.2,12036],[80.5,12120],[80.6,12199],[81,12285],[81.2,12366],[81.2,12452],[81.3,12536],[81.5,12620],[81.5,12702],[81.5,12785],[81.5,12866],[81.5,12950],[81.5,13033],[81.5,13119],[81.5,13202],[81.5,13283],[81.5,13369],[81.5,13449],[81.5,13536],[81.5,13619],[81.5,13699],[81.6,13786],[81.8,13870],[81.9,13953],[82.2,14036],[82.5,14116],[82.8,14203],[82.8,14286],[82.9,14370],[83.2,14453],[83.2,14536],[83.2,14616],[83.2,14703],[83.2,14785],[83.2,14870],[83.2,14953],[83.2,15033],[83.2,15120],[83.2,15200],[83.2,15286],[83.2,15370],[83.2,15450],[83.2,15536],[83.2,15616],[83.2,15703],[83.2,15787],[83.2,15866],[83.2,15950],[83.2,16037],[83.2,16120],[83.2,16203],[83.2,16287],[83.2,16367],[83.2,16453],[83.2,16537],[83.2,16617],[83.2,16700],[83.2,16783],[83.2,16867],[83.2,16953],[83.2,17034],[83.2,17117],[83.2,17201],[83.2,17288],[83.2,17370],[83.2,17453],[83.2,17534],[83.2,17621],[83.2,17706],[83.2,17784],[83.2,17870],[83.2,17953],[83.2,18033],[83.2,18119],[83.2,18202],[83.2,18283],[83.2,18366],[83.2,18450],[83.2,18533],[83.2,18619],[83.2,18700],[83.2,18783],[83.2,18866],[83.2,18950],[83.2,19036],[83.2,19119],[83.2,19200],[83.2,19285],[83.2,19366],[83.2,19450],[83.2,19537],[83.2,19620],[83.2,19699],[83.2,19786],[83.2,19866],[83.2,19950],[83.2,20033],[83.2,20117],[83.2,20204],[83.2,20283],[83.2,20370],[83.2,20455],[83.2,20534],[83.2,20620],[83.2,20705],[83.2,20784],[83.2,20867],[83.2,20950],[83.2,21033],[83.2,21120],[83.2,21204],[83.2,21287],[83.2,21371],[83.2,21453],[83.2,21537],[83.2,21620],[83.2,21700],[83.2,21786],[83.2,21870],[83.2,21954],[83.2,22037],[83.2,22117],[83.2,22204],[83.2,22284],[83.2,22370],[83.2,22453],[83.2,22536],[83.2,22617],[83.2,22703],[83.2,22784],[83.2,22870],[83.2,22950],[83.2,23034],[83.2,23120],[83.2,23200],[83.2,23288],[83.2,23367],[83.2,23452],[83.2,23535],[83.2,23617],[83.2,23701],[83.2,23784],[83.2,23867],[83.2,23951],[83.2,24036],[83.4,24119],[84.3,24206],[85,24286],[85.3,24368],[85.6,24452],[85.7,24536],[85.7,24618],[85.7,24701],[85.7,24787],[85.7,24868],[85.7,24951],[85.7,25036],[85.7,25118],[85.7,25201],[85.7,25286],[85.7,25367],[85.7,25451],[85.7,25534],[85.7,25618],[85.7,25701],[85.7,25786],[85.7,25868],[85.7,25951],[85.7,26036],[85.7,26118],[85.7,26201],[85.7,26286],[85.7,26368],[85.7,26452],[85.7,26536],[85.7,26619],[85.7,26701],[85.7,26786],[85.7,26868],[85.7,26952],[85.7,27036],[85.7,27118],[85.7,27202],[85.7,27286],[85.7,27368],[85.7,27452],[85.7,27536],[85.7,27618],[85.7,27701],[85.7,27786],[85.7,27868],[85.7,27951],[85.7,28035],[85.7,28118],[85.7,28201],[85.7,28286],[85.7,28368],[85.7,28452],[85.7,28535],[85.7,28618],[85.4,28703],[84.1,28786],[83.7,28870],[83.1,28951],[82.4,29036],[80.9,29120],[79.4,29201],[78.6,29284],[78.4,29368],[77.5,29454],[76.8,29533],[76.6,29617],[76.1,29701]]",977.7777,988.6323,68.30161054,8.7588,"[{""rating"":68.30161054172767,""responseTime"":8.758799999997109}]",space,10.3124,,988.6329,Definitely yes,100,988.6418,,,[],,0,0,0,0,1,audio/Narrative13Situation2.wav,audio/Narrative13Situation2.wav,audio/Narrative13Situation2.wav,audio/Narrative13Situation2.wav,2,2,2,2,,,,,,,,,,,,,,,,,,,,,,,,,,,,,,,,,,,,,,,
,,,,,673f361cb1d555345330ff1b,2025-07-07_23h30.58.936,group3.4_multiperson,2023.2.2,Win32,59.88023952,686c2ebf0248f13bef9af11f,686c9849d85b26e093433b26,,,,,,,,,,,,,,,,,,,,,,,,,,,,,988.6422,1,audio/Narrative8Situation1.wav,993.8974,space,993.8976,1009.828,"[[67.3,9935],[58.3,10683],[58.2,10765],[58.1,10847],[58.3,10933],[60,11017],[62.3,11100],[63.3,11182],[64.9,11267],[68.7,11350],[72.4,11432],[73,11514],[73.3,11597],[73.7,11682],[73.9,11765],[74.2,11848],[74.2,11932],[74.2,12015],[74.2,12098],[74.2,12181],[74.2,12266],[74.2,12347],[74.2,12431],[74.2,12514],[74.2,12597],[74.2,12680],[74.2,12765],[74.2,12847],[74.2,12932],[74.2,13015],[74.2,13097],[74.2,13181],[74.2,13265],[74.2,13348],[74.2,13431],[74.2,13513],[74.2,13596],[74.2,13679],[74.2,13764],[74.2,13846],[74.2,13929],[74.2,14013],[74.2,14096],[74.2,14180],[74.2,14264],[74.2,14346],[74.2,14429],[74.2,14514],[74.2,14596],[74.2,14680],[74.2,14763],[74.2,14846],[74.2,14930],[74.2,15013],[74.2,15096],[74.2,15180],[74.2,15263],[74.2,15346],[74.2,15430],[74.2,15514],[74.2,15596],[74.2,15680],[74.2,15763],[74.2,15846],[74.2,15929]]",1009.8283,1017.2292,72.84040996,4.1399,"[{""rating"":72.84040995607613,""responseTime"":4.139900000006037}]",space,6.8539,,1017.2295,Not at all,0,1017.2384,,,[],,0,1,1,1,1,audio/Narrative7Situation1.wav,audio/Narrative8Situation1.wav,audio/Narrative5Situation1.wav,audio/Narrative6Situation1.wav,2,5,5,2,5.2259,,,,,,,,,,,,,,,,,,,,,,,,,,,,,,,,,,,,,,
,,,,,673f361cb1d555345330ff1b,2025-07-07_23h30.58.936,group3.4_multiperson,2023.2.2,Win32,59.88023952,686c2ebf0248f13bef9af11f,686c9849d85b26e093433b26,,,,,,,,,,,,,,,,,,,,,,,,,,,,,1017.2389,1,audio/Narrative8Situation2.wav,1020.2461,,1020.2466,1030.3628,"[[34.3,9832],[33.2,9915],[31.7,9998],[30.8,10081]]",1030.3629,1036.5801,33.30893119,4.1012,"[{""rating"":33.30893118594436,""responseTime"":4.101200000003018}]",space,5.6907,,1036.5805,Definitely yes,100,1036.5914,,,[],,0,2,2,2,1,audio/Narrative7Situation2.wav,audio/Narrative8Situation2.wav,audio/Narrative5Situation2.wav,audio/Narrative6Situation2.wav,3,3,3,3,,,,,,,,,,,,,,,,,,,,,,,,,,,,,,,,,,,,,,,
,,,,,673f361cb1d555345330ff1b,2025-07-07_23h30.58.936,group3.4_multiperson,2023.2.2,Win32,59.88023952,686c2ebf0248f13bef9af11f,686c9849d85b26e093433b26,,,,,,,,,,,,,,,,,,,,,,,,,,,,,1036.5921,1,audio/Narrative8Situation3.wav,1040.5968,,1040.597,1062.9822,"[[34.2,3421],[35.9,3502],[36.5,3583],[37.3,3668],[37.7,3751],[37.7,3834],[35.9,3917],[26.1,4000],[24.8,4081],[24.2,4166],[23.4,4248],[23.2,4331],[23.1,4415],[23.1,4498],[23.1,4582],[23.1,4665],[23.1,4748],[23.1,4831],[23.1,4914],[23.1,4999],[23.1,5083],[23.1,5166],[23.1,5250],[23.1,5332],[23.1,5417],[23.1,5499],[23.1,5585],[23.1,5665],[23.1,5749],[23.1,5833],[23.1,5916],[24.8,6000],[28,6084],[30.7,6168],[32.7,6252],[34,6335],[35.8,6418],[38.6,6501],[41.1,6584],[44.9,6671],[49.9,6751],[51.5,6834],[51.9,6916],[52,7000],[52.3,7083],[52.3,7166],[52.3,7249],[52.3,7332],[52.5,7418],[53.4,7501],[54.1,7583],[54.1,7667],[54.1,7749],[54.1,7833],[54.1,7916],[54.1,7999],[54.1,8082],[54.1,8166],[54.1,8249],[54.1,8333],[54.1,8418],[54.1,8499],[54.1,8582],[55.6,8671],[59.4,8751],[63.8,8836],[66.5,8918],[68.4,9000],[69.2,9084],[69.9,9168],[71.5,9250],[72.1,9335],[73,9417],[74.3,9500],[74.5,9582],[74.5,9666],[74.5,9749],[74.5,9833],[74.5,9916],[74.5,10000],[74.5,10088],[74.5,10166],[74.5,10249],[74.5,10334],[74.5,10418],[75.5,10502],[76.9,10585],[78.7,10668],[80.7,10752],[80.9,10832],[80.9,10916],[80.9,10999],[81,11084],[81,11166],[81,11249],[81,11333],[81,11416],[81,11499],[81,11583],[81,11666],[81,11749],[81,11832],[81,11916],[81,11999],[81,12082],[81,12165],[81,12248],[81,12333],[81,12417],[81,12499],[81,12583],[81,12667],[81,12750],[81,12833],[81,12916],[81,12999],[81,13083],[81,13166],[81,13249],[81,13333],[81,13416],[81,13499],[81,13582],[81,13668],[81,13749],[81,13836],[81,13916],[81,14000],[81,14083],[81,14166],[81,14250],[81,14333],[81,14417],[81,14499],[81,14584],[81,14667],[81,14749],[81,14834],[81,14916],[81,14999],[81,15082],[81,15165],[81,15249],[81,15332],[81,15417],[81,15499],[81,15582],[81,15666],[81,15749],[81,15833],[78.8,15918],[75.3,16001],[72.7,16084],[71.5,16167],[71.1,16250],[70.8,16332],[70.6,16417],[70.1,16500],[69.5,16582],[69.5,16667],[69.3,16750],[69.2,16832],[69.2,16916],[69.2,16999],[69.2,17083],[69.2,17166],[69.2,17249],[69.2,17332],[69.2,17417],[69.2,17499],[69.2,17583],[69.2,17666],[69.2,17750],[69.2,17833],[69.2,17915],[69.2,18000],[69.2,18083],[69.2,18166],[69.2,18249],[69.2,18333],[69.2,18417],[69.2,18499],[70.1,18583],[73.9,18669],[83.8,19587],[84.8,19668],[85.6,19751],[86.5,19835],[86.7,19916],[86.7,19999],[86.7,20083],[86.7,20166],[86.7,20252],[86.7,20333],[86.7,20417],[86.7,20500],[86.7,20583],[86.7,20667],[86.7,20751],[86.7,20833],[86.7,20916],[86.7,20999],[86.7,21083],[86.7,21166],[86.7,21250],[86.7,21333],[86.7,21417],[86.7,21500],[86.7,21583],[86.7,21667],[86.7,21751],[86.7,21835],[86.7,21917],[86.7,21999],[86.7,22083],[86.7,22166],[86.7,22250],[86.7,22335]]",1062.9829,1071.5626,73.27964861,2.2066,"[{""rating"":73.2796486090776,""responseTime"":2.206600000008848}]",space,8.0172,,1071.5629,Not at all,0,1071.5681,,,[],,0,3,3,3,1,audio/Narrative7Situation3.wav,audio/Narrative8Situation3.wav,audio/Narrative5Situation3.wav,audio/Narrative6Situation3.wav,8,4,3,5,,,,,,,,,,,,,,,,,,,,,,,,,,,,,,,,,,,,,,,
,,,,,673f361cb1d555345330ff1b,2025-07-07_23h30.58.936,group3.4_multiperson,2023.2.2,Win32,59.88023952,686c2ebf0248f13bef9af11f,686c9849d85b26e093433b26,,,,,,,,,,,,,,,,,,,,,,,,,,,,,1071.5684,1,audio/Narrative8Situation4.wav,1074.5833,,1074.5833,1088.7822,"[[28.6,5350],[85.9,6103],[96.9,6523],[97.3,6596],[97.4,6682],[97.6,6767],[97.6,6846],[97.4,6935],[97.4,7013],[97.4,7097],[97.4,7183],[97.4,7263],[97.4,7346],[97.4,7435],[97.4,7516],[97.4,7596],[97.4,7680],[97.4,7763],[97.4,7847],[97.4,7932],[97.4,8016],[97.4,8099],[97.4,8179],[97.4,8266],[96,8351],[94.7,8436],[94.4,8513],[94.4,8599],[93.6,8685],[92.6,8765],[92.5,8849],[92.5,8930],[92.5,9013],[92.5,9097],[92.5,9180],[92.5,9268],[92.5,9347],[92.5,9431],[92.5,9513],[92.5,9596],[92.5,9680],[92.5,9764],[92.5,9849],[92.5,9932],[92.5,10013],[92.5,10096],[92.6,10184],[92.6,10263],[92.6,10351],[92.6,10433],[92.6,10518],[92.6,10600],[92.6,10680],[92.6,10767],[92.6,10849],[92.6,10934],[92.6,11013],[92.6,11097],[92.6,11183],[92.6,11269],[92.6,11350],[92.6,11430],[92.6,11517],[92.6,11596],[92.6,11685],[92.6,11769],[92.6,11846],[92.6,11950],[92.6,12035],[92.6,12117],[92.6,12197],[92.6,12284],[92.6,12368],[92.6,12451],[92.6,12530],[92.6,12617],[92.6,12701],[92.6,12784],[92.6,12864],[92.6,12951],[92.9,13033],[95.4,13117],[95.5,13198],[95.5,13280],[95.5,13363],[95.5,13453],[95.5,13534],[95.5,13614],[95.5,13697],[95.5,13780],[95.5,13867],[95.5,13949],[95.5,14035],[95.5,14113],[95.5,14197]]",1088.7829,1097.8363,98.02342606,2.3156,"[{""rating"":98.02342606149341,""responseTime"":2.315600000008999}]",space,8.5182,,1097.8364,Definitely yes,100,1097.8469,,,[],,0,4,4,4,1,audio/Narrative7Situation4.wav,audio/Narrative8Situation4.wav,audio/Narrative5Situation4.wav,audio/Narrative6Situation4.wav,3,3,1,2,,,,,,,,,,,,,,,,,,,,,,,,,,,,,,,,,,,,,,,
,,,,,673f361cb1d555345330ff1b,2025-07-07_23h30.58.936,group3.4_multiperson,2023.2.2,Win32,59.88023952,686c2ebf0248f13bef9af11f,686c9849d85b26e093433b26,,,,,,,,,,,,,,,,,,,,,,,,,,,,,1097.848,1,audio/Narrative8Situation5.wav,1099.8641,,1099.8649,1108.1184,"[[96.3,2266],[70.2,3017],[70.2,3099],[70.1,3183],[69.5,3266],[69.5,3349],[69.5,3433],[69.5,3516],[70.5,3603],[76.4,3684],[78.4,3768],[78.7,3849],[78.7,3932],[79.7,4018],[82.5,4101],[84,4184],[84.6,4267],[84.6,4350],[84.6,4433],[84.6,4516],[84.6,4600],[85.4,4684],[87.2,4768],[87.6,4850],[87.6,4932],[87.6,5016],[87.6,5099],[88.2,5184],[88.9,5268],[90.3,5352],[90.8,5433],[91.4,5518],[92.6,5603],[93.9,5682],[93.9,5768],[93.9,5850],[94.5,5936],[94.8,6016],[95.1,6099],[95.1,6184],[95.1,6267],[95.1,6349],[95.1,6433],[95.1,6516],[95.1,6600],[95.1,6684],[95.1,6768],[95.1,6850],[95.5,6936],[96.6,7017],[96.7,7099],[96.7,7184],[96.7,7266],[96.7,7350],[96.7,7433],[96.7,7516],[96.7,7612],[96.7,7700],[96.7,7783],[96.7,7871],[96.7,7953],[96.7,8033],[96.9,8122],[98.2,8206]]",1108.119,1112.298,99.04831625,2.606,"[{""rating"":99.04831625183016,""responseTime"":2.6059999999999945}]",space,3.6376,,1112.2984,Definitely yes,100,1112.3052,,,[],,0,5,5,5,1,audio/Narrative7Situation5.wav,audio/Narrative8Situation5.wav,audio/Narrative5Situation5.wav,audio/Narrative6Situation5.wav,5,2,5,2,,,,,,,,,,,,,,,,,,,,,,,,,,,,,,,,,,,,,,,
,,,,,673f361cb1d555345330ff1b,2025-07-07_23h30.58.936,group3.4_multiperson,2023.2.2,Win32,59.88023952,686c2ebf0248f13bef9af11f,686c9849d85b26e093433b26,,,,,,,,,,,,,,,,,,,,,,,,,,,,,1112.306,1,audio/Narrative8Situation6.wav,1114.3147,,1114.3151,1120.7987,"[[95.2,3684],[94.7,3766],[94.7,3850],[93,3934],[91.9,4018],[91.7,4101],[90.4,4184],[90.1,4265],[90.1,4351],[90.4,4434],[90.4,4517],[90.4,4599],[90.4,4683],[90.4,4767],[90.4,4850],[90.4,4933],[90.4,5017],[91,5100],[91.7,5185],[93.8,5267],[94.8,5350],[95.4,5434],[96.1,5517],[96.3,5599],[96.3,5682],[96.3,5766],[96.3,5849],[96.3,5933],[96.3,6017],[96.3,6099],[96.3,6183],[96.3,6266],[96.3,6349],[96.3,6433]]",1120.7997,1129.8392,97.43777452,2.0015,"[{""rating"":97.43777452415813,""responseTime"":2.001500000000078}]",space,8.5143,,1129.8395,Definitely yes,100,1129.8499,,,[],,0,6,6,6,1,audio/Narrative7Situation6.wav,audio/Narrative8Situation6.wav,audio/Narrative5Situation6.wav,audio/Narrative6Situation6.wav,3,2,3,2,,,,,,,,,,,,,,,,,,,,,,,,,,,,,,,,,,,,,,,
,,,,,673f361cb1d555345330ff1b,2025-07-07_23h30.58.936,group3.4_multiperson,2023.2.2,Win32,59.88023952,686c2ebf0248f13bef9af11f,686c9849d85b26e093433b26,,,,,,,,,,,,,,,,,,,,,,,,,,,,,1129.8513,1,audio/Narrative8Situation7.wav,1132.8527,,1132.8529,1144.9366,"[[97.1,1264],[77.2,2782],[78.7,2865],[80.6,2949],[81.2,3031],[81.2,3115],[81.2,3196],[80.3,3284],[80.3,3366],[80.3,3448],[80.3,3531],[81.6,3618],[82.8,3700],[83.5,3783],[84,3867],[85.3,3951],[87.3,4036],[88.1,4116],[88.1,4199],[88.1,4282],[88.1,4362],[88.1,4449],[87.8,4532],[87.2,4615],[86.7,4699],[86.6,4784],[86.6,4862],[86.6,4950],[86.6,5029],[86.6,5117],[86.7,5201],[88.8,5285],[89.1,5362],[89.1,5449],[89.1,5530],[89.1,5613],[89.1,5696],[89.1,5783],[89.1,5862],[89.1,5945],[86.7,6036],[84,6121],[83.4,6197],[83.1,6285],[81.9,6369],[81.8,6449],[81.8,6529],[81.8,6630],[81.8,6699],[81.8,6783],[81.8,6867],[81.8,6949],[81.8,7032],[81.8,7115],[81.8,7201],[81.8,7283],[81.8,7366],[81.8,7451],[81.8,7532],[81.8,7619],[81.8,7700],[81.8,7785],[81.8,7866],[81.8,7950],[81.8,8033],[81.8,8118],[81.8,8201],[81.9,8285],[84.3,8369],[85.7,8453],[86.9,8535],[87.9,8622],[88.5,8698],[89.1,8785],[89.8,8868],[90.1,8950],[90.3,9033],[90.3,9118],[90.3,9200],[90.3,9281],[90.3,9366],[90.3,9449],[90.8,9535],[91.3,9618],[91.4,9699],[91.9,9782],[92.2,9866],[92.3,9950],[92.6,10032],[92.8,10118],[92.8,10200],[92.8,10283],[92.8,10366],[93,10451],[93.3,10534],[93.9,10621],[95.1,10703],[95.8,10784],[95.8,10866],[95.8,10951],[95.8,11033],[95.8,11118],[95.8,11201],[95.8,11284],[95.8,11366],[95.8,11451],[95.8,11533],[95.8,11621],[95.8,11700],[95.8,11784],[95.8,11866],[95.8,11949],[95.8,12032]]",1144.937,1151.3715,99.34114202,2.19,"[{""rating"":99.3411420204978,""responseTime"":2.189999999999827}]",space,5.8918,,1151.3717,Definitely yes,100,1151.3773,,,[],,0,7,7,7,1,audio/Narrative7Situation7.wav,audio/Narrative8Situation7.wav,audio/Narrative5Situation7.wav,audio/Narrative6Situation7.wav,5,3,4,5,,,,,,,,,,,,,,,,,,,,,,,,,,,,,,,,,,,,,,,
,,,,,673f361cb1d555345330ff1b,2025-07-07_23h30.58.936,group3.4_multiperson,2023.2.2,Win32,59.88023952,686c2ebf0248f13bef9af11f,686c9849d85b26e093433b26,,,,,,,,,,,,,,,,,,,,,,,,,,,,,1151.3781,1,audio/Narrative8Situation8.wav,1154.3834,,1154.3836,1167.2337,"[[69.2,2351],[70.8,2434],[71.4,2515],[71.5,2599],[71.8,2684],[73,2769],[73.6,2850],[73.6,2932],[73.6,3015],[73.6,3100],[73.6,3183],[73.6,3264],[73.6,3348],[73.6,3431],[73.6,3514],[73.6,3598],[73.6,3681],[73.6,3764],[73.6,3847],[73.6,3931],[73.6,4015],[73.6,4098],[73.6,4182],[73.6,4265],[73.6,4348],[73.6,4432],[73.6,4515],[73.6,4599],[73.6,4682],[73.6,4766],[73.6,4850],[73.6,4932],[73.6,5015],[73.6,5099],[73.6,5182],[73.6,5266],[73.6,5349],[73.6,5433],[73.6,5516],[73.6,5599],[73.6,5684],[73.6,5766],[73.6,5850],[73.6,5932],[73.6,6016],[73.6,6101],[73.6,6182],[73.6,6265],[74.3,6350],[75.3,6435],[76.2,6515],[76.8,6601],[76.9,6682],[77.4,6768],[77.7,6850],[78,6933],[78.4,7015],[78.4,7102],[78.4,7182],[78.4,7266],[78.4,7350],[78.4,7432],[78.4,7516],[78.4,7599],[78.4,7682],[78.4,7767],[78.6,7850],[78.6,7932],[78.6,8016],[78.6,8100],[78.7,8185],[79,8264],[79,8348],[79,8431],[79,8514],[79,8598],[79,8682],[79,8765],[79,8850],[79,8932],[79,9016],[79,9100],[79,9183],[81.6,9270],[84.6,9352],[87,9435],[88.1,9516],[88.4,9600],[88.4,9682],[88.8,9768],[88.9,9853],[88.9,9934],[89.1,10015],[89.1,10100],[89.1,10183],[89.1,10267],[89.1,10350],[89.1,10433],[89.1,10516],[89.1,10600],[89.2,10682],[89.7,10768],[90,10852],[91,10935],[94.5,11018],[96.6,11104],[96.7,11182],[96.7,11268],[96.7,11349],[96.7,11432],[96.7,11515],[97.6,11601],[97.7,11682],[97.7,11766],[97.7,11849],[97.7,11932],[97.7,12016],[97.7,12101],[97.7,12182],[97.7,12268],[97.7,12349],[97.7,12432],[97.7,12516],[97.7,12600],[97.7,12682],[97.7,12765],[97.7,12849]]",1167.2343,1172.318,98.75549048,1.7769,"[{""rating"":98.75549048316252,""responseTime"":1.7768999999912012}]",space,4.5521,,1172.3182,Not at all,0,1172.3371,,,[],,0,8,8,8,1,audio/Narrative7Situation8.wav,audio/Narrative8Situation8.wav,audio/Narrative5Situation8.wav,audio/Narrative6Situation8.wav,2,3,3,5,,,,,,,,,,,,,,,,,,,,,,,,,,,,,,,,,,,,,,,
,,,,,673f361cb1d555345330ff1b,2025-07-07_23h30.58.936,group3.4_multiperson,2023.2.2,Win32,59.88023952,686c2ebf0248f13bef9af11f,686c9849d85b26e093433b26,,,,,,,,,,,,,,,,,,,,,,,,,,,,,1172.3379,1,audio/Narrative8Situation9.wav,1175.3514,,1175.3516,1186.7028,"[[97.3,3106],[96.3,3183],[94.9,3269],[90.8,3355],[86.5,3437],[85.4,4109],[87,4185],[87.3,4269],[88.2,4352],[88.9,4436],[89.5,4517],[90.3,4601],[91.1,4685],[92,4768],[92.8,4852],[93.8,4935],[94.7,5019],[95.2,5102],[95.8,5184],[96.3,5269],[96.7,5351],[97,5431],[97.7,5519],[98.9,5603],[99.3,5684],[99.3,5767],[99.5,5850],[99.5,5934],[99.5,6019],[99.5,6113],[99.5,6181],[99.5,6264],[99.5,6348],[99.5,6431],[99.5,6514],[99.5,6598],[99.5,6681],[99.5,6764],[99.5,6848],[99.5,6932],[99.5,7014],[99.5,7098],[99.5,7183],[99.5,7265],[99.5,7348],[99.5,7432],[99.5,7514],[99.5,7598],[99.5,7682],[99.5,7764],[99.5,7848],[99.5,7931],[99.5,8015],[99.5,8101],[99.5,8182],[99.5,8265],[99.5,8350],[99.5,8431],[99.5,8514],[99.5,8598],[99.5,8682],[99.5,8765],[99.5,8848],[99.5,8931],[99.5,9014],[99.5,9100],[99.5,9181],[99.5,9266],[99.5,9348],[99.5,9431],[99.5,9514],[99.5,9598],[99.5,9682],[99.5,9765],[99.5,9848],[99.5,9931],[99.5,10014],[99.5,10100],[99.5,10182],[99.5,10265],[99.5,10348],[99.5,10431],[99.5,10515],[99.5,10598],[99.5,10683],[99.5,10764],[99.5,10850],[99.5,10931],[99.5,11016],[99.5,11100],[99.5,11181],[99.5,11265],[99.5,11348]]",1186.7033,1196.1502,97.14494876,8.7731,"[{""rating"":97.14494875549049,""responseTime"":8.773099999993974}]",space,8.9018,,1196.1503,Definitely yes,100,1196.1573,,,[],,0,9,9,9,1,audio/Narrative7Situation9.wav,audio/Narrative8Situation9.wav,audio/Narrative5Situation9.wav,audio/Narrative6Situation9.wav,2,3,3,4,,,,,,,,,,,,,,,,,,,,,,,,,,,,,,,,,,,,,,,
,,,,,673f361cb1d555345330ff1b,2025-07-07_23h30.58.936,group3.4_multiperson,2023.2.2,Win32,59.88023952,686c2ebf0248f13bef9af11f,686c9849d85b26e093433b26,,,,,,,,,,,,,,,,,,,,,,,,,,,,,1196.1579,1,audio/Narrative7Situation1.wav,1198.1674,,1198.1676,1254.0552,"[[61.3,3752],[59.2,3832],[59.2,3917],[59.2,3998],[57.8,4083],[54.4,4167],[51,4250],[49.6,4336],[48.1,4415],[47.4,4499],[46,4584],[43.3,4667],[41.8,4749],[41.5,4832],[41.1,4917],[40.6,4999],[39.8,5083],[39.3,5165],[39.3,5248],[39.3,5333],[39.3,5415],[39.3,5499],[39.3,5583],[39.6,5665],[39.6,5749],[39.6,5833],[39.6,5915],[39.6,5999],[39.6,6082],[39.6,6165],[39.5,6249],[39.5,6333],[39.5,6416],[38.7,6501],[38.1,6584],[37.4,6668],[36.5,6751],[36.1,6835],[36.1,6916],[36.1,7000],[36.1,7083],[35.8,7168],[35.5,7251],[35.5,7334],[35.5,7417],[35.5,7499],[35.5,7584],[35.5,7666],[35.5,7749],[34.6,7835],[32.9,7918],[32.6,7999],[32.1,8084],[31.8,8166],[31.8,8250],[31.8,8334],[31.8,8417],[31.8,8499],[31.7,8584],[31.7,8666],[31.7,8749],[31.7,8834],[31.7,8916],[31.7,9000],[31.7,9082],[31.7,9166],[31.7,9250],[31.7,9332],[30.7,9417],[27.7,9501],[27.2,9583],[27,9668],[26.1,9750],[26,9833],[25.8,9916],[25.8,10000],[25.8,10083],[25.8,10165],[25.8,10249],[25.8,10334],[25.8,10417],[25.8,10499],[25.8,10583],[25.8,10666],[25.8,10749],[25.8,10834],[25.8,10915],[25.8,10999],[25.8,11084],[25.8,11166],[25.8,11249],[25.8,11334],[25.8,11416],[25.8,11499],[25.8,11583],[25.8,11666],[25.8,11750],[25.8,11834],[25.8,11916],[25.8,12000],[25.8,12084],[25.8,12166],[25.8,12251],[25.8,12334],[25.8,12417],[25.8,12499],[25.8,12584],[25.8,12666],[25.8,12749],[25.8,12834],[25.8,12916],[25.8,13000],[25.8,13083],[25.8,13166],[25.8,13249],[25.8,13332],[25.8,13416],[25.8,13500],[25.8,13585],[25.8,13666],[25.8,13749],[25.8,13834],[25.8,13916],[25.8,14000],[25.8,14083],[25.8,14166],[25.8,14249],[25.8,14334],[25.8,14417],[25.4,14501],[23.8,14586],[22,14668],[20.6,14751],[19.3,14835],[18.4,14918],[18.2,14999],[18.2,15083],[18.1,15166],[18.1,15249],[18.1,15333],[18.1,15416],[18.1,15501],[18.1,15584],[18.1,15666],[18.1,15749],[18.1,15832],[18.1,15915],[18.1,15999],[18.1,16084],[18.1,16165],[18.1,16249],[18.1,16332],[17.2,16416],[17.1,16501],[17.1,16582],[17.1,16665],[17.1,16749],[17.1,16834],[17.1,16916],[17.1,16999],[17.1,17083],[17.1,17165],[17.1,17249],[17.1,17333],[17.1,17415],[17.1,17498],[17.1,17582],[17.1,17665],[17.1,17749],[17.1,17832],[17.1,17916],[17.1,17999],[17.1,18083],[17.1,18165],[17.1,18249],[17.1,18334],[17.1,18416],[17.1,18500],[17.1,18583],[17.1,18666],[17.1,18750],[17.1,18833],[17.1,18916],[17.1,18999],[17.1,19084],[17.1,19166],[17.1,19249],[17.1,19333],[17.1,19415],[17.1,19500],[17.1,19583],[17.1,19666],[17.1,19749],[17.1,19835],[17.1,19915],[17.1,20000],[17.1,20082],[17.1,20165],[17.1,20249],[17.1,20332],[17.1,20415],[17.1,20503],[17.1,20584],[17.1,20666],[17.1,20749],[17.1,20834],[17.1,20916],[17.1,20999],[17.1,21084],[17.1,21165],[17.1,21250],[17.1,21332],[17.1,21417],[17.1,21499],[17.1,21583],[17.1,21666],[17.1,21749],[17.1,21834],[17.1,21916],[17.1,22000],[17.1,22083],[17.1,22166],[17.1,22249],[17.1,22335],[17.1,22416],[17.1,22500],[17.1,22582],[16.6,22666],[15.9,22751],[15.6,22833],[15,22919],[14.9,23003],[14.7,23085],[14.7,23167],[14.7,23250],[14.7,23334],[14.6,23417],[14.1,23499],[14.1,23583],[14.1,23666],[14.1,23749],[14.1,23834],[14.1,23916],[14.1,24000],[14.1,24084],[14.1,24166],[14.1,24249],[14.1,24334],[14.1,24416],[14.1,24500],[14.1,24585],[14.1,24666],[14.1,24750],[14.1,24834],[14.1,24917],[14.1,25000],[14.1,25084],[14.1,25166],[14.1,25250],[14.1,25333],[14.1,25415],[14.1,25499],[14.1,25584],[14.1,25665],[14.1,25749],[14.1,25834],[14.1,25916],[14.1,26000],[14.1,26084],[14.1,26166],[14.1,26250],[14.1,26334],[14.1,26416],[14.1,26501],[14.1,26585],[14.1,26667],[14.1,26750],[14.1,26835],[14.1,26916],[14.1,27000],[14.1,27084],[14.1,27166],[14.1,27250],[14.1,27335],[14.1,27416],[14.1,27500],[14.1,27584],[14.1,27666],[14.1,27750],[14.1,27834],[14.1,27916],[14.1,28000],[15.7,28086],[19.7,28169],[21.7,28252],[23.1,28332],[24.4,28417],[25,28501],[52.6,29334],[56.1,29418],[59.5,29503],[61.1,29585],[61.3,29667],[62.9,29753],[65.1,29836],[65.1,29916],[65.2,30000],[66.1,30086],[66.1,30167],[66.1,30250],[66.3,30335],[66.3,30416],[67.4,30502],[68,30584],[68,30667],[68,30750],[68,30834],[68,30917],[68,31000],[68,31085],[68,31166],[68,31249],[67.3,31334],[66.7,31418],[66.5,32336],[68.6,32418],[69.5,32501],[69.6,32585],[69.6,32666],[69.6,32750],[69.6,32834],[69.6,32916],[69.6,33000],[68.2,33085],[67.9,33166],[69,34000],[70.6,34083],[71.2,34168],[75,34251],[77.2,34335],[78.6,34418],[80,34501],[80.7,34582],[81.8,34667],[82.2,34749],[82.2,34833],[82.2,34916],[82.2,34999],[82.2,35083],[82.2,35167],[82.2,35249],[82.2,35333],[82.2,35416],[82.2,35499],[82.2,35583],[82.2,35666],[82.2,35749],[82.2,35833],[82.2,35916],[82.2,35999],[82.2,36083],[82.2,36166],[82.2,36249],[82.2,36333],[82.2,36417],[82.2,36500],[82.2,36584],[82.2,36666],[82.2,36750],[82.2,36834],[82.2,36917],[82.2,37000],[82.2,37084],[82.2,37166],[82.2,37250],[82.2,37333],[82.2,37416],[82.2,37500],[82.2,37584],[82.2,37667],[82.2,37749],[82.2,37834],[82.2,37916],[82.2,37999],[82.2,38084],[82.2,38166],[82.2,38249],[82.2,38332],[82.2,38416],[82.2,38499],[82.2,38583],[82.2,38667],[82.2,38749],[82.2,38833],[82.2,38916],[82.2,38999],[82.2,39085],[82.2,39166],[82.2,39249],[82.2,39333],[82.2,39416],[82.2,39500],[82.2,39583],[82.2,39667],[82.2,39750],[82.2,39834],[82.2,39916],[82.2,39999],[82.2,40083],[82.2,40166],[82.2,40250],[82.2,40334],[82.2,40416],[82.2,40500],[82.2,40584],[82.2,40667],[82.2,40750],[82.2,40834],[82.2,40917],[82.2,41000],[82.2,41084],[82.2,41166],[82.2,41250],[82.2,41334],[82.2,41416],[82.2,41500],[82.2,41584],[82.2,41668],[82.2,41750],[82.2,41834],[82.2,41916],[82.2,42000],[82.2,42084],[82.2,42166],[82.2,42252],[82.2,42334],[83.4,42418],[85.6,42502],[86.9,42586],[88.1,42669],[90,42754],[91.3,42837],[91.4,42917],[91.9,43002],[92.3,43087],[92.5,43166],[92.5,43250],[92.5,43334],[92.5,43416],[92.5,43500],[92.5,43584],[92.5,43667],[92.5,43751],[92.5,43834],[92.5,43916],[92.5,44000],[92.5,44085],[92.5,44167],[92.5,44250],[92.5,44334],[92.5,44417],[92.5,44500],[92.5,44585],[92.5,44667],[92.5,44752],[92.5,44834],[92.5,44917],[92.5,45000],[92.5,45084],[92.5,45167],[92.5,45250],[92.5,45334],[92.5,45417],[92.5,45500],[92.5,45585],[92.5,45668],[92.5,45751],[92.5,45834],[92.5,45917],[92.5,46000],[92.5,46084],[92.5,46167],[92.5,46250],[92.5,46334],[92.5,46416],[92.5,46500],[92.5,46585],[92.5,46668],[92.5,46750],[92.5,46834],[92.5,46918],[92.5,47000],[92.5,47084],[92.5,47167],[92.5,47250],[92.5,47334],[92.5,47417],[92.5,47500],[92.5,47584],[92.5,47667],[92.5,47751],[92.5,47836],[92.5,47917],[92.5,48000],[92.5,48084],[92.5,48167],[92.5,48250],[92.5,48334],[92.5,48417],[92.5,48500],[92.5,48585],[92.5,48666],[92.5,48751],[92.5,48834],[92.5,48917],[92.5,49000],[92.5,49085],[92.5,49167],[92.5,49250],[92.5,49333],[92.5,49415],[92.5,49499],[92.5,49582],[92.5,49665],[92.5,49750],[92.5,49832],[92.5,49915],[92.5,49999],[92.5,50082],[92.5,50165],[92.5,50249],[92.5,50333],[92.5,50416],[92.5,50500],[92.5,50583],[92.5,50666],[92.5,50750],[92.5,50833],[92.5,50916],[92.5,51000],[92.5,51083],[92.5,51166],[92.5,51249],[92.5,51333],[92.5,51416],[92.5,51499],[92.5,51583],[92.5,51666],[92.5,51749],[92.5,51832],[92.5,51916],[92.5,51999],[92.5,52083],[92.5,52166],[92.5,52249],[92.5,52332],[92.5,52416],[92.5,52499],[92.5,52582],[92.5,52666],[92.5,52749],[92.5,52833],[92.5,52916],[92.5,52999],[92.5,53083],[92.5,53166],[92.5,53249],[92.5,53332],[92.5,53416],[92.5,53499],[92.5,53583],[92.5,53666],[92.5,53749],[92.5,53833],[92.5,53916],[92.5,53999],[92.5,54082],[92.5,54166],[92.6,54250],[93.8,54333],[95.8,54416],[96.7,54499],[97,54583],[97.4,54666],[100,54749],[100,54833],[100,54916],[100,54999],[100,55082],[100,55166],[100,55249],[100,55333],[100,55416]]",1254.0559,1258.4028,98.02342606,1.8739,"[{""rating"":98.02342606149341,""responseTime"":1.8738999999911812}]",space,3.8086,,1258.4031,Not at all,0,1258.412,,,[],,0,10,10,10,1,audio/Narrative8Situation1.wav,audio/Narrative7Situation1.wav,audio/Narrative6Situation1.wav,audio/Narrative5Situation1.wav,5,2,2,5,,,,,,,,,,,,,,,,,,,,,,,,,,,,,,,,,,,,,,,
,,,,,673f361cb1d555345330ff1b,2025-07-07_23h30.58.936,group3.4_multiperson,2023.2.2,Win32,59.88023952,686c2ebf0248f13bef9af11f,686c9849d85b26e093433b26,,,,,,,,,,,,,,,,,,,,,,,,,,,,,1258.4128,1,audio/Narrative7Situation2.wav,1261.4189,,1261.419,1268.92,"[[96.6,2335],[94.4,2419],[92.3,2501],[91,2587],[88.7,2670],[88.1,2749],[87.8,2835],[87.6,2918],[86.3,3001],[81.8,3085],[80.2,3168],[80.2,3251],[80.3,3334],[80.3,3416],[80.3,3499],[81,3583],[81,3667],[81,3750],[81,3834],[81,3916],[81.2,4001],[81.2,4083],[81.2,4166],[81.2,4250],[81.2,4334],[81.2,4416],[81.2,4500],[81.2,4583],[81.2,4667],[81.2,4749],[81.2,4833],[81.2,4916],[81.2,5000],[81.2,5084],[81.2,5166],[81.2,5250],[81.2,5333],[81.2,5417],[81.2,5500],[81.2,5584],[81.2,5668],[81.2,5750],[81.2,5833],[81.2,5916],[81.2,6000],[81.2,6083],[81.2,6166],[81.2,6250],[81.2,6333],[81.2,6416],[81.2,6500],[81.2,6584],[81.2,6668],[81.2,6750],[81.2,6833],[81.2,6916],[81.2,7000],[81.2,7083],[81.2,7166],[81.2,7250],[81.2,7333],[81.2,7417],[81.2,7499]]",1268.9205,1275.0546,98.75549048,5.8725,"[{""rating"":90.99560761346999,""responseTime"":3.860500000000002},{""rating"":98.75549048316252,""responseTime"":5.872499999999945}]",space,5.587,,1275.0548,Partially,50,1275.0684,,,[],,0,11,11,11,1,audio/Narrative8Situation2.wav,audio/Narrative7Situation2.wav,audio/Narrative6Situation2.wav,audio/Narrative5Situation2.wav,3,3,3,3,,,,,,,,,,,,,,,,,,,,,,,,,,,,,,,,,,,,,,,
,,,,,673f361cb1d555345330ff1b,2025-07-07_23h30.58.936,group3.4_multiperson,2023.2.2,Win32,59.88023952,686c2ebf0248f13bef9af11f,686c9849d85b26e093433b26,,,,,,,,,,,,,,,,,,,,,,,,,,,,,1275.07,1,audio/Narrative7Situation3.wav,1283.0856,,1283.0857,1292.3541,"[[90,4586],[64.3,5834],[64.3,5919],[64.6,6002],[64.8,6083],[64.8,6168],[64.8,6250],[64.8,6336],[63,6419],[60.8,6501],[60.2,6586],[60,6666],[60,6750],[60,6834],[64.2,6919],[66.3,7002],[67.9,7086],[70.9,7169],[74.2,7253],[75.8,7335],[77.1,7418],[79.3,7502],[81,7586],[83.2,7669],[84.4,7752],[84.8,7835],[84.8,7917],[84.8,8001],[74.2,8085],[58.2,8168],[48.7,8252],[45.8,8335],[44.9,8421],[42.1,8502],[40,8586],[38.4,8669],[37.3,8750],[37.1,8833],[37.1,8918],[37.1,9000],[37.1,9084],[37.1,9167],[37.1,9250]]",1292.3545,1295.4908,35.9443631,2.8034,"[{""rating"":35.94436310395315,""responseTime"":2.8033999999909156}]",space,2.6025,,1295.4911,Not at all,0,1295.4984,,,[],,0,12,12,12,1,audio/Narrative8Situation3.wav,audio/Narrative7Situation3.wav,audio/Narrative6Situation3.wav,audio/Narrative5Situation3.wav,4,8,5,3,,,,,,,,,,,,,,,,,,,,,,,,,,,,,,,,,,,,,,,
,,,,,673f361cb1d555345330ff1b,2025-07-07_23h30.58.936,group3.4_multiperson,2023.2.2,Win32,59.88023952,686c2ebf0248f13bef9af11f,686c9849d85b26e093433b26,,,,,,,,,,,,,,,,,,,,,,,,,,,,,1295.4991,1,audio/Narrative7Situation4.wav,1298.5024,,1298.5028,1310.2191,"[[30.5,4085],[21.2,4169],[20.4,4250],[20.4,4333],[20.4,4417],[20.4,4501],[20.4,4584],[20.4,4667],[20.4,4750],[20.4,4834],[20.4,4917],[20.4,5000],[20.4,5083],[20.4,5167],[20.4,5250],[20.4,5333],[20.4,5417],[20.4,5501],[20.4,5583],[20.4,5665],[20.4,5750],[20.7,5834],[20.7,5919],[20.7,6002],[20.7,6086],[20.7,6169],[20.6,6252],[15.4,6335],[12.5,6420],[11.1,6501],[10.9,6583],[10.9,6667],[10.9,6750],[10.9,6834],[10.5,6917],[10.5,7000],[10.2,7082],[10.2,7165],[10,7249],[9.9,7332],[9.9,7415],[9.9,7499],[9.9,7582],[9.9,7666],[9.9,7749],[9.9,7834],[9.9,7917],[9.4,8001],[9.2,8083],[9,8166],[9,8250],[9,8333],[9,8417],[9,8502],[9,8584],[9,8668],[9,8750],[9,8836],[9,8916],[9,8999],[9,9082],[9,9166],[9,9249],[9,9333],[9,9416],[9,9500],[9,9583],[9,9666],[9,9749],[9,9832],[9,9916],[9,10000],[9,10082],[9,10165],[9,10249],[9,10332],[9,10416],[9,10499],[9,10583],[9,10665],[9,10749],[9,10832],[9,10915],[9,11000],[9,11082],[9,11166],[9,11249],[9,11332],[9,11416],[9,11499],[9,11582],[9,11666]]",1310.2194,1312.2357,1.098096633,1.6132,"[{""rating"":1.098096632503659,""responseTime"":1.613200000002962}]",space,1.4929,,1312.2358,Not at all,0,1312.2386,,,[],,0,13,13,13,1,audio/Narrative8Situation4.wav,audio/Narrative7Situation4.wav,audio/Narrative6Situation4.wav,audio/Narrative5Situation4.wav,3,3,2,1,,,,,,,,,,,,,,,,,,,,,,,,,,,,,,,,,,,,,,,
,,,,,673f361cb1d555345330ff1b,2025-07-07_23h30.58.936,group3.4_multiperson,2023.2.2,Win32,59.88023952,686c2ebf0248f13bef9af11f,686c9849d85b26e093433b26,,,,,,,,,,,,,,,,,,,,,,,,,,,,,1312.2391,1,audio/Narrative7Situation5.wav,1317.2528,,1317.2531,1325.7381,"[[3.7,3251],[9.7,3336],[12.1,3418],[13.1,3501],[13.5,3583],[13.7,3668],[13.7,3750],[13.7,3834],[13.7,3918],[13.7,4000],[14,4085],[14.4,4166],[15.3,4252],[17.1,4335],[19.1,4419],[20.7,4502],[21.3,4584],[21.4,4668],[22.6,4752],[24.2,4836],[25.1,4919],[25.8,5001],[26.3,5083],[26.3,5166],[26.3,5250],[26.3,5335],[26.3,5418],[26.3,5500],[26.3,5584],[26.3,5669],[26.3,5750],[26.3,5833],[26.3,5916],[26.3,6000],[26.3,6083],[26.3,6168],[26.3,6250],[26.3,6335],[26,6419],[25,6502],[23.2,6586],[22.8,6666],[22.5,6750],[22.3,6833],[21.4,6918],[21.3,7001],[21.3,7084],[21.3,7168],[21.3,7250],[21.3,7334],[21.3,7419],[21.2,7501],[21.2,7583],[21.2,7667],[21.2,7750],[21.2,7833],[21.2,7917],[21.2,8000],[21.2,8084],[21.2,8169],[21.2,8250],[21.2,8334],[21.2,8418]]",1325.7387,1328.4931,21.0102489,2.752,"[{""rating"":21.010248901903367,""responseTime"":2.75200000000018}]",space,0.2364,,1328.4933,Not at all,0,1328.5,,,[],,0,14,14,14,1,audio/Narrative8Situation5.wav,audio/Narrative7Situation5.wav,audio/Narrative6Situation5.wav,audio/Narrative5Situation5.wav,2,5,2,5,,,,,,,,,,,,,,,,,,,,,,,,,,,,,,,,,,,,,,,
,,,,,673f361cb1d555345330ff1b,2025-07-07_23h30.58.936,group3.4_multiperson,2023.2.2,Win32,59.88023952,686c2ebf0248f13bef9af11f,686c9849d85b26e093433b26,,,,,,,,,,,,,,,,,,,,,,,,,,,,,1328.5011,1,audio/Narrative7Situation6.wav,1331.5072,,1331.5074,1341.4918,"[[26.4,2752],[37,2836],[65.8,3584],[67,3669],[67,3750],[68.6,3837],[69.3,3917],[70.4,4013],[72.4,4097],[75.3,4184],[77.2,4264],[77.4,4346],[77.4,4429],[77.4,4512],[77.4,4596],[77.4,4679],[83.1,4765],[88.5,4848],[93.9,4931],[96,5014],[96.1,5096],[97,5181],[97.1,5262],[97.1,5346],[97.3,5431],[97.4,5512],[97.7,5597],[98.9,5680],[98.9,5763],[98.9,5846],[98.9,5930],[98.9,6012],[98.9,6096],[98.9,6179],[98.9,6262],[98.9,6346],[98.9,6429],[98.9,6514],[98.9,6596],[98.9,6679],[98.9,6762],[98.9,6846],[98.9,6931],[98.9,7017],[98.9,7101],[98.9,7183],[98.9,7269],[98.9,7350],[98.9,7435],[98.9,7517],[98.9,7600],[98.9,7685],[98.9,7766],[98.9,7851],[98.9,7934],[98.9,8018],[98.9,8099],[98.9,8185],[98.9,8265],[98.9,8348],[98.9,8432],[98.9,8515],[98.9,8599],[98.9,8682],[98.9,8766],[98.9,8848],[98.9,8932],[98.9,9015],[98.9,9099],[98.9,9182],[98.9,9266],[98.9,9351],[98.9,9432],[98.9,9516],[98.9,9599],[98.9,9684],[98.9,9766],[98.9,9849],[98.9,9934]]",1341.4921,1343.0086,99.04831625,1.266,"[{""rating"":99.04831625183016,""responseTime"":1.2660000000000764}]",space,0.9685,,1343.0088,Partially,50,1343.0173,,,[],,0,15,15,15,1,audio/Narrative8Situation6.wav,audio/Narrative7Situation6.wav,audio/Narrative6Situation6.wav,audio/Narrative5Situation6.wav,2,3,2,3,,,,,,,,,,,,,,,,,,,,,,,,,,,,,,,,,,,,,,,
,,,,,673f361cb1d555345330ff1b,2025-07-07_23h30.58.936,group3.4_multiperson,2023.2.2,Win32,59.88023952,686c2ebf0248f13bef9af11f,686c9849d85b26e093433b26,,,,,,,,,,,,,,,,,,,,,,,,,,,,,1343.0181,1,audio/Narrative7Situation7.wav,1348.024,,1348.0242,1365.2092,"[[93.8,1333],[80.5,1417],[74,1501],[73.6,1582],[73.6,1666],[74.3,1750],[78.4,1833],[81.9,1916],[86,2003],[90.6,2084],[93.8,2169],[96.7,2251],[99.3,2336],[99.8,2416],[99.8,2500],[99.8,2583],[99.8,2667],[99.8,2749],[99.8,2836],[99.8,2933],[99.8,3012],[99.8,3098],[99.8,3178],[99.8,3264],[99.8,3345],[99.8,3432],[99.8,3512],[99.8,3595],[99.8,3679],[99.8,3768],[99.8,3846],[99.8,3932],[99.8,4012],[99.8,4096],[99.8,4184],[99.8,4262],[99.8,4346],[99.8,4433],[99.8,4512],[99.8,4596],[99.8,4679],[99.8,4767],[99.8,4846],[99.8,4932],[99.8,5016],[99.8,5096],[99.8,5183],[99.8,5267],[99.8,5346],[96,5435],[93.3,5518],[93.2,5596],[93.2,5682],[93.2,5767],[93.2,5849],[93.5,5929],[93.6,6019],[94.4,6101],[94.7,6184],[94.9,6265],[95.2,6350],[95.5,6433],[95.7,6517],[95.7,6596],[95.7,6683],[95.8,6762],[95.8,6851],[95.8,6933],[95.8,7016],[96,7101],[96.3,7183],[96.4,7268],[96.6,7350],[96.6,7433],[96.7,7518],[96.7,7596],[96.7,7684],[96.7,7763],[96.7,7850],[96.7,7929],[96.7,8013],[96.7,8096],[96.7,8183],[96.7,8267],[96.7,8350],[96.7,8459],[96.7,8529],[96.7,8613],[96.7,8700],[96.7,8783],[96.7,8867],[96.7,8950],[96.7,9030],[96.7,9113],[96.7,9197],[96.7,9285],[96.7,9367],[96.7,9450],[96.7,9530],[96.7,9617],[96.7,9700],[96.7,9784],[96.7,9862],[97,9952],[97.7,10035],[98.2,10121],[98.6,10201],[98.8,10285],[99,10366],[99.3,10450],[99.3,10529],[99.3,10614],[99.3,10697],[99.3,10780],[99.3,10867],[99.3,10952],[99.3,11033],[99.3,11117],[99.3,11200],[99.3,11279],[99.3,11363],[99.3,11451],[99.3,11534],[99.3,11612],[99.3,11700],[99.3,11784],[99.3,11863],[99.3,11948],[99.3,12035],[99.3,12118],[99.3,12196],[99.3,12284],[99.3,12367],[99.3,12451],[99.3,12533],[99.3,12613],[99.3,12700],[99.3,12783],[99.3,12866],[99.3,12947],[99.3,13034],[99.3,13113],[99.3,13200],[99.3,13279],[99.3,13363],[99.3,13450],[99.3,13534],[99.3,13617],[99.3,13696],[99.3,13783],[99.3,13868],[99.3,13947],[99.3,14030],[99.3,14116],[99.3,14196],[99.3,14283],[99.3,14367],[99.3,14450],[99.3,14529],[99.3,14615],[99.3,14695],[99.3,14783],[99.3,14862],[99.3,14949],[99.3,15029],[99.3,15116],[99.3,15196],[99.3,15283],[99.3,15366],[99.3,15446],[99.3,15529],[99.3,15613],[99.3,15697],[99.3,15783],[99.3,15866],[99.3,15950],[99.3,16029],[99.3,16117],[99.3,16197],[99.3,16284],[99.3,16366],[99.3,16450],[99.3,16530],[99.3,16618],[99.3,16700]]",1365.2096,1367.8053,98.6090776,2.5864,"[{""rating"":98.6090775988287,""responseTime"":1.637800000012021},{""rating"":98.6090775988287,""responseTime"":2.5864000000060514}]",space,2.056,,1367.8056,Not at all,0,1367.8142,,,[],,0,16,16,16,1,audio/Narrative8Situation7.wav,audio/Narrative7Situation7.wav,audio/Narrative6Situation7.wav,audio/Narrative5Situation7.wav,3,5,5,4,,,,,,,,,,,,,,,,,,,,,,,,,,,,,,,,,,,,,,,
,,,,,673f361cb1d555345330ff1b,2025-07-07_23h30.58.936,group3.4_multiperson,2023.2.2,Win32,59.88023952,686c2ebf0248f13bef9af11f,686c9849d85b26e093433b26,,,,,,,,,,,,,,,,,,,,,,,,,,,,,1367.8148,1,audio/Narrative7Situation8.wav,1369.8201,,1369.8202,1379.8416,"[[98,5001],[87.5,5088],[43.1,5671],[44.7,5753],[45.9,5838],[47.2,5920],[48.4,6004],[49.6,6087],[50.1,6171],[50.3,6250],[50.4,6337],[50.4,6416],[50.4,6500],[50.4,6587],[50.4,6670],[50.4,6753],[50.4,6833],[50.4,6920],[50.4,7002],[50.4,7085],[50.4,7169],[50.4,7250],[50.4,7333],[50.4,7416],[50.4,7503],[50.4,7586],[50.4,7669],[50.4,7752],[50.4,7836],[50.4,7919],[50.4,8000],[50.4,8086],[50.4,8166],[50.4,8254],[50.4,8336],[50.4,8417],[50.4,8504],[50.4,8584],[50.4,8667],[50.4,8750],[50.4,8837],[50.4,8920],[50.4,9005],[50.4,9087],[50.4,9167],[50.4,9250],[50.4,9337],[50.4,9417],[50.4,9504],[50.4,9584],[50.4,9672],[50.4,9754],[50.4,9836],[50.4,9920],[50.4,10000]]",1379.8418,1383.2098,71.22986823,3.1506,"[{""rating"":71.2298682284041,""responseTime"":3.1505999999940286}]",space,2.8293,,1383.2101,Definitely yes,100,1388.2881,71.22986823,4.7896,"[{""rating"":71.2298682284041,""responseTime"":4.789600000008932}]",space,0,17,17,17,1,audio/Narrative8Situation8.wav,audio/Narrative7Situation8.wav,audio/Narrative6Situation8.wav,audio/Narrative5Situation8.wav,3,2,5,3,,,4.5395,,,,,,,,,,,,,,,,,,,,,,,,,,,,,,,,,,,,
,,,,,673f361cb1d555345330ff1b,2025-07-07_23h30.58.936,group3.4_multiperson,2023.2.2,Win32,59.88023952,686c2ebf0248f13bef9af11f,686c9849d85b26e093433b26,,,,,,,,,,,,,,,,,,,,,,,,,,,,,1388.2893,1,audio/Narrative7Situation9.wav,1390.2903,,1390.2906,1398.9054,"[[72.1,2252],[74,2336],[76.6,2421],[83.2,2505],[89.5,2586],[94.4,2672]]",1398.9058,1403.2456,98.75549048,3.986,"[{""rating"":98.75549048316252,""responseTime"":3.9860000000001037}]",space,3.7859,,1403.2457,Definitely yes,100,1403.2525,,,[],,0,18,18,18,1,audio/Narrative8Situation9.wav,audio/Narrative7Situation9.wav,audio/Narrative6Situation9.wav,audio/Narrative5Situation9.wav,3,2,4,3,,,,,,,,,,,,,,,,,,,,,,,,,,,,,,,,,,,,,,,
,,,,,673f361cb1d555345330ff1b,2025-07-07_23h30.58.936,group3.4_multiperson,2023.2.2,Win32,59.88023952,686c2ebf0248f13bef9af11f,686c9849d85b26e093433b26,,,,,,,,,,,,,,,,,,,,,,,,,,,1462.4148,1464.9901,1465.0286,2,audio/Narrative13Situation2.wav,1465.0287,,1465.0287,1494.7949,"[[100,10501],[100,10582],[55.3,11833],[40.5,11919],[33.3,12001],[32.4,12083],[32.1,12162],[31,12252],[31,12330],[31.1,12411],[31.1,12495],[31.1,12582],[31.1,12661],[31.1,12749],[31.1,12828],[31.1,12915],[31.1,12998],[31.1,13082],[31.1,13161],[31.1,13249],[31.1,13328],[31.1,13415],[31.1,13498],[31.1,13583],[31.1,13661],[31.1,13745],[31.1,13828],[31.1,13911],[31.1,13999],[31.1,14079],[31.1,14165],[31.1,14245],[31.1,14328],[31.1,14416],[31.1,14495],[31.1,14582],[31.1,14661],[31.1,14750],[31.1,14832],[31.1,14916],[31.1,14999],[31.1,15082],[31.1,15161],[31.1,15245],[31.1,15328],[31.1,15411],[31.1,15495],[31.1,15578],[31.1,15661],[31.1,15745],[31.1,15829],[31.1,15912],[31.1,15996],[31.1,16080],[31.1,16161],[31.1,16250],[31.1,16332],[31.1,16417],[31.1,16495],[31.1,16578],[31.1,16661],[31.1,16750],[31.1,16830],[31.1,16911],[31.1,16995],[31.1,17083],[31.1,17165],[31.1,17249],[31.1,17332],[31.1,17411],[31.1,17499],[31.1,17578],[31.1,17665],[31.1,17745],[31.1,17832],[31.1,17916],[31.1,17999],[31.1,18080],[31.1,18165],[31.1,18245],[31.1,18329],[31.1,18411],[31.1,18500],[31.1,18579],[31.1,18662],[31.1,18745],[31.1,18833],[31.1,18911],[31.1,18995],[31.1,19079],[31.1,19165],[31.1,19245],[31.1,19332],[31.1,19415],[31.1,19499],[31.1,19581],[31.1,19666],[31.1,19745],[31.1,19828],[31.1,19912],[31.1,20001],[31.1,20082],[31.1,20161],[31.1,20250],[31.1,20328],[31.1,20415],[31.1,20495],[31.1,20584],[31.1,20661],[31.1,20749],[31.1,20830],[31.1,20916],[31.1,20996],[31.1,21082],[30.7,21165],[30.7,21245],[30.7,21332],[28,21418],[26.4,21501],[25.4,21584],[25.3,21665],[24.5,21749],[23.6,21831],[22.5,21916],[21.9,21999],[21.9,22078],[21.9,22165],[21.9,22249],[21.9,22331],[21.9,22410],[21.9,22498],[21.9,22582],[21.9,22660],[21.9,22744],[21.9,22831],[21.9,22915],[21.9,22994],[21.9,23081],[21.9,23161],[21.9,23248],[21.9,23331],[21.9,23410],[21.9,23494],[21.9,23577],[21.9,23661],[21.9,23748],[21.9,23827],[21.9,23915],[21.9,23994],[21.9,24081],[21.9,24163],[21.9,24247],[21.9,24327],[21.9,24415],[21.9,24494],[21.9,24581],[21.9,24660],[21.9,24748],[21.9,24827],[21.9,24913],[21.9,24997],[21.9,25080],[21.9,25164],[21.9,25247],[21.9,25328],[21.9,25414],[21.9,25497],[21.9,25581],[21.9,25661],[21.9,25744],[21.9,25827],[21.9,25914],[23.5,25999],[24.4,26081],[24.8,26164],[25,26244],[25,26327],[25,26414],[25,26497],[25,26581],[25.8,26665],[29.8,26748],[31,26827],[31,26911],[31,26998],[31,27081],[31,27164],[31,27247],[31,27328],[31,27411],[31,27497],[31,27581],[31,27663],[28.8,27749],[26.9,27832],[26.6,27913],[26.6,27994],[26.6,28077],[26.6,28161],[26.6,28247],[26.6,28327],[26.6,28414],[26.6,28497],[26.6,28581],[26.6,28661],[26.6,28748],[26.6,28828],[26.6,28911],[26.6,28995],[26.6,29078],[26.6,29164],[26.6,29248],[26.6,29331],[26.6,29415],[26.6,29498],[26.6,29581],[26.6,29664],[26.6,29744]]",1494.7955,1494.8012,,,[],,,,1494.8013,Partially,50,1494.8109,,,[],,0,0,0,0,1,audio/Narrative13Situation2.wav,audio/Narrative13Situation2.wav,audio/Narrative13Situation2.wav,audio/Narrative13Situation2.wav,2,2,2,2,,,,,1403.2554,1462.4129,space,58.627,,,,,,,,,,,,,,,,,,,,,,,,,,,,,,,
,,,,,673f361cb1d555345330ff1b,2025-07-07_23h30.58.936,group3.4_multiperson,2023.2.2,Win32,59.88023952,686c2ebf0248f13bef9af11f,686c9849d85b26e093433b26,,,,,,,,,,,,,,,,,,,,,,,,,,,,,1494.8116,2,audio/Narrative6Situation1.wav,1496.8246,,1496.8247,1523.3962,"[[20.3,669],[18.7,753],[19.8,838],[20.9,919],[21,1003],[21,1086],[21,1169],[21,1252],[21,1336],[21,1423],[21.6,1502],[21.6,1586],[21.6,1669],[21.6,1752],[21.6,1835],[21.6,1918],[21.6,2002],[21.6,2085],[21.6,2169],[21.6,2252],[21.6,2335],[21.6,2418],[21.6,2502],[21.6,2585],[21.6,2668],[21.6,2751],[21.6,2836],[21.6,2919],[21.6,3002],[21.6,3086],[21.6,3169],[21.6,3254],[21.6,3336],[21.6,3420],[21.6,3503],[21.6,3586],[21.6,3669],[21.6,3753],[21.6,3836],[21.6,3920],[21.6,4003],[21.6,4086],[21.6,4169],[21.6,4252],[21.6,4336],[21.6,4419],[21.6,4504],[21.6,4585],[21.6,4671],[21.6,4752],[21.6,4836],[21.6,4920],[21.6,5003],[21.6,5086],[21.6,5170],[21.6,5254],[21.6,5336],[21.6,5419],[21.6,5503],[21.6,5586],[21.6,5685],[21.6,5765],[21.6,5851],[21.6,5935],[21.6,6019],[21.6,6098],[21.6,6182],[21.6,6266],[21.6,6349],[21.6,6432],[21.6,6518],[21.6,6603],[21.6,6682],[21.6,6766],[21.6,6852],[21.6,6935],[21.6,7019],[21.6,7102],[21.6,7185],[21.6,7268],[21.6,7348],[21.6,7435],[21.6,7515],[21.6,7602],[21.6,7682],[21.6,7769],[21.6,7849],[21.6,7935],[21.6,8015],[21.6,8099],[21.6,8185],[21.6,8269],[21.6,8353],[21.6,8436],[21.6,8516],[21.6,8599],[21.6,8685],[21.6,8767],[21.6,8849],[21.6,8935],[21.6,9016],[21.6,9102],[21.6,9182],[18.7,9272],[14.3,9355],[37.7,10939],[37.8,11020],[37.1,12442],[36.7,12520],[35.4,12606],[35.4,12686],[35.2,12770],[35.2,12849],[35.2,12938],[35.2,13019],[35.4,13103],[35.7,13183],[36.4,13272],[37.1,13355],[37.3,13433],[37.3,13516],[37.3,13603],[37.3,13703],[37.3,13785],[37.7,13872],[38,13953],[39,14039],[40.5,14121],[44,14207],[57.8,15138],[60.5,15222],[61.9,15303],[61.9,15387],[61.9,15466],[61.9,15549],[61.9,15634],[61.9,15716],[61.9,15799],[61.9,15887],[62,15970],[62,16050],[62,16136],[62,16218],[62,16303],[62,16386],[62,16466],[62,16550],[62,16637],[62,16720],[62,16800],[62,16886],[59.7,16974],[58.2,17051],[57.2,17139],[56.9,17217],[56,17306],[56,17386],[56,17471],[56,17554],[56,17634],[56,17720],[56,17800],[54.1,17888],[53.1,17974],[52.9,18053],[52.9,18133],[52.9,18220],[52.9,18300],[52.9,18388],[52.9,18467],[52.9,18554],[52.9,18637],[52.9,18720],[52.6,18806],[52,18889],[49.7,18975],[44.7,19055],[41.5,19141],[40.2,19222],[39.3,19307],[37.4,19403],[37.3,19483],[37.3,19567],[37.3,19666],[37.3,19738],[37.3,19820],[37.3,19905],[37.3,19987],[37.3,20071],[37.3,20155],[37.3,20238],[37.3,20320],[37.3,20404],[37.3,20489],[37.3,20571],[37.3,20654],[37.3,20737],[37.3,20822],[37.3,20903],[37.3,20989],[37.3,21070],[37.4,21156],[38,21239],[40.3,21324],[44.6,21407],[52.5,21493],[95.7,22739],[95.7,22824],[92,22906],[90,22991],[90,23071],[90,23152],[89.7,23236],[89.7,23320],[89.7,23403],[89.7,23488],[89.7,23570],[89.7,23655],[89.7,23737],[89.7,23821],[89.7,23904],[89.7,23987],[89.7,24070],[89.7,24154],[89.8,24239],[92.3,24324],[93.8,24406],[94.1,24490],[94.4,24570],[97.6,24656],[100,24738],[100,24821],[100,24903],[100,24987],[100,25070],[100,25154],[100,25237],[100,25320],[100,25403],[100,25486],[100,25569],[100,25652],[100,25736],[100,25819],[100,25904],[100,25987],[100,26070],[100,26153],[100,26237],[100,26320],[100,26403],[100,26487],[100,26571]]",1523.3965,1526.0812,95.68081991,2.2828,"[{""rating"":95.68081991215227,""responseTime"":2.2828000000117754}]",space,2.1364,,1526.0815,Definitely yes,100,1526.0958,,,[],,0,1,1,1,1,audio/Narrative7Situation1.wav,audio/Narrative8Situation1.wav,audio/Narrative5Situation1.wav,audio/Narrative6Situation1.wav,2,5,5,2,,,,,,,,,,,,,,,,,,,,,,,,,,,,,,,,,,,,,,,
,,,,,673f361cb1d555345330ff1b,2025-07-07_23h30.58.936,group3.4_multiperson,2023.2.2,Win32,59.88023952,686c2ebf0248f13bef9af11f,686c9849d85b26e093433b26,,,,,,,,,,,,,,,,,,,,,,,,,,,,,1526.0967,2,audio/Narrative6Situation2.wav,1529.11,,1529.1101,1557.6263,"[[95.4,1087],[92.2,1170],[91.6,1254],[90.7,1340],[83.1,2504],[85.4,2588],[88.7,2671],[90,2755],[91.6,2838],[92.6,2922],[94.2,3004],[96.6,3089],[96.7,3169],[96.7,3248],[96.7,3336],[96.7,3419],[96.7,3502],[96.9,3587],[96.9,3668],[96.9,3751],[96.9,3835],[96.9,3919],[96.9,4001],[96.9,4085],[96.9,4168],[96.9,4252],[96.9,4335],[96.9,4418],[96.9,4500],[96.9,4584],[96.9,4667],[96.9,4750],[96.9,4834],[96.9,4917],[96.9,5001],[96.9,5084],[96.9,5168],[96.9,5250],[96.9,5335],[96.9,5423],[96.9,5501],[96.9,5586],[96.9,5668],[96.9,5751],[96.9,5835],[96.9,5918],[96.9,6001],[96.9,6085],[96.9,6168],[96.9,6251],[96.9,6335],[96.9,6418],[96.9,6501],[96.9,6585],[96.9,6668],[96.9,6751],[96.9,6835],[96.9,6918],[96.9,7002],[96.9,7085],[96.9,7170],[96.9,7251],[96.9,7337],[96.9,7418],[96.9,7503],[96.9,7585],[96.9,7670],[96.9,7752],[96.9,7837],[96.9,7919],[96.9,8002],[96.9,8085],[96.9,8170],[96.9,8252],[96.9,8335],[96.9,8420],[96.9,8502],[96.9,8585],[96.9,8669],[96.9,8752],[96.9,8836],[96.9,8919],[96.9,9002],[96.9,9085],[96.9,9169],[96.9,9252],[96.9,9335],[96.9,9420],[96.9,9502],[96.9,9585],[96.9,9669],[96.9,9754],[96.9,9835],[96.9,9919],[96.9,10002],[96.9,10086],[96.9,10169],[96.9,10252],[96.9,10336],[96.9,10420],[96.9,10502],[96.9,10585],[96.9,10669],[96.9,10752],[96.9,10836],[96.9,10919],[96.9,11002],[96.9,11085],[96.9,11169],[96.9,11252],[96.9,11336],[96.9,11419],[96.9,11504],[96.9,11585],[96.9,11670],[96.9,11752],[96.9,11837],[96.9,11919],[96.9,12004],[96.9,12086],[96.9,12170],[96.9,12252],[96.9,12337],[96.9,12419],[96.9,12504],[96.9,12585],[96.9,12669],[96.9,12752],[96.9,12837],[96.9,12919],[96.9,13002],[96.9,13085],[96.9,13171],[96.9,13252],[96.9,13338],[96.9,13419],[96.9,13505],[96.9,13585],[96.9,13670],[96.9,13752],[96.9,13838],[96.9,13919],[96.9,14003],[96.9,14085],[96.9,14170],[96.9,14252],[96.9,14336],[96.9,14420],[96.9,14503],[96.9,14586],[96.9,14669],[96.9,14753],[96.9,14836],[96.9,14921],[96.9,15002],[96.9,15085],[96.9,15169],[96.9,15252],[96.9,15337],[96.9,15419],[96.9,15504],[96.9,15584],[96.9,15668],[96.9,15750],[96.9,15835],[96.9,15918],[96.9,16001],[96.9,16084],[96.9,16168],[96.9,16252],[96.9,16336],[96.9,16418],[96.9,16503],[96.9,16585],[96.9,16669],[96.9,16752],[96.9,16836],[96.9,16919],[96.9,17003],[96.9,17085],[96.9,17170],[96.9,17252],[96.9,17337],[96.9,17418],[96.9,17503],[96.9,17585],[96.9,17670],[96.9,17752],[96.9,17838],[96.9,17919],[96.9,18003],[96.9,18086],[96.9,18172],[94.4,18256],[91.7,18335],[91.4,18418],[91.4,18501],[91.4,18585],[91.4,18668],[91.6,18753],[95.1,18837],[97.6,18920],[98.6,19003],[99.2,19086],[100,19171],[100,19252],[100,19336],[100,19417],[100,19501],[100,19584],[100,19668],[100,19751],[100,19834],[100,19918],[100,20001],[100,20084],[100,20169],[100,20251],[100,20335],[100,20417],[100,20501],[100,20585],[100,20668],[100,20751],[100,20834],[100,20918],[100,21001],[100,21084],[100,21167],[100,21251],[100,21335],[100,21418],[100,21501],[100,21584],[100,21668],[100,21751],[100,21835],[100,21918],[100,22001],[100,22084],[100,22168],[100,22251],[100,22334],[100,22418],[100,22501],[100,22585],[100,22667],[100,22751],[100,22835],[100,22918],[100,23001],[100,23084],[100,23168],[100,23251],[100,23335],[100,23417],[100,23502],[100,23585],[100,23669],[100,23751],[100,23836],[100,23918],[100,24001],[100,24085],[100,24168],[100,24251],[100,24335],[100,24435],[100,24519],[100,24601],[100,24681],[100,24765],[100,24848],[100,24931],[100,25015],[100,25103],[100,25185],[100,25269],[100,25349],[100,25431],[100,25518],[100,25603],[100,25681],[100,25767],[100,25848],[100,25935],[100,26018],[100,26101],[100,26185],[100,26268],[100,26351],[100,26434],[100,26517],[100,26601],[100,26681],[100,26768],[100,26852],[100,26931],[100,27018],[100,27097],[100,27184],[100,27264],[100,27354],[100,27431],[100,27518],[100,27598],[100,27685],[100,27765],[100,27851],[100,27935],[100,28018],[100,28102],[100,28184],[100,28269],[100,28351],[100,28433],[100,28515]]",1557.6273,1563.7512,97.58418741,3.3351,"[{""rating"":97.58418740849196,""responseTime"":3.3350999999940996}]",space,5.5805,,1563.7514,Definitely yes,100,1563.7573,,,[],,0,2,2,2,1,audio/Narrative7Situation2.wav,audio/Narrative8Situation2.wav,audio/Narrative5Situation2.wav,audio/Narrative6Situation2.wav,3,3,3,3,,,,,,,,,,,,,,,,,,,,,,,,,,,,,,,,,,,,,,,
,,,,,673f361cb1d555345330ff1b,2025-07-07_23h30.58.936,group3.4_multiperson,2023.2.2,Win32,59.88023952,686c2ebf0248f13bef9af11f,686c9849d85b26e093433b26,,,,,,,,,,,,,,,,,,,,,,,,,,,,,1563.7591,2,audio/Narrative6Situation3.wav,1568.7597,,1568.7599,1581.3612,"[[97,5339],[93.9,5420],[93,5501],[92.8,5585],[92.5,5668],[92.5,5750],[91.4,5837],[89.8,5918],[88.5,6002],[88.2,6083],[88.2,6168],[88.2,6250],[88.2,6334],[88.2,6418],[88.2,6502],[88.2,6583],[88.2,6666],[88.2,6750],[88.2,6833],[88.2,6919],[89.2,7001],[89.4,7083],[89.8,7169],[90.8,7250],[90.8,7333],[90.8,7416],[90.8,7500],[90.8,7584],[90.6,7670]]",1581.3616,1596.4627,96.85212299,14.3727,"[{""rating"":96.85212298682285,""responseTime"":14.372700000002851}]",space,14.5518,,1596.463,Partially,50,1596.4799,,,[],,0,3,3,3,1,audio/Narrative7Situation3.wav,audio/Narrative8Situation3.wav,audio/Narrative5Situation3.wav,audio/Narrative6Situation3.wav,8,4,3,5,,,,,,,,,,,,,,,,,,,,,,,,,,,,,,,,,,,,,,,
,,,,,673f361cb1d555345330ff1b,2025-07-07_23h30.58.936,group3.4_multiperson,2023.2.2,Win32,59.88023952,686c2ebf0248f13bef9af11f,686c9849d85b26e093433b26,,,,,,,,,,,,,,,,,,,,,,,,,,,,,1596.4811,2,audio/Narrative6Situation4.wav,1598.4947,,1598.4947,1611.0979,"[[89.2,3786],[85.1,3868],[76.5,3952],[76.2,4033],[70.4,4537],[72.7,4621],[73.4,4699],[73.6,4782],[71.4,4870],[70.9,4954],[70.9,5032],[70.5,5116],[69.3,5203],[69.3,5285],[69.3,5365],[69.3,5453],[69.5,5536],[71.4,5622],[72.1,5699],[73.1,5788],[77.7,5871],[79.6,5956],[79.7,6049],[79.7,6132],[79.7,6215],[79.7,6298],[79.7,6382],[79.7,6465],[79.7,6548],[79.7,6632],[79.7,6715],[79.7,6798],[79.7,6882],[79.7,6966],[79.7,7048],[79.7,7132],[79.7,7215],[79.7,7299],[79.9,7383],[79.9,7466],[79.9,7549],[79.9,7633],[79.9,7715],[79.9,7799],[79.9,7882],[79.9,7965],[79.9,8048],[79.9,8132],[79.9,8215],[79.9,8298],[79.9,8382],[79.9,8465],[79.9,8548],[79.9,8632],[79.9,8715],[79.9,8799],[79.9,8884],[79.9,8964],[79.9,9048],[79.9,9131],[79.9,9214],[79.9,9298],[79.9,9382],[79.9,9465],[79.9,9549],[79.9,9631],[79.9,9714],[79.9,9798],[79.9,9881],[79.9,9965],[79.9,10048],[79.9,10132],[79.9,10215],[81.6,10299],[84,10382],[85.3,10466],[85.3,10548],[85.3,10631],[85.3,10715],[85.3,10798],[85.3,10881],[85.3,10965],[85.3,11048],[85.3,11132],[85.3,11215],[85.3,11302],[85.3,11382],[85.3,11465],[84.8,11552],[83.1,11637],[82.5,11718],[82.5,11802],[82.5,11884],[82.5,11964],[82.5,12052],[82.5,12133],[82.5,12218],[82.5,12298],[82.5,12381],[82.5,12465],[82.5,12552]]",1611.098,1613.7473,97.87701318,1.9697,"[{""rating"":97.87701317715958,""responseTime"":1.969700000002831}]",space,2.0867,,1613.7473,Partially,50,1613.7495,,,[],,0,4,4,4,1,audio/Narrative7Situation4.wav,audio/Narrative8Situation4.wav,audio/Narrative5Situation4.wav,audio/Narrative6Situation4.wav,3,3,1,2,,,,,,,,,,,,,,,,,,,,,,,,,,,,,,,,,,,,,,,
,,,,,673f361cb1d555345330ff1b,2025-07-07_23h30.58.936,group3.4_multiperson,2023.2.2,Win32,59.88023952,686c2ebf0248f13bef9af11f,686c9849d85b26e093433b26,,,,,,,,,,,,,,,,,,,,,,,,,,,,,1613.7499,2,audio/Narrative6Situation5.wav,1615.7635,,1615.7636,1623.7352,"[[97.7,3686],[96.9,3768],[94.7,3851],[92.9,3935],[92.6,4014],[92.6,4096],[92.6,4179],[92.6,4264],[92.6,4348],[92.6,4430],[92.8,4518],[93.8,4603],[96.4,4686],[98.3,4767],[98.6,4851],[99.3,4934],[99.3,5016],[99.3,5100],[99.3,5180],[99.3,5267],[99.3,5346],[99.3,5434],[99.3,5516],[99.3,5600],[99.3,5680],[99.3,5766],[99.3,5849],[99.3,5931],[99.3,6015],[99.3,6100],[99.3,6180],[99.3,6267],[99.3,6351],[99.3,6430],[99.3,6514],[99.3,6597],[99.3,6684],[99.3,6764],[99.3,6850],[99.3,6930],[99.3,7017],[99.3,7100],[99.3,7180],[99.3,7264],[99.3,7351],[99.3,7431],[99.3,7517],[99.3,7600],[99.3,7685],[99.3,7785],[99.3,7867],[99.3,7955]]",1623.7355,1627.146,95.53440703,2.6356,"[{""rating"":95.53440702781845,""responseTime"":2.635599999994156}]",space,2.8702,,1627.1462,Definitely yes,100,1627.1562,,,[],,0,5,5,5,1,audio/Narrative7Situation5.wav,audio/Narrative8Situation5.wav,audio/Narrative5Situation5.wav,audio/Narrative6Situation5.wav,5,2,5,2,,,,,,,,,,,,,,,,,,,,,,,,,,,,,,,,,,,,,,,
,,,,,673f361cb1d555345330ff1b,2025-07-07_23h30.58.936,group3.4_multiperson,2023.2.2,Win32,59.88023952,686c2ebf0248f13bef9af11f,686c9849d85b26e093433b26,,,,,,,,,,,,,,,,,,,,,,,,,,,,,1627.1579,2,audio/Narrative6Situation6.wav,1629.1653,,1629.1654,1640.2462,"[[92.3,1334],[92.3,1414],[92,1498],[90,1582],[89.2,1663],[89.2,1746],[88.9,1830],[88.9,1914],[88.9,1996],[88.9,2079],[88.9,2164],[88.9,2246],[88.9,2331],[88.9,2413],[88.9,2496],[88.9,2579],[88.9,2663],[88.9,2746],[88.9,2829],[88.9,2913],[88.9,2996],[88.9,3080],[88.9,3163],[88.9,3247],[88.9,3331],[88.9,3414],[88.9,3496],[88.9,3579],[88.9,3664],[88.9,3746],[88.9,3830],[88.9,3914],[88.9,3996],[88.9,4081],[88.9,4163],[88.9,4247],[88.9,4330],[88.9,4413],[88.9,4496],[88.9,4579],[88.9,4664],[88.9,4746],[88.9,4828],[88.9,4913],[88.9,4996],[88.9,5079],[88.9,5163],[90,5248],[92.9,5332],[94.5,5413],[94.5,5496],[94.5,5578],[94.5,5662],[94.5,5745],[94.5,5828],[94.5,5913],[94.5,5995],[94.5,6078],[94.8,6163],[98,6249],[100,6328],[100,6411],[100,6495],[100,6578],[100,6662],[100,6745],[100,6829],[100,6913],[100,6996],[100,7079],[100,7163],[100,7246],[100,7329],[100,7412],[100,7496],[100,7579],[100,7663],[100,7745],[100,7829],[100,7913],[100,7995],[100,8079],[100,8162],[100,8245],[100,8331],[100,8412],[100,8496],[100,8579],[100,8663],[100,8747],[100,8829],[100,8913],[100,8995],[100,9079],[100,9162],[100,9247],[100,9331],[100,9411],[100,9496],[100,9579],[100,9662],[100,9746],[100,9830],[100,9914],[100,9997],[100,10078],[100,10162],[100,10246],[100,10333],[100,10413],[100,10496],[100,10580],[100,10662],[100,10746],[100,10829],[100,10913],[100,10996],[100,11079]]",1640.247,1647.3289,98.02342606,6.5541,"[{""rating"":98.02342606149341,""responseTime"":6.328299999996943},{""rating"":98.02342606149341,""responseTime"":6.554099999993923}]",space,6.551,,1647.3291,Partially,50,1647.3372,,,[],,0,6,6,6,1,audio/Narrative7Situation6.wav,audio/Narrative8Situation6.wav,audio/Narrative5Situation6.wav,audio/Narrative6Situation6.wav,3,2,3,2,,,,,,,,,,,,,,,,,,,,,,,,,,,,,,,,,,,,,,,
,,,,,673f361cb1d555345330ff1b,2025-07-07_23h30.58.936,group3.4_multiperson,2023.2.2,Win32,59.88023952,686c2ebf0248f13bef9af11f,686c9849d85b26e093433b26,,,,,,,,,,,,,,,,,,,,,,,,,,,,,1647.3378,2,audio/Narrative6Situation7.wav,1652.3461,,1652.3462,1677.2129,"[[88.8,4339],[79,4422],[70.4,4923],[27.3,5705],[27.5,5787],[27.7,5869],[27.2,5951],[26.9,6039],[25.8,6122],[24.7,6205],[29.4,7538],[36.8,7622],[76.2,8206],[76.6,8286],[76.8,8370],[76.9,8453],[76.9,8536],[76.9,8615],[76.9,8698],[76.9,8783],[76.9,8871],[76.9,8949],[76.9,9035],[76.9,9119],[76.9,9198],[76.9,9286],[76.9,9369],[76.9,9448],[76.9,9532],[76.9,9621],[76.9,9698],[76.9,9785],[76.9,9865],[76.9,9953],[76.9,10032],[76.9,10116],[76.9,10202],[76.9,10283],[76.9,10365],[76.9,10449],[76.9,10536],[76.9,10620],[76.9,10703],[76.9,10782],[79.1,10872],[81.9,10956],[85.1,11038],[86.2,11124],[87.5,11205],[88.4,11288],[89.7,11371],[91.6,11457],[93.8,11539],[94.5,11620],[94.5,11700],[94.5,11782],[94.5,11866],[94.5,11954],[94.5,12032],[94.5,12116],[94.5,12198],[94.5,12286],[94.5,12366],[94.5,12453],[94.5,12537],[94.5,12616],[94.5,12704],[93.3,12788],[93.2,12870],[93.2,12952],[93.2,13037],[93.2,13119],[94.2,13205],[95.2,13288],[95.2,13366],[95.2,13449],[95.2,13535],[95.2,13619],[95.2,13704],[95.2,13782],[95.2,13865],[97.7,13955],[99.3,14038],[99.9,14126],[100,14198],[100,14286],[100,14365],[100,14449],[100,14532],[100,14615],[100,14699],[100,14786],[100,14865],[100,14955],[100,15032],[100,15119],[100,15198],[100,15284],[100,15368],[100,15448],[100,15534],[100,15618],[100,15701],[100,15781],[100,15864],[100,15948],[100,16031],[100,16118],[100,16201],[100,16281],[100,16368],[100,16450],[100,16535],[100,16615],[100,16698],[100,16784],[100,16867],[100,16948],[100,17031],[100,17115],[100,17201],[100,17284],[100,17364],[100,17451],[100,17531],[100,17614],[100,17701],[100,17784],[100,17864],[100,17948],[100,18034],[100,18116],[100,18202],[100,18281],[100,18368],[100,18452],[100,18531],[100,18614],[100,18698],[100,18781],[100,18868],[100,18948],[100,19035],[100,19117],[100,19198],[100,19285],[100,19368],[100,19451],[100,19535],[100,19618],[100,19698],[100,19785],[100,19865],[100,19952],[100,20031],[100,20115],[100,20201],[100,20284],[100,20365],[100,20451],[100,20535],[100,20618],[100,20698],[100,20784],[100,20869],[100,20948],[100,21032],[100,21116],[100,21203],[100,21281],[100,21369],[100,21452],[100,21536],[100,21620],[100,21702],[100,21781],[100,21869],[100,21948],[100,22036],[100,22115],[100,22198],[100,22285],[100,22370],[100,22451],[100,22531],[100,22619],[100,22702],[100,22785],[100,22869],[100,22952],[100,23035],[100,23118],[100,23198],[100,23285],[100,23365],[100,23452],[100,23531],[100,23619],[100,23698],[100,23785],[100,23868],[100,23948],[100,24034],[100,24118],[100,24198],[100,24285],[100,24369],[100,24451],[100,24532],[100,24615],[100,24702],[100,24785],[100,24865]]",1677.2134,1680.8292,97.87701318,1.8389,"[{""rating"":97.87701317715958,""responseTime"":1.8389000000058786}]",space,3.0742,,1680.8293,Partially,50,1680.834,,,[],,0,7,7,7,1,audio/Narrative7Situation7.wav,audio/Narrative8Situation7.wav,audio/Narrative5Situation7.wav,audio/Narrative6Situation7.wav,5,3,4,5,,,,,,,,,,,,,,,,,,,,,,,,,,,,,,,,,,,,,,,
,,,,,673f361cb1d555345330ff1b,2025-07-07_23h30.58.936,group3.4_multiperson,2023.2.2,Win32,59.88023952,686c2ebf0248f13bef9af11f,686c9849d85b26e093433b26,,,,,,,,,,,,,,,,,,,,,,,,,,,,,1680.8347,2,audio/Narrative6Situation8.wav,1685.8475,,1685.8477,1692.6972,"[[96.1,2855],[94.9,2938],[94.4,3021],[93.3,3108],[91.3,3187],[89.5,3272],[88.8,3354],[85.1,3441],[78.4,3521],[62.4,3607],[33.2,4355],[34.9,4438],[34.9,4514],[31.8,4604],[30.4,4685],[29.5,4770],[29.5,4847],[29.5,4935],[29.5,5017],[29.5,5098],[29.5,5183],[29.5,5264],[29.5,5347],[29.5,5431],[29.5,5514],[29.5,5597],[29.5,5680],[25,5769]]",1692.6976,1696.2352,34.04099561,2.6508,"[{""rating"":34.04099560761347,""responseTime"":2.650800000011941}]",space,2.9956,,1696.2354,Partially,50,1696.2408,,,[],,0,8,8,8,1,audio/Narrative7Situation8.wav,audio/Narrative8Situation8.wav,audio/Narrative5Situation8.wav,audio/Narrative6Situation8.wav,2,3,3,5,,,,,,,,,,,,,,,,,,,,,,,,,,,,,,,,,,,,,,,
,,,,,673f361cb1d555345330ff1b,2025-07-07_23h30.58.936,group3.4_multiperson,2023.2.2,Win32,59.88023952,686c2ebf0248f13bef9af11f,686c9849d85b26e093433b26,,,,,,,,,,,,,,,,,,,,,,,,,,,,,1696.2415,2,audio/Narrative6Situation9.wav,1700.2486,,1700.2488,1710.199,"[[31.1,5332],[28.6,5416],[25.3,5500],[23.6,5583],[21.6,5665],[19.4,5749],[17.1,5830],[16.2,5916],[14.9,6000],[13.7,6083],[13,6168],[12.2,6253],[11.3,6333],[4.2,7840],[8.1,7917],[9.4,7998],[9.4,8082],[9.3,8164],[9.2,8250],[7.7,8332],[7,8415],[6.7,8500],[6.5,8584],[5.3,8665],[5.2,8751],[4.9,8834],[4.9,8914],[4.9,8999],[4.9,9081],[4.9,9165],[4.9,9249],[4.9,9332],[4.9,9414],[4.9,9499],[4.9,9581],[4.9,9664],[4.9,9749],[4.9,9833],[4.9,9914]]",1710.1994,1712.4313,0.805270864,1.4071,"[{""rating"":0.8052708638360162,""responseTime"":1.407100000008768}]",space,1.6747,,1712.4316,Partially,50,1712.4375,,,[],,0,9,9,9,1,audio/Narrative7Situation9.wav,audio/Narrative8Situation9.wav,audio/Narrative5Situation9.wav,audio/Narrative6Situation9.wav,2,3,3,4,,,,,,,,,,,,,,,,,,,,,,,,,,,,,,,,,,,,,,,
,,,,,673f361cb1d555345330ff1b,2025-07-07_23h30.58.936,group3.4_multiperson,2023.2.2,Win32,59.88023952,686c2ebf0248f13bef9af11f,686c9849d85b26e093433b26,,,,,,,,,,,,,,,,,,,,,,,,,,,,,1712.4382,2,audio/Narrative5Situation1.wav,1717.4496,,1717.4497,1730.7492,"[[1.2,1999],[1.5,2080],[1.5,2164],[1.5,2247],[1.5,2331],[1.8,2416],[2.3,2500],[2.4,2581],[2.6,2665],[2.6,2750],[2.7,2830],[2.7,2915],[2.7,2999],[2.7,3080],[2.7,3164],[2.7,3247],[2.7,3331],[2.9,3415],[2.9,3498],[2.9,3582],[2.9,3664],[2.9,3747],[2.9,3830],[2.9,3914],[2.9,3998],[2.9,4081],[2.9,4164],[2.9,4248],[2.9,4331],[2.9,4414],[3,4498],[5.5,4583],[13.8,4667],[19,4750],[22.5,4834],[26.9,4915],[27.5,5001],[27.6,5082],[27.9,5164],[28,5248],[28,5332],[25,5416],[25,5499],[25,5582],[25,5664],[25,5751],[25,5830],[25,5914],[25,5998],[25,6082],[25,6164],[25,6248],[25,6331],[25,6413],[25,6498],[25,6582],[25,6664],[25,6749],[25,6831],[25,6914],[25,7000],[25,7080],[25,7165],[25,7248],[25,7332],[25,7414],[25,7498],[25,7581],[25,7664],[25,7747],[25.1,7832],[25.3,7914],[25.7,8001],[26.1,8083],[26.9,8166],[27.5,8250],[27.7,8332],[28.9,8416],[29.2,8498],[29.4,8581],[29.5,8664],[29.5,8748],[29.5,8833],[29.5,8915],[29.5,8998],[29.5,9082],[29.5,9165],[29.5,9248],[29.6,9333],[29.8,9414],[30.5,9499],[31,9582],[31.8,9666],[32.9,9750],[34.6,9833],[34.9,9912],[34.9,9997],[34.9,10080],[34.9,10166],[34.9,10248],[34.9,10331],[34.9,10414],[34.9,10498],[34.9,10581],[34.9,10666],[34.9,10748],[34.9,10833],[34.9,10914],[34.9,10998],[34.9,11081],[34.9,11164],[34.9,11247],[34.9,11331],[34.9,11414],[34.9,11498],[34.9,11580],[34.9,11664],[34.9,11749],[34.9,11832],[34.9,11914],[34.9,11999],[34.9,12081],[34.9,12164],[34.9,12248],[34.9,12332],[34.9,12413],[34.9,12498],[34.9,12580],[34.9,12664],[34.9,12749],[34.9,12832],[34.9,12914],[34.9,12998],[34.9,13080],[34.9,13164],[34.9,13248]]",1730.7498,1737.0534,70.35139092,4.3841,"[{""rating"":70.35139092240117,""responseTime"":4.384100000008857}]",space,5.7529,,1737.0536,Partially,50,1737.0635,,,[],,0,10,10,10,1,audio/Narrative8Situation1.wav,audio/Narrative7Situation1.wav,audio/Narrative6Situation1.wav,audio/Narrative5Situation1.wav,5,2,2,5,,,,,,,,,,,,,,,,,,,,,,,,,,,,,,,,,,,,,,,
,,,,,673f361cb1d555345330ff1b,2025-07-07_23h30.58.936,group3.4_multiperson,2023.2.2,Win32,59.88023952,686c2ebf0248f13bef9af11f,686c9849d85b26e093433b26,,,,,,,,,,,,,,,,,,,,,,,,,,,,,1737.0646,2,audio/Narrative5Situation2.wav,1740.0672,,1740.0676,1769.5489,"[[999,1],[999,96],[999,180],[999,263],[999,345],[999,430],[999,512],[999,596],[999,680],[999,762],[999,846],[999,929],[999,1011],[999,1095],[999,1180],[999,1263],[999,1346],[999,1430],[999,1512],[999,1596],[999,1680],[999,1763],[999,1846],[999,1930],[999,2013],[999,2098],[999,2182],[999,2265],[999,2347],[999,2430],[999,2513],[999,2596],[999,2679],[999,2764],[999,2846],[999,2931],[60.2,3014],[58.8,3095],[58.8,3179],[58.8,3262],[58.8,3346],[58.8,3429],[55.3,3519],[52.2,3601],[48.2,3685],[44.7,3767],[43.3,3851],[41.4,3936],[39.2,5101],[39.5,5183],[39.5,5263],[39.5,5351],[39.5,5433],[51.2,5519],[56.6,5602],[63.6,5686],[66.4,5767],[66.4,5850],[66.4,5931],[66.4,6017],[66.4,6096],[66.4,6183],[66.4,6262],[66.4,6350],[66.4,6430],[70.8,6518],[73.3,6603],[74.3,6684],[75,6764],[76.5,6850],[77.7,6933],[78.4,7016],[79,7099],[80.5,7182],[81.9,7266],[82.5,7350],[83.1,7433],[84.7,7518],[85.6,7600],[85.6,7679],[85.6,7766],[85.6,7850],[85.6,7933],[85.6,8012],[85.6,8099],[85.6,8179],[85.6,8266],[85.6,8346],[85.6,8433],[85.6,8512],[85.6,8596],[85.6,8683],[85.6,8766],[85.6,8849],[85.6,8929],[85.6,9018],[85.6,9096],[85.6,9179],[85.6,9268],[85.6,9350],[85.6,9430],[85.6,9513],[85.6,9601],[85.6,9683],[85.6,9763],[85.6,9846],[85.6,9930],[85.6,10016],[85.6,10100],[85.6,10183],[85.6,10263],[85.6,10346],[85.6,10433],[85.6,10517],[85.6,10596],[85.6,10684],[85.6,10765],[85.6,10846],[85.6,10933],[85.6,11017],[85.6,11100],[85.6,11184],[85.6,11267],[85.6,11346],[87.5,11438],[91.4,11521],[91.7,11596],[91.7,11680],[91.7,11767],[91.7,11846],[97,11936],[100,12019],[100,12101],[100,12180],[100,12263],[100,12346],[100,12433],[100,12513],[100,12600],[100,12680],[100,12767],[100,12846],[100,12930],[100,13018],[100,13100],[100,13184],[100,13267],[100,13346],[100,13433],[100,13513],[100,13596],[100,13683],[100,13763],[100,13846],[100,13930],[100,14017],[100,14096],[100,14184],[100,14263],[100,14346],[100,14434],[100,14513],[100,14600],[100,14680],[100,14767],[100,14846],[100,14934],[100,15017],[100,15096],[100,15181],[100,15263],[100,15347],[100,15433],[100,15518],[100,15596],[100,15680],[100,15763],[100,15852],[100,15933],[100,16017],[100,16101],[100,16183],[100,16267],[100,16352],[100,16437],[100,16513],[100,16597],[100,16681],[100,16764],[100,16847],[100,16930],[100,17014],[100,17096],[100,17180],[100,17264],[100,17347],[100,17432],[100,17515],[100,17596],[100,17679],[100,17762],[100,17846],[100,17929],[100,18012],[100,18095],[100,18179],[100,18262],[100,18346],[100,18430],[100,18513],[100,18596],[100,18680],[100,18763],[100,18846],[100,18931],[100,19014],[100,19097],[100,19181],[100,19263],[100,19347],[100,19430],[100,19514],[100,19599],[100,19680],[100,19763],[100,19846],[100,19930],[100,20015],[100,20097],[100,20180],[100,20263],[100,20348],[100,20432],[100,20514],[100,20597],[100,20680],[100,20763],[100,20847],[100,20931],[100,21015],[100,21098],[100,21182],[100,21264],[100,21347],[100,21432],[100,21513],[100,21597],[100,21681],[100,21764],[100,21847],[100,21931],[100,22015],[100,22097],[100,22181],[100,22264],[100,22347],[100,22432],[100,22515],[100,22597],[100,22681],[100,22764],[100,22848],[100,22930],[100,23015],[100,23097],[100,23181],[100,23263],[100,23347],[100,23432],[100,23514],[100,23597],[100,23681],[100,23763],[100,23847],[100,23931],[100,24014],[100,24099],[100,24180],[100,24264],[100,24347],[100,24433],[100,24514],[100,24600],[100,24681],[100,24765],[99.6,24850],[100,25266],[100,25349],[100,25436],[100,25514],[100,25597],[100,25684],[100,25764],[100,25847],[100,25930],[100,26015],[100,26097],[100,26181],[100,26264],[100,26347],[100,26432],[100,26515],[100,26597],[100,26681],[100,26764],[100,26847],[100,26930],[100,27015],[100,27098],[100,27181],[100,27264],[100,27347],[100,27432],[100,27515],[100,27598],[100,27681],[100,27764],[100,27850],[100,27932],[100,28015],[100,28349],[100,28434],[100,28514],[100,28847],[100,28931],[100,29014],[100,29096],[100,29179],[100,29263],[100,29348],[100,29432]]",1769.5494,1771.8323,98.75549048,1.7488,"[{""rating"":98.75549048316252,""responseTime"":1.7488000000118973}]",space,1.7358,,1771.8326,Definitely yes,100,1771.8409,,,[],,0,11,11,11,1,audio/Narrative8Situation2.wav,audio/Narrative7Situation2.wav,audio/Narrative6Situation2.wav,audio/Narrative5Situation2.wav,3,3,3,3,,,,,,,,,,,,,,,,,,,,,,,,,,,,,,,,,,,,,,,
,,,,,673f361cb1d555345330ff1b,2025-07-07_23h30.58.936,group3.4_multiperson,2023.2.2,Win32,59.88023952,686c2ebf0248f13bef9af11f,686c9849d85b26e093433b26,,,,,,,,,,,,,,,,,,,,,,,,,,,,,1771.8416,2,audio/Narrative5Situation3.wav,1774.8496,,1774.8497,1788.7647,"[[96.7,1355],[95.5,1438],[94.5,1520],[92.9,1605],[92.9,1683],[92.9,1768],[92.9,1849],[92.9,1935],[92.9,2014],[92.9,2102],[93.3,2189],[93.9,2270],[94.4,2353],[94.4,2431],[94.4,2514],[94.4,2602],[94.4,2687],[94.5,2766],[94.7,2848],[93.5,2938],[88.8,3020],[57,3872],[60.5,3954],[62.2,4038],[65.1,4123],[66.1,4204],[68.3,4290],[73.6,4372],[80.2,4457],[86.7,4538],[95.5,4623],[98.8,4705],[100,4788],[100,4869],[100,4952],[100,5031],[100,5119],[100,5201],[100,5286],[100,5364],[100,5448],[100,5535],[100,5619],[100,5702],[100,5786],[100,5868],[100,5952],[100,6031],[100,6114],[100,6198],[100,6284],[100,6370],[100,6447],[100,6535],[100,6615],[100,6697],[100,6784],[100,6867],[100,6952],[100,7031],[100,7119],[100,7198],[100,7281],[100,7368],[100,7451],[100,7535],[100,7615],[100,7701],[100,7786],[100,7865],[100,7948],[100,8035],[100,8120],[100,8201],[100,8281],[100,8368],[100,8452],[100,8536],[100,8637],[100,8698],[100,8782],[100,8866],[100,8949],[100,9032],[100,9117],[100,9198],[100,9282],[100,9365],[100,9448],[100,9532],[100,9617],[100,9698],[100,9783],[100,9865],[100,9948],[100,10032],[100,10116],[100,10198],[100,10282],[100,10366],[100,10448],[100,10532],[100,10618],[100,10699],[100,10782],[100,10865],[100,10950],[100,11033],[100,11116],[100,11199],[100,11282],[100,11365],[100,11449],[100,11532],[100,11617],[100,11698],[100,11782],[100,11866],[100,11950],[100,12032],[100,12117],[100,12199],[100,12283],[100,12365],[100,12450],[100,12532],[100,12615],[100,12697],[100,12781],[100,12865],[100,12948],[100,13031],[100,13114],[100,13197],[100,13281],[100,13364],[100,13448],[100,13531],[100,13615],[100,13698],[100,13781],[100,13864]]",1788.7651,1791.148,97.29136164,1.7307,"[{""rating"":97.2913616398243,""responseTime"":1.7307000000030257}]",space,1.8348,,1791.1481,Partially,50,1791.1529,,,[],,0,12,12,12,1,audio/Narrative8Situation3.wav,audio/Narrative7Situation3.wav,audio/Narrative6Situation3.wav,audio/Narrative5Situation3.wav,4,8,5,3,,,,,,,,,,,,,,,,,,,,,,,,,,,,,,,,,,,,,,,
,,,,,673f361cb1d555345330ff1b,2025-07-07_23h30.58.936,group3.4_multiperson,2023.2.2,Win32,59.88023952,686c2ebf0248f13bef9af11f,686c9849d85b26e093433b26,,,,,,,,,,,,,,,,,,,,,,,,,,,,,1791.1531,2,audio/Narrative5Situation4.wav,1792.1648,,1792.165,1812.5505,"[[97.4,3335],[99.9,3417],[100,3499],[100,3583],[100,3666],[99.9,3750],[99.9,3833],[99.9,3916],[99.9,3999],[99.9,4083],[99.9,4166],[99.9,4249],[99.9,4332],[99.9,4416],[99.9,4500],[99.9,4583],[99.9,4666],[99.9,4751],[99.9,4833],[99.9,4917],[99.9,5000],[99.9,5083],[99.9,5167],[99.9,5250],[99.9,5333],[99.9,5417],[99.9,5500],[99.9,5584],[99.9,5667],[99.9,5751],[99.9,5833],[99.9,5917],[99.9,6001],[99.5,6085],[94.1,6168],[87.6,6251],[82.4,6335],[75.2,6418],[69.3,6501],[62.2,6584],[50.1,6668],[40.9,6752],[32.7,6837],[25.8,6920],[21.2,7003],[20.3,7083],[20.3,7166],[20.1,7250],[20.1,7334],[20.1,7418],[20.1,7502],[20.1,7584],[20.1,7667],[20.1,7752],[20.1,7834],[20.1,7918],[20.1,8001],[20.1,8084],[20.1,8167],[20.1,8250],[20.1,8334],[20.1,8417],[20.1,8501],[20.1,8584],[20.1,8667],[20.1,8753],[20.1,8834],[20.1,8918],[20,9003],[19.8,9084],[20.1,9169],[24.4,9253],[29.6,9338],[33.6,9419],[39,9504],[48,9585],[77.4,10338],[75.6,10419],[75.5,10500],[75.6,10585],[75.9,10669],[75.9,10753],[76.2,10835],[76.2,10918],[76.2,11000],[76.2,11083],[76.2,11167],[76.2,11250],[76.2,11333],[76.2,11417],[76.2,11500],[76.2,11584],[76.2,11668],[76.2,11751],[76.2,11833],[76.2,11917],[76.2,12001],[76.2,12084],[76.2,12167],[76.2,12251],[76.2,12333],[76.2,12416],[76.2,12500],[76.2,12583],[76.2,12667],[76.2,12751],[76.4,12834],[76.4,12918],[76.5,13000],[76.6,13084],[76.6,13167],[76.6,13252],[76.8,13334],[76.9,13417],[77.7,13503],[78.6,13585],[79.1,13668],[80.3,13753],[81.3,13835],[81.8,13919],[82.4,14003],[82.7,14085],[82.7,14167],[82.7,14250],[82.8,14334],[82.9,14418],[82.9,14500],[82.9,14584],[82.9,14668],[82.9,14752],[82.9,14836],[83.2,14918],[83.4,15001],[83.4,15084],[83.4,15167],[83.4,15252],[83.4,15335],[83.4,15417],[83.4,15500],[83.4,15584],[83.4,15667],[83.4,15752],[83.4,15836],[83.4,15919],[83.4,16002],[83.4,16084],[83.4,16167],[83.4,16251],[83.4,16335],[83.4,16417],[83.4,16502],[83.4,16584],[83.4,16669],[83.4,16751],[83.4,16836],[83.4,16919],[84,17003],[85.1,17085],[85.7,17170],[87.8,17253],[90.7,17338],[94.5,17418],[96,17502],[97.9,17586],[100,17669],[100,17753],[100,17835],[100,17919],[100,18001],[100,18085],[100,18168],[100,18252],[100,18333],[100,18418],[100,18501],[100,18585],[100,18667],[100,18752],[100,18835],[100,18918],[100,19002],[100,19084],[100,19168],[100,19251],[100,19335],[100,19417],[100,19502],[100,19584],[100,19667],[100,19752],[100,19835],[100,19918],[100,20002],[100,20084],[100,20168],[100,20252],[100,20335]]",1812.5511,1815.2168,97.43777452,1.9187,"[{""rating"":97.43777452415813,""responseTime"":1.918699999988121}]",space,2.1186,,1815.2171,Partially,50,1815.2221,,,[],,0,13,13,13,1,audio/Narrative8Situation4.wav,audio/Narrative7Situation4.wav,audio/Narrative6Situation4.wav,audio/Narrative5Situation4.wav,3,3,2,1,,,,,,,,,,,,,,,,,,,,,,,,,,,,,,,,,,,,,,,
,,,,,673f361cb1d555345330ff1b,2025-07-07_23h30.58.936,group3.4_multiperson,2023.2.2,Win32,59.88023952,686c2ebf0248f13bef9af11f,686c9849d85b26e093433b26,,,,,,,,,,,,,,,,,,,,,,,,,,,,,1815.2228,2,audio/Narrative5Situation5.wav,1820.2334,,1820.2337,1835.6655,"[[94.9,1750],[90.7,1836],[55.1,3418],[55.9,3501],[55.9,3585],[56.7,3668],[55.9,3749],[55.9,3834],[55.9,3916],[55.9,3999],[55.9,4084],[54.8,4167],[52.2,4253],[50.1,4332],[47.5,4418],[45.6,4502],[44.7,4583],[44.6,4666],[44.6,4749],[44.6,4834],[44.6,4916],[44.6,4999],[44.6,5082],[44.6,5166],[44.6,5251],[41.9,5336],[35.7,5418],[24.1,6168],[25,6250],[25,6334],[23.1,6421],[19,6502],[17.2,6584],[16.8,6667],[15.2,6752],[13.4,6837],[12.1,6916],[12.2,6998],[12.2,7081],[12.2,7165],[12.2,7248],[12.2,7331],[12.2,7415],[12.2,7498],[11.5,7583],[8,7666],[2.4,7749],[0.4,9666],[0.8,9749],[0.8,9833],[1,9917],[1.4,10002],[1.8,10083],[3.7,10167],[4.3,10251],[4.9,10332],[6.7,10418],[8.3,10500],[8.3,10584],[8.3,10667],[8.4,10749],[8.9,10834],[9.7,10920],[11.1,11001],[12.7,11085],[16.5,11167],[21.4,11252],[25.7,11335],[26.1,11416],[26.7,11500],[26.9,11584],[27.7,11667],[28.6,11752],[31.7,11836],[33.6,11916],[33.6,12000],[33.6,12083],[33.6,12166],[33.6,12250],[33.6,12332],[33.6,12416],[33.6,12499],[33.6,12582],[12.1,13169],[13.7,13254],[14.1,13333],[13.8,13419],[10.2,13503],[7.7,13585],[3.7,13667],[0.1,13751],[0.4,14167],[0.4,14252],[1.2,14333],[2.4,14418],[4.5,14502],[6.1,14583],[7.1,14669],[8.3,14750],[11.5,14834],[16.5,14915],[22.8,14999],[27.2,15083],[29.1,15166],[29.9,15248],[29.9,15332],[30.4,15414]]",1835.6657,1839.6706,1.098096633,3.6525,"[{""rating"":6.076134699853586,""responseTime"":2.220700000003035},{""rating"":1.098096632503659,""responseTime"":3.652499999999918}]",space,3.4675,,1839.6708,Not at all,0,1839.6795,,,[],,0,14,14,14,1,audio/Narrative8Situation5.wav,audio/Narrative7Situation5.wav,audio/Narrative6Situation5.wav,audio/Narrative5Situation5.wav,2,5,2,5,,,,,,,,,,,,,,,,,,,,,,,,,,,,,,,,,,,,,,,
,,,,,673f361cb1d555345330ff1b,2025-07-07_23h30.58.936,group3.4_multiperson,2023.2.2,Win32,59.88023952,686c2ebf0248f13bef9af11f,686c9849d85b26e093433b26,,,,,,,,,,,,,,,,,,,,,,,,,,,,,1839.6802,2,audio/Narrative5Situation6.wav,1842.6847,,1842.6849,1848.3524,"[[1.4,2353],[5.6,3274],[5.5,3348],[5.5,3435],[4.9,3522],[4.9,3603],[7,3688],[14.3,3772],[19.4,3852],[22.2,3939],[25,4022],[27.3,4106],[31.7,4188],[39.8,4273],[47.1,4355],[52.8,4439],[57.8,4521],[61.3,4607],[62.2,4681],[62.3,4768],[62.3,4847],[62.3,4930],[62.3,5014],[62.3,5101],[62.3,5180],[62.3,5267],[62.3,5347],[62.3,5430],[62.3,5515],[62.3,5601]]",1848.3526,1855.1007,72.54758419,6.4648,"[{""rating"":72.5475841874085,""responseTime"":6.4647999999970125}]",space,6.2073,,1855.1009,Not at all,0,1855.1063,,,[],,0,15,15,15,1,audio/Narrative8Situation6.wav,audio/Narrative7Situation6.wav,audio/Narrative6Situation6.wav,audio/Narrative5Situation6.wav,2,3,2,3,,,,,,,,,,,,,,,,,,,,,,,,,,,,,,,,,,,,,,,
,,,,,673f361cb1d555345330ff1b,2025-07-07_23h30.58.936,group3.4_multiperson,2023.2.2,Win32,59.88023952,686c2ebf0248f13bef9af11f,686c9849d85b26e093433b26,,,,,,,,,,,,,,,,,,,,,,,,,,,,,1855.107,2,audio/Narrative5Situation7.wav,1859.1175,,1859.1177,1880.1541,"[[71.4,1252],[69.5,1339],[68.2,1418],[65.8,1501],[63.5,1583],[61.3,1666],[60.8,1750],[60.2,1833],[59.5,1915],[59.4,2000],[58.8,2083],[58.8,2167],[58.5,2249],[58.5,2333],[60,2416],[65.7,2501],[71.4,2584],[73.7,2668],[74.3,2749],[75.2,2833],[75.5,2915],[75.5,2999],[75.5,3082],[75.5,3165],[75.6,3250],[75.6,3334],[75.6,3416],[75.6,3500],[75.6,3582],[75.6,3666],[75.6,3749],[75.6,3833],[75.6,3915],[75.6,3999],[75.6,4082],[75.6,4165],[75.6,4249],[75.6,4334],[75.6,4415],[75.6,4499],[75.6,4583],[75.6,4666],[75.6,4749],[75.6,4832],[75.6,4916],[75.6,4999],[75.6,5082],[75.6,5168],[75.6,5250],[75.6,5333],[75.6,5416],[75.6,5499],[75.6,5582],[75.6,5666],[75.6,5750],[75.6,5833],[75.6,5916],[75.6,6000],[75.6,6083],[75.6,6167],[75.6,6250],[75.6,6336],[75.6,6416],[75.6,6501],[75.6,6584],[75.6,6666],[75.6,6750],[75.6,6833],[75.6,6916],[75.6,7000],[75.6,7083],[75.6,7167],[75.6,7250],[75.6,7335],[75.6,7417],[75.6,7500],[75.6,7584],[75.6,7666],[75.6,7751],[75.6,7833],[75.6,7916],[75.6,8000],[75.6,8083],[75.6,8167],[75.6,8251],[75.6,8336],[75.6,8417],[75.6,8500],[75.6,8583],[75.6,8667],[75.6,8751],[75.6,8835],[75.6,8916],[75.6,9001],[75.6,9083],[75.6,9167],[75.6,9250],[75.6,9338],[75.6,9417],[75.6,9500],[75.6,9583],[75.6,9666],[75.6,9750],[75.6,9834],[75.6,9917],[75.6,10001],[75.6,10084],[75.6,10166],[75.6,10251],[75.6,10334],[75.6,10417],[75.6,10500],[75.6,10583],[75.6,10666],[75.6,10750],[75.6,10833],[75.6,10916],[75.6,11000],[75.6,11083],[75.6,11166],[75.6,11251],[75.6,11335],[75.6,11417],[75.6,11500],[75.6,11583],[75.6,11667],[75.6,11750],[75.6,11833],[75.6,11916],[75.6,12000],[73.9,12085],[68.6,12168],[66.4,12253],[63,12336],[44.6,13168],[46.6,13252],[47.5,13334],[47.5,13416],[47.5,13499],[47.5,13582],[47.5,13666],[47.5,13749],[47.5,13833],[47.5,13915],[47.5,14000],[47.5,14082],[47.5,14165],[47.5,14248],[47.5,14333],[47.5,14415],[47.5,14500],[47.5,14583],[48.1,14668],[49.4,14751],[50.4,14834],[51.2,14919],[52.3,15001],[55.1,15084],[55.9,15168],[55.9,15251],[55.1,15338],[53.1,15420],[52.2,15503],[51.3,15584],[50.4,15668],[49.6,15752],[49.3,15835],[49.3,15917],[49.3,16000],[49.3,16083],[49.3,16167],[49.3,16250],[49.3,16335],[49.3,16416],[49.3,16500],[49.3,16583],[49.3,16667],[49.3,16750],[49.3,16833],[49.3,16916],[49.3,17000],[49.3,17083],[49.3,17168],[49.3,17250],[49.3,17334],[49.3,17418],[49.3,17501],[49.3,17584],[49.3,17666],[49.3,17751],[49.3,17834],[20.1,18421],[20.6,18515],[20.6,18604],[20.1,18689],[19.4,18774],[18.2,18855],[18.1,18938],[18.1,19015],[18.1,19098],[18.1,19183],[18.1,19270],[18.1,19372],[18.1,19434],[18.1,19516],[18.1,19601],[18.1,19683],[18.1,19766],[18.1,19850],[18.1,19934],[18.1,20017],[18.1,20100],[18.1,20183],[18.1,20266],[18.1,20351],[18.1,20435],[18.1,20517],[18.1,20600],[19.5,20684],[19.5,20767],[19.8,20852],[21.6,20935],[22.2,21017]]",1880.1551,1882.1576,1.244509517,1.4203,"[{""rating"":1.2445095168374831,""responseTime"":1.4203000000120483}]",space,1.4415,,1882.1577,Partially,50,1882.1716,,,[],,0,16,16,16,1,audio/Narrative8Situation7.wav,audio/Narrative7Situation7.wav,audio/Narrative6Situation7.wav,audio/Narrative5Situation7.wav,3,5,5,4,,,,,,,,,,,,,,,,,,,,,,,,,,,,,,,,,,,,,,,
,,,,,673f361cb1d555345330ff1b,2025-07-07_23h30.58.936,group3.4_multiperson,2023.2.2,Win32,59.88023952,686c2ebf0248f13bef9af11f,686c9849d85b26e093433b26,,,,,,,,,,,,,,,,,,,,,,,,,,,,,1882.1725,2,audio/Narrative5Situation8.wav,1885.1873,,1885.1874,1894.0091,"[[1.7,3270],[1.7,3350],[1.7,3434],[1.7,3517],[1.7,3601],[1.7,3684],[1.7,3768],[1.7,3846],[1.7,3933],[1.7,4014],[1.7,4101],[1.7,4183],[1.7,4268],[1.7,4350],[1.7,4434],[1.7,4514],[1.7,4596],[1.7,4683],[1.7,4763],[1.7,4851],[1.7,4933],[1.7,5018],[1.7,5096],[1.7,5180],[1.7,5265],[1.7,5352],[1.7,5434],[1.7,5519],[1.7,5600],[1.7,5683],[1.7,5767],[1.7,5850],[1.7,5934],[1.7,6017],[1.7,6102],[1.7,6184],[1.7,6269],[1.7,6350],[1.7,6435],[1.7,6517],[1.7,6601],[1.7,6684],[1.7,6768],[1.7,6851],[1.7,6934],[1.7,7017],[5.3,7104],[6.1,8306]]",1894.0094,1896.635,5.783308931,2.28,"[{""rating"":5.783308931185943,""responseTime"":2.2799999999999727}]",space,2.0813,,1896.6351,Not at all,0,1904.2684,0.512445095,7.3583,"[{""rating"":0.5124450951683734,""responseTime"":7.090400000005957},{""rating"":0.5124450951683734,""responseTime"":7.358300000011923}]",space,0,17,17,17,1,audio/Narrative8Situation8.wav,audio/Narrative7Situation8.wav,audio/Narrative6Situation8.wav,audio/Narrative5Situation8.wav,3,2,5,3,,,7.0882,,,,,,,,,,,,,,,,,,,,,,,,,,,,,,,,,,,,
,,,,,673f361cb1d555345330ff1b,2025-07-07_23h30.58.936,group3.4_multiperson,2023.2.2,Win32,59.88023952,686c2ebf0248f13bef9af11f,686c9849d85b26e093433b26,,,,,,,,,,,,,,,,,,,,,,,,,,,,,1904.2698,2,audio/Narrative5Situation9.wav,1907.2856,,1907.2858,1946.8385,"[[23.6,2202],[27,2285],[27.5,2368],[27.5,2448],[27.5,2535],[27.5,2614],[27.5,2698],[27.5,2784],[27.5,2864],[27.5,2951],[27.5,3031],[27.5,3118],[27.5,3200],[27.5,3285],[27.5,3364],[27.6,3452],[46.5,3535],[88.7,4202],[89.2,4284],[89.2,4368],[89.2,4448],[94.5,4536],[99.9,4619],[100,4702],[100,4781],[100,4868],[100,4952],[100,5035],[100,5115],[100,5202],[100,5284],[100,5367],[100,5448],[100,5531],[100,5615],[100,5702],[100,5783],[100,5869],[100,5948],[100,6035],[100,6118],[100,6202],[100,6281],[100,6368],[100,6452],[100,6532],[100,6617],[100,6698],[100,6781],[100,6868],[100,6951],[100,7035],[100,7119],[100,7201],[100,7285],[100,7368],[100,7451],[100,7531],[100,7619],[100,7698],[100,7785],[100,7865],[100,7948],[100,8035],[100,8115],[100,8201],[100,8281],[100,8367],[100,8448],[100,8535],[100,8619],[100,8701],[100,8782],[100,8868],[100,8951],[100,9034],[100,9115],[100,9198],[100,9284],[100,9368],[100,9449],[100,9531],[100,9615],[100,9701],[100,9784],[100,9865],[100,9951],[100,10034],[100,10118],[100,10198],[100,10284],[100,10368],[100,10452],[100,10532],[100,10619],[100,10701],[100,10781],[100,10865],[100,10949],[100,11035],[100,11115],[100,11202],[100,11282],[100,11365],[100,11448],[100,11535],[100,11617],[100,11698],[100,11782],[100,11869],[100,11949],[100,12035],[100,12115],[100,12198],[100,12285],[100,12369],[100,12452],[100,12535],[100,12619],[100,12699],[100,12785],[100,12865],[100,12949],[100,13032],[100,13119],[100,13200],[100,13286],[100,13369],[100,13454],[100,13534],[100,13615],[100,13702],[100,13782],[100,13869],[100,13949],[100,14035],[100,14119],[100,14203],[100,14283],[100,14366],[100,14451],[100,14533],[100,14617],[100,14701],[100,14783],[100,14866],[100,14950],[100,15032],[100,15117],[100,15200],[100,15282],[100,15367],[100,15451],[100,15533],[100,15616],[100,15701],[100,15784],[100,15866],[100,15950],[100,16033],[100,16116],[100,16201],[100,16283],[100,16366],[100,16450],[100,16533],[100,16616],[100,16699],[100,16782],[100,16865],[100,16950],[100,17034],[100,17116],[100,17201],[100,17283],[100,17366],[100,17451],[100,17533],[100,17616],[100,17699],[100,17783],[100,17866],[100,17951],[100,18033],[100,18116],[100,18202],[100,18283],[100,18366],[100,18451],[100,18533],[100,18616],[100,18701],[100,18784],[100,18866],[100,18950],[100,19033],[100,19116],[100,19201],[100,19283],[100,19366],[100,19450],[100,19533],[100,19617],[100,19702],[100,19784],[100,19866],[100,19951],[100,20033],[100,20116],[100,20201],[100,20283],[100,20366],[100,20450],[100,20533],[100,20616],[100,20701],[100,20783],[100,20866],[100,20950],[100,21033],[100,21116],[100,21202],[100,21283],[100,21366],[100,21450],[100,21533],[100,21616],[100,21701],[100,21784],[100,21866],[100,21950],[100,22033],[100,22116],[100,22201],[100,22282],[100,22366],[100,22449],[100,22532],[100,22616],[100,22701],[100,22784],[100,22865],[100,22949],[100,23032],[100,23115],[100,23200],[100,23282],[100,23365],[100,23449],[100,23533],[100,23616],[100,23700],[100,23784],[100,23866],[100,23949],[100,24032],[100,24115],[100,24200],[100,24282],[100,24366],[100,24450],[100,24532],[100,24616],[100,24700],[100,24783],[100,24866],[100,24950],[100,25032],[100,25116],[100,25200],[100,25282],[100,25367],[100,25452],[100,25533],[100,25616],[100,25699],[100,25784],[100,25866],[100,25950],[100,26032],[100,26116],[100,26201],[100,26283],[100,26366],[100,26451],[100,26533],[100,26616],[100,26699],[100,26783],[100,26866],[100,26950],[100,27033],[100,27116],[100,27200],[100,27283],[100,27366],[100,27451],[100,27533],[100,27617],[100,27700],[100,27785],[100,27866],[100,27950],[100,28033],[100,28116],[100,28202],[100,28283],[100,28366],[100,28450],[100,28533],[100,28616],[100,28701],[100,28785],[100,28866],[100,28950],[100,29033],[100,29116],[100,29201],[100,29283],[100,29366],[100,29450],[100,29533],[100,29617],[100,29700],[100,29785],[100,29866],[100,29950],[100,30035],[100,30116],[100,30204],[100,30283],[100,30366],[100,30452],[100,30532],[100,30616],[100,30701],[100,30783],[100,30866],[100,30951],[100,31033],[100,31116],[100,31202],[100,31282],[100,31366],[100,31451],[100,31533],[100,31616],[100,31700],[100,31784],[100,31866],[100,31950],[100,32033],[100,32116],[100,32200],[100,32282],[100,32366],[100,32451],[100,32533],[100,32617],[100,32700],[100,32784],[100,32866],[100,32951],[100,33033],[100,33116],[100,33201],[100,33284],[100,33366],[100,33451],[100,33532],[100,33616],[100,33701],[100,33784],[100,33866],[100,33950],[100,34033],[100,34116],[100,34201],[100,34283],[100,34366],[100,34450],[100,34533],[100,34616],[100,34700],[100,34784],[100,34865],[100,34949],[100,35032],[100,35116],[100,35199],[100,35282],[100,35365],[100,35450],[100,35534],[97,35618],[92.9,35702],[91.3,35784],[86.7,35868],[81.9,35951],[77.7,36034],[74.2,36118],[72,36202],[45.5,36702],[43.7,36785],[43.4,36866],[43.4,36951],[43.4,37033],[43.4,37116],[41.1,37202],[41.1,37283],[41.1,37367],[41.1,37451],[41.1,37533],[41.1,37616],[41.1,37701],[41.1,37784],[41.1,37867],[41.1,37951],[41.1,38033],[41.1,38118],[41.1,38203],[37.8,38284],[34.5,38370],[29.4,38452],[27.9,38533],[27.7,38618],[27.5,38701],[27.5,38784],[27.5,38869],[27.5,38951],[27.5,39033],[27.5,39117],[27.5,39201],[27.5,39283],[27.5,39366],[27.5,39451],[27.5,39533]]",1946.8391,1949.5413,3.294289898,1.9832,"[{""rating"":3.2942898975109824,""responseTime"":1.983200000002853}]",space,2.1517,,1949.5415,Partially,50,1949.5528,,,[],,0,18,18,18,1,audio/Narrative8Situation9.wav,audio/Narrative7Situation9.wav,audio/Narrative6Situation9.wav,audio/Narrative5Situation9.wav,3,2,4,3,,,,,,,,,,,,,,,,,,,,,,,,,,,,,,,,,,,,,,,
,,,,,673f361cb1d555345330ff1b,2025-07-07_23h30.58.936,group3.4_multiperson,2023.2.2,Win32,59.88023952,686c2ebf0248f13bef9af11f,686c9849d85b26e093433b26,,,,,,,,,,,,,,,,,,,,,,,,,,,,,,,,,,,,,,,,,,,,,,,,,,,,,,,,,,,,,,,,,,,,,,1949.5542,2001.4742,space,51.3912,,2001.4757,2020.2426,space,18.4407,,,,,,,,,,,,,,,,,,,,,,,,,,
,,,,,673f361cb1d555345330ff1b,2025-07-07_23h30.58.936,group3.4_multiperson,2023.2.2,Win32,59.88023952,686c2ebf0248f13bef9af11f,686c9849d85b26e093433b26,,,,,,,,,,,,,,,,,,,,,,,,,,,,,2022.8846,1,audio/Narrative7Situation9.wav,2024.8881,,,,,2056.7417,2060.8394,97.73060029,3.5483,"[{""rating"":97.73060029282577,""responseTime"":3.548299999997198}]",space,3.5543,,2060.8396,Definitely yes,100,2060.8505,,,[],,,,,,,,,,,2,2,2,2,,,,,,,,,,,,,,,2020.2545,2022.8382,2024.8899,3,2056.7412,"[[3.4,3931],[3.4,4014],[3.4,4097],[2.9,4182],[2.3,4267],[2,4348],[1.5,4432],[0.8,4516],[0.8,4598],[0.8,4680],[0.8,4764],[0.8,4847],[0.8,4931],[0.8,5015],[0.8,5097],[0.8,5182],[0.8,5264],[0.8,5348],[0.8,5431],[0.8,5514],[0.8,5598],[0.8,5681],[0.8,5764],[0.8,5847],[0.8,5931],[0.8,6014],[0.8,6098],[0.8,6182],[0.8,6264],[0.8,6348],[0.8,6431],[0.8,6514],[0.8,6598],[0.8,6682],[0.8,6764],[0.8,6847],[0.8,6931],[0.8,7018],[0.8,7101],[0.8,7181],[0.8,7264],[0.8,7351],[0.8,7435],[0.8,7515],[0.8,7599],[0.8,7686],[0.8,7769],[0.8,7853],[0.8,7935],[0.8,8019],[0.8,8101],[0.8,8184],[0.8,8267],[0.8,8349],[0.8,8433],[0.8,8514],[0.8,8601],[0.8,8680],[0.8,8768],[0.8,8851],[0.8,8936],[0.8,9016],[0.8,9102],[0.8,9182],[0.8,9264],[0.8,9351],[0.8,9434],[1,9514],[1,9619],[1,9681],[1.2,9765],[1.2,9848],[1.2,9932],[1.2,10015],[1.2,10099],[1.2,10182],[1.2,10264],[1.2,10349],[1.2,10431],[1.2,10516],[1.2,10599],[1.2,10682],[1.2,10765],[1.2,10848],[1.2,10931],[1.2,11015],[1.2,11098],[1.2,11182],[1.2,11265],[1.2,11349],[1.2,11431],[1.2,11516],[1.2,11599],[1.2,11681],[1.2,11765],[1.2,11848],[1.2,11932],[1.2,12015],[0.4,12100],[0.1,12183],[0.1,12265],[0.1,12348],[0.1,12431],[0.1,12514],[0.1,12599],[0.1,12681],[0.1,12765],[0.1,12848],[0.1,12931],[0.1,13014],[0.1,13098],[0.1,13182],[0.1,13264],[0.1,13349],[0.1,13432],[0.1,13516],[0.1,13600],[0.1,13682],[0.1,13765],[0.1,13848],[0.1,13932],[0.1,14015],[0.1,14098],[0.1,14184],[0.1,14266],[0.1,14349],[0.1,14432],[0.1,14515],[0.1,14599],[0.1,14682],[0.1,14765],[0.1,14848],[0.1,14932],[0.1,15016],[0.1,15099],[0.1,15185],[0.1,15265],[0.1,15348],[0.1,15431],[0.1,15516],[0.1,15600],[0.1,15681],[0.1,15765],[0.1,15848],[0.1,15932],[0.1,16015],[0.1,16098],[0.1,16185],[0.1,16265],[0.1,16348],[0.1,16431],[0.1,16515],[0.1,16599],[0.1,16681],[0.1,16766],[0.1,16849],[0.1,16931],[0.1,17015],[0.1,17099],[0.1,17183],[0.1,17265],[0.1,17349],[0.1,17432],[0.1,17514],[0.1,17598],[0.1,17682],[0.1,17766],[0.1,17850],[0.1,17931],[0.1,18017],[0.1,18098],[0.1,18186],[0.1,18264],[0.1,18349],[0.1,18431],[0.1,18515],[0.1,18600],[0.1,18681],[0.1,18764],[0.1,18847],[0.1,18931],[0.1,19015],[0.1,19097],[0.1,19181],[0.1,19265],[0.1,19349],[0.1,19432],[0.1,19514],[0.1,19599],[0.1,19681],[0.1,19764],[0.1,19849],[0.1,19931],[0.1,20015],[0.1,20099],[0.1,20183],[0.1,20264],[0.1,20348],[0.1,20431],[0.1,20514],[0.1,20599],[0.1,20681],[0.1,20765],[0.1,20848],[0.1,20931],[0.1,21014],[0.1,21099],[0.1,21183],[0.1,21264],[0.1,21348],[0.1,21431],[0.1,21516],[0.1,21599],[0.1,21682],[0.1,21765],[0.1,21848],[0.1,21933],[0.1,22015],[0.1,22099],[0.1,22183],[0.1,22265],[0.1,22349],[0.1,22432],[0.1,22515],[1,22601],[3,22683],[3.3,22767],[6.2,22854],[12.5,22934],[14.9,23017],[15,23099],[15.3,23185],[15.9,23265],[15.9,23348],[15.9,23431],[15.9,23515],[15.9,23599],[15.9,23681],[16.6,23768],[16.9,23850],[16.9,23932],[16.9,24015],[17.3,24100],[17.5,24187],[17.5,24265],[17.5,24349],[17.5,24433],[17.6,24516],[17.6,24600],[17.6,24682],[17.6,24765],[17.6,24851],[17.6,24932],[24.4,25019],[29.8,25099],[32.3,25187],[34.6,25268],[37.4,25351],[38.4,25434],[40.3,25516],[42.1,25601],[55.6,27351],[58.5,27432],[58.9,27517],[60,27601],[61.4,27683],[64.1,27767],[64.5,27848],[64.5,27935],[64.3,28016],[64.3,28100],[64.3,28182],[64.3,28266],[64.2,28350],[64.1,28434],[64.1,28516],[64.1,28600],[64.1,28682],[64.1,28765],[64.1,28849],[64.1,28932],[64.1,29015],[64.1,29100],[64.1,29182],[64.1,29267],[64.1,29349],[64.1,29432],[64.1,29515],[64.1,29600],[64.3,29681],[64.5,29765],[64.8,29849],[64.8,29932],[64.8,30016],[64.8,30100],[64.9,30183],[64.9,30266],[64.9,30348],[66.5,30431],[66.5,30516],[66.5,30600],[66.5,30681],[66.5,30767],[66.5,30849],[66.5,30931],[66.5,31016],[66.5,31098],[66.5,31181],[66.5,31265],[66.5,31348],[66.5,31431],[66.8,31515],[66.8,31599],[66.8,31682],[67.3,31766],[67.7,31849]]",0,0,0,0,1,"Larry had recently lost his family, job and home, and was now living on his own in the park. He had most of his belongings, including some clothes, a blanket, and his mother’s special necklace. His family had been very important to him and he felt as though he did not have much going for him. One of his first days in the park he came across a family that did not have much food and looked very cold. He decided to give them some of his food and his blanket.","Larry had recently lost his family, job and home, and was now living on his own in the park. He had most of his belongings, including some clothes, a blanket, and his mother’s special necklace. His family had been very important to him and he felt as though he did not have much going for him. One of his first days in the park he came across a family that did not have much food and looked very cold. He decided to give them some of his food and his blanket.","Larry had recently lost his family, job and home, and was now living on his own in the park. He had most of his belongings, including some clothes, a blanket, and his mother’s special necklace. His family had been very important to him and he felt as though he did not have much going for him. One of his first days in the park he came across a family that did not have much food and looked very cold. He decided to give them some of his food and his blanket.","Larry had recently lost his family, job and home, and was now living on his own in the park. He had most of his belongings, including some clothes, a blanket, and his mother’s special necklace. His family had been very important to him and he felt as though he did not have much going for him. One of his first days in the park he came across a family that did not have much food and looked very cold. He decided to give them some of his food and his blanket.",,,,,,,,,,
