consent.started,consent.stopped,consentResponse.keys,consentResponse.rt,consentResponse.duration,participantID,date,expName,psychopyVersion,OS,frameRate,STUDY_ID,SESSION_ID,opening1.started,opening1.stopped,keyEndingOpening1.keys,keyEndingOpening1.rt,keyEndingOpening1.duration,volumeAdjust.started,volumeAdjust.stopped,endingAdjust.keys,endingAdjust.rt,endingAdjust.duration,opening2.started,opening2.stopped,keyEndingOpening.keys,keyEndingOpening.rt,keyEndingOpening.duration,mouse.x,mouse.y,mouse.leftButton,mouse.midButton,mouse.rightButton,mouse.time,instructionLoop.thisRepN,instructionLoop.thisTrialN,instructionLoop.thisN,instructionLoop.thisIndex,instructionLoop.ran,readyForAudio.started,readyForAudio.stopped,fixation.started,run,audio_played,fixation.stopped,endPractice.keys,audioPre.started,audioPre.stopped,continuousResponses_audio,intRating.started,intRating.stopped,intQuestionSlider.response,intQuestionSlider.rt,intQuestionSlider.history,confirmResponse.keys,confirmResponse.rt,confirmResponse.duration,catchQuestion.started,catch_label,catch_value,catchQuestion.stopped,catchQuestionSlider.response,catchQuestionSlider.rt,catchQuestionSlider.history,confirmResponse_2.keys,audioRunLoop.thisRepN,audioRunLoop.thisTrialN,audioRunLoop.thisN,audioRunLoop.thisIndex,audioRunLoop.ran,conditions1_1,conditions2_1,conditions1_2,conditions2_2,dur1_1,dur2_1,dur1_2,dur2_2,endPractice.rt,endPractice.duration,confirmResponse_2.rt,confirmResponse_2.duration,runIntervalBreak.started,runIntervalBreak.stopped,endingBreakKey.keys,endingBreakKey.rt,endingBreakKey.duration,connection.started,connection.stopped,connectionEnding.keys,connectionEnding.rt,connectionEnding.duration,readyForText.started,readyForText.stopped,textPre.started,run_dup,textPre.stopped,continuousResponses_text,textRunLoop.thisRepN,textRunLoop.thisTrialN,textRunLoop.thisN,textRunLoop.thisIndex,textRunLoop.ran,text1_1,text1_2,text2_1,text2_2,runBreakText.started,runBreakText.stopped,endingBreakKey_2.keys,endingBreakKey_2.rt,endingBreakKey_2.duration,ending.started,ending.stopped,endingEnding.keys,endingEnding.rt,endingEnding.duration
0.001,8.75,y,8.419,,67439be8ee2236a7c078d523,2025-07-07_18h58.35.585,group3.4_multiperson,2023.2.2,Win32,59.95203837,686c2ebf0248f13bef9af11f,686c7b025230fe7fa3c2067a,,,,,,,,,,,,,,,,,,,,,,,,,,,,,,,,,,,,,,,,,,,,,,,,,,,,,,,,,,,,,,,,,,,,,,,,,,,,,,,,,,,,,,,,,,,,,,,,,,,,,,,,
,,,,,67439be8ee2236a7c078d523,2025-07-07_18h58.35.585,group3.4_multiperson,2023.2.2,Win32,59.95203837,686c2ebf0248f13bef9af11f,686c7b025230fe7fa3c2067a,8.75,12.466,space,3.668,,,,,,,,,,,,,,,,,,,,,,,,,,,,,,,,,,,,,,,,,,,,,,,,,,,,,,,,,,,,,,,,,,,,,,,,,,,,,,,,,,,,,,,,,,,,,,,,,,,,
,,,,,67439be8ee2236a7c078d523,2025-07-07_18h58.35.585,group3.4_multiperson,2023.2.2,Win32,59.95203837,686c2ebf0248f13bef9af11f,686c7b025230fe7fa3c2067a,,,,,,12.466,22.533,space,9.75,,,,,,,,,,,,,,,,,,,,,,,,,,,,,,,,,,,,,,,,,,,,,,,,,,,,,,,,,,,,,,,,,,,,,,,,,,,,,,,,,,,,,,,,,,,,,,,
,,,,,67439be8ee2236a7c078d523,2025-07-07_18h58.35.585,group3.4_multiperson,2023.2.2,Win32,59.95203837,686c2ebf0248f13bef9af11f,686c7b025230fe7fa3c2067a,,,,,,,,,,,22.538,31.699,space,9.138,,[],[],[],[],[],[],0,0,0,0,1,,,,,,,,,,,,,,,,,,,,,,,,,,,,,,,,,,,,,,,,,,,,,,,,,,,,,,,,,,,,,,,,,,,,,,,,,,,,,,
,,,,,67439be8ee2236a7c078d523,2025-07-07_18h58.35.585,group3.4_multiperson,2023.2.2,Win32,59.95203837,686c2ebf0248f13bef9af11f,686c7b025230fe7fa3c2067a,,,,,,,,,,,31.7,47.95,space,16.17,,[],[],[],[],[],[],1,0,1,0,1,,,,,,,,,,,,,,,,,,,,,,,,,,,,,,,,,,,,,,,,,,,,,,,,,,,,,,,,,,,,,,,,,,,,,,,,,,,,,,
,,,,,67439be8ee2236a7c078d523,2025-07-07_18h58.35.585,group3.4_multiperson,2023.2.2,Win32,59.95203837,686c2ebf0248f13bef9af11f,686c7b025230fe7fa3c2067a,,,,,,,,,,,47.952,62.899,space,14.866,,[],[],[],[],[],[],2,0,2,0,1,,,,,,,,,,,,,,,,,,,,,,,,,,,,,,,,,,,,,,,,,,,,,,,,,,,,,,,,,,,,,,,,,,,,,,,,,,,,,,
,,,,,67439be8ee2236a7c078d523,2025-07-07_18h58.35.585,group3.4_multiperson,2023.2.2,Win32,59.95203837,686c2ebf0248f13bef9af11f,686c7b025230fe7fa3c2067a,,,,,,,,,,,62.9,80.083,space,17.157,,[],[],[],[],[],[],3,0,3,0,1,,,,,,,,,,,,,,,,,,,,,,,,,,,,,,,,,,,,,,,,,,,,,,,,,,,,,,,,,,,,,,,,,,,,,,,,,,,,,,
,,,,,67439be8ee2236a7c078d523,2025-07-07_18h58.35.585,group3.4_multiperson,2023.2.2,Win32,59.95203837,686c2ebf0248f13bef9af11f,686c7b025230fe7fa3c2067a,,,,,,,,,,,80.085,88.849,space,8.731,,[],[],[],[],[],[],4,0,4,0,1,,,,,,,,,,,,,,,,,,,,,,,,,,,,,,,,,,,,,,,,,,,,,,,,,,,,,,,,,,,,,,,,,,,,,,,,,,,,,,
,,,,,67439be8ee2236a7c078d523,2025-07-07_18h58.35.585,group3.4_multiperson,2023.2.2,Win32,59.95203837,686c2ebf0248f13bef9af11f,686c7b025230fe7fa3c2067a,,,,,,,,,,,88.85,103.567,space,14.683,,[],[],[],[],[],[],5,0,5,0,1,,,,,,,,,,,,,,,,,,,,,,,,,,,,,,,,,,,,,,,,,,,,,,,,,,,,,,,,,,,,,,,,,,,,,,,,,,,,,,
,,,,,67439be8ee2236a7c078d523,2025-07-07_18h58.35.585,group3.4_multiperson,2023.2.2,Win32,59.95203837,686c2ebf0248f13bef9af11f,686c7b025230fe7fa3c2067a,,,,,,,,,,,,,,,,,,,,,,,,,,,103.57,106.149,106.161,1,audio/Narrative13Situation2.wav,108.166,,108.166,137.933,"[[999,1],[999,100],[999,183],[999,266],[999,350],[999,433],[999,516],[999,600],[999,683],[999,766],[999,850],[999,933],[999,1016],[999,1100],[999,1183],[999,1266],[999,1350],[999,1433],[999,1516],[999,1600],[999,1683],[999,1766],[999,1850],[999,1933],[999,2016],[999,2100],[999,2183],[999,2266],[999,2350],[999,2433],[999,2516],[999,2600],[999,2683],[999,2766],[999,2850],[16,2933],[16.1,3016],[16.1,3100],[16.1,3183],[16.1,3266],[16.1,3350],[16.1,3433],[16.1,3516],[18.4,3600],[20.4,3683],[20.4,3766],[20.4,3850],[20.4,3933],[19.9,4016],[19.8,4100],[19.6,4183],[19.1,4266],[18.6,4350],[17.9,4433],[17.6,4516],[17.4,4600],[16.5,4683],[16.3,4766],[16.3,4849],[16,4933],[15.9,5016],[15.9,5100],[15.9,5183],[15.9,5266],[17,5350],[17.9,5433],[18,5516],[18.3,5600],[18.4,5683],[18.4,5766],[18.4,5850],[18.4,5933],[18.4,6016],[18.3,6099],[18.3,6183],[18.3,6266],[18.6,6350],[19,6433],[19.4,6516],[19.5,6600],[19.8,6683],[19.9,6766],[19.9,6850],[19.9,6933],[19.9,7016],[19.9,7100],[19.9,7183],[19.9,7266],[19.9,7350],[19.9,7433],[19.9,7516],[19.9,7599],[19.9,7683],[19.9,7766],[19.9,7850],[19.9,7933],[19.9,8016],[20.4,8100],[23.4,8183],[24.1,8266],[25.6,8350],[26.8,8433],[28,8516],[29.8,8600],[30.5,8683],[31.6,8766],[35.3,8850],[39.4,8933],[41.8,9016],[44.4,9100],[45.9,9183],[47.3,9266],[48.3,9350],[48.3,9433],[48.3,9516],[48.3,9600],[48.3,9683],[48.3,9766],[48.3,9850],[48.4,9933],[48.6,10016],[49.1,10100],[49.5,10183],[49.5,10267],[49.5,10350],[49.5,10433],[50.1,10516],[50.1,10599],[50.8,10683],[51.8,10767],[51.8,10849],[51.8,10934],[51.8,11017],[51.8,11099],[51.8,11184],[51.8,11267],[51.8,11350],[51.8,11433],[51.9,11516],[52.1,11600],[52.1,11683],[52.1,11766],[52.1,11850],[51,11933],[51,12016],[51,12100],[51,12183],[51,12266],[51,12350],[51,12433],[51.9,12517],[51.9,12599],[51.9,12682],[51.9,12766],[51.9,12849],[51.9,12932],[51.9,13016],[51.9,13099],[51.9,13182],[51.9,13266],[51.9,13349],[51.9,13432],[51.9,13515],[51.9,13599],[51.9,13682],[51.9,13765],[51.9,13849],[51.9,13932],[51.9,14015],[53.3,14099],[58.1,14183],[60.8,14266],[62.5,14349],[65.6,14432],[70.9,14516],[78.9,14599],[86,14682],[91.1,14765],[93.1,14849],[93.8,14932],[94.6,15015],[94.9,15099],[97.6,15182],[98.5,15265],[98.5,15349],[98.5,15433],[98,15516],[98,15599],[98.4,15682],[98.6,15766],[98.6,15849],[98.6,15932],[98.6,16016],[98.6,16099],[98.6,16182],[98.6,16265],[98.6,16349],[98.6,16432],[98.6,16516],[98.6,16599],[98.6,16682],[98.6,16765],[98.6,16849],[98.6,16932],[98.6,17015],[98.6,17099],[98.6,17182],[98.6,17265],[98.6,17348],[98.6,17433],[98.6,17516],[98.6,17599],[98.6,17682],[98.6,17766],[97.6,17849],[96.3,17932],[94.1,18016],[90.8,18099],[89,18182],[87.8,18265],[83.8,18349],[81,18432],[81,18515],[80.6,18599],[78.1,18683],[67.8,18766],[58.9,18849],[57.1,18933],[54,19016],[52,19099],[52,19182],[51.8,19266],[51.3,19349],[51.3,19432],[51.3,19515],[51,19601],[51,19682],[50.6,19765],[50.4,19849],[50.3,19932],[50,20015],[49.9,20098],[49.9,20183],[49.9,20266],[49.9,20349],[49.9,20432],[49.9,20516],[49.9,20599],[49.9,20682],[49.9,20765],[49.9,20849],[49.9,20933],[49.9,21016],[49.9,21099],[49.9,21182],[49.9,21265],[49.8,21349],[49.8,21432],[50,21516],[56.8,21599],[63.3,21682],[71.4,21765],[76.4,21851],[76.4,21932],[76.4,22016],[76.1,22099],[76,22182],[76,22266],[77.3,22349],[77.8,22432],[77.8,22516],[77.8,22599],[77.8,22682],[77.8,22765],[77.8,22849],[77.8,22932],[77.8,23015],[77.6,23099],[77.5,23182],[77.5,23266],[77.5,23349],[77.8,23432],[86.9,23516],[92.8,23599],[92.8,23682],[92.8,23766],[92.8,23849],[92.8,23932],[92.8,24016],[92.8,24099],[92.8,24182],[92.8,24265],[92.8,24348],[92.8,24432],[92.8,24515],[92.6,24599],[92.5,24682],[92,24765],[91.4,24851],[91.3,24932],[91,25016],[90.5,25099],[90.1,25183],[90.1,25266],[90.1,25349],[89.6,25433],[88.3,25516],[88.1,25599],[88.1,25682],[88,25766],[86.8,25849],[86,25932],[85.6,26015],[85.6,26099],[85.6,26182],[85.6,26265],[85.6,26348],[85.6,26432],[85.6,26515],[85.6,26598],[85.6,26682],[85.6,26766],[85.6,26849],[85.6,26932],[85.6,27016],[85.6,27099],[85.6,27182],[85.6,27265],[85.6,27349],[85.6,27432],[86.1,27515],[91.3,27599],[91.8,27682],[91.8,27765],[91.8,27849],[91.8,27933],[91.8,28016],[91.8,28099],[91.8,28182],[91.9,28266],[92.9,28349],[92.9,28432],[92.9,28516],[92.9,28599],[92.4,28682],[91,28766],[90.3,28849],[89.4,28932],[88.8,29015],[88.5,29099],[88.1,29182],[87.6,29265],[86.9,29349],[86.6,29432],[86.4,29515],[86.4,29599],[86.4,29682],[86.4,29765]]",137.933,147.999,63.125,9.021,"[{""rating"":63.125,""responseTime"":9.021000000000015}]",space,9.542,,147.999,Partially,50,148.004,,,[],,0,0,0,0,1,audio/Narrative13Situation2.wav,audio/Narrative13Situation2.wav,audio/Narrative13Situation2.wav,audio/Narrative13Situation2.wav,2,2,2,2,,,,,,,,,,,,,,,,,,,,,,,,,,,,,,,,,,,,,,,
,,,,,67439be8ee2236a7c078d523,2025-07-07_18h58.35.585,group3.4_multiperson,2023.2.2,Win32,59.95203837,686c2ebf0248f13bef9af11f,686c7b025230fe7fa3c2067a,,,,,,,,,,,,,,,,,,,,,,,,,,,,,148.004,1,audio/Narrative8Situation1.wav,149.4,space,149.4,165.317,"[[999,1],[999,82],[999,165],[999,248],[999,332],[999,415],[999,498],[999,582],[999,665],[999,748],[999,832],[999,915],[999,998],[999,1081],[44,1165],[44.3,1248],[46,1331],[47,1415],[47.1,1498],[47.1,1581],[47,1665],[46.6,1748],[49.1,1831],[50.6,1915],[50.6,1998],[50.6,2082],[50.6,2165],[50.9,2248],[57.6,2332],[68.1,2415],[73.1,2498],[76.4,2582],[82.1,2665],[88.3,2748],[91,2831],[91,2915],[91.1,3000],[91.3,3082],[93.3,3165],[93.9,3248],[94,3332],[94,3415],[94,3498],[94,3582],[94,3665],[94,3748],[94,3832],[94,3915],[94,3998],[94,4081],[94,4165],[94,4248],[94,4332],[94,4415],[94,4498],[94,4581],[94,4665],[94,4748],[94,4831],[96.4,4915],[97.3,5000],[97.6,5082],[97.6,5165],[97.6,5248],[97.6,5332],[97.6,5415],[97.6,5498],[97.6,5582],[97.6,5665],[97.4,5748],[96.1,5832],[95.5,5917],[95.1,5998],[94.4,6081],[87.6,6165],[84.9,6248],[84.8,6332],[84.3,6415],[82.6,6498],[79.4,6582],[78.3,6665],[78.3,6748],[78.6,6832],[79.6,6915],[79.6,6998],[79.6,7081],[79.6,7165],[79.6,7248],[79.6,7331],[79.6,7415],[79.6,7498],[79.6,7581],[79.6,7665],[79.6,7748],[79.6,7831],[79.6,7915],[79.6,8000],[79.6,8082],[79.6,8165],[78.9,8248],[78.9,8331],[78.1,8415],[78.1,8498],[78.1,8581],[77.5,8665],[76.9,8748],[76.9,8832],[76.9,8915],[76.8,8998],[72,9081],[69.9,9165],[68,9250],[68,9331],[66.1,9415],[58.1,9498],[52.6,9581],[50.8,9665],[50.8,9750],[50.8,9832],[52.5,9915],[61.4,9998],[66.6,10082],[73.5,10165],[79.8,10248],[83.8,10332],[87,10415],[88.6,10498],[89.8,10581],[90.3,10665],[90.3,10748],[90.4,10831],[90.4,10915],[90.4,11000],[90.4,11082],[90.4,11165],[90.4,11248],[90.4,11332],[90.4,11415],[90.4,11498],[90.4,11582],[90.4,11665],[90.3,11748],[90.3,11831],[90.3,11915],[90.3,11998],[90.3,12081],[90.3,12165],[90.3,12248],[90.3,12331],[90.3,12415],[90.3,12498],[90.3,12582],[90.3,12665],[90.3,12748],[90.3,12832],[90.3,12915],[90.3,12998],[90.3,13082],[90.3,13165],[90.3,13248],[90.3,13332],[90.3,13415],[90.3,13498],[90.1,13582],[90.1,13665],[90,13748],[88.8,13831],[88.8,13915],[88.8,13998],[89.3,14082],[93.1,14165],[93.4,14248],[93.4,14332],[93.4,14415],[93.4,14498],[93.4,14582],[93.1,14665],[92.8,14748],[92,14831],[92,14915],[92,14998],[92,15081],[92,15165],[92,15248],[92,15331],[92,15415],[92,15498],[92,15581],[92,15665],[92,15748],[92,15832],[92,15915]]",165.317,171.666,87.5,4.625,"[{""rating"":87.5,""responseTime"":4.625}]",space,5.808,,171.666,Partially,50,171.669,,,[],,0,1,1,1,1,audio/Narrative7Situation1.wav,audio/Narrative8Situation1.wav,audio/Narrative5Situation1.wav,audio/Narrative6Situation1.wav,2,5,5,2,1.356,,,,,,,,,,,,,,,,,,,,,,,,,,,,,,,,,,,,,,
,,,,,67439be8ee2236a7c078d523,2025-07-07_18h58.35.585,group3.4_multiperson,2023.2.2,Win32,59.95203837,686c2ebf0248f13bef9af11f,686c7b025230fe7fa3c2067a,,,,,,,,,,,,,,,,,,,,,,,,,,,,,171.67,1,audio/Narrative8Situation2.wav,174.683,,174.683,184.816,"[[999,0],[999,82],[999,165],[999,250],[999,332],[999,415],[999,500],[999,582],[999,665],[999,748],[999,832],[999,915],[999,998],[999,1082],[51.9,1165],[51.6,1250],[51,1332],[49.4,1417],[48.1,1498],[48.4,1915],[48.4,2000],[48.1,2082],[47.9,2165],[47.9,2248],[47.8,2332],[44.9,2415],[37.3,2498],[27.4,2582],[22.4,2665],[21.8,2750],[21.8,2832],[21.8,2917],[21.8,3000],[21.8,3082],[21.8,3165],[22.9,3250],[23.9,3332],[23.9,3415],[23.9,3500],[23.9,3582],[23.9,3665],[26.6,3748],[28.8,3832],[30.5,3915],[30.6,3998],[30.1,4082],[28.1,4167],[25.4,4250],[24.9,4331],[23.5,4415],[21.3,4500],[15.8,4581],[13.3,4667],[13.3,4750],[13.3,4831],[15.3,4915],[16.6,5000],[16.6,5082],[16.6,5165],[16.6,5248],[16.6,5332],[16.6,5415],[16.6,5498],[16.6,5582],[16.6,5665],[16.4,5748],[16.3,5831],[16.3,5915],[16,6000],[16,6082],[16,6165],[16,6250],[16,6332],[16,6415],[16.4,6500],[20.8,6582],[23.3,6665],[25.6,6748],[28.3,6832],[29.1,6915],[33.1,6998],[42.6,7081],[49.1,7167],[49.8,7248],[49.8,7331],[49.8,7417],[49.8,7500],[49.8,7582],[49.8,7665],[53.1,7750],[63.5,7832],[71,7915],[74.8,7998],[77.5,8082],[77.5,8165],[77.5,8248],[77.5,8332],[77.5,8415],[77.5,8498],[77.5,8582],[77.3,8665],[77.3,8748],[77.3,8832],[73.9,8917],[55.3,9000],[49.4,9081],[49.4,9167],[49.4,9248],[49.4,9331],[49.4,9415],[49.4,9500],[45,9582],[28.8,9665],[26.6,9750],[26.6,9832],[26.6,9915],[26.6,9998],[26.6,10081]]",184.816,192.966,49.75,6.201,"[{""rating"":49.75,""responseTime"":6.200999999999993}]",space,7.617,,192.966,Partially,50,192.968,,,[],,0,2,2,2,1,audio/Narrative7Situation2.wav,audio/Narrative8Situation2.wav,audio/Narrative5Situation2.wav,audio/Narrative6Situation2.wav,3,3,3,3,,,,,,,,,,,,,,,,,,,,,,,,,,,,,,,,,,,,,,,
,,,,,67439be8ee2236a7c078d523,2025-07-07_18h58.35.585,group3.4_multiperson,2023.2.2,Win32,59.95203837,686c2ebf0248f13bef9af11f,686c7b025230fe7fa3c2067a,,,,,,,,,,,,,,,,,,,,,,,,,,,,,192.969,1,audio/Narrative8Situation3.wav,196.982,,196.982,219.349,"[[999,1],[999,83],[999,167],[999,250],[999,333],[999,417],[999,501],[999,584],[999,668],[999,751],[999,834],[999,917],[24.1,1000],[23.8,1084],[23.8,1167],[23.8,1250],[23.8,1334],[25.6,1417],[27.9,1500],[29.1,1584],[33,1667],[43.3,1750],[55.3,1834],[61.3,1917],[61.4,2001],[61.1,2084],[60.9,2167],[59.8,2251],[57.1,2334],[56.1,2417],[56.1,2501],[56.1,2584],[56,2667],[48.4,2750],[33.9,2834],[30.8,2917],[30.8,3000],[30.3,3084],[23.9,3167],[23.4,3250],[23.6,3333],[40.8,3417],[48.3,3500],[48.3,3583],[48.3,3668],[52.4,3751],[52.5,3834],[52.5,3917],[52.5,4001],[52.5,4084],[52.5,4167],[52.5,4250],[53,4334],[53.6,4417],[53.6,4500],[53.6,4584],[58.3,4667],[60.6,4750],[60.6,4833],[60.6,4917],[60.6,5001],[60.8,5084],[61.6,5167],[61.6,5251],[61.6,5333],[61.6,5417],[61.6,5500],[61.6,5584],[61.6,5667],[63.5,5750],[64.4,5834],[64.4,5917],[66.6,6000],[71,6083],[72.5,6168],[75.5,6251],[77.8,6333],[77.8,6417],[77.8,6500],[78.1,6584],[78.1,6667],[78.1,6751],[78.1,6834],[78.1,6917],[77.8,7000],[77.8,7084],[77.5,7168],[77.3,7251],[77.3,7334],[77.3,7417],[77.3,7500],[77.3,7584],[77.3,7667],[77.3,7750],[77.3,7833],[77.3,7917],[77.3,8000],[77.3,8084],[77.3,8168],[77.3,8250],[77.3,8333],[77.3,8417],[77.3,8501],[77.3,8584],[77.3,8667],[77.3,8750],[77.3,8834],[77.3,8917],[77.3,9000],[72.6,9084],[69.3,9167],[66.1,9250],[65.4,9334],[65.4,9417],[66.6,9501],[73.5,9583],[75.8,9667],[75.9,9751],[76.3,9834],[78.6,9917],[78.6,10001],[78.6,10084],[78.6,10167],[78.6,10251],[78.6,10334],[78.6,10417],[78.6,10500],[78.6,10583],[78.6,10667],[78.6,10751],[78.6,10833],[78.6,10917],[78.6,11001],[78.6,11083],[78.6,11167],[78.6,11251],[78.6,11334],[78.6,11418],[78.6,11501],[78.6,11584],[78.6,11667],[78.6,11751],[78.6,11834],[78.6,11917],[78.6,12000],[79.3,12084],[80.3,12167],[80.3,12250],[80.3,12333],[80.3,12417],[80.3,12500],[80.3,12583],[80.3,12667],[80.3,12751],[80.8,12834],[80.9,12917],[80.9,13001],[80.9,13084],[80.9,13167],[80.9,13251],[80.9,13334],[80.9,13417],[80.9,13500],[82.3,13584],[87.8,13667],[90.6,13750],[93,13834],[94.5,13918],[95.4,14000],[95.4,14083],[95.4,14167],[95.3,14251],[94.5,14334],[94.3,14417],[94.1,14501],[94.1,14584],[94.1,14667],[94.1,14750],[94.1,14834],[94.1,14917],[94.1,15000],[94.1,15084],[94.1,15167],[94.1,15250],[94.1,15333],[94.1,15417],[94.1,15501],[94.1,15583],[94.4,15668],[95.1,15750],[95.3,15833],[95.3,15917],[95.3,16000],[95.3,16084],[95.3,16167],[95.3,16251],[95.3,16334],[95.3,16417],[95.3,16500],[95.3,16584],[95.3,16667],[95.3,16750],[95.3,16834],[95.3,16917],[95.3,17000],[95.3,17083],[96.3,17167],[96.4,17250],[96.4,17333],[96.4,17417],[96.4,17501],[96.4,17584],[96.4,17667],[96.4,17750],[96.4,17834],[96.4,17917],[96.4,18000],[96.4,18084],[96.4,18167],[96.4,18250],[96.4,18333],[96.4,18417],[96.4,18500],[96.4,18584],[96.4,18667],[96.4,18751],[96.6,18833],[96.9,18918],[97.1,19001],[97.1,19084],[97.1,19167],[97.1,19250],[97.1,19334],[97.1,19417],[97.1,19500],[97.1,19583],[97.1,19667],[97.1,19751],[97.1,19834],[97.1,19917],[97.1,20000],[97.1,20083],[97.1,20167],[97.1,20250],[97.1,20333],[97.1,20417],[97.1,20501],[97.1,20584],[97.1,20667],[97.1,20751],[97.1,20834],[97.1,20917],[97.1,21000],[97.1,21084],[97.1,21167],[97.1,21250],[97.1,21334],[97.1,21417],[97.1,21500],[97.1,21583],[97.1,21667],[97.1,21750],[97.1,21833],[97.1,21918],[97.1,22001],[97.1,22084],[97.1,22167],[97.1,22251],[97.1,22334]]",219.349,222.665,97.125,2.325,"[{""rating"":97.125,""responseTime"":2.3249999999999886}]",space,2.785,,222.666,Partially,50,222.669,,,[],,0,3,3,3,1,audio/Narrative7Situation3.wav,audio/Narrative8Situation3.wav,audio/Narrative5Situation3.wav,audio/Narrative6Situation3.wav,8,4,3,5,,,,,,,,,,,,,,,,,,,,,,,,,,,,,,,,,,,,,,,
,,,,,67439be8ee2236a7c078d523,2025-07-07_18h58.35.585,group3.4_multiperson,2023.2.2,Win32,59.95203837,686c2ebf0248f13bef9af11f,686c7b025230fe7fa3c2067a,,,,,,,,,,,,,,,,,,,,,,,,,,,,,222.669,1,audio/Narrative8Situation4.wav,225.683,,225.683,239.866,"[[999,1],[999,82],[999,165],[999,250],[999,332],[999,415],[999,498],[999,582],[999,665],[999,748],[999,832],[999,915],[999,998],[999,1082],[999,1167],[999,1250],[999,1331],[999,1415],[999,1498],[999,1582],[999,1665],[999,1750],[999,1832],[999,1915],[999,1998],[999,2082],[999,2165],[999,2248],[999,2332],[999,2417],[47.1,2500],[47.3,2582],[48.4,2667],[58.1,2750],[71.1,2832],[79.1,2915],[85.3,3000],[92.8,3082],[95.5,3165],[95.6,3248],[96.5,3334],[96.5,3415],[96.5,3498],[96.5,3581],[96.6,3665],[97.6,3748],[98.3,3832],[98.3,3915],[98.3,3998],[98.3,4082],[98.3,4165],[98.3,4248],[98.3,4331],[97.8,4415],[97.6,4498],[97.6,4581],[97.6,4665],[97.6,4748],[97.6,4832],[97.6,4915],[97.5,5000],[97.5,5082],[97.5,5165],[97.5,5248],[97.5,5332],[97.5,5415],[97.5,5498],[97.5,5582],[97.5,5665],[97.5,5748],[97.5,5831],[97.5,5914],[97.5,6000],[97.5,6082],[97.5,6165],[97.5,6250],[97.5,6332],[97.5,6415],[97.5,6500],[97.5,6582],[97.5,6665],[97.5,6748],[97.5,6831],[97.5,6915],[97.5,6998],[97.5,7082],[97.5,7165],[97.5,7250],[97.5,7332],[97.5,7415],[97.5,7500],[97.5,7582],[97.5,7665],[97.5,7748],[97.5,7831],[97.5,7915],[97.5,8000],[97.5,8082],[97.5,8165],[97.5,8248],[97.5,8332],[97.5,8415],[97.5,8498],[97.5,8582],[97.5,8665],[97.5,8748],[97.5,8831],[97.5,8915],[97.5,8998],[97.5,9082],[97.5,9165],[97.5,9250],[97.5,9332],[97.5,9415],[97.5,9500],[97.5,9582],[97.5,9665],[97.5,9748],[97.5,9832],[97.5,9915],[97.5,9998],[97.5,10081],[97.4,10167],[97.4,10248],[97.4,10332],[97.4,10414],[97.4,10500],[97.4,10582],[97.3,10665],[97.3,10750],[97.3,10832],[97.3,10915],[97.3,10998],[97.1,11082],[97.1,11165],[97.1,11248],[97.1,11331],[97.1,11415],[97.1,11498],[97.1,11581],[97.1,11665],[97.1,11750],[97.1,11831],[97.1,11915],[97.1,11998],[97.1,12081],[97.1,12165],[97.1,12250],[97.1,12331],[97.1,12415],[97.1,12500],[97.1,12582],[97.3,12665],[97.4,12750],[97.4,12832],[97.5,12915],[97.5,12998],[97.5,13081],[97.5,13165],[97.5,13248],[97.5,13332],[97.5,13415],[97.5,13498],[97.5,13581],[97.5,13664],[97.5,13750],[97.5,13832],[97.5,13915],[97.5,13998],[97.5,14082],[97.5,14165]]",239.866,245.066,97.625,1.323,"[{""rating"":97.625,""responseTime"":1.322999999999979}]",space,4.669,,245.066,Definitely yes,100,245.071,,,[],,0,4,4,4,1,audio/Narrative7Situation4.wav,audio/Narrative8Situation4.wav,audio/Narrative5Situation4.wav,audio/Narrative6Situation4.wav,3,3,1,2,,,,,,,,,,,,,,,,,,,,,,,,,,,,,,,,,,,,,,,
,,,,,67439be8ee2236a7c078d523,2025-07-07_18h58.35.585,group3.4_multiperson,2023.2.2,Win32,59.95203837,686c2ebf0248f13bef9af11f,686c7b025230fe7fa3c2067a,,,,,,,,,,,,,,,,,,,,,,,,,,,,,245.071,1,audio/Narrative8Situation5.wav,247.082,,247.082,255.333,"[[999,2],[999,83],[999,167],[999,250],[999,333],[999,415],[999,501],[999,583],[999,667],[999,751],[999,834],[999,917],[999,1000],[999,1084],[999,1167],[49.5,1250],[49.8,1333],[50,1418],[50.1,1501],[50.1,1583],[50.1,1667],[50.1,1750],[50.1,1834],[50.5,1918],[51.1,2001],[51.5,2084],[54.1,2167],[62.4,2250],[77.3,2334],[86.8,2417],[87.8,2500],[88.5,2584],[92.3,2667],[94.3,2750],[94.3,2833],[94.3,2917],[94.3,3000],[94.3,3083],[96.1,3167],[96.5,3250],[98,3333],[98.4,3415],[98.4,3500],[98.4,3583],[98.4,3668],[98.4,3750],[98.4,3834],[97.4,3917],[96.9,4001],[96.9,4084],[96.9,4167],[96.5,4250],[96.4,4334],[96.4,4417],[96.4,4500],[96.4,4584],[96.1,4667],[96.1,4750],[96.1,4833],[95.6,4918],[95.5,5001],[95.5,5083],[95.5,5167],[95.5,5251],[95.5,5334],[96.1,5417],[97.1,5501],[97.1,5584],[97.1,5667],[97.1,5750],[97.3,5834],[97.3,5917],[97.3,6000],[97.3,6083],[97.9,6167],[97.9,6251],[97.9,6334],[97.9,6417],[97.9,6501],[97.9,6584],[97.9,6667],[97.9,6751],[97.9,6834],[97.9,6917],[97.9,7000],[97.9,7084],[97.9,7167],[97.9,7250],[97.9,7334],[97.9,7417],[97.9,7500],[97.9,7584],[97.6,7667],[97.5,7750],[97.3,7833],[97.3,7917],[97.3,8000],[97.3,8083],[97.3,8165],[97.3,8251]]",255.333,263.733,97,5.644,"[{""rating"":97,""responseTime"":5.6440000000000055}]",space,7.858,,263.733,Partially,50,267.999,50,3.11,"[{""rating"":50,""responseTime"":3.109999999999957}]",space,0,5,5,5,1,audio/Narrative7Situation5.wav,audio/Narrative8Situation5.wav,audio/Narrative5Situation5.wav,audio/Narrative6Situation5.wav,5,2,5,2,,,3.727,,,,,,,,,,,,,,,,,,,,,,,,,,,,,,,,,,,,
,,,,,67439be8ee2236a7c078d523,2025-07-07_18h58.35.585,group3.4_multiperson,2023.2.2,Win32,59.95203837,686c2ebf0248f13bef9af11f,686c7b025230fe7fa3c2067a,,,,,,,,,,,,,,,,,,,,,,,,,,,,,267.999,1,audio/Narrative8Situation6.wav,269.999,,270,276.482,"[[999,1],[999,81],[999,165],[999,249],[999,331],[999,415],[999,499],[999,583],[999,665],[999,749],[999,833],[999,915],[999,999],[999,1081],[999,1165],[999,1249],[999,1331],[999,1415],[999,1499],[999,1581],[999,1665],[999,1749],[999,1831],[999,1915],[999,1999],[60.3,2081],[68.9,2165],[78.8,2249],[81.9,2333],[85.1,2415],[88.5,2499],[89.8,2583],[90.4,2665],[90.4,2749],[90.4,2833],[91,2915],[87.6,2999],[87.6,3081],[87.6,3165],[87.3,3249],[98.3,3331],[100,3415],[100,3499],[99.1,3583],[97,3665],[95.9,3749],[93.9,3833],[93.5,3915],[93.5,3999],[93.4,4081],[93,4165],[93,4249],[93,4331],[94,4415],[94,4499],[94,4581],[94,4665],[94.8,4749],[95.3,4831],[95.3,4915],[95.3,4999],[95.3,5081],[95.8,5165],[95.9,5249],[95.9,5331],[95.9,5415],[95.9,5499],[96,5581],[97.5,5665],[98.3,5749],[98.3,5831],[98.3,5915],[98.3,5999],[98.3,6081],[98.3,6165],[98.3,6249],[98.3,6331],[98.3,6415]]",276.483,289.933,75.375,12.726,"[{""rating"":49.875,""responseTime"":11.821000000000026},{""rating"":75.37499999999999,""responseTime"":12.725999999999999}]",space,12.904,,289.933,Not at all,0,289.937,,,[],,0,6,6,6,1,audio/Narrative7Situation6.wav,audio/Narrative8Situation6.wav,audio/Narrative5Situation6.wav,audio/Narrative6Situation6.wav,3,2,3,2,,,,,,,,,,,,,,,,,,,,,,,,,,,,,,,,,,,,,,,
,,,,,67439be8ee2236a7c078d523,2025-07-07_18h58.35.585,group3.4_multiperson,2023.2.2,Win32,59.95203837,686c2ebf0248f13bef9af11f,686c7b025230fe7fa3c2067a,,,,,,,,,,,,,,,,,,,,,,,,,,,,,289.937,1,audio/Narrative8Situation7.wav,292.949,space,292.949,305.033,"[[999,0],[999,83],[999,166],[999,250],[999,333],[999,416],[999,500],[999,583],[57.8,666],[59.1,749],[62.1,833],[66,916],[68.1,1000],[70.8,1083],[73.5,1165],[77.4,1250],[82.1,1334],[83.6,1416],[83.6,1500],[83.6,1583],[81.8,1666],[71.1,1750],[61.8,1833],[57.4,1915],[55.3,2000],[52.8,2083],[52.1,2165],[51.9,2249],[50.8,2334],[50.1,2415],[50.1,2499],[50.1,2584],[50,2666],[50,2750],[50,2833],[50,2916],[50.4,3000],[54.4,3083],[62.1,3166],[66.3,3250],[73.8,3333],[84.3,3415],[95.3,3500],[97.6,3583],[97.6,3666],[97.6,3750],[97.6,3833],[97.6,3915],[96.3,4000],[96.3,4083],[96.3,4165],[97.1,4250],[99.8,4334],[99.8,4415],[99.6,4500],[98.5,4584],[98.1,4666],[98.1,4750],[98.1,4833],[98.1,4915],[98.1,5000],[98.1,5083],[98.1,5165],[98.1,5250],[98.1,5333],[98.1,5415],[98.1,5500],[98.1,5584],[98.1,5666],[98.1,5750],[98.1,5833],[98.1,5915],[98.1,6000],[98.1,6083],[98.1,6166],[98.1,6250],[98.1,6333],[98.1,6416],[98.1,6500],[98.1,6583],[98.1,6665],[98.1,6749],[98.1,6833],[98.1,6915],[98.1,7000],[98.1,7083],[98.1,7166],[98.1,7250],[98.1,7334],[98.1,7416],[98.1,7500],[98.1,7583],[98.1,7665],[98.1,7750],[98.1,7833],[98.1,7916],[98.1,8000],[98.1,8083],[98.1,8166],[98.1,8250],[98.1,8333],[98.1,8415],[98.1,8500],[98.1,8583],[98.1,8665],[98.1,8750],[98.1,8833],[98.1,8915],[98.1,8999],[98.1,9084],[98.1,9166],[98.1,9250],[98.1,9333],[98.1,9416],[98.1,9500],[98.1,9583],[98.1,9665],[98.1,9750],[97.5,9833],[96.5,9915],[96.4,10000],[96.4,10083],[96.9,10165],[97.6,10250],[97.6,10334],[97.6,10415],[97.6,10500],[97.6,10583],[97.6,10666],[97.6,10750],[97.6,10833],[97.6,10916],[97.6,11000],[97.6,11083],[97.6,11165],[97.6,11250],[97.6,11333],[97.6,11416],[97.6,11499],[97.6,11584],[97.6,11665],[97.6,11750],[97.6,11834],[97.6,11915],[97.6,11999],[97.5,12083]]",305.033,312.616,96.125,4.318,"[{""rating"":96.125,""responseTime"":4.3180000000000405}]",space,7.035,,312.616,Definitely yes,100,312.622,,,[],,0,7,7,7,1,audio/Narrative7Situation7.wav,audio/Narrative8Situation7.wav,audio/Narrative5Situation7.wav,audio/Narrative6Situation7.wav,5,3,4,5,1.96,,,,,,,,,,,,,,,,,,,,,,,,,,,,,,,,,,,,,,
,,,,,67439be8ee2236a7c078d523,2025-07-07_18h58.35.585,group3.4_multiperson,2023.2.2,Win32,59.95203837,686c2ebf0248f13bef9af11f,686c7b025230fe7fa3c2067a,,,,,,,,,,,,,,,,,,,,,,,,,,,,,312.622,1,audio/Narrative8Situation8.wav,315.632,,315.632,328.482,"[[999,1],[999,83],[999,167],[999,250],[999,333],[999,415],[999,501],[999,584],[999,665],[999,751],[999,834],[999,917],[999,1000],[999,1084],[999,1167],[999,1250],[999,1333],[999,1418],[999,1500],[999,1583],[999,1667],[999,1750],[999,1833],[999,1917],[999,2000],[999,2083],[999,2167],[999,2250],[999,2333],[999,2415],[999,2501],[999,2583],[999,2665],[68,2750],[69.4,2834],[70.1,2917],[70.3,3000],[70.3,3084],[69,3167],[68.5,3250],[67.8,3333],[67.6,3415],[65.9,3500],[64.8,3583],[64.3,3665],[64.3,3750],[64.3,3833],[64.3,3915],[64.6,4001],[64.6,4084],[64.6,4167],[64.6,4250],[64.6,4334],[64.6,4417],[64.5,4500],[64.5,4584],[64.8,4667],[73.6,4750],[81.1,4833],[86.1,4915],[89.3,5001],[90.8,5084],[92.4,5167],[92.4,5250],[92.4,5334],[92.4,5417],[92.4,5501],[92.4,5584],[92.4,5667],[92.4,5750],[92.4,5834],[92.4,5917],[92.4,6001],[92.4,6084],[92.4,6167],[92.4,6250],[92.6,6333],[94.3,6417],[94.3,6500],[94.6,6584],[95.8,6667],[95.8,6750],[95.8,6833],[95.8,6917],[95.8,7000],[95.8,7083],[95.8,7167],[95.1,7250],[94.9,7334],[94.9,7417],[94.5,7500],[94.5,7584],[94.5,7667],[94.5,7750],[94.1,7833],[94.1,7917],[94.1,8000],[95.1,8083],[95.3,8165],[95.3,8250],[95.3,8334],[95.3,8417],[95.3,8500],[95.3,8583],[95.3,8667],[95.3,8750],[95.3,8834],[95.3,8917],[95.3,9000],[95.3,9083],[95.3,9167],[95.3,9250],[95.3,9333],[94.8,9417],[94.4,9500],[94.4,9583],[94.4,9665],[94.4,9750],[94.4,9833],[94.4,9917],[96.4,10001],[96.6,10084],[97,10167],[99.3,10251],[99.9,10333],[99.9,10415],[99.9,10501],[99.9,10583],[99.4,10667],[98.6,10750],[98.5,10834],[98.5,10917],[98.5,11000],[98.5,11083],[98.5,11167],[98.5,11250],[98.5,11333],[98.5,11417],[98.5,11500],[98.5,11583],[98.5,11665],[98.5,11750],[98.5,11834],[98.5,11915],[98.5,12000],[98.5,12084],[98.5,12167],[98.5,12250],[98.5,12333],[98.5,12417],[98.5,12500],[98.5,12583],[98.5,12667],[98.5,12750],[98.5,12833]]",328.482,330.882,98.25,1.345,"[{""rating"":98.25,""responseTime"":1.3449999999999704}]",space,1.874,,330.882,Definitely yes,100,330.884,,,[],,0,8,8,8,1,audio/Narrative7Situation8.wav,audio/Narrative8Situation8.wav,audio/Narrative5Situation8.wav,audio/Narrative6Situation8.wav,2,3,3,5,,,,,,,,,,,,,,,,,,,,,,,,,,,,,,,,,,,,,,,
,,,,,67439be8ee2236a7c078d523,2025-07-07_18h58.35.585,group3.4_multiperson,2023.2.2,Win32,59.95203837,686c2ebf0248f13bef9af11f,686c7b025230fe7fa3c2067a,,,,,,,,,,,,,,,,,,,,,,,,,,,,,330.884,1,audio/Narrative8Situation9.wav,333.9,,333.9,345.233,"[[74,248],[74,331],[74,414],[74,497],[74,581],[73.3,665],[73,748],[74.4,832],[76.4,915],[82.1,998],[86.3,1081],[90,1165],[90.5,1248],[92.1,1331],[95.5,1414],[97.3,1498],[97.6,1581],[98.3,1664],[98.3,1748],[98.3,1831],[98.3,1914],[98,1997],[97.6,2081],[97.5,2165],[97.4,2248],[97.4,2331],[97.4,2415],[97.4,2498],[97.4,2581],[97.6,2665],[97.8,2748],[97.8,2831],[97.8,2914],[97.8,2998],[97.4,3081],[97.3,3164],[97.3,3247],[97.3,3331],[97.3,3415],[97.3,3498],[97.3,3582],[97.3,3665],[97.3,3748],[97.3,3831],[97.3,3915],[97.3,3998],[97.3,4081],[97.3,4164],[97.3,4248],[97.3,4331],[97.3,4414],[97.3,4498],[97.3,4581],[97.3,4665],[97.3,4748],[97.3,4831],[97.3,4914],[97.3,4997],[97.3,5081],[97.3,5165],[97.3,5247],[97.3,5332],[97.3,5415],[97.3,5498],[97.3,5582],[97.3,5665],[97.3,5748],[97.3,5831],[97.3,5915],[97.3,5998],[97.3,6081],[97.3,6164],[97.1,6247],[97.1,6331],[97.1,6414],[97.1,6498],[97.1,6581],[97.1,6664],[97.1,6748],[97.1,6831],[97.1,6915],[97.1,6998],[97.1,7081],[97.1,7164],[97.1,7248],[97.1,7331],[97.1,7414],[97.1,7498],[97.1,7581],[97.1,7664],[97.1,7748],[97.1,7831],[97.1,7914],[97,7997],[97,8081],[97,8165],[97,8248],[97,8331],[97,8415],[97,8498],[97,8581],[97,8665],[97,8748],[97,8831],[97,8914],[97,8998],[97,9081],[97,9164],[97,9248],[97,9331],[97,9414],[97,9498],[97,9581],[97,9664],[97,9747],[97,9832],[97,9915],[97,9998],[97,10081],[97,10165],[97,10248],[97,10331],[97,10415],[97,10498],[97,10581],[97,10664],[97,10747],[97,10831],[97,10915],[97,10998],[97,11082],[96.9,11165],[96.8,11248],[96.8,11332]]",345.233,348.649,96.75,2.46,"[{""rating"":96.75,""responseTime"":2.4600000000000364}]",space,2.876,,348.649,Not at all,0,348.655,,,[],,0,9,9,9,1,audio/Narrative7Situation9.wav,audio/Narrative8Situation9.wav,audio/Narrative5Situation9.wav,audio/Narrative6Situation9.wav,2,3,3,4,,,,,,,,,,,,,,,,,,,,,,,,,,,,,,,,,,,,,,,
,,,,,67439be8ee2236a7c078d523,2025-07-07_18h58.35.585,group3.4_multiperson,2023.2.2,Win32,59.95203837,686c2ebf0248f13bef9af11f,686c7b025230fe7fa3c2067a,,,,,,,,,,,,,,,,,,,,,,,,,,,,,348.655,1,audio/Narrative7Situation1.wav,350.666,,350.666,406.549,"[[999,1],[999,83],[999,165],[999,249],[999,333],[999,417],[999,500],[999,583],[999,665],[999,750],[999,833],[999,915],[999,999],[999,1083],[999,1167],[999,1249],[999,1331],[999,1417],[52,1499],[51.4,1583],[51.4,1665],[52,1750],[62,1833],[71.6,1915],[75.5,1999],[78.6,2083],[80.4,2165],[82.4,2249],[84.5,2333],[84.5,2415],[83.9,2499],[77.9,2583],[74.1,2665],[74.1,2749],[77.9,2831],[83.9,2915],[84.3,2999],[84.3,3083],[84.3,3165],[84.3,3250],[84.3,3333],[84.3,3415],[84.3,3500],[84.3,3583],[84.3,3665],[84.3,3749],[84.5,3831],[86.3,3915],[86.9,3999],[86.9,4081],[86.9,4165],[86.9,4249],[86.9,4331],[85,4417],[81.4,4499],[78,4583],[77,4665],[79.1,4750],[81.8,4831],[84.1,4915],[89.4,5000],[91,5083],[91,5165],[91,5250],[91,5333],[91,5415],[91,5499],[91,5583],[91,5665],[92,5750],[92.9,5831],[93.9,5917],[94.1,5999],[94.1,6081],[94.9,6165],[96.4,6250],[96.4,6333],[96.4,6415],[96.4,6500],[96.4,6583],[96.4,6665],[96.4,6750],[96.4,6833],[96.4,6915],[96.4,6999],[96.4,7081],[96.4,7165],[96.4,7249],[96.4,7331],[96.4,7415],[96.4,7499],[96.4,7583],[96.4,7665],[96.4,7750],[96.4,7833],[96.4,7915],[96.4,7999],[96.4,8083],[96.4,8165],[96.4,8249],[96.4,8333],[96.4,8415],[96.4,8499],[96.4,8583],[96.4,8665],[96.4,8749],[96.4,8833],[96.4,8915],[96.4,8999],[96.4,9083],[96.4,9165],[96.4,9249],[96.4,9331],[96.4,9415],[96.4,9499],[96.4,9583],[96.4,9665],[96.4,9750],[96.4,9833],[96.4,9915],[96.4,9999],[96.4,10083],[96.4,10165],[96.4,10249],[96.1,10333],[96.1,10415],[96.1,10499],[96.1,10581],[96.1,10667],[96.1,10750],[96.1,10833],[96.1,10915],[96.1,10999],[96.1,11083],[96.1,11165],[96.1,11250],[96.1,11333],[96.1,11415],[96.1,11499],[96.1,11583],[95.3,11667],[95.3,11749],[95.3,11833],[95.3,11915],[95.3,11999],[95.3,12081],[95.3,12165],[95.3,12250],[95.3,12331],[95.3,12415],[95.3,12499],[95,12583],[94.9,12665],[94.9,12749],[94.8,12833],[94.6,12915],[94.6,13000],[94.6,13083],[94.3,13165],[93.9,13250],[93.6,13333],[93.4,13415],[93.1,13499],[92.8,13581],[92.4,13668],[92,13750],[91.9,13833],[91.4,13915],[91.1,13999],[91.1,14083],[91.5,14167],[92.6,14250],[93.6,14333],[94,14415],[94.3,14499],[94.3,14583],[94.3,14665],[94.3,14749],[94.3,14833],[94.3,14915],[94.3,14999],[94.3,15081],[94.3,15165],[94.3,15249],[94.1,15333],[93.4,15415],[93.3,15500],[93.3,15583],[93.3,15665],[93.3,15749],[93.3,15833],[93.9,15915],[94,15999],[93.9,16083],[93.6,16165],[93.6,16249],[93.6,16333],[93.4,16415],[93.4,16499],[93.4,16583],[93.4,16665],[93.4,16750],[93.4,16831],[93.4,16915],[93.4,16999],[93.4,17081],[93.4,17167],[92.4,17249],[92.3,17333],[92.6,17415],[94,17500],[95.9,17583],[98,17665],[98.3,17750],[98.3,17833],[98.1,17915],[97,17999],[96.8,18083],[96.8,18165],[96.8,18249],[96.8,18331],[96.8,18415],[96.8,18500],[96.8,18581],[96.8,18665],[96.8,18750],[96.8,18833],[96.8,18915],[96.8,19000],[96.8,19083],[96.8,19165],[96.8,19249],[96.8,19331],[96.8,19415],[96.5,19499],[96.4,19581],[96.4,19665],[96.4,19749],[96.4,19833],[96.4,19915],[96.4,20000],[96.3,20083],[95.5,20165],[92.4,20250],[82,20333],[65.8,20415],[61,20499],[61,20583],[62.5,20665],[64.9,20749],[64.9,20833],[62,20915],[58,20999],[54.9,21083],[51.6,21167],[51.6,21249],[50.9,21331],[50.9,21415],[52,21499],[53.3,21583],[53.3,21665],[53.3,21749],[53.3,21831],[53.3,21915],[53.3,22000],[53.3,22083],[53.3,22165],[53.3,22249],[53.3,22333],[53.3,22415],[53.3,22499],[53.3,22583],[53.3,22665],[53.3,22749],[53.3,22833],[53.3,22915],[53.3,22999],[53.4,23083],[53.4,23165],[53.4,23250],[53.4,23333],[53.4,23415],[53.4,23500],[52.8,23583],[51.9,23665],[51.6,23749],[51.5,23833],[51.5,23915],[51.5,23999],[51.5,24083],[51.5,24165],[51.3,24249],[51.3,24331],[51.3,24415],[51.3,24500],[52.6,24581],[55.8,24665],[58.1,24750],[58.3,24833],[58.3,24915],[58.5,25000],[58.5,25083],[58.5,25165],[58.5,25249],[58.5,25331],[58.5,25415],[58.6,25500],[59.8,25583],[60.3,25665],[60.3,25749],[63.5,25831],[64.6,25915],[68.8,25999],[74,26081],[76.5,26167],[77.8,26250],[77.9,26333],[77.9,26415],[77.9,26500],[77.9,26583],[77.9,26665],[77.9,26750],[80.1,26833],[82.3,26915],[82.3,26999],[82.3,27081],[82.3,27165],[82.3,27249],[82.3,27333],[82.3,27415],[82.3,27499],[82.3,27581],[81.3,27665],[80.1,27750],[79.3,27833],[78.3,27915],[77.8,27999],[77.6,28083],[77.5,28165],[77.5,28249],[77.5,28333],[77.5,28415],[77.1,28499],[77,28583],[77,28665],[77,28749],[77,28831],[77,28915],[77,28999],[74.1,29083],[71.1,29165],[71,29250],[71,29333],[69.9,29415],[69.1,29500],[69.1,29583],[69.1,29665],[69.1,29750],[69.1,29833],[69.1,29915],[69.3,29999],[71,30083],[71,30165],[71.1,30250],[75.4,30333],[81.5,30415],[82.3,30499],[82.3,30581],[82.3,30665],[82.3,30749],[82.3,30831],[82.3,30915],[82.3,31000],[80,31083],[73.1,31165],[70.9,31250],[70.9,31333],[70.9,31415],[70.9,31499],[64.6,31583],[59,31665],[59,31749],[59,31831],[59,31915],[59,32000],[57,32083],[55,32165],[55,32249],[63.5,32333],[72.3,32415],[77,32500],[80.5,32583],[81,32665],[90.5,32750],[92.3,32833],[92.3,32916],[92.3,32999],[92.3,33081],[92.3,33167],[92.3,33249],[92.4,33333],[92.6,33417],[92.8,33499],[92.8,33583],[92.8,33666],[92.8,33750],[92.8,33831],[92.8,33916],[92.8,34000],[92.9,34083],[92.9,34166],[92.9,34250],[92.9,34333],[92.9,34416],[92.9,34500],[92.9,34583],[92.9,34666],[92.9,34749],[93,34833],[93,34916],[93,34999],[93.6,35083],[94.3,35166],[94.3,35249],[94.3,35331],[94.4,35416],[94.5,35499],[94.5,35583],[94.5,35666],[94.5,35750],[94.5,35833],[94.5,35916],[94.5,35999],[94.5,36083],[94.5,36166],[94.5,36249],[94.5,36333],[94.5,36416],[94.5,36500],[94.5,36581],[94.5,36667],[94.5,36750],[94.5,36833],[94.5,36916],[94.8,37000],[95.1,37083],[95.3,37166],[95.4,37250],[95.4,37333],[95.4,37416],[95.4,37499],[95.4,37581],[95.4,37666],[95.4,37749],[95.4,37831],[95.4,37916],[95.4,38000],[95.4,38083],[95.4,38166],[95.4,38249],[95.4,38331],[95.4,38416],[95.4,38499],[95.4,38581],[95.4,38666],[95.4,38750],[95.4,38833],[95.4,38916],[95.4,39000],[95.4,39083],[95.4,39166],[95.4,39249],[95.6,39333],[96,39416],[96,39499],[96,39581],[96.1,39666],[96.3,39749],[96.3,39831],[96.4,39915],[96.6,39999],[96.8,40081],[97.1,40167],[97.1,40250],[97.3,40333],[97.3,40416],[97.3,40499],[97.3,40583],[97.3,40666],[97.3,40749],[97.3,40831],[97.3,40916],[97.3,40999],[97.3,41081],[97.3,41166],[97.4,41249],[97.5,41333],[97.5,41416],[97.5,41500],[97.5,41583],[97.5,41666],[97.5,41749],[97.5,41833],[97.4,41916],[97.3,41999],[97.3,42083],[97.1,42166],[97.1,42250],[97,42333],[97,42416],[96.9,42499],[96.9,42583],[96.9,42666],[96.9,42749],[96.9,42831],[96.8,42916],[96.5,42999],[96.3,43083],[96.1,43167],[96.1,43249],[96,43333],[96,43416],[95.9,43500],[95.9,43583],[95.6,43666],[95.5,43749],[95.5,43833],[95.5,43916],[95.5,43999],[95.5,44083],[95.5,44166],[95.5,44249],[95.5,44331],[95.5,44415],[95.6,44500],[95.6,44581],[95.6,44666],[95.6,44750],[95.6,44831],[95.6,44916],[95.6,45000],[95.6,45083],[95.6,45166],[95.9,45249],[96,45333],[96,45416],[96,45499],[96,45581],[96,45666],[96,45750],[96,45831],[96,45916],[96,46000],[96,46081],[96,46166],[96,46250],[95.9,46333],[95.9,46416],[95.9,46500],[95.9,46583],[95.9,46666],[95.9,46749],[95.9,46833],[95.9,46916],[95.9,47000],[95.9,47083],[95.9,47166],[95.9,47249],[95.9,47331],[95.9,47416],[95.8,47499],[95.8,47583],[95.8,47666],[95.8,47749],[95.8,47831],[95.8,47916],[95.8,48000],[95.8,48083],[95.8,48166],[95.8,48249],[95.9,48333],[96,48416],[96.4,48499],[96.5,48583],[96.6,48666],[96.8,48749],[96.8,48833],[96.8,48916],[96.8,48999],[96.8,49083],[96.8,49166],[96.8,49249],[96.8,49333],[96.8,49416],[96.8,49500],[96.8,49583],[96.8,49666],[96.8,49749],[96.8,49833],[96.8,49916],[96.8,49999],[96.8,50083],[96.8,50166],[96.8,50249],[96.8,50331],[96.8,50415],[96.8,50500],[96.8,50583],[96.8,50666],[96.8,50749],[96.8,50831],[96.8,50916],[96,51000],[95.3,51083],[98.6,51166],[100,51250],[100,51333],[100,51416],[100,51499],[100,51583],[100,51666],[100,51749],[100,51831],[100,51916],[100,51999],[100,52081],[100,52166],[100,52250],[100,52331],[100,52416],[100,52500],[100,52581],[100,52666],[100,52750],[100,52833],[100,52916],[100,52999],[100,53083],[100,53166],[100,53249],[100,53331],[100,53416],[100,53499],[100,53581],[100,53666],[100,53750],[100,53833],[100,53916],[100,54000],[100,54083],[100,54166],[100,54249],[100,54333],[100,54416],[100,54499],[100,54583],[100,54666],[100,54749],[100,54833],[100,54916],[100,54999],[100,55081],[100,55166],[100,55249],[100,55331],[100,55416],[100,55499],[100,55581],[100,55666],[100,55750],[100,55833]]",406.55,418.199,89.75,11.234,"[{""rating"":89.75,""responseTime"":11.234000000000037}]",space,11.1,,418.199,Not at all,0,418.204,,,[],,0,10,10,10,1,audio/Narrative8Situation1.wav,audio/Narrative7Situation1.wav,audio/Narrative6Situation1.wav,audio/Narrative5Situation1.wav,5,2,2,5,,,,,,,,,,,,,,,,,,,,,,,,,,,,,,,,,,,,,,,
,,,,,67439be8ee2236a7c078d523,2025-07-07_18h58.35.585,group3.4_multiperson,2023.2.2,Win32,59.95203837,686c2ebf0248f13bef9af11f,686c7b025230fe7fa3c2067a,,,,,,,,,,,,,,,,,,,,,,,,,,,,,418.204,1,audio/Narrative7Situation2.wav,421.216,,421.216,428.699,"[[999,0],[999,83],[999,165],[999,249],[999,333],[999,415],[999,499],[999,583],[999,665],[50.1,749],[50.4,831],[50.6,915],[50.8,999],[50.8,1081],[50.6,1165],[50.5,1249],[50.5,1331],[50.5,1415],[50.5,1499],[50.5,1581],[50.6,1665],[50.6,1749],[50.6,1833],[50.6,1915],[50.6,1999],[50.6,2083],[50.6,2165],[51.1,2249],[52.8,2333],[53.3,2415],[53.3,2499],[53.3,2581],[53.3,2665],[53.3,2749],[53.3,2831],[53.3,2915],[53.8,3000],[57.3,3083],[59.3,3165],[63.6,3250],[71.1,3333],[78.1,3415],[82.4,3500],[85.9,3583],[88.1,3665],[88.1,3749],[88.1,3831],[88.1,3915],[89.5,4000],[90.6,4081],[90.6,4165],[90.6,4249],[90.6,4331],[90.6,4415],[90.3,4500],[90,4583],[90,4665],[90,4749],[90.5,4833],[90.8,4915],[91.9,4999],[92.9,5081],[92.9,5165],[92.9,5250],[92.9,5333],[92.9,5415],[92.9,5499],[92.9,5583],[92.9,5665],[92.9,5749],[92.9,5831],[92.9,5915],[92.9,6000],[92.9,6083],[92.9,6165],[92.9,6250],[92.9,6331],[92.9,6415],[92.9,6500],[93.6,6583],[94,6665],[94,6749],[94,6833],[94,6915],[94,6999],[94,7081],[94,7165],[94,7249],[94,7331],[94,7415]]",428.699,431.883,97.125,2.554,"[{""rating"":97.125,""responseTime"":2.5539999999999736}]",space,2.662,,431.883,Partially,50,431.888,,,[],,0,11,11,11,1,audio/Narrative8Situation2.wav,audio/Narrative7Situation2.wav,audio/Narrative6Situation2.wav,audio/Narrative5Situation2.wav,3,3,3,3,,,,,,,,,,,,,,,,,,,,,,,,,,,,,,,,,,,,,,,
,,,,,67439be8ee2236a7c078d523,2025-07-07_18h58.35.585,group3.4_multiperson,2023.2.2,Win32,59.95203837,686c2ebf0248f13bef9af11f,686c7b025230fe7fa3c2067a,,,,,,,,,,,,,,,,,,,,,,,,,,,,,431.888,1,audio/Narrative7Situation3.wav,439.899,,439.899,449.166,"[[999,1],[999,83],[999,165],[999,249],[999,333],[999,415],[999,500],[999,583],[999,667],[48.9,750],[48.6,833],[48.6,915],[48.8,1000],[49.1,1083],[50.9,1165],[54,1250],[58,1334],[64.9,1415],[76.9,1500],[83.1,1583],[83.1,1665],[83.1,1749],[82.8,1833],[80,1917],[79.6,1999],[79.4,2081],[79.4,2165],[79.4,2250],[79.4,2333],[78.5,2417],[67.4,2500],[48.6,2583],[38.5,2665],[38.4,2749],[35,2833],[33.3,2915],[33.3,2999],[33.3,3083],[33.3,3165],[33.3,3249],[33.3,3333],[29.4,3415],[21.9,3499],[19.6,3581],[19.6,3665],[20.1,3750],[37,3833],[53.8,3915],[53.1,4000],[52.1,4083],[50.4,4167],[37.9,4250],[23.1,4333],[17.8,4415],[16.6,4499],[16.6,4583],[16.6,4665],[16.6,4749],[16.6,4833],[16.8,4915],[16.8,4999],[16.8,5083],[16.8,5165],[16.8,5249],[16.8,5333],[16.8,5417],[17.1,5500],[19.1,5583],[20.9,5665],[23.9,5750],[33.8,5833],[43.8,5915],[52.4,6000],[62.3,6083],[70,6165],[73.6,6250],[75.5,6333],[76,6415],[76.1,6500],[78.4,6583],[79.8,6667],[81.4,6750],[85.6,6833],[89.9,6917],[91,7000],[92.9,7083],[93.8,7165],[93.8,7250],[93.8,7333],[93.8,7415],[93.8,7499],[93.8,7583],[93.8,7665],[93.8,7750],[93.8,7833],[93.8,7915],[93.8,7999],[93.8,8083],[93.8,8165],[93.8,8249],[93.8,8331],[93.8,8417],[93.6,8500],[93.1,8583],[90.9,8665],[90.6,8750],[89.8,8833],[89.4,8915],[89.4,9000],[89.4,9083],[89.1,9165],[86.1,9249]]",449.166,457.065,90.5,6.661,"[{""rating"":90.5,""responseTime"":6.661000000000001}]",space,7.355,,457.066,Definitely yes,100,457.07,,,[],,0,12,12,12,1,audio/Narrative8Situation3.wav,audio/Narrative7Situation3.wav,audio/Narrative6Situation3.wav,audio/Narrative5Situation3.wav,4,8,5,3,,,,,,,,,,,,,,,,,,,,,,,,,,,,,,,,,,,,,,,
,,,,,67439be8ee2236a7c078d523,2025-07-07_18h58.35.585,group3.4_multiperson,2023.2.2,Win32,59.95203837,686c2ebf0248f13bef9af11f,686c7b025230fe7fa3c2067a,,,,,,,,,,,,,,,,,,,,,,,,,,,,,457.07,1,audio/Narrative7Situation4.wav,460.082,,460.082,471.815,"[[999,1],[999,83],[999,167],[999,249],[999,334],[999,417],[999,500],[999,583],[999,667],[999,750],[999,833],[999,915],[999,1000],[50.4,1250],[52.4,1333],[55.5,1417],[56.1,1500],[57.1,1584],[60.4,1667],[64.6,1750],[70,1833],[77,1917],[83.3,2000],[86.9,2083],[88.1,2167],[88.5,2250],[88.5,2333],[88.5,2415],[88.5,2500],[88.9,2584],[90.3,2667],[90.6,2750],[91.1,2834],[92.4,2917],[92.5,3000],[92.5,3083],[92.5,3167],[92.5,3250],[90.5,3333],[86,3417],[81.1,3500],[78.6,3583],[80,3665],[82.3,3751],[82.8,3833],[82.8,3915],[83.6,4001],[88.8,4084],[89.4,4165],[90,4250],[90.9,4333],[90.9,4415],[91,4501],[92.6,4584],[92.6,4667],[92.6,4750],[92.6,4833],[92.6,4917],[92.6,5000],[92.8,5083],[93.1,5167],[93.1,5250],[93.1,5333],[93.1,5417],[93.1,5500],[91.6,5583],[85.9,5667],[84.3,5750],[84.3,5833],[84.3,5915],[84.3,6000],[84.3,6083],[84.3,6167],[84.3,6250],[84.3,6333],[83.8,6417],[82,6500],[82,6583],[82,6667],[79.1,6750],[69.5,6833],[56.4,6917],[47.4,7000],[40.1,7083],[30.6,7165],[21.8,7250],[16.1,7333],[13.3,7417],[12.9,7500],[11,7584],[9.1,7667],[9.1,7750],[9.1,7834],[8.3,7917],[8.3,8000],[8.3,8083],[8.3,8165],[8.3,8250],[8.3,8333],[8.3,8415],[8.3,8500],[8.3,8583],[8.3,8665],[8.3,8750],[8.3,8833],[8.3,8915],[8.3,9000],[8.3,9083],[8.3,9165],[8.3,9249],[8.3,9334],[8.3,9417],[8.3,9500],[8.1,9583],[7.9,9667],[7.6,9750],[7.5,9833],[7.3,9915],[7.1,10000],[7.1,10083],[7,10165],[7,10250],[7,10333],[7,10415],[7,10499],[7,10584],[7,10667],[7,10750],[7,10834],[7,10915],[7,11000],[7,11083],[7,11167],[7,11250],[7,11333],[7,11415],[7,11500],[7,11583],[7,11665]]",471.816,475.166,17.25,2.657,"[{""rating"":17.25,""responseTime"":2.6569999999999823}]",space,2.809,,475.166,Partially,50,475.17,,,[],,0,13,13,13,1,audio/Narrative8Situation4.wav,audio/Narrative7Situation4.wav,audio/Narrative6Situation4.wav,audio/Narrative5Situation4.wav,3,3,2,1,,,,,,,,,,,,,,,,,,,,,,,,,,,,,,,,,,,,,,,
,,,,,67439be8ee2236a7c078d523,2025-07-07_18h58.35.585,group3.4_multiperson,2023.2.2,Win32,59.95203837,686c2ebf0248f13bef9af11f,686c7b025230fe7fa3c2067a,,,,,,,,,,,,,,,,,,,,,,,,,,,,,475.17,1,audio/Narrative7Situation5.wav,480.182,space,480.182,488.666,"[[999,0],[999,84],[999,165],[999,250],[999,334],[999,415],[999,500],[999,582],[999,666],[999,750],[999,832],[999,916],[999,1000],[999,1082],[999,1166],[999,1250],[999,1332],[12.6,1416],[11.9,1500],[10.5,1582],[10.4,1665],[11,1750],[13.8,1832],[13.9,1915],[14,1999],[14,2084],[14,2165],[13.4,2250],[12.8,2334],[12.1,2416],[11.8,2500],[11.5,2582],[11.5,2666],[11.5,2750],[11.5,2832],[11.5,2915],[11.5,3000],[11.5,3082],[11.5,3165],[11.5,3250],[11.5,3332],[11.5,3415],[11.5,3499],[11.5,3582],[11.5,3666],[11.5,3750],[11.5,3832],[11.5,3916],[11.5,4000],[11.6,4082],[11.9,4165],[12.4,4250],[13.5,4332],[14,4415],[15.8,4500],[21.4,4582],[29.5,4666],[34.9,4750],[36.8,4834],[38.9,4916],[40.9,5000],[41.5,5082],[41.5,5165],[41.5,5250],[41.4,5332],[41.4,5416],[41.4,5499],[41.4,5582],[41.4,5666],[40.5,5750],[40,5832],[40,5915],[40,6000],[40,6082],[40,6166],[40,6250],[40.1,6332],[41.6,6415],[42.1,6499],[43,6584],[43.5,6665],[44.3,6750],[45.4,6834],[46,6916],[47.1,7000],[47.9,7084],[48.8,7166],[49.4,7250],[49.5,7332],[49.5,7415],[49.5,7500],[49.5,7582],[49.8,7665],[49.9,7750],[49.9,7832],[49.9,7916],[49.9,7999],[49.9,8082],[50.1,8166],[50.5,8250],[50.8,8334],[50.8,8416]]",488.666,493.649,56.125,4.211,"[{""rating"":56.125,""responseTime"":4.211000000000013}]",space,4.444,,493.649,Not at all,0,493.652,,,[],,0,14,14,14,1,audio/Narrative8Situation5.wav,audio/Narrative7Situation5.wav,audio/Narrative6Situation5.wav,audio/Narrative5Situation5.wav,2,5,2,5,2.198,,,,,,,,,,,,,,,,,,,,,,,,,,,,,,,,,,,,,,
,,,,,67439be8ee2236a7c078d523,2025-07-07_18h58.35.585,group3.4_multiperson,2023.2.2,Win32,59.95203837,686c2ebf0248f13bef9af11f,686c7b025230fe7fa3c2067a,,,,,,,,,,,,,,,,,,,,,,,,,,,,,493.653,1,audio/Narrative7Situation6.wav,496.665,,496.665,506.632,"[[33.6,1082],[30,1166],[26.6,1250],[23.9,1332],[22.6,1416],[28.9,1500],[42.9,1582],[48.6,1666],[50.1,1750],[56.4,1834],[58.5,1916],[58.5,2000],[61.4,2084],[64.6,2166],[64.9,2250],[64.9,2334],[64.9,2416],[64.9,2500],[64.9,2584],[64.9,2666],[64.9,2750],[64.9,2832],[65.4,2916],[69.9,3000],[70.3,3084],[72.6,3166],[74.3,3250],[74.4,3334],[74.6,3416],[75.1,3500],[76.1,3584],[77.3,3666],[77.3,3750],[77.3,3832],[77.3,3916],[77.3,4000],[77.3,4082],[77.3,4166],[77.3,4250],[77.3,4332],[77.3,4415],[77.3,4500],[77.3,4582],[77.3,4666],[77.3,4750],[77.3,4834],[77.3,4916],[77.3,5000],[77.3,5084],[77.5,5166],[78.4,5250],[79.3,5334],[79.3,5416],[79.3,5500],[79.3,5583],[79.3,5667],[79.3,5750],[79.3,5832],[79.3,5917],[79.3,6000],[79.3,6082],[79.3,6167],[79.3,6250],[79.3,6332],[79.9,6417],[80.8,6500],[81.1,6583],[81.4,6667],[81.5,6750],[81.5,6833],[81.5,6917],[81.5,7000],[81.5,7083],[81.5,7167],[84.5,7250],[85.3,7332],[85.3,7417],[86,7500],[87.6,7582],[87.6,7665],[87.6,7750],[87.6,7833],[87.6,7917],[87.6,8000],[87.1,8083],[87.1,8167],[87.1,8250],[87.1,8334],[87.1,8417],[87.1,8500],[87.1,8583],[87.8,8667],[88.3,8750],[89.3,8833],[89.4,8917],[89.4,9000],[89.4,9083],[90.1,9165],[91,9250],[91.5,9334],[91.8,9417],[91.9,9500],[91.9,9583],[91.9,9665],[91.9,9750],[91.9,9834],[91.9,9917]]",506.632,509.583,95.25,2.484,"[{""rating"":95.25,""responseTime"":2.4840000000000373}]",space,2.42,,509.583,Definitely yes,100,509.588,,,[],,0,15,15,15,1,audio/Narrative8Situation6.wav,audio/Narrative7Situation6.wav,audio/Narrative6Situation6.wav,audio/Narrative5Situation6.wav,2,3,2,3,,,,,,,,,,,,,,,,,,,,,,,,,,,,,,,,,,,,,,,
,,,,,67439be8ee2236a7c078d523,2025-07-07_18h58.35.585,group3.4_multiperson,2023.2.2,Win32,59.95203837,686c2ebf0248f13bef9af11f,686c7b025230fe7fa3c2067a,,,,,,,,,,,,,,,,,,,,,,,,,,,,,509.588,1,audio/Narrative7Situation7.wav,514.598,,514.598,531.766,"[[90.3,917],[91.1,1000],[91.8,1083],[91.9,1167],[91.9,1250],[91.9,1333],[91.9,1418],[91.9,1500],[92.3,1583],[92.8,1668],[93.1,1750],[93.1,1833],[93.3,1917],[93.3,2000],[93.4,2083],[93.8,2167],[94,2250],[94.1,2333],[94.1,2417],[94.3,2500],[94.3,2582],[94.3,2667],[94.3,2750],[94.3,2833],[94.3,2917],[94.3,3000],[94.3,3083],[94.3,3167],[94.3,3250],[94.3,3333],[94.3,3417],[94.3,3500],[94.3,3583],[94.3,3667],[94.3,3750],[94.3,3833],[94.3,3917],[94.3,4000],[94.3,4082],[94.3,4167],[94.3,4250],[94.3,4333],[94.1,4417],[94.1,4500],[94.1,4583],[94.1,4667],[94.1,4750],[94.1,4832],[94.1,4917],[94,5000],[94,5083],[94,5167],[94,5250],[94,5333],[94,5417],[94,5500],[94,5583],[94,5667],[94,5750],[94,5833],[94.3,5917],[94.5,6000],[94.6,6083],[94.6,6167],[94.6,6250],[94.6,6333],[94.6,6417],[94.6,6500],[94.6,6583],[94.6,6667],[94.6,6750],[94.6,6833],[94.6,6917],[94.6,7000],[94.6,7083],[94.6,7167],[94.6,7250],[94.6,7332],[94.6,7417],[94.6,7500],[94.6,7582],[94.6,7667],[94.8,7750],[94.9,7833],[95,7917],[95.1,8000],[95.1,8083],[95.1,8167],[95.1,8250],[95.1,8333],[95.1,8418],[95.1,8500],[95.1,8583],[95.1,8667],[95.1,8750],[95.1,8833],[95.1,8917],[95.1,9000],[95.1,9082],[95.1,9167],[95.1,9250],[95.1,9332],[95.1,9417],[95.1,9500],[95.1,9583],[95.1,9667],[95.1,9750],[95.1,9833],[95.1,9917],[95.1,10000],[95.1,10083],[95.1,10167],[95.1,10250],[95.1,10332],[95.1,10417],[95.1,10500],[95.1,10582],[95,10667],[95,10750],[95,10832],[95,10917],[95,11000],[95,11083],[95,11167],[94.9,11250],[94.9,11333],[94.9,11417],[94.9,11500],[94.9,11583],[94.9,11667],[94.9,11750],[94.9,11832],[94.9,11917],[94.9,12000],[94.9,12083],[94.9,12167],[95,12250],[95.3,12333],[95.4,12417],[95.4,12500],[95.5,12582],[95.8,12668],[95.8,12750],[95.8,12833],[95.9,12917],[96.1,13000],[96.1,13083],[96.4,13167],[96.5,13250],[96.5,13333],[96.5,13417],[96.5,13500],[96.5,13583],[96.5,13667],[96.5,13750],[96.5,13832],[96.5,13918],[96.5,14000],[96.5,14083],[96.5,14167],[96.5,14250],[96.5,14333],[96.5,14417],[96.5,14500],[96.5,14583],[96.5,14667],[96.8,14750],[97.3,14833],[97.9,14918],[98.1,15000],[98.1,15082],[98.3,15167],[98.3,15250],[98.3,15332],[98.3,15418],[98.3,15500],[98.3,15582],[98.3,15667],[98.3,15750],[98.3,15833],[98.3,15917],[98.3,16000],[98.3,16082],[98.3,16167],[98.3,16250],[98.3,16333],[98.3,16417],[98.3,16500],[98.3,16583],[98.3,16667],[98.3,16750],[98.3,16833],[98.3,16917],[98.3,17000],[98.3,17082],[98.3,17167]]",531.766,535.199,98.875,1.845,"[{""rating"":98.875,""responseTime"":1.8450000000000273}]",space,2.888,,535.199,Partially,50,535.205,,,[],,0,16,16,16,1,audio/Narrative8Situation7.wav,audio/Narrative7Situation7.wav,audio/Narrative6Situation7.wav,audio/Narrative5Situation7.wav,3,5,5,4,,,,,,,,,,,,,,,,,,,,,,,,,,,,,,,,,,,,,,,
,,,,,67439be8ee2236a7c078d523,2025-07-07_18h58.35.585,group3.4_multiperson,2023.2.2,Win32,59.95203837,686c2ebf0248f13bef9af11f,686c7b025230fe7fa3c2067a,,,,,,,,,,,,,,,,,,,,,,,,,,,,,535.206,1,audio/Narrative7Situation8.wav,537.215,,537.215,547.232,"[[91.3,83],[91.3,167],[91.3,250],[92,333],[93.5,417],[93.9,500],[94.3,583],[94.5,667],[94.5,750],[94.5,833],[94.5,917],[94.5,1000],[94.5,1084],[94.5,1167],[94.5,1250],[94.5,1334],[94.5,1417],[94.5,1500],[94.5,1583],[94.5,1667],[94.5,1750],[94.5,1833],[94.5,1916],[94.5,2001],[94.5,2083],[94.5,2167],[94.5,2250],[94.5,2333],[94.5,2417],[94.5,2500],[94.5,2583],[94.5,2667],[94.5,2750],[94.6,2834],[94.6,2917],[94.6,3000],[94.6,3084],[94.6,3167],[94.6,3250],[94.6,3333],[94.6,3417],[94.6,3500],[94.6,3583],[94.6,3667],[94.6,3750],[94.6,3833],[94.6,3916],[94.6,4000],[94.6,4084],[94.6,4166],[94.6,4250],[94.6,4334],[94.6,4417],[94.6,4500],[94.6,4584],[94.6,4667],[94.6,4750],[94.9,4833],[95.9,4916],[96.5,5001],[97.1,5084],[97.4,5166],[97.6,5250],[97.8,5334],[97.8,5416],[97.8,5500],[97.6,5584],[97.3,5667],[97.3,5750],[97.3,5833],[97.3,5917],[97.3,6000],[97.4,6083],[97.4,6167],[97.4,6250],[97.4,6333],[97.4,6416],[97.4,6500],[97.4,6583],[97.4,6666],[97.4,6750],[97.4,6833],[97.4,6916],[97.4,7000],[97.4,7083],[97.4,7167],[97.4,7250],[97.4,7334],[97.4,7417],[97.4,7500],[97.4,7583],[97.4,7667],[97.4,7750],[97.4,7833],[97.4,7917],[97.4,8000],[97.4,8083],[97.4,8167],[97.4,8250],[97.4,8333],[97.4,8416],[97.4,8501],[97.4,8584],[97.4,8667],[97.4,8750],[97.4,8834],[97.4,8917],[97.4,9000],[97.5,9084],[97.5,9167],[97.5,9250],[97.5,9333],[97.5,9417],[97.5,9500],[97.5,9583],[97.5,9667],[97.5,9749],[97.5,9834],[97.5,9917],[97.6,10001]]",547.232,552.798,96.875,2.321,"[{""rating"":96.875,""responseTime"":2.3210000000000264}]",space,5.019,,552.798,Not at all,0,552.802,,,[],,0,17,17,17,1,audio/Narrative8Situation8.wav,audio/Narrative7Situation8.wav,audio/Narrative6Situation8.wav,audio/Narrative5Situation8.wav,3,2,5,3,,,,,,,,,,,,,,,,,,,,,,,,,,,,,,,,,,,,,,,
,,,,,67439be8ee2236a7c078d523,2025-07-07_18h58.35.585,group3.4_multiperson,2023.2.2,Win32,59.95203837,686c2ebf0248f13bef9af11f,686c7b025230fe7fa3c2067a,,,,,,,,,,,,,,,,,,,,,,,,,,,,,552.802,1,audio/Narrative7Situation9.wav,554.815,,554.815,563.433,"[[999,0],[999,82],[999,167],[999,250],[999,332],[999,417],[999,500],[999,582],[55.9,667],[56.1,750],[57,834],[57.6,917],[58.5,1000],[59.9,1084],[60.9,1167],[61.3,1250],[62,1334],[62.1,1417],[62.3,1500],[62.3,1582],[62.3,1667],[62.3,1750],[62.3,1832],[62.3,1917],[62.3,2000],[62.3,2082],[62.3,2167],[62.3,2250],[62.3,2332],[62.3,2416],[62.4,2500],[62.6,2584],[63.6,2667],[67.1,2750],[71.6,2834],[75.5,2917],[77.4,3000],[78.9,3084],[79.4,3167],[79.9,3250],[81,3332],[81.8,3417],[82,3500],[84.3,3582],[85,3666],[85,3750],[85,3834],[85,3916],[85,4000],[85,4082],[85.6,4167],[89.3,4250],[91.9,4334],[93.8,4417],[94.3,4500],[94.6,4582],[95,4667],[95,4750],[95,4832],[95,4917],[95,5000],[95,5082],[94.4,5166],[93.6,5250],[93.6,5332],[93.9,5417],[94.9,5500],[94.9,5584],[94.9,5667],[94.9,5750],[95.3,5832],[95.3,5916],[95.3,6000],[95.3,6084],[95.3,6166],[95.9,6250],[96.4,6334],[96.4,6417],[96.4,6500],[96.4,6582],[96.4,6666],[96.4,6750],[96.4,6832],[96.5,6917],[96.6,7000],[96.6,7082],[96.6,7166],[96.6,7250],[96.6,7334],[96.6,7416],[96.6,7500],[96.6,7584],[96.6,7667],[96.6,7750],[96.6,7834],[96.6,7917],[96.6,8000],[96.6,8082],[96.6,8167],[96.6,8250],[96.6,8332],[96.6,8416],[96.6,8499],[96.6,8582]]",563.434,566.431,96.375,1.289,"[{""rating"":96.375,""responseTime"":1.2889999999999873}]",space,2.462,,566.432,Definitely yes,100,566.437,,,[],,0,18,18,18,1,audio/Narrative8Situation9.wav,audio/Narrative7Situation9.wav,audio/Narrative6Situation9.wav,audio/Narrative5Situation9.wav,3,2,4,3,,,,,,,,,,,,,,,,,,,,,,,,,,,,,,,,,,,,,,,
,,,,,67439be8ee2236a7c078d523,2025-07-07_18h58.35.585,group3.4_multiperson,2023.2.2,Win32,59.95203837,686c2ebf0248f13bef9af11f,686c7b025230fe7fa3c2067a,,,,,,,,,,,,,,,,,,,,,,,,,,,568.965,571.548,571.558,2,audio/Narrative13Situation2.wav,571.558,,571.558,601.299,"[[24.1,72],[24.1,156],[24.1,240],[24.1,323],[24.1,405],[24.1,490],[24.1,573],[29.1,656],[46.6,740],[68.4,823],[81.1,906],[86.9,990],[88.5,1073],[88.8,1156],[87.3,1240],[86.4,1322],[86.4,1406],[86.4,1490],[85.3,1573],[82.3,1658],[77.3,1740],[69.3,1823],[66,1908],[65.8,1990],[65.8,2072],[65.8,2156],[65.8,2240],[65.8,2323],[65.8,2406],[65.8,2490],[65.8,2573],[65.9,2656],[65.5,2740],[62.3,2823],[59.3,2906],[59,2990],[59,3073],[59,3156],[59,3240],[59,3322],[59,3405],[59,3490],[58.8,3573],[58.8,3655],[58.8,3740],[58.8,3823],[58.8,3906],[58.8,3990],[58.9,4073],[59.3,4156],[59.6,4240],[60,4322],[61.6,4406],[66,4490],[74.1,4572],[75.8,4656],[75.8,4740],[76.9,4823],[79.8,4908],[80.4,4990],[80.4,5073],[80.4,5156],[80.4,5240],[80.4,5323],[80.4,5406],[80.4,5490],[80.1,5573],[78.3,5656],[67.8,5740],[60.1,5823],[61.4,5906],[73.3,5990],[76.1,6073],[76.6,6156],[78.4,6240],[81.1,6323],[81.1,6406],[82.6,6490],[87.6,6573],[87.6,6656],[87.6,6740],[87.1,6823],[84.5,6906],[84.5,6990],[85,7073],[85.1,7156],[85.1,7240],[85.4,7323],[86.1,7406],[86.1,7490],[86.1,7573],[86.1,7656],[86.1,7740],[86.1,7822],[86.1,7906],[86.1,7990],[86.3,8073],[86.9,8156],[86.9,8240],[86.9,8323],[86.9,8406],[86.8,8490],[85.5,8573],[85.5,8656],[85.5,8740],[85.5,8822],[85.5,8906],[85.3,8990],[85.1,9072],[84.6,9158],[81.5,9240],[81,9323],[81,9406],[81,9490],[81,9573],[81,9656],[81,9740],[81,9823],[81,9906],[81,9990],[81,10073],[81,10156],[81,10240],[81,10323],[81,10406],[81,10490],[81,10573],[81,10656],[81,10740],[81,10822],[81,10906],[81,10990],[81,11072],[81,11156],[81,11240],[81,11323],[81,11405],[81,11490],[81,11573],[83.5,11656],[85.1,11740],[85.1,11823],[85.1,11906],[84,11990],[82.5,12072],[81.5,12158],[81,12240],[80.6,12322],[79.5,12408],[78.6,12490],[77.9,12573],[77.5,12656],[77,12740],[76.6,12823],[76.6,12906],[76.6,12990],[76.6,13073],[76.6,13156],[76.6,13240],[76.6,13323],[75.9,13406],[75.5,13490],[75.1,13572],[75.1,13656],[75.1,13740],[75.1,13822],[75.1,13906],[75.1,13990],[75.1,14073],[75.1,14156],[75.1,14240],[75.3,14323],[75.4,14406],[75.8,14490],[75.9,14573],[76.3,14656],[76.3,14740],[76.3,14823],[76.5,14906],[76.8,14990],[77,15073],[77.4,15156],[77.5,15240],[77.5,15323],[77.5,15406],[77.5,15490],[77.5,15572],[73.9,15658],[71.3,15740],[70.1,15823],[68.8,15906],[67.9,15990],[65.8,16073],[64,16156],[64,16240],[64,16323],[64.5,16406],[66.5,16490],[67,16573],[67.1,16656],[67.5,16740],[67.6,16822],[67.6,16906],[67.6,16990],[67.6,17072],[67.6,17156],[68,17240],[68.6,17323],[69.1,17406],[69.1,17490],[69.1,17573],[67.5,17656],[63.9,17740],[57.4,17823],[53.3,17906],[52.4,17990],[51.4,18072],[51.1,18156],[51.1,18240],[51.1,18322],[51.1,18406],[49.9,18490],[48.9,18572],[48.6,18656],[47.1,18740],[47.1,18823],[47.1,18906],[47.1,18990],[47.4,19072],[47.9,19156],[48.3,19240],[48.3,19323],[48.3,19406],[47,19490],[41,19573],[36.5,19656],[32.8,19740],[32.8,19822],[32.8,19906],[32.8,19990],[32.8,20072],[32.8,20156],[32.8,20240],[32.8,20322],[32.8,20406],[32.8,20490],[32.8,20573],[32.6,20656],[32.4,20740],[31.8,20823],[29.6,20906],[27.9,20990],[27.1,21073],[25.9,21156],[24.6,21240],[24.4,21322],[24.4,21406],[23.1,21490],[18.8,21573],[17.6,21656],[17.6,21740],[17.6,21823],[17.6,21906],[17.5,21990],[17.5,22073],[17.5,22156],[17.5,22240],[17.3,22323],[16.9,22406],[16.9,22490],[16.3,22572],[15.5,22656],[15.3,22740],[15.3,22822],[17,22906],[28.4,22990],[37.5,23073],[37.6,23156],[37.6,23240],[37.6,23322],[37.6,23406],[37.6,23490],[37.6,23572],[37.6,23656],[37.6,23740],[37.6,23823],[37.6,23906],[37.6,23990],[37.6,24073],[37.6,24156],[37.6,24240],[37.6,24323],[37.6,24406],[37.6,24490],[37.6,24572],[37.6,24656],[37.6,24740],[37.8,24823],[41.4,24906],[44,24990],[44,25072],[44,25156],[44,25240],[44,25323],[44,25406],[44,25490],[44,25573],[44,25656],[44,25740],[44,25822],[44,25906],[44,25990],[44,26072],[44,26156],[44,26240],[44,26323],[44,26405],[44,26490],[44,26573],[44,26656],[44,26740],[44,26823],[44,26906],[44,26990],[44,27073],[44,27156],[44,27240],[44,27323],[44,27406],[44,27490],[44,27573],[44,27656],[44,27740],[44,27823],[44,27906],[44,27990],[44,28072],[44,28156],[44,28240],[44,28323],[44,28406],[44,28490],[44,28573],[44,28656],[44,28740],[43,28823],[43,28906],[42.9,28990],[42,29073],[40.6,29156],[40.6,29240],[40.5,29323],[38.8,29406],[38,29490],[38,29572],[38,29656],[38,29740]]",601.299,601.303,,,[],,,,601.303,Not at all,0,601.307,,,[],,0,0,0,0,1,audio/Narrative13Situation2.wav,audio/Narrative13Situation2.wav,audio/Narrative13Situation2.wav,audio/Narrative13Situation2.wav,2,2,2,2,,,,,566.437,568.965,space,2.001,,,,,,,,,,,,,,,,,,,,,,,,,,,,,,,
,,,,,67439be8ee2236a7c078d523,2025-07-07_18h58.35.585,group3.4_multiperson,2023.2.2,Win32,59.95203837,686c2ebf0248f13bef9af11f,686c7b025230fe7fa3c2067a,,,,,,,,,,,,,,,,,,,,,,,,,,,,,601.307,2,audio/Narrative6Situation1.wav,603.315,,603.315,629.882,"[[38.9,1167],[42.6,1250],[44.6,1334],[45.5,1416],[46.3,1500],[48.4,1750],[48.6,1834],[48.4,1917],[48.3,2000],[47.9,2084],[47.6,2167],[47.6,2250],[47.6,2332],[47.6,2417],[47.6,2500],[47.3,2582],[46,2667],[44.9,2750],[42.5,2832],[38.1,2916],[36.6,3000],[36.1,3084],[31.6,3167],[25.3,3250],[21.5,3334],[19.9,3417],[17.9,3500],[16.6,3584],[16.6,3667],[16.6,3750],[16.6,3834],[17,3917],[17,4000],[17,4084],[16.6,4167],[16.3,4250],[15.6,4332],[14.3,4416],[14,4500],[14,4582],[14,4666],[14,4750],[14,4832],[14,4916],[14,5000],[13.9,5082],[13.8,5167],[13.6,5250],[13.6,5332],[13.8,5417],[17.8,5500],[29.5,5582],[40.8,5667],[45.1,5750],[48,5832],[50.8,5916],[55.6,6000],[65.3,6082],[67.8,6166],[67.8,6250],[67.8,6334],[72.3,6417],[79.4,6500],[80.8,6589],[80.8,6667],[80.8,6750],[80.8,6832],[80.8,6917],[80.8,7000],[84.4,7082],[88.9,7167],[90.8,7250],[90.8,7332],[90.8,7416],[90.8,7499],[90.8,7584],[90.8,7667],[90.8,7750],[90.8,7832],[90.8,7917],[90.8,8000],[90.8,8082],[90.8,8167],[90.8,8250],[90.8,8334],[90.8,8417],[90.8,8500],[90.8,8584],[90.8,8667],[90.8,8750],[90.8,8832],[90.8,8917],[90.8,9000],[90.8,9082],[90.8,9166],[90.8,9250],[90.8,9334],[90.8,9417],[90.8,9500],[90.8,9582],[90.8,9667],[90.8,9750],[90.8,9834],[90.8,9917],[90.8,10000],[90.8,10082],[90.8,10166],[90.8,10250],[90.8,10332],[90.6,10417],[90.5,10500],[90.4,10582],[90.4,10666],[90.3,10750],[90.3,10832],[90.3,10916],[90.3,11000],[90.3,11082],[90.3,11167],[90.3,11250],[90.3,11332],[88.4,11417],[76.5,11500],[59.1,11582],[44.5,11667],[32.3,11750],[23.8,11832],[19,11917],[16.3,12000],[14.1,12082],[14.1,12166],[14.1,12250],[14.1,12332],[14.1,12416],[14.1,12500],[14.1,12582],[14.1,12666],[14.1,12749],[14.1,12834],[14.1,12916],[14.1,13000],[14.1,13082],[14.1,13167],[14.1,13250],[14.1,13332],[14.1,13417],[14.1,13500],[13.9,13582],[13,13666],[12.4,13750],[11.5,13832],[11.4,13916],[11.4,14000],[11.4,14084],[11.4,14167],[11.4,14250],[11.4,14332],[11.8,14417],[11.9,14500],[11.9,14582],[11.9,14667],[11.9,14750],[11.6,14832],[11.4,14916],[10.9,15000],[10.3,15084],[10,15166],[9.8,15249],[9.8,15332],[9.8,15416],[9.8,15500],[9.8,15584],[9.8,15667],[9.8,15750],[9.8,15832],[9.9,15917],[9.9,16000],[9.9,16084],[9.9,16167],[9.8,16250],[9.8,16334],[9.5,16417],[9.4,16500],[9.1,16582],[8.9,16666],[8.6,16750],[8.5,16832],[8.5,16916],[8.5,17000],[8.5,17084],[8.5,17166],[8.5,17250],[8.5,17332],[8.5,17416],[8.5,17500],[8.5,17582],[8.5,17667],[8.5,17750],[8.5,17832],[8.5,17917],[8.5,18000],[8.5,18082],[8.5,18167],[8.5,18250],[8.5,18332],[8.5,18416],[8.5,18500],[8.5,18582],[8.5,18667],[8.5,18749],[8.5,18834],[8.5,18917],[8.5,19000],[8.5,19082],[8.5,19167],[8.5,19250],[8.5,19332],[8.5,19417],[8.5,19500],[8.5,19582],[8.5,19666],[8.5,19750],[8.5,19832],[8.5,19917],[8.5,20000],[8.5,20084],[8.5,20167],[8.5,20250],[8.5,20332],[8.5,20416],[8.5,20499],[8.5,20584],[8.5,20667],[8.5,20750],[8.5,20832],[9.1,20917],[10.4,21000],[10.9,21082],[12,21167],[18.1,21250],[26.6,21332],[31.9,21417],[34,21500],[35.8,21582],[38.3,21666],[41.8,21750],[46.5,21834],[49.4,21917],[50,22000],[50.1,22082],[50.1,22167],[50.1,22250],[50.1,22332],[50.1,22417],[50.1,22500],[50.1,22582],[50.1,22666],[50.1,22750],[50.1,22832],[49.9,22916],[49,22999],[48.6,23082],[44.1,23166],[34.8,23250],[33.5,23334],[34.6,23417],[35.4,23500],[32.8,23582],[32.8,23667],[32.8,23750],[32.8,23832],[32.8,23916],[32.8,24000],[32.8,24082],[32.8,24166],[32.8,24250],[32.8,24332],[32.8,24416],[32.8,24500],[32.8,24582],[32.8,24666],[33.3,24750],[39,24834],[52.8,24916],[69.5,25000],[83.6,25084],[85.6,25166],[89.6,25250],[96.8,25334],[96.8,25417],[96.8,25500],[96.8,25582],[96.8,25667],[96.8,25750],[96.8,25832],[96.8,25916],[96.8,26000],[96.8,26082],[96.8,26166],[96.8,26250],[96.8,26332],[96.8,26417],[96.8,26499]]",629.882,635.115,37.5,4.651,"[{""rating"":37.5,""responseTime"":4.651000000000067}]",space,4.707,,635.115,Partially,50,635.12,,,[],,0,1,1,1,1,audio/Narrative7Situation1.wav,audio/Narrative8Situation1.wav,audio/Narrative5Situation1.wav,audio/Narrative6Situation1.wav,2,5,5,2,,,,,,,,,,,,,,,,,,,,,,,,,,,,,,,,,,,,,,,
,,,,,67439be8ee2236a7c078d523,2025-07-07_18h58.35.585,group3.4_multiperson,2023.2.2,Win32,59.95203837,686c2ebf0248f13bef9af11f,686c7b025230fe7fa3c2067a,,,,,,,,,,,,,,,,,,,,,,,,,,,,,635.12,2,audio/Narrative6Situation2.wav,638.132,,638.132,666.649,"[[999,0],[999,81],[999,166],[999,250],[999,332],[999,416],[999,500],[999,582],[999,666],[999,749],[999,832],[999,916],[999,999],[999,1084],[21.8,1167],[21.5,1249],[21.5,1331],[21.5,1417],[21.5,1500],[21.5,1582],[21.5,1666],[21.5,1750],[25.3,1832],[39.4,1916],[50,2000],[52.5,2082],[58.3,2166],[58.9,2250],[58.9,2332],[64.5,2416],[67.3,2500],[67.3,2582],[67.3,2666],[67,2750],[65.4,2832],[65.4,2916],[62.8,2999],[59.9,3082],[54.8,3167],[52.8,3250],[52.8,3331],[52.8,3417],[55.6,3500],[57.6,3582],[57.6,3666],[57.6,3750],[57.8,3832],[58,3916],[57.8,3999],[53.4,4082],[50.8,4166],[50.8,4249],[49.4,4332],[49,4416],[49,4500],[49,4582],[51.1,4667],[70.3,4750],[77.3,4832],[78.5,4916],[83.4,5000],[85.6,5082],[88.1,5166],[91.3,5250],[91.3,5332],[92,5416],[93,5499],[93,5581],[93,5666],[93,5749],[93,5832],[93,5916],[93,6000],[93,6082],[93.6,6167],[94.5,6250],[95.3,6332],[95.3,6416],[95.3,6500],[95.3,6582],[95.3,6666],[95.3,6750],[95.3,6832],[95.3,6916],[95.3,7000],[95.3,7082],[95.3,7166],[95.3,7249],[95.3,7332],[95.3,7416],[95.3,7499],[95.3,7582],[95.3,7666],[95.3,7749],[95.3,7831],[95.3,7916],[95.3,8000],[95.3,8082],[95.3,8166],[95.3,8249],[95.3,8332],[95.3,8416],[95.3,8499],[95.3,8582],[95.3,8666],[95.3,8749],[95.3,8832],[95.3,8916],[95.3,8999],[95.3,9082],[95.3,9166],[95.3,9250],[95.3,9332],[95.3,9416],[95.3,9500],[95.3,9582],[95.3,9666],[95.5,9749],[95.8,9832],[96,9916],[96.1,9999],[96.3,10082],[96.3,10166],[96.3,10250],[96.3,10331],[96.3,10417],[96.3,10499],[96.1,10582],[96,10666],[95.9,10749],[95.9,10831],[95.9,10917],[95.9,10999],[95.9,11082],[95.9,11166],[95.9,11250],[95.9,11332],[95.9,11416],[95.9,11500],[95.9,11582],[95.9,11666],[95.9,11749],[95.9,11832],[95.9,11916],[95.9,11999],[95.9,12081],[95.9,12166],[95.9,12250],[95.9,12331],[95.9,12417],[95.9,12499],[95.9,12582],[95.9,12666],[96,12750],[96.3,12832],[96.4,12916],[96.6,12999],[96.9,13082],[97.3,13166],[97.6,13250],[97.8,13331],[97.9,13416],[98,13499],[98,13581],[98.1,13666],[98.3,13750],[98.3,13832],[98.3,13916],[98.3,14000],[98.3,14082],[98.3,14166],[98.3,14249],[98.3,14332],[98.3,14416],[98.3,14499],[98.3,14582],[98.3,14666],[98.3,14749],[98.3,14832],[98.4,14916],[98.5,14999],[98.5,15081],[98.5,15166],[98.5,15249],[98.5,15332],[98.5,15416],[98.5,15499],[98.5,15582],[98.5,15667],[98.5,15750],[98.5,15832],[98.5,15916],[98.5,16000],[98.5,16082],[98.5,16166],[98.5,16249],[98.5,16332],[98.5,16416],[98.5,16499],[98.5,16582],[98.5,16666],[98.5,16749],[98.5,16831],[98.5,16917],[98.5,17000],[98.5,17082],[98.5,17166],[98.5,17250],[98.5,17332],[98.5,17416],[98.5,17500],[98.5,17582],[98.5,17666],[98.5,17749],[98.5,17832],[98.5,17916],[98.5,18000],[98.5,18081],[98.5,18166],[98.5,18250],[98.5,18331],[98.5,18417],[98.5,18500],[98.5,18582],[98.5,18666],[98.5,18750],[98.5,18832],[98.5,18916],[98.5,19000],[98.5,19082],[98.5,19166],[98.5,19250],[98.5,19332],[98.5,19416],[98.5,19499],[98.5,19582],[98.5,19666],[98.5,19749],[98.5,19832],[98.5,19916],[98.5,20000],[98.5,20081],[98.5,20166],[98.5,20249],[98.5,20332],[98.5,20416],[98.5,20500],[98.5,20582],[98.5,20666],[98.5,20749],[98.5,20832],[98.5,20916],[98.5,20999],[98.5,21081],[98.5,21166],[98.5,21249],[98.5,21331],[98.5,21416],[98.5,21500],[98.5,21582],[98.5,21666],[98.5,21750],[98.5,21832],[98.5,21916],[98.5,21999],[98.5,22082],[98.5,22166],[98.5,22249],[98.5,22332],[98.5,22416],[98.5,22499],[98.5,22581],[98.5,22666],[98.5,22750],[98.5,22832],[98.5,22916],[98.5,23000],[98.5,23082],[98.5,23166],[98.5,23249],[98.5,23331],[98.5,23417],[98.5,23500],[98.5,23582],[98.5,23666],[98.5,23749],[98.5,23832],[98.5,23916],[98.5,24000],[98.5,24082],[98.5,24166],[98.5,24249],[98.5,24332],[98.5,24416],[98.5,24499],[98.5,24582],[98.5,24667],[98.5,24750],[98.5,24832],[98.5,24916],[98.5,25000],[98.5,25082],[98.5,25166],[98.5,25250],[98.5,25332],[98.5,25416],[98.4,25500],[98.1,25581],[98,25666],[97.9,25750],[97.9,25831],[97.9,25916],[97.9,25999],[97.9,26081],[97.9,26166],[97.9,26250],[97.9,26332],[97.9,26416],[97.9,26500],[97.9,26582],[97.9,26666],[97.9,26749],[97.9,26832],[97.9,26916],[97.9,26999],[97.9,27082],[97.9,27166],[97.9,27249],[97.9,27332],[97.9,27416],[97.9,27499],[97.9,27581],[97.9,27666],[97.9,27749],[97.9,27831],[97.9,27916],[97.9,28000],[97.9,28082],[97.9,28167],[97.9,28250],[97.9,28332],[97.9,28416],[97.9,28500]]",666.649,668.965,98.25,1.574,"[{""rating"":98.25,""responseTime"":1.5739999999999554}]",space,1.79,,668.965,Not at all,0,668.97,,,[],,0,2,2,2,1,audio/Narrative7Situation2.wav,audio/Narrative8Situation2.wav,audio/Narrative5Situation2.wav,audio/Narrative6Situation2.wav,3,3,3,3,,,,,,,,,,,,,,,,,,,,,,,,,,,,,,,,,,,,,,,
,,,,,67439be8ee2236a7c078d523,2025-07-07_18h58.35.585,group3.4_multiperson,2023.2.2,Win32,59.95203837,686c2ebf0248f13bef9af11f,686c7b025230fe7fa3c2067a,,,,,,,,,,,,,,,,,,,,,,,,,,,,,668.97,2,audio/Narrative6Situation3.wav,673.981,,673.981,686.582,"[[999,0],[999,83],[999,166],[999,250],[999,333],[999,416],[999,500],[999,582],[999,666],[999,750],[999,833],[999,916],[999,1000],[999,1083],[999,1166],[999,1250],[999,1333],[999,1416],[999,1500],[999,1583],[999,1666],[999,1750],[999,1833],[999,1916],[999,2000],[999,2082],[999,2166],[999,2250],[999,2333],[999,2416],[999,2500],[999,2583],[999,2666],[49.1,2750],[46.9,2833],[46.4,2916],[44.9,3000],[44.9,3082],[46.5,3166],[49.3,3250],[49.8,3333],[49.9,3418],[49.8,3500],[48.5,3583],[45.3,3668],[42.6,3750],[38.6,3833],[38,3916],[38,4000],[38,4083],[38.3,4166],[39,4250],[40.3,4333],[40.3,4416],[40.3,4500],[39.9,4583],[38.5,4666],[38.3,4750],[38.3,4832],[38,4918],[36.8,5000],[36,5083],[36,5166],[37.3,5250],[41.5,5333],[41.4,5416],[40.3,5500],[40.3,5583],[42.6,5666],[44.8,5750],[46.8,5833],[47.4,5916],[47.6,6000],[47.6,6083],[47.6,6166],[47.8,6250],[48.3,6333],[48.4,6416],[48.4,6500],[48.4,6583],[48.5,6666],[53.9,6750],[67.6,6833],[70.1,6916],[71.8,7000],[77.1,7083],[87,7166],[87.6,7250],[87.6,7332],[87.1,7416],[85.6,7500],[85.5,7583],[85.5,7666],[85.5,7750],[85.5,7832],[85.5,7916],[85.5,8000],[85.5,8083],[85.5,8166],[85.5,8250],[85.8,8333],[85.9,8418],[85.9,8500],[85.9,8583],[85.9,8666],[85.9,8750],[85.9,8833],[86,8916],[86.5,9000],[87.4,9083],[87.4,9166],[87.4,9250],[87.4,9332],[87.4,9416],[87.4,9500],[87.4,9583],[87.4,9666],[87.4,9750],[87.4,9833],[87.4,9916],[87.4,10000],[87.4,10083],[87.4,10166],[87.4,10250],[87.9,10333],[88.8,10416],[89.5,10500],[90.4,10583],[90.8,10666],[90.8,10750],[90.9,10833],[91.3,10918],[91.4,11000],[91.4,11083],[91.4,11168],[91.4,11250],[91.4,11333],[91.5,11416],[91.5,11500],[91.5,11583],[91.5,11666],[91.5,11750],[91.5,11833],[91.5,11916],[91.5,12000],[91.5,12082],[91.5,12168],[91.5,12250],[91.5,12332],[91.8,12418],[91.9,12500],[91.9,12583]]",686.582,701.115,92.625,12.736,"[{""rating"":92.625,""responseTime"":12.73599999999999}]",space,13.996,,701.116,Partially,50,701.12,,,[],,0,3,3,3,1,audio/Narrative7Situation3.wav,audio/Narrative8Situation3.wav,audio/Narrative5Situation3.wav,audio/Narrative6Situation3.wav,8,4,3,5,,,,,,,,,,,,,,,,,,,,,,,,,,,,,,,,,,,,,,,
,,,,,67439be8ee2236a7c078d523,2025-07-07_18h58.35.585,group3.4_multiperson,2023.2.2,Win32,59.95203837,686c2ebf0248f13bef9af11f,686c7b025230fe7fa3c2067a,,,,,,,,,,,,,,,,,,,,,,,,,,,,,701.121,2,audio/Narrative6Situation4.wav,703.132,,703.132,715.748,"[[72.4,2832],[73.9,2916],[74.3,3000],[75,3082],[75.5,3166],[75.5,3249],[71.5,3332],[63.4,3416],[56.5,3499],[52.6,3582],[51.4,3666],[50.6,3749],[50.6,3831],[49.6,3917],[48.3,3999],[47.8,4082],[47.8,4166],[47.8,4250],[47.3,4332],[47.3,4416],[47.4,4500],[49.6,4582],[50.3,4666],[50.3,4750],[50.3,4832],[50.3,4916],[50.3,4999],[50.6,5082],[57.6,5166],[67,5249],[73.4,5332],[74.1,5416],[74.1,5499],[74.9,5582],[76.4,5667],[78.8,5750],[81.8,5832],[85.5,5916],[89.9,6000],[91.5,6082],[91.9,6166],[92.8,6250],[92.8,6332],[92.9,6416],[92.4,6499],[91.5,6582],[91.4,6666],[91.4,6749],[91.4,6832],[92.3,6916],[93.5,7000],[93.9,7082],[94.5,7166],[94.5,7250],[94.5,7331],[95.1,7416],[95.1,7499],[95.1,7582],[95.1,7666],[95.1,7750],[95.1,7832],[95.1,7916],[95.1,7999],[95.1,8081],[95.1,8166],[95.1,8249],[95.1,8331],[95.1,8416],[95.1,8499],[95.1,8581],[95.1,8666],[95.1,8749],[95.1,8831],[95.1,8916],[95.1,9000],[95.1,9082],[95.1,9166],[95.1,9250],[95.1,9332],[95.1,9416],[95.1,9500],[95.1,9582],[95.1,9666],[95.1,9749],[95.1,9832],[95.1,9916],[95.1,9999],[95.1,10082],[95.1,10166],[94.8,10250],[94.6,10332],[94.6,10416],[94.6,10500],[94.5,10582],[94.1,10666],[93.5,10749],[93.4,10832],[93.4,10916],[93.8,10999],[94.8,11082],[95.1,11166],[95.1,11249],[95.1,11332],[95.1,11416],[95.1,11499],[95.1,11581],[95.1,11664],[95.1,11750],[95.1,11832],[95.3,11916],[95.5,12000],[95.6,12082],[95.8,12166],[95.9,12250],[95.9,12332],[95.9,12416],[95.9,12499],[95.9,12581]]",715.749,720.698,97.125,2.388,"[{""rating"":97.125,""responseTime"":2.3880000000000337}]",space,4.401,,720.698,Partially,50,720.701,,,[],,0,4,4,4,1,audio/Narrative7Situation4.wav,audio/Narrative8Situation4.wav,audio/Narrative5Situation4.wav,audio/Narrative6Situation4.wav,3,3,1,2,,,,,,,,,,,,,,,,,,,,,,,,,,,,,,,,,,,,,,,
,,,,,67439be8ee2236a7c078d523,2025-07-07_18h58.35.585,group3.4_multiperson,2023.2.2,Win32,59.95203837,686c2ebf0248f13bef9af11f,686c7b025230fe7fa3c2067a,,,,,,,,,,,,,,,,,,,,,,,,,,,,,720.702,2,audio/Narrative6Situation5.wav,722.715,,722.715,730.665,"[[100,2833],[96.3,3083],[90.5,3167],[91.5,3250],[92,3333],[92.1,3417],[93.5,3500],[94.8,3583],[96,3666],[96.3,3750],[96.4,3833],[96.4,3916],[96.4,3999],[96.4,4083],[96.4,4166],[96.3,4249],[96.3,4333],[96.1,4417],[96.1,4500],[96,4583],[95.8,4667],[95.5,4750],[95.5,4833],[95.5,4916],[95.5,5000],[95.5,5083],[95.5,5166],[95.5,5250],[95.5,5333],[95.5,5416],[95.5,5499],[95.5,5583],[95.5,5667],[95.5,5751],[96.1,5833],[96.8,5916],[96.9,5999],[97.1,6083],[97.5,6166],[97.5,6249],[97.5,6333],[97.5,6416],[97.5,6500],[97.5,6583],[97.5,6667],[97.5,6750],[97.5,6833],[97.5,6916],[97.5,6999],[97.5,7083],[97.5,7166],[97.5,7250],[97.5,7333],[97.5,7416],[97.5,7499],[97.5,7583],[97.5,7667],[97.5,7749],[97.5,7833],[97.5,7917]]",730.665,732.782,97.375,1.593,"[{""rating"":97.375,""responseTime"":1.592999999999961}]",space,1.586,,732.782,Definitely yes,100,732.787,,,[],,0,5,5,5,1,audio/Narrative7Situation5.wav,audio/Narrative8Situation5.wav,audio/Narrative5Situation5.wav,audio/Narrative6Situation5.wav,5,2,5,2,,,,,,,,,,,,,,,,,,,,,,,,,,,,,,,,,,,,,,,
,,,,,67439be8ee2236a7c078d523,2025-07-07_18h58.35.585,group3.4_multiperson,2023.2.2,Win32,59.95203837,686c2ebf0248f13bef9af11f,686c7b025230fe7fa3c2067a,,,,,,,,,,,,,,,,,,,,,,,,,,,,,732.787,2,audio/Narrative6Situation6.wav,734.798,,734.799,745.882,"[[69.3,749],[49,1165],[50,1249],[51,1332],[52.5,1415],[52.9,1500],[53.5,1582],[55.1,1665],[55.8,1749],[57.8,1832],[61.8,1915],[69.3,1999],[76.5,2082],[78.9,2165],[85.6,2249],[94,2332],[95.3,2415],[96.4,2499],[96.4,2581],[96.4,2665],[96.4,2749],[96.4,2831],[96.4,2915],[97.6,2999],[98.5,3081],[98.5,3164],[98.5,3249],[98.5,3332],[98.5,3414],[98.3,3499],[98.1,3582],[98.1,3664],[98.1,3749],[98.1,3832],[98.1,3915],[98.1,3999],[98.1,4081],[98.1,4165],[98.1,4249],[98.1,4331],[98.1,4414],[98.1,4500],[98.1,4581],[98.1,4664],[98.1,4749],[98.1,4831],[98.1,4915],[98.1,4999],[98.1,5082],[98.1,5165],[98.1,5249],[98.1,5331],[98.1,5415],[98.1,5499],[98.1,5581],[97.9,5665],[97.8,5749],[97.6,5831],[97.6,5914],[97.6,6000],[97.6,6081],[97.6,6165],[97.6,6249],[97.6,6331],[97.6,6415],[97.6,6499],[97.6,6581],[97.6,6664],[97.6,6749],[97.6,6832],[97.6,6915],[97.6,6999],[97.6,7081],[97.6,7165],[97.6,7249],[97.6,7331],[97.6,7415],[97.6,7499],[97.6,7581],[97.6,7665],[97.6,7749],[97.6,7831],[97.6,7914],[97.6,7997],[97.6,8081],[97.6,8165],[97.6,8249],[97.6,8332],[97.8,8415],[97.8,8499],[97.9,8582],[98.1,8665],[98.3,8749],[98.3,8831],[98.3,8914],[98.3,8999],[98.3,9081],[98.3,9164],[98.3,9249],[98.3,9332],[98.3,9415],[98.3,9499],[98.3,9582],[98.3,9664],[98.4,9749],[98.4,9832],[98.4,9915],[98.4,9999],[98.4,10081],[98.4,10164],[98.4,10249],[98.4,10331],[98.4,10414],[98.4,10499],[98.4,10581],[98.4,10664],[98.4,10749],[98.4,10831],[98.5,10915],[98.5,10999],[98.5,11082]]",745.882,748.848,98.125,2.308,"[{""rating"":98.125,""responseTime"":2.3079999999999927}]",space,2.43,,748.848,Definitely yes,100,748.85,,,[],,0,6,6,6,1,audio/Narrative7Situation6.wav,audio/Narrative8Situation6.wav,audio/Narrative5Situation6.wav,audio/Narrative6Situation6.wav,3,2,3,2,,,,,,,,,,,,,,,,,,,,,,,,,,,,,,,,,,,,,,,
,,,,,67439be8ee2236a7c078d523,2025-07-07_18h58.35.585,group3.4_multiperson,2023.2.2,Win32,59.95203837,686c2ebf0248f13bef9af11f,686c7b025230fe7fa3c2067a,,,,,,,,,,,,,,,,,,,,,,,,,,,,,748.851,2,audio/Narrative6Situation7.wav,753.864,,753.865,778.732,"[[999,0],[999,82],[999,165],[999,248],[999,332],[999,416],[999,500],[999,582],[999,666],[999,750],[999,832],[999,915],[999,1000],[51.6,1082],[51.6,1165],[51.6,1250],[51.8,1332],[52,1415],[55.9,1498],[60.5,1583],[64.5,1666],[65.6,1750],[65.6,1832],[65.6,1916],[65.6,2000],[65.9,2082],[65.9,2166],[65.9,2250],[65.9,2332],[65.9,2415],[65.9,2500],[65.9,2582],[65.1,2666],[59.4,2750],[51,2832],[45.9,2916],[37.1,2998],[23.6,3082],[16.1,3165],[11.3,3250],[7.3,3332],[7.3,3416],[7.4,3500],[8.3,3582],[8.8,3665],[8.9,3748],[8.9,3832],[8.9,3915],[8.9,4000],[8.9,4082],[8.9,4165],[8.9,4250],[8.9,4332],[8.6,4415],[8.3,4500],[8.1,4582],[8.1,4665],[8.1,4748],[8.1,4832],[8.1,4915],[8.1,4998],[8.1,5082],[8.1,5166],[8.1,5250],[8.1,5332],[8.1,5415],[8.1,5500],[8.1,5582],[8.1,5665],[8.1,5748],[8.1,5832],[8.1,5915],[8.1,5998],[8.1,6082],[8.1,6165],[8.1,6250],[8.1,6331],[8.1,6416],[8.1,6500],[8.1,6582],[8.1,6665],[8.1,6750],[8.1,6832],[8,6915],[8,7000],[7.9,7082],[7.8,7165],[7.8,7248],[7.8,7332],[8,7416],[8.3,7498],[8.3,7581],[8.3,7666],[8.3,7750],[8.3,7831],[8,7916],[7.8,8000],[7.8,8082],[7.8,8166],[9.1,8250],[13,8332],[17.3,8416],[24.1,8500],[27.6,8582],[31.8,8665],[32,8750],[32,8832],[32.4,8917],[43.5,9000],[55,9082],[55,9165],[55.3,9250],[58.3,9332],[57.6,9416],[54.4,9500],[54.4,9581],[54.4,9666],[57.1,9750],[60.5,9832],[64.9,9916],[68,10000],[68.1,10082],[68.1,10165],[68.3,10250],[72.5,10332],[76.9,10416],[78.5,10498],[78.5,10582],[78.5,10665],[78.5,10748],[78.5,10831],[78.5,10916],[78.6,11000],[80.8,11082],[84.9,11166],[85.3,11250],[85.9,11332],[85.9,11415],[85.9,11500],[85.9,11582],[86,11665],[86,11750],[86,11832],[86.1,11915],[86.4,11998],[86.5,12082],[86.5,12166],[86.5,12250],[86.5,12332],[86.5,12415],[86.5,12498],[86.5,12582],[86.6,12666],[87,12748],[87.4,12833],[87.4,12916],[87.5,12998],[87.5,13082],[87.5,13166],[87.5,13250],[87.5,13332],[87.9,13415],[88.4,13498],[88.5,13582],[88.5,13665],[88.5,13748],[88.5,13832],[88.5,13915],[88.5,13998],[88.5,14082],[88.5,14166],[88.5,14250],[88.5,14332],[88.5,14415],[88.5,14500],[88.5,14582],[88.5,14665],[88.5,14750],[88.5,14832],[88.5,14915],[88.5,15000],[88.5,15082],[88.5,15165],[88.5,15248],[88.5,15332],[89.3,15416],[89.6,15500],[89.6,15582],[89.6,15665],[89.6,15750],[89.6,15832],[89.8,15916],[89.8,16000],[89.8,16082],[89.8,16165],[89.8,16248],[89.8,16332],[89.8,16415],[89.8,16500],[90,16582],[90.4,16665],[90.9,16750],[91.1,16832],[91.5,16915],[92.1,16998],[92.4,17082],[92.5,17165],[92.5,17250],[92.5,17332],[92.5,17416],[92.5,17498],[92.5,17581],[92.6,17666],[93,17750],[93.8,17832],[94.1,17915],[94.8,18000],[95,18082],[95.1,18165],[95.1,18248],[95.3,18332],[95.4,18415],[95.4,18498],[95.9,18582],[96.1,18665],[96.3,18748],[96.3,18832],[96.3,18916],[96.3,19000],[96.3,19082],[96.3,19165],[96.3,19250],[96.3,19332],[96.3,19415],[96.3,19500],[96.3,19582],[96.3,19665],[96.3,19748],[96.3,19832],[96.3,19915],[96.3,20000],[96.3,20081],[96.3,20166],[96.3,20250],[96.3,20332],[96.3,20416],[96.3,20500],[96.3,20582],[96.3,20665],[96.3,20748],[96.3,20832],[96.3,20915],[96.3,21000],[96.3,21082],[96.3,21165],[96.3,21250],[96.3,21332],[96.3,21415],[96.3,21498],[96.3,21582],[96.3,21665],[96.3,21748],[96.3,21832],[96.3,21915],[96.3,22000],[96.3,22082],[96.3,22165],[96.3,22250],[96.3,22332],[96.3,22415],[96.3,22500],[96.3,22582],[96.3,22665],[96.3,22750],[96.3,22832],[96.3,22915],[96.3,22998],[96.3,23081],[96.3,23165],[96.3,23248],[96.3,23331],[96.3,23415],[96.3,23500],[96.3,23582],[96.3,23666],[96.3,23750],[96.3,23832],[96.3,23915],[96.3,23998],[96.3,24082],[96.3,24165],[96.3,24248],[96.3,24332],[96.3,24415],[96.3,24498],[96.3,24581],[96.3,24666],[96.3,24750],[96.3,24832]]",778.732,782.315,80.25,2.733,"[{""rating"":80.25,""responseTime"":2.733000000000061}]",space,3.05,,782.315,Definitely yes,100,782.319,,,[],,0,7,7,7,1,audio/Narrative7Situation7.wav,audio/Narrative8Situation7.wav,audio/Narrative5Situation7.wav,audio/Narrative6Situation7.wav,5,3,4,5,,,,,,,,,,,,,,,,,,,,,,,,,,,,,,,,,,,,,,,
,,,,,67439be8ee2236a7c078d523,2025-07-07_18h58.35.585,group3.4_multiperson,2023.2.2,Win32,59.95203837,686c2ebf0248f13bef9af11f,686c7b025230fe7fa3c2067a,,,,,,,,,,,,,,,,,,,,,,,,,,,,,782.319,2,audio/Narrative6Situation8.wav,787.331,,787.331,794.182,"[[999,1],[999,83],[999,166],[999,250],[999,333],[999,417],[999,500],[999,584],[999,667],[999,751],[999,834],[999,917],[999,1000],[999,1083],[999,1167],[50.5,1250],[50.4,1333],[50.4,1417],[50.4,1500],[50.3,1584],[50.1,1668],[50.1,1751],[50,1834],[49.9,1917],[49.4,2001],[48.6,2084],[47.5,2167],[47.5,2250],[47.5,2334],[48.4,2417],[53.3,2500],[55.1,2584],[55.1,2667],[55.1,2750],[54.8,2833],[54,2918],[51.5,3000],[46,3084],[40,3167],[33.1,3251],[25.8,3334],[22.1,3417],[19.6,3501],[18.8,3584],[18.8,3667],[18.8,3750],[18.8,3834],[18.8,3917],[18.6,4001],[16.8,4084],[15.4,4167],[15.4,4250],[15.4,4334],[16,4417],[16.8,4500],[16.8,4583],[15.5,4667],[14.8,4750],[14.6,4833],[14.6,4917],[14.6,5000],[14.6,5084],[14.6,5167],[14.6,5250],[14.6,5334],[14.6,5417],[14.6,5500],[14.6,5584],[14.4,5667],[14.1,5751],[13.8,5834],[13.5,5917],[13.3,6000],[13.1,6083],[12.8,6167],[12.6,6250],[12.1,6333],[12.1,6417],[12,6500],[11.9,6584],[11.9,6667],[11.4,6750],[11.3,6834]]",794.182,798.048,2.625,3.207,"[{""rating"":2.6249999999999996,""responseTime"":3.2070000000001073}]",space,3.34,,798.048,Not at all,0,798.053,,,[],,0,8,8,8,1,audio/Narrative7Situation8.wav,audio/Narrative8Situation8.wav,audio/Narrative5Situation8.wav,audio/Narrative6Situation8.wav,2,3,3,5,,,,,,,,,,,,,,,,,,,,,,,,,,,,,,,,,,,,,,,
,,,,,67439be8ee2236a7c078d523,2025-07-07_18h58.35.585,group3.4_multiperson,2023.2.2,Win32,59.95203837,686c2ebf0248f13bef9af11f,686c7b025230fe7fa3c2067a,,,,,,,,,,,,,,,,,,,,,,,,,,,,,798.054,2,audio/Narrative6Situation9.wav,802.065,,802.065,811.998,"[[12.6,82],[12.4,166],[12,250],[11.6,332],[11.3,417],[11.1,500],[11.1,582],[11.1,666],[11.1,749],[10.8,832],[10.6,916],[10.3,999],[10.1,1082],[11.3,1166],[13.5,1249],[13.5,1332],[12.4,1417],[10.9,1500],[9.5,1582],[9,1666],[8.4,1750],[7.9,1832],[7.4,1917],[6.9,2000],[6.8,2082],[6.8,2166],[6.8,2250],[7.1,2332],[7.1,2416],[7.1,2500],[7.5,2582],[7.9,2666],[7.9,2749],[7.8,2834],[6.9,2916],[6.6,2999],[6.5,3082],[6.5,3166],[6.4,3250],[6.1,3331],[5.9,3417],[5.9,3500],[5.9,3582],[6.1,3666],[6.5,3750],[6.5,3832],[6.5,3916],[6.5,3999],[6.5,4082],[6.5,4166],[6.5,4249],[6.5,4332],[6.5,4416],[6.5,4499],[6.3,4582],[6.1,4666],[6,4750],[6,4832],[6,4916],[6,5000],[6,5082],[6,5166],[6,5250],[5.8,5332],[5.5,5416],[5.4,5499],[5.3,5582],[5.1,5666],[5.1,5749],[5.1,5832],[5.1,5917],[5.1,5999],[5.1,6082],[5.1,6166],[5.1,6249],[5.1,6331],[5.1,6416],[5.1,6500],[5.1,6582],[5.1,6667],[5.1,6750],[5.1,6832],[5.1,6917],[5.1,7000],[5.1,7082],[5.1,7166],[5.1,7249],[5.1,7332],[4.9,7417],[4.4,7499],[4.4,7581],[4,7667],[3.6,7750],[3.3,7832],[3.1,7917],[3.1,7999],[2.9,8082],[2.9,8167],[2.9,8250],[2.9,8332],[2.9,8416],[2.9,8499],[2.9,8582],[2.9,8666],[2.9,8749],[2.9,8832],[2.9,8916],[2.9,8999],[2.9,9082],[2.9,9166],[2.9,9250],[2.8,9332],[2.8,9416],[2.6,9500],[2.5,9582],[2.4,9666],[2.3,9750],[2.1,9832],[2,9916]]",811.998,814.781,0.875,1.509,"[{""rating"":0.874999999999998,""responseTime"":1.5090000000000146}]",space,2.254,,814.781,Not at all,0,814.784,,,[],,0,9,9,9,1,audio/Narrative7Situation9.wav,audio/Narrative8Situation9.wav,audio/Narrative5Situation9.wav,audio/Narrative6Situation9.wav,2,3,3,4,,,,,,,,,,,,,,,,,,,,,,,,,,,,,,,,,,,,,,,
,,,,,67439be8ee2236a7c078d523,2025-07-07_18h58.35.585,group3.4_multiperson,2023.2.2,Win32,59.95203837,686c2ebf0248f13bef9af11f,686c7b025230fe7fa3c2067a,,,,,,,,,,,,,,,,,,,,,,,,,,,,,814.784,2,audio/Narrative5Situation1.wav,819.798,,819.798,833.098,"[[999,0],[999,82],[999,166],[999,250],[999,332],[999,415],[999,500],[999,582],[999,665],[999,750],[999,832],[999,916],[999,1000],[999,1082],[999,1165],[50.4,1250],[50,1332],[50,1416],[50,1498],[50,1583],[50.3,1666],[51.4,1750],[55.1,1833],[59.9,1916],[66.3,2000],[71.3,2082],[73.9,2166],[74,2250],[75.8,2332],[79.5,2415],[79.5,2498],[79.5,2583],[80.3,2666],[84.1,2750],[90.8,2832],[94.5,2916],[94.5,2998],[95.6,3083],[96.8,3166],[96.8,3250],[96.8,3332],[96.8,3415],[96.8,3500],[96.8,3582],[96.8,3665],[96.8,3750],[96.8,3832],[96.8,3915],[96.8,4000],[96.8,4082],[96.8,4165],[96.8,4250],[96.8,4333],[96.8,4416],[96.8,4500],[96.8,4582],[96.8,4666],[96.8,4750],[96.8,4832],[96.8,4916],[96.8,5000],[96.8,5082],[96.8,5166],[96.8,5250],[96.8,5332],[96.8,5415],[96.8,5500],[96.8,5582],[96.8,5665],[96.8,5750],[96.8,5832],[96.8,5915],[96.8,5998],[96.8,6083],[96.8,6165],[96.8,6250],[96.8,6332],[96.8,6416],[96.8,6500],[96.8,6582],[96.8,6666],[96.8,6750],[96.8,6832],[96.8,6915],[96.8,7000],[96.8,7082],[96.8,7165],[96.8,7250],[96.8,7332],[96.8,7416],[96.8,7500],[96.8,7582],[96.8,7666],[96.8,7750],[96.8,7832],[96.8,7916],[96.8,8000],[96.8,8082],[96.8,8165],[96.8,8250],[96.8,8332],[97,8415],[97.3,8498],[97.5,8582],[97.6,8665],[97.8,8748],[97.8,8832],[97.8,8916],[97.8,9000],[97.8,9082],[97.8,9166],[97.8,9250],[97.8,9333],[97.8,9416],[97.8,9498],[97.8,9583],[97.8,9666],[97.6,9750],[97.6,9832],[97.6,9915],[97.6,10000],[97.6,10082],[97.6,10165],[97.6,10250],[97.6,10332],[97.6,10415],[97.6,10500],[97.6,10582],[97.6,10665],[97.6,10750],[97.6,10832],[97.6,10916],[97.6,11000],[97.6,11082],[97.6,11166],[97.6,11250],[97.6,11332],[97.6,11415],[97.6,11500],[97.6,11582],[97.6,11665],[97.6,11750],[97.6,11832],[97.6,11916],[97.6,11998],[97.6,12083],[97.6,12166],[97.6,12250],[97.6,12332],[97.8,12416],[97.8,12500],[97.8,12582],[97.8,12666],[97.9,12750],[97.9,12832],[97.9,12915],[97.9,12998],[97.9,13082],[97.9,13165],[97.9,13248]]",833.098,837.148,97.375,3.691,"[{""rating"":95.75,""responseTime"":2.951999999999998},{""rating"":97.375,""responseTime"":3.691000000000031}]",space,3.518,,837.149,Not at all,0,837.151,,,[],,0,10,10,10,1,audio/Narrative8Situation1.wav,audio/Narrative7Situation1.wav,audio/Narrative6Situation1.wav,audio/Narrative5Situation1.wav,5,2,2,5,,,,,,,,,,,,,,,,,,,,,,,,,,,,,,,,,,,,,,,
,,,,,67439be8ee2236a7c078d523,2025-07-07_18h58.35.585,group3.4_multiperson,2023.2.2,Win32,59.95203837,686c2ebf0248f13bef9af11f,686c7b025230fe7fa3c2067a,,,,,,,,,,,,,,,,,,,,,,,,,,,,,837.151,2,audio/Narrative5Situation2.wav,840.165,,840.165,869.631,"[[999,0],[999,82],[999,165],[999,250],[999,332],[999,415],[999,499],[999,582],[999,665],[999,749],[999,832],[51,917],[50.9,999],[50.9,1081],[51,1167],[51,1249],[51.1,1332],[51.5,1415],[52.4,1500],[53.5,1582],[53.9,1667],[54.9,1750],[55.4,1832],[55.4,1917],[55.4,2000],[55.4,2082],[55.4,2165],[55.4,2249],[57.8,2332],[61.6,2415],[65.4,2499],[67.6,2582],[70.1,2665],[72.6,2749],[75.1,2832],[77.8,2917],[79.3,3000],[79.8,3082],[79.8,3165],[79.8,3250],[79.6,3332],[79.6,3415],[78.6,3500],[69.8,3582],[62.1,3665],[61.4,3750],[61.4,3832],[62.9,3915],[71.6,3999],[82.8,4082],[87.1,4167],[87.5,4250],[87.5,4331],[87.5,4417],[87.5,4500],[87.5,4581],[87.5,4665],[87.5,4750],[87.5,4832],[87.5,4915],[87.5,5000],[87.5,5082],[87.6,5165],[87.6,5249],[87.6,5331],[87.6,5417],[87.6,5499],[87.6,5581],[87.6,5665],[89,5749],[89.8,5831],[89.8,5915],[90.1,6000],[90.4,6081],[90.5,6167],[90.6,6250],[91.1,6332],[91.6,6415],[92.1,6500],[92.1,6582],[92.3,6665],[92.5,6749],[92.5,6832],[92.5,6915],[92.5,6999],[92.9,7082],[93.6,7167],[94,7250],[94.4,7332],[94.6,7415],[94.6,7499],[94.6,7581],[94.6,7665],[94.6,7750],[94.6,7832],[94.6,7915],[95.5,7999],[96,8082],[96,8165],[96,8249],[96,8332],[96,8415],[96,8499],[96,8582],[96,8665],[96,8750],[96,8832],[96,8915],[96,8999],[96,9082],[96,9165],[96,9250],[96,9332],[96,9415],[96,9500],[96,9582],[96,9665],[96,9749],[96,9831],[96,9915],[96,9999],[96,10082],[96.3,10165],[96.3,10249],[96.3,10331],[96.3,10415],[96.3,10499],[96.3,10581],[96.3,10665],[96.3,10750],[96.4,10832],[96.6,10915],[96.8,11000],[97.1,11082],[97.3,11165],[97.3,11249],[97.3,11332],[97.3,11415],[97.3,11499],[97.3,11582],[97.3,11665],[97.3,11749],[97.3,11831],[97.3,11915],[97.3,12000],[97.3,12082],[97.3,12165],[97.3,12250],[97.3,12332],[97.3,12415],[97.3,12500],[97.3,12582],[97.3,12665],[97.3,12749],[97.3,12832],[97.3,12915],[97.3,12999],[97.3,13081],[97.3,13165],[97.3,13249],[97.3,13331],[97.3,13417],[97.3,13499],[97.3,13582],[97.3,13665],[97.3,13750],[97.3,13832],[97.3,13915],[97.3,13999],[97.3,14082],[97.3,14165],[97.3,14250],[97.3,14332],[97.3,14415],[97.3,14500],[97.3,14582],[97.3,14665],[97.3,14749],[97.3,14832],[97.3,14915],[97.3,14999],[97.3,15082],[97.3,15165],[97.3,15249],[97.3,15331],[97.3,15415],[97.3,15500],[97.3,15582],[97.3,15665],[97.3,15750],[97.3,15832],[97.3,15915],[97.3,15999],[97.3,16082],[97.3,16165],[97.3,16249],[97.3,16332],[97.3,16415],[97.3,16499],[97.3,16581],[97.3,16667],[97.5,16750],[97.5,16832],[97.5,16915],[97.5,17000],[97.5,17082],[97.5,17165],[97.6,17250],[97.8,17332],[97.8,17415],[97.8,17499],[97.8,17582],[97.8,17665],[97.8,17749],[97.8,17831],[97.8,17915],[97.8,18000],[97.8,18082],[97.8,18165],[97.8,18250],[97.8,18331],[97.8,18415],[97.8,18499],[97.8,18581],[97.8,18665],[97.8,18750],[97.8,18832],[97.8,18915],[97.8,18999],[97.8,19082],[97.8,19165],[97.8,19249],[97.8,19332],[97.8,19415],[97.8,19499],[97.8,19581],[97.8,19665],[97.8,19749],[97.8,19832],[97.8,19915],[97.8,20000],[97.8,20081],[97.8,20167],[97.8,20250],[97.8,20332],[97.8,20415],[97.8,20499],[97.8,20582],[97.8,20665],[97.8,20749],[97.8,20831],[97.8,20917],[97.8,20999],[97.8,21081],[97.8,21165],[97.8,21249],[97.8,21332],[97.8,21415],[97.8,21500],[97.8,21582],[97.8,21665],[97.8,21749],[97.8,21832],[97.8,21915],[97.8,21999],[97.8,22082],[97.8,22165],[97.8,22249],[97.8,22331],[97.8,22415],[97.8,22499],[97.8,22582],[97.8,22665],[97.8,22749],[97.8,22831],[97.8,22915],[97.8,22999],[97.8,23081],[97.8,23165],[97.8,23249],[97.8,23332],[97.8,23415],[97.8,23500],[97.8,23582],[97.8,23665],[97.8,23749],[97.8,23832],[97.8,23915],[97.8,23999],[98.1,24083],[98.4,24165],[98.4,24249],[98.4,24331],[98.4,24415],[98.3,24500],[98.3,24582],[98.3,24665],[98.3,24749],[98.3,24832],[98.3,24915],[98.3,25000],[98.3,25082],[98.3,25165],[98.3,25249],[98.3,25332],[98.3,25415],[98.3,25499],[98.3,25581],[98.3,25665],[98.1,25750],[98.1,25831],[98.1,25915],[98.1,26000],[98.1,26082],[98,26165],[98,26249],[98,26332],[98,26415],[98,26499],[98,26582],[97.9,26665],[97.9,26749],[97.9,26832],[97.9,26915],[97.9,27000],[97.9,27082],[97.9,27165],[97.9,27249],[97.9,27331],[97.9,27415],[97.9,27499],[97.9,27582],[97.9,27665],[97.9,27749],[97.9,27832],[97.9,27917],[97.9,28000],[97.9,28082],[97.9,28165],[97.9,28249],[97.9,28332],[97.9,28415],[97.9,28499],[97.9,28582],[97.9,28665],[97.9,28749],[97.9,28832],[97.9,28915],[97.9,28999],[97.9,29082],[97.9,29165],[97.9,29250],[97.9,29332],[97.9,29415]]",869.632,873.398,98.125,3.47,"[{""rating"":98.125,""responseTime"":3.4700000000000273}]",space,3.218,,873.398,Partially,50,873.404,,,[],,0,11,11,11,1,audio/Narrative8Situation2.wav,audio/Narrative7Situation2.wav,audio/Narrative6Situation2.wav,audio/Narrative5Situation2.wav,3,3,3,3,,,,,,,,,,,,,,,,,,,,,,,,,,,,,,,,,,,,,,,
,,,,,67439be8ee2236a7c078d523,2025-07-07_18h58.35.585,group3.4_multiperson,2023.2.2,Win32,59.95203837,686c2ebf0248f13bef9af11f,686c7b025230fe7fa3c2067a,,,,,,,,,,,,,,,,,,,,,,,,,,,,,873.404,2,audio/Narrative5Situation3.wav,876.414,,876.414,890.331,"[[999,0],[999,83],[999,166],[999,250],[999,333],[999,418],[999,500],[999,583],[999,666],[999,750],[999,833],[999,916],[999,1000],[999,1083],[999,1166],[999,1250],[49,1333],[50.3,1416],[58.1,1500],[74.1,1582],[83.8,1666],[86.8,1750],[92.3,1833],[93.1,1916],[94.3,2000],[94.5,2083],[94.5,2168],[95.6,2250],[96,2333],[96.1,2416],[96.1,2500],[96.1,2583],[96.1,2666],[96.1,2750],[96.1,2832],[96.1,2916],[96.1,3000],[96.1,3082],[96.1,3166],[96.1,3250],[96.5,3333],[96.8,3416],[96.9,3500],[96.9,3583],[96.9,3666],[96.9,3750],[96.9,3833],[96.9,3916],[96.9,4000],[96.9,4083],[96.9,4166],[96.9,4250],[97.1,4333],[97.3,4416],[97.5,4500],[97.5,4583],[97.6,4666],[97.8,4750],[97.8,4832],[97.8,4918],[97.8,5000],[97.8,5083],[97.8,5166],[97.8,5250],[97.8,5333],[97.8,5416],[97.8,5500],[97.8,5583],[97.8,5666],[97.8,5750],[97.8,5833],[97.8,5916],[97.8,6000],[97.8,6083],[97.8,6166],[97.8,6250],[97.8,6332],[97.8,6418],[97.8,6500],[97.8,6583],[97.8,6666],[97.6,6750],[97.6,6833],[97.6,6916],[97.6,7000],[97.6,7083],[97.6,7166],[97.6,7250],[97.6,7333],[97.6,7416],[97.6,7500],[97.6,7583],[97.6,7666],[97.6,7750],[97.5,7832],[97.5,7916],[97.5,8000],[97.4,8082],[97.4,8166],[97.3,8250],[97.3,8332],[97.3,8416],[97.3,8500],[97.3,8583],[97.5,8666],[97.6,8750],[97.8,8833],[97.9,8916],[97.9,9000],[97.9,9083],[97.9,9166],[97.9,9250],[97.9,9332],[97.9,9416],[97.9,9500],[97.9,9583],[97.9,9665],[97.9,9750],[97.9,9833],[97.9,9916],[97.8,10000],[97.8,10083],[97.8,10166],[97.8,10250],[97.6,10333],[97.6,10416],[97.6,10500],[97.6,10582],[97.6,10668],[97.6,10750],[97.6,10832],[97.6,10918],[97.6,11000],[97.6,11083],[97.6,11166],[97.6,11250],[97.6,11333],[97.5,11416],[97.5,11500],[97.5,11583],[97.5,11666],[97.5,11750],[97.5,11833],[97.5,11916],[97.5,12000],[97.5,12083],[97.5,12166],[97.5,12250],[97.5,12333],[97.5,12416],[97.5,12500],[97.5,12582],[97.5,12666],[97.5,12750],[97.5,12832],[97.5,12916],[97.5,13000],[97.5,13083],[97.5,13166],[97.5,13250],[97.5,13333],[97.5,13416],[97.5,13500],[97.5,13582],[97.5,13666],[97.5,13750],[97.5,13833],[97.6,13916]]",890.332,892.681,98.5,2.108,"[{""rating"":98.5,""responseTime"":2.1079999999999472}]",space,1.801,,892.682,Not at all,0,892.684,,,[],,0,12,12,12,1,audio/Narrative8Situation3.wav,audio/Narrative7Situation3.wav,audio/Narrative6Situation3.wav,audio/Narrative5Situation3.wav,4,8,5,3,,,,,,,,,,,,,,,,,,,,,,,,,,,,,,,,,,,,,,,
,,,,,67439be8ee2236a7c078d523,2025-07-07_18h58.35.585,group3.4_multiperson,2023.2.2,Win32,59.95203837,686c2ebf0248f13bef9af11f,686c7b025230fe7fa3c2067a,,,,,,,,,,,,,,,,,,,,,,,,,,,,,892.685,2,audio/Narrative5Situation4.wav,893.698,,893.698,914.098,"[[93.1,1000],[93.5,1082],[93.9,1165],[94.5,1249],[95.1,1332],[95.1,1415],[95.1,1499],[95.5,1582],[96.4,1667],[97.1,1749],[97.1,1833],[97.1,1917],[97.1,2000],[97.1,2082],[97.1,2165],[97.1,2250],[97.1,2332],[97.1,2415],[97.1,2500],[97.1,2582],[97.1,2667],[97.1,2750],[97.1,2832],[97.1,2915],[97.1,3000],[97.1,3082],[97.1,3165],[97.1,3250],[97.1,3332],[97.1,3415],[97,3499],[96.9,3582],[96.6,3667],[94.6,3750],[94,3832],[93.8,3915],[93.4,4000],[92.8,4082],[91.4,4167],[87.1,4250],[77.4,4332],[64.5,4415],[55,4500],[47.6,4582],[40.3,4665],[38,4750],[36.4,4833],[30.1,4917],[22.7,5000],[18.5,5082],[15,5167],[13,5250],[10.9,5332],[10.3,5417],[10.3,5500],[10.3,5582],[10.3,5665],[10.3,5750],[10.3,5832],[10.3,5915],[10.3,5999],[10.3,6082],[10.3,6165],[10.3,6249],[10.3,6333],[10.3,6417],[10.3,6500],[10.3,6582],[10.3,6667],[10.3,6750],[10.3,6832],[10.3,6917],[10.4,7000],[10.4,7082],[10.4,7165],[10.4,7250],[10.4,7332],[10.4,7417],[10.5,7500],[10.5,7582],[10.5,7665],[10.5,7750],[9.9,7832],[9.1,7917],[8.9,8000],[7.5,8082],[6.5,8167],[6.5,8249],[6.5,8331],[6.5,8417],[6.5,8500],[6.5,8582],[6.5,8667],[6.5,8750],[6.5,8832],[6.5,8915],[8.3,8999],[16.6,9082],[22.2,9165],[27.9,9249],[37.3,9332],[49,9417],[66,9500],[84.8,9583],[92,9667],[92.5,9750],[95.1,9832],[95.3,9915],[95.3,10000],[95.3,10082],[95.3,10165],[95.3,10250],[95.3,10332],[95.3,10415],[95.5,10500],[98.6,10583],[98.6,10665],[98.6,10749],[98,10832],[97,10915],[96.9,11000],[96.9,11082],[96.9,11165],[97.1,11250],[97.5,11332],[97.6,11415],[97.6,11500],[97.6,11582],[97.6,11667],[97.6,11750],[97.6,11832],[97.6,11917],[97.6,12000],[97.6,12082],[97.6,12165],[97.6,12250],[97.6,12332],[97.6,12415],[97.6,12499],[97.6,12582],[97.6,12665],[97.8,12750],[98,12832],[98.1,12915],[98.1,13000],[98.1,13082],[98.1,13167],[98.1,13250],[98.1,13332],[98.1,13415],[98.1,13500],[98.1,13582],[98.1,13665],[98.1,13749],[98.1,13832],[98.1,13915],[98.1,13999],[98.1,14082],[98.1,14165],[98.1,14249],[98.1,14332],[98.1,14417],[98.1,14500],[98.1,14582],[98.1,14665],[98.1,14750],[98.1,14832],[98.1,14915],[98.1,15000],[98.1,15082],[98.1,15167],[98.1,15250],[98.1,15332],[98.1,15415],[98.1,15499],[98.1,15582],[98.1,15665],[98.1,15749],[98.3,15832],[98.4,15915],[98.4,15999],[98.5,16082],[98.5,16167],[98.5,16250],[98.5,16332],[98.4,16415],[98.3,16500],[98.1,16582],[98,16665],[98,16750],[98,16832],[98,16915],[98,16999],[98,17082],[98,17165],[98,17249],[98,17332],[98,17417],[98,17500],[98,17582],[98,17665],[98,17750],[98,17832],[98,17915],[98,18000],[98,18082],[98,18165],[98,18250],[98.1,18332],[98.1,18415],[98.1,18499],[98.1,18582],[98.1,18665],[98.1,18749],[98.1,18832],[98.1,18917],[98.1,19000],[98.1,19082],[98.1,19167],[98.1,19250],[98.1,19332],[98.1,19417],[98.1,19500],[98.1,19582],[98.1,19667],[98.1,19750],[98.1,19832],[98.1,19915],[98.1,20000],[98.1,20082],[98.1,20165],[98.1,20249],[98.1,20332]]",914.098,917.581,82.875,3.255,"[{""rating"":79.75,""responseTime"":2.3180000000000973},{""rating"":82.875,""responseTime"":3.2549999999999955}]",space,2.946,,917.581,Definitely yes,100,917.587,,,[],,0,13,13,13,1,audio/Narrative8Situation4.wav,audio/Narrative7Situation4.wav,audio/Narrative6Situation4.wav,audio/Narrative5Situation4.wav,3,3,2,1,,,,,,,,,,,,,,,,,,,,,,,,,,,,,,,,,,,,,,,
