consent.started,consent.stopped,consentResponse.keys,consentResponse.rt,consentResponse.duration,participantID,date,expName,psychopyVersion,OS,frameRate,STUDY_ID,SESSION_ID,opening1.started,opening1.stopped,keyEndingOpening1.keys,keyEndingOpening1.rt,keyEndingOpening1.duration,volumeAdjust.started,volumeAdjust.stopped,endingAdjust.keys,endingAdjust.rt,endingAdjust.duration,opening2.started,opening2.stopped,keyEndingOpening.keys,keyEndingOpening.rt,keyEndingOpening.duration,mouse.x,mouse.y,mouse.leftButton,mouse.midButton,mouse.rightButton,mouse.time,instructionLoop.thisRepN,instructionLoop.thisTrialN,instructionLoop.thisN,instructionLoop.thisIndex,instructionLoop.ran,readyForAudio.started,readyForAudio.stopped,fixation.started,run,audio_played,fixation.stopped,endPractice.keys,audioPre.started,audioPre.stopped,continuousResponses_audio,intRating.started,intRating.stopped,intQuestionSlider.response,intQuestionSlider.rt,intQuestionSlider.history,confirmResponse.keys,confirmResponse.rt,confirmResponse.duration,catchQuestion.started,catch_label,catch_value,catchQuestion.stopped,catchQuestionSlider.response,catchQuestionSlider.rt,catchQuestionSlider.history,confirmResponse_2.keys,audioRunLoop.thisRepN,audioRunLoop.thisTrialN,audioRunLoop.thisN,audioRunLoop.thisIndex,audioRunLoop.ran,conditions1_1,conditions2_1,conditions1_2,conditions2_2,dur1_1,dur2_1,dur1_2,dur2_2,endPractice.rt,endPractice.duration,confirmResponse_2.rt,confirmResponse_2.duration,runIntervalBreak.started,runIntervalBreak.stopped,endingBreakKey.keys,endingBreakKey.rt,endingBreakKey.duration,connection.started,connection.stopped,connectionEnding.keys,connectionEnding.rt,connectionEnding.duration,readyForText.started,readyForText.stopped,textPre.started,run_dup,textPre.stopped,continuousResponses_text,textRunLoop.thisRepN,textRunLoop.thisTrialN,textRunLoop.thisN,textRunLoop.thisIndex,textRunLoop.ran,text1_1,text1_2,text2_1,text2_2,runBreakText.started,runBreakText.stopped,endingBreakKey_2.keys,endingBreakKey_2.rt,endingBreakKey_2.duration,ending.started,ending.stopped,endingEnding.keys,endingEnding.rt,endingEnding.duration
0.0028,4.4326,y,4.0636,,6745731e75a88802a56be3ef,2025-07-07_22h50.03.609,group3.4_multiperson,2023.2.2,Linux x86_64,30.03003003,686c2ebf0248f13bef9af11f,686c84da4c2c8f51612b7ff5,,,,,,,,,,,,,,,,,,,,,,,,,,,,,,,,,,,,,,,,,,,,,,,,,,,,,,,,,,,,,,,,,,,,,,,,,,,,,,,,,,,,,,,,,,,,,,,,,,,,,,,,
,,,,,6745731e75a88802a56be3ef,2025-07-07_22h50.03.609,group3.4_multiperson,2023.2.2,Linux x86_64,30.03003003,686c2ebf0248f13bef9af11f,686c84da4c2c8f51612b7ff5,4.4331,6.7667,space,2.2746,,,,,,,,,,,,,,,,,,,,,,,,,,,,,,,,,,,,,,,,,,,,,,,,,,,,,,,,,,,,,,,,,,,,,,,,,,,,,,,,,,,,,,,,,,,,,,,,,,,,
,,,,,6745731e75a88802a56be3ef,2025-07-07_22h50.03.609,group3.4_multiperson,2023.2.2,Linux x86_64,30.03003003,686c2ebf0248f13bef9af11f,686c84da4c2c8f51612b7ff5,,,,,,6.7687,21.9271,space,14.7918,,,,,,,,,,,,,,,,,,,,,,,,,,,,,,,,,,,,,,,,,,,,,,,,,,,,,,,,,,,,,,,,,,,,,,,,,,,,,,,,,,,,,,,,,,,,,,,
,,,,,6745731e75a88802a56be3ef,2025-07-07_22h50.03.609,group3.4_multiperson,2023.2.2,Linux x86_64,30.03003003,686c2ebf0248f13bef9af11f,686c84da4c2c8f51612b7ff5,,,,,,,,,,,21.9443,34.3558,space,12.3602,,[],[],[],[],[],[],0,0,0,0,1,,,,,,,,,,,,,,,,,,,,,,,,,,,,,,,,,,,,,,,,,,,,,,,,,,,,,,,,,,,,,,,,,,,,,,,,,,,,,,
,,,,,6745731e75a88802a56be3ef,2025-07-07_22h50.03.609,group3.4_multiperson,2023.2.2,Linux x86_64,30.03003003,686c2ebf0248f13bef9af11f,686c84da4c2c8f51612b7ff5,,,,,,,,,,,34.3571,40.521,space,5.9755,,[],[],[],[],[],[],1,0,1,0,1,,,,,,,,,,,,,,,,,,,,,,,,,,,,,,,,,,,,,,,,,,,,,,,,,,,,,,,,,,,,,,,,,,,,,,,,,,,,,,
,,,,,6745731e75a88802a56be3ef,2025-07-07_22h50.03.609,group3.4_multiperson,2023.2.2,Linux x86_64,30.03003003,686c2ebf0248f13bef9af11f,686c84da4c2c8f51612b7ff5,,,,,,,,,,,40.5229,41.0857,space,0.4695,,[],[],[],[],[],[],2,0,2,0,1,,,,,,,,,,,,,,,,,,,,,,,,,,,,,,,,,,,,,,,,,,,,,,,,,,,,,,,,,,,,,,,,,,,,,,,,,,,,,,
,,,,,6745731e75a88802a56be3ef,2025-07-07_22h50.03.609,group3.4_multiperson,2023.2.2,Linux x86_64,30.03003003,686c2ebf0248f13bef9af11f,686c84da4c2c8f51612b7ff5,,,,,,,,,,,41.0863,41.6537,space,0.519,,[],[],[],[],[],[],3,0,3,0,1,,,,,,,,,,,,,,,,,,,,,,,,,,,,,,,,,,,,,,,,,,,,,,,,,,,,,,,,,,,,,,,,,,,,,,,,,,,,,,
,,,,,6745731e75a88802a56be3ef,2025-07-07_22h50.03.609,group3.4_multiperson,2023.2.2,Linux x86_64,30.03003003,686c2ebf0248f13bef9af11f,686c84da4c2c8f51612b7ff5,,,,,,,,,,,41.655,42.9185,space,1.2081,,[],[],[],[],[],[],4,0,4,0,1,,,,,,,,,,,,,,,,,,,,,,,,,,,,,,,,,,,,,,,,,,,,,,,,,,,,,,,,,,,,,,,,,,,,,,,,,,,,,,
,,,,,6745731e75a88802a56be3ef,2025-07-07_22h50.03.609,group3.4_multiperson,2023.2.2,Linux x86_64,30.03003003,686c2ebf0248f13bef9af11f,686c84da4c2c8f51612b7ff5,,,,,,,,,,,42.9192,43.3522,space,0.3927,,[],[],[],[],[],[],5,0,5,0,1,,,,,,,,,,,,,,,,,,,,,,,,,,,,,,,,,,,,,,,,,,,,,,,,,,,,,,,,,,,,,,,,,,,,,,,,,,,,,,
,,,,,6745731e75a88802a56be3ef,2025-07-07_22h50.03.609,group3.4_multiperson,2023.2.2,Linux x86_64,30.03003003,686c2ebf0248f13bef9af11f,686c84da4c2c8f51612b7ff5,,,,,,,,,,,,,,,,,,,,,,,,,,,43.3613,45.9183,45.9847,1,audio/Narrative13Situation2.wav,48.0213,,48.0231,77.8069,"[[97.6,5627],[99.6,5692],[100,5758],[100,5825],[100,5894],[100,5958],[100,6025],[100,6093],[100,6159],[100,6224],[100,6292],[100,6358],[100,6425],[100,6491],[100,6558],[100,6624],[100,6691],[100,6757],[100,6824],[100,6890],[100,6959],[100,7026],[100,7091],[100,7157],[100,7225],[100,7291],[100,7357],[100,7423],[100,7491],[100,7557],[100,7624],[100,7690],[100,7758],[100,7823],[100,7890],[100,7957],[100,8024],[100,8091],[100,8157],[100,8224],[100,8291],[100,8358],[100,8424],[100,8491],[100,8558],[100,8624],[100,8690],[100,8757],[100,8823],[100,8891],[100,8956],[100,9023],[100,9091],[100,9158],[100,9224],[98.7,9625],[97.6,9690],[97.1,9757],[92.5,9823],[90.6,9890],[90.3,9958],[90.2,10024],[92.6,10090],[95.1,10157],[96.4,10223],[96.8,10291],[96.9,10356],[97.3,10424],[98.6,10490],[98.8,10557],[99,10623],[99.2,10691],[99.4,10758],[99.6,10823],[99.6,10889],[99.6,10956],[99.6,11023],[99.6,11089],[99.6,11156],[99.6,11222],[99.6,11290],[99.6,11356],[99.6,11423],[99.6,11490],[99.6,11556],[99.6,11623],[99.6,11689],[99.6,11755],[99.6,11823],[99.6,11889],[99.6,11955],[99.6,12022],[99.6,12089],[99.6,12156],[99.6,12222],[99.6,12289],[99.6,12356],[99.6,12422],[99.6,12489],[99.6,12555],[99.6,12623],[99.6,12689],[99.6,12757],[99.6,12825],[99.6,12890],[99.6,12955],[99.6,13022],[99.6,13089],[99.6,13156],[99.6,13222],[99.6,13289],[99.6,13356],[99.6,13423],[99.6,13488],[99.6,13555],[99.6,13622],[99.6,13690],[99.6,13755],[99.6,13821],[99.6,13888],[99.6,13955],[99.6,14021],[99.6,14088],[99.6,14155],[99.6,14223],[99.6,14289],[99.6,14355],[99.6,14421],[99.6,14488],[99.6,14554],[99.6,14621],[99.6,14688],[99.6,14755],[99.6,14821],[99.6,14889],[99.6,14955],[99.6,15023],[99.6,15094],[99.6,15154],[99.6,15221],[99.6,15288],[99.6,15355],[99.6,15421],[99.6,15487],[99.6,15554],[99.6,15620],[99.6,15688],[99.6,15754],[99.6,15821],[99.6,15887],[99.6,15954],[99.6,16021],[99.6,16087],[99.6,16154],[99.6,16221],[99.6,16288],[99.6,16355],[99.6,16421],[99.6,16488],[99.6,16554],[99.6,16621],[99.6,16687],[99.6,16754],[99.6,16820],[99.6,16887],[99.6,16954],[99.6,17020],[99.6,17087],[99.6,17156],[99.6,17220],[99.6,17287],[99.6,17354],[99.6,17420],[99.6,17487],[99.6,17554],[99.6,17620],[99.6,17687],[99.6,17754],[99.6,17820],[99.6,17887],[99.6,17954],[99.6,18020],[99.6,18087],[99.6,18154],[99.6,18220],[99.6,18286],[99.6,18355],[99.6,18420],[99.6,18487],[99.6,18554],[99.6,18620],[99.6,18687],[99.6,18753],[99.6,18820],[99.6,18887],[99.6,18953],[99.6,19020],[99.6,19087],[99.6,19153],[99.6,19220],[99.6,19286],[99.6,19353],[99.6,19420],[99.6,19486],[99.6,19552],[99.6,19621],[99.6,19687],[99.6,19753],[99.6,19821],[99.6,19886],[99.6,19953],[99.6,20020],[99.6,20087],[99.6,20153],[99.6,20220],[99.6,20286],[99.6,20353],[99.6,20420],[99.6,20486],[99.6,20553],[99.6,20620],[99.6,20687],[99.6,20753],[99.6,20821],[99.6,20886],[99.6,20953],[99.6,21020],[99.6,21086],[99.6,21152],[99.6,21220],[99.6,21286],[99.6,21353],[99.6,21419],[99.6,21486],[99.6,21552],[99.6,21619],[99.6,21685],[99.6,21752],[99.6,21819],[99.6,21885],[99.6,21952],[99.6,22020],[99.6,22085],[99.6,22152],[99.6,22219],[99.6,22287],[99.6,22352],[99.6,22420],[99.6,22487],[99.6,22553],[99.6,22618],[99.6,22687],[99.6,22752],[99.6,22819],[99.6,22885],[99.6,22957],[99.6,23018],[99.6,23087],[99.6,23152],[99.6,23220],[99.6,23285],[99.6,23352],[99.6,23418],[99.6,23487],[99.6,23552],[99.6,23618],[99.6,23685],[99.6,23751],[99.6,23818],[99.6,23885],[99.6,23952],[99.6,24018],[99.6,24085],[99.6,24151],[99.6,24218],[99.6,24285],[99.6,24352],[99.6,24418],[99.6,24484],[99.6,24554],[99.6,24617],[99.6,24684],[99.6,24751],[99.6,24817],[99.6,24884],[99.6,24951],[99.6,25018],[99.6,25087],[99.6,25151],[99.6,25218],[99.6,25285],[99.6,25351],[99.6,25418],[99.6,25485],[99.6,25551],[99.6,25617],[99.6,25684],[99.6,25751],[99.6,25818],[99.6,25884],[99.6,25952],[99.6,26018],[99.6,26084],[99.6,26150],[99.6,26218],[99.6,26284],[99.6,26352],[99.6,26418],[99.6,26486],[99.6,26550],[99.6,26618],[99.6,26684],[99.6,26752],[99.6,26817],[99.6,26884],[99.6,26951],[99.6,27021],[99.6,27084],[99.6,27150],[99.6,27217],[99.6,27284],[99.6,27350],[99.6,27418],[99.6,27483],[99.6,27550],[99.6,27617],[99.6,27683],[99.6,27750],[99.6,27817],[99.6,27883],[99.6,27950],[99.6,28017],[99.6,28084],[99.6,28150],[99.6,28216],[99.6,28283],[99.6,28350],[99.6,28416],[99.6,28483],[99.6,28550],[99.6,28617],[99.6,28683],[99.6,28750],[99.6,28817],[99.6,28884],[99.6,28949],[99.6,29016],[99.6,29083],[99.6,29151],[99.6,29217],[99.6,29283],[99.6,29350],[99.6,29417],[99.6,29485],[99.6,29550],[99.6,29616],[99.6,29682],[99.6,29749]]",77.8081,86.7377,98.53503716,6.5239,"[{""rating"":98.53503715599741,""responseTime"":6.523900000000367}]",space,8.3301,,86.7386,Partially,50,86.7532,,,[],,0,0,0,0,1,audio/Narrative13Situation2.wav,audio/Narrative13Situation2.wav,audio/Narrative13Situation2.wav,audio/Narrative13Situation2.wav,2,2,2,2,,,,,,,,,,,,,,,,,,,,,,,,,,,,,,,,,,,,,,,
,,,,,6745731e75a88802a56be3ef,2025-07-07_22h50.03.609,group3.4_multiperson,2023.2.2,Linux x86_64,30.03003003,686c2ebf0248f13bef9af11f,686c84da4c2c8f51612b7ff5,,,,,,,,,,,,,,,,,,,,,,,,,,,,,86.7541,1,audio/Narrative8Situation1.wav,88.1713,space,88.1715,104.1321,"[[999,4],[999,63],[999,131],[999,199],[999,264],[999,330],[999,397],[999,463],[999,530],[999,597],[999,664],[999,730],[999,798],[999,865],[100,1330],[100,1397],[100,1664],[100,1731],[100,1798],[100,1864],[100,1930],[100,1998],[100,2064],[100,2131],[100,2197],[100,2263],[100,2330],[100,2397],[100,2463],[100,2530],[100,2597],[100,2663],[100,2730],[100,2796]]",104.1326,114.6276,99.83579685,9.7093,"[{""rating"":99.83579685143837,""responseTime"":9.709299999998848}]",space,9.906,,114.6279,Definitely yes,100,114.6408,,,[],,0,1,1,1,1,audio/Narrative7Situation1.wav,audio/Narrative8Situation1.wav,audio/Narrative5Situation1.wav,audio/Narrative6Situation1.wav,2,5,5,2,1.3662,,,,,,,,,,,,,,,,,,,,,,,,,,,,,,,,,,,,,,
,,,,,6745731e75a88802a56be3ef,2025-07-07_22h50.03.609,group3.4_multiperson,2023.2.2,Linux x86_64,30.03003003,686c2ebf0248f13bef9af11f,686c84da4c2c8f51612b7ff5,,,,,,,,,,,,,,,,,,,,,,,,,,,,,114.6416,1,audio/Narrative8Situation2.wav,117.6593,,117.6595,127.7898,"[[999,1],[999,66],[999,133],[999,201],[999,266],[999,332],[999,402],[999,466],[999,532],[999,598],[999,666],[999,732],[999,799],[999,867],[999,933],[999,999],[999,1066],[999,1132],[999,1201],[999,1265],[999,1332],[999,1399],[999,1466],[999,1532],[999,1599],[999,1665],[999,1733],[999,1798],[999,1865],[999,1932],[999,2000],[999,2065],[999,2132],[999,2200],[999,2268],[999,2332],[999,2399],[999,2469],[999,2532],[999,2599],[999,2664],[999,2732],[999,2800],[999,2866],[999,2932],[999,2999],[999,3065],[999,3131],[94.6,3199],[93,3265],[93,3331],[93,3398],[93.5,3465],[97.9,3532],[100,3598],[100,3668],[100,3732],[100,3798],[100,3868],[100,3931],[100,3998],[100,4066],[100,4131],[100,4199],[100,4264],[100,4331],[100,4399],[100,4464],[100,4532],[100,4598],[100,4665],[100,4731],[100,4797],[100,4864],[100,4930],[100,4998],[100,5065],[100,5132],[100,5197],[100,5264],[100,5330],[100,5398],[100,5464],[100,5531],[100,5597],[100,5664],[100,5730],[100,5797],[100,5865],[100,5930],[100,5997],[100,6064],[100,6130],[100,6197],[100,6264],[100,6331],[100,6397],[100,6464],[100,6530],[100,6597],[100,6663],[100,6730],[100,6797],[100,6864],[100,6931],[100,6998],[100,7063],[100,7131],[100,7198],[100,7265],[100,7330],[100,7397],[100,7462],[100,7529],[100,7596],[100,7663],[100,7730],[100,7796],[100,7863],[100,7930],[100,7997],[100,8063],[100,8129],[100,8200],[100,8263],[100,8330],[100,8397],[100,8464],[100,8530],[100,8596],[100,8663],[100,8729],[100,8796],[100,8863],[100,8929],[100,8997],[100,9062],[100,9129],[100,9196],[100,9264],[100,9331],[100,9397],[100,9462],[100,9529],[100,9596],[100,9663],[100,9729],[100,9796],[100,9862],[100,9930],[100,9996],[100,10064]]",127.7904,138.1865,50.15426484,9.7123,"[{""rating"":98.0248990329431,""responseTime"":2.71440000000041},{""rating"":50.15426484018983,""responseTime"":9.712300000000823}]",space,9.8045,,138.1873,Partially,50,142.0175,50.27868995,3.2235,"[{""rating"":50.278689949969966,""responseTime"":3.2234999999999445}]",space,0,2,2,2,1,audio/Narrative7Situation2.wav,audio/Narrative8Situation2.wav,audio/Narrative5Situation2.wav,audio/Narrative6Situation2.wav,3,3,3,3,,,3.2394,,,,,,,,,,,,,,,,,,,,,,,,,,,,,,,,,,,,
,,,,,6745731e75a88802a56be3ef,2025-07-07_22h50.03.609,group3.4_multiperson,2023.2.2,Linux x86_64,30.03003003,686c2ebf0248f13bef9af11f,686c84da4c2c8f51612b7ff5,,,,,,,,,,,,,,,,,,,,,,,,,,,,,142.0185,1,audio/Narrative8Situation3.wav,146.0501,,146.0502,168.4755,"[[51.5,1066],[56.4,1132],[59.2,1199],[64.7,1265],[70.8,1332],[72.5,1399],[74.1,1465],[75.2,1535],[76,1598],[76,1664],[76,1731],[76,1798],[76,1865],[76,1931],[76,1998],[76,2064],[76,2131],[76,2197],[76,2264],[76,2331],[76,2398],[76,2464],[76,2531],[76,2597],[76,2665],[76,2731],[76,2798],[76,2864],[76,2931],[76,2997],[76,3064],[76,3131],[76,3198],[76,3264],[76,3331],[76,3400],[76,3463],[76,3530],[76,3597],[76,3664],[76,3731],[76,3797],[76,3865],[76,3930],[76,3997],[76,4064],[76,4130],[76,4197],[76,4263],[76,4330],[76,4397],[76,4464],[76,4530],[76,4596],[76,4663],[76,4730],[76,4797],[76,4863],[76,4930],[76,4997],[76,5065],[76,5130],[76,5197],[76,5263],[76,5330],[76,5396],[76,5463],[76,5530],[76,5598],[76,5663],[76,5730],[76,5796],[76,5863],[76,5930],[76,5996],[76,6064],[76,6129],[76,6197],[76,6264],[76,6330],[76,6396],[76,6463],[76,6530],[76,6596],[76,6663],[76,6730],[76,6796],[76,6863],[76,6929],[76,6996],[76,7063],[76,7130],[76,7196],[76,7264],[76,7329],[76,7396],[76,7462],[76,7530],[76,7596],[76,7662],[76,7729],[76,7797],[76,7863],[76,7929],[76,7996],[76,8062],[76,8129],[76,8196],[76,8262],[76,8329],[76,8395],[76,8462],[76,8529],[76,8596],[76,8662],[76,8731],[76,8795],[76,8862],[76,8929],[76,8996],[76,9062],[76,9129],[76,9195],[76,9261],[76,9329],[76,9396],[76,9461],[76,9528],[76,9595],[76,9662],[76,9729],[76,9795],[75.9,9862],[75.9,9928],[75.9,9995],[75.9,10061],[75.9,10128],[75.9,10195],[75.9,10261],[75.9,10328],[75.9,10395],[78.3,10463],[85,10528],[99.9,11268],[99.8,11331],[99.8,11395],[99.8,11462],[99.8,11529],[99.8,11595],[99.8,11662],[99.9,11733],[100,11799],[100,11862],[100,11929],[100,11995],[100,12063],[100,12128],[100,12197],[100,12263],[100,12327],[100,12394],[100,12461],[100,12527],[100,12594],[100,12660],[100,12727],[100,12793],[100,12860],[100,12927],[100,12993],[100,13060],[100,13127],[100,13194],[100,13260],[100,13327],[100,13393],[100,13460],[100,13527],[100,13593],[100,13660],[100,13726],[100,13793],[100,13861],[100,13926],[100,13993],[100,14060],[100,14126],[100,14193],[100,14268],[100,14326],[100,14393],[100,14461],[100,14527],[100,14593],[100,14660],[100,14726],[100,14793],[100,14860],[100,14928],[100,14994],[100,15061],[100,15126],[100,15193],[100,15260],[100,15326],[100,15393],[100,15459],[100,15526],[100,15593],[100,15659],[100,15726],[100,15794],[100,15860],[100,15926],[100,15995],[100,16059],[100,16126],[100,16193],[100,16260],[100,16327],[100,16393],[100,16460],[100,16526],[100,16594],[100,16661],[100,16726],[100,16794],[100,16860],[100,16926],[100,16992],[100,17060],[100,17127],[100,17193],[100,17259],[100,17326],[100,17393],[100,17459],[100,17526],[100,17593],[100,17660],[100,17726],[100,17792],[100,17859],[100,17925],[100,17995],[100,18059],[100,18125],[100,18192],[100,18260],[100,18325],[100,18392],[100,18459],[100,18526],[100,18592],[100,18659],[100,18725],[100,18792],[100,18858],[100,18925],[100,18991],[100,19058],[100,19125],[100,19192],[100,19259],[100,19325],[100,19392],[100,19458],[100,19525],[100,19592],[100,19658],[100,19725],[100,19791],[100,19858],[100,19925],[100,19991],[100,20059],[100,20127],[100,20191],[100,20258],[100,20325],[100,20392],[100,20458],[100,20526],[100,20591],[100,20657],[100,20724],[100,20791],[100,20858],[100,20924],[100,20991],[100,21058],[100,21125],[100,21191],[100,21257],[100,21324],[100,21391],[100,21458],[100,21524],[100,21591],[100,21657],[100,21724],[100,21791],[100,21859],[100,21924],[100,21991],[100,22058],[100,22124],[100,22191],[100,22257],[100,22324],[100,22390]]",168.4759,175.673,100,6.9638,"[{""rating"":100,""responseTime"":6.590300000000752},{""rating"":100,""responseTime"":6.963800000000788}]",space,6.6092,,175.6738,Partially,50,175.6836,,,[],,0,3,3,3,1,audio/Narrative7Situation3.wav,audio/Narrative8Situation3.wav,audio/Narrative5Situation3.wav,audio/Narrative6Situation3.wav,8,4,3,5,,,,,,,,,,,,,,,,,,,,,,,,,,,,,,,,,,,,,,,
,,,,,6745731e75a88802a56be3ef,2025-07-07_22h50.03.609,group3.4_multiperson,2023.2.2,Linux x86_64,30.03003003,686c2ebf0248f13bef9af11f,686c84da4c2c8f51612b7ff5,,,,,,,,,,,,,,,,,,,,,,,,,,,,,175.6844,1,audio/Narrative8Situation4.wav,178.7042,,178.7043,192.9338,[],192.9341,198.6309,57.61472717,4.7798,"[{""rating"":57.61472716579008,""responseTime"":4.779799999998886}]",space,5.0946,,198.631,Partially,50,198.6368,,,[],,0,4,4,4,1,audio/Narrative7Situation4.wav,audio/Narrative8Situation4.wav,audio/Narrative5Situation4.wav,audio/Narrative6Situation4.wav,3,3,1,2,,,,,,,,,,,,,,,,,,,,,,,,,,,,,,,,,,,,,,,
,,,,,6745731e75a88802a56be3ef,2025-07-07_22h50.03.609,group3.4_multiperson,2023.2.2,Linux x86_64,30.03003003,686c2ebf0248f13bef9af11f,686c84da4c2c8f51612b7ff5,,,,,,,,,,,,,,,,,,,,,,,,,,,,,198.6377,1,audio/Narrative8Situation5.wav,200.6637,,200.6641,208.9611,"[[92,5930],[100,6197],[94.7,6597],[98.7,6664],[99.5,6730],[99.5,6797],[99.5,6863],[99.5,6931],[99.5,6996],[99.5,7063],[99.5,7130],[99.5,7196],[99.5,7263],[99.5,7331],[99.5,7397],[99.5,7462],[99.5,7529],[99.5,7596],[99.5,7663],[99.5,7729],[99.5,7796],[99.5,7862],[99.5,7929],[99.5,7996],[99.5,8062],[99.5,8129],[99.5,8196],[99.5,8262]]",208.9615,215.5593,99.47370417,1.5609,"[{""rating"":99.47370417453523,""responseTime"":1.5609000000004016}]",space,5.9982,,215.56,Partially,50,215.5671,,,[],,0,5,5,5,1,audio/Narrative7Situation5.wav,audio/Narrative8Situation5.wav,audio/Narrative5Situation5.wav,audio/Narrative6Situation5.wav,5,2,5,2,,,,,,,,,,,,,,,,,,,,,,,,,,,,,,,,,,,,,,,
,,,,,6745731e75a88802a56be3ef,2025-07-07_22h50.03.609,group3.4_multiperson,2023.2.2,Linux x86_64,30.03003003,686c2ebf0248f13bef9af11f,686c84da4c2c8f51612b7ff5,,,,,,,,,,,,,,,,,,,,,,,,,,,,,215.5684,1,audio/Narrative8Situation6.wav,217.5912,,217.5913,224.1223,[],224.1227,227.5878,99.95481567,2.3912,"[{""rating"":99.9548156716949,""responseTime"":2.3911999999992304}]",space,2.8669,,227.5881,Partially,50,227.5968,,,[],,0,6,6,6,1,audio/Narrative7Situation6.wav,audio/Narrative8Situation6.wav,audio/Narrative5Situation6.wav,audio/Narrative6Situation6.wav,3,2,3,2,,,,,,,,,,,,,,,,,,,,,,,,,,,,,,,,,,,,,,,
,,,,,6745731e75a88802a56be3ef,2025-07-07_22h50.03.609,group3.4_multiperson,2023.2.2,Linux x86_64,30.03003003,686c2ebf0248f13bef9af11f,686c84da4c2c8f51612b7ff5,,,,,,,,,,,,,,,,,,,,,,,,,,,,,227.5977,1,audio/Narrative8Situation7.wav,230.6195,,230.6197,242.7487,"[[99.9,2000],[99.9,2065],[99.9,2133],[99.9,2198],[99.9,2266],[99.9,2331],[99.8,2399],[99.8,2466],[99.8,2531],[99.8,2598],[99.8,2665],[99.8,2731],[99.8,2798],[99.8,2864],[99.8,2932],[99.8,2998],[99.8,3065],[99.8,3133],[99.8,3198],[99.8,3265],[99.8,3334],[99.8,3398],[99.8,3464],[99.8,3532],[99.8,3598],[99.8,3664],[99.8,3731],[99.8,3798],[99.8,3864],[99.8,3931],[99.8,3998],[99.8,4064],[99.8,4131],[99.8,4198],[99.8,4265],[99.8,4331],[99.8,4397],[99.8,4465],[99.8,4531],[99.8,4597],[99.8,4664],[99.8,4731],[99.8,4798],[99.8,4864],[99.8,4931],[99.8,4997],[99.8,5064],[99.8,5130],[99.8,5197],[99.8,5264],[99.8,5331],[99.8,5399],[99.8,5465],[99.8,5531],[99.8,5600],[99.8,5664],[99.8,5730],[99.8,5801],[99.8,5864],[99.8,5931],[99.8,5997],[99.8,6064],[99.8,6130],[99.8,6197],[99.8,6264],[99.8,6330],[99.8,6397],[99.8,6464],[99.8,6530],[99.8,6597],[99.8,6664],[99.8,6730],[99.8,6797],[99.8,6864],[99.8,6930],[99.8,6997],[99.8,7063],[99.8,7132],[99.8,7196],[99.8,7263],[99.8,7330],[99.8,7397],[99.8,7463],[99.8,7529],[100,7599],[100,7664],[100,7731],[100,7798],[100,7866],[100,7931],[100,7997],[100,8064],[100,8130],[100,8197],[100,8263],[100,8330],[100,8397],[100,8464],[100,8530],[100,8597]]",242.7491,245.6813,99.51629479,1.4222,"[{""rating"":99.51629479468113,""responseTime"":1.4221999999992931}]",space,2.3346,,245.6815,Definitely yes,100,245.6933,,,[],,0,7,7,7,1,audio/Narrative7Situation7.wav,audio/Narrative8Situation7.wav,audio/Narrative5Situation7.wav,audio/Narrative6Situation7.wav,5,3,4,5,,,,,,,,,,,,,,,,,,,,,,,,,,,,,,,,,,,,,,,
,,,,,6745731e75a88802a56be3ef,2025-07-07_22h50.03.609,group3.4_multiperson,2023.2.2,Linux x86_64,30.03003003,686c2ebf0248f13bef9af11f,686c84da4c2c8f51612b7ff5,,,,,,,,,,,,,,,,,,,,,,,,,,,,,245.6942,1,audio/Narrative8Situation8.wav,248.7141,,248.7144,261.612,"[[999,3],[999,66],[999,132],[999,198],[999,265],[999,332],[999,398],[999,465],[999,532],[999,598],[999,664],[999,731],[999,798],[999,865],[999,932],[999,998],[999,1065],[999,1132],[999,1197],[999,1265],[999,1331],[999,1398],[999,1464],[999,1532],[999,1598],[999,1665],[999,1731],[999,1798],[999,1864],[999,1931],[999,1998],[999,2064],[999,2131],[999,2197],[999,2264],[999,2331],[999,2397],[999,2464],[999,2530],[999,2597],[999,2664],[999,2731],[999,2797],[999,2865],[999,2931],[999,2997],[999,3064],[999,3131],[999,3197],[999,3264],[999,3330],[999,3397],[999,3464],[999,3531],[999,3598],[999,3664],[999,3730],[999,3797],[999,3863],[999,3930],[999,3997],[999,4064],[999,4130],[999,4197],[999,4264],[999,4331],[999,4397],[999,4463],[999,4530],[999,4597],[999,4663],[999,4730],[999,4797],[999,4863],[999,4930],[999,4997],[999,5064],[999,5130],[999,5197],[999,5264],[999,5330],[999,5397],[999,5463],[999,5529],[999,5596],[999,5663],[999,5730],[999,5796],[999,5863],[999,5930],[999,5996],[999,6064],[999,6130],[999,6196],[999,6266],[999,6330],[999,6396],[999,6463],[999,6529],[999,6596],[999,6663],[999,6729],[999,6796],[999,6863],[999,6929],[999,6996],[999,7063],[999,7129],[999,7196],[999,7262],[999,7330],[999,7396],[999,7462],[999,7529],[999,7596],[999,7662],[999,7729],[999,7795],[999,7862],[999,7929],[999,7995],[999,8062],[999,8130],[999,8196],[999,8263],[999,8329],[999,8396],[999,8463],[999,8529],[999,8596],[999,8662],[999,8728],[999,8796],[999,8861],[999,8929],[999,8995],[999,9062],[999,9128],[999,9195],[999,9262],[999,9329],[999,9395],[999,9462],[999,9529],[999,9595],[999,9662],[999,9729],[999,9795],[999,9862],[999,9928],[999,9995],[999,10061],[999,10128],[999,10194],[999,10262],[999,10328],[999,10395],[999,10462],[999,10528],[999,10595],[999,10661],[999,10728],[999,10794],[999,10861],[999,10928],[999,10994],[999,11063],[999,11128],[999,11197],[999,11262],[999,11328],[999,11397],[999,11461],[999,11528],[999,11595],[999,11661],[999,11728],[999,11794],[999,11861],[999,11927],[999,11994],[999,12061],[999,12127],[999,12194],[999,12261],[999,12327],[999,12394],[999,12460],[999,12527],[999,12594],[999,12661],[999,12727],[999,12794],[999,12861]]",261.6124,266.2414,98.58700833,2.6195,"[{""rating"":98.58700833207266,""responseTime"":2.6194999999999027}]",space,4.033,,266.2416,Definitely yes,100,266.2479,,,[],,0,8,8,8,1,audio/Narrative7Situation8.wav,audio/Narrative8Situation8.wav,audio/Narrative5Situation8.wav,audio/Narrative6Situation8.wav,2,3,3,5,,,,,,,,,,,,,,,,,,,,,,,,,,,,,,,,,,,,,,,
,,,,,6745731e75a88802a56be3ef,2025-07-07_22h50.03.609,group3.4_multiperson,2023.2.2,Linux x86_64,30.03003003,686c2ebf0248f13bef9af11f,686c84da4c2c8f51612b7ff5,,,,,,,,,,,,,,,,,,,,,,,,,,,,,266.2488,1,audio/Narrative8Situation9.wav,269.2727,,269.2727,280.6357,"[[100,2332],[100,2400],[100,2467],[100,2532],[100,2600],[100,2666],[100,2731],[100,2798],[100,2865],[100,2931],[100,2998],[100,3065],[100,3131],[100,3198],[100,3265],[100,3332],[100,3399],[100,3465],[100,3532],[100,3598],[100,3664],[100,3731],[100,3798],[100,3866],[100,3932],[100,3998],[100,4069],[100,4131],[100,4198],[100,4264],[100,4331],[100,4398],[100,4465],[100,4530],[100,4598],[100,4664],[100,4731],[100,4797],[100,4864],[100,4931],[100,4997],[100,5064],[100,5131],[100,5198],[100,5264],[100,5331],[100,5397],[100,5465],[100,5531],[100,5597],[100,5664],[100,5731],[100,5797],[100,5864],[100,5931],[100,5997],[100,6064],[100,6131],[100,6197],[100,6264],[100,6330],[100,6399],[100,6464],[100,6532],[100,6597],[100,6664],[100,6730],[100,6797],[100,6863],[100,6931],[100,6997],[100,7064],[100,7130],[100,7198],[100,7264],[100,7331],[100,7397],[100,7464],[100,7530],[100,7598],[100,7664],[100,7731],[100,7797],[100,7863],[100,7930],[100,7997],[100,8064],[100,8130],[100,8196],[100,8264],[100,8330],[100,8396],[100,8463],[100,8530],[100,8601],[100,8663],[100,8730],[100,8798],[100,8863],[100,8930],[100,8996],[100,9063],[100,9129],[100,9196],[100,9263],[100,9330],[100,9396],[100,9463],[100,9529],[100,9597],[100,9663],[100,9730],[100,9795],[100,9862],[100,9929],[100,9996],[100,10062],[100,10129],[100,10196],[100,10264],[100,10329],[100,10396],[100,10462],[100,10529],[100,10596],[100,10662],[100,10729],[100,10795],[100,10865],[100,10929],[100,10996],[100,11064],[100,11129],[100,11196],[100,11262],[100,11329]]",280.6359,288.7332,99.31687351,1.6929,"[{""rating"":99.31687350790818,""responseTime"":1.6929000000003498}]",space,7.5048,,288.7332,Definitely yes,100,288.7407,,,[],,0,9,9,9,1,audio/Narrative7Situation9.wav,audio/Narrative8Situation9.wav,audio/Narrative5Situation9.wav,audio/Narrative6Situation9.wav,2,3,3,4,,,,,,,,,,,,,,,,,,,,,,,,,,,,,,,,,,,,,,,
,,,,,6745731e75a88802a56be3ef,2025-07-07_22h50.03.609,group3.4_multiperson,2023.2.2,Linux x86_64,30.03003003,686c2ebf0248f13bef9af11f,686c84da4c2c8f51612b7ff5,,,,,,,,,,,,,,,,,,,,,,,,,,,,,288.7416,1,audio/Narrative7Situation1.wav,290.7652,,290.7654,346.746,"[[100,10263],[93.5,11130],[93.5,11196],[93.8,11262],[94.4,11329],[95.1,11400],[95.7,11462],[96.9,11529],[97.7,11596],[98.5,11663],[99.1,11730],[99.7,11796],[99.9,11863],[99.9,11929],[99.9,11995],[99.9,12063],[99.9,12128],[99.9,12195],[99.9,12262],[99.9,12328],[99.9,12395],[99.9,12463],[99.9,12528],[99.9,12596],[99.9,12663],[99.9,12728],[99.9,12795],[99.9,12862],[99.9,12928],[99.9,12995],[99.9,13061],[99.9,13128],[99.9,13195],[99.9,13262],[99.9,13328],[99.9,13395],[99.9,13461],[99.9,13529],[99.9,13596],[99.9,13662],[99.9,13728],[99.9,13795],[99.9,13861],[99.9,13928],[99.9,13994],[99.9,14061],[99.9,14128],[99.9,14195],[99.9,14261],[99.9,14328],[99.9,14395],[99.9,14463],[99.9,14527],[99.9,14594],[99.9,14661],[99.9,14727],[99.9,14795],[99.9,14862],[99.9,14928],[99.9,14995],[99.9,15061],[99.9,15130],[99.9,15194],[99.9,15261],[99.9,15327],[99.9,15394],[99.9,15461],[99.9,15527],[99.9,15594],[99.9,15660],[99.9,15727],[99.9,15794],[99.8,15861],[99.7,15927],[99.7,15994],[99.7,16060],[99.7,16127],[99.6,16194],[99.6,16260],[99.6,16327],[99.6,16394],[99.6,16461],[99.6,16527],[99.6,16593],[99.6,16660],[99.6,16727],[99.6,16793],[99.6,16860],[99.6,16927],[99.6,16993],[99.6,17060],[99.6,17127],[99.6,17197],[99.6,17260],[99.6,17327],[99.6,17395],[99.6,17460],[99.6,17526],[99.6,17593],[99.6,17660],[99.6,17726],[99.6,17793],[99.6,17860],[99.6,17926],[99.6,17993],[99.6,18060],[99.6,18127],[99.6,18193],[99.6,18259],[99.6,18326],[99.6,18393],[99.6,18459],[99.6,18526],[99.6,18593],[99.6,18660],[99.6,18726],[99.6,18793],[99.6,18860],[99.6,18926],[99.6,18994],[99.6,19061],[99.6,19126],[99.6,19193],[99.6,19259],[99.6,19326],[99.6,19392],[99.6,19459],[99.6,19526],[99.6,19593],[99.6,19661],[99.6,19726],[99.6,19793],[99.6,19862],[99.6,19926],[99.6,19992],[99.6,20059],[99.6,20126],[99.6,20192],[99.6,20259],[99.6,20325],[99.6,20392],[99.6,20459],[99.6,20526],[99.6,20592],[99.6,20659],[99.6,20726],[99.6,20792],[99.6,20859],[99.6,20926],[99.6,20992],[99.6,21059],[99.6,21125],[99.6,21192],[99.6,21258],[99.6,21325],[99.6,21392],[99.6,21459],[99.6,21527],[99.6,21592],[99.6,21658],[99.6,21726],[99.6,21792],[99.6,21859],[99.6,21925],[99.6,21992],[99.6,22058],[99.6,22127],[99.6,22191],[99.6,22258],[99.6,22325],[99.6,22391],[99.6,22458],[99.6,22525],[99.6,22591],[99.6,22658],[99.6,22725],[99.6,22791],[99.6,22858],[99.6,22924],[99.6,22991],[99.6,23058],[99.6,23125],[99.6,23192],[99.6,23259],[99.6,23326],[99.6,23392],[99.6,23457],[99.6,23524],[99.6,23591],[99.6,23657],[99.6,23725],[99.6,23791],[99.6,23857],[99.6,23924],[99.6,23991],[99.6,24058],[99.6,24124],[99.6,24191],[99.6,24257],[99.6,24324],[99.6,24392],[99.6,24457],[99.6,24524],[99.6,24593],[99.6,24658],[99.6,24724],[99.6,24791],[99.6,24857],[99.6,24923],[99.6,24990],[99.6,25057],[99.6,25124],[99.6,25191],[99.6,25257],[99.6,25324],[99.6,25391],[99.6,25457],[99.6,25524],[99.6,25590],[99.6,25657],[99.6,25724],[99.6,25790],[99.6,25857],[99.6,25924],[99.6,25990],[99.6,26057],[99.6,26124],[99.6,26190],[99.6,26257],[99.6,26324],[99.6,26391],[99.6,26457],[99.6,26523],[99.6,26590],[99.6,26656],[99.6,26723],[99.6,26790],[99.6,26859],[99.6,26923],[99.6,26990],[99.6,27056],[99.6,27123],[99.6,27190],[99.6,27257],[99.6,27323],[99.6,27390],[99.6,27457],[99.6,27523],[99.6,27590],[99.6,27657],[99.6,27723],[99.6,27790],[99.6,27856],[99.6,27924],[99.6,27990],[99.6,28056],[99.6,28123],[99.6,28190],[99.6,28256],[99.6,28323],[99.6,28389],[99.6,28456],[99.6,28523],[99.6,28590],[99.6,28656],[99.6,28723],[99.6,28789],[99.6,28856],[99.6,28922],[99.6,28989],[99.6,29056],[99.6,29122],[99.6,29189],[99.6,29256],[99.6,29324],[99.6,29389],[99.6,29457],[99.6,29524],[99.6,29590],[99.6,29656],[99.6,29722],[99.6,29789],[99.6,29856],[99.6,29922],[99.6,29989],[99.6,30056],[99.6,30122],[99.6,30189],[99.6,30255],[99.6,30322],[99.6,30389],[99.6,30456],[99.6,30522],[99.6,30589],[99.6,30655],[99.6,30722],[99.6,30789],[99.6,30856],[99.6,30922],[99.6,30989],[99.6,31056],[99.6,31122],[99.6,31189],[99.6,31255],[99.6,31322],[99.6,31388],[99.6,31455],[99.6,31522],[99.6,31589],[99.6,31655],[99.6,31721],[99.6,31788],[99.6,31855],[99.6,31923],[99.6,31990],[99.6,32056],[99.6,32122],[99.6,32188],[99.6,32255],[99.6,32321],[99.6,32388],[99.6,32455],[99.6,32521],[99.6,32588],[99.6,32654],[99.6,32721],[99.6,32788],[99.6,32855],[99.6,32921],[99.6,32988],[99.6,33054],[99.6,33121],[99.6,33187],[99.6,33254],[99.6,33321],[99.6,33388],[99.6,33454],[99.6,33521],[99.6,33588],[99.6,33654],[99.6,33721],[99.6,33787],[99.6,33854],[99.6,33920],[99.6,33987],[99.6,34054],[99.6,34120],[99.6,34187],[99.6,34255],[99.6,34320],[99.6,34387],[99.6,34454],[99.6,34521],[99.6,34587],[99.6,34654],[99.6,34720],[99.6,34787],[99.6,34854],[99.6,34921],[99.6,34987],[99.6,35053],[99.6,35120],[99.6,35187],[99.6,35254],[99.6,35320],[99.6,35387],[99.6,35453],[99.6,35520],[99.6,35587],[99.6,35653],[99.6,35720],[99.6,35787],[99.6,35854],[99.6,35920],[99.6,35987],[99.6,36053],[99.6,36120],[99.6,36187],[99.6,36254],[99.6,36320],[99.6,36387],[99.6,36453],[99.6,36520],[99.6,36587],[99.6,36654],[99.6,36721],[99.6,36787],[99.6,36853],[99.6,36922],[99.6,36986],[99.6,37053],[99.6,37120],[99.6,37187],[99.6,37253],[99.6,37320],[99.6,37386],[99.6,37453],[99.6,37520],[99.6,37586],[99.6,37653],[99.6,37720],[99.6,37786],[99.6,37853],[99.6,37919],[99.6,37986],[99.6,38053],[99.6,38119],[99.6,38187],[99.6,38253],[99.6,38320],[99.6,38386],[99.6,38452],[99.6,38519],[99.6,38586],[99.6,38653],[99.6,38719],[99.6,38785],[99.6,38853],[99.6,38919],[99.6,38987],[99.6,39052],[99.6,39119],[99.6,39188],[99.6,39252],[99.6,39318],[99.6,39385],[99.6,39452],[99.6,39519],[99.6,39586],[99.6,39653],[99.6,39720],[99.6,39786],[99.6,39852],[99.6,39919],[99.6,39985],[99.6,40053],[99.6,40119],[99.6,40185],[99.6,40252],[99.6,40319],[99.6,40386],[99.6,40452],[99.6,40518],[99.6,40585],[99.6,40652],[99.6,40719],[99.6,40785],[99.6,40853],[99.6,40919],[99.6,40985],[99.6,41052],[99.6,41118],[99.6,41185],[99.6,41252],[99.6,41319],[99.6,41385],[99.6,41453],[99.6,41518],[99.6,41585],[99.6,41651],[99.6,41718],[99.6,41784],[99.6,41851],[99.6,41918],[99.6,41985],[99.6,42052],[99.6,42118],[99.6,42185],[99.6,42251],[99.6,42318],[99.6,42385],[99.6,42452],[99.6,42518],[99.6,42584],[99.6,42651],[99.6,42718],[99.6,42784],[99.6,42851],[99.6,42917],[99.6,42984],[99.6,43050],[99.6,43117],[99.6,43184],[99.6,43251],[99.6,43318],[99.6,43384],[99.6,43451],[99.6,43517],[99.6,43584],[99.6,43651],[99.6,43719],[99.6,43785],[99.6,43851],[99.6,43921],[99.6,43984],[99.6,44051],[99.6,44118],[99.6,44184],[99.6,44250],[99.6,44318],[99.6,44384],[99.6,44450],[99.6,44517],[99.6,44584],[99.6,44650],[99.6,44717],[99.6,44783],[99.6,44851],[99.6,44917],[99.6,44984],[99.6,45050],[99.6,45118],[99.6,45184],[99.6,45250],[99.6,45317],[99.6,45384],[99.6,45450],[99.6,45518],[99.6,45583],[99.6,45650],[99.6,45716],[99.6,45783],[99.6,45850],[99.6,45917],[99.6,45983],[99.6,46050],[99.6,46117],[99.6,46184],[99.6,46252],[99.6,46317],[99.6,46385],[99.6,46450],[99.6,46516],[99.6,46583],[99.6,46649],[99.6,46716],[99.6,46783],[99.6,46850],[99.6,46917],[99.6,46983],[99.6,47049],[99.6,47116],[99.6,47183],[99.6,47249],[99.6,47316],[99.6,47383],[99.6,47449],[99.6,47516],[99.6,47582],[99.6,47649],[99.6,47716],[99.6,47783],[99.6,47849],[99.6,47916],[99.6,47983],[99.6,48049],[99.6,48116],[99.6,48182],[99.6,48249],[99.6,48315],[99.6,48383],[99.6,48450],[99.6,48516],[99.6,48583],[99.6,48651],[99.6,48716],[99.6,48782],[99.6,48850],[99.6,48915],[99.6,48982],[99.6,49049],[99.6,49115],[99.6,49182],[99.6,49248],[99.6,49316],[99.6,49382],[99.6,49449],[99.6,49515],[99.6,49582],[99.6,49648],[99.6,49716],[99.6,49782],[99.6,49849],[99.6,49915],[99.6,49982],[99.6,50048],[99.6,50115],[99.6,50182],[99.6,50249],[99.6,50315],[99.6,50381],[99.6,50448],[99.6,50515],[99.6,50581],[99.6,50649],[99.6,50715],[99.6,50782],[99.6,50848],[99.6,50917],[99.6,50982],[99.6,51048],[99.6,51115],[99.6,51181],[99.6,51248],[99.6,51315],[99.6,51382],[99.6,51448],[99.6,51515],[99.6,51582],[99.6,51648],[99.6,51714],[99.6,51781],[99.6,51848],[99.6,51915],[99.6,51981],[99.6,52048],[99.6,52115],[99.6,52181],[99.6,52247],[99.6,52314],[99.6,52381],[99.6,52447],[99.6,52514],[99.6,52581],[99.6,52648],[99.6,52715],[99.6,52781],[99.6,52848],[99.6,52914],[99.6,52981],[99.6,53048],[99.6,53115],[99.6,53182],[99.6,53247],[99.6,53314],[99.6,53382],[99.6,53447],[99.6,53514],[99.6,53581],[99.6,53648],[99.6,53715],[99.6,53781],[99.6,53847],[99.6,53914],[99.6,53980],[99.6,54047],[99.6,54115],[99.6,54180],[99.6,54247],[99.6,54314],[99.6,54380],[99.6,54447],[99.6,54515],[99.6,54580],[99.6,54647],[99.6,54714],[99.6,54780],[99.6,54847],[99.6,54913],[99.6,54980],[99.6,55046],[99.6,55113],[99.6,55180],[99.6,55246],[99.6,55313],[99.6,55380],[99.6,55446],[99.6,55513],[99.6,55580],[99.6,55648],[99.6,55713],[99.6,55780],[99.6,55850],[99.6,55913],[99.6,55980]]",346.7469,354.9775,99.26910186,7.9426,"[{""rating"":99.26910186030221,""responseTime"":7.745300000000839},{""rating"":99.26910186030221,""responseTime"":7.942600000001562}]",space,7.6253,,354.9777,Definitely yes,100,354.986,,,[],,0,10,10,10,1,audio/Narrative8Situation1.wav,audio/Narrative7Situation1.wav,audio/Narrative6Situation1.wav,audio/Narrative5Situation1.wav,5,2,2,5,,,,,,,,,,,,,,,,,,,,,,,,,,,,,,,,,,,,,,,
,,,,,6745731e75a88802a56be3ef,2025-07-07_22h50.03.609,group3.4_multiperson,2023.2.2,Linux x86_64,30.03003003,686c2ebf0248f13bef9af11f,686c84da4c2c8f51612b7ff5,,,,,,,,,,,,,,,,,,,,,,,,,,,,,354.9875,1,audio/Narrative7Situation2.wav,358.0082,,358.0083,365.5391,[],365.5395,369.7722,99.61040607,3.4211,"[{""rating"":99.61040606677525,""responseTime"":3.421099999999683}]",space,3.6464,,369.7724,Not at all,0,369.7832,,,[],,0,11,11,11,1,audio/Narrative8Situation2.wav,audio/Narrative7Situation2.wav,audio/Narrative6Situation2.wav,audio/Narrative5Situation2.wav,3,3,3,3,,,,,,,,,,,,,,,,,,,,,,,,,,,,,,,,,,,,,,,
,,,,,6745731e75a88802a56be3ef,2025-07-07_22h50.03.609,group3.4_multiperson,2023.2.2,Linux x86_64,30.03003003,686c2ebf0248f13bef9af11f,686c84da4c2c8f51612b7ff5,,,,,,,,,,,,,,,,,,,,,,,,,,,,,369.7842,1,audio/Narrative7Situation3.wav,377.8013,,377.8025,387.0978,"[[99.7,3464],[38.3,3864],[28.3,3931],[25.5,3999],[25.5,4064],[25.5,4130],[25.5,4197],[25.5,4263],[5.3,4331],[2.9,4397],[1.9,4465],[1.3,4530],[0.9,4597],[0.5,4664],[0.3,4732],[0,4798],[6.5,5397],[22.1,5463],[40.1,5530],[53.2,5597],[80,5663],[100,5730],[100,6330],[100,6396],[100,6463],[100,6531],[100,6597],[100,6664],[100,6730],[100,6796],[99.9,6864],[99.7,6930],[99.6,6997],[99.6,7062],[99.6,7129],[99.6,7196],[99.6,7262],[99.6,7329],[99.6,7395],[99.6,7462],[99.6,7529],[99.6,7596],[99.6,7662],[99.6,7730],[99.6,7795],[99.6,7862],[99.6,7928],[99.6,7995],[99.6,8062],[99.6,8129],[99.6,8197],[99.6,8263],[99.6,8329],[99.6,8398],[99.6,8462],[99.6,8529],[99.6,8595],[99.6,8662],[99.6,8728],[99.6,8795],[99.6,8861],[99.6,8929],[99.6,8996],[99.6,9062],[99.6,9128],[99.6,9195],[99.6,9261]]",387.0981,390.7637,99.58712362,3.2506,"[{""rating"":99.58712362349942,""responseTime"":3.250599999999622}]",space,3.074,,390.7638,Partially,50,390.7749,,,[],,0,12,12,12,1,audio/Narrative8Situation3.wav,audio/Narrative7Situation3.wav,audio/Narrative6Situation3.wav,audio/Narrative5Situation3.wav,4,8,5,3,,,,,,,,,,,,,,,,,,,,,,,,,,,,,,,,,,,,,,,
,,,,,6745731e75a88802a56be3ef,2025-07-07_22h50.03.609,group3.4_multiperson,2023.2.2,Linux x86_64,30.03003003,686c2ebf0248f13bef9af11f,686c84da4c2c8f51612b7ff5,,,,,,,,,,,,,,,,,,,,,,,,,,,,,390.7776,1,audio/Narrative7Situation4.wav,393.7954,,393.7956,405.5593,[],405.5596,411.5559,50.24486042,5.6102,"[{""rating"":50.2448604150789,""responseTime"":5.610200000001214}]",space,5.3917,,411.5559,Partially,50,411.561,,,[],,0,13,13,13,1,audio/Narrative8Situation4.wav,audio/Narrative7Situation4.wav,audio/Narrative6Situation4.wav,audio/Narrative5Situation4.wav,3,3,2,1,,,,,,,,,,,,,,,,,,,,,,,,,,,,,,,,,,,,,,,
,,,,,6745731e75a88802a56be3ef,2025-07-07_22h50.03.609,group3.4_multiperson,2023.2.2,Linux x86_64,30.03003003,686c2ebf0248f13bef9af11f,686c84da4c2c8f51612b7ff5,,,,,,,,,,,,,,,,,,,,,,,,,,,,,411.5617,1,audio/Narrative7Situation5.wav,416.5881,,416.5884,425.119,[],425.1204,430.516,0.006464493,4.9147,"[{""rating"":0.0064644927505130845,""responseTime"":4.914699999999243}]",space,4.7946,,430.5161,Not at all,0,430.5264,,,[],,0,14,14,14,1,audio/Narrative8Situation5.wav,audio/Narrative7Situation5.wav,audio/Narrative6Situation5.wav,audio/Narrative5Situation5.wav,2,5,2,5,,,,,,,,,,,,,,,,,,,,,,,,,,,,,,,,,,,,,,,
,,,,,6745731e75a88802a56be3ef,2025-07-07_22h50.03.609,group3.4_multiperson,2023.2.2,Linux x86_64,30.03003003,686c2ebf0248f13bef9af11f,686c84da4c2c8f51612b7ff5,,,,,,,,,,,,,,,,,,,,,,,,,,,,,430.5274,1,audio/Narrative7Situation6.wav,433.5487,,433.5494,443.5786,[],443.579,517.8328,0.238665432,65.172,"[{""rating"":0.23866543229718595,""responseTime"":65.17200000000003}]",space,73.6883,,517.8329,Definitely yes,100,517.8464,,,[],,0,15,15,15,1,audio/Narrative8Situation6.wav,audio/Narrative7Situation6.wav,audio/Narrative6Situation6.wav,audio/Narrative5Situation6.wav,2,3,2,3,,,,,,,,,,,,,,,,,,,,,,,,,,,,,,,,,,,,,,,
,,,,,6745731e75a88802a56be3ef,2025-07-07_22h50.03.609,group3.4_multiperson,2023.2.2,Linux x86_64,30.03003003,686c2ebf0248f13bef9af11f,686c84da4c2c8f51612b7ff5,,,,,,,,,,,,,,,,,,,,,,,,,,,,,517.8476,1,audio/Narrative7Situation7.wav,522.8507,,522.8508,540.0606,"[[55.8,12912],[100,13182],[100,13779],[100,13812],[100,13845],[100,13883],[100,13919],[100,13954],[100,14005],[100,14038],[100,14071],[100,14109],[100,14151],[100,14181],[100,14213],[100,14245],[100,14279],[100,14312],[100,14344],[100,14378],[100,14415],[100,14444],[100,14477],[100,14511],[100,14544],[100,14577],[100,14611],[100,14644],[100,14682],[100,14713],[100,14744],[100,14777],[100,14811],[100,14845],[100,14881],[100,14913],[100,14947],[100,14980],[100,15011],[100,15044],[100,15077],[100,15110],[100,15148],[100,15182],[100,15210],[100,15246],[100,15286],[100,15312],[100,15344],[100,15377],[100,15410],[100,15443],[100,15477],[100,15511],[100,15543],[100,15579],[100,15616],[100,15645],[100,15681],[100,15711],[100,15743],[100,15777],[100,15810],[100,15844],[100,15877],[100,15914],[100,15944],[100,15976],[100,16010],[100,16044],[100,16081],[100,16115],[100,16148],[100,16182],[100,16221],[100,16251],[100,16278],[100,16314],[100,16351],[100,16385],[100,16413],[100,16443],[100,16477],[100,16510],[100,16544],[100,16581],[100,16610],[100,16644],[100,16677],[100,16710],[100,16744],[100,16777],[100,16815],[100,16843],[100,16877],[100,16914],[100,16956],[100,16996],[100,17030],[100,17061],[100,17094],[100,17126],[100,17162]]",540.0608,546.7138,99.38232823,5.5288,"[{""rating"":99.3823282274977,""responseTime"":5.52879999999891}]",space,6.1152,,546.7139,Definitely yes,100,546.7186,,,[],,0,16,16,16,1,audio/Narrative8Situation7.wav,audio/Narrative7Situation7.wav,audio/Narrative6Situation7.wav,audio/Narrative5Situation7.wav,3,5,5,4,,,,,,,,,,,,,,,,,,,,,,,,,,,,,,,,,,,,,,,
,,,,,6745731e75a88802a56be3ef,2025-07-07_22h50.03.609,group3.4_multiperson,2023.2.2,Linux x86_64,30.03003003,686c2ebf0248f13bef9af11f,686c84da4c2c8f51612b7ff5,,,,,,,,,,,,,,,,,,,,,,,,,,,,,546.7195,1,audio/Narrative7Situation8.wav,548.7247,,548.7247,558.7546,[],558.7548,563.9431,99.65711576,3.9678,"[{""rating"":99.65711576465337,""responseTime"":3.9677999999988742}]",space,4.6526,,563.9433,Not at all,0,563.9514,,,[],,0,17,17,17,1,audio/Narrative8Situation8.wav,audio/Narrative7Situation8.wav,audio/Narrative6Situation8.wav,audio/Narrative5Situation8.wav,3,2,5,3,,,,,,,,,,,,,,,,,,,,,,,,,,,,,,,,,,,,,,,
,,,,,6745731e75a88802a56be3ef,2025-07-07_22h50.03.609,group3.4_multiperson,2023.2.2,Linux x86_64,30.03003003,686c2ebf0248f13bef9af11f,686c84da4c2c8f51612b7ff5,,,,,,,,,,,,,,,,,,,,,,,,,,,,,563.9528,1,audio/Narrative7Situation9.wav,565.9699,,565.9699,574.6038,"[[999,0],[999,48],[999,81],[999,114],[999,148],[999,182],[999,215],[999,248],[999,281],[999,315],[999,351],[999,382],[999,416],[999,448],[999,481],[999,517],[999,548],[999,581],[999,615],[999,653],[999,687],[999,722],[999,759],[999,791],[999,822],[999,860],[999,891],[999,921],[999,950],[999,987],[999,1014],[999,1048],[999,1082],[999,1114],[999,1147],[999,1181],[999,1214],[999,1248],[999,1281],[999,1314],[999,1348],[999,1382],[999,1415],[999,1448],[999,1481],[999,1518],[999,1547],[999,1581],[999,1614],[999,1648],[999,1681],[999,1714],[999,1747],[999,1781],[999,1814],[999,1848],[999,1881],[999,1914],[999,1948],[999,1981],[999,2014],[999,2048],[999,2080],[999,2117],[999,2148],[999,2183],[999,2214],[999,2247],[999,2281],[999,2314],[999,2347],[999,2381],[999,2415],[999,2448],[999,2481],[999,2514],[999,2548],[999,2581],[999,2613],[999,2648],[999,2683],[999,2716],[999,2747],[999,2780],[999,2814],[999,2848],[999,2882],[999,2915],[999,2947],[999,2980],[999,3017],[999,3047],[999,3080],[999,3114],[999,3147],[999,3180],[999,3213],[999,3249],[999,3281],[999,3314],[999,3347],[999,3383],[999,3415],[999,3447],[999,3480],[999,3513],[999,3548],[999,3581],[999,3613],[999,3647],[999,3681],[999,3713],[999,3747],[999,3780],[999,3813],[999,3846],[999,3880],[999,3914],[999,3947],[999,3980],[999,4013],[999,4047],[999,4085],[999,4115],[999,4147],[999,4180],[999,4216],[999,4247],[999,4280],[999,4314],[999,4350],[999,4380],[999,4415],[999,4451],[999,4480],[999,4514],[999,4548],[999,4583],[999,4618],[999,4647],[999,4683],[999,4717],[999,4752],[999,4781],[999,4813],[999,4846],[999,4880],[999,4913],[999,4947],[999,4980],[999,5014],[999,5048],[999,5079],[999,5113],[999,5146],[999,5179],[999,5213],[999,5246],[999,5281],[999,5317],[999,5346],[999,5379],[999,5413],[999,5448],[999,5479],[999,5514],[999,5547],[999,5584],[999,5613],[999,5650],[999,5682],[999,5717],[999,5750],[999,5779],[999,5813],[999,5846],[999,5879],[999,5913],[999,5946],[999,5979],[999,6014],[999,6047],[999,6079],[999,6113],[999,6146],[999,6179],[999,6212],[999,6246],[999,6282],[999,6313],[999,6346],[999,6381],[999,6413],[999,6446],[999,6479],[999,6514],[999,6547],[999,6579],[999,6613],[999,6647],[999,6679],[999,6716],[999,6752],[999,6779],[999,6813],[999,6846],[999,6879],[999,6912],[999,6945],[999,6979],[999,7012],[999,7049],[999,7079],[999,7114],[999,7146],[999,7179],[999,7212],[999,7246],[999,7279],[999,7313],[999,7346],[999,7379],[999,7415],[999,7446],[999,7479],[999,7512],[999,7546],[999,7579],[999,7613],[999,7646],[999,7679],[999,7712],[999,7748],[999,7781],[999,7814],[999,7845],[999,7878],[999,7912],[999,7947],[999,7979],[999,8012],[999,8046],[999,8079],[999,8112],[999,8145],[999,8179],[999,8212],[999,8245],[999,8279],[999,8312],[999,8345],[999,8381],[999,8413],[999,8445],[999,8479],[999,8512],[999,8546],[999,8579],[999,8615]]",574.604,583.1296,99.99087369,8.058,"[{""rating"":99.99087369199972,""responseTime"":8.057999999999993}]",space,7.9818,,583.1296,Partially,50,583.1398,,,[],,0,18,18,18,1,audio/Narrative8Situation9.wav,audio/Narrative7Situation9.wav,audio/Narrative6Situation9.wav,audio/Narrative5Situation9.wav,3,2,4,3,,,,,,,,,,,,,,,,,,,,,,,,,,,,,,,,,,,,,,,
,,,,,6745731e75a88802a56be3ef,2025-07-07_22h50.03.609,group3.4_multiperson,2023.2.2,Linux x86_64,30.03003003,686c2ebf0248f13bef9af11f,686c84da4c2c8f51612b7ff5,,,,,,,,,,,,,,,,,,,,,,,,,,,589.6811,592.2594,592.3109,2,audio/Narrative13Situation2.wav,592.3117,,592.3117,622.0664,"[[100,18675],[100,19099],[95.1,19141],[92.7,19169],[92.4,19202],[92.2,19240],[92.1,19274],[92.3,19307],[92.9,19341],[94.9,19383],[95.7,19422],[96.8,19463],[99.1,19501],[99.5,19536],[99.9,19573],[100,19611],[100,19643],[100,19674],[100,19707],[100,19746],[100,19776],[100,19809],[100,19842],[100,19874],[100,19909],[100,19941],[100,19973],[100,20007],[100,20040],[100,20073],[100,20107],[100,20143],[100,20178],[100,20218],[100,20254],[100,20291],[100,20327],[100,20367],[100,20399],[100,20429],[100,20463],[100,20496],[100,20537],[100,20575],[100,20607],[100,20644],[100,20679],[100,20711],[100,20741],[100,20773],[100,20806],[100,20841],[100,20873],[100,20906],[100,20940],[100,20974],[100,21007],[100,21040],[100,21074],[100,21107],[100,21141],[100,21178],[100,21207],[100,21240],[100,21273],[100,21310],[100,21340],[100,21373],[100,21406],[100,21440],[100,21475],[100,21508],[100,21540],[100,21573],[100,21606],[100,21641],[100,21676],[100,21711],[100,21740],[100,21778],[100,21810],[100,21847],[100,21876],[100,21906],[100,21939],[100,21973],[100,22006],[100,22040],[100,22073],[100,22106],[100,22139],[100,22177],[100,22209],[100,22239],[100,22273],[100,22306],[100,22339],[100,22372],[100,22406],[100,22439],[100,22472],[100,22506],[100,22539],[100,22573],[100,22606],[100,22640],[100,22672],[100,22706],[100,22740],[100,22773],[100,22806],[100,22839],[100,22875],[100,22913],[100,22946],[100,22975],[100,23009],[100,23039],[100,23072],[100,23106],[100,23143],[100,23174],[100,23206],[100,23240],[100,23272],[100,23308],[100,23339],[100,23372],[100,23406],[100,23439],[100,23472],[100,23506],[100,23539],[100,23572],[100,23606],[100,23639],[100,23672],[100,23706],[100,23740],[100,23775],[100,23806],[100,23839],[100,23872],[100,23905],[100,23939],[100,23973],[100,24005],[100,24039],[100,24072],[100,24105],[100,24139],[100,24172],[100,24205],[100,24239],[100,24272],[100,24309],[100,24340],[100,24373],[100,24410],[100,24445],[100,24479],[100,24508],[100,24538],[100,24572],[100,24606],[100,24640],[100,24672],[100,24707],[100,24742],[100,24779],[100,24816],[100,24846],[100,24875],[100,24905],[100,24938],[100,24974],[100,25010],[100,25040],[100,25072],[100,25105],[100,25139],[100,25171],[100,25208],[100,25240],[100,25272],[100,25305],[100,25338],[100,25373],[100,25406],[100,25438],[100,25472],[100,25508],[100,25543],[100,25578],[100,25611],[100,25643],[100,25677],[100,25710],[100,25745],[100,25777],[100,25805],[100,25839],[100,25871],[100,25904],[100,25938],[100,25974],[100,26008],[100,26041],[100,26074],[100,26111],[100,26141],[100,26177],[100,26212],[100,26242],[100,26277],[100,26304],[100,26338],[100,26374],[100,26410],[100,26442],[100,26476],[100,26504],[100,26538],[100,26571],[100,26605],[100,26638],[100,26673],[100,26704],[100,26738],[100,26771],[100,26805],[100,26838],[100,26872],[100,26906],[100,26943],[100,26972],[100,27004],[100,27037],[100,27074],[100,27107],[100,27139],[100,27171],[100,27207],[100,27243],[100,27275],[100,27305],[100,27337],[100,27371],[100,27404],[100,27438],[100,27471],[100,27506],[100,27538],[100,27574],[100,27608],[100,27640],[100,27671],[100,27708],[100,27742],[100,27774],[100,27805],[100,27838],[100,27872],[100,27905],[100,27940],[100,27974],[100,28004],[100,28037],[100,28071],[100,28104],[100,28140],[100,28178],[100,28208],[100,28239],[100,28271],[100,28304],[100,28338],[100,28372],[100,28404],[100,28437],[100,28474],[100,28504],[100,28540],[100,28577],[100,28609],[100,28643],[100,28677],[100,28704],[100,28737],[100,28771],[100,28808],[100,28844],[100,28881],[100,28915],[100,28952],[100,28981],[100,29012],[100,29046],[100,29075],[100,29104],[100,29141],[100,29170],[100,29204],[100,29246],[100,29271],[100,29303],[100,29337],[100,29370],[100,29404],[100,29441],[100,29471],[100,29503],[100,29537],[100,29570],[100,29604],[100,29637],[100,29670],[100,29706],[100,29737]]",622.0668,622.0733,,,[],,,,622.0735,Not at all,0,622.0828,,,[],,0,0,0,0,1,audio/Narrative13Situation2.wav,audio/Narrative13Situation2.wav,audio/Narrative13Situation2.wav,audio/Narrative13Situation2.wav,2,2,2,2,,,,,583.1406,589.6799,space,6.0177,,,,,,,,,,,,,,,,,,,,,,,,,,,,,,,
,,,,,6745731e75a88802a56be3ef,2025-07-07_22h50.03.609,group3.4_multiperson,2023.2.2,Linux x86_64,30.03003003,686c2ebf0248f13bef9af11f,686c84da4c2c8f51612b7ff5,,,,,,,,,,,,,,,,,,,,,,,,,,,,,622.0841,2,audio/Narrative6Situation1.wav,624.0991,,624.0993,650.691,"[[999,0],[999,38],[999,65],[999,100],[999,132],[999,165],[999,198],[999,232],[999,268],[999,299],[999,332],[999,365],[999,398],[999,432],[999,465],[999,499],[999,532],[999,565],[999,598],[999,635],[999,668],[999,701],[999,733],[999,770],[999,800],[999,834],[999,868],[999,899],[999,932],[999,965],[999,998],[999,1034],[999,1065],[999,1098],[999,1132],[999,1165],[999,1200],[999,1232],[999,1265],[999,1301],[999,1332],[999,1369],[999,1399],[999,1431],[999,1465],[999,1502],[999,1536],[999,1566],[999,1598],[999,1632],[999,1665],[999,1698],[999,1732],[999,1765],[999,1798],[999,1836],[999,1865],[999,1900],[999,1934],[999,1966],[999,1998],[999,2031],[999,2065],[999,2098],[999,2132],[999,2165],[999,2197],[999,2232],[999,2265],[999,2298],[999,2332],[999,2381],[999,2414],[999,2448],[999,2481],[999,2514],[999,2547],[999,2581],[999,2614],[999,2648],[999,2682],[999,2721],[999,2753],[999,2788],[999,2819],[999,2853],[999,2889],[999,2921],[999,2952],[999,2985],[999,3015],[999,3048],[999,3080],[999,3114],[999,3147],[999,3181],[999,3215],[999,3247],[999,3281],[999,3317],[999,3347],[999,3381],[999,3414],[999,3447],[999,3481],[999,3514],[999,3547],[999,3583],[999,3615],[999,3649],[999,3681],[999,3714],[999,3747],[999,3780],[999,3814],[999,3848],[999,3880],[999,3913],[999,3947],[999,3980],[999,4014],[999,4047],[999,4080],[999,4114],[999,4148],[999,4180],[999,4213],[999,4247],[999,4280],[999,4314],[999,4347],[999,4380],[999,4413],[999,4448],[999,4480],[999,4514],[999,4547],[999,4580],[999,4613],[999,4647],[999,4680],[999,4713],[999,4747],[999,4780],[999,4814],[999,4851],[999,4885],[999,4916],[999,4946],[999,4980],[999,5016],[999,5047],[999,5080],[999,5113],[999,5146],[999,5181],[999,5213],[999,5247],[999,5280],[999,5313],[999,5347],[999,5380],[999,5413],[999,5446],[999,5480],[999,5513],[999,5547],[999,5580],[999,5613],[999,5646],[999,5680],[999,5713],[999,5747],[999,5779],[999,5813],[999,5846],[999,5880],[999,5913],[999,5946],[999,5979],[999,6013],[999,6047],[999,6079],[999,6113],[999,6146],[999,6179],[999,6213],[999,6247],[999,6279],[999,6314],[999,6350],[999,6380],[999,6413],[999,6447],[999,6481],[999,6513],[999,6547],[999,6583],[999,6613],[999,6646],[999,6679],[999,6715],[999,6748],[999,6782],[999,6813],[999,6850],[999,6880],[999,6913],[999,6949],[999,6986],[999,7019],[999,7056],[999,7084],[999,7116],[999,7152],[999,7181],[999,7216],[999,7254],[999,7290],[999,7327],[999,7364],[999,7396],[999,7429],[999,7468],[999,7496],[999,7529],[999,7562],[999,7598],[999,7632],[999,7663],[999,7697],[999,7729],[999,7762],[999,7796],[999,7829],[999,7862],[999,7895],[999,7929],[999,7962],[999,7996],[999,8029],[999,8062],[999,8096],[999,8129],[999,8162],[999,8196],[999,8229],[999,8264],[999,8296],[999,8329],[999,8362],[999,8395],[999,8431],[999,8463],[999,8496],[999,8529],[999,8562],[999,8598],[999,8632],[999,8666],[999,8695],[999,8729],[999,8762],[999,8796],[999,8829],[999,8863],[999,8898],[999,8934],[999,8962],[999,8996],[999,9031],[999,9063],[999,9096],[999,9130],[999,9162],[999,9195],[999,9231],[999,9268],[999,9302],[999,9334],[999,9366],[999,9402],[999,9428],[999,9462],[999,9495],[999,9531],[999,9562],[999,9595],[999,9632],[999,9662],[999,9695],[999,9728],[999,9761],[999,9795],[999,9830],[999,9862],[999,9895],[999,9930],[999,9962],[999,9999],[999,10034],[999,10069],[999,10102],[999,10128],[999,10161],[999,10195],[999,10229],[999,10261],[999,10297],[999,10329],[999,10361],[999,10394],[999,10431],[999,10461],[999,10498],[999,10533],[999,10561],[999,10595],[999,10631],[999,10661],[999,10695],[999,10731],[999,10766],[999,10802],[999,10828],[999,10861],[999,10894],[999,10928],[999,10965],[999,10995],[999,11028],[999,11063],[999,11101],[999,11131],[999,11165],[999,11195],[999,11229],[94.1,11266],[93.9,11312],[94.1,11348],[95.1,11385],[96.4,11416],[97.7,11456],[99.8,11496],[100,11535],[100,11562],[100,11594],[100,11628],[100,11661],[100,11699],[100,11729],[100,11764],[100,11797],[100,11829],[100,11865],[100,11902],[100,11934],[100,11968],[100,12006],[100,12039],[100,12072],[100,12111],[100,12153],[100,12189],[100,12215],[100,12245],[100,12281],[100,12311],[100,12345],[100,12377],[100,12411],[100,12444],[100,12477],[100,12512],[100,12544],[100,12580],[100,12610],[100,12644],[100,12677],[100,12712],[100,12744],[100,12780],[100,12815],[100,12849],[100,12883],[100,12915],[100,12946],[100,12977],[100,13010],[100,13044],[100,13077],[100,13111],[100,13145],[100,13180],[100,13218],[100,13245],[100,13278],[100,13318],[100,13352],[100,13388],[100,13418],[100,13455],[100,13485],[100,13519],[100,13543],[100,13577],[100,13610],[100,13646],[100,13677],[100,13711],[100,13747],[100,13779],[100,13813],[100,13845],[100,13877],[100,13911],[100,13944],[100,13977],[100,14011],[100,14044],[100,14077],[100,14110],[100,14144],[100,14177],[100,14210],[100,14245],[100,14277],[100,14310],[100,14344],[100,14378],[100,14410],[100,14444],[100,14479],[100,14511],[100,14543],[100,14578],[100,14611],[100,14648],[100,14681],[100,14713],[100,14756],[100,14788],[100,14815],[100,14846],[100,14880],[100,14917],[100,14948],[100,14982],[100,15018],[100,15051],[100,15087],[100,15123],[100,15154],[100,15178],[100,15210],[100,15244],[100,15277],[100,15310],[100,15343],[100,15377],[100,15410],[100,15443],[100,15476],[100,15511],[100,15546],[100,15583],[100,15614],[100,15646],[100,15676],[100,15709],[100,15745],[100,15776],[100,15809],[100,15843],[100,15876],[100,15910],[100,15952],[100,15985],[100,16017],[100,16045],[100,16076],[100,16110],[100,16145],[100,16176],[100,16209],[100,16242],[100,16277],[100,16309],[100,16347],[100,16383],[100,16413],[100,16443],[100,16484],[100,16509],[100,16542],[100,16576],[100,16609],[100,16647],[100,16677],[100,16709],[100,16744],[100,16778],[100,16811],[100,16844],[100,16879],[100,16910],[100,16942],[100,16978],[100,17009],[100,17042],[100,17084],[100,17110],[100,17142],[100,17177],[100,17211],[100,17244],[100,17276],[100,17310],[100,17342],[100,17375],[100,17409],[100,17442],[100,17479],[100,17509],[100,17545],[100,17575],[100,17611],[100,17644],[100,17677],[100,17714],[100,17744],[100,17775],[100,17809],[100,17842],[100,17878],[100,17910],[100,17942],[100,17975],[100,18009],[100,18042],[100,18075],[100,18111],[100,18145],[100,18177],[100,18209],[100,18243],[100,18277],[100,18309],[100,18342],[100,18375],[100,18409],[100,18442],[100,18475],[100,18509],[100,18542],[100,18575],[100,18609],[100,18645],[100,18676],[100,18711],[100,18749],[100,18783],[100,18816],[100,18851],[100,18885],[100,18914],[100,18942],[100,18976],[100,19009],[100,19041],[100,19075],[100,19109],[100,19146],[100,19176],[100,19209],[100,19245],[100,19279],[100,19311],[100,19344],[100,19377],[100,19408],[100,19442],[100,19475],[100,19511],[100,19542],[100,19575],[100,19608],[100,19641],[100,19675],[100,19712],[100,19750],[100,19775],[100,19808],[100,19842],[100,19875],[100,19908],[100,19941],[100,19976],[100,20016],[100,20046],[100,20078],[100,20108],[100,20143],[100,20174],[100,20208],[100,20244],[100,20275],[100,20308],[100,20342],[100,20374],[100,20408],[100,20442],[100,20474],[100,20508],[100,20542],[100,20583],[100,20620],[100,20651],[100,20684],[100,20714],[100,20750],[100,20775],[100,20808],[100,20844],[100,20874],[100,20908],[100,20941],[100,20979],[100,21009],[100,21041],[100,21074],[100,21107],[100,21141],[100,21175],[100,21211],[100,21241],[100,21274],[100,21308],[100,21341],[100,21374],[100,21407],[100,21448],[100,21483],[100,21516],[100,21551],[100,21584],[100,21616],[100,21651],[100,21682],[100,21718],[100,21751],[100,21784],[100,21812],[100,21841],[100,21876],[100,21908],[100,21941],[100,21975],[100,22008],[100,22041],[100,22077],[100,22108],[100,22142],[100,22175],[100,22208],[100,22241],[100,22274],[100,22316],[100,22345],[100,22374],[100,22410],[100,22441],[100,22474],[100,22508],[100,22542],[100,22579],[100,22607],[100,22640],[100,22674],[100,22710],[100,22740],[100,22774],[100,22807],[100,22842],[100,22878],[100,22907],[100,22941],[100,22973],[100,23008],[100,23040],[100,23083],[100,23117],[100,23150],[100,23183],[100,23216],[100,23249],[100,23283],[100,23312],[100,23340],[100,23374],[100,23408],[100,23450],[100,23483],[100,23518],[100,23550],[100,23583],[100,23618],[100,23649],[100,23683],[100,23715],[100,23744],[100,23773],[100,23807],[100,23840],[100,23873],[100,23908],[100,23940],[100,23975],[100,24008],[100,24040],[100,24075],[100,24106],[100,24143],[100,24174],[100,24217],[100,24245],[100,24273],[100,24310],[100,24340],[100,24373],[100,24406],[100,24440],[100,24473],[100,24506],[100,24540],[100,24575],[100,24606],[100,24640],[100,24673],[100,24706],[100,24740],[100,24774],[100,24807],[100,24840],[100,24873],[100,24907],[100,24945],[100,24980],[100,25016],[100,25049],[100,25082],[100,25116],[100,25147],[100,25177],[100,25216],[100,25248],[100,25277],[100,25316],[100,25348],[100,25382],[100,25414],[100,25439],[100,25473],[100,25510],[100,25540],[100,25573],[100,25606],[100,25639],[100,25674],[100,25706],[100,25739],[100,25773],[100,25807],[100,25844],[100,25883],[100,25917],[100,25949],[100,25983],[100,26011],[100,26048],[100,26073],[100,26106],[100,26139],[100,26173],[100,26207],[100,26240],[100,26273],[100,26307],[100,26343],[100,26372],[100,26405],[100,26439],[100,26473],[100,26506],[100,26539],[100,26572]]",650.6915,660.7605,100,9.3813,"[{""rating"":100,""responseTime"":9.381299999998873}]",space,9.5201,,660.7607,Definitely yes,100,660.7732,,,[],,0,1,1,1,1,audio/Narrative7Situation1.wav,audio/Narrative8Situation1.wav,audio/Narrative5Situation1.wav,audio/Narrative6Situation1.wav,2,5,5,2,,,,,,,,,,,,,,,,,,,,,,,,,,,,,,,,,,,,,,,
,,,,,6745731e75a88802a56be3ef,2025-07-07_22h50.03.609,group3.4_multiperson,2023.2.2,Linux x86_64,30.03003003,686c2ebf0248f13bef9af11f,686c84da4c2c8f51612b7ff5,,,,,,,,,,,,,,,,,,,,,,,,,,,,,660.774,2,audio/Narrative6Situation2.wav,663.784,,663.7841,692.284,"[[100,12330],[100,12367],[100,12699],[100,12733],[92.9,12771],[92.2,12807],[92.1,12844],[92.1,12873],[92.1,12898],[92.1,12929],[92.1,12962],[92.1,12995],[92.1,13029],[92.6,13066],[94.5,13099],[100,13469],[100,13506],[100,13538],[100,13577],[100,13630],[100,13679],[100,13745],[100,13775],[100,13810],[100,13849],[100,13881],[100,13912],[100,13944],[100,13981],[100,14013],[100,14050],[100,14089],[100,14121],[100,14156],[100,14191],[100,14230],[100,14261],[100,14294],[100,14328],[100,14361],[100,14395],[100,14428],[100,14461],[100,14495],[100,14528],[100,14562],[100,14596],[100,14628],[100,14661],[100,14695],[100,14729],[100,14765],[100,14796],[100,14828],[100,14861],[100,14895],[100,14927],[100,14963],[100,15000],[100,15037],[100,15073],[100,15106],[100,15138],[100,15172],[100,15196],[100,15237],[100,15266],[100,15295],[100,15328],[100,15361],[100,15394],[100,15429],[100,15465],[100,15494],[100,15533],[100,15569],[100,15603],[100,15627],[100,15664],[100,15694],[100,15727],[100,15766],[100,15796],[100,15830],[100,15861],[100,15900],[100,15934],[100,15962],[100,15994],[100,16028],[100,16062],[100,16103],[100,16136],[100,16166],[100,16194],[100,16227],[100,16261],[100,16294],[100,16327],[100,16361],[100,16395],[100,16427],[100,16460],[100,16494],[100,16527],[100,16561],[100,16594],[100,16629],[100,16660],[100,16696],[100,16732],[100,16764],[100,16800],[100,16831],[100,16860],[100,16894],[100,16927],[100,16963],[100,16993],[100,17027],[100,17060],[100,17094],[100,17127],[100,17161],[100,17194],[100,17229],[100,17262],[100,17298],[100,17327],[100,17360],[100,17394],[100,17427],[100,17460],[100,17494],[100,17531],[100,17560],[100,17594],[100,17627],[100,17660],[100,17693],[100,17727],[100,17760],[100,17796],[100,17826],[100,17862],[100,17898],[100,17931],[100,17960],[100,18002],[100,18030],[100,18062],[100,18094],[100,18127],[100,18160],[100,18196],[100,18234],[100,18266],[100,18293],[100,18328],[100,18364],[100,18393],[100,18427],[100,18462],[100,18499],[100,18528],[100,18560],[100,18595],[100,18627],[100,18660],[100,18693],[100,18726],[100,18760],[100,18793],[100,18826],[100,18862],[100,18895],[100,18926],[100,18960],[100,18993],[100,19027],[100,19060],[100,19093],[100,19128],[100,19160],[100,19193],[100,19226],[100,19260],[100,19293],[100,19327],[100,19369],[100,19401],[100,19431],[100,19460],[100,19494],[100,19527],[100,19559],[100,19594],[100,19626],[100,19659],[100,19694],[100,19735],[100,19769],[100,19803],[100,19830],[100,19860],[100,19893],[100,19926],[100,19960],[100,19995],[100,20029],[100,20061],[100,20093],[100,20130],[100,20166],[100,20203],[100,20230],[100,20270],[100,20297],[100,20327],[100,20367],[100,20397],[100,20426],[100,20468],[100,20498],[100,20526],[100,20568],[100,20602],[100,20635],[100,20664],[100,20696],[100,20726],[100,20759],[100,20793],[100,20826],[100,20859],[100,20893],[100,20928],[100,20961],[100,20994],[100,21030],[100,21059],[100,21094],[100,21126],[100,21159],[100,21192],[100,21226],[100,21261],[100,21293],[100,21325],[100,21362],[100,21392],[100,21426],[100,21459],[100,21492],[100,21525],[100,21559],[100,21592],[100,21627],[100,21662],[100,21694],[100,21725],[100,21759],[100,21792],[100,21828],[100,21859],[100,21892],[100,21928],[100,21958],[100,21992],[100,22026],[100,22059],[100,22092],[100,22125],[100,22158],[100,22201],[100,22231],[100,22269],[100,22301],[100,22335],[100,22368],[100,22401],[100,22432],[100,22464],[100,22501],[100,22533],[100,22566],[100,22592],[100,22629],[100,22659],[100,22692],[100,22725],[100,22759],[100,22792],[100,22825],[100,22858],[100,22891],[100,22925],[100,22958],[100,22992],[100,23025],[100,23060],[100,23092],[100,23125],[100,23158],[100,23192],[100,23227],[100,23259],[100,23293],[100,23328],[100,23361],[100,23391],[100,23426],[100,23461],[100,23492],[100,23525],[100,23559],[100,23592],[100,23627],[100,23662],[100,23696],[100,23728],[100,23759],[100,23791],[100,23825],[100,23858],[100,23892],[100,23929],[100,23965],[100,23997],[100,24024],[100,24058],[100,24092],[100,24124],[100,24158],[100,24191],[100,24226],[100,24260],[100,24294],[100,24329],[100,24358],[100,24391],[100,24427],[100,24458],[100,24491],[100,24526],[100,24557],[100,24591],[100,24625],[100,24658],[100,24694],[100,24734],[100,24759],[100,24791],[100,24826],[100,24857],[100,24891],[100,24930],[100,24959],[100,24991],[100,25033],[100,25057],[100,25091],[100,25126],[100,25160],[100,25191],[100,25225],[100,25262],[100,25300],[100,25334],[100,25367],[100,25399],[100,25424],[100,25457],[100,25491],[100,25524],[100,25559],[100,25591],[100,25629],[100,25664],[100,25697],[100,25734],[100,25765],[100,25792],[100,25824],[100,25859],[100,25891],[100,25924],[100,25957],[100,25990],[100,26024],[100,26057],[100,26090],[100,26127],[100,26157],[100,26193],[100,26224],[100,26257],[100,26290],[100,26324],[100,26360],[100,26390],[100,26427],[100,26457],[100,26490],[100,26524],[100,26557],[100,26590],[100,26626],[100,26657],[100,26690],[100,26729],[100,26757],[100,26790],[100,26823],[100,26857],[100,26890],[100,26924],[100,26957],[100,26990],[100,27024],[100,27061],[100,27090],[100,27124],[100,27157],[100,27191],[100,27224],[100,27257],[100,27290],[100,27326],[100,27357],[100,27391],[100,27423],[100,27457],[100,27494],[100,27525],[100,27557],[100,27590],[100,27626],[100,27659],[100,27692],[100,27733],[100,27762],[100,27795],[100,27828],[100,27859],[100,27890],[100,27924],[100,27959],[100,27990],[100,28025],[100,28061],[100,28093],[100,28130],[100,28165],[100,28196],[100,28225],[100,28257],[100,28290],[100,28324],[100,28359],[100,28396],[100,28427],[100,28458],[100,28498]]",692.2845,698.9893,99.94405136,5.4998,"[{""rating"":99.94405136308981,""responseTime"":5.499799999998913}]",space,6.1472,,698.9894,Definitely yes,100,698.9942,,,[],,0,2,2,2,1,audio/Narrative7Situation2.wav,audio/Narrative8Situation2.wav,audio/Narrative5Situation2.wav,audio/Narrative6Situation2.wav,3,3,3,3,,,,,,,,,,,,,,,,,,,,,,,,,,,,,,,,,,,,,,,
,,,,,6745731e75a88802a56be3ef,2025-07-07_22h50.03.609,group3.4_multiperson,2023.2.2,Linux x86_64,30.03003003,686c2ebf0248f13bef9af11f,686c84da4c2c8f51612b7ff5,,,,,,,,,,,,,,,,,,,,,,,,,,,,,698.9952,2,audio/Narrative6Situation3.wav,704.0056,,704.0057,716.6331,"[[100,8912],[100,8944],[100,8977],[100,9011],[100,9045],[100,9080],[100,9115],[100,9148],[100,9181],[100,9211],[100,9244],[100,9277],[100,9314],[100,9344],[100,9378],[100,9412],[100,9448],[100,9484],[100,9515],[100,9544],[100,9577],[100,9610],[100,9644],[100,9677],[100,9711],[100,9744],[100,9777],[100,9810],[100,9844],[100,9877],[100,9911],[100,9948],[100,9985],[100,10013],[100,10044],[100,10077],[100,10110],[100,10145],[100,10182],[100,10215],[99.9,10247]]",716.6333,721.3033,50.78138638,4.3309,"[{""rating"":50.78138637985561,""responseTime"":4.330900000000383}]",space,4.119,,721.3033,Definitely yes,100,721.3097,,,[],,0,3,3,3,1,audio/Narrative7Situation3.wav,audio/Narrative8Situation3.wav,audio/Narrative5Situation3.wav,audio/Narrative6Situation3.wav,8,4,3,5,,,,,,,,,,,,,,,,,,,,,,,,,,,,,,,,,,,,,,,
,,,,,6745731e75a88802a56be3ef,2025-07-07_22h50.03.609,group3.4_multiperson,2023.2.2,Linux x86_64,30.03003003,686c2ebf0248f13bef9af11f,686c84da4c2c8f51612b7ff5,,,,,,,,,,,,,,,,,,,,,,,,,,,,,721.311,2,audio/Narrative6Situation4.wav,723.3151,,723.3152,735.9441,[],735.9442,742.5656,99.76395434,6.2155,"[{""rating"":50.58510267182407,""responseTime"":3.0844000000004144},{""rating"":99.76395434333438,""responseTime"":6.21550000000002}]",space,6.087,,742.5658,Definitely yes,100,742.5711,,,[],,0,4,4,4,1,audio/Narrative7Situation4.wav,audio/Narrative8Situation4.wav,audio/Narrative5Situation4.wav,audio/Narrative6Situation4.wav,3,3,1,2,,,,,,,,,,,,,,,,,,,,,,,,,,,,,,,,,,,,,,,
,,,,,6745731e75a88802a56be3ef,2025-07-07_22h50.03.609,group3.4_multiperson,2023.2.2,Linux x86_64,30.03003003,686c2ebf0248f13bef9af11f,686c84da4c2c8f51612b7ff5,,,,,,,,,,,,,,,,,,,,,,,,,,,,,742.5721,2,audio/Narrative6Situation5.wav,744.5728,,744.5729,752.5541,[],752.5544,762.3196,99.35100071,9.3634,"[{""rating"":99.35100071052602,""responseTime"":9.363399999998364}]",space,9.2238,,762.3198,Not at all,0,762.3289,,,[],,0,5,5,5,1,audio/Narrative7Situation5.wav,audio/Narrative8Situation5.wav,audio/Narrative5Situation5.wav,audio/Narrative6Situation5.wav,5,2,5,2,,,,,,,,,,,,,,,,,,,,,,,,,,,,,,,,,,,,,,,
,,,,,6745731e75a88802a56be3ef,2025-07-07_22h50.03.609,group3.4_multiperson,2023.2.2,Linux x86_64,30.03003003,686c2ebf0248f13bef9af11f,686c84da4c2c8f51612b7ff5,,,,,,,,,,,,,,,,,,,,,,,,,,,,,762.3297,2,audio/Narrative6Situation6.wav,764.3335,,764.3335,775.413,[],775.4132,782.9652,99.67114637,7.5118,"[{""rating"":99.67114637317897,""responseTime"":6.746499999999969},{""rating"":99.67114637317897,""responseTime"":7.511800000000676}]",space,6.9999,,782.9653,Not at all,0,782.9695,,,[],,0,6,6,6,1,audio/Narrative7Situation6.wav,audio/Narrative8Situation6.wav,audio/Narrative5Situation6.wav,audio/Narrative6Situation6.wav,3,2,3,2,,,,,,,,,,,,,,,,,,,,,,,,,,,,,,,,,,,,,,,
,,,,,6745731e75a88802a56be3ef,2025-07-07_22h50.03.609,group3.4_multiperson,2023.2.2,Linux x86_64,30.03003003,686c2ebf0248f13bef9af11f,686c84da4c2c8f51612b7ff5,,,,,,,,,,,,,,,,,,,,,,,,,,,,,782.9702,2,audio/Narrative6Situation7.wav,787.9742,,787.9745,812.8168,"[[100,2283],[100,2319],[100,2349],[100,2382],[100,2418],[100,2450],[100,2482],[100,2519],[100,2548],[100,2584],[100,2615],[100,2649],[100,2684],[100,2718],[100,2750],[100,2787],[100,2822],[100,2861],[100,2902],[100,2932],[100,2966],[100,3004],[100,3044],[100,3075],[100,3111],[100,3146],[100,3170],[100,3198],[100,3232],[100,3265],[100,3305],[100,3340],[100,3375],[100,3404],[100,3431],[100,3464],[100,3498],[100,3532],[100,3569],[100,3604],[100,3640],[100,3677],[100,3707],[100,3734],[100,3765],[100,3798],[100,3831],[100,3865],[100,3900],[100,3939],[100,3969],[100,3998],[100,4034],[100,4071],[100,4108],[100,4142],[100,4179],[100,4210],[100,4238],[100,4268],[100,4308],[100,4340],[100,4373],[100,4402],[100,4432],[100,4464],[100,4498],[100,4531],[100,4566],[100,4599],[100,4632],[100,4668],[100,4704],[100,4738],[100,4770],[100,4798],[100,4833],[100,4865],[100,4898],[100,4931],[100,4964],[100,4997],[100,5031],[100,5064],[100,5101],[100,5133],[100,5164],[100,5198],[100,5231],[100,5264],[100,5297],[100,5334],[100,5365],[100,5398],[100,5430],[100,5465],[100,5500],[100,5534],[100,5564],[100,5598],[100,5631],[100,5665],[100,5698],[100,5732],[100,5773],[100,5803],[100,5839],[100,5865],[100,5898],[100,5936],[100,5963],[100,5997],[100,6030],[100,6064],[100,6097],[100,6139],[100,6166],[100,6197],[100,6231],[100,6264],[100,6299],[100,6330],[100,6363],[100,6397],[100,6430],[100,6464],[100,6497],[100,6533],[100,6568],[100,6606],[100,6639],[100,6665],[100,6706],[100,6739],[100,6768],[100,6802],[100,6838],[100,6865],[100,6898],[100,6930],[100,6963],[100,6999],[100,7030],[100,7066],[100,7099],[100,7130],[100,7163],[100,7197],[100,7230],[100,7266],[100,7297],[100,7332],[100,7364],[100,7396],[100,7430],[100,7463],[100,7499],[100,7530],[100,7563],[100,7596],[100,7630],[100,7664],[100,7697],[100,7730],[100,7763],[100,7796],[100,7830],[100,7863],[100,7896],[100,7930],[100,7963],[100,7997],[100,8030],[100,8063],[100,8096],[100,8129],[100,8163],[100,8197],[100,8230],[100,8264],[100,8298],[100,8330],[100,8364],[100,8398],[100,8429],[100,8463],[100,8496],[100,8529],[100,8563],[100,8596],[100,8631],[100,8664],[100,8696],[100,8730],[100,8763],[100,8796],[100,8833],[100,8871],[100,8898],[100,8929],[100,8963],[100,8996],[100,9030],[100,9063],[100,9097],[100,9133],[100,9165],[100,9200],[100,9229],[100,9264],[100,9297],[100,9330],[100,9363],[100,9396],[100,9431],[100,9462],[100,9496],[100,9529],[100,9562],[100,9600],[100,9631],[100,9662],[100,9696],[100,9729],[100,9765],[100,9795],[100,9829],[100,9862],[100,9896],[100,9931],[100,9963],[100,9997],[100,10038],[100,10070],[100,10096],[100,10136],[100,10169],[100,10200],[100,10234],[100,10262],[100,10296],[100,10329],[100,10362],[100,10396],[100,10429],[100,10462],[100,10496],[100,10529],[100,10562],[100,10601],[100,10636],[100,10669],[100,10703],[100,10732],[100,10762],[100,10795],[100,10829],[100,10863],[100,10898],[100,10929],[100,10963],[100,11004],[100,11031],[100,11070],[100,11103],[100,11133],[100,11163],[100,11204],[100,11234],[100,11264],[100,11299],[100,11337],[100,11362],[100,11395],[100,11428],[100,11463],[100,11495],[100,11529],[100,11562],[100,11598],[100,11629],[100,11665],[100,11702],[100,11729],[100,11762],[100,11796],[100,11828],[100,11862],[100,11901],[100,11933],[100,11971],[100,12005],[100,12037],[100,12071],[100,12104],[100,12138],[100,12166],[100,12199],[100,12228],[100,12262],[100,12295],[100,12330],[100,12362],[100,12395],[100,12428],[100,12461],[100,12495],[100,12530],[100,12562],[100,12595],[100,12629],[100,12665],[100,12695],[100,12728],[100,12765],[100,12795],[100,12830],[100,12864],[100,12895],[100,12932],[100,12962],[100,12995],[100,13028],[100,13061],[100,13102],[100,13129],[100,13161],[100,13197],[100,13228],[100,13270],[100,13296],[100,13328],[100,13361],[100,13394],[100,13428],[100,13462],[100,13494],[100,13530],[100,13563],[100,13595],[100,13628],[100,13661],[100,13694],[100,13728],[100,13761],[100,13798],[100,13830],[100,13865],[100,13901],[100,13931],[100,13961],[100,13994],[100,14028],[100,14061],[100,14095],[100,14132],[100,14161],[100,14194],[100,14227],[100,14261],[100,14294],[100,14327],[100,14361],[100,14395],[100,14427],[100,14461],[100,14495],[100,14527],[100,14563],[100,14599],[100,14630],[100,14661],[100,14695],[100,14735],[100,14764],[100,14797],[100,14828],[100,14864],[100,14895],[100,14928],[100,14961],[100,15003],[100,15028],[100,15061],[100,15094],[100,15128],[100,15161],[100,15194],[100,15229],[100,15261],[100,15294],[100,15327],[100,15361],[100,15394],[100,15429],[100,15460],[100,15494],[100,15527],[100,15560],[100,15593],[100,15628],[100,15664],[100,15694],[100,15730],[100,15760],[100,15794],[100,15827],[100,15870],[100,15904],[100,15935],[100,15961],[100,15994],[100,16028],[100,16064],[100,16095],[100,16127],[100,16161],[100,16194],[100,16227],[100,16260],[100,16294],[100,16327],[100,16360],[100,16393],[100,16427],[100,16460],[100,16493],[100,16527],[100,16561],[100,16593],[100,16628],[100,16662],[100,16694],[100,16727],[100,16760],[100,16793],[100,16827],[100,16864],[100,16901],[100,16937],[100,16963],[100,16996],[100,17027],[100,17060],[100,17094],[100,17127],[100,17162],[100,17195],[100,17227],[100,17260],[100,17296],[100,17326],[100,17360],[100,17393],[100,17426],[100,17460],[100,17493],[100,17528],[100,17560],[100,17593],[100,17627],[100,17660],[100,17693],[100,17727],[100,17768],[100,17798],[100,17833],[100,17865],[100,17893],[100,17935],[100,17960],[100,17993],[100,18027],[100,18060],[100,18097],[100,18134],[100,18166],[100,18197],[100,18235],[100,18264],[100,18293],[100,18326],[100,18361],[100,18393],[100,18426],[100,18459],[100,18493],[100,18526],[100,18562],[100,18593],[100,18628],[100,18659],[100,18692],[100,18727],[100,18759],[100,18792],[100,18826],[100,18863],[100,18892],[100,18926],[100,18959],[100,18993],[100,19028],[100,19061],[100,19096],[100,19127],[100,19159],[100,19193],[100,19226],[100,19260],[100,19292],[100,19328],[100,19359],[100,19392],[100,19427],[100,19459],[100,19492],[100,19525],[100,19559],[100,19593],[100,19627],[100,19659],[100,19693],[100,19726],[100,19759],[100,19795],[100,19828],[100,19868],[100,19892],[100,19928],[100,19961],[100,19992],[100,20026],[100,20059],[100,20092],[100,20132],[100,20159],[100,20193],[100,20226],[100,20259],[100,20294],[100,20327],[100,20359],[100,20396],[100,20432],[100,20464],[100,20500],[100,20527],[100,20558],[100,20592],[100,20625],[100,20658],[100,20694],[100,20728],[100,20762],[100,20791],[100,20826],[100,20860],[100,20892],[100,20925],[100,20958],[100,20995],[100,21028],[100,21058],[100,21095],[100,21127],[100,21161],[100,21193],[100,21227],[100,21259],[100,21295],[100,21325],[100,21360],[100,21392],[100,21425],[100,21459],[100,21492],[100,21526],[100,21561],[100,21593],[100,21625],[100,21658],[100,21694],[100,21729],[100,21767],[100,21800],[100,21834],[100,21859],[100,21894],[100,21925],[100,21967],[100,21996],[100,22025],[100,22058],[100,22092],[100,22128],[100,22158],[100,22194],[100,22227],[100,22263],[100,22296],[100,22329],[100,22359],[100,22391],[100,22425],[100,22458],[100,22491],[100,22524],[100,22558],[100,22592],[100,22625],[100,22658],[100,22692],[100,22725],[100,22758],[100,22792],[100,22825],[100,22859],[100,22894],[100,22925],[100,22958],[100,22991],[100,23025],[100,23060],[100,23092],[100,23124],[100,23159],[100,23191],[100,23226],[100,23258],[100,23292],[100,23331],[100,23358],[100,23391],[100,23425],[100,23461],[100,23491],[100,23525],[100,23558],[100,23591],[100,23625],[100,23659],[100,23691],[100,23724],[100,23759],[100,23791],[100,23825],[100,23858],[100,23891],[100,23925],[100,23958],[100,23991],[100,24025],[100,24058],[100,24091],[100,24125],[100,24157],[100,24191],[100,24224],[100,24258],[100,24296],[100,24326],[100,24358],[100,24391],[100,24424],[100,24458],[100,24494],[100,24525],[100,24558],[100,24591],[100,24624],[100,24657],[100,24691],[100,24725],[100,24758],[100,24791],[100,24825]]",812.8177,815.352,99.37375218,2.5324,"[{""rating"":99.3737521789379,""responseTime"":2.532400000002326}]",space,0.3467,,815.3522,Definitely yes,100,816.8548,99.7547186,1.0453,"[{""rating"":99.75471859873151,""responseTime"":1.0453000000006796}]",space,0,7,7,7,1,audio/Narrative7Situation7.wav,audio/Narrative8Situation7.wav,audio/Narrative5Situation7.wav,audio/Narrative6Situation7.wav,5,3,4,5,,,0.9542,,,,,,,,,,,,,,,,,,,,,,,,,,,,,,,,,,,,
,,,,,6745731e75a88802a56be3ef,2025-07-07_22h50.03.609,group3.4_multiperson,2023.2.2,Linux x86_64,30.03003003,686c2ebf0248f13bef9af11f,686c84da4c2c8f51612b7ff5,,,,,,,,,,,,,,,,,,,,,,,,,,,,,816.856,2,audio/Narrative6Situation8.wav,821.8631,,821.8631,828.7283,[],828.7287,834.6112,99.9528044,4.5965,"[{""rating"":99.95280440327092,""responseTime"":4.5965000000001055}]",space,5.3384,,834.6114,Definitely yes,100,834.6169,,,[],,0,8,8,8,1,audio/Narrative7Situation8.wav,audio/Narrative8Situation8.wav,audio/Narrative5Situation8.wav,audio/Narrative6Situation8.wav,2,3,3,5,,,,,,,,,,,,,,,,,,,,,,,,,,,,,,,,,,,,,,,
,,,,,6745731e75a88802a56be3ef,2025-07-07_22h50.03.609,group3.4_multiperson,2023.2.2,Linux x86_64,30.03003003,686c2ebf0248f13bef9af11f,686c84da4c2c8f51612b7ff5,,,,,,,,,,,,,,,,,,,,,,,,,,,,,834.6178,2,audio/Narrative6Situation9.wav,838.623,,838.6231,851.3756,[],851.3757,856.4175,98.22135973,4.4067,"[{""rating"":98.22135973259596,""responseTime"":4.406699999999091}]",space,3.265,,856.4176,Definitely yes,100,856.4249,,,[],,0,9,9,9,1,audio/Narrative7Situation9.wav,audio/Narrative8Situation9.wav,audio/Narrative5Situation9.wav,audio/Narrative6Situation9.wav,2,3,3,4,,,,,,,,,,,,,,,,,,,,,,,,,,,,,,,,,,,,,,,
,,,,,6745731e75a88802a56be3ef,2025-07-07_22h50.03.609,group3.4_multiperson,2023.2.2,Linux x86_64,30.03003003,686c2ebf0248f13bef9af11f,686c84da4c2c8f51612b7ff5,,,,,,,,,,,,,,,,,,,,,,,,,,,,,856.4256,2,audio/Narrative5Situation1.wav,861.4316,,861.4316,874.7274,[],874.7276,879.11,85.42100388,2.9481,"[{""rating"":85.42100387659164,""responseTime"":2.6132999999970252},{""rating"":85.42100387659164,""responseTime"":2.948099999997794}]",space,3.8348,,879.1104,Not at all,0,879.1217,,,[],,0,10,10,10,1,audio/Narrative8Situation1.wav,audio/Narrative7Situation1.wav,audio/Narrative6Situation1.wav,audio/Narrative5Situation1.wav,5,2,2,5,,,,,,,,,,,,,,,,,,,,,,,,,,,,,,,,,,,,,,,
,,,,,6745731e75a88802a56be3ef,2025-07-07_22h50.03.609,group3.4_multiperson,2023.2.2,Linux x86_64,30.03003003,686c2ebf0248f13bef9af11f,686c84da4c2c8f51612b7ff5,,,,,,,,,,,,,,,,,,,,,,,,,,,,,879.124,2,audio/Narrative5Situation2.wav,882.1245,,882.1246,911.5811,[],911.5813,916.2631,99.80601399,4.2844,"[{""rating"":99.8060139886163,""responseTime"":3.9614999999998872},{""rating"":99.8060139886163,""responseTime"":4.284400000002279}]",space,4.1346,,916.2632,Definitely yes,100,916.2712,,,[],,0,11,11,11,1,audio/Narrative8Situation2.wav,audio/Narrative7Situation2.wav,audio/Narrative6Situation2.wav,audio/Narrative5Situation2.wav,3,3,3,3,,,,,,,,,,,,,,,,,,,,,,,,,,,,,,,,,,,,,,,
,,,,,6745731e75a88802a56be3ef,2025-07-07_22h50.03.609,group3.4_multiperson,2023.2.2,Linux x86_64,30.03003003,686c2ebf0248f13bef9af11f,686c84da4c2c8f51612b7ff5,,,,,,,,,,,,,,,,,,,,,,,,,,,,,916.2719,2,audio/Narrative5Situation3.wav,919.2793,,919.2795,933.1927,"[[100,13879]]",933.1928,937.2056,98.99753235,2.8787,"[{""rating"":98.99753235262484,""responseTime"":2.8787000000029366}]",space,3.4679,,937.2057,Not at all,0,937.2147,,,[],,0,12,12,12,1,audio/Narrative8Situation3.wav,audio/Narrative7Situation3.wav,audio/Narrative6Situation3.wav,audio/Narrative5Situation3.wav,4,8,5,3,,,,,,,,,,,,,,,,,,,,,,,,,,,,,,,,,,,,,,,
,,,,,6745731e75a88802a56be3ef,2025-07-07_22h50.03.609,group3.4_multiperson,2023.2.2,Linux x86_64,30.03003003,686c2ebf0248f13bef9af11f,686c84da4c2c8f51612b7ff5,,,,,,,,,,,,,,,,,,,,,,,,,,,,,937.2158,2,audio/Narrative5Situation4.wav,938.2212,,938.2213,958.6148,[],958.615,973.3009,99.89605445,12.4867,"[{""rating"":99.89605445342036,""responseTime"":12.486699999999246}]",space,14.1412,,973.301,Partially,50,973.3098,,,[],,0,13,13,13,1,audio/Narrative8Situation4.wav,audio/Narrative7Situation4.wav,audio/Narrative6Situation4.wav,audio/Narrative5Situation4.wav,3,3,2,1,,,,,,,,,,,,,,,,,,,,,,,,,,,,,,,,,,,,,,,
,,,,,6745731e75a88802a56be3ef,2025-07-07_22h50.03.609,group3.4_multiperson,2023.2.2,Linux x86_64,30.03003003,686c2ebf0248f13bef9af11f,686c84da4c2c8f51612b7ff5,,,,,,,,,,,,,,,,,,,,,,,,,,,,,973.3104,2,audio/Narrative5Situation5.wav,978.3242,,978.3243,993.7521,[],993.7525,999.7726,99.93822673,2.8141,"[{""rating"":99.93822672973404,""responseTime"":2.8141000000016447}]",space,5.4645,,999.7727,Definitely yes,100,999.7829,,,[],,0,14,14,14,1,audio/Narrative8Situation5.wav,audio/Narrative7Situation5.wav,audio/Narrative6Situation5.wav,audio/Narrative5Situation5.wav,2,5,2,5,,,,,,,,,,,,,,,,,,,,,,,,,,,,,,,,,,,,,,,
,,,,,6745731e75a88802a56be3ef,2025-07-07_22h50.03.609,group3.4_multiperson,2023.2.2,Linux x86_64,30.03003003,686c2ebf0248f13bef9af11f,686c84da4c2c8f51612b7ff5,,,,,,,,,,,,,,,,,,,,,,,,,,,,,999.7838,2,audio/Narrative5Situation6.wav,1002.7992,,1002.7994,1008.4807,[],1008.4809,1025.7907,99.20417812,16.8887,"[{""rating"":99.20417811557664,""responseTime"":16.888699999999062}]",space,16.7619,,1025.7911,Partially,50,1025.7999,,,[],,0,15,15,15,1,audio/Narrative8Situation6.wav,audio/Narrative7Situation6.wav,audio/Narrative6Situation6.wav,audio/Narrative5Situation6.wav,2,3,2,3,,,,,,,,,,,,,,,,,,,,,,,,,,,,,,,,,,,,,,,
,,,,,6745731e75a88802a56be3ef,2025-07-07_22h50.03.609,group3.4_multiperson,2023.2.2,Linux x86_64,30.03003003,686c2ebf0248f13bef9af11f,686c84da4c2c8f51612b7ff5,,,,,,,,,,,,,,,,,,,,,,,,,,,,,1025.8007,2,audio/Narrative5Situation7.wav,1029.8148,,1029.8148,1050.8586,"[[99.3,8907],[99.3,8941],[99.3,8971],[99.3,9006],[99.4,9038],[99.5,9072],[99.6,9108],[99.7,9139],[100,9171],[100,9216],[100,9248],[100,9275],[100,9307],[100,9346],[100,9380],[100,9407],[100,9438],[100,9471],[100,9504],[100,9537],[100,9571],[100,9604],[100,9638],[100,9672],[100,9704],[100,9738],[100,9780],[100,9813],[100,9839],[100,9871],[100,9904],[100,9937],[100,9971],[100,10004],[100,10037],[100,10071],[100,10104],[100,10137],[100,10171],[100,10204],[100,10237],[100,10271],[100,10304],[100,10346],[100,10372],[100,10404],[100,10438],[100,10471],[100,10516],[100,10544],[100,10570],[100,10604],[100,10637],[100,10670],[100,10704],[100,10746],[100,10772],[100,10804],[100,10837],[100,10870],[100,10904],[100,10937],[100,10970],[100,11003],[100,11040],[100,11070],[100,11104],[100,11137],[100,11170],[100,11203],[100,11237],[100,11270],[100,11304],[100,11337],[100,11379],[100,11404],[100,11437],[100,11470],[100,11507],[100,11537],[100,11570],[100,11611],[100,11639],[99.9,11673],[99.8,11704],[99.6,11739],[99.2,11772],[98.8,11807],[98.2,11839],[100,12572],[100,12604],[100,12637],[100,12672],[100,12705],[100,12736],[100,12770],[100,12804],[100,12837],[100,12875],[100,12904],[100,12937],[100,12972],[100,13003],[100,13037],[100,13070],[100,13103],[100,13141],[100,13170],[100,13207],[100,13245],[100,13279],[100,13313],[100,13345],[100,13379],[100,13413],[100,13445],[100,13479],[100,13512],[100,13539],[100,13569],[100,13603],[100,13637],[100,13669],[100,13703],[100,13736],[100,13769],[100,13803],[100,13836],[100,13870],[100,13903],[100,13945],[100,13979],[100,14012],[100,14045],[100,14079],[100,14111],[100,14144],[100,14169],[100,14202],[100,14236],[100,14278],[100,14311],[100,14345],[100,14377],[100,14412],[100,14445],[100,14480],[100,14511],[100,14538],[100,14579],[100,14612],[100,14635],[100,14669],[100,14702],[100,14736],[100,14769],[100,14803],[100,14835],[100,14869],[100,14902],[100,14935],[100,14971],[100,15002],[100,15036],[100,15071],[100,15102],[100,15135],[100,15169],[100,15202],[100,15237],[100,15269],[100,15302],[100,15336],[100,15370],[100,15410],[100,15435],[100,15469],[100,15502],[100,15536],[100,15569],[100,15602],[100,15636],[100,15668],[100,15703],[100,15735],[100,15769],[100,15802],[100,15835],[100,15869],[100,15902],[100,15935],[100,15969],[100,16002],[100,16035],[100,16069],[100,16109],[100,16136],[100,16168],[100,16202],[100,16235],[100,16268],[100,16302],[100,16335],[100,16368],[100,16403],[100,16435],[100,16468],[100,16502],[100,16536],[100,16568],[100,16602],[100,16635],[100,16668],[100,16702],[100,16735],[100,16768],[100,16801],[100,16835],[100,16868],[100,16902],[100,16935],[100,16968],[100,17001],[100,17035],[100,17068],[100,17109],[100,17140],[100,17169],[100,17201],[100,17235],[100,17269],[100,17302],[100,17335],[100,17368],[100,17401],[100,17435],[100,17468],[100,17502],[100,17535],[100,17571],[100,17601],[100,17634],[100,17676],[100,17711],[100,17745],[100,17777],[100,17809],[100,17844],[100,17876],[100,17910],[100,17944],[100,17977],[100,18010],[100,18044],[100,18077],[100,18111],[100,18143],[100,18177],[100,18210],[100,18238],[100,18277],[100,18310],[100,18344],[100,18376],[100,18410],[100,18442],[100,18476],[100,18501],[100,18534],[100,18567],[100,18601],[100,18635],[100,18668],[100,18709],[100,18738],[100,18768],[100,18801],[100,18834],[100,18867],[100,18901],[100,18934],[100,18967],[100,19001],[100,19035],[100,19076],[100,19110],[100,19144],[100,19176],[100,19210],[100,19244],[100,19276],[100,19310],[100,19346],[100,19376],[100,19410],[100,19444],[100,19476],[100,19510],[100,19542],[100,19568],[100,19601],[100,19634],[100,19668],[100,19700],[100,19734],[100,19767],[100,19800],[100,19835],[100,19867],[100,19901],[100,19933],[100,19967],[100,20000],[100,20034],[100,20067],[100,20102],[100,20134],[100,20168],[100,20202],[100,20234],[100,20267],[100,20309],[100,20338],[100,20367],[100,20400],[100,20434],[100,20467],[100,20500],[100,20534],[100,20567],[100,20600],[100,20634],[100,20667],[100,20701],[100,20733],[100,20767],[100,20801],[100,20834],[100,20876],[100,20910],[100,20942],[100,20970],[100,21011],[100,21043]]",1050.8589,1055.7019,99.85080896,2.2223,"[{""rating"":99.85080895895484,""responseTime"":2.222299999996949}]",space,4.3032,,1055.7019,Not at all,0,1055.7097,,,[],,0,16,16,16,1,audio/Narrative8Situation7.wav,audio/Narrative7Situation7.wav,audio/Narrative6Situation7.wav,audio/Narrative5Situation7.wav,3,5,5,4,,,,,,,,,,,,,,,,,,,,,,,,,,,,,,,,,,,,,,,
,,,,,6745731e75a88802a56be3ef,2025-07-07_22h50.03.609,group3.4_multiperson,2023.2.2,Linux x86_64,30.03003003,686c2ebf0248f13bef9af11f,686c84da4c2c8f51612b7ff5,,,,,,,,,,,,,,,,,,,,,,,,,,,,,1055.7103,2,audio/Narrative5Situation8.wav,1058.7129,,1058.713,1067.5443,[],1067.5445,1090.0858,99.01629346,21.0673,"[{""rating"":99.01629346448358,""responseTime"":21.067299999997203}]",space,21.9959,,1090.086,Not at all,0,1090.0914,,,[],,0,17,17,17,1,audio/Narrative8Situation8.wav,audio/Narrative7Situation8.wav,audio/Narrative6Situation8.wav,audio/Narrative5Situation8.wav,3,2,5,3,,,,,,,,,,,,,,,,,,,,,,,,,,,,,,,,,,,,,,,
,,,,,6745731e75a88802a56be3ef,2025-07-07_22h50.03.609,group3.4_multiperson,2023.2.2,Linux x86_64,30.03003003,686c2ebf0248f13bef9af11f,686c84da4c2c8f51612b7ff5,,,,,,,,,,,,,,,,,,,,,,,,,,,,,1090.0921,2,audio/Narrative5Situation9.wav,1093.1027,,1093.1028,1132.6539,"[[98.4,23724],[98.5,23759],[98.5,23789],[98.5,23823],[98.5,23856],[98.5,23890],[98.5,23923],[98.5,23956],[98.5,23989],[98.5,24022],[98.5,24056],[98.5,24089],[98.5,24122],[98.5,24155],[98.5,24189],[98.5,24222],[98.5,24255],[98.5,24289],[98.5,24322],[98.5,24356],[98.5,24389],[98.5,24422],[98.5,24455],[98.6,24490],[98.9,24523],[98.9,24556],[98.9,24589],[98.9,24622],[98.9,24655],[98.9,24689],[98.9,24722],[98.9,24755],[98.9,24789],[98.8,24822],[98.8,24855],[98.8,24888],[98.8,24922],[98.8,24955],[98.8,24989],[98.8,25022],[98.8,25056],[98.8,25089],[98.8,25122],[98.8,25155],[98.8,25188],[98.8,25222],[98.8,25255],[98.8,25288],[98.8,25322],[98.8,25356],[98.8,25389],[98.8,25422],[98.8,25456],[98.8,25489],[98.8,25522],[98.8,25555],[98.8,25588],[98.8,25622],[98.8,25655],[98.8,25689],[98.8,25721],[98.8,25756],[98.8,25788],[98.8,25822],[98.8,25855],[98.8,25888],[98.8,25921],[98.8,25955],[98.8,25989],[98.8,26022],[98.8,26055],[98.8,26088],[98.8,26123],[98.8,26155],[98.8,26189],[98.8,26221],[98.8,26255],[98.8,26288],[98.8,26321],[98.8,26355],[98.8,26388],[98.8,26421],[98.8,26457],[98.8,26488],[98.8,26521],[98.8,26554],[98.8,26588],[98.8,26621],[98.8,26655],[98.8,26688],[98.8,26721],[98.8,26755],[98.8,26788],[98.8,26821],[98.8,26855],[98.8,26888],[98.8,26921],[98.8,26955],[98.8,26989],[98.8,27021],[98.8,27056],[98.8,27088],[98.8,27121],[98.8,27155],[98.8,27189],[98.8,27221],[98.8,27254],[98.8,27288],[98.8,27321],[98.8,27354],[98.8,27388],[98.8,27421],[98.8,27460],[98.8,27488],[98.8,27521],[98.8,27554],[98.8,27587],[98.8,27621],[98.8,27654],[98.8,27688],[98.8,27721],[98.8,27754],[98.8,27788],[98.8,27822],[98.8,27854],[98.8,27887],[98.8,27921],[98.8,27954],[98.8,27988],[98.8,28021],[98.8,28054],[98.8,28088],[98.8,28121],[98.8,28154],[98.8,28188],[98.8,28221],[98.8,28254],[98.8,28288],[98.8,28321],[98.8,28354],[98.8,28387],[98.8,28421],[98.8,28454],[98.8,28487],[98.8,28520],[98.8,28554],[98.8,28587],[98.8,28621],[98.8,28655],[98.8,28687],[98.8,28721],[98.8,28755],[98.8,28788],[98.8,28820],[98.8,28854],[98.8,28888],[98.8,28921],[98.8,28954],[98.8,28987],[98.8,29021],[98.8,29054],[98.8,29087],[98.8,29120],[98.8,29154],[98.8,29187],[98.8,29221],[98.8,29254],[98.8,29287],[98.8,29320],[98.8,29354],[98.8,29389],[98.8,29421],[98.8,29455],[98.8,29487],[98.8,29520],[98.8,29555],[98.8,29587],[98.8,29621],[98.8,29654],[98.8,29687],[98.8,29720],[98.8,29754],[98.8,29788],[98.8,29820],[98.8,29853],[98.8,29887],[98.8,29920],[98.8,29954],[98.8,29987],[98.8,30020],[98.8,30053],[98.8,30086],[98.8,30120],[98.8,30153],[98.8,30186],[98.8,30221],[98.8,30253],[98.8,30287],[98.8,30320],[98.8,30353],[98.8,30387],[98.8,30420],[98.8,30453],[98.8,30487],[98.8,30520],[98.8,30553],[98.8,30587],[98.8,30620],[98.8,30656],[98.8,30686],[98.8,30720],[98.8,30753],[98.8,30786],[98.8,30820],[98.8,30853],[98.8,30886],[98.8,30920],[98.8,30953],[98.8,30986],[98.8,31020],[98.8,31053],[98.8,31086],[98.8,31120],[98.8,31153],[98.8,31186],[98.8,31220],[98.8,31253],[98.8,31286],[98.8,31320],[98.8,31353],[98.8,31387],[98.8,31420],[98.8,31453],[98.8,31487],[98.8,31520],[98.8,31554],[98.8,31587],[98.8,31622],[98.8,31653],[98.8,31687],[98.8,31720],[98.8,31754],[98.8,31791],[98.8,31826],[98.8,31855],[98.8,31886],[98.8,31919],[98.8,31953],[98.8,31986],[98.8,32019],[98.8,32053],[98.8,32086],[98.8,32120],[98.8,32153],[98.8,32186],[98.8,32219],[98.8,32252],[98.8,32286],[98.8,32319],[98.8,32353],[98.8,32386],[98.8,32420],[98.8,32453],[98.8,32486],[98.8,32519],[98.8,32553],[98.8,32586],[98.8,32619],[98.8,32653],[98.8,32686],[98.8,32720],[98.8,32753],[98.8,32786],[98.8,32819],[98.8,32853],[98.8,32886],[98.8,32920],[98.8,32952],[98.8,32986],[98.8,33019],[98.8,33053],[98.8,33086],[98.8,33119],[98.8,33152],[98.8,33186],[98.8,33219],[98.8,33252],[98.8,33286],[98.8,33319],[98.8,33352],[98.8,33385],[98.8,33419],[98.8,33452],[98.8,33485],[98.8,33519],[98.8,33553],[98.8,33586],[98.8,33620],[98.8,33653],[98.8,33686],[98.8,33719],[98.8,33752],[98.8,33786],[98.8,33819],[98.8,33852],[98.8,33885],[98.8,33920],[98.8,33952],[98.8,33985],[98.8,34019],[98.8,34052],[98.8,34085],[98.8,34118],[98.8,34152],[98.8,34186],[98.8,34219],[98.8,34253],[98.8,34286],[98.8,34319],[98.8,34352],[98.8,34385],[98.8,34419],[98.8,34452],[98.8,34485],[98.8,34518],[98.8,34552],[98.8,34585],[98.8,34618],[98.8,34652],[98.8,34685],[98.8,34718],[98.8,34752],[98.8,34785],[98.8,34819],[98.8,34852],[98.8,34888],[98.8,34919],[98.8,34952],[98.8,34985],[98.8,35019],[98.8,35052],[98.8,35085],[98.8,35118],[98.8,35152],[98.8,35185],[98.8,35218],[98.8,35252],[98.8,35285],[98.8,35318],[98.8,35352],[98.8,35386],[98.8,35419],[98.8,35452],[98.8,35486],[98.8,35518],[98.8,35551],[98.8,35585],[98.8,35618],[98.8,35652],[98.8,35685],[98.8,35718],[98.8,35752],[98.8,35786],[98.8,35818],[98.8,35851],[98.8,35886],[98.8,35920],[98.8,35959],[98.8,35988],[98.8,36018],[98.8,36052],[98.8,36085],[98.8,36118],[98.8,36151],[98.8,36185],[98.8,36218],[98.8,36251],[98.8,36284],[98.8,36318],[98.8,36352],[98.8,36385],[98.8,36418],[98.8,36453],[98.8,36487],[98.8,36518],[98.8,36553],[98.8,36585],[98.8,36618],[98.8,36652],[98.8,36685],[98.8,36718],[98.8,36751],[98.8,36785],[98.8,36818],[98.8,36851],[98.8,36884],[98.8,36918],[98.8,36952],[98.8,36985],[98.8,37018],[98.8,37051],[98.8,37084],[98.8,37118],[98.8,37152],[98.8,37185],[98.8,37217],[98.8,37251],[98.8,37284],[98.8,37318],[98.8,37351],[98.8,37384],[98.8,37418],[98.8,37451],[98.8,37484],[98.8,37518],[98.8,37551],[98.8,37584],[98.8,37617],[98.8,37651],[98.8,37684],[98.8,37717],[98.8,37751],[98.8,37784],[98.8,37817],[98.8,37851],[98.8,37884],[98.8,37917],[98.8,37951],[98.8,37984],[98.8,38017],[98.8,38051],[98.8,38084],[98.8,38118],[98.8,38151],[98.8,38184],[98.8,38217],[98.8,38250],[98.8,38284],[98.8,38317],[98.8,38351],[98.8,38384],[98.8,38417],[98.8,38451],[98.8,38484],[98.8,38517],[98.8,38550],[98.8,38584],[98.8,38617],[98.8,38651],[98.8,38684],[98.8,38717],[98.8,38751],[98.8,38784],[98.8,38817],[98.8,38851],[98.8,38884],[98.8,38917],[98.8,38950],[98.8,38984],[98.8,39017],[98.8,39051],[98.8,39083],[98.8,39117],[98.8,39150],[98.8,39184],[98.8,39217],[98.8,39250],[98.8,39284],[98.8,39317],[98.8,39352],[98.8,39385],[98.8,39418],[98.8,39450],[98.8,39483],[98.8,39517],[98.8,39550]]",1132.6545,1137.6519,99.12746029,3.2993,"[{""rating"":99.12746029281293,""responseTime"":3.2993000000008124}]",space,4.4519,,1137.652,Partially,50,1137.6612,,,[],,0,18,18,18,1,audio/Narrative8Situation9.wav,audio/Narrative7Situation9.wav,audio/Narrative6Situation9.wav,audio/Narrative5Situation9.wav,3,2,4,3,,,,,,,,,,,,,,,,,,,,,,,,,,,,,,,,,,,,,,,
,,,,,6745731e75a88802a56be3ef,2025-07-07_22h50.03.609,group3.4_multiperson,2023.2.2,Linux x86_64,30.03003003,686c2ebf0248f13bef9af11f,686c84da4c2c8f51612b7ff5,,,,,,,,,,,,,,,,,,,,,,,,,,,,,,,,,,,,,,,,,,,,,,,,,,,,,,,,,,,,,,,,,,,,,,1137.6618,1185.8709,space,47.6883,,1185.8716,1189.7033,space,3.5013,,,,,,,,,,,,,,,,,,,,,,,,,,
