consent.started,consent.stopped,consentResponse.keys,consentResponse.rt,consentResponse.duration,participantID,date,expName,psychopyVersion,OS,frameRate,STUDY_ID,SESSION_ID,opening1.started,opening1.stopped,keyEndingOpening1.keys,keyEndingOpening1.rt,keyEndingOpening1.duration,volumeAdjust.started,volumeAdjust.stopped,endingAdjust.keys,endingAdjust.rt,endingAdjust.duration,opening2.started,opening2.stopped,keyEndingOpening.keys,keyEndingOpening.rt,keyEndingOpening.duration,mouse.x,mouse.y,mouse.leftButton,mouse.midButton,mouse.rightButton,mouse.time,instructionLoop.thisRepN,instructionLoop.thisTrialN,instructionLoop.thisN,instructionLoop.thisIndex,instructionLoop.ran,readyForAudio.started,readyForAudio.stopped,fixation.started,run,audio_played,fixation.stopped,endPractice.keys,audioPre.started,audioPre.stopped,continuousResponses_audio,intRating.started,intRating.stopped,intQuestionSlider.response,intQuestionSlider.rt,intQuestionSlider.history,confirmResponse.keys,confirmResponse.rt,confirmResponse.duration,catchQuestion.started,catch_label,catch_value,catchQuestion.stopped,catchQuestionSlider.response,catchQuestionSlider.rt,catchQuestionSlider.history,confirmResponse_2.keys,audioRunLoop.thisRepN,audioRunLoop.thisTrialN,audioRunLoop.thisN,audioRunLoop.thisIndex,audioRunLoop.ran,conditions1_1,conditions2_1,conditions1_2,conditions2_2,dur1_1,dur2_1,dur1_2,dur2_2,endPractice.rt,endPractice.duration,confirmResponse_2.rt,confirmResponse_2.duration,runIntervalBreak.started,runIntervalBreak.stopped,endingBreakKey.keys,endingBreakKey.rt,endingBreakKey.duration,connection.started,connection.stopped,connectionEnding.keys,connectionEnding.rt,connectionEnding.duration,readyForText.started,readyForText.stopped,textPre.started,run_dup,textPre.stopped,continuousResponses_text,textRunLoop.thisRepN,textRunLoop.thisTrialN,textRunLoop.thisN,textRunLoop.thisIndex,textRunLoop.ran,text1_1,text1_2,text2_1,text2_2,runBreakText.started,runBreakText.stopped,endingBreakKey_2.keys,endingBreakKey_2.rt,endingBreakKey_2.duration,ending.started,ending.stopped,endingEnding.keys,endingEnding.rt,endingEnding.duration
0.0004,50.2358,y,49.9055,,676334ae578dda6ef33f5886,2025-07-07_15h47.50.917,group3.4_multiperson,2023.2.2,Win32,60.24096386,686c2ebf0248f13bef9af11f,686c31beffa228c67224ea7e,,,,,,,,,,,,,,,,,,,,,,,,,,,,,,,,,,,,,,,,,,,,,,,,,,,,,,,,,,,,,,,,,,,,,,,,,,,,,,,,,,,,,,,,,,,,,,,,,,,,,,,,
,,,,,676334ae578dda6ef33f5886,2025-07-07_15h47.50.917,group3.4_multiperson,2023.2.2,Win32,60.24096386,686c2ebf0248f13bef9af11f,686c31beffa228c67224ea7e,50.237,69.8993,space,19.6225,,,,,,,,,,,,,,,,,,,,,,,,,,,,,,,,,,,,,,,,,,,,,,,,,,,,,,,,,,,,,,,,,,,,,,,,,,,,,,,,,,,,,,,,,,,,,,,,,,,,
,,,,,676334ae578dda6ef33f5886,2025-07-07_15h47.50.917,group3.4_multiperson,2023.2.2,Win32,60.24096386,686c2ebf0248f13bef9af11f,686c31beffa228c67224ea7e,,,,,,69.9,114.2725,space,44.0446,,,,,,,,,,,,,,,,,,,,,,,,,,,,,,,,,,,,,,,,,,,,,,,,,,,,,,,,,,,,,,,,,,,,,,,,,,,,,,,,,,,,,,,,,,,,,,,
,,,,,676334ae578dda6ef33f5886,2025-07-07_15h47.50.917,group3.4_multiperson,2023.2.2,Win32,60.24096386,686c2ebf0248f13bef9af11f,686c31beffa228c67224ea7e,,,,,,,,,,,114.2931,143.9282,space,29.6013,,[],[],[],[],[],[],0,0,0,0,1,,,,,,,,,,,,,,,,,,,,,,,,,,,,,,,,,,,,,,,,,,,,,,,,,,,,,,,,,,,,,,,,,,,,,,,,,,,,,,
,,,,,676334ae578dda6ef33f5886,2025-07-07_15h47.50.917,group3.4_multiperson,2023.2.2,Win32,60.24096386,686c2ebf0248f13bef9af11f,686c31beffa228c67224ea7e,,,,,,,,,,,143.9304,206.6976,space,62.5309,,[],[],[],[],[],[],1,0,1,0,1,,,,,,,,,,,,,,,,,,,,,,,,,,,,,,,,,,,,,,,,,,,,,,,,,,,,,,,,,,,,,,,,,,,,,,,,,,,,,,
,,,,,676334ae578dda6ef33f5886,2025-07-07_15h47.50.917,group3.4_multiperson,2023.2.2,Win32,60.24096386,686c2ebf0248f13bef9af11f,686c31beffa228c67224ea7e,,,,,,,,,,,206.6987,248.1067,space,41.3239,,[],[],[],[],[],[],2,0,2,0,1,,,,,,,,,,,,,,,,,,,,,,,,,,,,,,,,,,,,,,,,,,,,,,,,,,,,,,,,,,,,,,,,,,,,,,,,,,,,,,
,,,,,676334ae578dda6ef33f5886,2025-07-07_15h47.50.917,group3.4_multiperson,2023.2.2,Win32,60.24096386,686c2ebf0248f13bef9af11f,686c31beffa228c67224ea7e,,,,,,,,,,,248.108,305.2506,space,57.1028,,[],[],[],[],[],[],3,0,3,0,1,,,,,,,,,,,,,,,,,,,,,,,,,,,,,,,,,,,,,,,,,,,,,,,,,,,,,,,,,,,,,,,,,,,,,,,,,,,,,,
,,,,,676334ae578dda6ef33f5886,2025-07-07_15h47.50.917,group3.4_multiperson,2023.2.2,Win32,60.24096386,686c2ebf0248f13bef9af11f,686c31beffa228c67224ea7e,,,,,,,,,,,305.2515,333.8894,space,28.6123,,[],[],[],[],[],[],4,0,4,0,1,,,,,,,,,,,,,,,,,,,,,,,,,,,,,,,,,,,,,,,,,,,,,,,,,,,,,,,,,,,,,,,,,,,,,,,,,,,,,,
,,,,,676334ae578dda6ef33f5886,2025-07-07_15h47.50.917,group3.4_multiperson,2023.2.2,Win32,60.24096386,686c2ebf0248f13bef9af11f,686c31beffa228c67224ea7e,,,,,,,,,,,333.8906,365.7249,space,31.7983,,[],[],[],[],[],[],5,0,5,0,1,,,,,,,,,,,,,,,,,,,,,,,,,,,,,,,,,,,,,,,,,,,,,,,,,,,,,,,,,,,,,,,,,,,,,,,,,,,,,,
,,,,,676334ae578dda6ef33f5886,2025-07-07_15h47.50.917,group3.4_multiperson,2023.2.2,Win32,60.24096386,686c2ebf0248f13bef9af11f,686c31beffa228c67224ea7e,,,,,,,,,,,,,,,,,,,,,,,,,,,365.7327,368.3066,368.368,1,audio/Narrative13Situation2.wav,370.371,,370.3716,400.1424,"[[999,3],[999,131],[999,214],[999,298],[999,381],[999,464],[999,548],[999,631],[999,714],[999,798],[999,881],[999,964],[999,1047],[999,1130],[999,1213],[999,1297],[999,1380],[999,1463],[999,1546],[999,1629],[999,1713],[999,1796],[999,1880],[999,1963],[999,2052],[999,2130],[999,2213],[999,2301],[999,2385],[999,2467],[999,2552],[999,2629],[999,2712],[999,2801],[999,2879],[999,2962],[999,3045],[999,3128],[999,3212],[999,3295],[999,3378],[999,3461],[999,3545],[999,3628],[999,3715],[999,3795],[999,3883],[999,3961],[999,4044],[999,4128],[999,4211],[999,4294],[999,4382],[999,4461],[999,4544],[999,4627],[999,4710],[999,4794],[999,4882],[999,4961],[999,5043],[999,5133],[999,5215],[999,5293],[999,5382],[999,5463],[999,5543],[999,5631],[999,5710],[999,5792],[999,5881],[999,5959],[999,6042],[999,6131],[999,6214],[999,6292],[999,6375],[999,6458],[999,6541],[999,6625],[999,6708],[999,6794],[999,6874],[999,6958],[999,7045],[999,7125],[999,7213],[999,7291],[999,7379],[999,7464],[999,7546],[999,7624],[999,7712],[999,7791],[999,7874],[999,7957],[999,8040],[999,8124],[999,8207],[999,8290],[999,8379],[999,8463],[999,8540],[999,8623],[999,8712],[999,8790],[999,8878],[999,8962],[999,9039],[999,9123],[999,9212],[999,9289],[999,9372],[999,9456],[999,9539],[999,9627],[999,9711],[999,9789],[999,9872],[999,9955],[999,10039],[999,10122],[999,10205],[999,10288],[999,10372],[999,10455],[999,10538],[999,10621],[999,10704],[999,10793],[999,10871],[999,10954],[999,11038],[999,11121],[999,11209],[999,11287],[999,11370],[999,11454],[999,11537],[999,11625],[999,11709],[999,11793],[999,11870],[999,11953],[999,12042],[999,12120],[999,12203],[999,12291],[999,12375],[999,12452],[999,12536],[999,12619],[999,12702],[999,12791],[999,12869],[999,12957],[999,13035],[999,13119],[999,13206],[999,13292],[999,13369],[999,13452],[999,13535],[999,13618],[999,13701],[999,13785],[999,13872],[999,13951],[999,14035],[999,14118],[999,14201],[999,14289],[999,14368],[999,14451],[999,14534],[999,14623],[999,14700],[999,14784],[999,14867],[999,14950],[999,15033],[999,15117],[999,15200],[999,15289],[999,15366],[999,15450],[999,15538],[999,15623],[999,15700],[999,15783],[999,15871],[999,15950],[999,16037],[999,16116],[999,16199],[999,16282],[999,16366],[999,16449],[999,16532],[999,16620],[999,16699],[999,16782],[999,16865],[999,16948],[999,17031],[999,17115],[999,17198],[999,17281],[999,17365],[999,17448],[999,17531],[999,17614],[999,17703],[999,17781],[999,17869],[999,17947],[999,18030],[999,18114],[999,18197],[999,18281],[999,18370],[999,18452],[999,18530],[999,18614],[999,18697],[999,18780],[999,18864],[999,18947],[999,19029],[999,19118],[999,19196],[999,19285],[999,19363],[999,19446],[999,19529],[999,19612],[999,19696],[999,19779],[999,19866],[999,19951],[999,20029],[999,20112],[999,20195],[999,20278],[999,20361],[999,20445],[999,20528],[999,20611],[999,20695],[999,20783],[999,20867],[999,20945],[999,21032],[999,21111],[999,21194],[999,21282],[999,21361],[999,21449],[999,21532],[999,21610],[999,21694],[999,21782],[999,21865],[999,21944],[999,22027],[999,22110],[999,22193],[999,22282],[999,22360],[999,22443],[999,22526],[999,22609],[999,22693],[999,22781],[999,22859],[999,22943],[999,23029],[999,23109],[999,23192],[999,23281],[999,23359],[999,23442],[999,23525],[999,23608],[999,23695],[999,23775],[999,23858],[999,23941],[999,24025],[999,24108],[999,24191],[999,24274],[999,24358],[999,24441],[999,24524],[999,24607],[999,24691],[999,24774],[999,24857],[999,24941],[999,25030],[999,25112],[999,25190],[999,25274],[999,25357],[999,25440],[999,25523],[999,25613],[999,25690],[999,25773],[999,25862],[999,25940],[999,26028],[999,26111],[999,26189],[999,26272],[999,26356],[999,26444],[999,26522],[999,26605],[999,26689],[999,26777],[999,26861],[999,26939],[999,27022],[999,27105],[999,27188],[999,27271],[999,27355],[999,27438],[999,27521],[999,27610],[999,27688],[999,27771],[999,27855],[999,27938],[999,28021],[999,28104],[999,28187],[999,28271],[999,28354],[999,28437],[999,28521],[999,28604],[999,28687],[999,28770],[999,28853],[999,28943],[999,29020],[999,29103],[999,29187],[999,29270],[999,29353],[999,29441],[999,29519],[999,29602],[999,29686],[999,29769]]",400.143,422.4097,99.63396779,6.1309,"[{""rating"":99.63396778916544,""responseTime"":6.130899999998519}]",space,21.7138,,422.4105,Definitely yes,100,422.4286,,,[],,0,0,0,0,1,audio/Narrative13Situation2.wav,audio/Narrative13Situation2.wav,audio/Narrative13Situation2.wav,audio/Narrative13Situation2.wav,2,2,2,2,,,,,,,,,,,,,,,,,,,,,,,,,,,,,,,,,,,,,,,
,,,,,676334ae578dda6ef33f5886,2025-07-07_15h47.50.917,group3.4_multiperson,2023.2.2,Win32,60.24096386,686c2ebf0248f13bef9af11f,686c31beffa228c67224ea7e,,,,,,,,,,,,,,,,,,,,,,,,,,,,,422.4297,1,audio/Narrative7Situation1.wav,427.415,space,427.4152,483.3103,"[[999,4],[999,98],[999,182],[999,265],[999,348],[999,432],[999,515],[999,598],[999,688],[999,765],[999,848],[999,936],[999,1014],[999,1098],[999,1184],[999,1264],[999,1352],[999,1430],[999,1514],[999,1597],[999,1680],[999,1769],[999,1852],[999,1930],[999,2017],[999,2097],[999,2185],[999,2268],[999,2346],[999,2430],[999,2519],[999,2596],[999,2680],[999,2766],[999,2846],[999,2934],[999,3013],[999,3096],[999,3184],[999,3262],[999,3346],[999,3428],[999,3512],[999,3601],[999,3683],[999,3762],[999,3845],[999,3928],[999,4012],[999,4095],[999,4183],[999,4261],[999,4344],[999,4428],[999,4511],[999,4594],[999,4678],[999,4761],[999,4844],[999,4927],[999,5010],[999,5099],[999,5177],[999,5260],[999,5344],[999,5427],[999,5513],[999,5595],[999,5676],[999,5759],[999,5842],[999,5926],[999,6009],[999,6099],[999,6176],[999,6259],[999,6348],[999,6426],[999,6514],[999,6597],[999,6676],[999,6758],[999,6848],[999,6925],[999,7008],[999,7092],[999,7175],[999,7258],[999,7345],[999,7425],[999,7508],[999,7596],[999,7679],[999,7758],[999,7841],[999,7924],[999,8007],[999,8091],[999,8174],[999,8257],[999,8341],[999,8429],[999,8507],[999,8590],[999,8674],[999,8757],[999,8840],[999,8928],[999,9006],[999,9090],[999,9173],[999,9256],[999,9340],[999,9423],[999,9506],[999,9589],[999,9673],[999,9756],[999,9844],[999,9922],[999,10005],[999,10089],[999,10178],[999,10255],[999,10339],[999,10422],[999,10505],[999,10592],[999,10672],[999,10760],[999,10838],[999,10921],[999,11004],[999,11088],[999,11170],[999,11254],[999,11337],[999,11421],[999,11504],[999,11587],[999,11670],[999,11759],[999,11837],[999,11920],[999,12004],[999,12091],[999,12170],[999,12258],[999,12337],[999,12423],[999,12508],[999,12591],[999,12670],[999,12753],[999,12836],[999,12919],[999,13003],[999,13086],[999,13169],[999,13259],[999,13336],[999,13419],[999,13506],[999,13591],[999,13669],[999,13752],[999,13835],[999,13918],[999,14006],[999,14085],[999,14168],[999,14255],[999,14339],[999,14418],[999,14501],[999,14584],[999,14668],[999,14756],[999,14834],[999,14917],[999,15001],[999,15089],[999,15167],[999,15250],[999,15334],[999,15417],[999,15505],[999,15583],[999,15667],[999,15750],[999,15833],[999,15916],[999,16000],[999,16088],[999,16166],[999,16254],[999,16337],[999,16416],[999,16503],[999,16586],[999,16666],[999,16749],[999,16832],[999,16916],[999,17004],[999,17082],[999,17165],[999,17248],[999,17338],[999,17415],[999,17498],[999,17581],[999,17665],[999,17753],[999,17831],[999,17915],[999,17998],[999,18086],[999,18168],[999,18247],[999,18331],[999,18414],[999,18497],[999,18580],[999,18664],[999,18747],[999,18830],[999,18914],[999,18997],[999,19080],[999,19167],[999,19246],[999,19335],[999,19416],[999,19496],[999,19579],[999,19663],[999,19746],[999,19829],[999,19918],[999,19996],[999,20079],[999,20167],[999,20246],[999,20334],[999,20412],[999,20495],[999,20584],[999,20666],[999,20745],[999,20828],[999,20912],[999,20995],[999,21083],[999,21167],[999,21245],[999,21328],[999,21414],[999,21494],[999,21577],[999,21661],[999,21744],[999,21827],[999,21911],[999,21994],[999,22077],[999,22160],[999,22244],[999,22327],[999,22410],[999,22493],[999,22580],[999,22665],[999,22743],[999,22826],[999,22910],[999,22993],[999,23076],[999,23159],[999,23246],[999,23326],[999,23414],[999,23492],[999,23576],[999,23659],[999,23742],[999,23825],[999,23909],[999,23997],[999,24075],[999,24158],[999,24248],[999,24325],[999,24408],[999,24497],[999,24575],[999,24658],[999,24741],[999,24825],[999,24907],[999,24991],[999,25074],[999,25157],[999,25245],[999,25330],[999,25407],[999,25490],[999,25573],[999,25656],[999,25743],[999,25827],[999,25906],[999,25989],[999,26075],[999,26156],[999,26239],[999,26327],[999,26406],[999,26489],[999,26578],[999,26656],[999,26739],[999,26822],[999,26906],[999,26989],[999,27072],[999,27156],[999,27239],[999,27328],[999,27405],[999,27488],[999,27577],[999,27655],[999,27743],[999,27826],[999,27905],[999,27988],[999,28071],[999,28158],[999,28243],[999,28321],[999,28409],[999,28487],[999,28577],[999,28654],[999,28737],[999,28820],[999,28910],[999,28995],[999,29070],[999,29158],[999,29241],[999,29322],[999,29403],[999,29491],[999,29575],[999,29653],[999,29736],[999,29820],[999,29908],[999,29986],[999,30074],[999,30156],[999,30236],[999,30319],[999,30407],[999,30486],[999,30569],[999,30657],[999,30735],[999,30819],[999,30902],[999,30985],[999,31068],[999,31151],[999,31235],[999,31318],[999,31401],[999,31485],[999,31568],[999,31651],[999,31740],[999,31817],[999,31901],[999,31989],[999,32067],[999,32151],[999,32234],[999,32317],[999,32400],[999,32488],[999,32567],[999,32650],[999,32733],[999,32817],[999,32900],[999,32989],[999,33066],[999,33155],[999,33237],[999,33316],[999,33399],[999,33483],[999,33566],[999,33655],[999,33733],[999,33817],[999,33899],[999,33982],[999,34065],[999,34149],[999,34238],[999,34315],[999,34398],[999,34487],[999,34565],[999,34653],[999,34736],[999,34815],[999,34898],[999,34981],[999,35068],[999,35147],[999,35230],[999,35314],[999,35397],[999,35480],[999,35564],[999,35647],[999,35730],[999,35818],[999,35897],[999,35985],[999,36063],[999,36147],[999,36230],[999,36318],[999,36396],[999,36484],[999,36563],[999,36646],[999,36730],[999,36813],[999,36896],[999,36979],[999,37063],[999,37146],[999,37229],[999,37312],[999,37396],[999,37479],[999,37567],[999,37645],[999,37728],[999,37812],[999,37895],[999,37983],[999,38067],[999,38145],[999,38228],[999,38316],[999,38394],[999,38482],[999,38561],[999,38650],[999,38727],[999,38811],[999,38899],[999,38977],[999,39060],[999,39148],[999,39231],[999,39310],[999,39395],[999,39481],[999,39560],[999,39643],[999,39727],[999,39810],[999,39898],[999,39976],[999,40064],[999,40143],[999,40226],[999,40309],[999,40398],[999,40476],[999,40559],[999,40642],[999,40726],[999,40809],[999,40897],[999,40975],[999,41063],[999,41142],[999,41225],[999,41308],[999,41397],[999,41475],[999,41563],[999,41642],[999,41724],[999,41813],[999,41891],[999,41974],[999,42057],[999,42146],[999,42224],[999,42307],[999,42391],[999,42474],[999,42557],[999,42640],[999,42728],[999,42807],[999,42890],[999,42973],[999,43062],[999,43140],[999,43223],[999,43306],[999,43389],[999,43473],[999,43556],[999,43639],[999,43723],[999,43811],[999,43889],[999,43978],[999,44056],[999,44139],[999,44228],[999,44305],[999,44388],[999,44476],[999,44555],[999,44638],[999,44728],[999,44805],[999,44889],[999,44977],[999,45055],[999,45138],[999,45221],[999,45305],[999,45388],[999,45476],[999,45559],[999,45637],[999,45721],[999,45810],[999,45887],[999,45970],[999,46054],[999,46137],[999,46221],[999,46304],[999,46387],[999,46470],[999,46558],[999,46637],[999,46720],[999,46803],[999,46886],[999,46969],[999,47053],[999,47136],[999,47219],[999,47303],[999,47386],[999,47469],[999,47556],[999,47635],[999,47723],[999,47806],[999,47885],[999,47968],[999,48057],[999,48135],[999,48218],[999,48302],[999,48385],[999,48468],[999,48551],[999,48634],[999,48718],[999,48801],[999,48884],[999,48968],[999,49051],[999,49139],[999,49217],[999,49301],[999,49384],[999,49467],[999,49550],[999,49634],[999,49717],[999,49800],[999,49883],[999,49967],[999,50050],[999,50138],[999,50216],[999,50304],[999,50389],[999,50466],[999,50550],[999,50638],[999,50716],[999,50799],[999,50886],[999,50965],[999,51054],[999,51136],[999,51215],[999,51298],[999,51387],[999,51465],[999,51548],[999,51632],[999,51715],[999,51803],[999,51881],[999,51965],[999,52048],[999,52136],[999,52219],[999,52298],[999,52381],[999,52464],[999,52550],[999,52630],[999,52714],[999,52797],[999,52885],[999,52964],[999,53047],[999,53130],[999,53213],[999,53296],[999,53380],[999,53463],[999,53546],[999,53630],[999,53713],[999,53796],[999,53879],[999,53968],[999,54046],[999,54129],[999,54219],[999,54296],[999,54379],[999,54467],[999,54545],[999,54628],[999,54718],[999,54795],[999,54883],[999,54967],[999,55045],[999,55128],[999,55211],[999,55294],[999,55378],[999,55466],[999,55544],[999,55627],[999,55711],[999,55794],[999,55882]]",483.311,512.9146,50,26.7485,"[{""rating"":99.19472913616399,""responseTime"":9.414699999999243},{""rating"":50,""responseTime"":26.748500000000035}]",space,29.0662,,512.9149,Partially,50,512.9266,,,[],,0,1,1,1,1,audio/Narrative7Situation1.wav,audio/Narrative8Situation1.wav,audio/Narrative5Situation1.wav,audio/Narrative6Situation1.wav,2,5,5,2,4.9389,,,,,,,,,,,,,,,,,,,,,,,,,,,,,,,,,,,,,,
,,,,,676334ae578dda6ef33f5886,2025-07-07_15h47.50.917,group3.4_multiperson,2023.2.2,Win32,60.24096386,686c2ebf0248f13bef9af11f,686c31beffa228c67224ea7e,,,,,,,,,,,,,,,,,,,,,,,,,,,,,512.9275,1,audio/Narrative7Situation2.wav,515.9277,,515.9279,523.4382,"[[999,1],[999,83],[999,166],[999,249],[999,332],[999,416],[999,499],[999,582],[999,671],[999,749],[999,837],[999,915],[999,998],[999,1082],[999,1170],[999,1248],[999,1332],[999,1414],[999,1498],[999,1581],[999,1670],[999,1753],[999,1831],[999,1919],[999,1997],[999,2081],[999,2164],[999,2247],[999,2331],[999,2414],[999,2497],[999,2581],[999,2663],[999,2753],[999,2835],[999,2913],[999,2997],[999,3080],[999,3168],[999,3253],[999,3330],[999,3413],[999,3496],[999,3581],[999,3662],[999,3746],[999,3829],[999,3912],[999,3996],[999,4079],[999,4168],[999,4250],[999,4328],[999,4412],[999,4495],[999,4578],[999,4661],[999,4744],[999,4827],[999,4911],[999,4994],[999,5078],[999,5161],[999,5244],[999,5327],[999,5411],[999,5494],[999,5582],[999,5661],[999,5744],[999,5831],[999,5910],[999,5998],[999,6082],[999,6164],[999,6243],[999,6326],[999,6410],[999,6493],[999,6576],[999,6664],[999,6743],[999,6831],[999,6909],[999,6992],[999,7081],[999,7159],[999,7242],[999,7326],[999,7409],[999,7492]]",523.4386,547.8805,49.85358712,15.8808,"[{""rating"":49.85358711566617,""responseTime"":15.880800000000818}]",space,23.8948,,547.8807,Not at all,0,547.8939,,,[],,0,2,2,2,1,audio/Narrative7Situation2.wav,audio/Narrative8Situation2.wav,audio/Narrative5Situation2.wav,audio/Narrative6Situation2.wav,3,3,3,3,,,,,,,,,,,,,,,,,,,,,,,,,,,,,,,,,,,,,,,
,,,,,676334ae578dda6ef33f5886,2025-07-07_15h47.50.917,group3.4_multiperson,2023.2.2,Win32,60.24096386,686c2ebf0248f13bef9af11f,686c31beffa228c67224ea7e,,,,,,,,,,,,,,,,,,,,,,,,,,,,,547.8948,1,audio/Narrative7Situation3.wav,555.9057,,555.9057,565.1696,"[[999,1],[999,82],[999,166],[999,249],[999,333],[999,415],[999,498],[999,582],[999,672],[999,754],[999,837],[999,920],[999,1003],[999,1086],[999,1171],[999,1253],[999,1336],[999,1420],[999,1503],[999,1588],[999,1670],[999,1753],[999,1836],[999,1919],[999,2002],[999,2086],[999,2170],[999,2253],[999,2336],[999,2419],[999,2503],[999,2585],[999,2668],[999,2752],[999,2835],[999,2918],[999,3003],[999,3084],[999,3168],[999,3251],[999,3335],[999,3418],[999,3502],[999,3583],[999,3668],[999,3751],[999,3834],[999,3917],[999,4001],[999,4084],[999,4167],[999,4252],[999,4333],[999,4417],[999,4500],[999,4584],[999,4666],[999,4751],[999,4833],[999,4917],[999,5000],[999,5083],[999,5166],[999,5249],[999,5333],[999,5416],[999,5499],[999,5582],[999,5665],[999,5749],[999,5832],[999,5915],[999,5998],[999,6082],[999,6165],[999,6249],[999,6332],[999,6415],[999,6498],[999,6582],[999,6665],[999,6747],[999,6832],[999,6914],[999,6998],[999,7081],[999,7165],[999,7247],[999,7331],[999,7414],[999,7497],[999,7582],[999,7663],[999,7747],[999,7830],[999,7913],[999,7996],[999,8081],[999,8163],[999,8247],[999,8330],[999,8413],[999,8496],[999,8580],[999,8663],[999,8747],[999,8829],[999,8913],[999,8995],[999,9079],[999,9163],[999,9245]]",565.1699,586.6162,51.17130307,17.9134,"[{""rating"":51.17130307467057,""responseTime"":17.913399999998433}]",space,20.8989,,586.6164,Partially,50,586.6287,,,[],,0,3,3,3,1,audio/Narrative7Situation3.wav,audio/Narrative8Situation3.wav,audio/Narrative5Situation3.wav,audio/Narrative6Situation3.wav,8,4,3,5,,,,,,,,,,,,,,,,,,,,,,,,,,,,,,,,,,,,,,,
,,,,,676334ae578dda6ef33f5886,2025-07-07_15h47.50.917,group3.4_multiperson,2023.2.2,Win32,60.24096386,686c2ebf0248f13bef9af11f,686c31beffa228c67224ea7e,,,,,,,,,,,,,,,,,,,,,,,,,,,,,586.6298,1,audio/Narrative7Situation4.wav,589.6393,,589.6395,601.382,"[[999,2],[999,99],[999,182],[999,265],[999,348],[999,432],[999,515],[999,598],[999,690],[999,766],[999,855],[999,937],[999,1015],[999,1104],[999,1186],[999,1270],[999,1353],[999,1437],[999,1514],[999,1603],[999,1681],[999,1770],[999,1853],[999,1931],[999,2020],[999,2097],[999,2185],[999,2268],[999,2347],[999,2430],[999,2518],[999,2597],[999,2686],[999,2763],[999,2851],[999,2933],[999,3017],[999,3096],[999,3179],[999,3262],[999,3350],[999,3434],[999,3512],[999,3601],[999,3678],[999,3768],[999,3851],[999,3928],[999,4012],[999,4101],[999,4184],[999,4267],[999,4345],[999,4428],[999,4517],[999,4594],[999,4684],[999,4761],[999,4844],[999,4928],[999,5017],[999,5094],[999,5183],[999,5260],[999,5344],[999,5432],[999,5510],[999,5599],[999,5677],[999,5760],[999,5843],[999,5931],[999,6010],[999,6098],[999,6176],[999,6265],[999,6348],[999,6431],[999,6514],[999,6598],[999,6681],[999,6759],[999,6849],[999,6930],[999,7014],[999,7098],[999,7175],[999,7258],[999,7348],[999,7425],[999,7508],[999,7591],[999,7675],[999,7763],[999,7847],[999,7930],[999,8008],[999,8096],[999,8180],[999,8263],[999,8346],[999,8424],[999,8507],[999,8590],[999,8674],[999,8757],[999,8846],[999,8923],[999,9007],[999,9096],[999,9179],[999,9257],[999,9345],[999,9428],[999,9512],[999,9589],[999,9673],[999,9756],[999,9839],[999,9928],[999,10011],[999,10094],[999,10177],[999,10256],[999,10339],[999,10428],[999,10511],[999,10589],[999,10677],[999,10760],[999,10838],[999,10927],[999,11010],[999,11088],[999,11171],[999,11255],[999,11338],[999,11426],[999,11504],[999,11593],[999,11675]]",601.3824,612.8383,49.41434846,9.6772,"[{""rating"":49.41434846266471,""responseTime"":9.677199999999175}]",space,10.9056,,612.8385,Definitely yes,100,612.8504,,,[],,0,4,4,4,1,audio/Narrative7Situation4.wav,audio/Narrative8Situation4.wav,audio/Narrative5Situation4.wav,audio/Narrative6Situation4.wav,3,3,1,2,,,,,,,,,,,,,,,,,,,,,,,,,,,,,,,,,,,,,,,
,,,,,676334ae578dda6ef33f5886,2025-07-07_15h47.50.917,group3.4_multiperson,2023.2.2,Win32,60.24096386,686c2ebf0248f13bef9af11f,686c31beffa228c67224ea7e,,,,,,,,,,,,,,,,,,,,,,,,,,,,,612.8513,1,audio/Narrative7Situation5.wav,617.8667,,617.8668,626.3586,"[[999,1],[999,77],[999,161],[999,244],[999,327],[999,410],[999,494],[999,576],[999,665],[999,749],[999,831],[999,915],[999,998],[999,1081],[999,1164],[999,1248],[999,1332],[999,1414],[999,1498],[999,1581],[999,1664],[999,1748],[999,1831],[999,1914],[999,1997],[999,2081],[999,2164],[999,2247],[999,2330],[999,2414],[999,2496],[999,2582],[999,2663],[999,2746],[999,2829],[999,2914],[999,2996],[999,3081],[999,3162],[999,3246],[999,3330],[999,3413],[999,3495],[999,3579],[999,3663],[999,3745],[999,3830],[999,3912],[999,3995],[999,4079],[999,4162],[999,4245],[999,4328],[999,4411],[999,4495],[999,4578],[999,4661],[999,4745],[999,4827],[999,4912],[999,4994],[999,5078],[999,5161],[999,5245],[999,5327],[999,5411],[999,5494],[999,5577],[999,5660],[999,5743],[999,5828],[999,5910],[999,5994],[999,6076],[999,6160],[999,6243],[999,6326],[999,6411],[999,6493],[999,6577],[999,6659],[999,6743],[999,6825],[999,6911],[999,6992],[999,7076],[999,7159],[999,7242],[999,7325],[999,7408],[999,7492],[999,7575],[999,7659],[999,7741],[999,7824],[999,7909],[999,7991],[999,8075],[999,8161],[999,8242],[999,8324],[999,8409],[999,8491]]",626.3589,645.6398,49.26793558,15.7173,"[{""rating"":49.26793557833089,""responseTime"":15.717300000000705}]",space,18.7333,,645.6401,Not at all,0,645.6491,,,[],,0,5,5,5,1,audio/Narrative7Situation5.wav,audio/Narrative8Situation5.wav,audio/Narrative5Situation5.wav,audio/Narrative6Situation5.wav,5,2,5,2,,,,,,,,,,,,,,,,,,,,,,,,,,,,,,,,,,,,,,,
,,,,,676334ae578dda6ef33f5886,2025-07-07_15h47.50.917,group3.4_multiperson,2023.2.2,Win32,60.24096386,686c2ebf0248f13bef9af11f,686c31beffa228c67224ea7e,,,,,,,,,,,,,,,,,,,,,,,,,,,,,645.6506,1,audio/Narrative7Situation6.wav,648.6648,,648.6649,658.661,"[[999,1],[999,82],[999,166],[999,249],[999,332],[999,415],[999,499],[999,582],[999,674],[999,748],[999,832],[999,921],[999,998],[999,1082],[999,1170],[999,1248],[999,1331],[999,1415],[999,1498],[999,1581],[999,1664],[999,1747],[999,1831],[999,1919],[999,2003],[999,2080],[999,2164],[999,2252],[999,2330],[999,2413],[999,2502],[999,2580],[999,2663],[999,2751],[999,2830],[999,2913],[999,3001],[999,3079],[999,3163],[999,3246],[999,3329],[999,3412],[999,3496],[999,3579],[999,3662],[999,3750],[999,3829],[999,3912],[999,3995],[999,4078],[999,4166],[999,4245],[999,4328],[999,4412],[999,4495],[999,4583],[999,4666],[999,4745],[999,4828],[999,4911],[999,4999],[999,5083],[999,5161],[999,5244],[999,5333],[999,5411],[999,5493],[999,5577],[999,5660],[999,5749],[999,5833],[999,5910],[999,5993],[999,6083],[999,6160],[999,6243],[999,6326],[999,6409],[999,6493],[999,6576],[999,6659],[999,6742],[999,6825],[999,6909],[999,6998],[999,7075],[999,7159],[999,7242],[999,7325],[999,7409],[999,7492],[999,7575],[999,7658],[999,7742],[999,7825],[999,7913],[999,7991],[999,8079],[999,8163],[999,8241],[999,8324],[999,8413],[999,8491],[999,8579],[999,8657],[999,8741],[999,8824],[999,8913],[999,8990],[999,9074],[999,9162],[999,9240],[999,9328],[999,9411],[999,9490],[999,9573],[999,9656],[999,9739],[999,9823],[999,9911],[999,9995]]",658.6614,670.2827,48.53587116,8.9562,"[{""rating"":48.535871156661784,""responseTime"":8.956199999999285}]",space,11.0877,,670.2829,Not at all,0,670.2892,,,[],,0,6,6,6,1,audio/Narrative7Situation6.wav,audio/Narrative8Situation6.wav,audio/Narrative5Situation6.wav,audio/Narrative6Situation6.wav,3,2,3,2,,,,,,,,,,,,,,,,,,,,,,,,,,,,,,,,,,,,,,,
,,,,,676334ae578dda6ef33f5886,2025-07-07_15h47.50.917,group3.4_multiperson,2023.2.2,Win32,60.24096386,686c2ebf0248f13bef9af11f,686c31beffa228c67224ea7e,,,,,,,,,,,,,,,,,,,,,,,,,,,,,670.2901,1,audio/Narrative7Situation7.wav,675.2924,,675.2924,692.4607,"[[999,0],[999,85],[999,167],[999,251],[999,334],[999,416],[999,500],[999,584],[999,667],[999,749],[999,834],[999,916],[999,999],[999,1082],[999,1166],[999,1250],[999,1332],[999,1416],[999,1499],[999,1582],[999,1665],[999,1749],[999,1832],[999,1916],[999,1998],[999,2082],[999,2165],[999,2248],[999,2331],[999,2415],[999,2499],[999,2581],[999,2665],[999,2750],[999,2832],[999,2915],[999,2998],[999,3081],[999,3165],[999,3247],[999,3343],[999,3426],[999,3509],[999,3592],[999,3675],[999,3758],[999,3841],[999,3926],[999,4009],[999,4091],[999,4181],[999,4258],[999,4341],[999,4425],[999,4511],[999,4591],[999,4679],[999,4758],[999,4841],[999,4924],[999,5007],[999,5090],[999,5173],[999,5262],[999,5345],[999,5423],[999,5506],[999,5593],[999,5673],[999,5756],[999,5845],[999,5926],[999,6011],[999,6094],[999,6176],[999,6256],[999,6339],[999,6422],[999,6510],[999,6589],[999,6672],[999,6755],[999,6839],[999,6922],[999,7009],[999,7088],[999,7172],[999,7255],[999,7338],[999,7421],[999,7508],[999,7588],[999,7676],[999,7754],[999,7843],[999,7925],[999,8004],[999,8087],[999,8176],[999,8254],[999,8337],[999,8425],[999,8504],[999,8587],[999,8675],[999,8754],[999,8837],[999,8920],[999,9004],[999,9087],[999,9170],[999,9253],[999,9341],[999,9425],[999,9503],[999,9586],[999,9675],[999,9752],[999,9836],[999,9923],[999,10002],[999,10089],[999,10169],[999,10252],[999,10335],[999,10424],[999,10502],[999,10585],[999,10672],[999,10751],[999,10835],[999,10918],[999,11001],[999,11085],[999,11168],[999,11251],[999,11334],[999,11418],[999,11505],[999,11584],[999,11667],[999,11750],[999,11834],[999,11922],[999,12005],[999,12086],[999,12167],[999,12254],[999,12333],[999,12421],[999,12500],[999,12583],[999,12666],[999,12749],[999,12833],[999,12916],[999,12999],[999,13086],[999,13166],[999,13249],[999,13332],[999,13415],[999,13499],[999,13582],[999,13670],[999,13749],[999,13832],[999,13915],[999,14004],[999,14082],[999,14170],[999,14253],[999,14331],[999,14419],[999,14498],[999,14586],[999,14664],[999,14753],[999,14831],[999,14914],[999,14997],[999,15087],[999,15164],[999,15247],[999,15334],[999,15417],[999,15502],[999,15580],[999,15664],[999,15752],[999,15830],[999,15918],[999,15996],[999,16080],[999,16163],[999,16251],[999,16334],[999,16413],[999,16496],[999,16585],[999,16663],[999,16746],[999,16829],[999,16912],[999,16995],[999,17079],[999,17167]]",692.461,706.463,74.89019034,5.9446,"[{""rating"":74.89019033674964,""responseTime"":5.944599999997763}]",space,13.4678,,706.4632,Partially,50,706.4721,,,[],,0,7,7,7,1,audio/Narrative7Situation7.wav,audio/Narrative8Situation7.wav,audio/Narrative5Situation7.wav,audio/Narrative6Situation7.wav,5,3,4,5,,,,,,,,,,,,,,,,,,,,,,,,,,,,,,,,,,,,,,,
,,,,,676334ae578dda6ef33f5886,2025-07-07_15h47.50.917,group3.4_multiperson,2023.2.2,Win32,60.24096386,686c2ebf0248f13bef9af11f,686c31beffa228c67224ea7e,,,,,,,,,,,,,,,,,,,,,,,,,,,,,706.473,1,audio/Narrative7Situation8.wav,708.4895,,708.4896,718.5197,"[[999,1],[999,82],[999,165],[999,248],[999,331],[999,415],[999,498],[999,581],[999,665],[999,748],[999,836],[999,915],[999,998],[999,1085],[999,1169],[999,1248],[999,1331],[999,1414],[999,1497],[999,1581],[999,1664],[999,1747],[999,1831],[999,1918],[999,1997],[999,2080],[999,2163],[999,2251],[999,2330],[999,2413],[999,2496],[999,2584],[999,2663],[999,2750],[999,2829],[999,2913],[999,2996],[999,3084],[999,3163],[999,3246],[999,3329],[999,3413],[999,3496],[999,3579],[999,3662],[999,3746],[999,3829],[999,3918],[999,3995],[999,4083],[999,4165],[999,4245],[999,4328],[999,4417],[999,4495],[999,4578],[999,4667],[999,4745],[999,4827],[999,4911],[999,4994],[999,5077],[999,5160],[999,5244],[999,5327],[999,5410],[999,5494],[999,5577],[999,5660],[999,5743],[999,5827],[999,5910],[999,5999],[999,6076],[999,6160],[999,6248],[999,6326],[999,6415],[999,6493],[999,6577],[999,6659],[999,6743],[999,6826],[999,6909],[999,6998],[999,7076],[999,7159],[999,7242],[999,7330],[999,7408],[999,7498],[999,7575],[999,7658],[999,7742],[999,7825],[999,7908],[999,7991],[999,8075],[999,8158],[999,8241],[999,8324],[999,8407],[999,8491],[999,8579],[999,8657],[999,8746],[999,8824],[999,8907],[999,8990],[999,9074],[999,9157],[999,9240],[999,9323],[999,9407],[999,9490],[999,9573],[999,9656],[999,9740],[999,9823],[999,9906],[999,9989]]",718.52,723.7413,60.68814056,3.4276,"[{""rating"":60.688140556368964,""responseTime"":3.427600000001462}]",space,4.6845,,723.7413,Partially,50,723.7479,,,[],,0,8,8,8,1,audio/Narrative7Situation8.wav,audio/Narrative8Situation8.wav,audio/Narrative5Situation8.wav,audio/Narrative6Situation8.wav,2,3,3,5,,,,,,,,,,,,,,,,,,,,,,,,,,,,,,,,,,,,,,,
,,,,,676334ae578dda6ef33f5886,2025-07-07_15h47.50.917,group3.4_multiperson,2023.2.2,Win32,60.24096386,686c2ebf0248f13bef9af11f,686c31beffa228c67224ea7e,,,,,,,,,,,,,,,,,,,,,,,,,,,,,723.7487,1,audio/Narrative7Situation9.wav,725.756,,725.756,734.3843,"[[999,1],[999,82],[999,169],[999,249],[999,332],[999,415],[999,499],[999,582],[999,688],[999,772],[999,853],[999,931],[999,1015],[999,1098],[999,1186],[999,1265],[999,1348],[999,1431],[999,1514],[999,1603],[999,1681],[999,1764],[999,1847],[999,1930],[999,2014],[999,2102],[999,2181],[999,2263],[999,2347],[999,2430],[999,2513],[999,2597],[999,2683],[999,2769],[999,2846],[999,2930],[999,3018],[999,3096],[999,3179],[999,3263],[999,3351],[999,3429],[999,3512],[999,3601],[999,3679],[999,3762],[999,3845],[999,3929],[999,4012],[999,4095],[999,4178],[999,4262],[999,4345],[999,4428],[999,4511],[999,4595],[999,4683],[999,4761],[999,4850],[999,4933],[999,5011],[999,5099],[999,5177],[999,5261],[999,5344],[999,5427],[999,5513],[999,5594],[999,5682],[999,5760],[999,5843],[999,5927],[999,6010],[999,6093],[999,6182],[999,6265],[999,6343],[999,6426],[999,6509],[999,6592],[999,6681],[999,6760],[999,6846],[999,6931],[999,7009],[999,7092],[999,7180],[999,7259],[999,7347],[999,7425],[999,7508],[999,7592],[999,7675],[999,7758],[999,7841],[999,7925],[999,8008],[999,8091],[999,8174],[999,8263],[999,8346],[999,8424],[999,8512],[999,8591]]",734.3847,752.3869,57.4670571,6.8603,"[{""rating"":57.467057101024885,""responseTime"":6.860300000000734}]",space,17.464,,752.387,Partially,50,752.393,,,[],,0,9,9,9,1,audio/Narrative7Situation9.wav,audio/Narrative8Situation9.wav,audio/Narrative5Situation9.wav,audio/Narrative6Situation9.wav,2,3,3,4,,,,,,,,,,,,,,,,,,,,,,,,,,,,,,,,,,,,,,,
,,,,,676334ae578dda6ef33f5886,2025-07-07_15h47.50.917,group3.4_multiperson,2023.2.2,Win32,60.24096386,686c2ebf0248f13bef9af11f,686c31beffa228c67224ea7e,,,,,,,,,,,,,,,,,,,,,,,,,,,,,752.3939,1,audio/Narrative8Situation1.wav,757.4083,,757.4085,773.3471,"[[999,1],[999,92],[999,166],[999,249],[999,332],[999,415],[999,499],[999,582],[999,665],[999,749],[999,831],[999,915],[999,998],[999,1081],[999,1165],[999,1253],[999,1331],[999,1419],[999,1498],[999,1581],[999,1664],[999,1747],[999,1831],[999,1914],[999,1997],[999,2085],[999,2163],[999,2247],[999,2330],[999,2413],[999,2497],[999,2585],[999,2668],[999,2746],[999,2829],[999,2918],[999,2996],[999,3079],[999,3168],[999,3246],[999,3329],[999,3419],[999,3495],[999,3579],[999,3667],[999,3745],[999,3829],[999,3912],[999,3995],[999,4078],[999,4162],[999,4245],[999,4328],[999,4412],[999,4495],[999,4578],[999,4661],[999,4744],[999,4827],[999,4916],[999,4994],[999,5078],[999,5161],[999,5244],[999,5327],[999,5410],[999,5494],[999,5577],[999,5660],[999,5750],[999,5827],[999,5910],[999,5993],[999,6076],[999,6160],[999,6243],[999,6326],[999,6409],[999,6493],[999,6576],[999,6659],[999,6748],[999,6826],[999,6909],[999,6992],[999,7075],[999,7159],[999,7242],[999,7325],[999,7409],[999,7492],[999,7581],[999,7665],[999,7741],[999,7825],[999,7908],[999,7996],[999,8079],[999,8158],[999,8241],[999,8328],[999,8408],[999,8491],[999,8574],[999,8662],[999,8740],[999,8829],[999,8907],[999,8995],[999,9080],[999,9157],[999,9240],[999,9329],[999,9407],[999,9490],[999,9578],[999,9661],[999,9739],[999,9823],[999,9906],[999,9989],[999,10073],[999,10156],[999,10239],[999,10328],[999,10406],[999,10489],[999,10577],[999,10655],[999,10739],[999,10822],[999,10905],[999,10988],[999,11072],[999,11160],[999,11238],[999,11321],[999,11405],[999,11488],[999,11571],[999,11659],[999,11738],[999,11826],[999,11904],[999,11987],[999,12076],[999,12154],[999,12237],[999,12320],[999,12409],[999,12487],[999,12570],[999,12653],[999,12737],[999,12820],[999,12908],[999,12986],[999,13069],[999,13153],[999,13236],[999,13319],[999,13409],[999,13486],[999,13569],[999,13652],[999,13736],[999,13819],[999,13906],[999,13985],[999,14068],[999,14155],[999,14240],[999,14318],[999,14402],[999,14491],[999,14568],[999,14651],[999,14739],[999,14818],[999,14901],[999,14984],[999,15068],[999,15151],[999,15234],[999,15317],[999,15406],[999,15484],[999,15567],[999,15650],[999,15739],[999,15817],[999,15900]]",773.3475,800.3385,50.58565154,23.4209,"[{""rating"":50.58565153733529,""responseTime"":23.420899999998596}]",space,26.4552,,800.3387,Definitely yes,100,800.3516,,,[],,0,10,10,10,1,audio/Narrative8Situation1.wav,audio/Narrative7Situation1.wav,audio/Narrative6Situation1.wav,audio/Narrative5Situation1.wav,5,2,2,5,,,,,,,,,,,,,,,,,,,,,,,,,,,,,,,,,,,,,,,
,,,,,676334ae578dda6ef33f5886,2025-07-07_15h47.50.917,group3.4_multiperson,2023.2.2,Win32,60.24096386,686c2ebf0248f13bef9af11f,686c31beffa228c67224ea7e,,,,,,,,,,,,,,,,,,,,,,,,,,,,,800.3527,1,audio/Narrative8Situation2.wav,803.363,,803.363,813.5089,"[[999,1],[999,82],[999,166],[999,249],[999,332],[999,415],[999,499],[999,582],[999,665],[999,752],[999,837],[999,932],[999,1020],[999,1104],[999,1186],[999,1265],[999,1348],[999,1432],[999,1514],[999,1598],[999,1681],[999,1769],[999,1848],[999,1931],[999,2014],[999,2097],[999,2181],[999,2270],[999,2347],[999,2435],[999,2514],[999,2597],[999,2680],[999,2768],[999,2847],[999,2930],[999,3013],[999,3096],[999,3180],[999,3263],[999,3346],[999,3429],[999,3513],[999,3596],[999,3684],[999,3763],[999,3846],[999,3935],[999,4012],[999,4095],[999,4185],[999,4262],[999,4345],[999,4434],[999,4513],[999,4600],[999,4678],[999,4761],[999,4845],[999,4928],[999,5011],[999,5094],[999,5183],[999,5261],[999,5344],[999,5432],[999,5511],[999,5594],[999,5677],[999,5760],[999,5844],[999,5932],[999,6010],[999,6093],[999,6177],[999,6260],[999,6349],[999,6427],[999,6510],[999,6593],[999,6676],[999,6759],[999,6843],[999,6926],[999,7013],[999,7092],[999,7176],[999,7264],[999,7342],[999,7425],[999,7509],[999,7592],[999,7680],[999,7765],[999,7842],[999,7925],[999,8014],[999,8091],[999,8175],[999,8258],[999,8341],[999,8425],[999,8508],[999,8591],[999,8674],[999,8757],[999,8841],[999,8924],[999,9007],[999,9091],[999,9174],[999,9262],[999,9346],[999,9424],[999,9507],[999,9590],[999,9673],[999,9756],[999,9840],[999,9923],[999,10011],[999,10090]]",813.5093,818.4715,41.94729136,2.998,"[{""rating"":41.94729136163983,""responseTime"":2.9980000000000473}]",space,4.4271,,818.4716,Definitely yes,100,818.4773,,,[],,0,11,11,11,1,audio/Narrative8Situation2.wav,audio/Narrative7Situation2.wav,audio/Narrative6Situation2.wav,audio/Narrative5Situation2.wav,3,3,3,3,,,,,,,,,,,,,,,,,,,,,,,,,,,,,,,,,,,,,,,
,,,,,676334ae578dda6ef33f5886,2025-07-07_15h47.50.917,group3.4_multiperson,2023.2.2,Win32,60.24096386,686c2ebf0248f13bef9af11f,686c31beffa228c67224ea7e,,,,,,,,,,,,,,,,,,,,,,,,,,,,,818.4782,1,audio/Narrative8Situation3.wav,822.4828,,822.4829,844.8795,"[[999,1],[999,94],[999,182],[999,261],[999,344],[999,427],[999,510],[999,594],[999,689],[999,766],[999,844],[999,927],[999,1015],[999,1094],[999,1176],[999,1259],[999,1343],[999,1426],[999,1509],[999,1593],[999,1676],[999,1759],[999,1842],[999,1930],[999,2009],[999,2097],[999,2175],[999,2264],[999,2342],[999,2429],[999,2512],[999,2592],[999,2675],[999,2765],[999,2842],[999,2925],[999,3012],[999,3091],[999,3179],[999,3258],[999,3341],[999,3424],[999,3513],[999,3591],[999,3674],[999,3757],[999,3847],[999,3924],[999,4007],[999,4095],[999,4173],[999,4262],[999,4340],[999,4423],[999,4507],[999,4590],[999,4673],[999,4756],[999,4845],[999,4923],[999,5011],[999,5089],[999,5173],[999,5256],[999,5339],[999,5422],[999,5505],[999,5589],[999,5672],[999,5755],[999,5845],[999,5922],[999,6005],[999,6095],[999,6172],[999,6255],[999,6341],[999,6426],[999,6509],[999,6592],[999,6671],[999,6754],[999,6838],[999,6921],[999,7004],[999,7087],[999,7171],[999,7259],[999,7337],[999,7420],[999,7508],[999,7587],[999,7675],[999,7753],[999,7837],[999,7920],[999,8009],[999,8086],[999,8170],[999,8253],[999,8336],[999,8424],[999,8503],[999,8586],[999,8673],[999,8753],[999,8836],[999,8924],[999,9002],[999,9085],[999,9173],[999,9252],[999,9335],[999,9423],[999,9502],[999,9585],[999,9674],[999,9751],[999,9835],[999,9923],[999,10001],[999,10084],[999,10173],[999,10255],[999,10334],[999,10417],[999,10501],[999,10584],[999,10667],[999,10751],[999,10838],[999,10917],[999,11000],[999,11083],[999,11167],[999,11255],[999,11338],[999,11416],[999,11500],[999,11583],[999,11666],[999,11749],[999,11833],[999,11916],[999,11999],[999,12083],[999,12170],[999,12253],[999,12337],[999,12415],[999,12504],[999,12582],[999,12670],[999,12752],[999,12832],[999,12920],[999,12998],[999,13082],[999,13165],[999,13248],[999,13331],[999,13414],[999,13498],[999,13581],[999,13664],[999,13748],[999,13831],[999,13914],[999,13997],[999,14086],[999,14164],[999,14247],[999,14330],[999,14413],[999,14497],[999,14580],[999,14663],[999,14746],[999,14830],[999,14913],[999,14996],[999,15080],[999,15163],[999,15246],[999,15329],[999,15413],[999,15502],[999,15583],[999,15662],[999,15745],[999,15835],[999,15912],[999,16000],[999,16079],[999,16162],[999,16245],[999,16328],[999,16412],[999,16495],[999,16578],[999,16667],[999,16750],[999,16828],[999,16911],[999,16994],[999,17084],[999,17161],[999,17244],[999,17327],[999,17416],[999,17494],[999,17577],[999,17660],[999,17748],[999,17827],[999,17910],[999,17993],[999,18076],[999,18166],[999,18243],[999,18326],[999,18410],[999,18493],[999,18576],[999,18659],[999,18743],[999,18826],[999,18914],[999,18992],[999,19076],[999,19159],[999,19242],[999,19330],[999,19414],[999,19492],[999,19575],[999,19658],[999,19742],[999,19825],[999,19908],[999,19991],[999,20079],[999,20158],[999,20247],[999,20324],[999,20407],[999,20491],[999,20574],[999,20662],[999,20746],[999,20829],[999,20907],[999,20990],[999,21077],[999,21157],[999,21240],[999,21323],[999,21406],[999,21495],[999,21573],[999,21657],[999,21740],[999,21828],[999,21911],[999,21995],[999,22073],[999,22156],[999,22239],[999,22322]]",844.8798,855.3014,50.14641288,3.5435,"[{""rating"":50.14641288433383,""responseTime"":3.5434999999999945}]",space,9.8848,,855.3017,Partially,50,855.3141,,,[],,0,12,12,12,1,audio/Narrative8Situation3.wav,audio/Narrative7Situation3.wav,audio/Narrative6Situation3.wav,audio/Narrative5Situation3.wav,4,8,5,3,,,,,,,,,,,,,,,,,,,,,,,,,,,,,,,,,,,,,,,
,,,,,676334ae578dda6ef33f5886,2025-07-07_15h47.50.917,group3.4_multiperson,2023.2.2,Win32,60.24096386,686c2ebf0248f13bef9af11f,686c31beffa228c67224ea7e,,,,,,,,,,,,,,,,,,,,,,,,,,,,,855.3151,1,audio/Narrative8Situation4.wav,858.326,,858.3261,872.5018,[],872.502,880.66,50.14641288,1.2082,"[{""rating"":50.14641288433383,""responseTime"":1.2081999999992377}]",space,7.6248,,880.6601,Definitely yes,100,880.6706,,,[],,0,13,13,13,1,audio/Narrative8Situation4.wav,audio/Narrative7Situation4.wav,audio/Narrative6Situation4.wav,audio/Narrative5Situation4.wav,3,3,2,1,,,,,,,,,,,,,,,,,,,,,,,,,,,,,,,,,,,,,,,
,,,,,676334ae578dda6ef33f5886,2025-07-07_15h47.50.917,group3.4_multiperson,2023.2.2,Win32,60.24096386,686c2ebf0248f13bef9af11f,686c31beffa228c67224ea7e,,,,,,,,,,,,,,,,,,,,,,,,,,,,,880.6716,1,audio/Narrative8Situation5.wav,882.6739,,882.6741,890.9109,[],890.9111,901.2069,50.14641288,1.8015,"[{""rating"":50.14641288433383,""responseTime"":1.8015000000000327}]",space,9.7558,,901.2071,Partially,50,901.2172,,,[],,0,14,14,14,1,audio/Narrative8Situation5.wav,audio/Narrative7Situation5.wav,audio/Narrative6Situation5.wav,audio/Narrative5Situation5.wav,2,5,2,5,,,,,,,,,,,,,,,,,,,,,,,,,,,,,,,,,,,,,,,
,,,,,676334ae578dda6ef33f5886,2025-07-07_15h47.50.917,group3.4_multiperson,2023.2.2,Win32,60.24096386,686c2ebf0248f13bef9af11f,686c31beffa228c67224ea7e,,,,,,,,,,,,,,,,,,,,,,,,,,,,,901.2185,1,audio/Narrative8Situation6.wav,903.2368,,903.2369,909.7136,[],909.7136,923.8513,50,2.4975,"[{""rating"":50,""responseTime"":2.4974999999999454}]",space,13.5881,,923.8514,Not at all,0,923.8619,,,[],,0,15,15,15,1,audio/Narrative8Situation6.wav,audio/Narrative7Situation6.wav,audio/Narrative6Situation6.wav,audio/Narrative5Situation6.wav,2,3,2,3,,,,,,,,,,,,,,,,,,,,,,,,,,,,,,,,,,,,,,,
,,,,,676334ae578dda6ef33f5886,2025-07-07_15h47.50.917,group3.4_multiperson,2023.2.2,Win32,60.24096386,686c2ebf0248f13bef9af11f,686c31beffa228c67224ea7e,,,,,,,,,,,,,,,,,,,,,,,,,,,,,923.863,1,audio/Narrative8Situation7.wav,926.876,,926.8764,938.9688,"[[999,1],[999,82],[999,170],[999,248],[999,332],[999,415],[999,504],[999,581],[999,675],[999,748],[999,831],[999,919],[999,998],[999,1081],[999,1167],[999,1247],[999,1330],[999,1414],[999,1497],[999,1580],[999,1663],[999,1752],[999,1830],[999,1913],[999,1997],[999,2080],[999,2163],[999,2251],[999,2329],[999,2413],[999,2501],[999,2579],[999,2667],[999,2746],[999,2829],[999,2912],[999,2996],[999,3079],[999,3162],[999,3249],[999,3329],[999,3416],[999,3495],[999,3578],[999,3661],[999,3750],[999,3832],[999,3911],[999,4001],[999,4078],[999,4161],[999,4248],[999,4328],[999,4411],[999,4494],[999,4577],[999,4661],[999,4744],[999,4827],[999,4910],[999,4994],[999,5077],[999,5160],[999,5243],[999,5332],[999,5410],[999,5493],[999,5581],[999,5660],[999,5743],[999,5826],[999,5909],[999,5998],[999,6076],[999,6159],[999,6248],[999,6326],[999,6409],[999,6492],[999,6580],[999,6659],[999,6742],[999,6830],[999,6908],[999,6991],[999,7075],[999,7158],[999,7246],[999,7329],[999,7408],[999,7491],[999,7575],[999,7658],[999,7741],[999,7824],[999,7907],[999,7990],[999,8074],[999,8157],[999,8240],[999,8329],[999,8413],[999,8490],[999,8573],[999,8657],[999,8740],[999,8823],[999,8911],[999,8990],[999,9078],[999,9156],[999,9240],[999,9323],[999,9406],[999,9489],[999,9573],[999,9662],[999,9739],[999,9822],[999,9910],[999,9989],[999,10072],[999,10155],[999,10238],[999,10322],[999,10410],[999,10488],[999,10571],[999,10658],[999,10738],[999,10821],[999,10905],[999,10988],[999,11071],[999,11154],[999,11238],[999,11321],[999,11404],[999,11487],[999,11571],[999,11654],[999,11737],[999,11820],[999,11903],[999,11992],[999,12070]]",938.9691,955.9538,49.85358712,10.6885,"[{""rating"":49.85358711566617,""responseTime"":10.688499999999976}]",space,16.4489,,955.954,Not at all,0,955.9599,,,[],,0,16,16,16,1,audio/Narrative8Situation7.wav,audio/Narrative7Situation7.wav,audio/Narrative6Situation7.wav,audio/Narrative5Situation7.wav,3,5,5,4,,,,,,,,,,,,,,,,,,,,,,,,,,,,,,,,,,,,,,,
,,,,,676334ae578dda6ef33f5886,2025-07-07_15h47.50.917,group3.4_multiperson,2023.2.2,Win32,60.24096386,686c2ebf0248f13bef9af11f,686c31beffa228c67224ea7e,,,,,,,,,,,,,,,,,,,,,,,,,,,,,955.9608,1,audio/Narrative8Situation8.wav,958.9773,,958.9776,971.8486,"[[999,1],[999,82],[999,166],[999,249],[999,332],[999,415],[999,499],[999,582],[999,665],[999,749],[999,832],[999,920],[999,998],[999,1086],[999,1165],[999,1248],[999,1331],[999,1414],[999,1498],[999,1582],[999,1670],[999,1748],[999,1831],[999,1920],[999,1997],[999,2080],[999,2169],[999,2247],[999,2330],[999,2417],[999,2497],[999,2580],[999,2670],[999,2746],[999,2830],[999,2918],[999,2996],[999,3079],[999,3163],[999,3246],[999,3329],[999,3417],[999,3496],[999,3579],[999,3662],[999,3750],[999,3829],[999,3912],[999,4000],[999,4084],[999,4162],[999,4245],[999,4328],[999,4411],[999,4495],[999,4578],[999,4661],[999,4748],[999,4828],[999,4911],[999,4994],[999,5078],[999,5161],[999,5244],[999,5327],[999,5415],[999,5500],[999,5577],[999,5660],[999,5744],[999,5827],[999,5910],[999,5999],[999,6077],[999,6165],[999,6243],[999,6331],[999,6415],[999,6493],[999,6576],[999,6659],[999,6743],[999,6826],[999,6909],[999,6997],[999,7076],[999,7159],[999,7242],[999,7330],[999,7408],[999,7492],[999,7575],[999,7658],[999,7741],[999,7825],[999,7908],[999,7991],[999,8075],[999,8158],[999,8241],[999,8324],[999,8408],[999,8491],[999,8579],[999,8657],[999,8746],[999,8824],[999,8912],[999,8990],[999,9079],[999,9157],[999,9240],[999,9323],[999,9407],[999,9490],[999,9573],[999,9656],[999,9740],[999,9822],[999,9906],[999,9989],[999,10072],[999,10156],[999,10239],[999,10322],[999,10406],[999,10489],[999,10572],[999,10655],[999,10738],[999,10822],[999,10910],[999,10988],[999,11071],[999,11155],[999,11238],[999,11326],[999,11405],[999,11488],[999,11576],[999,11654],[999,11738],[999,11821],[999,11911],[999,11987],[999,12075],[999,12154],[999,12237],[999,12320],[999,12409],[999,12487],[999,12570],[999,12653],[999,12737],[999,12820]]",971.8489,981.7383,53.22108346,5.5647,"[{""rating"":53.221083455344065,""responseTime"":5.56469999999922}]",space,9.3305,,981.7385,Definitely yes,100,981.7493,,,[],,0,17,17,17,1,audio/Narrative8Situation8.wav,audio/Narrative7Situation8.wav,audio/Narrative6Situation8.wav,audio/Narrative5Situation8.wav,3,2,5,3,,,,,,,,,,,,,,,,,,,,,,,,,,,,,,,,,,,,,,,
,,,,,676334ae578dda6ef33f5886,2025-07-07_15h47.50.917,group3.4_multiperson,2023.2.2,Win32,60.24096386,686c2ebf0248f13bef9af11f,686c31beffa228c67224ea7e,,,,,,,,,,,,,,,,,,,,,,,,,,,,,981.7502,1,audio/Narrative8Situation9.wav,984.7522,,984.7525,996.0747,"[[999,1],[999,99],[999,182],[999,265],[999,349],[999,432],[999,515],[999,598],[999,682],[999,765],[999,848],[999,932],[999,1015],[999,1103],[999,1181],[999,1265],[999,1348],[999,1436],[999,1514],[999,1597],[999,1681],[999,1764],[999,1847],[999,1937],[999,2014],[999,2097],[999,2185],[999,2263],[999,2347],[999,2430],[999,2513],[999,2596],[999,2680],[999,2763],[999,2846],[999,2930],[999,3013],[999,3096],[999,3185],[999,3263],[999,3346],[999,3434],[999,3512],[999,3600],[999,3684],[999,3762],[999,3845],[999,3935],[999,4012],[999,4096],[999,4178],[999,4261],[999,4350],[999,4428],[999,4511],[999,4599],[999,4678],[999,4761],[999,4844],[999,4928],[999,5016],[999,5094],[999,5177],[999,5265],[999,5344],[999,5427],[999,5510],[999,5593],[999,5677],[999,5760],[999,5843],[999,5927],[999,6010],[999,6093],[999,6176],[999,6259],[999,6343],[999,6426],[999,6514],[999,6593],[999,6676],[999,6764],[999,6843],[999,6926],[999,7009],[999,7092],[999,7176],[999,7259],[999,7342],[999,7430],[999,7508],[999,7592],[999,7675],[999,7758],[999,7845],[999,7925],[999,8008],[999,8091],[999,8174],[999,8263],[999,8341],[999,8424],[999,8507],[999,8590],[999,8674],[999,8757],[999,8845],[999,8924],[999,9007],[999,9096],[999,9173],[999,9261],[999,9340],[999,9423],[999,9506],[999,9590],[999,9673],[999,9756],[999,9839],[999,9923],[999,10006],[999,10094],[999,10173],[999,10256],[999,10344],[999,10422],[999,10510],[999,10589],[999,10677],[999,10760],[999,10838],[999,10926],[999,11005],[999,11088],[999,11172],[999,11260]]",996.075,1008.169,55.27086384,5.4148,"[{""rating"":58.34553440702782,""responseTime"":3.283299999997098},{""rating"":55.27086383601757,""responseTime"":5.414799999997058}]",space,11.5497,,1008.1692,Not at all,0,1029.3141,0.073206442,11.9448,"[{""rating"":0.07320644216691208,""responseTime"":11.944800000000669}]",space,0,18,18,18,1,audio/Narrative8Situation9.wav,audio/Narrative7Situation9.wav,audio/Narrative6Situation9.wav,audio/Narrative5Situation9.wav,3,2,4,3,,,20.6119,,,,,,,,,,,,,,,,,,,,,,,,,,,,,,,,,,,,
,,,,,676334ae578dda6ef33f5886,2025-07-07_15h47.50.917,group3.4_multiperson,2023.2.2,Win32,60.24096386,686c2ebf0248f13bef9af11f,686c31beffa228c67224ea7e,,,,,,,,,,,,,,,,,,,,,,,,,,,1037.3863,1039.9647,1040.0226,2,audio/Narrative13Situation2.wav,1040.0228,,1040.0228,1069.7694,"[[999,0],[999,74],[999,158],[999,241],[999,324],[999,407],[999,490],[999,573],[999,657],[999,740],[999,824],[999,907],[999,991],[999,1073],[999,1162],[999,1240],[999,1323],[999,1406],[999,1490],[999,1577],[999,1656],[999,1740],[999,1823],[999,1906],[999,1989],[999,2073],[999,2162],[999,2244],[999,2323],[999,2406],[999,2489],[999,2572],[999,2660],[999,2739],[999,2822],[999,2905],[999,2988],[999,3076],[999,3160],[999,3243],[999,3327],[999,3410],[999,3488],[999,3575],[999,3654],[999,3738],[999,3821],[999,3904],[999,3991],[999,4070],[999,4159],[999,4237],[999,4320],[999,4403],[999,4492],[999,4570],[999,4658],[999,4743],[999,4824],[999,4903],[999,4992],[999,5070],[999,5153],[999,5236],[999,5325],[999,5403],[999,5486],[999,5569],[999,5652],[999,5736],[999,5825],[999,5902],[999,5986],[999,6069],[999,6152],[999,6235],[999,6324],[999,6402],[999,6490],[999,6568],[999,6658],[999,6735],[999,6824],[999,6901],[999,6985],[999,7068],[999,7152],[999,7239],[999,7317],[999,7405],[999,7484],[999,7567],[999,7650],[999,7739],[999,7823],[999,7900],[999,7983],[999,8071],[999,8150],[999,8233],[999,8317],[999,8399],[999,8483],[999,8566],[999,8649],[999,8733],[999,8821],[999,8899],[999,8982],[999,9066],[999,9154],[999,9232],[999,9316],[999,9404],[999,9482],[999,9565],[999,9654],[999,9732],[999,9815],[999,9903],[999,9981],[999,10065],[999,10148],[999,10231],[999,10314],[999,10404],[999,10481],[999,10564],[999,10648],[999,10731],[999,10814],[999,10897],[999,10985],[999,11064],[999,11152],[999,11230],[999,11314],[999,11400],[999,11480],[999,11569],[999,11647],[999,11730],[999,11813],[999,11896],[999,11980],[999,12063],[999,12146],[999,12234],[999,12312],[999,12396],[999,12479],[999,12562],[999,12646],[999,12734],[999,12812],[999,12900],[999,12979],[999,13062],[999,13145],[999,13228],[999,13312],[999,13395],[999,13483],[999,13562],[999,13644],[999,13728],[999,13811],[999,13894],[999,13978],[999,14061],[999,14144],[999,14228],[999,14311],[999,14394],[999,14477],[999,14560],[999,14644],[999,14732],[999,14811],[999,14893],[999,14976],[999,15060],[999,15143],[999,15226],[999,15310],[999,15398],[999,15476],[999,15565],[999,15643],[999,15726],[999,15814],[999,15892],[999,15976],[999,16059],[999,16142],[999,16230],[999,16309],[999,16392],[999,16475],[999,16558],[999,16642],[999,16725],[999,16808],[999,16892],[999,16975],[999,17063],[999,17141],[999,17224],[999,17312],[999,17391],[999,17474],[999,17557],[999,17641],[999,17729],[999,17807],[999,17891],[999,17974],[999,18063],[999,18140],[999,18223],[999,18307],[999,18390],[999,18473],[999,18556],[999,18640],[999,18723],[999,18806],[999,18890],[999,18973],[999,19062],[999,19139],[999,19222],[999,19311],[999,19389],[999,19472],[999,19555],[999,19639],[999,19722],[999,19805],[999,19889],[999,19978],[999,20055],[999,20143],[999,20222],[999,20305],[999,20393],[999,20471],[999,20560],[999,20638],[999,20721],[999,20804],[999,20894],[999,20971],[999,21057],[999,21142],[999,21221],[999,21304],[999,21392],[999,21470],[999,21553],[999,21637],[999,21720],[999,21803],[999,21886],[999,21970],[999,22053],[999,22142],[999,22225],[999,22303],[999,22391],[999,22469],[999,22553],[999,22636],[999,22719],[999,22803],[999,22885],[999,22968],[999,23052],[999,23141],[999,23219],[999,23302],[999,23385],[999,23474],[999,23551],[999,23635],[999,23718],[999,23801],[999,23885],[999,23974],[999,24051],[999,24134],[999,24223],[999,24301],[999,24384],[999,24467],[999,24551],[999,24639],[999,24724],[999,24800],[999,24883],[999,24967],[999,25050],[999,25133],[999,25222],[999,25300],[999,25383],[999,25473],[999,25550],[999,25633],[999,25716],[999,25805],[999,25883],[999,25966],[999,26055],[999,26132],[999,26216],[999,26299],[999,26382],[999,26465],[999,26548],[999,26632],[999,26721],[999,26798],[999,26882],[999,26965],[999,27048],[999,27131],[999,27215],[999,27298],[999,27381],[999,27464],[999,27553],[999,27631],[999,27719],[999,27797],[999,27881],[999,27964],[999,28052],[999,28130],[999,28213],[999,28305],[999,28380],[999,28463],[999,28546],[999,28630],[999,28713],[999,28796],[999,28880],[999,28963],[999,29046],[999,29130],[999,29217],[999,29296],[999,29384],[999,29462],[999,29545],[999,29633],[999,29712]]",1069.7699,1069.7763,,,[],,,,1069.7765,Not at all,0,1069.7807,,,[],,0,0,0,0,1,audio/Narrative13Situation2.wav,audio/Narrative13Situation2.wav,audio/Narrative13Situation2.wav,audio/Narrative13Situation2.wav,2,2,2,2,,,,,1029.3155,1037.3853,space,7.5478,,,,,,,,,,,,,,,,,,,,,,,,,,,,,,,
,,,,,676334ae578dda6ef33f5886,2025-07-07_15h47.50.917,group3.4_multiperson,2023.2.2,Win32,60.24096386,686c2ebf0248f13bef9af11f,686c31beffa228c67224ea7e,,,,,,,,,,,,,,,,,,,,,,,,,,,,,1069.7815,2,audio/Narrative5Situation1.wav,1074.7972,,1074.7973,1088.0845,"[[999,1],[999,83],[999,166],[999,249],[999,338],[999,416],[999,499],[999,582],[999,665],[999,754],[999,832],[999,915],[999,998],[999,1082],[999,1165],[999,1248],[999,1336],[999,1415],[999,1503],[999,1581],[999,1670],[999,1748],[999,1831],[999,1914],[999,1997],[999,2086],[999,2169],[999,2247],[999,2330],[999,2418],[999,2497],[999,2580],[999,2668],[999,2747],[999,2830],[999,2918],[999,2997],[999,3085],[999,3167],[999,3247],[999,3329],[999,3413],[999,3496],[999,3579],[999,3663],[999,3746],[999,3829],[999,3912],[999,3995],[999,4079],[999,4162],[999,4245],[999,4329],[999,4412],[999,4501],[999,4578],[999,4661],[999,4745],[999,4828],[999,4911],[999,4995],[999,5078],[999,5166],[999,5244],[999,5327],[999,5417],[999,5494],[999,5578],[999,5661],[999,5750],[999,5832],[999,5910],[999,5999],[999,6077],[999,6165],[999,6249],[999,6332],[999,6410],[999,6497],[999,6576],[999,6664],[999,6743],[999,6826],[999,6909],[999,6993],[999,7082],[999,7159],[999,7242],[999,7326],[999,7409],[999,7492],[999,7575],[999,7659],[999,7742],[999,7830],[999,7908],[999,7991],[999,8075],[999,8158],[999,8241],[999,8325],[999,8408],[999,8496],[999,8574],[999,8658],[999,8741],[999,8824],[999,8907],[999,8990],[999,9074],[999,9157],[999,9245],[999,9329],[999,9407],[999,9490],[999,9573],[999,9657],[999,9740],[999,9828],[999,9906],[999,9989],[999,10073],[999,10156],[999,10239],[999,10323],[999,10406],[999,10494],[999,10572],[999,10655],[999,10739],[999,10822],[999,10905],[999,10994],[999,11072],[999,11155],[999,11239],[999,11327],[999,11411],[999,11488],[999,11571],[999,11654],[999,11738],[999,11826],[999,11904],[999,11988],[999,12071],[999,12154],[999,12238],[999,12321],[999,12404],[999,12487],[999,12570],[999,12654],[999,12737],[999,12820],[999,12909],[999,12987],[999,13070],[999,13160],[999,13237]]",1088.0853,1098.0646,72.69399707,6.3802,"[{""rating"":72.69399707174232,""responseTime"":6.380199999999149}]",space,9.4384,,1098.0649,Not at all,0,1115.4409,0.073206442,7.9172,"[{""rating"":0.07320644216691208,""responseTime"":7.917199999999411}]",space,0,1,1,1,1,audio/Narrative7Situation1.wav,audio/Narrative8Situation1.wav,audio/Narrative5Situation1.wav,audio/Narrative6Situation1.wav,2,5,5,2,,,16.8452,,,,,,,,,,,,,,,,,,,,,,,,,,,,,,,,,,,,
,,,,,676334ae578dda6ef33f5886,2025-07-07_15h47.50.917,group3.4_multiperson,2023.2.2,Win32,60.24096386,686c2ebf0248f13bef9af11f,686c31beffa228c67224ea7e,,,,,,,,,,,,,,,,,,,,,,,,,,,,,1115.4419,2,audio/Narrative5Situation2.wav,1118.4546,,1118.4546,1147.9324,"[[999,1],[999,83],[999,166],[999,249],[999,332],[999,415],[999,499],[999,582],[999,665],[999,749],[999,837],[999,916],[999,998],[999,1082],[999,1165],[999,1250],[999,1336],[999,1415],[999,1503],[999,1581],[999,1664],[999,1752],[999,1837],[999,1914],[999,1997],[999,2086],[999,2164],[999,2247],[999,2336],[999,2414],[999,2502],[999,2587],[999,2663],[999,2746],[999,2835],[999,2913],[999,2997],[999,3080],[999,3163],[999,3246],[999,3329],[999,3413],[999,3496],[999,3579],[999,3662],[999,3746],[999,3829],[999,3912],[999,4000],[999,4080],[999,4167],[999,4245],[999,4328],[999,4412],[999,4495],[999,4578],[999,4662],[999,4744],[999,4828],[999,4916],[999,5000],[999,5077],[999,5167],[999,5244],[999,5327],[999,5416],[999,5494],[999,5582],[999,5660],[999,5744],[999,5827],[999,5915],[999,5994],[999,6077],[999,6160],[999,6243],[999,6326],[999,6410],[999,6493],[999,6576],[999,6666],[999,6743],[999,6826],[999,6909],[999,6992],[999,7076],[999,7159],[999,7242],[999,7325],[999,7409],[999,7492],[999,7575],[999,7659],[999,7742],[999,7825],[999,7908],[999,7991],[999,8075],[999,8163],[999,8247],[999,8325],[999,8408],[999,8497],[999,8574],[999,8657],[999,8746],[999,8824],[999,8912],[999,8995],[999,9074],[999,9157],[999,9245],[999,9327],[999,9407],[999,9490],[999,9579],[999,9657],[999,9740],[999,9823],[999,9911],[999,9990],[999,10073],[999,10156],[999,10239],[999,10323],[999,10406],[999,10489],[999,10572],[999,10656],[999,10739],[999,10826],[999,10910],[999,10988],[999,11076],[999,11155],[999,11238],[999,11325],[999,11405],[999,11488],[999,11571],[999,11655],[999,11743],[999,11826],[999,11904],[999,11988],[999,12077],[999,12154],[999,12237],[999,12324],[999,12404],[999,12492],[999,12576],[999,12653],[999,12737],[999,12827],[999,12908],[999,12986],[999,13070],[999,13153],[999,13236],[999,13320],[999,13403],[999,13486],[999,13576],[999,13653],[999,13736],[999,13824],[999,13908],[999,13986],[999,14069],[999,14152],[999,14235],[999,14318],[999,14402],[999,14485],[999,14568],[999,14657],[999,14735],[999,14818],[999,14901],[999,14984],[999,15068],[999,15156],[999,15234],[999,15317],[999,15401],[999,15484],[999,15567],[999,15656],[999,15734],[999,15817],[999,15904],[999,15984],[999,16067],[999,16157],[999,16238],[999,16322],[999,16400],[999,16483],[999,16567],[999,16656],[999,16733],[999,16816],[999,16900],[999,16983],[999,17066],[999,17149],[999,17236],[999,17321],[999,17404],[999,17486],[999,17565],[999,17649],[999,17737],[999,17815],[999,17898],[999,17982],[999,18065],[999,18148],[999,18237],[999,18315],[999,18398],[999,18481],[999,18564],[999,18653],[999,18736],[999,18814],[999,18902],[999,18981],[999,19064],[999,19147],[999,19230],[999,19314],[999,19397],[999,19480],[999,19564],[999,19647],[999,19730],[999,19813],[999,19897],[999,19985],[999,20063],[999,20151],[999,20229],[999,20316],[999,20396],[999,20479],[999,20563],[999,20646],[999,20729],[999,20812],[999,20896],[999,20979],[999,21062],[999,21146],[999,21229],[999,21312],[999,21395],[999,21478],[999,21567],[999,21645],[999,21728],[999,21816],[999,21900],[999,21978],[999,22061],[999,22144],[999,22232],[999,22311],[999,22394],[999,22477],[999,22561],[999,22644],[999,22727],[999,22810],[999,22893],[999,22982],[999,23062],[999,23143],[999,23227],[999,23310],[999,23393],[999,23476],[999,23560],[999,23643],[999,23726],[999,23815],[999,23893],[999,23976],[999,24059],[999,24147],[999,24226],[999,24309],[999,24392],[999,24476],[999,24559],[999,24642],[999,24725],[999,24808],[999,24892],[999,24981],[999,25058],[999,25147],[999,25224],[999,25308],[999,25391],[999,25475],[999,25558],[999,25641],[999,25724],[999,25807],[999,25896],[999,25974],[999,26057],[999,26140],[999,26223],[999,26312],[999,26390],[999,26474],[999,26557],[999,26645],[999,26723],[999,26806],[999,26890],[999,26973],[999,27059],[999,27139],[999,27223],[999,27306],[999,27389],[999,27472],[999,27562],[999,27644],[999,27728],[999,27806],[999,27889],[999,27972],[999,28055],[999,28139],[999,28227],[999,28306],[999,28388],[999,28477],[999,28555],[999,28644],[999,28726],[999,28804],[999,28888],[999,28976],[999,29054],[999,29137],[999,29221],[999,29306],[999,29393],[999,29477]]",1147.9329,1158.9821,76.35431918,6.0285,"[{""rating"":76.35431918008784,""responseTime"":6.0284999999998945}]",space,10.5077,,1158.9822,Partially,50,1158.9953,,,[],,0,2,2,2,1,audio/Narrative7Situation2.wav,audio/Narrative8Situation2.wav,audio/Narrative5Situation2.wav,audio/Narrative6Situation2.wav,3,3,3,3,,,,,,,,,,,,,,,,,,,,,,,,,,,,,,,,,,,,,,,
,,,,,676334ae578dda6ef33f5886,2025-07-07_15h47.50.917,group3.4_multiperson,2023.2.2,Win32,60.24096386,686c2ebf0248f13bef9af11f,686c31beffa228c67224ea7e,,,,,,,,,,,,,,,,,,,,,,,,,,,,,1158.9963,2,audio/Narrative5Situation3.wav,1162.0121,,1162.0122,1175.932,[],1175.9323,1188.7255,61.27379209,2.8346,"[{""rating"":61.27379209370425,""responseTime"":2.8346000000012737}]",space,12.2526,,1188.7256,Partially,50,1188.7317,,,[],,0,3,3,3,1,audio/Narrative7Situation3.wav,audio/Narrative8Situation3.wav,audio/Narrative5Situation3.wav,audio/Narrative6Situation3.wav,8,4,3,5,,,,,,,,,,,,,,,,,,,,,,,,,,,,,,,,,,,,,,,
,,,,,676334ae578dda6ef33f5886,2025-07-07_15h47.50.917,group3.4_multiperson,2023.2.2,Win32,60.24096386,686c2ebf0248f13bef9af11f,686c31beffa228c67224ea7e,,,,,,,,,,,,,,,,,,,,,,,,,,,,,1188.7329,2,audio/Narrative5Situation4.wav,1189.74,,1189.7401,1210.1421,"[[999,1],[999,94],[999,177],[999,260],[999,344],[999,427],[999,515],[999,593],[999,677],[999,761],[999,843],[999,926],[999,1010],[999,1093],[999,1182],[999,1265],[999,1343],[999,1431],[999,1509],[999,1592],[999,1682],[999,1759],[999,1842],[999,1926],[999,2009],[999,2092],[999,2175],[999,2264],[999,2342],[999,2425],[999,2508],[999,2596],[999,2675],[999,2758],[999,2841],[999,2925],[999,3008],[999,3091],[999,3174],[999,3258],[999,3341],[999,3424],[999,3507],[999,3591],[999,3674],[999,3762],[999,3841],[999,3923],[999,4013],[999,4090],[999,4173],[999,4257],[999,4340],[999,4423],[999,4506],[999,4590],[999,4678],[999,4762],[999,4839],[999,4923],[999,5006],[999,5089],[999,5177],[999,5256],[999,5339],[999,5422],[999,5510],[999,5589],[999,5672],[999,5755],[999,5838],[999,5922],[999,6005],[999,6088],[999,6171],[999,6255],[999,6338],[999,6421],[999,6504],[999,6588],[999,6671],[999,6754],[999,6842],[999,6921],[999,7004],[999,7088],[999,7175],[999,7253],[999,7337],[999,7420],[999,7503],[999,7587],[999,7670],[999,7758],[999,7836],[999,7919],[999,8003],[999,8086],[999,8173],[999,8254],[999,8336],[999,8419],[999,8508],[999,8585],[999,8669],[999,8752],[999,8835],[999,8919],[999,9002],[999,9090],[999,9169],[999,9251],[999,9335],[999,9418],[999,9501],[999,9590],[999,9668],[999,9756],[999,9834],[999,9918],[999,10001],[999,10084],[999,10167],[999,10256],[999,10334],[999,10417],[999,10500],[999,10584],[999,10667],[999,10750],[999,10833],[999,10917],[999,11000],[999,11083],[999,11173],[999,11250],[999,11333],[999,11421],[999,11499],[999,11583],[999,11666],[999,11749],[999,11838],[999,11918],[999,11999],[999,12082],[999,12165],[999,12248],[999,12332],[999,12415],[999,12498],[999,12582],[999,12669],[999,12748],[999,12831],[999,12919],[999,12998],[999,13081],[999,13170],[999,13248],[999,13331],[999,13421],[999,13498],[999,13581],[999,13664],[999,13747],[999,13830],[999,13913],[999,13997],[999,14080],[999,14163],[999,14252],[999,14333],[999,14413],[999,14502],[999,14580],[999,14663],[999,14751],[999,14834],[999,14913],[999,14996],[999,15079],[999,15168],[999,15246],[999,15329],[999,15412],[999,15496],[999,15579],[999,15662],[999,15745],[999,15829],[999,15912],[999,15995],[999,16079],[999,16162],[999,16248],[999,16328],[999,16411],[999,16499],[999,16583],[999,16661],[999,16744],[999,16834],[999,16911],[999,16998],[999,17077],[999,17161],[999,17244],[999,17327],[999,17410],[999,17493],[999,17581],[999,17660],[999,17744],[999,17826],[999,17910],[999,17993],[999,18076],[999,18160],[999,18244],[999,18326],[999,18409],[999,18492],[999,18581],[999,18659],[999,18742],[999,18826],[999,18909],[999,18992],[999,19080],[999,19159],[999,19242],[999,19331],[999,19413],[999,19491],[999,19580],[999,19658],[999,19746],[999,19825],[999,19908],[999,19991],[999,20074],[999,20158],[999,20241],[999,20324]]",1210.1427,1217.4482,65.51976574,2.5111,"[{""rating"":65.51976573938506,""responseTime"":2.5111000000015338}]",space,6.764,,1217.4484,Partially,50,1217.455,,,[],,0,4,4,4,1,audio/Narrative7Situation4.wav,audio/Narrative8Situation4.wav,audio/Narrative5Situation4.wav,audio/Narrative6Situation4.wav,3,3,1,2,,,,,,,,,,,,,,,,,,,,,,,,,,,,,,,,,,,,,,,
,,,,,676334ae578dda6ef33f5886,2025-07-07_15h47.50.917,group3.4_multiperson,2023.2.2,Win32,60.24096386,686c2ebf0248f13bef9af11f,686c31beffa228c67224ea7e,,,,,,,,,,,,,,,,,,,,,,,,,,,,,1217.4559,2,audio/Narrative5Situation5.wav,1222.471,,1222.4712,1237.9045,"[[999,1],[999,81],[999,164],[999,248],[999,331],[999,414],[999,497],[999,580],[999,664],[999,786],[999,880],[999,963],[999,1047],[999,1130],[999,1213],[999,1298],[999,1379],[999,1468],[999,1551],[999,1630],[999,1713],[999,1796],[999,1879],[999,1962],[999,2046],[999,2133],[999,2212],[999,2300],[999,2378],[999,2462],[999,2550],[999,2631],[999,2712],[999,2795],[999,2881],[999,2961],[999,3048],[999,3128],[999,3211],[999,3294],[999,3378],[999,3461],[999,3544],[999,3627],[999,3716],[999,3800],[999,3877],[999,3960],[999,4044],[999,4127],[999,4210],[999,4293],[999,4377],[999,4460],[999,4549],[999,4626],[999,4710],[999,4793],[999,4876],[999,4959],[999,5043],[999,5126],[999,5209],[999,5292],[999,5376],[999,5459],[999,5547],[999,5631],[999,5709],[999,5792],[999,5875],[999,5958],[999,6047],[999,6130],[999,6208],[999,6291],[999,6380],[999,6458],[999,6546],[999,6629],[999,6708],[999,6791],[999,6874],[999,6957],[999,7046],[999,7129],[999,7207],[999,7295],[999,7374],[999,7462],[999,7540],[999,7630],[999,7707],[999,7790],[999,7877],[999,7957],[999,8043],[999,8123],[999,8206],[999,8289],[999,8372],[999,8461],[999,8539],[999,8622],[999,8706],[999,8789],[999,8872],[999,8961],[999,9043],[999,9122],[999,9205],[999,9288],[999,9372],[999,9461],[999,9538],[999,9621],[999,9704],[999,9788],[999,9871],[999,9960],[999,10038],[999,10121],[999,10210],[999,10288],[999,10371],[999,10457],[999,10537],[999,10625],[999,10707],[999,10787],[999,10870],[999,10959],[999,11037],[999,11120],[999,11203],[999,11286],[999,11370],[999,11453],[999,11536],[999,11619],[999,11703],[999,11786],[999,11869],[999,11953],[999,12042],[999,12119],[999,12202],[999,12286],[999,12368],[999,12457],[999,12535],[999,12619],[999,12702],[999,12791],[999,12868],[999,12951],[999,13035],[999,13118],[999,13206],[999,13285],[999,13368],[999,13455],[999,13534],[999,13618],[999,13706],[999,13784],[999,13867],[999,13950],[999,14039],[999,14117],[999,14201],[999,14288],[999,14372],[999,14455],[999,14538],[999,14617],[999,14700],[999,14783],[999,14872],[999,14949],[999,15033],[999,15116],[999,15199],[999,15282],[999,15366]]",1237.9053,1244.5215,67.56954612,2.8841,"[{""rating"":67.56954612005856,""responseTime"":2.884099999997943}]",space,6.0619,,1244.5216,Definitely yes,100,1244.5349,,,[],,0,5,5,5,1,audio/Narrative7Situation5.wav,audio/Narrative8Situation5.wav,audio/Narrative5Situation5.wav,audio/Narrative6Situation5.wav,5,2,5,2,,,,,,,,,,,,,,,,,,,,,,,,,,,,,,,,,,,,,,,
,,,,,676334ae578dda6ef33f5886,2025-07-07_15h47.50.917,group3.4_multiperson,2023.2.2,Win32,60.24096386,686c2ebf0248f13bef9af11f,686c31beffa228c67224ea7e,,,,,,,,,,,,,,,,,,,,,,,,,,,,,1244.5358,2,audio/Narrative5Situation6.wav,1247.5447,,1247.5449,1253.2452,"[[999,1],[999,83],[999,166],[999,249],[999,333],[999,416],[999,499],[999,582],[999,671],[999,755],[999,837],[999,920],[999,1003],[999,1087],[999,1171],[999,1253],[999,1337],[999,1420],[999,1503],[999,1586],[999,1669],[999,1753],[999,1836],[999,1919],[999,2002],[999,2086],[999,2169],[999,2252],[999,2336],[999,2419],[999,2502],[999,2586],[999,2668],[999,2752],[999,2836],[999,2919],[999,3001],[999,3085],[999,3168],[999,3252],[999,3335],[999,3418],[999,3501],[999,3586],[999,3667],[999,3751],[999,3834],[999,3917],[999,4001],[999,4084],[999,4167],[999,4250],[999,4335],[999,4417],[999,4501],[999,4583],[999,4667],[999,4752],[999,4833],[999,4917],[999,4999],[999,5083],[999,5167],[999,5250],[999,5332],[999,5417],[999,5499],[999,5583],[999,5666]]",1253.2454,1261.8214,65.37335286,4.7268,"[{""rating"":65.37335285505125,""responseTime"":4.726799999996956}]",space,8.0275,,1261.8215,Not at all,0,1261.8305,,,[],,0,6,6,6,1,audio/Narrative7Situation6.wav,audio/Narrative8Situation6.wav,audio/Narrative5Situation6.wav,audio/Narrative6Situation6.wav,3,2,3,2,,,,,,,,,,,,,,,,,,,,,,,,,,,,,,,,,,,,,,,
,,,,,676334ae578dda6ef33f5886,2025-07-07_15h47.50.917,group3.4_multiperson,2023.2.2,Win32,60.24096386,686c2ebf0248f13bef9af11f,686c31beffa228c67224ea7e,,,,,,,,,,,,,,,,,,,,,,,,,,,,,1261.8313,2,audio/Narrative5Situation7.wav,1265.8501,,1265.8503,1286.8904,"[[999,1],[999,92],[999,176],[999,259],[999,342],[999,425],[999,509],[999,592],[999,681],[999,764],[999,847],[999,925],[999,1008],[999,1096],[999,1175],[999,1259],[999,1346],[999,1425],[999,1508],[999,1591],[999,1674],[999,1758],[999,1841],[999,1924],[999,2007],[999,2090],[999,2174],[999,2257],[999,2340],[999,2423],[999,2507],[999,2590],[999,2673],[999,2762],[999,2840],[999,2923],[999,3006],[999,3089],[999,3173],[999,3256],[999,3339],[999,3423],[999,3510],[999,3589],[999,3673],[999,3761],[999,3839],[999,3922],[999,4005],[999,4089],[999,4177],[999,4260],[999,4338],[999,4421],[999,4505],[999,4588],[999,4676],[999,4758],[999,4838],[999,4921],[999,5004],[999,5088],[999,5171],[999,5254],[999,5337],[999,5421],[999,5504],[999,5587],[999,5670],[999,5754],[999,5843],[999,5920],[999,6003],[999,6087],[999,6176],[999,6253],[999,6336],[999,6425],[999,6503],[999,6586],[999,6669],[999,6758],[999,6842],[999,6919],[999,7002],[999,7086],[999,7169],[999,7257],[999,7341],[999,7419],[999,7502],[999,7585],[999,7668],[999,7752],[999,7839],[999,7918],[999,8001],[999,8085],[999,8168],[999,8251],[999,8334],[999,8418],[999,8501],[999,8584],[999,8667],[999,8750],[999,8834],[999,8917],[999,9000],[999,9084],[999,9167],[999,9250],[999,9333],[999,9417],[999,9500],[999,9583],[999,9666],[999,9750],[999,9833],[999,9916],[999,9999],[999,10083],[999,10166],[999,10249],[999,10338],[999,10415],[999,10505],[999,10582],[999,10666],[999,10749],[999,10832],[999,10915],[999,11002],[999,11082],[999,11170],[999,11249],[999,11331],[999,11420],[999,11502],[999,11581],[999,11671],[999,11748],[999,11831],[999,11919],[999,11998],[999,12081],[999,12164],[999,12247],[999,12331],[999,12414],[999,12497],[999,12580],[999,12669],[999,12747],[999,12830],[999,12913],[999,13001],[999,13080],[999,13163],[999,13252],[999,13330],[999,13413],[999,13496],[999,13579],[999,13667],[999,13751],[999,13834],[999,13912],[999,14001],[999,14079],[999,14167],[999,14250],[999,14329],[999,14412],[999,14502],[999,14578],[999,14662],[999,14749],[999,14829],[999,14916],[999,15001],[999,15078],[999,15161],[999,15244],[999,15336],[999,15415],[999,15494],[999,15577],[999,15660],[999,15744],[999,15827],[999,15910],[999,15993],[999,16077],[999,16160],[999,16243],[999,16327],[999,16410],[999,16493],[999,16576],[999,16660],[999,16749],[999,16826],[999,16909],[999,16993],[999,17076],[999,17159],[999,17243],[999,17326],[999,17413],[999,17492],[999,17576],[999,17659],[999,17742],[999,17830],[999,17908],[999,17992],[999,18080],[999,18158],[999,18241],[999,18331],[999,18408],[999,18491],[999,18581],[999,18658],[999,18741],[999,18824],[999,18907],[999,18991],[999,19074],[999,19157],[999,19240],[999,19324],[999,19407],[999,19490],[999,19574],[999,19657],[999,19740],[999,19823],[999,19906],[999,19990],[999,20073],[999,20156],[999,20240],[999,20323],[999,20406],[999,20490],[999,20572],[999,20656],[999,20739],[999,20822],[999,20906],[999,20989]]",1286.8909,1297.3185,66.54465593,3.3828,"[{""rating"":66.54465592972181,""responseTime"":3.382799999996905}]",space,9.8852,,1297.3187,Not at all,0,1297.3239,,,[],,0,7,7,7,1,audio/Narrative7Situation7.wav,audio/Narrative8Situation7.wav,audio/Narrative5Situation7.wav,audio/Narrative6Situation7.wav,5,3,4,5,,,,,,,,,,,,,,,,,,,,,,,,,,,,,,,,,,,,,,,
,,,,,676334ae578dda6ef33f5886,2025-07-07_15h47.50.917,group3.4_multiperson,2023.2.2,Win32,60.24096386,686c2ebf0248f13bef9af11f,686c31beffa228c67224ea7e,,,,,,,,,,,,,,,,,,,,,,,,,,,,,1297.3248,2,audio/Narrative5Situation8.wav,1300.3331,,1300.3333,1309.1522,"[[999,0],[999,98],[999,176],[999,259],[999,347],[999,426],[999,514],[999,597],[999,676],[999,758],[999,842],[999,930],[999,1008],[999,1098],[999,1175],[999,1258],[999,1346],[999,1424],[999,1513],[999,1591],[999,1674],[999,1757],[999,1841],[999,1924],[999,2007],[999,2091],[999,2177],[999,2262],[999,2340],[999,2424],[999,2508],[999,2590],[999,2673],[999,2756],[999,2840],[999,2922],[999,3006],[999,3089],[999,3172],[999,3256],[999,3339],[999,3423],[999,3506],[999,3589],[999,3676],[999,3755],[999,3839],[999,3927],[999,4005],[999,4088],[999,4177],[999,4260],[999,4338],[999,4427],[999,4505],[999,4588],[999,4676],[999,4755],[999,4843],[999,4920],[999,5004],[999,5092],[999,5171],[999,5259],[999,5337],[999,5420],[999,5508],[999,5587],[999,5675],[999,5753],[999,5836],[999,5920],[999,6008],[999,6086],[999,6170],[999,6258],[999,6336],[999,6419],[999,6509],[999,6586],[999,6669],[999,6753],[999,6836],[999,6919],[999,7008],[999,7086],[999,7169],[999,7256],[999,7335],[999,7423],[999,7507],[999,7585],[999,7668],[999,7757],[999,7835],[999,7923],[999,8001],[999,8089],[999,8167],[999,8251],[999,8334],[999,8417],[999,8506],[999,8584],[999,8667],[999,8751]]",1309.1525,1317.6995,58.19912152,3.7691,"[{""rating"":58.199121522694,""responseTime"":3.7690999999977066}]",space,8.0082,,1317.6997,Not at all,0,1317.7062,,,[],,0,8,8,8,1,audio/Narrative7Situation8.wav,audio/Narrative8Situation8.wav,audio/Narrative5Situation8.wav,audio/Narrative6Situation8.wav,2,3,3,5,,,,,,,,,,,,,,,,,,,,,,,,,,,,,,,,,,,,,,,
,,,,,676334ae578dda6ef33f5886,2025-07-07_15h47.50.917,group3.4_multiperson,2023.2.2,Win32,60.24096386,686c2ebf0248f13bef9af11f,686c31beffa228c67224ea7e,,,,,,,,,,,,,,,,,,,,,,,,,,,,,1317.7071,2,audio/Narrative5Situation9.wav,1320.7231,,1320.7232,1360.2679,"[[999,1],[999,83],[999,166],[999,249],[999,339],[999,416],[999,499],[999,587],[999,671],[999,749],[999,837],[999,915],[999,998],[999,1087],[999,1165],[999,1248],[999,1331],[999,1415],[999,1498],[999,1586],[999,1664],[999,1752],[999,1837],[999,1914],[999,2002],[999,2081],[999,2166],[999,2247],[999,2330],[999,2414],[999,2497],[999,2585],[999,2668],[999,2750],[999,2836],[999,2918],[999,2996],[999,3085],[999,3168],[999,3246],[999,3329],[999,3413],[999,3501],[999,3579],[999,3667],[999,3746],[999,3834],[999,3916],[999,3995],[999,4079],[999,4162],[999,4245],[999,4328],[999,4412],[999,4499],[999,4578],[999,4662],[999,4745],[999,4828],[999,4916],[999,4994],[999,5078],[999,5161],[999,5244],[999,5327],[999,5416],[999,5494],[999,5577],[999,5660],[999,5750],[999,5827],[999,5910],[999,5993],[999,6077],[999,6160],[999,6243],[999,6326],[999,6410],[999,6493],[999,6576],[999,6660],[999,6747],[999,6826],[999,6909],[999,6993],[999,7081],[999,7159],[999,7242],[999,7326],[999,7409],[999,7498],[999,7575],[999,7658],[999,7748],[999,7825],[999,7909],[999,7995],[999,8080],[999,8158],[999,8241],[999,8330],[999,8408],[999,8491],[999,8574],[999,8658],[999,8741],[999,8829],[999,8907],[999,8990],[999,9079],[999,9157],[999,9245],[999,9324],[999,9407],[999,9490],[999,9578],[999,9657],[999,9740],[999,9828],[999,9910],[999,9990],[999,10078],[999,10156],[999,10239],[999,10328],[999,10406],[999,10489],[999,10572],[999,10655],[999,10739],[999,10827],[999,10911],[999,10989],[999,11072],[999,11155],[999,11238],[999,11322],[999,11406],[999,11493],[999,11571],[999,11655],[999,11738],[999,11821],[999,11904],[999,11988],[999,12071],[999,12154],[999,12237],[999,12325],[999,12404],[999,12487],[999,12570],[999,12654],[999,12742],[999,12820],[999,12903],[999,12987],[999,13073],[999,13153],[999,13236],[999,13320],[999,13404],[999,13486],[999,13569],[999,13652],[999,13736],[999,13819],[999,13907],[999,13986],[999,14069],[999,14152],[999,14236],[999,14324],[999,14402],[999,14485],[999,14569],[999,14652],[999,14741],[999,14818],[999,14901],[999,14985],[999,15068],[999,15156],[999,15234],[999,15318],[999,15401],[999,15484],[999,15567],[999,15651],[999,15734],[999,15818],[999,15900],[999,15984],[999,16067],[999,16150],[999,16234],[999,16317],[999,16400],[999,16483],[999,16566],[999,16650],[999,16733],[999,16817],[999,16904],[999,16983],[999,17066],[999,17149],[999,17239],[999,17316],[999,17399],[999,17488],[999,17565],[999,17649],[999,17732],[999,17821],[999,17898],[999,17982],[999,18065],[999,18148],[999,18235],[999,18319],[999,18398],[999,18481],[999,18565],[999,18648],[999,18731],[999,18814],[999,18898],[999,18981],[999,19064],[999,19147],[999,19235],[999,19314],[999,19397],[999,19480],[999,19570],[999,19647],[999,19730],[999,19813],[999,19896],[999,19980],[999,20063],[999,20146],[999,20230],[999,20313],[999,20396],[999,20480],[999,20568],[999,20652],[999,20734],[999,20818],[999,20895],[999,20979],[999,21067],[999,21145],[999,21233],[999,21312],[999,21400],[999,21478],[999,21567],[999,21644],[999,21728],[999,21811],[999,21895],[999,21978],[999,22061],[999,22144],[999,22228],[999,22311],[999,22394],[999,22482],[999,22561],[999,22649],[999,22727],[999,22810],[999,22894],[999,22977],[999,23060],[999,23148],[999,23227],[999,23310],[999,23393],[999,23476],[999,23560],[999,23643],[999,23726],[999,23814],[999,23893],[999,23976],[999,24059],[999,24142],[999,24226],[999,24309],[999,24392],[999,24475],[999,24558],[999,24642],[999,24725],[999,24808],[999,24892],[999,24975],[999,25063],[999,25141],[999,25225],[999,25308],[999,25391],[999,25474],[999,25558],[999,25641],[999,25724],[999,25807],[999,25891],[999,25979],[999,26057],[999,26140],[999,26224],[999,26307],[999,26397],[999,26478],[999,26556],[999,26640],[999,26728],[999,26807],[999,26890],[999,26973],[999,27056],[999,27140],[999,27228],[999,27307],[999,27389],[999,27478],[999,27556],[999,27639],[999,27722],[999,27805],[999,27889],[999,27972],[999,28055],[999,28144],[999,28227],[999,28305],[999,28388],[999,28472],[999,28555],[999,28644],[999,28721],[999,28805],[999,28888],[999,28971],[999,29054],[999,29137],[999,29221],[999,29304],[999,29387],[999,29470],[999,29554],[999,29637],[999,29720],[999,29803],[999,29892],[999,29970],[999,30053],[999,30137],[999,30225],[999,30308],[999,30386],[999,30470],[999,30553],[999,30636],[999,30719],[999,30808],[999,30886],[999,30969],[999,31058],[999,31135],[999,31219],[999,31302],[999,31385],[999,31473],[999,31558],[999,31636],[999,31718],[999,31802],[999,31885],[999,31968],[999,32051],[999,32135],[999,32218],[999,32306],[999,32384],[999,32467],[999,32551],[999,32634],[999,32717],[999,32804],[999,32884],[999,32967],[999,33050],[999,33139],[999,33217],[999,33300],[999,33383],[999,33467],[999,33550],[999,33639],[999,33717],[999,33800],[999,33883],[999,33966],[999,34049],[999,34138],[999,34216],[999,34299],[999,34387],[999,34465],[999,34549],[999,34638],[999,34716],[999,34798],[999,34882],[999,34965],[999,35048],[999,35132],[999,35215],[999,35298],[999,35387],[999,35465],[999,35548],[999,35631],[999,35715],[999,35797],[999,35886],[999,35964],[999,36047],[999,36131],[999,36219],[999,36297],[999,36380],[999,36469],[999,36547],[999,36635],[999,36718],[999,36797],[999,36880],[999,36964],[999,37046],[999,37130],[999,37213],[999,37301],[999,37379],[999,37468],[999,37546],[999,37634],[999,37712],[999,37796],[999,37884],[999,37967],[999,38046],[999,38129],[999,38212],[999,38295],[999,38378],[999,38462],[999,38545],[999,38628],[999,38711],[999,38795],[999,38878],[999,38965],[999,39049],[999,39128],[999,39216],[999,39295],[999,39377],[999,39465],[999,39544]]",1360.2689,1372.706,73.42606149,1.922,"[{""rating"":73.42606149341142,""responseTime"":1.9220000000000255}]",space,11.8938,,1372.7063,Not at all,0,1372.7133,,,[],,0,9,9,9,1,audio/Narrative7Situation9.wav,audio/Narrative8Situation9.wav,audio/Narrative5Situation9.wav,audio/Narrative6Situation9.wav,2,3,3,4,,,,,,,,,,,,,,,,,,,,,,,,,,,,,,,,,,,,,,,
,,,,,676334ae578dda6ef33f5886,2025-07-07_15h47.50.917,group3.4_multiperson,2023.2.2,Win32,60.24096386,686c2ebf0248f13bef9af11f,686c31beffa228c67224ea7e,,,,,,,,,,,,,,,,,,,,,,,,,,,,,1372.7142,2,audio/Narrative6Situation1.wav,1374.7207,,1374.7208,1401.3163,"[[999,1],[999,82],[999,165],[999,249],[999,332],[999,415],[999,498],[999,582],[999,671],[999,753],[999,837],[999,920],[999,1004],[999,1086],[999,1170],[999,1253],[999,1337],[999,1420],[999,1503],[999,1586],[999,1670],[999,1752],[999,1837],[999,1919],[999,2002],[999,2085],[999,2170],[999,2252],[999,2336],[999,2418],[999,2502],[999,2585],[999,2669],[999,2751],[999,2834],[999,2918],[999,3001],[999,3084],[999,3168],[999,3252],[999,3334],[999,3418],[999,3501],[999,3585],[999,3667],[999,3751],[999,3834],[999,3918],[999,4000],[999,4084],[999,4166],[999,4251],[999,4333],[999,4418],[999,4500],[999,4583],[999,4666],[999,4750],[999,4833],[999,4916],[999,5000],[999,5082],[999,5165],[999,5249],[999,5333],[999,5415],[999,5500],[999,5582],[999,5665],[999,5748],[999,5832],[999,5915],[999,5998],[999,6081],[999,6164],[999,6250],[999,6331],[999,6414],[999,6498],[999,6581],[999,6664],[999,6748],[999,6832],[999,6914],[999,6999],[999,7081],[999,7164],[999,7247],[999,7330],[999,7413],[999,7497],[999,7580],[999,7663],[999,7747],[999,7830],[999,7914],[999,7996],[999,8081],[999,8162],[999,8246],[999,8330],[999,8413],[999,8496],[999,8579],[999,8662],[999,8745],[999,8828],[999,8912],[999,8995],[999,9080],[999,9162],[999,9245],[999,9328],[999,9411],[999,9495],[999,9578],[999,9662],[999,9744],[999,9829],[999,9911],[999,9994],[999,10077],[999,10161],[999,10244],[999,10327],[999,10411],[999,10494],[999,10577],[999,10661],[999,10744],[999,10826],[999,10911],[999,10993],[999,11077],[999,11160],[999,11244],[999,11326],[999,11411],[999,11492],[999,11577],[999,11660],[999,11743],[999,11826],[999,11910],[999,11992],[999,12076],[999,12159],[999,12243],[999,12325],[999,12409],[999,12492],[999,12576],[999,12658],[999,12742],[999,12825],[999,12908],[999,12991],[999,13074],[999,13158],[999,13241],[999,13325],[999,13407],[999,13492],[999,13574],[999,13659],[999,13741],[999,13825],[999,13907],[999,13991],[999,14074],[999,14158],[999,14240],[999,14324],[999,14406],[999,14491],[999,14573],[999,14656],[999,14740],[999,14824],[999,14907],[999,14990],[999,15073],[999,15156],[999,15241],[999,15322],[999,15406],[999,15489],[999,15573],[999,15655],[999,15740],[999,15822],[999,15906],[999,15989],[999,16071],[999,16155],[999,16240],[999,16321],[999,16405],[999,16488],[999,16572],[999,16654],[999,16739],[999,16821],[999,16904],[999,16989],[999,17071],[999,17155],[999,17237],[999,17320],[999,17404],[999,17487],[999,17570],[999,17654],[999,17737],[999,17822],[999,17903],[999,17987],[999,18070],[999,18154],[999,18236],[999,18321],[999,18402],[999,18487],[999,18570],[999,18654],[999,18736],[999,18820],[999,18902],[999,18985],[999,19070],[999,19152],[999,19235],[999,19320],[999,19402],[999,19486],[999,19568],[999,19652],[999,19734],[999,19819],[999,19901],[999,19984],[999,20068],[999,20151],[999,20235],[999,20317],[999,20401],[999,20485],[999,20567],[999,20651],[999,20734],[999,20817],[999,20901],[999,20983],[999,21068],[999,21150],[999,21234],[999,21317],[999,21401],[999,21483],[999,21566],[999,21650],[999,21732],[999,21816],[999,21900],[999,21982],[999,22066],[999,22149],[999,22233],[999,22315],[999,22400],[999,22482],[999,22565],[999,22649],[999,22732],[999,22816],[999,22899],[999,22981],[999,23065],[999,23148],[999,23231],[999,23314],[999,23400],[999,23481],[999,23564],[999,23648],[999,23731],[999,23814],[999,23897],[999,23981],[999,24065],[999,24147],[999,24232],[999,24313],[999,24397],[999,24480],[999,24563],[999,24648],[999,24730],[999,24814],[999,24896],[999,24980],[999,25063],[999,25146],[999,25230],[999,25313],[999,25396],[999,25480],[999,25562],[999,25645],[999,25729],[999,25812],[999,25895],[999,25979],[999,26062],[999,26145],[999,26228],[999,26312],[999,26396],[999,26478],[999,26561]]",1401.3167,1407.9717,49.85358712,2.7127,"[{""rating"":49.85358711566617,""responseTime"":2.7127000000029966}]",space,6.1046,,1407.9719,Partially,50,1407.9821,,,[],,0,10,10,10,1,audio/Narrative8Situation1.wav,audio/Narrative7Situation1.wav,audio/Narrative6Situation1.wav,audio/Narrative5Situation1.wav,5,2,2,5,,,,,,,,,,,,,,,,,,,,,,,,,,,,,,,,,,,,,,,
,,,,,676334ae578dda6ef33f5886,2025-07-07_15h47.50.917,group3.4_multiperson,2023.2.2,Win32,60.24096386,686c2ebf0248f13bef9af11f,686c31beffa228c67224ea7e,,,,,,,,,,,,,,,,,,,,,,,,,,,,,1407.983,2,audio/Narrative6Situation2.wav,1410.9847,,1410.9849,1439.4954,"[[999,0],[999,83],[999,166],[999,254],[999,332],[999,415],[999,499],[999,582],[999,672],[999,748],[999,832],[999,915],[999,998],[999,1081],[999,1165],[999,1248],[999,1337],[999,1414],[999,1498],[999,1586],[999,1664],[999,1747],[999,1836],[999,1914],[999,1997],[999,2084],[999,2164],[999,2252],[999,2330],[999,2414],[999,2497],[999,2580],[999,2663],[999,2746],[999,2834],[999,2913],[999,2996],[999,3086],[999,3163],[999,3246],[999,3329],[999,3413],[999,3496],[999,3579],[999,3667],[999,3746],[999,3829],[999,3912],[999,3995],[999,4082],[999,4162],[999,4245],[999,4328],[999,4412],[999,4495],[999,4578],[999,4661],[999,4744],[999,4828],[999,4911],[999,4994],[999,5078],[999,5161],[999,5244],[999,5328],[999,5416],[999,5494],[999,5577],[999,5660],[999,5743],[999,5832],[999,5910],[999,5993],[999,6076],[999,6165],[999,6243],[999,6326],[999,6410],[999,6493],[999,6576],[999,6659],[999,6743],[999,6826],[999,6909],[999,6992],[999,7076],[999,7159],[999,7247],[999,7325],[999,7414],[999,7497],[999,7575],[999,7658],[999,7742],[999,7830],[999,7908],[999,7996],[999,8075],[999,8158],[999,8246],[999,8324],[999,8413],[999,8491],[999,8579],[999,8657],[999,8746],[999,8824],[999,8907],[999,8991],[999,9074],[999,9162],[999,9244],[999,9324],[999,9406],[999,9496],[999,9578],[999,9658],[999,9740],[999,9823],[999,9906],[999,9989],[999,10073],[999,10156],[999,10244],[999,10322],[999,10406],[999,10489],[999,10572],[999,10655],[999,10739],[999,10822],[999,10905],[999,10988],[999,11072],[999,11160],[999,11238],[999,11321],[999,11410],[999,11488],[999,11576],[999,11654],[999,11738],[999,11821],[999,11904],[999,11987],[999,12071],[999,12154],[999,12242],[999,12320],[999,12404],[999,12487],[999,12575],[999,12653],[999,12737],[999,12820],[999,12903],[999,12987],[999,13075],[999,13153],[999,13236],[999,13325],[999,13403],[999,13486],[999,13575],[999,13652],[999,13736],[999,13819],[999,13902],[999,13986],[999,14069],[999,14152],[999,14235],[999,14319],[999,14407],[999,14485],[999,14573],[999,14651],[999,14735],[999,14823],[999,14901],[999,14985],[999,15068],[999,15151],[999,15239],[999,15322],[999,15401],[999,15485],[999,15572],[999,15651],[999,15734],[999,15817],[999,15900],[999,15984],[999,16072],[999,16150],[999,16233],[999,16317],[999,16400],[999,16483],[999,16566],[999,16650],[999,16732],[999,16816],[999,16904],[999,16983],[999,17066],[999,17154],[999,17232],[999,17320],[999,17399],[999,17482],[999,17566],[999,17654],[999,17732],[999,17815],[999,17898],[999,17982],[999,18066],[999,18148],[999,18237],[999,18315],[999,18398],[999,18486],[999,18564],[999,18653],[999,18731],[999,18814],[999,18897],[999,18981],[999,19064],[999,19147],[999,19234],[999,19314],[999,19402],[999,19481],[999,19563],[999,19646],[999,19735],[999,19813],[999,19896],[999,19980],[999,20063],[999,20146],[999,20229],[999,20313],[999,20396],[999,20479],[999,20562],[999,20646],[999,20735],[999,20812],[999,20895],[999,20979],[999,21062],[999,21145],[999,21228],[999,21312],[999,21395],[999,21478],[999,21561],[999,21645],[999,21728],[999,21811],[999,21899],[999,21978],[999,22066],[999,22144],[999,22227],[999,22314],[999,22394],[999,22477],[999,22560],[999,22644],[999,22727],[999,22810],[999,22893],[999,22977],[999,23065],[999,23143],[999,23226],[999,23310],[999,23393],[999,23476],[999,23562],[999,23643],[999,23731],[999,23809],[999,23893],[999,23976],[999,24059],[999,24142],[999,24225],[999,24309],[999,24392],[999,24475],[999,24558],[999,24648],[999,24725],[999,24808],[999,24892],[999,24975],[999,25058],[999,25141],[999,25224],[999,25308],[999,25391],[999,25474],[999,25561],[999,25641],[999,25724],[999,25812],[999,25896],[999,25980],[999,26057],[999,26140],[999,26224],[999,26307],[999,26390],[999,26473],[999,26556],[999,26640],[999,26723],[999,26806],[999,26889],[999,26973],[999,27056],[999,27139],[999,27222],[999,27306],[999,27389],[999,27472],[999,27556],[999,27639],[999,27726],[999,27805],[999,27888],[999,27978],[999,28055],[999,28138],[999,28222],[999,28305],[999,28388],[999,28471]]",1439.4958,1450.1502,55.41727672,2.8245,"[{""rating"":55.417276720351396,""responseTime"":2.824500000000171}]",space,10.1132,,1450.1503,Partially,50,1450.1528,,,[],,0,11,11,11,1,audio/Narrative8Situation2.wav,audio/Narrative7Situation2.wav,audio/Narrative6Situation2.wav,audio/Narrative5Situation2.wav,3,3,3,3,,,,,,,,,,,,,,,,,,,,,,,,,,,,,,,,,,,,,,,
,,,,,676334ae578dda6ef33f5886,2025-07-07_15h47.50.917,group3.4_multiperson,2023.2.2,Win32,60.24096386,686c2ebf0248f13bef9af11f,686c31beffa228c67224ea7e,,,,,,,,,,,,,,,,,,,,,,,,,,,,,1450.1532,2,audio/Narrative6Situation3.wav,1455.1617,,1455.1618,1467.7856,"[[999,1],[999,79],[999,162],[999,245],[999,329],[999,412],[999,495],[999,579],[999,670],[999,752],[999,833],[999,918],[999,1000],[999,1084],[999,1166],[999,1250],[999,1333],[999,1417],[999,1500],[999,1583],[999,1666],[999,1749],[999,1832],[999,1916],[999,1999],[999,2082],[999,2165],[999,2249],[999,2332],[999,2415],[999,2500],[999,2582],[999,2666],[999,2749],[999,2831],[999,2915],[999,2999],[999,3081],[999,3164],[999,3248],[999,3331],[999,3414],[999,3499],[999,3581],[999,3665],[999,3748],[999,3831],[999,3914],[999,3998],[999,4080],[999,4163],[999,4247],[999,4330],[999,4413],[999,4499],[999,4581],[999,4663],[999,4747],[999,4830],[999,4913],[999,4996],[999,5080],[999,5163],[999,5246],[999,5329],[999,5412],[999,5497],[999,5579],[999,5663],[999,5745],[999,5830],[999,5913],[999,5995],[999,6079],[999,6162],[999,6245],[999,6329],[999,6412],[999,6494],[999,6579],[999,6661],[999,6745],[999,6828],[999,6911],[999,6994],[999,7079],[999,7160],[999,7245],[999,7327],[999,7410],[999,7493],[999,7577],[999,7660],[999,7743],[999,7827],[999,7911],[999,7993],[999,8077],[999,8160],[999,8243],[999,8326],[999,8411],[999,8492],[999,8576],[999,8660],[999,8742],[999,8826],[999,8909],[999,8993],[999,9076],[999,9160],[999,9242],[999,9326],[999,9409],[999,9491],[999,9575],[999,9658],[999,9742],[999,9825],[999,9908],[999,9991],[999,10074],[999,10158],[999,10241],[999,10324],[999,10407],[999,10491],[999,10575],[999,10657],[999,10741],[999,10824],[999,10908],[999,10990],[999,11073],[999,11156],[999,11240],[999,11324],[999,11407],[999,11491],[999,11573],[999,11657],[999,11740],[999,11823],[999,11906],[999,11989],[999,12072],[999,12156],[999,12239],[999,12322],[999,12405],[999,12489],[999,12572]]",1467.7859,1481.671,51.17130307,5.1636,"[{""rating"":51.17130307467057,""responseTime"":5.163600000001452}]",space,13.3478,,1481.6712,Definitely yes,100,1481.6822,,,[],,0,12,12,12,1,audio/Narrative8Situation3.wav,audio/Narrative7Situation3.wav,audio/Narrative6Situation3.wav,audio/Narrative5Situation3.wav,4,8,5,3,,,,,,,,,,,,,,,,,,,,,,,,,,,,,,,,,,,,,,,
,,,,,676334ae578dda6ef33f5886,2025-07-07_15h47.50.917,group3.4_multiperson,2023.2.2,Win32,60.24096386,686c2ebf0248f13bef9af11f,686c31beffa228c67224ea7e,,,,,,,,,,,,,,,,,,,,,,,,,,,,,1481.6834,2,audio/Narrative6Situation4.wav,1483.6972,,1483.6973,1496.3243,"[[999,1],[999,82],[999,165],[999,249],[999,338],[999,415],[999,499],[999,582],[999,665],[999,755],[999,831],[999,915],[999,1003],[999,1081],[999,1164],[999,1252],[999,1331],[999,1414],[999,1498],[999,1581],[999,1665],[999,1747],[999,1830],[999,1919],[999,1997],[999,2085],[999,2163],[999,2251],[999,2330],[999,2413],[999,2497],[999,2580],[999,2667],[999,2746],[999,2835],[999,2913],[999,2996],[999,3079],[999,3163],[999,3251],[999,3329],[999,3412],[999,3500],[999,3579],[999,3662],[999,3745],[999,3828],[999,3912],[999,3995],[999,4078],[999,4161],[999,4245],[999,4328],[999,4411],[999,4500],[999,4578],[999,4661],[999,4744],[999,4834],[999,4911],[999,4999],[999,5083],[999,5166],[999,5244],[999,5333],[999,5410],[999,5493],[999,5577],[999,5660],[999,5743],[999,5827],[999,5910],[999,5993],[999,6076],[999,6160],[999,6243],[999,6326],[999,6409],[999,6493],[999,6576],[999,6659],[999,6747],[999,6826],[999,6909],[999,6992],[999,7080],[999,7165],[999,7247],[999,7325],[999,7408],[999,7492],[999,7580],[999,7658],[999,7741],[999,7825],[999,7913],[999,7992],[999,8074],[999,8158],[999,8241],[999,8324],[999,8412],[999,8491],[999,8574],[999,8657],[999,8745],[999,8824],[999,8907],[999,8990],[999,9073],[999,9157],[999,9240],[999,9323],[999,9406],[999,9490],[999,9573],[999,9661],[999,9745],[999,9823],[999,9906],[999,9994],[999,10078],[999,10160],[999,10239],[999,10322],[999,10405],[999,10494],[999,10572],[999,10659],[999,10738],[999,10827],[999,10905],[999,10988],[999,11071],[999,11155],[999,11238],[999,11321],[999,11405],[999,11488],[999,11571],[999,11658],[999,11738],[999,11821],[999,11904],[999,11993],[999,12071],[999,12154],[999,12237],[999,12320],[999,12403],[999,12487],[999,12571]]",1496.3247,1505.4989,57.32064422,3.5152,"[{""rating"":57.32064421669107,""responseTime"":3.5151999999991403}]",space,8.6409,,1505.499,Definitely yes,100,1505.5045,,,[],,0,13,13,13,1,audio/Narrative8Situation4.wav,audio/Narrative7Situation4.wav,audio/Narrative6Situation4.wav,audio/Narrative5Situation4.wav,3,3,2,1,,,,,,,,,,,,,,,,,,,,,,,,,,,,,,,,,,,,,,,
,,,,,676334ae578dda6ef33f5886,2025-07-07_15h47.50.917,group3.4_multiperson,2023.2.2,Win32,60.24096386,686c2ebf0248f13bef9af11f,686c31beffa228c67224ea7e,,,,,,,,,,,,,,,,,,,,,,,,,,,,,1505.5054,2,audio/Narrative6Situation5.wav,1507.5111,,1507.5112,1515.4716,[],1515.4719,1522.5655,57.02781845,2.9117,"[{""rating"":57.027818448023424,""responseTime"":2.9116999999992004}]",space,6.547,,1522.5658,Not at all,0,1522.579,,,[],,0,14,14,14,1,audio/Narrative8Situation5.wav,audio/Narrative7Situation5.wav,audio/Narrative6Situation5.wav,audio/Narrative5Situation5.wav,2,5,2,5,,,,,,,,,,,,,,,,,,,,,,,,,,,,,,,,,,,,,,,
,,,,,676334ae578dda6ef33f5886,2025-07-07_15h47.50.917,group3.4_multiperson,2023.2.2,Win32,60.24096386,686c2ebf0248f13bef9af11f,686c31beffa228c67224ea7e,,,,,,,,,,,,,,,,,,,,,,,,,,,,,1522.5799,2,audio/Narrative6Situation6.wav,1524.5901,,1524.5902,1535.6798,[],1535.68,1543.0625,57.17423133,3.1208,"[{""rating"":57.17423133235725,""responseTime"":3.1207999999969616}]",space,6.8408,,1543.0627,Partially,50,1543.0721,,,[],,0,15,15,15,1,audio/Narrative8Situation6.wav,audio/Narrative7Situation6.wav,audio/Narrative6Situation6.wav,audio/Narrative5Situation6.wav,2,3,2,3,,,,,,,,,,,,,,,,,,,,,,,,,,,,,,,,,,,,,,,
,,,,,676334ae578dda6ef33f5886,2025-07-07_15h47.50.917,group3.4_multiperson,2023.2.2,Win32,60.24096386,686c2ebf0248f13bef9af11f,686c31beffa228c67224ea7e,,,,,,,,,,,,,,,,,,,,,,,,,,,,,1543.0732,2,audio/Narrative6Situation7.wav,1548.0838,,1548.0839,1572.943,[],1572.9433,1580.1915,57.17423133,3.4672,"[{""rating"":57.17423133235725,""responseTime"":3.4671999999991385}]",space,6.6824,,1580.1916,Partially,50,1580.1969,,,[],,0,16,16,16,1,audio/Narrative8Situation7.wav,audio/Narrative7Situation7.wav,audio/Narrative6Situation7.wav,audio/Narrative5Situation7.wav,3,5,5,4,,,,,,,,,,,,,,,,,,,,,,,,,,,,,,,,,,,,,,,
,,,,,676334ae578dda6ef33f5886,2025-07-07_15h47.50.917,group3.4_multiperson,2023.2.2,Win32,60.24096386,686c2ebf0248f13bef9af11f,686c31beffa228c67224ea7e,,,,,,,,,,,,,,,,,,,,,,,,,,,,,1580.1977,2,audio/Narrative6Situation8.wav,1585.2025,,1585.2025,1592.0742,"[[999,1],[999,94],[999,177],[999,261],[999,344],[999,427],[999,510],[999,593],[999,677],[999,760],[999,849],[999,932],[999,1016],[999,1093],[999,1176],[999,1260],[999,1343],[999,1426],[999,1509],[999,1593],[999,1676],[999,1759],[999,1843],[999,1926],[999,2014],[999,2096],[999,2176],[999,2259],[999,2348],[999,2425],[999,2508],[999,2592],[999,2675],[999,2763],[999,2841],[999,2925],[999,3008],[999,3091],[999,3174],[999,3262],[999,3341],[999,3424],[999,3507],[999,3591],[999,3674],[999,3757],[999,3841],[999,3924],[999,4007],[999,4090],[999,4174],[999,4257],[999,4340],[999,4427],[999,4507],[999,4590],[999,4678],[999,4761],[999,4845],[999,4928],[999,5006],[999,5089],[999,5178],[999,5256],[999,5339],[999,5422],[999,5506],[999,5594],[999,5678],[999,5755],[999,5838],[999,5922],[999,6005],[999,6088],[999,6172],[999,6255],[999,6338],[999,6421],[999,6509],[999,6588],[999,6671],[999,6760],[999,6838]]",1592.0749,1603.352,31.40556369,6.4644,"[{""rating"":31.405563689604687,""responseTime"":6.464399999998477}]",space,10.728,,1603.3523,Definitely yes,100,1603.3639,,,[],,0,17,17,17,1,audio/Narrative8Situation8.wav,audio/Narrative7Situation8.wav,audio/Narrative6Situation8.wav,audio/Narrative5Situation8.wav,3,2,5,3,,,,,,,,,,,,,,,,,,,,,,,,,,,,,,,,,,,,,,,
