consent.started,consent.stopped,consentResponse.keys,consentResponse.rt,consentResponse.duration,participantID,date,expName,psychopyVersion,OS,frameRate,STUDY_ID,SESSION_ID,opening1.started,opening1.stopped,keyEndingOpening1.keys,keyEndingOpening1.rt,keyEndingOpening1.duration,volumeAdjust.started,volumeAdjust.stopped,endingAdjust.keys,endingAdjust.rt,endingAdjust.duration,opening2.started,opening2.stopped,keyEndingOpening.keys,keyEndingOpening.rt,keyEndingOpening.duration,mouse.x,mouse.y,mouse.leftButton,mouse.midButton,mouse.rightButton,mouse.time,instructionLoop.thisRepN,instructionLoop.thisTrialN,instructionLoop.thisN,instructionLoop.thisIndex,instructionLoop.ran,readyForAudio.started,readyForAudio.stopped,fixation.started,run,audio_played,fixation.stopped,endPractice.keys,audioPre.started,audioPre.stopped,continuousResponses_audio,intRating.started,intRating.stopped,intQuestionSlider.response,intQuestionSlider.rt,intQuestionSlider.history,confirmResponse.keys,confirmResponse.rt,confirmResponse.duration,catchQuestion.started,catch_label,catch_value,catchQuestion.stopped,catchQuestionSlider.response,catchQuestionSlider.rt,catchQuestionSlider.history,confirmResponse_2.keys,audioRunLoop.thisRepN,audioRunLoop.thisTrialN,audioRunLoop.thisN,audioRunLoop.thisIndex,audioRunLoop.ran,conditions1_1,conditions2_1,conditions1_2,conditions2_2,dur1_1,dur2_1,dur1_2,dur2_2,endPractice.rt,endPractice.duration,confirmResponse_2.rt,confirmResponse_2.duration,runIntervalBreak.started,runIntervalBreak.stopped,endingBreakKey.keys,endingBreakKey.rt,endingBreakKey.duration,connection.started,connection.stopped,connectionEnding.keys,connectionEnding.rt,connectionEnding.duration,readyForText.started,readyForText.stopped,textPre.started,run_dup,textPre.stopped,continuousResponses_text,textRunLoop.thisRepN,textRunLoop.thisTrialN,textRunLoop.thisN,textRunLoop.thisIndex,textRunLoop.ran,text1_1,text1_2,text2_1,text2_2,runBreakText.started,runBreakText.stopped,endingBreakKey_2.keys,endingBreakKey_2.rt,endingBreakKey_2.duration,ending.started,ending.stopped,endingEnding.keys,endingEnding.rt,endingEnding.duration
0.0006,20.5634,y,20.2538,0.0007,676fa93a6e1840db7ea43423,2025-07-07_19h02.20.593,group3.4_multiperson,2023.2.2,Win32,166.6666667,686c2ebf0248f13bef9af11f,686c7bfdc9dabd424120a724,,,,,,,,,,,,,,,,,,,,,,,,,,,,,,,,,,,,,,,,,,,,,,,,,,,,,,,,,,,,,,,,,,,,,,,,,,,,,,,,,,,,,,,,,,,,,,,,,,,,,,,,
,,,,,676fa93a6e1840db7ea43423,2025-07-07_19h02.20.593,group3.4_multiperson,2023.2.2,Win32,166.6666667,686c2ebf0248f13bef9af11f,686c7bfdc9dabd424120a724,20.5635,25.1131,space,4.5329,,,,,,,,,,,,,,,,,,,,,,,,,,,,,,,,,,,,,,,,,,,,,,,,,,,,,,,,,,,,,,,,,,,,,,,,,,,,,,,,,,,,,,,,,,,,,,,,,,,,
,,,,,676fa93a6e1840db7ea43423,2025-07-07_19h02.20.593,group3.4_multiperson,2023.2.2,Win32,166.6666667,686c2ebf0248f13bef9af11f,686c7bfdc9dabd424120a724,,,,,,25.1132,86.505,space,61.0853,,,,,,,,,,,,,,,,,,,,,,,,,,,,,,,,,,,,,,,,,,,,,,,,,,,,,,,,,,,,,,,,,,,,,,,,,,,,,,,,,,,,,,,,,,,,,,,
,,,,,676fa93a6e1840db7ea43423,2025-07-07_19h02.20.593,group3.4_multiperson,2023.2.2,Win32,166.6666667,686c2ebf0248f13bef9af11f,686c7bfdc9dabd424120a724,,,,,,,,,,,86.5081,95.8265,space,9.3089,,[],[],[],[],[],[],0,0,0,0,1,,,,,,,,,,,,,,,,,,,,,,,,,,,,,,,,,,,,,,,,,,,,,,,,,,,,,,,,,,,,,,,,,,,,,,,,,,,,,,
,,,,,676fa93a6e1840db7ea43423,2025-07-07_19h02.20.593,group3.4_multiperson,2023.2.2,Win32,166.6666667,686c2ebf0248f13bef9af11f,686c7bfdc9dabd424120a724,,,,,,,,,,,95.8269,110.5886,space,14.7098,,[],[],[],[],[],[],1,0,1,0,1,,,,,,,,,,,,,,,,,,,,,,,,,,,,,,,,,,,,,,,,,,,,,,,,,,,,,,,,,,,,,,,,,,,,,,,,,,,,,,
,,,,,676fa93a6e1840db7ea43423,2025-07-07_19h02.20.593,group3.4_multiperson,2023.2.2,Win32,166.6666667,686c2ebf0248f13bef9af11f,686c7bfdc9dabd424120a724,,,,,,,,,,,110.5887,120.9034,space,10.2954,,[],[],[],[],[],[],2,0,2,0,1,,,,,,,,,,,,,,,,,,,,,,,,,,,,,,,,,,,,,,,,,,,,,,,,,,,,,,,,,,,,,,,,,,,,,,,,,,,,,,
,,,,,676fa93a6e1840db7ea43423,2025-07-07_19h02.20.593,group3.4_multiperson,2023.2.2,Win32,166.6666667,686c2ebf0248f13bef9af11f,686c7bfdc9dabd424120a724,,,,,,,,,,,120.9037,175.9015,space,54.9884,,[],[],[],[],[],[],3,0,3,0,1,,,,,,,,,,,,,,,,,,,,,,,,,,,,,,,,,,,,,,,,,,,,,,,,,,,,,,,,,,,,,,,,,,,,,,,,,,,,,,
,,,,,676fa93a6e1840db7ea43423,2025-07-07_19h02.20.593,group3.4_multiperson,2023.2.2,Win32,166.6666667,686c2ebf0248f13bef9af11f,686c7bfdc9dabd424120a724,,,,,,,,,,,175.9018,191.3737,space,15.4617,,[],[],[],[],[],[],4,0,4,0,1,,,,,,,,,,,,,,,,,,,,,,,,,,,,,,,,,,,,,,,,,,,,,,,,,,,,,,,,,,,,,,,,,,,,,,,,,,,,,,
,,,,,676fa93a6e1840db7ea43423,2025-07-07_19h02.20.593,group3.4_multiperson,2023.2.2,Win32,166.6666667,686c2ebf0248f13bef9af11f,686c7bfdc9dabd424120a724,,,,,,,,,,,191.374,204.3308,space,12.9464,,[],[],[],[],[],[],5,0,5,0,1,,,,,,,,,,,,,,,,,,,,,,,,,,,,,,,,,,,,,,,,,,,,,,,,,,,,,,,,,,,,,,,,,,,,,,,,,,,,,,
,,,,,676fa93a6e1840db7ea43423,2025-07-07_19h02.20.593,group3.4_multiperson,2023.2.2,Win32,166.6666667,686c2ebf0248f13bef9af11f,686c7bfdc9dabd424120a724,,,,,,,,,,,,,,,,,,,,,,,,,,,204.3319,206.9126,206.9268,1,audio/Narrative13Situation2.wav,208.9307,,208.9308,238.663,"[[54.8,606],[54.7,691],[54.4,777],[53.4,862],[59.6,1292],[57.3,1376],[54.3,1462],[54.3,1545],[53.1,1632],[51.1,1716],[51,1799],[51,1884],[51,1969],[51,2054],[51,2138],[51,2224],[51,2308],[51,2393],[51,2478],[51,2564],[51,2648],[51,2733],[51,2817],[51,2902],[50.8,2990],[50.6,3072],[50.6,3158],[50.6,3242],[50.6,3326],[50.6,3411],[50.6,3496],[50.6,3581],[50.6,3666],[50.6,3751],[50.6,3835],[50.6,3920],[50.6,4005],[50.6,4090],[50.6,4175],[50.6,4260],[50.6,4347],[50.6,4429],[50.6,4514],[50.6,4599],[50.9,4684],[50.9,4769],[52.6,4854],[53.9,4938],[54.1,5024],[54.6,5108],[54.9,5193],[55.6,5278],[55.6,5363],[55.6,5448],[56.4,5532],[56.4,5617],[56.4,5702],[56,5787],[54.8,5872],[53.4,5959],[52.7,6042],[52.6,6128],[51.6,6214],[49.2,6298],[47.9,6381],[47.9,6466],[48.1,6552],[49.3,6638],[51.7,6723],[51.7,6805],[51.7,6890],[50.9,6977],[50.6,7060],[50.4,7145],[50.2,7229],[49.7,7314],[49.7,7399],[49.7,7484],[49.8,7569],[49.9,7653],[49.9,7738],[49.9,7823],[49.9,7908],[49.9,7993],[50,8078],[50.1,8162],[51,8249],[51,8332],[51,8419],[51,8502],[51,8587],[51,8672],[51,8757],[51,8841],[51,8926],[51,9011],[51,9096],[51,9181],[51,9267],[51,9350],[51,9437],[51,9520],[51,9605],[51,9690],[51,9775],[51,9860],[51,9944],[51,10029],[51,10114],[51,10199],[51,10284],[51,10369],[51,10453],[51,10538],[51,10623],[51,10708],[51,10793],[51,10878],[51,10962],[51,11047],[51,11132],[51.3,11217],[52.1,11302],[52.2,11387],[52.3,11472],[52.3,11556],[52.6,11641],[57.6,11729],[57.7,11811],[58.1,11897],[58.5,11981],[59.6,12067],[60.1,12151],[60.7,12235],[61.6,12320],[62.9,12407],[62.9,12490],[63.1,12577],[64,12659],[64.3,12744],[64.3,12829],[64.3,12914],[64.3,12999],[64.3,13084],[64.3,13168],[64.3,13253],[64.6,13340],[65.6,13425],[66.1,13508],[66.5,13593],[66.5,13677],[66.8,13762],[67.3,13847],[67.4,13932],[67.5,14017],[67.6,14102],[67.8,14189],[68,14271],[68.3,14356],[68.3,14441],[68.3,14526],[68.3,14611],[68.3,14696],[68.3,14781],[68.3,14865],[68.3,14950],[68.3,15035],[68.3,15120],[68.3,15205],[68.3,15290],[68.3,15374],[68.3,15459],[68.3,15544],[68.3,15629],[68.3,15714],[68.3,15799],[68.3,15883],[68.2,15968],[68.2,16053],[68.2,16138],[68.2,16223],[68.2,16308],[68.2,16393],[68.2,16477],[68.2,16562],[68.2,16647],[68.2,16732],[68.2,16817],[68.2,16902],[68.2,16987],[68.2,17071],[68.2,17156],[68.2,17241],[68.2,17326],[68.2,17411],[68.2,17495],[68.2,17580],[68.2,17665],[68.2,17750],[68.2,17835],[68.2,17920],[68.2,18005],[68.8,18089],[69.4,18174],[69.4,18259],[69.4,18344],[69.4,18429],[69.4,18514],[69.4,18598],[69.4,18683],[69.4,18768],[69.4,18853],[69.5,18938],[69.5,19023],[69.5,19108],[69.5,19192],[69.5,19277],[69.5,19362],[69.5,19447],[69.5,19532],[69.5,19618],[69.5,19702],[69.5,19786],[69.5,19871],[69.5,19956],[69.5,20041],[69.5,20126],[68.9,20211],[68.6,20297],[68.6,20380],[68.6,20465],[68.2,20550],[66,20635],[66,20720],[66,20805],[65.1,20889],[64.6,20974],[64,21061],[63.3,21144],[62.2,21230],[60.9,21314],[59.7,21401],[58.8,21483],[57.5,21568],[56,21653],[55.5,21739],[55,21823],[54.4,21907],[54.3,21992],[54.3,22077],[54.3,22162],[54.3,22247],[54.3,22332],[54.3,22417],[54.4,22503],[54.7,22586],[56.6,22679],[59.8,22763],[63.8,22849],[66.6,22932],[66.8,23017],[66.8,23101],[67.3,23189],[68.1,23271],[68.1,23356],[68.1,23441],[68.1,23526],[68.1,23611],[68.1,23695],[68.1,23780],[68.1,23865],[68.1,23950],[68.1,24035],[68.1,24119],[67.9,24206],[67.3,24289],[49.6,24376],[48.1,24459],[50.6,24546],[55.3,24629],[58.2,24715],[60,24801],[62.5,24883],[66.1,24968],[66.9,25053],[67.4,25139],[69.3,25224],[72.6,25309],[72.7,25392],[72.7,25477],[72.7,25562],[72.7,25647],[72.7,25732],[72.7,25816],[72.7,25901],[72.7,25986],[72.7,26071],[72.7,26156],[72.7,26241],[72.7,26325],[72.7,26410],[72.7,26495],[72.7,26580],[72.7,26665],[72.7,26750],[72.7,26835],[72.7,26919],[72.7,27004],[72.7,27089],[72.7,27174],[72.7,27259],[72.7,27344],[72.7,27429],[72.7,27513],[72.7,27598],[72.7,27683],[72.7,27768],[72.7,27853],[72.7,27938],[72.7,28022],[72.7,28107],[72.7,28192],[72.8,28277],[72.9,28362],[73.4,28447],[74,28532],[74.8,28618],[75.1,28703],[75.9,28788],[77.3,28872],[79.4,28958],[81.7,29043],[84.8,29127],[86.3,29212],[87.7,29295],[87.9,29380],[87.9,29465],[87.9,29550],[87.9,29635],[87.9,29719]]",238.6632,246.8082,91.04166667,5.914,"[{""rating"":91.04166666666667,""responseTime"":5.913999999999987}]",space,7.6326,,246.8084,Definitely yes,100,246.8112,,,[],,0,0,0,0,1,audio/Narrative13Situation2.wav,audio/Narrative13Situation2.wav,audio/Narrative13Situation2.wav,audio/Narrative13Situation2.wav,2,2,2,2,,,,,,,,,,,,,,,,,,,,,,,,,,,,,,,,,,,,,,,
,,,,,676fa93a6e1840db7ea43423,2025-07-07_19h02.20.593,group3.4_multiperson,2023.2.2,Win32,166.6666667,686c2ebf0248f13bef9af11f,686c7bfdc9dabd424120a724,,,,,,,,,,,,,,,,,,,,,,,,,,,,,246.8113,1,audio/Narrative8Situation1.wav,248.5839,space,248.5841,264.4882,"[[999,0],[999,84],[999,169],[999,254],[999,338],[999,423],[999,508],[999,593],[65.6,678],[65.2,763],[64.9,848],[64.3,932],[64.1,1018],[64.1,1102],[64.1,1187],[64.1,1272],[63.3,1357],[59.9,1441],[59.9,1526],[62.6,1611],[63.3,1696],[64.7,1781],[66.1,1866],[66.9,1951],[70.3,2036],[77.9,2120],[84.2,2205],[88.9,2290],[91.6,2375],[94.1,2460],[96.6,2545],[98.8,2630],[99.8,2714],[100,2799],[100,2884],[100,2969],[100,3054],[100,3139],[100,3223],[100,3308],[100,3393],[100,3478],[100,3563],[100,3648],[100,3732],[100,3817],[100,3902],[100,3987],[100,4072],[100,4157],[100,4241],[100,4326],[100,4411],[100,4496],[100,4581],[100,4666],[100,4750],[100,4835],[100,4920],[100,5005],[100,5090],[100,5175],[100,5260],[100,5344],[100,5429],[100,5514],[100,5599],[100,5684],[100,5769],[100,5853],[100,5938],[100,6023],[100,6108],[100,6193],[99.8,6278],[99.8,6363],[99.8,6447],[99.8,6532],[99.8,6617],[99.8,6702],[99.8,6787],[99.8,6872],[99.8,6956],[99.8,7041],[99.8,7126],[99.8,7211],[99.8,7296],[99.8,7381],[99.8,7465],[99.8,7550],[99.7,7635],[99.5,7720],[99.5,7805],[99.4,7890],[99.3,7975],[99.3,8059],[99.3,8144],[99.3,8229],[99.3,8314],[99.3,8399],[99.3,8484],[99.3,8568],[99.3,8653],[99.3,8738],[99.3,8823],[99.3,8908],[99.3,8993],[99.3,9078],[99.3,9162],[99.3,9247],[99.3,9332],[99.3,9417],[99.3,9502],[99.3,9587],[99.3,9671],[99.3,9756],[99.3,9841],[99.3,9926],[99.3,10011],[99.3,10096],[99.3,10181],[99.3,10265],[99.4,10350],[100,10435],[100,10520],[100,10605],[100,10690],[100,10774],[100,10859],[100,10944],[100,11029],[100,11114],[100,11199],[100,11284],[100,11368],[100,11453],[100,11538],[100,11623],[100,11708],[100,11793],[100,11877],[100,11962],[100,12047],[100,12132],[100,12217],[100,12302],[99.9,12387],[99.5,12472],[97.2,12557],[89.2,12643],[88.9,12728],[88.9,12813],[92.8,12897],[96.6,12982],[97.6,13067],[97.6,13152],[97.9,13237],[100,13322],[100,13407],[98.3,13492],[97.9,13577],[97.9,13661],[98.5,13746],[98.8,13831],[98.8,13916],[98.8,14000],[98.4,14085],[98.3,14170],[98.3,14255],[98.3,14340],[98.3,14425],[98.3,14509],[98.3,14594],[98.3,14679],[98.3,14763],[98.5,14849],[99.9,14933],[100,15018],[100,15103],[100,15188],[100,15273],[99.9,15358],[99.9,15443],[99.9,15528],[99.9,15612],[99.9,15697],[99.9,15782],[99.9,15867]]",264.4885,267.1609,99.47916667,1.6478,"[{""rating"":99.47916666666667,""responseTime"":1.6477999999522694}]",space,2.1586,,267.161,Not at all,0,267.163,,,[],,0,1,1,1,1,audio/Narrative7Situation1.wav,audio/Narrative8Situation1.wav,audio/Narrative5Situation1.wav,audio/Narrative6Situation1.wav,2,5,5,2,1.764,,,,,,,,,,,,,,,,,,,,,,,,,,,,,,,,,,,,,,
,,,,,676fa93a6e1840db7ea43423,2025-07-07_19h02.20.593,group3.4_multiperson,2023.2.2,Win32,166.6666667,686c2ebf0248f13bef9af11f,686c7bfdc9dabd424120a724,,,,,,,,,,,,,,,,,,,,,,,,,,,,,267.1631,1,audio/Narrative8Situation2.wav,270.1662,,270.1663,280.2675,"[[999,0],[999,84],[999,169],[999,254],[999,339],[999,424],[999,509],[999,594],[999,678],[999,764],[999,848],[999,932],[999,1018],[999,1103],[999,1188],[999,1272],[999,1357],[58.4,1442],[55.3,1528],[53.4,1612],[51,1697],[48.9,1781],[47,1867],[43,1951],[39.6,2037],[36.8,2121],[32.6,2206],[24.8,2291],[19.9,2376],[19.9,2460],[19.9,2545],[19.9,2630],[19.9,2715],[20.3,2800],[20.9,2884],[20.9,2969],[21.3,3054],[21.3,3139],[21.3,3224],[21.3,3308],[21.5,3393],[21.6,3479],[22.1,3564],[22.7,3648],[27.6,3733],[63,3819],[82.4,3902],[82.4,3987],[82.5,4072],[81.3,4159],[77.4,4242],[71.4,4340],[70.2,4422],[70.2,4507],[70.2,4592],[69.9,4677],[69.9,4761],[69.9,4846],[69.8,4931],[68.2,5018],[62.9,5101],[52.7,5188],[50.8,5271],[50.8,5355],[50.6,5440],[50.6,5526],[50.6,5610],[50.6,5695],[50.6,5780],[50.3,5864],[49.7,5951],[48,6037],[41.3,6119],[33.5,6206],[33.3,6289],[29.4,6375],[16.7,6460],[9.1,6545],[8.6,6628],[8.1,6715],[3.1,6800],[2.5,6882],[2.5,6967],[2.5,7052],[2.5,7137],[2.5,7222],[2.5,7307],[2.5,7392],[2.5,7477],[2.5,7561],[2.5,7646],[2.4,7733],[1.1,7816],[0.2,7901],[0.2,7986],[0.2,8070],[0.2,8157],[0.2,8240],[0.2,8325],[0.2,8410],[0.2,8495],[0.2,8580],[0.2,8664],[0.2,8749],[0.2,8834],[0.2,8919],[0.2,9004],[0.2,9088],[0.2,9173],[0.2,9258],[0.2,9343],[0.2,9430],[0.2,9513],[0.2,9598],[0.2,9684],[0.2,9767],[0.1,9852]]",280.2676,283.1946,4.6875,1.8803,"[{""rating"":4.6875,""responseTime"":1.8802999999522854}]",space,2.4094,,283.1946,Partially,50,283.1969,,,[],,0,2,2,2,1,audio/Narrative7Situation2.wav,audio/Narrative8Situation2.wav,audio/Narrative5Situation2.wav,audio/Narrative6Situation2.wav,3,3,3,3,,,,,,,,,,,,,,,,,,,,,,,,,,,,,,,,,,,,,,,
,,,,,676fa93a6e1840db7ea43423,2025-07-07_19h02.20.593,group3.4_multiperson,2023.2.2,Win32,166.6666667,686c2ebf0248f13bef9af11f,686c7bfdc9dabd424120a724,,,,,,,,,,,,,,,,,,,,,,,,,,,,,283.197,1,audio/Narrative8Situation3.wav,287.2008,space,287.2009,309.5634,"[[999,0],[999,84],[999,169],[999,254],[999,338],[999,425],[999,509],[999,595],[55.5,678],[55.5,763],[55.5,848],[55.3,934],[52.8,1019],[51.7,1102],[51.7,1187],[51.7,1272],[51.9,1357],[51.9,1441],[52.1,1526],[52.1,1611],[52.1,1696],[52.1,1783],[52.1,1866],[52.1,1951],[52.1,2037],[52.1,2120],[50.1,2208],[47.7,2292],[47.3,2375],[47.3,2460],[47.3,2544],[47.3,2629],[47.3,2714],[49.3,2801],[57.6,2886],[72.4,2977],[76.7,3060],[76.8,3145],[87.6,3231],[100,3317],[100,3399],[100,3486],[100,3577],[100,3662],[94,3747],[93.8,3829],[93.9,3914],[99.7,4007],[100,4090],[100,4175],[100,4260],[100,4344],[100,4429],[100,4514],[100,4599],[100,4684],[100,4769],[100,4853],[100,4938],[100,5023],[100,5108],[100,5193],[100,5278],[100,5363],[100,5447],[100,5532],[100,5617],[100,5702],[100,5787],[100,5872],[100,5957],[100,6041],[100,6126],[100,6211],[100,6296],[100,6381],[100,6466],[100,6550],[100,6637],[100,6720],[100,6805],[100,6890],[100,6975],[100,7060],[100,7146],[100,7229],[100,7314],[100,7399],[100,7484],[100,7569],[100,7653],[100,7738],[100,7823],[100,7908],[100,7993],[100,8078],[100,8163],[99.9,8247],[99.6,8332],[99.5,8417],[99.5,8502],[99.5,8587],[99.5,8672],[99.5,8756],[99.5,8841],[99.5,8926],[99.5,9011],[99.5,9096],[99.5,9181],[99.5,9265],[99.5,9350],[99.5,9435],[99.5,9520],[99.5,9605],[99.5,9690],[99.5,9775],[99.5,9859],[99.5,9944],[99.5,10029],[99.5,10114],[99.4,10199],[99.2,10284],[99.2,10369],[99.2,10453],[99.2,10538],[99.1,10623],[99.1,10708],[98.9,10793],[98.9,10877],[98.8,10962],[98.6,11047],[98.6,11132],[98.6,11217],[98.5,11302],[98.4,11387],[98.4,11471],[98.4,11556],[98.4,11641],[98.4,11726],[98.4,11811],[98.3,11896],[98.3,11980],[98.2,12065],[98.2,12150],[98.2,12235],[98.2,12320],[98.2,12406],[98.2,12490],[98.2,12574],[98.2,12659],[98.2,12744],[98.2,12829],[98.2,12914],[98.2,12999],[98.2,13084],[98.2,13168],[98.2,13253],[98.2,13338],[98.2,13423],[98.2,13508],[98.2,13593],[98.2,13677],[98.2,13764],[98.2,13847],[98.2,13932],[98.2,14017],[98.2,14102],[98.2,14186],[98.2,14273],[98.2,14356],[98.2,14441],[98.2,14526],[98.2,14611],[98.2,14696],[98.2,14780],[98.2,14865],[98.2,14950],[98.2,15035],[98.2,15120],[98.2,15205],[98.2,15289],[98.2,15374],[98.2,15459],[98.2,15544],[98.2,15629],[98.2,15714],[98.2,15799],[98.2,15883],[98.2,15968],[98.2,16053],[98.2,16138],[98.2,16223],[98.2,16308],[98.2,16393],[98.2,16477],[98.2,16562],[98.2,16647],[98.2,16732],[98.2,16817],[98.2,16901],[98.2,16986],[98.2,17071],[98.2,17156],[98.2,17241],[98.2,17326],[98.2,17411],[98.2,17496],[98.2,17580],[98.2,17665],[98.2,17750],[98.2,17835],[98.2,17920],[98.2,18005],[98.2,18089],[98.2,18174],[98.2,18259],[98.2,18344],[98.2,18429],[98.2,18514],[98.2,18599],[98.2,18683],[98.2,18768],[98.2,18853],[98.2,18938],[98.2,19023],[98.2,19108],[98.2,19192],[98.2,19277],[98.2,19362],[98.2,19447],[98.2,19532],[98.2,19617],[98.2,19701],[98.2,19786],[98.2,19871],[98.2,19956],[98.2,20041],[98.2,20126],[98.2,20211],[98.2,20295],[98.2,20381],[98.2,20465],[98.6,20550],[99,20637],[99.4,20720],[99.5,20804],[99.9,20891],[100,20974],[100,21059],[100,21144],[100,21229],[100,21314],[100,21398],[100,21483],[100,21568],[100,21653],[100,21738],[100,21823],[100,21907],[100,21992],[100,22077],[100,22162],[100,22247],[100,22332]]",309.5636,311.636,99.16666667,1.1531,"[{""rating"":99.16666666666667,""responseTime"":1.1531000000238123}]",space,1.5583,,311.636,Partially,50,311.6372,,,[],,0,3,3,3,1,audio/Narrative7Situation3.wav,audio/Narrative8Situation3.wav,audio/Narrative5Situation3.wav,audio/Narrative6Situation3.wav,8,4,3,5,2.3801,,,,,,,,,,,,,,,,,,,,,,,,,,,,,,,,,,,,,,
,,,,,676fa93a6e1840db7ea43423,2025-07-07_19h02.20.593,group3.4_multiperson,2023.2.2,Win32,166.6666667,686c2ebf0248f13bef9af11f,686c7bfdc9dabd424120a724,,,,,,,,,,,,,,,,,,,,,,,,,,,,,311.6375,1,audio/Narrative8Situation4.wav,314.642,,314.642,328.7991,"[[98.2,1274],[96.7,1357],[93,1444],[80.5,1528],[63.2,1614],[58.1,1696],[57.4,1781],[56,1866],[55.2,1951],[54.1,2037],[53,2123],[53,2205],[53,2290],[53,2375],[52.9,2460],[52.9,2545],[55.9,2632],[63,2717],[63.4,2801],[100,5686],[100,5770],[100,5855],[99.6,5945],[99.6,6029],[99.6,6114],[99.6,6199],[99.6,6284],[99.6,6369],[99.6,6454],[99.6,6541],[99.6,6623],[99.6,6710],[99.6,6793],[99.6,6878],[99.6,6963],[99.6,7048],[99.6,7133],[99.6,7217],[99.6,7302],[99.6,7387],[99.6,7472],[99.6,7557],[99.6,7642],[99.6,7726],[99.6,7811],[99.6,7896],[99.6,7981],[99.6,8066],[99.6,8151],[99.6,8235],[99.6,8320],[99.6,8405],[99.6,8490],[99.6,8575],[99.6,8660],[99.6,8745],[99.6,8829],[99.6,8914],[99.6,8999],[99.6,9084],[99.6,9169],[99.6,9254],[99.6,9338],[99.6,9423],[99.6,9508],[99.6,9593],[99.6,9678],[99.6,9763],[99.6,9848],[99.6,9932],[99.6,10017],[99.6,10102],[99.6,10187],[99.6,10272],[99.6,10356],[99.6,10442],[99.6,10526],[99.6,10611],[99.6,10696],[99.6,10781],[99.6,10866],[99.6,10950],[99.6,11035],[99.6,11120],[99.6,11205],[99.6,11290],[99.6,11375],[99.6,11460],[99.6,11544],[99.6,11629],[99.6,11714],[99.6,11799],[99.6,11884],[99.6,11969],[99.6,12054],[99.6,12138],[99.6,12223],[99.6,12308],[99.6,12393],[99.6,12478],[99.6,12563],[99.6,12647],[99.6,12732],[99.6,12817],[99.6,12902],[99.6,12987],[99.6,13072],[99.6,13156],[99.6,13241],[99.6,13326],[99.6,13411],[99.6,13496],[99.6,13581],[99.6,13666],[99.6,13750],[99.6,13835],[99.6,13920],[99.6,14005],[99.6,14090]]",328.7992,338.2109,99.6875,8.2139,"[{""rating"":99.6875,""responseTime"":8.21389999997615}]",space,8.9,,338.2109,Not at all,0,338.2129,,,[],,0,4,4,4,1,audio/Narrative7Situation4.wav,audio/Narrative8Situation4.wav,audio/Narrative5Situation4.wav,audio/Narrative6Situation4.wav,3,3,1,2,,,,,,,,,,,,,,,,,,,,,,,,,,,,,,,,,,,,,,,
,,,,,676fa93a6e1840db7ea43423,2025-07-07_19h02.20.593,group3.4_multiperson,2023.2.2,Win32,166.6666667,686c2ebf0248f13bef9af11f,686c7bfdc9dabd424120a724,,,,,,,,,,,,,,,,,,,,,,,,,,,,,338.213,1,audio/Narrative8Situation5.wav,340.217,,340.217,348.447,"[[999,0],[999,84],[999,169],[999,254],[999,339],[999,423],[999,508],[999,593],[999,678],[999,763],[999,848],[999,932],[999,1017],[999,1102],[999,1187],[999,1272],[999,1357],[999,1443],[81.3,1528],[86.5,1613],[88.2,1696],[93.1,1783],[94.9,1868],[96.6,1951],[99.8,2038],[100,2122],[100,2206],[100,2290],[100,2375],[100,2460],[100,2545],[100,2629],[100,2714],[100,2799],[100,2884],[100,2969],[100,3054],[100,3139],[100,3223],[100,3308],[100,3393],[100,3478],[100,3563],[100,3648],[100,3734],[100,3819],[100,3903],[100,3987],[100,4072],[100,4157],[100,4242],[100,4326],[100,4411],[100,4496],[100,4581],[100,4666],[100,4751],[100,4835],[100,4922],[100,5006],[100,5090],[100,5175],[100,5260],[100,5344],[100,5429],[100,5516],[100,5599],[100,5684],[100,5769],[100,5855],[100,5939],[100,6023],[100,6108],[100,6193],[100,6278],[100,6363],[100,6447],[100,6533],[100,6617],[100,6703],[100,6787],[100,6872],[100,6957],[100,7041],[100,7126],[100,7211],[100,7296],[100,7381],[100,7466],[100,7551],[100,7635],[100,7720],[100,7805],[100,7890],[100,7975],[100,8060],[100,8144],[100,8229]]",348.4471,352.2286,98.54166667,2.1544,"[{""rating"":98.54166666666666,""responseTime"":2.1543999999761922}]",space,3.2671,0.0002,352.2286,Partially,50,352.2306,,,[],,0,5,5,5,1,audio/Narrative7Situation5.wav,audio/Narrative8Situation5.wav,audio/Narrative5Situation5.wav,audio/Narrative6Situation5.wav,5,2,5,2,,,,,,,,,,,,,,,,,,,,,,,,,,,,,,,,,,,,,,,
,,,,,676fa93a6e1840db7ea43423,2025-07-07_19h02.20.593,group3.4_multiperson,2023.2.2,Win32,166.6666667,686c2ebf0248f13bef9af11f,686c7bfdc9dabd424120a724,,,,,,,,,,,,,,,,,,,,,,,,,,,,,352.2307,1,audio/Narrative8Situation6.wav,354.2345,,354.2346,360.683,"[[100,2631],[99.7,2716],[99.7,2799],[99.7,2884],[99.7,2969],[99.4,3054],[98.8,3140],[98.5,3223],[98.3,3309],[98.3,3393],[98.3,3478],[98.3,3563],[98.3,3648],[99.5,3733],[99.5,3817],[99.5,3902],[99.5,3987],[99.5,4072],[99.5,4158],[99.5,4242],[99.5,4326],[99.5,4411],[99.5,4496],[99.5,4583],[99.5,4666],[99.5,4751],[99.5,4836],[99.5,4920],[99.5,5005],[99.6,5090],[99.6,5175],[99.6,5260],[99.6,5345],[99.6,5429],[99.6,5514],[99.6,5599],[99.6,5684],[99.6,5769],[99.6,5854],[99.6,5938],[99.6,6023],[99.6,6108],[99.6,6195],[99.6,6278],[99.6,6363],[99.6,6448]]",360.6832,364.5816,98.54166667,2.541,"[{""rating"":98.54166666666666,""responseTime"":2.540999999999997}]",space,3.3867,,364.5817,Not at all,0,364.5835,,,[],,0,6,6,6,1,audio/Narrative7Situation6.wav,audio/Narrative8Situation6.wav,audio/Narrative5Situation6.wav,audio/Narrative6Situation6.wav,3,2,3,2,,,,,,,,,,,,,,,,,,,,,,,,,,,,,,,,,,,,,,,
,,,,,676fa93a6e1840db7ea43423,2025-07-07_19h02.20.593,group3.4_multiperson,2023.2.2,Win32,166.6666667,686c2ebf0248f13bef9af11f,686c7bfdc9dabd424120a724,,,,,,,,,,,,,,,,,,,,,,,,,,,,,364.5836,1,audio/Narrative8Situation7.wav,367.5856,,367.5856,379.6518,"[[81.6,509],[81.7,593],[81.7,678],[81.7,763],[81.7,848],[81.1,935],[71.7,1018],[62.3,1105],[56.8,1190],[53.1,1274],[48.3,1357],[41.4,1444],[17.5,1953],[21.1,2036],[19.9,2121],[14.2,2208],[13.2,2290],[15.2,2377],[24.5,2462],[48.4,2547],[54,2631],[54.8,2714],[58.9,2800],[62,2884],[81.7,3311],[78.9,3394],[86.3,3478],[93.4,3565],[95.3,3650],[99.1,3734],[100,3818],[100,3902],[100,3987],[100,4072],[100,4157],[100,4242],[100,4327],[100,4412],[100,4496],[100,4581],[100,4666],[100,4751],[100,4836],[100,4920],[100,5005],[100,5090],[100,5175],[100,5260],[100,5345],[100,5429],[100,5514],[100,5599],[100,5684],[100,5769],[100,5854],[100,5939],[100,6023],[100,6108],[100,6193],[100,6278],[100,6363],[100,6448],[100,6533],[100,6617],[100,6702],[100,6787],[100,6872],[100,6957],[100,7042],[100,7127],[100,7211],[100,7296],[100,7381],[100,7466],[100,7550],[100,7636],[100,7720],[100,7805],[100,7890],[100,7975],[100,8060],[100,8145],[100,8229],[100,8314],[100,8399],[100,8484],[100,8569],[100,8654],[100,8739],[100,8823],[100,8908],[100,8993],[100,9078],[100,9163],[100,9247],[100,9332],[100,9417],[100,9502],[100,9587],[100,9672],[100,9757],[100,9842],[100,9926],[100,10011],[100,10098],[100,10181],[100,10266],[100,10351],[100,10435],[100,10520],[100,10605],[100,10690],[100,10775],[100,10860],[100,10944],[100,11029],[100,11114],[100,11199],[100,11286],[100,11369],[100,11454],[100,11538],[100,11623],[100,11708],[100,11793],[100,11878],[100,11963],[100,12047]]",379.652,382.4154,99.6875,1.4882,"[{""rating"":99.6875,""responseTime"":1.4881999999284403}]",space,2.251,,382.4154,Not at all,0,386.8757,0.208333333,3.751,"[{""rating"":0.2083333333333326,""responseTime"":3.751000000000033}]",space,0,7,7,7,1,audio/Narrative7Situation7.wav,audio/Narrative8Situation7.wav,audio/Narrative5Situation7.wav,audio/Narrative6Situation7.wav,5,3,4,5,,,3.946,,,,,,,,,,,,,,,,,,,,,,,,,,,,,,,,,,,,
,,,,,676fa93a6e1840db7ea43423,2025-07-07_19h02.20.593,group3.4_multiperson,2023.2.2,Win32,166.6666667,686c2ebf0248f13bef9af11f,686c7bfdc9dabd424120a724,,,,,,,,,,,,,,,,,,,,,,,,,,,,,386.876,1,audio/Narrative8Situation8.wav,389.8817,,389.8818,402.7177,"[[999,0],[999,84],[999,170],[999,254],[999,339],[999,425],[999,510],[999,593],[999,678],[999,763],[999,850],[51.7,935],[51.7,1017],[51.7,1103],[51.7,1187],[51.7,1272],[51.7,1357],[51.7,1442],[51.7,1528],[51.7,1611],[51.7,1696],[51.6,1783],[51.6,1866],[51.6,1951],[51.6,2036],[51.6,2120],[53.5,2208],[55,2290],[57.4,2377],[69.3,2462],[82.9,2548],[88.9,2632],[97.7,2717],[100,2801],[100,2884],[100,2969],[100,3054],[100,3139],[100,3224],[100,3311],[100,3394],[100,3478],[100,3563],[100,3648],[100,3733],[100,3817],[100,3903],[100,3987],[100,4072],[100,4157],[100,4242],[100,4326],[100,4413],[100,4496],[100,4581],[100,4666],[100,4751],[100,4836],[100,4920],[100,5005],[100,5090],[100,5175],[100,5260],[100,5345],[100,5430],[100,5514],[100,5599],[100,5684],[100,5769],[100,5854],[100,5939],[100,6023],[100,6108],[100,6193],[100,6278],[100,6364],[100,6448],[100,6532],[100,6617],[100,6702],[100,6787],[100,6872],[100,6957],[100,7042],[100,7126],[100,7211],[100,7296],[100,7381],[100,7466],[100,7551],[100,7636],[100,7720],[100,7805],[100,7890],[100,7975],[100,8060],[100,8144],[100,8229],[100,8314],[100,8399],[100,8484],[100,8569],[100,8654],[100,8738],[100,8823],[100,8908],[100,8993],[100,9078],[100,9163],[100,9250],[100,9332],[100,9417],[100,9502],[100,9587],[100,9672],[100,9757],[100,9841],[100,9926],[100,10011],[100,10096],[100,10181],[100,10266],[100,10351],[100,10435],[100,10520],[100,10605],[100,10690],[100,10775],[100,10860],[100,10944],[100,11029],[100,11114],[100,11199],[100,11284],[100,11370],[100,11454],[100,11538],[100,11623],[100,11710],[99.9,11793],[99.9,11878],[99.9,11963],[99.9,12047],[99.9,12132],[99.9,12217],[100,12302],[100,12387],[100,12472],[100,12557],[100,12641],[100,12726],[100,12811]]",402.7179,405.3781,99.89583333,1.0927,"[{""rating"":99.89583333333334,""responseTime"":1.0926999999284703}]",space,2.1487,,405.3782,Not at all,0,405.3794,,,[],,0,8,8,8,1,audio/Narrative7Situation8.wav,audio/Narrative8Situation8.wav,audio/Narrative5Situation8.wav,audio/Narrative6Situation8.wav,2,3,3,5,,,,,,,,,,,,,,,,,,,,,,,,,,,,,,,,,,,,,,,
,,,,,676fa93a6e1840db7ea43423,2025-07-07_19h02.20.593,group3.4_multiperson,2023.2.2,Win32,166.6666667,686c2ebf0248f13bef9af11f,686c7bfdc9dabd424120a724,,,,,,,,,,,,,,,,,,,,,,,,,,,,,405.3795,1,audio/Narrative8Situation9.wav,408.3841,,408.3841,419.6808,"[[99.4,1104],[99,1189],[99,1272],[99,1357],[99,1442],[99,1527],[99,1612],[99,1696],[99,1781],[99,1866],[99,1951],[99,2036],[99,2121],[99,2207],[99,2290],[99,2375],[99,2460],[99,2545],[99,2630],[99,2715],[99,2799],[99,2884],[99,2969],[99,3056],[99.1,3139],[99.2,3224],[99.6,3308],[99.8,3393],[99.8,3478],[99.8,3563],[100,3650],[100,3733],[100,3818],[100,3902],[100,3987],[100,4072],[100,4157],[100,4242],[100,4327],[100,4411],[100,4496],[100,4581],[100,4666],[100,4751],[100,4836],[100,4920],[100,5005],[100,5090],[100,5175],[100,5260],[100,5345],[100,5430],[100,5515],[100,5599],[100,5684],[100,5769],[100,5854],[100,5940],[100,6024],[100,6108],[100,6193],[100,6278],[100,6365],[100,6448],[100,6533],[100,6617],[100,6702],[100,6787],[100,6872],[100,6957],[100,7042],[100,7126],[100,7211],[100,7296],[100,7381],[100,7466],[100,7551],[100,7636],[100,7721],[100,7805],[100,7890],[100,7975],[100,8060],[100,8145],[100,8229],[100,8314],[100,8399],[100,8484],[100,8569],[100,8654],[100,8739],[100,8824],[100,8908],[100,8993],[100,9078],[100,9163],[100,9248],[100,9333],[100,9417],[100,9502],[100,9587],[100,9672],[100,9757],[100,9842],[100,9926],[100,10011],[100,10096],[100,10181],[100,10266],[100,10351],[100,10435],[100,10520],[100,10605],[100,10690],[100,10775],[100,10860],[100,10944],[100,11029],[100,11114],[100,11199],[100,11284]]",419.6809,422.8685,99.375,1.486,"[{""rating"":99.375,""responseTime"":1.48599999999999}]",space,2.6744,,422.8685,Partially,50,422.8706,,,[],,0,9,9,9,1,audio/Narrative7Situation9.wav,audio/Narrative8Situation9.wav,audio/Narrative5Situation9.wav,audio/Narrative6Situation9.wav,2,3,3,4,,,,,,,,,,,,,,,,,,,,,,,,,,,,,,,,,,,,,,,
,,,,,676fa93a6e1840db7ea43423,2025-07-07_19h02.20.593,group3.4_multiperson,2023.2.2,Win32,166.6666667,686c2ebf0248f13bef9af11f,686c7bfdc9dabd424120a724,,,,,,,,,,,,,,,,,,,,,,,,,,,,,422.8707,1,audio/Narrative7Situation1.wav,424.8744,,424.8745,480.7392,"[[98.1,935],[92.1,1020],[77.5,1105],[76.8,1443],[84.5,1529],[95.3,1614],[100,1699],[100,1783],[100,1868],[100,1951],[99.8,2038],[99.6,2121],[99.6,2205],[99.8,2292],[99.8,2375],[99.8,2460],[99.9,2545],[99.9,2630],[99.9,2714],[99.9,2799],[99.9,2884],[99.9,2969],[99.9,3054],[99.9,3139],[99.9,3223],[99.9,3308],[99.9,3393],[99.9,3478],[99.9,3563],[99.9,3648],[99.9,3733],[99.9,3818],[99.9,3902],[99.9,3987],[99.9,4072],[99.9,4157],[99.9,4242],[99.9,4326],[99.9,4411],[99.9,4496],[99.9,4581],[99.9,4666],[99.9,4751],[99.9,4836],[100,4920],[100,5005],[100,5090],[100,5175],[100,5260],[100,5345],[100,5430],[100,5514],[100,5599],[100,5684],[100,5769],[100,5854],[100,5939],[100,6023],[100,6108],[100,6193],[100,6278],[100,6363],[100,6448],[100,6533],[100,6617],[100,6702],[100,6787],[100,6872],[100,6957],[100,7042],[100,7127],[100,7211],[100,7296],[100,7381],[100,7466],[100,7551],[100,7635],[100,7720],[100,7805],[100,7890],[100,7975],[100,8060],[100,8145],[100,8230],[100,8314],[100,8399],[100,8484],[100,8569],[100,8654],[100,8739],[100,8823],[100,8908],[100,8993],[100,9078],[100,9163],[100,9248],[100,9332],[100,9417],[100,9502],[100,9587],[100,9672],[100,9757],[100,9841],[100,9927],[100,10011],[100,10096],[100,10183],[100,10266],[100,10351],[100,10435],[100,10520],[100,10605],[100,10690],[100,10775],[100,10860],[100,10945],[100,11030],[100,11114],[100,11199],[100,11284],[100,11369],[100,11454],[100,11538],[100,11623],[100,11708],[100,11793],[100,11878],[100,11963],[100,12050],[100,12132],[100,12217],[100,12302],[100,12387],[100,12472],[100,12557],[100,12641],[100,12726],[100,12811],[100,12896],[100,12981],[100,13067],[100,13151],[100,13236],[100,13320],[100,13405],[100,13490],[100,13575],[100,13660],[100,13744],[100,13829],[100,13914],[100,13999],[100,14084],[100,14169],[100,14253],[100,14338],[100,14423],[100,14508],[100,14593],[100,14678],[100,14762],[100,14847],[100,14932],[100,15018],[100,15102],[100,15187],[100,15272],[100,15356],[100,15442],[100,15526],[100,15611],[100,15696],[100,15781],[100,15865],[100,15950],[100,16035],[100,16120],[100,16205],[100,16290],[100,16375],[100,16460],[100,16544],[100,16629],[100,16714],[100,16799],[100,16884],[100,16968],[100,17053],[100,17138],[100,17223],[100,17308],[100,17393],[100,17478],[100,17562],[100,17647],[100,17732],[100,17817],[100,17902],[100,17987],[100,18072],[100,18156],[100,18243],[100,18326],[100,18411],[100,18496],[100,18581],[100,18665],[100,18750],[100,18835],[100,18922],[100,19005],[100,19090],[100,19175],[100,19259],[100,19344],[100,19429],[100,19514],[100,19599],[100,19684],[100,19768],[100,19853],[100,19938],[100,20023],[100,20108],[100,20193],[100,20277],[100,20362],[100,20449],[100,20532],[100,20617],[100,20702],[100,20787],[100,20871],[100,20956],[100,21041],[100,21126],[100,21211],[100,21296],[100,21380],[100,21465],[100,21550],[100,21635],[100,21720],[100,21805],[100,21889],[100,21975],[100,22059],[100,22144],[100,22229],[100,22314],[100,22399],[100,22484],[100,22568],[100,22653],[100,22738],[100,22823],[100,22908],[100,22993],[100,23078],[100,23162],[100,23248],[100,23332],[100,23417],[100,23504],[100,23586],[100,23671],[100,23756],[100,23841],[100,23926],[100,24011],[100,24096],[100,24180],[100,24265],[100,24350],[100,24435],[100,24520],[100,24605],[100,24689],[100,24774],[100,24859],[100,24944],[100,25029],[100,25114],[100,25199],[100,25283],[100,25368],[100,25453],[100,25538],[100,25625],[100,25708],[100,25792],[100,25877],[100,25962],[100,26049],[100,26132],[100,26217],[100,26301],[100,26386],[100,26471],[100,26556],[100,26641],[100,26726],[100,26811],[100,26895],[100,26980],[100,27065],[100,27150],[100,27235],[100,27320],[100,27404],[100,27489],[100,27574],[100,27659],[100,27744],[100,27829],[100,27914],[100,27998],[100,28083],[100,28168],[100,28253],[100,28338],[100,28423],[100,28507],[100,28592],[100,28677],[100,28762],[100,28847],[100,28932],[100,29017],[100,29101],[100,29186],[100,29271],[100,29356],[100,29442],[100,29526],[100,29612],[100,29695],[100,29780],[100,29865],[100,29950],[100,30035],[100,30120],[100,30204],[100,30289],[100,30374],[100,30459],[100,30544],[100,30629],[100,30714],[100,30798],[100,30883],[100,30968],[100,31053],[100,31138],[100,31223],[100,31307],[100,31392],[100,31477],[100,31562],[100,31647],[100,31734],[100,31818],[100,31901],[100,31986],[100,32071],[100,32156],[100,32241],[100,32325],[100,32410],[100,32495],[100,32580],[100,32667],[100,32750],[100,32835],[100,32919],[100,33004],[100,33089],[100,33174],[100,33259],[100,33344],[100,33429],[100,33513],[100,33598],[100,33683],[100,33768],[100,33853],[100,33938],[100,34022],[100,34107],[100,34192],[100,34277],[100,34362],[100,34447],[100,34531],[100,34616],[100,34701],[100,34786],[100,34871],[100,34956],[100,35041],[100,35125],[100,35210],[100,35295],[100,35380],[100,35465],[100,35550],[100,35635],[100,35719],[100,35804],[100,35889],[100,35974],[100,36059],[100,36144],[100,36228],[100,36313],[100,36398],[100,36483],[100,36568],[100,36653],[100,36738],[100,36822],[100,36907],[100,36992],[100,37077],[100,37162],[100,37247],[100,37346],[100,37435],[100,37521],[100,37604],[100,37689],[100,37776],[100,37859],[100,37944],[100,38028],[100,38113],[100,38198],[100,38283],[100,38368],[100,38454],[100,38537],[100,38622],[100,38707],[100,38792],[100,38877],[100,38962],[100,39046],[100,39131],[100,39216],[100,39301],[100,39386],[100,39471],[100,39555],[100,39640],[100,39725],[100,39810],[100,39895],[100,39980],[100,40065],[100,40152],[100,40234],[100,40319],[100,40404],[100,40489],[100,40574],[100,40659],[100,40762],[100,40846],[100,40931],[100,41016],[100,41101],[100,41186],[100,41271],[100,41356],[100,41440],[100,41525],[100,41610],[100,41695],[100,41780],[100,41865],[100,41949],[100,42034],[100,42119],[100,42204],[100,42289],[100,42374],[100,42459],[100,42545],[100,42628],[100,42713],[100,42799],[100,42883],[100,42968],[100,43054],[100,43139],[100,43222],[100,43307],[100,43392],[100,43477],[100,43561],[100,43646],[100,43731],[100,43816],[100,43901],[100,43986],[100,44071],[100,44155],[100,44240],[100,44325],[100,44410],[100,44495],[100,44580],[100,44664],[100,44749],[100,44834],[100,44919],[100,45004],[100,45089],[100,45174],[100,45258],[100,45343],[100,45428],[100,45513],[100,45598],[100,45683],[100,45768],[100,45852],[100,45937],[100,46022],[100,46107],[100,46192],[100,46277],[100,46361],[100,46446],[100,46531],[100,46616],[100,46701],[100,46786],[100,46870],[100,46955],[100,47040],[100,47125],[100,47210],[100,47295],[100,47380],[100,47464],[100,47549],[100,47634],[100,47719],[100,47804],[100,47889],[100,47975],[100,48058],[100,48143],[100,48228],[100,48313],[100,48398],[100,48483],[100,48567],[100,48652],[100,48737],[100,48822],[100,48907],[100,48992],[100,49077],[100,49161],[100,49246],[100,49331],[100,49416],[100,49501],[100,49586],[100,49670],[100,49755],[100,49840],[100,49925],[100,50010],[100,50095],[100,50179],[100,50264],[100,50349],[100,50434],[100,50519],[100,50604],[100,50689],[100,50773],[100,50860],[100,50943],[100,51028],[100,51115],[100,51198],[100,51282],[100,51367],[100,51452],[100,51537],[100,51622],[100,51707],[100,51792],[100,51876],[100,51961],[100,52046],[100,52131],[100,52216],[100,52301],[100,52385],[100,52470],[100,52555],[100,52640],[100,52726],[100,52810],[100,52895],[100,52979],[100,53064],[100,53149],[100,53234],[100,53319],[100,53404],[100,53488],[100,53573],[100,53658],[100,53743],[100,53828],[100,53913],[100,53997],[100,54082],[100,54167],[100,54252],[100,54337],[100,54422],[100,54506],[100,54591],[100,54676],[100,54761],[100,54846],[100,54932],[100,55016],[100,55100],[100,55185],[100,55270],[100,55355],[100,55440],[100,55525],[100,55610],[100,55694],[100,55779],[100,55864]]",480.7394,483.9349,99.6875,1.4141,"[{""rating"":99.6875,""responseTime"":1.4141000000238364}]",space,2.6781,,483.9349,Definitely yes,100,483.9368,,,[],,0,10,10,10,1,audio/Narrative8Situation1.wav,audio/Narrative7Situation1.wav,audio/Narrative6Situation1.wav,audio/Narrative5Situation1.wav,5,2,2,5,,,,,,,,,,,,,,,,,,,,,,,,,,,,,,,,,,,,,,,
,,,,,676fa93a6e1840db7ea43423,2025-07-07_19h02.20.593,group3.4_multiperson,2023.2.2,Win32,166.6666667,686c2ebf0248f13bef9af11f,686c7bfdc9dabd424120a724,,,,,,,,,,,,,,,,,,,,,,,,,,,,,483.9369,1,audio/Narrative7Situation2.wav,486.9389,,486.9389,494.3993,"[[98,2481],[98.1,2563],[98.2,2648],[98.3,2733],[99.5,2817],[99.5,2902],[99.5,2987],[99.5,3072],[100,3158],[100,3242],[100,3327],[100,3411],[100,3496],[100,3581],[100,3666],[100,3751],[100,3836],[100,3920],[100,4005],[100,4090],[100,4175],[100,4260],[100,4345],[100,4430],[100,4514],[100,4599],[100,4684],[100,4769],[100,4854],[100,4939],[100,5023],[100,5108],[100,5193],[100,5278],[100,5363],[100,5448],[100,5532],[100,5617],[100,5702],[100,5787],[100,5872],[100,5957],[100,6042],[100,6127],[100,6230],[100,6314],[100,6399],[100,6484],[100,6569],[100,6654],[100,6739],[100,6823],[100,6908],[100,6993],[100,7078],[100,7163],[100,7248],[100,7332],[100,7417]]",494.3993,497.3749,99.375,1.6035,"[{""rating"":99.375,""responseTime"":1.60349999999994}]",space,2.4633,,497.3749,Partially,50,497.3767,,,[],,0,11,11,11,1,audio/Narrative8Situation2.wav,audio/Narrative7Situation2.wav,audio/Narrative6Situation2.wav,audio/Narrative5Situation2.wav,3,3,3,3,,,,,,,,,,,,,,,,,,,,,,,,,,,,,,,,,,,,,,,
,,,,,676fa93a6e1840db7ea43423,2025-07-07_19h02.20.593,group3.4_multiperson,2023.2.2,Win32,166.6666667,686c2ebf0248f13bef9af11f,686c7bfdc9dabd424120a724,,,,,,,,,,,,,,,,,,,,,,,,,,,,,497.3769,1,audio/Narrative7Situation3.wav,505.3806,,505.3807,514.6166,"[[97.4,933],[97.1,1019],[97,1102],[97,1187],[96.6,1274],[91.1,1359],[81.1,1444],[60.2,1529],[37.9,1613],[25.7,1698],[25.3,1781],[19.9,1867],[25.5,2717],[59.4,2801],[61.3,2884],[64.7,2971],[74.4,3063],[81,3147],[81.8,3230],[81.9,3315],[85.8,3401],[88.3,3486],[89.4,3571],[90.8,3656],[92.2,3739],[92.6,3823],[92.7,3908],[93.1,3993],[95,4080],[96.4,4164],[98.5,4248],[99.9,4335],[100,4418],[100,4502],[100,4587],[100,4674],[100,4757],[100,4842],[100,4927],[100,5011],[100,5096],[100,5181],[100,5266],[100,5351],[100,5436],[100,5520],[100,5605],[100,5690],[100,5775],[100,5860],[100,5945],[100,6030],[100,6114],[100,6199],[100,6284],[100,6369],[100,6454],[100,6538],[100,6623],[100,6708],[100,6793],[100,6878],[100,6963],[100,7048],[100,7132],[100,7217],[100,7302],[100,7387],[100,7472],[100,7557],[100,7642],[100,7726],[100,7811],[100,7896],[100,7981],[100,8066],[100,8151],[100,8235],[100,8320],[100,8405],[100,8490],[100,8576],[100,8660],[100,8745],[100,8829],[100,8914],[100,8999],[100,9084],[100,9169]]",514.6167,518.1621,98.75,1.8167,"[{""rating"":98.75,""responseTime"":1.8167000000477174}]",space,3.0264,0.0017,518.1622,Not at all,0,518.1641,,,[],,0,12,12,12,1,audio/Narrative8Situation3.wav,audio/Narrative7Situation3.wav,audio/Narrative6Situation3.wav,audio/Narrative5Situation3.wav,4,8,5,3,,,,,,,,,,,,,,,,,,,,,,,,,,,,,,,,,,,,,,,
,,,,,676fa93a6e1840db7ea43423,2025-07-07_19h02.20.593,group3.4_multiperson,2023.2.2,Win32,166.6666667,686c2ebf0248f13bef9af11f,686c7bfdc9dabd424120a724,,,,,,,,,,,,,,,,,,,,,,,,,,,,,518.1643,1,audio/Narrative7Situation4.wav,521.168,,521.1681,532.8768,"[[97.6,935],[97.6,1017],[97.6,1102],[97.5,1187],[97.5,1272],[97.5,1359],[97.5,1442],[97.5,1526],[97.5,1611],[97.2,1698],[96.9,1783],[96.7,1866],[96.7,1952],[96.7,2038],[96.7,2735],[98.6,2819],[100,2902],[100,2987],[100,3072],[100,3157],[100,3242],[100,3327],[100,3411],[100,3496],[100,3581],[99.8,3666],[99.8,3751],[99.8,3836],[99.8,3920],[99.8,4005],[99.7,4092],[99.6,4175],[99.6,4260],[99.6,4345],[99.6,4430],[99.7,4514],[100,4599],[100,4684],[100,4769],[100,4854],[100,4939],[100,5024],[100,5108],[100,5193],[100,5279],[100,5363],[100,5448],[100,5532],[100,5617],[100,5702],[100,5787],[100,5872],[100,5957],[100,6041],[100,6126],[100,6211],[96.4,6298],[80.5,6389],[58.4,6474],[38,6559],[14.5,6644],[3.2,6729],[0.4,8254],[0.5,8338],[0.5,8423],[0.5,8508],[0.5,8593],[0.5,8678],[0.6,8763],[0.6,8847],[0.6,8932],[0.8,9017],[1.6,9104],[8,9189],[10.2,9272],[10.2,9357],[11.6,9444],[13.5,9526],[17.9,9613],[19.3,9696],[21.6,9783],[25.2,9873],[25.6,9957],[26.9,10043],[28.9,10126],[28.9,10211],[28.9,10296],[28.9,10381],[28.9,10466],[28.6,10552],[28.2,10637],[27.9,10722],[27.8,10805],[27.7,10890],[27.7,10975],[27.7,11059],[27.7,11144],[27.7,11229],[27.7,11314],[27.7,11399],[27.7,11484],[27.7,11569],[27.7,11655]]",532.8768,537.0705,49.47916667,3.1411,"[{""rating"":49.47916666666667,""responseTime"":3.1411000000239255}]",space,3.6794,,537.0706,Partially,50,537.0725,,,[],,0,13,13,13,1,audio/Narrative8Situation4.wav,audio/Narrative7Situation4.wav,audio/Narrative6Situation4.wav,audio/Narrative5Situation4.wav,3,3,2,1,,,,,,,,,,,,,,,,,,,,,,,,,,,,,,,,,,,,,,,
,,,,,676fa93a6e1840db7ea43423,2025-07-07_19h02.20.593,group3.4_multiperson,2023.2.2,Win32,166.6666667,686c2ebf0248f13bef9af11f,686c7bfdc9dabd424120a724,,,,,,,,,,,,,,,,,,,,,,,,,,,,,537.0727,1,audio/Narrative7Situation5.wav,542.0763,,542.0763,550.5426,"[[54.9,84],[54.9,169],[54.9,254],[54.9,340],[54.9,424],[54.9,509],[55,594],[55,678],[55,763],[55,848],[55,933],[55,1018],[55,1103],[51.7,1189],[49.4,1272],[45.3,1357],[31.9,1445],[16.3,1529],[9.5,1614],[4.6,1699],[0.1,2038],[0.2,2121],[0.5,2206],[0.7,2290],[1.6,2378],[2.5,2462],[3.4,2545],[10.7,2632],[24.2,2716],[26.6,2799],[28.3,2887],[35.7,2971],[41.5,3056],[43.2,3139],[45.1,3225],[45.8,3311],[46.3,3393],[46.3,3478],[46.3,3563],[46.3,3648],[45.7,3733],[44.5,3819],[43.3,3902],[42.9,3987],[42.9,4072],[42.9,4157],[42.9,4242],[44,4327],[48.3,4420],[55.5,4505],[57.6,4587],[59.4,4674],[60.3,4757],[60.2,4842],[56.8,4929],[54.4,5014],[53.9,5096],[53.9,5181],[55,5266],[55.7,5351],[54.3,5438],[53.5,5521],[53.5,5605],[53.5,5690],[53.5,5775],[53.5,5860],[53.5,5945],[53.5,6030],[53.5,6115],[53.5,6199],[53.5,6284],[53.5,6369],[53.8,6454],[54.2,6541],[54.6,6623],[54.7,6708],[54.7,6793],[54.7,6878],[54.7,6963],[54.7,7048],[54.7,7133],[54.7,7217],[54.7,7302],[54.7,7387],[54.7,7472],[54.7,7557],[54.7,7642],[54.7,7726],[54.7,7811],[54.7,7896],[54.7,7981],[54.7,8066],[54.7,8151],[54.5,8236],[53.6,8322],[52.8,8406]]",550.5428,555.282,75,4.216,"[{""rating"":66.77083333333333,""responseTime"":3.35290000009536},{""rating"":75,""responseTime"":4.216000000000008}]",space,4.2237,,555.282,Not at all,0,555.2841,,,[],,0,14,14,14,1,audio/Narrative8Situation5.wav,audio/Narrative7Situation5.wav,audio/Narrative6Situation5.wav,audio/Narrative5Situation5.wav,2,5,2,5,,,,,,,,,,,,,,,,,,,,,,,,,,,,,,,,,,,,,,,
,,,,,676fa93a6e1840db7ea43423,2025-07-07_19h02.20.593,group3.4_multiperson,2023.2.2,Win32,166.6666667,686c2ebf0248f13bef9af11f,686c7bfdc9dabd424120a724,,,,,,,,,,,,,,,,,,,,,,,,,,,,,555.2843,1,audio/Narrative7Situation6.wav,558.2902,,558.2903,568.2451,"[[64.1,82],[63.8,168],[63.5,252],[63.1,336],[63.1,421],[62.5,506],[62,593],[61.5,678],[61.1,761],[61.1,845],[61.1,930],[61.9,1017],[63,1102],[64.5,1185],[64.8,1270],[64.8,1355],[65.7,1442],[77.3,1526],[82.9,1611],[85.4,1696],[89.4,1779],[94.5,1864],[94.6,1948],[94.9,2035],[97.7,2118],[98.2,2205],[98.2,2288],[98.2,2373],[98.5,2460],[98.9,2544],[99.2,2629],[99.3,2712],[99.4,2797],[99.5,2882],[99.5,2967],[99.5,3052],[99.5,3138],[99.5,3221],[99.5,3306],[99.5,3391],[99.5,3476],[99.5,3561],[99.5,3645],[99.5,3730],[99.5,3815],[99.6,3900],[99.6,3985],[99.6,4070],[99.7,4154],[100,4240],[100,4324],[100,4409],[100,4494],[100,4579],[100,4664],[100,4748],[100,4833],[100,4918],[100,5003],[100,5090],[100,5173],[100,5258],[100,5342],[100,5427],[100,5512],[100,5597],[100,5682],[100,5767],[100,5851],[100,5937],[100,6021],[100,6106],[100,6191],[100,6276],[100,6360],[100,6445],[100,6530],[100,6615],[100,6700],[100,6785],[100,6869],[100,6954],[100,7039],[100,7124],[100,7209],[100,7294],[100,7379],[100,7463],[100,7548],[100,7633],[100,7718],[100,7803],[100,7888],[100,7972],[100,8059],[100,8142],[100,8227],[100,8312],[100,8397],[100,8481],[100,8566],[100,8651],[100,8736],[100,8821],[100,8906],[100,8990],[100,9075],[100,9160],[100,9245],[100,9330],[100,9415],[100,9500],[100,9585],[100,9669],[100,9754],[100,9839],[100,9924]]",568.2452,569.5724,98.64583333,0.7258,"[{""rating"":98.64583333333333,""responseTime"":0.7258000000715583}]",space,0.8146,,569.5724,Not at all,0,569.5737,,,[],,0,15,15,15,1,audio/Narrative8Situation6.wav,audio/Narrative7Situation6.wav,audio/Narrative6Situation6.wav,audio/Narrative5Situation6.wav,2,3,2,3,,,,,,,,,,,,,,,,,,,,,,,,,,,,,,,,,,,,,,,
,,,,,676fa93a6e1840db7ea43423,2025-07-07_19h02.20.593,group3.4_multiperson,2023.2.2,Win32,166.6666667,686c2ebf0248f13bef9af11f,686c7bfdc9dabd424120a724,,,,,,,,,,,,,,,,,,,,,,,,,,,,,569.5739,1,audio/Narrative7Situation7.wav,574.5783,,574.5783,591.7352,"[[95.9,595],[97.7,686],[98.3,769],[98.4,854],[98.4,939],[98.4,1024],[98.4,1109],[98.4,1193],[98.4,1278],[98.4,1363],[98.4,1448],[98.9,1533],[99.4,1619],[99.6,1702],[99.6,1787],[99.6,1872],[99.6,1957],[99.6,2042],[99.6,2126],[99.6,2211],[99.6,2296],[99.6,2381],[99.6,2466],[99.6,2551],[99.6,2636],[99.6,2721],[99.6,2805],[99.6,2890],[99.6,2975],[99.6,3060],[99.6,3145],[99.6,3230],[99.6,3314],[99.6,3399],[99.6,3484],[99.6,3569],[99.6,3654],[99.6,3739],[99.6,3823],[99.6,3908],[99.6,3993],[99.6,4078],[99.6,4163],[99.6,4248],[99.6,4333],[99.6,4417],[99.6,4502],[99.6,4587],[99.6,4672],[99.6,4757],[99.6,4843],[99.6,4927],[99.6,5011],[99.6,5096],[99.6,5181],[99.9,5266],[100,5352],[100,5436],[100,5520],[100,5605],[100,5690],[100,5775],[100,5860],[100,5945],[100,6029],[100,6115],[100,6199],[100,6284],[100,6369],[100,6454],[100,6540],[100,6623],[100,6708],[100,6793],[100,6878],[100,6963],[100,7048],[100,7133],[100,7217],[100,7302],[100,7387],[100,7472],[100,7557],[100,7644],[100,7726],[100,7811],[100,7896],[100,7981],[100,8066],[100,8151],[100,8235],[100,8320],[100,8405],[100,8490],[100,8575],[100,8660],[100,8745],[100,8829],[100,8914],[100,8999],[100,9084],[100,9169],[100,9254],[100,9338],[100,9423],[100,9508],[100,9593],[100,9679],[100,9763],[100,9847],[100,9932],[100,10017],[100,10102],[100,10187],[100,10272],[100,10356],[100,10441],[100,10526],[100,10611],[100,10696],[100,10781],[100,10866],[100,10951],[100,11035],[100,11120],[100,11205],[100,11290],[100,11375],[100,11460],[100,11544],[100,11629],[100,11714],[100,11799],[100,11884],[100,11969],[100,12054],[100,12138],[100,12223],[100,12308],[100,12393],[100,12478],[100,12562],[100,12647],[100,12732],[100,12817],[100,12902],[100,12987],[100,13072],[100,13156],[100,13241],[100,13326],[100,13411],[100,13496],[100,13581],[100,13665],[100,13750],[100,13835],[100,13920],[100,14005],[100,14090],[100,14175],[100,14259],[100,14346],[100,14429],[100,14514],[100,14599],[100,14684],[100,14769],[100,14853],[100,14938],[100,15023],[100,15108],[100,15193],[100,15278],[100,15362],[100,15447],[100,15532],[100,15617],[100,15702],[100,15787],[100,15871],[100,15956],[100,16041],[100,16126],[100,16211],[100,16296],[100,16381],[100,16465],[100,16550],[100,16635],[100,16720],[100,16805],[100,16890],[100,16975],[100,17059],[100,17144]]",591.7353,593.2866,98.64583333,1.0082,"[{""rating"":98.64583333333333,""responseTime"":1.0082000000476228}]",space,1.0371,,593.2867,Not at all,0,593.2881,,,[],,0,16,16,16,1,audio/Narrative8Situation7.wav,audio/Narrative7Situation7.wav,audio/Narrative6Situation7.wav,audio/Narrative5Situation7.wav,3,5,5,4,,,,,,,,,,,,,,,,,,,,,,,,,,,,,,,,,,,,,,,
,,,,,676fa93a6e1840db7ea43423,2025-07-07_19h02.20.593,group3.4_multiperson,2023.2.2,Win32,166.6666667,686c2ebf0248f13bef9af11f,686c7bfdc9dabd424120a724,,,,,,,,,,,,,,,,,,,,,,,,,,,,,593.2884,1,audio/Narrative7Situation8.wav,595.2928,,595.2928,605.2925,"[[97.8,424],[97.8,508],[97.8,593],[97.8,678],[97.8,763],[97.8,848],[97.8,933],[97.8,1018],[97.8,1102],[97.8,1187],[97.9,1274],[98.5,1357],[98.6,1442],[98.6,1527],[98.6,1611],[98.6,1696],[98.6,1781],[98.6,1868],[98.6,1951],[98.6,2036],[98.6,2120],[98.6,2205],[98.8,2290],[98.9,2375],[98.9,2460],[98.9,2545],[99,2630],[99,2714],[99,2799],[99,2884],[99,2969],[99,3054],[99,3139],[99,3223],[99,3308],[99,3393],[99,3478],[99,3563],[99.1,3648],[99.1,3732],[99.2,3817],[99.2,3902],[99.4,3987],[99.4,4072],[99.5,4159],[99.6,4242],[99.6,4326],[99.6,4411],[99.7,4496],[99.7,4581],[99.8,4666],[99.8,4751],[99.8,4836],[99.8,4920],[99.8,5005],[99.8,5090],[99.8,5175],[99.8,5260],[99.8,5345],[99.8,5431],[99.8,5514],[99.8,5599],[99.8,5684],[100,5769],[100,5854],[100,5939],[100,6023],[100,6108],[100,6193],[100,6278],[100,6363],[100,6447],[100,6532],[100,6617],[100,6702],[100,6787],[100,6872],[100,6957],[100,7041],[100,7126],[100,7211],[100,7296],[100,7381],[100,7466],[100,7551],[100,7635],[100,7720],[100,7805],[100,7890],[100,7975],[100,8060],[100,8144],[100,8229],[100,8314],[100,8399],[100,8484],[100,8569],[100,8654],[100,8739],[100,8823],[100,8908],[100,8993],[100,9078],[100,9163],[100,9250],[100,9332],[100,9417],[100,9502],[100,9587],[100,9672],[100,9759],[100,9841],[100,9926]]",605.2926,610.4073,99.89583333,1.1109,"[{""rating"":99.89583333333334,""responseTime"":1.1108999999762545}]",space,4.5953,,610.4073,Not at all,0,610.4086,,,[],,0,17,17,17,1,audio/Narrative8Situation8.wav,audio/Narrative7Situation8.wav,audio/Narrative6Situation8.wav,audio/Narrative5Situation8.wav,3,2,5,3,,,,,,,,,,,,,,,,,,,,,,,,,,,,,,,,,,,,,,,
,,,,,676fa93a6e1840db7ea43423,2025-07-07_19h02.20.593,group3.4_multiperson,2023.2.2,Win32,166.6666667,686c2ebf0248f13bef9af11f,686c7bfdc9dabd424120a724,,,,,,,,,,,,,,,,,,,,,,,,,,,,,610.4088,1,audio/Narrative7Situation9.wav,612.4132,,612.4133,621.0251,"[[98.3,339],[98.3,424],[98.3,508],[98.3,593],[98.3,678],[97.5,763],[97.4,848],[97.4,933],[97.2,1017],[97.2,1102],[99.5,1190],[100,1273],[100,1357],[100,1442],[100,1527],[100,1611],[100,1696],[100,1781],[100,1866],[100,1952],[100,2036],[100,2120],[100,2205],[100,2290],[100,2375],[100,2460],[100,2547],[100,2630],[100,2715],[100,2799],[100,2884],[100,2969],[100,3054],[100,3139],[100,3223],[100,3308],[100,3393],[100,3479],[100,3563],[100,3648],[100,3734],[100,3817],[100,3903],[100,3987],[100,4072],[100,4157],[100,4242],[100,4326],[100,4411],[100,4496],[100,4581],[100,4666],[100,4751],[100,4836],[100,4920],[100,5005],[100,5090],[100,5175],[100,5260],[100,5345],[100,5429],[100,5514],[100,5599],[100,5684],[100,5769],[100,5854],[100,5939],[100,6026],[100,6108],[100,6193],[100,6278],[100,6366],[100,6448],[100,6533],[97.5,6619],[97.5,6702],[98,6789],[100,6873],[100,6957],[100,7041],[100,7126],[100,7213],[100,7296],[100,7381],[100,7466],[100,7551],[100,7635],[100,7720],[100,7805],[100,7890],[100,7975],[100,8060],[100,8144],[100,8229],[100,8314],[100,8399],[100,8484],[100,8569]]",621.0252,624.5845,99.79166667,0.9927,"[{""rating"":99.79166666666667,""responseTime"":0.9927000000477619}]",space,3.0498,,624.5845,Definitely yes,100,624.5863,,,[],,0,18,18,18,1,audio/Narrative8Situation9.wav,audio/Narrative7Situation9.wav,audio/Narrative6Situation9.wav,audio/Narrative5Situation9.wav,3,2,4,3,,,,,,,,,,,,,,,,,,,,,,,,,,,,,,,,,,,,,,,
,,,,,676fa93a6e1840db7ea43423,2025-07-07_19h02.20.593,group3.4_multiperson,2023.2.2,Win32,166.6666667,686c2ebf0248f13bef9af11f,686c7bfdc9dabd424120a724,,,,,,,,,,,,,,,,,,,,,,,,,,,627.3169,629.8974,629.9072,2,audio/Narrative13Situation2.wav,629.9073,,629.9073,659.6419,"[[100,1014],[99.5,1099],[99.5,1184],[99.5,1268],[99.5,1353],[99.5,1438],[99.5,1523],[99.5,1608],[99.5,1693],[99.5,1778],[99.5,1862],[99.5,1947],[99.5,2032],[99.5,2117],[99.5,2202],[99.5,2287],[99.5,2371],[99.5,2456],[99.5,2541],[99.5,2626],[99.5,2711],[99.5,2796],[99.5,2880],[99.7,2965],[99.8,3050],[99.8,3135],[99.9,3220],[100,3305],[100,3389],[100,3474],[100,3559],[100,3644],[100,3729],[100,3814],[100,3899],[100,3983],[100,4068],[100,4153],[100,4238],[100,4323],[100,4408],[100,4492],[100,4577],[100,4662],[100,4747],[100,4832],[100,4917],[100,5002],[100,5086],[100,5171],[100,5256],[100,5341],[100,5426],[100,5511],[100,5595],[100,5680],[100,5765],[100,5850],[100,5935],[100,6020],[100,6105],[100,6189],[100,6274],[100,6359],[100,6444],[100,6529],[100,6614],[100,6698],[100,6783],[100,6868],[100,6953],[100,7038],[100,7123],[100,7208],[100,7292],[100,7377],[100,7462],[100,7547],[100,7632],[100,7717],[100,7802],[100,7886],[100,7971],[100,8056],[100,8141],[100,8226],[100,8311],[100,8395],[100,8480],[100,8565],[100,8650],[100,8735],[100,8820],[100,8904],[100,8989],[100,9074],[100,9159],[100,9244],[100,9329],[100,9413],[100,9498],[100,9583],[100,9668],[100,9753],[100,9838],[100,9923],[100,10008],[100,10092],[100,10177],[100,10262],[100,10347],[100,10432],[100,10517],[100,10601],[100,10686],[100,10771],[100,10856],[100,10941],[100,11026],[100,11110],[100,11195],[100,11280],[100,11365],[100,11450],[100,11535],[100,11619],[100,11704],[100,11789],[100,11874],[100,11959],[100,12044],[98.3,12131],[98.2,12213],[98.2,12298],[99.9,12385],[100,12468],[100,12553],[100,12638],[100,12723],[100,12807],[100,12892],[100,12977],[100,13062],[100,13148],[100,13232],[100,13316],[100,13401],[100,13486],[100,13572],[100,13656],[100,13741],[100,13826],[100,13911],[100,13995],[100,14080],[100,14165],[100,14250],[100,14335],[100,14419],[100,14506],[98,14592],[96,14675],[95.8,14759],[93,14846],[87.5,14930],[85.6,15015],[82,15101],[78,15185],[77.3,15268],[77.3,15353],[76.1,15439],[75.6,15522],[75.6,15607],[75,15692],[72.8,15779],[69.5,15863],[69.4,15947],[69.4,16032],[69.6,16116],[70.6,16204],[70.8,16287],[70.8,16371],[70.8,16456],[70.8,16541],[70.8,16625],[70.8,16710],[70.8,16795],[70.8,16882],[70.9,16965],[70.9,17050],[70.9,17135],[70.9,17219],[70.8,17306],[70,17389],[67.7,17474],[67.4,17559],[67.4,17644],[67.4,17728],[67.4,17813],[65.8,17900],[63.5,17985],[62.2,18068],[59.3,18155],[58.1,18237],[57.9,18325],[57.9,18407],[57.4,18492],[57.4,18577],[57.4,18662],[57.4,18747],[57.4,18831],[56.9,18916],[50.5,19003],[48.2,19086],[48.2,19171],[48.2,19256],[48.2,19341],[48.6,19426],[49.2,19510],[49.2,19595],[49.2,19680],[49.2,19765],[49.4,19850],[50,19934],[50.2,20021],[50.2,20104],[50.2,20189],[50.2,20274],[50.2,20359],[50.2,20443],[50.2,20528],[50.2,20613],[50.2,20698],[50.3,20783],[50.3,20868],[50.3,20953],[50.3,21037],[50.3,21122],[50.3,21207],[50.3,21292],[50.3,21377],[50.3,21462],[50.3,21547],[50.3,21631],[50.3,21716],[50.3,21801],[50.3,21886],[50.3,21971],[50.3,22056],[50.3,22140],[50.3,22225],[50.9,22310],[50.9,22395],[50.9,22480],[50.9,22565],[52.1,22650],[53.9,22736],[54.4,22819],[54.8,22904],[55.3,22989],[55.4,23074],[55.4,23158],[55.4,23243],[55.4,23328],[55.4,23413],[55.4,23498],[55.4,23583],[55.4,23668],[55.5,23752],[55.5,23837],[55.6,23922],[55.6,24007],[55.6,24094],[55.5,24178],[55.3,24262],[55.2,24346],[55.2,24431],[55.2,24516],[55.2,24601],[55.2,24686],[55.2,24771],[55.2,24855],[55.2,24940],[55.2,25025],[54.4,25110],[54.4,25195],[54.6,25280],[55.6,25367],[56,25451],[56.3,25536],[65.3,25621],[67.5,25704],[67.5,25789],[67.5,25875],[66.7,25961],[65.5,26046],[62.7,26130],[61.6,26213],[61.1,26298],[57.8,26384],[56.5,26470],[55.1,26552],[55.1,26637],[55,26722],[55,26807],[55,26892],[55,26978],[55,27061],[55,27146],[55,27231],[53.9,27316],[53.9,27401],[53.9,27486],[53.9,27571],[53.9,27655],[53.9,27740],[53.9,27825],[53.9,27910],[53.9,27995],[53.9,28080],[53.9,28164],[53.9,28249],[53.9,28334],[53.9,28419],[53.9,28504],[53.5,28591],[52.2,28676],[51.1,28759],[50,28843],[49.4,28928],[49.1,29014],[47.2,29100],[46,29182],[45.1,29267],[45.1,29352],[46.1,29437],[46.8,29524],[48.1,29607],[48.1,29692]]",659.642,659.6434,,,[],,,,659.6435,Partially,50,659.6449,,,[],,0,0,0,0,1,audio/Narrative13Situation2.wav,audio/Narrative13Situation2.wav,audio/Narrative13Situation2.wav,audio/Narrative13Situation2.wav,2,2,2,2,,,,,624.5865,627.3167,space,2.2229,,,,,,,,,,,,,,,,,,,,,,,,,,,,,,,
,,,,,676fa93a6e1840db7ea43423,2025-07-07_19h02.20.593,group3.4_multiperson,2023.2.2,Win32,166.6666667,686c2ebf0248f13bef9af11f,686c7bfdc9dabd424120a724,,,,,,,,,,,,,,,,,,,,,,,,,,,,,659.645,2,audio/Narrative6Situation1.wav,661.6479,,661.6479,688.2107,"[[47.5,939],[47.6,1024],[47.7,1108],[47.7,1193],[47.7,1278],[47.7,1363],[48,1448],[48.4,1533],[48.6,1618],[48.8,1702],[48.9,1787],[48.9,1872],[48.9,1957],[48.9,2042],[48.9,2127],[48.9,2211],[49,2296],[49,2381],[49,2466],[49,2551],[49,2636],[49,2721],[49,2805],[49,2890],[49,2975],[49,3060],[49,3145],[49,3230],[49,3314],[49,3399],[49,3484],[49.3,3569],[49.7,3654],[49.7,3738],[49.7,3823],[49.7,3908],[49.7,3993],[49.7,4078],[49.7,4163],[49.7,4248],[49.7,4332],[49.7,4417],[49.7,4502],[49.7,4587],[49.7,4672],[49.7,4757],[49.7,4842],[49.7,4927],[49.7,5011],[49.7,5096],[49.7,5181],[49.7,5266],[49.7,5351],[49.7,5436],[49.7,5520],[49.7,5605],[49.7,5690],[49.7,5775],[49.7,5860],[49.7,5945],[49.7,6029],[49.7,6114],[49.7,6199],[49.7,6284],[49.7,6369],[50.9,6454],[52.1,6539],[53.8,6624],[57.4,6708],[58.3,6793],[60.2,6878],[65.3,6963],[74.9,7048],[75.1,7132],[75.1,7217],[77.3,7302],[82,7387],[84.5,7472],[88.4,7557],[95.9,7642],[100,7726],[100,7811],[100,7896],[100,7981],[100,8066],[100,8151],[100,8235],[100,8320],[100,8405],[100,8490],[100,8575],[100,8660],[100,8745],[100,8829],[100,8914],[100,8999],[100,9084],[100,9169],[100,9254],[100,9338],[100,9423],[100,9508],[100,9593],[100,9678],[100,9763],[100,9847],[100,9932],[100,10017],[100,10102],[100,10187],[100,10272],[100,10357],[100,10441],[100,10526],[100,10611],[100,10696],[100,10781],[100,10866],[100,10950],[100,11035],[100,11120],[100,11205],[100,11290],[100,11375],[92.9,11460],[75.6,11545],[58,11629],[57.5,11714],[57.3,11799],[55,11884],[54.2,11969],[53.4,12054],[51,12139],[50.9,12223],[50.9,12308],[50.9,12393],[50.9,12478],[50.9,12563],[49.9,12647],[49.9,12732],[49.9,12817],[49.9,12902],[49.9,12987],[48.4,13072],[48,13156],[48,13241],[45,13326],[37.5,13411],[33.1,13496],[33,13581],[33,13665],[33,13750],[28.1,13835],[18.3,13920],[17.3,14005],[15.8,14090],[12.3,14175],[7.8,14260],[7.4,14344],[0.5,14429],[0.2,14514],[0.2,14599],[0.2,14684],[0.2,14769],[0.2,14853],[0.3,14938],[0.7,15023],[1,15108],[1,15193],[1,15278],[1,15363],[1,15447],[1,15532],[1,15617],[1,15702],[1,15787],[1,15872],[1,15956],[1,16041],[1,16126],[1.1,16211],[1.5,16296],[1.5,16380],[1.5,16466],[1.5,16550],[1.5,16635],[1.5,16720],[1.5,16805],[1.5,16890],[1.5,16975],[1.5,17059],[1.5,17144],[1.5,17229],[1.5,17314],[1.5,17399],[1.5,17484],[1.7,17569],[3.8,17653],[4.6,17738],[4.7,17823],[4.7,17908],[4.4,17993],[2.9,18078],[2.2,18163],[2,18247],[2,18332],[2,18417],[1.7,18502],[0.2,18587],[0.2,21047],[0.2,21132],[0.2,21217],[0.2,21302],[0.6,21387],[7.1,21471],[15.9,21556],[26.5,21641],[34.7,21726],[45.1,21811],[47.5,21896],[49.2,21980],[50.1,22065],[50.1,22150],[50.1,22235],[50.1,22320],[50.1,22405],[50.1,22490],[50.1,22574],[52.1,22659],[54.2,22744],[54.2,22829],[54.2,22914],[54.1,22998],[52.7,23084],[50.5,23168],[50.4,23253],[50.4,23338],[51,23423],[52.1,23508],[52.9,23593],[53.4,23677],[53.5,23762],[53.5,23847],[53.5,23932],[53.6,24017],[54,24101],[54,24186],[54,24271],[54,24356],[54.1,24441],[54.2,24526],[54.3,24611],[54.6,24696],[55.1,24780],[56.3,24865],[57.6,24950],[59.2,25035],[60.8,25120],[62.4,25205],[63.9,25289],[65.1,25375],[66.6,25459],[68.1,25544],[72.1,25629],[89.2,25714],[91.3,26223],[87.9,26308],[86.7,26392],[85.8,26477],[85.1,26562]]",688.2108,693.7315,74.89583333,2.1867,"[{""rating"":74.89583333333334,""responseTime"":2.1867000000476082}]",space,5.0087,,693.7316,Not at all,0,693.7334,,,[],,0,1,1,1,1,audio/Narrative7Situation1.wav,audio/Narrative8Situation1.wav,audio/Narrative5Situation1.wav,audio/Narrative6Situation1.wav,2,5,5,2,,,,,,,,,,,,,,,,,,,,,,,,,,,,,,,,,,,,,,,
,,,,,676fa93a6e1840db7ea43423,2025-07-07_19h02.20.593,group3.4_multiperson,2023.2.2,Win32,166.6666667,686c2ebf0248f13bef9af11f,686c7bfdc9dabd424120a724,,,,,,,,,,,,,,,,,,,,,,,,,,,,,693.7336,2,audio/Narrative6Situation2.wav,696.7377,,696.7377,725.2214,"[[999,0],[999,84],[999,169],[999,254],[999,339],[999,423],[999,508],[999,593],[999,678],[999,763],[999,848],[999,933],[999,1017],[999,1102],[999,1187],[999,1272],[999,1357],[999,1442],[999,1527],[999,1611],[999,1696],[999,1781],[999,1866],[999,1951],[999,2036],[999,2120],[999,2205],[999,2290],[999,2375],[999,2460],[51.3,2546],[50.5,2632],[49.6,2716],[48.6,2801],[45.7,2886],[40.2,2971],[30.9,3055],[30.1,3139],[31.4,3226],[41.8,3310],[46.1,3393],[50.3,3480],[53.1,3563],[53.2,3648],[52.6,3733],[52.5,3817],[51.3,3904],[50.8,3987],[50.8,4072],[51.5,4159],[55.3,4243],[61.8,4329],[68.5,4413],[77.6,4498],[87.4,4584],[89.7,4668],[92.5,4753],[94.9,4838],[95.8,4922],[96,5005],[96,5090],[96,5175],[96,5260],[96,5345],[96,5429],[96,5514],[96.5,5602],[97,5684],[97.9,5770],[98.4,5854],[98.5,5938],[98.5,6023],[98.5,6108],[98.5,6193],[98.5,6278],[98.6,6363],[98.6,6447],[98.6,6533],[98.6,6617],[98.6,6702],[98.6,6788],[98.6,6872],[98.6,6957],[98.6,7041],[98.6,7126],[98.6,7211],[98.6,7296],[98.9,7383],[100,7466],[100,7550],[100,7635],[100,7720],[100,7805],[100,7891],[100,7975],[100,8060],[100,8144],[100,8229],[100,8314],[100,8399],[100,8485],[100,8569],[100,8653],[100,8738],[100,8823],[100,8908],[99.9,8993],[99.8,9078],[99.8,9164],[99.8,9248],[99.8,9332],[99.8,9417],[99.8,9504],[99.8,9587],[99.8,9672],[99.8,9757],[99.8,9841],[99.8,9926],[99.8,10011],[99.9,10096],[99.9,10181],[99.9,10266],[99.9,10350],[97.4,10435],[97.4,10520],[97.4,10605],[97.4,10690],[97.4,10775],[97.4,10859],[97.4,10944],[97.4,11029],[97.4,11114],[97.4,11199],[97.7,11284],[98.8,11369],[99.9,11454],[99.9,11538],[99.9,11623],[100,11708],[100,11793],[100,11878],[100,11963],[100,12047],[100,12132],[100,12217],[100,12302],[100,12387],[100,12471],[100,12556],[100,12641],[100,12726],[100,12811],[100,12896],[100,12981],[100,13066],[100,13150],[100,13235],[100,13320],[100,13405],[100,13490],[100,13575],[100,13659],[100,13744],[100,13831],[100,13914],[100,13999],[100,14084],[100,14168],[100,14253],[100,14338],[100,14423],[100,14508],[100,14593],[100,14678],[100,14762],[100,14847],[100,14932],[100,15017],[100,15102],[100,15187],[100,15272],[100,15356],[100,15441],[100,15526],[100,15611],[100,15696],[100,15781],[100,15865],[100,15950],[100,16035],[100,16120],[100,16205],[100,16290],[100,16375],[100,16459],[100,16544],[100,16629],[100,16714],[100,16799],[100,16883],[100,16968],[100,17053],[100,17138],[100,17223],[100,17308],[100,17393],[100,17478],[100,17562],[100,17647],[100,17732],[100,17817],[100,17902],[100,17986],[100,18071],[100,18156],[100,18241],[100,18326],[100,18411],[100,18496],[100,18580],[100,18665],[100,18750],[100,18835],[100,18920],[100,19005],[100,19090],[100,19174],[100,19259],[100,19344],[100,19429],[100,19514],[100,19599],[100,19683],[100,19768],[100,19853],[100,19938],[100,20023],[100,20108],[100,20192],[100,20277],[100,20362],[100,20447],[100,20532],[100,20617],[100,20702],[100,20786],[100,20871],[100,20956],[100,21041],[100,21126],[100,21211],[100,21295],[100,21380],[100,21465],[100,21550],[100,21635],[100,21720],[100,21805],[100,21889],[100,21974],[100,22059],[100,22144],[100,22229],[100,22314],[100,22399],[100,22483],[100,22568],[100,22653],[100,22738],[100,22823],[100,22908],[100,22994],[100,23077],[100,23162],[100,23247],[100,23332],[100,23417],[100,23501],[100,23586],[100,23671],[100,23756],[100,23841],[100,23927],[100,24010],[100,24095],[100,24180],[100,24265],[100,24350],[100,24435],[100,24519],[100,24604],[100,24689],[100,24774],[100,24859],[100,24944],[100,25029],[100,25114],[100,25198],[100,25283],[100,25368],[100,25453],[100,25538],[100,25623],[100,25707],[100,25792],[100,25877],[100,25962],[100,26047],[100,26132],[100,26218],[100,26301],[100,26386],[100,26471],[100,26556],[100,26641],[100,26726],[100,26811],[100,26895],[100,26980],[100,27065],[100,27150],[100,27235],[100,27319],[100,27404],[100,27489],[100,27574],[100,27659],[100,27744],[100,27829],[100,27913],[100,27998],[100,28083],[100,28168],[100,28253],[100,28338],[100,28422]]",725.2215,742.356,98.75,8.4352,"[{""rating"":98.75,""responseTime"":8.4351999999285}]",space,16.6247,,742.3561,Not at all,0,742.3573,,,[],,0,2,2,2,1,audio/Narrative7Situation2.wav,audio/Narrative8Situation2.wav,audio/Narrative5Situation2.wav,audio/Narrative6Situation2.wav,3,3,3,3,,,,,,,,,,,,,,,,,,,,,,,,,,,,,,,,,,,,,,,
,,,,,676fa93a6e1840db7ea43423,2025-07-07_19h02.20.593,group3.4_multiperson,2023.2.2,Win32,166.6666667,686c2ebf0248f13bef9af11f,686c7bfdc9dabd424120a724,,,,,,,,,,,,,,,,,,,,,,,,,,,,,742.3574,2,audio/Narrative6Situation3.wav,747.3614,,747.3614,759.9595,"[[999,0],[999,85],[999,170],[999,253],[999,339],[999,424],[999,508],[999,594],[999,678],[999,763],[999,848],[999,933],[999,1018],[999,1103],[999,1188],[999,1272],[999,1357],[999,1442],[999,1526],[999,1612],[999,1697],[999,1782],[999,1866],[999,1951],[999,2036],[999,2120],[999,2206],[999,2291],[999,2375],[999,2460],[999,2546],[999,2630],[999,2715],[999,2800],[999,2884],[999,2969],[999,3055],[999,3140],[999,3224],[999,3309],[999,3393],[999,3478],[999,3563],[999,3648],[999,3732],[999,3818],[999,3903],[999,3987],[999,4073],[999,4157],[999,4242],[999,4327],[999,4412],[999,4496],[999,4581],[999,4667],[999,4751],[999,4836],[999,4920],[75.5,5006],[60.9,5091],[44.1,5176],[26.7,5260],[13.5,5345],[4.5,5430],[2.2,5514],[2.2,5599],[2.2,5685],[2.4,5769],[2.4,5854],[2.4,5939],[2.9,6024],[5.1,6109],[9.6,6194],[22.3,6279],[24.5,6363],[23.5,6449],[17,6533],[14.6,6617],[16,6703],[36.7,6800],[57.7,6885],[63.1,6970],[84.2,7055],[99.6,7146],[99.6,7230],[99.6,7313],[99.6,7398],[99.6,7483],[99.8,7568],[100,7652],[100,7739],[100,7822],[100,7907],[100,7992],[100,8076],[100,8161],[100,8246],[100,8331],[100,8418],[100,8501],[100,8586],[100,8671],[100,8755],[100,8840],[100,8925],[100,9010],[100,9095],[100,9180],[100,9264],[100,9349],[100,9434],[100,9519],[100,9604],[100,9688],[100,9773],[100,9858],[99.2,9944],[99.2,10028],[99.2,10113],[99.2,10198],[99.2,10282],[99.2,10367],[99.2,10452],[99.2,10537],[99.2,10622],[99.2,10707],[99.2,10792],[99.2,10876],[99.2,10961],[99.2,11046],[99.2,11131],[99.2,11216],[99.2,11301],[99.2,11385],[99.2,11470],[99.2,11555],[99.2,11640],[99.2,11725],[99.2,11810],[99.2,11895],[99.2,11979],[99.2,12064],[99.2,12149],[99.2,12234],[99.2,12319],[99.2,12404],[99.1,12489],[99.1,12573]]",759.9596,762.2442,99.16666667,1.5889,"[{""rating"":99.16666666666667,""responseTime"":1.5889000000953502}]",space,1.7714,,762.2443,Definitely yes,100,762.2462,,,[],,0,3,3,3,1,audio/Narrative7Situation3.wav,audio/Narrative8Situation3.wav,audio/Narrative5Situation3.wav,audio/Narrative6Situation3.wav,8,4,3,5,,,,,,,,,,,,,,,,,,,,,,,,,,,,,,,,,,,,,,,
,,,,,676fa93a6e1840db7ea43423,2025-07-07_19h02.20.593,group3.4_multiperson,2023.2.2,Win32,166.6666667,686c2ebf0248f13bef9af11f,686c7bfdc9dabd424120a724,,,,,,,,,,,,,,,,,,,,,,,,,,,,,762.2463,2,audio/Narrative6Situation4.wav,764.2503,,764.2503,776.8456,"[[96.7,10351],[97,10438],[97.1,10522],[97.1,10605],[97.1,10690],[97.1,10775],[96.9,10860]]",776.8456,778.9848,98.85416667,1.1458,"[{""rating"":98.85416666666667,""responseTime"":1.14579999995226}]",space,1.6238,,778.9849,Definitely yes,100,778.986,,,[],,0,4,4,4,1,audio/Narrative7Situation4.wav,audio/Narrative8Situation4.wav,audio/Narrative5Situation4.wav,audio/Narrative6Situation4.wav,3,3,1,2,,,,,,,,,,,,,,,,,,,,,,,,,,,,,,,,,,,,,,,
,,,,,676fa93a6e1840db7ea43423,2025-07-07_19h02.20.593,group3.4_multiperson,2023.2.2,Win32,166.6666667,686c2ebf0248f13bef9af11f,686c7bfdc9dabd424120a724,,,,,,,,,,,,,,,,,,,,,,,,,,,,,778.9862,2,audio/Narrative6Situation5.wav,780.989,,780.989,788.9282,"[[999,0],[999,84],[999,170],[999,254],[999,341],[999,424],[999,510],[999,596],[999,678],[999,763],[999,848],[999,933],[999,1019],[999,1103],[999,1187],[999,1272],[999,1357],[999,1442],[999,1527],[999,1612],[999,1697],[999,1781],[999,1866],[999,1951],[999,2036],[999,2121],[999,2205],[999,2290],[999,2375],[999,2460],[999,2545],[999,2630],[84.4,2717],[87.4,2802],[89,2884],[90.5,2971],[90.5,3054],[90.5,3139],[90.8,3226],[92.9,3310],[93.3,3393],[94.5,3478],[96,3563],[96.4,3648],[97.3,3735],[98.2,3819],[98.8,3902],[98.8,3987],[98.8,4072],[98.8,4157],[98.8,4242],[98.8,4327],[98.8,4413],[98.8,4496],[98.8,4581],[98.8,4666],[98.8,4751],[98.8,4836],[98.8,4921],[98.8,5005],[98.8,5090],[98.8,5175],[98.8,5261],[98.8,5345],[98.8,5430],[98.8,5514],[98.8,5599],[98.8,5684],[98.8,5769],[98.8,5854],[98.8,5940],[98.8,6024],[98.8,6108],[98.8,6193],[98.8,6278],[98.8,6363],[98.8,6448],[98.8,6533],[98.8,6617],[98.8,6702],[98.8,6789],[98.8,6872],[98.8,6957],[98.8,7042],[98.8,7127],[98.8,7211],[98.8,7296],[98.8,7381],[98.8,7466],[98.8,7551],[98.8,7636],[98.8,7720],[98.8,7805],[98.8,7890]]",788.9283,792.2069,98.64583333,0.9736,"[{""rating"":98.64583333333333,""responseTime"":0.9736000000237937}]",space,2.7676,,792.2069,Definitely yes,100,792.208,,,[],,0,5,5,5,1,audio/Narrative7Situation5.wav,audio/Narrative8Situation5.wav,audio/Narrative5Situation5.wav,audio/Narrative6Situation5.wav,5,2,5,2,,,,,,,,,,,,,,,,,,,,,,,,,,,,,,,,,,,,,,,
,,,,,676fa93a6e1840db7ea43423,2025-07-07_19h02.20.593,group3.4_multiperson,2023.2.2,Win32,166.6666667,686c2ebf0248f13bef9af11f,686c7bfdc9dabd424120a724,,,,,,,,,,,,,,,,,,,,,,,,,,,,,792.2082,2,audio/Narrative6Situation6.wav,794.2128,,794.2128,805.2732,"[[93.3,765],[94.2,850],[94.4,933],[94.4,1018],[94.4,1103],[94.4,1187],[94.4,1272],[93.1,1359],[91.1,1444],[89.9,1529],[88.2,1612],[88.2,1696],[88.2,1781],[88.2,1866],[88.2,1951],[88.2,2036],[88.9,2123],[92.6,2207],[95.4,2290],[97,2377],[97.7,2460],[97.7,2545],[97.7,2630],[97.7,2715],[97.7,2801],[97.7,2884],[97.7,2969],[97.7,3054],[97.9,3139],[98.1,3224],[98.2,3308],[98.4,3393],[98.4,3478],[98.4,3563],[98.4,3648],[98.4,3733],[98.4,3817],[98.4,3903],[98.4,3987],[98.4,4072],[98.4,4157],[98.4,4242],[98.4,4327],[98.4,4411],[98.4,4496],[98.4,4581],[98.4,4666],[98.4,4751],[98.4,4836],[98.4,4921],[98.4,5005],[98.4,5090],[98.4,5175],[98.4,5260],[98.4,5345],[98.4,5430],[98.4,5514],[98.4,5599],[98.4,5684],[98.4,5769],[98.4,5854],[98.4,5939],[98.4,6024],[98.4,6108],[98.4,6193],[98.4,6278],[98.4,6363],[98.4,6448],[98.4,6533],[98.4,6617],[98.4,6702],[98.4,6787],[98.4,6872],[98.4,6958],[98.4,7042],[98.4,7126],[98.4,7211],[98.4,7296],[98.4,7381],[98.4,7466],[98.4,7551],[98.4,7635],[98.4,7721],[98.4,7805],[98.4,7890],[98.4,7975],[98.4,8060],[98.4,8145],[98.4,8229],[98.1,8314],[98,8399],[98,8484],[98,8569],[98,8654],[98.8,8739],[99,8823],[99.7,8908],[99.7,8993],[99.7,9078],[99.7,9163],[99.8,9250],[100,9334],[100,9417],[100,9502],[100,9587],[100,9672],[100,9757],[100,9843],[100,9926],[100,10011],[100,10096],[100,10181],[100,10266],[100,10352],[100,10435],[100,10520],[100,10605],[100,10692],[100,10775],[100,10860],[100,10945],[100,11029]]",805.2733,808.5699,99.79166667,0.6509,"[{""rating"":99.79166666666667,""responseTime"":0.6508999999761045}]",space,2.7831,,808.5699,Definitely yes,100,808.5708,,,[],,0,6,6,6,1,audio/Narrative7Situation6.wav,audio/Narrative8Situation6.wav,audio/Narrative5Situation6.wav,audio/Narrative6Situation6.wav,3,2,3,2,,,,,,,,,,,,,,,,,,,,,,,,,,,,,,,,,,,,,,,
,,,,,676fa93a6e1840db7ea43423,2025-07-07_19h02.20.593,group3.4_multiperson,2023.2.2,Win32,166.6666667,686c2ebf0248f13bef9af11f,686c7bfdc9dabd424120a724,,,,,,,,,,,,,,,,,,,,,,,,,,,,,808.571,2,audio/Narrative6Situation7.wav,813.5757,,813.5757,838.4113,"[[95.1,1188],[94.8,1272],[94.6,1357],[94.6,1442],[94.6,1527],[94.6,1612],[94.6,1696],[94.6,1781],[95.6,1868],[99.1,1953],[100,2036],[100,2121],[100,2206],[100,2290],[100,2375],[100,2460],[100,2545],[100,2630],[100,2715],[100,2800],[100,2884],[100,2969],[100,3054],[100,3139],[100,3224],[100,3309],[100,3393],[100,3478],[97.1,3565],[75.8,3648],[60.2,3735],[52.1,3820],[48.6,3904],[47.2,3990],[45.4,4072],[45.4,4157],[45.4,4242],[45.4,4327],[45.4,4412],[45.4,4496],[44.1,4583],[37.4,4668],[31.5,4753],[30.8,4836],[31.5,4922],[36.3,5008],[35.9,5093],[27,5177],[24.2,5260],[24.5,5347],[26.3,5432],[27.1,5517],[30.5,5602],[37.5,5686],[43.3,5771],[45.9,5856],[50.7,5941],[51,6024],[51,6109],[51,6193],[51,6278],[51,6363],[51,6448],[51,6533],[54.2,6620],[56.5,6705],[59.4,6789],[65.5,6873],[81.3,6960],[88.1,7044],[93.1,7129],[98.3,7214],[100,7298],[100,7381],[100,7466],[100,7552],[100,7636],[100,7720],[100,7805],[100,7890],[100,7975],[100,8060],[100,8145],[100,8230],[100,8314],[100,8401],[100,8484],[100,8569],[100,8654],[100,8739],[100,8823],[100,8908],[100,8993],[100,9078],[100,9163],[100,9248],[100,9333],[100,9417],[100,9502],[100,9587],[100,9672],[100,9757],[100,9842],[100,9926],[100,10011],[100,10096],[100,10181],[100,10266],[100,10351],[100,10436],[100,10520],[100,10605],[100,10690],[100,10775],[100,10860],[100,10945],[100,11029],[100,11114],[100,11199],[100,11286],[100,11369],[100,11454],[100,11539],[100,11623],[100,11708],[100,11793],[100,11878],[100,11963],[100,12048],[100,12132],[100,12217],[100,12302],[100,12387],[100,12472],[100,12557],[100,12642],[100,12726],[100,12811],[100,12896],[100,12981],[100,13066],[100,13151],[100,13235],[100,13320],[100,13405],[100,13490],[100,13575],[100,13660],[100,13745],[100,13829],[100,13914],[100,13999],[100,14084],[100,14169],[100,14254],[100,14340],[100,14423],[100,14508],[100,14595],[100,14678],[100,14763],[100,14848],[100,14932],[100,15017],[100,15102],[100,15187],[100,15272],[100,15357],[100,15441],[100,15526],[100,15611],[100,15696],[100,15782],[100,15866],[100,15951],[100,16035],[100,16120],[100,16205],[100,16290],[100,16375],[100,16460],[100,16544],[100,16629],[100,16714],[100,16799],[100,16884],[100,16969],[100,17053],[100,17138],[100,17223],[100,17308],[100,17395],[100,17478],[100,17563],[100,17648],[100,17732],[100,17817],[100,17902],[100,17987],[100,18072],[100,18157],[100,18241],[100,18326],[100,18411],[100,18496],[100,18581],[100,18666],[100,18750],[100,18835],[100,18920],[100,19005],[100,19090],[100,19175],[100,19259],[100,19344],[100,19429],[100,19514],[100,19599],[100,19684],[100,19769],[100,19853],[100,19938],[100,20023],[100,20108],[100,20193],[100,20278],[100,20362],[100,20447],[100,20532],[100,20617],[100,20702],[100,20787],[100,20872],[100,20956],[100,21041],[100,21126],[100,21211],[100,21296],[100,21381],[100,21465],[100,21550],[100,21635],[100,21720],[100,21805],[100,21890],[100,21975],[100,22059],[100,22144],[100,22229],[100,22314],[100,22399],[100,22484],[100,22568],[100,22653],[100,22738],[100,22823],[100,22908],[100,22993],[100,23078],[100,23163],[100,23247],[100,23332],[100,23417],[100,23502],[100,23587],[100,23671],[100,23756],[100,23841],[100,23926],[100,24011],[100,24096],[100,24181],[100,24265],[100,24350],[100,24435],[100,24520],[100,24605],[100,24690],[100,24777]]",838.4114,841.6839,99.89583333,0.9318,"[{""rating"":99.89583333333334,""responseTime"":0.9317999999523181}]",space,2.7596,,841.684,Definitely yes,100,841.6852,,,[],,0,7,7,7,1,audio/Narrative7Situation7.wav,audio/Narrative8Situation7.wav,audio/Narrative5Situation7.wav,audio/Narrative6Situation7.wav,5,3,4,5,,,,,,,,,,,,,,,,,,,,,,,,,,,,,,,,,,,,,,,
,,,,,676fa93a6e1840db7ea43423,2025-07-07_19h02.20.593,group3.4_multiperson,2023.2.2,Win32,166.6666667,686c2ebf0248f13bef9af11f,686c7bfdc9dabd424120a724,,,,,,,,,,,,,,,,,,,,,,,,,,,,,841.6853,2,audio/Narrative6Situation8.wav,846.6897,,846.6898,853.526,"[[94.2,2123],[17.4,2207],[14.4,2716],[14.8,2802],[16.8,2887],[16.7,2969],[15,3056],[12.7,3141],[12.4,3224],[12.4,3308],[14.9,3395],[15.6,3478],[15.6,3563],[15.6,3648],[14.1,3734],[8,3819],[5.8,3905],[5.4,3987],[5.4,4072],[5.3,4157],[2.9,4245],[2.4,4326],[2.4,4412],[2.4,4496],[2.4,4581],[2.4,4666],[2.4,4751],[2.4,4836],[2.4,4921],[2.4,5005],[2.4,5090],[2.4,5175],[2.4,5260],[2.4,5345],[2.4,5430],[2.4,5514],[2.4,5599],[2.4,5684],[2.4,5769],[2.4,5854],[2.4,5939],[2.4,6023],[2.4,6108],[2.4,6193],[2.4,6278],[2.4,6363],[2.4,6448],[2.4,6533],[2.4,6617],[2.4,6702],[2.4,6787]]",853.5261,860.9984,3.4375,2.2745,"[{""rating"":3.437499999999999,""responseTime"":2.274499999999989}]",space,6.9598,,860.9984,Definitely yes,100,860.9995,,,[],,0,8,8,8,1,audio/Narrative7Situation8.wav,audio/Narrative8Situation8.wav,audio/Narrative5Situation8.wav,audio/Narrative6Situation8.wav,2,3,3,5,,,,,,,,,,,,,,,,,,,,,,,,,,,,,,,,,,,,,,,
,,,,,676fa93a6e1840db7ea43423,2025-07-07_19h02.20.593,group3.4_multiperson,2023.2.2,Win32,166.6666667,686c2ebf0248f13bef9af11f,686c7bfdc9dabd424120a724,,,,,,,,,,,,,,,,,,,,,,,,,,,,,860.9997,2,audio/Narrative6Situation9.wav,865.0044,,865.0044,874.9372,"[[999,0],[999,84],[999,169],[999,254],[999,339],[999,423],[999,508],[999,593],[999,678],[999,763],[999,848],[999,933],[999,1017],[999,1102],[999,1187],[999,1272],[47.2,1365],[29.3,1450],[14.6,1535],[5.1,1619],[0.7,1957],[1.6,2044],[2.4,2126],[2.4,2211],[2.5,2296],[2.5,2381],[2.5,2466],[2.5,2551],[2.5,2635],[2.5,2720],[2.5,2805],[2.5,2890],[2.5,2975],[2.5,3061],[2.5,3145],[2.5,3230],[2.5,3314],[2.5,3399],[2.5,3484],[2.5,3569],[2.5,3654],[2.5,3739],[2.5,3823],[2.5,3908],[2.5,3993],[2.5,4078],[2.5,4163],[2.5,4248],[2.5,4332],[2.5,4417],[2.5,4502],[2.5,4587],[2.5,4672],[2.5,4757],[2.5,4843],[2.5,4926],[2.5,5011],[2.5,5096],[2.5,5181],[2.5,5266],[2.5,5351],[2.5,5435],[2.5,5520],[2.5,5605],[2.5,5690],[2.5,5775],[2.5,5860],[2.5,5945],[2.5,6029],[2.5,6114],[2.5,6199],[2.5,6284],[2.5,6371],[2.5,6454],[2.5,6538],[2.5,6623],[2.5,6708],[2.5,6793],[2.5,6878],[2.5,6963],[2.5,7048],[2.5,7132],[2.5,7217],[2.5,7302],[2.5,7387],[2.5,7472],[2.5,7557],[2.5,7641],[2.5,7726],[2.5,7811],[2.5,7896],[2.5,7981],[2.5,8066],[2.5,8151],[2.5,8235],[2.5,8320],[2.5,8405],[2.5,8490],[2.5,8575],[2.5,8660],[2.5,8744],[2.5,8829],[2.5,8914],[2.5,8999],[2.5,9084],[2.5,9169],[2.5,9254],[2.5,9338],[2.5,9423],[2.5,9508],[2.5,9593],[2.5,9678],[2.5,9763],[2.5,9847],[2.5,9932]]",874.9373,878.3939,1.041666667,2.7489,"[{""rating"":1.0416666666666685,""responseTime"":2.7488999999761745}]",space,2.944,,878.394,Definitely yes,100,878.3949,,,[],,0,9,9,9,1,audio/Narrative7Situation9.wav,audio/Narrative8Situation9.wav,audio/Narrative5Situation9.wav,audio/Narrative6Situation9.wav,2,3,3,4,,,,,,,,,,,,,,,,,,,,,,,,,,,,,,,,,,,,,,,
,,,,,676fa93a6e1840db7ea43423,2025-07-07_19h02.20.593,group3.4_multiperson,2023.2.2,Win32,166.6666667,686c2ebf0248f13bef9af11f,686c7bfdc9dabd424120a724,,,,,,,,,,,,,,,,,,,,,,,,,,,,,878.3951,2,audio/Narrative5Situation1.wav,883.3975,,883.3976,896.6637,"[[999,0],[999,84],[999,169],[999,254],[999,339],[999,424],[999,508],[999,593],[999,678],[999,763],[999,848],[999,933],[999,1018],[999,1102],[999,1187],[999,1272],[999,1357],[999,1442],[999,1527],[999,1613],[999,1699],[999,1783],[999,1868],[999,1953],[999,2038],[999,2122],[100,2207],[60.2,2802],[57.9,2886],[47.6,2969],[44.1,3056],[45.1,3141],[51.1,3226],[54.1,3308],[54.1,3393],[54.1,3478],[54.1,3563],[54.1,3649],[54.1,3733],[54.1,3818],[54.1,3902],[54.1,3987],[54.1,4072],[54.1,4157],[54.1,4242],[54.1,4326],[54.1,4411],[54.1,4496],[54.1,4581],[54.1,4666],[54.1,4751],[54.1,4836],[54.1,4920],[54.1,5007],[54.1,5090],[54.1,5175],[54.1,5260],[54.1,5345],[54.1,5430],[54.1,5514],[54.1,5599],[54.1,5684],[54.1,5769],[54.1,5856],[54.1,5939],[54.1,6023],[54.1,6108],[53.5,6193],[53.4,6278],[53.4,6363],[53.4,6448],[53.4,6533],[56.9,6619],[95,7128],[96.1,7211],[96.9,7296],[96.9,7381],[97,7466],[97,7551],[97,7636],[97,7720],[97,7805],[97,7890],[97,7975],[97,8060],[97,8146],[97,8229],[97,8314],[97,8399],[97,8484],[97,8569],[97,8654],[97,8738],[97,8823],[97,8908],[97,8993],[97,9078],[97,9163],[97,9248],[97,9332],[97,9417],[97,9502],[97,9587],[97,9672],[97,9757],[97,9842],[96.9,9926],[96.9,10011],[96.9,10096],[96.9,10181],[96.9,10266],[96.9,10351],[96.9,10435],[96.9,10520],[96.9,10605],[97,10690],[97.7,10775],[98,10860],[98.1,10945],[98.2,11029],[98.2,11114],[98.2,11199],[98.2,11286],[98.2,11369],[98.2,11454],[98.2,11538],[98.2,11623],[98.2,11708],[98.2,11793],[98.2,11878],[98.2,11963],[98.2,12048],[98.2,12132],[98.2,12217],[98.2,12302],[98.2,12389],[98.2,12472],[98.2,12557],[98.2,12642],[98.2,12726],[98.2,12811],[98.2,12896],[98.2,12981],[98.2,13066],[98.2,13150],[98.2,13235]]",896.6639,898.8879,98.33333333,0.9466,"[{""rating"":98.33333333333334,""responseTime"":0.9466000000238637}]",space,1.7104,,898.8879,Partially,50,898.8897,,,[],,0,10,10,10,1,audio/Narrative8Situation1.wav,audio/Narrative7Situation1.wav,audio/Narrative6Situation1.wav,audio/Narrative5Situation1.wav,5,2,2,5,,,,,,,,,,,,,,,,,,,,,,,,,,,,,,,,,,,,,,,
,,,,,676fa93a6e1840db7ea43423,2025-07-07_19h02.20.593,group3.4_multiperson,2023.2.2,Win32,166.6666667,686c2ebf0248f13bef9af11f,686c7bfdc9dabd424120a724,,,,,,,,,,,,,,,,,,,,,,,,,,,,,898.8898,2,audio/Narrative5Situation2.wav,901.8938,,901.8938,931.3353,"[[999,0],[999,84],[999,169],[999,254],[999,339],[999,424],[999,509],[999,593],[999,678],[999,763],[999,848],[999,933],[999,1018],[999,1102],[999,1187],[999,1272],[999,1357],[999,1442],[999,1527],[999,1612],[999,1697],[999,1781],[999,1866],[999,1951],[999,2036],[999,2121],[999,2206],[999,2290],[999,2375],[999,2460],[999,2547],[999,2631],[999,2717],[100,2801],[100,2884],[100,2971],[100,3056],[100,3139],[100,3224],[100,3309],[99.9,3393],[99.9,3478],[99.7,3563],[99.6,3648],[99.6,3733],[99.6,3818],[99.6,3902],[99.6,3987],[99.6,4072],[99.6,4159],[99.6,4242],[99.6,4328],[99.6,4412],[99.6,4496],[99.6,4581],[99.6,4666],[99.6,4751],[99.6,4837],[99.6,4921],[99.6,5005],[99.6,5090],[99.6,5175],[99.6,5260],[99.6,5345],[99.6,5430],[99.6,5515],[99.6,5599],[99.6,5684],[99.6,5769],[99.6,5856],[99.6,5939],[99.6,6024],[99.6,6108],[99.6,6193],[99.6,6278],[99.6,6363],[99.6,6448],[99.6,6533],[99.6,6618],[99.6,6702],[99.6,6787],[99.6,6872],[99.6,6957],[99.6,7042],[99.6,7127],[99.6,7211],[99.6,7296],[99.6,7381],[99.6,7466],[99.6,7552],[99.6,7638],[99.6,7721],[99.6,7805],[99.6,7892],[99.6,7975],[99.6,8060],[99.6,8145],[99.6,8230],[99.6,8314],[99.6,8399],[99.6,8484],[99.6,8569],[99.6,8654],[99.6,8739],[99.6,8823],[99.6,8908],[99.6,8993],[99.6,9078],[99.6,9163],[99.6,9248],[99.6,9333],[99.6,9417],[99.6,9502],[99.6,9587],[99.6,9672],[99.6,9757],[99.6,9842],[99.6,9927],[99.6,10011],[99.6,10096],[99.6,10181],[99.6,10266],[99.6,10351],[99.6,10436],[99.6,10520],[99.6,10605],[99.6,10690],[99.6,10775],[99.6,10860],[99.6,10945],[99.6,11029],[99.6,11114],[99.6,11199],[99.6,11284],[99.6,11369],[99.7,11455],[99.7,11539],[99.7,11623],[99.7,11708],[99.7,11793],[99.7,11878],[99.7,11963],[99.7,12048],[99.7,12132],[99.7,12217],[99.7,12302],[99.7,12387],[99.7,12472],[99.7,12557],[99.7,12644],[99.7,12726],[99.7,12811],[99.7,12896],[99.7,12981],[99.7,13066],[99.7,13151],[99.7,13235],[99.7,13320],[99.7,13405],[99.7,13490],[99.7,13575],[99.7,13660],[99.7,13745],[99.7,13829],[99.7,13914],[99.7,13999],[99.7,14084],[99.7,14169],[99.7,14254],[99.7,14340],[99.7,14423],[99.7,14508],[99.7,14593],[99.7,14678],[99.7,14763],[99.7,14848],[99.7,14932],[99.7,15017],[99.7,15102],[99.7,15187],[99.7,15272],[99.7,15357],[99.7,15442],[99.7,15526],[99.7,15611],[99.7,15696],[99.7,15781],[99.7,15866],[99.7,15950],[99.7,16035],[99.7,16120],[99.7,16205],[99.7,16290],[99.7,16375],[99.7,16460],[99.7,16545],[99.7,16629],[99.7,16714],[99.7,16799],[99.7,16884],[99.7,16969],[99.7,17053],[99.7,17138],[99.7,17223],[99.7,17308],[99.7,17393],[99.7,17478],[99.7,17563],[99.8,17648],[99.8,17732],[99.8,17817],[99.8,17902],[99.8,17987],[99.8,18072],[99.8,18156],[99.8,18243],[99.8,18326],[99.8,18411],[99.8,18496],[99.8,18581],[99.8,18666],[99.8,18750],[99.8,18835],[99.8,18920],[99.8,19005],[99.8,19090],[99.8,19175],[99.8,19259],[99.8,19344],[99.8,19429],[99.8,19514],[99.8,19601],[99.8,19684],[99.8,19769],[99.8,19853],[99.8,19938],[99.8,20023],[99.8,20108],[99.8,20193],[99.8,20279],[99.8,20362],[99.8,20448],[99.8,20532],[99.8,20617],[99.8,20702],[99.8,20787],[99.8,20872],[99.8,20956],[99.8,21041],[99.8,21126],[99.8,21211],[99.8,21296],[99.8,21381],[99.8,21465],[99.8,21550],[99.8,21635],[99.8,21720],[99.8,21805],[99.8,21890],[99.8,21975],[99.8,22059],[99.8,22144],[99.8,22229],[99.8,22314],[99.8,22399],[99.8,22484],[99.8,22568],[99.8,22653],[99.8,22738],[99.8,22823],[99.8,22908],[99.8,22993],[99.8,23078],[99.8,23164],[99.8,23247],[99.8,23332],[99.8,23417],[99.8,23502],[99.8,23587],[99.8,23671],[99.8,23756],[99.8,23841],[99.8,23926],[99.8,24011],[99.8,24096],[99.8,24180],[99.8,24265],[99.8,24350],[99.8,24435],[99.8,24520],[99.8,24605],[99.8,24690],[99.8,24774],[99.8,24860],[99.8,24944],[99.8,25029],[99.8,25114],[99.8,25199],[99.8,25283],[99.8,25368],[99.8,25453],[99.8,25538],[99.8,25623],[99.8,25708],[99.8,25793],[99.8,25877],[99.8,25962],[99.8,26049],[99.8,26132],[99.8,26217],[99.8,26302],[99.8,26387],[99.8,26471],[99.8,26556],[99.8,26641],[99.8,26726],[99.8,26811],[99.8,26896],[99.8,26980],[99.8,27065],[99.8,27150],[99.8,27235],[99.8,27320],[99.8,27405],[99.8,27489],[99.8,27574],[99.8,27659],[99.8,27744],[99.8,27829],[99.8,27914],[99.8,27999],[99.8,28083],[99.8,28168],[99.8,28253],[99.8,28338],[99.8,28423],[99.8,28508],[99.8,28593],[99.8,28677],[99.8,28762],[99.8,28847],[99.8,28932],[99.8,29018],[99.8,29102],[99.8,29187],[99.8,29271],[99.8,29356],[99.8,29441]]",931.3354,934.5916,99.79166667,1.632,"[{""rating"":99.79166666666667,""responseTime"":1.6319999999999482}]",space,2.7439,,934.5917,Not at all,0,934.5933,,,[],,0,11,11,11,1,audio/Narrative8Situation2.wav,audio/Narrative7Situation2.wav,audio/Narrative6Situation2.wav,audio/Narrative5Situation2.wav,3,3,3,3,,,,,,,,,,,,,,,,,,,,,,,,,,,,,,,,,,,,,,,
,,,,,676fa93a6e1840db7ea43423,2025-07-07_19h02.20.593,group3.4_multiperson,2023.2.2,Win32,166.6666667,686c2ebf0248f13bef9af11f,686c7bfdc9dabd424120a724,,,,,,,,,,,,,,,,,,,,,,,,,,,,,934.5935,2,audio/Narrative5Situation3.wav,937.5956,,937.5956,951.4861,"[[98.1,12389],[97.7,12472],[97.7,12557],[97.7,12641],[97.7,12728],[97.7,12811],[97.7,12896],[97.7,12981],[97.7,13066],[97.7,13150],[97.7,13235],[97.7,13320],[97.7,13405],[97.7,13490],[97.7,13575],[97.7,13660],[97.7,13745],[97.7,13829]]",951.4862,953.4315,97.70833333,0.7772,"[{""rating"":97.70833333333333,""responseTime"":0.7772000000477419}]",space,1.4331,,953.4315,Definitely yes,100,953.4335,,,[],,0,12,12,12,1,audio/Narrative8Situation3.wav,audio/Narrative7Situation3.wav,audio/Narrative6Situation3.wav,audio/Narrative5Situation3.wav,4,8,5,3,,,,,,,,,,,,,,,,,,,,,,,,,,,,,,,,,,,,,,,
,,,,,676fa93a6e1840db7ea43423,2025-07-07_19h02.20.593,group3.4_multiperson,2023.2.2,Win32,166.6666667,686c2ebf0248f13bef9af11f,686c7bfdc9dabd424120a724,,,,,,,,,,,,,,,,,,,,,,,,,,,,,953.4337,2,audio/Narrative5Situation4.wav,954.4375,,954.4375,974.8065,"[[999,0],[999,84],[999,169],[999,254],[999,339],[999,426],[999,509],[999,593],[999,678],[999,765],[999,848],[999,933],[999,1018],[999,1102],[999,1187],[999,1274],[999,1357],[999,1442],[999,1527],[999,1611],[999,1696],[999,1781],[999,1866],[999,1951],[999,2036],[999,2121],[999,2205],[999,2290],[999,2375],[999,2460],[999,2547],[999,2630],[999,2715],[999,2802],[98.6,2888],[98.8,2969],[98.8,3054],[98.8,3139],[98.9,3225],[99.6,3311],[100,3393],[100,3478],[100,3563],[100,3648],[100,3733],[100,3817],[100,3902],[100,3987],[100,4072],[100,4157],[100,4242],[100,4326],[100,4411],[100,4496],[100,4581],[100,4666],[99.1,4753],[88.9,4836],[63.3,4929],[57,5013],[47.2,5098],[27.5,5183],[19.9,5269],[6.1,5352],[3.3,5436],[3.3,5520],[3.3,5605],[3.3,5690],[3.3,5775],[2.1,5861],[1.9,5945],[1.7,6029],[1.7,6114],[1.7,6199],[1.7,6284],[1,6371],[7.2,10104],[15,10189],[37.7,10274],[47.5,10359],[57.2,10444],[71.6,10528],[82,10613],[83.9,10698],[90,10783],[97.2,10868],[97.6,10951],[97.6,11035],[98.9,11123],[100,11205],[100,11290],[100,11375],[100,11460],[100,11544],[100,11629],[100,11714],[100,11799],[100,11886],[100,11969],[100,12053],[100,12139],[100,12223],[100,12308],[100,12393],[100,12478],[100,12563],[100,12647],[100,12732],[100,12817],[100,12902],[100,12987],[100,13072],[100,13156],[100,13241],[100,13326],[100,13411],[100,13496],[100,13581],[100,13668],[100,13750],[100,13835],[100,13922],[100,14005],[100,14090],[100,14175],[100,14260],[100,14344],[100,14429],[100,14514],[100,14599],[100,14684],[100,14769],[100,14853],[100,14938],[100,15023],[100,15108],[100,15193],[100,15278],[100,15363],[100,15447],[100,15532],[100,15617],[100,15702],[100,15787],[100,15872],[100,15956],[100,16041],[100,16126],[100,16211],[100,16296],[100,16381],[100,16465],[100,16550],[100,16635],[100,16720],[100,16805],[100,16890],[100,16975],[100,17059],[100,17144],[100,17229],[100,17314],[100,17399],[100,17484],[100,17568],[100,17653],[100,17738],[100,17823],[100,17908],[100,17993],[100,18077],[100,18162],[100,18247],[100,18332],[100,18417],[100,18502],[100,18587],[100,18672],[100,18756],[100,18841],[100,18926],[100,19011],[100,19096],[100,19180],[100,19265],[100,19350],[100,19435],[100,19520],[100,19605],[100,19690],[100,19774],[100,19859],[100,19944],[100,20029],[100,20114],[100,20199],[100,20284],[100,20368]]",974.8067,981.0123,98.33333333,4.1919,"[{""rating"":98.33333333333334,""responseTime"":4.191899999976158}]",space,5.6915,,981.0124,Partially,50,985.9091,50.72916667,4.2877,"[{""rating"":50.72916666666667,""responseTime"":4.287700000047607}]",space,0,13,13,13,1,audio/Narrative8Situation4.wav,audio/Narrative7Situation4.wav,audio/Narrative6Situation4.wav,audio/Narrative5Situation4.wav,3,3,2,1,,,4.3768,,,,,,,,,,,,,,,,,,,,,,,,,,,,,,,,,,,,
,,,,,676fa93a6e1840db7ea43423,2025-07-07_19h02.20.593,group3.4_multiperson,2023.2.2,Win32,166.6666667,686c2ebf0248f13bef9af11f,686c7bfdc9dabd424120a724,,,,,,,,,,,,,,,,,,,,,,,,,,,,,985.9093,2,audio/Narrative5Situation5.wav,990.9149,,990.915,1006.3205,"[[51.7,1442],[51.7,1527],[51.7,1611],[52.3,1699],[53.5,1782],[53.5,1866],[53.5,1951],[52.6,2043],[47.9,2129],[37,2214],[17.4,2298],[14,2381],[14,2466],[14,2551],[14,2636],[14,2721],[14.9,2808],[16.4,2890],[18.1,2978],[20.4,3060],[24.1,3147],[29.2,3232],[42.8,3317],[50.6,3401],[52.5,3486],[52.9,3569],[52.9,3654],[55.2,3740],[64.6,3826],[69.7,3910],[83.8,3995],[92.3,4078],[93.2,4165],[95.5,4250],[97.6,4333],[97.6,4417],[97.6,4502],[97.1,4587],[96,4675],[94.5,4757],[89.8,4844],[60.8,5184],[57.9,5268],[55.6,5353],[48.9,5444],[48.1,5527],[48.1,5611],[48.1,5696],[48.1,5781],[48.1,5866],[45.6,5953],[38.8,6038],[32.4,6120],[32.4,6205],[32.4,6290],[32.4,6375],[29.1,6462],[27.8,6545],[27.8,6630],[29,6716],[29,6799],[22.2,6886],[16.6,6969],[16.6,7054],[16.1,7140],[8.4,7226],[7,7308],[6.6,7393],[4.2,7480],[4,7563],[4,7648],[4.1,7732],[4.1,7817],[4.1,7902],[4.1,7987],[4.1,8072],[4.1,8157],[4.1,8242],[4.1,8326],[4.1,8411],[4.1,8496],[4.1,8581],[4.1,8666],[4.3,8751],[4.7,8836],[4.7,8920],[4.7,9005],[4.7,9090],[4.7,9175],[4.7,9260],[4.7,9345],[4.7,9429],[4.7,9514],[4.7,9599],[4.7,9684],[4.7,9769],[4.7,9854],[4.8,9938],[4.8,10023],[4.8,10108],[4.8,10193],[4.8,10278],[4.8,10363],[4.8,10448],[4.8,10532],[4.8,10617],[4.8,10702],[4.8,10787],[4.8,10872],[4.8,10957],[4.8,11044],[4.8,11126],[4.8,11211],[4.8,11296],[4.8,11381],[4.8,11466],[4.8,11550],[4.9,11635],[4.9,11720],[4.9,11805],[4.9,11890],[4.9,11975],[4.9,12059],[4.9,12144],[4.9,12229],[4.9,12314],[4.9,12399],[4.9,12486],[4.9,12569],[4.9,12653],[5.1,12739],[5.2,12823],[5.6,12908],[7.9,12995],[10.8,13080],[12.8,13163],[20.4,13249],[30.3,13335],[50.5,13926],[50.5,14011],[50.5,14096],[50.1,14181],[47.4,14266],[45.2,14350],[45.2,14435],[45.2,14520],[44.3,14607],[42,14690],[42,14775],[38.6,14861],[34.5,14944],[34.5,15029],[34.5,15114]]",1006.3206,1011.8658,9.166666667,4.6285,"[{""rating"":13.645833333333336,""responseTime"":2.6166000000239364},{""rating"":9.166666666666668,""responseTime"":4.628500000000031}]",space,5.0253,,1011.8658,Partially,50,1011.8675,,,[],,0,14,14,14,1,audio/Narrative8Situation5.wav,audio/Narrative7Situation5.wav,audio/Narrative6Situation5.wav,audio/Narrative5Situation5.wav,2,5,2,5,,,,,,,,,,,,,,,,,,,,,,,,,,,,,,,,,,,,,,,
,,,,,676fa93a6e1840db7ea43423,2025-07-07_19h02.20.593,group3.4_multiperson,2023.2.2,Win32,166.6666667,686c2ebf0248f13bef9af11f,686c7bfdc9dabd424120a724,,,,,,,,,,,,,,,,,,,,,,,,,,,,,1011.8678,2,audio/Narrative5Situation6.wav,1014.8718,,1014.8718,1020.5321,"[[999,0],[999,84],[999,171],[999,254],[999,339],[999,424],[999,509],[999,593],[999,681],[999,764],[999,848],[999,933],[999,1017],[999,1102],[999,1187],[999,1272],[999,1359],[999,1444],[999,1529],[999,1612],[999,1696],[999,1783],[37.7,1866],[37.7,1952],[38.5,2038],[45.7,2122],[57.9,2214],[70.4,2298],[80.9,2383],[86.6,2468],[94.2,2553],[96.7,2636],[96.7,2721],[96.7,2805],[96.7,2890],[96.7,2975],[96.7,3060],[96.5,3145],[96.5,3230],[96.5,3314],[96.7,3399],[96.7,3484],[96.7,3569],[96.7,3654],[96.8,3739],[96.8,3823],[96.8,3908],[96.8,3993],[96.9,4078],[97.3,4165],[97.3,4248],[97.3,4333],[97.3,4417],[97.3,4502],[97.3,4587],[97.3,4672],[97.3,4757],[97.3,4842],[97.3,4926],[97.3,5011],[97.3,5098],[97.3,5181],[97.3,5268],[97.3,5351],[97.3,5435],[97.3,5520],[97.3,5605]]",1020.5321,1022.6255,97.08333333,1.2235,"[{""rating"":97.08333333333333,""responseTime"":1.2235000000000582}]",space,1.5802,,1022.6256,Not at all,0,1022.6273,,,[],,0,15,15,15,1,audio/Narrative8Situation6.wav,audio/Narrative7Situation6.wav,audio/Narrative6Situation6.wav,audio/Narrative5Situation6.wav,2,3,2,3,,,,,,,,,,,,,,,,,,,,,,,,,,,,,,,,,,,,,,,
,,,,,676fa93a6e1840db7ea43423,2025-07-07_19h02.20.593,group3.4_multiperson,2023.2.2,Win32,166.6666667,686c2ebf0248f13bef9af11f,686c7bfdc9dabd424120a724,,,,,,,,,,,,,,,,,,,,,,,,,,,,,1022.6274,2,audio/Narrative5Situation7.wav,1026.6288,,1026.6289,1047.6423,"[[999,0],[999,84],[999,169],[999,254],[999,339],[999,424],[999,508],[999,593],[999,678],[999,763],[999,848],[999,933],[999,1018],[999,1102],[999,1187],[999,1272],[999,1357],[999,1442],[999,1527],[999,1612],[999,1696],[999,1781],[999,1866],[999,1951],[999,2036],[999,2121],[999,2205],[999,2290],[999,2375],[999,2460],[999,2545],[999,2630],[999,2715],[999,2799],[999,2884],[999,2969],[999,3054],[999,3139],[999,3224],[999,3308],[999,3394],[999,3478],[999,3563],[999,3648],[999,3733],[999,3817],[999,3902],[999,3987],[999,4072],[999,4157],[999,4242],[999,4326],[999,4411],[999,4496],[999,4581],[999,4668],[999,4753],[100,4838],[99,4922],[98.2,5005],[97.9,5090],[97.9,5175],[97.9,5260],[97.9,5345],[97.9,5430],[97.9,5514],[97.9,5599],[97.9,5684],[97.9,5769],[97.9,5854],[97.9,5939],[97.9,6023],[97.9,6108],[97.9,6193],[97.9,6278],[97.9,6363],[97.9,6448],[97.9,6535],[97.9,6617],[97.9,6702],[97.9,6787],[97.9,6872],[97.9,6957],[97.9,7042],[97.9,7126],[97.9,7211],[97.9,7296],[97.9,7381],[97.9,7466],[97.9,7551],[97.9,7636],[97.9,7720],[97.9,7805],[97.9,7892],[97.9,7975],[97.9,8060],[97.9,8144],[97.9,8230],[97.9,8314],[97.9,8399],[97.9,8484],[97.9,8569],[97.9,8654],[97.9,8738],[97.9,8824],[97.9,8908],[97.9,8993],[97.9,9078],[97.9,9163],[97.9,9248],[97.9,9333],[97.9,9417],[97.9,9502],[97.9,9587],[97.9,9672],[97.9,9757],[97.9,9841],[97.8,9926],[97.8,10011],[97.8,10096],[97.8,10181],[97.8,10266],[97.8,10351],[97.8,10436],[97.8,10520],[97.8,10605],[97.8,10690],[97.8,10775],[97.8,10860],[97.8,10945],[97.8,11029],[97.8,11114],[97.8,11199],[97.8,11284],[97.8,11369],[97.8,11454],[97.8,11538],[97.8,11623],[97.8,11708],[97.8,11793],[97.8,11878],[97.8,11963],[97.8,12047],[97.8,12133],[97.8,12217],[97.8,12302],[97.8,12387],[97.8,12472],[98.5,13577],[98.9,13660],[98.9,13744],[98.9,13829],[98.9,13914],[98.9,13999],[98.9,14084],[98.4,14169],[98.2,14255],[98,14338],[98,14423],[97.9,14508],[97.3,14593],[97.3,14678],[97.3,14762],[97.3,14847],[97.3,14932],[97.3,15017],[97.3,15102],[97.3,15187],[97.3,15272],[97.3,15356],[97.3,15443],[97.3,15526],[97.3,15611],[97.3,15699],[97.3,15781],[97.3,15865],[97.3,15950],[97.3,16035],[97.3,16120],[97.3,16205],[97.3,16290],[97.3,16375],[97.3,16459],[95.9,16547],[85.6,16631],[67.3,16716],[63.4,16801],[60.7,16886],[58.8,16969],[54.6,17056],[52.4,17140],[50.6,17225],[50,17308],[50,17393],[50,17478],[50,17562],[50,17647],[50,17732],[50,17817],[50,17903],[50,17987],[50,18072],[50,18156],[50,18241],[50,18326],[50,18411],[50,18496],[50,18581],[50,18665],[50,18750],[50,18835],[49,18922],[47.6,19007],[46.7,19092],[45,19177],[43.3,19259],[43.3,19344],[43.3,19429],[43.3,19514],[43.6,19599],[45.8,19686],[46,19768],[46,19853],[46,19938],[46,20023],[46,20108],[46,20193],[46,20277],[46,20362],[46,20447],[46,20532],[46,20617],[46,20702],[46,20787],[46,20871],[45.9,20956]]",1047.6425,1079.6349,48.64583333,0.8634,"[{""rating"":48.645833333333336,""responseTime"":0.8633999999763091}]",space,31.4771,0.0004,1079.6349,Not at all,0,1079.6361,,,[],,0,16,16,16,1,audio/Narrative8Situation7.wav,audio/Narrative7Situation7.wav,audio/Narrative6Situation7.wav,audio/Narrative5Situation7.wav,3,5,5,4,,,,,,,,,,,,,,,,,,,,,,,,,,,,,,,,,,,,,,,
,,,,,676fa93a6e1840db7ea43423,2025-07-07_19h02.20.593,group3.4_multiperson,2023.2.2,Win32,166.6666667,686c2ebf0248f13bef9af11f,686c7bfdc9dabd424120a724,,,,,,,,,,,,,,,,,,,,,,,,,,,,,1079.6363,2,audio/Narrative5Situation8.wav,1082.6389,,1082.639,1091.4448,"[[999,0],[999,84],[999,169],[999,254],[999,339],[999,424],[999,510],[999,593],[999,678],[999,763],[999,848],[999,933],[999,1018],[999,1103],[999,1188],[999,1272],[999,1357],[999,1442],[999,1527],[999,1612],[999,1696],[999,1781],[999,1866],[999,1951],[999,2036],[999,2121],[999,2206],[999,2290],[999,2375],[999,2460],[999,2545],[999,2630],[999,2715],[999,2799],[999,2884],[999,2969],[999,3054],[999,3139],[999,3224],[999,3309],[999,3393],[999,3478],[999,3563],[999,3648],[999,3733],[999,3817],[999,3902],[999,3987],[999,4074],[999,4157],[999,4242],[999,4326],[999,4411],[999,4496],[999,4581],[999,4666],[999,4751],[999,4836],[999,4921],[999,5005],[999,5090],[999,5175],[999,5260],[999,5345],[999,5430],[999,5514],[999,5599],[999,5686],[999,5769],[999,5854],[999,5939],[999,6023],[999,6108],[999,6193],[999,6278],[999,6363],[999,6448],[999,6533],[999,6617],[999,6702],[999,6787],[999,6872],[999,6957],[999,7042],[999,7126],[999,7211],[999,7296],[999,7381],[999,7466],[999,7551],[999,7636],[999,7720],[999,7805],[999,7890],[999,7975],[999,8060],[999,8145],[999,8229],[999,8314],[999,8399],[999,8484],[999,8569],[999,8654],[999,8739]]",1091.4448,1097.7961,28.125,5.1045,"[{""rating"":28.125,""responseTime"":5.104500000000144}]",space,5.8402,,1097.7962,Partially,50,1097.7981,,,[],,0,17,17,17,1,audio/Narrative8Situation8.wav,audio/Narrative7Situation8.wav,audio/Narrative6Situation8.wav,audio/Narrative5Situation8.wav,3,2,5,3,,,,,,,,,,,,,,,,,,,,,,,,,,,,,,,,,,,,,,,
