consent.started,consent.stopped,consentResponse.keys,consentResponse.rt,consentResponse.duration,participantID,date,expName,psychopyVersion,OS,frameRate,STUDY_ID,SESSION_ID,opening1.started,opening1.stopped,keyEndingOpening1.keys,keyEndingOpening1.rt,keyEndingOpening1.duration,volumeAdjust.started,volumeAdjust.stopped,endingAdjust.keys,endingAdjust.rt,endingAdjust.duration,opening2.started,opening2.stopped,keyEndingOpening.keys,keyEndingOpening.rt,keyEndingOpening.duration,mouse.x,mouse.y,mouse.leftButton,mouse.midButton,mouse.rightButton,mouse.time,instructionLoop.thisRepN,instructionLoop.thisTrialN,instructionLoop.thisN,instructionLoop.thisIndex,instructionLoop.ran,readyForAudio.started,readyForAudio.stopped,fixation.started,run,audio_played,fixation.stopped,endPractice.keys,audioPre.started,audioPre.stopped,continuousResponses_audio,intRating.started,intRating.stopped,intQuestionSlider.response,intQuestionSlider.rt,intQuestionSlider.history,confirmResponse.keys,confirmResponse.rt,confirmResponse.duration,catchQuestion.started,catch_label,catch_value,catchQuestion.stopped,catchQuestionSlider.response,catchQuestionSlider.rt,catchQuestionSlider.history,confirmResponse_2.keys,audioRunLoop.thisRepN,audioRunLoop.thisTrialN,audioRunLoop.thisN,audioRunLoop.thisIndex,audioRunLoop.ran,conditions1_1,conditions2_1,conditions1_2,conditions2_2,dur1_1,dur2_1,dur1_2,dur2_2,endPractice.rt,endPractice.duration,confirmResponse_2.rt,confirmResponse_2.duration,runIntervalBreak.started,runIntervalBreak.stopped,endingBreakKey.keys,endingBreakKey.rt,endingBreakKey.duration,connection.started,connection.stopped,connectionEnding.keys,connectionEnding.rt,connectionEnding.duration,readyForText.started,readyForText.stopped,textPre.started,run_dup,textPre.stopped,continuousResponses_text,textRunLoop.thisRepN,textRunLoop.thisTrialN,textRunLoop.thisN,textRunLoop.thisIndex,textRunLoop.ran,text1_1,text1_2,text2_1,text2_2,runBreakText.started,runBreakText.stopped,endingBreakKey_2.keys,endingBreakKey_2.rt,endingBreakKey_2.duration,ending.started,ending.stopped,endingEnding.keys,endingEnding.rt,endingEnding.duration
0.0002,12.7318,y,12.1798,,6774ba2b35bfe170ef2d7c87,2025-07-07_20h05.08.448,group3.4_multiperson,2023.2.2,Win32,6.666666667,686c2ebf0248f13bef9af11f,686c7b119c68b25cc72b788e,,,,,,,,,,,,,,,,,,,,,,,,,,,,,,,,,,,,,,,,,,,,,,,,,,,,,,,,,,,,,,,,,,,,,,,,,,,,,,,,,,,,,,,,,,,,,,,,,,,,,,,,
,,,,,6774ba2b35bfe170ef2d7c87,2025-07-07_20h05.08.448,group3.4_multiperson,2023.2.2,Win32,6.666666667,686c2ebf0248f13bef9af11f,686c7b119c68b25cc72b788e,12.7321,21.0329,space,8.1224,,,,,,,,,,,,,,,,,,,,,,,,,,,,,,,,,,,,,,,,,,,,,,,,,,,,,,,,,,,,,,,,,,,,,,,,,,,,,,,,,,,,,,,,,,,,,,,,,,,,
,,,,,6774ba2b35bfe170ef2d7c87,2025-07-07_20h05.08.448,group3.4_multiperson,2023.2.2,Win32,6.666666667,686c2ebf0248f13bef9af11f,686c7b119c68b25cc72b788e,,,,,,21.033,44.0706,space,22.5711,0.0003,,,,,,,,,,,,,,,,,,,,,,,,,,,,,,,,,,,,,,,,,,,,,,,,,,,,,,,,,,,,,,,,,,,,,,,,,,,,,,,,,,,,,,,,,,,,,,
,,,,,6774ba2b35bfe170ef2d7c87,2025-07-07_20h05.08.448,group3.4_multiperson,2023.2.2,Win32,6.666666667,686c2ebf0248f13bef9af11f,686c7b119c68b25cc72b788e,,,,,,,,,,,44.075,56.6678,space,12.4462,0.0002,[],[],[],[],[],[],0,0,0,0,1,,,,,,,,,,,,,,,,,,,,,,,,,,,,,,,,,,,,,,,,,,,,,,,,,,,,,,,,,,,,,,,,,,,,,,,,,,,,,,
,,,,,6774ba2b35bfe170ef2d7c87,2025-07-07_20h05.08.448,group3.4_multiperson,2023.2.2,Win32,6.666666667,686c2ebf0248f13bef9af11f,686c7b119c68b25cc72b788e,,,,,,,,,,,56.6683,81.1357,space,24.2517,0.0001,[],[],[],[],[],[],1,0,1,0,1,,,,,,,,,,,,,,,,,,,,,,,,,,,,,,,,,,,,,,,,,,,,,,,,,,,,,,,,,,,,,,,,,,,,,,,,,,,,,,
,,,,,6774ba2b35bfe170ef2d7c87,2025-07-07_20h05.08.448,group3.4_multiperson,2023.2.2,Win32,6.666666667,686c2ebf0248f13bef9af11f,686c7b119c68b25cc72b788e,,,,,,,,,,,81.136,86.5185,space,5.2036,,[],[],[],[],[],[],2,0,2,0,1,,,,,,,,,,,,,,,,,,,,,,,,,,,,,,,,,,,,,,,,,,,,,,,,,,,,,,,,,,,,,,,,,,,,,,,,,,,,,,
,,,,,6774ba2b35bfe170ef2d7c87,2025-07-07_20h05.08.448,group3.4_multiperson,2023.2.2,Win32,6.666666667,686c2ebf0248f13bef9af11f,686c7b119c68b25cc72b788e,,,,,,,,,,,86.5188,111.1832,space,24.5048,,[],[],[],[],[],[],3,0,3,0,1,,,,,,,,,,,,,,,,,,,,,,,,,,,,,,,,,,,,,,,,,,,,,,,,,,,,,,,,,,,,,,,,,,,,,,,,,,,,,,
,,,,,6774ba2b35bfe170ef2d7c87,2025-07-07_20h05.08.448,group3.4_multiperson,2023.2.2,Win32,6.666666667,686c2ebf0248f13bef9af11f,686c7b119c68b25cc72b788e,,,,,,,,,,,111.1836,127.7017,space,16.3578,0.0001,[],[],[],[],[],[],4,0,4,0,1,,,,,,,,,,,,,,,,,,,,,,,,,,,,,,,,,,,,,,,,,,,,,,,,,,,,,,,,,,,,,,,,,,,,,,,,,,,,,,
,,,,,6774ba2b35bfe170ef2d7c87,2025-07-07_20h05.08.448,group3.4_multiperson,2023.2.2,Win32,6.666666667,686c2ebf0248f13bef9af11f,686c7b119c68b25cc72b788e,,,,,,,,,,,127.7019,141.2623,space,13.4078,9.99999E-05,[],[],[],[],[],[],5,0,5,0,1,,,,,,,,,,,,,,,,,,,,,,,,,,,,,,,,,,,,,,,,,,,,,,,,,,,,,,,,,,,,,,,,,,,,,,,,,,,,,,
,,,,,6774ba2b35bfe170ef2d7c87,2025-07-07_20h05.08.448,group3.4_multiperson,2023.2.2,Win32,6.666666667,686c2ebf0248f13bef9af11f,686c7b119c68b25cc72b788e,,,,,,,,,,,,,,,,,,,,,,,,,,,141.2639,143.7391,143.7572,1,audio/Narrative13Situation2.wav,145.7876,,145.7877,175.8032,"[[999,0],[999,200],[999,329],[999,476],[999,627],[999,779],[999,951],[999,1099],[999,1248],[39.2,1399],[50.6,1870],[50.6,2023],[50.6,2171],[47.8,2325],[43.7,2481],[47.2,2633],[49,2791],[49,2942],[49,3093],[49,3245],[49,3395],[49,3546],[49,3698],[49,3851],[49,4000],[48.9,4151],[49,4303],[49,4458],[49,4606],[49,4759],[49,4909],[49,5059],[49,5208],[49,5358],[49,5507],[49.1,5659],[49.1,5809],[49.1,5958],[49.1,6109],[49.1,6260],[49.1,6410],[49.1,6558],[49.1,6706],[49.1,6858],[49.1,7010],[49.1,7164],[49.1,7316],[49.1,7469],[49.1,7620],[52.3,7773],[54.9,7926],[56.7,8082],[59,8236],[62.8,8389],[65,8540],[67.2,8691],[68.7,8846],[69,8998],[69,9147],[69,9301],[69.3,9455],[69.3,9615],[69.9,9772],[75.6,9931],[82.2,10088],[83.8,10246],[84,10404],[84.8,10561],[85.1,10720],[85.1,10888],[85.1,11051],[85.1,11203],[85.1,11353],[85.1,11500],[85.1,11651],[85.1,11802],[85.1,11952],[85.1,12102],[85.1,12251],[85.1,12405],[85.1,12566],[85.1,12714],[85.1,12864],[85.1,13014],[85.1,13162],[85.1,13310],[85.1,13459],[85.1,13613],[85.1,13763],[85.1,13915],[85.1,14068],[85.1,14223],[85.1,14371],[85.1,14522],[85.1,14671],[85.1,14822],[85.1,14970],[85.1,15119],[85.1,15270],[85.1,15418],[85.1,15565],[85.1,15712],[85.1,15864],[85.1,16013],[85.1,16163],[82.6,16315],[80.8,16465],[69.2,16617],[66.5,16768],[60.8,16920],[56.3,17074],[57.1,17231],[52.5,17380],[43.2,17540],[34,17696],[26.3,17850],[23,18006],[20.1,18158],[18.8,18315],[16.8,18466],[15.6,18622],[14.7,18777],[14.4,18928],[14.1,19083],[13.9,19253],[13.9,19417],[13.9,19570],[13.9,19728],[13.9,19879],[13.9,20029],[13.9,20178],[13.9,20328],[13.9,20478],[13.9,20629],[13.9,20781],[13.9,20930],[13.9,21080],[13.9,21230],[13.9,21379],[13.9,21526],[13.9,21680],[14,21833],[14,21984],[14,22136],[15.2,22292],[15.4,22448],[15.4,22600],[15.4,22750],[14.9,22902],[15.6,23054],[20.4,23207],[21.3,23357],[21.3,23508],[21.3,23658],[21.3,23809],[21.3,23957],[21.3,24107],[21.3,24258],[21.3,24407],[21.3,24558],[22.3,24713],[24.3,24865],[24.7,25015],[24.9,25167],[25.6,25318],[25.6,25466],[25.6,25617],[25.6,25774],[25.6,25925],[25.6,26078],[29.2,26230],[33.5,26381],[36.9,26544],[40.5,26697],[42.7,26851],[44.4,27002],[45,27157],[46.6,27309],[48.1,27464],[48.1,27616],[48.1,27766],[48.1,27916],[48.1,28068],[48.1,28216],[48.1,28366],[48.1,28514],[48.1,28668],[48.1,28817],[48.1,28965],[48.1,29115],[48.1,29265],[48.1,29414],[48.1,29566],[48.1,29716],[48.1,29867],[48.1,30015]]",175.8036,192.6902,54.58333333,14.7282,"[{""rating"":63.81944444444445,""responseTime"":6.643900000095357},{""rating"":49.44444444444444,""responseTime"":11.319600000143055},{""rating"":49.44444444444444,""responseTime"":11.629100000143069},{""rating"":27.430555555555557,""responseTime"":12.862700000047738},{""rating"":54.58333333333333,""responseTime"":14.728200000047735}]",space,15.971,,192.6908,Definitely yes,100,192.6958,,,[],,0,0,0,0,1,audio/Narrative13Situation2.wav,audio/Narrative13Situation2.wav,audio/Narrative13Situation2.wav,audio/Narrative13Situation2.wav,2,2,2,2,,,,,,,,,,,,,,,,,,,,,,,,,,,,,,,,,,,,,,,
,,,,,6774ba2b35bfe170ef2d7c87,2025-07-07_20h05.08.448,group3.4_multiperson,2023.2.2,Win32,6.666666667,686c2ebf0248f13bef9af11f,686c7b119c68b25cc72b788e,,,,,,,,,,,,,,,,,,,,,,,,,,,,,192.6961,1,audio/Narrative8Situation1.wav,195.128,space,195.128,211.3097,"[[999,0],[999,154],[999,311],[999,460],[999,606],[999,752],[52.5,903],[50.1,1506],[50.1,1656],[51.8,1809],[56.8,1959],[60.9,2111],[61.2,2260],[61,2410],[61,2561],[61.1,2711],[61.1,2864],[61.1,3012],[61.1,3161],[61.1,3311],[61.1,3464],[61.1,3610],[61.1,3758],[61.1,3914],[61.1,4060],[61.1,4209],[61.1,4355],[61.1,4506],[61.1,4655],[61.1,4807],[61.1,4956],[61.1,5104],[61.1,5251],[61.1,5398],[61.1,5548],[61.1,5698],[61.1,5843],[61.1,5988],[61.1,6136],[61.1,6284],[61.1,6432],[61.1,6579],[61.1,6727],[61.1,6878],[61.1,7026],[61.1,7173],[57.7,7324],[54.1,7476],[59.3,7625],[63.5,7774],[63.5,7925],[66.7,8073],[70.4,8227],[71.1,8377],[71.3,8526],[71.3,8673],[71.3,8825],[71.3,8971],[71.3,9119],[71.3,9267],[71.3,9416],[71.3,9566],[71.3,9716],[71.3,9863],[71.3,10011],[71.3,10157],[71.3,10307],[71.3,10456],[67.8,10606],[60.8,10757],[60.6,10913],[60.6,11069],[58,11214],[47,11367],[46.5,11519],[45.3,11668],[44.7,11818],[44,11968],[43.3,12116],[40.9,12266],[40.2,12419],[40.2,12567],[40.2,12716],[40.2,12866],[40.2,13016],[40.2,13163],[40.2,13313],[40.2,13461],[40.2,13610],[40.2,13758],[40.2,13906],[40.2,14053],[40.2,14202],[40.2,14350],[40.2,14496],[40.2,14644],[40.2,14797],[40.2,14961],[40.2,15115],[40.2,15272],[40.2,15426],[40.2,15578],[40.2,15727],[37.8,15880],[37.6,16032],[37.6,16181]]",211.3098,219.9532,49.72222222,4.483,"[{""rating"":49.72222222222222,""responseTime"":4.483000000000004}]",space,7.7336,,219.9533,Definitely yes,100,219.9548,,,[],,0,1,1,1,1,audio/Narrative7Situation1.wav,audio/Narrative8Situation1.wav,audio/Narrative5Situation1.wav,audio/Narrative6Situation1.wav,2,5,5,2,2.2845,,,,,,,,,,,,,,,,,,,,,,,,,,,,,,,,,,,,,,
,,,,,6774ba2b35bfe170ef2d7c87,2025-07-07_20h05.08.448,group3.4_multiperson,2023.2.2,Win32,6.666666667,686c2ebf0248f13bef9af11f,686c7b119c68b25cc72b788e,,,,,,,,,,,,,,,,,,,,,,,,,,,,,219.955,1,audio/Narrative8Situation2.wav,223.0042,,223.0042,233.5299,"[[70.1,887],[50.7,1037],[49,1188],[49,1339],[50.1,1495],[50.9,1644],[50.9,1792],[50.9,1940],[50.9,2089],[50.9,2236],[50.9,2386],[50.9,2534],[50.9,2680],[50.9,2838],[50.9,2984],[50.9,3133],[27.8,3282],[19.7,3434],[18.9,3589],[18.1,3742],[17.7,3893],[17.4,4043],[16.9,4192],[16.9,4340],[16.9,4489],[16.9,4637],[16.9,4784],[16.9,4931],[16.9,5080],[16.9,5226],[16.9,5371],[16.9,5521],[16.9,5666],[16.9,5814],[16.9,5973],[16.8,6131],[13.8,6291],[12.4,6458],[11.9,6624],[11.3,6783],[11,6943],[11,7093],[11,7241],[11,7389],[11,7537],[11,7685],[11,7835],[11,7989],[11,8135],[11,8282],[11,8433],[11,8588],[11,8736],[11,8884],[11,9032],[11,9189],[11,9335],[18.4,9486],[19,9636],[19,9782],[19,9930],[19,10077],[19,10225],[19,10373],[19,10525]]",233.5303,243.5476,3.888888889,8.2428,"[{""rating"":13.194444444444443,""responseTime"":4.956899999856944},{""rating"":3.888888888888886,""responseTime"":8.242799999952297}]",space,9.1237,,243.5476,Partially,50,243.5501,,,[],,0,2,2,2,1,audio/Narrative7Situation2.wav,audio/Narrative8Situation2.wav,audio/Narrative5Situation2.wav,audio/Narrative6Situation2.wav,3,3,3,3,,,,,,,,,,,,,,,,,,,,,,,,,,,,,,,,,,,,,,,
,,,,,6774ba2b35bfe170ef2d7c87,2025-07-07_20h05.08.448,group3.4_multiperson,2023.2.2,Win32,6.666666667,686c2ebf0248f13bef9af11f,686c7b119c68b25cc72b788e,,,,,,,,,,,,,,,,,,,,,,,,,,,,,243.5503,1,audio/Narrative8Situation3.wav,247.6231,,247.6231,270.4251,"[[999,0],[999,144],[999,288],[999,433],[999,579],[999,722],[999,870],[999,1023],[47.1,1175],[47.1,1324],[48.7,1473],[49.6,1622],[49.6,1775],[49.6,1932],[49.6,2079],[23,2232],[12.3,2385],[12.2,2537],[12.2,2686],[12.4,2836],[12.4,2983],[14.4,3135],[14.9,3292],[17.2,3452],[23.3,3610],[25.1,3759],[25.1,3910],[25.3,4074],[25.3,4242],[25.3,4406],[25.4,4568],[25.4,4731],[25.4,4891],[25.4,5053],[25.4,5215],[25.4,5387],[26,5560],[26.8,5728],[27.2,5897],[27.4,6067],[27.5,6237],[27.5,6389],[27.5,6540],[27.5,6711],[27.5,6887],[27.5,7046],[27.5,7200],[27.5,7355],[27.5,7502],[27.5,7650],[27.5,7804],[27.7,7954],[30.9,8105],[33.4,8260],[35.3,8412],[35.8,8563],[35.8,8708],[35.8,8857],[35.8,9008],[35.8,9158],[35.8,9311],[35.8,9463],[35.8,9622],[35.8,9771],[35.8,9920],[35.8,10079],[35.8,10224],[35.8,10371],[35.8,10520],[35.8,10673],[35.8,10823],[35.8,10974],[35.8,11125],[35.8,11275],[35.8,11422],[35.8,11573],[35.8,11720],[35.8,11872],[35.8,12020],[35.8,12170],[35.8,12318],[35.8,12470],[35.8,12622],[35.8,12771],[35.8,12921],[35.8,13069],[35.8,13219],[35.8,13368],[38.4,13518],[39.6,13667],[39.6,13814],[40.6,13963],[45.8,14111],[53.1,14263],[54.3,14418],[54.3,14570],[54.3,14719],[54.3,14872],[54.3,15020],[54.3,15170],[56,15316],[59.7,15466],[59.7,15616],[59.7,15769],[59.7,15920],[59.7,16072],[59.7,16221],[59.7,16372],[59.7,16520],[59.7,16670],[59.7,16818],[59.7,16966],[59.7,17114],[59.7,17262],[59.7,17410],[59.7,17559],[59.7,17704],[59.7,17856],[59.7,18004],[59.7,18151],[59.7,18298],[59.7,18449],[59.7,18596],[59.7,18748],[59.7,18896],[59.7,19049],[59.7,19195],[59.7,19344],[59.7,19492],[59.7,19640],[59.7,19790],[59.7,19936],[59.7,20086],[58.8,20235],[58,20384],[58,20541],[58,20688],[58,20836],[57.2,20986],[50.4,21139],[45.9,21291],[44.9,21449],[44.9,21603],[44.8,21755],[44.8,21903],[44.8,22057],[44.8,22209],[44.8,22357],[44.8,22503],[44.8,22652],[44.8,22801]]",270.4253,276.0973,65.69444444,4.4404,"[{""rating"":65.69444444444444,""responseTime"":4.440400000095394}]",space,4.776,,276.0974,Definitely yes,100,287.8175,99.375,10.039,"[{""rating"":99.375,""responseTime"":10.038999999999987}]",space,0,3,3,3,1,audio/Narrative7Situation3.wav,audio/Narrative8Situation3.wav,audio/Narrative5Situation3.wav,audio/Narrative6Situation3.wav,8,4,3,5,,,10.8247,,,,,,,,,,,,,,,,,,,,,,,,,,,,,,,,,,,,
,,,,,6774ba2b35bfe170ef2d7c87,2025-07-07_20h05.08.448,group3.4_multiperson,2023.2.2,Win32,6.666666667,686c2ebf0248f13bef9af11f,686c7b119c68b25cc72b788e,,,,,,,,,,,,,,,,,,,,,,,,,,,,,287.818,1,audio/Narrative8Situation4.wav,290.8673,,290.8673,305.3561,"[[999,0],[999,149],[999,295],[999,442],[999,591],[999,744],[55.8,894],[53.6,1044],[53.1,1197],[53.3,1346],[53.1,1499],[51.3,1649],[50.6,1800],[50.2,1949],[50.2,2099],[50.2,2246],[50.2,2393],[50.2,2544],[50.2,2694],[51.7,2844],[56.8,2992],[57.5,3142],[59.9,3290],[60.7,3441],[60.8,3588],[60.8,3740],[62.8,3889],[65.8,4040],[66.3,4193],[66.3,4342],[66.3,4488],[66.3,4634],[66.3,4787],[66.3,4934],[66.2,5083],[66.2,5231],[66.2,5381],[66.2,5531],[66.2,5680],[66,5836],[66,5985],[66,6135],[66,6282],[66,6434],[66.1,6583],[68.7,6734],[71.5,6887],[71.8,7037],[71.6,7187],[71.6,7336],[71.6,7488],[71.6,7635],[71.6,7783],[71.6,7930],[71.6,8077],[71.6,8224],[71.6,8371],[71.6,8528],[71.6,8676],[71.6,8824],[71.6,8973],[71.6,9120],[71.6,9267],[71.6,9413],[71.6,9559],[71.6,9707],[71.6,9854],[71.6,10001],[71.6,10147],[71.6,10295],[71.6,10445],[71.6,10594],[71.6,10741],[71.6,10891],[71.6,11040],[71.6,11185],[71.6,11336],[71.6,11485],[71.6,11634],[71.6,11780],[71.6,11928],[71.6,12083],[71.6,12246],[71.6,12407],[71.6,12560],[71.6,12709],[71.6,12858],[71.6,13007],[71.6,13158],[71.6,13309],[71.6,13455],[71.6,13604],[71.6,13751],[71.6,13901],[71.6,14048],[71.6,14195],[71.6,14341],[71.6,14488]]",305.3563,309.475,66.11111111,3.0472,"[{""rating"":66.11111111111111,""responseTime"":3.0472000000477237}]",space,3.2234,,309.475,Definitely yes,100,309.4767,,,[],,0,4,4,4,1,audio/Narrative7Situation4.wav,audio/Narrative8Situation4.wav,audio/Narrative5Situation4.wav,audio/Narrative6Situation4.wav,3,3,1,2,,,,,,,,,,,,,,,,,,,,,,,,,,,,,,,,,,,,,,,
,,,,,6774ba2b35bfe170ef2d7c87,2025-07-07_20h05.08.448,group3.4_multiperson,2023.2.2,Win32,6.666666667,686c2ebf0248f13bef9af11f,686c7b119c68b25cc72b788e,,,,,,,,,,,,,,,,,,,,,,,,,,,,,309.4769,1,audio/Narrative8Situation5.wav,311.5038,,311.5038,320.192,"[[66,2196],[64.9,2349],[64.9,2501],[63.9,2650],[62.7,2817],[62.7,2998],[62.7,3162],[62.7,3313],[62.7,3463],[62.7,3615],[62.7,3760],[62.7,3914],[64,4064],[64.2,4214],[64.2,4363],[64.3,4511],[64.3,4662],[64.3,4809],[64.3,4958],[64.3,5109],[64.3,5255],[64.3,5408],[64.3,5556],[64.3,5704],[64.3,5853],[64.3,6002],[64.3,6153],[64.3,6304],[64.3,6451],[64.3,6603],[64.3,6753],[64.3,6900],[64.3,7049],[64.3,7198],[64.3,7349],[64.3,7495],[64.3,7641],[64.3,7790],[64.3,7938],[64.3,8089],[64.3,8236],[64.3,8389],[64.3,8536],[64.3,8688]]",320.1922,324.1456,64.58333333,2.4284,"[{""rating"":64.58333333333334,""responseTime"":2.4283999998569357}]",space,3.0696,,324.1457,Definitely yes,100,324.1471,,,[],,0,5,5,5,1,audio/Narrative7Situation5.wav,audio/Narrative8Situation5.wav,audio/Narrative5Situation5.wav,audio/Narrative6Situation5.wav,5,2,5,2,,,,,,,,,,,,,,,,,,,,,,,,,,,,,,,,,,,,,,,
,,,,,6774ba2b35bfe170ef2d7c87,2025-07-07_20h05.08.448,group3.4_multiperson,2023.2.2,Win32,6.666666667,686c2ebf0248f13bef9af11f,686c7b119c68b25cc72b788e,,,,,,,,,,,,,,,,,,,,,,,,,,,,,324.1473,1,audio/Narrative8Situation6.wav,326.1807,,326.1807,333.0186,"[[64.3,1468],[61.3,1619],[61,1769],[60.2,1921],[60.1,2069],[60.1,2218],[60.1,2366],[62.2,2516],[63.9,2668],[64.2,2818],[64.4,2966],[65,3114],[65.1,3265],[65.1,3414],[65.1,3560],[65.1,3707],[65.1,3856],[65.1,4005],[65.1,4151],[65.1,4298],[65.1,4449],[65.1,4600],[65.1,4749],[65.1,4896],[65.1,5043],[65.1,5193],[65.1,5346],[65.1,5494],[65.1,5641],[65.1,5795],[65.1,5945],[65.1,6096],[65.1,6242],[65.1,6392],[65.1,6540],[65.1,6688],[65.1,6837]]",333.0188,337.4975,64.65277778,3.0887,"[{""rating"":64.65277777777779,""responseTime"":3.0887000000477087}]",space,3.565,,337.4977,Definitely yes,100,337.5005,,,[],,0,6,6,6,1,audio/Narrative7Situation6.wav,audio/Narrative8Situation6.wav,audio/Narrative5Situation6.wav,audio/Narrative6Situation6.wav,3,2,3,2,,,,,,,,,,,,,,,,,,,,,,,,,,,,,,,,,,,,,,,
,,,,,6774ba2b35bfe170ef2d7c87,2025-07-07_20h05.08.448,group3.4_multiperson,2023.2.2,Win32,6.666666667,686c2ebf0248f13bef9af11f,686c7b119c68b25cc72b788e,,,,,,,,,,,,,,,,,,,,,,,,,,,,,337.5008,1,audio/Narrative8Situation7.wav,340.5559,,340.5559,352.9977,"[[999,0],[999,145],[999,291],[999,440],[51.9,589],[53.1,740],[53.3,899],[53.3,1052],[54.9,1204],[55.8,1358],[56.3,1508],[56.8,1663],[57.1,1819],[57.1,1975],[57.1,2128],[57.1,2284],[57.1,2444],[50,2607],[47.8,2774],[47.8,2935],[47.8,3093],[47.8,3252],[48.5,3430],[49.2,3606],[49.2,3775],[49.7,3940],[49.9,4105],[49.9,4267],[49.9,4429],[53.2,4588],[73.6,5216],[66.6,5367],[43.9,5519],[43.3,5671],[43.3,5824],[42.7,5974],[42.2,6125],[39.8,6281],[37.3,6432],[37,6585],[37,6736],[37,6886],[37,7031],[37,7182],[37,7329],[37,7482],[37,7635],[37,7785],[37,7933],[37,8084],[37,8233],[37,8386],[37,8535],[37,8684],[37,8834],[37,8982],[37,9131],[39.6,9280],[44.3,9432],[49.8,9585],[51.1,9739],[52.5,9892],[52.8,10041],[52.8,10195],[52.8,10344],[52.8,10491],[52.8,10638],[54.6,10790],[54.7,10944],[54.7,11100],[54.7,11249],[54.7,11399],[54.7,11546],[54.7,11694],[54.7,11845],[54.7,11997],[54.7,12143],[54.7,12293],[54.7,12441]]",352.9978,358.3772,58.47222222,3.3848,"[{""rating"":58.47222222222223,""responseTime"":3.3847999999522926}]",space,4.483,,358.3773,Definitely yes,100,358.3787,,,[],,0,7,7,7,1,audio/Narrative7Situation7.wav,audio/Narrative8Situation7.wav,audio/Narrative5Situation7.wav,audio/Narrative6Situation7.wav,5,3,4,5,,,,,,,,,,,,,,,,,,,,,,,,,,,,,,,,,,,,,,,
,,,,,6774ba2b35bfe170ef2d7c87,2025-07-07_20h05.08.448,group3.4_multiperson,2023.2.2,Win32,6.666666667,686c2ebf0248f13bef9af11f,686c7b119c68b25cc72b788e,,,,,,,,,,,,,,,,,,,,,,,,,,,,,358.3789,1,audio/Narrative8Situation8.wav,361.4956,,361.4957,374.6648,"[[56.8,460],[56.6,620],[56.7,773],[57.1,927],[58.2,1079],[58.2,1226],[58.2,1378],[58.2,1532],[58.2,1687],[58.2,1840],[58.3,1990],[58.3,2137],[58.3,2287],[58.3,2435],[58.3,2588],[58.3,2735],[58.3,2888],[58.3,3037],[58.3,3184],[58.4,3337],[58.4,3486],[58.4,3632],[58.4,3785],[58.4,3937],[58.4,4092],[58.4,4244],[58.4,4392],[58.4,4544],[58.4,4692],[58.5,4841],[58.5,4992],[58.5,5143],[58.5,5291],[58.5,5441],[59,5592],[59,5745],[59.2,5895],[59.2,6045],[59.2,6192],[59.7,6343],[59.7,6489],[59.7,6638],[59.7,6784],[59.7,6933],[59.7,7082],[59.7,7232],[59.7,7385],[59.7,7536],[59.7,7683],[59.7,7834],[59.7,7983],[59.7,8135],[59.7,8285],[59.7,8434],[59.7,8583],[59.7,8735],[59.7,8895],[59.7,9064],[59.7,9213],[60.3,9367],[62.7,9519],[69,9673],[70.8,9826],[71,9975],[71,10126],[71,10276],[71,10424],[71,10571],[71,10722],[71,10873],[71,11021],[71,11167],[71,11315],[71,11465],[71,11611],[71,11765],[71,11917],[71,12064],[71,12215],[71,12368],[71,12522],[71,12675],[71,12850],[71,13017],[71,13168]]",374.6649,378.0415,76.04166667,1.8432,"[{""rating"":76.04166666666667,""responseTime"":1.8432000000476592}]",space,2.4844,,378.0416,Not at all,0,378.0445,,,[],,0,8,8,8,1,audio/Narrative7Situation8.wav,audio/Narrative8Situation8.wav,audio/Narrative5Situation8.wav,audio/Narrative6Situation8.wav,2,3,3,5,,,,,,,,,,,,,,,,,,,,,,,,,,,,,,,,,,,,,,,
,,,,,6774ba2b35bfe170ef2d7c87,2025-07-07_20h05.08.448,group3.4_multiperson,2023.2.2,Win32,6.666666667,686c2ebf0248f13bef9af11f,686c7b119c68b25cc72b788e,,,,,,,,,,,,,,,,,,,,,,,,,,,,,378.0447,1,audio/Narrative8Situation9.wav,381.0969,,381.097,392.7725,"[[75.6,1497],[74.7,1646],[72.6,1798],[72.3,1948],[72.2,2096],[72.2,2246],[72.2,2398],[72.2,2545],[72.2,2697],[72.2,2845],[72.2,2994],[72.2,3141],[72.2,3290],[75.6,3443],[77.2,3595],[77.8,3745],[78.5,3897],[79,4044],[79,4194],[79,4340],[79,4495],[79,4650],[79,4802],[79,4949],[79,5097],[79,5249],[79,5404],[79,5554],[79,5701],[79,5849],[79,5999],[79.2,6148],[79.3,6298],[79.3,6444],[79.3,6591],[79.3,6741],[79.3,6890],[79.3,7037],[79.3,7184],[79.3,7335],[79.3,7484],[79.3,7632],[79.3,7791],[79.3,7938],[79.3,8089],[79.3,8240],[79.3,8387],[79.3,8536],[79.3,8686],[79.3,8835],[79.3,8984],[79.3,9132],[79.3,9281],[79.3,9429],[79.3,9580],[79.3,9729],[79.3,9876],[79.3,10029],[79.3,10178],[79.3,10324],[79.3,10471],[79.3,10620],[79.3,10769],[79.3,10921],[79.3,11075],[79.3,11226],[79.3,11380],[79.3,11529],[79.3,11675]]",392.7726,397.5324,87.08333333,3.3817,"[{""rating"":87.08333333333333,""responseTime"":3.381699999809257}]",space,3.8603,,397.5325,Definitely yes,100,397.5349,,,[],,0,9,9,9,1,audio/Narrative7Situation9.wav,audio/Narrative8Situation9.wav,audio/Narrative5Situation9.wav,audio/Narrative6Situation9.wav,2,3,3,4,,,,,,,,,,,,,,,,,,,,,,,,,,,,,,,,,,,,,,,
,,,,,6774ba2b35bfe170ef2d7c87,2025-07-07_20h05.08.448,group3.4_multiperson,2023.2.2,Win32,6.666666667,686c2ebf0248f13bef9af11f,686c7b119c68b25cc72b788e,,,,,,,,,,,,,,,,,,,,,,,,,,,,,397.5351,1,audio/Narrative7Situation1.wav,399.574,,399.574,455.8652,"[[999,0],[999,146],[999,291],[999,437],[999,584],[999,733],[999,879],[999,1024],[58,1173],[57.8,1327],[58.1,1477],[57.4,1627],[57.3,1780],[57.3,1928],[57.3,2079],[54.6,2230],[52.1,2380],[51.2,2529],[51.8,2679],[51.9,2827],[51.9,2977],[52.1,3126],[53.2,3276],[53.8,3427],[53.8,3573],[53.8,3721],[53.8,3870],[53.8,4019],[53.8,4171],[53.8,4320],[53.8,4468],[53.8,4619],[59.7,4772],[61,4928],[61.8,5081],[61.8,5239],[61.8,5397],[61.8,5556],[61.8,5714],[61.8,5865],[61.8,6014],[61.8,6161],[61.8,6311],[61.8,6458],[61.8,6604],[61.8,6753],[61.8,6902],[61.8,7053],[61.8,7210],[61.8,7377],[61.8,7529],[61.8,7677],[61.8,7827],[61.8,7973],[61.8,8125],[61.8,8276],[64.5,8428],[66.5,8579],[68.2,8730],[69.2,8882],[69.4,9031],[69.4,9178],[69.4,9327],[69.4,9491],[69.4,9659],[69.4,9811],[69.4,9963],[69.4,10124],[69.4,10286],[69.4,10439],[69.4,10588],[69.4,10736],[69.4,10884],[69.4,11035],[69.4,11182],[69.4,11330],[69.4,11479],[69.4,11628],[69.4,11776],[69.4,11925],[69.4,12077],[69.4,12226],[69.4,12375],[69.4,12524],[69.4,12672],[69.4,12822],[69.4,12972],[69.4,13121],[69.4,13271],[69.4,13416],[69.4,13565],[69.4,13713],[69.4,13861],[69.4,14009],[69.4,14159],[69.4,14316],[69.4,14463],[69.4,14614],[69.4,14763],[69.4,14910],[69.6,15060],[70.8,15213],[71.7,15366],[71.9,15518],[71.9,15665],[71.9,15817],[71.9,15965],[71.9,16117],[72,16267],[72.1,16416],[72.1,16564],[72.1,16714],[72.1,16863],[72.1,17011],[72.1,17161],[72.1,17314],[72.1,17462],[72.1,17608],[72.1,17757],[72.1,17906],[72.1,18056],[72.1,18204],[72.1,18352],[72.1,18502],[72.1,18655],[72.1,18806],[72.1,18954],[72.1,19104],[72.1,19250],[72.1,19399],[72.1,19547],[72.1,19697],[72.1,19848],[72.1,20007],[72.1,20165],[72.1,20313],[72.1,20461],[72.1,20608],[72.1,20758],[72.1,20905],[72.1,21052],[72.1,21202],[72.1,21350],[72.1,21497],[72.1,21644],[72.1,21798],[72.1,21960],[62.1,22115],[45.2,22268],[44.9,22417],[44.9,22567],[44.9,22717],[42,22871],[40.9,23024],[41.3,23173],[43.5,23326],[44.7,23480],[45,23629],[45,23779],[45,23932],[45,24079],[45,24227],[44.7,24376],[44.7,24526],[44.7,24677],[44.7,24825],[44.7,24973],[44.7,25119],[44.7,25266],[44.7,25415],[44.7,25560],[44.7,25711],[44.7,25856],[44.7,26010],[44.7,26160],[44.7,26308],[44.7,26455],[44.7,26602],[44.7,26751],[44.7,26901],[44.7,27046],[44.7,27192],[44.7,27341],[44.7,27488],[44.7,27640],[44.7,27789],[44.7,27935],[44.7,28086],[44.7,28233],[44.7,28383],[44.7,28530],[44.7,28675],[44.7,28823],[44.7,28967],[44.7,29116],[44.7,29261],[44.6,29409],[44.6,29559],[44.6,29708],[44.6,29859],[44.6,30005],[44.6,30152],[44.6,30301],[44.6,30449],[44.6,30597],[44.6,30748],[44.6,30896],[44.6,31043],[44.6,31192],[44.6,31340],[44.6,31488],[44.6,31635],[44.6,31784],[44.6,31932],[44.6,32078],[44.6,32225],[44.6,32376],[44.6,32520],[44.6,32666],[44.6,32817],[44.6,32964],[44.6,33113],[44.6,33263],[39.4,33412],[36.3,33565],[36.3,33717],[36.6,33871],[36.8,34021],[36.8,34169],[36.8,34316],[36.8,34464],[36.8,34613],[36.9,34782],[36.9,34982],[36.9,35141],[36.9,35290],[36.9,35441],[36.9,35586],[36.9,35736],[36.9,35893],[36.9,36045],[36.9,36197],[36.9,36344],[36.9,36495],[36.9,36644],[36.9,36793],[36.9,36940],[37.1,37089],[37.1,37237],[37.1,37387],[37.1,37538],[37.1,37689],[37.1,37839],[37.1,37990],[37.1,38140],[37.1,38290],[37.1,38441],[37.1,38594],[37.1,38745],[37.1,38895],[37.1,39044],[37.1,39195],[37.1,39344],[37.1,39494],[37.1,39647],[37.1,39803],[37.1,39950],[37.1,40099],[37.1,40249],[37.1,40401],[37.1,40549],[37.1,40696],[37.1,40845],[37.1,40992],[37.1,41141],[37.1,41292],[37.1,41440],[37.1,41592],[37.1,41749],[37.1,41897],[37.1,42046],[37.1,42194],[37.1,42344],[37.1,42492],[37,42642],[33.7,42792],[33.1,42943],[33.1,43092],[33.1,43241],[33.1,43389],[33.1,43536],[33.1,43685],[33.2,43836],[33.3,43987],[33.5,44136],[33.5,44284],[33.5,44436],[33.5,44584],[33.5,44733],[33.5,44883],[33.5,45031],[33.8,45181],[33.8,45330],[33.8,45480],[33.8,45632],[33.8,45781],[33.8,45933],[33.8,46082],[33.8,46233],[33.8,46380],[33.8,46526],[33.9,46681],[33.9,46827],[33.9,46976],[33.9,47125],[33.9,47276],[33.9,47424],[33.9,47575],[33.9,47723],[33.9,47876],[33.9,48026],[33.9,48173],[33.9,48326],[33.9,48480],[33.9,48637],[33.9,48789],[33.9,48941],[33.9,49094],[33.9,49244],[33.9,49392],[33.9,49540],[33.9,49690],[33.9,49839],[33.9,49991],[33.9,50142],[33.9,50293],[33.9,50441],[33.9,50589],[33.9,50739],[33.9,50890],[33.9,51039],[33.9,51191],[33.9,51341],[33.9,51491],[33.9,51638],[33.9,51789],[33.9,51938],[33.9,52088],[33.9,52239],[33.9,52388],[34,52538],[34,52689],[34,52843],[34,52991],[34,53141],[34,53292],[34,53444],[34,53594],[34,53749],[34.4,53897],[42.3,54050],[54,54202],[62.3,54356],[63.9,54509],[63.9,54660],[63.9,54810],[63.9,54958],[63.9,55108],[63.9,55260],[63.9,55407],[63.9,55554],[63.9,55702],[63.9,55850],[63.9,55995],[63.9,56143],[63.9,56290]]",455.8653,458.6299,59.23611111,1.6944,"[{""rating"":59.236111111111114,""responseTime"":1.6944000000953565}]",space,1.8637,,458.6299,Not at all,0,458.6321,,,[],,0,10,10,10,1,audio/Narrative8Situation1.wav,audio/Narrative7Situation1.wav,audio/Narrative6Situation1.wav,audio/Narrative5Situation1.wav,5,2,2,5,,,,,,,,,,,,,,,,,,,,,,,,,,,,,,,,,,,,,,,
,,,,,6774ba2b35bfe170ef2d7c87,2025-07-07_20h05.08.448,group3.4_multiperson,2023.2.2,Win32,6.666666667,686c2ebf0248f13bef9af11f,686c7b119c68b25cc72b788e,,,,,,,,,,,,,,,,,,,,,,,,,,,,,458.6323,1,audio/Narrative7Situation2.wav,461.7151,,461.7151,469.4168,"[[999,0],[999,151],[999,304],[999,453],[999,602],[999,756],[999,907],[56.3,1058],[57,1208],[58.8,1363],[58.8,1516],[58.8,1671],[58.8,1820],[58.8,1969],[58.8,2119],[58.8,2267],[60,2420],[60.3,2576],[60.3,2727],[60.3,2885],[60.3,3044],[60.3,3206],[60.3,3361],[60.3,3512],[60.3,3661],[60.3,3819],[60.3,3969],[60.3,4127],[60.3,4274],[60.3,4428],[60.3,4577],[60.3,4725],[60.3,4871],[60.3,5019],[60.3,5165],[60.3,5313],[60.3,5461],[60.3,5610],[60.3,5759],[60.3,5907],[60.3,6055],[60.3,6204],[60.3,6356],[60.3,6507],[60.3,6655],[60.3,6802],[60.3,6951],[60.3,7101],[60.3,7251],[60.3,7400],[60.3,7551],[60.3,7701]]",469.4169,474.3969,57.56944444,2.6341,"[{""rating"":57.56944444444444,""responseTime"":2.6341000001430075}]",space,4.0778,,474.3969,Partially,50,474.3991,,,[],,0,11,11,11,1,audio/Narrative8Situation2.wav,audio/Narrative7Situation2.wav,audio/Narrative6Situation2.wav,audio/Narrative5Situation2.wav,3,3,3,3,,,,,,,,,,,,,,,,,,,,,,,,,,,,,,,,,,,,,,,
,,,,,6774ba2b35bfe170ef2d7c87,2025-07-07_20h05.08.448,group3.4_multiperson,2023.2.2,Win32,6.666666667,686c2ebf0248f13bef9af11f,686c7b119c68b25cc72b788e,,,,,,,,,,,,,,,,,,,,,,,,,,,,,474.3992,1,audio/Narrative7Situation3.wav,482.4173,,482.4173,492.0998,"[[58.1,5190],[58.3,5338],[58.8,5492],[59.2,5643],[59.4,5794],[59.4,5944],[59.4,6094],[59.4,6242],[59.4,6393],[59.4,6543],[59.4,6692],[59.4,6843],[59.4,6995],[59.4,7145],[59.4,7294],[59.4,7442],[59.5,7589],[59.5,7738],[59.5,7892],[59.5,8041],[59.5,8189],[59.5,8336],[59.5,8484],[59.5,8631],[59.5,8779],[59.5,8929],[59.5,9085],[59.5,9235],[59.5,9383],[59.5,9532],[59.5,9682]]",492.1,503.7911,60.41666667,9.8282,"[{""rating"":60.416666666666664,""responseTime"":9.828200000047673}]",space,10.794,,503.7913,Not at all,0,503.7947,,,[],,0,12,12,12,1,audio/Narrative8Situation3.wav,audio/Narrative7Situation3.wav,audio/Narrative6Situation3.wav,audio/Narrative5Situation3.wav,4,8,5,3,,,,,,,,,,,,,,,,,,,,,,,,,,,,,,,,,,,,,,,
,,,,,6774ba2b35bfe170ef2d7c87,2025-07-07_20h05.08.448,group3.4_multiperson,2023.2.2,Win32,6.666666667,686c2ebf0248f13bef9af11f,686c7b119c68b25cc72b788e,,,,,,,,,,,,,,,,,,,,,,,,,,,,,503.795,1,audio/Narrative7Situation4.wav,506.8502,,506.8503,518.944,"[[60,1764],[60.3,1911],[60.4,2061],[60.4,2208],[60.4,2355],[60.4,2506],[60.4,2653],[60.4,2806],[60.4,2954],[60.4,3101],[60.4,3249],[60.4,3398],[60.7,3547],[62.1,3697],[62.4,3845],[62.4,3997],[62.4,4146],[62.4,4300],[62.4,4452],[62.4,4602],[62.4,4752],[62.4,4899],[62.4,5047],[62.4,5195],[62.4,5343],[62.4,5494],[62.4,5647],[40.6,5800],[29,5952],[29,6101],[29,6247],[28.1,6400],[22.8,6555],[22.6,6706],[22.6,6853],[22.6,7003],[19.8,7150],[7.4,7302],[5.3,7453],[5.3,7603],[5.7,7752],[5.8,7899],[5.8,8051],[5.8,8199],[5.8,8347],[5.8,8498],[5.8,8646],[5.8,8793],[5.8,8942],[5.8,9093],[5.8,9243],[5.8,9396],[5.8,9552],[5.8,9704],[5.8,9852],[5.8,9999],[5.8,10149],[5.8,10296],[5.8,10448],[5.8,10595],[5.8,10750],[5.8,10899],[5.8,11046],[5.8,11202],[5.8,11350],[5.8,11498],[5.8,11645],[5.8,11794],[5.8,11944],[5.8,12093]]",518.9441,522.1638,6.875,1.6729,"[{""rating"":6.874999999999998,""responseTime"":1.6728999998568952}]",space,2.3191,,522.1638,Not at all,0,522.1651,,,[],,0,13,13,13,1,audio/Narrative8Situation4.wav,audio/Narrative7Situation4.wav,audio/Narrative6Situation4.wav,audio/Narrative5Situation4.wav,3,3,2,1,,,,,,,,,,,,,,,,,,,,,,,,,,,,,,,,,,,,,,,
,,,,,6774ba2b35bfe170ef2d7c87,2025-07-07_20h05.08.448,group3.4_multiperson,2023.2.2,Win32,6.666666667,686c2ebf0248f13bef9af11f,686c7b119c68b25cc72b788e,,,,,,,,,,,,,,,,,,,,,,,,,,,,,522.1654,1,audio/Narrative7Situation5.wav,527.2526,,527.2527,536.1639,"[[999,0],[999,152],[999,297],[999,446],[999,593],[999,739],[999,890],[999,1039],[999,1193],[999,1346],[31.9,1493],[31.9,1641],[20.3,1791],[14.2,1944],[10.8,2094],[7.3,2246],[7,2395],[7,2555],[7,2703],[8.1,2852],[10.5,3002],[14.2,3152],[16.7,3302],[17.5,3451],[17.6,3601],[17.6,3748],[17.6,3900],[17.8,4054],[17.9,4207],[18.1,4365],[18.1,4513],[18.1,4661],[18.8,4808],[21.8,4958],[24.7,5111],[24.7,5263],[24.7,5408],[25.3,5557],[28.6,5724],[30.6,5898],[33.2,6064],[34.7,6226],[34.9,6387],[34.9,6535],[34.9,6682],[34.9,6829],[37.7,6976],[40.1,7128],[40.7,7281],[40.7,7429],[40.7,7580],[40.7,7729],[40.7,7877],[40.7,8024],[40.7,8172],[40.7,8320],[40.7,8467],[40.7,8614],[40.7,8765],[40.7,8911]]",536.164,539.0609,40.27777778,2.1312,"[{""rating"":40.27777777777778,""responseTime"":2.13120000004767}]",space,2.0069,,539.061,Definitely yes,100,539.0641,,,[],,0,14,14,14,1,audio/Narrative8Situation5.wav,audio/Narrative7Situation5.wav,audio/Narrative6Situation5.wav,audio/Narrative5Situation5.wav,2,5,2,5,,,,,,,,,,,,,,,,,,,,,,,,,,,,,,,,,,,,,,,
,,,,,6774ba2b35bfe170ef2d7c87,2025-07-07_20h05.08.448,group3.4_multiperson,2023.2.2,Win32,6.666666667,686c2ebf0248f13bef9af11f,686c7b119c68b25cc72b788e,,,,,,,,,,,,,,,,,,,,,,,,,,,,,539.0644,1,audio/Narrative7Situation6.wav,542.1227,,542.1228,552.5123,"[[40.1,1638],[39.9,1788],[38.8,1939],[38.7,2088],[38.7,2234],[38.7,2379],[38.7,2528],[38.7,2677],[38.7,2827],[38.7,2973],[38.7,3119],[38.7,3271],[38.7,3418],[38.7,3567],[38.7,3713],[38.7,3859],[38.7,4003],[38.7,4149],[38.7,4297],[38.7,4446],[38.7,4591],[38.7,4738],[38.7,4886],[38.7,5034],[38.7,5181],[38.7,5330],[38.7,5476],[38.7,5621],[38.7,5775],[38.7,5932],[38.7,6080],[38.7,6233],[38.7,6384],[38.7,6530],[44.6,6683],[46.5,6837],[50,6989],[50.4,7141],[51.1,7290],[51.7,7438],[51.8,7587],[51.9,7737],[51.9,7886],[51.9,8037],[51.9,8185],[51.9,8332],[51.9,8478],[51.9,8624],[51.9,8773],[51.9,8919],[51.9,9066],[51.9,9213],[51.9,9361],[51.9,9507],[51.9,9653],[51.9,9797],[51.9,9949],[51.9,10097],[51.9,10244],[51.9,10389]]",552.5124,555.9269,52.22222222,2.0302,"[{""rating"":52.22222222222223,""responseTime"":2.030200000047671}]",space,2.5125,,555.927,Partially,50,555.9292,,,[],,0,15,15,15,1,audio/Narrative8Situation6.wav,audio/Narrative7Situation6.wav,audio/Narrative6Situation6.wav,audio/Narrative5Situation6.wav,2,3,2,3,,,,,,,,,,,,,,,,,,,,,,,,,,,,,,,,,,,,,,,
,,,,,6774ba2b35bfe170ef2d7c87,2025-07-07_20h05.08.448,group3.4_multiperson,2023.2.2,Win32,6.666666667,686c2ebf0248f13bef9af11f,686c7b119c68b25cc72b788e,,,,,,,,,,,,,,,,,,,,,,,,,,,,,555.9295,1,audio/Narrative7Situation7.wav,561.0477,,561.0478,578.6328,"[[999,0],[999,148],[999,296],[999,443],[999,594],[999,741],[999,887],[999,1035],[46.9,1189],[49.4,1340],[50.8,1492],[51.2,1643],[51.2,1794],[51.4,1944],[52.1,2093],[52.5,2244],[52.5,2393],[52.5,2541],[52.5,2688],[52.5,2837],[52.5,2985],[52.5,3136],[52.5,3285],[52.5,3432],[52.5,3581],[52.5,3732],[52.5,3881],[52.5,4028],[52.5,4180],[52.5,4328],[52.5,4476],[52.5,4628],[52.5,4778],[52.5,4927],[52.5,5075],[52.5,5222],[52.5,5372],[53.2,5523],[53.5,5680],[53.8,5824],[53.8,5976],[53.9,6126],[53.9,6279],[53.9,6426],[53.9,6574],[53.9,6722],[53.9,6871],[53.9,7019],[53.9,7167],[53.9,7319],[53.9,7468],[53.9,7618],[53.9,7765],[53.9,7912],[53.9,8060],[53.9,8210],[53.9,8357],[53.9,8509],[53.9,8657],[53.9,8807],[54,8954],[54,9106],[54,9253],[54,9401],[54,9550],[54,9702],[54,9849],[54,10000],[54,10151],[54,10307],[54,10455],[54,10605],[54,10749],[54,10897],[54,11045],[54,11194],[54,11339],[54,11491],[54,11640],[54,11790],[55.8,11942],[58,12094],[60.2,12247],[61.1,12398],[61.1,12546],[61.1,12695],[61.1,12842],[61.1,12989],[61.1,13135],[61.1,13284],[61.1,13434],[61.1,13580],[61.1,13728],[61.1,13876],[61.1,14024],[61.1,14179],[61.1,14329],[61.1,14477],[61.1,14624],[61.1,14772],[61.1,14919],[61.1,15063],[61.1,15210],[61.1,15358],[61.1,15505],[61.1,15657],[61.1,15804],[61.1,15953],[61.1,16104],[61.1,16253],[61.1,16399],[61.1,16545],[61.1,16693],[61.1,16842],[61.1,16995],[61.1,17142],[61.1,17289],[61.1,17436],[61.1,17584]]",578.6329,581.5647,64.23611111,1.5488,"[{""rating"":64.23611111111111,""responseTime"":1.5487999999523936}]",space,2.0243,,581.5649,Definitely yes,100,581.567,,,[],,0,16,16,16,1,audio/Narrative8Situation7.wav,audio/Narrative7Situation7.wav,audio/Narrative6Situation7.wav,audio/Narrative5Situation7.wav,3,5,5,4,,,,,,,,,,,,,,,,,,,,,,,,,,,,,,,,,,,,,,,
,,,,,6774ba2b35bfe170ef2d7c87,2025-07-07_20h05.08.448,group3.4_multiperson,2023.2.2,Win32,6.666666667,686c2ebf0248f13bef9af11f,686c7b119c68b25cc72b788e,,,,,,,,,,,,,,,,,,,,,,,,,,,,,581.5673,1,audio/Narrative7Situation8.wav,583.6138,,583.6138,594.0936,"[[999,0],[999,146],[999,293],[999,438],[999,584],[999,730],[999,878],[999,1031],[999,1181],[63.6,1333],[63.8,1482],[63.8,1631],[64.6,1782],[64.5,1931],[64.4,2082],[64.4,2231],[64.4,2380],[64.4,2529],[64.4,2677],[64.4,2826],[64.4,2975],[64.4,3122],[64.4,3269],[64.4,3416],[64.4,3563],[64.4,3714],[64.4,3862],[64.4,4013],[64.4,4161],[64.4,4311],[64.4,4460],[64.4,4610],[64.4,4757],[64.4,4904],[64.4,5051],[64.4,5199],[64.4,5346],[64.4,5496],[64.4,5645],[64.4,5793],[64.4,5941],[64.4,6096],[64.4,6244],[64.4,6394],[64.4,6541],[64.4,6689],[64.4,6836],[64.3,6982],[64.3,7131],[64.4,7278],[64.4,7428],[64.4,7577],[64.4,7726],[64.4,7879],[64.4,8032],[64.4,8184],[64.4,8333],[64.4,8481],[64.4,8630],[64.4,8782],[64.4,8930],[64.8,9079],[64.8,9228],[64.8,9380],[64.8,9534],[64.8,9694],[64.9,9850],[64.9,10008],[64.9,10165],[64.9,10323],[64.9,10479]]",594.0936,597.4671,64.30555556,2.0028,"[{""rating"":64.30555555555554,""responseTime"":2.0027999999523445}]",space,2.4669,,597.4671,Not at all,0,597.4692,,,[],,0,17,17,17,1,audio/Narrative8Situation8.wav,audio/Narrative7Situation8.wav,audio/Narrative6Situation8.wav,audio/Narrative5Situation8.wav,3,2,5,3,,,,,,,,,,,,,,,,,,,,,,,,,,,,,,,,,,,,,,,
,,,,,6774ba2b35bfe170ef2d7c87,2025-07-07_20h05.08.448,group3.4_multiperson,2023.2.2,Win32,6.666666667,686c2ebf0248f13bef9af11f,686c7b119c68b25cc72b788e,,,,,,,,,,,,,,,,,,,,,,,,,,,,,597.4694,1,audio/Narrative7Situation9.wav,599.502,,599.502,608.4636,"[[64.4,1476],[64.6,1625],[65.6,1777],[66.4,1927],[66.9,2079],[68.9,2229],[70.3,2379],[71.1,2528],[71.1,2679],[71.1,2828],[71.1,2978],[71.1,3124],[71.1,3274],[71.1,3425],[71.1,3578],[71.1,3727],[71.1,3875],[71.1,4024],[71.1,4174],[71.1,4320],[71.1,4476],[71.1,4620],[71.1,4768],[71.1,4917],[71.1,5066],[71.1,5211],[71.1,5362],[71.1,5509],[71.1,5661],[71.1,5811],[71.1,5958],[71.1,6106],[71.1,6254],[71.1,6404],[71.1,6553],[71.1,6701],[71.1,6851],[71.1,7001],[71.1,7153],[71.1,7303],[71.1,7453],[71.1,7605],[71.1,7755],[71.1,7904],[71.1,8051],[71.1,8202],[71.1,8353],[71.1,8512],[71.1,8659],[71.1,8813],[71.1,8961]]",608.4636,611.8395,70.83333333,2.756,"[{""rating"":70.83333333333334,""responseTime"":2.755999999999972}]",space,2.4803,,611.8396,Not at all,0,611.8408,,,[],,0,18,18,18,1,audio/Narrative8Situation9.wav,audio/Narrative7Situation9.wav,audio/Narrative6Situation9.wav,audio/Narrative5Situation9.wav,3,2,4,3,,,,,,,,,,,,,,,,,,,,,,,,,,,,,,,,,,,,,,,
,,,,,6774ba2b35bfe170ef2d7c87,2025-07-07_20h05.08.448,group3.4_multiperson,2023.2.2,Win32,6.666666667,686c2ebf0248f13bef9af11f,686c7b119c68b25cc72b788e,,,,,,,,,,,,,,,,,,,,,,,,,,,617.7742,620.2665,620.2736,2,audio/Narrative13Situation2.wav,620.2738,,620.2738,650.4574,"[[59.7,1636],[51.9,1785],[52.6,1934],[53.2,2084],[53.3,2232],[54,2383],[54.7,2533],[56.5,2686],[56.7,2835],[56.7,2983],[56.7,3136],[56.7,3289],[56.7,3442],[56.7,3590],[56.7,3738],[56.7,3887],[56.7,4034],[56.7,4182],[56.7,4332],[56.7,4484],[56.7,4632],[56.7,4779],[56.7,4927],[56.7,5078],[56.7,5226],[56.7,5375],[56.7,5523],[56.7,5674],[56.7,5820],[56.7,5969],[56.7,6119],[56.7,6270],[56.7,6421],[56.7,6570],[68,6718],[68.2,6868],[68.2,7019],[68.5,7167],[68.5,7314],[68.5,7462],[68.5,7610],[68.5,7758],[68.5,7908],[68.5,8056],[68.5,8206],[68.5,8356],[68.5,8504],[68.5,8653],[68.5,8800],[68.5,8948],[68.5,9097],[68.5,9244],[68.5,9390],[68.5,9542],[68.5,9690],[68.5,9840],[68.5,9990],[68.5,10143],[68.5,10290],[68.5,10439],[68.5,10587],[68.5,10733],[68.3,10882],[68.3,11030],[68.3,11179],[68.3,11327],[68.3,11477],[68.3,11626],[68.3,11775],[68.3,11922],[68.3,12075],[68.3,12222],[68.3,12368],[68.3,12524],[68.3,12673],[65.6,12828],[62.9,12978],[58.4,13130],[54.9,13286],[53.4,13437],[50.8,13586],[47.1,13739],[45.6,13891],[45.6,14038],[45.6,14186],[45.6,14335],[37,14488],[34.5,14642],[31.9,14792],[27.5,14954],[26,15110],[26,15260],[26,15407],[26,15555],[25.5,15704],[25.2,15854],[25.2,16009],[21.7,16161],[19.7,16310],[19.7,16463],[19.7,16612],[19.7,16758],[19.7,16906],[19.7,17056],[19.7,17204],[19.7,17352],[19.7,17498],[19.7,17644],[21.9,17792],[23.5,17947],[23.5,18093],[23.5,18242],[23.5,18394],[23.4,18542],[23.4,18701],[22.7,18863],[20.8,19022],[20.8,19171],[20.8,19319],[20.8,19474],[20.8,19620],[20.1,19771],[14.8,19922],[13.8,20076],[13.1,20226],[12.6,20377],[12.2,20524],[12.2,20675],[12.2,20822],[12.2,20969],[12.2,21116],[11.5,21266],[10.9,21421],[10.8,21570],[10.8,21718],[10.8,21866],[10.8,22018],[10.8,22167],[10.8,22316],[10.8,22463],[10.8,22612],[10.8,22762],[10.8,22909],[10.8,23061],[10.8,23214],[10.8,23371],[10.8,23525],[10.8,23690],[10.8,23853],[10.8,24014],[10.8,24173],[10.8,24334],[10.8,24494],[10.8,24641],[10.8,24792],[10.8,24940],[10.8,25091],[10.8,25242],[10.8,25392],[10.8,25538],[10.8,25687],[10.8,25838],[10.8,25990],[10.8,26142],[10.8,26291],[10.8,26440],[10.8,26588],[10.8,26735],[10.8,26881],[10.8,27030],[10.8,27179],[10.8,27328],[10.8,27478],[10.8,27627],[10.8,27776],[10.2,27926],[11.5,28074],[26.9,28225],[33.6,28377],[33.9,28527],[39.2,28678],[45.1,28832],[47.4,28981],[48.3,29135],[49.3,29286],[49.7,29438],[49.7,29588],[49.7,29737],[49.7,29883],[49.7,30033],[49.7,30183]]",650.4576,650.4592,,,[],,,,650.4593,Definitely yes,100,650.4611,,,[],,0,0,0,0,1,audio/Narrative13Situation2.wav,audio/Narrative13Situation2.wav,audio/Narrative13Situation2.wav,audio/Narrative13Situation2.wav,2,2,2,2,,,,,611.8412,617.7738,space,5.1852,,,,,,,,,,,,,,,,,,,,,,,,,,,,,,,
,,,,,6774ba2b35bfe170ef2d7c87,2025-07-07_20h05.08.448,group3.4_multiperson,2023.2.2,Win32,6.666666667,686c2ebf0248f13bef9af11f,686c7b119c68b25cc72b788e,,,,,,,,,,,,,,,,,,,,,,,,,,,,,650.4612,2,audio/Narrative6Situation1.wav,652.5109,,652.511,679.4853,"[[45.7,2070],[46.3,2221],[46.5,2376],[47.6,2527],[48.9,2677],[49,2827],[49.2,2980],[49.7,3131],[49.7,3279],[49.7,3430],[49.7,3577],[49.7,3724],[49.7,3872],[49.7,4021],[49.7,4172],[49.7,4320],[49.7,4470],[49.7,4622],[49.7,4774],[49.7,4925],[49.7,5079],[50.9,5230],[51.8,5384],[51.8,5531],[51.8,5688],[51.8,5839],[51.8,5987],[51.8,6138],[53.1,6290],[53.9,6444],[54,6604],[54.2,6750],[55.1,6905],[55.6,7067],[55.6,7217],[55.6,7368],[55.6,7524],[55.6,7673],[55.6,7825],[55.6,7973],[55.6,8121],[55.6,8269],[55.6,8418],[55.6,8564],[55.6,8713],[55.6,8863],[55.6,9015],[55.6,9167],[55.6,9317],[55.6,9465],[55.6,9612],[55.6,9761],[55.6,9909],[55.6,10057],[55.6,10206],[55.6,10356],[55.6,10508],[55.6,10658],[53.8,10810],[43.8,10964],[40.2,11115],[40.1,11267],[39.7,11418],[38.3,11572],[33,11734],[32.7,11881],[32.7,12030],[32.7,12176],[32.7,12321],[32.7,12474],[32.7,12622],[32.7,12771],[32.7,12920],[32.7,13068],[32.7,13212],[32.7,13362],[32.7,13512],[32.7,13659],[32.7,13806],[32.7,13952],[32.7,14099],[32.7,14251],[32.7,14399],[32.7,14545],[32.7,14690],[32.7,14838],[32.7,14985],[32.7,15132],[32.7,15278],[32.7,15424],[32.7,15570],[32.7,15721],[32.7,15869],[32.7,16017],[32.7,16166],[32.7,16311],[32.7,16458],[32.7,16606],[32.7,16758],[32.7,16907],[32.7,17059],[32.7,17208],[32.7,17357],[32.7,17508],[32.7,17656],[32.7,17805],[32.7,17953],[32.7,18101],[32.7,18246],[32.7,18394],[32.7,18542],[32.7,18689],[32.7,18836],[32.7,18984],[32.7,19132],[32.7,19287],[32.7,19432],[32.7,19585],[31,19735],[19.9,19888],[18.4,20039],[15.7,20192],[15.3,20345],[15.3,20494],[15.3,20642],[15.3,20793],[15.3,20942],[15.3,21090],[15.3,21245],[15.3,21393],[32.9,21543],[41.9,21696],[45.6,21867],[49.5,22043],[50.6,22202],[51.1,22355],[51.3,22503],[51.3,22653],[51.3,22802],[51.3,22953],[51.3,23103],[51.3,23255],[51.3,23406],[51.3,23554],[51.3,23702],[51.3,23856],[51.3,24005],[51.3,24155],[51.3,24300],[51.3,24448],[51.3,24599],[51.3,24744],[51.3,24895],[51.3,25043],[51.3,25192],[51.3,25340],[51.3,25486],[51.3,25635],[51.3,25785],[51.3,25933],[51.3,26084],[51.3,26235],[51.3,26381],[51.3,26528],[51.3,26678],[51.3,26828],[51.3,26974]]",679.4854,688.6495,46.66666667,7.0164,"[{""rating"":46.666666666666664,""responseTime"":7.016399999856844}]",space,8.2745,,688.6496,Not at all,0,688.6519,,,[],,0,1,1,1,1,audio/Narrative7Situation1.wav,audio/Narrative8Situation1.wav,audio/Narrative5Situation1.wav,audio/Narrative6Situation1.wav,2,5,5,2,,,,,,,,,,,,,,,,,,,,,,,,,,,,,,,,,,,,,,,
,,,,,6774ba2b35bfe170ef2d7c87,2025-07-07_20h05.08.448,group3.4_multiperson,2023.2.2,Win32,6.666666667,686c2ebf0248f13bef9af11f,686c7b119c68b25cc72b788e,,,,,,,,,,,,,,,,,,,,,,,,,,,,,688.6522,2,audio/Narrative6Situation2.wav,691.7215,,691.7215,720.5925,"[[999,0],[999,145],[999,291],[999,438],[999,588],[999,736],[999,883],[999,1033],[999,1179],[999,1324],[999,1475],[51.7,1626],[51.7,1772],[51.7,1918],[51.4,2071],[49.9,2221],[49.2,2369],[48.1,2520],[48,2669],[48,2817],[48,2964],[48,3112],[48,3261],[48.1,3411],[53.8,3568],[53.9,3719],[54.5,3874],[54.6,4021],[54.7,4170],[54.7,4319],[54.7,4466],[54.7,4615],[54.7,4763],[54.7,4911],[54.7,5060],[54.7,5209],[54.7,5360],[54.7,5508],[54.7,5658],[54.7,5808],[54.7,5959],[54.7,6106],[54.7,6257],[54.7,6410],[54.7,6560],[54.7,6709],[54.7,6857],[54.7,7006],[54.7,7157],[54.7,7305],[54.7,7452],[54.7,7601],[54.7,7751],[54.7,7902],[54.7,8052],[54.7,8200],[54.7,8351],[54.7,8499],[54.7,8647],[54.7,8798],[54.7,8946],[54.7,9094],[54.7,9243],[54.7,9388],[54.7,9537],[54.7,9683],[54.7,9831],[54.7,9979],[54.7,10131],[54.7,10280],[54.7,10427],[54.7,10575],[54.7,10724],[54.7,10872],[54.7,11017],[54.7,11166],[55.4,11313],[56.2,11463],[58.3,11617],[60,11769],[61.8,11920],[63.1,12075],[63.8,12224],[63.8,12372],[63.8,12518],[64.9,12672],[65.9,12825],[67.4,12981],[67.4,13133],[67.5,13283],[67.5,13431],[67.5,13581],[67.5,13728],[67.5,13880],[67.5,14031],[67.5,14182],[67.5,14330],[67.5,14481],[67.5,14630],[67.5,14780],[67.5,14930],[67.5,15095],[67.5,15259],[67.5,15412],[67.5,15559],[67.5,15707],[67.5,15858],[67.5,16010],[67.5,16168],[67.5,16317],[67.5,16468],[67.5,16620],[67.6,16766],[69.6,16920],[72.9,17071],[73.1,17226],[73.1,17390],[73.1,17553],[73.1,17707],[73.1,17860],[73.1,18028],[73.1,18184],[73.1,18348],[73.1,18508],[73.1,18666],[73.1,18821],[73.1,18979],[73.1,19133],[73.1,19283],[73.1,19439],[73.1,19588],[73.1,19742],[73.1,19892],[73.1,20040],[73.1,20192],[73.1,20340],[73.1,20490],[72.8,20641],[72.8,20788],[73.1,20940],[73.1,21087],[73.1,21239],[73.1,21390],[73.1,21538],[73,21696],[73,21846],[73,21995],[73,22144],[73,22292],[73,22441],[73,22591],[73,22741],[73,22894],[73,23043],[73,23191],[73,23339],[73,23488],[73,23637],[73,23785],[73,23933],[73,24083],[73,24239],[72.8,24386],[72.8,24535],[72.8,24689],[72.8,24836],[72.8,24986],[72.8,25136],[72.8,25286],[72.8,25434],[72.8,25582],[72.9,25732],[73.1,25882],[74.1,26036],[75,26185],[75.8,26335],[77.1,26490],[77.2,26640],[77.3,26788],[77.3,26934],[77.3,27083],[77.3,27230],[77.3,27379],[77.3,27528],[77.3,27682],[77.3,27832],[77.3,27979],[77.3,28126],[77.3,28274],[77.3,28423],[77.3,28573],[77.3,28723],[77.3,28870]]",720.5926,723.977,78.05555556,2.4631,"[{""rating"":78.05555555555556,""responseTime"":2.463099999904557}]",space,2.4829,,723.977,Partially,50,723.979,,,[],,0,2,2,2,1,audio/Narrative7Situation2.wav,audio/Narrative8Situation2.wav,audio/Narrative5Situation2.wav,audio/Narrative6Situation2.wav,3,3,3,3,,,,,,,,,,,,,,,,,,,,,,,,,,,,,,,,,,,,,,,
,,,,,6774ba2b35bfe170ef2d7c87,2025-07-07_20h05.08.448,group3.4_multiperson,2023.2.2,Win32,6.666666667,686c2ebf0248f13bef9af11f,686c7b119c68b25cc72b788e,,,,,,,,,,,,,,,,,,,,,,,,,,,,,723.9793,2,audio/Narrative6Situation3.wav,729.0633,,729.0634,742.0822,"[[78.4,3247],[80.3,3401],[80.6,3552],[80.7,3702],[80.7,3851],[80.7,3998],[80.7,4147],[80.7,4299],[80.7,4450],[80.7,4606],[80.7,4757],[80.7,4910],[80.7,5057],[80.6,5216],[76.7,5388],[76.6,5541],[76.6,5688],[76.8,5839],[76.9,5990],[77.1,6138],[77.1,6288],[77.2,6436],[77.4,6583],[77.5,6732],[77.6,6882],[77.6,7030],[77.6,7180],[77.6,7328],[77.6,7479],[77.7,7625],[74.5,7775],[74,7926],[73.4,8076],[72.2,8228],[69.1,8378],[66.3,8529],[63.5,8680],[63.3,8835],[63.3,8984],[63.3,9133],[63.3,9281],[63.3,9432],[63.3,9581],[63.3,9730],[63.3,9878],[63.3,10026],[63.3,10176],[63.3,10330],[63.3,10485],[63.3,10633],[63.3,10786],[63.3,10935],[63.3,11084],[63.3,11234],[63.3,11383],[63.3,11532],[63.3,11680],[63.3,11829],[63.3,11979],[63.3,12123],[63.3,12274],[63.3,12422],[63.3,12568],[63.3,12718],[63.3,12871],[63.3,13018]]",742.0823,745.7681,60.69444444,2.7663,"[{""rating"":60.69444444444444,""responseTime"":2.7662999999522526}]",space,2.7888,,745.7681,Partially,50,745.7709,,,[],,0,3,3,3,1,audio/Narrative7Situation3.wav,audio/Narrative8Situation3.wav,audio/Narrative5Situation3.wav,audio/Narrative6Situation3.wav,8,4,3,5,,,,,,,,,,,,,,,,,,,,,,,,,,,,,,,,,,,,,,,
,,,,,6774ba2b35bfe170ef2d7c87,2025-07-07_20h05.08.448,group3.4_multiperson,2023.2.2,Win32,6.666666667,686c2ebf0248f13bef9af11f,686c7b119c68b25cc72b788e,,,,,,,,,,,,,,,,,,,,,,,,,,,,,745.7712,2,audio/Narrative6Situation4.wav,747.8062,,747.8064,760.7752,"[[37,594],[36.9,743],[36.3,893],[22.4,1048],[18.3,1202],[16,1359],[14.4,1510],[14.2,1662],[14.2,1814],[14.2,1968],[14.2,2117],[14.2,2270],[14.2,2419],[14.2,2571],[14.2,2723],[14.2,2871],[14.2,3023],[14.2,3170],[18.3,3318],[33.3,3472],[42.8,3624],[49.7,3778],[51.4,3933],[52.6,4088],[53.1,4239],[53.2,4389],[53.9,4546],[54.9,4712],[55.3,4873],[55.3,5030],[55.3,5184],[55.3,5344],[55.3,5503],[55.3,5660],[55.3,5823],[55.3,5981],[75,6134],[76.2,6285],[75.9,6435],[76.5,6586],[78.1,6737],[79.7,6889],[79.7,7038],[79.7,7186],[79.7,7336],[79.7,7483],[79.7,7630],[79.7,7777],[79.7,7925],[79.7,8075],[79.7,8223],[79.7,8372],[79.7,8521],[79.7,8667],[79.7,8813],[79.7,8959],[79.7,9105],[79.7,9256],[79.7,9403],[79.7,9553],[79.7,9698],[79.7,9848],[79.7,9995],[79.7,10146],[79.7,10297],[79.7,10446],[79.7,10593],[79.7,10743],[79.7,10890],[79.7,11039],[79.7,11186],[79.7,11333],[79.7,11478],[79.7,11629],[79.7,11778],[79.7,11929],[79.7,12078],[79.7,12229],[79.7,12379],[79.7,12527],[79.7,12674],[79.7,12822],[79.7,12968]]",760.7753,763.3846,81.45833333,1.5384,"[{""rating"":81.45833333333333,""responseTime"":1.5384000000954074}]",space,1.7126,,763.3847,Not at all,0,763.3881,,,[],,0,4,4,4,1,audio/Narrative7Situation4.wav,audio/Narrative8Situation4.wav,audio/Narrative5Situation4.wav,audio/Narrative6Situation4.wav,3,3,1,2,,,,,,,,,,,,,,,,,,,,,,,,,,,,,,,,,,,,,,,
,,,,,6774ba2b35bfe170ef2d7c87,2025-07-07_20h05.08.448,group3.4_multiperson,2023.2.2,Win32,6.666666667,686c2ebf0248f13bef9af11f,686c7b119c68b25cc72b788e,,,,,,,,,,,,,,,,,,,,,,,,,,,,,763.3884,2,audio/Narrative6Situation5.wav,765.4409,,765.441,773.806,"[[81.6,1780],[81.7,1932],[81.9,2080],[81.9,2228],[80.9,2377],[80.9,2527],[79.8,2679],[78.8,2833],[78.8,2986],[78.8,3133],[78.1,3281],[77.6,3429],[77.6,3575],[77.6,3724],[77.6,3877],[77.6,4027],[77.6,4178],[77.6,4328],[77.6,4476],[77.6,4626],[77.6,4772],[77.6,4922],[77.6,5070],[77.6,5223],[77.9,5374],[77.9,5524],[77.9,5672],[77.9,5821],[77.9,5973],[77.9,6125],[77.9,6278],[77.9,6427],[77.9,6578],[77.9,6726],[77.9,6878],[77.9,7027],[77.9,7175],[77.9,7322],[77.8,7470],[77.8,7617],[77.8,7767],[77.8,7916],[77.8,8067],[77.8,8215],[77.8,8364]]",773.806,776.2728,77.15277778,1.8528,"[{""rating"":77.15277777777779,""responseTime"":1.8527999999522535}]",space,1.5617,,776.2728,Partially,50,776.2749,,,[],,0,5,5,5,1,audio/Narrative7Situation5.wav,audio/Narrative8Situation5.wav,audio/Narrative5Situation5.wav,audio/Narrative6Situation5.wav,5,2,5,2,,,,,,,,,,,,,,,,,,,,,,,,,,,,,,,,,,,,,,,
,,,,,6774ba2b35bfe170ef2d7c87,2025-07-07_20h05.08.448,group3.4_multiperson,2023.2.2,Win32,6.666666667,686c2ebf0248f13bef9af11f,686c7b119c68b25cc72b788e,,,,,,,,,,,,,,,,,,,,,,,,,,,,,776.2752,2,audio/Narrative6Situation6.wav,778.3052,,778.3052,789.8191,"[[77,1774],[76,1924],[75.6,2076],[75.3,2226],[74.9,2374],[74.9,2524],[74.9,2679],[74.9,2835],[74.9,2983],[74.9,3134],[74.9,3285],[74.9,3433],[74.9,3583],[74.9,3732],[74.9,3881],[74.9,4031],[74.9,4181],[74.9,4330],[74.9,4476],[74.9,4629],[74.9,4779],[74.9,4927],[74.9,5079],[74.9,5228],[74.9,5374],[74.9,5523],[74.9,5672],[74.9,5820],[74.9,5970],[74.9,6117],[74.9,6263],[74.9,6413],[74.9,6561],[74.9,6710],[74.9,6854],[74.9,7008],[74.9,7157],[74.9,7305],[74.9,7455],[74.9,7603],[74.9,7752],[74.9,7900],[74.9,8054],[74.9,8208],[74.9,8358],[74.9,8507],[74.9,8653],[74.9,8799],[74.9,8948],[75,9098],[75,9251],[75.1,9401],[75.1,9551],[75.3,9702],[74.4,9853],[71,10003],[69.4,10157],[68.7,10307],[68.1,10458],[67.2,10609],[67.2,10758],[66.5,10908],[65.6,11064],[65.5,11216],[65.5,11364],[65.5,11513]]",789.8192,794.1177,63.68055556,2.9102,"[{""rating"":63.680555555555564,""responseTime"":2.910199999809265}]",space,3.3982,,794.1178,Definitely yes,100,794.1199,,,[],,0,6,6,6,1,audio/Narrative7Situation6.wav,audio/Narrative8Situation6.wav,audio/Narrative5Situation6.wav,audio/Narrative6Situation6.wav,3,2,3,2,,,,,,,,,,,,,,,,,,,,,,,,,,,,,,,,,,,,,,,
,,,,,6774ba2b35bfe170ef2d7c87,2025-07-07_20h05.08.448,group3.4_multiperson,2023.2.2,Win32,6.666666667,686c2ebf0248f13bef9af11f,686c7b119c68b25cc72b788e,,,,,,,,,,,,,,,,,,,,,,,,,,,,,794.1202,2,audio/Narrative6Situation7.wav,799.1754,,799.1754,824.3462,"[[62.8,2510],[62.2,2660],[61.3,2809],[60.5,2962],[56.5,3114],[44.7,3266],[43.1,3417],[43.1,3564],[39.7,3714],[34.6,3864],[30.6,4014],[29.8,4164],[29.8,4314],[29.8,4463],[29.8,4611],[29.8,4759],[29.8,4910],[29.8,5057],[29.8,5205],[29.8,5354],[29.8,5502],[17.2,5655],[15.3,5808],[15.3,5957],[15.3,6107],[15.3,6258],[15.3,6407],[15.3,6556],[15.3,6703],[21.7,6861],[41.7,7009],[48.8,7162],[53.6,7313],[56.5,7466],[56.5,7611],[57.2,7760],[58.9,7912],[60.1,8061],[61.1,8210],[61.5,8360],[61.8,8508],[61.8,8657],[61.9,8806],[61.9,8954],[61.9,9101],[61.9,9249],[61.9,9395],[61.9,9541],[61.9,9687],[61.9,9836],[61.9,9989],[61.9,10138],[61.9,10284],[61.9,10430],[61.9,10577],[61.9,10727],[61.9,10877],[61.9,11025],[61.9,11173],[61.9,11324],[61.9,11476],[61.9,11626],[61.9,11775],[61.9,11923],[61.9,12072],[61.7,12220],[61.6,12368],[61.6,12516],[61.6,12663],[61.6,12811],[61.6,12960],[61.6,13107],[61.6,13254],[61.6,13402],[61.6,13550],[61.6,13699],[63.3,13855],[63.9,14010],[63.9,14158],[63.9,14307],[63.9,14454],[64.7,14604],[64.9,14754],[65.1,14903],[65.3,15052],[65.3,15203],[65.4,15354],[65.6,15505],[65.6,15654],[65.7,15803],[65.7,15958],[65.7,16108],[65.7,16258],[65.5,16408],[65.2,16559],[65.2,16709],[65.2,16857],[65.2,17004],[65.2,17152],[65.2,17302],[65.2,17451],[65.2,17599],[65.2,17748],[65.2,17897],[65.2,18046],[65.2,18194],[65.2,18341],[65.2,18487],[65.4,18637],[65.6,18787],[65.6,18933],[65.7,19081],[65.7,19231],[65.7,19388],[65.7,19537],[65.7,19685],[65.7,19834],[65.7,19981],[65.7,20132],[65.7,20279],[65.7,20426],[65.7,20573],[65.7,20734],[65.7,20879],[65.7,21027],[65.7,21177],[65.7,21327],[65.7,21474],[65.7,21622],[65.7,21772],[65.7,21920],[65.7,22069],[65.7,22216],[65.7,22362],[65.7,22510],[65.7,22654],[65.7,22800],[65.7,22945],[65.7,23093],[65.7,23239],[65.7,23387],[65.7,23535],[65.7,23682],[65.7,23830],[65.7,23977],[65.7,24126],[65.7,24277],[65.7,24425],[65.7,24577],[65.7,24725],[65.7,24874],[65.7,25022],[65.7,25170]]",824.3462,828.4887,57.98611111,3.3739,"[{""rating"":57.986111111111114,""responseTime"":3.3739000000953183}]",space,3.2436,,828.4888,Not at all,0,828.4922,,,[],,0,7,7,7,1,audio/Narrative7Situation7.wav,audio/Narrative8Situation7.wav,audio/Narrative5Situation7.wav,audio/Narrative6Situation7.wav,5,3,4,5,,,,,,,,,,,,,,,,,,,,,,,,,,,,,,,,,,,,,,,
,,,,,6774ba2b35bfe170ef2d7c87,2025-07-07_20h05.08.448,group3.4_multiperson,2023.2.2,Win32,6.666666667,686c2ebf0248f13bef9af11f,686c7b119c68b25cc72b788e,,,,,,,,,,,,,,,,,,,,,,,,,,,,,828.4925,2,audio/Narrative6Situation8.wav,833.6052,,833.6053,840.7689,"[[57.4,2212],[53.3,2364],[53,2515],[52,2667],[51.3,2817],[50.3,2968],[49.9,3118],[49.9,3268],[49.9,3418],[49.9,3564],[49.9,3714],[49.9,3861],[49.9,4010],[49.9,4157],[49.6,4304],[41.9,4454],[35.8,4608],[32.3,4756],[26,4908],[23.4,5062],[23.4,5212],[23.4,5360],[15.5,5511],[10.4,5662],[9,5816],[8.7,5967],[8.5,6124],[8.5,6271],[8.5,6420],[8.5,6565],[8.5,6714],[8.5,6863],[8.5,7014],[8.5,7163]]",840.7689,844.9477,4.236111111,3.4198,"[{""rating"":8.055555555555555,""responseTime"":1.8537000000476382},{""rating"":4.2361111111111125,""responseTime"":3.419799999952261}]",space,3.2893,,844.9478,Partially,50,844.9512,,,[],,0,8,8,8,1,audio/Narrative7Situation8.wav,audio/Narrative8Situation8.wav,audio/Narrative5Situation8.wav,audio/Narrative6Situation8.wav,2,3,3,5,,,,,,,,,,,,,,,,,,,,,,,,,,,,,,,,,,,,,,,
,,,,,6774ba2b35bfe170ef2d7c87,2025-07-07_20h05.08.448,group3.4_multiperson,2023.2.2,Win32,6.666666667,686c2ebf0248f13bef9af11f,686c7b119c68b25cc72b788e,,,,,,,,,,,,,,,,,,,,,,,,,,,,,844.9514,2,audio/Narrative6Situation9.wav,849.0534,,849.0534,859.2901,"[[52.9,747],[52.8,899],[52.8,1048],[51.2,1201],[37.8,1352],[31.3,1506],[31.3,1655],[30.3,1803],[18.8,1956],[16.5,2105],[13.4,2259],[13.1,2413],[13.1,2560],[13.1,2710],[13.1,2859],[13.1,3008],[13.1,3157],[13.1,3305],[13.1,3454],[13.1,3601],[13.1,3749],[13.1,3900],[12.6,4051],[11.3,4201],[9.4,4354],[8.4,4505],[8.1,4657],[8.1,4804],[8.1,4956],[8.1,5109],[8.1,5269],[8.1,5436],[8.1,5596],[8.1,5744],[8.1,5893],[8.1,6042],[8.1,6186],[8.1,6334],[8.1,6484],[8.1,6632],[8.1,6797],[8.1,6942],[8.1,7091],[8.1,7238],[6.7,7386],[2.8,7536],[1.6,7689],[1.1,7848],[0.8,7997],[0.2,8147],[0.1,8298],[0.1,8446],[0.1,8593],[0.1,8741],[0.1,8890],[0.1,9038],[0.1,9189],[0.1,9338],[0.1,9493],[0.1,9642],[0.1,9791],[0.1,9938],[0.1,10088],[0.1,10236]]",859.2902,864.357,0.486111111,4.1247,"[{""rating"":0.4861111111111094,""responseTime"":4.12470000004771}]",space,4.1506,,864.3571,Definitely yes,100,864.3591,,,[],,0,9,9,9,1,audio/Narrative7Situation9.wav,audio/Narrative8Situation9.wav,audio/Narrative5Situation9.wav,audio/Narrative6Situation9.wav,2,3,3,4,,,,,,,,,,,,,,,,,,,,,,,,,,,,,,,,,,,,,,,
,,,,,6774ba2b35bfe170ef2d7c87,2025-07-07_20h05.08.448,group3.4_multiperson,2023.2.2,Win32,6.666666667,686c2ebf0248f13bef9af11f,686c7b119c68b25cc72b788e,,,,,,,,,,,,,,,,,,,,,,,,,,,,,864.3594,2,audio/Narrative5Situation1.wav,869.4472,,869.4472,882.9784,"[[53.1,2988],[53.2,3136],[53.2,3284],[58.1,3436],[59.8,3588],[66.3,3740],[67.5,3890],[67.6,4039],[67.2,4189],[67.2,4340],[67,4490],[67,4636],[67,4783],[67,4933],[67,5081],[67,5228],[67,5375],[67,5524],[67,5670],[67,5819],[67,5968],[67,6118],[67,6268],[67,6419],[67,6566],[67,6713],[67,6860],[67,7007],[67,7153],[67,7300],[67,7447],[67,7595],[67,7742],[67,7893],[67,8039],[67,8185],[67,8331],[67,8481],[67,8626],[67,8774],[67,8927],[67,9078],[67,9227],[67,9375],[67,9525],[67,9675],[67,9820],[67,9970],[67,10117],[67,10265],[67,10417],[67,10569],[67,10718],[67,10865],[67,11013],[67,11161],[67,11309],[67,11458],[67,11605],[67,11754],[67,11904],[67,12052],[67,12198],[67,12346],[67,12494],[67,12643],[67,12789],[67,12936],[67,13085],[67,13234],[67,13382],[67,13530]]",882.9785,885.1331,58.33333333,1.5406,"[{""rating"":58.333333333333336,""responseTime"":1.5405999999046571}]",space,1.2509,,885.1331,Definitely yes,100,885.1344,,,[],,0,10,10,10,1,audio/Narrative8Situation1.wav,audio/Narrative7Situation1.wav,audio/Narrative6Situation1.wav,audio/Narrative5Situation1.wav,5,2,2,5,,,,,,,,,,,,,,,,,,,,,,,,,,,,,,,,,,,,,,,
,,,,,6774ba2b35bfe170ef2d7c87,2025-07-07_20h05.08.448,group3.4_multiperson,2023.2.2,Win32,6.666666667,686c2ebf0248f13bef9af11f,686c7b119c68b25cc72b788e,,,,,,,,,,,,,,,,,,,,,,,,,,,,,885.1346,2,audio/Narrative5Situation2.wav,888.2089,,888.2089,917.994,"[[59.2,2212],[59.3,2360],[58.8,2511],[56.9,2663],[56.9,2814],[56.9,2959],[56.9,3108],[56.9,3260],[56.9,3413],[56.9,3561],[56.9,3710],[56.9,3856],[56.9,4009],[56.9,4156],[56.9,4303],[56.9,4451],[56.9,4598],[56.9,4745],[56.9,4895],[56.9,5043],[56.9,5192],[56.9,5340],[56.9,5491],[56.9,5640],[56.9,5788],[56.9,5937],[56.9,6090],[56.9,6238],[56.9,6387],[56.9,6533],[56.9,6678],[56.9,6825],[56.9,6976],[56.9,7128],[56.9,7277],[56.9,7424],[56.9,7573],[56.9,7721],[56.9,7867],[56.9,8016],[56.9,8166],[56.9,8313],[56.9,8461],[56.9,8610],[56.9,8759],[56.9,8906],[56.9,9053],[56.9,9201],[56.9,9348],[56.9,9495],[56.9,9651],[56.9,9798],[56.9,9947],[56.9,10096],[56.9,10242],[56.9,10390],[56.9,10537],[56.9,10683],[56.9,10830],[56.9,10979],[56.9,11130],[56.9,11281],[56.9,11438],[56.9,11593],[56.9,11743],[56.9,11892],[56.9,12043],[56.9,12196],[56.9,12347],[56.9,12499],[56.9,12651],[56.9,12807],[56.9,12958],[56.9,13104],[56.9,13252],[56.9,13403],[57.9,13554],[58.9,13705],[60.1,13858],[61.3,14008],[61.4,14158],[61.4,14306],[61.4,14460],[61.4,14608],[61.4,14758],[61.4,14912],[61.4,15063],[61.4,15214],[61.4,15362],[61.4,15509],[61.4,15660],[61.4,15809],[61.4,15958],[61.4,16107],[61.4,16255],[61.4,16406],[61.4,16554],[61.4,16700],[61.4,16850],[61.4,16998],[61.4,17146],[61.4,17293],[61.4,17440],[61.4,17592],[61.4,17745],[61.4,17895],[61.4,18045],[61.4,18193],[61.4,18341],[61.4,18488],[61.4,18636],[61.4,18785],[61.4,18932],[61.4,19081],[61.4,19234],[61.4,19380],[61.4,19533],[61.4,19681],[61.4,19829],[61.4,19975],[61.4,20126],[61.4,20273],[61.4,20422],[61.4,20573],[61.4,20726],[61.4,20876],[61.4,21025],[61.4,21177],[61.4,21326],[61.4,21474],[61.4,21622],[61.4,21771],[61.4,21923],[61.4,22073],[61.4,22222],[61.4,22368],[61.9,22519],[62.8,22669],[63.2,22822],[63.8,22971],[63.5,23122],[63.1,23273],[60.6,23431],[60.2,23578],[60.2,23730],[60.2,23877],[60.2,24024],[60.2,24172],[60.2,24323],[60.2,24471],[60.2,24624],[60.2,24775],[60.2,24924],[60.2,25073],[60.2,25223],[60.2,25370],[60.2,25522],[59.9,25668],[59.7,25819],[55.3,25971],[54.4,26139],[54.4,26313],[54.4,26473],[54.4,26621],[54.4,26772],[54.4,26918],[54.4,27068],[54.4,27218],[54,27373],[53.7,27522],[52.8,27675],[50.6,27825],[49.5,27978],[47.7,28128],[47.4,28278],[46.8,28429],[45.5,28581],[45.3,28733],[45.3,28884],[45.3,29034],[45.3,29183],[45.3,29332],[45.3,29482],[48.6,29631],[49.4,29784]]",917.9941,920.1446,49.44444444,1.3823,"[{""rating"":49.44444444444444,""responseTime"":1.3822999999523518}]",space,1.2468,,920.1446,Partially,50,920.1468,,,[],,0,11,11,11,1,audio/Narrative8Situation2.wav,audio/Narrative7Situation2.wav,audio/Narrative6Situation2.wav,audio/Narrative5Situation2.wav,3,3,3,3,,,,,,,,,,,,,,,,,,,,,,,,,,,,,,,,,,,,,,,
,,,,,6774ba2b35bfe170ef2d7c87,2025-07-07_20h05.08.448,group3.4_multiperson,2023.2.2,Win32,6.666666667,686c2ebf0248f13bef9af11f,686c7b119c68b25cc72b788e,,,,,,,,,,,,,,,,,,,,,,,,,,,,,920.147,2,audio/Narrative5Situation3.wav,923.2281,,923.2283,937.525,"[[39,894],[39.3,1049],[39.4,1197],[39.8,1346],[39.9,1495],[39.9,1645],[39.9,1794],[39.9,1944],[39.9,2093],[39.9,2241],[39.9,2389],[39.9,2538],[39.9,2688],[39.9,2836],[39.9,2983],[39.9,3132],[39.7,3279],[44.2,3431],[32.8,3581],[32.5,3733],[42.3,3886],[47.6,4038],[47.6,4188],[47.6,4346],[47.6,4493],[47.6,4641],[47.6,4790],[47.6,4939],[47.6,5086],[47.6,5235],[47.6,5383],[47.6,5534],[47.6,5681],[47.6,5828],[47.6,5979],[47.6,6129],[47.6,6276],[47.6,6424],[47.6,6572],[47.6,6721],[47.6,6869],[47.6,7019],[47.6,7167],[47.6,7316],[47.6,7465],[47.6,7613],[47.6,7761],[47.6,7909],[47.6,8059],[47.6,8210],[47.6,8359],[47.6,8507],[47.6,8655],[47.6,8804],[47.6,8954],[47.6,9101],[47.6,9250],[47.6,9397],[47.6,9544],[47.6,9693],[47.6,9840],[47.6,9990],[47.6,10139],[47.6,10288],[47.6,10436],[47.6,10586],[47.6,10734],[47.6,10883],[47.6,11030],[47.6,11178],[47.6,11330],[47.6,11479],[47.6,11628],[47.6,11775],[47.6,11923],[47.6,12069],[47.6,12217],[47.6,12367],[47.6,12513],[47.6,12663],[47.6,12812],[47.6,12961],[47.6,13111],[47.6,13258],[47.6,13407],[47.6,13557],[47.6,13706],[47.6,13856],[47.6,14002],[47.6,14150],[47.6,14296]]",937.5251,941.7969,47.63888889,3.6586,"[{""rating"":47.638888888888886,""responseTime"":3.6585999999045953}]",space,3.3865,,941.7971,Not at all,0,941.8007,,,[],,0,12,12,12,1,audio/Narrative8Situation3.wav,audio/Narrative7Situation3.wav,audio/Narrative6Situation3.wav,audio/Narrative5Situation3.wav,4,8,5,3,,,,,,,,,,,,,,,,,,,,,,,,,,,,,,,,,,,,,,,
,,,,,6774ba2b35bfe170ef2d7c87,2025-07-07_20h05.08.448,group3.4_multiperson,2023.2.2,Win32,6.666666667,686c2ebf0248f13bef9af11f,686c7b119c68b25cc72b788e,,,,,,,,,,,,,,,,,,,,,,,,,,,,,941.8009,2,audio/Narrative5Situation4.wav,942.8144,,942.8144,963.5904,"[[46.9,1470],[45.8,1624],[45.6,1784],[45.6,1943],[45.6,2099],[45.6,2255],[45.6,2407],[45.6,2555],[45.6,2704],[45.6,2853],[45.6,3002],[46.7,3163],[52.6,3325],[53.3,3492],[53.3,3652],[53.3,3812],[53.3,3971],[53.3,4136],[53.3,4295],[45.8,4452],[21.5,4616],[16.3,4774],[14.9,4937],[14.2,5101],[12.2,5265],[11,5427],[10.9,5597],[10.9,5763],[10.9,5918],[10.9,6076],[10.9,6235],[10.9,6393],[10.9,6548],[10.9,6704],[10.9,6865],[10.9,7017],[10.9,7164],[10.9,7312],[10.9,7459],[10.9,7608],[10.9,7757],[10.9,7904],[10.9,8057],[10.9,8215],[10.9,8362],[10.9,8510],[10.9,8659],[10.9,8809],[10.9,8960],[10.9,9106],[10.9,9254],[10.9,9402],[10.9,9550],[28.9,9703],[43.2,9852],[43.2,10000],[43.2,10146],[49.3,10297],[49.7,10446],[51.2,10597],[51.4,10748],[51.4,10900],[51.4,11056],[51.4,11216],[51.4,11371],[51.4,11529],[51.4,11686],[51.4,11839],[51.4,11990],[51.4,12139],[51.4,12290],[51.4,12439],[51.4,12587],[51.4,12734],[51.4,12881],[51.4,13029],[51.4,13177],[51.4,13322],[51.4,13474],[51.4,13621],[51.4,13771],[51.4,13920],[51.4,14066],[51.4,14211],[51.4,14364],[51.4,14511],[51.4,14661],[51.4,14811],[51.4,14959],[51.4,15107],[51.4,15257],[51.4,15406],[51.4,15551],[51.4,15700],[51.4,15849],[51.4,15995],[51.4,16140],[51.4,16284],[51.4,16438],[51.4,16584],[51.4,16733],[51.4,16880],[51.4,17027],[52.3,17176],[53.5,17326],[53.6,17477],[53.4,17627],[52.4,17781],[52.3,17931],[52.3,18080],[52.3,18230],[52.3,18379],[52.3,18532],[52.3,18683],[52.3,18832],[52.3,18983],[52.3,19135],[52.3,19286],[52.3,19434],[52.3,19581],[52.2,19729],[52.2,19880],[52.2,20029],[52.2,20179],[52.2,20328],[52.2,20476],[52.2,20627],[52.2,20775]]",963.5905,967.1191,50.97222222,2.4538,"[{""rating"":50.97222222222222,""responseTime"":2.45379999995248}]",space,2.6342,,967.1191,Definitely yes,100,967.1213,,,[],,0,13,13,13,1,audio/Narrative8Situation4.wav,audio/Narrative7Situation4.wav,audio/Narrative6Situation4.wav,audio/Narrative5Situation4.wav,3,3,2,1,,,,,,,,,,,,,,,,,,,,,,,,,,,,,,,,,,,,,,,
,,,,,6774ba2b35bfe170ef2d7c87,2025-07-07_20h05.08.448,group3.4_multiperson,2023.2.2,Win32,6.666666667,686c2ebf0248f13bef9af11f,686c7b119c68b25cc72b788e,,,,,,,,,,,,,,,,,,,,,,,,,,,,,967.1216,2,audio/Narrative5Situation5.wav,972.21,,972.2101,988.0636,"[[52.2,1031],[52.9,1190],[53.2,1340],[53.3,1489],[53.3,1636],[53.5,1784],[53.5,1934],[53.5,2098],[53.5,2279],[53.5,2441],[51.9,2590],[40.1,2742],[37.4,2896],[36.3,3047],[36.1,3211],[36.1,3367],[36.1,3518],[36.1,3668],[36.1,3821],[36.1,3971],[36.1,4120],[36.1,4274],[36.1,4421],[50.8,4569],[52.2,4723],[51.5,4873],[31.5,5026],[25.7,5180],[19.2,5336],[16.9,5488],[15.6,5640],[15.6,5788],[15.1,5936],[12.7,6085],[11.3,6241],[11.3,6391],[11.3,6536],[8.8,6688],[8.8,6836],[8.8,6985],[8.8,7136],[8.8,7285],[8.8,7432],[8.8,7584],[8.8,7734],[8.8,7884],[8.8,8038],[8.8,8185],[8.8,8332],[8.8,8480],[8.8,8628],[8.8,8778],[8.8,8930],[8.8,9081],[8.8,9230],[8.8,9377],[8.8,9524],[8.8,9682],[8.8,9833],[8.8,9982],[8.8,10132],[8.8,10284],[8.8,10436],[8.8,10586],[8.8,10738],[8.8,10884],[8.8,11034],[8.8,11182],[8.8,11330],[8.8,11478],[8.8,11630],[8.8,11780],[8.8,11932],[8.8,12079],[8.8,12225],[8.8,12371],[8.8,12521],[8.8,12671],[8.8,12823],[8.8,12972],[8.8,13126],[8.8,13276],[8.8,13430],[8.8,13578],[8.8,13728],[8.8,13881],[8.8,14035],[8.8,14184],[8.8,14336],[8.8,14488],[8.8,14647],[8.8,14792],[8.8,14943],[8.8,15092],[8.8,15244],[8.1,15394],[5.1,15545],[2,15701],[1.9,15853]]",988.0638,991.7712,1.388888889,2.3222,"[{""rating"":1.3888888888888895,""responseTime"":2.3222000000475873}]",space,2.7994,0,991.7713,Not at all,0,991.7734,,,[],,0,14,14,14,1,audio/Narrative8Situation5.wav,audio/Narrative7Situation5.wav,audio/Narrative6Situation5.wav,audio/Narrative5Situation5.wav,2,5,2,5,,,,,,,,,,,,,,,,,,,,,,,,,,,,,,,,,,,,,,,
,,,,,6774ba2b35bfe170ef2d7c87,2025-07-07_20h05.08.448,group3.4_multiperson,2023.2.2,Win32,6.666666667,686c2ebf0248f13bef9af11f,686c7b119c68b25cc72b788e,,,,,,,,,,,,,,,,,,,,,,,,,,,,,991.7737,2,audio/Narrative5Situation6.wav,994.8718,,994.8719,1000.7272,"[[999,0],[999,151],[999,302],[999,450],[999,607],[43.8,753],[50.5,906],[21.3,1059],[12.5,1210],[5.1,1365],[4.9,1515],[4.9,1663],[4.9,1811],[4.9,1957],[4.9,2105],[4.9,2255],[7.3,2408],[36.5,2558],[51.9,2711],[54.1,2867],[52.7,3018],[52.7,3168],[52.7,3316],[52.7,3468],[52.7,3619],[52.7,3768],[52.7,3920],[52.7,4070],[52.7,4221],[52.7,4368],[52.7,4516],[52.7,4662],[52.7,4808],[52.7,4955],[52.7,5105],[52.7,5253],[52.7,5403],[52.7,5553],[52.7,5703],[52.7,5855]]",1000.7273,1003.4944,52.36111111,1.6957,"[{""rating"":52.361111111111114,""responseTime"":1.695700000047509}]",space,1.8753,,1003.4945,Definitely yes,100,1003.4966,,,[],,0,15,15,15,1,audio/Narrative8Situation6.wav,audio/Narrative7Situation6.wav,audio/Narrative6Situation6.wav,audio/Narrative5Situation6.wav,2,3,2,3,,,,,,,,,,,,,,,,,,,,,,,,,,,,,,,,,,,,,,,
,,,,,6774ba2b35bfe170ef2d7c87,2025-07-07_20h05.08.448,group3.4_multiperson,2023.2.2,Win32,6.666666667,686c2ebf0248f13bef9af11f,686c7b119c68b25cc72b788e,,,,,,,,,,,,,,,,,,,,,,,,,,,,,1003.4968,2,audio/Narrative5Situation7.wav,1007.6234,,1007.6234,1028.9444,"[[49.9,1056],[49.4,1206],[52.2,1375],[52.7,1545],[52.8,1704],[52.8,1861],[52.8,2008],[52.8,2160],[52.8,2309],[52.8,2462],[52.8,2609],[52.8,2757],[52.8,2903],[52.8,3050],[52.8,3197],[52.8,3347],[52.8,3494],[52.8,3649],[52.8,3797],[52.8,3949],[52.8,4097],[52.8,4246],[52.8,4394],[52.8,4548],[52.8,4701],[52.8,4850],[52.8,5000],[52.4,5147],[52.4,5296],[52.4,5447],[52.4,5594],[52.4,5742],[52.4,5890],[52.4,6040],[52.4,6188],[57.2,6342],[59.4,6496],[59.6,6645],[60.3,6797],[60.4,6943],[60.4,7091],[60.4,7240],[60.4,7388],[60.4,7539],[60.4,7692],[60.4,7841],[60.4,7990],[60.4,8137],[60.4,8287],[60.4,8434],[60.4,8581],[60.4,8731],[60.4,8877],[60.4,9025],[60.4,9177],[60.4,9330],[60.4,9480],[60.3,9631],[60.2,9784],[60.1,9932],[59.9,10083],[59.8,10232],[59.5,10384],[59.2,10539],[59.1,10687],[59.1,10835],[59.1,10985],[59.1,11133],[59.1,11284],[59,11431],[59,11579],[59,11728],[58.9,11880],[58.8,12026],[58.7,12176],[58.7,12323],[58.7,12474],[58.7,12623],[58.5,12774],[58.5,12925],[58.5,13074],[58.5,13224],[58.5,13372],[58.5,13521],[58.5,13671],[58.5,13819],[58.5,13975],[58.5,14122],[58.5,14272],[58.5,14421],[58.5,14571],[58.5,14723],[58.5,14873],[58.5,15023],[58.5,15175],[58.5,15324],[58.4,15477],[58.4,15625],[58.4,15777],[58.4,15929],[58.3,16077],[58.3,16227],[58.3,16375],[58.3,16523],[58.3,16671],[58.1,16818],[58,16967],[58,17116],[58,17267],[58,17421],[58,17570],[58,17717],[58,17865],[58,18010],[58,18169],[58,18321],[58,18469],[58,18616],[58,18765],[58,18913],[58,19063],[58,19212],[58,19365],[58,19515],[58,19663],[58,19820],[58,19971],[58,20122],[58,20269],[58,20418],[58,20570],[58,20718],[58,20868],[58,21019],[58,21171],[58,21320]]",1028.9445,1035.5067,57.5,3.3875,"[{""rating"":57.49999999999999,""responseTime"":3.3875000000000455}]",space,5.6456,,1035.5067,Partially,50,1035.5087,,,[],,0,16,16,16,1,audio/Narrative8Situation7.wav,audio/Narrative7Situation7.wav,audio/Narrative6Situation7.wav,audio/Narrative5Situation7.wav,3,5,5,4,,,,,,,,,,,,,,,,,,,,,,,,,,,,,,,,,,,,,,,
,,,,,6774ba2b35bfe170ef2d7c87,2025-07-07_20h05.08.448,group3.4_multiperson,2023.2.2,Win32,6.666666667,686c2ebf0248f13bef9af11f,686c7b119c68b25cc72b788e,,,,,,,,,,,,,,,,,,,,,,,,,,,,,1035.5089,2,audio/Narrative5Situation8.wav,1038.635,,1038.635,1047.9028,"[[52.7,897],[50.9,1051],[50.3,1205],[50.8,1357],[52.5,1511],[53.6,1661],[56.3,1820],[57.2,1971],[57.2,2119],[57.2,2266],[57.2,2413],[57.2,2561],[57.2,2711],[57.2,2858],[57.2,3005],[57.2,3153],[57.2,3305],[57.2,3452],[57.2,3603],[57.2,3752],[57.2,3899],[57.2,4047],[57.2,4195],[57.2,4340],[57.2,4485],[57.2,4635],[57.2,4784],[57.2,4930],[57.2,5080],[57.2,5229],[57.2,5381],[57.2,5529],[57.2,5679],[57.2,5825],[33.5,5977],[23.5,6128],[23.4,6277],[24.3,6426],[24.7,6580],[24.7,6729],[24.7,6880],[24.7,7027],[24.7,7182],[20.8,7330],[15.2,7481],[15.2,7630],[15.2,7779],[15.2,7931],[15.2,8081],[15.2,8229],[15.2,8377],[15.2,8523],[15.2,8672],[15.2,8822],[15.2,8974],[15.2,9120],[15.2,9267]]",1047.9029,1050.0366,15.20833333,1.3658,"[{""rating"":15.208333333333336,""responseTime"":1.3658000001908022}]",space,1.2481,,1050.0366,Partially,50,1050.0378,,,[],,0,17,17,17,1,audio/Narrative8Situation8.wav,audio/Narrative7Situation8.wav,audio/Narrative6Situation8.wav,audio/Narrative5Situation8.wav,3,2,5,3,,,,,,,,,,,,,,,,,,,,,,,,,,,,,,,,,,,,,,,
,,,,,6774ba2b35bfe170ef2d7c87,2025-07-07_20h05.08.448,group3.4_multiperson,2023.2.2,Win32,6.666666667,686c2ebf0248f13bef9af11f,686c7b119c68b25cc72b788e,,,,,,,,,,,,,,,,,,,,,,,,,,,,,1050.0381,2,audio/Narrative5Situation9.wav,1053.1041,,1053.1041,1092.8609,"[[15.3,1190],[15.7,1340],[16.3,1493],[16.6,1641],[23.8,1791],[38.6,1944],[38.6,2094],[42.3,2245],[52.6,2397],[53.5,2546],[54.2,2698],[54.2,2847],[54.2,2997],[54.2,3145],[54.2,3297],[54.2,3457],[54.2,3605],[54.2,3748],[54.2,3897],[54.2,4046],[54.2,4193],[62.5,4343],[66.1,4496],[66.1,4647],[66.1,4797],[66.1,4946],[66.1,5096],[66.1,5246],[66.1,5393],[66.1,5542],[66.1,5690],[66.1,5838],[66.1,5987],[66.1,6136],[66.1,6285],[66.1,6432],[66.1,6579],[66.1,6731],[69.2,6879],[71.4,7033],[72.5,7183],[72.6,7333],[72.8,7484],[73.1,7634],[74.2,7787],[74.8,7939],[74.8,8086],[74.8,8236],[74.8,8386],[74.8,8534],[74.8,8685],[76.7,8837],[77.2,8986],[77.2,9136],[77.2,9284],[77.2,9436],[77.2,9584],[77.2,9735],[77.2,9884],[77.2,10032],[77.2,10179],[77.2,10327],[77.2,10477],[77.2,10627],[77.2,10774],[77.2,10925],[77.2,11073],[77.2,11223],[77.2,11375],[77.2,11541],[77.2,11701],[77.2,11856],[77.2,12013],[77.2,12164],[77.2,12312],[77.2,12463],[77.2,12612],[77.2,12771],[77.2,12918],[77.2,13066],[77.2,13216],[77.5,13365],[77.5,13513],[77.5,13663],[77.5,13809],[77.5,13957],[77.5,14104],[77.5,14257],[77.5,14408],[77.5,14554],[77.5,14702],[77.5,14848],[77.5,14995],[77.5,15145],[77.5,15294],[77.5,15442],[77.5,15591],[77.5,15738],[77.5,15884],[77.5,16032],[77.5,16180],[77.5,16333],[77.5,16482],[77.5,16635],[77.5,16783],[77.5,16933],[77.5,17080],[77.5,17228],[77.5,17377],[77.5,17526],[77.5,17677],[77.5,17827],[77.5,17975],[77.5,18125],[77.6,18278],[77.7,18434],[77.8,18587],[77.8,18739],[77.9,18889],[77.9,19035],[77.9,19185],[77.9,19333],[77.9,19484],[77.9,19632],[78.4,19780],[78.5,19931],[78.6,20079],[78.6,20230],[78.6,20377],[78.6,20524],[78.6,20673],[78.6,20824],[78.6,20972],[78.6,21122],[78.6,21271],[78.6,21420],[78.6,21569],[78.6,21717],[78.6,21866],[78.8,22015],[78.9,22165],[79.1,22314],[79.2,22465],[79.4,22615],[79.6,22765],[79.7,22916],[79.9,23063],[80,23212],[80.1,23361],[80.4,23511],[80.7,23661],[80.8,23813],[81,23962],[81,24109],[81,24260],[81,24409],[81,24562],[81,24712],[81,24863],[81,25010],[81,25159],[81,25307],[81,25455],[81,25602],[81,25750],[81,25897],[81,26044],[81,26193],[81,26342],[81,26489],[81,26636],[81,26786],[81,26935],[81,27083],[81,27230],[81,27378],[81.7,27527],[83.2,27680],[83.3,27829],[83.3,27977],[83.3,28127],[84.3,28277],[84.4,28427],[84.4,28577],[84.4,28727],[84.4,28874],[84.4,29022],[83.9,29173],[84.4,29322],[84.9,29474],[84.9,29622],[84.9,29771],[84.9,29920],[84.9,30072],[84.8,30221],[84.8,30370],[84.7,30517],[84.5,30672],[84.5,30823],[84.5,30971],[84.5,31118],[84.5,31264],[84.5,31413],[84.5,31560],[84.4,31710],[84.4,31859],[84.6,32010],[86.1,32165],[87.2,32313],[87.4,32463],[87.6,32612],[87.6,32759],[87.6,32911],[87.6,33063],[87.6,33212],[87.6,33363],[87.6,33511],[87.6,33659],[87.6,33807],[87.6,33957],[87.6,34104],[87.6,34254],[87.6,34402],[87.6,34551],[87.6,34699],[87.6,34845],[87.6,34992],[87.6,35138],[87.6,35286],[87.6,35437],[87.6,35583],[87.6,35734],[87.6,35881],[87.6,36031],[87.6,36179],[87.6,36329],[87.6,36479],[87.6,36628],[87.6,36773],[31.9,37225],[31,37377],[30.8,37530],[30.8,37679],[29.8,37832],[29.7,37980],[29.7,38131],[29.7,38275],[29.7,38426],[29.7,38570],[29.7,38722],[29.7,38869],[29.7,39019],[29.7,39165],[29.7,39316],[29.7,39464],[29.7,39611],[29.7,39756]]",1092.861,1095.6912,74.375,2.2151,"[{""rating"":74.375,""responseTime"":2.2151000001431385}]",space,1.931,,1095.6913,Definitely yes,100,1100.8825,99.65277778,3.3618,"[{""rating"":99.65277777777779,""responseTime"":3.3617999999523818}]",space,0,18,18,18,1,audio/Narrative8Situation9.wav,audio/Narrative7Situation9.wav,audio/Narrative6Situation9.wav,audio/Narrative5Situation9.wav,3,2,4,3,,,4.2921,,,,,,,,,,,,,,,,,,,,,,,,,,,,,,,,,,,,
,,,,,6774ba2b35bfe170ef2d7c87,2025-07-07_20h05.08.448,group3.4_multiperson,2023.2.2,Win32,6.666666667,686c2ebf0248f13bef9af11f,686c7b119c68b25cc72b788e,,,,,,,,,,,,,,,,,,,,,,,,,,,,,,,,,,,,,,,,,,,,,,,,,,,,,,,,,,,,,,,,,,,,,,1100.8827,1102.5489,space,0.9246,,1102.5491,1117.9232,space,14.9201,,,,,,,,,,,,,,,,,,,,,,,,,,
,,,,,6774ba2b35bfe170ef2d7c87,2025-07-07_20h05.08.448,group3.4_multiperson,2023.2.2,Win32,6.666666667,686c2ebf0248f13bef9af11f,686c7b119c68b25cc72b788e,,,,,,,,,,,,,,,,,,,,,,,,,,,,,1120.4279,1,audio/Narrative7Situation9.wav,1122.4926,,,,,1155.2068,1160.9585,50.27777778,4.2433,"[{""rating"":50.27777777777778,""responseTime"":4.243299999952342}]",space,4.871,0.0002,1160.9586,Not at all,0,1160.9608,,,[],,,,,,,,,,,2,2,2,2,,,,,,,,,,,,,,,1117.9244,1120.4197,1122.4931,3,1155.2067,"[[50.6,1814],[50.7,1964],[50.8,2120],[32.6,2279],[22.8,2433],[22.8,2581],[22.8,2732],[16.3,2885],[14.4,3038],[14.1,3189],[14.1,3343],[14.1,3497],[14.1,3652],[14.1,3803],[14.1,3957],[14.1,4107],[14.1,4256],[14.1,4406],[14.1,4557],[14.1,4707],[14.1,4860],[14.1,5012],[14.1,5164],[14.1,5317],[14.1,5468],[14.1,5622],[4,5780],[1.2,5930],[1.3,6081],[1.4,6233],[1.4,6388],[1.3,6545],[1.3,6710],[1.3,6872],[1.3,7024],[1.3,7174],[1.3,7324],[1.3,7471],[1.3,7627],[1.3,7776],[1.3,7928],[1.3,8076],[1.3,8227],[1.3,8375],[1.3,8525],[1.3,8678],[1.3,8831],[1.3,8987],[1.3,9142],[1.3,9291],[1.3,9440],[1.3,9591],[1.3,9742],[1.3,9893],[1.3,10047],[1.3,10199],[1.3,10350],[1.3,10500],[1.3,10648],[1.3,10799],[1.3,10947],[1.3,11097],[1.3,11247],[1.3,11397],[1.3,11547],[1.3,11698],[1.3,11848],[1.3,11996],[1.3,12145],[1.3,12294],[1.3,12445],[1.3,12594],[1.3,12745],[1.3,12897],[1.3,13048],[1.3,13199],[1.3,13348],[1.3,13499],[1.3,13649],[1.3,13797],[1.3,13944],[1.3,14095],[1.3,14246],[1.3,14393],[1.3,14545],[1.3,14695],[1.3,14845],[1.3,14993],[1.3,15142],[1.3,15294],[1.3,15444],[1.3,15592],[1.3,15741],[1.3,15894],[1.3,16046],[1.3,16196],[1.3,16346],[1.3,16494],[1.3,16645],[1.3,16794],[1.3,16948],[1.3,17098],[1.3,17250],[1.3,17396],[1.3,17544],[1.3,17691],[1.3,17840],[1.3,17990],[1.3,18139],[1.3,18285],[1.3,18431],[1.3,18583],[1.3,18730],[1.3,18878],[1.3,19025],[1.3,19176],[1.3,19326],[1.3,19475],[1.3,19624],[1.3,19775],[1.3,19925],[1.3,20072],[1.3,20221],[1.3,20372],[1.3,20524],[1.3,20675],[1.3,20824],[1.3,20973],[1.3,21120],[1.3,21270],[1.3,21419],[1.3,21567],[1.3,21716],[1.3,21864],[1.3,22009],[1.3,22156],[1.3,22309],[1.3,22457],[1.3,22608],[1.3,22760],[1.3,22909],[8.4,23061],[13.5,23215],[26.5,23365],[37.4,23519],[43.1,23672],[50.2,23823],[53.8,23979],[54.7,24132],[54.7,24278],[56.1,24431],[58.3,24582],[58.3,24731],[58.9,24882],[58.9,25029],[58.9,25176],[58.9,25326],[58.9,25477],[58.9,25626],[58.9,25778],[58.9,25931],[58.9,26080],[58.9,26229],[58.9,26378],[58.9,26527],[58.9,26678],[62.6,26829],[67.4,26979],[68.8,27132],[68.8,27283],[68.8,27434],[69.7,27585],[70,27741],[70,27889],[70,28043],[70,28195],[70,28345],[70,28494],[70,28643],[70,28792],[70,28941],[70,29091],[70,29241],[70,29390],[70,29540],[70,29688],[70,29838],[70,29988],[70,30145],[70,30296],[70,30447],[70,30595],[70,30744],[70,30895],[70,31041],[70,31193],[70,31340],[70,31488],[70,31638],[70,31789],[70,31965],[70,32119],[70,32268],[70,32417],[70,32565],[70,32713]]",0,0,0,0,1,"Larry had recently lost his family, job and home, and was now living on his own in the park. He had most of his belongings, including some clothes, a blanket, and his mother’s special necklace. His family had been very important to him and he felt as though he did not have much going for him. One of his first days in the park he came across a family that did not have much food and looked very cold. He decided to give them some of his food and his blanket.","Larry had recently lost his family, job and home, and was now living on his own in the park. He had most of his belongings, including some clothes, a blanket, and his mother’s special necklace. His family had been very important to him and he felt as though he did not have much going for him. One of his first days in the park he came across a family that did not have much food and looked very cold. He decided to give them some of his food and his blanket.","Larry had recently lost his family, job and home, and was now living on his own in the park. He had most of his belongings, including some clothes, a blanket, and his mother’s special necklace. His family had been very important to him and he felt as though he did not have much going for him. One of his first days in the park he came across a family that did not have much food and looked very cold. He decided to give them some of his food and his blanket.","Larry had recently lost his family, job and home, and was now living on his own in the park. He had most of his belongings, including some clothes, a blanket, and his mother’s special necklace. His family had been very important to him and he felt as though he did not have much going for him. One of his first days in the park he came across a family that did not have much food and looked very cold. He decided to give them some of his food and his blanket.",,,,,,,,,,
,,,,,6774ba2b35bfe170ef2d7c87,2025-07-07_20h05.08.448,group3.4_multiperson,2023.2.2,Win32,6.666666667,686c2ebf0248f13bef9af11f,686c7b119c68b25cc72b788e,,,,,,,,,,,,,,,,,,,,,,,,,,,,,1160.9612,1,audio/Narrative7Situation9.wav,1163.0201,space,,,,1187.5255,1196.3665,5.486111111,6.3816,"[{""rating"":5.486111111111114,""responseTime"":6.381600000142953}]",space,7.9592,,1196.3665,Partially,50,1196.3686,,,[],,,,,,,,,,,6,2,3,9,1.9303,,,,,,,,,,,,,,,,1163.0201,3,1187.5255,"[[49.4,1327],[47.8,1475],[44.3,1625],[42.6,1776],[42.6,1925],[39.2,2075],[34.5,2226],[24.9,2377],[16.3,2527],[15.5,2679],[15.5,2825],[15.5,2973],[15.5,3121],[15.5,3270],[15.5,3419],[15.5,3571],[15.5,3719],[15.5,3867],[15.5,4018],[15.5,4166],[15.2,4315],[15.2,4465],[14.8,4613],[13.8,4765],[13.5,4914],[13.5,5062],[13.5,5212],[13.5,5362],[13.5,5513],[13.6,5663],[16.3,5813],[16.3,5959],[16.3,6108],[16.3,6256],[16.3,6403],[16.3,6568],[16.3,6715],[16.3,6867],[16.3,7017],[16.3,7172],[16.3,7323],[16.3,7470],[16.3,7629],[16.3,7775],[16.3,7926],[16.3,8073],[16.3,8221],[16.3,8369],[16.3,8517],[16.3,8665],[16.3,8817],[16.3,8965],[16.3,9117],[16.3,9274],[13.4,9422],[8.6,9575],[7.3,9725],[7.3,9876],[7.3,10023],[7.3,10174],[7.3,10326],[7.3,10475],[7.3,10627],[7.3,10787],[7.3,10938],[7.3,11085],[7.3,11232],[7.3,11381],[7.3,11528],[7.3,11680],[7.3,11830],[7.3,11978],[7.3,12127],[6.9,12276],[6.7,12425],[6.7,12571],[6.7,12719],[5.8,12868],[3,13019],[2.4,13170],[2.3,13317],[1.9,13469],[1.9,13620],[1.9,13767],[1.9,13917],[1.9,14070],[1.9,14221],[1.9,14366],[1.9,14514],[1.9,14663],[1.9,14814],[1.9,14960],[1.9,15107],[1.9,15256],[1.9,15408],[1.9,15555],[1.9,15702],[1.9,15848],[1.9,15994],[1.9,16141],[1.9,16291],[1.9,16438],[1.9,16587],[1.9,16733],[1.9,16883],[2.2,17031],[2.4,17179],[2.5,17334],[3.1,17486],[3.2,17639],[3.5,17788],[3.5,17937],[3.5,18084],[3.5,18234],[3.5,18395],[3.5,18542],[3.5,18693],[3.5,18843],[3.5,18991],[3.3,19143],[3.3,19291],[3.3,19440],[3,19587],[3,19731],[3,19878],[3,20028],[3,20178],[3,20325],[3,20474],[3,20626],[3,20772],[3,20923],[3,21070],[3,21218],[3,21371],[3,21526],[3,21673],[3,21820],[3,21968],[3,22115],[3,22264],[3,22414],[3,22563],[3,22711],[3,22859],[3,23008],[3,23156],[9.6,23306],[11.9,23457],[11.9,23604],[11.9,23755],[11.9,23904],[11.7,24053],[11.7,24201],[11.5,24353],[11.5,24505]]",0,1,1,1,1,"It was just another Sunday afternoon for Lucy, she was on her way to the farmer's market to pick up some produce. When she arrived at the old train depot that housed the market, she noticed two men fighting on the steps. Before she could call for help, one of the men crumpled to his knees. The other man dropped an object that appeared to be a knife and ran off. When Lucy approached the crime scene she realized that the man who had been murdered was the Mayor and that he had a gunshot wound.","One day at work, Margaret walked up to her partner, Al, to ask him to talk to the chief of staff at the local hospital where she worked as a nurse.","Luke always thought of himself as an honest man. That's why during his evening jog around the swamp, he pondered his recent affair with the receptionist at work. Luke looked up at the sky and asked God why he was so weak and unfaithful. He thought of the impact this would have on his family and told God of his conflicted feelings toward telling his wife Marta.","Linda and Amy had been best friends since kindergarten, they even found homes on the same street in the forest on the edge of town. Their biggest fight had been over who gets the bigger slice of cake, until Amy married Dan. Linda loathed Dan, she thought he was manipulative and had a violent temper. She only put up with him because Amy loved him. ",,,,,,,,,,
,,,,,6774ba2b35bfe170ef2d7c87,2025-07-07_20h05.08.448,group3.4_multiperson,2023.2.2,Win32,6.666666667,686c2ebf0248f13bef9af11f,686c7b119c68b25cc72b788e,,,,,,,,,,,,,,,,,,,,,,,,,,,,,1196.3689,1,audio/Narrative7Situation9.wav,1201.4805,,,,,1228.5674,1235.5385,58.26388889,4.3832,"[{""rating"":58.26388888888889,""responseTime"":4.3832000000477365}]",space,6.0876,0.0002,1235.5385,Partially,50,1235.5398,,,[],,,,,,,,,,,4,5,2,2,,,,,,,,,,,,,,,,,1201.4805,3,1228.5674,"[[5,1186],[4.7,1336],[5,1488],[5.1,1640],[5.3,1792],[5.8,1944],[6.3,2095],[6.3,2243],[6.5,2395],[6.5,2544],[22.1,2693],[26.5,2846],[34.3,2994],[34.3,3145],[48,3300],[57.6,3450],[60.6,3602],[61.7,3754],[61.5,3907],[61,4064],[61,4214],[61,4360],[61,4505],[61,4652],[61,4800],[61,4955],[61,5103],[61,5254],[61,5402],[61,5551],[61,5699],[61,5850],[61,5998],[61,6148],[61,6295],[61,6447],[61,6595],[61,6744],[61,6891],[61,7040],[61,7190],[61,7341],[61,7491],[61,7641],[61,7788],[61,7940],[61,8087],[61,8238],[61,8386],[61,8534],[61,8681],[61,8831],[61,8978],[61,9125],[61,9272],[61,9421],[61,9570],[61,9721],[61,9867],[61,10019],[61,10169],[61,10320],[61,10467],[61,10619],[61,10765],[61,10912],[61,11061],[61,11207],[61,11358],[61,11507],[61,11656],[61,11802],[61,11952],[61,12099],[61,12246],[61,12395],[61,12544],[61,12694],[61,12857],[61,13035],[61,13191],[61,13344],[61,13493],[61,13640],[61,13788],[61,13946],[61,14094],[61,14245],[61,14393],[61,14541],[61,14690],[61,14838],[61,14985],[61,15135],[61,15284],[61,15432],[61,15583],[61,15734],[61,15885],[61,16037],[61,16186],[61.2,16334],[61.3,16482],[61.4,16633],[61.4,16783],[61.5,16934],[61.7,17091],[61.8,17244],[61.9,17394],[62.2,17546],[62.5,17696],[62.8,17858],[62.8,18008],[63,18155],[63.1,18304],[63.1,18456],[63.1,18602],[63.2,18754],[63.2,18904],[63.2,19055],[63.2,19201],[63.2,19351],[63.2,19499],[63.2,19651],[63.2,19800],[63.2,19947],[63.2,20093],[63.2,20246],[63.2,20400],[63.2,20549],[63.2,20699],[63.2,20849],[63.2,21002],[63.2,21148],[63.2,21297],[63.2,21447],[63.2,21596],[63.2,21745],[63.2,21895],[63.2,22045],[63.2,22194],[63.2,22345],[63.2,22493],[63.2,22640],[63.2,22792],[63.2,22942],[63.2,23093],[63.2,23243],[63.2,23404],[63.2,23556],[63.2,23701],[63.2,23851],[63.2,24001],[63.2,24149],[63.2,24295],[63.2,24443],[63.2,24590],[63.2,24735],[63.2,24884],[63.2,25031],[63.2,25175],[63.2,25322],[63.2,25469],[63.2,25615],[63.2,25764],[63.2,25909],[63.2,26056],[63.2,26204],[63.2,26353],[63.2,26500],[63.2,26647],[63.2,26791],[63.2,26936],[63.2,27086]]",0,2,2,2,1,On the ground beside him was a pen that she had mistaken for a knife. Lucy looked for the gunman and saw a suspicious man in black with distinct pointy features darting into an alley across the street. Cops who were nearby chased the man who had fled and arrested him.,"While waiting outside the chief of staff's office, Al heard nondescript shouting and yelling, there was a loud clatter in the room and then an eerie silence. An unfamiliar employee ran hastily out of the office with a terrified look on their face.","Suddenly, Luke heard a woman call out his name and when he turned around he saw Carly, his receptionist, across the road with a gun in her hand. Carly ran to him and explained how she had followed him here to confess her love. She exclaimed if Luke didn't love her back that she would kill him and his family. Carly explained that the only way they could be together is to kill Marta.","This feeling of hate between Amy and Dan was mutual, Dan didn't like how much time his wife spent with her and thought Amy was creating distance between their marriage. That's why Dan decided to try and tarnish Linda's reputation with his wife, in hopes it would get rid of her. He came home one afternoon and exclaimed that Linda had tried to kiss him. Amy was taken aback and immediately called Linda to confront her about these accusations. When Linda arrived she denied having made a move on Dan, but discovered Dan had enlisted the help of his friend Will who said he witnessed it all happen.",,,,,,,,,,
,,,,,6774ba2b35bfe170ef2d7c87,2025-07-07_20h05.08.448,group3.4_multiperson,2023.2.2,Win32,6.666666667,686c2ebf0248f13bef9af11f,686c7b119c68b25cc72b788e,,,,,,,,,,,,,,,,,,,,,,,,,,,,,1235.5401,1,audio/Narrative7Situation9.wav,1237.5642,,,,,1260.5692,1263.4387,58.54166667,1.8069,"[{""rating"":58.54166666666667,""responseTime"":1.8068999998570234}]",space,1.9872,,1263.4387,Definitely yes,100,1263.4408,,,[],,,,,,,,,,,2,2,1,4,,,,,,,,,,,,,,,,,1237.5643,3,1260.5691,"[[51.4,3244],[22.8,3397],[24.8,3547],[52.8,3701],[53.3,3856],[53.4,4007],[53.4,4154],[53.4,4302],[53.4,4451],[53.4,4603],[53.4,4755],[53.4,4907],[53.4,5058],[53.4,5204],[53.4,5354],[53.4,5504],[53.4,5653],[53.4,5802],[53.4,5948],[53.4,6099],[53.4,6251],[53.4,6399],[53.4,6547],[53.4,6693],[53.4,6840],[53.4,6991],[53.4,7147],[53.4,7303],[53.4,7458],[53.4,7609],[53.4,7764],[53.4,7916],[53.4,8070],[53.4,8221],[53.4,8381],[53.4,8541],[53.4,8703],[53.4,8866],[53.4,9021],[53.4,9181],[53.4,9344],[53.4,9494],[53.4,9648],[53.4,9802],[53.4,9950],[53.4,10100],[53.4,10252],[53.4,10401],[53.4,10552],[53.4,10700],[53.4,10852],[53.4,10998],[53.4,11147],[53.4,11298],[53.4,11444],[53.4,11593],[53.4,11741],[55.8,11893],[58.1,12044],[61,12196],[61.3,12346],[61.5,12497],[61.9,12648],[62.1,12797],[62.1,12946],[62.1,13096],[62.1,13243],[62.1,13389],[62.1,13538],[62.1,13687],[62.1,13837],[62.1,13991],[62.1,14139],[62.1,14286],[62.1,14434],[62.1,14582],[62.1,14729],[62.1,14876],[62.1,15021],[62.1,15168],[62.1,15315],[62.1,15465],[62.1,15611],[62.1,15760],[62.1,15909],[62.1,16053],[62.1,16201],[62.1,16350],[62.1,16497],[62.1,16644],[62.1,16791],[62.1,16942],[62.1,17090],[62.1,17239],[62.1,17388],[62.1,17535],[62.1,17683],[62.1,17830],[62.1,17976],[62.1,18122],[62.1,18273],[62.1,18420],[62.1,18568],[62.1,18715],[62.1,18861],[62.1,19012],[62.1,19159],[62.1,19309],[62.1,19454],[62.1,19599],[62.1,19746],[62.1,19892],[62.1,20039],[62.1,20184],[62.1,20333],[62.1,20479],[62.1,20628],[62.1,20776],[62.1,20922],[62.1,21069],[62.1,21216],[62.1,21364],[62.1,21509],[59.1,21656],[58.5,21804],[57.4,21954],[55.2,22103],[55.1,22258],[55.1,22410],[55.1,22558],[55.1,22707],[55.1,22857],[55.1,23004]]",0,3,3,3,1,"But Lucy knew the charged man was innocent, which meant the killer was free. Lucy vowed to find out who the real murderer was and to stop him at all costs.","Al explained to the chief of staff that Margaret wanted to be excused from her absences last week. The chief of staff, Susan, revealed that she wanted to fire Margaret and never see her again. Susan and Al had been having an affair and she wanted Margaret ""out of the picture"". Al was conflicted, but agreed it would be for the best.","Luke thought of his child and felt like this was his only option. He agreed to the plan and called his wife to meet him at the swamp to watch the sunset with him. When she arrived, Marta called out for her husband, but found Carly waiting for her. She immediately drew her gun and shot her in the chest, knocking her unconscious.","Since it was their word against her own, she decided to go home and admit defeat. She knew how much it would hurt Amy to know the truth.",,,,,,,,,,
,,,,,6774ba2b35bfe170ef2d7c87,2025-07-07_20h05.08.448,group3.4_multiperson,2023.2.2,Win32,6.666666667,686c2ebf0248f13bef9af11f,686c7b119c68b25cc72b788e,,,,,,,,,,,,,,,,,,,,,,,,,,,,,1263.4411,1,audio/Narrative7Situation9.wav,1264.4526,,,,,1287.7882,1291.9105,55.76388889,3.2015,"[{""rating"":55.76388888888889,""responseTime"":3.2014999999998963}]",space,3.2372,,1291.9105,Definitely yes,100,1291.9118,,,[],,,,,,,,,,,1,1,3,3,,,,,,,,,,,,,,,,,1264.4527,3,1287.7882,"[[57.3,3243],[59.9,3393],[60.6,3545],[59.9,3697],[60.1,3847],[60.1,3998],[60.1,4147],[60.1,4292],[60.1,4444],[60.1,4596],[60.1,4745],[60.1,4894],[60.1,5041],[60.1,5189],[60.1,5339],[60.1,5485],[60.1,5634],[60.1,5781],[60.1,5930],[60.1,6078],[60.1,6225],[60.1,6370],[60.1,6521],[60.1,6669],[60.1,6820],[60.1,6965],[60.1,7112],[60.1,7257],[60.1,7403],[60.1,7550],[60.1,7697],[60.1,7846],[60.1,7993],[60.1,8141],[60.1,8290],[60.1,8436],[60.1,8584],[58.8,8734],[57.7,8886],[56.5,9038],[55.9,9188],[55.9,9338],[55.9,9490],[55.9,9640],[55.9,9789],[64.9,9964],[67.9,10132],[70.3,10293],[71.4,10462],[71.4,10618],[71.4,10770],[71.4,10920],[71.4,11074],[71.4,11223],[71.4,11371],[71.4,11528],[71.4,11680],[71.4,11829],[71.4,11982],[71.4,12132],[71.4,12282],[71.4,12429],[71.4,12580],[71.4,12730],[71.4,12878],[71.4,13030],[71.4,13176],[71.4,13325],[72.8,13473],[73.2,13623],[73.3,13772],[73.3,13924],[73.3,14075],[73.3,14231],[73.3,14379],[73.3,14530],[73.3,14682],[73.3,14834],[73.3,14981],[73.3,15130],[73.3,15280],[73.3,15429],[73.3,15579],[73.3,15729],[73.3,15879],[73.3,16029],[73.3,16180],[73.3,16333],[73.3,16478],[73.3,16627],[73.3,16775],[73.3,16921],[73.3,17068],[73.3,17217],[73.3,17372],[73.3,17518],[73.3,17664],[73.3,17813],[73.3,17961],[73.3,18111],[73.3,18260],[73.3,18409],[73.3,18560],[73,18710],[71.2,18865],[67.4,19016],[64.8,19168],[64,19317],[61.7,19466],[46.3,19625],[40,19780],[24.6,19932],[21.5,20084],[21.5,20237],[21.5,20391],[21,20542],[20.9,20694],[20.9,20841],[20.9,20988],[20.9,21134],[20.9,21280],[20.9,21425],[20.9,21572],[20.9,21719],[20.9,21869],[20.9,22014],[20.9,22163],[20.9,22306],[20.9,22459],[20.9,22604],[20.9,22751],[20.9,22896],[20.9,23043],[20.9,23188],[20.9,23335]]",0,4,4,4,1,"The next day the mayors successor, Mr. Smith, a man who was very unpopular due to his strong ties to the oil companies, took office. After a long day of brainstorming about the mysterious killer, Lucy decided to attend his welcome ceremony in the city. During the mayor's speech, she noticed one of the security guards looked strangely familiar. It dawned on her that this new mayor had motive to kill and that the man in black could've been the guard working for him.","Weeks passed and nobody had seen Margaret. Coworkers and friends searched the nearby city looking for her. One day on patrol in a nearby town, a police officer heard someone crying for help in the basement of a house and went in to investigate. Margaret yelled that she was being held captive and needed help.","Luke ran to Marta, and filled with regret over his decision to go along with Carly's plan, picked her up and rushed her to the hospital. The doctors tried to help Marta by taking her into emergency surgery but failed to save her life. Once the doctor called the time of death, Luke fell to his knees and sobbed over his rash decision.","Months later Dan had taken up a mistress, he was growing bored with his marriage ever since he got rid of Linda and was only still with Amy for her family's money. In a hotel room in a nearby town, Dan and his mistress, Nicole, conspired to secretly kill Amy while still obtaining her fortune.",,,,,,,,,,
,,,,,6774ba2b35bfe170ef2d7c87,2025-07-07_20h05.08.448,group3.4_multiperson,2023.2.2,Win32,6.666666667,686c2ebf0248f13bef9af11f,686c7b119c68b25cc72b788e,,,,,,,,,,,,,,,,,,,,,,,,,,,,,1291.9121,1,audio/Narrative7Situation9.wav,1292.9204,,,,,1320.9055,1324.5563,62.77777778,2.7364,"[{""rating"":62.77777777777778,""responseTime"":2.7363999998569852}]",space,2.7576,,1324.5565,Partially,50,1324.5585,,,[],,,,,,,,,,,3,1,3,3,,,,,,,,,,,,,,,,,1292.9205,3,1320.9053,"[[56.4,2831],[58.2,2981],[58.6,3133],[60.2,3286],[61.5,3438],[62.2,3591],[62.2,3741],[62.2,3891],[62.2,4041],[62.2,4190],[62.2,4343],[62.2,4491],[62.2,4639],[62.2,4789],[62.2,4935],[62.2,5086],[62.2,5235],[62.2,5385],[62.2,5535],[62.2,5686],[62.2,5835],[62.2,5983],[62.2,6134],[62.2,6282],[62.2,6431],[62.2,6583],[62.2,6734],[62.2,6882],[62.2,7030],[62.2,7179],[62.2,7328],[62.2,7478],[62.2,7629],[62.2,7780],[62.2,7929],[62.2,8078],[62.2,8228],[62.2,8377],[62.2,8524],[62.2,8673],[62.2,8820],[62.2,8968],[62.2,9115],[62.2,9265],[62.2,9412],[62.2,9561],[62.2,9709],[62.2,9862],[62.2,10012],[62.2,10161],[62.2,10309],[62.2,10459],[62.2,10610],[62.2,10761],[62.2,10912],[62.2,11060],[62.2,11210],[62.2,11359],[62.2,11512],[62.2,11662],[62.2,11812],[62.2,11960],[62.2,12111],[62.2,12260],[62.2,12410],[62.2,12560],[62.2,12707],[62.2,12855],[62.2,13000],[62.2,13148],[62.2,13298],[62.2,13447],[64.5,13597],[65.8,13755],[66,13919],[66.5,14086],[67.4,14237],[67.4,14386],[67.4,14533],[67.4,14683],[67.4,14836],[67.4,14985],[67.4,15141],[67.4,15294],[67.4,15443],[67.4,15592],[67.4,15741],[67.4,15889],[67.4,16047],[67.4,16239],[67.4,16392],[67.4,16543],[67.4,16704],[67.4,16871],[67.4,17034],[67.4,17210],[67.4,17377],[67.4,17540],[67.4,17715],[67.4,17869],[67.4,18037],[67.4,18194],[67.4,18346],[67.4,18495],[67.4,18655],[67.4,18803],[67.4,18952],[67.4,19105],[67.4,19256],[67.4,19404],[67.4,19557],[67.4,19705],[67.4,19856],[67.4,20006],[67.4,20154],[67.4,20304],[67.4,20452],[67.4,20602],[67.4,20753],[67.4,20907],[67.4,21055],[67.4,21207],[67.4,21357],[67.4,21505],[67.4,21655],[67.4,21807],[67.4,21958],[67.4,22106],[67.4,22257],[67.4,22406],[67.4,22555],[67.4,22706],[67.4,22855],[67.4,23007],[67.4,23156],[67.4,23305],[67.4,23455],[67.4,23611],[67.4,23763],[67.4,23913],[67.4,24065],[67.4,24226],[67.4,24376],[67.4,24522],[67.4,24667],[67.4,24813],[67.4,24962],[67.4,25110],[67.4,25268],[67.4,25416],[67.4,25563],[67.4,25712],[67.4,25863],[67.4,26011],[67.4,26160],[67.4,26315],[67.4,26473],[67.4,26630],[67.4,26790],[67.4,26939],[67.4,27086],[67.4,27236],[67.4,27389],[67.4,27538],[67.4,27686],[67.4,27837],[67.4,27984]]",0,5,5,5,1,"Lucy decided to confront the mayor after his ceremony. But when she tried to accuse him, the security guards threatened to hurt her if she went to the police with her theory. Before she could say another word a man pulled her from the crowd.","In a rush, the police officer broke down the door and was attacked by a man in the house. Without hesitation, the officer shot the man and the man fell to the floor.","He then saw Marta's brother Zach enter the hospital. Zach ran over to Luke and punched him. Zach screamed at Luke that it's his fault his sister is dead and that he knew about the affair. Luke quickly tried to explain that he felt horrible about Marta's death and that Carly had manipulated him into going along with her plan. Zach, still angry at his brother-in-law, realized his mistake in judgement and shifted his anger toward Carly.","They decided to have Dan invite her to the hotel room under the guise of a romantic date. Once she arrived, Nicole was there to tie her up. Once she was secured to a chair, Nicole demanded Amy's bank passwords. Amy obliged and gave her access to her bank accounts.",,,,,,,,,,
