consent.started,consent.stopped,consentResponse.keys,consentResponse.rt,consentResponse.duration,participantID,date,expName,psychopyVersion,OS,frameRate,STUDY_ID,SESSION_ID,opening1.started,opening1.stopped,keyEndingOpening1.keys,keyEndingOpening1.rt,keyEndingOpening1.duration,volumeAdjust.started,volumeAdjust.stopped,endingAdjust.keys,endingAdjust.rt,endingAdjust.duration,opening2.started,opening2.stopped,keyEndingOpening.keys,keyEndingOpening.rt,keyEndingOpening.duration,mouse.x,mouse.y,mouse.leftButton,mouse.midButton,mouse.rightButton,mouse.time,instructionLoop.thisRepN,instructionLoop.thisTrialN,instructionLoop.thisN,instructionLoop.thisIndex,instructionLoop.ran,readyForAudio.started,readyForAudio.stopped,fixation.started,run,audio_played,fixation.stopped,endPractice.keys,audioPre.started,audioPre.stopped,continuousResponses_audio,intRating.started,intRating.stopped,intQuestionSlider.response,intQuestionSlider.rt,intQuestionSlider.history,confirmResponse.keys,confirmResponse.rt,confirmResponse.duration,catchQuestion.started,catch_label,catch_value,catchQuestion.stopped,catchQuestionSlider.response,catchQuestionSlider.rt,catchQuestionSlider.history,confirmResponse_2.keys,audioRunLoop.thisRepN,audioRunLoop.thisTrialN,audioRunLoop.thisN,audioRunLoop.thisIndex,audioRunLoop.ran,conditions1_1,conditions2_1,conditions1_2,conditions2_2,dur1_1,dur2_1,dur1_2,dur2_2,endPractice.rt,endPractice.duration,confirmResponse_2.rt,confirmResponse_2.duration,runIntervalBreak.started,runIntervalBreak.stopped,endingBreakKey.keys,endingBreakKey.rt,endingBreakKey.duration,connection.started,connection.stopped,connectionEnding.keys,connectionEnding.rt,connectionEnding.duration,readyForText.started,readyForText.stopped,textPre.started,run_dup,textPre.stopped,continuousResponses_text,textRunLoop.thisRepN,textRunLoop.thisTrialN,textRunLoop.thisN,textRunLoop.thisIndex,textRunLoop.ran,text1_1,text1_2,text2_1,text2_2,runBreakText.started,runBreakText.stopped,endingBreakKey_2.keys,endingBreakKey_2.rt,endingBreakKey_2.duration,ending.started,ending.stopped,endingEnding.keys,endingEnding.rt,endingEnding.duration
0.0003,9.9883,y,9.6646,,67d72063e9c2d9c1c2f242b4,2025-07-07_22h01.27.811,group3.4_multiperson,2023.2.2,Win32,60.24096386,686c2ebf0248f13bef9af11f,686c7b9f054559357cdf5945,,,,,,,,,,,,,,,,,,,,,,,,,,,,,,,,,,,,,,,,,,,,,,,,,,,,,,,,,,,,,,,,,,,,,,,,,,,,,,,,,,,,,,,,,,,,,,,,,,,,,,,,
,,,,,67d72063e9c2d9c1c2f242b4,2025-07-07_22h01.27.811,group3.4_multiperson,2023.2.2,Win32,60.24096386,686c2ebf0248f13bef9af11f,686c7b9f054559357cdf5945,9.9887,29.5159,space,19.4636,,,,,,,,,,,,,,,,,,,,,,,,,,,,,,,,,,,,,,,,,,,,,,,,,,,,,,,,,,,,,,,,,,,,,,,,,,,,,,,,,,,,,,,,,,,,,,,,,,,,
,,,,,67d72063e9c2d9c1c2f242b4,2025-07-07_22h01.27.811,group3.4_multiperson,2023.2.2,Win32,60.24096386,686c2ebf0248f13bef9af11f,686c7b9f054559357cdf5945,,,,,,29.516,50.9929,space,21.1519,,,,,,,,,,,,,,,,,,,,,,,,,,,,,,,,,,,,,,,,,,,,,,,,,,,,,,,,,,,,,,,,,,,,,,,,,,,,,,,,,,,,,,,,,,,,,,,
,,,,,67d72063e9c2d9c1c2f242b4,2025-07-07_22h01.27.811,group3.4_multiperson,2023.2.2,Win32,60.24096386,686c2ebf0248f13bef9af11f,686c7b9f054559357cdf5945,,,,,,,,,,,51.0012,77.3521,space,26.3162,,[],[],[],[],[],[],0,0,0,0,1,,,,,,,,,,,,,,,,,,,,,,,,,,,,,,,,,,,,,,,,,,,,,,,,,,,,,,,,,,,,,,,,,,,,,,,,,,,,,,
,,,,,67d72063e9c2d9c1c2f242b4,2025-07-07_22h01.27.811,group3.4_multiperson,2023.2.2,Win32,60.24096386,686c2ebf0248f13bef9af11f,686c7b9f054559357cdf5945,,,,,,,,,,,77.3528,120.9726,space,43.4906,,[],[],[],[],[],[],1,0,1,0,1,,,,,,,,,,,,,,,,,,,,,,,,,,,,,,,,,,,,,,,,,,,,,,,,,,,,,,,,,,,,,,,,,,,,,,,,,,,,,,
,,,,,67d72063e9c2d9c1c2f242b4,2025-07-07_22h01.27.811,group3.4_multiperson,2023.2.2,Win32,60.24096386,686c2ebf0248f13bef9af11f,686c7b9f054559357cdf5945,,,,,,,,,,,120.9733,153.0296,space,32.0011,,[],[],[],[],[],[],2,0,2,0,1,,,,,,,,,,,,,,,,,,,,,,,,,,,,,,,,,,,,,,,,,,,,,,,,,,,,,,,,,,,,,,,,,,,,,,,,,,,,,,
,,,,,67d72063e9c2d9c1c2f242b4,2025-07-07_22h01.27.811,group3.4_multiperson,2023.2.2,Win32,60.24096386,686c2ebf0248f13bef9af11f,686c7b9f054559357cdf5945,,,,,,,,,,,153.0302,220.06,space,67.0031,,[],[],[],[],[],[],3,0,3,0,1,,,,,,,,,,,,,,,,,,,,,,,,,,,,,,,,,,,,,,,,,,,,,,,,,,,,,,,,,,,,,,,,,,,,,,,,,,,,,,
,,,,,67d72063e9c2d9c1c2f242b4,2025-07-07_22h01.27.811,group3.4_multiperson,2023.2.2,Win32,60.24096386,686c2ebf0248f13bef9af11f,686c7b9f054559357cdf5945,,,,,,,,,,,220.0608,254.5668,space,34.4694,,[],[],[],[],[],[],4,0,4,0,1,,,,,,,,,,,,,,,,,,,,,,,,,,,,,,,,,,,,,,,,,,,,,,,,,,,,,,,,,,,,,,,,,,,,,,,,,,,,,,
,,,,,67d72063e9c2d9c1c2f242b4,2025-07-07_22h01.27.811,group3.4_multiperson,2023.2.2,Win32,60.24096386,686c2ebf0248f13bef9af11f,686c7b9f054559357cdf5945,,,,,,,,,,,254.5674,286.9405,space,32.3418,,[],[],[],[],[],[],5,0,5,0,1,,,,,,,,,,,,,,,,,,,,,,,,,,,,,,,,,,,,,,,,,,,,,,,,,,,,,,,,,,,,,,,,,,,,,,,,,,,,,,
,,,,,67d72063e9c2d9c1c2f242b4,2025-07-07_22h01.27.811,group3.4_multiperson,2023.2.2,Win32,60.24096386,686c2ebf0248f13bef9af11f,686c7b9f054559357cdf5945,,,,,,,,,,,,,,,,,,,,,,,,,,,286.9445,289.5233,289.5576,1,audio/Narrative13Situation2.wav,291.5729,,291.5731,321.3303,"[[30.8,9412],[30.8,9496],[30.8,9579],[30.8,9662],[30.8,9745],[39.8,10746],[50.1,10829],[56.9,10912],[60.4,10995],[60.4,11079],[61.7,11162],[63,11245],[65.4,11329],[67.2,11412],[67.6,11495],[68,11578],[68.2,11662],[68.2,11745],[68.2,11828],[68.2,11912],[68.2,11995],[68.2,12078],[68.2,12162],[68.2,12245],[68.2,12328],[68.2,12411],[68.2,12495],[68.2,12578],[68.2,12662],[68.2,12745],[68.2,12828],[68.2,12912],[68.2,12994],[68.2,13078],[68.2,13161],[68.2,13244],[68.2,13328],[68.2,13411],[68.2,13495],[68.2,13578],[68.2,13661],[68.2,13744],[68.2,13828],[68.2,13911],[68.2,13994],[68.2,14078],[68.2,14161],[68.2,14244],[68.2,14328],[68.2,14411],[68.2,14495],[68.2,14578],[68.2,14661],[68.2,14744],[68.2,14827],[68.2,14911],[68.2,14994],[68.2,15077],[68.2,15161],[68.2,15244],[68.2,15327],[68.2,15411],[68.2,15494],[68.2,15577],[68.2,15661],[68.2,15744],[68.2,15827],[68.2,15911],[68.2,15994],[68.2,16077],[68.2,16160],[68.2,16244],[68.2,16327],[68.2,16410],[68.2,16493],[68.2,16577],[68.2,16660],[68.2,16744],[68.2,16827],[68.2,16910],[68.2,16994],[68.2,17077],[68.2,17160],[68.2,17243],[68.2,17327],[68.2,17410],[68.2,17493],[68.2,17576],[68.2,17660],[68.2,17743],[68.2,17827],[68.2,17910],[68.2,17993],[68.2,18077],[68.2,18160],[68.2,18243],[68.2,18326],[68.2,18410],[68.2,18493],[68.2,18576],[68.2,18660],[68.2,18743],[68.2,18826],[68.2,18910],[68.2,18993],[68.2,19076],[68.2,19159],[68.2,19243],[68.2,19326],[68.2,19409],[68.2,19493],[68.2,19576],[68.2,19659],[68.2,19742],[68.2,19826],[68.2,19909],[68.2,19993],[68.2,20076],[68.2,20160],[68.2,20242],[68.2,20326],[68.2,20409],[68.2,20492],[68.2,20575],[68.2,20659],[68.2,20742],[68.2,20826],[68.2,20909],[68.2,20992],[68.2,21076],[68.2,21159],[68.2,21242],[68.2,21325],[68.2,21409],[68.2,21492],[68.2,21575],[68.2,21659],[68.2,21742],[68.2,21826],[68.2,21909],[68.2,21992],[68.2,22075],[68.2,22158],[68.2,22242],[68.2,22325],[68.2,22409],[68.2,22492],[68.2,22575],[68.2,22658],[68.2,22742],[68.2,22825],[68.2,22908],[68.2,22992],[68.2,23075],[68.2,23158],[68.2,23242],[68.2,23325],[68.2,23408],[68.2,23492],[68.2,23575],[68.2,23658],[68.2,23741],[68.2,23825],[68.2,23908],[68.2,23991],[68.2,24075],[68.2,24158],[68.2,24241],[68.2,24324],[68.2,24408],[68.2,24491],[68.2,24575],[68.2,24658],[68.2,24741],[68.2,24824],[68.2,24908],[68.2,24992],[68.2,25074],[68.2,25158],[68.2,25241],[68.2,25324],[68.2,25408],[68.2,25491],[68.2,25574],[68.2,25658],[68.2,25741],[68.2,25824],[68.2,25908],[68.2,25991],[68.2,26074],[68.2,26157],[68.2,26240],[68.2,26324],[68.2,26408],[68.2,26491],[68.2,26574],[68.2,26657],[68.2,26741],[68.2,26824],[68.2,26907],[68.2,26991],[68.2,27074],[68.2,27157],[68.2,27241],[68.2,27324],[68.2,27407],[68.2,27490],[68.2,27574],[68.2,27658],[68.2,27740],[68.2,27824],[68.2,27907],[68.2,27990],[68.2,28074],[68.2,28157],[68.2,28240],[68.2,28323],[68.2,28407],[68.2,28490],[68.2,28574],[68.2,28657],[68.2,28740],[68.2,28823],[68.2,28907],[68.2,28990],[68.2,29073],[68.2,29157],[68.2,29240],[68.2,29323],[68.2,29406],[68.2,29490],[68.2,29573],[68.2,29657],[68.2,29740]]",321.3307,349.1224,71.77083492,17.6982,"[{""rating"":71.77083492279053,""responseTime"":17.698199999988105}]",space,27.248,,349.1229,Definitely yes,100,349.1304,,,[],,0,0,0,0,1,audio/Narrative13Situation2.wav,audio/Narrative13Situation2.wav,audio/Narrative13Situation2.wav,audio/Narrative13Situation2.wav,2,2,2,2,,,,,,,,,,,,,,,,,,,,,,,,,,,,,,,,,,,,,,,
,,,,,67d72063e9c2d9c1c2f242b4,2025-07-07_22h01.27.811,group3.4_multiperson,2023.2.2,Win32,60.24096386,686c2ebf0248f13bef9af11f,686c7b9f054559357cdf5945,,,,,,,,,,,,,,,,,,,,,,,,,,,,,349.131,1,audio/Narrative7Situation1.wav,354.354,space,354.3541,410.254,"[[74.4,10247],[74.7,10329],[75.1,10412],[75.1,10496],[76.4,10579],[76.4,10663],[76.4,10746],[76.4,10829],[76.4,10913],[76.4,10996],[76.4,11079],[76.4,11162],[76.4,11246],[76.4,11329],[76.4,11412],[76.5,11496],[77.8,11579],[78.1,11662],[79.1,11746],[79.8,11829],[79.9,11912],[80.5,11995],[81.1,12079],[81.7,12163],[82.6,12245],[82.6,12329],[83.6,12412],[84,12495],[84.7,12579],[84.9,12662],[84.9,12745],[84.9,12829],[85.1,12912],[85.1,12996],[85.1,13079],[85.1,13162],[85.1,13245],[85.1,13328],[85.1,13412],[85.1,13495],[85.1,13579],[85.1,13662],[85.1,13745],[85.1,13828],[85.1,13912],[85.1,13995],[85.3,14079],[87,14162],[89,14245],[91,14328],[91,14412],[93.8,14495],[93.8,14578],[93.8,14661],[94,14745],[94.3,14828],[94.3,14912],[94.3,14995],[94.3,15078],[94.3,15162],[94.3,15245],[94.3,15328],[94.3,15411],[94.3,15495],[94.3,15578],[94.3,15661],[94.3,15745],[94.3,15828],[94.3,15911],[94.3,15994],[94.3,16077],[94.3,16161],[94.3,16244],[94.3,16328],[94.3,16411],[94.3,16494],[94.3,16578],[95.1,16661],[95.8,16744],[96.6,16828],[96.9,16911],[98.2,16995],[98.6,17077],[99,17161],[99.7,17244],[99.7,17327],[99.7,17410],[99.7,17494],[99.7,17577],[99.7,17660],[99.7,17744],[99.7,17827],[99.7,17911],[99.7,17994],[99.7,18077],[99.7,18160],[99.7,18244],[99.7,18327],[99.7,18410],[99.7,18494],[99.7,18577],[99.7,18660],[99.7,18744],[99.7,18827],[99.7,18910],[99.7,18994],[99.7,19077],[99.7,19160],[99.7,19244],[99.7,19327],[99.7,19410],[99.7,19493],[99.7,19577],[99.7,19660],[99.7,19743],[99.7,19827],[99.7,19910],[99.7,19993],[99.7,20077],[99.7,20160],[99.7,20243],[99.7,20327],[99.7,20410],[99.7,20493],[99.7,20576],[99.7,20660],[99.7,20743],[99.7,20827],[99.7,20910],[99.7,20993],[99.7,21076],[99.7,21160],[99.7,21243],[99.7,21327],[99.7,21410],[99.7,21493],[99.7,21576],[99.7,21660],[99.7,21742],[99.7,21826],[99.7,21909],[99.7,21992],[99.7,22076],[99.7,22159],[99.7,22242],[99.7,22326],[99.7,22409],[99.7,22493],[99.7,22576],[99.7,22659],[99.7,22743],[99.7,22826],[99.7,22909],[99.7,22992],[99.7,23076],[99.7,23159],[99.7,23242],[99.7,23326],[99.7,23409],[99.7,23492],[99.7,23576],[99.7,23659],[99.7,23742],[99.7,23826],[99.7,23909],[99.7,23992],[99.7,24076],[99.7,24158],[99.7,24242],[99.7,24325],[99.7,24408],[99.7,24492],[99.7,24575],[99.7,24658],[99.7,24742],[99.7,24825],[99.7,24908],[99.7,24992],[99.7,25075],[99.7,25158],[99.7,25242],[99.7,25325],[99.7,25408],[99.7,25492],[99.7,25575],[99.7,25658],[99.7,25742],[99.7,25825],[99.7,25908],[99.7,25992],[99.7,26075],[99.7,26158],[99.7,26241],[99.7,26325],[99.7,26408],[99.7,26491],[99.7,26574],[99.7,26658],[99.7,26742],[99.7,26825],[99.7,26908],[99.7,26991],[99.7,27074],[99.7,27158],[99.7,27241],[99.7,27324],[99.7,27408],[99.7,27491],[99.7,27574],[99.7,27658],[99.7,27741],[99.7,27824],[99.7,27907],[99.7,27991],[99.7,28074],[99.7,28158],[99.7,28241],[99.7,28324],[99.7,28408],[99.7,28491],[99.7,28574],[99.7,28657],[99.7,28740],[99.7,28824],[99.7,28907],[99.7,28991],[99.7,29074],[99.7,29157],[99.7,29240],[99.7,29324],[99.7,29407],[99.7,29490],[99.7,29574],[99.7,29657],[99.7,29740],[99.7,29824],[99.7,29907],[99.7,29990],[99.7,30074],[99.7,30157],[99.7,30240],[99.7,30324],[99.7,30407],[99.7,30490],[99.7,30573],[99.7,30657],[99.7,30740],[99.7,30823],[99.7,30907],[99.7,30990],[99.7,31073],[99.7,31157],[99.7,31240],[99.7,31323],[99.7,31406],[99.7,31490],[99.7,31573],[99.7,31656],[99.7,31740],[99.7,31823],[99.7,31907],[99.7,31990],[99.7,32073],[99.7,32156],[99.7,32240],[99.7,32323],[99.7,32406],[99.7,32489],[99.7,32573],[99.7,32656],[99.7,32739],[99.7,32823],[99.7,32906],[99.7,32990],[99.7,33073],[99.7,33156],[99.7,33239],[99.7,33323],[99.7,33406],[99.7,33489],[99.7,33573],[99.7,33656],[99.7,33739],[99.7,33822],[99.7,33906],[99.7,33989],[99.7,34072],[99.7,34156],[99.7,34239],[99.7,34323],[99.7,34406],[99.7,34489],[99.7,34572],[99.7,34656],[99.7,34739],[99.7,34822],[99.7,34905],[99.7,34989],[99.7,35072],[99.7,35155],[99.7,35239],[99.7,35322],[99.7,35406],[99.7,35489],[99.7,35572],[99.7,35655],[99.7,35739],[99.7,35822],[99.7,35906],[99.7,35989],[99.7,36072],[99.7,36155],[99.7,36238],[99.7,36322],[99.7,36405],[99.7,36489],[99.7,36572],[99.7,36655],[99.7,36739],[99.7,36822],[99.7,36905],[99.7,36989],[99.7,37072],[99.7,37155],[99.7,37238],[99.7,37321],[99.7,37405],[99.7,37488],[99.7,37571],[99.7,37655],[99.7,37738],[99.7,37822],[99.7,37905],[99.7,37988],[99.7,38071],[99.7,38155],[99.7,38238],[99.7,38321],[99.7,38404],[99.7,38488],[99.7,38571],[99.7,38654],[99.7,38738],[99.7,38821],[99.7,38904],[99.7,38988],[99.7,39071],[99.7,39154],[99.7,39237],[99.7,39321],[99.7,39404],[99.7,39487],[99.7,39571],[99.7,39654],[99.7,39737],[99.7,39821],[99.7,39904],[99.7,39987],[99.7,40071],[99.7,40154],[99.7,40238],[99.7,40321],[99.7,40404],[99.7,40487],[99.7,40571],[99.7,40654],[99.7,40737],[99.7,40821],[99.7,40904],[99.7,40987],[99.7,41070],[99.7,41154],[99.7,41237],[99.7,41320],[99.7,41404],[99.7,41487],[99.7,41571],[99.7,41654],[99.7,41737],[99.7,41820],[99.7,41903],[99.7,41987],[99.7,42070],[99.7,42153],[99.7,42237],[99.7,42320],[99.7,42403],[99.7,42487],[99.7,42570],[99.7,42653],[99.7,42737],[99.7,42820],[99.7,42903],[99.7,42986],[99.7,43070],[99.7,43153],[99.7,43236],[99.7,43320],[99.7,43403],[99.7,43486],[99.7,43570],[99.7,43653],[99.7,43736],[99.7,43819],[99.7,43903],[99.7,43986],[99.7,44069],[99.7,44153],[99.7,44236],[99.7,44319],[99.7,44403],[99.7,44486],[99.7,44569],[99.7,44653],[99.7,44736],[99.7,44820],[99.7,44903],[99.7,44986],[99.7,45069],[99.7,45153],[99.7,45236],[99.7,45319],[99.7,45402],[99.7,45486],[99.7,45569],[99.7,45653],[99.7,45735],[99.7,45819],[99.7,45902],[99.7,45985],[99.7,46069],[99.7,46152],[99.7,46236],[99.7,46319],[99.7,46402],[99.7,46485],[99.7,46569],[99.7,46652],[99.7,46735],[99.7,46819],[99.7,46902],[99.7,46985],[99.7,47069],[99.7,47152],[99.7,47235],[99.7,47319],[99.7,47402],[99.7,47485],[99.7,47569],[99.7,47652],[99.7,47735],[99.7,47818],[99.7,47902],[99.7,47985],[99.7,48068],[99.7,48152],[99.7,48235],[99.7,48318],[99.7,48401],[99.7,48485],[99.7,48568],[99.7,48651],[99.7,48735],[99.7,48818],[99.7,48901],[99.7,48985],[99.7,49068],[99.7,49151],[99.7,49235],[99.7,49318],[99.7,49401],[99.7,49485],[99.7,49568],[99.7,49651],[99.7,49735],[99.7,49818],[99.7,49901],[99.7,49985],[99.7,50068],[99.7,50151],[99.7,50234],[99.7,50318],[99.7,50401],[99.7,50484],[99.7,50568],[99.7,50651],[99.7,50734],[99.7,50817],[99.7,50901],[99.7,50984],[99.7,51068],[99.7,51151],[99.7,51234],[99.7,51317],[99.7,51401],[99.7,51484],[99.7,51567],[99.7,51651],[99.7,51734],[99.7,51818],[99.7,51901],[99.7,51984],[99.7,52067],[99.7,52151],[99.7,52234],[99.7,52317],[99.7,52400],[99.7,52484],[99.7,52567],[99.7,52651],[99.7,52733],[99.7,52817],[99.7,52900],[99.7,52983],[99.7,53067],[99.7,53150],[99.7,53233],[99.7,53317],[99.7,53400],[99.7,53483],[99.7,53567],[99.7,53650],[99.7,53733],[99.7,53817],[99.7,53900],[99.7,53983],[99.7,54067],[99.7,54150],[99.7,54233],[99.7,54317],[99.7,54400],[99.7,54483],[99.7,54567],[99.7,54650],[99.7,54733],[99.7,54817],[99.7,54900],[99.7,54983],[99.7,55066],[99.7,55150],[99.7,55233],[99.7,55316],[99.7,55400],[99.7,55483],[99.7,55566],[99.7,55650],[99.7,55733],[99.7,55816],[99.7,55899]]",410.2545,420.1011,99.79166985,7.8784,"[{""rating"":99.79166984558105,""responseTime"":7.878399999976182}]",space,9.3013,,420.1012,Partially,50,420.1056,,,[],,0,1,1,1,1,audio/Narrative7Situation1.wav,audio/Narrative8Situation1.wav,audio/Narrative5Situation1.wav,audio/Narrative6Situation1.wav,2,5,5,2,5.1889,,,,,,,,,,,,,,,,,,,,,,,,,,,,,,,,,,,,,,
,,,,,67d72063e9c2d9c1c2f242b4,2025-07-07_22h01.27.811,group3.4_multiperson,2023.2.2,Win32,60.24096386,686c2ebf0248f13bef9af11f,686c7b9f054559357cdf5945,,,,,,,,,,,,,,,,,,,,,,,,,,,,,420.106,1,audio/Narrative7Situation2.wav,423.1168,,423.1169,430.5987,[],430.5989,436.4297,96.66666985,3.7068,"[{""rating"":96.66666984558105,""responseTime"":3.7067999999522954}]",space,5.2906,,436.4297,Partially,50,436.4328,,,[],,0,2,2,2,1,audio/Narrative7Situation2.wav,audio/Narrative8Situation2.wav,audio/Narrative5Situation2.wav,audio/Narrative6Situation2.wav,3,3,3,3,,,,,,,,,,,,,,,,,,,,,,,,,,,,,,,,,,,,,,,
,,,,,67d72063e9c2d9c1c2f242b4,2025-07-07_22h01.27.811,group3.4_multiperson,2023.2.2,Win32,60.24096386,686c2ebf0248f13bef9af11f,686c7b9f054559357cdf5945,,,,,,,,,,,,,,,,,,,,,,,,,,,,,436.4332,1,audio/Narrative7Situation3.wav,444.4442,,444.4442,453.7083,"[[999,0],[999,83],[999,166],[999,249],[999,333],[999,416],[999,499],[999,582],[999,666],[999,750],[999,833],[999,916],[999,999],[999,1083],[999,1166],[999,1249],[999,1333],[999,1416],[999,1499],[999,1582],[999,1665],[999,1749],[999,1832],[999,1915],[999,1999],[999,2082],[999,2165],[999,2249],[999,2332],[999,2415],[999,2499],[999,2582],[999,2665],[999,2748],[999,2832],[999,2915],[999,2999],[999,3082],[999,3165],[999,3249],[999,3332],[999,3415],[999,3498],[999,3582],[999,3665],[999,3748],[999,3832],[999,3915],[999,3998],[999,4082],[999,4165],[79.1,4248],[78.7,4332],[78.5,4415],[78.4,4499],[78.4,4582],[78.4,4665],[78.4,4749],[78.4,4831],[78.4,4914],[78.4,4998],[78.4,5081],[78.4,5165],[78.4,5248],[78.4,5331],[78.4,5414],[78.4,5498],[78.4,5581],[78.4,5664],[78.4,5748],[78.4,5831],[78.4,5914],[78.4,5998],[78.4,6081],[78.4,6164],[78.4,6247],[78.4,6331],[78.4,6414],[78.4,6497],[78.4,6581],[78.4,6664],[78.4,6748],[78.4,6831],[78.4,6915],[78.4,6997],[78.4,7081],[78.4,7164],[78.4,7248],[78.4,7331],[78.4,7414],[78.4,7497],[78.4,7580],[78.4,7664],[78.4,7747],[78.4,7830],[78.4,7914],[78.4,7997],[78.4,8080],[78.4,8164],[78.4,8247],[78.4,8330],[78.4,8414],[78.4,8497],[78.4,8580],[78.4,8664],[78.4,8747],[78.4,8830],[78.4,8913],[78.4,8997],[78.4,9080],[78.4,9163],[78.4,9247]]",453.7085,458.9566,78.74999841,3.7306,"[{""rating"":78.7499984105428,""responseTime"":3.7305999999642268}]",space,4.7058,,458.9566,Partially,50,458.9592,,,[],,0,3,3,3,1,audio/Narrative7Situation3.wav,audio/Narrative8Situation3.wav,audio/Narrative5Situation3.wav,audio/Narrative6Situation3.wav,8,4,3,5,,,,,,,,,,,,,,,,,,,,,,,,,,,,,,,,,,,,,,,
,,,,,67d72063e9c2d9c1c2f242b4,2025-07-07_22h01.27.811,group3.4_multiperson,2023.2.2,Win32,60.24096386,686c2ebf0248f13bef9af11f,686c7b9f054559357cdf5945,,,,,,,,,,,,,,,,,,,,,,,,,,,,,458.9596,1,audio/Narrative7Situation4.wav,461.9723,,461.9723,473.6856,"[[79.2,2749],[79.4,2832],[84.1,2916],[84.4,2999],[84.4,3082],[88.3,3166],[88.9,3249],[89.3,3332],[93.6,3415],[97.6,3499],[99.2,3582],[99.5,3665],[99.5,3748],[99.5,3832],[99.5,3915],[99.5,3998],[99.5,4081],[99.5,4165],[99.5,4248],[99.5,4332],[99.5,4415],[99.5,4499],[99.5,4581],[99.5,4665],[99.5,4748],[99.5,4832],[99.5,4915],[99.5,4998],[99.5,5081],[99.5,5165],[99.5,5248],[99.5,5331],[99.5,5415],[99.5,5498],[99.5,5581],[99.5,5664],[99.5,5748],[99.5,5831],[99.5,5914],[99.5,5998],[99.5,6081],[99.5,6164],[95.4,6248],[91.6,6331],[75.6,6415],[65.1,6498],[61.4,6581],[48.5,6665],[43.9,6748],[40.4,6831],[37.9,6915],[33.8,6998],[29.1,7081],[27.7,7164],[26.9,7248],[25.1,7331],[23,7414],[20.9,7497],[20.9,7581],[20.9,7664],[20.2,7748],[17.4,7831],[16.5,7914],[16.5,7997],[16.5,8080],[16.5,8164],[16.5,8247],[16.5,8330],[16.5,8414],[16.5,8497],[16.5,8580],[16.5,8664],[16.5,8747],[16.5,8830],[16.5,8914],[16.5,8997],[16.5,9080],[16.5,9164],[16.5,9247],[16.5,9330],[16.5,9413],[16.5,9497],[16.5,9580],[16.5,9663],[16.5,9747],[16.5,9830],[16.5,9913],[16.5,9997],[16.5,10080],[16.5,10163],[16.5,10246],[16.5,10330],[16.5,10413],[16.5,10497],[16.5,10580],[16.5,10663],[16.5,10746],[16.5,10829],[16.5,10913],[16.5,10997],[16.5,11079],[16.5,11163],[16.5,11246],[16.5,11329],[16.5,11413],[16.5,11496],[16.5,11579],[16.5,11663]]",473.6859,478.0676,5.520832539,2.8194,"[{""rating"":5.520832538604736,""responseTime"":2.8193999999762127}]",space,3.838,,478.0677,Not at all,0,478.0723,,,[],,0,4,4,4,1,audio/Narrative7Situation4.wav,audio/Narrative8Situation4.wav,audio/Narrative5Situation4.wav,audio/Narrative6Situation4.wav,3,3,1,2,,,,,,,,,,,,,,,,,,,,,,,,,,,,,,,,,,,,,,,
,,,,,67d72063e9c2d9c1c2f242b4,2025-07-07_22h01.27.811,group3.4_multiperson,2023.2.2,Win32,60.24096386,686c2ebf0248f13bef9af11f,686c7b9f054559357cdf5945,,,,,,,,,,,,,,,,,,,,,,,,,,,,,478.0728,1,audio/Narrative7Situation5.wav,483.0829,,483.083,491.5808,"[[44.9,8330],[59.4,8414],[67.8,8497]]",491.581,495.9459,78.43750318,2.8557,"[{""rating"":78.43750317891438,""responseTime"":2.8556999999881327}]",space,3.8165,,495.946,Not at all,0,495.9489,,,[],,0,5,5,5,1,audio/Narrative7Situation5.wav,audio/Narrative8Situation5.wav,audio/Narrative5Situation5.wav,audio/Narrative6Situation5.wav,5,2,5,2,,,,,,,,,,,,,,,,,,,,,,,,,,,,,,,,,,,,,,,
,,,,,67d72063e9c2d9c1c2f242b4,2025-07-07_22h01.27.811,group3.4_multiperson,2023.2.2,Win32,60.24096386,686c2ebf0248f13bef9af11f,686c7b9f054559357cdf5945,,,,,,,,,,,,,,,,,,,,,,,,,,,,,495.9491,1,audio/Narrative7Situation6.wav,498.9615,,498.9616,508.9419,"[[999,0],[999,83],[999,166],[999,249],[999,332],[999,416],[999,499],[999,583],[999,666],[999,749],[999,832],[999,916],[999,999],[999,1083],[999,1166],[999,1250],[999,1332],[999,1416],[999,1499],[999,1582],[999,1666],[999,1749],[999,1832],[999,1916],[999,1999],[999,2082],[999,2166],[999,2249],[999,2332],[999,2415],[999,2498],[999,2582],[999,2665],[999,2749],[999,2832],[999,2915],[999,2999],[999,3082],[999,3165],[999,3248],[999,3332],[999,3415],[999,3499],[999,3582],[999,3665],[999,3748],[999,3832],[999,3915],[999,3998],[999,4081],[999,4165],[999,4248],[999,4331],[999,4415],[999,4498],[999,4581],[999,4665],[999,4748],[999,4831],[999,4914],[999,4998],[999,5081],[999,5164],[999,5248],[999,5331],[999,5414],[999,5498],[999,5581],[999,5664],[999,5748],[999,5831],[999,5914],[999,5998],[999,6081],[999,6164],[999,6248],[999,6331],[999,6414],[999,6498],[999,6581],[999,6664],[999,6748],[999,6831],[999,6914],[999,6997],[999,7081],[999,7164],[999,7247],[999,7330],[999,7414],[999,7497],[999,7580],[999,7664],[999,7747],[999,7830],[999,7913],[999,7997],[999,8080],[999,8164],[999,8247],[999,8330],[999,8414],[999,8497],[999,8580],[999,8664],[999,8747],[999,8830],[999,8913],[999,8997],[999,9080],[999,9163],[999,9247],[999,9330],[999,9413],[999,9497],[999,9580],[999,9663],[999,9746],[999,9830],[999,9913]]",508.9421,512.641,72.49999841,2.4953,"[{""rating"":72.49999841054282,""responseTime"":2.4953000000118664}]",space,3.1514,,512.6411,Partially,50,512.6456,,,[],,0,6,6,6,1,audio/Narrative7Situation6.wav,audio/Narrative8Situation6.wav,audio/Narrative5Situation6.wav,audio/Narrative6Situation6.wav,3,2,3,2,,,,,,,,,,,,,,,,,,,,,,,,,,,,,,,,,,,,,,,
,,,,,67d72063e9c2d9c1c2f242b4,2025-07-07_22h01.27.811,group3.4_multiperson,2023.2.2,Win32,60.24096386,686c2ebf0248f13bef9af11f,686c7b9f054559357cdf5945,,,,,,,,,,,,,,,,,,,,,,,,,,,,,512.6462,1,audio/Narrative7Situation7.wav,517.6564,,517.6564,534.8344,"[[999,0],[999,82],[999,166],[999,249],[999,332],[999,416],[999,499],[999,582],[999,666],[999,749],[999,832],[999,915],[999,999],[999,1083],[999,1165],[999,1249],[999,1332],[999,1416],[999,1499],[999,1582],[999,1665],[999,1749],[999,1832],[999,1915],[999,1999],[999,2082],[999,2165],[999,2249],[999,2332],[999,2415],[999,2499],[999,2582],[999,2665],[999,2748],[999,2832],[999,2915],[999,2998],[999,3082],[999,3165],[999,3248],[999,3331],[999,3415],[999,3498],[999,3581],[999,3665],[999,3748],[999,3832],[999,3915],[999,3998],[999,4081],[999,4164],[999,4248],[999,4331],[999,4414],[999,4498],[999,4581],[999,4665],[999,4748],[999,4831],[999,4914],[999,4998],[999,5081],[999,5164],[999,5248],[999,5331],[999,5414],[999,5497],[999,5581],[999,5665],[999,5748],[999,5831],[999,5914],[999,5997],[999,6081],[999,6164],[999,6247],[999,6331],[999,6414],[999,6497],[999,6580],[999,6664],[999,6747],[999,6830],[999,6914],[999,6997],[999,7080],[999,7164],[999,7247],[999,7330],[999,7414],[999,7497],[999,7580],[999,7663],[999,7747],[999,7830],[999,7913],[999,7997],[999,8080],[999,8164],[999,8247],[999,8330],[999,8414],[999,8497],[999,8580],[999,8663],[999,8747],[999,8830],[999,8913],[999,8996],[999,9080],[999,9163],[999,9246],[999,9330],[999,9413],[999,9496],[999,9580],[999,9663],[999,9746],[999,9830],[999,9913],[999,9996],[999,10080],[74.1,10163],[76.3,10246],[78.5,10329],[79.7,10413],[83.8,10497],[84.4,10579],[89.5,10663],[89.5,10746],[89.5,10829],[92.4,10913],[93.3,10996],[94.7,11079],[95.2,11162],[97,11246],[97.3,11330],[97.3,11413],[97.3,11496],[97.3,11579],[97.4,11663],[97.2,11746],[97.2,11829],[97.2,11912],[97.2,11996],[97.2,12079],[97.2,12162],[97.2,12245],[97.2,12329],[97.2,12412],[97.2,12495],[97.2,12579],[97.2,12662],[97.2,12745],[97.2,12829],[97.2,12912],[97.2,12995],[97.2,13079],[97.2,13162],[97.2,13245],[97.2,13329],[97.2,13412],[97.2,13495],[97.2,13579],[97.2,13662],[97.2,13745],[97.2,13828],[97.2,13912],[97.2,13995],[97.2,14078],[97.2,14162],[97.2,14245],[97.2,14328],[97.2,14412],[97.2,14495],[97.2,14579],[97.2,14661],[97.2,14745],[97.2,14828],[97.2,14911],[97.2,14995],[97.2,15078],[97.2,15161],[97.2,15245],[97.2,15328],[97.2,15412],[97.2,15495],[97.2,15578],[97.2,15661],[97.2,15744],[97.2,15828],[97.2,15911],[97.2,15995],[97.2,16078],[97.2,16161],[97.2,16244],[97.2,16328],[97.2,16411],[97.2,16494],[97.2,16578],[97.2,16661],[97.2,16744],[97.2,16828],[97.2,16911],[97.2,16994],[97.2,17078],[97.2,17161]]",534.8345,536.9005,97.18750318,0.8367,"[{""rating"":97.18750317891438,""responseTime"":0.8366999999880136}]",space,1.5262,,536.9006,Definitely yes,100,536.9047,,,[],,0,7,7,7,1,audio/Narrative7Situation7.wav,audio/Narrative8Situation7.wav,audio/Narrative5Situation7.wav,audio/Narrative6Situation7.wav,5,3,4,5,,,,,,,,,,,,,,,,,,,,,,,,,,,,,,,,,,,,,,,
,,,,,67d72063e9c2d9c1c2f242b4,2025-07-07_22h01.27.811,group3.4_multiperson,2023.2.2,Win32,60.24096386,686c2ebf0248f13bef9af11f,686c7b9f054559357cdf5945,,,,,,,,,,,,,,,,,,,,,,,,,,,,,536.905,1,audio/Narrative7Situation8.wav,538.9168,,538.9168,548.9469,"[[67.3,9247],[81,9330],[88.9,9413],[89.1,9496],[89.1,9580],[89.1,9663],[89.1,9747],[89.1,9830],[89.1,9913],[89.3,9996]]",548.947,550.6631,91.0416762,0.8537,"[{""rating"":91.04167620340984,""responseTime"":0.8536999999880663}]",space,1.1834,,550.6631,Definitely yes,100,550.666,,,[],,0,8,8,8,1,audio/Narrative7Situation8.wav,audio/Narrative8Situation8.wav,audio/Narrative5Situation8.wav,audio/Narrative6Situation8.wav,2,3,3,5,,,,,,,,,,,,,,,,,,,,,,,,,,,,,,,,,,,,,,,
,,,,,67d72063e9c2d9c1c2f242b4,2025-07-07_22h01.27.811,group3.4_multiperson,2023.2.2,Win32,60.24096386,686c2ebf0248f13bef9af11f,686c7b9f054559357cdf5945,,,,,,,,,,,,,,,,,,,,,,,,,,,,,550.6664,1,audio/Narrative7Situation9.wav,552.6792,,552.6793,561.3102,[],561.3104,564.1426,88.95834287,1.4097,"[{""rating"":88.95834287007649,""responseTime"":1.4096999999881064}]",space,2.2902,,564.1427,Partially,50,564.1469,,,[],,0,9,9,9,1,audio/Narrative7Situation9.wav,audio/Narrative8Situation9.wav,audio/Narrative5Situation9.wav,audio/Narrative6Situation9.wav,2,3,3,4,,,,,,,,,,,,,,,,,,,,,,,,,,,,,,,,,,,,,,,
,,,,,67d72063e9c2d9c1c2f242b4,2025-07-07_22h01.27.811,group3.4_multiperson,2023.2.2,Win32,60.24096386,686c2ebf0248f13bef9af11f,686c7b9f054559357cdf5945,,,,,,,,,,,,,,,,,,,,,,,,,,,,,564.1473,1,audio/Narrative8Situation1.wav,569.1576,,569.1577,585.0867,"[[88.6,6248],[88.6,6331],[88.6,6414],[88.6,6498],[88.6,6581],[88.6,6664],[88.6,6748],[88.6,6831],[88.6,6914],[88.6,6997],[88.6,7081],[88.6,7164],[88.6,7247],[88.6,7331],[88.6,7414],[88.6,7497],[88.6,7580],[88.6,7664],[88.6,7747],[88.6,7830],[88.6,7914],[88.6,7997],[88.6,8080],[88.6,8163],[88.6,8247],[88.6,8330],[88.6,8414],[88.6,8497],[88.6,8580],[88.6,8663],[88.6,8747],[88.6,8831],[88.6,8914],[88.6,8997],[88.6,9080],[88.6,9163],[88.6,9247],[88.6,9330],[88.6,9413],[88.6,9497],[88.6,9580],[88.6,9663],[88.6,9747],[89,9830],[89.3,9913],[92.5,9997],[92.7,10080],[94.2,10163],[94.3,10247],[94.3,10330],[96.8,10413],[98.6,10497],[98.8,10580],[100,10663],[100,10746],[100,10830],[100,10913],[100,10997],[100,11080],[100,11163],[100,11246],[100,11330],[100,11413],[100,11496],[99.8,11579],[99.4,11663],[99.4,11746],[99.4,11830],[99.4,11913],[99.4,11996],[99.4,12079],[99.4,12163],[99.4,12246],[99.4,12329],[99.4,12412],[99.4,12496],[99.4,12579],[99.4,12662],[99.4,12746],[99.4,12830],[99.4,12912],[99.4,12996],[99.4,13079],[99.4,13163],[99.4,13245],[99.4,13329],[99.4,13412],[99.4,13495],[99.4,13579],[99.4,13662],[99.4,13745],[99.4,13829],[99.4,13912],[99.4,13995],[99.4,14079],[99.4,14162],[99.4,14245],[99.4,14329],[99.4,14412],[99.4,14495],[99.4,14579],[99.4,14662],[99.4,14745],[99.4,14829],[99.4,14912],[99.4,14995],[99.4,15078],[99.4,15162],[99.4,15245],[99.4,15329],[99.4,15412],[99.4,15495],[99.4,15579],[99.4,15662],[99.4,15745],[99.4,15828],[99.4,15911]]",585.0869,588.8685,98.8541762,2.6541,"[{""rating"":98.85417620340984,""responseTime"":2.6540999999642736}]",space,3.2377,,588.8685,Definitely yes,100,588.8728,,,[],,0,10,10,10,1,audio/Narrative8Situation1.wav,audio/Narrative7Situation1.wav,audio/Narrative6Situation1.wav,audio/Narrative5Situation1.wav,5,2,2,5,,,,,,,,,,,,,,,,,,,,,,,,,,,,,,,,,,,,,,,
,,,,,67d72063e9c2d9c1c2f242b4,2025-07-07_22h01.27.811,group3.4_multiperson,2023.2.2,Win32,60.24096386,686c2ebf0248f13bef9af11f,686c7b9f054559357cdf5945,,,,,,,,,,,,,,,,,,,,,,,,,,,,,588.8733,1,audio/Narrative8Situation2.wav,591.8845,,591.8846,602.0151,"[[98.5,7997],[98.3,8080],[98.3,8163],[98.2,8247],[98.2,8330],[98.2,8414],[98.2,8497],[98.2,8580],[98.2,8664],[98.2,8747],[98.2,8830],[98.2,8914],[98.2,8997],[98.2,9080],[98,9164],[98,9247],[98,9330],[98.1,9413],[98.1,9496],[98.1,9580],[98.1,9664],[98.1,9746],[98.1,9830],[98.1,9913],[98.1,9996],[98.1,10080]]",602.0153,607.8629,6.041665872,3.9866,"[{""rating"":6.041665871938068,""responseTime"":3.9866000000238273}]",space,5.3039,,607.863,Partially,50,607.8669,,,[],,0,11,11,11,1,audio/Narrative8Situation2.wav,audio/Narrative7Situation2.wav,audio/Narrative6Situation2.wav,audio/Narrative5Situation2.wav,3,3,3,3,,,,,,,,,,,,,,,,,,,,,,,,,,,,,,,,,,,,,,,
,,,,,67d72063e9c2d9c1c2f242b4,2025-07-07_22h01.27.811,group3.4_multiperson,2023.2.2,Win32,60.24096386,686c2ebf0248f13bef9af11f,686c7b9f054559357cdf5945,,,,,,,,,,,,,,,,,,,,,,,,,,,,,607.8673,1,audio/Narrative8Situation3.wav,611.8787,,611.8787,634.2724,"[[20.8,4915],[20.9,4998],[20.9,5081],[21.3,5165],[31.7,5248],[36.8,5331],[39.9,5415],[51.3,5498],[55.6,5581],[58.4,5664],[63.8,5748],[65.2,5831],[70,5914],[72.3,5998],[74.4,6081],[75.4,6164],[78.4,6248],[80.1,6331],[81.3,6414],[83.1,6498],[83.2,6581],[83.2,6664],[85.2,6747],[85.2,6831],[85.2,6914],[85.2,6997],[85.2,7081],[85.2,7164],[85.2,7247],[85.2,7331],[85.2,7414],[85.2,7497],[85.2,7580],[85.2,7663],[85.2,7747],[85.2,7830],[85.2,7914],[85.2,7997],[85.2,8080],[85.2,8164],[85.2,8247],[85.2,8330],[85.2,8413],[85.2,8496],[85.2,8580],[85.2,8663],[85.2,8746],[85.2,8830],[85.2,8913],[85.2,8997],[85.2,9080],[85.2,9163],[85.2,9247],[85.2,9330],[85.2,9413],[85.2,9497],[85.2,9580],[85.2,9663],[85.2,9746],[85.2,9830],[85.2,9913],[85.2,9997],[85.2,10080],[85.2,10163],[85.2,10246],[85.2,10330],[85.2,10413],[85.2,10496],[85.2,10580],[85.2,10663],[85.2,10746],[85.2,10830],[85.2,10913],[85.2,10996],[85.2,11079],[85.2,11163],[85.2,11246],[85.2,11330],[85.2,11413],[85.2,11496],[85.2,11579],[85.2,11663],[85.2,11746],[85.2,11830],[85.2,11912],[85.2,11996],[85.2,12079],[85.2,12162],[85.2,12246],[85.2,12329],[85.2,12412],[85.2,12495],[85.2,12579],[85.2,12663],[85.2,12745],[85.2,12829],[85.2,12912],[85.2,12995],[85.2,13079],[85.2,13162],[85.2,13245],[85.2,13329],[85.2,13412],[85.2,13495],[85.2,13579],[85.2,13662],[85.2,13746],[85.2,13829],[85.2,13912],[85.2,13995],[85.2,14079],[85.2,14162],[85.2,14245],[85.2,14329],[85.2,14412],[85.2,14495],[85.2,14579],[85.2,14662],[85.2,14745],[85.2,14828],[85.2,14912],[85.2,14995],[85.2,15078],[85.2,15162],[85.2,15245],[85.2,15328],[85.2,15412],[85.2,15495],[85.2,15578],[85.2,15661],[85.2,15745],[85.2,15828],[85.2,15912],[85.4,15994],[85.4,16078],[85.4,16161],[85.4,16245],[85.4,16328],[85.4,16411],[85.4,16495],[85.4,16578],[85.4,16661],[85.4,16745],[85.4,16828],[85.4,16911],[85.4,16995],[85.4,17078],[85.4,17161],[85.7,17244],[85.6,17327],[85.6,17411],[85.6,17495],[85.6,17578],[85.6,17661],[85.6,17744],[85.6,17827],[85.6,17911],[85.6,17994],[85.6,18077],[85.6,18161],[85.8,18244],[86,18327],[87.2,18411],[88,18495],[90.8,18577],[91.1,18661],[92.6,18744],[92.7,18827],[92.7,18911],[92.7,18994],[92.7,19077],[92.7,19161],[92.7,19244],[92.7,19327],[92.7,19410],[92.7,19493],[92.7,19577],[92.7,19660],[92.7,19744],[92.7,19827],[92.7,19910],[92.7,19994],[92.7,20077],[92.7,20160],[92.7,20244],[92.7,20327],[92.7,20410],[92.7,20493],[92.7,20577],[92.7,20660],[92.7,20743],[92.7,20826],[92.7,20910],[92.7,20993],[92.7,21076],[92.7,21160],[92.7,21243],[92.7,21326],[92.7,21410],[92.7,21493],[92.8,21576],[92.8,21660],[92.8,21743],[92.8,21826],[92.8,21909],[92.8,21993],[92.8,22077],[92.8,22159],[92.8,22243],[92.8,22326]]",634.2727,636.8381,92.81250636,0.7946,"[{""rating"":92.81250635782878,""responseTime"":0.7945999999641344}]",space,2.0216,,636.8382,Not at all,0,636.8422,,,[],,0,12,12,12,1,audio/Narrative8Situation3.wav,audio/Narrative7Situation3.wav,audio/Narrative6Situation3.wav,audio/Narrative5Situation3.wav,4,8,5,3,,,,,,,,,,,,,,,,,,,,,,,,,,,,,,,,,,,,,,,
,,,,,67d72063e9c2d9c1c2f242b4,2025-07-07_22h01.27.811,group3.4_multiperson,2023.2.2,Win32,60.24096386,686c2ebf0248f13bef9af11f,686c7b9f054559357cdf5945,,,,,,,,,,,,,,,,,,,,,,,,,,,,,636.8426,1,audio/Narrative8Situation4.wav,639.8536,,639.8537,654.0332,"[[92.4,1499],[92.7,1582],[92.7,1665],[92.7,1749],[92.7,1832],[92.7,1915],[92.7,1999],[92.7,2082],[92.7,2165],[92.7,2249],[92.7,2332],[92.7,2416],[92.7,2499],[92.7,2582],[92.7,2665],[92.7,2749],[92.7,2832],[92.7,2915],[92.7,2998],[92.7,3082],[92.7,3165],[92.7,3249],[92.7,3332],[92.7,3415],[92.7,3498],[92.7,3582],[92.7,3665],[92.7,3748],[92.7,3832],[92.7,3915],[92.7,3998],[92.7,4082],[92.7,4165],[92.7,4248],[92.7,4331],[92.7,4415],[92.7,4498],[92.7,4581],[92.7,4665],[92.7,4748],[92.7,4831],[92.7,4915],[92.7,4998],[92.7,5081],[92.7,5165],[92.7,5248],[92.7,5331],[92.7,5415],[92.7,5498],[92.7,5581],[92.7,5664],[92.7,5748],[92.7,5831],[92.7,5915],[92.7,5998],[92.7,6081],[92.7,6164],[92.7,6247],[92.7,6331],[92.7,6414],[92.7,6498],[92.7,6581],[92.7,6664],[92.7,6747],[92.7,6831],[92.7,6914],[92.7,6998],[92.7,7081],[92.7,7164],[92.7,7247],[92.7,7331],[92.7,7414],[92.7,7497],[92.7,7581],[92.7,7664],[92.7,7747],[92.9,7831],[92.9,7914],[92.9,7997],[92.9,8080],[92.9,8164],[92.9,8247],[92.9,8330],[92.9,8414],[92.9,8497],[92.7,8580],[92.7,8664],[92.7,8747],[92.7,8830],[92.7,8913],[92.7,8997],[92.7,9080],[92.7,9163],[92.7,9247],[92.7,9330],[92.7,9413],[92.7,9497],[92.7,9580],[92.7,9663],[92.7,9746],[93,9830],[93,9913],[93,9996],[93,10080],[93,10163],[93,10246],[93,10330],[93,10413],[93,10496],[93,10580],[90.5,10663],[90.1,10746],[90.1,10830],[90.1,10913],[90.1,10996],[90.1,11079],[92.2,11163],[92.2,11246],[92.2,11330],[92.2,11413],[92.2,11496],[92.2,11579],[92.2,11663],[92.2,11746],[92.2,11829],[92.3,11913],[92.3,11996],[92.3,12079],[92.3,12163],[92.3,12246],[92.3,12329],[92.3,12413],[92.1,12496],[92.1,12579],[92.1,12663],[92.1,12746],[92.1,12829],[92.1,12912],[92.1,12996],[92.1,13079],[92.1,13162],[92.1,13246],[92.1,13329],[92.1,13412],[92.1,13495],[92.1,13579],[92.1,13662],[92.1,13745],[92.1,13829],[92.1,13912],[92.1,13995],[92.1,14078],[92.1,14162]]",654.0335,656.449,92.08334287,0.5531,"[{""rating"":92.08334287007649,""responseTime"":0.5530999999642745}]",space,1.8793,,656.449,Partially,50,656.4533,,,[],,0,13,13,13,1,audio/Narrative8Situation4.wav,audio/Narrative7Situation4.wav,audio/Narrative6Situation4.wav,audio/Narrative5Situation4.wav,3,3,2,1,,,,,,,,,,,,,,,,,,,,,,,,,,,,,,,,,,,,,,,
,,,,,67d72063e9c2d9c1c2f242b4,2025-07-07_22h01.27.811,group3.4_multiperson,2023.2.2,Win32,60.24096386,686c2ebf0248f13bef9af11f,686c7b9f054559357cdf5945,,,,,,,,,,,,,,,,,,,,,,,,,,,,,656.4537,1,audio/Narrative8Situation5.wav,658.4649,,658.465,666.7124,"[[999,0],[999,83],[999,166],[999,250],[999,332],[999,416],[999,499],[999,583],[999,666],[999,749],[999,833],[999,916],[999,999],[999,1082],[999,1166],[999,1249],[999,1332],[999,1416],[999,1500],[999,1582],[999,1665],[999,1749],[999,1832],[999,1915],[999,1999],[999,2082],[999,2165],[999,2249],[999,2332],[999,2415],[999,2498],[999,2582],[999,2665],[999,2748],[999,2832],[999,2915],[999,2999],[999,3082],[71.5,3165],[72.1,3249],[72.3,3332],[72.6,3415],[72.6,3498],[72.6,3582],[72.6,3665],[72.6,3749],[72.6,3832],[72.6,3915],[73.1,3999],[77.6,4082],[77.9,4165],[78.3,4248],[80.5,4332],[84.8,4415],[88.7,4498],[90,4581],[92.6,4665],[93.1,4748],[93.1,4831],[93.1,4915],[93.1,4998],[93.1,5081],[93.1,5164],[93.2,5248],[93.2,5331],[93.3,5415],[93.3,5498],[93.3,5581],[93.3,5664],[93.3,5748],[93.3,5831],[93.3,5914],[93.3,5998],[93.3,6081],[93.3,6164],[93.3,6248],[93.3,6331],[94.2,6415],[96.5,6497],[96.7,6581],[98.2,6664],[98.2,6747],[98.2,6831],[98.2,6914],[98.2,6997],[98.2,7081],[98.2,7164],[98.2,7247],[98.2,7330],[98.2,7414],[98.2,7497],[98.2,7581],[98.2,7664],[98.2,7747],[98.2,7831],[98.3,7914],[98.3,7997],[98.3,8080],[98.3,8164],[98.3,8247]]",666.7126,668.7454,98.33334287,0.6384,"[{""rating"":98.33334287007649,""responseTime"":0.6384000000357446}]",space,1.4907,,668.7454,Not at all,0,668.7491,,,[],,0,14,14,14,1,audio/Narrative8Situation5.wav,audio/Narrative7Situation5.wav,audio/Narrative6Situation5.wav,audio/Narrative5Situation5.wav,2,5,2,5,,,,,,,,,,,,,,,,,,,,,,,,,,,,,,,,,,,,,,,
,,,,,67d72063e9c2d9c1c2f242b4,2025-07-07_22h01.27.811,group3.4_multiperson,2023.2.2,Win32,60.24096386,686c2ebf0248f13bef9af11f,686c7b9f054559357cdf5945,,,,,,,,,,,,,,,,,,,,,,,,,,,,,668.7496,1,audio/Narrative8Situation6.wav,670.7614,,670.7615,677.2428,"[[98.2,2582],[98.2,2666],[98.2,2748],[98.2,2832],[98.2,2915],[98,2998],[98,3082],[98,3165],[98.1,3248],[98,3332],[98,3415],[98,3498],[98,3582],[98,3665],[98,3748],[98,3831],[98,3915],[98,3998],[98,4082],[98,4165],[98,4248],[98,4331],[98,4415],[98,4498],[98,4581],[98,4665],[98,4748],[98,4831],[98,4914],[98,4998],[98,5081],[98,5164],[98,5248],[98,5331],[98,5414],[97.7,5498],[97.7,5581],[97.7,5665],[97.8,5748],[97.8,5831],[97.8,5914],[97.8,5998],[97.8,6081],[97.8,6164],[97.3,6248],[97.2,6331],[97.2,6414]]",677.2429,678.9423,95.83333333,0.6866,"[{""rating"":95.83333333333333,""responseTime"":0.6865999999641872}]",space,1.1548,,678.9424,Partially,50,678.9466,,,[],,0,15,15,15,1,audio/Narrative8Situation6.wav,audio/Narrative7Situation6.wav,audio/Narrative6Situation6.wav,audio/Narrative5Situation6.wav,2,3,2,3,,,,,,,,,,,,,,,,,,,,,,,,,,,,,,,,,,,,,,,
,,,,,67d72063e9c2d9c1c2f242b4,2025-07-07_22h01.27.811,group3.4_multiperson,2023.2.2,Win32,60.24096386,686c2ebf0248f13bef9af11f,686c7b9f054559357cdf5945,,,,,,,,,,,,,,,,,,,,,,,,,,,,,678.947,1,audio/Narrative8Situation7.wav,681.9583,,681.9583,694.0548,"[[96.4,7414],[96.4,7497],[96.4,7580],[96.4,7664],[96.4,7747],[96.4,7830],[96.4,7913],[96.4,7997],[96.4,8080],[96.4,8164],[96.4,8247],[96.4,8330],[96.4,8413],[96.4,8497],[96.4,8580],[96.4,8663],[96.4,8747],[96.4,8830],[96.4,8913],[96.4,8997],[96.4,9080],[96.4,9163],[96.4,9246],[96.4,9330],[96.4,9413],[96.4,9497],[96.4,9580],[96.4,9663],[96.4,9746],[96.4,9830],[96.4,9913],[96.4,9996],[96.4,10080],[96.4,10163],[96.4,10246],[96.4,10330],[96.4,10413],[96.4,10496],[96.4,10579],[96.4,10663],[96.4,10746],[96.4,10829],[96.4,10913],[96.4,10996],[96.4,11079],[96.4,11163],[96.4,11246],[96.4,11329],[96.4,11413],[96.4,11496],[96.4,11579],[96.4,11663],[96.4,11746],[96.4,11829],[96.4,11912],[96.4,11996],[96.4,12079]]",694.055,695.621,96.35416667,0.5041,"[{""rating"":96.35416666666667,""responseTime"":0.5041000000238682}]",space,1.0176,,695.621,Definitely yes,100,695.6253,,,[],,0,16,16,16,1,audio/Narrative8Situation7.wav,audio/Narrative7Situation7.wav,audio/Narrative6Situation7.wav,audio/Narrative5Situation7.wav,3,5,5,4,,,,,,,,,,,,,,,,,,,,,,,,,,,,,,,,,,,,,,,
,,,,,67d72063e9c2d9c1c2f242b4,2025-07-07_22h01.27.811,group3.4_multiperson,2023.2.2,Win32,60.24096386,686c2ebf0248f13bef9af11f,686c7b9f054559357cdf5945,,,,,,,,,,,,,,,,,,,,,,,,,,,,,695.6258,1,audio/Narrative8Situation8.wav,698.6367,,698.6368,711.4996,"[[97.2,7914],[97.3,7997],[97.3,8080],[97.3,8163],[97.3,8247],[97.3,8330],[97.3,8413],[97.3,8497],[97.3,8580],[97.8,8664],[98.2,8747],[98.2,8830],[98.2,8913],[98.2,8996],[98.2,9080],[98.4,9163],[98.4,9247],[98.4,9330],[98.4,9413],[98.4,9496],[98.4,9580],[98.4,9663],[98.4,9746],[98.4,9830],[98.4,9913],[98.4,9996],[98.4,10079],[98.4,10163],[98.4,10246],[98.4,10329],[98.4,10413],[98.4,10496],[98.4,10579],[98.4,10663],[98.4,10746],[98.4,10829],[98.4,10913],[98.4,10996],[98.4,11079],[98.4,11163],[98.4,11246],[98.4,11329],[98.4,11413],[98.4,11496],[98.4,11579],[98.4,11663],[98.4,11746],[98.4,11829],[98.4,11913],[98.4,11996],[98.4,12079],[98.4,12163],[98.4,12245],[98.4,12329],[98.4,12412],[98.4,12496],[98.4,12579],[98.4,12662],[98.4,12745],[98.4,12829]]",711.4997,713.3501,98.4375,0.6134,"[{""rating"":98.4375,""responseTime"":0.6134000000357673}]",space,1.3095,,713.3502,Not at all,0,726.7783,0.104169051,10.6654,"[{""rating"":0.10416905085245953,""responseTime"":10.665399999976216}]",space,0,17,17,17,1,audio/Narrative8Situation8.wav,audio/Narrative7Situation8.wav,audio/Narrative6Situation8.wav,audio/Narrative5Situation8.wav,3,2,5,3,,,12.8799,,,,,,,,,,,,,,,,,,,,,,,,,,,,,,,,,,,,
,,,,,67d72063e9c2d9c1c2f242b4,2025-07-07_22h01.27.811,group3.4_multiperson,2023.2.2,Win32,60.24096386,686c2ebf0248f13bef9af11f,686c7b9f054559357cdf5945,,,,,,,,,,,,,,,,,,,,,,,,,,,,,726.7789,1,audio/Narrative8Situation9.wav,729.7943,,729.7943,741.1243,"[[47.8,6165],[64.7,6248],[77.6,6331],[79.5,6415],[87.4,6498],[94.2,6581],[94.3,6664],[95.1,6747],[95.3,6831],[95.3,6914],[95.3,6997],[95.3,7081],[95.3,7165],[95.3,7247],[95.3,7331],[95.3,7414],[95.3,7497],[95.3,7580],[95.3,7664],[95.3,7747],[95.3,7830],[95.3,7914],[95.3,7997],[95.3,8080],[95.3,8164],[95.3,8247],[95.3,8330],[95.3,8413],[95.3,8497],[95.3,8580],[95.3,8663],[95.3,8747],[95.3,8830],[95.3,8913],[95.3,8997],[95.3,9080],[95.3,9163],[95.3,9246],[95.3,9330],[95.3,9413],[95.3,9496],[95.3,9580],[95.3,9663],[95.3,9746],[95.3,9830],[95.3,9913],[95.3,9996],[95.3,10080],[95.4,10163],[95.4,10246],[95.4,10329],[95.4,10413],[95.4,10497],[95.4,10580],[95.4,10663],[95.4,10746],[95.4,10829],[95.4,10913],[95.4,10996],[95.4,11080],[95.4,11163],[95.4,11246],[95.4,11329]]",741.1244,744.8897,95.41667302,2.2194,"[{""rating"":95.41667302449544,""responseTime"":2.21939999997619}]",space,3.219,,744.8898,Not at all,0,744.8926,,,[],,0,18,18,18,1,audio/Narrative8Situation9.wav,audio/Narrative7Situation9.wav,audio/Narrative6Situation9.wav,audio/Narrative5Situation9.wav,3,2,4,3,,,,,,,,,,,,,,,,,,,,,,,,,,,,,,,,,,,,,,,
,,,,,67d72063e9c2d9c1c2f242b4,2025-07-07_22h01.27.811,group3.4_multiperson,2023.2.2,Win32,60.24096386,686c2ebf0248f13bef9af11f,686c7b9f054559357cdf5945,,,,,,,,,,,,,,,,,,,,,,,,,,,754.438,757.02,757.0404,2,audio/Narrative13Situation2.wav,757.0405,,757.0405,786.7943,"[[95.5,2978],[95.5,3061],[95.5,3144],[95.2,3228],[94.6,3311],[94.3,3394],[94.3,3478],[93.5,3561],[89,3644],[87.9,3727],[85.9,3811],[82.6,3894],[78.3,3978],[75.1,4061],[72.6,4144],[69.9,4228],[69.3,4311],[69.3,4394],[72,4478],[85.8,4561],[89.8,4644],[90,4727],[96,4811],[99.3,4894],[99.3,4977],[99.3,5060],[99.3,5144],[99.3,5227],[99.3,5310],[99.3,5394],[99.3,5477],[99.3,5560],[99.3,5644],[99.3,5727],[99.3,5810],[99.3,5894],[99.3,5977],[99.3,6060],[99.3,6143],[99.3,6227],[99.3,6310],[99.3,6393],[99.3,6476],[99.3,6560],[99.3,6643],[99.3,6726],[99.3,6810],[99.3,6893],[99.3,6976],[99.3,7060],[99.3,7143],[99.3,7226],[99.3,7310],[99.3,7393],[99.3,7477],[99.3,7560],[99.3,7643],[99.3,7726],[99.3,7810],[99.3,7893],[99.3,7976],[99.3,8060],[99.3,8143],[99.3,8226],[99.3,8310],[99.3,8393],[99.3,8477],[99.3,8559],[99.3,8643],[99.3,8726],[99.3,8809],[99.3,8893],[99.3,8976],[99.3,9059],[99.3,9143],[99.3,9226],[99.3,9309],[99.3,9393],[99.3,9476],[99.3,9559],[99.3,9642],[99.3,9726],[99.3,9809],[99.3,9892],[99.3,9976],[99.3,10059],[99.3,10142],[99.3,10226],[99.3,10309],[99.3,10392],[99.3,10475],[99.3,10559],[99.3,10643],[99.3,10725],[99.3,10808],[99.3,10892],[99.3,10975],[99.3,11058],[99.3,11142],[99.3,11225],[99.3,11309],[99.3,11392],[99.3,11475],[99.3,11558],[99.3,11642],[99.3,11725],[99.3,11808],[99.3,11892],[99.3,11975],[99.3,12058],[99.3,12142],[99.3,12225],[99.3,12308],[99.3,12392],[99.3,12475],[99.3,12558],[99.3,12642],[99.3,12725],[99.3,12808],[99.3,12892],[99.3,12975],[99.3,13058],[99.3,13141],[99.3,13225],[99.3,13308],[99.3,13392],[99.3,13474],[99.3,13558],[99.3,13641],[99.3,13725],[99.3,13808],[99.3,13891],[99.3,13975],[99.5,14058],[99.5,14141],[99.5,14224],[99.5,14308],[99.5,14391],[99.5,14474],[99.5,14558],[99.5,14641],[99.5,14724],[99.5,14808],[99.5,14891],[99.5,14974],[99.5,15058],[99.5,15141],[99.5,15224],[99.5,15307],[99.5,15391],[99.5,15474],[99.5,15557],[99.8,15641],[99.8,15725],[99.8,15807],[99.8,15891],[99.8,15974],[99.7,16057],[99.7,16140],[99.7,16224],[99.3,16308],[96.6,16391],[92,16474],[87.2,16557],[82.8,16641],[75.7,16724],[69.2,16808],[64,16891],[58,16974],[53.5,17057],[44.7,17141],[38.6,17224],[32,17307],[26.9,17390],[22.8,17474],[18.1,17557],[16.3,17640],[11.2,17724],[9.5,17807],[5.5,17890],[4.9,17973],[4.3,18057],[2.7,18140],[2.7,18223],[2.7,18306],[2.7,18390],[2.7,18473],[2.7,18557],[2.5,18640],[2.5,18723],[2.5,18806],[2.6,18890],[2.6,18973],[2.6,19056],[2.6,19140],[2.6,19223],[2.9,19306],[2.9,19390],[2.9,19473],[2.9,19556],[2.9,19640],[2.9,19723],[2.9,19806],[3.2,19889],[4.8,19973],[4.8,20056],[4.8,20139],[5.9,20223],[6.3,20306],[7.3,20389],[7.6,20473],[8.9,20556],[9.5,20639],[11,20723],[12.6,20807],[13.8,20889],[15.1,20973],[15.4,21056],[17.7,21139],[19.4,21223],[23.4,21306],[24.1,21389],[25.9,21473],[27.4,21556],[28.3,21639],[29.1,21723],[29.3,21806],[29.3,21889],[29.3,21972],[29.3,22055],[29.3,22139],[29.3,22222],[29.3,22305],[29.3,22389],[29.3,22472],[29.3,22556],[30.4,22639],[30.4,22722],[30.4,22805],[30.4,22889],[30.4,22972],[30.4,23055],[30.4,23139],[30.4,23222],[30.7,23305],[30.7,23388],[30.7,23471],[30.7,23555],[33,23639],[36.1,23722],[39.1,23805],[44.5,23889],[45.8,23972],[47.9,24055],[48.8,24138],[50.6,24222],[51.3,24305],[51.8,24388],[51.8,24471],[51.8,24555],[51.8,24638],[51.8,24721],[51.8,24805],[51.8,24888],[51.8,24971],[51.8,25055],[51.8,25138],[51.8,25221],[51.8,25304],[51.5,25388],[51.4,25471],[51.4,25554],[51.4,25638],[51.4,25721],[51.4,25804],[51.4,25888],[51.1,25971],[51.1,26054],[51.1,26138],[51.1,26221],[51.1,26305],[51.1,26388],[51.1,26471],[51.1,26554],[51.1,26637],[51.1,26721],[51.1,26804],[51.1,26887],[51.1,26971],[51.1,27054],[51.1,27138],[51.1,27221],[51.1,27304],[51.1,27387],[51.1,27470],[51.1,27554],[51.1,27638],[51.1,27721],[51.1,27804],[51.1,27887],[51.1,27970],[51.1,28054],[51.1,28137],[51.1,28220],[51.1,28303],[51.1,28387],[51.1,28470],[51.1,28554],[51.1,28637],[51.1,28720],[51.1,28803],[51.1,28887],[51.1,28970],[51.1,29053],[51.1,29137],[51.1,29220],[51.1,29303],[51.1,29386],[51.1,29470],[51.1,29553],[51.1,29636],[51.1,29720]]",786.7945,786.7974,,,[],,,,786.7975,Definitely yes,100,786.8009,,,[],,0,0,0,0,1,audio/Narrative13Situation2.wav,audio/Narrative13Situation2.wav,audio/Narrative13Situation2.wav,audio/Narrative13Situation2.wav,2,2,2,2,,,,,744.8932,754.4376,space,9.0136,,,,,,,,,,,,,,,,,,,,,,,,,,,,,,,
,,,,,67d72063e9c2d9c1c2f242b4,2025-07-07_22h01.27.811,group3.4_multiperson,2023.2.2,Win32,60.24096386,686c2ebf0248f13bef9af11f,686c7b9f054559357cdf5945,,,,,,,,,,,,,,,,,,,,,,,,,,,,,786.8013,2,audio/Narrative5Situation1.wav,791.8094,,791.8095,805.1056,"[[999,0],[999,83],[999,166],[999,249],[999,333],[999,416],[999,499],[999,582],[999,666],[999,750],[999,834],[999,917],[999,999],[999,1082],[999,1166],[999,1249],[999,1333],[999,1416],[999,1499],[999,1583],[999,1666],[999,1749],[50.1,1832],[49.5,1916],[49.1,1999],[49.1,2082],[49.1,2165],[49.1,2249],[49.1,2332],[49.1,2415],[49.1,2499],[49.1,2582],[49.1,2665],[49.1,2749],[49.1,2832],[49.1,2915],[48.9,2998],[48.9,3082],[48.9,3165],[48.9,3249],[48.9,3332],[48.9,3415],[49.2,3499],[51.8,3582],[56,3665],[56.7,3749],[57.3,3831],[59.5,3915],[59.6,3998],[61.8,4082],[63.1,4165],[66,4248],[68.4,4332],[73.4,4415],[90.4,5082],[90.4,5165],[90.4,5248],[90.4,5331],[90.7,5415],[93.8,5498],[94.8,5581],[94.8,5664],[94.8,5748],[94.8,5831],[94.8,5914],[94.8,5998],[94.8,6081],[94.8,6165],[94.8,6247],[94.8,6331],[94.8,6415],[94.8,6498],[94.9,6581],[94.9,6664],[94.9,6747],[94.9,6831],[94.9,6914],[94.9,6997],[94.9,7080],[94.9,7164],[94.9,7247],[94.9,7331],[94.9,7414],[94.9,7497],[94.9,7581],[94.9,7664],[94.9,7747],[94.9,7830],[94.9,7914],[94.9,7997],[94.9,8081],[94.9,8164],[94.9,8247],[94.9,8330],[94.9,8413],[94.9,8497],[94.9,8580],[94.9,8664],[94.9,8747],[94.9,8830],[94.9,8913],[94.9,8997],[94.9,9080],[94.9,9163],[94.9,9247],[94.9,9330],[94.9,9413],[94.9,9497],[94.9,9580],[94.9,9664],[94.9,9746],[94.9,9830],[94.9,9913],[94.9,9997],[94.9,10080],[94.9,10163],[94.9,10246],[94.9,10330],[94.9,10413],[94.9,10496],[94.9,10580],[94.9,10663],[94.9,10746],[94.9,10830],[94.9,10913],[94.9,10996],[94.9,11080],[94.9,11163],[94.9,11246],[94.9,11330],[94.9,11413],[94.9,11496],[94.9,11579],[94.9,11663],[94.9,11746],[94.9,11829],[94.9,11912],[94.9,11996],[94.9,12079],[94.9,12163],[94.9,12246],[94.9,12329],[94.9,12413],[94.9,12496],[94.9,12579],[94.9,12663],[94.9,12746],[94.9,12829],[94.9,12912],[94.9,12995],[94.9,13079],[94.9,13162],[94.9,13245]]",805.1059,807.355,94.89583969,0.3074,"[{""rating"":94.89583969116211,""responseTime"":0.3073999999761554}]",space,1.7002,,807.355,Not at all,0,807.3591,,,[],,0,1,1,1,1,audio/Narrative7Situation1.wav,audio/Narrative8Situation1.wav,audio/Narrative5Situation1.wav,audio/Narrative6Situation1.wav,2,5,5,2,,,,,,,,,,,,,,,,,,,,,,,,,,,,,,,,,,,,,,,
,,,,,67d72063e9c2d9c1c2f242b4,2025-07-07_22h01.27.811,group3.4_multiperson,2023.2.2,Win32,60.24096386,686c2ebf0248f13bef9af11f,686c7b9f054559357cdf5945,,,,,,,,,,,,,,,,,,,,,,,,,,,,,807.3595,2,audio/Narrative5Situation2.wav,810.3707,,810.3708,839.8456,"[[93.2,6664],[93.2,6748],[93.2,6831],[93.2,6914],[93.2,6997],[93.2,7081],[93.2,7164],[93.2,7247],[93.2,7331],[93.2,7414],[93.2,7497],[93.2,7581],[93.2,7664],[93.2,7747],[93.2,7830],[93.2,7913],[93.2,7997],[93.2,8080],[93.2,8164],[93.2,8247],[93.2,8330],[93.2,8413],[93.2,8497],[93.2,8580],[93.2,8664],[93.2,8747],[93.2,8830],[93.2,8914],[93.2,8997],[93.2,9080],[93.2,9163],[93.2,9247],[93.2,9330],[93.2,9413],[93.2,9497],[93.2,9580],[93.2,9663],[93.2,9746],[93.2,9830],[93.2,9913],[93.2,9996],[93.2,10080],[93.2,10163],[93.2,10246],[93.2,10330],[93.2,10413],[93.2,10496],[93.2,10580],[93.2,10663],[93.2,10746],[93.2,10830],[93.2,10913],[93.2,10996],[93.2,11079],[93.2,11163],[93.2,11246],[93.2,11329],[93.2,11413],[93.2,11496],[93.2,11579],[93.2,11663],[93.2,11746],[93.2,11829],[93.2,11912],[93.2,11996],[93.2,12079],[93.2,12163],[93.2,12246],[93.2,12329],[93.2,12412],[93.2,12496],[93.2,12579],[93.2,12662],[93.2,12745],[93.2,12829],[93.2,12912],[93.2,12996],[93.2,13079],[93.2,13162],[93.2,13245],[93.2,13329],[93.2,13413],[93.2,13495],[93.2,13579],[93.2,13662],[93.2,13746],[93.2,13829],[93.2,13912],[93.2,13995],[93.2,14078],[93.2,14162],[93.2,14245],[93.2,14329],[93.2,14412],[93.2,14495],[93.2,14578],[93.2,14662],[93.2,14745],[93.2,14828],[93.2,14912],[93.2,14995],[93.2,15078],[93.2,15162],[93.2,15245],[93.2,15328],[93.2,15411],[93.2,15495],[93.2,15578],[93.2,15661],[93.2,15745],[93.2,15828],[93.2,15912],[93.2,15995],[93.2,16078],[93.2,16161],[93.2,16245],[93.2,16328],[93.2,16411],[93.2,16494],[93.2,16578],[93.2,16661],[93.2,16744],[93.2,16828],[93.2,16911],[93.2,16995],[93.2,17078],[93.2,17161],[93.2,17245],[93.2,17328],[93.2,17411],[93.2,17494],[93.2,17578],[93.2,17661],[93.2,17744],[93.2,17828],[93.2,17911],[93.2,17994],[93.2,18077],[93.2,18161],[93.2,18244],[93.2,18327],[93.2,18411],[93.2,18494],[93.2,18577],[93.2,18661],[93.2,18744],[93.2,18827],[93.2,18910],[93.2,18994],[93.2,19077],[93.2,19160],[93.2,19244],[93.2,19327],[93.2,19410],[93.2,19494],[93.2,19577],[93.2,19660],[93.2,19744],[93.2,19827],[93.2,19910],[93.2,19993],[93.2,20077],[93.2,20160],[93.2,20243],[93.2,20327],[93.2,20410],[93.2,20493],[93.2,20577],[93.2,20660],[93.2,20743],[93.2,20827],[93.2,20910],[93.2,20993],[93.2,21076],[93.2,21160],[93.2,21243],[93.2,21327],[93.2,21410],[93.2,21493],[93.2,21576],[93.2,21660],[93.2,21743],[93.2,21826],[93.2,21910],[93.2,21993],[93.2,22076],[93.2,22159],[93.2,22243],[93.2,22327],[93.2,22410],[93.2,22493],[93.2,22576],[93.2,22659],[93.2,22743],[93.2,22826],[93.2,22909],[93.2,22993],[93.2,23076],[93.2,23159],[93.2,23243],[93.2,23326],[93.2,23409],[93.2,23493],[93.2,23576],[93.2,23659],[93.2,23743],[93.2,23826],[93.2,23909],[93.2,23992],[93.2,24076],[93.2,24159],[93.2,24242],[93.2,24326],[93.2,24409],[93.2,24492],[93.2,24576],[93.2,24658],[93.2,24742],[93.2,24825],[93.2,24909],[93.1,24992],[93.1,25075],[93.1,25159],[93,25242],[93,25325],[93,25409],[93,25492],[93,25576],[93,25659],[93,25742],[93,25825],[93,25908],[93,25992],[93,26075],[93,26158],[93,26242],[93,26325],[93,26408],[93,26492],[93,26575],[93,26658],[93,26742],[93,26825],[93,26908],[93,26992],[93,27075],[93,27158],[93,27241],[93,27325],[93,27408],[93,27491],[93,27575],[93,27658],[93,27742],[93,27825],[93,27908],[93,27991],[93,28075],[93,28158],[93,28241],[93,28324],[93,28408],[93,28491],[93,28574],[93,28658],[93,28741],[93,28824],[93,28908],[93,28991],[93,29074],[93,29158],[93,29241],[93,29324],[93,29407]]",839.8458,844.0774,38.33333651,1.6053,"[{""rating"":38.333336512247726,""responseTime"":1.6053000000119937}]",space,3.6843,,844.0775,Not at all,0,844.0797,,,[],,0,2,2,2,1,audio/Narrative7Situation2.wav,audio/Narrative8Situation2.wav,audio/Narrative5Situation2.wav,audio/Narrative6Situation2.wav,3,3,3,3,,,,,,,,,,,,,,,,,,,,,,,,,,,,,,,,,,,,,,,
,,,,,67d72063e9c2d9c1c2f242b4,2025-07-07_22h01.27.811,group3.4_multiperson,2023.2.2,Win32,60.24096386,686c2ebf0248f13bef9af11f,686c7b9f054559357cdf5945,,,,,,,,,,,,,,,,,,,,,,,,,,,,,844.0802,2,audio/Narrative5Situation3.wav,847.0934,,847.0934,861.0058,"[[999,0],[999,83],[999,166],[999,249],[999,333],[999,416],[999,499],[999,582],[999,667],[999,750],[999,833],[999,916],[999,999],[999,1082],[999,1166],[999,1249],[999,1332],[999,1416],[999,1499],[999,1582],[999,1665],[999,1749],[999,1832],[999,1915],[999,1999],[999,2082],[999,2165],[999,2249],[999,2332],[999,2415],[999,2499],[999,2582],[999,2665],[999,2749],[999,2832],[999,2915],[999,2998],[999,3082],[999,3165],[999,3248],[999,3331],[999,3415],[999,3498],[999,3581],[999,3665],[999,3749],[999,3831],[999,3915],[999,3998],[999,4081],[999,4165],[999,4248],[999,4331],[999,4415],[999,4498],[999,4581],[999,4665],[999,4748],[999,4831],[999,4915],[999,4998],[999,5081],[999,5164],[999,5248],[999,5331],[999,5414],[999,5498],[999,5581],[999,5664],[999,5748],[999,5831],[999,5914],[999,5997],[999,6081],[999,6164],[999,6248],[999,6331],[999,6414],[999,6497],[999,6581],[999,6664],[999,6747],[999,6831],[999,6914],[999,6997],[999,7081],[999,7164],[999,7247],[999,7330],[999,7414],[999,7497],[56.4,7581],[61.1,7664],[65.9,7748],[70,7831],[74,7914],[76,7997],[78.7,8081],[79.8,8164],[85.3,8247],[85.7,8331],[90.3,8414],[90.8,8497],[90.8,8580],[90.8,8663],[90.8,8747],[90.9,8830],[91.6,8914],[91.6,8997],[91.6,9080],[91.9,9163],[91.9,9247],[91.9,9330],[91.9,9413],[91.9,9496],[91.9,9580],[91.9,9663],[91.9,9747],[91.9,9830],[91.9,9913],[91.9,9996],[92,10080],[92,10163],[92,10246],[92,10330],[92,10413],[92,10496],[92,10580],[92,10663],[92,10746],[92,10829],[92,10913],[92,10996],[92,11079],[92,11163],[92,11246],[92,11329],[92,11413],[92,11496],[92,11579],[92,11662],[92,11746],[92,11829],[92.1,11913],[92.1,11996],[92.1,12079],[92.1,12162],[92.1,12245],[92.1,12329],[92.1,12413],[92.1,12496],[92.1,12579],[92.1,12662],[92.1,12745],[92.1,12829],[92.1,12913],[92.1,12996],[92.1,13079],[92.1,13163],[92.1,13246],[92.1,13329],[92.1,13412],[92.1,13495],[92.1,13579],[92.1,13662],[92.1,13745],[92.1,13829],[92.1,13912]]",861.0061,863.272,90.83333015,1.0323,"[{""rating"":90.83333015441895,""responseTime"":1.032300000011901}]",space,1.7257,,863.2721,Definitely yes,100,863.2761,,,[],,0,3,3,3,1,audio/Narrative7Situation3.wav,audio/Narrative8Situation3.wav,audio/Narrative5Situation3.wav,audio/Narrative6Situation3.wav,8,4,3,5,,,,,,,,,,,,,,,,,,,,,,,,,,,,,,,,,,,,,,,
,,,,,67d72063e9c2d9c1c2f242b4,2025-07-07_22h01.27.811,group3.4_multiperson,2023.2.2,Win32,60.24096386,686c2ebf0248f13bef9af11f,686c7b9f054559357cdf5945,,,,,,,,,,,,,,,,,,,,,,,,,,,,,863.2765,2,audio/Narrative5Situation4.wav,864.2883,,864.2885,884.6825,"[[88.6,6748],[86.9,6831],[85.6,6914],[84.4,6997],[82.6,7081],[82.6,7164],[82.2,7247],[82.2,7330],[82.1,7414],[82.1,7497],[82.1,7580],[81.9,7664],[81.6,7747],[81.5,7830],[81,7914],[80.7,7997],[80.7,8080],[80.3,8164],[80.3,8247],[80.3,8330],[80.2,8413],[80.2,8497],[80.2,8580],[80.2,8663],[79.7,8747],[79.7,8830],[79.7,8913],[79.7,8997],[79.7,9080],[79.7,9163],[79.7,9247],[79.7,9330],[79.7,9414],[79.7,9496],[79.7,9580],[79.7,9663],[79.7,9746],[79.7,9830],[79.7,9913],[79.7,9996],[79.7,10080],[79.7,10163],[79.7,10246],[79.7,10330],[79.7,10413],[79.7,10496],[79.7,10579],[79.7,10663],[79.7,10746],[79.7,10829],[79.7,10913],[79.7,10996],[79.7,11079],[79.7,11163],[79.7,11246],[79.7,11329],[79.7,11413],[79.7,11496],[79.7,11579],[79.7,11663],[79.6,11746],[79.4,11829],[79.4,11912],[79.4,11996],[79.4,12079],[79.4,12162],[79.4,12246],[79.4,12329],[79.4,12412],[79.4,12496],[79.4,12579],[79.4,12662],[79.4,12746],[79.4,12829],[79.4,12913],[79.4,12995],[79.4,13079],[79.4,13162],[79.4,13245],[79.4,13329],[79.4,13412],[79.4,13495],[79.4,13579],[79.4,13662],[79.4,13745],[79.4,13829],[79.4,13912],[79.4,13995],[79.4,14078],[79.4,14162],[79.4,14245],[79.4,14328],[79.4,14412],[79.4,14495],[79.4,14578],[79.4,14662],[79.4,14745],[79.4,14828],[79.4,14912],[79.4,14995],[79.4,15078],[79.4,15162],[79.4,15245],[79.4,15328],[79.4,15411],[79.4,15495],[79.4,15578],[79.4,15661],[79.4,15745],[79.4,15828],[79.4,15911],[79.4,15995],[79.4,16078],[79.4,16161],[79.4,16245],[79.4,16328],[79.4,16411],[79.4,16495],[79.4,16578],[79.4,16661],[79.4,16745],[79.4,16828],[79.4,16911],[79.4,16994],[79.4,17078],[79.4,17161],[79.4,17244],[79.4,17328],[79.4,17411],[79.4,17494],[79.4,17578],[79.4,17661],[79.4,17745],[79.4,17827],[79.4,17911],[79.4,17994],[79.4,18077],[79.4,18161],[79.4,18244],[79.4,18327],[79.4,18410],[79.4,18494],[79.4,18577],[79.4,18660],[79.4,18744],[79.4,18827],[79.4,18910],[79.4,18994],[79.3,19077],[79.3,19160],[79.3,19244],[79.3,19327],[79.5,19411],[84.5,19494],[87.9,19577],[87.9,19660],[87.9,19744],[87.9,19827],[87.9,19910],[87.9,19993],[87.9,20077],[87.9,20160],[87.9,20244],[87.9,20327]]",884.6827,886.2831,87.9166762,0.5718,"[{""rating"":87.91667620340984,""responseTime"":0.5718000000118764}]",space,1.0636,,886.2832,Not at all,0,886.2873,,,[],,0,4,4,4,1,audio/Narrative7Situation4.wav,audio/Narrative8Situation4.wav,audio/Narrative5Situation4.wav,audio/Narrative6Situation4.wav,3,3,1,2,,,,,,,,,,,,,,,,,,,,,,,,,,,,,,,,,,,,,,,
,,,,,67d72063e9c2d9c1c2f242b4,2025-07-07_22h01.27.811,group3.4_multiperson,2023.2.2,Win32,60.24096386,686c2ebf0248f13bef9af11f,686c7b9f054559357cdf5945,,,,,,,,,,,,,,,,,,,,,,,,,,,,,886.2876,2,audio/Narrative5Situation5.wav,891.2971,,891.2971,906.7258,"[[88,9413],[88,9497],[88,9580],[88,9663],[88,9747],[88,9830],[88,9913],[88,9996],[88,10080],[88,10163],[88,10246],[88,10330],[88,10413],[88,10496],[88,10580],[88,10663],[88,10746],[88,10829],[88,10913],[88,10996],[88,11080],[88,11163],[88,11246],[88,11330],[88,11413],[88,11496],[88,11579],[88,11663],[88,11746],[88,11829],[88,11913],[88,11996],[88,12079],[88,12162],[88,12246],[88,12329],[88,12413],[88,12496],[88,12579],[88,12662],[88,12745],[88,12829],[88,12913],[88,12995],[88,13079],[88,13162],[88,13245],[88,13329],[88,13412],[88,13496],[88,13579],[88,13662],[88,13745],[88,13829],[88,13912],[88,13995],[88,14079],[88,14162],[88,14245],[88,14328],[88,14412],[88,14495],[88,14579],[88,14662],[88,14745],[88,14829],[88,14912],[88,14995],[88,15078],[88,15162],[88,15245],[88,15328],[88,15412]]",906.7259,911.2579,23.54166508,3.4905,"[{""rating"":23.541665077209473,""responseTime"":3.4904999999999973}]",space,3.9833,,911.2579,Not at all,0,911.2605,,,[],,0,5,5,5,1,audio/Narrative7Situation5.wav,audio/Narrative8Situation5.wav,audio/Narrative5Situation5.wav,audio/Narrative6Situation5.wav,5,2,5,2,,,,,,,,,,,,,,,,,,,,,,,,,,,,,,,,,,,,,,,
,,,,,67d72063e9c2d9c1c2f242b4,2025-07-07_22h01.27.811,group3.4_multiperson,2023.2.2,Win32,60.24096386,686c2ebf0248f13bef9af11f,686c7b9f054559357cdf5945,,,,,,,,,,,,,,,,,,,,,,,,,,,,,911.2609,2,audio/Narrative5Situation6.wav,914.274,,914.2741,919.956,"[[24.6,2415],[58,2915],[62.2,2998],[63.6,3082],[66.6,3165],[69.5,3248],[71.6,3332],[71.6,3415],[74.1,3498],[75.4,3581],[76.3,3665],[77.9,3748],[82.2,3832],[83.3,3915],[87.9,3998],[88.5,4081],[88.5,4165],[88.5,4248],[88.5,4331],[88.5,4414],[88.5,4498],[88.5,4581],[88.5,4664],[88.5,4748],[88.5,4831],[88.7,4914],[88.7,4998],[88.7,5081],[88.7,5164],[88.7,5248],[88.7,5331],[88.7,5414],[88.7,5498],[88.9,5581],[88.9,5664]]",919.9561,923.1213,88.74999682,1.8716,"[{""rating"":88.74999682108562,""responseTime"":1.871600000023932}]",space,2.619,,923.1214,Definitely yes,100,923.1253,,,[],,0,6,6,6,1,audio/Narrative7Situation6.wav,audio/Narrative8Situation6.wav,audio/Narrative5Situation6.wav,audio/Narrative6Situation6.wav,3,2,3,2,,,,,,,,,,,,,,,,,,,,,,,,,,,,,,,,,,,,,,,
,,,,,67d72063e9c2d9c1c2f242b4,2025-07-07_22h01.27.811,group3.4_multiperson,2023.2.2,Win32,60.24096386,686c2ebf0248f13bef9af11f,686c7b9f054559357cdf5945,,,,,,,,,,,,,,,,,,,,,,,,,,,,,923.1258,2,audio/Narrative5Situation7.wav,927.1367,,927.1368,948.1808,"[[84.3,2915],[81.8,2998],[81.8,3082],[81.7,3165],[81.9,3248],[82.4,6914],[82.7,6998],[83.8,7081],[83.8,7164],[84.1,7247],[84.8,7331],[87.2,7414],[89,7497],[89.4,7580],[90.7,7663],[91,7747],[92.4,7830],[92.5,7913],[92.5,7997],[92.5,8080],[92.5,8164],[92.5,8247],[92.5,8330],[92.5,8414],[92.5,8497],[92.5,8580],[92.5,8663],[92.5,8746],[92.5,8830],[92.5,8913],[92.5,8996],[92.5,9080],[92.5,9163],[92.5,9247],[92.5,9330],[92.5,9413],[92.5,9497],[92.5,9580],[92.5,9663],[92.5,9746],[92.5,9829],[92.5,9913],[92.5,9996],[92.5,10080],[92.5,10163],[92.5,10246],[92.5,10330],[92.5,10413],[92.5,10496],[92.5,10580],[92.5,10663],[92.5,10746],[92.5,10829],[92.5,10913],[92.5,10996],[92.5,11079],[92.5,11163],[92.5,11246],[92.5,11329],[92.5,11412],[92.5,11496],[92.5,11579],[92.5,11663],[92.5,11746],[92.5,11829],[92.5,11912],[92.5,11996],[92.5,12079],[92.5,12163],[92.5,12246],[92.6,12329],[92.6,12412],[92.6,12495],[92.6,12579],[92.6,12662],[92.6,12745],[92.6,12829],[92.6,12912],[92.6,12995],[92.6,13078],[92.6,13162],[92.6,13245],[92.6,13328],[92.6,13412],[92.6,13495],[92.6,13578],[92.6,13662],[92.6,13745],[92.6,13829],[92.6,13912],[92.5,13995],[92.5,14079],[92.5,14162],[92.5,14245],[92.5,14328],[92.5,14412],[92.5,14495],[92.5,14578],[92.5,14662],[92.5,14745],[92.5,14828],[92.5,14911],[92.5,14995],[92.5,15078],[92.5,15162],[92.5,15245],[92.5,15328],[92.5,15411],[92.5,15495],[92.5,15578],[92.5,15662],[92.5,15745],[92.5,15828],[92.5,15911],[92.5,15994],[92.5,16078],[92.5,16162],[92.5,16245],[92.5,16328],[92.5,16411],[92.5,16495],[92.5,16578],[92.5,16661],[92.5,16745],[92.5,16828],[92.5,16911],[92.5,16994],[92.5,17077],[92.5,17161],[92.5,17244],[92.5,17327],[92.5,17411],[92.5,17494],[92.5,17577],[92.5,17661],[92.5,17744],[92.5,17827],[92.5,17911],[92.5,17994],[92.5,18077],[92.5,18161],[92.5,18244],[92.5,18327],[92.5,18410],[92.5,18494],[92.5,18577],[92.5,18661],[92.5,18744],[92.5,18827],[92.5,18910],[92.5,18994],[92.5,19077],[92.5,19160],[92.5,19244],[92.5,19327],[92.5,19410],[92.5,19493],[92.5,19577],[92.5,19660],[92.5,19744],[92.5,19827],[92.5,19910],[92.5,19993],[92.5,20077],[92.5,20160],[92.5,20244],[92.5,20327],[92.5,20410],[92.5,20493],[92.5,20576],[92.5,20660],[92.5,20743],[92.5,20826],[93,20910],[93.2,20993]]",948.1811,954.1789,42.50000318,3.9359,"[{""rating"":93.54166984558105,""responseTime"":1.299699999987979},{""rating"":42.50000317891438,""responseTime"":3.9358999999760726}]",space,5.449,0.0044,954.1789,Partially,50,954.1829,,,[],,0,7,7,7,1,audio/Narrative7Situation7.wav,audio/Narrative8Situation7.wav,audio/Narrative5Situation7.wav,audio/Narrative6Situation7.wav,5,3,4,5,,,,,,,,,,,,,,,,,,,,,,,,,,,,,,,,,,,,,,,
,,,,,67d72063e9c2d9c1c2f242b4,2025-07-07_22h01.27.811,group3.4_multiperson,2023.2.2,Win32,60.24096386,686c2ebf0248f13bef9af11f,686c7b9f054559357cdf5945,,,,,,,,,,,,,,,,,,,,,,,,,,,,,954.1833,2,audio/Narrative5Situation8.wav,957.1945,,957.1946,966.0252,[],966.0254,970.9736,91.97916985,2.3459,"[{""rating"":91.97916984558105,""responseTime"":2.345899999976041}]",space,4.4083,,970.9737,Not at all,0,970.9775,,,[],,0,8,8,8,1,audio/Narrative7Situation8.wav,audio/Narrative8Situation8.wav,audio/Narrative5Situation8.wav,audio/Narrative6Situation8.wav,2,3,3,5,,,,,,,,,,,,,,,,,,,,,,,,,,,,,,,,,,,,,,,
,,,,,67d72063e9c2d9c1c2f242b4,2025-07-07_22h01.27.811,group3.4_multiperson,2023.2.2,Win32,60.24096386,686c2ebf0248f13bef9af11f,686c7b9f054559357cdf5945,,,,,,,,,,,,,,,,,,,,,,,,,,,,,970.9779,2,audio/Narrative5Situation9.wav,973.9896,,973.9897,1013.5451,"[[92.5,21993],[93.1,22076],[93.1,22159],[93.1,22243],[93.1,22326],[93.1,22409],[93.1,22493],[93.1,22576],[93.1,22659],[93.1,22743],[93.1,22826],[93.1,22909],[93.1,22993],[93.1,23076],[93.1,23159],[93.1,23243],[93.1,23326],[93.1,23409],[93.1,23492],[93.1,23576],[93.1,23659],[93.1,23743],[93.1,23826],[93.1,23909],[93.1,23992],[93.1,24076],[93.3,24159],[93.3,24243],[93.4,24326],[93.4,24409],[93.6,24492],[93.6,24575],[93.6,24659],[93.8,24742],[93.8,24826],[93.8,24909],[93.8,24992],[93.8,25075],[93.8,25159],[93.9,25242],[93.9,25325],[93.9,25409],[93.9,25492],[93.9,25575],[93.9,25658],[93.9,25742],[93.9,25825],[93.9,25908],[93.9,25992],[94.1,26075],[94,26158],[93.9,26242],[93.9,26325],[93.9,26408],[93.9,26492],[93.9,26575],[93.9,26658],[93.9,26741],[93.9,26825],[93.9,26908],[93.9,26991],[93.9,27075],[93.9,27158],[93.9,27242],[93.9,27324],[93.9,27408],[93.9,27491],[93.9,27574],[93.9,27658],[93.9,27741],[93.9,27824],[93.9,27908],[93.9,27991],[93.9,28075],[93.9,28158],[93.9,28241],[93.9,28325],[93.9,28408],[93.9,28491],[93.9,28575],[93.9,28658],[93.9,28741],[93.9,28824],[93.9,28907],[93.9,28991],[93.9,29074],[93.9,29157],[93.9,29241],[93.9,29324],[93.9,29408],[93.9,29491],[93.9,29574],[93.9,29658],[93.9,29741],[93.9,29824],[93.9,29907],[93.9,29991],[93.9,30074],[93.9,30157],[93.9,30240],[93.9,30324],[93.9,30407],[93.9,30490],[93.9,30573],[93.9,30657],[93.9,30741],[93.9,30824],[93.9,30907],[93.9,30990],[93.9,31074],[93.9,31157],[93.9,31240],[93.9,31323],[93.9,31407],[93.9,31490],[93.9,31573],[93.9,31657],[93.9,31740],[93.9,31823],[93.9,31907],[93.9,31990],[93.9,32073],[93.9,32157],[93.9,32240],[93.9,32323],[93.9,32406],[93.9,32490],[93.9,32573],[93.9,32656],[93.9,32740],[93.9,32823],[93.9,32906],[93.9,32990],[93.9,33073],[93.9,33156],[93.9,33240],[93.9,33323],[93.9,33406],[93.9,33490],[93.9,33573],[93.9,33656],[93.9,33739],[93.9,33823],[93.9,33906],[93.9,33990],[93.9,34072],[93.9,34156],[93.9,34239],[93.9,34322],[93.9,34406],[93.9,34489],[93.9,34573],[93.9,34656],[93.9,34739],[93.9,34822],[93.9,34906],[93.9,34989],[93.9,35073],[93.9,35156],[93.9,35239],[93.9,35322],[93.9,35405],[93.9,35489],[93.9,35572],[93.9,35656],[93.9,35739],[93.9,35822],[93.9,35905],[93.9,35989],[93.9,36072],[93.9,36155],[93.9,36239],[93.9,36322],[93.9,36405],[93.9,36489],[93.9,36572],[93.9,36655],[93.9,36739],[93.9,36822],[93.9,36906],[93.9,36988],[93.9,37072],[93.9,37155],[93.9,37238],[93.9,37322],[93.9,37405],[93.9,37489],[93.9,37572],[93.9,37655],[93.9,37738],[93.9,37821],[93.9,37905],[93.9,37988],[93.9,38072],[93.9,38155],[93.9,38238],[93.9,38322],[93.9,38405],[93.9,38488],[93.9,38572],[93.9,38655],[93.9,38738],[93.9,38821],[93.9,38904],[93.9,38988],[93.9,39071],[93.9,39155],[93.9,39238],[93.9,39321],[93.9,39404],[93.9,39488]]",1013.5453,1016.0939,93.85417302,1.406,"[{""rating"":93.85417302449544,""responseTime"":1.4060000000001764}]",space,2.0101,,1016.0939,Definitely yes,100,1016.0978,,,[],,0,9,9,9,1,audio/Narrative7Situation9.wav,audio/Narrative8Situation9.wav,audio/Narrative5Situation9.wav,audio/Narrative6Situation9.wav,2,3,3,4,,,,,,,,,,,,,,,,,,,,,,,,,,,,,,,,,,,,,,,
,,,,,67d72063e9c2d9c1c2f242b4,2025-07-07_22h01.27.811,group3.4_multiperson,2023.2.2,Win32,60.24096386,686c2ebf0248f13bef9af11f,686c7b9f054559357cdf5945,,,,,,,,,,,,,,,,,,,,,,,,,,,,,1016.0983,2,audio/Narrative6Situation1.wav,1018.1102,,1018.1103,1044.7024,"[[92.9,166],[92.9,249],[92.9,332],[92.9,416],[92.8,500],[92.8,582],[92.8,667],[92.8,750],[92.8,833],[92.8,916],[92.8,999],[92.8,1082],[92.6,1166],[88.6,1249],[83.4,1333],[81.1,1416],[81,1499],[80.7,1582],[80.6,1665],[80.6,1749],[80.6,1832],[80.6,1915],[80.6,1999],[80.6,2082],[80.6,2165],[80.6,2248],[80.6,2332],[80.6,2415],[80.6,2498],[80.6,2582],[80.6,2665],[80.6,2749],[80.8,2832],[91.7,2915],[95.1,2998],[96,3082],[96,3165],[96,3248],[87.3,3332],[77.5,3415],[73.8,3498],[72,3581],[72,3665],[72,3748],[72,3832],[72,3915],[72,3998],[72,4081],[72,4165],[72,4248],[72,4331],[72,4415],[72,4498],[72,4581],[72,4664],[72,4748],[72,4831],[72,4914],[72,4998],[72,5081],[72,5164],[72,5247],[72,5331],[72,5414],[72,5498],[72,5581],[72,5664],[72,5748],[72,5831],[72,5914],[72,5997],[72,6080],[72,6164],[72,6247],[72,6331],[72,6414],[72,6497],[72,6580],[72,6664],[72,6747],[72,6830],[72,6914],[72,6997],[72,7081],[72,7164],[72,7247],[72,7331],[72,7414],[72,7497],[72,7581],[72,7663],[72,7747],[72,7830],[72,7914],[72,7997],[72,8080],[72,8163],[72,8247],[72,8330],[72,8414],[72,8497],[72,8580],[72,8663],[72,8747],[72,8830],[72,8913],[72,8996],[72,9080],[72,9163],[72,9246],[72,9330],[72,9413],[72,9497],[72,9580],[72,9663],[72,9746],[72,9830],[72,9913],[72,9996],[72,10080],[72,10163],[72,10246],[72,10329],[72,10413],[72,10496],[72,10579],[72,10663],[72,10746],[72,10830],[72,10913],[72,10996],[72,11079],[72,11163],[72,11246],[72,11329],[72,11413],[72,11496],[72,11579],[72,11662],[72,11745],[72,11829],[72,11912],[72,11996],[72,12079],[72,12162],[72,12245],[72,12329],[72,12412],[72,12495],[72,12579],[72,12662],[72,12745],[72,12829],[72,12912],[72,12995],[72,13079],[72,13162],[72,13245],[72,13329],[72,13412],[72,13495],[72,13579],[72,13662],[72,13745],[72,13828],[72,13912],[72,13995],[72,14079],[72,14162],[72,14245],[72,14328],[72,14412],[72,14495],[72,14578],[72,14662],[72,14745],[72,14828],[72,14911],[72,14995],[72,15078],[72,15162],[72,15245],[72,15328],[72,15411],[72,15495],[72,15578],[72,15661],[72,15744],[72,15828],[72,15911],[72,15994],[72,16078],[72,16161],[72,16244],[72,16328],[72,16411],[72,16494],[72,16578],[72,16661],[72,16744],[72,16827],[72,16911],[72,16994],[72,17078],[72,17161],[72,17244],[72,17328],[72,17411],[72,17494],[72,17577],[72,17661],[72,17744],[72,17827],[72,17910],[72,17994],[72,18077],[72,18160],[72,18244],[72,18327],[72,18410],[72,18494],[72,18577],[72,18660],[72,18743],[72,18827],[72,18910],[72,18993],[72,19077],[72,19160],[72,19244],[72,19327],[72,19410],[72,19494],[72,19577],[72,19660],[72,19743],[72,19827],[72,19910],[72,19993],[72,20077],[72,20160],[72,20243],[72,20327],[72,20410],[72,20493],[72,20577],[72,20660],[72,20743],[72,20827],[72,20910],[72,20993],[72,21076],[72,21160],[72,21243],[72,21326],[72,21409],[72,21493],[72,21576],[72,21659],[72,21743],[72,21826],[72,21910],[72,21993],[72,22076],[72,22159],[72,22243],[72,22326],[72,22409],[72,22493],[72,22576],[72,22659],[72,22743],[72,22826],[72,22909],[72,22992],[72,23076],[72,23159],[72,23242],[72,23326],[72,23409],[72,23492],[72,23575],[72,23659],[72,23742],[72,23826],[72,23909],[72,23992],[72,24075],[72,24159],[72,24242],[72,24326],[72,24409],[72,24492],[72,24575],[72,24659],[72,24742],[72,24825],[72,24908],[72,24992],[72,25075],[72,25158],[72,25242],[72,25325],[72,25408],[72,25492],[72,25575],[72,25658],[72,25742],[72,25825],[72,25909],[72,25992],[72,26075],[72,26158],[72,26241],[72,26325],[72,26408],[72,26491],[72,26575]]",1044.7026,1050.084,94.47916349,2.7206,"[{""rating"":94.47916348775227,""responseTime"":2.720599999964179}]",space,4.8342,,1050.0841,Partially,50,1050.0877,,,[],,0,10,10,10,1,audio/Narrative8Situation1.wav,audio/Narrative7Situation1.wav,audio/Narrative6Situation1.wav,audio/Narrative5Situation1.wav,5,2,2,5,,,,,,,,,,,,,,,,,,,,,,,,,,,,,,,,,,,,,,,
,,,,,67d72063e9c2d9c1c2f242b4,2025-07-07_22h01.27.811,group3.4_multiperson,2023.2.2,Win32,60.24096386,686c2ebf0248f13bef9af11f,686c7b9f054559357cdf5945,,,,,,,,,,,,,,,,,,,,,,,,,,,,,1050.0882,2,audio/Narrative6Situation2.wav,1053.0997,,1053.0997,1081.6083,"[[94.6,27825],[94.6,27908],[94.6,27991],[94.6,28075],[94.6,28158],[94.6,28241],[94.6,28325],[94.6,28408],[94.6,28491]]",1081.6085,1083.4577,94.58333651,1.04,"[{""rating"":94.58333651224773,""responseTime"":1.0399999999999636}]",space,1.2995,,1083.4578,Not at all,0,1083.4614,,,[],,0,11,11,11,1,audio/Narrative8Situation2.wav,audio/Narrative7Situation2.wav,audio/Narrative6Situation2.wav,audio/Narrative5Situation2.wav,3,3,3,3,,,,,,,,,,,,,,,,,,,,,,,,,,,,,,,,,,,,,,,
,,,,,67d72063e9c2d9c1c2f242b4,2025-07-07_22h01.27.811,group3.4_multiperson,2023.2.2,Win32,60.24096386,686c2ebf0248f13bef9af11f,686c7b9f054559357cdf5945,,,,,,,,,,,,,,,,,,,,,,,,,,,,,1083.4619,2,audio/Narrative6Situation3.wav,1088.4729,,1088.4729,1101.1026,[],1101.1027,1102.6363,94.58333651,0.3992,"[{""rating"":94.58333651224773,""responseTime"":0.3991999999880136}]",space,0.9873,,1102.6364,Definitely yes,100,1108.6002,98.12499682,5.2116,"[{""rating"":98.12499682108562,""responseTime"":5.211600000023736}]",space,0,12,12,12,1,audio/Narrative8Situation3.wav,audio/Narrative7Situation3.wav,audio/Narrative6Situation3.wav,audio/Narrative5Situation3.wav,4,8,5,3,,,5.4159,,,,,,,,,,,,,,,,,,,,,,,,,,,,,,,,,,,,
,,,,,67d72063e9c2d9c1c2f242b4,2025-07-07_22h01.27.811,group3.4_multiperson,2023.2.2,Win32,60.24096386,686c2ebf0248f13bef9af11f,686c7b9f054559357cdf5945,,,,,,,,,,,,,,,,,,,,,,,,,,,,,1108.6007,2,audio/Narrative6Situation4.wav,1110.6165,,1110.6166,1123.2462,"[[98.1,12579]]",1123.2464,1124.9455,98.12499682,1.0253,"[{""rating"":98.12499682108562,""responseTime"":1.0253000000120664}]",space,1.1597,,1124.9456,Definitely yes,100,1124.948,,,[],,0,13,13,13,1,audio/Narrative8Situation4.wav,audio/Narrative7Situation4.wav,audio/Narrative6Situation4.wav,audio/Narrative5Situation4.wav,3,3,2,1,,,,,,,,,,,,,,,,,,,,,,,,,,,,,,,,,,,,,,,
,,,,,67d72063e9c2d9c1c2f242b4,2025-07-07_22h01.27.811,group3.4_multiperson,2023.2.2,Win32,60.24096386,686c2ebf0248f13bef9af11f,686c7b9f054559357cdf5945,,,,,,,,,,,,,,,,,,,,,,,,,,,,,1124.9489,2,audio/Narrative6Situation5.wav,1126.9623,,1126.9624,1134.9262,[],1134.9263,1136.9255,98.12499682,1.0937,"[{""rating"":98.12499682108562,""responseTime"":1.0937000000476473}]",space,1.4571,,1136.9256,Partially,50,1136.9293,,,[],,0,14,14,14,1,audio/Narrative8Situation5.wav,audio/Narrative7Situation5.wav,audio/Narrative6Situation5.wav,audio/Narrative5Situation5.wav,2,5,2,5,,,,,,,,,,,,,,,,,,,,,,,,,,,,,,,,,,,,,,,
,,,,,67d72063e9c2d9c1c2f242b4,2025-07-07_22h01.27.811,group3.4_multiperson,2023.2.2,Win32,60.24096386,686c2ebf0248f13bef9af11f,686c7b9f054559357cdf5945,,,,,,,,,,,,,,,,,,,,,,,,,,,,,1136.9298,2,audio/Narrative6Situation6.wav,1138.9417,,1138.9418,1150.0216,"[[98.1,10079],[98.1,10163],[98.1,10247],[98.1,10329],[98.1,10413],[98.1,10496],[98.1,10579],[98.1,10663],[98.1,10746],[98.1,10829],[98.1,10912],[98.1,10996],[98.1,11079]]",1150.0218,1151.5553,98.12499682,0.8766,"[{""rating"":98.12499682108562,""responseTime"":0.8766000000237}]",space,0.9845,,1151.5554,Not at all,0,1151.5592,,,[],,0,15,15,15,1,audio/Narrative8Situation6.wav,audio/Narrative7Situation6.wav,audio/Narrative6Situation6.wav,audio/Narrative5Situation6.wav,2,3,2,3,,,,,,,,,,,,,,,,,,,,,,,,,,,,,,,,,,,,,,,
,,,,,67d72063e9c2d9c1c2f242b4,2025-07-07_22h01.27.811,group3.4_multiperson,2023.2.2,Win32,60.24096386,686c2ebf0248f13bef9af11f,686c7b9f054559357cdf5945,,,,,,,,,,,,,,,,,,,,,,,,,,,,,1151.5597,2,audio/Narrative6Situation7.wav,1156.5696,,1156.5697,1181.4292,"[[97.7,16745],[96.8,16828],[96.5,16911],[96.3,16994],[96.3,17078],[96.3,17161],[96.3,17244],[96.3,17328],[96.3,17411],[96.3,17495],[96.3,17578],[96.3,17661],[96.3,17744],[96.3,17827],[96.3,17911],[96.3,17994],[96.3,18077],[96.3,18161],[96.3,18244],[96.3,18327],[96.3,18411],[96.3,18494],[96.3,18577],[94.5,18661],[93.6,18744],[93.4,18827],[93.3,18911],[93.3,18994],[93.3,19077],[93.3,19160],[93.3,19244],[93.3,19327],[93.3,19411],[93.3,19494],[93.3,19577],[93.3,19660],[93.3,19744],[93.3,19827],[93.3,19911],[93.3,19994],[93.3,20077],[93.3,20160],[93.3,20243],[93.3,20327],[93.3,20410],[93.3,20493],[93.3,20577],[93.3,20660],[93.3,20743],[93.3,20827],[93.3,20910],[93.3,20993],[93.3,21076],[93.3,21160],[93.3,21243],[93.3,21326],[93.3,21410],[93.3,21493],[93.3,21577],[93.3,21660],[93.3,21743],[93.3,21826],[93.3,21910],[93.3,21993],[93.3,22076],[93.3,22159],[93.3,22243],[93.3,22326],[93.3,22409],[93.3,22492],[93.3,22576],[93.3,22659],[93.3,22742],[93.3,22826],[93.3,22910],[93.3,22993],[93.3,23076],[93.3,23159],[93.3,23243],[93.3,23326],[93.3,23410],[93.3,23492],[93.3,23576],[93.3,23659],[93.3,23742],[93.3,23826],[93.3,23909],[93.3,23992],[93.3,24076],[93.3,24159],[93.3,24242],[93.3,24326],[93.3,24409],[93.3,24492],[93.3,24575],[93.3,24659],[93.3,24742],[93.3,24825]]",1181.4293,1184.4615,93.33333969,0.7885,"[{""rating"":93.33333969116211,""responseTime"":0.22900000000004184},{""rating"":93.33333969116211,""responseTime"":0.7885000000001128}]",space,2.4833,,1184.4617,Partially,50,1184.4654,,,[],,0,16,16,16,1,audio/Narrative8Situation7.wav,audio/Narrative7Situation7.wav,audio/Narrative6Situation7.wav,audio/Narrative5Situation7.wav,3,5,5,4,,,,,,,,,,,,,,,,,,,,,,,,,,,,,,,,,,,,,,,
,,,,,67d72063e9c2d9c1c2f242b4,2025-07-07_22h01.27.811,group3.4_multiperson,2023.2.2,Win32,60.24096386,686c2ebf0248f13bef9af11f,686c7b9f054559357cdf5945,,,,,,,,,,,,,,,,,,,,,,,,,,,,,1184.4659,2,audio/Narrative6Situation8.wav,1189.4767,,1189.4768,1196.3416,"[[93.5,1916],[93.6,1999],[93.8,2083],[93.8,2165],[93.8,2249],[93.8,2332],[93.8,2415],[93.8,2498],[93.8,2582],[93.8,2665],[93.8,2748],[93.8,2832],[93.8,2915],[94,2999],[97.5,3082],[98,3165],[98.3,3249],[98.3,3332],[98.3,3415],[98.3,3498],[98.3,3582],[98.3,3665],[98.3,3748],[98.3,3832],[98.3,3915],[98.3,3998],[98.3,4082],[98.3,4165],[98.3,4248],[98.3,4332],[98.3,4415],[98.3,4498],[98.3,4581],[98.3,4664],[98.3,4748],[98.3,4832],[98.3,4914],[98.3,4998],[98.3,5081],[98.3,5164],[98.3,5248],[98.3,5331],[98.3,5414],[98.3,5498],[98.3,5581],[98.3,5664],[98.3,5748],[98.3,5831],[98.3,5914],[98.3,5997],[98.3,6081],[98.3,6165],[98.3,6247],[98.3,6331],[98.3,6414],[98.3,6498],[98.3,6581],[98.3,6664],[98.3,6747],[98.3,6831]]",1196.3417,1201.8231,40.20833174,4.5892,"[{""rating"":40.208331743876144,""responseTime"":4.589199999988068}]",space,4.9323,,1201.8232,Definitely yes,100,1201.8285,,,[],,0,17,17,17,1,audio/Narrative8Situation8.wav,audio/Narrative7Situation8.wav,audio/Narrative6Situation8.wav,audio/Narrative5Situation8.wav,3,2,5,3,,,,,,,,,,,,,,,,,,,,,,,,,,,,,,,,,,,,,,,
,,,,,67d72063e9c2d9c1c2f242b4,2025-07-07_22h01.27.811,group3.4_multiperson,2023.2.2,Win32,60.24096386,686c2ebf0248f13bef9af11f,686c7b9f054559357cdf5945,,,,,,,,,,,,,,,,,,,,,,,,,,,,,1201.8289,2,audio/Narrative6Situation9.wav,1205.8387,,1205.8387,1215.8028,"[[44.3,999],[54.9,1083],[89.5,1915],[89.5,1999],[89.5,2082],[89.5,2165],[89.5,2249],[91,2332],[93.2,2415],[94.2,2499],[94.5,2582],[94.5,2665],[94.3,2749],[94.1,2832],[92.4,2916],[87.8,2999],[84.1,3082],[81.9,3165],[81.9,3248],[81.9,3332],[81.9,3415],[81.9,3498],[81.9,3582],[81.9,3665],[81.9,3748],[81.9,3832],[81.9,3915],[81.9,3998],[81.9,4081],[81.9,4165],[81.9,4248],[81.9,4331],[81.9,4415],[81.9,4498],[81.9,4582],[81.9,4665],[81.9,4748],[81.9,4831],[81.9,4915],[81.9,4998],[81.9,5081],[81.9,5164],[81.9,5248],[81.9,5331],[81.9,5414],[81.9,5498],[81.9,5581],[81.9,5664],[81.9,5748],[81.9,5831],[81.9,5914],[81.9,5998],[81.9,6081],[81.9,6164],[81.9,6248],[81.9,6331],[81.9,6414],[81.9,6498],[81.9,6581],[81.9,6664],[81.9,6747],[81.9,6830],[81.9,6914],[81.9,6997],[81.9,7081],[81.9,7164],[81.9,7247],[81.9,7331],[81.9,7414],[81.9,7497],[81.9,7580],[81.9,7664],[81.9,7747],[81.9,7830],[81.9,7914],[81.9,7997],[81.9,8080],[81.9,8164],[81.9,8247],[81.9,8330],[81.9,8414],[81.9,8497],[81.9,8580],[81.9,8663],[81.9,8747],[81.9,8830],[81.9,8913],[81.9,8997],[81.9,9080],[82.1,9164],[82.3,9247],[82.6,9330],[82.8,9413],[83,9497],[83.3,9580],[83.5,9663],[83.6,9746],[81.9,9830],[69.1,9913]]",1215.8031,1219.3511,6.041665872,2.7866,"[{""rating"":6.041665871938068,""responseTime"":2.786600000024009}]",space,3.0081,,1219.3511,Partially,50,1219.3552,,,[],,0,18,18,18,1,audio/Narrative8Situation9.wav,audio/Narrative7Situation9.wav,audio/Narrative6Situation9.wav,audio/Narrative5Situation9.wav,3,2,4,3,,,,,,,,,,,,,,,,,,,,,,,,,,,,,,,,,,,,,,,
,,,,,67d72063e9c2d9c1c2f242b4,2025-07-07_22h01.27.811,group3.4_multiperson,2023.2.2,Win32,60.24096386,686c2ebf0248f13bef9af11f,686c7b9f054559357cdf5945,,,,,,,,,,,,,,,,,,,,,,,,,,,,,,,,,,,,,,,,,,,,,,,,,,,,,,,,,,,,,,,,,,,,,,1219.3555,1223.6837,space,3.7991,,1223.684,1248.6934,space,24.6805,,,,,,,,,,,,,,,,,,,,,,,,,,
,,,,,67d72063e9c2d9c1c2f242b4,2025-07-07_22h01.27.811,group3.4_multiperson,2023.2.2,Win32,60.24096386,686c2ebf0248f13bef9af11f,686c7b9f054559357cdf5945,,,,,,,,,,,,,,,,,,,,,,,,,,,,,1251.2957,1,audio/Narrative8Situation9.wav,1253.308,,,,,1285.2158,1289.3646,95.10416985,2.1478,"[{""rating"":95.10416984558105,""responseTime"":2.1478000000117845}]",space,3.6079,,1289.3647,Partially,50,1289.3671,,,[],,,,,,,,,,,2,2,2,2,,,,,,,,,,,,,,,1248.6961,1251.2755,1253.3085,3,1285.2157,"[[999,0],[999,82],[999,165],[999,249],[999,332],[999,416],[999,499],[999,582],[999,665],[999,749],[999,832],[999,915],[999,999],[999,1083],[999,1165],[999,1249],[999,1332],[999,1415],[999,1498],[999,1582],[999,1665],[999,1749],[999,1832],[999,1915],[999,1999],[999,2082],[999,2165],[999,2248],[999,2332],[999,2415],[999,2499],[999,2582],[999,2665],[999,2749],[999,2832],[999,2915],[999,2998],[999,3082],[999,3165],[999,3248],[999,3332],[999,3415],[999,3498],[999,3582],[999,3665],[999,3748],[999,3832],[999,3914],[999,3998],[999,4081],[999,4164],[999,4248],[999,4331],[999,4414],[999,4498],[999,4581],[999,4664],[999,4748],[999,4831],[999,4914],[999,4997],[999,5081],[999,5164],[999,5248],[999,5331],[999,5414],[999,5497],[999,5581],[999,5664],[999,5747],[999,5830],[999,5914],[999,5997],[999,6080],[999,6164],[999,6247],[999,6330],[999,6414],[999,6497],[999,6580],[999,6664],[999,6747],[999,6831],[999,6914],[999,6997],[999,7080],[999,7163],[999,7247],[999,7330],[999,7414],[999,7497],[999,7580],[999,7663],[999,7747],[999,7830],[999,7913],[999,7997],[999,8080],[999,8164],[999,8247],[999,8330],[999,8414],[999,8496],[999,8580],[999,8663],[999,8746],[999,8830],[999,8913],[999,8996],[999,9079],[999,9163],[999,9246],[999,9330],[999,9413],[999,9496],[999,9579],[999,9663],[999,9746],[999,9829],[999,9913],[999,9996],[999,10079],[999,10163],[999,10246],[999,10329],[999,10413],[999,10496],[999,10579],[999,10663],[999,10746],[999,10829],[999,10912],[999,10996],[999,11079],[999,11163],[999,11246],[999,11329],[999,11412],[999,11496],[999,11579],[999,11662],[999,11745],[999,11829],[999,11912],[999,11996],[999,12079],[999,12162],[999,12245],[999,12328],[999,12412],[999,12495],[999,12578],[999,12662],[999,12746],[999,12829],[999,12912],[999,12996],[999,13078],[999,13162],[999,13245],[999,13328],[999,13412],[999,13495],[999,13578],[999,13662],[999,13745],[999,13828],[999,13912],[999,13995],[999,14078],[999,14162],[999,14245],[999,14328],[999,14411],[999,14495],[999,14578],[999,14662],[999,14744],[999,14828],[999,14911],[999,14995],[999,15078],[999,15162],[999,15245],[999,15328],[999,15411],[999,15494],[999,15578],[999,15661],[999,15744],[999,15828],[999,15911],[999,15994],[999,16078],[999,16161],[999,16244],[999,16328],[999,16411],[999,16494],[999,16577],[999,16661],[999,16744],[999,16827],[999,16911],[999,16994],[999,17077],[999,17161],[999,17244],[999,17327],[999,17411],[999,17494],[999,17577],[999,17661],[999,17744],[999,17827],[999,17910],[999,17994],[999,18077],[999,18160],[999,18244],[999,18327],[999,18410],[999,18493],[999,18577],[999,18661],[999,18744],[999,18827],[999,18910],[999,18993],[999,19077],[999,19160],[999,19243],[999,19327],[999,19410],[999,19493],[999,19577],[999,19660],[999,19743],[999,19827],[999,19910],[999,19993],[999,20077],[999,20160],[999,20243],[999,20327],[999,20410],[999,20493],[999,20577],[999,20660],[999,20743],[999,20826],[999,20909],[999,20993],[999,21077],[999,21160],[999,21242],[999,21326],[999,21409],[999,21493],[999,21576],[999,21660],[999,21743],[999,21826],[999,21909],[999,21993],[999,22076],[999,22159],[999,22243],[999,22326],[999,22409],[999,22492],[999,22576],[999,22659],[999,22742],[999,22826],[999,22909],[999,22992],[999,23076],[999,23159],[999,23243],[999,23326],[999,23409],[999,23492],[999,23575],[999,23659],[999,23742],[999,23825],[999,23909],[999,23992],[999,24075],[999,24159],[999,24242],[999,24325],[999,24409],[999,24492],[999,24575],[999,24659],[999,24742],[999,24825],[999,24908],[999,24992],[999,25075],[999,25158],[999,25242],[999,25325],[999,25409],[999,25492],[999,25575],[999,25658],[999,25741],[999,25825],[999,25908],[999,25992],[999,26075],[999,26158],[999,26242],[999,26325],[999,26408],[999,26491],[999,26575],[999,26658],[999,26742],[999,26825],[999,26908],[999,26991],[999,27074],[999,27158],[999,27241],[999,27324],[999,27408],[999,27491],[999,27574],[999,27658],[999,27741],[999,27824],[999,27907],[999,27991],[999,28074],[999,28157],[999,28241],[999,28324],[999,28407],[999,28491],[999,28574],[999,28657],[999,28741],[999,28824],[999,28907],[999,28991],[999,29074],[999,29157],[999,29240],[999,29324],[999,29407],[999,29491],[999,29574],[999,29657],[999,29741],[999,29824],[999,29907],[999,29990],[999,30073],[999,30157],[999,30241],[999,30323],[999,30407],[999,30490],[999,30573],[999,30657],[999,30740],[999,30824],[999,30906],[999,30990],[999,31073],[999,31156],[999,31240],[999,31323],[999,31406],[999,31490],[999,31573],[999,31656],[999,31740],[999,31823],[999,31906]]",0,0,0,0,1,"Larry had recently lost his family, job and home, and was now living on his own in the park. He had most of his belongings, including some clothes, a blanket, and his mother’s special necklace. His family had been very important to him and he felt as though he did not have much going for him. One of his first days in the park he came across a family that did not have much food and looked very cold. He decided to give them some of his food and his blanket.","Larry had recently lost his family, job and home, and was now living on his own in the park. He had most of his belongings, including some clothes, a blanket, and his mother’s special necklace. His family had been very important to him and he felt as though he did not have much going for him. One of his first days in the park he came across a family that did not have much food and looked very cold. He decided to give them some of his food and his blanket.","Larry had recently lost his family, job and home, and was now living on his own in the park. He had most of his belongings, including some clothes, a blanket, and his mother’s special necklace. His family had been very important to him and he felt as though he did not have much going for him. One of his first days in the park he came across a family that did not have much food and looked very cold. He decided to give them some of his food and his blanket.","Larry had recently lost his family, job and home, and was now living on his own in the park. He had most of his belongings, including some clothes, a blanket, and his mother’s special necklace. His family had been very important to him and he felt as though he did not have much going for him. One of his first days in the park he came across a family that did not have much food and looked very cold. He decided to give them some of his food and his blanket.",,,,,,,,,,
,,,,,67d72063e9c2d9c1c2f242b4,2025-07-07_22h01.27.811,group3.4_multiperson,2023.2.2,Win32,60.24096386,686c2ebf0248f13bef9af11f,686c7b9f054559357cdf5945,,,,,,,,,,,,,,,,,,,,,,,,,,,,,1289.3678,1,audio/Narrative8Situation9.wav,1294.5628,space,,,,1328.1698,1330.9685,94.68750954,1.687,"[{""rating"":94.68750953674316,""responseTime"":1.6869999999998981}]",space,2.2588,,1330.9687,Definitely yes,100,1330.9724,,,[],,,,,,,,,,,6,2,3,9,5.1771,,,,,,,,,,,,,,,,1294.5629,3,1328.1696,[],0,1,1,1,1,"It was just another Sunday afternoon for Lucy, she was on her way to the farmer's market to pick up some produce. When she arrived at the old train depot that housed the market, she noticed two men fighting on the steps. Before she could call for help, one of the men crumpled to his knees. The other man dropped an object that appeared to be a knife and ran off. When Lucy approached the crime scene she realized that the man who had been murdered was the Mayor and that he had a gunshot wound.","One day at work, Margaret walked up to her partner, Al, to ask him to talk to the chief of staff at the local hospital where she worked as a nurse.","Luke always thought of himself as an honest man. That's why during his evening jog around the swamp, he pondered his recent affair with the receptionist at work. Luke looked up at the sky and asked God why he was so weak and unfaithful. He thought of the impact this would have on his family and told God of his conflicted feelings toward telling his wife Marta.","Linda and Amy had been best friends since kindergarten, they even found homes on the same street in the forest on the edge of town. Their biggest fight had been over who gets the bigger slice of cake, until Amy married Dan. Linda loathed Dan, she thought he was manipulative and had a violent temper. She only put up with him because Amy loved him. ",,,,,,,,,,
,,,,,67d72063e9c2d9c1c2f242b4,2025-07-07_22h01.27.811,group3.4_multiperson,2023.2.2,Win32,60.24096386,686c2ebf0248f13bef9af11f,686c7b9f054559357cdf5945,,,,,,,,,,,,,,,,,,,,,,,,,,,,,1330.9729,1,audio/Narrative8Situation9.wav,1334.9842,,,,,1353.5459,1357.311,94.68750954,2.356,"[{""rating"":94.68750953674316,""responseTime"":2.3559999999999945}]",space,3.2229,,1357.3111,Partially,50,1357.3149,,,[],,,,,,,,,,,4,5,2,2,,,,,,,,,,,,,,,,,1334.9843,3,1353.5458,"[[94.7,18244],[94.7,18327],[94.7,18411],[94.7,18494]]",0,2,2,2,1,On the ground beside him was a pen that she had mistaken for a knife. Lucy looked for the gunman and saw a suspicious man in black with distinct pointy features darting into an alley across the street. Cops who were nearby chased the man who had fled and arrested him.,"While waiting outside the chief of staff's office, Al heard nondescript shouting and yelling, there was a loud clatter in the room and then an eerie silence. An unfamiliar employee ran hastily out of the office with a terrified look on their face.","Suddenly, Luke heard a woman call out his name and when he turned around he saw Carly, his receptionist, across the road with a gun in her hand. Carly ran to him and explained how she had followed him here to confess her love. She exclaimed if Luke didn't love her back that she would kill him and his family. Carly explained that the only way they could be together is to kill Marta.","This feeling of hate between Amy and Dan was mutual, Dan didn't like how much time his wife spent with her and thought Amy was creating distance between their marriage. That's why Dan decided to try and tarnish Linda's reputation with his wife, in hopes it would get rid of her. He came home one afternoon and exclaimed that Linda had tried to kiss him. Amy was taken aback and immediately called Linda to confront her about these accusations. When Linda arrived she denied having made a move on Dan, but discovered Dan had enlisted the help of his friend Will who said he witnessed it all happen.",,,,,,,,,,
,,,,,67d72063e9c2d9c1c2f242b4,2025-07-07_22h01.27.811,group3.4_multiperson,2023.2.2,Win32,60.24096386,686c2ebf0248f13bef9af11f,686c7b9f054559357cdf5945,,,,,,,,,,,,,,,,,,,,,,,,,,,,,1357.3154,1,audio/Narrative8Situation9.wav,1359.3272,,,,,1371.191,1375.106,10.10416746,2.6895,"[{""rating"":10.104167461395264,""responseTime"":2.6894999999999527}]",space,3.3713,,1375.1061,Not at all,0,1375.11,,,[],,,,,,,,,,,2,2,1,4,,,,,,,,,,,,,,,,,1359.3273,3,1371.191,[],0,3,3,3,1,"But Lucy knew the charged man was innocent, which meant the killer was free. Lucy vowed to find out who the real murderer was and to stop him at all costs.","Al explained to the chief of staff that Margaret wanted to be excused from her absences last week. The chief of staff, Susan, revealed that she wanted to fire Margaret and never see her again. Susan and Al had been having an affair and she wanted Margaret ""out of the picture"". Al was conflicted, but agreed it would be for the best.","Luke thought of his child and felt like this was his only option. He agreed to the plan and called his wife to meet him at the swamp to watch the sunset with him. When she arrived, Marta called out for her husband, but found Carly waiting for her. She immediately drew her gun and shot her in the chest, knocking her unconscious.","Since it was their word against her own, she decided to go home and admit defeat. She knew how much it would hurt Amy to know the truth.",,,,,,,,,,
,,,,,67d72063e9c2d9c1c2f242b4,2025-07-07_22h01.27.811,group3.4_multiperson,2023.2.2,Win32,60.24096386,686c2ebf0248f13bef9af11f,686c7b9f054559357cdf5945,,,,,,,,,,,,,,,,,,,,,,,,,,,,,1375.1105,1,audio/Narrative8Situation9.wav,1376.1223,,,,,1405.6643,1409.0796,92.39583015,1.9129,"[{""rating"":92.39583015441895,""responseTime"":1.9128999999761618}]",space,2.8773,,1409.0797,Partially,50,1409.0835,,,[],,,,,,,,,,,1,1,3,3,,,,,,,,,,,,,,,,,1376.1223,3,1405.6642,"[[12.3,29158],[19,29241]]",0,4,4,4,1,"The next day the mayors successor, Mr. Smith, a man who was very unpopular due to his strong ties to the oil companies, took office. After a long day of brainstorming about the mysterious killer, Lucy decided to attend his welcome ceremony in the city. During the mayor's speech, she noticed one of the security guards looked strangely familiar. It dawned on her that this new mayor had motive to kill and that the man in black could've been the guard working for him.","Weeks passed and nobody had seen Margaret. Coworkers and friends searched the nearby city looking for her. One day on patrol in a nearby town, a police officer heard someone crying for help in the basement of a house and went in to investigate. Margaret yelled that she was being held captive and needed help.","Luke ran to Marta, and filled with regret over his decision to go along with Carly's plan, picked her up and rushed her to the hospital. The doctors tried to help Marta by taking her into emergency surgery but failed to save her life. Once the doctor called the time of death, Luke fell to his knees and sobbed over his rash decision.","Months later Dan had taken up a mistress, he was growing bored with his marriage ever since he got rid of Linda and was only still with Amy for her family's money. In a hotel room in a nearby town, Dan and his mistress, Nicole, conspired to secretly kill Amy while still obtaining her fortune.",,,,,,,,,,
,,,,,67d72063e9c2d9c1c2f242b4,2025-07-07_22h01.27.811,group3.4_multiperson,2023.2.2,Win32,60.24096386,686c2ebf0248f13bef9af11f,686c7b9f054559357cdf5945,,,,,,,,,,,,,,,,,,,,,,,,,,,,,1409.084,1,audio/Narrative8Situation9.wav,1412.0955,,,,,1428.6403,1432.4558,100,2.8372,"[{""rating"":92.29167302449544,""responseTime"":1.2274000000359138},{""rating"":100,""responseTime"":2.8372000000476874}]",space,3.2762,,1432.4558,Definitely yes,100,1432.4596,,,[],,,,,,,,,,,3,1,3,3,,,,,,,,,,,,,,,,,1412.0955,3,1428.6402,[],0,5,5,5,1,"Lucy decided to confront the mayor after his ceremony. But when she tried to accuse him, the security guards threatened to hurt her if she went to the police with her theory. Before she could say another word a man pulled her from the crowd.","In a rush, the police officer broke down the door and was attacked by a man in the house. Without hesitation, the officer shot the man and the man fell to the floor.","He then saw Marta's brother Zach enter the hospital. Zach ran over to Luke and punched him. Zach screamed at Luke that it's his fault his sister is dead and that he knew about the affair. Luke quickly tried to explain that he felt horrible about Marta's death and that Carly had manipulated him into going along with her plan. Zach, still angry at his brother-in-law, realized his mistake in judgement and shifted his anger toward Carly.","They decided to have Dan invite her to the hotel room under the guise of a romantic date. Once she arrived, Nicole was there to tie her up. Once she was secured to a chair, Nicole demanded Amy's bank passwords. Amy obliged and gave her access to her bank accounts.",,,,,,,,,,
,,,,,67d72063e9c2d9c1c2f242b4,2025-07-07_22h01.27.811,group3.4_multiperson,2023.2.2,Win32,60.24096386,686c2ebf0248f13bef9af11f,686c7b9f054559357cdf5945,,,,,,,,,,,,,,,,,,,,,,,,,,,,,1432.4603,1,audio/Narrative8Situation9.wav,1435.4718,,,,,1452.0335,1454.166,98.33334287,1.4793,"[{""rating"":98.33334287007649,""responseTime"":1.4793000000120173}]",space,1.5904,,1454.1662,Not at all,0,1454.1697,,,[],,,,,,,,,,,3,1,1,2,,,,,,,,,,,,,,,,,1435.4719,3,1452.0334,[],0,6,6,6,1,"The man in question was another security guard of Mayor Smith's, who took Lucy into a hidden alleyway. His name was Max and he quickly explained that he was a part of the initial plot to kill the former Mayor but he regretted his involvement.","The officer rushed to the basement, untied Margaret, and took her to safety.After being notified of the situation, Al rushed to meet Margaret as to not raise any suspicion. When he arrived, he saw Margaret pointing and yelling at Susan who had been handcuffed and was talking to the police. Shortly after, the police took Susan away in a police car. Al was devastated to see her being taken away, as Margaret sneered with disdain.","After the tension with Zach cooled down, Luke thought of when he should call his son and inform him of his mother's passing. He would be out of school any minute and should hear the news from him. Luke reflected on his decision and realized it was necessary to sacrifice his wife to ensure their child's safety, and that Marta had told him to above all else to protect him.",Nicole transferred all of Amy's money into Dan's bank account despite Amy's pleading for her to stop.,,,,,,,,,,
