consent.started,consent.stopped,consentResponse.keys,consentResponse.rt,consentResponse.duration,participantID,date,expName,psychopyVersion,OS,frameRate,STUDY_ID,SESSION_ID,opening1.started,opening1.stopped,keyEndingOpening1.keys,keyEndingOpening1.rt,keyEndingOpening1.duration,volumeAdjust.started,volumeAdjust.stopped,endingAdjust.keys,endingAdjust.rt,endingAdjust.duration,opening2.started,opening2.stopped,keyEndingOpening.keys,keyEndingOpening.rt,keyEndingOpening.duration,mouse.x,mouse.y,mouse.leftButton,mouse.midButton,mouse.rightButton,mouse.time,instructionLoop.thisRepN,instructionLoop.thisTrialN,instructionLoop.thisN,instructionLoop.thisIndex,instructionLoop.ran,readyForAudio.started,readyForAudio.stopped,fixation.started,run,audio_played,fixation.stopped,endPractice.keys,audioPre.started,audioPre.stopped,continuousResponses_audio,intRating.started,intRating.stopped,intQuestionSlider.response,intQuestionSlider.rt,intQuestionSlider.history,confirmResponse.keys,confirmResponse.rt,confirmResponse.duration,catchQuestion.started,catch_label,catch_value,catchQuestion.stopped,catchQuestionSlider.response,catchQuestionSlider.rt,catchQuestionSlider.history,confirmResponse_2.keys,audioRunLoop.thisRepN,audioRunLoop.thisTrialN,audioRunLoop.thisN,audioRunLoop.thisIndex,audioRunLoop.ran,conditions1_1,conditions2_1,conditions1_2,conditions2_2,dur1_1,dur2_1,dur1_2,dur2_2,endPractice.rt,endPractice.duration,confirmResponse_2.rt,confirmResponse_2.duration,runIntervalBreak.started,runIntervalBreak.stopped,endingBreakKey.keys,endingBreakKey.rt,endingBreakKey.duration,connection.started,connection.stopped,connectionEnding.keys,connectionEnding.rt,connectionEnding.duration,readyForText.started,readyForText.stopped,textPre.started,run_dup,textPre.stopped,continuousResponses_text,textRunLoop.thisRepN,textRunLoop.thisTrialN,textRunLoop.thisN,textRunLoop.thisIndex,textRunLoop.ran,text1_1,text1_2,text2_1,text2_2,runBreakText.started,runBreakText.stopped,endingBreakKey_2.keys,endingBreakKey_2.rt,endingBreakKey_2.duration,ending.started,ending.stopped,endingEnding.keys,endingEnding.rt,endingEnding.duration
0.0007,65.1558,y,64.8107,,67db97028df2eae13fa41bdd,2025-07-07_22h56.48.267,group3.4_multiperson,2023.2.2,Win32,59.88023952,686c2ebf0248f13bef9af11f,686c8873780154b4c5b92aa1,,,,,,,,,,,,,,,,,,,,,,,,,,,,,,,,,,,,,,,,,,,,,,,,,,,,,,,,,,,,,,,,,,,,,,,,,,,,,,,,,,,,,,,,,,,,,,,,,,,,,,,,
,,,,,67db97028df2eae13fa41bdd,2025-07-07_22h56.48.267,group3.4_multiperson,2023.2.2,Win32,59.88023952,686c2ebf0248f13bef9af11f,686c8873780154b4c5b92aa1,65.1568,84.2382,space,19.0148,,,,,,,,,,,,,,,,,,,,,,,,,,,,,,,,,,,,,,,,,,,,,,,,,,,,,,,,,,,,,,,,,,,,,,,,,,,,,,,,,,,,,,,,,,,,,,,,,,,,
,,,,,67db97028df2eae13fa41bdd,2025-07-07_22h56.48.267,group3.4_multiperson,2023.2.2,Win32,59.88023952,686c2ebf0248f13bef9af11f,686c8873780154b4c5b92aa1,,,,,,84.2393,154.2871,space,69.7092,,,,,,,,,,,,,,,,,,,,,,,,,,,,,,,,,,,,,,,,,,,,,,,,,,,,,,,,,,,,,,,,,,,,,,,,,,,,,,,,,,,,,,,,,,,,,,,
,,,,,67db97028df2eae13fa41bdd,2025-07-07_22h56.48.267,group3.4_multiperson,2023.2.2,Win32,59.88023952,686c2ebf0248f13bef9af11f,686c8873780154b4c5b92aa1,,,,,,,,,,,154.2942,199.0127,space,44.6937,,[],[],[],[],[],[],0,0,0,0,1,,,,,,,,,,,,,,,,,,,,,,,,,,,,,,,,,,,,,,,,,,,,,,,,,,,,,,,,,,,,,,,,,,,,,,,,,,,,,,
,,,,,67db97028df2eae13fa41bdd,2025-07-07_22h56.48.267,group3.4_multiperson,2023.2.2,Win32,59.88023952,686c2ebf0248f13bef9af11f,686c8873780154b4c5b92aa1,,,,,,,,,,,199.0143,280.5217,space,81.3712,,[],[],[],[],[],[],1,0,1,0,1,,,,,,,,,,,,,,,,,,,,,,,,,,,,,,,,,,,,,,,,,,,,,,,,,,,,,,,,,,,,,,,,,,,,,,,,,,,,,,
,,,,,67db97028df2eae13fa41bdd,2025-07-07_22h56.48.267,group3.4_multiperson,2023.2.2,Win32,59.88023952,686c2ebf0248f13bef9af11f,686c8873780154b4c5b92aa1,,,,,,,,,,,280.524,319.1825,space,38.5595,,[],[],[],[],[],[],2,0,2,0,1,,,,,,,,,,,,,,,,,,,,,,,,,,,,,,,,,,,,,,,,,,,,,,,,,,,,,,,,,,,,,,,,,,,,,,,,,,,,,,
,,,,,67db97028df2eae13fa41bdd,2025-07-07_22h56.48.267,group3.4_multiperson,2023.2.2,Win32,59.88023952,686c2ebf0248f13bef9af11f,686c8873780154b4c5b92aa1,,,,,,,,,,,319.1835,387.3136,space,68.0947,,[],[],[],[],[],[],3,0,3,0,1,,,,,,,,,,,,,,,,,,,,,,,,,,,,,,,,,,,,,,,,,,,,,,,,,,,,,,,,,,,,,,,,,,,,,,,,,,,,,,
,,,,,67db97028df2eae13fa41bdd,2025-07-07_22h56.48.267,group3.4_multiperson,2023.2.2,Win32,59.88023952,686c2ebf0248f13bef9af11f,686c8873780154b4c5b92aa1,,,,,,,,,,,387.3157,431.3299,space,43.9623,,[],[],[],[],[],[],4,0,4,0,1,,,,,,,,,,,,,,,,,,,,,,,,,,,,,,,,,,,,,,,,,,,,,,,,,,,,,,,,,,,,,,,,,,,,,,,,,,,,,,
,,,,,67db97028df2eae13fa41bdd,2025-07-07_22h56.48.267,group3.4_multiperson,2023.2.2,Win32,59.88023952,686c2ebf0248f13bef9af11f,686c8873780154b4c5b92aa1,,,,,,,,,,,431.3315,466.2794,space,34.9081,,[],[],[],[],[],[],5,0,5,0,1,,,,,,,,,,,,,,,,,,,,,,,,,,,,,,,,,,,,,,,,,,,,,,,,,,,,,,,,,,,,,,,,,,,,,,,,,,,,,,
,,,,,67db97028df2eae13fa41bdd,2025-07-07_22h56.48.267,group3.4_multiperson,2023.2.2,Win32,59.88023952,686c2ebf0248f13bef9af11f,686c8873780154b4c5b92aa1,,,,,,,,,,,,,,,,,,,,,,,,,,,466.2905,468.8602,468.9167,1,audio/Narrative13Situation2.wav,470.9249,,470.9258,500.6998,"[[999,7],[999,163],[999,247],[999,330],[999,413],[999,496],[999,580],[999,663],[999,747],[999,831],[999,913],[999,996],[999,1079],[999,1163],[999,1246],[999,1329],[999,1412],[999,1496],[999,1579],[999,1662],[999,1745],[999,1829],[999,1912],[999,1995],[999,2078],[999,2162],[999,2245],[999,2328],[999,2411],[999,2494],[999,2577],[999,2662],[999,2745],[999,2828],[999,2912],[999,2995],[999,3077],[999,3161],[999,3244],[999,3327],[999,3410],[999,3493],[999,3577],[999,3661],[999,3744],[999,3827],[999,3911],[999,3994],[999,4078],[999,4160],[999,4243],[999,4327],[999,4409],[999,4493],[999,4576],[999,4659],[999,4742],[999,4826],[999,4909],[999,4992],[999,5076],[999,5159],[999,5242],[999,5326],[999,5409],[999,5492],[999,5574],[999,5658],[999,5742],[999,5825],[999,5909],[999,5991],[999,6075],[999,6158],[999,6242],[999,6325],[999,6408],[999,6492],[999,6574],[999,6658],[999,6741],[999,6824],[999,6907],[999,6991],[999,7074],[999,7157],[999,7241],[999,7324],[999,7407],[999,7490],[999,7573],[999,7657],[999,7740],[999,7823],[999,7906],[999,7990],[999,8073],[999,8156],[999,8240],[999,8323],[999,8406],[999,8490],[999,8572],[999,8656],[999,8739],[999,8824],[999,8906],[999,8989],[999,9072],[999,9155],[999,9239],[999,9322],[999,9405],[999,9489],[999,9572],[999,9655],[999,9738],[999,9822],[999,9904],[999,9988],[999,10071],[999,10154],[999,10237],[999,10321],[999,10405],[999,10488],[999,10571],[999,10654],[999,10737],[999,10821],[999,10903],[999,10987],[999,11070],[999,11153],[999,11237],[999,11320],[999,11403],[999,11486],[999,11570],[999,11653],[999,11737],[999,11819],[999,11902],[999,11986],[999,12069],[999,12152],[999,12235],[999,12319],[999,12402],[999,12485],[999,12569],[999,12652],[999,12735],[999,12819],[999,12902],[999,12986],[999,13068],[999,13152],[999,13235],[999,13318],[999,13402],[999,13485],[999,13568],[999,13652],[62.9,13734],[62.9,13817],[64.4,13901],[65.3,13987],[61.6,14077],[52.7,14152],[50.4,14234],[49.6,14317],[48.9,14402],[48.3,14486],[48.3,14567],[48.3,14650],[48.3,14733],[48.3,14817],[48.3,14900],[48.3,14984],[48.4,15066],[48.4,15151],[48.4,15233],[48.4,15316],[48.4,15420],[43.8,15506],[30.9,15595],[27.2,15673],[24.5,15769],[23.9,15849],[23.9,15932],[23.4,16015],[22.9,16100],[22.7,16182],[22.7,16265],[22.7,16349],[22.7,16433],[22.7,16524],[22.7,16608],[22.7,16688],[22.7,16769],[22.7,16848],[22.7,16938],[22.7,17020],[22.7,17106],[22.7,17184],[22.7,17265],[22.7,17355],[22.7,17437],[22.7,17514],[22.7,17602],[22.7,17687],[22.7,17770],[22.7,17848],[22.7,17939],[22.7,18014],[22.7,18104],[22.7,18182],[22.7,18268],[22.7,18354],[22.7,18433],[22.7,18514],[22.7,18601],[22.7,18680],[22.7,18768],[22.7,18853],[22.7,18930],[22.7,19018],[22.7,19105],[22.7,19181],[22.7,19263],[22.7,19352],[22.7,19429],[22.7,19513],[22.7,19601],[22.7,19679],[22.7,19762],[22.7,19845],[22.7,19936],[22.7,20012],[22.7,20096],[22.7,20178],[22.7,20262],[22.7,20350],[22.7,20428],[22.7,20511],[22.7,20594],[22.7,20677],[22.7,20769],[22.7,20844],[22.7,20928],[22.7,21017],[22.7,21094],[22.7,21179],[22.7,21266],[22.7,21344],[22.7,21427],[22.7,21511],[22.7,21601],[22.7,21677],[22.7,21760],[22.7,21844],[22.7,21927],[22.7,22016],[22.7,22093],[22.7,22177],[22.7,22261],[22.7,22343],[22.7,22432],[22.7,22509],[22.7,22592],[22.7,22686],[22.7,22763],[22.7,22849],[22.7,22926],[22.7,23009],[22.7,23092],[22.7,23181],[22.7,23265],[22.7,23342],[22.7,23431],[22.7,23509],[22.7,23592],[22.7,23682],[22.7,23759],[22.7,23847],[22.7,23925],[22.7,24008],[22.7,24097],[22.7,24175],[22.7,24258],[22.7,24341],[22.7,24429],[22.7,24508],[22.7,24591],[22.7,24674],[22.7,24758],[22.7,24842],[22.7,24924],[22.7,25013],[22.7,25091],[22.7,25173],[22.7,25263],[22.7,25342],[22.7,25431],[22.7,25510],[22.7,25592],[22.7,25680],[22.7,25764],[22.7,25842],[22.7,25930],[22.7,26007],[22.7,26096],[22.7,26175],[22.7,26257],[22.7,26340],[22.7,26432],[22.7,26508],[22.7,26597],[22.7,26673],[22.7,26763],[22.7,26842],[22.7,26923],[22.7,27010],[22.7,27090],[22.7,27177],[22.7,27256],[22.7,27345],[22.7,27428],[22.7,27512],[22.7,27593],[22.7,27677],[22.7,27763],[22.7,27844],[22.7,27928],[22.7,28005],[22.7,28094],[22.7,28180],[22.6,28258],[16.4,28347],[5,28428],[1.9,28510],[1.6,28586],[1.6,28672],[1.6,28762],[1.6,28838],[1.6,28927],[1.6,29004],[1.6,29095],[1.6,29172],[1.6,29253],[1.6,29337],[1.6,29426],[1.6,29502],[1.6,29593],[1.6,29671],[1.6,29754]]",500.7013,535.523,89.79166985,23.9124,"[{""rating"":89.79166984558105,""responseTime"":23.912399999976174}]",space,34.2867,,535.5246,Partially,50,535.5397,,,[],,0,0,0,0,1,audio/Narrative13Situation2.wav,audio/Narrative13Situation2.wav,audio/Narrative13Situation2.wav,audio/Narrative13Situation2.wav,2,2,2,2,,,,,,,,,,,,,,,,,,,,,,,,,,,,,,,,,,,,,,,
,,,,,67db97028df2eae13fa41bdd,2025-07-07_22h56.48.267,group3.4_multiperson,2023.2.2,Win32,59.88023952,686c2ebf0248f13bef9af11f,686c8873780154b4c5b92aa1,,,,,,,,,,,,,,,,,,,,,,,,,,,,,535.5401,1,audio/Narrative8Situation1.wav,541.0763,space,541.077,557.0116,"[[67.5,8351],[62.9,8428],[59.4,8518],[56.7,8604],[54.5,8679],[52.9,8762],[51.8,8851],[50.7,8936],[50.2,9015],[49.9,9097],[49.8,9171],[49.8,9264],[49.5,9348],[49.4,9426],[49.4,9505],[49.4,9594],[49.4,9677],[49.4,9757],[49.4,9838],[49.6,9932],[49.7,10011],[49.7,10090],[49.7,10171],[49.7,10261],[49.7,10344],[49.7,10420],[49.7,10510],[49.8,10588],[50,10673],[55.2,10759],[63.3,10858],[67.6,10927],[71.3,11010],[73.9,11096],[77.3,11179],[81.3,11261],[84.8,11349],[86.6,11422],[87.7,11506],[88,11588],[88.4,11675],[89,11753],[89.6,11839],[90,11919],[90.1,12003],[90.1,12087],[90.1,12169],[90.1,12259],[90.1,12335],[90.1,12420],[90.1,12503],[90.1,12587],[90.1,12669],[90.1,12753],[90.1,12836],[90.1,12919],[90.1,13002],[90.1,13085],[90.1,13169],[90.1,13252],[90.1,13336],[90.1,13419],[90.1,13502],[90.1,13585],[90.1,13668],[90.1,13752],[90.1,13836],[90.1,13918],[90.1,14002],[90.1,14085],[90.1,14167],[90.1,14252],[90.1,14335],[90.1,14418],[90.1,14502],[90.1,14584],[90.1,14667],[90.1,14751],[90.1,14834],[90.1,14917],[90.1,15001],[90.1,15084],[90.1,15167],[90.1,15250],[90.1,15334],[90.1,15417],[90.1,15499],[90.1,15583],[90.1,15666],[90.1,15750],[90.1,15833],[90.1,15916]]",557.0126,565.8588,93.95833969,7.7637,"[{""rating"":93.95833969116211,""responseTime"":7.7636999999880345}]",space,8.3047,,565.859,Partially,50,565.8636,,,[],,0,1,1,1,1,audio/Narrative7Situation1.wav,audio/Narrative8Situation1.wav,audio/Narrative5Situation1.wav,audio/Narrative6Situation1.wav,2,5,5,2,5.5131,,,,,,,,,,,,,,,,,,,,,,,,,,,,,,,,,,,,,,
,,,,,67db97028df2eae13fa41bdd,2025-07-07_22h56.48.267,group3.4_multiperson,2023.2.2,Win32,59.88023952,686c2ebf0248f13bef9af11f,686c8873780154b4c5b92aa1,,,,,,,,,,,,,,,,,,,,,,,,,,,,,565.8645,1,audio/Narrative8Situation2.wav,568.8673,,568.8679,578.9894,"[[999,3],[999,97],[999,180],[999,264],[999,346],[999,431],[999,514],[999,597],[999,682],[999,763],[999,847],[999,930],[999,1013],[999,1096],[999,1180],[999,1263],[999,1346],[999,1430],[999,1513],[999,1596],[999,1679],[999,1762],[999,1846],[999,1929],[999,2012],[999,2096],[999,2178],[999,2262],[999,2345],[999,2428],[999,2512],[999,2595],[999,2678],[999,2763],[999,2845],[999,2927],[999,3012],[999,3094],[999,3178],[999,3261],[999,3344],[999,3427],[999,3512],[999,3594],[999,3677],[999,3760],[999,3843],[999,3927],[999,4010],[999,4094],[999,4177],[999,4262],[999,4343],[999,4426],[999,4510],[999,4594],[999,4683],[999,4761],[999,4844],[999,4925],[999,5010],[999,5092],[999,5177],[999,5260],[999,5349],[50.6,5425],[50.6,5509],[50.6,5595],[50.6,5675],[50.4,5758],[50.1,5843],[49.8,5929],[49.5,6009],[36.8,6091],[13.4,6178],[7.2,6258],[6,6345],[3.6,6427],[2.5,6508],[2,6594],[1.9,6674],[1.7,6759],[1.8,6844],[1.8,6924],[1.8,7007],[1.8,7090],[1.8,7174],[1.8,7257],[1.8,7341],[1.8,7424],[1.8,7507],[1.8,7590],[1.8,7673],[1.8,7756],[1.8,7840],[1.8,7923],[1.8,8007],[1.8,8091],[1.8,8173],[1.8,8256],[1.8,8340],[1.8,8422],[1.8,8506],[1.8,8589],[1.8,8672],[1.8,8755],[1.8,8839],[1.8,8922],[1.8,9006],[1.8,9089],[1.8,9171],[1.8,9255],[1.8,9339],[1.8,9421],[1.8,9505],[1.8,9589],[1.8,9671],[1.8,9755],[1.8,9839],[1.8,9922],[1.8,10005],[1.8,10088]]",578.9898,590.7301,0,9.6193,"[{""rating"":11.145834922790526,""responseTime"":5.739900000005946},{""rating"":0,""responseTime"":9.619300000012004}]",space,11.1976,,590.7307,Definitely yes,100,590.7485,,,[],,0,2,2,2,1,audio/Narrative7Situation2.wav,audio/Narrative8Situation2.wav,audio/Narrative5Situation2.wav,audio/Narrative6Situation2.wav,3,3,3,3,,,,,,,,,,,,,,,,,,,,,,,,,,,,,,,,,,,,,,,
,,,,,67db97028df2eae13fa41bdd,2025-07-07_22h56.48.267,group3.4_multiperson,2023.2.2,Win32,59.88023952,686c2ebf0248f13bef9af11f,686c8873780154b4c5b92aa1,,,,,,,,,,,,,,,,,,,,,,,,,,,,,590.7502,1,audio/Narrative8Situation3.wav,594.7594,,594.7599,617.1697,"[[999,2],[999,98],[999,182],[999,264],[999,348],[999,431],[999,514],[999,598],[999,681],[999,764],[999,849],[999,930],[999,1013],[999,1096],[999,1180],[999,1263],[999,1347],[999,1429],[999,1513],[999,1596],[999,1680],[999,1762],[999,1846],[999,1929],[999,2012],[999,2095],[999,2178],[999,2262],[999,2345],[999,2429],[999,2511],[999,2595],[999,2678],[999,2761],[999,2845],[999,2928],[999,3011],[999,3096],[999,3178],[999,3261],[999,3344],[999,3428],[999,3511],[999,3594],[999,3677],[999,3760],[999,3844],[999,3927],[999,4010],[999,4095],[999,4177],[999,4260],[999,4344],[999,4428],[999,4510],[999,4593],[52.7,4676],[52.1,4761],[50,4843],[48.8,4927],[48.8,5009],[48.8,5092],[48.8,5176],[48.8,5259],[48.8,5343],[48.8,5426],[48.8,5509],[48.8,5592],[48.8,5676],[48.9,5758],[42.9,5843],[27.3,5926],[21.9,6009],[17.4,6092],[14.5,6175],[10.2,6258],[7.1,6342],[5.7,6425],[4.8,6508],[4.2,6592],[4,6674],[4,6757],[4,6841],[4,6924],[4,7007],[4,7090],[4,7174],[4,7257],[4,7340],[4,7423],[4,7507],[4,7590],[4,7673],[4,7756],[4,7840],[4,7924],[4,8007],[4,8090],[4,8173],[4,8256],[4,8339],[4,8423],[4,8506],[4,8589],[4,8672],[4,8756],[4,8839],[4,8924],[4,9006],[4,9089],[4,9172],[4,9255],[4,9339],[4,9422],[4,9505],[4,9589],[4,9672],[4,9755],[4,9838],[4,9921],[4,10005],[4,10088],[32.4,11005],[33.8,11087],[39.2,11171],[47.8,11254],[51.3,11337],[52.5,11420],[52.8,11503],[52.5,11589],[52.1,11670],[52.1,11753],[52.1,11836],[52.1,11920],[51.9,12003],[51.7,12086],[51.4,12169],[51.4,12252],[51.2,12336],[51.2,12418],[57.1,12503],[68.5,12586],[72,12669],[72.2,12752],[72.2,12835],[72.2,12918],[87.3,13002],[95.2,13086],[96.1,13169],[96.3,13252],[96.4,13335],[97,13419],[97.8,13503],[97.8,13585],[97.8,13668],[97.8,13751],[97.8,13834],[97.8,13918],[97.8,14000],[97.8,14084],[97.8,14167],[97.8,14250],[97.8,14334],[97.8,14417],[97.8,14500],[97.8,14584],[97.8,14668],[97.8,14750],[97.8,14834],[97.8,14917],[97.8,15000],[97.8,15083],[97.8,15167],[97.8,15250],[97.8,15333],[97.8,15416],[97.8,15499],[97.8,15582],[97.8,15666],[97.8,15749],[97.8,15833],[97.8,15916],[97.8,15999],[97.8,16082],[97.8,16166],[97.8,16249],[97.8,16332],[97.8,16415],[97.8,16498],[97.8,16582],[97.8,16665],[97.8,16748],[97.8,16831],[97.8,16915],[97.8,16998],[97.8,17082],[97.8,17166],[97.8,17248],[97.8,17331],[97.8,17415],[97.8,17498],[97.8,17581],[97.8,17664],[97.8,17748],[97.8,17831],[97.8,17914],[97.8,17997],[97.8,18081],[97.8,18164],[97.8,18249],[97.8,18330],[97.8,18413],[97.8,18497],[97.8,18580],[97.8,18663],[97.8,18746],[97.8,18830],[97.8,18913],[97.8,18996],[97.8,19080],[97.8,19163],[97.8,19246],[97.8,19330],[97.8,19413],[97.8,19496],[97.8,19579],[97.8,19662],[97.8,19745],[97.8,19830],[97.8,19912],[97.8,19995],[97.8,20079],[97.8,20162],[97.8,20245],[97.8,20328],[97.8,20412],[97.8,20495],[97.8,20579],[97.8,20662],[97.8,20745],[97.8,20828],[97.8,20912],[97.8,20994],[97.8,21078],[97.8,21161],[97.8,21244],[97.8,21328],[97.8,21411],[97.8,21494],[97.8,21577],[97.8,21661],[97.8,21744],[97.8,21828],[97.8,21910],[97.8,21993],[97.8,22077],[97.8,22160],[97.8,22243],[97.8,22326],[97.8,22409]]",617.1699,623.2315,98.85416985,5.0756,"[{""rating"":98.85416984558105,""responseTime"":5.075599999993983}]",space,5.5352,,623.2318,Partially,50,623.2412,,,[],,0,3,3,3,1,audio/Narrative7Situation3.wav,audio/Narrative8Situation3.wav,audio/Narrative5Situation3.wav,audio/Narrative6Situation3.wav,8,4,3,5,,,,,,,,,,,,,,,,,,,,,,,,,,,,,,,,,,,,,,,
,,,,,67db97028df2eae13fa41bdd,2025-07-07_22h56.48.267,group3.4_multiperson,2023.2.2,Win32,59.88023952,686c2ebf0248f13bef9af11f,686c8873780154b4c5b92aa1,,,,,,,,,,,,,,,,,,,,,,,,,,,,,623.2415,1,audio/Narrative8Situation4.wav,626.2452,,626.2455,640.4501,"[[999,2],[999,116],[999,199],[999,283],[999,365],[999,449],[999,532],[999,615],[999,699],[999,783],[999,866],[999,948],[999,1032],[999,1115],[999,1198],[999,1281],[999,1365],[999,1448],[999,1531],[999,1615],[999,1697],[999,1780],[999,1864],[999,1947],[999,2031],[999,2114],[999,2197],[999,2281],[999,2364],[999,2447],[999,2530],[999,2613],[999,2697],[999,2780],[999,2863],[999,2946],[999,3029],[999,3113],[999,3196],[999,3280],[999,3363],[999,3446],[999,3529],[999,3613],[999,3696],[999,3779],[999,3862],[999,3945],[999,4028],[999,4111],[51,4195],[51,4279],[51,4362],[51,4445],[51,4528],[51,4611],[50.8,4695],[50.6,4777],[50.6,4860],[58.6,4945],[74.9,5028],[81.9,5111],[85.8,5194],[93.6,5278],[99.2,5361],[100,5443],[100,5527],[100,5610],[100,5693],[100,5777],[100,5860],[100,5943],[100,6026],[100,6111],[100,6193],[100,6277],[100,6360],[100,6443],[100,6526],[100,6610],[100,6693],[100,6776],[100,6860],[100,6943],[100,7025],[100,7109],[100,7192],[100,7276],[100,7359],[100,7442],[100,7525],[100,7609],[100,7692],[100,7775],[100,7858],[100,7942],[100,8025],[100,8108],[100,8191],[100,8274],[100,8358],[100,8441],[100,8524],[100,8608],[100,8691],[100,8775],[100,8858],[100,8941],[100,9024],[100,9107],[100,9190],[100,9274],[100,9357],[100,9441],[100,9523],[100,9607],[100,9690],[100,9773],[100,9857],[100,9940],[100,10023],[100,10106],[100,10190],[100,10273],[100,10357],[100,10439],[100,10523],[100,10606],[100,10690],[100,10773],[100,10855],[100,10939],[100,11022],[100,11105],[100,11188],[100,11272],[100,11355],[100,11438],[100,11521],[100,11605],[100,11688],[100,11771],[100,11854],[100,11937],[100,12022],[100,12104],[100,12187],[100,12271],[100,12354],[100,12437],[100,12521],[100,12604],[100,12687],[100,12770],[100,12854],[100,12937],[100,13020],[100,13103],[100,13187],[100,13270],[100,13353],[100,13437],[100,13520],[100,13603],[100,13686],[100,13769],[100,13852],[100,13935],[100,14019],[100,14104],[100,14186]]",640.4506,647.875,87.29166985,6.5024,"[{""rating"":87.29166984558105,""responseTime"":6.502399999976205}]",space,6.8794,,647.8752,Partially,50,666.575,49.58333969,6.5383,"[{""rating"":49.58333969116211,""responseTime"":6.538300000011873}]",space,0,4,4,4,1,audio/Narrative7Situation4.wav,audio/Narrative8Situation4.wav,audio/Narrative5Situation4.wav,audio/Narrative6Situation4.wav,3,3,1,2,,,18.157,,,,,,,,,,,,,,,,,,,,,,,,,,,,,,,,,,,,
,,,,,67db97028df2eae13fa41bdd,2025-07-07_22h56.48.267,group3.4_multiperson,2023.2.2,Win32,59.88023952,686c2ebf0248f13bef9af11f,686c8873780154b4c5b92aa1,,,,,,,,,,,,,,,,,,,,,,,,,,,,,666.5769,1,audio/Narrative8Situation5.wav,668.5892,,668.5897,676.8554,"[[49.6,3097],[49.6,3184],[56.6,3270],[75.7,3366],[85.3,3436],[89,3521],[92.3,3603],[94.8,3692],[97.5,3769],[99.7,3857],[100,3933],[100,4018],[100,4103],[100,4183],[100,4268],[100,4345],[100,4435],[100,4512],[100,4595],[100,4682],[100,4761],[100,4844],[100,4927],[100,5015],[100,5100],[100,5179],[100,5261],[100,5349],[100,5427],[100,5511],[100,5600],[100,5677],[100,5761],[100,5851],[100,5933],[100,6010],[100,6101],[100,6177],[100,6266],[100,6350],[100,6427],[100,6511],[100,6593],[100,6676],[100,6765],[100,6843],[100,6926],[100,7010],[100,7096],[100,7177],[100,7259],[100,7346],[100,7426],[100,7510],[100,7598],[100,7677],[100,7760],[100,7850],[100,7926],[100,8013],[100,8092],[100,8175],[100,8265]]",676.856,690.3252,99.6875,4.4709,"[{""rating"":99.6875,""responseTime"":4.4709000000059405}]",space,12.9249,,690.3256,Definitely yes,100,690.3314,,,[],,0,5,5,5,1,audio/Narrative7Situation5.wav,audio/Narrative8Situation5.wav,audio/Narrative5Situation5.wav,audio/Narrative6Situation5.wav,5,2,5,2,,,,,,,,,,,,,,,,,,,,,,,,,,,,,,,,,,,,,,,
,,,,,67db97028df2eae13fa41bdd,2025-07-07_22h56.48.267,group3.4_multiperson,2023.2.2,Win32,59.88023952,686c2ebf0248f13bef9af11f,686c8873780154b4c5b92aa1,,,,,,,,,,,,,,,,,,,,,,,,,,,,,690.332,1,audio/Narrative8Situation6.wav,692.3346,,692.335,698.8154,"[[999,3],[999,98],[999,181],[999,264],[999,347],[999,431],[999,514],[999,597],[999,681],[999,764],[999,847],[999,929],[999,1014],[999,1096],[999,1179],[999,1264],[999,1346],[999,1429],[999,1512],[999,1596],[999,1679],[999,1763],[999,1846],[999,1929],[999,2013],[999,2096],[999,2179],[999,2263],[999,2346],[999,2430],[999,2512],[999,2595],[999,2679],[999,2762],[999,2845],[999,2929],[999,3012],[999,3095],[999,3178],[999,3261],[999,3345],[999,3428],[999,3513],[999,3594],[999,3678],[999,3761],[999,3844],[999,3927],[999,4011],[999,4094],[999,4177],[999,4261],[999,4344],[999,4427],[999,4510],[999,4594],[999,4677],[999,4760],[999,4843],[999,4926],[999,5011],[999,5093],[999,5176],[999,5259],[999,5343],[999,5426],[999,5509],[999,5593],[999,5676],[999,5759],[999,5842],[999,5927],[999,6009],[999,6092],[999,6180],[45.4,6264],[45.5,6346]]",698.816,708.4522,3.75,9.141,"[{""rating"":3.749999999999998,""responseTime"":9.141000000000076}]",space,9.0779,,708.4527,Partially,50,708.4603,,,[],,0,6,6,6,1,audio/Narrative7Situation6.wav,audio/Narrative8Situation6.wav,audio/Narrative5Situation6.wav,audio/Narrative6Situation6.wav,3,2,3,2,,,,,,,,,,,,,,,,,,,,,,,,,,,,,,,,,,,,,,,
,,,,,67db97028df2eae13fa41bdd,2025-07-07_22h56.48.267,group3.4_multiperson,2023.2.2,Win32,59.88023952,686c2ebf0248f13bef9af11f,686c8873780154b4c5b92aa1,,,,,,,,,,,,,,,,,,,,,,,,,,,,,708.4608,1,audio/Narrative8Situation7.wav,711.4662,,711.4665,723.5555,"[[7.7,1914],[44.5,2080],[45.9,2167],[47.6,2248],[56.5,2334],[76.7,3006],[77.4,3084],[69.4,3174],[59.5,3246],[56,3329],[54.6,3413],[53.2,3500],[52.5,3585],[51.8,3666],[51.4,3747],[51.1,3829],[50.6,3917],[50.5,3998],[50.3,4077],[50.2,4161],[50.2,4245],[50.2,4329],[50.2,4412],[50.2,4495],[50.2,4578],[50.2,4663],[50.2,4745],[50.2,4828],[50.2,4911],[50.2,4995],[50.2,5078],[50.2,5160],[50.2,5246],[50.2,5327],[50.2,5410],[50.2,5493],[50.2,5578],[50.2,5660],[50.2,5744],[50.2,5827],[50.2,5909],[50.1,5994],[49.7,6078],[49.2,6162],[42.5,6243],[29.2,6326],[21.1,6409],[16.3,6492],[12.7,6575],[9.7,6658],[8.6,6742],[8,6825],[7.4,6909],[7.2,6991],[7.2,7075],[7.2,7158],[7.2,7242],[7.2,7324],[7.2,7408],[7.2,7491],[7.2,7574],[7.2,7657],[7.2,7741],[7.2,7824],[7.2,7908],[7.2,7991],[7.2,8074],[7.2,8158],[7.2,8241],[7.2,8324],[26.3,8410],[41.7,8491],[45.8,8576],[50.5,8661],[60.3,8741],[83.4,8992],[85,9074],[86.3,9156],[86.9,9241],[87.5,9329],[87.5,9408],[87.5,9489],[87.5,9573],[87.5,9657],[87.5,9740],[87.5,9823],[87.5,9907],[87.5,9990],[87.5,10073],[87.5,10155],[87.5,10239],[87.5,10323],[87.5,10406],[87.5,10489],[87.5,10573],[87.5,10656],[87.5,10739],[87.5,10824],[87.5,10906],[87.5,10989],[87.5,11073],[87.5,11155],[87.5,11239],[87.5,11322],[87.5,11405],[87.5,11488],[87.5,11572],[87.5,11655],[87.5,11738],[87.5,11822],[87.5,11905],[87.5,11988],[87.5,12072]]",723.5559,726.1777,88.125,1.5101,"[{""rating"":88.125,""responseTime"":1.510099999994054}]",space,2.0931,,726.178,Partially,50,726.1871,,,[],,0,7,7,7,1,audio/Narrative7Situation7.wav,audio/Narrative8Situation7.wav,audio/Narrative5Situation7.wav,audio/Narrative6Situation7.wav,5,3,4,5,,,,,,,,,,,,,,,,,,,,,,,,,,,,,,,,,,,,,,,
,,,,,67db97028df2eae13fa41bdd,2025-07-07_22h56.48.267,group3.4_multiperson,2023.2.2,Win32,59.88023952,686c2ebf0248f13bef9af11f,686c8873780154b4c5b92aa1,,,,,,,,,,,,,,,,,,,,,,,,,,,,,726.1885,1,audio/Narrative8Situation8.wav,729.2004,,729.2005,742.0529,"[[999,1],[999,85],[999,165],[999,249],[999,336],[999,420],[999,503],[999,581],[999,667],[999,749],[999,831],[999,915],[999,998],[999,1091],[999,1171],[999,1253],[999,1338],[999,1419],[999,1498],[999,1581],[999,1669],[999,1752],[999,1830],[999,1912],[999,1997],[999,2086],[999,2169],[999,2247],[999,2328],[999,2414],[999,2500],[999,2586],[999,2667],[999,2746],[999,2828],[999,2913],[999,2994],[999,3077],[999,3162],[999,3244],[999,3327],[999,3418],[999,3495],[999,3578],[999,3661],[999,3750],[999,3827],[999,3914],[999,3993],[999,4078],[999,4160],[999,4244],[999,4334],[999,4417],[999,4500],[999,4583],[999,4667],[999,4749],[51.8,4835],[51.1,4920],[50.6,5002],[50.4,5086],[50.1,5165],[50.1,5255],[50.1,5329],[49.9,5414],[49.9,5492],[49.9,5581],[49.9,5666],[49.9,5743],[49.9,5832],[49.9,5918],[49.9,5994],[49.9,6082],[49.9,6160],[49.9,6247],[49.9,6334],[49.9,6410],[49.9,6500],[49.9,6585],[49.9,6665],[49.9,6750],[49.9,6825],[49.9,6913],[49.9,6998],[49.9,7074],[49.9,7159],[49.9,7248],[49.9,7325],[49.9,7416],[49.9,7492],[49.9,7580],[49.9,7660],[49.9,7743],[49.9,7830],[49.9,7913],[49.9,7990],[49.9,8074],[49.9,8158],[49.9,8239],[49.9,8330],[49.3,8417],[46.5,8502],[35.4,8588],[29,8670],[26.3,8743],[23.9,8829],[21.4,8907],[19.1,8989],[15.7,9080],[13.3,9161],[12.7,9240],[12.6,9323],[12.6,9406],[12.6,9492],[12.6,9573],[12.6,9658],[12.6,9740],[12.6,9823],[12.6,9906],[12.6,9990],[12.6,10072],[12.6,10154],[12.6,10238],[12.6,10321],[12.6,10405],[12.6,10489],[18.2,10578],[21.6,10661],[25.5,10738],[31,10823],[37.1,10905],[38,10987],[37.7,11071],[36.4,11155],[34.7,11240],[27.7,11320],[24.2,11404],[29.1,11487],[49,11571],[61.7,11653],[70.1,11736],[70.1,11819],[70.1,11903],[70.1,11986],[70.1,12069],[70.1,12152],[70.9,12236],[76.3,12319],[80.1,12403],[85,12486],[88,12569],[88,12652],[88,12735],[88,12818]]",742.0531,749.3149,90.10416985,4.8095,"[{""rating"":90.10416984558105,""responseTime"":4.809500000000071}]",space,6.7247,,749.3154,Definitely yes,100,749.329,,,[],,0,8,8,8,1,audio/Narrative7Situation8.wav,audio/Narrative8Situation8.wav,audio/Narrative5Situation8.wav,audio/Narrative6Situation8.wav,2,3,3,5,,,,,,,,,,,,,,,,,,,,,,,,,,,,,,,,,,,,,,,
,,,,,67db97028df2eae13fa41bdd,2025-07-07_22h56.48.267,group3.4_multiperson,2023.2.2,Win32,59.88023952,686c2ebf0248f13bef9af11f,686c8873780154b4c5b92aa1,,,,,,,,,,,,,,,,,,,,,,,,,,,,,749.3306,1,audio/Narrative8Situation9.wav,752.3444,,752.3446,763.6671,"[[999,3],[999,98],[999,183],[999,265],[999,348],[999,432],[999,515],[999,598],[999,681],[999,764],[999,849],[999,932],[999,1014],[999,1098],[999,1181],[999,1264],[999,1347],[999,1431],[999,1514],[999,1597],[999,1680],[999,1763],[999,1847],[999,1930],[999,2013],[999,2097],[999,2180],[999,2264],[999,2346],[999,2430],[999,2513],[999,2596],[999,2679],[999,2763],[999,2846],[999,2929],[999,3013],[999,3096],[999,3181],[999,3267],[999,3345],[999,3431],[999,3514],[999,3595],[50.6,3680],[50.7,3765],[50.7,3845],[50.3,3928],[50.3,4014],[50.3,4095],[50.3,4178],[56.1,4261],[73.8,4347],[85.2,4432],[98,4511],[100,4594],[100,4677],[100,4760],[100,4844],[100,4928],[100,5011],[100,5094],[100,5178],[100,5261],[100,5346],[100,5427],[100,5510],[100,5594],[100,5677],[100,5760],[100,5843],[100,5927],[100,6009],[100,6095],[100,6176],[100,6259],[100,6343],[100,6426],[100,6509],[100,6593],[100,6675],[100,6759],[100,6842],[100,6925],[100,7009],[100,7093],[100,7175],[100,7259],[100,7342],[100,7425],[100,7508],[100,7592],[100,7675],[100,7757],[100,7841],[100,7925],[100,8008],[100,8091],[100,8174],[100,8257],[100,8341],[100,8425],[100,8508],[100,8591],[100,8674],[100,8757],[100,8840],[100,8924],[100,9006],[100,9090],[100,9173],[100,9257],[100,9340],[100,9423],[100,9507],[100,9590],[100,9673],[100,9756],[100,9840],[100,9922],[100,10005],[100,10089],[100,10172],[100,10256],[100,10339],[100,10423],[100,10506],[100,10589],[100,10671],[100,10755],[100,10838],[100,10923],[100,11005],[100,11088],[100,11172],[100,11254]]",763.6678,766.5713,100,1.8847,"[{""rating"":100,""responseTime"":1.8847000000178014}]",space,2.3655,,766.5715,Partially,50,766.5786,,,[],,0,9,9,9,1,audio/Narrative7Situation9.wav,audio/Narrative8Situation9.wav,audio/Narrative5Situation9.wav,audio/Narrative6Situation9.wav,2,3,3,4,,,,,,,,,,,,,,,,,,,,,,,,,,,,,,,,,,,,,,,
,,,,,67db97028df2eae13fa41bdd,2025-07-07_22h56.48.267,group3.4_multiperson,2023.2.2,Win32,59.88023952,686c2ebf0248f13bef9af11f,686c8873780154b4c5b92aa1,,,,,,,,,,,,,,,,,,,,,,,,,,,,,766.5792,1,audio/Narrative7Situation1.wav,768.5961,,768.5963,824.4941,"[[999,2],[999,98],[999,182],[999,265],[999,348],[999,432],[999,515],[999,598],[999,682],[999,764],[999,848],[999,931],[999,1014],[999,1098],[999,1181],[999,1264],[999,1347],[999,1430],[999,1514],[999,1597],[999,1680],[999,1763],[999,1847],[999,1930],[999,2013],[999,2096],[999,2180],[999,2263],[999,2346],[999,2430],[999,2513],[999,2596],[999,2680],[999,2764],[999,2846],[999,2929],[999,3012],[999,3096],[999,3179],[999,3262],[999,3345],[999,3428],[999,3513],[999,3597],[999,3683],[999,3762],[999,3847],[57.3,3928],[52.8,4011],[51.3,4096],[50.7,4179],[50.7,4261],[50.7,4345],[50.7,4428],[50.7,4510],[50.8,4595],[74.2,4677],[93.3,4761],[100,4843],[100,4927],[100,5010],[100,5094],[100,5177],[100,5260],[100,5343],[100,5427],[100,5510],[100,5593],[100,5676],[100,5760],[100,5844],[100,5926],[100,6009],[100,6093],[100,6176],[100,6259],[100,6342],[100,6426],[100,6509],[100,6592],[100,6675],[100,6759],[100,6842],[100,6925],[100,7008],[100,7092],[100,7175],[100,7258],[100,7342],[100,7424],[100,7507],[100,7591],[100,7675],[100,7758],[100,7841],[100,7924],[100,8008],[100,8091],[100,8174],[100,8257],[100,8341],[100,8424],[100,8507],[100,8591],[100,8674],[100,8757],[100,8840],[100,8924],[100,9007],[100,9090],[100,9173],[100,9256],[100,9340],[100,9424],[100,9506],[100,9590],[100,9673],[100,9756],[100,9839],[100,9922],[100,10006],[100,10090],[100,10172],[100,10256],[100,10339],[100,10422],[100,10505],[100,10588],[100,10672],[100,10755],[100,10838],[100,10922],[100,11005],[100,11088],[100,11172],[100,11254],[100,11338],[100,11421],[100,11504],[100,11588],[100,11671],[100,11754],[100,11838],[100,11921],[100,12004],[100,12087],[100,12171],[100,12254],[100,12337],[100,12420],[100,12503],[100,12586],[100,12670],[100,12754],[100,12836],[100,12920],[100,13003],[100,13086],[100,13170],[100,13253],[100,13336],[100,13419],[100,13503],[100,13586],[100,13669],[100,13752],[100,13836],[100,13919],[100,14002],[100,14085],[100,14168],[100,14252],[100,14335],[100,14418],[100,14502],[100,14585],[100,14668],[100,14753],[100,14834],[100,14918],[100,15001],[100,15085],[100,15168],[100,15251],[100,15334],[100,15418],[100,15501],[100,15584],[100,15667],[100,15751],[100,15834],[100,15917],[100,16000],[100,16083],[100,16167],[100,16250],[100,16333],[100,16416],[100,16501],[100,16583],[100,16666],[100,16750],[100,16833],[100,16916],[100,17000],[100,17083],[100,17166],[100,17249],[100,17332],[100,17415],[100,17499],[100,17582],[100,17665],[100,17749],[100,17832],[100,17915],[100,17998],[100,18082],[100,18165],[100,18248],[100,18331],[100,18414],[100,18498],[100,18581],[100,18664],[100,18748],[100,18831],[100,18914],[100,18997],[100,19081],[100,19164],[100,19247],[100,19330],[100,19413],[100,19497],[100,19580],[100,19663],[100,19747],[100,19830],[100,19913],[100,19996],[100,20080],[100,20163],[100,20246],[100,20330],[100,20413],[100,20496],[100,20579],[100,20662],[100,20746],[100,20829],[100,20912],[100,20996],[100,21079],[100,21162],[100,21245],[100,21329],[100,21414],[100,21495],[100,21578],[100,21662],[100,21745],[100,21828],[100,21911],[100,21995],[100,22078],[100,22161],[100,22244],[100,22328],[100,22411],[100,22494],[100,22577],[100,22660],[100,22744],[100,22827],[100,22910],[100,22995],[100,23077],[100,23160],[100,23243],[100,23326],[100,23409],[100,23492],[100,23576],[100,23659],[100,23742],[100,23825],[100,23909],[100,23993],[100,24076],[100,24159],[100,24244],[100,24326],[100,24408],[100,24493],[100,24575],[100,24659],[100,24742],[100,24825],[100,24908],[100,24992],[100,25074],[100,25158],[100,25242],[100,25325],[100,25408],[100,25491],[100,25575],[100,25658],[100,25741],[100,25824],[100,25908],[100,25991],[100,26074],[100,26157],[100,26240],[100,26324],[100,26407],[100,26490],[100,26574],[100,26657],[100,26740],[100,26823],[100,26907],[100,26990],[100,27073],[100,27156],[100,27240],[100,27322],[100,27406],[100,27489],[100,27573],[100,27656],[100,27739],[100,27823],[100,27906],[100,27989],[100,28073],[100,28156],[100,28239],[100,28322],[100,28406],[100,28489],[100,28572],[100,28655],[100,28738],[100,28822],[100,28905],[100,28988],[100,29071],[100,29154],[100,29238],[100,29321],[100,29404],[100,29487],[100,29571],[100,29654],[100,29737],[100,29821],[100,29904],[100,29987],[100,30071],[100,30153],[100,30237],[100,30320],[100,30403],[100,30487],[100,30570],[100,30654],[100,30736],[100,30820],[100,30903],[100,30986],[100,31069],[100,31153],[100,31236],[100,31319],[100,31402],[100,31486],[100,31568],[100,31652],[100,31735],[100,31819],[100,31902],[100,31985],[100,32069],[100,32152],[100,32235],[100,32318],[100,32402],[100,32485],[100,32567],[100,32652],[100,32734],[100,32818],[100,32901],[100,32984],[100,33067],[100,33151],[100,33234],[100,33317],[100,33401],[100,33484],[100,33567],[100,33651],[100,33734],[100,33817],[100,33900],[100,33983],[100,34066],[100,34150],[100,34233],[100,34316],[100,34401],[100,34483],[100,34566],[100,34650],[100,34732],[100,34816],[100,34899],[100,34982],[100,35066],[100,35149],[100,35233],[100,35316],[100,35399],[100,35482],[100,35566],[100,35649],[100,35732],[100,35815],[100,35898],[100,35982],[100,36065],[100,36148],[100,36231],[100,36315],[100,36398],[100,36482],[100,36565],[100,36648],[100,36731],[100,36814],[100,36898],[100,36981],[100,37063],[100,37147],[100,37230],[100,37314],[100,37397],[100,37480],[100,37563],[100,37647],[100,37730],[100,37812],[100,37896],[100,37980],[100,38063],[100,38146],[100,38229],[100,38314],[100,38396],[100,38479],[100,38562],[100,38646],[100,38729],[100,38812],[100,38896],[100,38979],[100,39062],[100,39145],[100,39229],[100,39312],[100,39395],[100,39478],[100,39561],[100,39645],[100,39728],[100,39811],[100,39895],[100,39978],[100,40061],[100,40144],[100,40227],[100,40311],[100,40394],[100,40478],[100,40561],[100,40644],[100,40727],[100,40811],[100,40893],[100,40977],[100,41060],[100,41143],[100,41227],[100,41310],[100,41393],[100,41476],[100,41560],[100,41643],[100,41726],[100,41810],[100,41893],[100,41976],[100,42060],[100,42142],[100,42225],[100,42309],[100,42392],[100,42475],[100,42559],[100,42642],[100,42725],[100,42808],[100,42892],[100,42975],[100,43058],[100,43142],[100,43225],[100,43308],[100,43391],[100,43475],[100,43558],[100,43641],[100,43724],[100,43807],[100,43891],[100,43974],[100,44058],[100,44141],[100,44224],[100,44307],[100,44391],[100,44474],[100,44557],[100,44641],[100,44723],[100,44807],[100,44889],[100,44973],[100,45056],[100,45140],[100,45223],[100,45306],[100,45389],[100,45472],[100,45556],[100,45639],[100,45722],[100,45806],[100,45889],[100,45972],[100,46056],[100,46139],[100,46222],[100,46306],[100,46388],[100,46472],[100,46555],[100,46639],[100,46721],[100,46805],[100,46888],[100,46971],[100,47055],[100,47138],[100,47221],[100,47304],[100,47387],[100,47471],[100,47554],[100,47638],[100,47721],[100,47804],[100,47888],[100,47970],[100,48053],[100,48137],[100,48220],[100,48303],[100,48387],[100,48471],[100,48553],[100,48637],[100,48720],[100,48803],[100,48887],[100,48969],[100,49052],[100,49136],[100,49219],[100,49302],[100,49386],[100,49469],[100,49552],[100,49635],[100,49719],[100,49802],[100,49885],[100,49968],[100,50051],[100,50135],[100,50218],[100,50301],[100,50385],[100,50468],[100,50552],[100,50635],[100,50718],[100,50801],[100,50884],[100,50968],[100,51052],[100,51134],[100,51217],[100,51301],[100,51384],[100,51467],[100,51550],[100,51634],[100,51716],[100,51801],[100,51883],[100,51968],[100,52049],[100,52132],[100,52216],[100,52300],[100,52383],[100,52466],[100,52549],[100,52633],[100,52716],[100,52799],[100,52882],[100,52965],[100,53049],[100,53132],[100,53216],[100,53299],[100,53382],[100,53465],[100,53548],[100,53632],[100,53715],[100,53798],[100,53882],[100,53964],[100,54048],[100,54131],[100,54215],[100,54298],[100,54381],[100,54465],[100,54547],[100,54631],[100,54714],[100,54797],[100,54881],[100,54964],[100,55047],[100,55130],[100,55213],[100,55296],[100,55380],[100,55463],[100,55547],[100,55630],[100,55713],[100,55796],[100,55880]]",824.4954,828.0899,99.58333969,2.8249,"[{""rating"":99.58333969116211,""responseTime"":2.8249000000059823}]",space,3.0505,,828.0904,Partially,50,828.1003,,,[],,0,10,10,10,1,audio/Narrative8Situation1.wav,audio/Narrative7Situation1.wav,audio/Narrative6Situation1.wav,audio/Narrative5Situation1.wav,5,2,2,5,,,,,,,,,,,,,,,,,,,,,,,,,,,,,,,,,,,,,,,
,,,,,67db97028df2eae13fa41bdd,2025-07-07_22h56.48.267,group3.4_multiperson,2023.2.2,Win32,59.88023952,686c2ebf0248f13bef9af11f,686c8873780154b4c5b92aa1,,,,,,,,,,,,,,,,,,,,,,,,,,,,,828.1014,1,audio/Narrative7Situation2.wav,831.1045,,831.1048,838.5809,"[[83.9,3264],[63.5,3349],[62.8,3429],[54.8,3512],[50.2,3595],[50.1,3677],[50.1,3762],[50.1,3845],[50.1,3927],[50.1,4011],[50.1,4094],[52.7,4179],[70.7,4262],[87.7,4345],[94.2,4427],[97.9,4511],[100,4594],[100,4677],[100,4761],[100,4845],[100,4927],[100,5010],[100,5094],[100,5177],[100,5260],[100,5343],[100,5426],[100,5510],[100,5593],[100,5676],[100,5759],[100,5843],[100,5926],[100,6011],[100,6093],[100,6176],[100,6259],[100,6342],[100,6425],[100,6509],[100,6592],[100,6675],[100,6759],[100,6842],[100,6926],[100,7009],[100,7092],[100,7175],[100,7258],[100,7341],[100,7425]]",838.5813,841.1027,99.27083969,1.7518,"[{""rating"":99.27083969116211,""responseTime"":1.7518000000118263}]",space,1.985,,841.1029,Partially,50,841.1137,,,[],,0,11,11,11,1,audio/Narrative8Situation2.wav,audio/Narrative7Situation2.wav,audio/Narrative6Situation2.wav,audio/Narrative5Situation2.wav,3,3,3,3,,,,,,,,,,,,,,,,,,,,,,,,,,,,,,,,,,,,,,,
,,,,,67db97028df2eae13fa41bdd,2025-07-07_22h56.48.267,group3.4_multiperson,2023.2.2,Win32,59.88023952,686c2ebf0248f13bef9af11f,686c8873780154b4c5b92aa1,,,,,,,,,,,,,,,,,,,,,,,,,,,,,841.1146,1,audio/Narrative7Situation3.wav,849.127,,849.1271,858.3792,"[[70.2,3006],[55,3096],[54.2,3172],[54.2,3256],[53.5,3340],[53,3422],[52.4,3505],[51.8,3591],[51.4,3672],[51.1,3755],[51,3839],[50.6,3923],[50.5,4005],[50.5,4088],[50.5,4171],[50.5,4255],[50.5,4338],[50.5,4422],[50.5,4505],[50.5,4587],[50.5,4672],[50.5,4755],[50.5,4838],[50.5,4922],[50.5,5004],[50.5,5088],[50.5,5171],[50.5,5254],[50.5,5338],[50.5,5420],[50.5,5506],[50.5,5587],[50.5,5671],[50.5,5754],[50.5,5837],[50.5,5921],[50.5,6003],[50.5,6086],[50.5,6172],[50.5,6253],[50.5,6336],[50.5,6420],[50.5,6502],[50.5,6586],[50.5,6670],[50.5,6752],[50.5,6836],[50.5,6919],[50.5,7003],[50.5,7086],[50.5,7169],[54.5,7252],[70.5,7339],[88,7503],[91.8,7585],[97.4,7668],[97.4,7754],[97.4,7835],[97.4,7918],[97.4,8002],[97.4,8084],[97.4,8168],[97.4,8252],[97.4,8335],[97.4,8418],[97.4,8501],[97.4,8585],[97.4,8668],[97.4,8753],[97.4,8834],[97.4,8918],[97.4,9001],[97.4,9084],[97.4,9167],[97.4,9250]]",858.3799,864.6064,75.72916985,5.763,"[{""rating"":100,""responseTime"":3.718599999994126},{""rating"":75.72916984558105,""responseTime"":5.763000000000034}]",space,5.6796,,864.6068,Definitely yes,100,864.6207,,,[],,0,12,12,12,1,audio/Narrative8Situation3.wav,audio/Narrative7Situation3.wav,audio/Narrative6Situation3.wav,audio/Narrative5Situation3.wav,4,8,5,3,,,,,,,,,,,,,,,,,,,,,,,,,,,,,,,,,,,,,,,
,,,,,67db97028df2eae13fa41bdd,2025-07-07_22h56.48.267,group3.4_multiperson,2023.2.2,Win32,59.88023952,686c2ebf0248f13bef9af11f,686c8873780154b4c5b92aa1,,,,,,,,,,,,,,,,,,,,,,,,,,,,,864.6216,1,audio/Narrative7Situation4.wav,867.6365,,867.6366,879.3761,"[[71.5,4095],[63.8,4184],[60,4263],[54.4,4346],[51.4,4428],[51,4512],[50.7,4595],[50.7,4678],[50.7,4762],[50.7,4845],[50.7,4928],[50.6,5012],[50.6,5094],[50.6,5178],[50.6,5261],[50.6,5344],[50.6,5427],[50.6,5510],[50.6,5594],[50.6,5677],[50.6,5762],[50.6,5844],[50.6,5927],[50.6,6010],[50.6,6093],[50.6,6176],[50.6,6260],[50.6,6342],[54,6427],[77.4,6516],[93.8,6593],[98.8,6676],[100,6759],[100,6844],[100,6926],[100,7009],[100,7092],[100,7175],[100,7260],[100,7342],[100,7425],[100,7509],[100,7592],[100,7675],[100,7758],[100,7842],[100,7925],[100,8008],[100,8091],[100,8175],[100,8258],[100,8341],[100,8424],[100,8508],[100,8591],[100,8674],[100,8757],[100,8841],[100,8924],[100,9006],[100,9090],[100,9173],[100,9257],[100,9340],[100,9423],[100,9507],[100,9590],[100,9673],[100,9756],[100,9840],[100,9923],[100,10006],[100,10090],[100,10173],[100,10256],[100,10339],[100,10423],[100,10506],[100,10589],[100,10673],[100,10756],[100,10839],[100,10922],[100,11005],[100,11089],[100,11172],[100,11255],[100,11338],[100,11422],[100,11505],[100,11588],[100,11672]]",879.3766,883.1972,100,3.0752,"[{""rating"":90.20833969116211,""responseTime"":1.7205000000000155},{""rating"":100,""responseTime"":3.075200000017844}]",space,3.2823,,883.1978,Not at all,0,883.2125,,,[],,0,13,13,13,1,audio/Narrative8Situation4.wav,audio/Narrative7Situation4.wav,audio/Narrative6Situation4.wav,audio/Narrative5Situation4.wav,3,3,2,1,,,,,,,,,,,,,,,,,,,,,,,,,,,,,,,,,,,,,,,
,,,,,67db97028df2eae13fa41bdd,2025-07-07_22h56.48.267,group3.4_multiperson,2023.2.2,Win32,59.88023952,686c2ebf0248f13bef9af11f,686c8873780154b4c5b92aa1,,,,,,,,,,,,,,,,,,,,,,,,,,,,,883.2131,1,audio/Narrative7Situation5.wav,888.2175,,888.218,896.7098,"[[999,3],[999,115],[999,198],[999,281],[999,365],[999,448],[999,531],[999,614],[999,698],[999,781],[999,865],[999,948],[999,1030],[999,1114],[999,1197],[999,1281],[999,1364],[999,1447],[999,1530],[999,1614],[999,1697],[999,1780],[999,1863],[999,1947],[999,2030],[999,2113],[999,2196],[999,2280],[999,2363],[999,2446],[999,2529],[999,2613],[999,2696],[999,2779],[999,2863],[999,2946],[999,3029],[999,3112],[999,3196],[999,3278],[999,3361],[999,3445],[999,3528],[999,3613],[52.1,4028],[51.6,4111],[51.6,4194],[51.6,4280],[51.5,4361],[51.5,4444],[51.5,4527],[51.5,4611],[51.4,4694],[51.4,4777],[51.3,4860],[51.3,4943],[51.1,5027],[51.1,5110],[51.1,5193],[51.1,5277],[51.1,5360],[51.1,5445],[51.1,5526],[51.1,5609],[51.1,5693],[51.1,5776],[50.8,5860],[44.6,5943],[35.2,6026],[25.9,6110],[18.4,6194],[14.6,6276],[11.4,6360],[10,6442],[9.6,6525],[9.3,6608],[9.3,6693],[9.3,6775],[9.3,6859],[9.3,6942],[9.3,7025],[9.3,7108],[9.3,7192],[9.3,7275],[9.3,7358],[9.3,7441],[9.3,7525],[9.3,7608],[9.3,7692],[9.3,7774],[9.3,7860]]",896.7104,903.8924,6.25,5.9494,"[{""rating"":50.416669845581055,""responseTime"":2.7170000000000982},{""rating"":6.25,""responseTime"":5.949400000005994}]",space,6.6324,,903.8925,Definitely yes,100,903.9003,,,[],,0,14,14,14,1,audio/Narrative8Situation5.wav,audio/Narrative7Situation5.wav,audio/Narrative6Situation5.wav,audio/Narrative5Situation5.wav,2,5,2,5,,,,,,,,,,,,,,,,,,,,,,,,,,,,,,,,,,,,,,,
,,,,,67db97028df2eae13fa41bdd,2025-07-07_22h56.48.267,group3.4_multiperson,2023.2.2,Win32,59.88023952,686c2ebf0248f13bef9af11f,686c8873780154b4c5b92aa1,,,,,,,,,,,,,,,,,,,,,,,,,,,,,903.9008,1,audio/Narrative7Situation6.wav,906.9164,,906.9167,916.8903,"[[43.4,2853],[45.2,2932],[47.2,3012],[47.8,3096],[49.5,3179],[50,3263],[50.2,3346],[50.2,3429],[50.2,3513],[50.2,3595],[50.2,3678],[50.3,3761],[60.8,3845],[84.1,3928],[91,4016],[91,4095],[91,4178],[91,4262],[91,4345],[91,4428],[91,4511],[91.1,4594],[92.9,4678],[93.5,4761],[93.5,4844],[93.5,4927],[93.5,5010],[93.5,5094],[93.5,5177],[93.5,5260],[93.5,5344],[93.5,5427],[93.5,5510],[93.5,5593],[93.5,5677],[93.5,5760],[93.5,5843],[93.5,5926],[93.5,6010],[93.5,6093],[93.5,6176],[93.5,6259],[93.5,6342],[93.5,6426],[93.5,6509],[93.5,6592],[93.5,6676],[93.5,6759],[93.5,6842],[93.5,6926],[93.5,7009],[93.5,7091],[93,7175],[93,7259],[93,7341],[93,7425],[93,7508],[93,7591],[93,7675],[93,7758],[93,7841],[93,7924],[93,8008],[93,8091],[93,8174],[93,8257],[93,8341],[93,8424],[93,8507],[93,8590],[93,8673],[93,8757],[92.9,8841],[85.3,8924],[63.1,9007],[41.5,9090],[37,9173],[37,9256],[37,9340],[37,9423],[37,9506],[37,9589],[37,9673],[37,9756],[37,9840],[37,9923]]",916.8907,922.152,0,3.8681,"[{""rating"":0,""responseTime"":3.8680999999940013}]",space,4.6987,,922.1523,Partially,50,922.1604,,,[],,0,15,15,15,1,audio/Narrative8Situation6.wav,audio/Narrative7Situation6.wav,audio/Narrative6Situation6.wav,audio/Narrative5Situation6.wav,2,3,2,3,,,,,,,,,,,,,,,,,,,,,,,,,,,,,,,,,,,,,,,
,,,,,67db97028df2eae13fa41bdd,2025-07-07_22h56.48.267,group3.4_multiperson,2023.2.2,Win32,59.88023952,686c2ebf0248f13bef9af11f,686c8873780154b4c5b92aa1,,,,,,,,,,,,,,,,,,,,,,,,,,,,,922.1608,1,audio/Narrative7Situation7.wav,927.1646,,927.1647,944.3489,"[[999,2],[999,98],[999,182],[999,265],[999,349],[999,431],[999,514],[999,598],[999,681],[999,764],[999,848],[999,931],[999,1014],[999,1098],[999,1181],[999,1266],[999,1347],[999,1431],[999,1513],[999,1597],[999,1680],[999,1763],[999,1847],[999,1930],[999,2013],[999,2096],[999,2180],[999,2263],[999,2346],[999,2429],[999,2513],[999,2596],[51.5,3013],[50.9,3097],[49.6,3179],[49.2,3262],[49.2,3346],[49.2,3429],[49.2,3512],[49.2,3594],[49.2,3678],[49.2,3763],[49.2,3845],[49.2,3928],[49.2,4011],[49.2,4095],[49.2,4178],[49.2,4261],[49.2,4345],[49.2,4428],[49.2,4510],[49.2,4594],[49.2,4677],[49.2,4762],[49.2,4844],[49.2,4927],[49.2,5010],[49.2,5093],[49.2,5177],[49.2,5260],[49.2,5343],[49.2,5427],[49.2,5510],[49.2,5593],[49.2,5677],[49.2,5759],[49.2,5843],[49.2,5926],[49.2,6010],[49.2,6093],[49.2,6176],[49.2,6259],[49.2,6342],[49.2,6426],[49.2,6509],[49.2,6592],[49.2,6675],[65.2,6759],[79.4,6844],[85.9,6926],[88.8,7009],[90.3,7092],[91,7176],[91.3,7258],[91.3,7341],[91.3,7424],[91.3,7508],[91.3,7591],[91.3,7674],[91.3,7757],[91.3,7841],[91.3,7924],[91.3,8008],[91.3,8091],[91.3,8174],[91.3,8258],[91.3,8341],[91.3,8424],[91.3,8508],[91.3,8590],[91.3,8673],[91.3,8757],[91.3,8840],[91.9,8924],[97.3,9008],[98.2,9090],[98.2,9173],[98.2,9256],[98.2,9340],[98.2,9423],[98.2,9506],[98.2,9589],[98.2,9672],[98.2,9756],[98.2,9839],[98.2,9922],[98.2,10006],[98.2,10089],[98.2,10172],[98.2,10255],[98.2,10339],[98.2,10422],[98.2,10505],[98.2,10589],[98.2,10672],[98.2,10755],[98.2,10838],[98.2,10921],[98.2,11004],[98.2,11088],[98.2,11171],[98.2,11254],[98.2,11338],[98.2,11421],[98.2,11504],[98.2,11587],[98.2,11671],[98.2,11754],[98.2,11837],[98.2,11921],[98.2,12004],[98.2,12087],[86.4,12171],[70.3,12587],[87.6,12670],[87.6,12753],[87.6,12836],[87.6,12920],[87.6,13003],[87.6,13087],[87.6,13169],[94.3,13253],[95.2,13336],[95.3,13419],[98.8,13503],[100,13586],[100,13670],[100,13752],[100,13836],[100,13918],[100,14001],[100,14085],[100,14169],[100,14252],[100,14335],[100,14418],[100,14502],[100,14585],[100,14668],[100,14751],[100,14834],[100,14918],[100,15001],[100,15084],[100,15167],[100,15250],[100,15334],[100,15417],[100,15501],[100,15584],[100,15667],[100,15751],[100,15834],[100,15917],[100,16000],[100,16084],[100,16167],[100,16250],[100,16333],[100,16421],[100,16500],[100,16583],[100,16666],[100,16755],[100,16833],[100,16916],[100,16999],[100,17082],[100,17165]]",944.3498,946.8121,99.47916985,1.294,"[{""rating"":99.47916984558105,""responseTime"":1.2939999999999827}]",space,1.9187,,946.8125,Partially,50,946.8173,,,[],,0,16,16,16,1,audio/Narrative8Situation7.wav,audio/Narrative7Situation7.wav,audio/Narrative6Situation7.wav,audio/Narrative5Situation7.wav,3,5,5,4,,,,,,,,,,,,,,,,,,,,,,,,,,,,,,,,,,,,,,,
,,,,,67db97028df2eae13fa41bdd,2025-07-07_22h56.48.267,group3.4_multiperson,2023.2.2,Win32,59.88023952,686c2ebf0248f13bef9af11f,686c8873780154b4c5b92aa1,,,,,,,,,,,,,,,,,,,,,,,,,,,,,946.8178,1,audio/Narrative7Situation8.wav,948.8304,,948.8305,958.8687,"[[96.6,3510],[52.7,3848],[50.7,3932],[50.3,4008],[50.2,4097],[50.2,4181],[50.2,4259],[50.2,4342],[50.2,4424],[51.6,4512],[65.5,4598],[85.3,4681],[96.7,4764],[100,4847],[100,4935],[100,5014],[100,5106],[100,5178],[100,5258],[100,5341],[100,5430],[100,5507],[100,5590],[100,5673],[100,5760],[100,5844],[100,5924],[100,6011],[100,6096],[100,6174],[100,6257],[100,6348],[100,6422],[100,6507],[100,6591],[100,6680],[100,6756],[100,6839],[100,6928],[100,7008],[100,7089],[100,7173],[100,7256],[100,7348],[100,7427],[100,7505],[100,7595],[100,7680],[100,7755],[100,7845],[100,7930],[100,8011],[100,8088],[100,8172],[100,8255],[100,8345],[100,8421],[100,8510],[100,8588],[100,8671],[100,8755],[100,8837],[100,8921],[100,9011],[100,9087],[100,9176],[100,9255],[100,9337],[100,9421],[100,9504],[100,9587],[100,9676],[100,9761],[100,9842],[100,9926],[100,10003]]",958.8698,960.7161,99.6875,1.1891,"[{""rating"":99.6875,""responseTime"":1.1891000000239274}]",space,1.3046,,960.7166,Partially,50,960.7275,,,[],,0,17,17,17,1,audio/Narrative8Situation8.wav,audio/Narrative7Situation8.wav,audio/Narrative6Situation8.wav,audio/Narrative5Situation8.wav,3,2,5,3,,,,,,,,,,,,,,,,,,,,,,,,,,,,,,,,,,,,,,,
,,,,,67db97028df2eae13fa41bdd,2025-07-07_22h56.48.267,group3.4_multiperson,2023.2.2,Win32,59.88023952,686c2ebf0248f13bef9af11f,686c8873780154b4c5b92aa1,,,,,,,,,,,,,,,,,,,,,,,,,,,,,960.7282,1,audio/Narrative7Situation9.wav,962.7306,,962.7307,971.3897,"[[99.7,3354],[99.7,3435],[100,3525],[100,3604],[100,3679],[100,3768],[100,3845],[100,3928],[100,4012],[100,4104],[100,4185],[100,4262],[100,4351],[100,4432],[100,4518],[100,4595],[100,4679],[100,4762],[100,4852],[100,4927],[100,5011],[100,5094],[100,5177],[100,5267],[100,5344],[100,5427],[100,5511],[100,5594],[100,5677],[100,5761],[100,5844],[100,5927],[100,6010],[100,6093],[100,6177],[100,6260],[100,6343],[100,6426],[100,6509],[100,6593],[100,6676],[100,6760],[100,6843],[100,6927],[100,7009],[100,7099],[100,7178],[100,7259],[100,7349],[100,7426],[100,7508],[100,7592],[100,7676],[100,7764],[100,7849],[100,7925],[100,8014],[100,8097],[100,8175],[100,8259],[100,8348],[100,8425],[100,8508],[100,8591]]",971.3904,972.9068,99.16666985,0.6906,"[{""rating"":99.16666984558105,""responseTime"":0.6905999999939922}]",space,0.9726,,972.9075,Definitely yes,100,972.9248,,,[],,0,18,18,18,1,audio/Narrative8Situation9.wav,audio/Narrative7Situation9.wav,audio/Narrative6Situation9.wav,audio/Narrative5Situation9.wav,3,2,4,3,,,,,,,,,,,,,,,,,,,,,,,,,,,,,,,,,,,,,,,
,,,,,67db97028df2eae13fa41bdd,2025-07-07_22h56.48.267,group3.4_multiperson,2023.2.2,Win32,59.88023952,686c2ebf0248f13bef9af11f,686c8873780154b4c5b92aa1,,,,,,,,,,,,,,,,,,,,,,,,,,,981.9173,984.5021,984.5442,2,audio/Narrative13Situation2.wav,984.5444,,984.5444,1014.2992,"[[100,2331],[100,2413],[46.1,2913],[46.1,2996],[46.1,3079],[46.1,3163],[48.5,3245],[51.1,3329],[51.6,3412],[51.8,3496],[51.8,3578],[51.8,3662],[51.8,3745],[51.8,3828],[51.8,3911],[64.9,3997],[85.3,4081],[86.3,4161],[86.3,4245],[86.3,4328],[87.5,4411],[91.6,4494],[93.9,4578],[95.3,4662],[96.6,4744],[97.1,4828],[97.7,4911],[97.8,4994],[97.8,5077],[97.8,5165],[97.4,5244],[97.1,5327],[97.1,5410],[97.1,5494],[97.5,5577],[98,5663],[98.6,5743],[99.4,5827],[99.4,5912],[99.4,5993],[99.4,6076],[99.4,6159],[99.4,6243],[99.4,6326],[99.4,6409],[99.4,6493],[99.4,6576],[99.4,6659],[99.4,6742],[99.4,6825],[99.4,6909],[99.4,6992],[99.4,7075],[99.4,7158],[99.4,7242],[99.4,7325],[99.4,7408],[99.4,7491],[99.4,7575],[99.4,7658],[99.4,7741],[99.4,7825],[99.4,7908],[99.4,7991],[99.4,8075],[99.4,8158],[99.4,8241],[99.4,8324],[99.4,8407],[99.4,8490],[99.4,8574],[99.4,8657],[99.4,8740],[99.4,8824],[99.4,8907],[99.4,8990],[99.4,9074],[99.4,9157],[99.4,9240],[99.4,9325],[99.4,9406],[99.4,9490],[99.4,9573],[99.4,9656],[99.4,9740],[99.4,9823],[99.4,9906],[99.4,9989],[99.4,10073],[99.4,10156],[99.4,10239],[99.4,10322],[99.4,10405],[99.4,10489],[99.4,10572],[99.4,10655],[99.4,10739],[99.4,10822],[99.4,10905],[99.4,10988],[99.4,11072],[99.4,11154],[99.4,11238],[99.4,11321],[99.4,11404],[99.4,11488],[99.4,11571],[99.4,11654],[99.4,11738],[99.4,11821],[99.4,11904],[99.4,11988],[99.4,12071],[99.4,12154],[99.4,12237],[99.4,12320],[99.4,12404],[99.4,12487],[99.4,12570],[99.4,12653],[99.4,12737],[99.4,12820],[99.4,12903],[99.4,12986],[99.4,13070],[99.4,13153],[99.4,13236],[99.4,13320],[99.4,13403],[99.4,13486],[99.4,13569],[99.4,13652],[99.4,13736],[99.4,13819],[99.4,13902],[99.4,13986],[99.4,14068],[99.4,14152],[99.4,14235],[99.4,14318],[99.4,14402],[99.4,14485],[99.4,14568],[99.4,14652],[99.4,14735],[99.4,14818],[99.4,14901],[99.4,14984],[99.4,15068],[99.4,15151],[99.4,15234],[99.4,15317],[99.4,15401],[99.4,15484],[99.4,15567],[99.4,15651],[99.4,15734],[99.4,15817],[99.4,15900],[99.4,15984],[99.4,16067],[99.4,16150],[99.4,16234],[99.4,16317],[99.4,16400],[99.4,16483],[99.4,16566],[99.4,16650],[99.4,16732],[99.4,16815],[99.4,16899],[99.4,16984],[99.4,17066],[99.4,17149],[99.4,17233],[99.4,17316],[99.4,17398],[99.4,17482],[99.4,17566],[99.4,17649],[99.4,17732],[99.4,17815],[99.4,17898],[99.4,17982],[99.4,18065],[99.4,18148],[99.4,18231],[99.4,18314],[99.4,18398],[99.4,18480],[99.4,18564],[99.4,18648],[99.4,18732],[99.4,18814],[99.4,18897],[99.4,18981],[99.4,19064],[99.4,19147],[99.4,19231],[99.4,19314],[99.4,19397],[99.4,19480],[99.4,19564],[99.4,19647],[99.4,19731],[99.4,19813],[99.4,19896],[99.4,19980],[99.4,20063],[99.4,20146],[99.4,20230],[99.4,20313],[99.4,20396],[99.4,20479],[99.4,20563],[99.4,20646],[99.4,20729],[99.4,20812],[99.4,20895],[99.4,20979],[99.4,21062],[99.4,21145],[99.4,21229],[99.4,21312],[99.4,21395],[99.4,21478],[99.4,21562],[99.4,21645],[99.4,21728],[99.4,21811],[99.4,21895],[99.4,21978],[99.4,22061],[99.4,22144],[99.4,22228],[99.4,22311],[99.4,22394],[99.4,22477],[99.4,22561],[99.4,22644],[99.4,22727],[99.4,22810],[99.4,22894],[99.4,22977],[99.4,23060],[99.4,23144],[99.4,23227],[99.4,23310],[99.4,23394],[99.4,23477],[99.4,23560],[99.4,23643],[99.4,23726],[99.4,23811],[99.4,23893],[99.4,23976],[99.4,24059],[99.4,24143],[99.4,24226],[99.4,24309],[99.4,24392],[99.4,24476],[99.4,24559],[99.4,24642],[99.4,24726],[99.4,24808],[99.4,24892],[99.4,24975],[99.4,25058],[99.4,25142],[99.4,25225],[99.4,25308],[99.4,25391],[99.4,25475],[99.4,25558],[99.4,25641],[99.4,25724],[99.4,25808],[99.4,25891],[99.4,25974],[99.4,26058],[99.4,26141],[99.4,26224],[99.4,26307],[99.4,26390],[99.4,26473],[99.4,26557],[99.4,26641],[99.4,26723],[99.4,26806],[99.4,26890],[99.4,26973],[99.4,27057],[99.4,27140],[99.4,27223],[99.4,27307],[99.4,27389],[99.4,27472],[99.4,27556],[99.4,27640],[99.4,27723],[99.4,27806],[99.4,27889],[99.4,27973],[99.4,28056],[99.4,28139],[99.4,28223],[99.4,28306],[99.4,28389],[99.4,28472],[99.4,28555],[99.4,28638],[99.4,28722],[99.4,28805],[99.4,28888],[99.4,28971],[99.4,29054],[99.4,29137],[99.4,29220],[99.4,29304],[99.4,29387],[99.4,29470],[99.4,29553],[99.4,29637],[95.3,29721]]",1014.2995,1014.3037,,,[],,,,1014.3037,Partially,50,1014.3067,,,[],,0,0,0,0,1,audio/Narrative13Situation2.wav,audio/Narrative13Situation2.wav,audio/Narrative13Situation2.wav,audio/Narrative13Situation2.wav,2,2,2,2,,,,,972.928,981.9156,space,8.4574,,,,,,,,,,,,,,,,,,,,,,,,,,,,,,,
,,,,,67db97028df2eae13fa41bdd,2025-07-07_22h56.48.267,group3.4_multiperson,2023.2.2,Win32,59.88023952,686c2ebf0248f13bef9af11f,686c8873780154b4c5b92aa1,,,,,,,,,,,,,,,,,,,,,,,,,,,,,1014.3071,2,audio/Narrative6Situation1.wav,1016.313,,1016.3131,1042.9229,"[[999,0],[999,83],[999,166],[999,249],[999,332],[999,416],[999,499],[999,582],[999,666],[999,749],[999,832],[999,915],[999,998],[999,1082],[999,1165],[999,1248],[999,1332],[999,1415],[999,1498],[999,1581],[999,1664],[999,1748],[999,1831],[999,1914],[999,1998],[999,2081],[999,2164],[999,2247],[999,2331],[999,2414],[999,2497],[999,2580],[999,2664],[999,2747],[999,2830],[999,2913],[999,2997],[999,3080],[999,3164],[999,3247],[999,3330],[53.8,3413],[54.5,3496],[54.7,3579],[54.7,3663],[52.6,3746],[51,3829],[50.4,3912],[49.8,3996],[49.5,4079],[49.5,4162],[62.7,4246],[78.1,4329],[84.8,4412],[86.4,4495],[89.3,4579],[92.7,4662],[94.1,4745],[95.1,4828],[96.3,4912],[97.8,4995],[98.8,5078],[99,5161],[99,5245],[99,5328],[99,5411],[99,5494],[99,5578],[99,5661],[99,5744],[99,5827],[99,5911],[99,5994],[99,6077],[99,6160],[99,6243],[99,6327],[99,6410],[99,6493],[99,6577],[99,6660],[99,6743],[99,6827],[99,6910],[99,6993],[99,7076],[99,7160],[99,7243],[99,7326],[99,7410],[99,7493],[99,7576],[99,7660],[99,7743],[99,7826],[99,7910],[99,7993],[99,8076],[99,8159],[99,8243],[99,8325],[99,8409],[99,8492],[99,8575],[99,8659],[99,8742],[99,8825],[99,8908],[99,8992],[99,9075],[99,9158],[99,9242],[99,9325],[99,9408],[99,9491],[99,9574],[99,9658],[99,9741],[99,9824],[99,9907],[99,9991],[99,10074],[99,10157],[99,10241],[99,10324],[99,10407],[99,10491],[99,10575],[99,10657],[99,10741],[99,10823],[99,10907],[99,10990],[99,11073],[99,11156],[99,11240],[99,11323],[99,11406],[99,11490],[99,11573],[99,11656],[99,11740],[99,11823],[99,11907],[99,11989],[99,12072],[99,12156],[99,12239],[99,12322],[99,12405],[99,12488],[99,12572],[99,12655],[99,12738],[99,12823],[99,12905],[99,12988],[99,13071],[99,13155],[99,13238],[99,13321],[99,13404],[99,13487],[99,13571],[99,13654],[99,13737],[99,13821],[99,13903],[99,13987],[99,14070],[99,14153],[99,14237],[99,14319],[99,14403],[99,14487],[99,14570],[99,14653],[99,14736],[99,14820],[99,14903],[99,14986],[99,15069],[99,15153],[99,15235],[99,15319],[99,15404],[99,15486],[99,15569],[99,15653],[99,15735],[99,15819],[99,15902],[99,15985],[99,16069],[99,16152],[99,16234],[99,16318],[99,16402],[99,16485],[99,16568],[99,16652],[99,16735],[99,16818],[99,16901],[99,16984],[99,17067],[99,17151],[99,17234],[99,17317],[99,17400],[99,17484],[99,17567],[99,17651],[99,17734],[99,17817],[99,17900],[99,17983],[99,18067],[99,18150],[99,18233],[99,18316],[99,18400],[99,18483],[99,18566],[99,18649],[99,18733],[99,18816],[99,18899],[99,18983],[99,19066],[99,19149],[99,19233],[99,19315],[99,19399],[99,19482],[99,19565],[99,19649],[99,19732],[99,19815],[99,19898],[99,19982],[99,20065],[99,20148],[99,20232],[99,20314],[99,20398],[99,20481],[99,20564],[99,20648],[99,20731],[99,20814],[99,20897],[99,20981],[99,21064],[99,21147],[99,21230],[99,21314],[99,21397],[99,21480],[99,21564],[99,21646],[99,21730],[99,21813],[99,21896],[99,21979],[99,22063],[99,22146],[99,22229],[99,22314],[99,22396],[99,22479],[99,22563],[99,22645],[99,22729],[99,22812],[99,22895],[99,22979],[99,23062],[99,23145],[99,23229],[99,23312],[99,23395],[99,23478],[99,23562],[99,23644],[99,23728],[99,23811],[99,23894],[99,23978],[99,24061],[99,24144],[99,24227],[99,24311],[99,24394],[99,24477],[99,24561],[99,24644],[99,24727],[99,24810],[99,24893],[99,24977],[99,25060],[99,25144],[99,25226],[99,25310],[99,25393],[99,25476],[99,25560],[99,25643],[99,25726],[99,25809],[99,25892],[99,25976],[99,26060],[99,26144],[99,26226],[99,26309],[99,26393],[99,26475],[99,26559]]",1042.9236,1045.0538,98.95833969,0.9088,"[{""rating"":98.95833969116211,""responseTime"":0.9087999999819658}]",space,1.5905,,1045.0542,Not at all,0,1045.0687,,,[],,0,1,1,1,1,audio/Narrative7Situation1.wav,audio/Narrative8Situation1.wav,audio/Narrative5Situation1.wav,audio/Narrative6Situation1.wav,2,5,5,2,,,,,,,,,,,,,,,,,,,,,,,,,,,,,,,,,,,,,,,
,,,,,67db97028df2eae13fa41bdd,2025-07-07_22h56.48.267,group3.4_multiperson,2023.2.2,Win32,59.88023952,686c2ebf0248f13bef9af11f,686c8873780154b4c5b92aa1,,,,,,,,,,,,,,,,,,,,,,,,,,,,,1045.0697,2,audio/Narrative6Situation2.wav,1048.074,,1048.0741,1076.5847,"[[52.9,3757],[52.3,3849],[51.3,3929],[50.5,4012],[50,4098],[50,4181],[50,4261],[49.9,4339],[49.8,4422],[49.6,4514],[40.5,4596],[2.2,4687],[0.4,6012],[60,6267],[60,6337],[62.8,6431],[73.8,6510],[77.4,6592],[77.4,6669],[77.4,6762],[77.4,6843],[92.6,6926],[100,7009],[100,7093],[100,7177],[100,7253],[100,7341],[100,7420],[100,7509],[100,7586],[100,7675],[100,7753],[100,7836],[100,7925],[100,8010],[100,8086],[100,8176],[100,8257],[100,8335],[100,8425],[100,8502],[100,8591],[100,8674],[100,8753],[100,8835],[100,8924],[100,9001],[100,9090],[100,9175],[100,9251],[100,9335],[100,9427],[100,9501],[100,9586],[100,9667],[100,9757],[100,9834],[100,9924],[100,10001],[100,10085],[100,10173],[100,10250],[100,10335],[100,10417],[100,10500],[100,10584],[100,10667],[100,10750],[100,10839],[100,10921],[100,11000],[100,11083],[100,11172],[100,11257],[100,11333],[100,11422],[100,11499],[100,11582],[100,11668],[100,11755],[100,11832],[100,11915],[100,12005],[100,12082],[100,12165],[100,12255],[100,12333],[100,12421],[100,12504],[100,12581],[100,12665],[100,12756],[100,12830],[100,12920],[100,13005],[100,13081],[100,13164],[100,13248],[100,13331],[100,13413],[100,13496],[100,13586],[100,13664],[100,13747],[100,13829],[100,13912],[100,13995],[100,14085],[100,14163],[100,14247],[100,14337],[100,14418],[100,14496],[100,14582],[100,14663],[100,14747],[100,14829],[100,14918],[100,15003],[100,15079],[100,15162],[100,15245],[100,15335],[100,15419],[100,15499],[100,15585],[100,15661],[100,15746],[100,15835],[100,15912],[100,16000],[100,16086],[100,16161],[100,16251],[100,16333],[100,16411],[100,16501],[100,16587],[100,16660],[100,16750],[100,16827],[100,16916],[100,16994],[100,17077],[100,17166],[100,17246],[100,17327],[100,17416],[100,17493],[100,17578],[100,17667],[100,17750],[100,17833],[100,17910],[100,17993],[100,18081],[100,18159],[100,18244],[100,18332],[100,18408],[100,18492],[100,18583],[100,18660],[100,18748],[100,18825],[100,18915],[100,18992],[100,19081],[100,19159],[100,19242],[100,19333],[100,19414],[100,19497],[100,19576],[100,19665],[100,19741],[100,19825],[100,19915],[100,19991],[100,20075],[100,20164],[100,20241],[100,20324],[100,20407],[100,20497],[100,20582],[100,20657],[100,20745],[100,20831],[100,20914],[100,20990],[100,21075],[100,21157],[100,21248],[100,21329],[100,21413],[100,21498],[100,21575],[100,21662],[100,21740],[100,21823],[100,21913],[100,21988],[100,22074],[100,22156],[100,22239],[100,22323],[100,22408],[100,22496],[100,22578],[100,22657],[100,22739],[100,22823],[100,22904],[100,22994],[100,23072],[100,23155],[100,23246],[100,23321],[100,23411],[100,23495],[100,23576],[100,23655],[100,23746],[100,23821],[100,23910],[100,23995],[100,24071],[100,24160],[100,24237],[100,24326],[100,24406],[100,24487],[100,24576],[100,24654],[100,24742],[100,24828],[100,24904],[100,24993],[100,25076],[100,25155],[100,25239],[100,25325],[100,25402],[100,25492],[100,25577],[100,25658],[100,25742],[100,25825],[100,25907],[100,25984],[100,26075],[100,26158],[100,26235],[100,26319],[100,26411],[100,26485],[100,26574],[100,26652],[100,26740],[100,26818],[100,26901],[100,26991],[100,27076],[100,27151],[100,27240],[100,27326],[100,27406],[100,27483],[100,27567],[100,27651],[100,27736],[100,27821],[100,27905],[100,27988],[100,28074],[100,28150],[100,28238],[100,28321],[100,28399],[100,28483]]",1076.5851,1080.2278,99.27083969,1.9597,"[{""rating"":99.27083969116211,""responseTime"":1.9596999999880609}]",space,3.097,,1080.2281,Partially,50,1080.2414,,,[],,0,2,2,2,1,audio/Narrative7Situation2.wav,audio/Narrative8Situation2.wav,audio/Narrative5Situation2.wav,audio/Narrative6Situation2.wav,3,3,3,3,,,,,,,,,,,,,,,,,,,,,,,,,,,,,,,,,,,,,,,
,,,,,67db97028df2eae13fa41bdd,2025-07-07_22h56.48.267,group3.4_multiperson,2023.2.2,Win32,59.88023952,686c2ebf0248f13bef9af11f,686c8873780154b4c5b92aa1,,,,,,,,,,,,,,,,,,,,,,,,,,,,,1080.2422,2,audio/Narrative6Situation3.wav,1085.2498,,1085.25,1097.8898,"[[97.5,6998],[78.4,7083],[50,7583],[53.1,7665],[53.4,7741],[53.3,7828],[52.9,7914],[52.3,8000],[51.7,8082],[51.4,8164],[51,8241],[51,8324],[51,8414],[51,8491],[51,8580],[50.9,8660],[50.9,8744],[63.6,8830],[82.5,8913],[96.1,8998],[100,9080],[100,9163],[100,9240],[100,9329],[100,9412],[100,9490],[100,9579],[100,9662],[100,9747],[100,9824],[100,9909],[100,9990],[100,10077],[100,10156],[100,10246],[100,10323],[100,10406],[100,10489],[100,10579],[100,10657],[100,10739],[100,10829],[100,10905],[100,10989],[100,11076],[100,11160],[100,11239],[100,11327],[100,11405],[100,11489],[100,11577],[100,11655],[100,11739],[100,11826],[100,11905],[100,11989],[100,12078],[100,12158],[100,12238],[100,12328],[100,12410],[100,12491],[100,12577]]",1097.8901,1105.347,88.33333969,5.2893,"[{""rating"":82.91666984558105,""responseTime"":2.5888000000118154},{""rating"":88.33333969116211,""responseTime"":5.289300000011963}]",space,6.9174,,1105.3471,Not at all,0,1105.3564,,,[],,0,3,3,3,1,audio/Narrative7Situation3.wav,audio/Narrative8Situation3.wav,audio/Narrative5Situation3.wav,audio/Narrative6Situation3.wav,8,4,3,5,,,,,,,,,,,,,,,,,,,,,,,,,,,,,,,,,,,,,,,
,,,,,67db97028df2eae13fa41bdd,2025-07-07_22h56.48.267,group3.4_multiperson,2023.2.2,Win32,59.88023952,686c2ebf0248f13bef9af11f,686c8873780154b4c5b92aa1,,,,,,,,,,,,,,,,,,,,,,,,,,,,,1105.3567,2,audio/Narrative6Situation4.wav,1107.3624,,1107.3628,1119.9843,"[[999,1],[999,98],[999,182],[999,265],[999,348],[999,432],[999,515],[999,598],[999,682],[999,766],[999,849],[999,930],[999,1013],[999,1097],[999,1181],[999,1263],[999,1347],[999,1430],[999,1514],[999,1597],[999,1680],[999,1763],[999,1847],[999,1930],[999,2013],[999,2096],[999,2180],[999,2263],[999,2346],[999,2430],[999,2513],[999,2596],[999,2680],[999,2763],[999,2846],[999,2929],[999,3013],[999,3096],[999,3179],[999,3262],[999,3346],[999,3429],[999,3512],[999,3595],[999,3678],[999,3762],[999,3845],[999,3931],[999,4011],[999,4095],[999,4178],[999,4262],[999,4345],[999,4428],[999,4511],[999,4594],[999,4677],[999,4761],[999,4844],[999,4927],[999,5011],[999,5094],[999,5177],[999,5261],[999,5345],[999,5427],[999,5510],[999,5594],[999,5676],[999,5760],[999,5843],[999,5926],[999,6010],[999,6093],[999,6176],[999,6260],[999,6343],[999,6426],[999,6509],[999,6593],[57,6678],[50.6,7012],[50.4,7092],[50.4,7176],[50.1,7258],[50.1,7341],[54.9,7426],[77,7512],[94.1,7596],[100,7674],[100,7760],[100,7841],[100,7924],[100,8008],[100,8091],[100,8176],[100,8259],[100,8341],[100,8425],[100,8507],[100,8591],[100,8675],[100,8758],[100,8840],[100,8923],[100,9007],[100,9090],[100,9174],[100,9256],[100,9340],[100,9423],[100,9507],[100,9590],[100,9673],[100,9756],[100,9839],[100,9923],[100,10006],[100,10089],[100,10173],[100,10256],[100,10339],[100,10423],[100,10506],[100,10589],[100,10672],[100,10755],[100,10838],[100,10922],[100,11005],[100,11088],[100,11172],[100,11255],[100,11338],[100,11422],[100,11505],[100,11588],[100,11671],[100,11754],[100,11837],[100,11921],[100,12005],[100,12087],[100,12171],[100,12254],[100,12337],[100,12420],[100,12504],[100,12587]]",1119.9848,1121.8312,99.47916985,0.905,"[{""rating"":99.47916984558105,""responseTime"":0.9049999999999727}]",space,1.3009,,1121.8314,Not at all,0,1121.8362,,,[],,0,4,4,4,1,audio/Narrative7Situation4.wav,audio/Narrative8Situation4.wav,audio/Narrative5Situation4.wav,audio/Narrative6Situation4.wav,3,3,1,2,,,,,,,,,,,,,,,,,,,,,,,,,,,,,,,,,,,,,,,
,,,,,67db97028df2eae13fa41bdd,2025-07-07_22h56.48.267,group3.4_multiperson,2023.2.2,Win32,59.88023952,686c2ebf0248f13bef9af11f,686c8873780154b4c5b92aa1,,,,,,,,,,,,,,,,,,,,,,,,,,,,,1121.8365,2,audio/Narrative6Situation5.wav,1123.8483,,1123.8489,1131.8067,"[[999,2],[999,100],[999,181],[999,270],[999,356],[999,430],[999,513],[999,597],[999,686],[999,773],[999,847],[999,935],[999,1021],[999,1096],[999,1186],[999,1271],[999,1346],[999,1431],[999,1513],[999,1596],[999,1680],[999,1762],[999,1846],[999,1929],[999,2012],[999,2096],[999,2185],[999,2262],[999,2345],[999,2429],[999,2518],[999,2603],[999,2679],[999,2762],[999,2845],[999,2934],[999,3011],[999,3101],[999,3178],[999,3261],[999,3350],[999,3427],[999,3511],[999,3600],[999,3677],[999,3761],[999,3851],[999,3927],[999,4011],[999,4102],[999,4177],[999,4266],[999,4343],[999,4427],[999,4510],[999,4599],[999,4682],[999,4765],[999,4851],[999,4934],[46.3,5016],[46.3,5101],[46.6,5181],[48.4,5278],[49.7,5353],[49.9,5430],[49.9,5509],[50,5603],[56.8,5682],[100,5770]]",1131.8074,1142.9207,97.5,1.5858,"[{""rating"":97.5,""responseTime"":1.5857999999821004}]",space,10.5746,,1142.9209,Not at all,0,1142.9316,,,[],,0,5,5,5,1,audio/Narrative7Situation5.wav,audio/Narrative8Situation5.wav,audio/Narrative5Situation5.wav,audio/Narrative6Situation5.wav,5,2,5,2,,,,,,,,,,,,,,,,,,,,,,,,,,,,,,,,,,,,,,,
,,,,,67db97028df2eae13fa41bdd,2025-07-07_22h56.48.267,group3.4_multiperson,2023.2.2,Win32,59.88023952,686c2ebf0248f13bef9af11f,686c8873780154b4c5b92aa1,,,,,,,,,,,,,,,,,,,,,,,,,,,,,1142.9327,2,audio/Narrative6Situation6.wav,1144.9498,,1144.95,1156.0343,"[[999,2],[999,93],[999,176],[999,259],[999,343],[999,426],[999,509],[999,592],[999,675],[999,760],[999,842],[999,926],[999,1009],[999,1092],[999,1175],[999,1259],[999,1342],[999,1425],[999,1508],[999,1592],[999,1675],[999,1758],[999,1841],[999,1924],[999,2008],[999,2091],[999,2174],[999,2258],[999,2341],[999,2424],[999,2508],[999,2590],[999,2674],[999,2757],[999,2840],[999,2924],[999,3008],[999,3090],[999,3173],[999,3257],[999,3340],[999,3423],[999,3506],[999,3589],[999,3673],[999,3756],[999,3840],[999,3923],[999,4006],[999,4089],[999,4173],[999,4256],[999,4339],[999,4423],[999,4511],[999,4588],[999,4673],[999,4756],[52.9,4838],[52.9,4922],[52.9,5005],[52.9,5089],[52.8,5172],[50.3,5258],[49.3,5340],[48.8,5423],[48.8,5505],[48.8,5588],[48.8,5671],[48.8,5754],[48.8,5838],[48.8,5920],[48.8,6004],[48.9,6088],[49.1,6170],[51.4,6254],[64.9,6338],[84.1,6420],[98.3,6503]]",1156.0349,1159.7999,97.5,1.949,"[{""rating"":97.5,""responseTime"":1.9489999999998417}]",space,3.2159,,1159.8001,Partially,50,1159.8131,,,[],,0,6,6,6,1,audio/Narrative7Situation6.wav,audio/Narrative8Situation6.wav,audio/Narrative5Situation6.wav,audio/Narrative6Situation6.wav,3,2,3,2,,,,,,,,,,,,,,,,,,,,,,,,,,,,,,,,,,,,,,,
,,,,,67db97028df2eae13fa41bdd,2025-07-07_22h56.48.267,group3.4_multiperson,2023.2.2,Win32,59.88023952,686c2ebf0248f13bef9af11f,686c8873780154b4c5b92aa1,,,,,,,,,,,,,,,,,,,,,,,,,,,,,1159.8145,2,audio/Narrative6Situation7.wav,1164.8261,,1164.8263,1189.686,"[[96.6,6099],[94,6190],[92.6,6265],[92.4,6348],[92.4,6430],[92.4,6509],[94.6,6604],[95.9,6685],[96.8,6766],[97.4,6850],[98.1,6931],[98.6,7009],[99,7094],[99,7183],[99,7264],[99,7348],[99,7426],[99,7514],[99,7597],[99,7674],[99,7757],[99,7846],[99,7924],[99,8013],[99,8093],[99,8181],[99,8257],[99,8343],[99,8431],[99,8515],[99,8592],[99,8679],[99,8757],[99,8847],[99,8923],[99,9007],[99,9096],[99,9172],[99,9260],[99,9344],[99,9425],[99,9507],[99,9596],[99,9673],[99,9762],[99,9845],[99,9923],[99,10012],[99,10089],[99,10178],[99,10262],[99,10342],[99,10428],[99,10513],[99,10588],[99,10678],[99,10762],[99,10838],[99,10927],[99,11005],[99,11088],[99,11177],[99,11255],[99,11344],[99,11422],[99,11505],[99,11593],[99,11672],[99,11759],[99,11843],[99,11926],[99,12010],[99,12095],[99,12172],[99,12254],[99,12345],[99,12420],[99,12503],[99,12593],[99,12678],[99,12753],[99,12842],[99,12928],[99,13003],[99,13086],[99,13170],[99,13259],[99,13340],[99,13425],[99,13509],[99,13586],[99,13670],[99,13758],[99,13836],[99,13924],[99,14008],[99,14085],[99,14175],[99,14254],[99,14341],[99,14424],[99,14503],[99,14589],[99,14677],[99,14753],[99,14840],[99,14924],[99,15002],[99,15090],[99,15176],[99,15254],[99,15338],[99,15425],[99,15501],[99,15592],[99,15667],[99,15751],[99,15834],[99,15923],[99,16000],[99,16084],[99,16173],[99,16253],[99,16340],[99,16415],[99,16499],[99,16582],[99,16665],[99,16750],[99,16833],[99,16923],[99,16999],[99,17081],[99,17165],[99,17248],[99,17338],[99,17424],[99,17504],[99,17588],[99,17672],[99,17749],[99,17835],[99,17915],[99,18004],[99,18087],[99,18165],[99,18248],[99,18333],[99,18420],[99,18506],[99,18587],[99,18666],[99,18748],[99,18831],[99,18916],[99,19002],[99,19087],[99,19169],[99,19253],[99,19336],[99,19414],[99,19502],[99,19586],[99,19664],[99,19746],[99,19839],[99,19914],[99,20003],[99,20081],[99,20163],[99,20252],[99,20330],[99,20412],[99,20501],[99,20580],[99,20662],[99,20745],[99,20829],[99,20912],[99,21002],[99,21078],[99,21162],[99,21253],[99,21329],[99,21412],[99,21500],[99,21578],[99,21661],[99,21744],[99,21834],[99,21911],[99,21994],[99,22083],[99,22162],[99,22244],[99,22334],[99,22410],[99,22499],[99,22584],[99,22665],[99,22749],[99,22827],[99,22910],[99,22993],[99,23076],[99,23165],[99,23243],[99,23327],[99,23409],[99,23499],[99,23576],[99,23659],[99,23742],[99,23826],[99,23909],[99,23992],[99,24079],[99,24159],[99,24242],[99,24332],[99,24409],[99,24492],[99,24576],[99,24659],[99,24742],[99,24832]]",1189.6871,1212.6978,98.95833969,0.8226,"[{""rating"":98.95833969116211,""responseTime"":0.8225999999940541}]",space,22.4693,,1212.6983,Not at all,0,1212.7129,,,[],,0,7,7,7,1,audio/Narrative7Situation7.wav,audio/Narrative8Situation7.wav,audio/Narrative5Situation7.wav,audio/Narrative6Situation7.wav,5,3,4,5,,,,,,,,,,,,,,,,,,,,,,,,,,,,,,,,,,,,,,,
,,,,,67db97028df2eae13fa41bdd,2025-07-07_22h56.48.267,group3.4_multiperson,2023.2.2,Win32,59.88023952,686c2ebf0248f13bef9af11f,686c8873780154b4c5b92aa1,,,,,,,,,,,,,,,,,,,,,,,,,,,,,1212.7136,2,audio/Narrative6Situation8.wav,1217.7257,,1217.7258,1224.5858,"[[87.7,3263],[57.5,3346],[47.9,3429],[42.5,3512],[39.5,3596],[39.3,3679],[45.6,3763],[50.4,3929],[51.1,4013],[51.1,4095],[50.8,4179],[50.8,4262],[50.8,4345],[50.7,4428],[50.7,4511],[50.7,4594],[50.7,4678],[50.7,4761],[50.7,4844],[50.7,4927],[50.7,5010],[50.7,5094],[50.7,5177],[50.7,5260],[50.7,5343],[50.7,5427],[50.6,5510],[50.6,5593],[50.6,5677],[50.6,5760],[50.6,5843],[50.6,5927],[50.6,6010],[50.6,6094],[49.6,6180],[29,6260],[8.5,6343]]",1224.5861,1229.3483,0,3.0266,"[{""rating"":0,""responseTime"":3.026599999994005}]",space,4.2163,,1229.3485,Definitely yes,100,1229.3589,,,[],,0,8,8,8,1,audio/Narrative7Situation8.wav,audio/Narrative8Situation8.wav,audio/Narrative5Situation8.wav,audio/Narrative6Situation8.wav,2,3,3,5,,,,,,,,,,,,,,,,,,,,,,,,,,,,,,,,,,,,,,,
,,,,,67db97028df2eae13fa41bdd,2025-07-07_22h56.48.267,group3.4_multiperson,2023.2.2,Win32,59.88023952,686c2ebf0248f13bef9af11f,686c8873780154b4c5b92aa1,,,,,,,,,,,,,,,,,,,,,,,,,,,,,1229.3594,2,audio/Narrative6Situation9.wav,1233.361,,1233.3612,1243.3108,"[[999,1],[999,100],[999,189],[999,266],[999,354],[999,439],[999,517],[999,599],[999,683],[999,768],[999,855],[999,940],[999,1021],[999,1099],[999,1190],[999,1266],[999,1355],[999,1432],[999,1515],[999,1604],[999,1681],[999,1770],[999,1848],[999,1938],[999,2021],[999,2103],[999,2188],[999,2264],[999,2348],[999,2434],[999,2514],[999,2598],[999,2688],[999,2769],[51.3,2853],[47.1,3191],[47.1,3270],[47.5,3352],[48.1,3437],[48.4,3512],[48.6,3596],[49,3679],[49.1,3768],[49.1,3845],[49.3,3934],[49.3,4018],[49.3,4095],[49.3,4178],[49.3,4261],[49.3,4345],[49.3,4428],[49.3,4511],[49.3,4596],[45.5,4684],[25.7,4770],[10.2,4852],[4,4935],[2.6,5017],[2.6,5094],[2.6,5184],[2.6,5261],[2.6,5345],[2.6,5430],[2.6,5519],[2.6,5594],[2.6,5682],[2.6,5760],[2.6,5844],[2.6,5927],[2.6,6010],[2.6,6100],[2.6,6177],[2.6,6260],[2.6,6344],[2.6,6427],[2.6,6516],[2.6,6593],[2.6,6681],[2.6,6759],[2.6,6843],[2.6,6927],[2.6,7009],[2.6,7092],[2.6,7176],[2.6,7259],[2.6,7348],[2.6,7425],[2.6,7509],[2.6,7592],[2.6,7681],[2.6,7759],[2.6,7848],[2.6,7925],[2.6,8009],[2.6,8098],[2.6,8176],[2.6,8258],[2.6,8342],[2.6,8424],[2.6,8509],[13.8,8599],[25.3,8681],[31.6,8764],[35.9,8848],[37.5,8930],[32.6,9013],[8.3,9347]]",1243.3115,1245.8663,0,1.7134,"[{""rating"":0,""responseTime"":1.7134000000060041}]",space,2.0163,,1245.8666,Partially,50,1245.8771,,,[],,0,9,9,9,1,audio/Narrative7Situation9.wav,audio/Narrative8Situation9.wav,audio/Narrative5Situation9.wav,audio/Narrative6Situation9.wav,2,3,3,4,,,,,,,,,,,,,,,,,,,,,,,,,,,,,,,,,,,,,,,
,,,,,67db97028df2eae13fa41bdd,2025-07-07_22h56.48.267,group3.4_multiperson,2023.2.2,Win32,59.88023952,686c2ebf0248f13bef9af11f,686c8873780154b4c5b92aa1,,,,,,,,,,,,,,,,,,,,,,,,,,,,,1245.8776,2,audio/Narrative5Situation1.wav,1250.8782,,1250.8783,1264.1728,"[[999,1],[999,100],[999,182],[999,265],[999,357],[999,432],[999,515],[999,598],[999,682],[999,765],[999,853],[999,933],[999,1024],[999,1098],[999,1187],[999,1272],[999,1348],[999,1437],[999,1522],[999,1598],[999,1680],[999,1763],[999,1846],[999,1930],[999,2013],[999,2103],[999,2186],[999,2269],[31.9,2353],[47.5,2436],[48.9,2513],[48.9,2596],[48.9,2679],[48.9,2762],[48.9,2846],[48.9,2934],[48.9,3012],[48.9,3102],[48.9,3184],[48.9,3269],[48.9,3346],[48.9,3429],[48.9,3522],[48.9,3602],[48.9,3680],[48.9,3762],[48.9,3846],[48.9,3928],[48.9,4017],[48.9,4103],[48.9,4180],[48.9,4262],[48.9,4353],[48.9,4428],[48.9,4518],[48.9,4603],[48.9,4679],[48.9,4768],[48.9,4852],[48.9,4928],[48.9,5017],[48.9,5095],[48.9,5184],[48.9,5261],[48.9,5344],[48.9,5427],[48.9,5511],[48.9,5594],[48.9,5684],[48.9,5768],[48.9,5844],[48.9,5932],[48.9,6016],[61,6100],[94.2,6183],[100,6268],[100,6343],[100,6435],[100,6510],[100,6597],[100,6676],[100,6766],[100,6846],[100,6926],[100,7015],[100,7093],[100,7176],[100,7265],[100,7348],[100,7432],[100,7515],[100,7593],[100,7681],[100,7767],[100,7843],[100,7934],[100,8022],[99.5,8096],[99.2,8184],[99.2,8264],[99.2,8340],[99.2,8424],[99.2,8514],[99.2,8597],[99.2,8675],[99.2,8763],[99.1,8852],[99.1,8932],[80.6,9021],[41.1,9097],[34.3,9184],[33.8,9265],[33.8,9340],[33.6,9424],[33.6,9512],[33.6,9598],[33.6,9680],[33.6,9761],[33.6,9846],[33.6,9929],[33.6,10014],[33.3,10095],[33.1,10181],[33.1,10256],[33,10346],[33,10430],[33,10506],[33,10596],[33,10672],[33,10757],[33,10846],[33,10930],[33,11006],[32.8,11090],[32.5,11182],[32,11264],[30.6,11346],[27.8,11429],[26.9,11513],[26.3,11598],[25.5,11685],[23.5,11761],[22.2,11847],[22,11927],[22,12013],[22,12092],[22,12178],[22,12254],[22,12343],[22,12429],[22,12506],[22,12594],[22,12670],[22,12755],[22,12842],[22,12926],[22,13010],[22,13087],[22,13171],[22,13260]]",1264.1735,1272.6474,12.1875,7.4793,"[{""rating"":49.89583969116211,""responseTime"":4.595000000000027},{""rating"":12.187500000000002,""responseTime"":7.47930000001179}]",space,7.9236,,1272.6475,Not at all,0,1281.6163,0,7.6459,"[{""rating"":0,""responseTime"":7.645900000005895}]",space,0,10,10,10,1,audio/Narrative8Situation1.wav,audio/Narrative7Situation1.wav,audio/Narrative6Situation1.wav,audio/Narrative5Situation1.wav,5,2,2,5,,,8.4254,,,,,,,,,,,,,,,,,,,,,,,,,,,,,,,,,,,,
,,,,,67db97028df2eae13fa41bdd,2025-07-07_22h56.48.267,group3.4_multiperson,2023.2.2,Win32,59.88023952,686c2ebf0248f13bef9af11f,686c8873780154b4c5b92aa1,,,,,,,,,,,,,,,,,,,,,,,,,,,,,1281.6185,2,audio/Narrative5Situation2.wav,1284.6301,,1284.6303,1314.1029,"[[999,1],[999,99],[999,183],[999,266],[999,349],[999,432],[999,518],[999,599],[999,683],[999,767],[999,850],[999,931],[999,1015],[999,1099],[999,1182],[999,1265],[999,1349],[999,1432],[999,1515],[999,1598],[999,1682],[999,1765],[999,1848],[999,1931],[999,2015],[999,2099],[999,2181],[999,2264],[999,2348],[999,2431],[999,2514],[999,2598],[999,2680],[999,2764],[999,2848],[999,2930],[999,3014],[999,3096],[999,3180],[999,3263],[999,3346],[999,3429],[999,3512],[999,3596],[999,3679],[999,3763],[999,3846],[999,3929],[999,4012],[999,4095],[999,4179],[999,4262],[999,4345],[999,4429],[999,4512],[999,4595],[999,4679],[999,4762],[999,4845],[999,4928],[999,5010],[999,5095],[999,5178],[999,5270],[999,5350],[999,5431],[999,5515],[999,5601],[999,5677],[999,5761],[999,5844],[999,5927],[999,6011],[48.5,6259],[48.5,6346],[49.1,6431],[49.6,6511],[50,6594],[50,6678],[50,6761],[50,6842],[50,6927],[50,7009],[50,7093],[50,7176],[50,7259],[50,7343],[50,7425],[50.1,7509],[50.1,7593],[45.2,7675],[30.3,7758],[23.8,7848],[17.9,7930],[15.9,8010],[13.6,8091],[11.1,8175],[9.7,8260],[8.8,8341],[8,8430],[7.5,8509],[7.5,8591],[7.5,8675],[7.5,8759],[7.5,8842],[7.5,8925],[7.5,9008],[7.5,9091],[7.5,9175],[7.5,9258],[7.5,9340],[7.5,9424],[7.5,9510],[7.5,9590],[7.5,9674],[7.5,9757],[7.5,9840],[7.5,9923],[7.5,10007],[7.5,10090],[7.5,10174],[7.5,10257],[7.5,10340],[7.5,10424],[7.5,10507],[7.5,10590],[7.5,10673],[7.5,10755],[8.1,10839],[8.4,10923],[8.4,11005],[8.4,11088],[8.4,11171],[8.4,11255],[10.3,11339],[27,11422],[34,11505],[35,11589],[35.4,11671],[35.8,11755],[35.9,11837],[35.9,11921],[35.9,12004],[35.9,12087],[35.9,12170],[35.9,12254],[35.9,12337],[35.9,12420],[35.9,12504],[35.9,12587],[35.9,12670],[35.9,12754],[35.9,12837],[35.9,12920],[35.9,13004],[35.9,13087],[35.9,13170],[35.9,13254],[35.9,13337],[35.9,13420],[53.9,13503],[70.1,13586],[76.5,13670],[80.5,13754],[82.5,13836],[83,13919],[83,14002],[83,14086],[83,14168],[83,14252],[83,14335],[83,14418],[83,14501],[83,14585],[83,14668],[83,14752],[83,14835],[83,14918],[83,15002],[83,15085],[83,15168],[83,15251],[83,15335],[83,15418],[83,15501],[83,15584],[83,15668],[83,15751],[83,15835],[83,15917],[83,16001],[83,16084],[83,16167],[83,16250],[83,16334],[83,16417],[83,16500],[83,16584],[83,16667],[83,16750],[83,16833],[83,16916],[83,17000],[83,17083],[83,17167],[83,17249],[83,17333],[83,17416],[83,17499],[83,17583],[83,17665],[83,17748],[83,17831],[83,17916],[83,17999],[83,18083],[83,18165],[83,18249],[83,18332],[83,18415],[83,18499],[83,18582],[83,18665],[83,18749],[83,18832],[83,18915],[83,18998],[83,19082],[83,19165],[83,19248],[83,19331],[83,19415],[83,19498],[83,19581],[83,19664],[83,19747],[83,19831],[83,19914],[83,19998],[83,20081],[83,20164],[83,20248],[83,20331],[83,20414],[83,20496],[83,20580],[83,20664],[83,20747],[83,20830],[83,20913],[83,20996],[83,21080],[83,21163],[83,21246],[83,21329],[83,21413],[83,21496],[83,21580],[83,21664],[83,21747],[83,21829],[83,21912],[83,21995],[83,22079],[83,22162],[83,22245],[83,22329],[83,22412],[83,22496],[83,22579],[83,22662],[83,22747],[83,22828],[83,22911],[83,22995],[83,23078],[83,23161],[83,23245],[83,23328],[83,23411],[83,23494],[83,23578],[83,23661],[83,23744],[83,23828],[83,23910],[83,23995],[85.9,24076],[90.9,24159],[90.9,24243],[90.9,24328],[90.9,24410],[90.9,24492],[90.9,24576],[90.9,24659],[90.9,24743],[90.9,24827],[90.9,24910],[90.9,24992],[90.9,25076],[90.9,25160],[90.9,25243],[98.5,25332],[100,25419],[100,25492],[100,25576],[100,25658],[100,25742],[100,25825],[100,25909],[100,25992],[100,26074],[100,26158],[100,26242],[100,26325],[100,26408],[100,26491],[100,26574],[100,26658],[100,26741],[100,26824],[100,26908],[100,26991],[100,27074],[100,27158],[100,27241],[100,27324],[100,27408],[100,27490],[100,27573],[100,27657],[100,27740],[100,27823],[100,27907],[100,27990],[100,28075],[100,28158],[100,28240],[100,28323],[100,28405],[100,28489],[100,28573],[100,28656],[100,28739],[100,28822],[100,28905],[100,28988],[100,29072],[100,29155],[100,29239],[100,29322],[100,29404]]",1314.1041,1317.2884,99.58333969,2.5743,"[{""rating"":99.58333969116211,""responseTime"":2.5742999999820313}]",space,2.6342,,1317.2884,Not at all,0,1317.292,,,[],,0,11,11,11,1,audio/Narrative8Situation2.wav,audio/Narrative7Situation2.wav,audio/Narrative6Situation2.wav,audio/Narrative5Situation2.wav,3,3,3,3,,,,,,,,,,,,,,,,,,,,,,,,,,,,,,,,,,,,,,,
,,,,,67db97028df2eae13fa41bdd,2025-07-07_22h56.48.267,group3.4_multiperson,2023.2.2,Win32,59.88023952,686c2ebf0248f13bef9af11f,686c8873780154b4c5b92aa1,,,,,,,,,,,,,,,,,,,,,,,,,,,,,1317.2924,2,audio/Narrative5Situation3.wav,1320.2965,,1320.2966,1334.2177,"[[999,2],[999,99],[999,182],[999,266],[999,349],[999,432],[999,516],[999,599],[999,683],[999,766],[999,849],[999,932],[999,1015],[999,1098],[999,1181],[999,1264],[999,1348],[999,1432],[999,1514],[999,1598],[999,1681],[999,1764],[999,1847],[999,1930],[999,2015],[999,2097],[999,2181],[999,2264],[64.1,2347],[57.3,2430],[50.6,2930],[50.8,3013],[50.9,3096],[50.9,3179],[50.9,3262],[50.9,3345],[50.9,3429],[50.9,3512],[50.9,3595],[50.9,3679],[59.1,3762],[88.9,3847],[100,3929],[100,4012],[100,4095],[100,4178],[100,4261],[100,4345],[100,4428],[100,4511],[100,4595],[100,4678],[100,4761],[100,4845],[100,4928],[100,5011],[100,5094],[100,5178],[100,5261],[100,5344],[100,5427],[100,5511],[100,5594],[100,5678],[100,5760],[100,5843],[100,5927],[100,6010],[100,6093],[100,6177],[100,6260],[100,6343],[100,6427],[100,6510],[100,6593],[100,6676],[100,6759],[100,6842],[100,6926],[100,7009],[100,7092],[100,7176],[100,7259],[100,7342],[100,7426],[100,7509],[100,7592],[100,7675],[100,7758],[100,7842],[100,7925],[100,8008],[100,8091],[100,8175],[100,8258],[100,8341],[100,8424],[100,8508],[100,8591],[100,8674],[100,8758],[100,8841],[100,8924],[100,9007],[100,9091],[100,9174],[100,9257],[100,9341],[100,9424],[100,9507],[100,9590],[100,9673],[100,9757],[100,9840],[100,9923],[100,10006],[100,10089],[100,10173],[100,10256],[100,10340],[100,10422],[100,10506],[100,10589],[100,10672],[100,10756],[100,10839],[100,10922],[100,11005],[100,11089],[100,11172],[100,11255],[100,11339],[100,11422],[100,11505],[100,11588],[100,11672],[100,11755],[100,11838],[100,11921],[100,12005],[100,12088],[100,12171],[100,12254],[100,12338],[100,12421],[100,12504],[100,12587],[100,12671],[100,12754],[100,12837],[100,12920],[100,13005],[100,13087],[100,13171],[100,13254],[100,13337],[100,13420],[100,13503],[100,13587],[100,13671],[100,13752],[100,13836],[100,13919]]",1334.2184,1337.4224,100,2.2601,"[{""rating"":100,""responseTime"":2.26010000002384}]",space,2.6627,,1337.4228,Definitely yes,100,1337.437,,,[],,0,12,12,12,1,audio/Narrative8Situation3.wav,audio/Narrative7Situation3.wav,audio/Narrative6Situation3.wav,audio/Narrative5Situation3.wav,4,8,5,3,,,,,,,,,,,,,,,,,,,,,,,,,,,,,,,,,,,,,,,
,,,,,67db97028df2eae13fa41bdd,2025-07-07_22h56.48.267,group3.4_multiperson,2023.2.2,Win32,59.88023952,686c2ebf0248f13bef9af11f,686c8873780154b4c5b92aa1,,,,,,,,,,,,,,,,,,,,,,,,,,,,,1337.4374,2,audio/Narrative5Situation4.wav,1338.447,,1338.4477,1358.8517,"[[999,2],[999,98],[999,181],[999,265],[999,356],[999,431],[999,521],[999,598],[999,687],[999,765],[999,848],[999,932],[999,1018],[999,1097],[999,1181],[999,1264],[999,1347],[999,1436],[999,1513],[999,1601],[999,1685],[999,1772],[999,1851],[999,1935],[999,2017],[999,2101],[999,2178],[999,2261],[999,2351],[999,2428],[999,2511],[999,2595],[999,2678],[999,2761],[999,2844],[999,2928],[999,3011],[999,3094],[999,3177],[999,3261],[999,3344],[999,3427],[999,3510],[999,3594],[999,3677],[999,3760],[999,3843],[999,3927],[999,4010],[999,4099],[58.1,4184],[51.3,4267],[50.4,4349],[50.4,4430],[50.4,4513],[50.4,4593],[50.4,4676],[55.7,4766],[73.6,4850],[83.5,4933],[89.4,5016],[94.1,5099]]",1358.8519,1410.2808,99.16666985,0.9157,"[{""rating"":99.16666984558105,""responseTime"":0.9156999999881918}]",space,50.8912,,1410.2815,Partially,50,1410.2934,,,[],,0,13,13,13,1,audio/Narrative8Situation4.wav,audio/Narrative7Situation4.wav,audio/Narrative6Situation4.wav,audio/Narrative5Situation4.wav,3,3,2,1,,,,,,,,,,,,,,,,,,,,,,,,,,,,,,,,,,,,,,,
,,,,,67db97028df2eae13fa41bdd,2025-07-07_22h56.48.267,group3.4_multiperson,2023.2.2,Win32,59.88023952,686c2ebf0248f13bef9af11f,686c8873780154b4c5b92aa1,,,,,,,,,,,,,,,,,,,,,,,,,,,,,1410.2954,2,audio/Narrative5Situation5.wav,1415.3078,,1415.308,1430.7441,"[[74.2,2846],[61.9,2929],[59.7,3013],[55.5,3096],[51.9,3179],[49.8,3263],[49.3,3345],[49.3,3428],[49.3,3512],[49.3,3595],[49.3,3678],[49.3,3762],[49.3,3845],[49.3,3928],[49.3,4011],[49.3,4095],[49.3,4178],[49.3,4261],[49.3,4344],[49.3,4428],[49.3,4511],[49.3,4594],[49.3,4677],[49.3,4761],[49.3,4844],[49.3,4927],[49.3,5011],[49.3,5094],[49.3,5177],[49.3,5260],[49.3,5343],[49.3,5427],[49.3,5510],[49.3,5593],[49.3,5676],[49.3,5763],[49.3,5843],[49.3,5926],[49.3,6009],[49.3,6092],[49.3,6176],[49.3,6259],[42.6,6343],[34.1,6426],[30.9,6509],[30,6592],[29.7,6675],[29.6,6758],[29.6,6842],[29.6,6925],[29.6,7008],[27.8,7092],[21.6,7175],[17.1,7258],[13.5,7342],[11.4,7425],[10.3,7508],[9.8,7591],[9.7,7674],[9.7,7758],[9.7,7841],[10.4,7925],[52,8008],[87,8091],[92,8175],[92,8258],[92,8341],[92,8424],[92,8508],[92,8590],[92,8673],[92,8757],[92,8840],[92,8928],[92,9006],[92,9090],[92,9173],[92,9256],[92,9340],[92,9423],[92,9506],[92,9589],[92,9673],[98,9756],[100,9839],[100,9922],[100,10006],[100,10089],[100,10172],[100,10255],[100,10339],[100,10422],[100,10505],[100,10589],[100,10672],[100,10755],[100,10838],[100,10922],[100,11005],[100,11088],[100,11172],[100,11255],[100,11338],[100,11421],[100,11504],[100,11587],[100,11671],[100,11755],[100,11837],[100,11921],[100,12005],[100,12087],[100,12170],[100,12254],[100,12337],[100,12420],[100,12504],[100,12587],[100,12670],[100,12754],[100,12837],[100,12920],[100,13003],[100,13086],[100,13170],[100,13253],[100,13336],[100,13419],[100,13502],[100,13586],[100,13670],[100,13753],[100,13838],[100,13919],[100,14002],[100,14087],[100,14169],[100,14252],[100,14336],[100,14419],[100,14502],[100,14586],[100,14669],[100,14752],[100,14835],[100,14920],[100,15002],[100,15085],[100,15168],[100,15251],[100,15334],[100,15418]]",1430.745,1442.7584,100,3.5336,"[{""rating"":93.54166984558105,""responseTime"":2.676800000011781},{""rating"":100,""responseTime"":3.5336000000238528}]",space,11.4614,,1442.7587,Partially,50,1442.7718,,,[],,0,14,14,14,1,audio/Narrative8Situation5.wav,audio/Narrative7Situation5.wav,audio/Narrative6Situation5.wav,audio/Narrative5Situation5.wav,2,5,2,5,,,,,,,,,,,,,,,,,,,,,,,,,,,,,,,,,,,,,,,
,,,,,67db97028df2eae13fa41bdd,2025-07-07_22h56.48.267,group3.4_multiperson,2023.2.2,Win32,59.88023952,686c2ebf0248f13bef9af11f,686c8873780154b4c5b92aa1,,,,,,,,,,,,,,,,,,,,,,,,,,,,,1442.7735,2,audio/Narrative5Situation6.wav,1445.7788,,1445.779,1451.4567,"[[100,2515],[100,2598],[54.8,3429],[51.5,3513],[50,3596],[49.5,3679],[49.2,3762],[49.2,3845],[49.2,3928],[49.2,4012],[49.2,4095],[49.2,4179],[49.2,4261],[49.2,4345],[49.2,4428],[49.2,4511],[59.5,4595],[94.3,4678],[100,4762],[100,4844],[100,4928],[100,5011],[100,5094],[100,5178],[95.1,5261],[92,5345],[91.1,5428],[91.1,5510],[91.1,5594],[91.1,5677]]",1451.4567,1458.4333,86.45833969,5.7591,"[{""rating"":86.45833969116211,""responseTime"":5.759099999994078}]",space,6.4312,,1458.4333,Partially,50,1458.436,,,[],,0,15,15,15,1,audio/Narrative8Situation6.wav,audio/Narrative7Situation6.wav,audio/Narrative6Situation6.wav,audio/Narrative5Situation6.wav,2,3,2,3,,,,,,,,,,,,,,,,,,,,,,,,,,,,,,,,,,,,,,,
,,,,,67db97028df2eae13fa41bdd,2025-07-07_22h56.48.267,group3.4_multiperson,2023.2.2,Win32,59.88023952,686c2ebf0248f13bef9af11f,686c8873780154b4c5b92aa1,,,,,,,,,,,,,,,,,,,,,,,,,,,,,1458.4368,2,audio/Narrative5Situation7.wav,1462.4469,,1462.4471,1483.4993,"[[999,1],[999,99],[999,182],[999,265],[999,348],[999,432],[999,515],[999,598],[999,682],[999,764],[999,848],[999,931],[999,1014],[999,1098],[999,1181],[999,1266],[999,1348],[999,1431],[999,1517],[999,1598],[999,1681],[999,1764],[999,1847],[999,1931],[999,2014],[999,2098],[999,2189],[999,2264],[999,2348],[999,2430],[999,2514],[999,2597],[999,2680],[999,2763],[999,2847],[999,2930],[999,3013],[999,3097],[999,3185],[999,3263],[999,3346],[999,3429],[999,3512],[999,3596],[999,3679],[999,3768],[999,3846],[999,3929],[999,4017],[999,4096],[999,4184],[999,4267],[999,4345],[53.2,4435],[55.9,4518],[55.9,4595],[52.4,4684],[51.4,4768],[51.4,4844],[50.7,4934],[50.4,5017],[50.3,5095],[54.6,5184],[67.5,5268],[75.8,5351],[83.1,5434],[87.8,5518],[89.6,5600],[90.1,5677],[90.1,5765],[90.1,5844],[90.1,5927],[90.1,6009],[90.1,6094],[90.1,6176],[90.1,6265],[90.1,6343],[90.1,6427],[90.1,6509],[90.1,6593],[90.1,6676],[90.1,6759],[90.1,6848],[90.1,6931],[90.1,7015],[90.1,7098],[90.1,7177],[90.1,7259],[90.1,7348],[90.1,7426],[90.1,7508],[90.1,7592],[90.1,7675],[90.1,7759],[90.1,7842],[90.1,7925],[90.1,8008],[90.1,8095],[90.1,8175],[90.1,8258],[90.1,8341],[90.1,8425],[90.1,8513],[90.1,8591],[90.1,8674],[90.1,8763],[90.1,8841],[90.1,8924],[90.1,9008],[90.1,9091],[90.1,9174],[90.1,9264],[90.1,9341],[90.1,9424],[90.1,9508],[90.1,9590],[90.1,9679],[90.1,9763],[90.4,9841],[90.4,9930],[90.5,10015],[90.6,10090],[90.6,10179],[90.6,10263],[91,10349],[91.9,10431],[94,10513],[94.9,10596],[95.2,10679],[95.5,10763],[95.5,10838],[95.5,10927],[95.5,11011],[95.5,11089],[95.5,11172],[95.5,11260],[95.5,11338],[95.5,11421],[95.5,11506],[95.5,11588],[95.5,11677],[95.5,11759],[95.5,11838],[95.5,11921],[95.5,12004],[95.5,12088],[95.5,12171],[95.5,12255],[95.5,12338],[95.5,12421],[95.5,12504],[95.5,12593],[95.5,12678],[95.5,12754],[95.5,12842],[95.5,12921],[95.5,13004],[95.5,13088],[95.5,13171],[95.5,13254],[95.5,13337],[95.5,13420],[95.5,13509],[95.5,13587],[95.5,13670],[95.5,13753],[95.5,13837],[95.5,13925],[95.5,14009],[95.5,14086],[95.5,14175],[95.5,14252],[95.5,14337],[95.5,14419],[95.5,14508],[95.5,14586],[95.5,14669],[95.5,14752],[95.5,14836],[95.5,14923],[95.5,15008],[95.5,15086],[95.5,15168],[95.5,15252],[95.5,15335],[95.5,15418],[95.5,15501],[95.5,15585],[95.5,15668],[95.5,15757],[95.5,15835],[95.5,15923],[95.5,16009],[95.5,16085],[95.5,16168],[95.5,16251],[95.5,16334],[95.5,16422],[95.5,16508],[95.5,16584],[95.5,16667],[95.5,16750],[95.5,16833],[95.5,16917],[95.5,17000],[95.5,17083],[95.5,17167],[95.5,17250],[95.5,17333],[95.5,17417],[95.5,17500],[95.5,17583],[95.5,17666],[95.5,17749],[95.5,17837],[95.5,17916],[95.5,18005],[95.5,18082],[95.5,18166],[95.5,18249],[95.5,18332],[95.5,18416],[95.5,18499],[95.5,18582],[95.5,18666],[95.5,18749],[95.5,18831],[95.5,18915],[95.5,18998],[95.5,19081],[95.5,19165],[95.5,19253],[95.5,19331],[95.5,19414],[95.5,19498],[95.5,19582],[95.5,19664],[95.5,19752],[95.5,19830],[95.5,19914],[95.5,19997],[95.5,20084],[95.5,20164],[95.5,20247],[95.5,20330],[95.5,20413],[95.5,20497],[95.5,20579],[95.5,20668],[95.5,20749],[95.5,20838],[95.5,20918],[95.5,21003]]",1483.5,1485.1939,96.35416985,1.1709,"[{""rating"":96.35416984558105,""responseTime"":1.170900000005986}]",space,1.1571,,1485.1942,Not at all,0,1485.21,,,[],,0,16,16,16,1,audio/Narrative8Situation7.wav,audio/Narrative7Situation7.wav,audio/Narrative6Situation7.wav,audio/Narrative5Situation7.wav,3,5,5,4,,,,,,,,,,,,,,,,,,,,,,,,,,,,,,,,,,,,,,,
,,,,,67db97028df2eae13fa41bdd,2025-07-07_22h56.48.267,group3.4_multiperson,2023.2.2,Win32,59.88023952,686c2ebf0248f13bef9af11f,686c8873780154b4c5b92aa1,,,,,,,,,,,,,,,,,,,,,,,,,,,,,1485.2115,2,audio/Narrative5Situation8.wav,1488.2238,,1488.224,1497.06,"[[27.1,8430]]",1497.0602,1508.2206,43.95833969,9.4462,"[{""rating"":49.166669845581055,""responseTime"":8.759499999999889},{""rating"":43.95833969116211,""responseTime"":9.446199999988039}]",space,10.6261,,1508.2209,Not at all,0,1508.2269,,,[],,0,17,17,17,1,audio/Narrative8Situation8.wav,audio/Narrative7Situation8.wav,audio/Narrative6Situation8.wav,audio/Narrative5Situation8.wav,3,2,5,3,,,,,,,,,,,,,,,,,,,,,,,,,,,,,,,,,,,,,,,
,,,,,67db97028df2eae13fa41bdd,2025-07-07_22h56.48.267,group3.4_multiperson,2023.2.2,Win32,59.88023952,686c2ebf0248f13bef9af11f,686c8873780154b4c5b92aa1,,,,,,,,,,,,,,,,,,,,,,,,,,,,,1508.2274,2,audio/Narrative5Situation9.wav,1511.235,,1511.2352,1550.7811,"[[45.8,2180],[48.1,2263],[49.4,2346],[49.6,2429],[49.7,2512],[50.2,2596],[50.2,2679],[50.2,2762],[50.8,2846],[75.3,2929],[86.5,10089],[84.5,10589],[83.6,10672],[83.6,10755],[83.6,10838],[83.6,10922],[83.6,11005],[84,11088],[94,11171],[100,11255],[100,11337],[100,11421],[100,11504],[100,11587],[100,11671],[100,11754],[100,11837],[100,11920],[100,12003],[100,12087],[100,12170],[100,12253],[100,12337],[100,12420],[100,12503],[100,12587],[100,12670],[100,12753],[100,12836],[100,12919],[100,13003],[100,13086],[100,13169],[100,13253],[100,13336],[100,13419],[100,13502],[100,13585],[100,13669],[100,17416],[100,17499],[100,17582],[100,17665],[100,17751],[100,17833],[100,17916],[100,17999],[100,18081],[100,18165],[100,18248],[100,18331],[100,18416],[100,18498],[100,18581],[100,18665],[100,18748],[100,18831],[100,18914],[100,18998],[100,19082],[100,19164],[100,19248],[100,19331],[100,19414],[100,19497],[100,19580],[100,19664],[100,19747],[100,19830],[100,19914],[100,19997],[100,20080],[100,20163],[100,20246],[100,20330],[100,20413],[100,20496],[100,20580],[100,20663],[100,20746],[100,20829],[100,20913],[100,20996],[100,21080],[100,21162],[100,21245],[100,21329],[100,21412],[100,21495],[100,21579],[100,21662],[100,21745],[100,21829],[100,21912],[100,21995],[100,22078],[100,22161],[100,22244],[100,22328],[100,22411],[100,22494],[100,22578],[100,22661],[100,22744],[100,22827],[100,22911],[100,22994],[100,23077],[100,23160],[100,23244],[100,23327],[100,23411],[100,23494],[100,23576],[100,23660],[100,23743],[100,23827],[100,23909],[100,23993],[100,24076],[100,24159],[100,24243],[100,24326],[100,24409],[100,24492],[100,24576],[100,24659],[100,24743],[100,24826],[100,24909],[100,24993],[100,25076],[100,25159],[100,25242],[100,25325],[100,25408],[100,25491],[100,25575],[100,25658],[100,25741],[100,25824],[100,25908],[100,25991],[100,26074],[100,26158],[100,26241],[100,26324],[100,26407],[100,26490],[100,26574],[100,26657],[100,26740],[100,26823],[100,26907],[100,26990],[100,27073],[100,27157],[100,27240],[100,27323],[100,27407],[100,27490],[100,27573],[100,27656],[100,27739],[100,27823],[100,27906],[100,27990],[100,28073],[100,28156],[100,28239],[100,28322],[100,28406],[100,28489],[100,28573],[100,28655],[100,28739],[100,28822],[100,28904],[100,28988],[100,29072],[100,29154],[100,29238],[100,29321],[100,29404],[100,29488],[100,29571],[100,29654],[100,29738],[100,29821],[100,29904],[100,29988],[100,30071],[100,30154],[100,30238],[100,30320],[100,30403],[100,30487],[100,30570],[100,30653],[100,30737],[100,30820],[100,30903],[100,30987],[100,31070],[100,31153],[100,31236],[100,31319],[100,31403],[100,31486],[100,31569],[100,31653],[100,31736],[100,31819],[100,31902],[100,31985],[100,32068],[100,32152],[100,32235],[100,32319],[100,32402],[100,32485],[100,32568],[100,32652],[100,32735],[100,32820],[100,32901],[100,32984],[100,33068],[100,33151],[100,33234],[100,33318],[100,33401],[100,33484],[100,33567],[100,33651],[100,33734],[100,33818],[100,33900],[100,33984],[100,34066],[100,34149],[100,34232],[100,34317],[100,34400],[100,34483],[100,34566],[100,34650],[100,34733],[100,34816],[100,34900],[100,34983],[100,35066],[100,35149],[100,35232],[100,35316],[100,35399],[100,35482],[100,35566],[100,35649],[100,35732],[100,35815],[100,35899],[100,35981],[100,36065],[100,36149],[100,36231],[100,36316],[100,36399],[100,36482],[100,36565],[100,36648],[100,36731],[100,36814],[100,36898],[100,36981],[100,37064],[100,37147],[100,37231],[100,37314],[100,37398],[100,37480],[100,37564],[100,37646],[100,37730],[100,37813],[100,37897],[100,37979],[100,38063],[100,38146],[100,38229],[100,38313],[100,38397],[100,38479],[100,38563],[100,38646],[100,38729],[100,38813],[100,38896],[100,38979],[100,39063],[100,39145],[100,39228],[100,39312],[100,39395],[100,39478]]",1550.7816,1554.6514,98.33333969,1.8024,"[{""rating"":98.33333969116211,""responseTime"":1.802400000005946}]",space,3.3307,,1554.6515,Definitely yes,100,1554.6588,,,[],,0,18,18,18,1,audio/Narrative8Situation9.wav,audio/Narrative7Situation9.wav,audio/Narrative6Situation9.wav,audio/Narrative5Situation9.wav,3,2,4,3,,,,,,,,,,,,,,,,,,,,,,,,,,,,,,,,,,,,,,,
,,,,,67db97028df2eae13fa41bdd,2025-07-07_22h56.48.267,group3.4_multiperson,2023.2.2,Win32,59.88023952,686c2ebf0248f13bef9af11f,686c8873780154b4c5b92aa1,,,,,,,,,,,,,,,,,,,,,,,,,,,,,,,,,,,,,,,,,,,,,,,,,,,,,,,,,,,,,,,,,,,,,,1554.6593,1563.7759,space,8.6059,,1563.7765,1618.5086,space,54.4148,,,,,,,,,,,,,,,,,,,,,,,,,,
