consent.started,consent.stopped,consentResponse.keys,consentResponse.rt,consentResponse.duration,participantID,date,expName,psychopyVersion,OS,frameRate,STUDY_ID,SESSION_ID,opening1.started,opening1.stopped,keyEndingOpening1.keys,keyEndingOpening1.rt,keyEndingOpening1.duration,volumeAdjust.started,volumeAdjust.stopped,endingAdjust.keys,endingAdjust.rt,endingAdjust.duration,opening2.started,opening2.stopped,keyEndingOpening.keys,keyEndingOpening.rt,keyEndingOpening.duration,mouse.x,mouse.y,mouse.leftButton,mouse.midButton,mouse.rightButton,mouse.time,instructionLoop.thisRepN,instructionLoop.thisTrialN,instructionLoop.thisN,instructionLoop.thisIndex,instructionLoop.ran,readyForAudio.started,readyForAudio.stopped,fixation.started,run,audio_played,fixation.stopped,endPractice.keys,audioPre.started,audioPre.stopped,continuousResponses_audio,intRating.started,intRating.stopped,intQuestionSlider.response,intQuestionSlider.rt,intQuestionSlider.history,confirmResponse.keys,confirmResponse.rt,confirmResponse.duration,catchQuestion.started,catch_label,catch_value,catchQuestion.stopped,catchQuestionSlider.response,catchQuestionSlider.rt,catchQuestionSlider.history,confirmResponse_2.keys,audioRunLoop.thisRepN,audioRunLoop.thisTrialN,audioRunLoop.thisN,audioRunLoop.thisIndex,audioRunLoop.ran,conditions1_1,conditions2_1,conditions1_2,conditions2_2,dur1_1,dur2_1,dur1_2,dur2_2,endPractice.rt,endPractice.duration,confirmResponse_2.rt,confirmResponse_2.duration,runIntervalBreak.started,runIntervalBreak.stopped,endingBreakKey.keys,endingBreakKey.rt,endingBreakKey.duration,connection.started,connection.stopped,connectionEnding.keys,connectionEnding.rt,connectionEnding.duration,readyForText.started,readyForText.stopped,textPre.started,run_dup,textPre.stopped,continuousResponses_text,textRunLoop.thisRepN,textRunLoop.thisTrialN,textRunLoop.thisN,textRunLoop.thisIndex,textRunLoop.ran,text1_1,text1_2,text2_1,text2_2,runBreakText.started,runBreakText.stopped,endingBreakKey_2.keys,endingBreakKey_2.rt,endingBreakKey_2.duration,ending.started,ending.stopped,endingEnding.keys,endingEnding.rt,endingEnding.duration
0.0023,16.8122,y,16.3771,,67e4c4b8c49f4b9a84e4c155,2025-07-07_16h52.02.012,group3.4_multiperson,2023.2.2,Win32,58.47953216,686c2ebf0248f13bef9af11f,686c31954a9a635a73cd838f,,,,,,,,,,,,,,,,,,,,,,,,,,,,,,,,,,,,,,,,,,,,,,,,,,,,,,,,,,,,,,,,,,,,,,,,,,,,,,,,,,,,,,,,,,,,,,,,,,,,,,,,
,,,,,67e4c4b8c49f4b9a84e4c155,2025-07-07_16h52.02.012,group3.4_multiperson,2023.2.2,Win32,58.47953216,686c2ebf0248f13bef9af11f,686c31954a9a635a73cd838f,16.8131,50.4285,space,33.4441,,,,,,,,,,,,,,,,,,,,,,,,,,,,,,,,,,,,,,,,,,,,,,,,,,,,,,,,,,,,,,,,,,,,,,,,,,,,,,,,,,,,,,,,,,,,,,,,,,,,
,,,,,67e4c4b8c49f4b9a84e4c155,2025-07-07_16h52.02.012,group3.4_multiperson,2023.2.2,Win32,58.47953216,686c2ebf0248f13bef9af11f,686c31954a9a635a73cd838f,,,,,,50.4292,96.9452,space,46.1913,,,,,,,,,,,,,,,,,,,,,,,,,,,,,,,,,,,,,,,,,,,,,,,,,,,,,,,,,,,,,,,,,,,,,,,,,,,,,,,,,,,,,,,,,,,,,,,
,,,,,67e4c4b8c49f4b9a84e4c155,2025-07-07_16h52.02.012,group3.4_multiperson,2023.2.2,Win32,58.47953216,686c2ebf0248f13bef9af11f,686c31954a9a635a73cd838f,,,,,,,,,,,96.9667,124.238,space,27.1537,,[],[],[],[],[],[],0,0,0,0,1,,,,,,,,,,,,,,,,,,,,,,,,,,,,,,,,,,,,,,,,,,,,,,,,,,,,,,,,,,,,,,,,,,,,,,,,,,,,,,
,,,,,67e4c4b8c49f4b9a84e4c155,2025-07-07_16h52.02.012,group3.4_multiperson,2023.2.2,Win32,58.47953216,686c2ebf0248f13bef9af11f,686c31954a9a635a73cd838f,,,,,,,,,,,124.2415,189.6764,space,65.0408,,[],[],[],[],[],[],1,0,1,0,1,,,,,,,,,,,,,,,,,,,,,,,,,,,,,,,,,,,,,,,,,,,,,,,,,,,,,,,,,,,,,,,,,,,,,,,,,,,,,,
,,,,,67e4c4b8c49f4b9a84e4c155,2025-07-07_16h52.02.012,group3.4_multiperson,2023.2.2,Win32,58.47953216,686c2ebf0248f13bef9af11f,686c31954a9a635a73cd838f,,,,,,,,,,,189.6777,239.6199,space,49.8018,,[],[],[],[],[],[],2,0,2,0,1,,,,,,,,,,,,,,,,,,,,,,,,,,,,,,,,,,,,,,,,,,,,,,,,,,,,,,,,,,,,,,,,,,,,,,,,,,,,,,
,,,,,67e4c4b8c49f4b9a84e4c155,2025-07-07_16h52.02.012,group3.4_multiperson,2023.2.2,Win32,58.47953216,686c2ebf0248f13bef9af11f,686c31954a9a635a73cd838f,,,,,,,,,,,239.6211,386.7147,space,147.0431,,[],[],[],[],[],[],3,0,3,0,1,,,,,,,,,,,,,,,,,,,,,,,,,,,,,,,,,,,,,,,,,,,,,,,,,,,,,,,,,,,,,,,,,,,,,,,,,,,,,,
,,,,,67e4c4b8c49f4b9a84e4c155,2025-07-07_16h52.02.012,group3.4_multiperson,2023.2.2,Win32,58.47953216,686c2ebf0248f13bef9af11f,686c31954a9a635a73cd838f,,,,,,,,,,,386.7155,417.6974,space,30.9269,,[],[],[],[],[],[],4,0,4,0,1,,,,,,,,,,,,,,,,,,,,,,,,,,,,,,,,,,,,,,,,,,,,,,,,,,,,,,,,,,,,,,,,,,,,,,,,,,,,,,
,,,,,67e4c4b8c49f4b9a84e4c155,2025-07-07_16h52.02.012,group3.4_multiperson,2023.2.2,Win32,58.47953216,686c2ebf0248f13bef9af11f,686c31954a9a635a73cd838f,,,,,,,,,,,417.6985,472.6842,space,54.9408,,[],[],[],[],[],[],5,0,5,0,1,,,,,,,,,,,,,,,,,,,,,,,,,,,,,,,,,,,,,,,,,,,,,,,,,,,,,,,,,,,,,,,,,,,,,,,,,,,,,,
,,,,,67e4c4b8c49f4b9a84e4c155,2025-07-07_16h52.02.012,group3.4_multiperson,2023.2.2,Win32,58.47953216,686c2ebf0248f13bef9af11f,686c31954a9a635a73cd838f,,,,,,,,,,,,,,,,,,,,,,,,,,,472.6907,475.2719,475.3523,1,audio/Narrative13Situation2.wav,477.355,,477.3561,507.112,"[[999,4],[999,257],[999,348],[999,440],[999,519],[999,604],[999,683],[999,765],[999,847],[999,930],[999,1012],[999,1097],[999,1180],[999,1263],[999,1347],[999,1430],[999,1513],[999,1596],[999,1679],[999,1764],[999,1847],[999,1930],[999,2013],[999,2097],[999,2190],[999,2276],[999,2381],[999,2468],[999,2548],[999,2629],[999,2713],[999,2798],[999,2883],[999,2968],[999,3054],[999,3141],[999,3221],[999,3303],[999,3385],[999,3466],[999,3554],[999,3633],[999,3718],[999,3799],[999,3884],[999,3966],[999,4053],[999,4134],[999,4217],[999,4300],[999,4387],[999,4468],[999,4550],[999,4633],[999,4716],[999,4798],[999,4884],[999,4966],[999,5052],[999,5134],[999,5216],[999,5300],[999,5384],[999,5467],[999,5549],[999,5636],[999,5716],[999,5799],[999,5886],[999,5966],[999,6050],[999,6133],[999,6219],[999,6299],[999,6383],[999,6466],[999,6549],[999,6666],[999,6750],[999,6829],[999,6913],[999,6996],[999,7081],[999,7160],[999,7246],[999,7330],[999,7414],[999,7496],[999,7580],[999,7665],[999,7746],[999,7833],[999,7924],[999,8027],[999,8136],[999,8246],[12.7,8388],[7.5,8506],[6.2,8625],[6.1,8715],[6.1,8803],[6.1,8888],[6.1,8984],[6.1,9071],[6.1,9153],[6.1,9236],[6.1,9325],[6.1,9406],[6.1,9491],[6.1,9580],[6.1,9664],[4.3,9779],[2.3,9899],[1.7,10003],[1.7,10097],[1.7,10179],[2,10271],[2.7,10384],[3.3,10487],[3.9,10590],[4.6,10704],[5.1,10806],[5.9,10919],[6.2,11020],[6.2,11116],[6.2,11198],[6.2,11281],[6.2,11365],[6.2,11448],[6.2,11529],[6.2,11615],[6.2,11697],[6.8,11785],[22.3,11902],[67,12868],[74,12986],[79.3,13080],[82.8,13190],[88.8,13309],[92.6,13428],[96.3,13553],[96.4,13640],[96.4,13735],[96.4,13817],[96.4,13903],[96.4,13981],[96.6,14067],[97.1,14174],[97.3,14271],[97.4,14365],[97.4,14451],[97.6,14536],[97.7,14634],[97.9,14725],[97.9,14817],[97.9,14897],[97.9,14980],[97.9,15064],[97.9,15147],[97.9,15234],[97.9,15318],[97.9,15404],[97.9,15491],[97.9,15574],[97.9,15655],[97.9,15736],[97.9,15821],[97.9,15907],[97.9,15990],[97.9,16074],[97.9,16159],[97.9,16247],[97.9,16329],[97.9,16417],[97.9,16497],[97.9,16579],[97.9,16664],[97.9,16745],[97.9,16829],[97.9,16913],[97.9,16996],[97.9,17083],[97.9,17165],[97.9,17246],[97.9,17329],[97.9,17414],[97.9,17496],[97.9,17586],[97.9,17665],[97.9,17745],[97.9,17829],[97.9,17917],[97.9,17998],[97.9,18080],[97.9,18164],[97.9,18248],[97.9,18328],[97.9,18415],[97.9,18494],[97.9,18579],[97.9,18664],[97.9,18745],[97.9,18831],[97.9,18914],[97.9,18996],[97.9,19078],[97.9,19164],[97.9,19245],[97.9,19329],[97.9,19414],[97.9,19495],[97.9,19577],[97.9,19665],[97.9,19745],[97.9,19828],[97.9,19914],[97.9,19999],[97.9,20079],[97.9,20164],[97.9,20247],[97.9,20329],[97.9,20414],[97.9,20495],[97.9,20579],[97.9,20663],[97.9,20745],[97.9,20827],[97.9,20914],[97.9,20997],[97.9,21084],[97.9,21169],[97.9,21254],[97.9,21336],[97.9,21415],[97.9,21503],[97.9,21585],[97.9,21669],[97.9,21748],[97.9,21829],[97.9,21915],[97.9,21996],[97.9,22084],[97.9,22164],[97.9,22247],[97.9,22329],[97.9,22413],[97.9,22496],[97.9,22579],[97.9,22664],[97.9,22746],[97.9,22831],[97.9,22910],[97.9,22995],[97.9,23079],[97.9,23161],[97.9,23245],[97.9,23330],[97.9,23412],[97.9,23495],[97.9,23579],[97.9,23662],[97.9,23747],[97.9,23828],[97.9,23914],[97.9,23994],[97.9,24081],[97.9,24164],[97.9,24247],[97.9,24331],[97.9,24414],[97.9,24496],[97.9,24579],[97.9,24664],[97.9,24747],[97.9,24831],[97.9,24914],[97.9,25000],[97.9,25087],[97.9,25167],[97.9,25250],[97.9,25329],[97.9,25419],[97.9,25503],[97.9,25584],[97.9,25669],[97.9,25750],[97.9,25831],[97.9,25916],[97.9,26001],[97.9,26084],[97.9,26162],[97.9,26247],[97.9,26329],[97.9,26413],[97.9,26495],[97.9,26579],[97.9,26664],[97.9,26747],[97.9,26830],[97.9,26913],[97.9,26997],[97.9,27079],[97.9,27164],[97.9,27248],[97.9,27328],[97.9,27418],[97.9,27501],[97.9,27586],[97.9,27674],[97.9,27764],[97.9,27846],[97.9,27933],[97.9,28014],[97.9,28096],[97.9,28179],[97.9,28264],[97.9,28352],[97.9,28433],[97.9,28519],[97.9,28600],[97.9,28685],[97.9,28768],[97.9,28852],[97.9,28935],[97.9,29021],[97.9,29107],[97.9,29196],[97.9,29280],[97.9,29369],[97.9,29454],[97.9,29535],[97.9,29620],[97.9,29701]]",507.1133,516.0428,98.85830105,3.6478,"[{""rating"":98.8583010531867,""responseTime"":3.6477999999523263}]",space,8.3893,,516.0438,Definitely yes,100,516.0673,,,[],,0,0,0,0,1,audio/Narrative13Situation2.wav,audio/Narrative13Situation2.wav,audio/Narrative13Situation2.wav,audio/Narrative13Situation2.wav,2,2,2,2,,,,,,,,,,,,,,,,,,,,,,,,,,,,,,,,,,,,,,,
,,,,,67e4c4b8c49f4b9a84e4c155,2025-07-07_16h52.02.012,group3.4_multiperson,2023.2.2,Win32,58.47953216,686c2ebf0248f13bef9af11f,686c31954a9a635a73cd838f,,,,,,,,,,,,,,,,,,,,,,,,,,,,,516.0708,1,audio/Narrative8Situation1.wav,546.1177,space,546.1178,562.0362,"[[999,5],[999,132],[999,209],[999,293],[999,378],[999,460],[999,539],[999,617],[999,699],[999,782],[999,867],[999,949],[999,1040],[999,1147],[999,1232],[999,1316],[999,1401],[999,1484],[999,1567],[999,1649],[999,1734],[999,1817],[999,1901],[999,1981],[999,2067],[999,2148],[999,2235],[999,2316],[999,2398],[999,2482],[999,2567],[999,2648],[999,2732],[999,2817],[999,2900],[999,2981],[999,3066],[999,3151],[999,3232],[999,3316],[999,3398],[999,3482],[999,3566],[999,3648],[999,3731],[999,3817],[999,3898],[999,3981],[999,4067],[999,4148],[999,4231],[999,4316],[999,4399],[999,4481],[999,4569],[999,4657],[999,4737],[999,4821],[999,4900],[999,4982],[999,5063],[999,5148],[999,5232],[999,5317],[999,5400],[999,5482],[999,5566],[999,5648],[999,5731],[999,5817],[999,5898],[999,5981],[999,6066],[999,6148],[999,6231],[999,6314],[999,6399],[999,6481],[999,6567],[999,6648],[999,6734],[999,6821],[999,6919],[999,7031],[53.2,7133],[51.9,7244],[51.8,7355],[51.5,7459],[51.5,7550],[51.5,7633],[51.5,7723],[51.5,7804],[51.5,7897],[51.5,7986],[51.5,8072],[51.5,8150],[51.5,8233],[51.5,8341],[51.5,8437],[51.5,8519],[51.5,8611],[51.5,8692],[51.5,8773],[51.5,8858],[51.5,8948],[51.5,9033],[51.5,9119],[51.5,9199],[51.5,9286],[51.5,9366],[51.5,9449],[51.5,9531],[51.5,9616],[51.5,9699],[51.5,9781],[51.5,9864],[51.5,9950],[51.5,10039],[52.5,10152],[54.1,10274],[55.1,10377],[56.1,10496],[59.4,10607],[70.1,10735],[72.5,10840],[72.5,10929],[72.5,11019],[72.5,11102],[72.5,11182],[75.2,11288],[85.6,11409],[87.3,11521],[87.6,11619],[90,11742],[93.6,11873],[97.4,11985],[97.9,12083],[98.6,12190],[99.2,12299],[99.2,12390],[99.2,12470],[99.2,12548],[99.2,12632],[99.2,12717],[99.2,12806],[99.2,12887],[99.2,12974],[99.2,13060],[99.2,13143],[99.2,13232],[99.2,13317],[99.2,13398],[99.2,13481],[99.2,13566],[99.2,13649],[99.2,13740],[99.2,13827],[99.2,13926],[99.2,14018],[99.2,14100],[99.2,14192],[99.2,14285],[99.2,14370],[99.2,14459],[99.2,14538],[99.2,14620],[99.2,14701],[99.2,14781],[99.2,14864],[99.2,14949],[99.2,15031],[99.2,15114],[99.2,15199],[99.2,15281],[99.2,15368],[99.2,15449],[99.2,15533],[99.2,15616],[99.2,15698],[99.2,15781],[99.2,15866]]",562.0368,565.141,99.15104107,1.8389,"[{""rating"":99.15104107492354,""responseTime"":1.8388999999760927}]",space,2.5639,,565.1412,Partially,50,565.1577,,,[],,0,1,1,1,1,audio/Narrative7Situation1.wav,audio/Narrative8Situation1.wav,audio/Narrative5Situation1.wav,audio/Narrative6Situation1.wav,2,5,5,2,29.9922,,,,,,,,,,,,,,,,,,,,,,,,,,,,,,,,,,,,,,
,,,,,67e4c4b8c49f4b9a84e4c155,2025-07-07_16h52.02.012,group3.4_multiperson,2023.2.2,Win32,58.47953216,686c2ebf0248f13bef9af11f,686c31954a9a635a73cd838f,,,,,,,,,,,,,,,,,,,,,,,,,,,,,565.1587,1,audio/Narrative8Situation2.wav,568.171,,568.1713,578.2836,"[[999,1],[999,123],[999,211],[999,289],[999,380],[999,465],[999,545],[999,627],[999,712],[999,797],[999,878],[999,966],[999,1044],[999,1128],[999,1214],[999,1295],[999,1378],[999,1463],[999,1550],[999,1656],[999,1758],[999,1876],[29.8,1996],[29.6,2085],[29.6,2178],[29.6,2263],[29.6,2349],[29.6,2435],[29.6,2519],[29.6,2599],[29.6,2685],[29.6,2763],[33.5,2876],[48.8,2997],[53.8,3120],[54,3219],[54,3311],[52.6,3415],[39,3533],[34.6,3669],[33.6,3779],[32.9,3883],[32,3988],[31.3,4097],[31.3,4179],[31.3,4265],[31.3,4347],[31.3,4429],[31.3,4520],[31.3,4605],[31.3,4695],[31.3,4778],[31.3,4865],[31.3,4945],[31.3,5029],[30.8,5123],[18.5,5247],[12.2,5377],[11.2,5487],[8.9,5610],[5.9,5735],[4.2,5849],[3.6,5956],[3.3,6053],[3,6156],[3,6245],[3,6335],[3,6415],[3,6500],[3,6580],[3,6670],[3,6764],[3.6,6848],[45.8,6968],[66.4,7086],[66.8,7180],[66.8,7265],[66.8,7355],[66.8,7447],[66.8,7528],[72.7,7635],[88.7,7747],[91.9,7869],[91.9,7951],[91.9,8035],[91.9,8120],[92.2,8220],[95.4,8335],[96.6,8453],[97.7,8567],[98,8664],[98.3,8755],[98.6,8854],[98.9,8948],[98.9,9034],[98.9,9117],[98.9,9198],[98.9,9280],[98.9,9367],[98.9,9451],[98.9,9545],[98.9,9627],[98.9,9711],[98.9,9794],[98.9,9877],[98.9,9958],[98.9,10044]]",578.2842,580.3568,98.85830105,0.8709,"[{""rating"":98.8583010531867,""responseTime"":0.8709000000357037}]",space,1.5253,,580.3571,Partially,50,580.37,,,[],,0,2,2,2,1,audio/Narrative7Situation2.wav,audio/Narrative8Situation2.wav,audio/Narrative5Situation2.wav,audio/Narrative6Situation2.wav,3,3,3,3,,,,,,,,,,,,,,,,,,,,,,,,,,,,,,,,,,,,,,,
,,,,,67e4c4b8c49f4b9a84e4c155,2025-07-07_16h52.02.012,group3.4_multiperson,2023.2.2,Win32,58.47953216,686c2ebf0248f13bef9af11f,686c31954a9a635a73cd838f,,,,,,,,,,,,,,,,,,,,,,,,,,,,,580.3713,1,audio/Narrative8Situation3.wav,584.3821,,584.3821,606.7671,"[[999,3],[999,110],[999,193],[999,275],[999,361],[999,443],[999,534],[57,638],[10.6,1918],[10.9,2009],[10.9,2094],[10.9,2185],[10.9,2268],[10.9,2350],[10.9,2435],[10.9,2517],[10.9,2600],[10.9,2682],[10.9,2768],[11.6,2866],[14,2989],[14.4,3092],[14.7,3186],[18.5,3300],[42.4,3426],[53.8,3538],[54.7,3636],[54.7,3717],[54.7,3800],[55,3893],[69.3,4018],[76.2,4124],[83.2,4234],[91.3,4358],[92.3,4457],[92.3,4544],[92.3,4636],[92.3,4723],[92.6,4815],[94.5,4925],[95.5,5038],[96.1,5135],[96.9,5251],[97.4,5353],[97.4,5433],[97.4,5517],[97.4,5603],[97.4,5684],[97.4,5767],[97.4,5849],[97.4,5933],[97.4,6018],[97.4,6102],[97.4,6183],[97.4,6273],[97.4,6356],[97.4,6434],[97.4,6515],[97.4,6598],[97.4,6683],[97.4,6767],[97.4,6848],[97.4,6933],[97.4,7016],[97.4,7098],[97.4,7183],[97.4,7267],[97.4,7349],[97.4,7433],[97.4,7519],[97.4,7602],[97.4,7683],[97.4,7765],[97.4,7849],[97.4,7934],[97.4,8016],[97.4,8099],[97.4,8183],[97.4,8267],[97.4,8349],[97.4,8434],[97.4,8515],[97.4,8599],[97.4,8685],[97.4,8765],[97.4,8848],[97.4,8934],[97.4,9015],[97.4,9100],[97.4,9183],[97.4,9265],[97.4,9348],[97.4,9431],[97.4,9516],[97.4,9600],[97.4,9684],[97.4,9766],[97.4,9848],[97.4,9934],[97.4,10017],[97.4,10098],[97.4,10182],[97.4,10266],[97.4,10348],[97.4,10434],[97.4,10516],[97.4,10598],[97.4,10682],[97.4,10766],[97.4,10849],[97.4,10934],[97.4,11015],[97.4,11098],[97.4,11185],[97.4,11266],[97.4,11348],[97.4,11434],[97.4,11515],[97.4,11599],[97.4,11684],[97.4,11767],[97.4,11850],[97.4,11931],[97.4,12015],[97.4,12097],[97.4,12181],[97.4,12266],[97.4,12348],[97.4,12434],[97.4,12515],[97.4,12598],[97.4,12684],[97.4,12765],[97.4,12850],[97.4,12930],[97.4,13016],[97.4,13098],[97.4,13183],[97.4,13265],[97.4,13348],[97.4,13434],[97.4,13519],[97.4,13603],[97.4,13681],[97.4,13766],[97.4,13847],[97.4,13934],[97.4,14014],[97.4,14098],[97.4,14180],[97.4,14265],[97.4,14347],[97.4,14435],[97.4,14515],[97.4,14600],[97.4,14684],[97.4,14768],[97.4,14850],[97.4,14934],[97.4,15015],[97.4,15099],[97.4,15184],[97.4,15265],[97.4,15348],[97.4,15435],[97.4,15515],[97.4,15599],[97.4,15681],[97.4,15765],[97.4,15848],[97.4,15936],[97.4,16015],[97.4,16098],[97.4,16182],[97.4,16265],[97.4,16350],[97.4,16434],[97.4,16516],[97.4,16604],[97.4,16685],[97.4,16765],[97.4,16849],[97.4,16934],[97.4,17018],[97.4,17098],[97.4,17184],[97.4,17263],[97.4,17347],[97.4,17433],[97.4,17516],[97.4,17599],[97.4,17681],[97.4,17766],[97.4,17850],[97.4,17931],[97.4,18016],[97.4,18098],[97.4,18183],[97.4,18266],[97.4,18349],[97.4,18434],[97.4,18515],[97.4,18598],[97.4,18681],[97.4,18765],[97.4,18848],[97.4,18930],[97.4,19014],[97.4,19098],[97.4,19184],[97.4,19265],[97.4,19347],[97.4,19434],[97.4,19515],[97.4,19625],[97.4,19706],[97.4,19785],[97.4,19865],[97.4,19948],[97.4,20034],[97.4,20115],[97.4,20199],[97.4,20281],[97.4,20365],[97.4,20446],[97.4,20532],[97.4,20615],[97.4,20698],[97.4,20784],[97.4,20868],[97.4,20950],[97.4,21031],[97.4,21117],[97.4,21197],[97.4,21284],[97.4,21366],[97.4,21449],[97.4,21531],[97.4,21615],[97.4,21700],[97.4,21782],[97.4,21865],[97.4,21948],[97.4,22034],[97.4,22117],[97.4,22198],[97.4,22281],[97.4,22366]]",606.7678,609.0196,97.39460094,0.4836,"[{""rating"":97.39460094450246,""responseTime"":0.48360000002389825}]",space,1.7119,,609.0203,Definitely yes,100,609.0357,,,[],,0,3,3,3,1,audio/Narrative7Situation3.wav,audio/Narrative8Situation3.wav,audio/Narrative5Situation3.wav,audio/Narrative6Situation3.wav,8,4,3,5,,,,,,,,,,,,,,,,,,,,,,,,,,,,,,,,,,,,,,,
,,,,,67e4c4b8c49f4b9a84e4c155,2025-07-07_16h52.02.012,group3.4_multiperson,2023.2.2,Win32,58.47953216,686c2ebf0248f13bef9af11f,686c31954a9a635a73cd838f,,,,,,,,,,,,,,,,,,,,,,,,,,,,,609.0363,1,audio/Narrative8Situation4.wav,612.049,,612.0491,626.214,"[[999,2],[999,116],[999,204],[999,282],[999,370],[999,457],[999,539],[999,622],[999,703],[999,785],[999,866],[999,950],[999,1039],[999,1139],[999,1239],[999,1342],[999,1457],[999,1557],[999,1669],[999,1784],[999,1889],[999,1992],[999,2093],[999,2203],[999,2302],[999,2387],[999,2470],[999,2555],[999,2637],[999,2719],[999,2800],[999,2883],[999,2964],[999,3050],[999,3133],[999,3243],[999,3353],[93.9,3459],[94.2,3549],[94.2,3636],[94.2,3720],[94.2,3807],[94.4,3923],[98.3,4043],[100,4155],[100,4250],[100,4331],[100,4416],[100,4499],[100,4590],[100,4681],[100,4769],[100,4849],[100,4932],[100,5014],[100,5100],[100,5181],[100,5264],[100,5347],[100,5432],[100,5517],[100,5598],[100,5682],[100,5764],[100,5847],[100,5930],[100,6014],[100,6098],[100,6179],[100,6264],[100,6349],[100,6431],[100,6514],[100,6604],[100,6688],[100,6767],[100,6847],[100,6930],[100,7013],[100,7097],[100,7180],[100,7264],[100,7349],[100,7431],[100,7514],[100,7598],[100,7681],[100,7768],[100,7847],[100,7931],[100,8016],[100,8098],[100,8179],[100,8263],[100,8347],[100,8430],[100,8515],[100,8598],[100,8680],[100,8764],[100,8848],[100,8931],[100,9013],[100,9099],[100,9179],[100,9264],[100,9349],[100,9431],[100,9515],[100,9598],[100,9680],[100,9763],[100,9850],[100,9930],[100,10017],[100,10098],[100,10181],[100,10264],[100,10349],[100,10431],[100,10517],[100,10597],[100,10681],[100,10766],[100,10847],[100,10930],[100,11014],[100,11098],[100,11180],[100,11267],[100,11348],[100,11431],[100,11513],[100,11598],[100,11680],[100,11763],[100,11847],[100,11928],[100,12013],[100,12097],[100,12180],[100,12263],[100,12348],[100,12430],[100,12513],[100,12598],[100,12680],[100,12764],[100,12847],[100,12930],[100,13015],[100,13097],[100,13180],[100,13264],[100,13347],[100,13429],[100,13514],[100,13604],[100,13687],[100,13766],[100,13848],[100,13930],[100,14013],[100,14097]]",626.2146,629.4655,99.15104107,1.643,"[{""rating"":99.15104107492354,""responseTime"":1.6429999999999154}]",space,2.7007,,629.466,Not at all,0,629.4856,,,[],,0,4,4,4,1,audio/Narrative7Situation4.wav,audio/Narrative8Situation4.wav,audio/Narrative5Situation4.wav,audio/Narrative6Situation4.wav,3,3,1,2,,,,,,,,,,,,,,,,,,,,,,,,,,,,,,,,,,,,,,,
,,,,,67e4c4b8c49f4b9a84e4c155,2025-07-07_16h52.02.012,group3.4_multiperson,2023.2.2,Win32,58.47953216,686c2ebf0248f13bef9af11f,686c31954a9a635a73cd838f,,,,,,,,,,,,,,,,,,,,,,,,,,,,,629.4866,1,audio/Narrative8Situation5.wav,631.4995,,631.5,639.7498,"[[999,2],[999,119],[999,201],[999,291],[999,378],[999,463],[999,549],[999,633],[999,719],[999,803],[999,885],[999,969],[999,1050],[999,1138],[999,1219],[999,1303],[999,1387],[999,1469],[999,1552],[999,1634],[999,1716],[999,1800],[999,1880],[999,1963],[999,2047],[999,2131],[999,2212],[999,2297],[999,2379],[999,2463],[999,2549],[999,2629],[999,2713],[999,2797],[999,2879],[999,2962],[999,3047],[999,3129],[999,3216],[999,3297],[999,3382],[999,3463],[999,3547],[999,3629],[999,3712],[999,3799],[999,3879],[999,3963],[999,4047],[999,4131],[999,4212],[999,4299],[999,4387],[999,4467],[999,4553],[999,4637],[999,4721],[999,4801],[999,4880],[999,4962],[999,5047],[999,5131],[999,5212],[999,5297],[999,5380],[999,5461],[999,5547],[999,5629],[999,5711],[999,5797],[999,5879],[999,5962],[999,6047],[999,6128],[999,6212],[999,6298],[999,6378],[999,6460],[999,6547],[999,6629],[999,6716],[999,6802],[80,6919],[83.5,7040],[88.8,7168],[92.9,7283],[99.9,7411],[100,7521],[100,7617],[100,7709],[100,7792],[100,7902],[100,8002],[100,8085],[100,8174]]",639.7501,643.3012,98.71193104,1.6317,"[{""rating"":98.71193104231826,""responseTime"":1.6316999999880863}]",space,3.0056,,643.3015,Not at all,0,655.8039,0.351283739,10.8808,"[{""rating"":0.3512837387376788,""responseTime"":10.880799999952274}]",space,0,5,5,5,1,audio/Narrative7Situation5.wav,audio/Narrative8Situation5.wav,audio/Narrative5Situation5.wav,audio/Narrative6Situation5.wav,5,2,5,2,,,11.962,,,,,,,,,,,,,,,,,,,,,,,,,,,,,,,,,,,,
,,,,,67e4c4b8c49f4b9a84e4c155,2025-07-07_16h52.02.012,group3.4_multiperson,2023.2.2,Win32,58.47953216,686c2ebf0248f13bef9af11f,686c31954a9a635a73cd838f,,,,,,,,,,,,,,,,,,,,,,,,,,,,,655.8047,1,audio/Narrative8Situation6.wav,657.8123,,657.8126,664.2969,"[[32.6,791],[40.9,2496],[38.4,2604],[37,2718],[36.4,2822],[35.1,2934],[30.8,3056],[24.2,3161],[21.4,3276],[21.3,3367],[21.3,3455],[21.3,3538],[21.3,3625],[21.3,3717],[20.9,3817],[17.2,3937],[15.7,4050],[15.4,4136],[15.3,4225],[15.3,4316],[15.3,4406],[15.3,4491],[15.3,4582],[15.3,4667],[15.3,4751],[15.3,4835],[15.3,4917],[21,5027],[30.2,5157],[36.5,5270],[44.4,5391],[55.1,5500],[60.7,5618],[60.7,5704],[60.7,5784],[60.7,5872],[60.7,5954],[60.7,6037],[60.7,6120],[60.7,6208],[61,6305],[62.7,6437]]",664.2976,668.1634,98.71193104,2.284,"[{""rating"":98.71193104231826,""responseTime"":2.2840000000001055}]",space,3.3163,,668.1637,Not at all,0,668.1727,,,[],,0,6,6,6,1,audio/Narrative7Situation6.wav,audio/Narrative8Situation6.wav,audio/Narrative5Situation6.wav,audio/Narrative6Situation6.wav,3,2,3,2,,,,,,,,,,,,,,,,,,,,,,,,,,,,,,,,,,,,,,,
,,,,,67e4c4b8c49f4b9a84e4c155,2025-07-07_16h52.02.012,group3.4_multiperson,2023.2.2,Win32,58.47953216,686c2ebf0248f13bef9af11f,686c31954a9a635a73cd838f,,,,,,,,,,,,,,,,,,,,,,,,,,,,,668.1733,1,audio/Narrative8Situation7.wav,671.1793,,671.1794,683.2995,"[[31.6,910],[32.9,1033],[33.6,1142],[33.6,1239],[31.8,1352],[28.9,1462],[28.3,1568],[28.2,1654],[28.2,1748],[28.2,1834],[28.6,1931],[32,2042],[37.4,2155],[44.6,2281],[65.1,3129],[76.9,3247],[84.3,3362],[84.3,3449],[84.3,3533],[84.3,3617],[84.3,3700],[89.4,3807],[94.5,3925],[96.3,4040],[96.9,4143],[97.4,4252],[98,4357],[98.3,4453],[98.5,4542],[98.6,4639],[98.6,4727],[98.6,4818],[98.6,4902],[98.6,4983],[98.6,5071],[98.6,5159],[98.6,5249],[98.6,5339],[98.6,5424],[98.6,5510],[98.6,5600],[98.6,5683],[98.6,5763],[98.6,5849],[98.6,5931],[98.6,6014],[98.6,6099],[98.6,6180],[98.6,6269],[98.6,6349],[98.6,6431],[98.6,6514],[98.6,6598],[98.6,6683],[98.6,6765],[98.6,6850],[98.6,6932],[98.6,7014],[98.6,7099],[98.6,7181],[98.6,7269],[98.6,7353],[98.6,7434],[98.6,7515],[98.6,7599],[98.6,7681],[98.6,7765],[98.6,7845],[98.6,7932],[98.6,8015],[98.6,8099],[98.6,8182],[98.6,8272],[98.6,8352],[98.6,8433],[98.6,8516],[98.6,8597],[98.6,8681],[98.6,8768],[98.6,8849],[98.6,8932],[98.6,9016],[98.6,9098],[98.6,9182],[98.6,9271],[98.6,9352],[98.6,9431],[98.6,9516],[98.6,9598],[98.6,9680],[98.6,9765],[98.6,9848],[98.6,9930],[98.6,10013],[98.6,10098],[98.6,10182],[98.6,10262],[98.6,10349],[98.6,10432],[98.6,10516],[98.6,10598],[98.6,10683],[98.6,10764],[98.6,10849],[98.6,10931],[98.6,11015],[98.6,11098],[98.6,11182],[98.6,11264],[98.6,11353],[98.6,11438],[98.6,11515],[98.6,11603],[98.6,11687],[98.6,11772],[98.6,11871],[98.6,11963],[98.6,12059]]",683.2998,686.2727,99.29741109,1.7186,"[{""rating"":99.29741108579195,""responseTime"":1.7186000000237982}]",space,2.426,,686.2782,Partially,50,686.2897,,,[],,0,7,7,7,1,audio/Narrative7Situation7.wav,audio/Narrative8Situation7.wav,audio/Narrative5Situation7.wav,audio/Narrative6Situation7.wav,5,3,4,5,,,,,,,,,,,,,,,,,,,,,,,,,,,,,,,,,,,,,,,
,,,,,67e4c4b8c49f4b9a84e4c155,2025-07-07_16h52.02.012,group3.4_multiperson,2023.2.2,Win32,58.47953216,686c2ebf0248f13bef9af11f,686c31954a9a635a73cd838f,,,,,,,,,,,,,,,,,,,,,,,,,,,,,686.291,1,audio/Narrative8Situation8.wav,689.2937,,689.294,702.1341,"[[96.3,722],[90.7,831],[13.7,1911],[9.7,2032],[9.3,2140],[9,2250],[9,2337],[9,2420],[9,2505],[9,2587],[9,2674],[9,2758],[9,2849],[9,2935],[9,3019],[9,3099],[9,3185],[9,3271],[9,3353],[9,3434],[9,3517],[9,3601],[9,3683],[9,3767],[9,3849],[9,3934],[9,4017],[9,4099],[9,4184],[9,4269],[9,4348],[9,4434],[9,4515],[9,4600],[9,4684],[9,4767],[9,4851],[9,4935],[9,5018],[9,5098],[9,5184],[9,5269],[9,5353],[9,5438],[9,5524],[9,5605],[9,5686],[9,5767],[9,5850],[9,5934],[9,6020],[9.4,6127],[10.6,6236],[12.4,6356],[14.7,6478],[15.7,6599],[16.5,6704],[16.5,6786],[16.5,6870],[16.5,6957],[16.5,7050],[16.5,7136],[16.5,7218],[16.5,7305],[16.5,7385],[16.5,7469],[16.5,7555],[16.5,7637],[16.5,7720],[16.5,7806],[16.5,7887],[16.5,7975],[16.5,8056],[16.5,8136],[16.5,8218],[16.5,8302],[16.5,8384],[16.5,8467],[16.5,8550],[16.5,8634],[16.5,8716],[16.5,8799],[16.5,8887],[22.3,8990],[53.5,9107],[65.4,9235],[66.3,9335],[66.3,9417],[66.3,9500],[66.3,9583],[66.8,9683],[82.7,9801],[93.2,9918],[95.4,10028],[95.8,10138],[95.8,10221],[96.3,10332],[97,10439],[97.1,10525],[97.1,10617],[97.1,10700],[97.1,10788],[97.1,10869],[97.1,10955],[97.1,11040],[97.1,11119],[97.1,11205],[97.1,11292],[97.1,11388],[97.1,11473],[97.1,11552],[97.1,11632],[97.1,11717],[97.1,11799],[97.1,11883],[97.1,11966],[97.1,12050],[97.1,12131],[97.1,12218],[97.1,12300],[97.9,12408],[98.8,12521],[98.9,12610],[99,12706],[99.2,12799]]",702.1346,704.8673,99.59015111,1.4973,"[{""rating"":99.59015110752881,""responseTime"":1.497300000011819}]",space,2.183,,704.8676,Not at all,0,704.8854,,,[],,0,8,8,8,1,audio/Narrative7Situation8.wav,audio/Narrative8Situation8.wav,audio/Narrative5Situation8.wav,audio/Narrative6Situation8.wav,2,3,3,5,,,,,,,,,,,,,,,,,,,,,,,,,,,,,,,,,,,,,,,
,,,,,67e4c4b8c49f4b9a84e4c155,2025-07-07_16h52.02.012,group3.4_multiperson,2023.2.2,Win32,58.47953216,686c2ebf0248f13bef9af11f,686c31954a9a635a73cd838f,,,,,,,,,,,,,,,,,,,,,,,,,,,,,704.8862,1,audio/Narrative8Situation9.wav,707.893,,707.8933,719.2261,"[[999,1],[999,116],[999,198],[999,282],[999,368],[999,450],[999,533],[999,617],[999,702],[999,785],[999,870],[999,950],[999,1032],[999,1117],[999,1199],[999,1282],[999,1366],[999,1447],[999,1533],[999,1615],[999,1699],[999,1783],[999,1866],[999,1948],[999,2031],[999,2116],[999,2198],[999,2282],[999,2367],[999,2448],[999,2535],[999,2616],[999,2702],[999,2782],[999,2867],[999,2948],[999,3033],[999,3116],[999,3197],[999,3282],[999,3367],[999,3449],[15.9,3552],[11.3,3669],[11.2,3769],[12.1,3876],[23.1,3997],[41.1,4115],[56.6,4224],[57.8,4321],[57.8,4400],[57.8,4485],[57.8,4567],[57.8,4656],[57.8,4739],[57.8,4822],[57.8,4907],[57.8,4997],[57.8,5077],[57.8,5161],[65.8,5271],[85.7,5388],[91.4,5509],[92.2,5606],[93,5711],[95.5,5821],[97,5939],[97.9,6057],[98.6,6159],[99.5,6270],[99.5,6355],[99.5,6436],[99.5,6523],[99.5,6608],[99.5,6688],[99.5,6769],[99.5,6852],[99.5,6936],[99.5,7023],[99.5,7102],[99.5,7186],[99.5,7266],[99.5,7349],[99.5,7432],[99.5,7516],[99.5,7599],[99.5,7683],[99.5,7766],[99.5,7848],[99.5,7932],[99.5,8017],[99.5,8098],[99.5,8185],[99.5,8273],[99.5,8355],[99.5,8436],[99.5,8516],[99.5,8599],[99.5,8682],[99.5,8766],[99.5,8851],[99.5,8932],[99.5,9016],[99.5,9098],[99.5,9182],[99.5,9266],[99.5,9355],[99.5,9438],[99.5,9520],[99.5,9597],[99.5,9681],[99.5,9766],[99.5,9848],[99.5,9932],[99.5,10017],[99.5,10099],[99.5,10186],[99.5,10266],[99.5,10348],[99.5,10431],[99.5,10515],[99.5,10601],[99.5,10680],[99.5,10767],[99.5,10848],[99.5,10936],[99.5,11016],[99.5,11098],[99.5,11181],[99.5,11267]]",719.2265,722.0309,99.4437811,0.922,"[{""rating"":99.44378109666036,""responseTime"":0.9220000000000255}]",space,2.2679,,722.0314,Not at all,0,722.0425,,,[],,0,9,9,9,1,audio/Narrative7Situation9.wav,audio/Narrative8Situation9.wav,audio/Narrative5Situation9.wav,audio/Narrative6Situation9.wav,2,3,3,4,,,,,,,,,,,,,,,,,,,,,,,,,,,,,,,,,,,,,,,
,,,,,67e4c4b8c49f4b9a84e4c155,2025-07-07_16h52.02.012,group3.4_multiperson,2023.2.2,Win32,58.47953216,686c2ebf0248f13bef9af11f,686c31954a9a635a73cd838f,,,,,,,,,,,,,,,,,,,,,,,,,,,,,722.0432,1,audio/Narrative7Situation1.wav,724.0527,,724.053,779.9424,"[[95.8,1373],[71.2,1499],[56.1,1623],[29.1,1746],[27.9,1839],[27.9,1925],[27.9,2006],[27.9,2092],[27.9,2173],[27.9,2258],[25.5,2358],[22,2482],[19.5,2590],[18.5,2698],[18.5,2791],[18.5,2872],[18.5,2957],[18.5,3041],[18.5,3120],[18.5,3207],[18.5,3289],[18.5,3381],[18.5,3474],[18.5,3557],[20,3674],[20.6,3777],[23.5,3894],[27.9,4014],[31.6,4138],[33.3,4258],[34.8,4374],[35.2,4463],[35.2,4554],[35.2,4639],[35.2,4722],[35.2,4807],[35.2,4890],[36.7,4989],[42.4,5101],[42.5,5199],[43.1,5312],[44.4,5422],[44.7,5522],[45,5614],[47.5,5734],[50.1,5862],[50.6,5948],[50.6,6040],[50.6,6127],[50.6,6206],[50.6,6289],[50.6,6373],[50.6,6457],[50.6,6547],[50.6,6626],[50.6,6707],[50.6,6788],[50.6,6871],[50.6,6956],[50.6,7038],[50.6,7124],[50.6,7204],[50.6,7289],[50.6,7371],[50.6,7456],[50.6,7538],[50.6,7628],[50.6,7707],[50.6,7788],[50.6,7871],[50.6,7956],[50.6,8038],[50.6,8122],[50.6,8207],[54.4,8320],[63.9,8439],[74.6,8562],[77.2,8663],[77.2,8758],[77.2,8839],[77.2,8921],[77.4,9011],[84.1,9129],[88.4,9245],[90.4,9359],[92.6,9482],[95.7,9596],[96,9693],[96.3,9796],[96.6,9884],[96.6,9979],[96.6,10067],[96.6,10156],[96.6,10240],[96.6,10322],[96.6,10406],[96.6,10490],[96.6,10573],[96.6,10657],[96.6,10740],[96.6,10822],[96.6,10905],[96.6,10989],[96.6,11072],[96.6,11156],[97.1,11250],[98.5,11361],[98.9,11460],[98.9,11547],[98.9,11629],[98.9,11712],[98.9,11796],[98.9,11878],[99,11969],[99,12058],[99,12140],[99,12224],[99,12307],[99,12390],[99,12472],[99,12558],[99,12640],[99,12722],[99,12806],[99,12888],[99,12976],[99,13056],[99,13138],[99,13221],[99,13303],[99,13388],[99,13472],[99,13556],[99,13638],[99,13721],[99,13805],[99,13888],[99,13972],[99,14057],[99,14141],[99,14221],[99,14307],[99,14388],[99,14471],[99,14556],[99,14639],[99,14721],[99,14807],[99,14888],[99,14969],[99,15056],[99,15138],[99,15220],[99,15307],[99,15396],[99,15476],[99,15557],[99,15637],[99,15721],[99,15807],[99,15890],[99,15971],[99,16057],[99,16139],[99,16221],[99,16307],[99,16388],[99,16476],[99,16562],[99,16643],[99,16723],[99,16806],[99,16888],[99,16971],[99,17054],[99,17138],[99,17220],[99,17304],[99,17388],[99,17470],[99,17554],[99,17639],[99,17724],[99,17807],[99,17888],[99,17971],[99,18053],[99,18139],[99,18222],[99,18307],[99,18388],[99,18471],[99,18554],[99,18638],[99,18721],[99,18804],[99,18894],[99,18974],[99,19053],[99,19139],[99,19220],[99,19303],[99,19388],[99,19472],[99,19554],[99,19639],[99,19720],[99,19807],[99,19886],[99,19976],[99,20057],[99,20142],[99,20228],[99,20312],[99,20396],[99,20484],[99,20564],[99,20649],[99,20733],[99,20821],[99,20907],[99,20989],[99,21071],[99,21154],[99,21237],[99,21322],[99,21404],[99,21489],[99,21571],[99,21653],[99,21740],[99,21819],[99,21906],[99,21988],[99,22070],[99,22159],[99,22238],[99,22320],[99,22404],[99,22491],[99,22571],[99,22657],[99,22738],[99,22820],[99,22907],[99,22989],[99,23070],[99,23156],[99,23239],[99,23322],[99,23408],[99,23487],[99,23571],[99,23657],[99,23737],[99,23820],[99,23904],[99,23988],[99,24069],[99,24157],[99,24240],[99,24321],[99,24410],[99,24489],[99,24572],[99,24654],[99,24737],[99,24820],[99,24907],[99,24988],[99,25070],[99,25158],[99,25238],[99,25320],[99,25407],[99,25488],[99,25571],[99,25654],[99,25739],[99,25826],[99,25907],[99,25990],[99,26070],[99,26172],[99,26268],[99,26356],[99,26441],[99,26520],[99,26604],[99,26688],[99,26769],[99,26856],[99,26938],[99,27025],[99,27107],[99,27188],[99,27269],[99,27353],[99,27439],[99,27524],[99,27604],[99,27688],[99,27773],[99,27854],[99,27937],[99,28020],[99,28107],[99,28192],[99,28270],[99,28355],[99,28439],[99,28521],[99,28603],[99,28689],[99,28770],[99,28853],[99,28937],[99,29021],[99,29103],[99,29189],[99,29273],[99,29355],[99,29438],[99,29519],[99,29603],[99,29687],[99,29770],[99,29854],[99,29939],[99,30020],[99,30103],[99,30187],[99,30270],[99,30355],[99,30436],[99,30522],[99,30603],[99,30688],[99,30770],[99,30854],[99,30938],[99,31021],[99,31104],[99,31188],[99,31270],[99,31354],[99,31437],[99,31520],[99,31603],[99,31694],[99,31771],[99,31853],[99,31938],[99,32020],[99,32104],[99,32187],[99,32271],[99,32353],[99,32437],[99,32520],[99,32603],[99,32690],[99,32770],[99,32853],[99,32941],[99,33020],[99,33104],[99,33187],[99,33271],[99,33354],[99,33437],[99,33519],[99,33603],[99,33689],[99,33770],[99,33852],[99,33938],[99,34021],[99,34109],[99,34188],[99,34270],[99,34354],[99,34437],[99,34521],[99,34603],[99,34689],[99,34770],[99,34857],[99,34939],[99,35022],[99,35107],[99,35187],[99,35270],[99,35353],[99,35438],[99,35520],[99,35603],[99,35688],[99,35770],[99,35854],[99,35937],[99,36020],[99,36104],[99,36187],[99,36270],[99,36353],[99,36437],[99,36520],[99,36603],[99,36687],[99,36770],[99,36854],[99,36938],[99,37021],[99,37103],[99,37188],[99,37270],[99,37353],[99,37437],[99,37518],[99,37605],[99,37687],[99,37769],[99,37851],[99,37940],[99,38019],[99,38104],[99,38187],[99,38271],[99,38355],[99,38437],[99,38520],[99,38604],[99,38687],[99,38770],[99,38854],[99,38938],[99,39021],[99,39106],[99,39191],[99,39269],[99,39354],[99,39438],[99,39518],[99,39603],[99,39688],[99,39771],[99,39851],[99,39937],[99,40020],[99,40103],[99,40188],[99,40269],[99,40356],[99,40437],[99,40520],[99,40604],[99,40689],[99,40770],[99,40852],[99,40938],[99,41021],[99,41103],[99,41188],[99,41269],[99,41354],[99,41437],[99,41521],[99,41608],[99,41690],[99,41770],[99,41854],[99,41935],[99,42019],[99,42105],[99,42188],[99,42269],[99,42354],[99,42437],[99,42520],[99,42604],[99,42688],[99,42772],[99,42858],[99,42938],[99,43020],[99,43104],[99,43188],[99,43271],[99,43355],[99,43438],[99,43520],[99,43603],[99,43684],[99,43771],[99,43852],[99,43937],[99,44021],[99,44101],[99,44188],[99,44269],[99,44353],[99,44437],[99,44519],[99,44603],[99,44692],[99,44779],[99,44860],[99,44942],[99,45024],[99,45107],[99,45192],[99,45271],[99,45352],[99,45434],[99,45519],[99,45602],[99,45688],[99,45770],[99,45854],[99,45937],[99,46022],[99,46103],[99,46187],[99,46273],[99,46354],[99,46438],[99,46519],[99,46605],[99,46688],[99,46770],[99,46853],[99,46937],[99,47019],[99,47103],[99,47188],[99,47269],[99,47353],[99,47437],[99,47521],[99,47603],[99,47688],[99,47771],[99,47852],[99,47937],[99,48021],[99,48104],[99,48188],[99,48274],[99,48352],[99,48438],[99,48519],[99,48607],[99,48688],[99,48770],[99,48853],[99,48937],[99,49019],[99,49102],[99,49189],[99,49269],[99,49355],[99,49438],[99,49519],[99,49603],[99,49688],[99,49770],[99,49854],[99,49937],[99,50020],[99,50103],[99,50188],[99,50269],[99,50353],[99,50435],[99,50520],[99,50603],[99,50687],[99,50769],[99,50857],[99,50938],[99,51021],[99,51105],[99,51184],[99,51269],[99,51352],[99,51435],[99,51520],[99,51603],[99,51688],[99,51769],[99,51856],[99,51938],[99,52020],[99,52105],[99,52188],[99,52269],[99,52354],[99,52437],[99,52520],[99,52603],[99,52688],[99,52770],[99,52852],[99,52938],[99,53019],[99,53103],[99,53188],[99,53270],[99,53355],[99,53438],[99,53520],[99,53604],[99,53688],[99,53769],[99,53853],[99,53938],[99,54020],[99,54102],[99,54188],[99,54269],[99,54353],[99,54437],[99,54520],[99,54603],[99,54688],[99,54769],[99,54855],[99,54935],[99,55019],[99,55102],[99,55188],[99,55271],[99,55352],[99,55438],[99,55521],[99,55603],[99,55688],[99,55770],[99,55858]]",779.9431,781.6628,99.00467106,1.0848,"[{""rating"":99.00467106405513,""responseTime"":1.0847999999523381}]",space,1.1741,,781.6631,Partially,50,781.6772,,,[],,0,10,10,10,1,audio/Narrative8Situation1.wav,audio/Narrative7Situation1.wav,audio/Narrative6Situation1.wav,audio/Narrative5Situation1.wav,5,2,2,5,,,,,,,,,,,,,,,,,,,,,,,,,,,,,,,,,,,,,,,
,,,,,67e4c4b8c49f4b9a84e4c155,2025-07-07_16h52.02.012,group3.4_multiperson,2023.2.2,Win32,58.47953216,686c2ebf0248f13bef9af11f,686c31954a9a635a73cd838f,,,,,,,,,,,,,,,,,,,,,,,,,,,,,781.6781,1,audio/Narrative7Situation2.wav,784.691,,784.6912,792.1833,"[[999,1],[999,133],[999,214],[999,297],[999,379],[999,464],[999,547],[999,631],[999,714],[999,800],[999,883],[999,971],[999,1048],[999,1131],[999,1214],[999,1299],[999,1380],[999,1465],[999,1549],[999,1639],[999,1752],[999,1867],[999,1970],[14,2076],[10.3,2204],[10.3,2293],[10.3,2381],[10.3,2466],[10,2560],[9.9,2652],[6.8,2769],[6.2,2870],[6.2,2962],[6.2,3049],[6.2,3133],[6.2,3221],[6.2,3304],[6.2,3390],[6.2,3473],[6.2,3559],[6.2,3650],[6.2,3731],[6.2,3816],[6.2,3900],[6.2,3982],[6.2,4066],[6.2,4150],[6.4,4245],[8,4356],[8.7,4454],[9.2,4563],[10.8,4667],[13.7,4790],[15.3,4905],[15.4,4992],[15.4,5084],[15.4,5165],[15.4,5251],[15.4,5339],[15.4,5426],[15.4,5513],[15.4,5601],[15.4,5681],[15.4,5764],[15.4,5846],[15.4,5931],[15.4,6015],[15.4,6100],[15.4,6184],[15.7,6279],[21.7,6397],[46.5,6530],[49.7,6633],[49.7,6714],[49.7,6804],[49.7,6886],[50.6,6980],[65.7,7096],[73.4,7218],[74.5,7323],[74.5,7403],[74.5,7491]]",792.1836,795.1762,98.56556103,2.3578,"[{""rating"":98.56556103144982,""responseTime"":2.3578000000119346}]",space,2.4547,,795.1763,Not at all,0,795.1907,,,[],,0,11,11,11,1,audio/Narrative8Situation2.wav,audio/Narrative7Situation2.wav,audio/Narrative6Situation2.wav,audio/Narrative5Situation2.wav,3,3,3,3,,,,,,,,,,,,,,,,,,,,,,,,,,,,,,,,,,,,,,,
,,,,,67e4c4b8c49f4b9a84e4c155,2025-07-07_16h52.02.012,group3.4_multiperson,2023.2.2,Win32,58.47953216,686c2ebf0248f13bef9af11f,686c31954a9a635a73cd838f,,,,,,,,,,,,,,,,,,,,,,,,,,,,,795.1913,1,audio/Narrative7Situation3.wav,803.1919,,803.1919,812.4581,"[[999,1],[999,120],[999,200],[999,280],[999,366],[999,454],[999,533],[999,614],[999,700],[999,784],[999,884],[30.4,986],[20.6,1119],[16.9,1248],[16.2,1353],[15.6,1456],[15.2,1559],[15.2,1649],[16.5,1750],[25.1,1851],[33.3,1956],[36.8,2063],[37,2146],[37,2234],[37,2321],[37,2415],[37,2503],[37,2591],[37.1,2680],[39.2,2782],[41.5,2892],[43,3005],[48.1,3122],[51.5,3234],[53.1,3344],[53.4,3434],[53.4,3520],[53.4,3605],[53.4,3696],[53.4,3782],[53.4,3864],[53.4,3949],[53.4,4039],[53.4,4120],[53.4,4206],[53.4,4292],[53.4,4374],[53.4,4457],[53.4,4542],[53.4,4623],[53.4,4705],[53.4,4790],[53.4,4869],[53.4,4950],[53.4,5034],[53.4,5115],[53.4,5201],[53.4,5290],[53.4,5373],[53.4,5463],[53.4,5539],[53.4,5617],[53.4,5699],[53.4,5783],[53.4,5864],[53.4,5950],[53.4,6033],[53.4,6115],[53.4,6200],[53.4,6284],[53.4,6374],[53.4,6463],[53.4,6546],[53.4,6625],[53.4,6706],[53.4,6789],[53.4,6866],[53.4,6951],[53.4,7032],[53.4,7115],[53.4,7197],[53.4,7282],[53.4,7365],[53.4,7454],[53.4,7535],[53.4,7615],[56.3,7731],[64.6,7851],[68.6,7963],[73.6,8079],[80.9,8184],[86.9,8299],[86.9,8380],[86.9,8464],[86.9,8552],[86.9,8635],[86.9,8716],[93.8,8836],[96.3,8952],[98.2,9062],[98.3,9152],[98.5,9242]]",812.4584,814.0062,98.56556103,0.9045,"[{""rating"":98.56556103144982,""responseTime"":0.9044999999999845}]",space,0.992,,814.0063,Definitely yes,100,814.0255,,,[],,0,12,12,12,1,audio/Narrative8Situation3.wav,audio/Narrative7Situation3.wav,audio/Narrative6Situation3.wav,audio/Narrative5Situation3.wav,4,8,5,3,,,,,,,,,,,,,,,,,,,,,,,,,,,,,,,,,,,,,,,
,,,,,67e4c4b8c49f4b9a84e4c155,2025-07-07_16h52.02.012,group3.4_multiperson,2023.2.2,Win32,58.47953216,686c2ebf0248f13bef9af11f,686c31954a9a635a73cd838f,,,,,,,,,,,,,,,,,,,,,,,,,,,,,814.0263,1,audio/Narrative7Situation4.wav,817.0384,,817.0396,828.7726,"[[999,1],[999,107],[999,186],[999,275],[999,356],[999,435],[999,518],[999,607],[999,692],[999,804],[999,899],[16.3,1013],[13.1,1133],[10.5,1251],[10.5,1348],[10.5,1436],[10.5,1516],[10.5,1624],[10.5,1709],[10.5,1798],[10.5,1884],[10.5,1966],[10.5,2048],[10.5,2133],[10.5,2217],[10.5,2297],[10.5,2383],[10.5,2473],[11.1,2569],[11.9,2675],[12.4,2774],[12.8,2871],[13,2956],[13.3,3051],[13.3,3137],[13.5,3235],[13.8,3336],[14.6,3436],[14.6,3524],[14.6,3609],[14.6,3699],[14.6,3788],[14.6,3873],[14.6,3954],[14.6,4037],[14.6,4124],[14.6,4207],[14.6,4286],[14.6,4368],[14.6,4449],[14.6,4534],[14.6,4624],[14.6,4706],[14.6,4784],[14.6,4866],[14.6,4953],[14.6,5034],[14.6,5118],[14.6,5200],[14.6,5285],[14.6,5367],[14.6,5450],[14.6,5536],[14.6,5617],[14.6,5700],[14.6,5784],[14.6,5867],[14.6,5950],[14.6,6033],[14.6,6118],[14.6,6202],[14.6,6284],[14.6,6370],[14.6,6452],[14.6,6535],[14.6,6623],[14.9,6724],[23.5,6839],[31.8,6969],[34.5,7073],[34.6,7168],[34.6,7258],[34.6,7349],[34.6,7433],[34.6,7523],[34.6,7603],[34.6,7687],[34.6,7771],[34.6,7852],[34.6,7936],[34.6,8021],[34.6,8102],[34.6,8183],[34.6,8267],[34.6,8348],[34.6,8433],[34.6,8514],[34.6,8597],[34.6,8684],[34.6,8764],[34.6,8848],[34.6,8932],[34.6,9021],[34.6,9102],[34.6,9183],[34.6,9264],[34.6,9347],[34.6,9433],[34.6,9514],[34.6,9597],[34.6,9679],[34.6,9764],[34.6,9846],[34.6,9932],[34.6,10014],[34.6,10097],[34.6,10179],[34.6,10265],[34.6,10347],[34.6,10433],[34.6,10515],[34.6,10597],[34.6,10682],[34.6,10764],[34.6,10850],[34.6,10929],[34.6,11012],[34.6,11097],[34.6,11182],[34.6,11265],[34.6,11347],[34.6,11437],[34.6,11519],[34.6,11596],[34.6,11682]]",828.7734,837.6752,0.49765375,2.7057,"[{""rating"":0.4976537496061084,""responseTime"":2.705699999988042}]",space,8.3636,,837.6755,Not at all,0,837.6892,,,[],,0,13,13,13,1,audio/Narrative8Situation4.wav,audio/Narrative7Situation4.wav,audio/Narrative6Situation4.wav,audio/Narrative5Situation4.wav,3,3,2,1,,,,,,,,,,,,,,,,,,,,,,,,,,,,,,,,,,,,,,,
,,,,,67e4c4b8c49f4b9a84e4c155,2025-07-07_16h52.02.012,group3.4_multiperson,2023.2.2,Win32,58.47953216,686c2ebf0248f13bef9af11f,686c31954a9a635a73cd838f,,,,,,,,,,,,,,,,,,,,,,,,,,,,,837.6898,1,audio/Narrative7Situation5.wav,842.6923,,842.6924,851.1872,"[[999,0],[999,128],[999,212],[999,295],[999,380],[999,463],[999,544],[999,626],[999,714],[999,799],[999,896],[999,984],[999,1088],[999,1186],[999,1315],[7.7,1412],[7.1,1513],[2.9,1992],[4.3,2099],[7.4,2222],[12.1,2347],[17.9,2467],[18.5,2573],[18.5,2655],[18.5,2746],[18.5,2830],[18.5,2912],[18.8,2997],[23.6,3122],[28.2,3242],[31.7,3361],[34,3482],[37.7,3604],[38.7,3719],[38.7,3802],[38.7,3883],[38.7,3969],[38.7,4053],[38.7,4143],[38.7,4230],[38.7,4312],[38.7,4395],[38.7,4481],[38.7,4561],[38.7,4643],[38.7,4726],[38.7,4812],[38.7,4894],[38.4,4998],[35.4,5106],[34.9,5204],[34.9,5296],[42.4,5418],[44.3,5522],[44.4,5613],[44.4,5699],[44.4,5785],[44.4,5870],[44.4,5950],[47.5,6056],[51.2,6166],[54,6289],[54.4,6382],[54.7,6480],[55,6565],[55.4,6665],[56.4,6766],[57.3,6885],[58.1,6995],[58.1,7080],[58.1,7172],[58.1,7251],[58.1,7344],[58.1,7424],[58.1,7510],[58.1,7595],[60.4,7702],[65.4,7812],[74.3,7923],[80.7,8055],[81.8,8150],[81.8,8235],[81.8,8317],[81.8,8401],[83.7,8494]]",851.1876,854.3727,98.85830105,2.4978,"[{""rating"":98.8583010531867,""responseTime"":2.497800000011921}]",space,2.6455,,854.3729,Definitely yes,100,854.3854,,,[],,0,14,14,14,1,audio/Narrative8Situation5.wav,audio/Narrative7Situation5.wav,audio/Narrative6Situation5.wav,audio/Narrative5Situation5.wav,2,5,2,5,,,,,,,,,,,,,,,,,,,,,,,,,,,,,,,,,,,,,,,
,,,,,67e4c4b8c49f4b9a84e4c155,2025-07-07_16h52.02.012,group3.4_multiperson,2023.2.2,Win32,58.47953216,686c2ebf0248f13bef9af11f,686c31954a9a635a73cd838f,,,,,,,,,,,,,,,,,,,,,,,,,,,,,854.3867,1,audio/Narrative7Situation6.wav,857.3892,,857.3893,867.3882,"[[999,4],[999,116],[999,198],[999,279],[999,369],[999,449],[999,530],[999,614],[999,698],[999,783],[999,865],[999,947],[999,1029],[999,1117],[999,1219],[999,1329],[999,1437],[999,1533],[35.2,1648],[35.2,1750],[35.2,1836],[35.2,1919],[35.2,2005],[35.2,2086],[35.2,2175],[35.2,2265],[49.4,2378],[60.1,2497],[61.9,2607],[62.7,2719],[62.9,2808],[62.9,2897],[62.9,2981],[62.9,3065],[62.9,3147],[62.9,3237],[62.9,3318],[62.9,3400],[62.9,3485],[62.9,3568],[62.9,3646],[62.9,3730],[62.9,3814],[62.9,3895],[62.9,3980],[62.9,4063],[62.9,4146],[62.9,4229],[62.9,4314],[62.9,4396],[62.9,4479],[62.9,4564],[62.9,4646],[62.9,4731],[62.9,4814],[62.9,4897],[62.9,4979],[62.9,5064],[62.9,5145],[62.9,5228],[62.9,5310],[62.9,5396],[62.9,5479],[62.9,5564],[62.9,5645],[62.9,5730],[62.9,5814],[62.9,5895],[62.9,5979],[62.9,6064],[62.9,6147],[62.9,6230],[62.9,6311],[62.9,6396],[62.9,6480],[62.9,6564],[62.9,6646],[62.9,6730],[62.9,6814],[62.9,6897],[62.9,6978],[62.9,7064],[62.9,7146],[62.9,7229],[62.9,7314],[62.9,7396],[62.9,7478],[62.9,7564],[62.9,7647],[62.9,7730],[62.9,7814],[62.9,7896],[62.9,7979],[62.9,8063],[62.9,8146],[62.9,8230],[62.9,8315],[62.9,8398],[62.9,8479],[62.9,8564],[62.9,8645],[62.9,8730],[62.9,8814],[62.9,8897],[62.9,8979],[62.9,9062],[62.9,9146],[62.9,9231],[62.9,9314],[62.9,9395],[62.9,9479],[67.7,9583],[76.5,9696],[81.5,9806],[84.8,9918]]",867.3886,870.3275,99.15104107,1.6844,"[{""rating"":99.15104107492354,""responseTime"":1.6844000000357937}]",space,2.3914,,870.3276,Not at all,0,870.3418,,,[],,0,15,15,15,1,audio/Narrative8Situation6.wav,audio/Narrative7Situation6.wav,audio/Narrative6Situation6.wav,audio/Narrative5Situation6.wav,2,3,2,3,,,,,,,,,,,,,,,,,,,,,,,,,,,,,,,,,,,,,,,
,,,,,67e4c4b8c49f4b9a84e4c155,2025-07-07_16h52.02.012,group3.4_multiperson,2023.2.2,Win32,58.47953216,686c2ebf0248f13bef9af11f,686c31954a9a635a73cd838f,,,,,,,,,,,,,,,,,,,,,,,,,,,,,870.3434,1,audio/Narrative7Situation7.wav,875.3539,,875.354,892.5196,"[[999,1],[999,114],[999,201],[999,281],[999,365],[999,445],[999,531],[999,618],[999,700],[999,785],[999,873],[999,972],[999,1083],[999,1165],[999,1253],[999,1337],[35.4,1433],[31.1,1551],[30.7,1652],[30.7,1732],[30.5,1821],[30.5,1905],[29.4,2029],[29.4,2115],[29.4,2205],[29.4,2290],[29.4,2384],[29.4,2465],[29.4,2549],[29.4,2634],[29.4,2715],[29.8,2808],[38,2920],[40.6,3035],[41.7,3143],[41.9,3235],[41.9,3319],[41.9,3411],[41.9,3497],[41.9,3582],[41.9,3665],[41.9,3750],[41.9,3832],[41.9,3920],[41.9,3999],[41.9,4082],[41.9,4169],[43.9,4273],[46.3,4403],[48.8,4509],[49.7,4619],[50.4,4717],[51,4815],[51,4900],[51,4982],[51,5063],[51,5147],[51,5234],[51,5315],[51,5400],[51,5483],[51,5565],[51,5648],[51,5733],[51,5816],[50.6,5916],[50.6,6000],[50.6,6080],[50.6,6164],[50.6,6250],[50.6,6333],[50.6,6420],[50.6,6500],[50.6,6582],[50.6,6664],[50.6,6764],[50.6,6847],[50.6,6932],[50.6,7015],[50.6,7100],[50.6,7181],[50.6,7265],[50.6,7350],[50.6,7432],[50.6,7513],[50.6,7596],[50.6,7683],[50.6,7762],[50.6,7848],[50.6,7931],[50.6,8014],[50.6,8099],[50.6,8181],[50.6,8263],[50.6,8345],[50.6,8431],[50.6,8513],[50.6,8596],[50.6,8681],[50.6,8764],[50.6,8849],[50.6,8932],[50.6,9014],[50.6,9102],[50.6,9183],[54,9303],[61.6,9415],[67.3,9540],[68,9640],[68,9722],[68,9803],[68,9882],[68,9967],[73.9,10079],[85.9,10207],[88.1,10312],[88.1,10400],[88.1,10482],[88.1,10569],[88.1,10650],[91,10764],[94.8,10883],[96.6,10992],[97.1,11092],[98,11216],[98.9,11313],[99.5,11414],[99.6,11504],[99.8,11590],[99.9,11682],[99.9,11769],[99.9,11851],[99.9,11934],[99.9,12015],[99.9,12099],[99.9,12187],[99.9,12272],[99.9,12367],[99.9,12448],[99.8,12532],[99.8,12616],[99.8,12702],[99.8,12782],[99.8,12866],[99.8,12952],[99.8,13033],[99.8,13115],[99.8,13200],[99.8,13282],[99.8,13363],[99.8,13446],[99.8,13530],[99.8,13613],[99.8,13696],[99.8,13780],[99.8,13862],[99.8,13946],[99.8,14031],[99.8,14114],[99.8,14196],[99.8,14280],[99.8,14362],[99.8,14453],[99.8,14533],[99.8,14615],[99.8,14696],[99.8,14780],[99.8,14863],[99.8,14946],[99.8,15032],[99.8,15114],[99.8,15195],[99.8,15281],[99.8,15367],[99.8,15450],[99.8,15531],[99.8,15617],[99.8,15696],[99.8,15780],[99.8,15863],[99.8,15950],[99.8,16031],[99.8,16114],[99.8,16195],[99.8,16281],[99.8,16363],[99.8,16446],[99.8,16530],[99.8,16613],[99.8,16696],[99.8,16780],[99.8,16868],[99.8,16948],[99.8,17032],[99.8,17112]]",892.5203,895.1076,99.29741109,1.8187,"[{""rating"":99.29741108579195,""responseTime"":1.8187000000477838}]",space,2.0483,,895.1078,Definitely yes,100,895.1222,,,[],,0,16,16,16,1,audio/Narrative8Situation7.wav,audio/Narrative7Situation7.wav,audio/Narrative6Situation7.wav,audio/Narrative5Situation7.wav,3,5,5,4,,,,,,,,,,,,,,,,,,,,,,,,,,,,,,,,,,,,,,,
,,,,,67e4c4b8c49f4b9a84e4c155,2025-07-07_16h52.02.012,group3.4_multiperson,2023.2.2,Win32,58.47953216,686c2ebf0248f13bef9af11f,686c31954a9a635a73cd838f,,,,,,,,,,,,,,,,,,,,,,,,,,,,,895.1232,1,audio/Narrative7Situation8.wav,897.1354,,897.1356,907.1814,"[[97.6,1044],[85,1161],[66.8,1281],[57.3,1405],[49.7,1519],[49.7,1605],[49.7,1688],[49.7,1783],[49.7,1865],[49,1969],[42.7,2083],[30.4,2192],[23.2,2317],[17.1,2437],[15.9,2539],[13.5,2655],[11.1,2769],[11.1,2852],[11.1,2932],[11.1,3014],[11.1,3100],[11.1,3182],[11.1,3270],[11.1,3349],[10.8,3447],[8.9,3555],[8,3664],[7.5,3772],[7.5,3854],[7.5,3937],[7.5,4021],[7.5,4101],[7.5,4192],[7.5,4275],[7.8,4368],[8.1,4458],[20.9,4557],[24.2,4653],[31.3,4756],[36.8,4858],[36.8,4948],[36.8,5032],[36.8,5116],[36.8,5199],[43.6,5306],[50.4,5424],[51.2,5533],[51.3,5622],[51.6,5715],[51.8,5804],[51.8,5900],[51.8,5984],[51.8,6065],[51.8,6149],[51.8,6233],[51.8,6316],[51.8,6401],[51.8,6483],[51,6590],[51,6674],[50.9,6767],[50.9,6849],[50.9,6939],[50.9,7024],[50.9,7112],[50.7,7200],[50.6,7283],[50.6,7366],[50.6,7450],[50.6,7532],[50.6,7618],[50.6,7703],[50.6,7789],[50.6,7872],[50.6,7951],[50.6,8038],[50.6,8125],[50.6,8204],[50.6,8281],[50.6,8364],[50.6,8449],[50.6,8530],[50.6,8615],[50.6,8696],[50.6,8780],[50.6,8865],[50.6,8949],[50.6,9031],[50.6,9115],[50.6,9205],[50.6,9288],[51,9384],[51,9471],[51.2,9562],[65.4,9659],[65.5,9752],[65.7,9842],[66.1,9947],[66.4,10044]]",907.182,909.9576,99.15104107,2.355,"[{""rating"":99.15104107492354,""responseTime"":2.355000000000018}]",space,2.2377,,909.9578,Partially,50,909.9734,,,[],,0,17,17,17,1,audio/Narrative8Situation8.wav,audio/Narrative7Situation8.wav,audio/Narrative6Situation8.wav,audio/Narrative5Situation8.wav,3,2,5,3,,,,,,,,,,,,,,,,,,,,,,,,,,,,,,,,,,,,,,,
,,,,,67e4c4b8c49f4b9a84e4c155,2025-07-07_16h52.02.012,group3.4_multiperson,2023.2.2,Win32,58.47953216,686c2ebf0248f13bef9af11f,686c31954a9a635a73cd838f,,,,,,,,,,,,,,,,,,,,,,,,,,,,,909.9741,1,audio/Narrative7Situation9.wav,911.9856,,911.9857,920.6282,"[[98,1301],[94.1,1423],[88.1,1541],[81.8,1658],[79.4,1773],[77.1,1891],[72.3,2002],[69.3,2113],[69,2201],[69,2291],[69,2373],[69,2464],[69,2549],[69,2633],[69,2715],[69,2799],[69,2880],[69,2969],[69,3045],[69,3132],[69,3219],[67.9,3324],[67.1,3425],[64.9,3550],[59.4,3664],[49.6,3777],[46.9,3897],[46.9,3983],[46.9,4069],[46.9,4151],[46.9,4233],[47.4,4326],[48.8,4447],[49,4535],[49,4622],[49.1,4703],[49.4,4801],[49.4,4882],[49.4,4965],[49.6,5058],[49.7,5152],[50.1,5253],[50.1,5340],[50.1,5425],[50.1,5514],[50.1,5600],[50.1,5682],[50.1,5769],[50.1,5851],[50.1,5933],[50.1,6019],[50.1,6099],[50.1,6183],[50.1,6263],[50.1,6348],[50.1,6430],[50.1,6514],[50.1,6600],[50.1,6680],[50.1,6764],[50.1,6847],[50.1,6931],[50.1,7014],[50.1,7099],[50.1,7182],[50.1,7265],[50.1,7352],[50.1,7433],[50.1,7515],[50.1,7599],[50.1,7681],[50.1,7765],[50.1,7849],[50.1,7931],[50.1,8015],[50.1,8097],[50.1,8182],[50.1,8263],[50.1,8352],[50.1,8432],[50.1,8515],[52.6,8614]]",920.6286,923.3885,99.15104107,2.0411,"[{""rating"":99.15104107492354,""responseTime"":2.041100000023789}]",space,2.2082,,923.3886,Not at all,0,923.4028,,,[],,0,18,18,18,1,audio/Narrative8Situation9.wav,audio/Narrative7Situation9.wav,audio/Narrative6Situation9.wav,audio/Narrative5Situation9.wav,3,2,4,3,,,,,,,,,,,,,,,,,,,,,,,,,,,,,,,,,,,,,,,
,,,,,67e4c4b8c49f4b9a84e4c155,2025-07-07_16h52.02.012,group3.4_multiperson,2023.2.2,Win32,58.47953216,686c2ebf0248f13bef9af11f,686c31954a9a635a73cd838f,,,,,,,,,,,,,,,,,,,,,,,,,,,928.4155,930.9996,931.064,2,audio/Narrative13Situation2.wav,931.0646,,931.0648,960.8194,"[[41.2,1484],[34.6,1603],[23.5,1730],[18.2,1845],[14.4,1963],[14.4,2053],[14.4,2135],[14.4,2220],[14.4,2303],[14.4,2387],[14.4,2470],[14.4,2552],[14.4,2636],[14.4,2722],[14.4,2804],[14.4,2883],[14.4,2970],[14.4,3053],[14.4,3134],[14.4,3217],[14.4,3301],[14.4,3383],[14.4,3466],[14.4,3550],[14.4,3636],[15.6,3732],[22.8,3852],[32.1,3974],[33.2,4074],[33.2,4160],[33.2,4242],[33.2,4329],[33.2,4445],[33.2,4539],[33.2,4622],[33.2,4709],[33.2,4796],[33.2,4880],[33.2,4968],[33.2,5052],[33.2,5134],[33.2,5220],[33.2,5301],[33.2,5384],[33.2,5467],[33.2,5552],[33.2,5633],[33.2,5717],[33.2,5802],[33.2,5882],[33.2,5966],[33.2,6051],[33.2,6136],[33.2,6217],[33.2,6301],[33.2,6384],[33.2,6466],[33.2,6551],[33.2,6635],[33.2,6716],[33.2,6801],[33.2,6886],[33.2,6968],[33.2,7051],[33.2,7134],[33.2,7225],[33.2,7302],[33.2,7383],[33.2,7467],[33.2,7551],[33.2,7636],[33.2,7717],[33.2,7802],[33.2,7883],[33.2,7967],[33.2,8051],[33.2,8134],[33.2,8220],[33.2,8301],[33.2,8383],[33.2,8471],[35.4,8566],[89.1,8892],[89.1,8979],[89.1,9065],[89.1,9153],[89.1,9236],[91.3,9339],[93.8,9460],[95.2,9584],[95.8,9689],[96.4,9788],[98.5,9906],[98.6,9993],[98.6,10091],[98.6,10175],[98.6,10255],[98.6,10345],[98.6,10434],[98.6,10528],[98.6,10612],[98.6,10702],[98.6,10783],[98.6,10866],[98.6,10950],[98.6,11034],[98.6,11117],[98.6,11201],[98.6,11283],[98.6,11367],[98.6,11448],[98.6,11533],[98.6,11617],[98.6,11700],[98.6,11783],[98.6,11866],[98.6,11950],[98.6,12033],[98.6,12116],[98.6,12200],[98.6,12283],[98.6,12366],[98.6,12451],[98.6,12533],[98.6,12617],[98.6,12701],[98.6,12783],[98.6,12866],[98.6,12950],[98.6,13033],[98.6,13121],[98.6,13201],[98.6,13283],[98.6,13366],[98.6,13451],[98.6,13533],[98.6,13617],[98.6,13701],[98.6,13787],[98.6,13872],[98.5,13962],[98,14067],[97.9,14155],[97.9,14242],[97.9,14324],[97.9,14406],[97.9,14493],[97.9,14585],[97.9,14667],[97.9,14753],[97.9,14837],[97.9,14920],[97.9,15001],[97.9,15084],[97.9,15176],[97.9,15262],[97.9,15352],[97.9,15438],[97.9,15518],[97.9,15602],[97.9,15684],[97.9,15767],[97.9,15854],[97.9,15934],[97.9,16018],[97.9,16101],[97.9,16183],[97.9,16271],[97.9,16351],[97.9,16433],[97.9,16517],[97.9,16601],[97.9,16683],[97.9,16767],[97.9,16851],[97.9,16933],[97.9,17017],[97.9,17100],[97.9,17183],[97.9,17266],[97.9,17350],[97.9,17432],[97.9,17517],[97.9,17598],[97.9,17682],[97.9,17767],[97.9,17852],[97.9,17933],[97.9,18017],[97.9,18101],[97.9,18183],[97.9,18266],[97.9,18347],[97.9,18432],[97.9,18516],[97.9,18602],[97.9,18685],[97.9,18766],[97.9,18850],[97.9,18933],[97.9,19017],[97.9,19101],[97.9,19183],[97.9,19268],[97.9,19350],[97.9,19435],[97.9,19516],[97.9,19601],[97.9,19683],[97.9,19775],[97.9,19852],[97.9,19935],[97.9,20017],[97.9,20101],[97.9,20184],[97.9,20267],[97.9,20351],[97.9,20434],[97.9,20518],[97.9,20605],[97.9,20687],[97.9,20776],[97.9,20855],[97.9,20941],[97.9,21023],[97.9,21101],[97.9,21185],[97.9,21268],[97.9,21350],[97.9,21432],[97.9,21517],[97.9,21603],[97.9,21684],[97.9,21772],[97.9,21851],[97.9,21935],[97.9,22016],[97.9,22101],[97.9,22183],[97.9,22266],[97.9,22351],[97.9,22432],[97.9,22517],[97.9,22601],[97.9,22684],[97.9,22766],[97.9,22851],[97.9,22934],[97.9,23016],[97.9,23101],[97.9,23182],[97.9,23267],[97.9,23351],[97.9,23433],[97.9,23518],[97.9,23601],[97.9,23682],[97.9,23768],[97.9,23851],[97.9,23933],[97.9,24016],[97.9,24102],[97.9,24183],[97.9,24266],[97.9,24350],[97.9,24435],[97.9,24515],[97.9,24601],[97.9,24683],[97.9,24765],[97.9,24851],[97.9,24932],[97.9,25021],[97.9,25101],[97.9,25186],[97.9,25269],[97.9,25350],[97.9,25432],[97.9,25516],[97.9,25601],[97.9,25683],[97.9,25766],[97.9,25851],[97.9,25932],[97.9,26019],[97.9,26102],[97.9,26182],[97.9,26265],[97.9,26351],[97.9,26433],[97.9,26517],[97.9,26600],[97.9,26684],[97.9,26766],[97.9,26851],[97.9,26933],[97.9,27015],[97.9,27102],[97.9,27182],[97.9,27266],[97.9,27347],[97.9,27433],[97.9,27515],[97.9,27602],[97.9,27682],[97.9,27774],[97.9,27854],[97.9,27940],[97.9,28025],[97.9,28107],[97.9,28192],[97.9,28276],[97.9,28359],[97.9,28441],[97.9,28522],[97.9,28601],[97.9,28684],[97.9,28766],[97.9,28851],[97.9,28933],[97.9,29017],[97.9,29099],[97.9,29182],[97.9,29270],[97.9,29348],[97.9,29433],[97.9,29515],[97.9,29599],[97.9,29686]]",960.8198,960.8353,,,[],,,,960.8356,Partially,50,960.8474,,,[],,0,0,0,0,1,audio/Narrative13Situation2.wav,audio/Narrative13Situation2.wav,audio/Narrative13Situation2.wav,audio/Narrative13Situation2.wav,2,2,2,2,,,,,923.4557,928.4145,space,4.429,,,,,,,,,,,,,,,,,,,,,,,,,,,,,,,
,,,,,67e4c4b8c49f4b9a84e4c155,2025-07-07_16h52.02.012,group3.4_multiperson,2023.2.2,Win32,58.47953216,686c2ebf0248f13bef9af11f,686c31954a9a635a73cd838f,,,,,,,,,,,,,,,,,,,,,,,,,,,,,960.8488,2,audio/Narrative6Situation1.wav,962.8511,,962.8512,989.4499,"[[999,1],[999,121],[999,204],[999,288],[999,380],[999,479],[999,559],[999,648],[999,735],[999,817],[999,906],[999,1001],[999,1136],[999,1235],[45.5,1342],[45.5,1432],[45.5,1525],[45.5,1608],[45.2,1701],[38.4,1824],[31.8,1941],[27.7,2054],[24.8,2184],[24.5,2271],[24.5,2357],[24.5,2446],[24.5,2530],[24.5,2619],[24.5,2704],[27.2,2799],[52.2,2922],[60.1,3047],[61.4,3148],[61.4,3235],[61.4,3315],[61.4,3399],[61.4,3479],[61.4,3565],[61.4,3651],[61.4,3735],[61.4,3820],[61.4,3903],[63,4003],[67,4120],[72.7,4232],[75.9,4340],[75.9,4435],[75.9,4514],[75.9,4597],[75.9,4679],[75.9,4771],[75.9,4857],[75.9,4948],[75.9,5030],[75.9,5112],[75.9,5196],[75.9,5279],[75.9,5365],[75.9,5447],[75.9,5530],[75.9,5618],[75.9,5701],[76.2,5798],[78.7,5905],[81.6,6003],[86.6,6108],[90,6240],[94.9,6361],[99.2,6472],[99.2,6558],[99.2,6650],[99.2,6729],[99.2,6815],[99.2,6897],[99.2,6985],[99.2,7069],[99.2,7152],[99.2,7235],[99.2,7317],[99.2,7397],[99.2,7480],[99.2,7562],[99.2,7647],[99.2,7731],[99.2,7817],[99.2,7896],[99.2,7979],[99.2,8065],[99.2,8148],[99.2,8229],[99.2,8314],[99.2,8396],[99.2,8479],[99.2,8564],[99.2,8647],[99.2,8729],[99.2,8812],[99.2,8895],[99.2,8980],[99.2,9062],[99.2,9147],[99.2,9228],[99.2,9312],[99.2,9397],[99.2,9479],[99.2,9565],[99.2,9647],[99.2,9729],[99.2,9810],[99.2,9897],[99.2,9980],[99.2,10065],[99.2,10147],[99.2,10229],[99.2,10312],[99.2,10395],[99.2,10479],[99.2,10563],[99.2,10646],[99.2,10729],[99.2,10815],[99.2,10896],[99.2,10979],[99.2,11065],[99.2,11147],[99.2,11229],[99.2,11311],[99.2,11396],[99.2,11478],[99.2,11564],[99.2,11647],[99.2,11731],[99.2,11813],[99.2,11897],[99.2,11980],[99.2,12062],[99.2,12146],[99.2,12227],[99.2,12312],[99.2,12395],[99.2,12478],[99.2,12562],[99.2,12645],[99.2,12729],[99.2,12811],[99.2,12896],[99.2,12979],[99.2,13064],[99.2,13148],[99.2,13228],[99.2,13311],[99.2,13396],[99.2,13478],[99.2,13562],[99.2,13646],[99.2,13728],[99.2,13812],[99.2,13896],[99.2,13979],[99.2,14062],[99.2,14148],[99.2,14228],[99.2,14312],[99.2,14395],[99.2,14479],[99.2,14562],[99.2,14646],[99.2,14728],[99.2,14812],[99.2,14895],[99.2,14978],[99.2,15063],[99.2,15146],[99.2,15228],[99.2,15312],[99.2,15396],[99.2,15478],[99.2,15562],[99.2,15646],[99.2,15731],[99.2,15814],[99.2,15897],[99.2,15979],[99.2,16065],[99.2,16145],[99.2,16229],[99.2,16313],[99.2,16397],[99.2,16479],[99.2,16562],[99.2,16646],[99.2,16728],[99.2,16811],[99.2,16896],[99.2,16982],[99.2,17063],[99.2,17145],[99.2,17227],[99.2,17312],[99.2,17396],[99.2,17478],[99.2,17561],[99.2,17645],[99.2,17730],[99.2,17812],[99.2,17897],[99.2,17980],[99.2,18062],[99.2,18146],[99.2,18229],[99.2,18315],[99.2,18396],[99.2,18479],[99.2,18561],[99.2,18646],[99.2,18728],[99.2,18812],[99.2,18896],[99.2,18978],[99.2,19062],[99.2,19146],[99.2,19228],[99.2,19312],[99.2,19396],[99.2,19479],[99.2,19567],[99.2,19646],[99.2,19730],[99.2,19812],[99.2,19895],[99.2,19981],[99.2,20060],[99.2,20146],[99.2,20230],[99.2,20315],[98.9,20402],[98.6,20498],[98.5,20583],[97.9,20691],[97.7,20788],[97.7,20871],[97.7,20965],[97.7,21048],[97.7,21129],[97.7,21216],[97.7,21300],[98,21402],[98.3,21498],[98.5,21582],[98.5,21666],[98.6,21755],[98.6,21850],[98.6,21935],[98.6,22018],[98.6,22101],[98.6,22188],[98.6,22268],[98.6,22351],[98.6,22435],[98.6,22516],[98.6,22596],[98.6,22679],[98.6,22762],[98.6,22846],[98.6,22929],[98.6,23010],[98.6,23095],[98.6,23178],[98.6,23262],[98.6,23346],[98.6,23428],[98.6,23512],[98.6,23598],[98.6,23677],[98.6,23761],[98.6,23845],[98.6,23929],[98.6,24011],[98.6,24095],[98.6,24178],[98.6,24263],[98.6,24346],[98.6,24428],[98.6,24512],[98.6,24597],[98.6,24678],[98.6,24765],[98.6,24846],[98.6,24927],[98.6,25011],[98.6,25097],[98.6,25178],[98.6,25262],[98.6,25346],[98.6,25429],[98.6,25519],[98.6,25598],[98.6,25678],[98.6,25762],[98.6,25846],[98.6,25928],[98.6,26011],[98.6,26096],[98.6,26178],[98.6,26262],[98.6,26345],[98.6,26430],[98.6,26511],[98.6,26598]]",989.4509,991.6327,99.4437811,1.4851,"[{""rating"":99.44378109666036,""responseTime"":1.4851000000239765}]",space,1.6375,,991.6328,Not at all,0,991.648,,,[],,0,1,1,1,1,audio/Narrative7Situation1.wav,audio/Narrative8Situation1.wav,audio/Narrative5Situation1.wav,audio/Narrative6Situation1.wav,2,5,5,2,,,,,,,,,,,,,,,,,,,,,,,,,,,,,,,,,,,,,,,
,,,,,67e4c4b8c49f4b9a84e4c155,2025-07-07_16h52.02.012,group3.4_multiperson,2023.2.2,Win32,58.47953216,686c2ebf0248f13bef9af11f,686c31954a9a635a73cd838f,,,,,,,,,,,,,,,,,,,,,,,,,,,,,991.6489,2,audio/Narrative6Situation2.wav,994.6643,,994.6643,1023.1861,"[[999,2],[999,116],[999,201],[999,283],[999,373],[999,459],[999,548],[999,643],[999,754],[999,873],[43.7,985],[40.8,1104],[39.6,1213],[39,1319],[38.9,1418],[38.9,1504],[38.9,1586],[38.9,1672],[38.9,1757],[39.5,1856],[47.1,1975],[50.6,2089],[51,2186],[51.5,2277],[52.9,2403],[53.5,2493],[54.1,2584],[54.1,2667],[54.1,2749],[54.1,2833],[54.1,2916],[54.1,2999],[54.1,3082],[54.1,3166],[54.1,3247],[54.1,3333],[54.1,3414],[54.1,3498],[54.1,3584],[54.1,3666],[54.1,3747],[54.1,3833],[54.1,3915],[54.1,3998],[54.1,4083],[54.1,4164],[54.1,4251],[54.1,4333],[54.1,4416],[54.1,4504],[54.1,4585],[54.1,4673],[54.1,4755],[54.1,4834],[54.1,4914],[54.1,4997],[54.1,5084],[54.1,5165],[54.1,5248],[54.1,5332],[54.1,5415],[54.1,5498],[54.1,5582],[54.1,5664],[54.1,5748],[54.1,5832],[54.1,5914],[54.1,5997],[54.1,6084],[54.1,6165],[54.1,6248],[54.1,6334],[54.2,6424],[55,6529],[56.1,6644],[57.3,6754],[58.5,6865],[59.1,6956],[59.1,7043],[59.1,7135],[59.1,7216],[59.1,7304],[59.1,7386],[59.1,7473],[59.1,7555],[59.1,7637],[59.1,7718],[59.1,7797],[59.1,7883],[59.1,7963],[59.1,8048],[59.1,8135],[59.1,8216],[59.1,8302],[59.1,8384],[59.1,8465],[59.1,8548],[59.1,8633],[59.1,8715],[59.1,8798],[59.1,8883],[59.1,8964],[59.1,9047],[59.1,9135],[59.1,9215],[59.1,9299],[59.1,9380],[59.1,9465],[59.1,9555],[58.8,9643],[56,9760],[53.5,9880],[52.2,9988],[51.5,10088],[51.2,10193],[50.7,10288],[50.7,10369],[50.6,10457],[50.6,10550],[50.6,10635],[50.6,10720],[50.6,10805],[50.6,10887],[50.6,10970],[50.6,11056],[50.6,11139],[50.6,11217],[50.6,11304],[50.6,11386],[50.6,11465],[50.6,11547],[50.6,11632],[50.6,11715],[50.6,11798],[59.5,11905],[78.8,12019],[83.5,12125],[83.5,12216],[83.5,12299],[83.5,12384],[83.5,12467],[88.5,12568],[97.1,12674],[97.9,12784],[97.9,12868],[97.9,12957],[98,13054],[98,13136],[98,13218],[98,13299],[98,13385],[98,13465],[98,13551],[98,13632],[98,13716],[98,13798],[98,13883],[98,13964],[98,14053],[98,14133],[98,14214],[98,14297],[98,14381],[98,14464],[98,14549],[98,14635],[98,14721],[98,14822],[98,14898],[98,14980],[98,15065],[98,15147],[98,15237],[98,15317],[98,15400],[98,15480],[98,15566],[98,15647],[98,15732],[98,15815],[98,15895],[98,15980],[98,16064],[98,16152],[98,16230],[98,16315],[98,16397],[98,16486],[98,16566],[98,16648],[98,16733],[98,16814],[98,16898],[98,16984],[98,17064],[98,17147],[98,17230],[98,17314],[98,17397],[98,17480],[98,17564],[98,17647],[98,17732],[98,17815],[98,17898],[98,17983],[98,18064],[98,18147],[98,18231],[98,18314],[98,18402],[98,18483],[98,18566],[98,18646],[98,18730],[98,18814],[98,18897],[98,18983],[98,19064],[98,19147],[98,19234],[98,19315],[98,19398],[98,19480],[98,19564],[98,19648],[98,19733],[98,19815],[98,19897],[98,19980],[98,20065],[98,20147],[98,20234],[98,20315],[98,20397],[98,20480],[98,20565],[98,20647],[98,20733],[98,20814],[98,20897],[98,20983],[98,21064],[98,21146],[98,21229],[98,21313],[98,21399],[98,21489],[98,21568],[98,21648],[98,21732],[98,21816],[98,21896],[98,21980],[98,22064],[98,22148],[98,22232],[98,22314],[98,22396],[98,22483],[98,22564],[98,22648],[98,22733],[98,22814],[98,22899],[98,22980],[98,23064],[98,23147],[98,23230],[98,23318],[98,23397],[98,23485],[98,23564],[98,23647],[98,23733],[98,23820],[98,23904],[98,23983],[98,24065],[98,24147],[98,24233],[98,24317],[98,24397],[98,24483],[98,24564],[98,24648],[98,24735],[98,24814],[98,24897],[98,24985],[98,25064],[98,25153],[98,25229],[98,25313],[98,25397],[98,25482],[98,25565],[98,25647],[98,25733],[98,25814],[98,25896],[98,25985],[98,26065],[98,26146],[98,26229],[98,26315],[98,26396],[98,26484],[98,26565],[98,26647],[98,26733],[98,26814],[98,26897],[98,26983],[98,27065],[98,27147],[98,27230],[98,27314],[98,27397],[98,27480],[98,27563],[98,27647],[98,27733],[98,27814],[98,27897],[98,27985],[98,28065],[98,28146],[98,28231],[98,28313],[98,28408],[98,28487]]",1023.1866,1025.4336,97.98008099,0.8311,"[{""rating"":97.98008098797617,""responseTime"":0.8311000000237527}]",space,1.7065,,1025.4339,Not at all,0,1025.4448,,,[],,0,2,2,2,1,audio/Narrative7Situation2.wav,audio/Narrative8Situation2.wav,audio/Narrative5Situation2.wav,audio/Narrative6Situation2.wav,3,3,3,3,,,,,,,,,,,,,,,,,,,,,,,,,,,,,,,,,,,,,,,
,,,,,67e4c4b8c49f4b9a84e4c155,2025-07-07_16h52.02.012,group3.4_multiperson,2023.2.2,Win32,58.47953216,686c2ebf0248f13bef9af11f,686c31954a9a635a73cd838f,,,,,,,,,,,,,,,,,,,,,,,,,,,,,1025.446,2,audio/Narrative6Situation3.wav,1030.4695,,1030.4695,1043.0785,"[[999,0],[999,128],[999,209],[999,294],[999,379],[999,463],[999,542],[999,629],[999,711],[999,795],[999,883],[999,961],[999,1040],[999,1124],[999,1207],[999,1303],[999,1427],[999,1535],[999,1634],[999,1728],[999,1809],[999,1892],[999,1979],[999,2063],[999,2164],[35.2,2283],[32.6,2400],[31.7,2504],[31.6,2594],[31.6,2682],[31.6,2765],[31.6,2844],[31.6,2932],[31.6,3013],[31.6,3099],[31.6,3180],[31.6,3264],[31.6,3342],[31.6,3428],[31.6,3510],[31.6,3592],[31.6,3676],[31.6,3758],[31.6,3843],[31.6,3924],[31.6,4008],[31.6,4092],[31.6,4181],[31.6,4259],[31.6,4341],[31.6,4423],[31.6,4508],[31.6,4591],[31.6,4674],[31.6,4759],[31.6,4839],[31.6,4925],[31.6,5009],[31.6,5091],[31.6,5175],[31.6,5259],[31.6,5341],[31.6,5429],[31.6,5512],[31.6,5592],[31.6,5675],[31.6,5758],[31.6,5841],[31.6,5923],[31.6,6011],[31.6,6091],[31.6,6174],[31.6,6256],[31.6,6341],[31.6,6424],[31.6,6509],[31.6,6592],[31.6,6680],[31.6,6760],[31.6,6840],[31.6,6924],[31.6,7009],[31.6,7091],[31.6,7177],[31.6,7259],[31.6,7342],[31.6,7426],[37.1,7530],[44.1,7647],[48,7764],[48,7846],[48,7930],[48,8015],[49.3,8106],[66.7,8226],[75.8,8345],[75.9,8432],[75.9,8514],[75.9,8596],[76.2,8684],[84.6,8800],[89.4,8920],[90.3,9029],[91.9,9146],[94.2,9260],[96.3,9381],[97.4,9483],[98.5,9588],[98.5,9676],[100,9781],[100,9891],[100,9975],[100,10059],[100,10142],[100,10226],[100,10310],[100,10395],[100,10475],[100,10560],[100,10646],[100,10725],[100,10809],[100,10890],[100,10974],[100,11061],[100,11143],[100,11224],[100,11309],[100,11391],[100,11474],[100,11558],[100,11641],[100,11726],[100,11809],[100,11891],[100,11975],[100,12059],[100,12140],[100,12223],[100,12308],[100,12394],[100,12474],[100,12556]]",1043.0789,1045.4007,98.56556103,1.5727,"[{""rating"":98.56556103144982,""responseTime"":1.5726999999881173}]",space,1.7888,,1045.4007,Definitely yes,100,1045.4144,,,[],,0,3,3,3,1,audio/Narrative7Situation3.wav,audio/Narrative8Situation3.wav,audio/Narrative5Situation3.wav,audio/Narrative6Situation3.wav,8,4,3,5,,,,,,,,,,,,,,,,,,,,,,,,,,,,,,,,,,,,,,,
,,,,,67e4c4b8c49f4b9a84e4c155,2025-07-07_16h52.02.012,group3.4_multiperson,2023.2.2,Win32,58.47953216,686c2ebf0248f13bef9af11f,686c31954a9a635a73cd838f,,,,,,,,,,,,,,,,,,,,,,,,,,,,,1045.4149,2,audio/Narrative6Situation4.wav,1047.429,,1047.4294,1060.0333,"[[67.3,1234],[61.6,1367],[54.4,1469],[50.1,1584],[46,1707],[41.9,1817],[41.8,1905],[41.8,1986],[41.8,2079],[41.8,2166],[41.8,2249],[41.8,2333],[41.8,2415],[41.8,2500],[41.8,2583],[41.8,2663],[41.8,2749],[41.8,2831],[41.8,2914],[41.8,2997],[41.8,3082],[41.8,3163],[41.8,3249],[41.8,3336],[41.8,3414],[41.8,3500],[41.8,3580],[41.8,3662],[41.8,3748],[41.8,3830],[41.8,3912],[41.8,3999],[41.8,4080],[41.8,4165],[41.8,4249],[41.8,4332],[41.8,4415],[41.8,4505],[41.8,4588],[41.8,4681],[41.8,4764],[41.9,4850],[43,4943],[44.9,5050],[46.2,5141],[49.3,5243],[52.2,5353],[56.9,5451],[57.6,5549],[57.8,5642],[57.8,5732],[57.8,5820],[57.8,5906],[57.8,6000],[57.8,6081],[57.8,6169],[57.8,6252],[57.8,6333],[57.8,6414],[57.8,6497],[57.8,6583],[57.8,6667],[57.8,6749],[57.8,6831],[57.8,6914],[57.8,7001],[57.8,7081],[57.8,7163],[57.8,7248],[57.8,7330],[57.8,7413],[57.8,7500],[57.8,7581],[57.8,7663],[57.8,7750],[57.8,7829],[57.8,7913],[57.8,8000],[57.8,8081],[57.8,8164],[57.8,8246],[57.8,8331],[57.8,8413],[57.8,8497],[57.8,8580],[57.8,8664],[57.8,8749],[57.8,8829],[57.8,8912],[57.8,9000],[57.8,9080],[57.8,9166],[57.8,9249],[57.8,9330],[57.8,9414],[57.8,9496],[57.8,9582],[57.8,9666],[55.9,9774],[50.3,9897],[47.4,10010],[43.1,10131],[41.2,10249],[40.8,10349],[40.6,10439],[40.6,10523],[40.6,10609],[40.6,10694],[40.6,10784],[40.6,10866],[40.6,10951],[40.6,11032],[40.6,11116],[40.6,11197],[40.6,11280],[40.6,11363],[40.6,11449],[40.6,11532],[40.6,11613],[40.6,11696],[40.6,11781],[40.6,11862],[40.6,11946],[40.6,12031],[40.6,12114],[40.6,12197],[40.6,12281],[40.6,12363],[40.6,12449],[40.6,12530]]",1060.0335,1063.6495,0.936763782,2.6106,"[{""rating"":0.9367637822113695,""responseTime"":2.610599999964279}]",space,3.0658,,1063.6497,Partially,50,1063.6634,,,[],,0,4,4,4,1,audio/Narrative7Situation4.wav,audio/Narrative8Situation4.wav,audio/Narrative5Situation4.wav,audio/Narrative6Situation4.wav,3,3,1,2,,,,,,,,,,,,,,,,,,,,,,,,,,,,,,,,,,,,,,,
,,,,,67e4c4b8c49f4b9a84e4c155,2025-07-07_16h52.02.012,group3.4_multiperson,2023.2.2,Win32,58.47953216,686c2ebf0248f13bef9af11f,686c31954a9a635a73cd838f,,,,,,,,,,,,,,,,,,,,,,,,,,,,,1063.6639,2,audio/Narrative6Situation5.wav,1065.6831,,1065.6834,1073.6438,"[[999,4],[999,135],[999,220],[999,309],[999,400],[999,478],[999,561],[999,646],[999,742],[30.5,861],[33,978],[33,1067],[33,1150],[33,1229],[33,1315],[33,1401],[33,1485],[33,1565],[33,1646],[33,1726],[33,1811],[36.8,1922],[41.1,2042],[49.3,2480],[49.3,2566],[49.3,2651],[49.3,2742],[49.3,2828],[49.3,2911],[49.3,2995],[49.3,3082],[49.3,3166],[49.3,3249],[49.3,3330],[51,3427],[55,3550],[56.7,3663],[57.5,3777],[57.9,3870],[58.1,3965],[58.1,4049],[58.1,4138],[58.1,4228],[58.1,4311],[58.1,4395],[58.1,4478],[58.1,4560],[58.1,4644],[58.1,4726],[58.1,4810],[58.1,4890],[58.1,4977],[58.1,5058],[58.1,5143],[58.1,5235],[71.4,5348],[90.3,5463],[92.8,5586],[92.8,5678],[92.8,5760],[92.8,5845],[92.8,5928],[93.3,6019],[95.2,6143],[95.7,6236],[95.8,6332],[96.4,6428],[97,6528],[97.1,6610],[97.1,6696],[97.1,6781],[97.1,6860],[97.1,6948],[97.1,7030],[97.1,7112],[97.1,7197],[97.1,7279],[97.1,7362],[97.1,7442],[97.1,7526],[97.1,7609],[97.1,7692],[97.1,7776],[97.1,7859],[97.1,7942]]",1073.6447,1076.9544,99.00467106,2.9412,"[{""rating"":99.00467106405513,""responseTime"":2.94119999998793}]",space,2.7726,,1076.9595,Not at all,0,1085.2503,0.204913728,7.2695,"[{""rating"":0.20491372786925477,""responseTime"":7.26949999999988}]",space,0,5,5,5,1,audio/Narrative7Situation5.wav,audio/Narrative8Situation5.wav,audio/Narrative5Situation5.wav,audio/Narrative6Situation5.wav,5,2,5,2,,,7.7531,,,,,,,,,,,,,,,,,,,,,,,,,,,,,,,,,,,,
,,,,,67e4c4b8c49f4b9a84e4c155,2025-07-07_16h52.02.012,group3.4_multiperson,2023.2.2,Win32,58.47953216,686c2ebf0248f13bef9af11f,686c31954a9a635a73cd838f,,,,,,,,,,,,,,,,,,,,,,,,,,,,,1085.2514,2,audio/Narrative6Situation6.wav,1087.2609,,1087.2614,1098.3606,"[[999,1],[999,102],[999,183],[999,264],[999,349],[999,430],[999,514],[999,598],[999,683],[999,766],[999,851],[999,933],[999,1011],[999,1099],[999,1180],[999,1265],[999,1385],[999,1474],[43.1,1582],[43.1,1669],[43.1,1750],[43.1,1835],[43.1,1920],[43,2013],[40.2,2134],[39.3,2239],[39.3,2322],[39.3,2418],[39.3,2506],[39.3,2591],[39.3,2682],[39.3,2765],[39.3,2848],[40.6,2948],[45.8,3068],[51,3176],[51,3265],[51,3348],[51,3436],[51,3519],[51,3602],[51,3688],[51,3776],[51,3858],[51,3942],[51,4023],[51,4109],[51,4191],[51,4269],[51,4352],[51,4433],[51,4532],[54.2,4624],[82.4,4734],[89.2,4841],[89.2,4931],[89.2,5014],[89.2,5099],[89.5,5185],[92.8,5304],[93.5,5413],[94.4,5524],[94.9,5625],[96.1,5739],[96.7,5838],[97.1,5925],[97.6,6026],[97.7,6117],[97.7,6213],[97.7,6299],[97.9,6388],[97.9,6469],[97.9,6557],[97.9,6649],[97.9,6737],[97.9,6821],[97.9,6909],[97.9,6998],[97.9,7080],[97.9,7163],[97.9,7249],[97.9,7331],[97.9,7411],[97.9,7498],[97.9,7579],[97.9,7668],[97.9,7748],[97.9,7831],[97.9,7914],[97.9,7998],[97.9,8080],[97.9,8163],[97.9,8248],[97.9,8330],[97.9,8415],[97.9,8498],[97.9,8580],[97.9,8663],[97.9,8746],[97.9,8830],[97.9,8915],[97.9,8998],[97.9,9080],[97.9,9163],[97.9,9249],[97.9,9331],[97.9,9414],[97.9,9495],[97.9,9580],[97.9,9663],[97.9,9746],[97.9,9829],[97.9,9913],[97.9,9998],[97.9,10079],[97.9,10163],[97.9,10248],[97.9,10330],[97.9,10413],[97.9,10499],[97.9,10580],[97.9,10663],[97.9,10746],[97.9,10833],[97.9,10911],[97.9,11001],[97.9,11079]]",1098.3611,1100.4863,98.71193104,1.5918,"[{""rating"":98.71193104231826,""responseTime"":1.5918000000119719}]",space,1.5803,,1100.4864,Definitely yes,100,1100.5036,,,[],,0,6,6,6,1,audio/Narrative7Situation6.wav,audio/Narrative8Situation6.wav,audio/Narrative5Situation6.wav,audio/Narrative6Situation6.wav,3,2,3,2,,,,,,,,,,,,,,,,,,,,,,,,,,,,,,,,,,,,,,,
,,,,,67e4c4b8c49f4b9a84e4c155,2025-07-07_16h52.02.012,group3.4_multiperson,2023.2.2,Win32,58.47953216,686c2ebf0248f13bef9af11f,686c31954a9a635a73cd838f,,,,,,,,,,,,,,,,,,,,,,,,,,,,,1100.5042,2,audio/Narrative6Situation7.wav,1105.5101,,1105.5107,1130.3744,"[[49.6,1074],[57.3,1943],[57.8,2069],[57.9,2166],[58.2,2268],[58.5,2361],[58.5,2452],[59.4,2553],[62.4,2671],[62.4,2752],[62.4,2832],[62.4,2916],[62.4,3013],[73.6,3123],[88.1,3236],[91.1,3341],[91.3,3438],[91.3,3519],[91.3,3602],[91.3,3681],[94.7,3799],[95.7,3904],[96.3,4006],[96.4,4100],[96.6,4189],[96.9,4285],[97,4365],[97.1,4464],[97.3,4564],[97.4,4655],[97.4,4749],[97.6,4841],[97.6,4921],[97.6,5004],[97.6,5096],[97.6,5186],[97.6,5269],[97.6,5354],[97.6,5442],[97.6,5524],[97.6,5615],[97.6,5696],[97.6,5781],[97.6,5866],[97.6,5947],[97.6,6031],[97.6,6114],[97.6,6197],[97.6,6281],[97.6,6364],[97.6,6449],[97.6,6531],[97.6,6615],[97.6,6696],[97.6,6782],[97.6,6864],[97.6,6950],[97.6,7032],[97.6,7112],[97.6,7200],[97.6,7283],[97.6,7362],[97.6,7449],[97.6,7532],[97.6,7613],[97.6,7700],[97.6,7781],[97.6,7863],[97.6,7947],[97.6,8030],[97.6,8114],[97.6,8205],[97.6,8290],[97.6,8366],[97.6,8449],[97.6,8530],[97.6,8614],[97.6,8700],[97.6,8779],[97.6,8865],[97.6,8949],[97.6,9031],[97.6,9113],[97.6,9197],[97.6,9285],[97.6,9366],[97.6,9449],[97.6,9530],[97.6,9613],[97.6,9696],[97.6,9782],[97.6,9863],[97.6,9949],[97.6,10028],[97.6,10115],[97.6,10196],[97.6,10280],[97.6,10362],[97.6,10446],[97.6,10531],[97.6,10614],[97.6,10698],[97.6,10780],[97.6,10862],[97.6,10946],[97.6,11030],[97.6,11113],[97.6,11197],[97.6,11280],[97.6,11365],[97.6,11447],[97.6,11531],[97.6,11614],[97.6,11696],[97.6,11780],[97.6,11864],[97.6,11946],[97.6,12029],[97.6,12113],[97.6,12196],[97.6,12281],[97.6,12362],[97.6,12446],[97.6,12530],[97.6,12613],[97.6,12697],[97.6,12781],[97.6,12864],[97.6,12944],[97.6,13030],[97.6,13111],[97.6,13199],[97.6,13280],[97.6,13362],[97.6,13447],[97.6,13530],[97.6,13613],[97.6,13699],[97.6,13780],[97.6,13862],[97.6,13946],[97.6,14029],[97.6,14113],[97.6,14196],[97.6,14279],[97.6,14362],[97.6,14447],[97.6,14530],[97.6,14612],[97.6,14696],[97.6,14780],[97.6,14862],[97.6,14947],[97.6,15030],[97.6,15112],[97.6,15196],[97.6,15283],[97.6,15364],[97.6,15446],[97.6,15529],[97.6,15612],[97.6,15696],[97.6,15780],[97.6,15863],[97.6,15948],[97.6,16031],[97.6,16119],[97.7,16203],[97.9,16292],[97.9,16383],[97.9,16474],[98,16566],[98,16649],[98,16730],[98,16814],[98,16898],[98,16986],[98,17067],[98,17162],[98,17247],[98,17335],[98,17423],[98,17521],[98,17603],[98,17681],[98,17765],[98,17849],[98,17931],[98,18012],[98,18096],[98,18180],[98,18262],[98,18346],[98,18431],[98,18512],[98,18596],[98,18680],[98,18769],[98,18846],[98,18930],[98,19013],[98,19097],[98,19181],[98,19265],[98,19346],[98,19431],[98,19512],[98,19596],[98,19680],[98,19762],[98,19846],[98,19931],[98,20012],[98,20095],[98,20180],[98,20262],[98,20346],[98,20430],[98,20512],[98,20597],[98,20680],[98,20762],[98,20846],[98,20930],[98,21012],[98,21095],[98,21185],[98,21262],[98,21346],[98,21430],[98,21512],[98,21596],[98,21682],[98,21762],[98,21846],[98,21930],[98,22012],[98,22096],[98,22180],[98,22263],[98,22347],[98,22429],[98,22512],[98,22596],[98,22682],[98,22763],[98,22844],[98,22930],[98,23013],[98,23097],[98,23180],[98,23263],[98,23346],[98,23427],[98,23513],[98,23598],[98,23680],[98,23762],[98,23846],[98,23930],[98,24014],[98,24096],[98,24181],[98,24263],[98,24346],[98,24430],[98,24513],[98,24595],[98,24680],[98,24762],[98,24850]]",1130.3748,1132.3835,98.71193104,1.7018,"[{""rating"":98.71193104231826,""responseTime"":1.7018000000118718}]",space,1.4537,,1132.3836,Not at all,0,1132.3982,,,[],,0,7,7,7,1,audio/Narrative7Situation7.wav,audio/Narrative8Situation7.wav,audio/Narrative5Situation7.wav,audio/Narrative6Situation7.wav,5,3,4,5,,,,,,,,,,,,,,,,,,,,,,,,,,,,,,,,,,,,,,,
,,,,,67e4c4b8c49f4b9a84e4c155,2025-07-07_16h52.02.012,group3.4_multiperson,2023.2.2,Win32,58.47953216,686c2ebf0248f13bef9af11f,686c31954a9a635a73cd838f,,,,,,,,,,,,,,,,,,,,,,,,,,,,,1132.3991,2,audio/Narrative6Situation8.wav,1137.407,,1137.4075,1144.2815,"[[999,1],[999,115],[999,198],[999,283],[999,367],[999,449],[999,534],[999,615],[999,700],[999,785],[999,867],[999,953],[999,1046],[999,1142],[999,1239],[999,1339],[999,1435],[999,1520],[999,1599],[999,1689],[999,1776],[999,1876],[54.5,1977],[53.8,2094],[53.2,2205],[50.6,2325],[50.1,2423],[50.1,2508],[50.1,2593],[50.1,2685],[50.1,2766],[50.1,2849],[50.1,2933],[50.1,3018],[50.1,3100],[50.1,3184],[50.1,3265],[50.1,3349],[50.1,3434],[50.1,3515],[50.1,3598],[50.1,3683],[50.1,3766],[50.1,3849],[50.1,3933],[50.1,4015],[50.1,4098],[50.1,4183],[50.1,4265],[50.1,4348],[50.1,4434],[50.1,4516],[50.1,4598],[50.1,4684],[50.1,4766],[50.1,4848],[50.1,4930],[50.1,5016],[50.1,5098],[50.1,5184],[50.1,5267],[50.1,5349],[50.1,5434],[50.1,5515],[50.1,5598],[50.1,5685],[50.1,5769],[50.1,5849],[50.1,5933],[50.1,6016],[50.1,6099],[50.1,6183],[50.1,6266],[50.1,6348],[50.1,6433],[50.1,6516],[50.1,6603],[50.1,6686],[50.1,6767],[50.1,6854]]",1144.282,1147.7617,0.351283739,2.7622,"[{""rating"":0.3512837387376788,""responseTime"":2.76219999998807}]",space,2.9268,,1147.7619,Definitely yes,100,1147.7769,,,[],,0,8,8,8,1,audio/Narrative7Situation8.wav,audio/Narrative8Situation8.wav,audio/Narrative5Situation8.wav,audio/Narrative6Situation8.wav,2,3,3,5,,,,,,,,,,,,,,,,,,,,,,,,,,,,,,,,,,,,,,,
,,,,,67e4c4b8c49f4b9a84e4c155,2025-07-07_16h52.02.012,group3.4_multiperson,2023.2.2,Win32,58.47953216,686c2ebf0248f13bef9af11f,686c31954a9a635a73cd838f,,,,,,,,,,,,,,,,,,,,,,,,,,,,,1147.7775,2,audio/Narrative6Situation9.wav,1151.789,,1151.7911,1161.756,"[[999,1],[999,110],[999,190],[999,275],[999,357],[999,443],[999,525],[999,608],[999,688],[999,770],[999,855],[999,937],[999,1018],[999,1101],[999,1184],[999,1270],[999,1369],[999,1466],[999,1568],[999,1665],[999,1750],[999,1833],[999,1923],[999,2004],[999,2085],[36.2,2196],[36.7,2301],[36.7,2384],[36.7,2464],[36.7,2550],[36.7,2637],[36.7,2718],[36.7,2801],[36.7,2885],[36.7,2971],[36.7,3054],[36.7,3136],[36.7,3223],[36.7,3311],[36.7,3397],[36.7,3482],[36.7,3565],[36.7,3647],[36.7,3732],[36.7,3817],[36.7,3897],[36.7,3981],[36.7,4065],[36.7,4148],[36.7,4232],[36.7,4314],[36.7,4399],[36.7,4481],[36.7,4564],[36.7,4647],[36.7,4731],[36.7,4814],[36.7,4896],[36.7,4986],[36.7,5070],[36.7,5147],[36.7,5231],[36.7,5314],[36.7,5396],[36.7,5480],[36.7,5564],[36.7,5647],[36.7,5732],[36.7,5815],[36.7,5897],[36.7,5982],[36.7,6064],[36.7,6152],[36.7,6235],[36.7,6314],[36.7,6397],[36.7,6486],[36.7,6563],[36.7,6647],[36.7,6731],[36.7,6814],[36.7,6900],[36.7,6981],[36.7,7064],[36.7,7147],[36.7,7237],[36.7,7320],[36.7,7396],[36.7,7482],[36.7,7564],[36.7,7647],[36.7,7732],[36.7,7814],[36.7,7900],[36.7,7980],[36.7,8064],[36.7,8149],[36.7,8230],[36.7,8315],[36.7,8400],[36.7,8481],[36.7,8564],[36.7,8647],[36.7,8730],[36.7,8814],[36.7,8897],[36.7,8981],[36.7,9064],[36.7,9148],[36.7,9232],[36.7,9314],[36.7,9398],[36.7,9486],[36.7,9566],[36.7,9648],[36.7,9730],[36.7,9813],[36.7,9897]]",1161.7562,1164.6257,0.790393771,2.1847,"[{""rating"":0.7903937713429454,""responseTime"":2.18469999998797}]",space,2.3205,,1164.6261,Not at all,0,1164.6394,,,[],,0,9,9,9,1,audio/Narrative7Situation9.wav,audio/Narrative8Situation9.wav,audio/Narrative5Situation9.wav,audio/Narrative6Situation9.wav,2,3,3,4,,,,,,,,,,,,,,,,,,,,,,,,,,,,,,,,,,,,,,,
,,,,,67e4c4b8c49f4b9a84e4c155,2025-07-07_16h52.02.012,group3.4_multiperson,2023.2.2,Win32,58.47953216,686c2ebf0248f13bef9af11f,686c31954a9a635a73cd838f,,,,,,,,,,,,,,,,,,,,,,,,,,,,,1164.6401,2,audio/Narrative5Situation1.wav,1169.656,,1169.6563,1182.9451,"[[7.2,6316],[20.9,6433],[31,6569],[38.7,6691],[44.1,6816],[45.9,6908],[57.2,7010],[58.3,7106],[58.3,7193],[58.3,7287],[58.3,7376],[58.3,7468],[58.3,7561],[58.3,7649],[58.3,7734],[58.3,7816],[58.3,7900],[58.3,7982],[58.3,8067],[58.3,8148],[58.3,8231],[58.3,8316],[58.3,8398],[58.3,8485],[58.3,8572],[58.3,8657],[58.3,8741],[58.3,8829],[58.3,8916],[58.3,8999],[58.3,9082],[58.3,9166],[58.3,9249],[58.3,9337],[58.3,9420],[58.3,9505],[58.3,9593],[58.3,9698],[58.3,9803],[58.3,9882],[58.3,9967],[58.3,10047],[58.3,10136],[58.3,10216],[58.3,10298],[58.3,10383],[58.3,10466],[58.3,10549],[58.3,10631],[58.3,10715],[58.3,10800],[58.3,10882],[58.3,10965],[58.3,11049],[58.3,11130],[58.3,11215],[58.3,11298],[58.3,11386],[58.3,11465],[58.3,11555],[58.3,11635],[58.3,11720],[58.3,11802],[58.3,11887],[58.3,11969],[58.3,12052],[58.3,12132],[58.3,12217],[58.3,12298],[58.3,12381],[58.3,12466],[58.3,12549],[58.3,12651],[58.3,12756],[58.3,12841],[58.3,12923],[58.3,13008],[58.3,13092],[58.3,13177],[58.3,13256]]",1182.9454,1186.9053,99.88289113,3.7491,"[{""rating"":99.88289112926564,""responseTime"":3.749100000023873}]",space,3.4139,,1186.9056,Definitely yes,100,1186.9198,,,[],,0,10,10,10,1,audio/Narrative8Situation1.wav,audio/Narrative7Situation1.wav,audio/Narrative6Situation1.wav,audio/Narrative5Situation1.wav,5,2,2,5,,,,,,,,,,,,,,,,,,,,,,,,,,,,,,,,,,,,,,,
,,,,,67e4c4b8c49f4b9a84e4c155,2025-07-07_16h52.02.012,group3.4_multiperson,2023.2.2,Win32,58.47953216,686c2ebf0248f13bef9af11f,686c31954a9a635a73cd838f,,,,,,,,,,,,,,,,,,,,,,,,,,,,,1186.9227,2,audio/Narrative5Situation2.wav,1189.9254,,1189.9255,1219.3914,[],1219.3917,1224.2101,0.49765375,2.6475,"[{""rating"":0.4976537496061084,""responseTime"":2.647499999999809}]",space,4.2739,,1224.2104,Not at all,0,1224.2282,,,[],,0,11,11,11,1,audio/Narrative8Situation2.wav,audio/Narrative7Situation2.wav,audio/Narrative6Situation2.wav,audio/Narrative5Situation2.wav,3,3,3,3,,,,,,,,,,,,,,,,,,,,,,,,,,,,,,,,,,,,,,,
,,,,,67e4c4b8c49f4b9a84e4c155,2025-07-07_16h52.02.012,group3.4_multiperson,2023.2.2,Win32,58.47953216,686c2ebf0248f13bef9af11f,686c31954a9a635a73cd838f,,,,,,,,,,,,,,,,,,,,,,,,,,,,,1224.2288,2,audio/Narrative5Situation3.wav,1227.2364,,1227.2366,1241.156,"[[999,0],[999,117],[999,199],[999,283],[999,371],[999,454],[999,543],[999,624],[999,711],[999,801],[999,887],[999,966],[999,1050],[999,1134],[999,1218],[999,1301],[999,1382],[999,1463],[999,1550],[999,1631],[999,1716],[999,1799],[999,1883],[999,1967],[999,2050],[999,2131],[999,2216],[999,2299],[999,2380],[999,2467],[999,2549],[999,2637],[999,2717],[999,2799],[999,2884],[999,2969],[999,3053],[999,3138],[999,3218],[999,3298],[999,3382],[999,3464],[999,3551],[999,3632],[999,3716],[999,3800],[999,3886],[999,3971],[999,4067],[999,4150],[999,4231],[999,4317],[999,4400],[999,4480],[999,4567],[999,4650],[999,4731],[999,4817],[999,4899],[999,4982],[999,5072],[999,5153],[999,5237],[999,5333],[999,5424],[999,5506],[999,5590],[999,5682],[999,5764],[999,5849],[999,5933],[999,6018],[999,6098],[999,6183],[999,6267],[999,6348],[999,6432],[999,6516],[999,6601],[999,6683],[999,6766],[999,6849],[999,6934],[999,7016],[999,7098],[999,7183],[999,7263],[999,7349],[999,7432],[999,7517],[999,7598],[999,7683],[999,7765],[999,7858],[999,7942],[999,8027],[999,8109],[999,8189],[999,8268],[999,8351],[999,8437],[999,8521],[999,8602],[999,8688],[999,8771],[999,8857],[999,8939],[999,9018],[999,9107],[999,9184],[999,9272],[999,9352],[999,9438],[999,9520],[999,9602],[999,9688],[999,9770],[999,9853],[999,9934],[999,10019],[999,10101],[999,10184],[999,10268],[999,10351],[999,10436],[999,10519],[999,10602],[999,10684],[999,10768],[999,10853],[999,10937],[999,11020],[999,11102],[999,11186],[999,11270],[999,11357],[999,11436],[999,11519],[999,11601],[999,11687],[999,11768],[999,11851],[999,11934],[999,12020],[999,12103],[999,12186],[999,12270],[999,12352],[999,12434],[999,12519],[999,12601],[999,12687],[999,12768],[999,12852],[999,12937],[999,13019],[999,13102],[999,13185],[999,13268],[999,13351],[999,13438],[999,13518],[999,13602],[999,13684],[999,13768],[999,13853]]",1241.1567,1244.3575,99.00467106,2.6131,"[{""rating"":99.00467106405513,""responseTime"":2.6131000000239055}]",space,2.6715,,1244.3578,Partially,50,1244.3717,,,[],,0,12,12,12,1,audio/Narrative8Situation3.wav,audio/Narrative7Situation3.wav,audio/Narrative6Situation3.wav,audio/Narrative5Situation3.wav,4,8,5,3,,,,,,,,,,,,,,,,,,,,,,,,,,,,,,,,,,,,,,,
,,,,,67e4c4b8c49f4b9a84e4c155,2025-07-07_16h52.02.012,group3.4_multiperson,2023.2.2,Win32,58.47953216,686c2ebf0248f13bef9af11f,686c31954a9a635a73cd838f,,,,,,,,,,,,,,,,,,,,,,,,,,,,,1244.3725,2,audio/Narrative5Situation4.wav,1245.3868,,1245.3869,1265.8013,"[[32.1,1632],[32.1,1722],[32.1,1805],[32.1,1887],[32.1,1969],[32.1,2058],[32.1,2144],[32.1,2232],[32.1,2315],[32.1,2397],[32.1,2481],[32.1,2567],[32.1,2649],[32.1,2732],[32.1,2817],[32.1,2900],[33.5,3007],[38.1,3122],[43,3253],[45,3372],[46.8,3480],[49.1,3590],[49.9,3692],[50.3,3789],[50.4,3881],[50.4,3965],[50.4,4051],[50.4,4132],[50.4,4215],[50.4,4303],[50.4,4388],[50.4,4468],[50.4,4550],[50.4,4631],[50.4,4718],[50.4,4798],[50.4,4881],[50.4,4963],[50.4,5048],[50.4,5130],[50.4,5214],[50.4,5297],[50.4,5380],[50.4,5467],[50.4,5548],[50.4,5631],[50.4,5717],[50.4,5799],[50.4,5880],[50.4,5964],[50.4,6048],[50.4,6131],[50.4,6215],[50.4,6298],[50.4,6380],[50.4,6467],[50.4,6550],[50.4,6632],[50.4,6716],[50.4,6797],[50.4,6880],[50.4,6968],[50.4,7048],[50.4,7130],[50.4,7214],[50.4,7297],[50.4,7381],[50.4,7465],[50.4,7548],[50.4,7630],[50.4,7719],[50.4,7800],[50.4,7880],[50.4,7963],[50.4,8048],[50.4,8131],[50.4,8213],[50.4,8298],[50.4,8381],[50.4,8463],[50.4,8548],[50.4,8630],[50.4,8717],[50.4,8798],[50.4,8883],[50.4,8965],[50.4,9048],[50.4,9131],[50.4,9214],[50.4,9297],[50.4,9380],[50.4,9463],[50.4,9548],[50.4,9631],[50.4,9713],[50.4,9798],[50.4,9880],[50.4,9970],[50.4,10052],[50.4,10129],[50.4,10214],[50.4,10297],[50.4,10381],[50.4,10464],[50.4,10548],[50.4,10630],[50.4,10717],[50.4,10798],[50.4,10881],[50.4,10964],[50.4,11049],[50.4,11132],[50.4,11213],[50.4,11298],[50.4,11380],[50.4,11464],[50.4,11547],[50.4,11631],[50.4,11713],[50.4,11797],[50.4,11880],[50.4,11965],[50.4,12047],[50.4,12130],[50.4,12213],[50.4,12300],[50.4,12382],[50.4,12464],[50.4,12548],[50.4,12630],[50.4,12713],[50.4,12797],[50.4,12880],[50.4,12963],[50.4,13048],[50.4,13133],[50.4,13214],[50.4,13298],[50.4,13380],[50.4,13464],[50.4,13549],[50.4,13632],[50.4,13714],[50.4,13796],[50.4,13881],[50.4,13964],[50.4,14048],[50.4,14130],[50.4,14214],[50.4,14297],[50.4,14379],[50.4,14470],[50.4,14548],[50.4,14630],[50.4,14713],[50.4,14798],[50.4,14881],[50.4,14964],[50.4,15048],[50.4,15130],[50.4,15214],[50.4,15297],[50.4,15380],[50.4,15464],[50.4,15548],[50.4,15637],[50.4,15718],[50.4,15798],[50.4,15880],[50.4,15963],[50.4,16048],[50.4,16130],[50.4,16214],[50.4,16297],[50.4,16380],[50.4,16464],[50.4,16547],[50.4,16630],[50.4,16719],[50.4,16798],[50.4,16880],[50.4,16963],[50.4,17049],[50.4,17130],[50.4,17214],[50.4,17298],[50.4,17380],[50.4,17461],[50.4,17547],[50.4,17631],[50.4,17714],[50.4,17797],[50.4,17882],[50.4,17964],[50.4,18048],[50.4,18130],[50.4,18214],[50.4,18297],[50.4,18380],[50.4,18464],[50.4,18547],[50.4,18629],[50.4,18713],[50.4,18798],[50.4,18880],[50.4,18964],[50.4,19045],[50.4,19129],[50.4,19214],[50.4,19298],[50.4,19380],[50.4,19464],[50.4,19548],[50.4,19630],[50.4,19713],[50.4,19798],[50.4,19879],[50.4,19963],[50.4,20048],[50.4,20132],[50.4,20214],[50.4,20300],[50.4,20381]]",1265.8019,1268.2243,99.15104107,2.1527,"[{""rating"":99.15104107492354,""responseTime"":2.1526999999880445}]",space,1.8763,,1268.2249,Definitely yes,100,1268.2395,,,[],,0,13,13,13,1,audio/Narrative8Situation4.wav,audio/Narrative7Situation4.wav,audio/Narrative6Situation4.wav,audio/Narrative5Situation4.wav,3,3,2,1,,,,,,,,,,,,,,,,,,,,,,,,,,,,,,,,,,,,,,,
,,,,,67e4c4b8c49f4b9a84e4c155,2025-07-07_16h52.02.012,group3.4_multiperson,2023.2.2,Win32,58.47953216,686c2ebf0248f13bef9af11f,686c31954a9a635a73cd838f,,,,,,,,,,,,,,,,,,,,,,,,,,,,,1268.2401,2,audio/Narrative5Situation5.wav,1273.2508,,1273.2511,1288.6768,"[[57.8,1312],[57.8,1422],[53.2,1640],[52.3,1747],[52.3,1835],[52.3,1917],[52.3,1998],[52.3,2083],[52.3,2167],[52.3,2250],[52.3,2340],[52.3,2428],[52.3,2517],[52.3,2604],[52.3,2684],[52.3,2764],[52.3,2849],[52.3,2933],[52.3,3014],[52.3,3108],[52.3,3186],[51,3295],[48.8,3419],[48.5,3506],[48.5,3588],[48.5,3674],[49.4,3777],[50.1,3885],[50.6,3987],[51,4094],[51,4180],[51,4267],[51,4350],[51,4438],[51,4523],[51,4606],[50.6,4705],[50.3,4804],[50.3,4889],[50.3,4974],[50.3,5057],[50.3,5138],[50.3,5221],[50.3,5303],[50.3,5385],[50.3,5465],[50.3,5550],[50.3,5635],[50.3,5717],[50.3,5804],[50.3,5884],[50.3,5965],[50.3,6050],[50.3,6133],[50.3,6217],[50.3,6300],[50.6,6391],[51.2,6489],[51.9,6589],[52.6,6701],[55,6819],[72.5,6948],[78.6,7054],[78.7,7140],[78.7,7229],[78.7,7318],[78.7,7399],[78.7,7484],[80.3,7581],[87.6,7717],[88.4,7810],[88.7,7907],[90.1,8029],[91.7,8137],[93,8246],[94.1,8357],[95.5,8471],[97.1,8590],[98,8694],[98.3,8790],[98.3,8874],[98.3,8954],[98.3,9034],[98.3,9117],[98.3,9204],[98.3,9284],[98.3,9368],[98.3,9450],[98.3,9538],[98.3,9616],[98.3,9699],[98.3,9781],[98.3,9865],[98.3,9947],[98.3,10031],[98.3,10115],[98.3,10198],[98.3,10281],[98.3,10366],[98.3,10448],[98.3,10531],[98.3,10616],[98.3,10699],[98.3,10781],[98.3,10869],[98.3,10948],[98.3,11029],[98.3,11115],[98.3,11198],[98.3,11281],[98.3,11365],[98.3,11448],[98.3,11531],[98.3,11615],[98.3,11699],[98.3,11781],[98.3,11865],[98.3,11948],[98.3,12034],[98.3,12115],[98.3,12197],[98.3,12279],[98.3,12367],[98.3,12449],[98.3,12531],[98.3,12616],[98.3,12699],[98.3,12784],[98.3,12866],[98.3,12946],[98.3,13031],[98.3,13115],[98.3,13197],[98.3,13282],[98.3,13364],[98.3,13448],[98.3,13531],[98.3,13615],[98.3,13699],[98.3,13784],[98.3,13866],[98.3,13948],[98.3,14035],[98.3,14115],[98.3,14198],[98.3,14282],[98.3,14365],[98.3,14448],[98.3,14534],[98.3,14615],[98.3,14698],[98.3,14781],[98.3,14864],[98.3,14947],[98.3,15034],[98.3,15116],[98.3,15204],[98.3,15289],[98.3,15376]]",1288.6779,1291.0514,99.15104107,1.7108,"[{""rating"":99.15104107492354,""responseTime"":1.7108000000118864}]",space,1.8422,,1291.0516,Definitely yes,100,1291.0607,,,[],,0,14,14,14,1,audio/Narrative8Situation5.wav,audio/Narrative7Situation5.wav,audio/Narrative6Situation5.wav,audio/Narrative5Situation5.wav,2,5,2,5,,,,,,,,,,,,,,,,,,,,,,,,,,,,,,,,,,,,,,,
,,,,,67e4c4b8c49f4b9a84e4c155,2025-07-07_16h52.02.012,group3.4_multiperson,2023.2.2,Win32,58.47953216,686c2ebf0248f13bef9af11f,686c31954a9a635a73cd838f,,,,,,,,,,,,,,,,,,,,,,,,,,,,,1291.0615,2,audio/Narrative5Situation6.wav,1294.0666,,1294.0667,1299.7785,"[[98.5,1709],[92.3,1832],[72.1,3424],[72,3532],[74,4617],[74.5,4716],[74.5,4804],[74.5,4890],[74.5,4981],[74.5,5067],[74.5,5151],[74.5,5236],[74.5,5318],[80.6,5425],[85.4,5539],[90.7,5661]]",1299.7787,1302.9341,99.88289113,2.1585,"[{""rating"":99.88289112926564,""responseTime"":2.1585000000000036}]",space,2.6141,,1302.9343,Partially,50,1302.9501,,,[],,0,15,15,15,1,audio/Narrative8Situation6.wav,audio/Narrative7Situation6.wav,audio/Narrative6Situation6.wav,audio/Narrative5Situation6.wav,2,3,2,3,,,,,,,,,,,,,,,,,,,,,,,,,,,,,,,,,,,,,,,
,,,,,67e4c4b8c49f4b9a84e4c155,2025-07-07_16h52.02.012,group3.4_multiperson,2023.2.2,Win32,58.47953216,686c2ebf0248f13bef9af11f,686c31954a9a635a73cd838f,,,,,,,,,,,,,,,,,,,,,,,,,,,,,1302.9507,2,audio/Narrative5Situation7.wav,1306.9676,,1306.9678,1328.0158,"[[999,1],[999,115],[999,198],[999,280],[999,368],[999,448],[999,532],[999,614],[999,699],[999,784],[999,868],[999,950],[999,1031],[999,1124],[999,1222],[999,1321],[999,1415],[999,1509],[999,1612],[54.1,1711],[54.8,1815],[55.1,1905],[55.1,1999],[55.1,2084],[55.1,2168],[55.1,2255],[55.1,2339],[55.1,2419],[55.1,2499],[55.1,2582],[55.1,2668],[55.1,2748],[55.1,2830],[55.1,2914],[55.1,2999],[55.4,3098],[56,3208],[57.5,3319],[58.6,3434],[59.7,3538],[60.4,3652],[61.3,3764],[61.9,3864],[61.9,3949],[61.9,4032],[61.9,4118],[61.9,4198],[61.9,4288],[61.9,4370],[61.9,4453],[61.9,4538],[61.9,4623],[67.7,4745],[75.5,4857],[78.7,4975],[78.7,5062],[78.7,5151],[78.7,5230],[78.8,5320],[79.7,5421],[88.5,5543],[92.3,5664],[96.9,5781],[98.2,5882],[98.3,5969],[98.3,6052],[98.3,6139],[98.3,6223],[98.3,6307],[98.3,6393],[98.3,6488],[98.3,6570],[98.3,6652],[98.3,6735],[98.3,6821],[98.3,6902],[98.3,6981],[98.3,7063],[98.3,7148],[98.3,7232],[98.3,7314],[98.3,7398],[98.3,7480],[98.3,7567],[98.3,7648],[98.3,7730],[98.3,7814],[98.3,7899],[98.3,7980],[98.3,8063],[98.3,8148],[98.3,8230],[98.3,8313],[98.3,8398],[98.3,8480],[98.3,8564],[98.3,8649],[98.3,8730],[98.3,8813],[98.3,8898],[98.3,8980],[98.3,9063],[98.3,9148],[98.3,9230],[98.3,9313],[98.3,9398],[98.3,9481],[98.3,9564],[98.3,9648],[98.3,9730],[98.3,9814],[98.3,9898],[98.3,9984],[98.3,10064],[98.3,10148],[98.3,10230],[98.3,10313],[98.3,10398],[98.3,10480],[98.3,10564],[98.3,10649],[98.3,10730],[98.3,10814],[98.3,10898],[98.3,10979],[98.3,11063],[98.3,11150],[98.3,11231],[98.3,11313],[98.3,11396],[98.3,11480],[98.3,11564],[98.3,11649],[98.3,11731],[98.3,11811],[98.3,11900],[98.3,11980],[98.3,12063],[98.3,12149],[98.3,12230],[98.3,12313],[98.3,12398],[98.3,12480],[98.3,12564],[98.3,12648],[98.3,12731],[98.3,12812],[98.3,12898],[98.3,12979],[98.3,13064],[98.3,13149],[98.3,13230],[98.3,13314],[98.3,13399],[98.3,13480],[98.3,13563],[98.3,13648],[98.3,13730],[98.3,13813],[98.3,13898],[98.3,13980],[98.3,14063],[98.3,14148],[98.3,14230],[98.3,14313],[98.3,14398],[98.3,14484],[98.3,14564],[98.3,14648],[98.3,14730],[98.3,14814],[98.3,14897],[98.3,14980],[98.3,15064],[98.3,15150],[98.3,15229],[98.3,15313],[98.3,15399],[98.3,15480],[98.3,15563],[98.3,15648],[98.3,15729],[98.3,15813],[98.3,15898],[98.3,15980],[98.3,16065],[98.3,16148],[98.3,16230],[98.3,16313],[98.3,16398],[98.3,16480],[98.3,16563],[98.3,16646],[98.3,16730],[98.3,16812],[98.3,16898],[98.3,16998],[98.3,17081],[98.3,17162],[98.3,17246],[98.3,17336],[98.3,17417],[98.3,17498],[98.3,17580],[98.3,17661],[98.3,17748],[98.3,17830],[98.3,17914],[98.3,17998],[98.3,18080],[98.3,18162],[98.3,18248],[98.3,18330],[98.3,18415],[98.3,18498],[98.3,18581],[98.3,18663],[98.3,18749],[98.3,18830],[98.3,18913],[98.3,18999],[98.3,19083],[98.3,19168],[98.3,19250],[98.3,19331],[98.3,19413],[98.3,19498],[98.3,19580],[98.3,19663],[98.3,19748],[98.3,19830],[98.3,19913],[98.3,19998],[98.3,20080],[98.3,20163],[98.3,20246],[98.3,20330],[98.3,20413],[98.3,20498],[98.3,20579],[98.3,20663],[98.3,20748],[98.3,20830],[98.3,20918],[98.3,21001]]",1328.0163,1331.4022,99.4437811,1.6551,"[{""rating"":99.44378109666036,""responseTime"":1.6550999999640226}]",space,2.8492,,1331.4026,Partially,50,1331.4097,,,[],,0,16,16,16,1,audio/Narrative8Situation7.wav,audio/Narrative7Situation7.wav,audio/Narrative6Situation7.wav,audio/Narrative5Situation7.wav,3,5,5,4,,,,,,,,,,,,,,,,,,,,,,,,,,,,,,,,,,,,,,,
,,,,,67e4c4b8c49f4b9a84e4c155,2025-07-07_16h52.02.012,group3.4_multiperson,2023.2.2,Win32,58.47953216,686c2ebf0248f13bef9af11f,686c31954a9a635a73cd838f,,,,,,,,,,,,,,,,,,,,,,,,,,,,,1331.4103,2,audio/Narrative5Situation8.wav,1334.4295,,1334.4302,1343.2483,"[[75.2,150],[75.2,237],[75.2,320],[75.2,412],[79.1,516],[95.4,1401],[95.5,1492],[91.6,1592],[80.3,1707],[80.2,1789],[80.2,1872],[80.2,1954],[80.2,2043],[80.2,2128],[47.7,2243],[30.4,2363],[25.4,2472],[24.5,2588],[24.5,2669],[25.3,2757],[41.9,2876],[66.7,3003],[75.6,3111],[75.6,3199],[75.6,3286],[75.6,3368],[76.8,3459],[85.6,3585],[87.3,3704],[90.6,3822],[95.4,3941],[97.4,4058],[99.3,4169],[99.9,4272],[99.9,4351],[99.9,4436],[99.9,4521],[99.9,4609],[99.9,4705],[99.9,4786],[99.9,4873],[99.9,4958],[99.9,5038],[99.9,5118],[99.9,5198],[99.9,5283],[99.9,5367],[99.9,5449],[99.9,5534],[99.9,5617],[99.9,5700],[99.9,5787],[99.9,5868],[99.9,5950],[99.9,6033],[99.9,6117],[99.9,6199],[99.9,6283],[99.9,6367],[99.9,6451],[99.9,6532],[99.9,6617],[99.9,6699],[99.9,6787],[99.9,6868],[99.9,6950],[99.9,7033],[99.9,7116],[99.9,7201],[99.9,7282],[99.9,7367],[99.9,7450],[99.9,7533],[99.9,7619],[99.9,7698],[99.9,7783],[99.9,7866],[99.9,7950],[99.9,8033],[99.9,8117],[99.9,8199],[99.9,8283],[99.9,8368],[99.9,8449],[99.9,8533],[99.9,8617],[99.9,8700],[99.9,8783]]",1343.2486,1345.0523,99.00467106,1.4222,"[{""rating"":99.00467106405513,""responseTime"":1.4221999999881518}]",space,1.2554,,1345.0524,Partially,50,1345.0654,,,[],,0,17,17,17,1,audio/Narrative8Situation8.wav,audio/Narrative7Situation8.wav,audio/Narrative6Situation8.wav,audio/Narrative5Situation8.wav,3,2,5,3,,,,,,,,,,,,,,,,,,,,,,,,,,,,,,,,,,,,,,,
