consent.started,consent.stopped,consentResponse.keys,consentResponse.rt,consentResponse.duration,participantID,date,expName,psychopyVersion,OS,frameRate,STUDY_ID,SESSION_ID,opening1.started,opening1.stopped,keyEndingOpening1.keys,keyEndingOpening1.rt,keyEndingOpening1.duration,volumeAdjust.started,volumeAdjust.stopped,endingAdjust.keys,endingAdjust.rt,endingAdjust.duration,opening2.started,opening2.stopped,keyEndingOpening.keys,keyEndingOpening.rt,keyEndingOpening.duration,mouse.x,mouse.y,mouse.leftButton,mouse.midButton,mouse.rightButton,mouse.time,instructionLoop.thisRepN,instructionLoop.thisTrialN,instructionLoop.thisN,instructionLoop.thisIndex,instructionLoop.ran,readyForAudio.started,readyForAudio.stopped,fixation.started,run,audio_played,fixation.stopped,endPractice.keys,audioPre.started,audioPre.stopped,continuousResponses_audio,intRating.started,intRating.stopped,intQuestionSlider.response,intQuestionSlider.rt,intQuestionSlider.history,confirmResponse.keys,confirmResponse.rt,confirmResponse.duration,catchQuestion.started,catch_label,catch_value,catchQuestion.stopped,catchQuestionSlider.response,catchQuestionSlider.rt,catchQuestionSlider.history,confirmResponse_2.keys,audioRunLoop.thisRepN,audioRunLoop.thisTrialN,audioRunLoop.thisN,audioRunLoop.thisIndex,audioRunLoop.ran,conditions1_1,conditions2_1,conditions1_2,conditions2_2,dur1_1,dur2_1,dur1_2,dur2_2,endPractice.rt,endPractice.duration,confirmResponse_2.rt,confirmResponse_2.duration,runIntervalBreak.started,runIntervalBreak.stopped,endingBreakKey.keys,endingBreakKey.rt,endingBreakKey.duration,connection.started,connection.stopped,connectionEnding.keys,connectionEnding.rt,connectionEnding.duration,readyForText.started,readyForText.stopped,textPre.started,run_dup,textPre.stopped,continuousResponses_text,textRunLoop.thisRepN,textRunLoop.thisTrialN,textRunLoop.thisN,textRunLoop.thisIndex,textRunLoop.ran,text1_1,text1_2,text2_1,text2_2,runBreakText.started,runBreakText.stopped,endingBreakKey_2.keys,endingBreakKey_2.rt,endingBreakKey_2.duration,ending.started,ending.stopped,endingEnding.keys,endingEnding.rt,endingEnding.duration
0.0007,66.7184,y,66.3968,,67e87d0febc7156e3f210a04,2025-07-07_23h18.52.837,group3.4_multiperson,2023.2.2,Win32,60.24096386,686c2ebf0248f13bef9af11f,686c8d93a305f1dc3cc5ca56,,,,,,,,,,,,,,,,,,,,,,,,,,,,,,,,,,,,,,,,,,,,,,,,,,,,,,,,,,,,,,,,,,,,,,,,,,,,,,,,,,,,,,,,,,,,,,,,,,,,,,,,
,,,,,67e87d0febc7156e3f210a04,2025-07-07_23h18.52.837,group3.4_multiperson,2023.2.2,Win32,60.24096386,686c2ebf0248f13bef9af11f,686c8d93a305f1dc3cc5ca56,66.719,84.6088,space,17.822,,,,,,,,,,,,,,,,,,,,,,,,,,,,,,,,,,,,,,,,,,,,,,,,,,,,,,,,,,,,,,,,,,,,,,,,,,,,,,,,,,,,,,,,,,,,,,,,,,,,
,,,,,67e87d0febc7156e3f210a04,2025-07-07_23h18.52.837,group3.4_multiperson,2023.2.2,Win32,60.24096386,686c2ebf0248f13bef9af11f,686c8d93a305f1dc3cc5ca56,,,,,,84.6092,180.8198,space,95.865,,,,,,,,,,,,,,,,,,,,,,,,,,,,,,,,,,,,,,,,,,,,,,,,,,,,,,,,,,,,,,,,,,,,,,,,,,,,,,,,,,,,,,,,,,,,,,,
,,,,,67e87d0febc7156e3f210a04,2025-07-07_23h18.52.837,group3.4_multiperson,2023.2.2,Win32,60.24096386,686c2ebf0248f13bef9af11f,686c8d93a305f1dc3cc5ca56,,,,,,,,,,,180.8285,187.2219,space,6.3682,,[],[],[],[],[],[],0,0,0,0,1,,,,,,,,,,,,,,,,,,,,,,,,,,,,,,,,,,,,,,,,,,,,,,,,,,,,,,,,,,,,,,,,,,,,,,,,,,,,,,
,,,,,67e87d0febc7156e3f210a04,2025-07-07_23h18.52.837,group3.4_multiperson,2023.2.2,Win32,60.24096386,686c2ebf0248f13bef9af11f,686c8d93a305f1dc3cc5ca56,,,,,,,,,,,187.2229,211.3825,space,24.0012,,"[-0.7539813289401428,-0.7539813289401428]","[-0.10677087306976318,-0.10677087306976318]","[1,1]","[0,0]","[0,0]","[6.642800000004513,7.492700000003026]",1,0,1,0,1,,,,,,,,,,,,,,,,,,,,,,,,,,,,,,,,,,,,,,,,,,,,,,,,,,,,,,,,,,,,,,,,,,,,,,,,,,,,,,
,,,,,67e87d0febc7156e3f210a04,2025-07-07_23h18.52.837,group3.4_multiperson,2023.2.2,Win32,60.24096386,686c2ebf0248f13bef9af11f,686c8d93a305f1dc3cc5ca56,,,,,,,,,,,211.3832,286.6842,space,75.2331,,[],[],[],[],[],[],2,0,2,0,1,,,,,,,,,,,,,,,,,,,,,,,,,,,,,,,,,,,,,,,,,,,,,,,,,,,,,,,,,,,,,,,,,,,,,,,,,,,,,,
,,,,,67e87d0febc7156e3f210a04,2025-07-07_23h18.52.837,group3.4_multiperson,2023.2.2,Win32,60.24096386,686c2ebf0248f13bef9af11f,686c8d93a305f1dc3cc5ca56,,,,,,,,,,,286.6847,287.9341,p,1.223,,[],[],[],[],[],[],3,0,3,0,1,,,,,,,,,,,,,,,,,,,,,,,,,,,,,,,,,,,,,,,,,,,,,,,,,,,,,,,,,,,,,,,,,,,,,,,,,,,,,,
,,,,,67e87d0febc7156e3f210a04,2025-07-07_23h18.52.837,group3.4_multiperson,2023.2.2,Win32,60.24096386,686c2ebf0248f13bef9af11f,686c8d93a305f1dc3cc5ca56,,,,,,,,,,,287.9349,289.0179,p,1.0302,,[],[],[],[],[],[],4,0,4,0,1,,,,,,,,,,,,,,,,,,,,,,,,,,,,,,,,,,,,,,,,,,,,,,,,,,,,,,,,,,,,,,,,,,,,,,,,,,,,,,
,,,,,67e87d0febc7156e3f210a04,2025-07-07_23h18.52.837,group3.4_multiperson,2023.2.2,Win32,60.24096386,686c2ebf0248f13bef9af11f,686c8d93a305f1dc3cc5ca56,,,,,,,,,,,289.0185,290.0846,p,1.0072,,[],[],[],[],[],[],5,0,5,0,1,,,,,,,,,,,,,,,,,,,,,,,,,,,,,,,,,,,,,,,,,,,,,,,,,,,,,,,,,,,,,,,,,,,,,,,,,,,,,,
,,,,,67e87d0febc7156e3f210a04,2025-07-07_23h18.52.837,group3.4_multiperson,2023.2.2,Win32,60.24096386,686c2ebf0248f13bef9af11f,686c8d93a305f1dc3cc5ca56,,,,,,,,,,,290.085,376.7916,space,86.6853,,[-0.6572934973637962],[-0.9973958333333334],[1],[0],[0],[66.90730000000445],6,0,6,0,1,,,,,,,,,,,,,,,,,,,,,,,,,,,,,,,,,,,,,,,,,,,,,,,,,,,,,,,,,,,,,,,,,,,,,,,,,,,,,,
,,,,,67e87d0febc7156e3f210a04,2025-07-07_23h18.52.837,group3.4_multiperson,2023.2.2,Win32,60.24096386,686c2ebf0248f13bef9af11f,686c8d93a305f1dc3cc5ca56,,,,,,,,,,,376.7923,381.9095,space,4.9904,,[],[],[],[],[],[],7,0,7,0,1,,,,,,,,,,,,,,,,,,,,,,,,,,,,,,,,,,,,,,,,,,,,,,,,,,,,,,,,,,,,,,,,,,,,,,,,,,,,,,
,,,,,67e87d0febc7156e3f210a04,2025-07-07_23h18.52.837,group3.4_multiperson,2023.2.2,Win32,60.24096386,686c2ebf0248f13bef9af11f,686c8d93a305f1dc3cc5ca56,,,,,,,,,,,381.9099,384.5272,p,2.5522,,[],[],[],[],[],[],8,0,8,0,1,,,,,,,,,,,,,,,,,,,,,,,,,,,,,,,,,,,,,,,,,,,,,,,,,,,,,,,,,,,,,,,,,,,,,,,,,,,,,,
,,,,,67e87d0febc7156e3f210a04,2025-07-07_23h18.52.837,group3.4_multiperson,2023.2.2,Win32,60.24096386,686c2ebf0248f13bef9af11f,686c8d93a305f1dc3cc5ca56,,,,,,,,,,,384.5276,445.5218,space,60.9365,,[],[],[],[],[],[],9,0,9,0,1,,,,,,,,,,,,,,,,,,,,,,,,,,,,,,,,,,,,,,,,,,,,,,,,,,,,,,,,,,,,,,,,,,,,,,,,,,,,,,
,,,,,67e87d0febc7156e3f210a04,2025-07-07_23h18.52.837,group3.4_multiperson,2023.2.2,Win32,60.24096386,686c2ebf0248f13bef9af11f,686c8d93a305f1dc3cc5ca56,,,,,,,,,,,445.5224,459.1945,space,13.6131,,[],[],[],[],[],[],10,0,10,0,1,,,,,,,,,,,,,,,,,,,,,,,,,,,,,,,,,,,,,,,,,,,,,,,,,,,,,,,,,,,,,,,,,,,,,,,,,,,,,,
,,,,,67e87d0febc7156e3f210a04,2025-07-07_23h18.52.837,group3.4_multiperson,2023.2.2,Win32,60.24096386,686c2ebf0248f13bef9af11f,686c8d93a305f1dc3cc5ca56,,,,,,,,,,,459.1948,548.1516,space,88.9297,,[],[],[],[],[],[],11,0,11,0,1,,,,,,,,,,,,,,,,,,,,,,,,,,,,,,,,,,,,,,,,,,,,,,,,,,,,,,,,,,,,,,,,,,,,,,,,,,,,,,
,,,,,67e87d0febc7156e3f210a04,2025-07-07_23h18.52.837,group3.4_multiperson,2023.2.2,Win32,60.24096386,686c2ebf0248f13bef9af11f,686c8d93a305f1dc3cc5ca56,,,,,,,,,,,548.1521,571.4631,space,23.2769,,[],[],[],[],[],[],12,0,12,0,1,,,,,,,,,,,,,,,,,,,,,,,,,,,,,,,,,,,,,,,,,,,,,,,,,,,,,,,,,,,,,,,,,,,,,,,,,,,,,,
,,,,,67e87d0febc7156e3f210a04,2025-07-07_23h18.52.837,group3.4_multiperson,2023.2.2,Win32,60.24096386,686c2ebf0248f13bef9af11f,686c8d93a305f1dc3cc5ca56,,,,,,,,,,,571.4636,596.8076,space,25.3121,,[],[],[],[],[],[],13,0,13,0,1,,,,,,,,,,,,,,,,,,,,,,,,,,,,,,,,,,,,,,,,,,,,,,,,,,,,,,,,,,,,,,,,,,,,,,,,,,,,,,
,,,,,67e87d0febc7156e3f210a04,2025-07-07_23h18.52.837,group3.4_multiperson,2023.2.2,Win32,60.24096386,686c2ebf0248f13bef9af11f,686c8d93a305f1dc3cc5ca56,,,,,,,,,,,,,,,,,,,,,,,,,,,596.8124,599.3916,599.4367,1,audio/Narrative13Situation2.wav,601.4426,,601.4428,631.206,"[[999,3],[999,166],[999,249],[999,332],[999,416],[999,499],[999,582],[999,666],[999,749],[999,833],[999,916],[999,999],[999,1083],[999,1166],[999,1249],[999,1333],[999,1416],[999,1500],[999,1583],[999,1666],[999,1749],[999,1833],[999,1916],[999,2000],[999,2083],[999,2166],[999,2250],[999,2333],[999,2417],[999,2500],[999,2583],[999,2667],[999,2750],[999,2833],[999,2917],[999,3000],[999,3083],[999,3167],[999,3250],[999,3334],[999,3417],[999,3500],[999,3584],[999,3667],[999,3751],[999,3834],[999,3917],[999,4001],[999,4084],[999,4167],[999,4251],[999,4334],[999,4417],[999,4501],[999,4584],[999,4668],[999,4751],[999,4834],[999,4918],[999,5001],[999,5084],[999,5168],[999,5251],[999,5335],[999,5418],[999,5501],[999,5585],[999,5668],[999,5751],[999,5835],[999,5918],[999,6002],[999,6085],[999,6168],[999,6252],[999,6335],[999,6418],[999,6502],[999,6585],[999,6668],[999,6752],[999,6835],[999,6918],[999,7002],[999,7085],[999,7169],[999,7252],[999,7335],[999,7419],[999,7502],[999,7586],[999,7669],[999,7752],[999,7836],[999,7919],[999,8002],[999,8086],[999,8169],[999,8253],[999,8336],[999,8419],[999,8503],[999,8586],[999,8669],[999,8753],[999,8836],[999,8919],[999,9003],[999,9086],[999,9170],[999,9253],[999,9336],[999,9420],[999,9503],[999,9586],[999,9670],[999,9753],[999,9836],[999,9920],[999,10003],[999,10087],[999,10170],[999,10253],[999,10337],[999,10420],[999,10504],[999,10587],[999,10670],[999,10754],[999,10839],[999,10920],[999,11004],[999,11087],[999,11170],[999,11254],[999,11337],[999,11421],[999,11504],[999,11587],[999,11671],[999,11754],[999,11838],[999,11921],[999,12005],[999,12088],[999,12172],[999,12255],[999,12338],[999,12421],[999,12504],[999,12588],[999,12671],[999,12754],[999,12838],[999,12921],[999,13005],[999,13088],[999,13172],[999,13255],[999,13338],[999,13421],[999,13505],[999,13588],[999,13672],[999,13755],[999,13838],[999,13922],[999,14005],[999,14089],[999,14172],[999,14255],[999,14339],[999,14422],[999,14505],[999,14589],[999,14672],[999,14755],[999,14839],[999,14922],[999,15006],[999,15089],[999,15172],[999,15256],[999,15339],[999,15422],[999,15506],[999,15589],[999,15673],[999,15756],[999,15839],[999,15923],[999,16006],[999,16089],[999,16173],[999,16256],[999,16340],[999,16423],[999,16506],[999,16590],[999,16673],[999,16756],[999,16840],[999,16923],[999,17007],[999,17090],[999,17173],[999,17257],[999,17340],[999,17423],[999,17507],[999,17590],[999,17673],[999,17757],[999,17840],[999,17923],[999,18007],[999,18090],[999,18174],[999,18257],[999,18340],[999,18424],[999,18507],[999,18591],[999,18674],[999,18757],[999,18841],[999,18924],[999,19007],[999,19091],[999,19174],[999,19257],[999,19341],[999,19424],[999,19508],[999,19591],[999,19675],[999,19758],[999,19841],[999,19924],[999,20008],[999,20091],[999,20175],[999,20258],[999,20341],[999,20425],[999,20508],[999,20591],[999,20675],[999,20758],[999,20842],[999,20925],[999,21008],[999,21092],[999,21175],[999,21258],[999,21342],[999,21425],[999,21509],[999,21592],[999,21675],[999,21759],[999,21842],[999,21925],[999,22009],[999,22092],[999,22176],[999,22259],[999,22342],[999,22426],[999,22509],[999,22592],[999,22676],[999,22759],[999,22843],[999,22926],[999,23009],[999,23093],[999,23176],[999,23259],[999,23343],[999,23426],[999,23509],[999,23593],[999,23676],[999,23759],[999,23843],[999,23927],[999,24010],[999,24093],[999,24177],[999,24260],[999,24343],[999,24427],[999,24510],[999,24593],[999,24677],[999,24760],[999,24844],[999,24927],[999,25010],[999,25093],[999,25177],[999,25260],[999,25344],[999,25427],[999,25510],[999,25594],[999,25677],[999,25760],[999,25844],[999,25927],[999,26011],[999,26094],[999,26177],[999,26261],[999,26344],[999,26427],[999,26511],[999,26594],[999,26677],[999,26761],[999,26844],[999,26928],[999,27011],[999,27094],[999,27178],[999,27261],[999,27345],[999,27428],[999,27511],[999,27595],[999,27678],[999,27761],[999,27845],[999,27928],[999,28011],[999,28095],[999,28178],[999,28262],[999,28345],[999,28428],[999,28512],[999,28595],[999,28678],[999,28762],[999,28845],[999,28929],[999,29012],[999,29095],[999,29179],[999,29263],[999,29346],[999,29429],[999,29513],[999,29596],[999,29679],[999,29762]]",631.2067,643.0947,98.21391794,2.9731,"[{""rating"":98.21391793862561,""responseTime"":2.973100000001409}]",space,11.3464,,643.0952,Not at all,0,643.1036,,,[],,0,0,0,0,1,audio/Narrative13Situation2.wav,audio/Narrative13Situation2.wav,audio/Narrative13Situation2.wav,audio/Narrative13Situation2.wav,2,2,2,2,,,,,,,,,,,,,,,,,,,,,,,,,,,,,,,,,,,,,,,
,,,,,67e87d0febc7156e3f210a04,2025-07-07_23h18.52.837,group3.4_multiperson,2023.2.2,Win32,60.24096386,686c2ebf0248f13bef9af11f,686c8d93a305f1dc3cc5ca56,,,,,,,,,,,,,,,,,,,,,,,,,,,,,643.1039,1,audio/Narrative7Situation1.wav,647.1008,space,647.1008,702.9883,"[[98.5,11784],[98.9,11868],[99.8,11951],[100,12034],[75.8,15369],[76.2,15452],[76.4,15535],[76.7,15619],[76.8,15702],[76.8,15785],[76.8,15869],[76.8,15952],[76.8,16036],[76.8,16119],[76.8,16202],[76.8,16285],[76.8,16369],[76.8,16452],[76.8,16536],[76.8,16619],[76.8,16702],[76.8,16786],[76.8,16869],[76.8,16952],[76.8,17036],[76.8,17119],[76.8,17202],[76.8,17286],[76.8,17369],[76.8,17453],[76.8,17536],[76.8,17619],[76.8,17703],[76.8,17786],[76.8,17870],[76.8,17953],[76.8,18036],[76.8,18120],[76.8,18203],[76.8,18286],[76.8,18370],[76.8,18453],[76.8,18537],[76.8,18620],[76.8,18703],[76.8,18787],[76.8,18870],[76.8,18953],[77.1,19037],[77.3,19120],[77.4,19203],[77.6,19287],[77.9,19370],[78.1,19454],[78.4,19537],[78.6,19620],[78.9,19704],[79,19787],[79.3,19870],[79.6,19954],[79.6,20037],[79.6,20120],[79.6,20204],[79.6,20287],[79.6,20371],[79.6,20454],[79.6,20537],[79.6,20621],[79.6,20704],[79.8,20788],[79.9,20871],[80.1,20954],[80.1,21038],[80.1,21121],[80.1,21204],[80.1,21288],[80.1,21371],[80.1,21455],[80.1,21538],[80.3,21622],[80.5,21705],[80.6,21788],[80.6,21871],[80.9,21955],[80.9,22038],[81.1,22121],[81.2,22205],[81.2,22288],[81.4,22372],[81.5,22455],[81.5,22538],[81.5,22622],[81.7,22705],[81.8,22788],[81.8,22872],[82,22955],[82.1,23038],[82.1,23122],[82.2,23205],[82.4,23289],[82.5,23372],[82.7,23456],[82.7,23539],[82.7,23622],[82.8,23705],[82.8,23789],[82.8,23872],[82.8,23956],[82.8,24039],[82.8,24122],[82.8,24206],[82.8,24289],[82.8,24372],[82.8,24456],[82.8,24539],[82.8,24623],[82.8,24706],[82.8,24789],[82.8,24873],[82.8,24956],[82.8,25039],[82.8,25123],[82.8,25206],[82.8,25289],[82.8,25373],[82.8,25456],[82.8,25540],[82.8,25623],[82.8,25706],[82.8,25790],[82.8,25873],[82.8,25956],[82.8,26040],[82.8,26123],[82.8,26207],[82.8,26290],[82.8,26373],[82.8,26457],[82.8,26540],[82.8,26624],[82.8,26707],[82.8,26790],[82.8,26874],[83,26957],[83,27040],[83,27124],[83,27207],[83,27290],[83,27374],[83,27457],[83,27541],[83,27624],[83,27707],[83,27791],[83,27874],[83,27957],[83,28041],[83,28124],[83,28207],[83,28291],[83,28374],[83,28458],[83,28541],[83,28624],[83,28708],[83,28791],[83,28875],[83,28958],[83,29041],[83,29125],[83,29208],[83,29291],[83,29375],[83,29458],[83,29541],[83,29625],[83,29708],[83,29792],[83,29875],[83,29958],[83,30042],[83,30125],[83,30208],[83,30292],[83,30375],[83,30459],[83,30542],[83,30625],[83,30709],[83,30792],[83,30875],[83,30959],[83,31042],[83,31125],[83,31209],[83,31292],[83,31376],[83,31459],[83,31542],[83,31626],[83,31709],[83,31792],[83,31876],[83,31959],[83,32043],[83,32126],[83,32209],[83,32293],[83,32376],[83,32459],[83,32543],[83,32626],[83,32710],[83,32793],[83,32876],[83,32960],[83,33043],[83,33126],[83,33210],[83,33293],[83,33377],[83,33460],[83,33543],[83,33627],[83,33710],[83,33793],[83,33877],[83,33960],[83,34043],[83,34127],[83,34210],[83,34294],[83,34377],[83,34460],[83,34544],[83,34627],[83,34710],[83,34794],[83,34877],[83,34961],[83,35044],[83,35127],[83,35211],[83,35294],[83,35377],[83,35461],[83,35544],[83,35627],[83,35711],[83,35794],[83,35878],[83,35961],[83,36044],[83,36128],[83,36211],[83,36295],[83,36378],[83,36461],[83,36545],[83,36628],[83,36711],[83,36795],[83,36878],[83,36961],[83,37045],[83,37128],[83,37211],[83,37295],[83,37378],[83,37462],[83,37545],[83,37629],[83,37712],[83,37795],[83,37879],[83,37962],[83,38045],[83,38129],[83,38212],[83,38295],[83,38379],[83,38462],[83,38546],[83,38629],[83,38712],[83,38796],[83,38879],[83,38962],[83,39046],[83,39129],[83,39212],[83,39296],[83,39379],[83,39463],[83,39546],[83,39629],[83,39713],[83,39796],[83,39879],[83,39963],[83,40046],[83,40130],[83,40213],[83,40296],[83,40380],[83,40463],[83,40546],[83,40630],[83,40713],[83,40797],[83,40880],[83,40963],[83,41047],[83,41130],[83,41213],[83,41297],[83,41380],[83,41464],[83,41547],[83,41630],[83,41714],[83,41797],[83,41880],[83,41964],[83,42047],[83,42130],[83,42214],[83,42297],[83,42381],[83,42464],[83,42547],[83,42631],[83,42714],[83,42797],[83,42881],[83,42964],[83,43048],[83,43131],[83,43214],[83,43298],[83,43381],[83,43464],[83,43548],[83,43631],[83,43715],[83,43798],[83,43881],[83,43965],[83,44048],[83,44131],[83,44215],[83,44298],[83,44382],[83,44465],[83,44548],[83,44632],[83,44715],[83,44798],[83,44882],[83,44965],[83,45048],[83,45132],[83,45215],[83,45299],[83,45382],[83,45465],[83,45549],[83,45632],[83,45715],[83,45799],[83,45882],[83,45966],[83,46049],[83,46132],[83,46216],[83,46299],[83,46382],[83,46466],[83,46549],[83,46633],[83,46716],[83,46799],[83,46883],[83,46966],[83,47049],[83,47133],[83,47216],[83,47300],[83,47383],[83,47466],[83,47550],[83,47633],[83,47716],[83,47800],[83,47883],[83,47966],[83,48050],[83,48133],[83,48216],[83,48300],[83,48383],[83,48467],[83,48550],[83,48637],[83,48717],[83,48800],[83,48884],[83,48967],[83,49050],[83,49134],[83,49217],[83,49300],[83,49384],[83,49467],[83,49551],[83,49634],[83,49717],[83,49801],[83,49884],[83,49967],[83,50051],[83,50134],[83,50218],[83,50301],[83,50384],[83,50468],[83,50551],[83,50634],[83,50718],[83,50801],[83,50884],[83,50968],[83,51051],[83,51135],[83,51218],[83,51301],[83,51385],[83,51468],[83,51551],[83,51635],[83,51718],[83,51802],[83,51885],[83,51968],[83,52052],[83,52135],[83,52218],[83,52302],[83,52385],[83,52468],[83,52552],[83,52635],[83,52719],[83,52802],[83,52885],[83,52969],[83,53052],[83,53135],[83,53219],[83,53302],[83,53386],[83,53469],[83,53552],[83,53636],[83,53719],[83,53802],[83,53886],[83,53969],[83,54053],[83,54136],[83,54219],[83,54303],[83,54386],[83,54470],[83,54553],[83,54636],[83,54720],[83,54803],[83,54886],[83,54970],[83,55053],[83,55136],[83,55220],[83,55303],[83,55387],[83,55470],[83,55553],[83,55637],[83,55721],[83,55803],[83,55887]]",702.9887,718.2284,83.86118675,11.3944,"[{""rating"":83.86118675484566,""responseTime"":11.39439999999854}]",space,14.6988,,718.2284,Partially,50,718.2338,,,[],,0,1,1,1,1,audio/Narrative7Situation1.wav,audio/Narrative8Situation1.wav,audio/Narrative5Situation1.wav,audio/Narrative6Situation1.wav,2,5,5,2,3.9748,,,,,,,,,,,,,,,,,,,,,,,,,,,,,,,,,,,,,,
,,,,,67e87d0febc7156e3f210a04,2025-07-07_23h18.52.837,group3.4_multiperson,2023.2.2,Win32,60.24096386,686c2ebf0248f13bef9af11f,686c8d93a305f1dc3cc5ca56,,,,,,,,,,,,,,,,,,,,,,,,,,,,,718.234,1,audio/Narrative7Situation2.wav,721.2464,,721.2465,728.7168,"[[83.1,3768],[81.2,3851],[79.5,3935],[77.7,4019],[75.1,4102],[72.4,4185],[69.8,4268],[66.9,4352],[66,4435],[66,4518],[66,4601],[66,4685],[66,4768],[66,4852],[66,4935],[66,5018],[66,5102],[66,5185],[66,5268],[66,5352],[66,5435],[66,5518],[66,5602],[66,5685],[64.8,5769],[63.6,5852],[63.1,5936],[62.9,6019],[62.8,6102],[62.8,6185],[62.8,6269],[62.8,6352],[62.8,6436],[62.8,6519],[62.8,6602],[62.8,6686],[62.8,6769],[62.8,6852],[62.8,6936],[62.8,7019],[62.8,7103],[62.8,7186],[62.9,7270],[63.4,7353],[63.5,7436]]",728.7171,737.9707,15.90539829,6.3913,"[{""rating"":15.905398292867117,""responseTime"":6.391300000004549}]",space,8.7058,,737.9707,Definitely yes,100,737.9779,,,[],,0,2,2,2,1,audio/Narrative7Situation2.wav,audio/Narrative8Situation2.wav,audio/Narrative5Situation2.wav,audio/Narrative6Situation2.wav,3,3,3,3,,,,,,,,,,,,,,,,,,,,,,,,,,,,,,,,,,,,,,,
,,,,,67e87d0febc7156e3f210a04,2025-07-07_23h18.52.837,group3.4_multiperson,2023.2.2,Win32,60.24096386,686c2ebf0248f13bef9af11f,686c8d93a305f1dc3cc5ca56,,,,,,,,,,,,,,,,,,,,,,,,,,,,,737.9784,1,audio/Narrative7Situation3.wav,745.9909,,745.991,755.2451,"[[16.6,1767],[17.4,1850],[18.1,1934],[18.8,2017],[20,2101],[21.9,2184],[23.4,2268],[24.4,2351],[25.3,2434],[27.2,2518],[30.1,2601],[31.4,2684],[31.6,2767],[31.6,2850],[31.6,2934],[30.6,3018],[30,3101],[28.2,3184],[25.6,3268],[22.6,3351],[19,3435],[17.4,3518],[16.8,3601],[15.5,3685],[14.6,3768],[13.6,3852],[13.1,3934],[12.5,4018],[12.1,4101],[12,4185],[12,4268],[12,4351],[12,4435],[12,4518],[12,4601],[12,4685],[10.2,4769],[7.6,4852],[6.5,4935],[6.2,5019],[5.2,5102],[4.2,5185],[3.6,5269],[2.7,5352],[1.7,5436],[1,5519],[0.8,5602],[0.7,5685],[0.7,5769],[2,5853],[4,5936],[5.8,6019],[6.4,6102],[6.7,6186],[7.7,6269],[8.6,6353],[9.3,6437],[10.3,6519],[10.5,6602],[10.5,6686],[10.5,6769],[10.5,6852],[10.5,6936],[10.5,7019],[10.5,7102],[10.5,7186],[10.5,7269],[10.5,7353],[10.5,7436],[10.5,7519],[10.5,7603],[10.5,7686],[10.5,7770],[10.5,7853],[10.5,7936],[10.5,8019],[10.5,8103],[10.5,8186],[10.5,8270],[10.5,8353],[10.5,8437],[10.5,8520],[10.5,8603],[10.5,8687],[10.5,8770],[10.5,8853],[10.5,8937],[10.5,9020],[10.5,9104],[10.5,9187]]",755.2454,762.1149,14.14792101,4.7096,"[{""rating"":14.147921005057324,""responseTime"":4.709599999993998}]",space,6.3209,,762.1149,Partially,50,762.1206,,,[],,0,3,3,3,1,audio/Narrative7Situation3.wav,audio/Narrative8Situation3.wav,audio/Narrative5Situation3.wav,audio/Narrative6Situation3.wav,8,4,3,5,,,,,,,,,,,,,,,,,,,,,,,,,,,,,,,,,,,,,,,
,,,,,67e87d0febc7156e3f210a04,2025-07-07_23h18.52.837,group3.4_multiperson,2023.2.2,Win32,60.24096386,686c2ebf0248f13bef9af11f,686c8d93a305f1dc3cc5ca56,,,,,,,,,,,,,,,,,,,,,,,,,,,,,762.121,1,audio/Narrative7Situation4.wav,765.1328,,765.1328,776.855,"[[999,0],[999,100],[999,183],[999,266],[999,350],[999,433],[999,516],[999,600],[999,683],[999,766],[999,850],[999,933],[999,1017],[999,1100],[999,1183],[999,1267],[999,1350],[999,1434],[999,1517],[999,1600],[999,1683],[999,1767],[999,1850],[999,1934],[999,2017],[999,2100],[999,2184],[999,2267],[999,2351],[999,2434],[999,2517],[999,2601],[999,2684],[999,2767],[999,2851],[999,2934],[999,3018],[999,3101],[999,3184],[999,3268],[999,3351],[999,3434],[999,3518],[999,3601],[999,3684],[999,3768],[999,3851],[999,3935],[999,4018],[999,4101],[999,4185],[999,4268],[999,4352],[999,4435],[999,4518],[999,4601],[999,4685],[999,4769],[999,4852],[999,4935],[999,5019],[16.3,5102],[12.4,5186],[11.7,5269],[10.3,5352],[9.2,5436],[8.4,5519],[8.3,5602],[8.4,5686],[9.5,5769],[10.5,5853],[11.2,5936],[12.2,6019],[12.7,6103],[13,6186],[13,6269],[13.1,6352],[13.4,6436],[13.7,6519],[13.9,6603],[13.9,6686],[13.9,6769],[13.9,6853],[13.9,6936],[13.9,7019],[13.9,7103],[13.9,7186],[13.9,7269],[13.9,7353],[13.9,7436],[13.9,7520],[13.9,7603],[13.9,7686],[13.9,7770],[13.9,7853],[13.9,7936],[13.9,8020],[13.9,8103],[13.9,8187],[13.9,8270],[13.9,8353],[13.9,8437],[13.9,8520],[13.9,8603],[13.9,8687],[13.9,8770],[13.9,8853],[13.9,8937],[13.9,9020],[13.9,9104],[13.9,9187],[13.9,9271],[13.9,9354],[13.9,9437],[13.9,9520],[13.9,9604],[13.9,9687],[13.9,9771],[13.9,9854],[13.9,9937],[13.9,10021],[13.9,10104],[13.9,10187],[13.9,10271],[13.9,10354],[13.9,10438],[13.9,10521],[13.9,10604],[13.9,10688],[13.9,10771],[13.9,10854],[13.9,10938],[13.9,11021],[13.9,11105],[13.9,11188],[13.9,11271],[13.9,11355],[13.9,11438],[13.9,11521],[13.9,11605],[13.9,11688]]",776.8552,783.0746,42.85338337,4.3283,"[{""rating"":42.85338337261722,""responseTime"":4.328299999996943}]",space,5.6798,,783.0748,Definitely yes,100,783.0816,,,[],,0,4,4,4,1,audio/Narrative7Situation4.wav,audio/Narrative8Situation4.wav,audio/Narrative5Situation4.wav,audio/Narrative6Situation4.wav,3,3,1,2,,,,,,,,,,,,,,,,,,,,,,,,,,,,,,,,,,,,,,,
,,,,,67e87d0febc7156e3f210a04,2025-07-07_23h18.52.837,group3.4_multiperson,2023.2.2,Win32,60.24096386,686c2ebf0248f13bef9af11f,686c8d93a305f1dc3cc5ca56,,,,,,,,,,,,,,,,,,,,,,,,,,,,,783.0822,1,audio/Narrative7Situation5.wav,788.0933,,788.0935,796.5806,"[[41.2,4102],[19.9,4852],[19.9,4935],[19.9,5018],[19.9,5102],[19.9,5185],[19.9,5268],[19.9,5352],[18.5,5436],[16.9,5519],[16.9,5602],[16.9,5685],[16.9,5769],[16.9,5852],[16.9,5935],[16.9,6019],[16.9,6102],[16.9,6185],[16.9,6269],[16.9,6352],[16.9,6436],[16.9,6519],[16.9,6602],[16.9,6686],[16.9,6769],[16.9,6852],[16.9,6936],[16.9,7019],[16.9,7103],[16.9,7186],[16.9,7269],[16.9,7353],[16.9,7436],[16.9,7519],[16.9,7603],[16.9,7686],[16.9,7769],[16.9,7853],[16.9,7936],[16.9,8019],[16.9,8103],[16.9,8186],[16.9,8270],[16.9,8353],[16.9,8436]]",796.5808,801.9496,24.98569761,3.9408,"[{""rating"":24.985697613217706,""responseTime"":3.9407999999970116}]",space,4.8251,,801.9498,Not at all,0,801.9556,,,[],,0,5,5,5,1,audio/Narrative7Situation5.wav,audio/Narrative8Situation5.wav,audio/Narrative5Situation5.wav,audio/Narrative6Situation5.wav,5,2,5,2,,,,,,,,,,,,,,,,,,,,,,,,,,,,,,,,,,,,,,,
,,,,,67e87d0febc7156e3f210a04,2025-07-07_23h18.52.837,group3.4_multiperson,2023.2.2,Win32,60.24096386,686c2ebf0248f13bef9af11f,686c8d93a305f1dc3cc5ca56,,,,,,,,,,,,,,,,,,,,,,,,,,,,,801.956,1,audio/Narrative7Situation6.wav,804.9677,,804.9677,814.9557,"[[23.4,5185],[22.3,5268],[21.8,5352],[21.5,5435],[21.5,5518],[21.5,5602],[21.5,5685],[21.5,5769],[21.5,5852],[21.5,5935],[21.5,6019],[21.5,6102],[21.5,6185],[21.5,6269],[21.5,6352],[21.5,6436],[21.5,6519],[21.5,6602],[21.5,6686],[21.5,6769],[21.5,6852],[21.5,6936],[21.5,7019],[21.5,7102],[21.5,7186],[21.5,7269],[21.5,7353],[21.5,7436],[21.5,7519],[21.5,7603],[21.5,7686],[21.5,7770],[21.5,7853],[21.5,7936],[21.5,8020],[21.5,8103],[21.5,8187],[21.5,8270],[21.5,8353],[21.5,8437],[21.5,8520],[21.5,8603],[21.5,8687],[21.5,8770],[21.5,8853],[21.5,8937],[21.5,9020],[21.5,9103],[21.5,9187],[21.5,9270],[21.5,9354],[21.5,9437],[21.5,9520],[21.5,9604],[21.5,9687],[21.5,9770],[21.5,9854],[21.5,9937]]",814.9559,816.9731,21.47074304,1.0883,"[{""rating"":21.470743037598123,""responseTime"":1.0883000000045513}]",space,1.4693,,816.9733,Partially,50,816.9789,,,[],,0,6,6,6,1,audio/Narrative7Situation6.wav,audio/Narrative8Situation6.wav,audio/Narrative5Situation6.wav,audio/Narrative6Situation6.wav,3,2,3,2,,,,,,,,,,,,,,,,,,,,,,,,,,,,,,,,,,,,,,,
,,,,,67e87d0febc7156e3f210a04,2025-07-07_23h18.52.837,group3.4_multiperson,2023.2.2,Win32,60.24096386,686c2ebf0248f13bef9af11f,686c8d93a305f1dc3cc5ca56,,,,,,,,,,,,,,,,,,,,,,,,,,,,,816.9792,1,audio/Narrative7Situation7.wav,821.992,,821.9921,839.1665,"[[20.9,4685],[18.7,4769],[16.6,4852],[14.4,4936],[12.2,5019],[10.5,5102],[8.4,5185],[7.6,5268],[6.7,5352],[5.8,5435],[5.5,5518],[5.5,5602],[5.4,5685],[5.2,5769],[5.2,5852],[5.1,5936],[4.9,6019],[4.9,6102],[4.9,6185],[4.8,6269],[4.5,6353],[4,6436],[3.7,6519],[3.3,6602],[2.4,6686],[1.7,6770],[1.1,6853],[0.2,6936],[0.5,8854],[2.1,8937],[3.7,9020],[4.5,9104],[4.8,9187],[5.1,9270],[5.1,9354],[5.2,9437],[5.4,9521],[5.4,9604],[5.4,9687],[5.4,9770],[5.4,9854],[5.4,9937],[5.4,10020],[5.4,10104],[5.4,10187],[5.4,10271],[5.4,10354],[5.4,10437],[5.4,10521],[5.4,10604],[5.4,10687],[5.4,10771],[5.4,10854],[5.4,10938],[5.4,11021],[5.4,11104],[5.4,11188],[5.4,11271],[5.4,11354],[5.4,11438],[5.4,11521],[5.4,11605],[5.4,11688],[5.4,11771],[5.4,11855],[5.4,11938],[5.4,12021],[5.4,12105],[5.4,12188],[5.4,12272],[5.4,12355],[5.4,12439],[5.4,12522],[5.4,12605],[5.4,12688],[5.4,12772],[5.4,12855],[5.4,12938],[5.4,13022],[5.4,13105],[5.4,13189],[5.4,13272],[5.4,13355],[5.4,13439],[5.4,13522],[5.4,13606],[5.4,13689],[5.4,13772],[5.4,13856],[5.4,13939],[5.4,14022],[5.4,14106],[5.4,14189],[5.4,14272],[5.4,14356],[5.4,14439],[5.4,14523],[5.4,14606],[5.4,14689],[5.4,14773],[5.4,14856],[5.4,14939],[5.4,15023],[5.4,15106],[5.4,15189],[5.4,15273],[5.4,15356],[5.4,15440],[5.4,15523],[5.4,15607],[5.4,15690],[5.4,15773],[5.4,15856],[5.4,15940],[6.5,16024],[9.5,16107],[10.6,16190],[11.2,16274],[12.8,16357],[14.6,16441],[16.6,16524],[18.5,16607],[20.9,16690],[20.9,16774],[20.9,16857],[20.9,16940],[20.9,17024],[20.9,17107]]",839.1667,843.7017,78.44229845,3.4848,"[{""rating"":78.44229845076546,""responseTime"":3.4848000000044976}]",space,3.9863,,843.7019,Partially,50,843.7052,,,[],,0,7,7,7,1,audio/Narrative7Situation7.wav,audio/Narrative8Situation7.wav,audio/Narrative5Situation7.wav,audio/Narrative6Situation7.wav,5,3,4,5,,,,,,,,,,,,,,,,,,,,,,,,,,,,,,,,,,,,,,,
,,,,,67e87d0febc7156e3f210a04,2025-07-07_23h18.52.837,group3.4_multiperson,2023.2.2,Win32,60.24096386,686c2ebf0248f13bef9af11f,686c8d93a305f1dc3cc5ca56,,,,,,,,,,,,,,,,,,,,,,,,,,,,,843.7055,1,audio/Narrative7Situation8.wav,845.7193,,845.7194,855.7407,"[[78.1,4352],[66.1,4435],[54.7,4519],[45,4602],[38.9,4685],[35.8,4769],[33.5,4852],[33.3,4935],[33.3,5018],[33.3,5102],[33.3,5185],[33.3,5268],[33.3,5352],[33.3,5435],[33.3,5519],[33.3,5602],[33.3,5685],[33.3,5769],[33.3,5852],[33.3,5936],[33.3,6019],[33.3,6102],[33.3,6186],[33.3,6269],[33.3,6352],[33.3,6436],[33.3,6519],[33.3,6602],[33.3,6686],[33.3,6769],[33.3,6852],[33.3,6936],[33.3,7019],[33.3,7103],[33.3,7186],[33.3,7269],[33.3,7353],[33.3,7436],[33.3,7520],[33.3,7603],[33.3,7686],[33.3,7769],[33.3,7853],[33.3,7936],[33.3,8020],[35.4,8104],[37.4,8187],[39.5,8270],[40.1,8354],[40.4,8437],[41.1,8521],[42.9,8604],[45.5,8687],[47,8771],[47.8,8854],[48.6,8937],[48.9,9021],[48.9,9104],[48.9,9187],[48.9,9270],[48.9,9354],[48.9,9437],[48.9,9520],[48.9,9604],[48.9,9687],[48.9,9771],[48.9,9854],[48.9,9937],[48.9,10021]]",855.7409,861.0096,54.1305293,4.549,"[{""rating"":54.13052930273005,""responseTime"":4.548999999999978}]",space,4.7263,,861.0098,Definitely yes,100,861.0154,,,[],,0,8,8,8,1,audio/Narrative7Situation8.wav,audio/Narrative8Situation8.wav,audio/Narrative5Situation8.wav,audio/Narrative6Situation8.wav,2,3,3,5,,,,,,,,,,,,,,,,,,,,,,,,,,,,,,,,,,,,,,,
,,,,,67e87d0febc7156e3f210a04,2025-07-07_23h18.52.837,group3.4_multiperson,2023.2.2,Win32,60.24096386,686c2ebf0248f13bef9af11f,686c8d93a305f1dc3cc5ca56,,,,,,,,,,,,,,,,,,,,,,,,,,,,,861.0159,1,audio/Narrative7Situation9.wav,863.0273,,863.0273,871.6647,"[[58.7,3935],[63.5,4019],[68.5,4102],[69.7,4185],[71,4268],[72.3,4351],[73.2,4435],[74.2,4519],[75.2,4602],[76.4,4685],[77.1,4768],[77.6,4852],[78,4935],[78.3,5019],[78.4,5102],[78.4,5185],[78.4,5268],[78.4,5352],[78.4,5435],[78.4,5519],[78.4,5602],[78.4,5685],[78.4,5769],[78.4,5852],[78.4,5935],[78.4,6019],[78.4,6102],[78.4,6185],[78.4,6269],[78.4,6352],[78.4,6436],[78.4,6519],[78.4,6602],[78.4,6686],[78.4,6769],[78.4,6852],[78.4,6936],[78.4,7019],[78.4,7102],[78.4,7186],[78.4,7269],[78.4,7353],[78.4,7436],[78.4,7519],[78.4,7603],[78.4,7686],[78.4,7769],[78.4,7853],[78.4,7936],[78.4,8020],[78.4,8103],[78.4,8186],[78.4,8270],[78.4,8353],[78.4,8437],[78.4,8520],[78.4,8603]]",871.6648,875.3163,99.67848235,2.6067,"[{""rating"":99.67848234513377,""responseTime"":2.6066999999954987}]",space,3.101,,875.3164,Definitely yes,100,887.7385,93.82022472,9.5479,"[{""rating"":93.82022471910112,""responseTime"":9.547899999998549}]",space,0,9,9,9,1,audio/Narrative7Situation9.wav,audio/Narrative8Situation9.wav,audio/Narrative5Situation9.wav,audio/Narrative6Situation9.wav,2,3,3,4,,,11.892,,,,,,,,,,,,,,,,,,,,,,,,,,,,,,,,,,,,
,,,,,67e87d0febc7156e3f210a04,2025-07-07_23h18.52.837,group3.4_multiperson,2023.2.2,Win32,60.24096386,686c2ebf0248f13bef9af11f,686c8d93a305f1dc3cc5ca56,,,,,,,,,,,,,,,,,,,,,,,,,,,,,887.739,1,audio/Narrative8Situation1.wav,892.7407,,892.7407,908.6646,"[[93.5,2518],[89.3,2601],[67.6,3268],[68.3,3351],[68.9,3435],[69.4,3518],[69.5,3601],[69.5,3684],[69.8,3768],[69.8,3851],[69.8,3934],[69.8,4018],[69.9,4102],[70.8,4185],[72.3,4268],[73.6,4352],[73.9,4435],[74.2,4518],[74.3,4601],[74.3,4685],[74.3,4768],[74.3,4852],[74.3,4935],[74.3,5018],[74.3,5102],[74.3,5185],[74.3,5268],[74.3,5352],[74.3,5435],[74.3,5519],[74.3,5602],[74.3,5685],[74.3,5769],[74.3,5852],[74.3,5935],[74.3,6019],[74.3,6102],[74.3,6186],[74.3,6269],[74.3,6352],[74.3,6436],[74.3,6519],[74.3,6602],[74.3,6686],[74.3,6769],[74.3,6853],[74.3,6936],[74.3,7019],[74.3,7103],[74.3,7186],[74.3,7269],[74.3,7353],[74.3,7436],[74.3,7520],[74.3,7603],[74.3,7686],[74.3,7770],[74.3,7853],[74.3,7936],[74.3,8020],[74.3,8103],[74.3,8186],[74.3,8270],[74.3,8353],[74.3,8437],[74.3,8520],[74.3,8603],[74.3,8687],[74.3,8770],[74.3,8853],[74.3,8937],[74.3,9020],[74.3,9104],[74.3,9187],[74.3,9270],[74.3,9354],[74.3,9437],[74.3,9520],[74.3,9604],[74.3,9687],[74.3,9771],[74.3,9854],[74.3,9937],[74.3,10021],[74.3,10104],[74.3,10187],[74.3,10271],[74.3,10354],[74.3,10438],[74.3,10521],[74.3,10604],[74.3,10688],[74.3,10771],[74.3,10854],[77.4,10938],[80.1,11022],[82,11105],[83.9,11188],[85.3,11272],[87.7,11355],[89.7,11438],[90.7,11522],[91,11605],[91,11688],[91,11771],[91,11855],[91,11938],[91,12022],[91,12105],[91,12188],[91,12272],[91,12355],[91,12438],[91,12522],[91,12605],[91,12688],[91,12772],[91,12855],[91,12939],[91,13022],[91,13105],[91,13189],[91,13272],[91,13355],[91,13439],[91,13522],[91,13606],[91,13689],[91,13772],[91,13856],[91,13939],[91,14022],[91,14106],[91,14189],[91,14273],[91,14356],[91,14439],[91,14523],[91,14606],[91,14689],[91,14773],[91,14856],[91,14940],[91,15023],[91,15106],[91,15190],[91,15273],[91,15356],[91,15440],[91,15523],[91,15607],[91,15690],[91,15773],[91,15857]]",908.6647,914.6507,87.81551065,4.8961,"[{""rating"":87.8155106524177,""responseTime"":4.896100000001525}]",space,5.4544,,914.6508,Definitely yes,100,914.654,,,[],,0,10,10,10,1,audio/Narrative8Situation1.wav,audio/Narrative7Situation1.wav,audio/Narrative6Situation1.wav,audio/Narrative5Situation1.wav,5,2,2,5,,,,,,,,,,,,,,,,,,,,,,,,,,,,,,,,,,,,,,,
,,,,,67e87d0febc7156e3f210a04,2025-07-07_23h18.52.837,group3.4_multiperson,2023.2.2,Win32,60.24096386,686c2ebf0248f13bef9af11f,686c8d93a305f1dc3cc5ca56,,,,,,,,,,,,,,,,,,,,,,,,,,,,,914.6544,1,audio/Narrative8Situation2.wav,917.6686,,917.6686,927.7733,"[[86.1,6436],[85.3,6519],[85.3,6602],[85.3,6686],[85.3,6769],[85.3,6853],[85.3,6936],[85.3,7019],[85.3,7103],[85.3,7186],[85.3,7270],[85.3,7353],[85.3,7436],[85.3,7519],[85.3,7603],[85.3,7687],[85.3,7770],[85.3,7853],[85.3,7936],[85.3,8020],[85.3,8103],[85.3,8187],[85.3,8270],[85.3,8353],[85.3,8437],[85.3,8520],[85.3,8603],[85.3,8687],[85.3,8770],[85.3,8854],[85.3,8937],[85.3,9020],[85.3,9104],[85.3,9187],[85.3,9270],[85.3,9354],[85.3,9437],[85.3,9520],[85.3,9604],[85.3,9687],[85.3,9770],[85.3,9854],[85.3,9937],[85.3,10021],[85.3,10104]]",927.7735,931.3916,48.711641,2.9259,"[{""rating"":48.711640998649855,""responseTime"":2.9259000000058677}]",space,3.0799,,931.3917,Partially,50,931.3973,,,[],,0,11,11,11,1,audio/Narrative8Situation2.wav,audio/Narrative7Situation2.wav,audio/Narrative6Situation2.wav,audio/Narrative5Situation2.wav,3,3,3,3,,,,,,,,,,,,,,,,,,,,,,,,,,,,,,,,,,,,,,,
,,,,,67e87d0febc7156e3f210a04,2025-07-07_23h18.52.837,group3.4_multiperson,2023.2.2,Win32,60.24096386,686c2ebf0248f13bef9af11f,686c8d93a305f1dc3cc5ca56,,,,,,,,,,,,,,,,,,,,,,,,,,,,,931.3976,1,audio/Narrative8Situation3.wav,935.4101,,935.4101,957.8036,"[[51.3,2934],[55.2,3018],[57.9,3101],[60.3,3185],[63.4,3268],[66.6,3351],[68.3,3435],[70.2,3518],[71.1,3601],[71.7,3685],[71.9,3768],[71.9,3851],[71.9,3934],[71.9,4018],[71.9,4101],[71.9,4184],[71.9,4268],[71.9,4351],[71.9,4435],[71.9,4518],[71.9,4601],[71.9,4685],[71.9,4768],[71.9,4851],[71.9,4935],[71.9,5018],[71.9,5102],[71.9,5185],[71.9,5268],[71.9,5352],[71.9,5435],[71.9,5518],[71.9,5602],[71.9,5685],[71.9,5769],[71.9,5852],[71.9,5935],[71.9,6019],[71.9,6102],[71.9,6185],[71.9,6269],[71.9,6352],[71.9,6436],[71.9,6519],[71.9,6602],[71.9,6686],[71.9,6769],[71.9,6852],[71.9,6936],[71.9,7019],[71.9,7102],[71.9,7186],[71.9,7269],[71.9,7353],[71.9,7436],[71.9,7519],[71.9,7603],[71.9,7686],[71.9,7769],[71.9,7853],[71.9,7936],[71.9,8020],[71.9,8103],[71.9,8186],[71.9,8270],[71.9,8353],[71.9,8436],[71.9,8520],[71.9,8603],[71.9,8687],[71.9,8770],[71.9,8853],[71.9,8937],[71.9,9020],[71.9,9104],[71.9,9187],[71.9,9270],[71.9,9354],[71.9,9437],[71.9,9520],[71.9,9604],[71.9,9687],[71.9,9770],[71.9,9854],[71.9,9937],[71.9,10020],[71.9,10104],[71.9,10187],[71.9,10271],[71.9,10354],[71.9,10437],[71.9,10521],[71.9,10604],[71.9,10687],[71.9,10771],[71.9,10854],[71.9,10938],[71.9,11021],[71.9,11104],[71.9,11188],[71.9,11271],[71.9,11354],[71.9,11438],[71.9,11521],[71.9,11605],[71.9,11688],[71.9,11772],[71.9,11855],[71.9,11938],[71.9,12021],[71.9,12105],[71.9,12188],[71.9,12271],[71.9,12355],[71.9,12438],[71.9,12522],[71.9,12605],[71.9,12688],[71.9,12772],[71.9,12855],[71.9,12938],[71.9,13022],[71.9,13105],[71.9,13189],[73.9,13272],[75.8,13357],[77.3,13439],[78.4,13522],[78.6,13606],[79.3,13689],[79.9,13773],[80.9,13856],[81.4,13939],[81.5,14022],[81.8,14106],[82,14189],[82,14272],[82,14356],[82,14439],[82,14522],[82,14606],[82,14689],[82,14773],[82,14856],[82,14939],[82,15023],[82,15106],[82,15189],[82,15273],[82,15356],[82,15440],[82,15523],[82,15606],[82,15690],[82,15773],[82,15856],[82,15940],[82,16023],[82,16107],[82,16190],[82,16273],[82,16357],[82,16440],[82,16523],[82,16607],[82,16690],[82,16773],[82,16857],[82,16940],[82,17024],[82,17107],[82,17191],[82,17274],[82,17357],[82,17441],[82,17524],[82,17607],[82,17691],[82,17774],[82,17857],[82,17941],[82,18024],[82,18107],[82,18191],[82,18274],[82,18358],[82,18441],[82,18524],[82,18608],[82,18691],[82,18775],[82,18858],[82,18941],[82,19025],[82,19108],[82,19191],[82,19275],[82,19358],[82,19441],[82,19525],[82,19608],[82,19692],[82,19775],[82,19858],[82,19942],[82,20025],[82,20108],[82,20192],[82,20275],[82,20358],[82,20442],[82,20525],[82,20609],[82,20692],[82,20775],[82,20859],[82,20942],[82,21025],[82,21109],[82,21192],[82,21276],[82,21359],[82,21442],[82,21526],[82,21609],[82,21692],[82,21776],[82,21859],[82,21943],[82,22026],[82,22109],[82,22193],[82,22276],[82,22359]]",957.8039,986.9667,92.35566031,20.7372,"[{""rating"":92.35566031259297,""responseTime"":20.737200000002986}]",space,28.6246,,986.9668,Partially,50,986.9712,,,[],,0,12,12,12,1,audio/Narrative8Situation3.wav,audio/Narrative7Situation3.wav,audio/Narrative6Situation3.wav,audio/Narrative5Situation3.wav,4,8,5,3,,,,,,,,,,,,,,,,,,,,,,,,,,,,,,,,,,,,,,,
,,,,,67e87d0febc7156e3f210a04,2025-07-07_23h18.52.837,group3.4_multiperson,2023.2.2,Win32,60.24096386,686c2ebf0248f13bef9af11f,686c8d93a305f1dc3cc5ca56,,,,,,,,,,,,,,,,,,,,,,,,,,,,,986.9716,1,audio/Narrative8Situation4.wav,989.9847,,989.9848,1004.1579,"[[92.1,3852],[89.3,3935],[87.2,4018],[85.3,4102],[84.4,4185],[84,4268],[82.1,4352],[79.3,4435],[76.5,4519],[76.1,4601],[76.1,4685],[76.1,4768],[76.1,4851],[76.1,4935],[76.1,5018],[76.1,5102],[76.1,5185],[76.1,5268],[76.1,5352],[76.1,5435],[76.1,5518],[76.1,5602],[76.1,5685],[76.1,5769],[76.1,5852],[76.1,5935],[76.1,6019],[76.1,6102],[76.1,6185],[76.1,6269],[76.1,6352],[76.1,6436],[76.1,6519],[76.1,6602],[76.1,6686],[76.1,6769],[76.1,6852],[76.1,6936],[76.1,7019],[76.1,7102],[76.1,7186],[76.1,7269],[76.1,7353],[76.1,7436],[76.1,7519],[76.1,7603],[76.1,7686],[76.1,7770],[76.1,7853],[76.1,7936],[76.1,8020],[76.1,8103],[76.1,8186],[76.1,8270],[76.1,8353],[76.1,8436],[76.1,8520],[76.1,8603],[76.1,8687],[76.1,8770],[76.1,8853],[76.1,8937],[76.1,9020],[76.1,9103],[76.1,9187],[76.1,9270],[76.1,9354],[76.1,9437],[76.1,9520],[76.1,9604],[76.1,9687],[76.1,9770],[76.1,9854],[76.1,9937],[76.1,10020],[76.1,10104],[76.1,10187],[76.1,10271],[76.1,10354],[76.1,10437],[76.1,10521],[76.1,10604],[76.1,10687],[76.1,10771],[76.1,10854],[76.1,10937],[76.1,11021],[76.1,11104],[76.1,11188],[76.1,11271],[76.1,11354],[76.1,11438],[76.1,11521],[76.1,11605],[76.1,11688],[76.1,11771],[76.1,11855],[76.1,11938],[76.1,12021],[76.1,12105],[76.1,12188],[76.1,12271],[76.1,12355],[76.1,12438],[76.1,12522],[76.1,12605],[76.1,12688],[76.1,12772],[76.1,12855],[76.1,12938],[76.1,13022],[76.1,13105],[76.1,13189],[76.1,13272],[76.1,13355],[76.1,13439],[76.1,13522],[76.1,13605],[76.1,13689],[76.1,13772],[76.1,13856],[76.1,13939],[76.1,14022],[76.1,14106]]",1004.158,1013.1619,69.50845557,3.4626,"[{""rating"":69.50845557106571,""responseTime"":3.46260000000143}]",space,8.4556,,1013.1619,Partially,50,1013.1654,,,[],,0,13,13,13,1,audio/Narrative8Situation4.wav,audio/Narrative7Situation4.wav,audio/Narrative6Situation4.wav,audio/Narrative5Situation4.wav,3,3,2,1,,,,,,,,,,,,,,,,,,,,,,,,,,,,,,,,,,,,,,,
,,,,,67e87d0febc7156e3f210a04,2025-07-07_23h18.52.837,group3.4_multiperson,2023.2.2,Win32,60.24096386,686c2ebf0248f13bef9af11f,686c8d93a305f1dc3cc5ca56,,,,,,,,,,,,,,,,,,,,,,,,,,,,,1013.1657,1,audio/Narrative8Situation5.wav,1015.1794,,1015.1794,1023.4167,"[[68.5,4268],[66.7,4352],[65.3,4435],[64.7,4519],[64.2,4602],[64.2,4685],[64.1,4768],[63.9,4852],[63.9,4935],[63.9,5018],[63.9,5102],[63.9,5185],[63.9,5269],[63.9,5352],[63.9,5435],[63.9,5519],[63.9,5602],[63.9,5685],[63.9,5769],[63.9,5852],[63.9,5935],[63.9,6019],[63.9,6102],[63.9,6186],[62.3,6269],[59.7,6353],[57.5,6436],[56,6519],[55,6603],[54.7,6686],[54.6,6769],[54.6,6853],[55.4,6937],[56.9,7020],[57.9,7103],[58.7,7186],[59.1,7270],[59.3,7353],[59.3,7436],[59.3,7519],[59.3,7603],[59.3,7686],[59.3,7770],[59.3,7853],[59.3,7936],[59.3,8020],[59.3,8103],[59.3,8187]]",1023.4169,1026.9848,74.04860523,2.2653,"[{""rating"":74.048605231241,""responseTime"":2.265299999997069}]",space,3.0213,,1026.9849,Not at all,0,1026.9901,,,[],,0,14,14,14,1,audio/Narrative8Situation5.wav,audio/Narrative7Situation5.wav,audio/Narrative6Situation5.wav,audio/Narrative5Situation5.wav,2,5,2,5,,,,,,,,,,,,,,,,,,,,,,,,,,,,,,,,,,,,,,,
,,,,,67e87d0febc7156e3f210a04,2025-07-07_23h18.52.837,group3.4_multiperson,2023.2.2,Win32,60.24096386,686c2ebf0248f13bef9af11f,686c8d93a305f1dc3cc5ca56,,,,,,,,,,,,,,,,,,,,,,,,,,,,,1026.9905,1,audio/Narrative8Situation6.wav,1029.0026,,1029.0027,1035.472,"[[73.9,1517],[72.9,1600],[72.1,1684],[71.4,1767],[70.8,1850],[70.7,1933],[70.5,2017],[69.9,2101],[67.3,2184],[59.5,2267],[57.8,2350],[57.8,2434],[57.8,2517],[57.8,2600],[57.8,2684],[57.8,2767],[57.8,2851],[57.8,2934],[57.8,3017],[57.8,3101],[57.8,3184],[57.8,3267],[57.8,3351],[57.8,3434],[57.8,3517],[57.8,3601],[57.8,3684],[57.8,3767],[57.8,3851],[57.8,3934],[57.8,4018],[57.8,4101],[57.8,4184],[57.8,4268],[57.8,4351],[57.8,4434],[57.8,4518],[57.8,4601],[57.8,4685],[57.8,4768],[57.8,4851],[57.8,4935],[57.8,5018],[57.8,5101],[57.8,5185],[57.8,5268],[57.8,5352],[57.8,5435],[57.8,5519],[57.8,5602],[56.9,5686],[49.4,5769],[48.1,5852],[48.1,5935],[48.1,6019],[48.1,6102],[48.1,6185],[48.1,6269],[48.1,6352],[48.1,6435]]",1035.4722,1039.8906,65.11476235,2.5389,"[{""rating"":65.11476235154123,""responseTime"":2.538899999998648}]",space,3.8723,,1039.8908,Definitely yes,100,1039.8968,,,[],,0,15,15,15,1,audio/Narrative8Situation6.wav,audio/Narrative7Situation6.wav,audio/Narrative6Situation6.wav,audio/Narrative5Situation6.wav,2,3,2,3,,,,,,,,,,,,,,,,,,,,,,,,,,,,,,,,,,,,,,,
,,,,,67e87d0febc7156e3f210a04,2025-07-07_23h18.52.837,group3.4_multiperson,2023.2.2,Win32,60.24096386,686c2ebf0248f13bef9af11f,686c8d93a305f1dc3cc5ca56,,,,,,,,,,,,,,,,,,,,,,,,,,,,,1039.8972,1,audio/Narrative8Situation7.wav,1042.9087,,1042.9087,1054.9976,"[[64.2,4352],[63.6,4435],[63.4,4518],[63.4,4601],[63.4,4685],[63.4,4768],[63.4,4851],[63.4,4935],[63.4,5018],[63.4,5102],[63.4,5185],[63.4,5268],[63.4,5352],[63.4,5435],[63.4,5519],[63.4,5602],[63.4,5685],[63.4,5769],[63.4,5852],[63.4,5935],[63.4,6019],[63.4,6102],[63.4,6185],[63.4,6269],[63.4,6352],[63.4,6436],[63.4,6519],[63.4,6602],[63.4,6686],[63.4,6769],[63.4,6852],[63.4,6936],[63.4,7019],[63.4,7103],[63.4,7186],[63.4,7269],[63.4,7353],[63.4,7436],[63.4,7519],[63.4,7603],[63.4,7686],[63.4,7770],[63.4,7853],[63.4,7936],[63.4,8020],[63.4,8103],[63.4,8186],[63.4,8270],[63.4,8353],[63.4,8437],[63.4,8520],[63.4,8603],[63.4,8687],[63.4,8770],[63.4,8853],[63.4,8937],[63.4,9020],[63.4,9104],[63.4,9187],[63.4,9270],[63.4,9354],[63.4,9437],[63.4,9520],[63.4,9604],[63.4,9687],[63.4,9770],[63.4,9854],[63.4,9937],[63.4,10020],[63.4,10104],[63.4,10187],[63.4,10271],[63.4,10354],[63.4,10437],[63.4,10521],[63.4,10604],[63.4,10687],[63.4,10771],[63.4,10854],[63.4,10938],[63.4,11021],[63.4,11104],[63.4,11188],[63.4,11271],[63.4,11355],[63.4,11438],[63.4,11521],[63.4,11605],[63.4,11688],[63.4,11771],[63.4,11855],[63.4,11938],[63.4,12021]]",1054.9978,1060.2999,74.19506167,4.0896,"[{""rating"":74.19506167189182,""responseTime"":4.089600000001383}]",space,4.7709,,1060.3,Not at all,0,1060.3055,,,[],,0,16,16,16,1,audio/Narrative8Situation7.wav,audio/Narrative7Situation7.wav,audio/Narrative6Situation7.wav,audio/Narrative5Situation7.wav,3,5,5,4,,,,,,,,,,,,,,,,,,,,,,,,,,,,,,,,,,,,,,,
,,,,,67e87d0febc7156e3f210a04,2025-07-07_23h18.52.837,group3.4_multiperson,2023.2.2,Win32,60.24096386,686c2ebf0248f13bef9af11f,686c8d93a305f1dc3cc5ca56,,,,,,,,,,,,,,,,,,,,,,,,,,,,,1060.3059,1,audio/Narrative8Situation8.wav,1063.318,,1063.318,1076.1572,"[[70.7,3602],[58.1,3685],[37.9,3769],[23.7,3852],[21.3,10938],[24.5,11022],[26.7,11105],[29.7,11188],[32.6,11272],[34.1,11355],[34.9,11438],[35.8,11522],[35.8,11605],[35.8,11688],[35.8,11771],[35.8,11855],[35.8,11938],[35.8,12022],[35.8,12105],[35.8,12188],[35.8,12272],[35.8,12355],[35.8,12438],[35.8,12522],[35.8,12605],[35.8,12689],[35.8,12772]]",1076.1573,1081.076,59.40296117,3.0932,"[{""rating"":59.402961166159415,""responseTime"":3.0932000000029802}]",space,4.3706,,1081.0761,Definitely yes,100,1081.0813,,,[],,0,17,17,17,1,audio/Narrative8Situation8.wav,audio/Narrative7Situation8.wav,audio/Narrative6Situation8.wav,audio/Narrative5Situation8.wav,3,2,5,3,,,,,,,,,,,,,,,,,,,,,,,,,,,,,,,,,,,,,,,
,,,,,67e87d0febc7156e3f210a04,2025-07-07_23h18.52.837,group3.4_multiperson,2023.2.2,Win32,60.24096386,686c2ebf0248f13bef9af11f,686c8d93a305f1dc3cc5ca56,,,,,,,,,,,,,,,,,,,,,,,,,,,,,1081.0817,1,audio/Narrative8Situation9.wav,1084.094,,1084.0941,1095.416,"[[60.4,5102],[62.6,5185],[63.8,5269],[65.3,5353],[65.8,5435],[66.3,5519],[66.6,5602],[66.6,5685],[66.7,5769],[66.9,5852],[66.9,5935],[66.9,6019],[66.9,6102],[66.9,6185],[66.9,6269],[66.9,6352],[66.9,6435],[66.9,6519],[66.9,6602],[66.9,6686],[66.9,6769],[66.9,6852],[66.9,6936],[66.9,7019],[66.9,7103],[66.9,7186],[66.9,7269],[66.9,7353],[66.9,7436],[66.9,7519],[66.9,7603],[66.9,7686],[66.9,7769],[66.9,7853],[66.9,7936],[66.9,8020],[66.9,8103],[66.9,8186],[66.9,8270],[66.9,8353],[66.9,8436],[66.9,8520],[66.9,8603],[66.9,8686],[66.9,8770],[66.9,8853],[66.9,8937],[66.9,9020],[66.9,9103],[66.9,9187],[66.9,9270],[66.9,9354],[66.9,9437],[66.9,9520],[66.9,9604],[66.9,9687],[66.9,9770],[66.9,9854],[66.9,9937],[66.9,10020],[66.9,10104],[66.9,10187],[66.9,10271],[66.9,10354],[66.9,10437],[66.9,10521],[66.9,10604],[66.9,10687],[66.9,10771],[66.9,10854],[66.9,10938],[66.9,11021],[66.9,11104],[66.9,11188],[66.9,11271]]",1095.4162,1099.3342,84.7399254,2.646,"[{""rating"":84.73992539875057,""responseTime"":2.645999999999958}]",space,3.3764,,1099.3344,Partially,50,1099.3403,,,[],,0,18,18,18,1,audio/Narrative8Situation9.wav,audio/Narrative7Situation9.wav,audio/Narrative6Situation9.wav,audio/Narrative5Situation9.wav,3,2,4,3,,,,,,,,,,,,,,,,,,,,,,,,,,,,,,,,,,,,,,,
,,,,,67e87d0febc7156e3f210a04,2025-07-07_23h18.52.837,group3.4_multiperson,2023.2.2,Win32,60.24096386,686c2ebf0248f13bef9af11f,686c8d93a305f1dc3cc5ca56,,,,,,,,,,,,,,,,,,,,,,,,,,,1114.8306,1117.4091,1117.4339,2,audio/Narrative13Situation2.wav,1117.4341,,1117.4341,1147.1893,"[[999,0],[999,91],[999,174],[999,258],[999,341],[999,425],[999,508],[999,591],[999,675],[999,758],[999,842],[999,925],[999,1008],[999,1092],[999,1175],[999,1258],[999,1342],[999,1425],[999,1508],[999,1592],[999,1675],[999,1759],[999,1842],[999,1925],[999,2009],[999,2092],[999,2175],[999,2259],[999,2342],[999,2426],[999,2509],[999,2592],[999,2676],[999,2759],[999,2842],[999,2926],[999,3009],[999,3093],[999,3176],[999,3260],[999,3343],[999,3427],[999,3509],[999,3593],[999,3677],[999,3759],[999,3843],[999,3926],[999,4009],[999,4093],[62,4177],[61.7,4260],[61.5,4344],[61.5,4426],[61.5,4510],[61.5,4593],[61.6,4677],[61.7,4760],[61.7,4843],[61.7,4927],[61.9,5010],[62.3,5094],[63.4,5178],[65.8,5260],[67,5344],[68.8,5427],[70.2,5511],[72.1,5594],[73.8,5678],[75.8,5761],[77,5844],[77.4,5927],[79,6011],[83.3,6094],[87.2,6178],[89,6261],[89.1,6344],[89.1,6427],[89.1,6511],[89.1,6594],[89.1,6678],[89.1,6761],[89.1,6844],[89.1,6928],[89.1,7011],[89.1,7094],[89.1,7178],[89.1,7261],[89.1,7344],[89.1,7428],[89.1,7511],[89.1,7595],[89.1,7678],[89.1,7761],[89.1,7845],[89.1,7928],[89.1,8011],[89.1,8095],[89.1,8178],[89.1,8261],[89.1,8345],[89.1,8428],[89.1,8511],[89.1,8595],[89.1,8678],[89.1,8762],[89.1,8845],[89.1,8928],[89.1,9012],[89.1,9095],[89.1,9179],[89.1,9262],[89.1,9345],[89.1,9429],[89.1,9512],[89.1,9595],[89.1,9679],[89.1,9762],[89.1,9846],[89.1,9929],[89.1,10012],[89.1,10096],[89.1,10179],[89.1,10262],[89.1,10346],[89.1,10429],[89.1,10513],[89.1,10596],[89.1,10679],[89.1,10763],[89.1,10846],[89.1,10930],[89.1,11013],[89.1,11096],[89.1,11179],[89.1,11263],[89.1,11346],[89.1,11430],[89.1,11513],[89.1,11596],[89.1,11680],[89.1,11763],[89.1,11846],[89.1,11930],[89.1,12013],[89.1,12097],[89.1,12180],[89.1,12263],[89.1,12347],[89.1,12430],[89.1,12513],[89.1,12597],[89.1,12680],[89.1,12764],[89.1,12847],[89.1,12930],[89.1,13014],[89.1,13097],[89.1,13180],[89.1,13264],[89.1,13347],[89.1,13430],[89.1,13514],[89.1,13597],[89.1,13681],[89.1,13764],[89.1,13847],[89.1,13931],[89.1,14014],[89.1,14097],[89.1,14181],[89.1,14264],[89.1,14347],[89.1,14431],[89.1,14514],[89.1,14598],[89.1,14681],[89.1,14764],[89.1,14848],[89.1,14931],[89.1,15015],[89.1,15098],[89.1,15181],[89.1,15265],[89.1,15348],[89.1,15431],[89.1,15515],[89.1,15598],[89.1,15681],[89.1,15765],[89.1,15848],[89.1,15932],[89.1,16015],[89.1,16098],[89.1,16182],[89.1,16265],[89.1,16349],[89.1,16432],[89.1,16515],[89.1,16599],[89.1,16682],[89.1,16765],[89.1,16849],[89.1,16932],[89.1,17016],[89.1,17099],[89.1,17182],[89.1,17266],[89.1,17349],[89.1,17432],[89.1,17516],[89.1,17599],[89.1,17682],[89.1,17766],[89.1,17849],[89.1,17933],[89.1,18016],[89.1,18099],[89.1,18183],[89.1,18266],[89.1,18349],[89.1,18433],[89.1,18516],[89.1,18600],[89.1,18683],[89.1,18766],[89.1,18850],[89.1,18933],[89.1,19016],[89.1,19100],[89.1,19183],[89.1,19267],[89.1,19350],[89.1,19433],[89.1,19517],[89.1,19600],[89.1,19683],[89.1,19767],[89.1,19850],[89.1,19933],[89.1,20017],[89.1,20100],[89.1,20183],[89.1,20267],[89.1,20350],[89.1,20434],[89.1,20517],[89.1,20600],[89.1,20684],[89.1,20767],[89.1,20851],[89.1,20934],[92.2,21018],[95.3,21101],[97.9,21184],[100,21268],[100,21351],[100,21434],[100,21518],[100,21601],[100,21684],[100,21768],[100,21851],[100,21934],[100,22018],[100,22101],[100,22184],[100,22268],[100,22351],[100,22435],[100,22518],[100,22601],[100,22685],[100,22768],[100,22851],[100,22935],[100,23018],[100,23102],[100,23185],[100,23268],[100,23352],[100,23435],[100,23518],[100,23602],[100,23685],[100,23769],[100,23852],[100,23935],[100,24019],[100,24102],[100,24185],[100,24269],[100,24352],[100,24436],[100,24519],[100,24602],[100,24686],[100,24769],[100,24852],[100,24936],[100,25019],[100,25102],[100,25186],[100,25269],[100,25353],[100,25436],[100,25519],[100,25603],[100,25686],[100,25769],[100,25853],[100,25936],[100,26019],[100,26103],[100,26186],[100,26270],[100,26353],[100,26436],[100,26520],[100,26603],[100,26687],[100,26770],[100,26853],[100,26937],[100,27020],[100,27103],[100,27187],[100,27270],[100,27353],[100,27437],[100,27520],[100,27604],[100,27687],[100,27770],[100,27854],[100,27937],[100,28020],[100,28104],[100,28187],[100,28271],[100,28354],[100,28437],[100,28521],[100,28604],[100,28688],[100,28771],[100,28854],[100,28938],[100,29021],[100,29104],[100,29188],[100,29271],[100,29354],[100,29438],[100,29521],[100,29604],[100,29688]]",1147.1896,1147.1934,,,[],,,,1147.1936,Definitely yes,100,1147.1981,,,[],,0,0,0,0,1,audio/Narrative13Situation2.wav,audio/Narrative13Situation2.wav,audio/Narrative13Situation2.wav,audio/Narrative13Situation2.wav,2,2,2,2,,,,,1099.3408,1114.8303,space,14.9739,,,,,,,,,,,,,,,,,,,,,,,,,,,,,,,
,,,,,67e87d0febc7156e3f210a04,2025-07-07_23h18.52.837,group3.4_multiperson,2023.2.2,Win32,60.24096386,686c2ebf0248f13bef9af11f,686c8d93a305f1dc3cc5ca56,,,,,,,,,,,,,,,,,,,,,,,,,,,,,1147.1984,2,audio/Narrative5Situation1.wav,1152.2088,,1152.2089,1165.5022,"[[100,1688],[99.5,1772],[97.8,1855],[95.6,1939],[92.1,2022],[89.1,2105],[86.4,2189],[83.1,2273],[77.7,2356],[71.6,2439],[75.7,8108],[73.8,8191],[73.2,8271],[73.2,8353],[73.2,8436],[73.2,8524],[73.2,8607],[73.2,8688],[73.2,8770],[73.2,8855],[73.2,8937],[73.2,9020],[73.2,9103],[73.2,9187],[73.2,9270],[73.2,9353],[73.2,9437],[73.2,9520],[73.2,9603],[73.2,9687],[73.2,9770],[73.2,9858],[73.2,9937],[73.2,10024],[73.2,10104],[73.2,10187],[73.2,10270],[73.2,10354],[73.2,10441],[73.2,10525],[73.2,10604],[73.2,10687],[73.2,10775],[73.2,10854],[73.2,10942],[73.2,11021],[73.2,11104],[73.2,11191],[73.2,11275],[73.2,11354],[73.2,11442],[73.2,11521],[73.2,11608],[73.2,11692],[73.2,11772],[73.2,11854],[73.2,11942],[73.2,12021],[73.2,12108],[73.2,12192],[73.2,12272],[73.2,12359],[73.2,12438],[73.2,12526],[73.2,12605],[73.2,12688],[73.2,12776],[73.2,12855],[73.2,12942],[73.2,13022],[73.2,13105],[73.2,13193],[73.2,13274]]",1165.5024,1171.3718,87.96196709,4.9017,"[{""rating"":87.96196709306852,""responseTime"":4.9016999999955715}]",space,5.3316,,1171.3719,Definitely yes,100,1188.3079,92.64857319,8.153,"[{""rating"":92.6485731938946,""responseTime"":8.15300000000002}]",space,0,1,1,1,1,audio/Narrative7Situation1.wav,audio/Narrative8Situation1.wav,audio/Narrative5Situation1.wav,audio/Narrative6Situation1.wav,2,5,5,2,,,16.4011,,,,,,,,,,,,,,,,,,,,,,,,,,,,,,,,,,,,
,,,,,67e87d0febc7156e3f210a04,2025-07-07_23h18.52.837,group3.4_multiperson,2023.2.2,Win32,60.24096386,686c2ebf0248f13bef9af11f,686c8d93a305f1dc3cc5ca56,,,,,,,,,,,,,,,,,,,,,,,,,,,,,1188.3084,2,audio/Narrative5Situation2.wav,1191.3092,,1191.3093,1220.7727,"[[91.8,2268],[86.6,2351],[80.8,2434],[77.4,2517],[74.9,2601],[72.3,2684],[69.8,2768],[67.5,2852],[65.3,2934],[64.7,3017],[64.7,3101],[64.7,3184],[64.7,3268],[64.7,3351],[64.7,3434],[64.7,3518],[64.7,3601],[64.7,3684],[64.7,3768],[64.8,3851],[65.3,3935],[65.8,4018],[66.4,4101],[66.7,4185],[66.9,4268],[67.2,4352],[68,4435],[69.9,4519],[70.4,4601],[70.5,4685],[70.5,4768],[70.5,4851],[70.5,4935],[70.5,5018],[70.5,5102],[70.5,5185],[70.5,5268],[70.5,5352],[70.5,5435],[70.5,5519],[70.5,5602],[70.5,5685],[70.5,5769],[70.5,5852],[70.5,5935],[70.5,6019],[70.5,6102],[70.5,6185],[70.5,6269],[70.5,6352],[70.5,6436],[70.5,6519],[70.5,6602],[70.5,6686],[70.5,6769],[70.5,6852],[70.5,6936],[70.5,7019],[70.5,7102],[70.5,7186],[70.5,7269],[70.5,7353],[70.5,7436],[70.5,7519],[70.5,7603],[70.5,7686],[70.5,7769],[70.5,7853],[70.5,7936],[70.5,8020],[70.5,8103],[70.5,8186],[70.5,8270],[70.5,8353],[70.5,8436],[70.5,8520],[70.5,8603],[70.5,8686],[70.5,8770],[70.5,8854],[70.5,8937],[70.5,9020],[70.5,9103],[70.5,9187],[70.5,9270],[70.5,9354],[70.5,9437],[70.5,9520],[70.5,9604],[70.5,9687],[70.5,9770],[70.5,9854],[70.5,9937],[70.5,10021],[70.5,10104],[70.5,10187],[70.5,10271],[70.5,10354],[70.5,10437],[70.5,10521],[70.5,10604],[70.5,10688],[70.5,10771],[70.5,10854],[70.5,10938],[70.5,11021],[70.5,11104],[70.5,11188],[70.5,11271],[70.5,11354],[70.5,11438],[70.5,11521],[70.5,11605],[70.5,11688],[70.5,11771],[70.5,11855],[70.5,11938],[70.5,12021],[70.5,12105],[70.5,12188],[70.5,12272],[70.5,12355],[70.5,12438],[70.5,12522],[70.5,12605],[70.5,12688],[70.5,12772],[70.5,12855],[70.5,12939],[70.5,13022],[70.5,13105],[70.5,13189],[70.5,13272],[70.5,13355],[70.5,13439],[70.5,13522],[70.5,13606],[70.5,13689],[70.5,13772],[70.5,13856],[70.5,13939],[70.5,14022],[70.5,14106],[70.5,14189],[70.5,14272],[70.5,14356],[70.5,14439],[70.5,14523],[70.5,14606],[70.5,14689],[70.5,14773],[70.5,14856],[70.5,14939],[70.5,15023],[70.5,15106],[70.5,15190],[70.5,15273],[70.5,15356],[70.5,15440],[70.5,15523],[70.5,15606],[70.5,15690],[70.5,15773],[70.5,15856],[70.5,15940],[70.5,16023],[70.5,16107],[70.5,16190],[70.5,16273],[70.5,16357],[70.5,16440],[70.5,16523],[70.5,16607],[70.5,16690],[70.5,16774],[70.5,16857],[70.5,16940],[70.5,17024],[70.5,17107],[70.5,17190],[70.5,17274],[70.5,17357],[70.5,17441],[70.5,17524],[70.5,17607],[70.5,17691],[70.5,17774],[70.5,17857],[70.5,17941],[70.5,18024],[70.5,18107],[70.5,18191],[70.5,18274],[70.5,18358],[70.5,18441],[70.5,18524],[70.5,18608],[70.5,18691],[70.5,18774],[70.5,18858],[70.5,18941],[70.5,19025],[70.5,19108],[70.5,19192],[70.5,19275],[70.5,19358],[70.5,19442],[70.5,19525],[70.5,19608],[70.5,19692],[70.5,19775],[70.5,19858],[70.5,19942],[70.5,20025],[70.5,20108],[70.5,20192],[70.5,20275],[70.5,20359],[70.5,20442],[70.5,20525],[70.5,20609],[70.5,20692],[70.5,20775],[70.5,20859],[70.5,20942],[70.5,21025],[70.5,21109],[70.5,21192],[70.5,21276],[70.5,21359],[70.5,21442],[70.5,21526],[70.5,21609],[70.5,21692],[70.5,21776],[70.5,21859],[70.5,21943],[70.5,22026],[70.5,22109],[70.5,22193],[70.5,22276],[70.5,22359],[70.5,22443],[70.5,22526],[70.5,22609],[70.5,22693],[70.5,22776],[70.5,22860],[70.5,22943],[70.5,23026],[70.5,23110],[69.5,23193],[68.8,23277],[68.2,23360],[68,23443],[68,23527],[68,23610],[68,23693],[68.2,23777],[68.5,23861],[68.9,23944],[69.2,24027],[69.4,24110],[69.5,24194],[69.5,24277],[69.5,24360],[69.5,24444],[69.5,24527],[69.5,24610],[69.5,24694],[69.5,24777],[69.5,24861],[69.5,24944],[69.5,25027],[69.5,25111],[69.5,25194],[69.5,25277],[69.5,25361],[69.5,25444],[69.5,25528],[69.5,25611],[69.5,25694],[69.5,25778],[69.5,25861],[69.5,25944],[69.5,26028],[69.5,26111],[69.5,26194],[69.5,26278],[69.5,26361],[69.5,26445],[69.5,26528],[69.5,26611],[69.5,26695],[69.5,26778],[69.5,26861],[69.5,26945],[69.5,27028],[69.5,27111],[69.5,27195],[69.5,27278],[69.5,27362],[69.5,27445],[69.5,27528],[69.5,27612],[69.5,27695],[69.5,27779],[69.5,27862],[69.5,27945],[69.5,28029],[69.5,28112],[69.5,28195],[69.5,28279],[69.5,28362],[69.5,28446],[69.5,28529],[69.5,28612],[69.5,28696],[69.5,28779],[69.5,28863],[69.5,28946],[69.5,29029],[69.5,29113],[69.5,29196],[69.5,29279],[69.5,29363],[69.5,29446]]",1220.7731,1226.9755,21.91011236,3.6918,"[{""rating"":21.910112359550567,""responseTime"":3.6918000000043776}]",space,5.6592,,1226.9756,Not at all,0,1226.9808,,,[],,0,2,2,2,1,audio/Narrative7Situation2.wav,audio/Narrative8Situation2.wav,audio/Narrative5Situation2.wav,audio/Narrative6Situation2.wav,3,3,3,3,,,,,,,,,,,,,,,,,,,,,,,,,,,,,,,,,,,,,,,
,,,,,67e87d0febc7156e3f210a04,2025-07-07_23h18.52.837,group3.4_multiperson,2023.2.2,Win32,60.24096386,686c2ebf0248f13bef9af11f,686c8d93a305f1dc3cc5ca56,,,,,,,,,,,,,,,,,,,,,,,,,,,,,1226.9811,2,audio/Narrative5Situation3.wav,1229.9934,,1229.9935,1243.9,"[[21.3,2018],[20.3,2101],[32.9,2851],[34.9,2935],[36,3018],[37,3101],[37.6,3184],[38.6,3268],[39.3,3351],[40.1,3435],[41.2,3518],[43,3602],[51.1,3685],[52.4,3768],[52.5,3851],[52.5,3934],[52.5,4018],[52.5,4101],[52.5,4185],[52.5,4268],[52.5,4351],[52.5,4435],[52.5,4518],[52.5,4601],[52.5,4685],[52.5,4768],[52.5,4851],[52.5,4935],[55.6,5019],[58.5,5102],[60.4,5185],[62,5269],[63.9,5352],[64.8,5435],[65.3,5519],[65.7,5602],[66.1,5686],[66.1,5769],[66.3,5852],[66.4,5935],[66.6,6019],[66.6,6102],[66.6,6185],[66.6,6269],[66.6,6352],[66.6,6436],[66.6,6519],[66.6,6602],[66.6,6686],[66.6,6769],[66.6,6852],[66.6,6936],[66.6,7019],[66.6,7103],[66.6,7186],[66.6,7269],[66.6,7353],[66.6,7436],[66.6,7519],[66.6,7603],[66.6,7686],[66.6,7770],[66.6,7853],[66.6,7936],[66.6,8020],[66.6,8103],[66.6,8186],[66.6,8270],[66.6,8353],[66.6,8436],[66.6,8520],[66.6,8603],[66.6,8687],[66.6,8770],[66.6,8853],[66.6,8937],[66.6,9020],[66.6,9103],[66.6,9187],[66.6,9270],[66.6,9354],[66.6,9437],[66.6,9520],[66.6,9604],[66.6,9687],[66.6,9770],[66.6,9854],[66.6,9937],[66.6,10021],[66.6,10104],[66.6,10187],[66.6,10271],[66.6,10354],[66.6,10437],[66.6,10521],[66.6,10604],[66.6,10687],[66.6,10771],[66.6,10854],[66.6,10938],[66.6,11021],[66.6,11104],[66.6,11188],[66.6,11271],[66.6,11354],[66.6,11438],[66.6,11521],[66.6,11605],[66.6,11688],[66.6,11771],[66.6,11855],[66.6,11938],[66.6,12022],[66.6,12105],[66.6,12188],[66.6,12271],[66.6,12355],[66.6,12438],[66.6,12522],[66.6,12605],[66.6,12688],[66.6,12772],[66.6,12855],[66.6,12938],[66.6,13022],[66.6,13105],[66.6,13189],[66.6,13272],[66.6,13355],[66.6,13439],[66.6,13522],[66.6,13606],[66.6,13689],[66.6,13772],[66.6,13856]]",1243.9002,1248.852,21.61719948,3.2768,"[{""rating"":21.61719947824894,""responseTime"":3.276799999997138}]",space,4.41,,1248.8521,Partially,50,1248.8575,,,[],,0,3,3,3,1,audio/Narrative7Situation3.wav,audio/Narrative8Situation3.wav,audio/Narrative5Situation3.wav,audio/Narrative6Situation3.wav,8,4,3,5,,,,,,,,,,,,,,,,,,,,,,,,,,,,,,,,,,,,,,,
,,,,,67e87d0febc7156e3f210a04,2025-07-07_23h18.52.837,group3.4_multiperson,2023.2.2,Win32,60.24096386,686c2ebf0248f13bef9af11f,686c8d93a305f1dc3cc5ca56,,,,,,,,,,,,,,,,,,,,,,,,,,,,,1248.8578,2,audio/Narrative5Situation4.wav,1249.869,,1249.869,1270.245,"[[22.8,2601],[61.9,3768],[63.2,3851],[65,3935],[66.1,4019],[67.3,4102],[68.8,4185],[69.2,4268],[69.2,4351],[69.2,4435],[69.2,4518],[69.2,4601],[69.2,4685],[69.2,4768],[69.1,4852],[68.9,4935],[68.8,5018],[68.2,5102],[68,5185],[67.9,5269],[67.8,5352],[67.6,5435],[67.5,5519],[67.5,5603],[67,5686],[65.8,5770],[62.8,5853],[59.4,5936],[54.7,6019],[52.5,6103],[50.9,6186],[49.6,6269],[48.9,6353],[48.9,6436],[48.9,6519],[48.9,6602],[49.2,6686],[49.9,6770],[50.5,6853],[50.6,6936],[50.6,7019],[50.6,7103],[50.6,7186],[50.6,7269],[50.6,7353],[50.6,7436],[50.6,7519],[50.6,7603],[50.6,7686],[50.6,7770],[50.6,7853],[51.1,7937],[51.3,8020],[52.1,8104],[53,8187],[54.1,8270],[55.2,8353],[56,8437],[56.6,8520],[57.9,8604],[58.7,8687],[59.1,8770],[59.5,8854],[59.8,8937],[60,9021],[60,9104],[60,9187],[60,9270],[60,9354],[60,9437],[60,9520],[60,9604],[60,9687],[60,9771],[60,9854],[60,9937],[60.7,10021],[62.6,10105],[66.3,10188],[70.1,10271],[73.5,10355],[77.4,10438],[78.9,10521],[79.3,10604],[79.5,10688],[79.6,10771],[79.6,10854],[79.6,10938],[79.6,11021],[79.6,11105],[79.6,11188],[79.6,11271],[79.6,11355],[79.6,11438],[79.6,11521],[80.3,11605],[81.7,11689],[82.8,11772],[83.9,11855],[85.6,11939],[87.2,12022],[87.7,12105],[87.8,12188],[88.3,12272],[88.7,12355],[88.8,12438],[88.8,12522],[88.8,12605],[88.8,12688],[88.8,12772],[88.8,12855],[88.8,12939],[88.8,13022],[88.8,13105],[88.8,13189],[88.8,13272],[88.8,13355],[88.8,13439],[88.8,13522],[88.8,13606],[88.8,13689],[88.8,13772],[88.8,13856],[88.8,13939],[88.8,14022],[88.8,14106],[88.8,14189],[88.8,14273],[88.8,14356],[88.8,14439],[88.8,14523],[88.8,14606],[88.8,14690],[88.8,14773],[88.8,14856],[88.8,14940],[88.8,15023],[88.8,15106],[88.8,15190],[88.8,15273],[88.8,15356],[88.8,15440],[88.8,15523],[88.8,15606],[88.8,15690],[88.8,15773],[88.8,15857],[88.8,15940],[88.8,16024],[88.8,16107],[88.8,16190],[88.8,16273],[88.8,16357],[88.8,16440],[88.8,16524],[88.8,16607],[88.8,16690],[88.8,16774],[88.8,16857],[88.8,16941],[88.8,17024],[88.8,17107],[88.8,17191],[88.8,17274],[88.8,17357],[88.8,17441],[88.8,17524],[88.8,17607],[88.8,17691],[88.8,17774],[88.8,17858],[88.8,17941],[88.8,18024],[88.8,18108],[88.8,18191],[88.8,18274],[88.8,18358],[88.8,18441],[88.8,18525],[88.8,18608],[88.8,18691],[88.8,18775],[88.8,18858],[88.8,18941],[88.8,19025],[88.8,19108],[88.8,19192],[88.8,19275],[88.8,19358],[88.8,19442],[88.8,19525],[88.8,19608],[88.8,19692],[88.8,19775],[88.8,19858],[88.8,19942],[88.8,20025],[88.8,20109],[88.8,20192],[88.8,20275],[88.8,20359]]",1270.2452,1275.8642,48.85809744,4.4937,"[{""rating"":48.85809743930067,""responseTime"":4.493700000003173}]",space,5.0719,,1275.8642,Partially,50,1275.8675,,,[],,0,4,4,4,1,audio/Narrative7Situation4.wav,audio/Narrative8Situation4.wav,audio/Narrative5Situation4.wav,audio/Narrative6Situation4.wav,3,3,1,2,,,,,,,,,,,,,,,,,,,,,,,,,,,,,,,,,,,,,,,
,,,,,67e87d0febc7156e3f210a04,2025-07-07_23h18.52.837,group3.4_multiperson,2023.2.2,Win32,60.24096386,686c2ebf0248f13bef9af11f,686c8d93a305f1dc3cc5ca56,,,,,,,,,,,,,,,,,,,,,,,,,,,,,1275.8678,2,audio/Narrative5Situation5.wav,1280.8831,,1280.8832,1296.3069,"[[48.7,3851],[42.4,3935],[37.6,4018],[36.3,4101],[36.1,4184],[36.1,4268],[36.1,4351],[36.1,4435],[36.1,4518],[36.1,4601],[36.1,4685],[36.1,4768],[36.1,4851],[36.1,4935],[36.1,5018],[36.1,5102],[36.1,5185],[36.1,5269],[36.1,5352],[36.1,5435],[36.1,5518],[36.1,5602],[36.1,5685],[36.1,5769],[36.1,5852],[36.1,5935],[36.1,6019],[36.1,6102],[36.1,6185],[36.1,6269],[36.1,6352],[36.1,6435],[36.1,6519],[36.1,6602],[36.1,6686],[36.1,6769],[36.1,6852],[36.1,6936],[36.1,7019],[36.1,7102],[36.1,7186],[36.1,7269],[36.1,7353],[36.1,7436],[36.1,7519],[36.1,7603],[36.1,7686],[36.1,7769],[36.1,7853],[36.1,7936],[36.1,8019],[36.1,8103],[36.1,8186],[36.1,8270],[36.1,8353],[36.1,8436],[36.1,8520],[36.1,8603],[36.6,8687],[46.2,8770],[54.7,8854],[60.3,8937],[65.1,9020],[68.8,9104],[70.4,9187],[70.4,9270],[70.4,9353],[70.4,9437],[70.2,9520],[70.1,9604],[70.1,9687],[70.1,9771],[70.1,9854],[70.1,9937],[70.1,10020],[70.1,10104],[70.1,10187],[70.1,10271],[70.1,10354],[70.1,10437],[70.1,10521],[70.1,10604],[70.1,10688],[70.1,10771],[70.1,10854],[70.1,10938],[70.1,11021],[70.1,11104],[70.1,11188],[70.1,11271],[70.1,11354],[70.1,11438],[70.1,11521],[70.1,11605],[70.1,11688],[70.1,11771],[70.1,11855],[70.1,11938],[70.1,12021],[70.1,12105],[70.1,12188],[70.1,12272],[70.1,12355],[70.1,12438],[70.1,12522],[70.1,12605],[70.1,12689],[70.1,12772],[70.1,12855],[70.1,12939],[70.1,13022],[70.1,13105],[70.1,13189],[70.1,13272],[70.1,13355],[70.1,13439],[70.1,13522],[70.1,13605],[70.1,13689],[70.1,13772],[70.1,13855],[70.1,13939],[70.1,14022],[70.1,14106],[70.1,14189],[70.1,14273],[70.1,14356],[70.1,14439],[70.1,14522],[70.1,14606],[70.1,14689],[70.1,14773],[70.1,14856],[70.1,14940],[70.1,15023],[70.1,15106],[70.1,15189],[70.1,15273],[70.1,15356]]",1296.3071,1303.21,31.57623744,4.6414,"[{""rating"":31.576237442504407,""responseTime"":4.641399999998612}]",space,6.3642,,1303.2101,Definitely yes,100,1303.216,,,[],,0,5,5,5,1,audio/Narrative7Situation5.wav,audio/Narrative8Situation5.wav,audio/Narrative5Situation5.wav,audio/Narrative6Situation5.wav,5,2,5,2,,,,,,,,,,,,,,,,,,,,,,,,,,,,,,,,,,,,,,,
,,,,,67e87d0febc7156e3f210a04,2025-07-07_23h18.52.837,group3.4_multiperson,2023.2.2,Win32,60.24096386,686c2ebf0248f13bef9af11f,686c8d93a305f1dc3cc5ca56,,,,,,,,,,,,,,,,,,,,,,,,,,,,,1303.2164,2,audio/Narrative5Situation6.wav,1306.228,,1306.228,1311.9145,"[[33.2,1267],[35.7,1350],[37.6,1434],[42,1517],[45.6,1601],[48.6,1684],[54.4,1768],[59.7,1851],[62,1934],[64.4,2017],[65.8,2101],[67,2184],[67.5,2267],[67.6,2351],[67.6,2434],[67.8,2517],[67.8,2601],[67.8,2684],[67.9,2768],[67.9,2851],[67.9,2934],[67.9,3018],[67.9,3101],[67.9,3184],[67.9,3268],[67.9,3351],[67.9,3434],[67.9,3518],[67.9,3601],[67.9,3684],[67.9,3768],[67.9,3851],[67.9,3934],[67.9,4018],[67.9,4101],[67.9,4185],[67.9,4268],[67.9,4351],[67.9,4435],[68.6,4518],[69.5,4602],[70.2,4685],[70.5,4768],[70.8,4852],[71,4935],[71.3,5019],[71.4,5102],[71.6,5185],[71.6,5268],[71.6,5352],[71.6,5435],[71.6,5519],[71.9,5602],[72.4,5686]]",1311.9147,1319.0338,56.32737591,5.7745,"[{""rating"":56.327375912492286,""responseTime"":5.774499999999989}]",space,6.5721,,1319.0339,Definitely yes,100,1319.0371,,,[],,0,6,6,6,1,audio/Narrative7Situation6.wav,audio/Narrative8Situation6.wav,audio/Narrative5Situation6.wav,audio/Narrative6Situation6.wav,3,2,3,2,,,,,,,,,,,,,,,,,,,,,,,,,,,,,,,,,,,,,,,
,,,,,67e87d0febc7156e3f210a04,2025-07-07_23h18.52.837,group3.4_multiperson,2023.2.2,Win32,60.24096386,686c2ebf0248f13bef9af11f,686c8d93a305f1dc3cc5ca56,,,,,,,,,,,,,,,,,,,,,,,,,,,,,1319.0374,2,audio/Narrative5Situation7.wav,1323.0523,,1323.0523,1344.096,"[[60.3,9688],[63.5,9938],[63.9,10020],[63.9,10104],[63.9,10187],[63.9,10271],[63.9,10354],[63.9,10437],[63.9,10521],[63.9,10604],[63.9,10688],[63.9,10771],[63.9,10854],[63.9,10938],[63.9,11021],[63.9,11104],[63.9,11188],[63.9,11271],[63.9,11354],[63.9,11438],[63.9,11521],[63.9,11605],[63.9,11688],[63.9,11771],[63.9,11855],[63.9,11938],[63.9,12021],[63.9,12105],[63.9,12188],[63.9,12272],[63.9,12355],[63.9,12438],[63.9,12522],[63.9,12605],[63.9,12688],[63.9,12772],[63.9,12855],[63.9,12939],[63.9,13022],[63.9,13105],[63.9,13189],[63.8,13272],[63.6,13356],[62.6,13439],[57.4,13523],[47.8,13606],[37.9,13773],[36.1,13856],[35.2,13940],[35.1,14022],[35.1,14106],[35.1,14189],[35.1,14272],[35.5,14356],[39.9,14440],[43.1,14523],[44.2,14606],[44.3,14689],[45.8,14773],[47.5,14856],[49.7,14940],[53.4,15023],[55.4,15106],[56.8,15190],[56.9,15273],[57.4,15356],[57.6,15440],[57.6,15523],[57.6,15606],[57.6,15690],[57.6,15773],[57.6,15856],[57.6,15940],[57.6,16023],[57.6,16108],[57.6,16190],[57.5,16276],[56.6,16357],[55.9,16440],[54.6,16524],[54,16607],[54,16690],[54,16774],[54,16857],[54,16941],[54.9,17024],[55.3,17134],[55.6,17203],[55.7,17275],[55.7,17359],[55.7,17450],[55.7,17524],[55.7,17608],[55.7,17692],[55.7,17775],[55.7,17860],[55.7,17942],[55.7,18025],[55.7,18108],[55.7,18193],[55.7,18275],[55.7,18358],[55.7,18442],[55.7,18525],[55.7,18608],[55.7,18691],[55.7,18775],[55.7,18858],[55.7,18942],[55.7,19025],[55.7,19108],[55.7,19192],[55.7,19275],[55.7,19359],[55.7,19442],[55.7,19525],[55.7,19608],[55.7,19692],[55.7,19775],[55.7,19859],[55.7,19943],[55.7,20027],[55.7,20111],[55.7,20194],[55.7,20276],[55.7,20359],[55.7,20442],[55.7,20526],[55.7,20609],[55.7,20693],[55.7,20776],[55.7,20859],[55.7,20943],[55.7,21026]]",1344.0964,1347.9523,32.74788897,2.7819,"[{""rating"":32.747888967710935,""responseTime"":2.7818999999985863}]",space,3.3019,,1347.9524,Not at all,0,1347.9568,,,[],,0,7,7,7,1,audio/Narrative7Situation7.wav,audio/Narrative8Situation7.wav,audio/Narrative5Situation7.wav,audio/Narrative6Situation7.wav,5,3,4,5,,,,,,,,,,,,,,,,,,,,,,,,,,,,,,,,,,,,,,,
,,,,,67e87d0febc7156e3f210a04,2025-07-07_23h18.52.837,group3.4_multiperson,2023.2.2,Win32,60.24096386,686c2ebf0248f13bef9af11f,686c8d93a305f1dc3cc5ca56,,,,,,,,,,,,,,,,,,,,,,,,,,,,,1347.9572,2,audio/Narrative5Situation8.wav,1350.9656,,1350.9656,1359.8022,"[[33.2,2450],[34.2,2534],[35.8,2617],[37.1,2700],[38.2,2784],[40.1,2868],[43.1,2951],[48.1,3034],[54.1,3117],[57.6,3201],[59.7,3284],[61.9,3368],[62.2,3450],[62.2,3534],[62.2,3617],[62.2,3700],[62.2,3784],[62.2,3867],[62.2,3951],[62.2,4034],[62.2,4117],[62.2,4201],[62.2,4284],[62.2,4367],[62.2,4451],[62.2,4534],[62.3,4617],[62.6,4701],[62.9,4784],[63.6,4867],[64.1,4951],[64.2,5034],[64.2,5118],[64.2,5201],[64.2,5284],[64.2,5368],[64.2,5451],[64.2,5535],[64.2,5618],[64.2,5701],[64.2,5785],[64.2,5868],[64.2,5951],[64.2,6035],[64.2,6118],[64.2,6201],[64.2,6285],[64.2,6368],[64.2,6452],[64.2,6535],[64.2,6618],[64.2,6702],[64.2,6785],[64.2,6868],[64.2,6952],[64.2,7035],[64.2,7119],[64.2,7202],[64.2,7285],[64.2,7369],[64.2,7452],[64.2,7535],[65.1,7619],[66,7702],[66.7,7786],[67.3,7869],[67.8,7953],[67.8,8036],[67.8,8119],[67.8,8202],[67.8,8286],[67.8,8369],[67.8,8452],[67.8,8536],[67.8,8619],[67.8,8702],[67.8,8786]]",1359.8024,1365.0547,53.3982471,2.9579,"[{""rating"":53.398247099475974,""responseTime"":2.957900000005793}]",space,4.7076,,1365.0548,Definitely yes,100,1365.0606,,,[],,0,8,8,8,1,audio/Narrative7Situation8.wav,audio/Narrative8Situation8.wav,audio/Narrative5Situation8.wav,audio/Narrative6Situation8.wav,2,3,3,5,,,,,,,,,,,,,,,,,,,,,,,,,,,,,,,,,,,,,,,
,,,,,67e87d0febc7156e3f210a04,2025-07-07_23h18.52.837,group3.4_multiperson,2023.2.2,Win32,60.24096386,686c2ebf0248f13bef9af11f,686c8d93a305f1dc3cc5ca56,,,,,,,,,,,,,,,,,,,,,,,,,,,,,1365.061,2,audio/Narrative5Situation9.wav,1368.0727,,1368.0728,1407.6239,"[[53.8,1850],[56.2,1934],[58.1,2017],[59.4,2100],[60,2184],[60.3,2267],[60.7,2350],[61.3,2434],[61.5,2517],[62,2600],[63.2,2684],[63.5,2767],[63.5,2850],[63.5,2934],[63.5,3017],[63.5,3101],[63.5,3184],[63.5,3267],[63.6,3351],[63.8,3434],[64.1,3518],[64.4,3601],[65.1,3685],[65.4,3768],[65.6,3851],[65.6,3934],[65.6,4018],[65.6,4101],[65.6,4184],[65.6,4268],[65.6,4351],[65.6,4435],[65.6,4518],[65.6,4601],[65.6,4685],[66,4768],[66.6,4852],[67.5,4935],[67.8,5018],[67.8,5101],[67.8,5185],[67.8,5268],[67.8,5352],[67.8,5435],[67.8,5518],[67.8,5602],[67.8,5685],[67.8,5769],[67.8,5852],[67.8,5935],[67.8,6019],[67.8,6102],[67.8,6185],[67.8,6269],[67.8,6352],[67.8,6435],[67.8,6519],[67.8,6602],[67.8,6686],[67.8,6769],[67.8,6852],[67.8,6936],[67.8,7019],[67.8,7102],[67.8,7186],[67.8,7269],[67.8,7352],[67.8,7436],[67.8,7519],[67.8,7603],[67.8,7686],[67.8,7769],[67.8,7853],[67.8,7936],[67.8,8019],[67.8,8103],[67.8,8186],[67.8,8270],[67.8,8353],[67.8,8436],[67.8,8520],[67.8,8603],[67.8,8686],[67.8,8770],[67.8,8853],[67.8,8937],[67.8,9020],[67.8,9103],[67.8,9187],[67.8,9270],[67.8,9353],[67.8,9437],[67.8,9520],[67.8,9603],[67.8,9687],[67.8,9770],[67.8,9854],[67.8,9937],[67.8,10020],[67.8,10104],[67.8,10187],[67.8,10270],[67.8,10354],[67.8,10437],[67.8,10521],[67.8,10604],[67.8,10687],[67.8,10771],[67.8,10854],[67.8,10938],[67.8,11021],[67.8,11104],[67.8,11188],[67.8,11271],[67.8,11354],[67.8,11438],[67.8,11521],[67.8,11605],[67.8,11688],[67.8,11771],[67.8,11855],[67.8,11938],[67.8,12021],[67.8,12105],[67.8,12188],[67.8,12271],[67.8,12355],[67.8,12438],[67.8,12521],[67.8,12605],[67.8,12688],[67.8,12772],[67.8,12855],[67.8,12938],[69.1,13022],[70.4,13106],[72,13190],[74.5,13272],[77.6,13356],[80.3,13439],[83.6,13522],[87.1,13606],[89.3,13690],[90.9,13772],[92.9,13856],[96,13939],[97,14023],[97,14106],[97,14189],[97,14272],[97,14356],[97,14439],[97,14522],[97,14606],[97,14689],[97,14773],[97,14856],[97,14939],[97,15023],[96.9,15106],[94.1,15190],[91.3,15273],[88.5,15357],[87.7,15439],[87.7,15523],[87.7,15606],[87.7,15690],[87.7,15773],[87.7,15856],[87.7,15940],[87.7,16023],[87.7,16106],[87.7,16190],[87.7,16273],[87.7,16357],[87.7,16440],[87.7,16523],[87.7,16607],[87.7,16690],[87.7,16773],[87.7,16857],[87.7,16940],[87.7,17024],[87.7,17107],[87.7,17190],[87.7,17274],[87.7,17357],[87.7,17440],[87.7,17524],[87.7,17607],[87.7,17691],[87.7,17774],[87.7,17857],[87.7,17941],[87.7,18024],[87.7,18107],[87.7,18191],[87.7,18274],[87.7,18357],[87.7,18441],[87.7,18524],[87.7,18608],[87.7,18691],[87.7,18774],[87.7,18858],[87.7,18941],[87.7,19024],[87.7,19108],[87.7,19191],[87.7,19275],[87.7,19358],[87.7,19441],[87.7,19525],[87.7,19608],[87.7,19692],[87.7,19775],[87.7,19858],[87.7,19942],[87.7,20025],[87.7,20108],[87.7,20192],[87.7,20275],[87.7,20358],[87.7,20442],[87.7,20525],[87.7,20609],[87.7,20692],[87.7,20775],[87.7,20859],[87.7,20942],[87.7,21025],[87.7,21109],[87.7,21192],[87.7,21275],[87.7,21359],[87.7,21442],[87.7,21526],[87.7,21609],[87.7,21692],[87.7,21776],[87.7,21859],[87.7,21942],[87.7,22026],[87.7,22109],[87.7,22193],[87.7,22276],[87.7,22359],[87.7,22443],[87.7,22526],[87.7,22609],[87.7,22693],[87.7,22776],[87.7,22860],[87.7,22943],[87.7,23026],[87.7,23110],[87.7,23193],[87.7,23276],[87.7,23360],[87.7,23443],[87.7,23526],[87.7,23610],[87.7,23693],[87.7,23777],[87.7,23860],[87.7,23943],[87.7,24027],[87.7,24110],[87.7,24193],[87.7,24277],[87.7,24360],[87.7,24444],[87.7,24527],[87.7,24610],[87.7,24694],[87.7,24777],[87.7,24860],[87.7,24944],[87.7,25027],[87.7,25110],[87.7,25194],[87.7,25277],[87.7,25361],[87.7,25444],[87.7,25527],[87.7,25611],[87.7,25694],[87.7,25778],[87.7,25861],[87.7,25944],[87.7,26028],[87.7,26111],[87.7,26194],[87.7,26278],[87.7,26361],[87.7,26444],[87.7,26528],[87.7,26611],[87.7,26695],[87.7,26778],[87.7,26861],[87.7,26945],[87.7,27028],[87.7,27111],[87.7,27195],[87.7,27278],[87.7,27362],[87.7,27445],[87.7,27528],[87.7,27612],[87.7,27695],[87.7,27778],[87.7,27862],[87.7,27945],[87.7,28028],[87.7,28112],[87.7,28195],[87.7,28279],[87.7,28362],[87.7,28445],[87.7,28529],[87.7,28612],[87.7,28696],[87.7,28779],[87.7,28862],[87.7,28946],[87.7,29029],[87.7,29112],[87.7,29196],[87.7,29279],[87.7,29362],[87.7,29446],[87.7,29529],[87.7,29613],[87.7,29696],[87.7,29779],[87.7,29863],[87.7,29946],[87.7,30029],[87.7,30113],[87.7,30196],[87.7,30279],[87.7,30363],[87.7,30446],[87.7,30530],[87.7,30613],[87.7,30696],[87.7,30780],[87.7,30863],[87.7,30947],[87.7,31030],[87.7,31113],[87.7,31197],[87.7,31280],[87.7,31363],[87.7,31447],[87.7,31530],[87.7,31614],[87.7,31697],[87.7,31780],[87.7,31864],[87.7,31947],[87.7,32030],[87.7,32114],[87.7,32197],[87.7,32280],[87.7,32364],[87.7,32447],[87.7,32531],[87.7,32614],[87.7,32697],[87.7,32781],[87.7,32864],[87.7,32947],[87.7,33031],[87.7,33114],[87.7,33197],[87.7,33281],[87.7,33364],[87.7,33448],[87.7,33531],[87.7,33614],[87.7,33698],[87.7,33781],[87.7,33865],[87.7,33948],[87.7,34031],[87.7,34115],[87.7,34198],[87.7,34281],[87.7,34365],[87.7,34448],[87.7,34531],[87.7,34615],[87.7,34698],[87.7,34782],[87.7,34865],[87.7,34948],[87.7,35032],[87.7,35115],[87.7,35198],[87.7,35282],[87.7,35365],[87.7,35449],[87.7,35532],[87.7,35615],[87.7,35699],[87.7,35782],[87.7,35865],[87.7,35949],[87.7,36032],[87.7,36116],[87.7,36199],[87.7,36282],[87.7,36366],[87.7,36449],[87.7,36532],[87.7,36616],[87.7,36699],[87.7,36782],[87.7,36866],[87.7,36949],[87.7,37033],[87.7,37116],[87.7,37199],[87.7,37283],[87.7,37366],[87.7,37449],[87.7,37533],[87.7,37616],[87.7,37700],[87.7,37783],[87.7,37866],[87.7,37950],[87.7,38033],[87.7,38116],[87.7,38200],[87.7,38283],[87.7,38367],[87.7,38450],[87.7,38533],[87.7,38617],[87.7,38700],[87.7,38783],[87.7,38867],[87.7,38950],[87.7,39033],[87.7,39117],[87.7,39200],[87.7,39284],[87.7,39367],[87.7,39451],[87.7,39534]]",1407.6243,1418.6288,20.29909151,3.1332,"[{""rating"":20.29909151239159,""responseTime"":3.1331999999954405}]",space,10.4583,,1418.6289,Definitely yes,100,1418.6327,,,[],,0,9,9,9,1,audio/Narrative7Situation9.wav,audio/Narrative8Situation9.wav,audio/Narrative5Situation9.wav,audio/Narrative6Situation9.wav,2,3,3,4,,,,,,,,,,,,,,,,,,,,,,,,,,,,,,,,,,,,,,,
,,,,,67e87d0febc7156e3f210a04,2025-07-07_23h18.52.837,group3.4_multiperson,2023.2.2,Win32,60.24096386,686c2ebf0248f13bef9af11f,686c8d93a305f1dc3cc5ca56,,,,,,,,,,,,,,,,,,,,,,,,,,,,,1418.6331,2,audio/Narrative6Situation1.wav,1420.6465,,1420.6465,1447.2422,"[[21.8,3768],[22.6,3851],[24.5,3936],[26,4018],[27.2,4102],[28.2,4185],[29.1,4268],[30,4352],[30.7,4435],[31.4,4519],[32,4602],[33.3,4685],[34.8,4769],[35.7,4852],[36.6,4935],[37.9,5019],[39.5,5103],[41.4,5185],[43,5269],[43.4,5352],[43.4,5435],[43.4,5518],[37.1,5602],[17.7,5686],[14.7,5769],[14.1,5852],[14.1,5936],[14.1,6019],[14.1,6102],[14.1,6185],[14.1,6269],[14.1,6352],[14.1,6435],[14.1,6519],[14.1,6602],[14.1,6686],[14.1,6769],[14.1,6853],[14.1,6936],[14.1,7019],[14.1,7103],[14.4,7186],[16.2,7270],[17.2,7353],[18.5,7436],[19,7519],[19,7603],[19,7686],[19,7769],[19,7853],[19,7936],[19,8020],[19,8103],[19,8186],[19,8270],[19,8353],[19,8436],[19,8520],[19,8603],[19,8687],[19,8770],[19,8853],[19,8937],[19,9020],[19,9103],[19,9187],[19,9270],[19,9354],[19,9437],[19,9520],[19.7,9604],[19.9,9687],[20.2,9770],[20.4,9854],[20.6,9937],[20.6,10021],[20.6,10104],[20.6,10187],[20.6,10271],[20.6,10354],[17.8,10438],[14.9,10521],[13.3,10605],[12.5,10688],[12.5,10771],[12.5,10854],[12.5,10938],[12.5,11021],[12.5,11104],[12.4,11188],[12.4,11271],[12.4,11354],[12.4,11438],[12.4,11521],[12.4,11605],[12.4,11688],[12.4,11771],[12.4,11855],[12.4,11938],[12.4,12021],[12.4,12105],[12.4,12188],[12.4,12272],[12.4,12355],[12.4,12438],[12.8,12522],[13.3,12605],[13.4,12688],[13.4,12772],[13.4,12855],[13.4,12939],[13.4,13022],[13.4,13105],[13.4,13189],[13.4,13272],[13.4,13355],[13.4,13439],[13.4,13522],[14.4,13606],[15,13689],[15.2,13772],[15.8,13856],[15.9,13939],[15.9,14022],[15.9,14106],[15.9,14189],[15.9,14272],[15.9,14356],[15.9,14439],[16.3,14523],[16.9,14606],[16.9,14689],[17.4,14773],[17.8,14856],[18,14940],[18.1,15023],[18.1,15106],[18.1,15190],[18.1,15273],[18.1,15356],[18.1,15440],[18.1,15523],[18.1,15606],[18.1,15690],[18.1,15773],[18.1,15856],[18.1,15940],[18.1,16023],[18.1,16107],[18.1,16190],[18.1,16273],[18.1,16357],[18.1,16440],[18.1,16524],[18.1,16607],[18.1,16690],[18.1,16774],[18.1,16857],[18.1,16940],[18.1,17024],[18.1,17107],[18.1,17190],[18.1,17274],[18.1,17357],[18.1,17441],[19.4,17524],[20.4,17608],[21.6,17691],[22.5,17774],[22.6,17857],[22.6,17941],[22.6,18024],[23.4,18108],[25.1,18191],[25.4,18274],[25.4,18358],[25.4,18441],[25.4,18524],[25.4,18608],[25.4,18691],[25.4,18775],[25.4,18858],[25.4,18941],[25.4,19025],[25.4,19108],[25.4,19191],[25.4,19275],[25.4,19358],[25.4,19441],[25.4,19525],[25.4,19608],[25.4,19692],[25.4,19775],[25.4,19858],[25.4,19942],[25.4,20025],[25.4,20108],[25.4,20192],[28.9,20276],[45.3,20359],[62.8,20442],[70.4,20526],[71.4,20609],[71.4,20692],[71.4,20776],[68.6,20859],[64.4,20943],[61.9,21026],[59.8,21109],[58.4,21193],[57.8,21276],[57.4,21360],[56.5,21442],[56.3,21526],[56.3,21609],[56.3,21692],[56.3,21776],[56.3,21859],[56.3,21943],[56.3,22026],[56.3,22109],[56.3,22193],[56.3,22276],[56.3,22359],[56.3,22443],[56.3,22526],[56.3,22610],[56.3,22693],[56.3,22776],[56.3,22860],[56.3,22943],[56.3,23026],[56.3,23110],[56.3,23193],[56.3,23277],[56.3,23360],[56.3,23443],[56.3,23527],[56.3,23610],[56.3,23693],[56.3,23777],[56.3,23860],[56.3,23943],[56.3,24027],[56.3,24110],[56.3,24194],[56.3,24277],[56.3,24360],[56.3,24444],[56.3,24527],[56.3,24611],[56.3,24694],[56.3,24777],[56.3,24861],[56.3,24944],[56.3,25027],[56.3,25111],[56.3,25194],[56.3,25277],[56.3,25361],[56.3,25444],[56.3,25528],[56.3,25611],[56.3,25694],[56.3,25778],[56.3,25861],[56.3,25944],[56.3,26028],[56.3,26111],[56.3,26195],[56.3,26278],[56.3,26361],[56.3,26445],[56.3,26528]]",1447.2425,1451.0268,55.74155015,2.6953,"[{""rating"":55.74155014988902,""responseTime"":2.695300000004636}]",space,3.2395,,1451.027,Partially,50,1451.0321,,,[],,0,10,10,10,1,audio/Narrative8Situation1.wav,audio/Narrative7Situation1.wav,audio/Narrative6Situation1.wav,audio/Narrative5Situation1.wav,5,2,2,5,,,,,,,,,,,,,,,,,,,,,,,,,,,,,,,,,,,,,,,
,,,,,67e87d0febc7156e3f210a04,2025-07-07_23h18.52.837,group3.4_multiperson,2023.2.2,Win32,60.24096386,686c2ebf0248f13bef9af11f,686c8d93a305f1dc3cc5ca56,,,,,,,,,,,,,,,,,,,,,,,,,,,,,1451.0325,2,audio/Narrative6Situation2.wav,1454.0448,,1454.0449,1482.5412,"[[55.4,3935],[54.9,4018],[53.1,4102],[52.8,4185],[52.8,4268],[52.8,4351],[52.8,4435],[52.8,4518],[52.8,4601],[52.8,4685],[52.8,4768],[52.8,4852],[52.8,4935],[52.7,5018],[52.2,5102],[51.6,5185],[51.1,5269],[50.5,5352],[50,5435],[49.9,5519],[49.7,5602],[49.7,5685],[49.7,5769],[49.7,5852],[49.7,5935],[49.7,6019],[49.7,6102],[49.7,6186],[49.4,6269],[49.4,6352],[49.6,6436],[50.8,6519],[52.2,6603],[53.4,6686],[54.6,6769],[55.2,6853],[55.6,6936],[56,7020],[56.2,7103],[56.3,7186],[56.3,7269],[56.6,7353],[56.8,7436],[56.9,7519],[57.1,7603],[57.2,7686],[57.2,7770],[57.2,7853],[57.2,7936],[57.2,8020],[57.2,8103],[57.2,8187],[57.2,8270],[57.2,8353],[57.2,8437],[57.2,8520],[57.2,8603],[57.2,8687],[57.2,8770],[57.2,8854],[57.2,8937],[57.2,9020],[57.2,9104],[57.2,9187],[57.2,9270],[57.2,9354],[57.2,9437],[57.2,9520],[57.2,9604],[57.2,9687],[57.2,9771],[57.2,9854],[57.2,9937],[57.2,10021],[57.2,10104],[57.2,10187],[57.2,10271],[57.2,10354],[57.2,10437],[57.2,10521],[57.2,10604],[57.2,10688],[57.2,10771],[57.2,10854],[57.2,10938],[57.2,11021],[57.2,11104],[57.2,11188],[57.2,11272],[57.2,11355],[57.2,11438],[57.2,11521],[57.2,11605],[57.2,11688],[57.2,11771],[57.2,11855],[57.2,11938],[57.2,12021],[57.2,12105],[57.2,12188],[57.2,12272],[57.4,12355],[62.5,12439],[67.3,12522],[69.8,12606],[70.7,12689],[71.6,12772],[72.4,12855],[72.4,12939],[72.4,13022],[72.4,13105],[72.4,13189],[72.4,13272],[74.6,13356],[76.4,13439],[78.4,13523],[79.2,13606],[79.3,13689],[79.6,13772],[80.1,13856],[80.3,13939],[80.3,14022],[80.5,14106],[80.5,14189],[80.5,14273],[80.5,14356],[80.5,14439],[80.5,14523],[80.5,14606],[80.5,14689],[80.5,14773],[80.5,14856],[80.5,14940],[80.5,15023],[80.5,15106],[80.5,15190],[80.5,15273],[80.5,15357],[80.5,15440],[80.5,15523],[80.5,15607],[80.5,15690],[80.5,15773],[80.5,15857],[80.5,15940],[80.5,16023],[80.5,16107],[80.5,16190],[80.5,16274],[80.5,16357],[80.5,16440],[80.5,16524],[80.5,16607],[80.5,16690],[80.5,16774],[80.5,16857],[80.5,16940],[80.5,17024],[80.5,17107],[80.5,17191],[80.5,17274],[80.5,17357],[80.5,17441],[80.5,17524],[80.5,17607],[80.5,17691],[80.5,17774],[80.5,17857],[80.5,17941],[80.5,18024],[80.5,18108],[80.5,18191],[80.5,18274],[80.5,18358],[80.5,18441],[80.5,18524],[80.5,18608],[80.5,18691],[80.5,18775],[80.5,18858],[80.5,18941],[80.5,19025],[80.5,19108],[80.5,19191],[80.5,19275],[80.5,19358],[80.5,19441],[80.5,19525],[80.5,19608],[80.5,19692],[80.5,19775],[80.5,19858],[80.5,19942],[80.5,20025],[80.5,20109],[80.5,20192],[80.5,20275],[80.5,20359],[80.5,20442],[80.5,20525],[80.5,20609],[80.5,20692],[80.5,20775],[80.5,20859],[80.5,20942],[80.5,21026],[80.5,21109],[80.5,21192],[80.5,21276],[80.5,21359],[80.5,21443],[80.5,21526],[80.5,21609],[80.5,21693],[80.5,21776],[80.5,21859],[80.5,21943],[80.5,22026],[80.5,22109],[80.5,22193],[80.5,22276],[80.5,22360],[80.5,22443],[80.5,22526],[80.5,22610],[80.5,22693],[80.5,22776],[80.5,22860],[80.5,22943],[80.5,23027],[80.5,23110],[80.5,23193],[80.5,23277],[80.5,23360],[80.5,23443],[80.5,23527],[80.5,23610],[80.5,23693],[80.5,23777],[80.5,23860],[80.5,23944],[80.5,24027],[80.5,24110],[80.5,24194],[80.5,24277],[80.5,24360],[80.5,24444],[80.5,24528],[80.5,24611],[80.5,24694],[80.5,24777],[80.5,24861],[80.5,24944],[80.5,25027],[80.5,25111],[80.5,25194],[80.5,25277],[80.5,25361],[80.5,25444],[80.5,25528],[80.5,25611],[80.5,25694],[80.5,25778],[80.5,25861],[80.5,25945],[80.5,26028],[80.5,26111],[80.5,26195],[80.5,26278],[80.5,26361],[80.5,26445],[80.5,26528],[80.5,26612],[80.5,26695],[80.5,26778],[80.5,26862],[80.5,26945],[80.5,27028],[80.5,27112],[80.5,27195],[80.5,27278],[80.5,27362],[80.5,27445],[80.5,27528],[80.5,27612],[80.5,27695],[80.5,27779],[80.5,27862],[80.5,27945],[80.5,28029],[80.5,28112],[80.5,28196],[80.5,28279],[80.5,28362],[80.5,28446]]",1482.5415,1489.978,53.69115998,6.2593,"[{""rating"":49.88329252385639,""responseTime"":3.5393000000044594},{""rating"":53.691159980777606,""responseTime"":6.259300000004487}]",space,6.8881,,1489.9781,Partially,50,1489.9816,,,[],,0,11,11,11,1,audio/Narrative8Situation2.wav,audio/Narrative7Situation2.wav,audio/Narrative6Situation2.wav,audio/Narrative5Situation2.wav,3,3,3,3,,,,,,,,,,,,,,,,,,,,,,,,,,,,,,,,,,,,,,,
,,,,,67e87d0febc7156e3f210a04,2025-07-07_23h18.52.837,group3.4_multiperson,2023.2.2,Win32,60.24096386,686c2ebf0248f13bef9af11f,686c8d93a305f1dc3cc5ca56,,,,,,,,,,,,,,,,,,,,,,,,,,,,,1489.9821,2,audio/Narrative6Situation3.wav,1494.9968,,1494.9968,1507.6194,"[[53.8,1100],[54.4,1183],[54.7,1267],[54.7,1350],[54.7,1433],[54.4,1517],[54,1601],[54,1683],[54,1767],[54,1850],[54,1934],[54,2017],[52.4,2101],[45.2,2184],[40.7,2267],[38.6,2351],[36.4,2434],[34.8,2518],[33.8,2601],[32.7,2684],[32.3,2768],[32.3,2851],[32.2,2934],[32.2,3017],[32.2,3101],[32.2,3184],[32.2,3268],[32.2,3351],[32.2,3434],[32.2,3518],[32.2,3601],[32.2,3684],[32.2,3768],[32.2,3851],[32.2,3935],[32.2,4018],[32.2,4101],[32.2,4185],[32.2,4268],[32.2,4351],[32.2,4435],[32.2,4518],[32.2,4601],[32.2,4685],[32.2,4768],[32.2,4851],[32.2,4935],[32.2,5018],[32.2,5102],[32.2,5185],[32.2,5268],[38.6,5352],[47,5436],[51.1,5519],[52.8,5603],[53.8,5686],[55.6,5769],[57.1,5852],[57.5,5936],[57.5,6019],[57.5,6102],[57.5,6186],[57.5,6269],[57.8,6353],[57.8,6435],[57.9,6519],[57.9,6602],[57.9,6686],[57.9,6769],[57.9,6852],[57.9,6936],[57.9,7019],[57.9,7102],[57.9,7186],[57.9,7269],[57.9,7353],[57.9,7436],[57.9,7519],[57.9,7603],[57.9,7686],[57.9,7769],[57.9,7853],[57.9,7936],[57.9,8020],[57.9,8103],[57.9,8186],[57.9,8270],[57.9,8353],[57.9,8436],[57.9,8520],[57.9,8603],[57.9,8687],[57.9,8770],[57.9,8853],[57.9,8937],[57.9,9020],[57.9,9104],[59.7,9187],[66.4,9271],[69.9,9354],[71.4,9437],[72.3,9521],[74.3,9604],[75.5,9687],[75.5,9770],[75.5,9854],[75.5,9938],[75.5,10020],[75.5,10104],[75.5,10187],[75.5,10271],[75.5,10354],[75.5,10437],[75.5,10521],[75.5,10605],[75.5,10687],[75.5,10771],[75.5,10854],[75.5,10938],[75.5,11021],[75.5,11104],[75.5,11188],[75.5,11271],[75.5,11354],[75.5,11438],[75.5,11521],[75.5,11605],[75.5,11688],[75.5,11771],[75.5,11855],[75.5,11938],[75.5,12021],[75.5,12105],[75.5,12188],[75.5,12271],[75.5,12355],[75.5,12438],[75.5,12522],[75.5,12605]]",1507.6195,1512.5882,28.64710863,3.732,"[{""rating"":28.647108629488105,""responseTime"":3.731999999999971}]",space,4.4209,,1512.5882,Not at all,0,1512.5936,,,[],,0,12,12,12,1,audio/Narrative8Situation3.wav,audio/Narrative7Situation3.wav,audio/Narrative6Situation3.wav,audio/Narrative5Situation3.wav,4,8,5,3,,,,,,,,,,,,,,,,,,,,,,,,,,,,,,,,,,,,,,,
,,,,,67e87d0febc7156e3f210a04,2025-07-07_23h18.52.837,group3.4_multiperson,2023.2.2,Win32,60.24096386,686c2ebf0248f13bef9af11f,686c8d93a305f1dc3cc5ca56,,,,,,,,,,,,,,,,,,,,,,,,,,,,,1512.5941,2,audio/Narrative6Situation4.wav,1514.6056,,1514.6057,1527.2281,"[[28.9,3351],[32.6,3435],[35.7,3518],[37.4,3601],[38.9,3685],[44.6,3768],[51.6,3851],[57.8,3935],[60.9,4018],[63.2,4102],[64.4,4185],[64.5,4268],[64.5,4351],[64.5,4435],[64.1,4518],[63.9,4602],[63.8,4685],[63.8,4768],[63.8,4852],[63.8,4935],[63.8,5018],[63.8,5102],[63.8,5185],[63.8,5269],[63.8,5352],[63.8,5435],[63.8,5518],[63.8,5602],[63.8,5685],[63.8,5769],[63.8,5852],[63.8,5935],[65.1,6019],[67.2,6102],[68.5,6186],[68.8,6269],[68.8,6352],[68.8,6436],[68.8,6519],[68.8,6602],[68.8,6686],[68.8,6769],[68.8,6852],[68.8,6936],[68.8,7019],[68.8,7103],[68.8,7186],[68.8,7269],[68.8,7353],[68.8,7436],[68.8,7519],[68.8,7603],[68.8,7686],[68.8,7769],[68.8,7853],[68.8,7936],[68.8,8020],[68.8,8103],[68.8,8186],[68.8,8270],[68.8,8353],[68.8,8437],[68.8,8520],[68.8,8603],[68.8,8687],[68.8,8770],[68.8,8853],[68.8,8937],[68.8,9020],[68.8,9104],[68.8,9187],[68.8,9270],[68.8,9354],[68.8,9437],[68.8,9520],[68.8,9604],[68.8,9687],[68.8,9770],[68.8,9854],[68.8,9937],[68.8,10020],[68.8,10104],[68.8,10187],[68.8,10271],[68.8,10354],[68.8,10437],[68.8,10521],[68.8,10604],[68.8,10688],[68.8,10771],[68.8,10854],[68.8,10938],[68.8,11021],[68.8,11104],[68.8,11188],[68.8,11271],[68.8,11355],[68.8,11438],[68.8,11521],[68.8,11605],[68.8,11688],[68.8,11771],[68.8,11855],[68.8,11938],[68.8,12021],[68.8,12105],[68.8,12189],[68.8,12271],[68.8,12355],[68.8,12438],[68.8,12522],[68.8,12605]]",1527.2283,1534.2645,32.30851965,5.9979,"[{""rating"":32.30851964575848,""responseTime"":5.997899999998481}]",space,6.4876,,1534.2646,Definitely yes,100,1534.2697,,,[],,0,13,13,13,1,audio/Narrative8Situation4.wav,audio/Narrative7Situation4.wav,audio/Narrative6Situation4.wav,audio/Narrative5Situation4.wav,3,3,2,1,,,,,,,,,,,,,,,,,,,,,,,,,,,,,,,,,,,,,,,
,,,,,67e87d0febc7156e3f210a04,2025-07-07_23h18.52.837,group3.4_multiperson,2023.2.2,Win32,60.24096386,686c2ebf0248f13bef9af11f,686c8d93a305f1dc3cc5ca56,,,,,,,,,,,,,,,,,,,,,,,,,,,,,1534.27,2,audio/Narrative6Situation5.wav,1536.2825,,1536.2825,1544.2524,"[[29.7,1683],[35.7,2434],[38.2,2518],[40.1,2601],[41.7,2684],[41.8,2767],[41.8,2850],[41.8,2934],[41.8,3017],[41.8,3100],[42.6,3184],[49.7,3268],[55.7,3351],[58.5,3434],[60.1,3517],[60.3,3601],[60.3,3684],[60.3,3767],[60.3,3851],[60.3,3934],[60.3,4018],[60.3,4101],[60.3,4184],[60.3,4268],[60.3,4351],[60.3,4434],[60.3,4518],[60.3,4601],[60.3,4685],[60.3,4768],[60.3,4851],[60.3,4935],[60.3,5018],[60.3,5101],[60.3,5185],[60.3,5268],[60.3,5352],[60.9,5435],[61.6,5519],[63.1,5602],[63.9,5685],[65,5769],[67,5852],[69.8,5936],[72.1,6019],[74.2,6102],[74.9,6186],[75.4,6269],[75.4,6352],[75.5,6435],[75.5,6519],[75.5,6602],[75.5,6686],[75.5,6769],[75.5,6852],[75.5,6936],[75.5,7019],[75.5,7102],[75.5,7186],[75.5,7269],[75.5,7352],[75.5,7436],[75.5,7519],[75.5,7603],[75.5,7686],[75.5,7769],[75.5,7853],[75.5,7936]]",1544.2527,1551.9393,49.4439232,4.0591,"[{""rating"":49.44392320190394,""responseTime"":4.059100000001536}]",space,7.1399,,1551.9394,Not at all,0,1551.9452,,,[],,0,14,14,14,1,audio/Narrative8Situation5.wav,audio/Narrative7Situation5.wav,audio/Narrative6Situation5.wav,audio/Narrative5Situation5.wav,2,5,2,5,,,,,,,,,,,,,,,,,,,,,,,,,,,,,,,,,,,,,,,
,,,,,67e87d0febc7156e3f210a04,2025-07-07_23h18.52.837,group3.4_multiperson,2023.2.2,Win32,60.24096386,686c2ebf0248f13bef9af11f,686c8d93a305f1dc3cc5ca56,,,,,,,,,,,,,,,,,,,,,,,,,,,,,1551.9455,2,audio/Narrative6Situation6.wav,1553.9568,,1553.9568,1565.0452,"[[49.3,2768],[48.4,2851],[47.7,2935],[47.1,3017],[46.8,3101],[46.7,3184],[46.5,3267],[46.4,3351],[46.4,3434],[46.4,3518],[46.4,3601],[46.4,3684],[46.4,3768],[46.4,3851],[46.4,3935],[46.4,4018],[46.4,4101],[46.4,4185],[46.4,4268],[46.4,4351],[46.4,4435],[46.4,4518],[46.4,4601],[46.4,4685],[46.4,4768],[46.4,4853],[46.4,4935],[46.4,5018],[46.4,5102],[46.4,5185],[47.1,5269],[48.6,5352],[50.5,5436],[52.5,5519],[53.5,5602],[54.4,5686],[55.7,5769],[56.5,5853],[57.6,5936],[59,6019],[60,6103],[60.4,6186],[61,6269],[61.5,6353],[61.9,6436],[62.3,6519],[63.1,6603],[65.3,6686],[68.3,6770],[70.2,6853],[71.3,6936],[71.7,7020],[72,7103],[72,7186],[72,7269],[72,7353],[72,7436],[72,7519],[72,7603],[72,7686],[72,7769],[72,7853],[72,7936],[72,8020],[72,8103],[72,8186],[72,8270],[72,8353],[72,8436],[72,8520],[72,8603],[72,8687],[72,8770],[72,8853],[72,8937],[72,9020],[72,9103],[72,9187],[72,9270],[72,9354],[72,9437],[72,9520],[72,9604],[72,9687],[72,9770],[72,9854],[72,9937],[72,10021],[72,10104],[72,10187],[72,10271],[72,10354],[72,10437],[72,10521],[72,10604],[72,10688],[72,10771],[72,10854],[72,10938],[72,11021]]",1565.0454,1568.3966,68.48326049,2.393,"[{""rating"":68.48326048651,""responseTime"":2.393000000000029}]",space,2.8047,,1568.3968,Definitely yes,100,1568.4028,,,[],,0,15,15,15,1,audio/Narrative8Situation6.wav,audio/Narrative7Situation6.wav,audio/Narrative6Situation6.wav,audio/Narrative5Situation6.wav,2,3,2,3,,,,,,,,,,,,,,,,,,,,,,,,,,,,,,,,,,,,,,,
,,,,,67e87d0febc7156e3f210a04,2025-07-07_23h18.52.837,group3.4_multiperson,2023.2.2,Win32,60.24096386,686c2ebf0248f13bef9af11f,686c8d93a305f1dc3cc5ca56,,,,,,,,,,,,,,,,,,,,,,,,,,,,,1568.4031,2,audio/Narrative6Situation7.wav,1573.4157,,1573.4158,1598.277,"[[68,2434],[65,2517],[63.1,2601],[62.9,2684],[62.9,2767],[62.9,2851],[62.3,2934],[61,3018],[58.5,3101],[50.9,3185],[44.8,3268],[39.8,3352],[37.4,3434],[37.4,3518],[37.4,3601],[37.4,3684],[37.4,3768],[37.4,3851],[37.4,3934],[37.4,4018],[37.4,4101],[37.4,4185],[37.4,4268],[37.4,4351],[37.4,4435],[37.4,4518],[37.4,4601],[37.4,4685],[37.4,4768],[37.4,4852],[37.4,4935],[37.4,5018],[37.4,5101],[37.4,5185],[37.4,5268],[37.4,5352],[37.4,5435],[37.4,5518],[37.4,5602],[37.4,5685],[37.4,5768],[37.4,5852],[37.4,5935],[37.4,6019],[40.5,6102],[45.8,6186],[51.8,6269],[55.3,6353],[57.4,6436],[59.3,6519],[60.6,6603],[61.3,6686],[62.2,6769],[63.1,6853],[64.8,6936],[68,7019],[70.4,7103],[72.3,7186],[73.3,7270],[73.3,7353],[73.3,7436],[73.2,7520],[72.1,7603],[71.6,7686],[71.3,7770],[71.3,7853],[71.3,7936],[71.3,8019],[71.1,8103],[71.1,8186],[70.7,8270],[67.2,8353],[66.3,8437],[65.4,8520],[64.5,8604],[64.2,8687],[63.6,8770],[62.9,8854],[62.8,8937],[61.6,9020],[61.5,9103],[61.2,9187],[59.1,9270],[59,9354],[59,9437],[59,9520],[59,9604],[59,9687],[59,9770],[59,9854],[59,9937],[59,10020],[59,10104],[59,10187],[59,10271],[59,10354],[59,10437],[59,10521],[59,10604],[59,10687],[59,10771],[59,10854],[59,10938],[59,11021],[59,11104],[59,11188],[59,11271],[59,11354],[59,11438],[59,11521],[59,11605],[59,11688],[59,11771],[59,11855],[59,11938],[59,12021],[59,12105],[59,12188],[59,12272],[59,12355],[59,12438],[59,12522],[59,12605],[59,12688],[59,12772],[59,12855],[59,12938],[59,13022],[59,13105],[59,13188],[59,13272],[59,13355],[59,13439],[59,13522],[59,13605],[59,13689],[59,13772],[59,13855],[59,13939],[59,14022],[59,14106],[59,14189],[59,14272],[59,14356],[59,14439],[59,14522],[59,14606],[59,14689],[59,14773],[59,14856],[59,14939],[59,15023],[59,15106],[59,15189],[59,15273],[59,15356],[59,15440],[59,15523],[59,15606],[59,15690],[59,15773],[59,15856],[59,15940],[59,16023],[59,16106],[59,16190],[59,16273],[59,16356],[59,16440],[59,16523],[59,16607],[59,16690],[59,16773],[59,16857],[59,16940],[59,17024],[59,17107],[59,17190],[59,17274],[59,17357],[59,17440],[59,17524],[59,17607],[59,17691],[59,17774],[59,17857],[59,17941],[59,18024],[59,18107],[59,18191],[59,18274],[59,18358],[59,18441],[59,18524],[59,18608],[59,18691],[59,18774],[59,18858],[59,18941],[59,19025],[59,19108],[59,19191],[59,19275],[59,19358],[59,19441],[59,19525],[59,19608],[59,19691],[59,19775],[59,19858],[59,19942],[59,20025],[59,20108],[59,20192],[59,20275],[59,20358],[59,20442],[59,20525],[59,20609],[59,20692],[59,20775],[59,20859],[59,20942],[59,21025],[59,21109],[59.4,21192],[72,21693],[73.5,21776],[74.9,21860],[75.7,21943],[75.8,22026],[75.8,22109],[75.8,22193],[75.8,22276],[75.8,22359],[75.8,22443],[75.8,22526],[75.8,22610],[75.7,22693],[75.5,22776],[75.4,22860],[75.1,22943],[74.9,23026],[74.8,23110],[74.8,23193],[74.8,23276],[74.8,23360],[74.8,23443],[74.8,23527],[74.8,23610],[74.8,23693],[74.8,23777],[74.8,23860],[74.8,23943],[74.8,24027],[74.8,24110],[74.8,24194],[74.8,24277],[74.8,24360],[74.8,24444],[74.8,24527],[74.8,24611],[74.8,24694],[74.8,24777],[74.8,24861]]",1598.2772,1605.9137,95.57770201,4.8491,"[{""rating"":75.07380031579672,""responseTime"":2.83400000000006},{""rating"":95.57770200691091,""responseTime"":4.849100000001499}]",space,7.0908,,1605.9138,Not at all,0,1605.9193,,,[],,0,16,16,16,1,audio/Narrative8Situation7.wav,audio/Narrative7Situation7.wav,audio/Narrative6Situation7.wav,audio/Narrative5Situation7.wav,3,5,5,4,,,,,,,,,,,,,,,,,,,,,,,,,,,,,,,,,,,,,,,
,,,,,67e87d0febc7156e3f210a04,2025-07-07_23h18.52.837,group3.4_multiperson,2023.2.2,Win32,60.24096386,686c2ebf0248f13bef9af11f,686c8d93a305f1dc3cc5ca56,,,,,,,,,,,,,,,,,,,,,,,,,,,,,1605.9198,2,audio/Narrative6Situation8.wav,1610.9327,,1610.9327,1617.7859,"[[94.6,1434],[92.4,1517],[90.6,1601],[88,1684],[85,1767],[83,1851],[80.1,1934],[78.9,2017],[78.6,2101],[78.4,2184],[78.4,2267],[78.4,2350],[78.4,2434],[78.4,2517],[78.4,2601],[78.4,2684],[78.4,2767],[78.4,2851],[78.4,2934],[78.4,3017],[78.4,3101],[78.4,3184],[78.4,3268],[78.4,3351],[78.4,3434],[78.4,3518],[78.4,3601],[78.4,3684],[78.4,3768],[78.4,3851],[78.4,3934],[78.4,4018],[78.4,4101],[78.4,4184],[78.4,4268],[78.4,4351],[78.4,4435],[78.4,4518],[78.4,4601],[78.4,4685],[78.4,4768],[78.4,4851],[78.4,4935],[78.4,5018],[78.4,5102],[78.4,5185],[78.4,5268],[78.4,5352],[78.4,5435],[78.4,5519],[78.4,5602],[78.4,5685],[78.4,5769],[78.4,5852],[78.4,5935],[78.4,6019],[78.4,6102],[75.4,6186],[69.9,6269],[68.8,6353],[68.6,6436],[68.6,6519],[68.6,6602],[68.6,6686],[68.6,6769],[68.6,6852]]",1617.7859,1622.4711,73.02341015,2.8843,"[{""rating"":73.02341014668528,""responseTime"":2.8842999999972108}]",space,4.1381,,1622.4714,Not at all,0,1622.4756,,,[],,0,17,17,17,1,audio/Narrative8Situation8.wav,audio/Narrative7Situation8.wav,audio/Narrative6Situation8.wav,audio/Narrative5Situation8.wav,3,2,5,3,,,,,,,,,,,,,,,,,,,,,,,,,,,,,,,,,,,,,,,
,,,,,67e87d0febc7156e3f210a04,2025-07-07_23h18.52.837,group3.4_multiperson,2023.2.2,Win32,60.24096386,686c2ebf0248f13bef9af11f,686c8d93a305f1dc3cc5ca56,,,,,,,,,,,,,,,,,,,,,,,,,,,,,1622.4759,2,audio/Narrative6Situation9.wav,1626.4896,,1626.4897,1636.4443,"[[72.3,5936],[72.1,6019],[71.6,6103],[71,6186],[69.7,6269],[68.8,6353],[66.7,6436],[63.5,6519],[62.8,6602],[62.8,6686],[62.8,6769],[62.8,6852],[62.8,6936],[62.8,7019],[62.8,7103],[62.8,7186],[62.8,7269],[62.8,7353],[60.7,7436],[43.6,7603],[38.2,7687],[34.8,7770],[33.5,7854],[33,7936],[33,8020],[33,8103],[33,8186],[33,8270],[33,8353],[33,8437],[33,8520],[33,8603],[33,8687],[33,8770],[33,8853],[33,8937],[33,9020],[33,9104],[33,9187],[33,9270],[33,9354],[33,9437],[33,9520],[33,9604],[33,9687],[33,9770],[33,9854],[33,9937]]",1636.4444,1640.396,8.143206938,2.8902,"[{""rating"":8.143206938373876,""responseTime"":2.8901999999957297}]",space,3.4078,,1640.3961,Not at all,0,1640.3994,,,[],,0,18,18,18,1,audio/Narrative8Situation9.wav,audio/Narrative7Situation9.wav,audio/Narrative6Situation9.wav,audio/Narrative5Situation9.wav,3,2,4,3,,,,,,,,,,,,,,,,,,,,,,,,,,,,,,,,,,,,,,,
,,,,,67e87d0febc7156e3f210a04,2025-07-07_23h18.52.837,group3.4_multiperson,2023.2.2,Win32,60.24096386,686c2ebf0248f13bef9af11f,686c8d93a305f1dc3cc5ca56,,,,,,,,,,,,,,,,,,,,,,,,,,,,,,,,,,,,,,,,,,,,,,,,,,,,,,,,,,,,,,,,,,,,,,1640.3998,1654.5191,space,13.5982,,1654.5196,1677.3798,space,22.5279,,,,,,,,,,,,,,,,,,,,,,,,,,
