consent.started,consent.stopped,consentResponse.keys,consentResponse.rt,consentResponse.duration,participantID,date,expName,psychopyVersion,OS,frameRate,STUDY_ID,SESSION_ID,opening1.started,opening1.stopped,keyEndingOpening1.keys,keyEndingOpening1.rt,keyEndingOpening1.duration,volumeAdjust.started,volumeAdjust.stopped,endingAdjust.keys,endingAdjust.rt,endingAdjust.duration,opening2.started,opening2.stopped,keyEndingOpening.keys,keyEndingOpening.rt,keyEndingOpening.duration,mouse.x,mouse.y,mouse.leftButton,mouse.midButton,mouse.rightButton,mouse.time,instructionLoop.thisRepN,instructionLoop.thisTrialN,instructionLoop.thisN,instructionLoop.thisIndex,instructionLoop.ran,readyForAudio.started,readyForAudio.stopped,fixation.started,run,audio_played,fixation.stopped,endPractice.keys,audioPre.started,audioPre.stopped,continuousResponses_audio,intRating.started,intRating.stopped,intQuestionSlider.response,intQuestionSlider.rt,intQuestionSlider.history,confirmResponse.keys,confirmResponse.rt,confirmResponse.duration,catchQuestion.started,catch_label,catch_value,catchQuestion.stopped,catchQuestionSlider.response,catchQuestionSlider.rt,catchQuestionSlider.history,confirmResponse_2.keys,audioRunLoop.thisRepN,audioRunLoop.thisTrialN,audioRunLoop.thisN,audioRunLoop.thisIndex,audioRunLoop.ran,conditions1_1,conditions2_1,conditions1_2,conditions2_2,dur1_1,dur2_1,dur1_2,dur2_2,endPractice.rt,endPractice.duration,confirmResponse_2.rt,confirmResponse_2.duration,runIntervalBreak.started,runIntervalBreak.stopped,endingBreakKey.keys,endingBreakKey.rt,endingBreakKey.duration,connection.started,connection.stopped,connectionEnding.keys,connectionEnding.rt,connectionEnding.duration,readyForText.started,readyForText.stopped,textPre.started,run_dup,textPre.stopped,continuousResponses_text,textRunLoop.thisRepN,textRunLoop.thisTrialN,textRunLoop.thisN,textRunLoop.thisIndex,textRunLoop.ran,text1_1,text1_2,text2_1,text2_2,runBreakText.started,runBreakText.stopped,endingBreakKey_2.keys,endingBreakKey_2.rt,endingBreakKey_2.duration,ending.started,ending.stopped,endingEnding.keys,endingEnding.rt,endingEnding.duration
0.0002,9.9956,y,9.6675,,67ef1646a57b37e076099d5c,2025-07-07_19h52.26.945,group3.4_multiperson,2023.2.2,Win32,60.24096386,686c2ebf0248f13bef9af11f,686c8635fdc753f12f2ad88c,,,,,,,,,,,,,,,,,,,,,,,,,,,,,,,,,,,,,,,,,,,,,,,,,,,,,,,,,,,,,,,,,,,,,,,,,,,,,,,,,,,,,,,,,,,,,,,,,,,,,,,,
,,,,,67ef1646a57b37e076099d5c,2025-07-07_19h52.26.945,group3.4_multiperson,2023.2.2,Win32,60.24096386,686c2ebf0248f13bef9af11f,686c8635fdc753f12f2ad88c,9.9968,48.11,space,38.0435,,,,,,,,,,,,,,,,,,,,,,,,,,,,,,,,,,,,,,,,,,,,,,,,,,,,,,,,,,,,,,,,,,,,,,,,,,,,,,,,,,,,,,,,,,,,,,,,,,,,
,,,,,67ef1646a57b37e076099d5c,2025-07-07_19h52.26.945,group3.4_multiperson,2023.2.2,Win32,60.24096386,686c2ebf0248f13bef9af11f,686c8635fdc753f12f2ad88c,,,,,,48.1105,67.238,space,18.8029,,,,,,,,,,,,,,,,,,,,,,,,,,,,,,,,,,,,,,,,,,,,,,,,,,,,,,,,,,,,,,,,,,,,,,,,,,,,,,,,,,,,,,,,,,,,,,,
,,,,,67ef1646a57b37e076099d5c,2025-07-07_19h52.26.945,group3.4_multiperson,2023.2.2,Win32,60.24096386,686c2ebf0248f13bef9af11f,686c8635fdc753f12f2ad88c,,,,,,,,,,,67.2603,83.5025,space,16.2107,,[],[],[],[],[],[],0,0,0,0,1,,,,,,,,,,,,,,,,,,,,,,,,,,,,,,,,,,,,,,,,,,,,,,,,,,,,,,,,,,,,,,,,,,,,,,,,,,,,,,
,,,,,67ef1646a57b37e076099d5c,2025-07-07_19h52.26.945,group3.4_multiperson,2023.2.2,Win32,60.24096386,686c2ebf0248f13bef9af11f,686c8635fdc753f12f2ad88c,,,,,,,,,,,83.5044,112.9469,space,29.3528,,[],[],[],[],[],[],1,0,1,0,1,,,,,,,,,,,,,,,,,,,,,,,,,,,,,,,,,,,,,,,,,,,,,,,,,,,,,,,,,,,,,,,,,,,,,,,,,,,,,,
,,,,,67ef1646a57b37e076099d5c,2025-07-07_19h52.26.945,group3.4_multiperson,2023.2.2,Win32,60.24096386,686c2ebf0248f13bef9af11f,686c8635fdc753f12f2ad88c,,,,,,,,,,,112.9477,123.7463,space,10.7514,,[],[],[],[],[],[],2,0,2,0,1,,,,,,,,,,,,,,,,,,,,,,,,,,,,,,,,,,,,,,,,,,,,,,,,,,,,,,,,,,,,,,,,,,,,,,,,,,,,,,
,,,,,67ef1646a57b37e076099d5c,2025-07-07_19h52.26.945,group3.4_multiperson,2023.2.2,Win32,60.24096386,686c2ebf0248f13bef9af11f,686c8635fdc753f12f2ad88c,,,,,,,,,,,123.7475,172.0064,space,48.2114,,[],[],[],[],[],[],3,0,3,0,1,,,,,,,,,,,,,,,,,,,,,,,,,,,,,,,,,,,,,,,,,,,,,,,,,,,,,,,,,,,,,,,,,,,,,,,,,,,,,,
,,,,,67ef1646a57b37e076099d5c,2025-07-07_19h52.26.945,group3.4_multiperson,2023.2.2,Win32,60.24096386,686c2ebf0248f13bef9af11f,686c8635fdc753f12f2ad88c,,,,,,,,,,,172.0072,197.8206,space,25.7852,,[],[],[],[],[],[],4,0,4,0,1,,,,,,,,,,,,,,,,,,,,,,,,,,,,,,,,,,,,,,,,,,,,,,,,,,,,,,,,,,,,,,,,,,,,,,,,,,,,,,
,,,,,67ef1646a57b37e076099d5c,2025-07-07_19h52.26.945,group3.4_multiperson,2023.2.2,Win32,60.24096386,686c2ebf0248f13bef9af11f,686c8635fdc753f12f2ad88c,,,,,,,,,,,197.8216,209.3851,space,11.5362,,[],[],[],[],[],[],5,0,5,0,1,,,,,,,,,,,,,,,,,,,,,,,,,,,,,,,,,,,,,,,,,,,,,,,,,,,,,,,,,,,,,,,,,,,,,,,,,,,,,,
,,,,,67ef1646a57b37e076099d5c,2025-07-07_19h52.26.945,group3.4_multiperson,2023.2.2,Win32,60.24096386,686c2ebf0248f13bef9af11f,686c8635fdc753f12f2ad88c,,,,,,,,,,,,,,,,,,,,,,,,,,,209.3902,211.969,212.0159,1,audio/Narrative13Situation2.wav,214.0174,,214.0176,243.7804,[],243.7808,252.9123,74.47916985,5.3555,"[{""rating"":74.47916984558105,""responseTime"":5.3554999999999495}]",space,8.5857,,252.9128,Not at all,0,252.9179,,,[],,0,0,0,0,1,audio/Narrative13Situation2.wav,audio/Narrative13Situation2.wav,audio/Narrative13Situation2.wav,audio/Narrative13Situation2.wav,2,2,2,2,,,,,,,,,,,,,,,,,,,,,,,,,,,,,,,,,,,,,,,
,,,,,67ef1646a57b37e076099d5c,2025-07-07_19h52.26.945,group3.4_multiperson,2023.2.2,Win32,60.24096386,686c2ebf0248f13bef9af11f,686c8635fdc753f12f2ad88c,,,,,,,,,,,,,,,,,,,,,,,,,,,,,252.9182,1,audio/Narrative8Situation1.wav,255.3463,space,255.3464,271.2765,"[[999,3],[999,98],[999,181],[999,265],[999,348],[999,431],[999,515],[999,599],[999,682],[999,766],[40.4,848],[38.3,1848],[38.8,1932],[38.8,2014],[39.1,2098],[39.2,2181],[37.1,2264],[33.1,2348],[33.1,2431],[33.1,2515],[33.8,2599],[40.9,2682],[42.5,2764],[42.5,2848],[42.5,2932],[42.5,3015],[42.5,3098],[42.5,3181],[42.5,3264]]",271.2767,276.7601,28.85416985,3.2101,"[{""rating"":28.85416984558106,""responseTime"":1.4447999999523518},{""rating"":28.85416984558106,""responseTime"":3.210099999904628}]",space,4.9393,,276.7604,Definitely yes,100,276.7737,,,[],,0,1,1,1,1,audio/Narrative7Situation1.wav,audio/Narrative8Situation1.wav,audio/Narrative5Situation1.wav,audio/Narrative6Situation1.wav,2,5,5,2,2.4053,,,,,,,,,,,,,,,,,,,,,,,,,,,,,,,,,,,,,,
,,,,,67ef1646a57b37e076099d5c,2025-07-07_19h52.26.945,group3.4_multiperson,2023.2.2,Win32,60.24096386,686c2ebf0248f13bef9af11f,686c8635fdc753f12f2ad88c,,,,,,,,,,,,,,,,,,,,,,,,,,,,,276.7746,1,audio/Narrative8Situation2.wav,279.7763,,279.7764,289.9072,"[[999,1],[999,99],[999,182],[999,265],[999,349],[999,432],[999,516],[999,599],[999,682],[999,765],[999,848],[999,932],[999,1015],[999,1099],[999,1182],[999,1265],[999,1349],[999,1433],[999,1515],[999,1599],[999,1682],[999,1765],[999,1848],[999,1932],[999,2015],[999,2099],[999,2182],[999,2265],[999,2348],[999,2432],[999,2515],[999,2598],[999,2682],[999,2770],[999,2848],[999,7325],[999,7397],[999,7564],[999,8081],[999,8164],[999,8247],[999,8331],[999,8414],[999,8497],[999,8581],[999,8664],[999,8747],[999,8831],[999,8914],[999,8998],[999,9081],[999,9164],[999,9247],[999,9330],[999,9414],[48.5,9497],[47.8,9580],[47.7,9664],[47.4,9747],[47.4,9830],[47.4,9913],[47.4,9997],[47.4,10080]]",289.9073,295.4402,50.10416985,4.4722,"[{""rating"":53.02083969116212,""responseTime"":2.3227999999523377},{""rating"":50.10416984558106,""responseTime"":3.8057000000476933},{""rating"":50.10416984558106,""responseTime"":4.472200000047678}]",space,5.0059,,295.4403,Not at all,0,295.4458,,,[],,0,2,2,2,1,audio/Narrative7Situation2.wav,audio/Narrative8Situation2.wav,audio/Narrative5Situation2.wav,audio/Narrative6Situation2.wav,3,3,3,3,,,,,,,,,,,,,,,,,,,,,,,,,,,,,,,,,,,,,,,
,,,,,67ef1646a57b37e076099d5c,2025-07-07_19h52.26.945,group3.4_multiperson,2023.2.2,Win32,60.24096386,686c2ebf0248f13bef9af11f,686c8635fdc753f12f2ad88c,,,,,,,,,,,,,,,,,,,,,,,,,,,,,295.4462,1,audio/Narrative8Situation3.wav,304.707,,304.7072,327.0868,"[[999,0],[999,81],[999,364],[999,448],[999,531],[999,614],[999,698],[48.6,781],[49.4,864],[49.4,948],[49.4,1031],[49.4,1115],[49.4,1198],[49.4,1282],[49.4,1365],[49.4,1448],[51.4,4531],[53.1,4614],[53.4,4698],[54,4782],[52.8,4864],[52.7,4947],[52.7,5031],[52.7,5114],[52.7,5198],[52.7,5281],[52.7,5364],[52.7,5448],[52.7,5531],[52.7,5614],[52.7,5698],[52.7,5781],[52.7,5864],[52.7,5948],[52.7,6031],[52.7,6114],[52.7,6198],[52.7,6281],[52.7,6364],[53.1,6448],[53.9,6530],[54.5,6614],[54.8,6697],[54.9,6781],[55.1,6864],[55.3,6948],[55.3,7031],[55.3,7114],[55.3,7197],[55.3,7280],[55.3,7364],[55.3,7447],[55.3,7531],[55.3,7614],[55.3,7697],[55.3,7781],[55.3,7863],[55.3,7948],[55.3,8031],[55.3,8113],[55.3,8197],[55.6,8280],[55.8,8364],[56.9,8448],[58.3,8530],[60.4,8614],[61.5,8698],[62.7,8782],[64,8863],[64.1,8947],[64.1,9031],[64.1,9114],[64.1,9197],[64.1,9280],[64.1,9363],[64.1,9447],[64.1,9531],[64.1,9614],[64.1,9697],[64.1,9781],[64.1,9863],[64.1,9947],[64.1,10030],[64.1,10114],[64.1,10197],[64.1,10280],[64.1,10363],[64.1,10447],[64.1,10530],[64.1,10614],[64.1,10697],[64.1,10780],[64.1,10863],[64.1,10947],[64.1,11030],[64.1,11113],[64.1,11197],[64.1,11280],[64.1,11364],[64.1,11447],[64.1,11530],[64.1,11613],[64.1,11697],[64.1,11780],[64.1,11863],[64.1,11947],[64.1,12030],[64.1,12114],[64.1,12197],[64.1,12280],[64.1,12363],[64.1,12447],[64.1,12530],[64.1,12614],[64.1,12697],[64.1,12781],[64.1,12863],[64.1,12947],[64.1,13030],[64.1,13113],[64.1,13197],[64.1,13280],[64.1,13363],[64.1,13447],[64.1,13530],[64.1,13613],[64.1,13696],[64.1,13780],[64.1,13863],[64.1,13946],[64.1,14030],[64.1,14113],[64.1,14197],[64.1,14280],[64.1,14363],[64.1,14446],[64.1,14530],[64.1,14613],[64.1,14697],[64.1,14780],[64.1,14862],[64.1,14946],[64.1,15029],[64.1,15113],[64.1,15196],[64.1,15280],[64.1,15363],[64.1,15446],[64.1,15530],[64.1,15613],[64.1,15696],[64.1,15779],[64.1,15864],[64.1,15946],[64.1,16029],[64.1,16113],[64.1,16196],[64.1,16280],[64.1,16362],[64.1,16447],[64.1,16530],[64.1,16613],[64.1,16696],[64.1,16780],[64.1,16862],[64.1,16946],[64.1,17030],[64.1,17113],[64.1,17196],[64.1,17280],[64.1,17363],[64.1,17446],[64.1,17529],[64.1,17613],[64.1,17696],[64.1,17780],[64.1,17862],[64.1,17946],[64.1,18029],[64.1,18113],[64.1,18196],[64.1,18282],[64.1,18363],[64.1,18446],[64.1,18529],[64.1,18613],[64.1,18696],[64.1,18780],[64.1,18862],[64.1,18946],[64.1,19030],[64.1,19113],[64.1,19196],[64.1,19278],[64.1,19362],[64.1,19445],[64.1,19529],[64.1,19612],[64.1,19696],[64.1,19780],[64.1,19862],[64.1,19945],[64.1,20029],[64.1,20112],[64.1,20196],[64.1,20279],[64.1,20363],[64.1,20446],[64.1,20529],[64.1,20612],[64.1,20696],[64.1,20779],[64.1,20862],[64.1,20945],[64.1,21029],[64.1,21113],[64.1,21196],[64.1,21279],[64.1,21363],[64.1,21446],[64.1,21529],[64.1,21612],[64.1,21695],[64.1,21779],[64.1,21862],[64.1,21945],[64.1,22029],[64.1,22112],[64.1,22195],[64.1,22279],[64.1,22362]]",327.0872,332.6859,64.0625,0.6454,"[{""rating"":64.0625,""responseTime"":0.6454000000953783}]",space,5.0563,,332.6862,Definitely yes,100,332.6968,,,[],,0,3,3,3,1,audio/Narrative7Situation3.wav,audio/Narrative8Situation3.wav,audio/Narrative5Situation3.wav,audio/Narrative6Situation3.wav,8,4,3,5,,,,,,,,,,,,,,,,,,,,,,,,,,,,,,,,,,,,,,,
,,,,,67ef1646a57b37e076099d5c,2025-07-07_19h52.26.945,group3.4_multiperson,2023.2.2,Win32,60.24096386,686c2ebf0248f13bef9af11f,686c8635fdc753f12f2ad88c,,,,,,,,,,,,,,,,,,,,,,,,,,,,,332.6975,1,audio/Narrative8Situation4.wav,335.7015,,335.7017,354.1825,"[[999,0],[999,83],[999,166],[999,249],[999,333],[999,416],[999,499],[999,583],[999,666],[999,749],[999,833],[999,917],[999,1000],[50.9,1083],[50.6,1166],[50.6,1249],[51.3,1332]]",354.1826,360.215,31.45833969,5.7602,"[{""rating"":24.583334922790527,""responseTime"":2.8070000000000164},{""rating"":24.583334922790527,""responseTime"":3.231599999904631},{""rating"":31.458339691162106,""responseTime"":5.0113999998569625},{""rating"":31.458339691162106,""responseTime"":5.541099999904645},{""rating"":31.458339691162106,""responseTime"":5.760199999809288}]",space,5.4887,,360.2151,Partially,50,366.2478,50,4.5048,"[{""rating"":50,""responseTime"":4.504799999952354}]",space,0,4,4,4,1,audio/Narrative7Situation4.wav,audio/Narrative8Situation4.wav,audio/Narrative5Situation4.wav,audio/Narrative6Situation4.wav,3,3,1,2,,,5.4988,,,,,,,,,,,,,,,,,,,,,,,,,,,,,,,,,,,,
,,,,,67ef1646a57b37e076099d5c,2025-07-07_19h52.26.945,group3.4_multiperson,2023.2.2,Win32,60.24096386,686c2ebf0248f13bef9af11f,686c8635fdc753f12f2ad88c,,,,,,,,,,,,,,,,,,,,,,,,,,,,,366.2484,1,audio/Narrative8Situation5.wav,368.2645,,368.2647,376.5129,"[[999,1],[999,83],[999,165],[999,249],[999,333],[999,415],[999,499],[999,583],[999,666],[999,749],[999,832],[999,915],[999,999],[45.1,1082],[45.1,1165],[45.3,1248],[45.6,1332],[45.6,1415],[45.6,1499],[45.6,1582],[45.6,1666],[45.6,1749],[45.6,1832],[45.6,1915],[45.6,1998],[45.6,2082],[45.6,2165],[45.6,2249],[45.6,2332],[45.6,2415],[45.6,2499],[45.6,2582],[45.6,2665],[45.6,2749],[45.6,2832],[45.6,2915],[45.6,2999],[45.6,3082],[45.6,3166],[45.6,3248],[45.6,3332],[45.6,3416],[45.6,3499],[45.6,3583],[45.6,3665],[45.6,3748],[45.6,3832],[45.6,3915],[45.6,3999],[45.6,4083],[45.6,4165],[45.6,4249],[45.6,4331],[45.6,4415],[45.6,4498],[45.6,4582],[45.6,4665],[45.6,4749],[45.6,4832],[45.6,4915],[45.6,4999],[45.6,5082],[45.6,5165],[45.6,5248],[45.6,5332],[45.6,5415],[45.6,5499],[45.6,5581],[45.6,5665],[45.6,5748],[45.6,5831],[45.6,5915],[45.6,5998],[45.6,6082],[45.6,6165],[45.6,6248],[45.6,6331],[45.6,6414],[45.6,6498],[45.6,6582],[45.6,6665],[45.6,6748],[45.6,6831],[45.6,6915],[45.6,6998],[45.6,7081],[45.6,7165],[45.6,7248],[45.6,7331],[45.6,7414],[45.6,7498],[45.6,7581],[45.6,7665],[45.6,7748],[45.6,7831],[45.6,7915],[45.6,7998],[45.6,8081],[45.6,8165],[45.6,8248]]",376.5131,384.9789,30.3125,6.8898,"[{""rating"":30.312499999999996,""responseTime"":6.164000000000101},{""rating"":30.312499999999996,""responseTime"":6.889799999952402}]",space,7.9263,,384.979,Definitely yes,100,384.9842,,,[],,0,5,5,5,1,audio/Narrative7Situation5.wav,audio/Narrative8Situation5.wav,audio/Narrative5Situation5.wav,audio/Narrative6Situation5.wav,5,2,5,2,,,,,,,,,,,,,,,,,,,,,,,,,,,,,,,,,,,,,,,
,,,,,67ef1646a57b37e076099d5c,2025-07-07_19h52.26.945,group3.4_multiperson,2023.2.2,Win32,60.24096386,686c2ebf0248f13bef9af11f,686c8635fdc753f12f2ad88c,,,,,,,,,,,,,,,,,,,,,,,,,,,,,384.9846,1,audio/Narrative8Situation6.wav,386.9947,,386.9947,393.4615,"[[50.2,1000],[49.5,1083],[49.3,1166],[49.3,1250],[49.3,1333],[49.3,1416],[49.3,1500],[49.3,1583],[49.3,1666],[49.3,1750],[49.3,1833],[49.3,1916],[49.3,2000],[49.3,2083],[49.3,2166],[49.3,2250],[49.3,2333],[49.3,2416],[49.3,2499],[49.3,2583],[49.3,2666],[49.3,2750],[49.3,2833],[49.3,2916],[49.3,3000],[49.3,3083],[49.3,3166],[49.3,3250],[49.3,3333],[49.3,3416],[49.3,3500],[49.3,3583],[49.3,3666],[49.3,3750],[49.3,3834],[49.3,3916],[49.3,4000],[49.3,4083],[49.3,4166],[49.3,4250],[49.3,4333],[49.3,4416],[49.3,4500],[49.3,4583],[49.3,4666],[49.3,4750],[49.3,4833],[49.3,4916],[49.3,5000],[49.3,5083],[49.3,5166],[49.3,5250],[49.3,5333],[49.3,5416],[49.3,5499],[49.3,5583],[49.3,5666],[49.3,5750],[49.3,5832],[49.3,5916],[49.3,5999],[49.3,6082],[49.3,6166],[49.3,6249],[49.3,6333],[49.3,6416]]",393.4617,398.5101,35,3.0284,"[{""rating"":35,""responseTime"":2.5254999999999654},{""rating"":35,""responseTime"":3.0283999998569016}]",space,4.5043,,398.5104,Not at all,0,398.5156,,,[],,0,6,6,6,1,audio/Narrative7Situation6.wav,audio/Narrative8Situation6.wav,audio/Narrative5Situation6.wav,audio/Narrative6Situation6.wav,3,2,3,2,,,,,,,,,,,,,,,,,,,,,,,,,,,,,,,,,,,,,,,
,,,,,67ef1646a57b37e076099d5c,2025-07-07_19h52.26.945,group3.4_multiperson,2023.2.2,Win32,60.24096386,686c2ebf0248f13bef9af11f,686c8635fdc753f12f2ad88c,,,,,,,,,,,,,,,,,,,,,,,,,,,,,398.5161,1,audio/Narrative8Situation7.wav,401.5265,,401.5266,413.6084,"[[999,0],[999,83],[999,166],[999,250],[999,334],[999,417],[999,500],[999,583],[999,666],[999,750],[999,833],[999,916],[999,1000],[999,1083],[999,1166],[999,1250],[999,1333],[999,1416],[999,1499],[999,1583],[999,1666],[999,1749],[999,1833],[999,1916],[999,2000],[999,2083],[999,2166],[999,2250],[999,2333],[999,2416],[999,2499],[999,2582],[999,2666],[999,2750],[999,2833],[999,2916],[999,3000],[999,3083],[999,3166],[999,3249],[999,3333],[999,3416],[999,3500],[999,3584],[999,3666],[999,3750],[999,3833],[999,3916],[999,3999],[999,4083],[999,4166],[999,4249],[999,4333],[999,4416],[999,4499],[999,4583],[999,4665],[999,4750],[999,4833],[999,4916],[999,4999],[999,5082],[999,5166],[999,5250],[999,5333],[999,5416],[999,5499],[999,5583],[999,5666],[999,5749],[999,5833],[999,5916],[999,5999],[999,6083],[999,6166],[999,6249],[999,6333],[999,6416],[999,6499],[999,6582],[999,6666],[999,6749],[999,6833],[999,6915],[999,6998],[999,7082],[999,7166],[999,7249],[999,7333],[999,7416],[999,7499],[999,7582],[999,7666],[999,7749],[999,7833],[999,7916],[999,7999],[999,8082],[999,8165],[999,8248],[999,8332],[999,8416],[999,8499],[999,8581],[999,8665],[999,8749],[999,8832],[999,8915],[999,8999],[999,9081],[999,9165],[999,9249],[999,9332],[999,9415],[999,9498],[999,9582],[999,9665],[999,9748],[999,9832],[999,9915],[999,9998],[999,10082],[999,10165],[999,10248],[999,10332],[999,10415],[999,10499],[999,10582],[999,10665],[999,10749],[999,10832],[999,10915],[999,10998],[999,11082],[999,11165],[999,11249],[999,11331],[999,11415],[999,11499],[999,11582],[999,11665],[999,11749],[999,11832],[999,11915],[48.5,11998],[48,12081]]",413.6086,418.0411,49.6875,4.3718,"[{""rating"":49.6875,""responseTime"":3.128500000000031},{""rating"":49.6875,""responseTime"":4.371800000190774}]",space,3.8928,,418.0412,Not at all,0,418.0431,,,[],,0,7,7,7,1,audio/Narrative7Situation7.wav,audio/Narrative8Situation7.wav,audio/Narrative5Situation7.wav,audio/Narrative6Situation7.wav,5,3,4,5,,,,,,,,,,,,,,,,,,,,,,,,,,,,,,,,,,,,,,,
,,,,,67ef1646a57b37e076099d5c,2025-07-07_19h52.26.945,group3.4_multiperson,2023.2.2,Win32,60.24096386,686c2ebf0248f13bef9af11f,686c8635fdc753f12f2ad88c,,,,,,,,,,,,,,,,,,,,,,,,,,,,,418.0437,1,audio/Narrative8Situation8.wav,421.0572,,421.0572,433.9224,"[[999,0],[999,83],[999,166],[999,249],[999,333],[999,416],[999,499],[999,583],[999,666],[999,749],[999,833],[999,916],[999,999],[999,1082],[999,1166],[999,1249],[999,1332],[999,1416],[999,1499],[999,1583],[999,1666],[999,1749],[999,1832],[999,1916],[999,1999],[999,2082],[999,2166],[999,2249],[999,2332],[999,2416],[999,2500],[999,2583],[999,2666],[999,2749],[999,2832],[999,2916],[999,2999],[999,3082],[999,3166],[999,3249],[999,3333],[999,3416],[999,3500],[999,3582],[999,3666],[999,3749],[999,3833],[999,3916],[999,3999],[999,4083],[999,4166],[999,4250],[999,4333],[999,4416],[999,4499],[999,4583],[999,4666],[999,4749],[999,4833],[999,4917],[999,4999],[999,5083],[999,5166],[999,5249],[999,5333],[999,5416],[999,5499],[999,5583],[999,5666],[999,5750],[999,5833],[999,5916],[999,6000],[999,6083],[999,6166],[999,6250],[999,6333],[999,6416],[999,6499],[999,6583],[999,6666],[999,6749],[999,6833],[999,6916],[999,6999],[999,7083],[999,7166],[999,7250],[999,7333],[999,7416],[999,7499],[999,7583],[999,7666],[999,7749],[999,7833],[999,7916],[999,7999],[999,8083],[999,8166],[999,8249],[999,8333],[999,8416],[999,8498],[999,8583],[999,8666],[999,8749],[999,8832],[999,8916],[999,9000],[999,9083],[999,9165],[999,9249],[999,9332],[999,9416],[999,9499],[999,9582],[999,9666],[999,9749],[999,9832],[999,9916],[999,9999],[999,10082],[999,10165],[999,10249],[999,10332],[999,10415],[999,10499],[999,10582],[999,10665],[999,10749],[999,10832],[999,10916],[999,10999],[999,11082],[999,11165],[999,11249],[999,11332],[999,11415],[999,11498],[999,11582],[999,11666],[999,11749],[999,11832],[999,11915],[999,11999],[999,12082],[999,12166],[999,12249],[999,12332],[999,12415],[999,12498],[999,12581],[999,12665],[999,12748],[999,12831]]",433.9226,445.4052,49.47916985,10.789,"[{""rating"":56.77083969116211,""responseTime"":1.9594999999999345},{""rating"":56.77083969116211,""responseTime"":2.591000000000008},{""rating"":49.479169845581055,""responseTime"":10.323699999809264},{""rating"":49.479169845581055,""responseTime"":10.788999999999987}]",space,10.9395,,445.4053,Not at all,0,445.4118,,,[],,0,8,8,8,1,audio/Narrative7Situation8.wav,audio/Narrative8Situation8.wav,audio/Narrative5Situation8.wav,audio/Narrative6Situation8.wav,2,3,3,5,,,,,,,,,,,,,,,,,,,,,,,,,,,,,,,,,,,,,,,
,,,,,67ef1646a57b37e076099d5c,2025-07-07_19h52.26.945,group3.4_multiperson,2023.2.2,Win32,60.24096386,686c2ebf0248f13bef9af11f,686c8635fdc753f12f2ad88c,,,,,,,,,,,,,,,,,,,,,,,,,,,,,445.4125,1,audio/Narrative8Situation9.wav,448.4212,,448.4214,459.7533,[],459.7537,463.7197,30.9375,2.7265,"[{""rating"":30.9375,""responseTime"":2.7264999999999873}]",space,3.4217,,463.7201,Not at all,0,463.7259,,,[],,0,9,9,9,1,audio/Narrative7Situation9.wav,audio/Narrative8Situation9.wav,audio/Narrative5Situation9.wav,audio/Narrative6Situation9.wav,2,3,3,4,,,,,,,,,,,,,,,,,,,,,,,,,,,,,,,,,,,,,,,
,,,,,67ef1646a57b37e076099d5c,2025-07-07_19h52.26.945,group3.4_multiperson,2023.2.2,Win32,60.24096386,686c2ebf0248f13bef9af11f,686c8635fdc753f12f2ad88c,,,,,,,,,,,,,,,,,,,,,,,,,,,,,463.7268,1,audio/Narrative7Situation1.wav,465.7359,space,465.736,521.6277,"[[999,1],[999,81],[999,165],[999,248],[999,332],[999,415],[999,498],[999,582],[999,665],[999,749],[999,832],[999,915],[999,999],[999,1082],[999,1165],[999,1249],[999,1332],[55.7,1415],[47.9,1498],[43.5,1581],[43.1,1665],[43.1,1749],[43.1,1832],[43.1,1915],[43.1,2000],[43.1,2082],[43.8,2165],[44,2248],[44,2332],[43.4,2415],[40.3,2498],[28.4,5414],[27.9,5498],[29.1,5581],[30.6,5664],[31.3,5748],[31.4,5831],[29.3,5914],[28.9,5997],[28.6,6081],[28.5,6164],[28.5,6248],[28.5,6331],[28.5,6414],[28.5,6498],[28.5,6582],[28.5,6665],[28.5,6748],[28.5,6831],[28.5,6914],[28.5,6998],[28.5,7081],[28.5,7165],[28.5,7247],[28.5,7330],[28.5,7414],[28.5,7498],[28.5,7581],[28.5,7664],[28.5,7748],[28.5,7831],[28.5,7914],[28.5,7997],[28.5,8081],[28.5,8164],[28.5,8247],[28.5,8331],[28.5,8414],[28.5,8497],[28.5,8581],[28.5,8665],[28.5,8748],[28.5,8831],[28.5,8914],[28.5,8998],[28.5,9081],[28.5,9164],[28.5,9248],[28.5,9331],[28.5,9414],[28.5,9498],[28.5,9581],[28.5,9665],[28.5,9748],[28.5,9831],[28.5,9914],[28.5,9998],[28.5,10081],[28.5,10164],[28.5,10247],[28.5,10331],[28.5,10414],[28.5,10498],[28.5,10581],[28.5,10664],[28.5,10748],[28.5,10831],[28.5,10914],[28.5,10998],[28.5,11081],[28.5,11164],[28.5,11248],[28.5,11331],[28.5,11414],[28.5,11497],[28.5,11581],[28.5,11664],[28.5,11748],[28.5,11831],[28.5,11914],[28.5,11997],[28.5,12081],[28.5,12164],[28.5,12248],[28.5,12331],[28.5,12414],[28.5,12498],[28.5,12581],[28.5,12664],[28.5,12748],[28.5,12831],[28.5,12914],[28.5,12998],[28.5,13081],[28.5,13164],[28.5,13247],[28.5,13331],[28.5,13415],[28.5,13497],[28.5,13581],[28.5,13664],[28.5,13747],[28.5,13830],[28.5,13915],[28.5,13997],[28.5,14081],[28.5,14164],[28.5,14247],[28.5,14330],[28.5,14414],[28.5,14497],[28.5,14580],[28.5,14664],[28.5,14747],[28.5,14830],[28.5,14914],[28.5,14997],[28.5,15081],[28.5,15164],[28.5,15247],[28.5,15331],[28.5,15414],[28.5,15497],[28.5,15581],[28.5,15664],[28.5,15747],[28.5,15831],[28.5,15914],[28.5,15997],[28.5,16080],[28.5,16164],[28.5,16247],[28.5,16330],[28.5,16414],[28.5,16497],[28.5,16580],[28.5,16664],[28.5,16747],[28.5,16830],[28.5,16914],[28.5,16996],[28.5,17080],[28.5,17164],[28.5,17246],[28.5,17330],[28.5,17414],[28.5,17497],[28.5,17580],[28.5,17663],[28.5,17747],[28.5,17830],[28.5,17913],[28.5,17997],[28.5,18079],[28.5,18163],[28.5,18247],[28.5,18330],[28.5,18413],[28.5,18496],[28.5,18580],[28.5,18664],[28.5,18746],[28.5,18830],[28.5,18912],[28.5,18996],[28.5,19079],[28.5,19163],[28.5,19246],[28.5,19331],[28.5,19413],[28.5,19496],[28.5,19580],[28.5,19663],[28.5,19746],[28.5,19830],[28.5,19913],[28.5,19997],[28.5,20080],[28.5,20162],[28.5,20246],[55.4,43510],[55.3,43593],[54.6,43676],[54.3,43760],[54.3,43843],[54.3,43927],[54.3,44009],[54.3,44093],[54.3,44177],[54.3,44260],[54.3,44343],[54.7,44426],[54.7,44509],[54.7,44593],[55,44676],[55.3,44760],[55.6,44843],[56.1,44927],[56.1,45009],[56.1,45093],[56.1,45177],[56.1,45259],[56.1,45342],[56.1,45426],[56.1,45509],[56.1,45594],[56.1,45676],[56.1,45760],[56.1,45843],[56.1,45927],[56.1,46009],[56.1,46092],[56.1,46176],[56.1,46259],[56.1,46343],[56.1,46426],[56.1,46510],[56.1,46593],[56.1,46676],[56.1,46760],[56.1,46843],[56.1,46925],[56.1,47009],[56.1,47092],[56.1,47176],[56.1,47259],[56.1,47342],[56.1,47426],[56.1,47510],[56.1,47592],[56.1,47676],[56.1,47759],[56.1,47842],[56.1,47926],[56.1,48010],[56.1,48093],[56.1,48176],[56.1,48259],[56.1,48342],[56.1,48425],[56.1,48509],[56.1,48592],[56.1,48676],[56.1,48760],[56.1,48842],[56.1,48926],[56.1,49010],[56.1,49093],[56.1,49176],[56.1,49260],[56.1,49343],[56.1,49426],[56.1,49509],[56.1,49593],[56.1,49676],[56.1,49759],[56.1,49843],[56.1,49926],[56.1,50010],[56.1,50093],[56.1,50176],[56.1,50260],[56.1,50343],[56.1,50426],[56.1,50510],[56.1,50593],[56.1,50676],[56.1,50759],[56.1,50843],[56.1,50926],[56.1,51009],[56.1,51093],[56.1,51176],[56.1,51259],[56.1,51343],[56.1,51426],[56.1,51509],[56.1,51593],[56.1,51676],[56.1,51760],[56.1,51843],[56.1,51926],[56.1,52009],[56.1,52093],[56.1,52176],[56.1,52259],[56.1,52342],[56.1,52426],[56.1,52509],[56.1,52593],[56.1,52676],[56.1,52759],[56.1,52843],[56.1,52926],[56.1,53009],[56.1,53093],[56.1,53176],[56.1,53259],[56.1,53342],[56.1,53425],[56.1,53509],[56.1,53593],[56.1,53676],[56.1,53759],[56.1,53842],[56.1,53925],[56.1,54009],[56.1,54092],[56.1,54175],[56.1,54259],[56.1,54342],[56.1,54425],[56.1,54508],[56.1,54592],[56.1,54675],[56.1,54759],[56.1,54842],[56.1,54925],[56.1,55009],[56.1,55093],[56.1,55175],[56.1,55259],[56.1,55342],[56.1,55425],[56.1,55509],[56.1,55592],[56.1,55676],[56.1,55759],[56.1,55841]]",521.6279,531.6939,60.52083969,7.258,"[{""rating"":60.52083969116211,""responseTime"":6.712399999856984},{""rating"":60.52083969116211,""responseTime"":7.258000000000038}]",space,9.5209,,531.694,Partially,50,531.7009,,,[],,0,10,10,10,1,audio/Narrative8Situation1.wav,audio/Narrative7Situation1.wav,audio/Narrative6Situation1.wav,audio/Narrative5Situation1.wav,5,2,2,5,1.8167,,,,,,,,,,,,,,,,,,,,,,,,,,,,,,,,,,,,,,
,,,,,67ef1646a57b37e076099d5c,2025-07-07_19h52.26.945,group3.4_multiperson,2023.2.2,Win32,60.24096386,686c2ebf0248f13bef9af11f,686c8635fdc753f12f2ad88c,,,,,,,,,,,,,,,,,,,,,,,,,,,,,531.7014,1,audio/Narrative7Situation2.wav,534.7098,,534.7098,542.1926,"[[999,0],[999,83],[999,166],[999,251],[999,333],[999,416],[999,500],[999,583],[999,685],[999,768],[999,850],[999,933],[999,1017],[999,1100],[999,1183],[999,1266],[999,1349],[999,1433],[999,1516],[999,1599],[999,1683],[999,1767],[999,1850],[999,1933],[999,2016],[999,2100],[999,2182],[999,2266],[999,2349],[999,2432],[999,2516],[999,2600],[999,2683],[999,2765],[999,2849],[999,2933],[999,3015],[999,3100],[999,3183],[999,3266],[999,3350],[999,3432],[999,3516],[999,3599],[999,3683],[999,3766],[999,3849],[999,3933],[999,4016],[999,4099],[999,4182],[999,4266],[999,4350],[999,4432],[999,4516],[999,4600],[999,4683],[999,4766],[999,4848],[999,4932],[999,5016],[999,5099],[999,5183],[999,5266],[999,5350],[999,5432],[999,5516],[999,5599],[999,5689],[999,5766],[999,5849],[999,5932],[999,6016],[999,6099],[999,6183],[999,6266],[999,6350],[999,6432],[999,6516],[999,6599],[999,6682],[999,6766],[999,6849],[999,6932],[999,7016],[999,7099],[999,7183],[999,7266],[999,7349],[999,7432]]",542.193,549.9587,23.4375,5.6766,"[{""rating"":61.25000000000001,""responseTime"":3.0915999999047017},{""rating"":23.4375,""responseTime"":5.203900000095359},{""rating"":23.4375,""responseTime"":5.676599999904624}]",space,7.2189,,549.959,Not at all,0,549.9687,,,[],,0,11,11,11,1,audio/Narrative8Situation2.wav,audio/Narrative7Situation2.wav,audio/Narrative6Situation2.wav,audio/Narrative5Situation2.wav,3,3,3,3,,,,,,,,,,,,,,,,,,,,,,,,,,,,,,,,,,,,,,,
,,,,,67ef1646a57b37e076099d5c,2025-07-07_19h52.26.945,group3.4_multiperson,2023.2.2,Win32,60.24096386,686c2ebf0248f13bef9af11f,686c8635fdc753f12f2ad88c,,,,,,,,,,,,,,,,,,,,,,,,,,,,,549.9695,1,audio/Narrative7Situation3.wav,557.9744,,557.9745,567.2401,"[[999,1],[999,81],[999,165],[999,248],[999,331],[999,415],[999,498],[999,581],[999,666],[999,748],[999,832],[999,918],[999,998],[999,1081],[999,1165],[999,1248],[50,1331],[50.1,1414],[48.5,1498],[48.5,1581],[48.5,1665],[48.5,1748],[48.5,1831],[48.5,1915],[48.5,1998],[48.5,2081],[47.4,2165],[46.4,2248],[45.3,2498],[45.3,2581],[45.3,2665],[45.3,2748],[45.3,2831],[45.3,2915],[45.3,2998],[45.3,3081],[45.3,3165],[45.3,3248],[45.3,3331],[45.3,3415],[45.3,3498],[45.3,3582],[45.3,3665],[45.3,3748],[45.3,3832],[45.3,3915],[45.3,3998],[45.3,4081],[45.3,4165],[45.3,4248],[45.3,4332],[45.3,4415],[45.3,4498],[45.3,4581],[45.3,4665],[45.3,4748],[45.3,4832],[45.3,4915],[45.3,4998],[45.3,5081],[45.3,5165],[45.3,5248],[45.3,5331],[45.3,5415],[45.3,5498],[45.3,5582],[45.3,5665],[45.3,5748],[45.3,5832],[45.3,5915],[45.3,5998],[45.3,6082],[45.3,6165],[45.3,6248],[45.3,6330],[45.3,6414],[45.3,6498],[45.3,6582],[45.3,6665],[45.3,6747],[45.3,6831],[45.3,6915],[45.3,6998],[45.3,7082],[45.3,7165],[45.3,7248],[45.3,7331],[45.3,7415],[45.3,7498],[45.3,7581],[45.3,7664],[45.3,7748],[45.3,7831],[45.3,7914],[45.3,7998],[45.3,8081],[45.3,8165],[45.3,8248],[45.3,8331],[45.3,8415],[45.3,8498],[45.3,8581],[45.3,8664],[45.3,8747],[45.3,8831],[45.3,8915],[45.3,8998],[45.3,9081],[45.3,9165],[45.3,9247]]",567.2405,573.3385,36.77083969,3.7447,"[{""rating"":40.416669845581055,""responseTime"":2.7481000001430402},{""rating"":36.77083969116211,""responseTime"":3.744700000047601}]",space,5.5521,,573.3386,Not at all,0,573.3421,,,[],,0,12,12,12,1,audio/Narrative8Situation3.wav,audio/Narrative7Situation3.wav,audio/Narrative6Situation3.wav,audio/Narrative5Situation3.wav,4,8,5,3,,,,,,,,,,,,,,,,,,,,,,,,,,,,,,,,,,,,,,,
,,,,,67ef1646a57b37e076099d5c,2025-07-07_19h52.26.945,group3.4_multiperson,2023.2.2,Win32,60.24096386,686c2ebf0248f13bef9af11f,686c8635fdc753f12f2ad88c,,,,,,,,,,,,,,,,,,,,,,,,,,,,,573.3426,1,audio/Narrative7Situation4.wav,576.3546,,576.3547,588.0695,"[[999,0],[999,82],[999,166],[999,249],[999,332],[999,416],[999,499],[999,583],[999,666],[999,750],[999,833],[999,917],[999,999],[999,1083],[999,1165],[999,1249],[999,1332],[999,1416],[999,1500],[999,1582],[999,1666],[999,1749],[999,1833],[28.3,1915],[28,1999],[28,2082],[28,2166],[28,2249],[28,2332],[29.4,2415],[30.5,2499],[30.7,2582],[30.8,2665],[30.8,2749],[30.8,2832],[30.8,2915],[30.8,2999],[30.8,3082],[30.8,3165],[30.8,3249],[30.8,3333],[30.8,3415],[30.8,3499],[30.8,3582],[30.8,3665],[30.8,3749],[30.8,3833],[30.8,3915],[30.8,3999],[30.8,4082],[30.8,4167],[30.8,4249],[30.8,4333],[30.8,4416],[30.8,4499],[30.8,4583],[30.8,4666],[30.8,4749],[30.8,4833],[30.8,4916],[30.8,4999],[30.8,5083],[30.8,5166],[30.8,5249],[30.8,5332],[30.8,5417],[30.8,5499],[30.8,5582],[30.8,5667],[30.8,5749],[30.8,5832],[30.8,5916],[30.8,5999],[30.8,6082],[30.8,6165],[30.8,6249],[30.8,6332],[30.8,6416],[30.8,6498],[30.8,6582],[30.8,6665],[30.8,6748],[30.8,6832],[30.8,6915],[30.8,6999],[30.8,7082],[30.8,7166],[30.8,7249],[30.8,7332],[30.8,7415],[30.8,7498],[30.8,7581],[30.8,7664],[30.8,7748],[30.8,7831],[30.8,7914],[30.8,7998],[30.8,8081],[30.8,8164],[30.8,8248],[30.8,8331],[30.8,8415],[30.8,8498],[30.8,8582],[30.8,8664],[30.8,8748],[30.8,8831],[30.8,8914],[30.8,8997],[30.8,9081],[30.8,9165],[30.8,9248],[30.8,9331],[30.8,9414],[30.8,9498],[30.8,9581],[30.8,9664],[30.8,9747],[30.8,9831],[30.8,9915],[30.8,9998],[30.8,10081],[30.8,10164],[30.8,10247],[30.8,10331],[30.8,10414],[30.8,10498],[30.8,10581],[30.8,10664],[30.8,10748],[30.8,10831],[30.8,10914],[30.8,10998],[30.8,11081],[30.8,11164],[30.8,11247],[30.8,11331],[30.8,11414],[30.8,11498],[30.8,11581],[30.8,11664]]",588.0697,592.8527,30.41666985,4.2394,"[{""rating"":41.25,""responseTime"":1.5893000001907467},{""rating"":28.95833492279053,""responseTime"":2.723600000143051},{""rating"":30.41666984558106,""responseTime"":3.570900000095321},{""rating"":30.41666984558106,""responseTime"":4.239400000095316}]",space,4.2409,,592.8528,Partially,50,592.8623,,,[],,0,13,13,13,1,audio/Narrative8Situation4.wav,audio/Narrative7Situation4.wav,audio/Narrative6Situation4.wav,audio/Narrative5Situation4.wav,3,3,2,1,,,,,,,,,,,,,,,,,,,,,,,,,,,,,,,,,,,,,,,
,,,,,67ef1646a57b37e076099d5c,2025-07-07_19h52.26.945,group3.4_multiperson,2023.2.2,Win32,60.24096386,686c2ebf0248f13bef9af11f,686c8635fdc753f12f2ad88c,,,,,,,,,,,,,,,,,,,,,,,,,,,,,592.8631,1,audio/Narrative7Situation5.wav,597.8683,,597.8684,606.3513,[],606.3517,620.3153,43.95833969,13.6923,"[{""rating"":43.95833969116211,""responseTime"":13.692300000190698}]",space,13.4139,,620.3154,Partially,50,620.3185,,,[],,0,14,14,14,1,audio/Narrative8Situation5.wav,audio/Narrative7Situation5.wav,audio/Narrative6Situation5.wav,audio/Narrative5Situation5.wav,2,5,2,5,,,,,,,,,,,,,,,,,,,,,,,,,,,,,,,,,,,,,,,
,,,,,67ef1646a57b37e076099d5c,2025-07-07_19h52.26.945,group3.4_multiperson,2023.2.2,Win32,60.24096386,686c2ebf0248f13bef9af11f,686c8635fdc753f12f2ad88c,,,,,,,,,,,,,,,,,,,,,,,,,,,,,620.3191,1,audio/Narrative7Situation6.wav,623.3323,,623.3324,633.3143,"[[999,1],[999,82],[999,165],[999,249],[999,332],[999,415],[999,499],[999,583],[999,668],[999,755],[999,835],[999,916],[999,998],[999,1082],[999,1166],[999,1248],[999,1331],[999,1415],[999,1499],[999,1583],[999,1666],[999,1748],[999,1832],[32.5,1915],[32.4,1998],[32.4,2082],[32.4,2166],[32.4,2248],[32.4,2332],[32.4,2416],[32.4,2498],[32.4,2581],[32.4,2665],[32.4,2749],[32.4,2832],[32.4,2915],[32.4,2998],[32.4,3082],[32.4,3165],[32.4,3248],[32.4,3331],[32.4,3415],[32.4,3498],[32.4,3582],[32.4,3666],[32.4,3748],[32.4,3832],[32.4,3915],[32.4,3999],[32.4,4081],[32.4,4165],[32.4,4248],[32.4,4331],[32.4,4414],[32.4,4498],[32.4,4581],[32.4,4665],[32.4,4748],[32.4,4831],[32.4,4915],[32.4,4998],[32.4,5082],[32.4,5165],[32.4,5248],[32.4,5331],[32.4,5414],[32.4,5498],[32.4,5581],[32.4,5664],[32.4,5748],[32.4,5832],[32.4,5915],[32.4,5998],[32.4,6081],[32.4,6165],[32.4,6248],[32.4,6331],[32.4,6414],[32.4,6501],[32.4,6581],[32.4,6664],[32.4,6749],[32.4,6831],[32.4,6915],[32.4,6999],[32.4,7082],[32.4,7165],[32.4,7249],[32.4,7331],[32.4,7414],[32.4,7497],[32.4,7583],[32.4,7665],[32.4,7748],[32.4,7832],[32.4,7915],[32.4,7998],[33.8,8081],[36.9,8166],[37.1,8249],[37.9,8332],[38.6,8415],[38.8,8498],[38.9,8582],[39.9,8666],[41.6,8747],[41.8,8831],[41.9,8915],[41.9,8999],[41.9,9082],[41.9,9165],[41.9,9248],[41.9,9332],[41.9,9415],[41.9,9499],[41.9,9581],[41.9,9664],[41.9,9747],[41.9,9831],[41.9,9914]]",633.3147,634.9487,41.875,0.6645,"[{""rating"":41.875,""responseTime"":0.6644999999999754}]",space,1.0866,,634.949,Partially,50,634.955,,,[],,0,15,15,15,1,audio/Narrative8Situation6.wav,audio/Narrative7Situation6.wav,audio/Narrative6Situation6.wav,audio/Narrative5Situation6.wav,2,3,2,3,,,,,,,,,,,,,,,,,,,,,,,,,,,,,,,,,,,,,,,
,,,,,67ef1646a57b37e076099d5c,2025-07-07_19h52.26.945,group3.4_multiperson,2023.2.2,Win32,60.24096386,686c2ebf0248f13bef9af11f,686c8635fdc753f12f2ad88c,,,,,,,,,,,,,,,,,,,,,,,,,,,,,634.9558,1,audio/Narrative7Situation7.wav,639.9638,,639.964,657.1443,"[[999,1],[999,99],[999,182],[999,265],[999,348],[999,432],[999,515],[999,599],[999,681],[41,767],[37.3,848],[36,932],[35.7,1015],[35.7,1099],[35.7,1182],[35.7,1265],[35.7,1348],[35.7,1432],[35.7,1515],[35.7,1598],[35.7,1682],[35.7,1765],[35.7,1848],[35.7,1932],[35.7,2015],[35.7,2098],[35.7,2181],[35.7,2265],[41.5,15063],[40.5,15146],[40.1,15230],[38.2,15313],[36.5,15396],[36.1,15480],[36.1,15563],[36.1,15646],[36.1,15730],[36.1,15813],[36.1,15896],[36.1,15980],[36.1,16063],[36.1,16146],[36.1,16230],[36.1,16314],[36.1,16397],[36.1,16480],[35.6,16563],[35.6,16646],[35.6,16730],[35.6,16813],[35.6,16896],[35.6,16980],[35.6,17063],[35.6,17146]]",657.1446,658.9511,35.625,0.4312,"[{""rating"":35.625,""responseTime"":0.4312000000477383}]",space,1.2542,,658.9512,Definitely yes,100,658.9574,,,[],,0,16,16,16,1,audio/Narrative8Situation7.wav,audio/Narrative7Situation7.wav,audio/Narrative6Situation7.wav,audio/Narrative5Situation7.wav,3,5,5,4,,,,,,,,,,,,,,,,,,,,,,,,,,,,,,,,,,,,,,,
,,,,,67ef1646a57b37e076099d5c,2025-07-07_19h52.26.945,group3.4_multiperson,2023.2.2,Win32,60.24096386,686c2ebf0248f13bef9af11f,686c8635fdc753f12f2ad88c,,,,,,,,,,,,,,,,,,,,,,,,,,,,,658.9579,1,audio/Narrative7Situation8.wav,660.9609,space,660.9611,680.274,"[[999,1],[999,82],[999,165],[999,249],[999,332],[999,416],[999,499],[999,582],[34.1,1165],[34.2,1249],[34.2,1332],[34.2,1415],[34.2,1499],[34.2,1582],[34.2,1665],[34.2,1749],[34.2,1832],[34.2,1915],[34.2,1999],[34.2,2082],[34.2,2165],[34.2,2249],[34.2,2332],[34.2,2415],[34.2,2499],[34.2,2582],[34.2,2666],[34.2,2750],[34.2,2831],[34.2,2915],[34.2,2998],[34.2,3081],[34.2,3165]]",680.2742,683.6236,61.875,2.7292,"[{""rating"":61.97916984558105,""responseTime"":1.6565999999046426},{""rating"":61.97916984558105,""responseTime"":1.8722000000476555},{""rating"":61.875,""responseTime"":2.72920000004774}]",space,2.8038,,683.6237,Partially,50,683.6272,,,[],,0,17,17,17,1,audio/Narrative8Situation8.wav,audio/Narrative7Situation8.wav,audio/Narrative6Situation8.wav,audio/Narrative5Situation8.wav,3,2,5,3,0.2248,,,,,,,,,,,,,,,,,,,,,,,,,,,,,,,,,,,,,,
,,,,,67ef1646a57b37e076099d5c,2025-07-07_19h52.26.945,group3.4_multiperson,2023.2.2,Win32,60.24096386,686c2ebf0248f13bef9af11f,686c8635fdc753f12f2ad88c,,,,,,,,,,,,,,,,,,,,,,,,,,,,,683.6274,1,audio/Narrative7Situation9.wav,685.6412,,685.6412,694.2731,"[[999,0],[999,82],[999,165],[999,249],[999,332],[999,415],[999,498],[999,582],[999,665],[999,748],[999,832],[999,915],[47.9,999],[47.9,1082],[47.9,1165],[47.9,1248],[47.9,1332],[47.9,1415],[47.9,1498],[47.9,1582],[47.9,1665],[47.9,1748],[47.9,1832],[47.9,1915],[47.9,1998],[47.9,2082],[47.9,2165],[47.9,2248],[47.9,2331],[47.9,2415],[47.9,2499],[47.9,2581],[47.9,2665],[45.4,2748],[41.4,2831],[41.4,2914],[41.4,2999],[41.4,3081],[40.8,3165],[37.9,3249],[37.3,3331],[37.3,3415],[37.3,3499],[37.3,3581],[37.3,3665],[37.3,3748],[37.3,3832],[37.3,3914],[37.3,3999],[37.3,4082],[37.3,4165],[37.3,4248],[37.3,4332],[37.3,4415],[37.3,4499],[37.3,4582],[37.3,4664],[37.3,4749],[37.3,4832],[37.3,4914],[37.3,4998],[37.3,5082],[37.3,5165],[37.3,5249],[37.3,5331],[37.3,5415],[37.3,5498],[37.3,5582],[37.3,5665],[37.3,5749],[37.3,5832],[37.3,5915],[37.3,5998],[37.3,6081],[37.3,6165],[37.3,6248],[37.3,6331],[37.3,6415],[37.3,6498],[37.3,6582],[37.3,6665],[37.3,6748],[37.3,6831],[37.3,6914],[37.3,6998],[37.3,7081],[37.3,7165],[37.3,7248],[37.3,7331],[37.3,7414],[37.3,7497],[37.3,7581],[37.3,7664],[37.3,7747],[37.3,7831],[37.3,7914],[37.3,7997],[37.3,8081],[37.3,8164],[37.3,8248],[37.3,8330],[37.3,8414],[37.3,8498],[37.3,8581]]",694.2734,704.5877,31.14583969,4.9044,"[{""rating"":31.14583969116211,""responseTime"":4.904400000095393}]",space,9.7644,,704.5878,Definitely yes,100,704.5913,,,[],,0,18,18,18,1,audio/Narrative8Situation9.wav,audio/Narrative7Situation9.wav,audio/Narrative6Situation9.wav,audio/Narrative5Situation9.wav,3,2,4,3,,,,,,,,,,,,,,,,,,,,,,,,,,,,,,,,,,,,,,,
,,,,,67ef1646a57b37e076099d5c,2025-07-07_19h52.26.945,group3.4_multiperson,2023.2.2,Win32,60.24096386,686c2ebf0248f13bef9af11f,686c8635fdc753f12f2ad88c,,,,,,,,,,,,,,,,,,,,,,,,,,,709.7878,712.3713,712.4259,2,audio/Narrative13Situation2.wav,712.4262,,712.4262,742.1832,"[[999,0],[999,77],[999,160],[999,244],[999,327],[999,410],[999,494],[999,577],[999,661],[999,744],[999,827],[32.2,910],[31,993],[32.2,1076],[35.8,1160],[36.3,1243],[35.1,1326],[33.9,1410],[33.9,1493],[33.9,1576],[33.9,1660],[33.9,1743],[33.9,1827],[33.9,1910],[33.9,1993],[33.9,2076],[33.9,2160],[33.9,2243],[33.9,2327],[33.9,2410],[33.9,2493],[33.9,2577],[33.9,2660],[33.9,2744],[33.9,2827],[33.9,2910],[33.9,2994],[33.9,3077],[33.9,3159],[33.9,3243],[33.9,3327],[33.9,3410],[33.9,3494],[33.9,3576],[33.9,3660],[33.9,3743],[33.9,3827],[33.9,3910],[33.9,3993],[33.9,4076],[33.9,4160],[33.9,4243],[33.9,4326],[33.9,4410],[33.9,4493],[33.9,4577],[33.9,4660],[33.9,4744],[33.9,4827],[33.9,4910],[33.9,4993],[33.9,5076],[33.9,5160],[33.9,5243],[33.9,5326],[33.9,5410],[33.9,5493],[33.9,5576],[33.9,5660],[33.9,5743],[33.9,5826],[33.9,5909],[33.9,5993],[33.9,6076],[33.9,6159],[33.9,6243],[33.9,6326],[33.9,6410],[33.9,6493],[33.9,6576],[33.9,6660],[33.9,6743],[33.9,6826],[33.9,6910],[33.9,6993],[33.9,7076],[33.9,7159],[33.9,7243],[33.9,7326],[33.9,7410],[33.9,7493],[33.9,7576],[33.9,7660],[33.9,7743],[33.9,7826],[33.9,7910],[33.9,7993],[33.9,8076],[33.9,8159],[33.9,8242],[33.9,8326],[33.9,8409],[33.9,8492],[33.9,8576],[33.9,8659],[33.9,8742],[33.9,8826],[33.9,8909],[33.9,8992],[33.9,9075],[33.9,9159],[33.9,9242],[33.9,9326],[33.9,9409],[33.9,9492],[33.9,9575],[33.9,9658],[33.9,9742],[33.9,9825],[33.9,9908],[33.9,9992],[33.9,10075],[33.9,10159],[33.9,10242],[33.9,10326],[33.9,10409],[33.9,10492],[33.9,10576],[33.9,10659],[33.9,10742],[33.9,10825],[33.9,10909],[33.9,10992],[33.9,11075],[33.9,11159],[33.9,11242],[33.9,11325],[33.9,11408],[33.9,11492],[33.9,11575],[33.9,11659],[33.9,11742],[33.9,11826],[33.9,11908],[33.9,11991],[33.9,12075],[33.9,12159],[33.9,12242],[33.9,12325],[33.9,12408],[33.9,12492],[33.9,12575],[33.9,12658],[33.9,12742],[33.9,12825],[33.9,12908],[33.9,12992],[33.9,13075],[33.9,13159],[33.9,13242],[33.9,13325],[33.9,13409],[33.9,13492],[33.9,13575],[33.9,13658],[33.9,13742],[34.1,13826],[35.3,13908],[35.7,13992],[35.7,14076],[34.6,14158]]",742.1835,742.1871,,,[],,,,742.1871,Not at all,0,742.1905,,,[],,0,0,0,0,1,audio/Narrative13Situation2.wav,audio/Narrative13Situation2.wav,audio/Narrative13Situation2.wav,audio/Narrative13Situation2.wav,2,2,2,2,,,,,704.5919,709.7874,space,4.6639,,,,,,,,,,,,,,,,,,,,,,,,,,,,,,,
,,,,,67ef1646a57b37e076099d5c,2025-07-07_19h52.26.945,group3.4_multiperson,2023.2.2,Win32,60.24096386,686c2ebf0248f13bef9af11f,686c8635fdc753f12f2ad88c,,,,,,,,,,,,,,,,,,,,,,,,,,,,,742.1907,2,audio/Narrative6Situation1.wav,744.2018,,744.2019,770.796,"[[999,2],[999,81],[999,163],[999,246],[999,330],[999,413],[999,496],[999,580],[40.2,663],[34.4,747],[30.5,830],[32.9,2748],[38,2830],[38.8,2913],[38.8,2996],[38.8,3080],[38.8,3163],[37.3,3246],[22.8,3997],[22.8,4080],[23,4163],[23.4,4246],[23.4,4329],[23.4,4413],[23.4,4496],[23.4,4579],[23.4,4663],[23.4,4747],[23.4,4830],[23.5,4913],[23.5,4996],[23.5,5080],[23.5,5163],[23.5,5247],[23.5,5329],[23.5,5413],[23.5,5496],[23.5,5579],[23.5,5663],[25.1,5746],[27.8,5830],[31.9,5913],[35.3,5996],[37.4,6080],[43.9,6163],[53.4,6247],[54.8,6329],[54.8,6413],[54.8,6496],[54.8,6579],[54.8,6663],[54.8,6746],[54.8,6830],[54.8,6913],[50.6,6997],[31.1,8412],[31.1,8496],[31.1,8579],[31.1,8662],[31.1,8745],[31.1,8829],[31.1,8913],[31.1,8996],[31.1,9079],[31.1,9162],[31.1,9246],[31.1,9329],[31.1,9412],[31.1,9495],[31.1,9579],[31.1,9662],[31.1,9745],[31.1,9829],[31.1,9913],[31.1,9996],[31.1,10079],[31.1,10162],[31.1,10245],[31.1,10329],[31.1,10412],[31.1,10495],[31.1,10579],[31.1,10662],[31.1,10746],[31.1,10829],[31.1,10913],[31.1,10996],[50.7,13163],[44.5,13245],[44.5,13328],[44.5,13412],[43,13495],[41.1,13578],[40.1,13662],[38.3,13745],[36.4,13828],[36.3,13912],[36.3,13996],[36.3,14078],[36.3,14162],[36.3,14245],[36.3,14328],[36.3,14412],[36.3,14496],[36.3,14579],[36.3,14662],[36.3,14746],[36.3,14829],[36.3,14912],[36.3,14996],[36.3,15080],[36.3,15163],[36.3,15246],[36.3,15329],[36.3,15412],[36.3,15496],[36.3,15579],[36.3,15662],[36.8,15746],[37.4,15829],[46.3,15912],[50.2,15995],[52.5,16079],[53.1,16163],[55.3,16245],[57.4,16328],[58.3,16413],[58.3,16495],[58.3,16579],[58.3,16662],[58.3,16745],[58.3,16828],[58.3,16911],[58.3,16994],[58.3,17078],[58.3,17161],[58.3,17245],[58.3,17328],[58.3,17412],[58.3,17495],[58.3,17579],[58.3,17662],[58.3,17745],[58.3,17828],[58.3,17912],[58.3,17995],[58.3,18079],[58.3,18162],[58.3,18245],[58.3,18329],[58.3,18412],[58.3,18494],[58.3,18578],[58.3,18661],[58.3,18745],[58.3,18828],[58.3,18912],[58.3,18995],[58.3,19079],[58.3,19161],[58.3,19245],[58.3,19328],[58.3,19411],[58.3,19495],[58.3,19578],[58.3,19662],[58.3,19745],[58.3,19828],[58.3,19912],[58.3,19995],[58.3,20079],[58.3,20162],[58.3,20244],[58.3,20327],[58.3,20411],[58.3,20495],[58.3,20578],[58.3,20662],[58.3,20745],[58.3,20828],[58.3,20911],[58.3,20995],[58.3,21078],[58.3,21161],[58.3,21245],[58.3,21328],[58.3,21411],[58.3,21495],[58.3,21578],[58.3,21661],[58.3,21745],[58.3,21828],[58.3,21911],[58.3,21995],[58.3,22078],[58.3,22162],[58.3,22244],[58.3,22328],[55.8,22412],[50.4,22494],[45.2,22578],[43.1,22661],[42.9,22744],[42.8,22828],[42.3,22912],[39.5,22994],[39.3,23077],[39.3,23161],[39.3,23244],[39.3,23327],[39.2,23411],[39.2,23495],[39.2,23578],[39.2,23661],[39.2,23745],[39.2,23828],[39.2,23911],[39.2,23995],[39.2,24078],[39.2,24161],[39.2,24244],[39.2,24327],[39.2,24410],[39.2,24494],[39.2,24578],[39.2,24661],[39.2,24745],[39.2,24828],[39.2,24911],[39.2,24994],[39.2,25077],[39.2,25161],[39.2,25244],[39.2,25327],[39.2,25411],[39.2,25494],[39.2,25577],[39.2,25660],[39.2,25744],[39.2,25827],[39.2,25910],[39.2,25994],[39.2,26077],[39.2,26161],[39.2,26245],[39.2,26327],[39.2,26411],[39.2,26494],[39.2,26577]]",770.7962,779.729,39.16666985,0.2936,"[{""rating"":39.166669845581055,""responseTime"":0.2935999999045862}]",space,8.4055,,779.7292,Partially,50,779.7377,,,[],,0,1,1,1,1,audio/Narrative7Situation1.wav,audio/Narrative8Situation1.wav,audio/Narrative5Situation1.wav,audio/Narrative6Situation1.wav,2,5,5,2,,,,,,,,,,,,,,,,,,,,,,,,,,,,,,,,,,,,,,,
,,,,,67ef1646a57b37e076099d5c,2025-07-07_19h52.26.945,group3.4_multiperson,2023.2.2,Win32,60.24096386,686c2ebf0248f13bef9af11f,686c8635fdc753f12f2ad88c,,,,,,,,,,,,,,,,,,,,,,,,,,,,,779.7385,2,audio/Narrative6Situation2.wav,782.7453,,782.7454,811.2587,"[[999,1],[999,82],[999,166],[999,249],[999,332],[999,416],[999,499],[999,583],[999,665],[999,749],[999,833],[999,916],[999,999],[999,1081],[999,1165],[999,1248],[37.9,1332],[37.5,1415],[37.5,1498],[37.5,1582],[39.1,1665],[42.5,1748],[45.4,1832],[47.5,1915],[50.9,1998],[54.3,2083],[60.1,2165],[66.1,2248],[67.3,2331],[67.1,2415],[65.6,2498],[57.6,2581],[53.2,2665],[52.7,2748],[52.6,2831],[52,2915],[51.4,2998],[51.1,3081],[50.9,3165],[49.8,3248],[46.8,3332],[39.7,3415],[35.7,3498],[34.6,3582],[34.6,3665],[34.6,3748],[34.6,3831],[34.6,3915],[34.6,3999],[34.6,4082],[34.6,4164],[34.6,4249],[34.6,4332],[34.6,4415],[34.6,4499],[34.6,4582],[34.6,4665],[34.6,4749],[34.6,4832],[34.6,4915],[34.6,4999],[34.6,5082],[34.7,5166],[36.1,5248],[37.9,5331],[38.6,5414],[38.6,5498],[38.6,5582],[38.6,5665],[38.6,5748],[38.6,5831],[38.6,5915],[38.6,5999],[38.6,6081],[38.6,6165],[38.6,6248],[38.6,6332],[38.6,6415],[38.6,6498],[38.6,6582],[38.6,6665],[38.6,6748],[38.6,6831],[38.6,6915],[38.6,6998],[38.6,7082],[38.6,7165],[38.6,7249],[38.6,7332],[38.6,7415],[38.6,7498],[38.6,7581],[38.6,7665],[38.6,7748],[38.6,7831],[38.6,7915],[38.6,7998],[38.6,8081],[38.6,8165],[38.6,8248],[38.6,8331],[38.6,8415],[38.6,8498],[38.6,8581],[38.6,8665],[38.6,8748],[38.6,8831],[38.6,8915],[38.6,8998],[38.6,9081],[38.6,9165],[38.6,9248],[38.6,9331],[38.6,9415],[38.6,9498],[38.6,9581],[38.6,9665],[38.6,9748],[38.6,9831],[38.6,9915],[38.6,9998],[38.6,10081],[38.6,10164],[38.6,10248],[38.6,10331],[38.6,10415],[38.6,10498],[38.6,10581],[38.6,10665],[38.6,10748],[38.6,10831],[38.6,10915],[38.6,10997],[38.6,11081],[38.6,11165],[38.6,11248],[38.6,11331],[38.6,11414],[38.6,11498],[38.6,11581],[38.6,11664],[38.6,11747],[38.6,11830],[38.6,11914],[38.6,11998],[38.6,12081],[38.6,12164],[38.6,12248],[38.6,12331],[38.6,12414],[38.6,12497],[38.6,12580],[38.6,12664],[38.6,12748],[38.6,12831],[38.6,12914],[38.6,12999],[38.6,13081],[38.6,13164],[38.6,13247],[38.6,13331],[38.6,13414],[38.6,13497],[38.6,13581],[38.6,13665],[38.6,13747],[38.6,13831],[38.6,13914],[38.6,13997],[38.6,14081],[38.6,14164],[38.6,14247],[38.6,14330],[38.6,14414],[38.6,14497],[38.6,14580],[38.6,14664],[38.6,14747],[38.6,14831],[38.6,14913],[38.6,14997],[38.6,15080],[38.6,15164],[38.6,15247],[38.6,15330],[38.6,15413],[38.6,15497],[38.6,15581],[38.6,15664],[38.6,15747],[38.6,15831],[38.6,15914],[38.6,15997],[38.6,16081],[38.6,16164],[38.6,16247],[38.6,16331],[38.6,16414],[38.6,16497],[38.6,16581],[38.6,16664],[38.6,16747],[38.6,16830],[38.6,16914],[38.6,16997],[38.6,17080],[38.6,17164],[38.6,17247],[38.6,17330],[38.6,17414],[38.6,17497],[38.6,17580],[38.6,17663],[38.6,17747],[38.6,17830],[38.6,17914],[38.6,17997],[38.6,18080],[38.6,18163],[38.6,18246],[38.6,18330],[38.6,18413],[38.6,18497],[38.6,18580],[38.6,18664],[38.6,18746],[38.6,18830],[38.6,18913],[38.6,18997],[38.6,19080],[38.6,19163],[38.6,19247],[38.6,19330],[38.6,19413],[38.6,19497],[38.6,19580],[38.6,19663],[38.6,19746],[38.6,19830],[38.6,19913],[38.6,19996],[38.6,20080],[38.6,20163],[38.6,20247],[38.6,20330],[38.6,20413],[38.6,20496],[38.6,20580],[38.6,20664],[38.6,20746],[38.6,20829],[38.6,20912],[38.6,20996],[38.6,21080],[38.6,21163],[38.6,21246],[38.6,21330],[38.6,21413],[38.6,21496],[38.6,21580],[38.6,21663],[38.6,21745],[38.6,21829],[38.6,21913],[38.6,21996],[38.6,22079],[38.6,22163],[38.6,22246],[38.6,22330],[38.6,22413],[38.6,22496],[38.6,22580],[38.6,22663],[38.6,22746],[38.6,22829],[38.6,22913],[38.6,22996],[38.6,23079],[38.6,23163],[38.6,23246],[38.6,23330],[38.6,23413],[38.6,23496],[38.6,23579],[38.6,23663],[38.6,23746],[38.6,23829],[38.6,23913],[38.6,23996],[38.6,24080],[38.6,24163],[38.6,24246],[38.6,24329],[38.6,24413],[38.6,24496],[38.6,24579],[38.6,24662],[38.6,24745],[38.6,24829],[38.6,24913],[38.6,24996],[38.6,25079],[38.6,25162],[38.6,25245],[38.6,25329],[38.6,25413],[38.6,25496],[38.6,25578],[38.6,25662],[38.6,25745],[38.6,25829],[38.6,25912],[38.6,25995],[38.6,26079],[38.6,26163],[38.6,26245],[38.6,26329],[38.6,26412],[38.6,26495],[38.6,26579],[38.6,26662],[38.6,26745],[38.6,26829],[38.6,26912],[38.6,26995],[38.6,27078],[38.6,27162],[38.6,27245],[38.6,27329],[38.6,27412],[38.6,27496],[38.6,27580],[38.6,27662],[38.6,27745],[38.6,27828],[38.6,27912],[38.6,27995],[38.6,28079],[38.6,28162],[38.6,28245],[38.6,28329],[38.6,28412],[38.6,28495]]",811.2595,822.2236,35.52083969,8.0716,"[{""rating"":35.52083969116211,""responseTime"":8.071599999904606}]",space,10.419,,822.2239,Partially,50,822.2293,,,[],,0,2,2,2,1,audio/Narrative7Situation2.wav,audio/Narrative8Situation2.wav,audio/Narrative5Situation2.wav,audio/Narrative6Situation2.wav,3,3,3,3,,,,,,,,,,,,,,,,,,,,,,,,,,,,,,,,,,,,,,,
,,,,,67ef1646a57b37e076099d5c,2025-07-07_19h52.26.945,group3.4_multiperson,2023.2.2,Win32,60.24096386,686c2ebf0248f13bef9af11f,686c8635fdc753f12f2ad88c,,,,,,,,,,,,,,,,,,,,,,,,,,,,,822.23,2,audio/Narrative6Situation3.wav,827.2394,,827.2396,839.854,"[[999,1],[999,82],[999,166],[999,249],[999,332],[999,416],[999,499],[999,582],[999,666],[999,749],[999,832],[999,916],[999,999],[999,1082],[999,1166],[999,1249],[999,1332],[999,1415],[999,1499],[999,1582],[999,1666],[999,1749],[999,1832],[999,1916],[999,1999],[999,2082],[999,2166],[999,2249],[999,2332],[999,2415],[999,2498],[999,2582],[999,2666],[999,2749],[999,2832],[999,2915],[999,2998],[999,3082],[999,3166],[999,3249],[999,3332],[999,3416],[999,3498],[999,3582],[999,3666],[999,3749],[999,3832],[999,3915],[999,3999],[999,4082],[999,4165],[999,4249],[999,4332],[999,4415],[999,4499],[999,4582],[999,4666],[999,4748],[999,4832],[999,4916],[999,4999],[999,5082],[999,5165],[999,5249],[999,5332],[999,5415],[999,5498],[999,5582],[999,5665],[999,5748],[999,5832],[999,5915],[999,5999],[999,6082],[999,6165],[999,6248],[999,6331],[999,6415],[999,6498],[999,6581],[999,6664],[999,6748],[999,6831],[999,6915],[999,6998],[999,7081],[999,7165],[999,7248],[999,7331],[999,7414],[999,7498],[999,7581],[999,7665],[999,7748],[999,7831],[999,7914],[999,7998],[999,8081],[999,8166],[999,8248],[999,8332],[999,8415],[999,8498],[999,8581],[999,8664],[999,8748],[999,8831],[999,8914],[999,8998],[999,9081],[999,9165],[999,9248],[999,9332],[999,9415],[999,9498],[999,9581],[999,9665],[999,9748],[999,9831],[999,9915],[999,9998],[999,10081],[999,10165],[999,10248],[999,10331],[999,10414],[999,10498],[999,10581],[999,10665],[999,10748],[999,10831],[999,10914],[999,10998],[999,11081],[999,11164],[999,11248],[999,11331],[999,11414],[999,11498],[999,11581],[999,11665],[999,11747],[999,11831],[999,11914],[999,11997],[999,12080],[999,12163],[999,12247],[999,12330],[999,12413],[999,12497],[999,12580]]",839.8542,845.2871,28.85416985,2.8399,"[{""rating"":34.166669845581055,""responseTime"":2.6079999999999472},{""rating"":28.85416984558106,""responseTime"":2.8399000000953265}]",space,4.8946,,845.2872,Not at all,0,845.2934,,,[],,0,3,3,3,1,audio/Narrative7Situation3.wav,audio/Narrative8Situation3.wav,audio/Narrative5Situation3.wav,audio/Narrative6Situation3.wav,8,4,3,5,,,,,,,,,,,,,,,,,,,,,,,,,,,,,,,,,,,,,,,
,,,,,67ef1646a57b37e076099d5c,2025-07-07_19h52.26.945,group3.4_multiperson,2023.2.2,Win32,60.24096386,686c2ebf0248f13bef9af11f,686c8635fdc753f12f2ad88c,,,,,,,,,,,,,,,,,,,,,,,,,,,,,845.2939,2,audio/Narrative6Situation4.wav,847.3034,,847.3036,859.9026,[],859.903,866.7836,24.58333492,0.9122,"[{""rating"":24.583334922790527,""responseTime"":0.9122000000476191}]",space,6.3297,,866.7838,Definitely yes,100,866.7875,,,[],,0,4,4,4,1,audio/Narrative7Situation4.wav,audio/Narrative8Situation4.wav,audio/Narrative5Situation4.wav,audio/Narrative6Situation4.wav,3,3,1,2,,,,,,,,,,,,,,,,,,,,,,,,,,,,,,,,,,,,,,,
,,,,,67ef1646a57b37e076099d5c,2025-07-07_19h52.26.945,group3.4_multiperson,2023.2.2,Win32,60.24096386,686c2ebf0248f13bef9af11f,686c8635fdc753f12f2ad88c,,,,,,,,,,,,,,,,,,,,,,,,,,,,,866.7877,2,audio/Narrative6Situation5.wav,868.8028,,868.8029,876.7672,[],876.7674,886.2476,55.20833969,5.7258,"[{""rating"":50.416669845581055,""responseTime"":2.755999999999972},{""rating"":46.45833969116211,""responseTime"":3.3570999999045625},{""rating"":50.10416984558106,""responseTime"":4.147200000047633},{""rating"":48.33333969116211,""responseTime"":5.270299999952272},{""rating"":55.20833969116211,""responseTime"":5.725799999952301}]",space,8.928,,886.2477,Definitely yes,100,886.249,,,[],,0,5,5,5,1,audio/Narrative7Situation5.wav,audio/Narrative8Situation5.wav,audio/Narrative5Situation5.wav,audio/Narrative6Situation5.wav,5,2,5,2,,,,,,,,,,,,,,,,,,,,,,,,,,,,,,,,,,,,,,,
,,,,,67ef1646a57b37e076099d5c,2025-07-07_19h52.26.945,group3.4_multiperson,2023.2.2,Win32,60.24096386,686c2ebf0248f13bef9af11f,686c8635fdc753f12f2ad88c,,,,,,,,,,,,,,,,,,,,,,,,,,,,,886.2493,2,audio/Narrative6Situation6.wav,888.2653,,888.2655,899.3474,"[[999,1],[999,99],[999,182],[999,265],[999,349],[999,432],[999,515],[999,599],[999,682],[999,765],[999,849],[999,932],[999,1015],[999,1099],[999,1182],[999,1265],[999,1348],[999,1431],[999,1514],[999,1598],[999,1682],[999,1765],[999,1848],[999,1932],[999,2015],[999,2098],[999,2181],[999,2265],[999,2348],[999,2431],[999,2515],[999,2598],[999,2682],[999,2764],[999,2848],[999,2932],[999,3015],[999,3098],[999,3182],[999,3265],[999,3348],[999,3431],[999,3515],[999,3597],[999,3681],[999,3764],[999,3847],[999,3931],[999,4014],[999,4097],[999,4181],[999,4264],[999,4347],[999,4431],[999,4514],[999,4597],[999,4681],[999,4764],[999,4847],[999,4931],[999,5014],[999,5097],[999,5181],[999,5264],[999,5347],[999,5431],[999,5515],[999,5597],[999,5681],[999,5764],[999,5847],[999,5931],[999,6014],[999,6097],[999,6181],[999,6264],[999,6347],[999,6431],[999,6514],[999,6597],[999,6680],[999,6764],[999,6847],[999,6930],[999,7014],[999,7097],[999,7181],[999,7264],[999,7347],[999,7431],[999,7515],[999,7598],[999,7681],[999,7764],[999,7848],[999,7931],[999,8014],[999,8098],[999,8181],[999,8265],[999,8348],[999,8431],[999,8514],[999,8598],[999,8682],[999,8764],[999,8848],[999,8932],[999,9014],[999,9098],[999,9181],[999,9264],[999,9347],[999,9431],[999,9515],[999,9598],[999,9680],[999,9765],[999,9847],[999,9931],[999,10014],[999,10097],[999,10181],[999,10264],[999,10347],[999,10431],[999,10514],[999,10597],[999,10681],[999,10764],[999,10847],[999,10931],[999,11014]]",899.3477,905.1464,54.375,5.3211,"[{""rating"":49.479169845581055,""responseTime"":4.7223999998568615},{""rating"":54.37499999999999,""responseTime"":5.321099999904618}]",space,5.259,,905.1466,Not at all,0,905.1562,,,[],,0,6,6,6,1,audio/Narrative7Situation6.wav,audio/Narrative8Situation6.wav,audio/Narrative5Situation6.wav,audio/Narrative6Situation6.wav,3,2,3,2,,,,,,,,,,,,,,,,,,,,,,,,,,,,,,,,,,,,,,,
,,,,,67ef1646a57b37e076099d5c,2025-07-07_19h52.26.945,group3.4_multiperson,2023.2.2,Win32,60.24096386,686c2ebf0248f13bef9af11f,686c8635fdc753f12f2ad88c,,,,,,,,,,,,,,,,,,,,,,,,,,,,,905.157,2,audio/Narrative6Situation7.wav,910.162,,910.1622,935.0256,"[[53.2,23746],[52.2,23830],[51.1,23913],[51.1,23996],[51.1,24079],[51.1,24163],[51.1,24246],[51.1,24329],[51.1,24412],[51.1,24495],[52.6,24579],[55.4,24663]]",935.0258,937.6583,57.5,2.2627,"[{""rating"":58.02083969116211,""responseTime"":1.3932999999522053},{""rating"":57.49999999999999,""responseTime"":2.2627000000475164}]",space,2.089,,937.6583,Definitely yes,100,937.6629,,,[],,0,7,7,7,1,audio/Narrative7Situation7.wav,audio/Narrative8Situation7.wav,audio/Narrative5Situation7.wav,audio/Narrative6Situation7.wav,5,3,4,5,,,,,,,,,,,,,,,,,,,,,,,,,,,,,,,,,,,,,,,
,,,,,67ef1646a57b37e076099d5c,2025-07-07_19h52.26.945,group3.4_multiperson,2023.2.2,Win32,60.24096386,686c2ebf0248f13bef9af11f,686c8635fdc753f12f2ad88c,,,,,,,,,,,,,,,,,,,,,,,,,,,,,937.6633,2,audio/Narrative6Situation8.wav,942.6741,,942.6741,949.541,[],949.5414,953.5736,16.66666985,2.8077,"[{""rating"":16.666669845581055,""responseTime"":2.8076999998093015}]",space,3.4867,,953.5739,Not at all,0,953.5827,,,[],,0,8,8,8,1,audio/Narrative7Situation8.wav,audio/Narrative8Situation8.wav,audio/Narrative5Situation8.wav,audio/Narrative6Situation8.wav,2,3,3,5,,,,,,,,,,,,,,,,,,,,,,,,,,,,,,,,,,,,,,,
,,,,,67ef1646a57b37e076099d5c,2025-07-07_19h52.26.945,group3.4_multiperson,2023.2.2,Win32,60.24096386,686c2ebf0248f13bef9af11f,686c8635fdc753f12f2ad88c,,,,,,,,,,,,,,,,,,,,,,,,,,,,,953.5836,2,audio/Narrative6Situation9.wav,957.5897,,957.5899,967.5551,"[[999,1],[999,99],[999,182],[999,266],[999,348],[999,432],[999,515],[999,599],[999,682],[999,765],[999,849],[999,932],[999,1016],[999,1099],[999,1182],[999,1266],[999,1349],[999,1432],[999,1515],[999,1599],[999,1682],[999,1766],[999,1849],[999,1932],[999,2015],[999,2099],[999,2182],[999,2265],[999,2349],[999,2432],[999,2515],[999,2599],[999,2682],[999,2765],[999,2849],[999,2932],[999,3016],[999,3099],[999,3182],[999,3266],[999,3349],[999,3432],[999,3515],[999,3599],[999,3682],[999,3765],[999,3849],[999,3932],[999,4015],[999,4099],[999,4182],[999,4265],[999,4348],[999,4432],[999,4515],[999,4598],[999,4682],[999,4765],[999,4849],[999,4931],[999,5015],[999,5098],[999,5181],[999,5265],[999,5348],[999,5432],[999,5515],[999,5598],[999,5681],[999,5765],[999,5848],[999,5932],[999,6015],[999,6099],[999,6181],[999,6264],[999,6347],[999,6431],[999,6515],[999,6598],[999,6681],[999,6765],[999,6848],[999,6932],[999,7015],[999,7097],[999,7181],[999,7264],[999,7348],[999,7431],[999,7515],[999,7598],[999,7681],[999,7764],[999,7848],[999,7931],[999,8015],[999,8098],[999,8181],[999,8265],[999,8347],[999,8431],[999,8515],[999,8598],[999,8681],[999,8764],[999,8848],[999,8931],[999,9014],[999,9098],[999,9181],[999,9264],[999,9348],[999,9431],[999,9515],[999,9598],[999,9681],[999,9764],[999,9847],[999,9931]]",967.5557,970.8212,17.60416985,1.9388,"[{""rating"":17.60416984558105,""responseTime"":1.93879999995238}]",space,2.725,,970.8214,Definitely yes,100,970.8308,,,[],,0,9,9,9,1,audio/Narrative7Situation9.wav,audio/Narrative8Situation9.wav,audio/Narrative5Situation9.wav,audio/Narrative6Situation9.wav,2,3,3,4,,,,,,,,,,,,,,,,,,,,,,,,,,,,,,,,,,,,,,,
,,,,,67ef1646a57b37e076099d5c,2025-07-07_19h52.26.945,group3.4_multiperson,2023.2.2,Win32,60.24096386,686c2ebf0248f13bef9af11f,686c8635fdc753f12f2ad88c,,,,,,,,,,,,,,,,,,,,,,,,,,,,,970.8315,2,audio/Narrative5Situation1.wav,975.8373,,975.8374,993.4178,"[[999,1],[999,82],[999,166],[999,249],[999,332],[999,416],[999,499],[999,582],[999,679],[999,749],[999,833],[999,916],[999,999],[999,1082],[999,1165],[999,1249],[999,1332],[999,1415],[999,1499],[999,1582],[999,1666],[999,1749],[999,1832],[999,1915],[999,1999],[999,2082],[999,2166],[999,2249],[999,2332],[999,2416],[999,2499],[999,2583],[999,2665],[999,2749],[999,2832],[999,2915],[999,2999],[999,3082],[999,3165],[999,3249],[999,3332],[999,3415],[999,3499],[999,3582],[999,3665],[999,3748],[999,3832],[999,3915],[999,3998],[999,4082],[999,4165],[999,4249],[999,4333],[999,4415],[999,4499],[999,4582],[999,4665],[999,4748],[999,4832],[999,4915],[999,4998],[999,5082],[999,5165],[999,5249],[999,5332],[999,5415],[999,5499],[999,5582],[999,5665],[999,5749],[999,5832],[999,5915],[999,5999],[999,6082],[999,6165],[999,6248],[999,6331],[999,6414],[999,6497],[999,6581],[999,6664],[999,6748],[999,6832],[999,6914],[999,6998],[999,7081],[999,7164],[999,7248],[999,7332],[999,7414],[999,7498],[999,7581],[999,7664],[999,7748],[999,7831],[999,7914],[999,7998],[999,8081],[999,8164],[999,8247],[999,8331],[999,17496],[999,17580]]",993.4179,998.9332,56.5625,3.8407,"[{""rating"":54.27083969116211,""responseTime"":0.8213999998570216},{""rating"":40.104169845581055,""responseTime"":1.2717999999522362},{""rating"":52.3958396911621,""responseTime"":2.720599999904607},{""rating"":56.56250000000001,""responseTime"":3.8407000000477183}]",space,4.9668,,998.9332,Definitely yes,100,998.9346,,,[],,0,10,10,10,1,audio/Narrative8Situation1.wav,audio/Narrative7Situation1.wav,audio/Narrative6Situation1.wav,audio/Narrative5Situation1.wav,5,2,2,5,,,,,,,,,,,,,,,,,,,,,,,,,,,,,,,,,,,,,,,
,,,,,67ef1646a57b37e076099d5c,2025-07-07_19h52.26.945,group3.4_multiperson,2023.2.2,Win32,60.24096386,686c2ebf0248f13bef9af11f,686c8635fdc753f12f2ad88c,,,,,,,,,,,,,,,,,,,,,,,,,,,,,998.935,2,audio/Narrative5Situation2.wav,1036.5641,,1036.5642,1066.0262,"[[999,8],[999,81],[999,164],[999,247],[999,330],[999,414],[999,497],[999,580],[999,664],[999,747],[64.4,830],[64.4,914],[64.4,997],[64.4,1080],[64.4,1164],[64.4,1247],[44.7,2580],[44.5,2664],[44.5,2748],[44.5,2831],[44.5,2914],[44.5,2997],[44.5,3081]]",1066.0265,1068.6755,65.10416985,1.07,"[{""rating"":65.10416984558105,""responseTime"":1.0699999999999363}]",space,2.1046,,1068.6758,Not at all,0,1068.6846,,,[],,0,11,11,11,1,audio/Narrative8Situation2.wav,audio/Narrative7Situation2.wav,audio/Narrative6Situation2.wav,audio/Narrative5Situation2.wav,3,3,3,3,,,,,,,,,,,,,,,,,,,,,,,,,,,,,,,,,,,,,,,
,,,,,67ef1646a57b37e076099d5c,2025-07-07_19h52.26.945,group3.4_multiperson,2023.2.2,Win32,60.24096386,686c2ebf0248f13bef9af11f,686c8635fdc753f12f2ad88c,,,,,,,,,,,,,,,,,,,,,,,,,,,,,1068.6854,2,audio/Narrative5Situation3.wav,1071.6913,,1071.6914,1085.606,[],1085.6061,1087.9723,67.5,0.8792,"[{""rating"":67.5,""responseTime"":0.8792000000476037}]",space,1.8161,,1087.9723,Definitely yes,100,1087.9768,,,[],,0,12,12,12,1,audio/Narrative8Situation3.wav,audio/Narrative7Situation3.wav,audio/Narrative6Situation3.wav,audio/Narrative5Situation3.wav,4,8,5,3,,,,,,,,,,,,,,,,,,,,,,,,,,,,,,,,,,,,,,,
,,,,,67ef1646a57b37e076099d5c,2025-07-07_19h52.26.945,group3.4_multiperson,2023.2.2,Win32,60.24096386,686c2ebf0248f13bef9af11f,686c8635fdc753f12f2ad88c,,,,,,,,,,,,,,,,,,,,,,,,,,,,,1087.9772,2,audio/Narrative5Situation4.wav,1088.9887,,1088.9888,1109.3863,"[[999,0],[999,82],[999,166],[999,250],[999,333],[999,416],[999,499],[999,583],[999,666],[999,749],[999,832],[999,916],[999,1000],[999,1083],[999,1166],[999,1250],[999,1333],[999,1417],[999,1499],[999,1583],[999,1666],[999,1751],[999,1833],[999,1916],[999,1999],[999,2083],[999,2167],[999,2250],[999,2333],[999,2417],[999,2500],[999,2583],[999,2666],[999,2750],[999,2833],[999,2917],[999,2999],[999,3083],[999,3166],[999,3249],[999,3333],[999,3416],[999,3500],[999,3583],[999,3666],[999,3750],[999,3832],[999,3916],[999,3999],[999,4083],[999,4167],[999,4250],[999,4332],[999,4416],[999,4499],[999,4582],[999,4666],[999,4749],[999,4833],[999,4916],[999,4999],[999,5082],[999,5166],[999,5250],[999,5333],[999,5416],[999,5499],[999,5582],[999,5666],[999,5749],[999,5832],[999,5915],[999,5999],[999,6082],[999,6165],[999,6249],[999,6332],[999,6415],[999,6499],[999,6582],[999,6665],[999,6749],[999,6832],[999,6915],[999,6999],[999,7082],[999,7165],[999,7248],[999,7332],[999,7415],[999,7498],[999,7581],[999,7665],[999,7749],[999,7832],[999,7915],[999,7999],[999,8082],[999,8165],[999,8249],[999,8332],[999,8415],[999,8499],[999,8582],[999,8665],[999,8748],[999,8832],[999,8915],[999,8999],[999,9082],[999,9165],[999,9249],[999,9331],[999,9415],[999,9498],[999,9582],[999,9665],[999,9749],[999,9831],[999,9915],[999,9999],[999,10082],[999,10165],[999,10248],[999,10331],[999,10415],[999,10498],[999,10582],[999,10665],[999,10749],[999,10831],[999,10915],[999,10998],[999,11082],[999,11165],[999,11248],[999,11331],[999,11415],[999,11498],[999,11581],[999,11665],[999,11748],[999,11831],[999,11914],[999,11998],[999,12081],[999,12165],[999,12248],[999,12331],[999,12415],[999,12498],[999,12582],[999,12664],[999,12748],[999,12831],[999,12915],[999,12998],[999,13081],[999,13165],[999,13248],[999,13331],[999,13414],[999,13498],[999,13581],[999,13664],[999,13748],[999,13831],[999,13915],[999,13998],[999,14081],[999,14164],[999,14248],[999,14331],[999,14414],[999,14498],[999,14581],[999,14664],[999,14748],[999,14831],[999,14914],[999,14997],[999,15081],[999,15164],[999,15247],[999,15331],[999,15414],[999,15497],[999,15581],[999,15664],[999,15747],[999,15830],[999,15914],[999,15997],[999,16081],[999,16164],[999,16247],[999,16330],[999,16414],[999,16497],[999,16581],[999,16664],[999,16747],[999,16831],[999,16914],[999,16997],[999,17081],[999,17164],[999,17247],[999,17330],[999,17414],[999,17497],[999,17580],[999,17664],[999,17747],[999,17830],[999,17914],[999,17997],[999,18080],[999,18164],[999,18247],[999,18330],[999,18414],[999,18497],[999,18580],[999,18664],[999,18747],[999,18830],[999,18914],[999,18997],[999,19080],[999,19164],[999,19247],[999,19330],[999,19414],[999,19497],[999,19580],[999,19663],[999,19747],[999,19830],[999,19914],[999,19997],[999,20080],[999,20164],[999,20247],[999,20330]]",1109.3866,1114.2854,76.97916985,3.6618,"[{""rating"":68.54166984558105,""responseTime"":0.6712999999522253},{""rating"":76.97916984558105,""responseTime"":3.6617999999523363}]",space,4.3525,,1114.2855,Definitely yes,100,1114.2878,,,[],,0,13,13,13,1,audio/Narrative8Situation4.wav,audio/Narrative7Situation4.wav,audio/Narrative6Situation4.wav,audio/Narrative5Situation4.wav,3,3,2,1,,,,,,,,,,,,,,,,,,,,,,,,,,,,,,,,,,,,,,,
,,,,,67ef1646a57b37e076099d5c,2025-07-07_19h52.26.945,group3.4_multiperson,2023.2.2,Win32,60.24096386,686c2ebf0248f13bef9af11f,686c8635fdc753f12f2ad88c,,,,,,,,,,,,,,,,,,,,,,,,,,,,,1114.2884,2,audio/Narrative5Situation5.wav,1119.3027,,1119.3028,1134.7331,[],1134.7333,1139.1655,49.27083969,3.123,"[{""rating"":37.1875,""responseTime"":1.841299999952298},{""rating"":53.541669845581055,""responseTime"":2.370700000047691},{""rating"":49.27083969116211,""responseTime"":3.1230000000000473}]",space,3.8839,,1139.1656,Not at all,0,1139.1694,,,[],,0,14,14,14,1,audio/Narrative8Situation5.wav,audio/Narrative7Situation5.wav,audio/Narrative6Situation5.wav,audio/Narrative5Situation5.wav,2,5,2,5,,,,,,,,,,,,,,,,,,,,,,,,,,,,,,,,,,,,,,,
,,,,,67ef1646a57b37e076099d5c,2025-07-07_19h52.26.945,group3.4_multiperson,2023.2.2,Win32,60.24096386,686c2ebf0248f13bef9af11f,686c8635fdc753f12f2ad88c,,,,,,,,,,,,,,,,,,,,,,,,,,,,,1139.1698,2,audio/Narrative5Situation6.wav,1142.1825,,1142.1826,1147.8647,[],1147.8648,1157.1467,57.8125,7.3757,"[{""rating"":67.1875,""responseTime"":4.938700000047675},{""rating"":58.02083969116211,""responseTime"":6.261999999999944},{""rating"":44.375,""responseTime"":6.8207000000477365},{""rating"":57.8125,""responseTime"":7.3757000000478}]",space,8.732,,1157.1469,Not at all,0,1157.1499,,,[],,0,15,15,15,1,audio/Narrative8Situation6.wav,audio/Narrative7Situation6.wav,audio/Narrative6Situation6.wav,audio/Narrative5Situation6.wav,2,3,2,3,,,,,,,,,,,,,,,,,,,,,,,,,,,,,,,,,,,,,,,
,,,,,67ef1646a57b37e076099d5c,2025-07-07_19h52.26.945,group3.4_multiperson,2023.2.2,Win32,60.24096386,686c2ebf0248f13bef9af11f,686c8635fdc753f12f2ad88c,,,,,,,,,,,,,,,,,,,,,,,,,,,,,1157.1505,2,audio/Narrative5Situation7.wav,1161.1632,,1161.1633,1182.2114,"[[999,0],[999,82],[999,166],[999,249],[999,332],[999,416],[999,499],[999,583],[999,665],[999,749],[999,832],[999,916],[999,999],[999,1083],[999,1166],[999,1249],[999,1332],[999,1416],[999,1498],[999,1582],[999,1665],[999,1749],[999,1833],[999,1915],[999,1999],[999,2082],[999,2165],[999,2249],[999,2332],[999,2415],[999,2499],[999,2582],[999,2665],[999,2749],[999,2832],[999,2915],[999,2999],[999,3082],[999,3166],[999,3249],[999,3332],[999,3415],[999,3499],[999,3582],[999,3665],[999,3748],[999,3832],[999,3916],[999,3998],[999,4082],[999,4165],[999,4249],[999,4332],[999,4415],[999,4498],[999,4582],[999,4665],[999,4749],[999,4832],[999,4915],[999,4999],[999,5082],[999,5165],[999,5248],[999,5332],[999,5415],[999,5498],[999,5582],[999,5665],[999,5748],[999,5831],[999,5915],[999,5999],[999,6082],[999,6165],[999,6249],[999,6332],[999,6415],[999,6498],[999,6581],[999,6665],[999,6748],[999,6831],[999,6915],[999,6998],[999,7082],[999,7164],[999,7248],[999,7332],[999,7414],[999,7498],[999,7581],[999,7664],[999,7749],[999,7832],[999,7915],[999,7998],[999,8082],[999,8165],[999,8248],[999,8331],[999,8415],[999,8498],[999,8581],[999,8665],[999,8748],[999,8832],[999,8914],[999,8998],[999,9081],[999,9165],[999,9248],[999,9332],[999,9415],[999,9498],[999,9581],[999,9665],[999,9748],[999,9831],[999,9915],[999,9998],[999,10082],[999,10165],[999,10248],[999,10331],[999,10415],[999,10498],[999,10582],[999,10665],[999,10748],[999,10831],[999,10915],[999,10998],[999,11081],[999,11165],[999,11248],[999,11331],[999,11415],[999,11498],[999,11582],[999,11664],[999,11748],[999,11831],[999,11914],[999,11997],[999,12081],[999,12164],[999,12247],[999,12331],[999,12414],[999,12498],[999,12581],[999,12664],[999,12747],[999,12831],[999,12914],[999,12997],[999,13080],[999,13164],[999,13247],[999,13331],[999,13415],[999,13497],[999,13581],[999,13664],[999,13747],[999,13830],[999,13914],[999,13997],[999,14080],[999,14164],[999,14247],[999,14330],[999,14414],[999,14497],[999,14581],[999,14664],[999,14747],[999,14831],[999,14914],[999,14997],[999,15080],[999,15164],[999,15247],[999,15331],[999,15414],[999,15497],[999,15580],[999,15664],[999,15748],[999,15830],[999,15914],[999,15997],[999,16080],[999,16164],[999,16247],[999,16331],[999,16414],[999,16497],[999,16581],[999,16664],[999,16747],[999,16831],[999,16914],[999,16997],[999,17081],[999,17164],[999,17248],[999,17331],[999,17413],[999,17497],[999,17581],[999,17664],[999,17748],[999,17831],[999,17914],[999,17998],[999,18081],[999,18164],[999,18247],[999,18331],[999,18413],[999,18496],[999,18580],[999,18663],[999,18747],[999,18831],[999,18913],[999,18997],[999,19080],[999,19164],[999,19247],[999,19330],[999,19413],[999,19497],[999,19580],[999,19664],[999,19747],[999,19830],[999,19914],[999,19997],[999,20081],[999,20164],[999,20247],[999,20331],[999,20414],[999,20497],[999,20581],[999,20665],[999,20747],[999,20830],[999,20914],[999,20997]]",1182.2119,1190.3928,72.5,6.5039,"[{""rating"":72.5,""responseTime"":6.5038999998569125}]",space,7.6371,,1190.3929,Definitely yes,100,1190.3994,,,[],,0,16,16,16,1,audio/Narrative8Situation7.wav,audio/Narrative7Situation7.wav,audio/Narrative6Situation7.wav,audio/Narrative5Situation7.wav,3,5,5,4,,,,,,,,,,,,,,,,,,,,,,,,,,,,,,,,,,,,,,,
,,,,,67ef1646a57b37e076099d5c,2025-07-07_19h52.26.945,group3.4_multiperson,2023.2.2,Win32,60.24096386,686c2ebf0248f13bef9af11f,686c8635fdc753f12f2ad88c,,,,,,,,,,,,,,,,,,,,,,,,,,,,,1190.4003,2,audio/Narrative5Situation8.wav,1193.4094,space,1193.4097,1202.242,"[[999,1],[999,82],[999,165],[999,249],[999,332],[999,416],[999,499],[999,582],[999,667],[999,751],[999,834],[999,916],[999,999],[999,1082],[999,1165],[999,1249],[999,1333],[999,1415],[999,1498],[999,1581],[999,1665],[999,1749],[999,1832],[999,1916],[999,1999],[999,2082],[999,2166],[999,2249],[999,2332],[999,2416],[999,2499],[999,2582],[999,2666],[999,2749],[999,2832],[999,2916],[999,2998],[999,3081],[999,3164],[999,3248],[999,3331],[999,3414],[999,3498],[999,3581],[999,3664],[999,3748],[999,3831],[999,3914],[999,3998],[999,4081],[999,4164],[999,4248],[999,4331],[999,4414],[999,4498],[999,4581],[999,4664],[999,4748],[999,4831],[999,4915],[999,4998],[999,5082],[999,5165],[999,5248],[999,5331],[999,5415],[999,5498],[999,5582],[999,5664],[999,5748],[999,5831],[999,5915],[999,5998],[999,6082],[999,6164],[999,6247],[999,6331],[999,6415],[999,6498],[999,6581],[999,6664],[999,6748],[999,6831],[999,6915],[999,6998],[999,7082],[999,7165],[999,7248],[999,7331],[999,7414],[999,7498],[999,7581],[999,7664],[999,7748],[999,7831],[999,7915],[999,7998],[999,8081],[999,8165],[999,8248],[999,8331],[999,8414],[999,8498],[999,8581],[999,8665],[999,8748],[999,8831]]",1202.2424,1208.4076,40.52083969,2.8879,"[{""rating"":55.20833969116211,""responseTime"":1.953400000095371},{""rating"":48.75,""responseTime"":2.2597999999522926},{""rating"":40.52083969116211,""responseTime"":2.887900000095442}]",space,5.6221,,1208.4079,Not at all,0,1208.4168,,,[],,0,17,17,17,1,audio/Narrative8Situation8.wav,audio/Narrative7Situation8.wav,audio/Narrative6Situation8.wav,audio/Narrative5Situation8.wav,3,2,5,3,0.2535,,,,,,,,,,,,,,,,,,,,,,,,,,,,,,,,,,,,,,
,,,,,67ef1646a57b37e076099d5c,2025-07-07_19h52.26.945,group3.4_multiperson,2023.2.2,Win32,60.24096386,686c2ebf0248f13bef9af11f,686c8635fdc753f12f2ad88c,,,,,,,,,,,,,,,,,,,,,,,,,,,,,1208.4175,2,audio/Narrative5Situation9.wav,1211.4237,,1211.4239,1250.9683,[],1250.9684,1258.3341,63.33333969,5.442,"[{""rating"":63.3333396911621,""responseTime"":5.442000000000007}]",space,6.8329,,1258.3342,Partially,50,1272.3988,48.95833969,3.403,"[{""rating"":48.95833969116211,""responseTime"":3.40300000000002}]",space,0,18,18,18,1,audio/Narrative8Situation9.wav,audio/Narrative7Situation9.wav,audio/Narrative6Situation9.wav,audio/Narrative5Situation9.wav,3,2,4,3,,,13.518,,,,,,,,,,,,,,,,,,,,,,,,,,,,,,,,,,,,
,,,,,67ef1646a57b37e076099d5c,2025-07-07_19h52.26.945,group3.4_multiperson,2023.2.2,Win32,60.24096386,686c2ebf0248f13bef9af11f,686c8635fdc753f12f2ad88c,,,,,,,,,,,,,,,,,,,,,,,,,,,,,,,,,,,,,,,,,,,,,,,,,,,,,,,,,,,,,,,,,,,,,,1272.3991,1275.6312,space,2.6995,,1275.6314,1291.598,space,15.657,,,,,,,,,,,,,,,,,,,,,,,,,,
,,,,,67ef1646a57b37e076099d5c,2025-07-07_19h52.26.945,group3.4_multiperson,2023.2.2,Win32,60.24096386,686c2ebf0248f13bef9af11f,686c8635fdc753f12f2ad88c,,,,,,,,,,,,,,,,,,,,,,,,,,,,,1294.2115,1,audio/Narrative7Situation9.wav,1296.2127,,,,,1328.0769,1332.4253,73.54166985,2.5714,"[{""rating"":73.54166984558105,""responseTime"":2.5714000000953092}]",space,3.8012,,1332.4256,Not at all,0,1332.435,,,[],,,,,,,,,,,2,2,2,2,,,,,,,,,,,,,,,1291.6057,1294.18,1296.2135,3,1328.0764,"[[16.1,8247],[16.3,8330],[16.3,8414],[16.3,8498],[25.9,8580],[26.1,8664],[26.1,8747],[26.1,8830],[26.1,8914],[26.1,8998],[26.1,9081],[26.1,9164],[26.1,9248],[26.1,9330],[26.1,9413],[26.1,9497],[26.1,9580],[26.1,9663],[26.1,9748],[26.1,9830],[26.1,9914],[26.1,9997],[26.1,10080],[26.1,10164],[26.1,10247],[26.1,10330],[26.1,10414],[26.1,10497],[26.1,10580],[26.1,10664],[26.1,10747],[26.1,10830],[26.1,10914],[26.1,10997],[26.1,11080],[26.1,11164],[26.1,11247],[26.1,11330],[26.1,11414],[26.1,11497],[26.1,11580],[26.1,11664],[26.1,11747],[26.1,11830],[26.1,11914],[26.1,11997],[26.1,12080],[26.1,12164],[26.1,12247],[26.1,12331],[26.1,12414],[26.1,12497],[26.1,12581],[26.1,12664],[26.1,12747],[26.1,12831],[26.1,12914],[26.1,12997],[26.1,13080],[26.1,13164],[26.1,13247],[26.1,13330],[26.1,13413],[26.1,13497],[26.1,13579],[26.1,13663],[26.1,13747],[26.1,13830],[26.1,13913],[26.1,13997],[26.1,14080],[26.1,14163],[26.1,14247],[26.1,14330],[26.1,14414],[26.1,14496],[26.1,14579],[26.1,14663],[26.1,14746],[65.8,14829],[66,14913],[66,14997],[66,15080],[66,15163],[66,15246],[66,15330],[66,15413],[66,15496],[66,15580],[66,15663],[66,15746],[66,15830],[66,15913],[66,15996],[66,16080],[66,16164],[66,16247],[66,16329],[66,16413],[66,16496],[66,16579],[66,16663],[66,16747],[66,16830],[66,16914],[66,16996],[66,17080],[66,17162],[66,17246],[66,17329],[66,17413],[66,17497],[66,17579],[66,17663],[66,17746],[66,17829],[66,17913],[66,17996],[66,18079],[66,18163],[66,18246],[66,18329],[66,18413],[66,18496],[66,18579],[66,18663],[66,18746],[66,18829],[66,18912],[66,18996],[66,19079],[66,19163],[66,19246],[66,19329],[66,19412],[66,19496],[66,19579],[66,19662],[66,19745],[66,19829],[66,19912],[66,19995],[66,20079],[66,20162],[66,20246],[66,20329],[66,20413],[66,20496],[66,20579],[66,20663],[66,20745],[66,20829],[66,20913],[66,20996],[66,21080],[66,21162],[66,21245],[66,21329],[66,21412],[66,21496],[66,21579],[66,21662],[66,21745],[66,21829],[66,21913],[66,21995],[66,22079],[66,22162],[66,22245],[66,22329],[66,22412],[66,22496],[66,22579],[66,22662],[66,22746],[66,22829],[66,22912],[66,22995],[66,23078],[66,23162],[66,23245],[66,23328],[66,23412],[66,23496],[66,23579],[66,23662],[66,23746],[66,23829],[66,23913],[66,23996],[66,24079],[66,24163],[66,24246],[66,24329],[66,24413],[66,24496],[66,24579]]",0,0,0,0,1,"Larry had recently lost his family, job and home, and was now living on his own in the park. He had most of his belongings, including some clothes, a blanket, and his mother’s special necklace. His family had been very important to him and he felt as though he did not have much going for him. One of his first days in the park he came across a family that did not have much food and looked very cold. He decided to give them some of his food and his blanket.","Larry had recently lost his family, job and home, and was now living on his own in the park. He had most of his belongings, including some clothes, a blanket, and his mother’s special necklace. His family had been very important to him and he felt as though he did not have much going for him. One of his first days in the park he came across a family that did not have much food and looked very cold. He decided to give them some of his food and his blanket.","Larry had recently lost his family, job and home, and was now living on his own in the park. He had most of his belongings, including some clothes, a blanket, and his mother’s special necklace. His family had been very important to him and he felt as though he did not have much going for him. One of his first days in the park he came across a family that did not have much food and looked very cold. He decided to give them some of his food and his blanket.","Larry had recently lost his family, job and home, and was now living on his own in the park. He had most of his belongings, including some clothes, a blanket, and his mother’s special necklace. His family had been very important to him and he felt as though he did not have much going for him. One of his first days in the park he came across a family that did not have much food and looked very cold. He decided to give them some of his food and his blanket.",,,,,,,,,,
,,,,,67ef1646a57b37e076099d5c,2025-07-07_19h52.26.945,group3.4_multiperson,2023.2.2,Win32,60.24096386,686c2ebf0248f13bef9af11f,686c8635fdc753f12f2ad88c,,,,,,,,,,,,,,,,,,,,,,,,,,,,,1332.4362,1,audio/Narrative7Situation9.wav,1367.9865,space,,,,1391.8336,1396.8667,65.3125,2.5208,"[{""rating"":61.875,""responseTime"":1.88799999999992},{""rating"":65.3125,""responseTime"":2.520800000190775}]",space,4.5018,,1396.8669,Not at all,0,1405.5987,0.9375,7.1741,"[{""rating"":1.250000000000001,""responseTime"":5.143500000000131},{""rating"":5.520834922790529,""responseTime"":6.457200000047806},{""rating"":0.9375000000000022,""responseTime"":7.1740999999046835}]",space,,,,,,,,,,6,2,3,9,35.5243,,8.1923,,,,,,,,,,,,,,1367.9865,3,1391.8335,"[[999,6],[999,83],[999,166],[999,249],[999,333],[999,416],[999,500],[999,582],[999,666],[999,749],[999,833],[999,916],[999,999],[999,1083],[999,1166],[999,1249],[999,1333],[999,1416],[999,1499],[999,1583],[999,1665],[999,1749],[999,1832],[999,1916],[999,2000],[999,2082],[999,2166],[999,2249],[999,2333],[999,2416],[999,2499],[999,2582],[999,2666],[999,2749],[999,2833],[999,2916],[999,2999],[999,3082],[999,3166],[999,3249],[999,3333],[999,3416],[999,3499],[999,3582],[999,3666],[999,3749],[999,3832],[999,3916],[999,3999],[999,4082],[999,4166],[999,4249],[999,4332],[999,4416],[999,4499],[999,4582],[999,4666],[999,4749],[999,4832],[999,4915],[999,4999],[999,5082],[999,5166],[999,5249],[999,5332],[999,5416],[999,5499],[999,5582],[999,5665],[999,5749],[999,5832],[999,5915],[999,5999],[999,6082],[999,6165],[999,6249],[999,6332],[999,6415],[999,6498],[999,6582],[999,6665],[999,6749],[999,6832],[999,6915],[999,6999],[999,7081],[999,7165],[999,7249],[999,7332],[999,7415],[999,7499],[999,7582],[999,7665],[999,7749],[999,7832],[999,7915],[999,7998],[999,8082],[999,8165],[999,8249],[999,8332],[999,8415],[999,8499],[999,8582],[999,8665],[999,8748],[999,8832],[999,8915],[999,8998],[999,9082],[999,9165],[999,9248],[999,9332],[999,9415],[999,9498],[999,9581],[999,9665],[999,9749],[999,9832],[999,9915],[999,9998],[999,10081],[999,10165],[999,10248],[999,10332],[999,10414],[999,10499],[999,10581],[999,10665],[999,10748],[999,10832],[999,10915],[999,10998],[999,11082],[999,11165],[999,11248],[999,11331],[999,11414],[999,11498],[999,11581],[999,11664],[999,11748],[999,11832],[999,11914],[999,11998],[999,12081],[999,12164],[999,12248],[999,12332],[999,12414],[999,12498],[999,12581],[999,12665],[999,12748],[999,12831],[999,12914],[999,12998],[999,13082],[999,13164],[999,13248],[999,13331],[999,13414],[999,13498],[999,13581],[999,13664],[999,13748],[999,13831],[999,13915],[999,13998],[999,14081],[999,14164],[999,14248],[999,14331],[999,14414],[999,14498],[999,14581],[999,14664],[999,14748],[999,14831],[999,14914],[999,14998],[999,15081],[999,15164],[999,15248],[999,15331],[999,15414],[999,15498],[999,15581],[999,15664],[999,15747],[999,15830],[999,15914],[999,15998],[999,16081],[999,16164],[999,16247],[999,16331],[999,16414],[999,16497],[999,16581],[999,16664],[999,16747],[999,16830],[999,16914],[999,16997],[999,17080],[999,17163],[999,17247],[999,17331],[999,17414],[999,17498],[999,17580],[999,17664],[999,17748],[999,17831],[999,17914],[999,17997],[999,18080],[999,18164],[999,18247],[999,18331],[999,18414],[999,18497],[999,18580],[999,18664],[999,18747],[999,18830],[999,18914],[999,18997],[999,19081],[999,19163],[999,19247],[999,19331],[999,19414],[999,19497],[999,19580],[999,19663],[999,19747],[999,19830],[999,19914],[999,19997],[999,20080],[999,20163],[999,20247],[999,20330],[999,20414],[999,20497],[999,20580],[999,20664],[999,20747],[999,20830],[999,20913],[999,20997],[999,21080],[999,21163],[999,21247],[999,21330],[999,21413],[999,21497],[999,21580],[999,21663],[999,21747],[999,21830],[999,21913],[999,21997],[999,22080],[999,22163],[999,22247],[999,22330],[999,22413],[999,22497],[999,22580],[999,22664],[999,22747],[999,22830],[999,22913],[999,22996],[999,23080],[999,23163],[999,23246],[999,23330],[999,23413],[999,23497],[999,23580],[999,23663],[999,23747],[999,23830]]",0,1,1,1,1,"It was just another Sunday afternoon for Lucy, she was on her way to the farmer's market to pick up some produce. When she arrived at the old train depot that housed the market, she noticed two men fighting on the steps. Before she could call for help, one of the men crumpled to his knees. The other man dropped an object that appeared to be a knife and ran off. When Lucy approached the crime scene she realized that the man who had been murdered was the Mayor and that he had a gunshot wound.","One day at work, Margaret walked up to her partner, Al, to ask him to talk to the chief of staff at the local hospital where she worked as a nurse.","Luke always thought of himself as an honest man. That's why during his evening jog around the swamp, he pondered his recent affair with the receptionist at work. Luke looked up at the sky and asked God why he was so weak and unfaithful. He thought of the impact this would have on his family and told God of his conflicted feelings toward telling his wife Marta.","Linda and Amy had been best friends since kindergarten, they even found homes on the same street in the forest on the edge of town. Their biggest fight had been over who gets the bigger slice of cake, until Amy married Dan. Linda loathed Dan, she thought he was manipulative and had a violent temper. She only put up with him because Amy loved him. ",,,,,,,,,,
,,,,,67ef1646a57b37e076099d5c,2025-07-07_19h52.26.945,group3.4_multiperson,2023.2.2,Win32,60.24096386,686c2ebf0248f13bef9af11f,686c8635fdc753f12f2ad88c,,,,,,,,,,,,,,,,,,,,,,,,,,,,,1405.5996,1,audio/Narrative7Situation9.wav,1410.6145,,,,,1436.811,1439.1273,62.60416985,1.5246,"[{""rating"":62.60416984558106,""responseTime"":1.5245999999046944}]",space,1.7823,,1439.1274,Partially,50,1439.1316,,,[],,,,,,,,,,,4,5,2,2,,,,,,,,,,,,,,,,,1410.6145,3,1436.8109,"[[999,0],[999,82],[999,166],[999,250],[999,334],[999,416],[999,500],[999,583],[999,669],[999,750],[999,833],[999,916],[999,1000],[999,1083],[999,1166],[999,1250],[999,1333],[999,1416],[999,1500],[999,1583],[999,1666],[999,1749],[999,1833],[999,1916],[999,1999],[999,2083],[999,2166],[999,2250],[999,2333],[999,2415],[999,2499],[999,2582],[999,2666],[999,2749],[999,2833],[999,2915],[999,2999],[999,3082],[999,3166],[999,3249],[999,3332],[999,3416],[999,3499],[999,3583],[999,3666],[999,3749],[999,3833],[999,3916],[999,4000],[999,4083],[999,4166],[999,4249],[999,4333],[999,4416],[999,4498],[999,4582],[999,4665],[999,4749],[999,4833],[999,4915],[999,4999],[999,5082],[999,5166],[999,5249],[999,5332],[999,5416],[999,5499],[999,5583],[999,5666],[999,5749],[999,5833],[999,5915],[999,5998],[999,6082],[999,6165],[999,6249],[999,6332],[999,6416],[999,6499],[999,6583],[999,6665],[999,6749],[999,6832],[999,6915],[999,6999],[999,7082],[999,7166],[999,7249],[999,7332],[999,7415],[999,7499],[999,7582],[999,7665],[999,7749],[999,7832],[999,7915],[999,7999],[999,8083],[999,8165],[999,8248],[999,8332],[999,8416],[999,8499],[999,8582],[999,8665],[999,8749],[999,8832],[999,8916],[999,8999],[999,9082],[999,9165],[999,9248],[999,9332],[999,9415],[999,9499],[999,9582],[999,9665],[999,9749],[999,9832],[999,9915],[999,9999],[999,10082],[999,10165],[999,10248],[999,10332],[999,10415],[999,10499],[999,10581],[999,10665],[999,10748],[999,10831],[999,10915],[999,10998],[999,11082],[999,11165],[999,11248],[999,11332],[999,11415],[999,11498],[999,11582],[999,11665],[999,11748],[999,11832],[999,11914],[999,11998],[999,12082],[999,12165],[999,12248],[999,12332],[999,12415],[999,12498],[999,12581],[999,12665],[999,12748],[999,12831],[999,12914],[999,12998],[999,13081],[999,13165],[999,13265],[999,13348],[999,13432],[999,13515],[999,13598],[999,13682],[999,13765],[999,13848],[999,13930],[999,14014],[999,14098],[999,14181],[999,14264],[999,14348],[999,14432],[999,14514],[999,14597],[999,14680],[999,14764],[999,14847],[999,14930],[999,15014],[999,15097],[999,15181],[999,15264],[999,15347],[999,15431],[999,15514],[999,15597],[999,15681],[999,15764],[999,15847],[999,15931],[999,16014],[999,16098],[999,16180],[999,16264],[999,16348],[999,16431],[999,16514],[999,16597],[999,16681],[999,16764],[999,16848],[999,16930],[999,17013],[999,17097],[999,17180],[999,17264],[999,17347],[999,17430],[999,17514],[999,17597],[999,17680],[999,17764],[999,17848],[999,17930],[999,18014],[999,18097],[999,18181],[999,18264],[999,18347],[999,18431],[999,18514],[999,18597],[999,18681],[999,18764],[999,18847],[999,18930],[999,19013],[999,19096],[999,19180],[999,19263],[999,19347],[999,19430],[999,19513],[999,19597],[999,19680],[999,19764],[999,19847],[999,19930],[999,20014],[999,20096],[999,20180],[999,20264],[999,20347],[999,20430],[999,20514],[999,20597],[999,20680],[999,20763],[999,20847],[999,20930],[999,21013],[999,21097],[999,21180],[999,21263],[999,21347],[999,21430],[999,21514],[999,21597],[999,21680],[999,21763],[999,21846],[999,21930],[999,22013],[999,22097],[999,22180],[999,22263],[999,22347],[999,22430],[999,22514],[999,22597],[999,22680],[999,22763],[999,22847],[999,22930],[999,23013],[999,23097],[999,23181],[999,23263],[999,23346],[999,23430],[999,23513],[999,23597],[999,23681],[999,23764],[999,23847],[999,23930],[999,24014],[999,24097],[999,24180],[999,24264],[999,24346],[999,24430],[999,24512],[999,24596],[999,24680],[999,24763],[999,24846],[999,24930],[999,25013],[999,25097],[999,25180],[999,25263],[999,25346],[999,25429],[999,25513],[999,25596],[999,25679],[999,25762],[999,25846],[999,25929],[999,26012],[999,26096],[999,26179]]",0,2,2,2,1,On the ground beside him was a pen that she had mistaken for a knife. Lucy looked for the gunman and saw a suspicious man in black with distinct pointy features darting into an alley across the street. Cops who were nearby chased the man who had fled and arrested him.,"While waiting outside the chief of staff's office, Al heard nondescript shouting and yelling, there was a loud clatter in the room and then an eerie silence. An unfamiliar employee ran hastily out of the office with a terrified look on their face.","Suddenly, Luke heard a woman call out his name and when he turned around he saw Carly, his receptionist, across the road with a gun in her hand. Carly ran to him and explained how she had followed him here to confess her love. She exclaimed if Luke didn't love her back that she would kill him and his family. Carly explained that the only way they could be together is to kill Marta.","This feeling of hate between Amy and Dan was mutual, Dan didn't like how much time his wife spent with her and thought Amy was creating distance between their marriage. That's why Dan decided to try and tarnish Linda's reputation with his wife, in hopes it would get rid of her. He came home one afternoon and exclaimed that Linda had tried to kiss him. Amy was taken aback and immediately called Linda to confront her about these accusations. When Linda arrived she denied having made a move on Dan, but discovered Dan had enlisted the help of his friend Will who said he witnessed it all happen.",,,,,,,,,,
,,,,,67ef1646a57b37e076099d5c,2025-07-07_19h52.26.945,group3.4_multiperson,2023.2.2,Win32,60.24096386,686c2ebf0248f13bef9af11f,686c8635fdc753f12f2ad88c,,,,,,,,,,,,,,,,,,,,,,,,,,,,,1439.1319,1,audio/Narrative7Situation9.wav,1441.145,,,,,1463.6919,1467.6905,64.16666985,1.7643,"[{""rating"":64.16666984558105,""responseTime"":1.7643000001905875}]",space,3.4553,,1467.6907,Definitely yes,100,1467.6967,,,[],,,,,,,,,,,2,2,1,4,,,,,,,,,,,,,,,,,1441.1452,3,1463.6916,"[[70.5,18679],[70.6,18762],[70.6,18846],[70.6,18930],[70.6,19013],[62.1,19096],[62.1,19179],[62.1,19263],[62.1,19346],[62.1,19429],[62.1,19512],[62.1,19596],[62.1,19679],[62.1,19763],[62.1,19846],[62.1,19930],[62.1,20013],[62.1,20096],[62.1,20179],[62.1,20263],[62.1,20346],[62.1,20429],[62.1,20513],[62.1,20596],[62.1,20680],[62.1,20763],[62.1,20846],[62.1,20930],[62.1,21013],[62.1,21096],[62.1,21180],[62.1,21263],[62.1,21346],[62.1,21430],[62.1,21513],[62.1,21596],[62.1,21680],[62.1,21762],[62.1,21846],[62.1,21929],[62.1,22012],[62.1,22096],[62.1,22179],[62.1,22262],[62.1,22346],[62.1,22429],[62.1,22513]]",0,3,3,3,1,"But Lucy knew the charged man was innocent, which meant the killer was free. Lucy vowed to find out who the real murderer was and to stop him at all costs.","Al explained to the chief of staff that Margaret wanted to be excused from her absences last week. The chief of staff, Susan, revealed that she wanted to fire Margaret and never see her again. Susan and Al had been having an affair and she wanted Margaret ""out of the picture"". Al was conflicted, but agreed it would be for the best.","Luke thought of his child and felt like this was his only option. He agreed to the plan and called his wife to meet him at the swamp to watch the sunset with him. When she arrived, Marta called out for her husband, but found Carly waiting for her. She immediately drew her gun and shot her in the chest, knocking her unconscious.","Since it was their word against her own, she decided to go home and admit defeat. She knew how much it would hurt Amy to know the truth.",,,,,,,,,,
,,,,,67ef1646a57b37e076099d5c,2025-07-07_19h52.26.945,group3.4_multiperson,2023.2.2,Win32,60.24096386,686c2ebf0248f13bef9af11f,686c8635fdc753f12f2ad88c,,,,,,,,,,,,,,,,,,,,,,,,,,,,,1467.6973,1,audio/Narrative7Situation9.wav,1468.7078,,,,,1491.2384,1493.4876,70.72916985,1.409,"[{""rating"":70.72916984558105,""responseTime"":1.4090000000001055}]",space,1.6997,,1493.4877,Not at all,0,1493.4942,,,[],,,,,,,,,,,1,1,3,3,,,,,,,,,,,,,,,,,1468.7079,3,1491.2383,[],0,4,4,4,1,"The next day the mayors successor, Mr. Smith, a man who was very unpopular due to his strong ties to the oil companies, took office. After a long day of brainstorming about the mysterious killer, Lucy decided to attend his welcome ceremony in the city. During the mayor's speech, she noticed one of the security guards looked strangely familiar. It dawned on her that this new mayor had motive to kill and that the man in black could've been the guard working for him.","Weeks passed and nobody had seen Margaret. Coworkers and friends searched the nearby city looking for her. One day on patrol in a nearby town, a police officer heard someone crying for help in the basement of a house and went in to investigate. Margaret yelled that she was being held captive and needed help.","Luke ran to Marta, and filled with regret over his decision to go along with Carly's plan, picked her up and rushed her to the hospital. The doctors tried to help Marta by taking her into emergency surgery but failed to save her life. Once the doctor called the time of death, Luke fell to his knees and sobbed over his rash decision.","Months later Dan had taken up a mistress, he was growing bored with his marriage ever since he got rid of Linda and was only still with Amy for her family's money. In a hotel room in a nearby town, Dan and his mistress, Nicole, conspired to secretly kill Amy while still obtaining her fortune.",,,,,,,,,,
,,,,,67ef1646a57b37e076099d5c,2025-07-07_19h52.26.945,group3.4_multiperson,2023.2.2,Win32,60.24096386,686c2ebf0248f13bef9af11f,686c8635fdc753f12f2ad88c,,,,,,,,,,,,,,,,,,,,,,,,,,,,,1493.495,1,audio/Narrative7Situation9.wav,1494.5042,,,,,1521.7008,1526.0997,46.875,1.3969,"[{""rating"":46.875,""responseTime"":1.3968999998569416}]",space,3.8497,,1526.0997,Not at all,0,1526.1013,,,[],,,,,,,,,,,3,1,3,3,,,,,,,,,,,,,,,,,1494.5044,3,1521.7007,[],0,5,5,5,1,"Lucy decided to confront the mayor after his ceremony. But when she tried to accuse him, the security guards threatened to hurt her if she went to the police with her theory. Before she could say another word a man pulled her from the crowd.","In a rush, the police officer broke down the door and was attacked by a man in the house. Without hesitation, the officer shot the man and the man fell to the floor.","He then saw Marta's brother Zach enter the hospital. Zach ran over to Luke and punched him. Zach screamed at Luke that it's his fault his sister is dead and that he knew about the affair. Luke quickly tried to explain that he felt horrible about Marta's death and that Carly had manipulated him into going along with her plan. Zach, still angry at his brother-in-law, realized his mistake in judgement and shifted his anger toward Carly.","They decided to have Dan invite her to the hotel room under the guise of a romantic date. Once she arrived, Nicole was there to tie her up. Once she was secured to a chair, Nicole demanded Amy's bank passwords. Amy obliged and gave her access to her bank accounts.",,,,,,,,,,
