consent.started,consent.stopped,consentResponse.keys,consentResponse.rt,consentResponse.duration,participantID,date,expName,psychopyVersion,OS,frameRate,STUDY_ID,SESSION_ID,opening1.started,opening1.stopped,keyEndingOpening1.keys,keyEndingOpening1.rt,keyEndingOpening1.duration,volumeAdjust.started,volumeAdjust.stopped,endingAdjust.keys,endingAdjust.rt,endingAdjust.duration,opening2.started,opening2.stopped,keyEndingOpening.keys,keyEndingOpening.rt,keyEndingOpening.duration,mouse.x,mouse.y,mouse.leftButton,mouse.midButton,mouse.rightButton,mouse.time,instructionLoop.thisRepN,instructionLoop.thisTrialN,instructionLoop.thisN,instructionLoop.thisIndex,instructionLoop.ran,readyForAudio.started,readyForAudio.stopped,fixation.started,run,audio_played,fixation.stopped,endPractice.keys,audioPre.started,audioPre.stopped,continuousResponses_audio,intRating.started,intRating.stopped,intQuestionSlider.response,intQuestionSlider.rt,intQuestionSlider.history,confirmResponse.keys,confirmResponse.rt,confirmResponse.duration,catchQuestion.started,catch_label,catch_value,catchQuestion.stopped,catchQuestionSlider.response,catchQuestionSlider.rt,catchQuestionSlider.history,confirmResponse_2.keys,audioRunLoop.thisRepN,audioRunLoop.thisTrialN,audioRunLoop.thisN,audioRunLoop.thisIndex,audioRunLoop.ran,conditions1_1,conditions2_1,conditions1_2,conditions2_2,dur1_1,dur2_1,dur1_2,dur2_2,endPractice.rt,endPractice.duration,confirmResponse_2.rt,confirmResponse_2.duration,runIntervalBreak.started,runIntervalBreak.stopped,endingBreakKey.keys,endingBreakKey.rt,endingBreakKey.duration,connection.started,connection.stopped,connectionEnding.keys,connectionEnding.rt,connectionEnding.duration,readyForText.started,readyForText.stopped,textPre.started,run_dup,textPre.stopped,continuousResponses_text,textRunLoop.thisRepN,textRunLoop.thisTrialN,textRunLoop.thisN,textRunLoop.thisIndex,textRunLoop.ran,text1_1,text1_2,text2_1,text2_2,runBreakText.started,runBreakText.stopped,endingBreakKey_2.keys,endingBreakKey_2.rt,endingBreakKey_2.duration,ending.started,ending.stopped,endingEnding.keys,endingEnding.rt,endingEnding.duration
0.0003,38.8459,y,38.5156,,67f1626e4525cfea0f0a9753,2025-07-07_22h32.34.674,group3.4_multiperson,2023.2.2,Win32,59.52380952,686c2ebf0248f13bef9af11f,686c9048ac36fa3d7e7cd3b9,,,,,,,,,,,,,,,,,,,,,,,,,,,,,,,,,,,,,,,,,,,,,,,,,,,,,,,,,,,,,,,,,,,,,,,,,,,,,,,,,,,,,,,,,,,,,,,,,,,,,,,,
,,,,,67f1626e4525cfea0f0a9753,2025-07-07_22h32.34.674,group3.4_multiperson,2023.2.2,Win32,59.52380952,686c2ebf0248f13bef9af11f,686c9048ac36fa3d7e7cd3b9,38.8481,82.5498,space,43.6203,,,,,,,,,,,,,,,,,,,,,,,,,,,,,,,,,,,,,,,,,,,,,,,,,,,,,,,,,,,,,,,,,,,,,,,,,,,,,,,,,,,,,,,,,,,,,,,,,,,,
,,,,,67f1626e4525cfea0f0a9753,2025-07-07_22h32.34.674,group3.4_multiperson,2023.2.2,Win32,59.52380952,686c2ebf0248f13bef9af11f,686c9048ac36fa3d7e7cd3b9,,,,,,82.5501,121.2516,space,38.3879,,,,,,,,,,,,,,,,,,,,,,,,,,,,,,,,,,,,,,,,,,,,,,,,,,,,,,,,,,,,,,,,,,,,,,,,,,,,,,,,,,,,,,,,,,,,,,,
,,,,,67f1626e4525cfea0f0a9753,2025-07-07_22h32.34.674,group3.4_multiperson,2023.2.2,Win32,59.52380952,686c2ebf0248f13bef9af11f,686c9048ac36fa3d7e7cd3b9,,,,,,,,,,,121.2682,153.382,space,32.0763,,[],[],[],[],[],[],0,0,0,0,1,,,,,,,,,,,,,,,,,,,,,,,,,,,,,,,,,,,,,,,,,,,,,,,,,,,,,,,,,,,,,,,,,,,,,,,,,,,,,,
,,,,,67f1626e4525cfea0f0a9753,2025-07-07_22h32.34.674,group3.4_multiperson,2023.2.2,Win32,59.52380952,686c2ebf0248f13bef9af11f,686c9048ac36fa3d7e7cd3b9,,,,,,,,,,,153.3832,220.1613,space,66.6081,,[],[],[],[],[],[],1,0,1,0,1,,,,,,,,,,,,,,,,,,,,,,,,,,,,,,,,,,,,,,,,,,,,,,,,,,,,,,,,,,,,,,,,,,,,,,,,,,,,,,
,,,,,67f1626e4525cfea0f0a9753,2025-07-07_22h32.34.674,group3.4_multiperson,2023.2.2,Win32,59.52380952,686c2ebf0248f13bef9af11f,686c9048ac36fa3d7e7cd3b9,,,,,,,,,,,220.1627,466.2795,space,246.0157,,[],[],[],[],[],[],2,0,2,0,1,,,,,,,,,,,,,,,,,,,,,,,,,,,,,,,,,,,,,,,,,,,,,,,,,,,,,,,,,,,,,,,,,,,,,,,,,,,,,,
,,,,,67f1626e4525cfea0f0a9753,2025-07-07_22h32.34.674,group3.4_multiperson,2023.2.2,Win32,59.52380952,686c2ebf0248f13bef9af11f,686c9048ac36fa3d7e7cd3b9,,,,,,,,,,,466.2812,559.6282,space,93.3093,,[],[],[],[],[],[],3,0,3,0,1,,,,,,,,,,,,,,,,,,,,,,,,,,,,,,,,,,,,,,,,,,,,,,,,,,,,,,,,,,,,,,,,,,,,,,,,,,,,,,
,,,,,67f1626e4525cfea0f0a9753,2025-07-07_22h32.34.674,group3.4_multiperson,2023.2.2,Win32,59.52380952,686c2ebf0248f13bef9af11f,686c9048ac36fa3d7e7cd3b9,,,,,,,,,,,559.6298,582.7479,space,23.0669,,[],[],[],[],[],[],4,0,4,0,1,,,,,,,,,,,,,,,,,,,,,,,,,,,,,,,,,,,,,,,,,,,,,,,,,,,,,,,,,,,,,,,,,,,,,,,,,,,,,,
,,,,,67f1626e4525cfea0f0a9753,2025-07-07_22h32.34.674,group3.4_multiperson,2023.2.2,Win32,59.52380952,686c2ebf0248f13bef9af11f,686c9048ac36fa3d7e7cd3b9,,,,,,,,,,,582.7486,614.2528,space,31.4652,,[],[],[],[],[],[],5,0,5,0,1,,,,,,,,,,,,,,,,,,,,,,,,,,,,,,,,,,,,,,,,,,,,,,,,,,,,,,,,,,,,,,,,,,,,,,,,,,,,,,
,,,,,67f1626e4525cfea0f0a9753,2025-07-07_22h32.34.674,group3.4_multiperson,2023.2.2,Win32,59.52380952,686c2ebf0248f13bef9af11f,686c9048ac36fa3d7e7cd3b9,,,,,,,,,,,,,,,,,,,,,,,,,,,614.2623,616.8377,616.8886,1,audio/Narrative13Situation2.wav,618.8899,,618.8903,648.6441,"[[999,6],[999,192],[999,275],[999,359],[999,441],[999,525],[999,608],[999,691],[999,768],[999,858],[999,941],[999,1025],[999,1109],[50.9,1194],[52.6,1276],[52.8,1358],[52.8,1442],[52.8,1526],[52.8,1609],[56.9,1695],[57,2277],[56.3,2361],[56.1,2436],[53.7,2528],[52.9,2612],[52.9,2686],[52.5,2770],[52.3,2853],[52.1,2945],[50.7,3028],[49.1,3112],[49,3193],[49,3277],[48.4,3361],[47.1,3444],[45.5,3531],[44.7,3611],[44.2,3695],[42.8,3779],[42.3,3861],[40.9,3946],[33.3,4028],[31.7,4112],[25.7,4197],[34.1,4697],[34.3,4777],[35.9,4866],[48.5,4946],[52.9,5029],[56.7,5113],[66.4,5196],[66.4,5278],[66.4,5361],[66.4,5438],[67.6,5529],[68.8,5614],[70.5,5696],[72,5779],[74.5,5864],[76,5945],[76.3,6030],[76.6,6105],[77,6199],[78.2,6279],[78.2,6362],[78.2,6445],[78.2,6529],[78.2,6612],[78.2,6689],[78.2,6779],[78.5,6863],[78.5,6946],[78.5,7019],[78.7,7107],[78.7,7197],[78.7,7279],[78.7,7363],[78.7,7446],[78.7,7530],[78.7,7614],[78.7,7696],[78.7,7781],[78.7,7855],[78.7,7937],[78.7,8026],[78.7,8103],[78.7,8189],[78.2,8281],[75.8,8365],[76.3,10365],[76.3,10438],[76.3,10521],[76.3,10606],[76.3,10688],[76.5,10773],[76.5,10865],[76.5,10941],[76.5,11022],[76.5,11107],[76.5,11199],[76.5,11272],[76.5,11365],[76.5,11445],[76.5,11533],[76.5,11606],[76.5,11699],[76.5,11774],[76.5,11857],[76.5,11949],[76.5,12022],[76.5,12116],[76.5,12199],[76.5,12282],[76.5,12358],[76.5,12451],[76.5,12526],[76.5,12618],[76.5,12689],[76.5,12783],[76.5,12858],[76.5,12950],[76.5,13023],[76.5,13116],[76.5,13190],[76.5,13283],[76.5,13367],[76.5,13450],[76.5,13525],[76.5,13617],[76.5,13700],[76.5,13784],[76.5,13867],[76.5,13952],[76.5,14025],[76.5,14110],[76.5,14192],[76.5,14274],[76.5,14367],[76.5,14448],[76.5,14532],[76.5,14615],[76.5,14691],[76.5,14781],[76.5,14866],[76.5,14942],[76.5,15024],[76.5,15114],[76.5,15191],[76.5,15279],[76.5,15366],[76.5,15449],[76.5,15525],[76.5,15616],[76.9,15700],[76.9,15775],[77,15865],[77.4,15942],[77.4,16032],[77.4,16109],[77.4,16192],[77.4,16276],[77.4,16368],[77.4,16449],[77.4,16526],[77.4,16616],[77.4,16700],[77.4,16776],[77.4,16866],[77.4,16943],[77.4,17026],[77.4,17117],[77.4,17193],[77.4,17284],[77.4,17360],[77.4,17450],[77.4,17527],[77.4,17610],[77.4,17693],[77.4,17776],[77.4,17859],[77.4,17943],[77.4,18033],[77.4,18118],[77.4,18200],[77.4,18277],[77.4,18360],[77.4,18451],[77.4,18534],[77.4,18610],[77.4,18703],[77.4,18777],[77.4,18860],[77.4,18947],[77.4,19027],[77.4,19110],[77.4,19202],[77.4,19285],[77.4,19368],[77.4,19444],[77.4,19528],[77.4,19611],[71.1,19704],[64.6,19787],[51.5,19871],[32.3,19953],[25.2,20037],[21.1,20121],[16.7,20204],[16.4,20280],[15.3,20370],[15.3,20453],[15.3,20538],[15.3,20611],[15.3,20695],[15.3,20787],[15.3,20862],[15.3,20954],[15.3,21038],[15.3,21121],[15.3,21196],[15.3,21280],[15.3,21362],[15.3,21456],[15.3,21539],[15.3,21624],[15.3,21706],[15.3,21789],[15.3,21872],[15.3,21947],[15.3,22039],[15.3,22114],[15.3,22199],[15.3,22289],[15.3,22374],[15.3,22456],[15.3,22530],[15.3,22613],[15.3,22698],[15.3,22782],[15.3,22865],[15.3,22949],[15.3,23040],[15.3,23125],[15.3,23196],[22.4,23293],[32.4,23374],[33.8,23458],[33.8,23530],[33.8,23624],[33.8,23708],[33.8,23782],[33.8,23874],[33.8,23957],[33.8,24041],[33.8,24124],[33.8,24208],[33.8,24291],[33.8,24375],[33.8,24459],[33.8,24533],[33.8,24624],[33.8,24698],[33.8,24788],[33.8,24865],[33.8,24948],[33.8,25039],[33.8,25115],[33.8,25205],[33.8,25282],[33.8,25365],[33.8,25456],[33.8,25540],[33.8,25622],[33.8,25698],[33.8,25789],[33.8,25869],[33.8,25956],[33.8,26032],[33.8,26115],[33.8,26199],[33.8,26283],[33.8,26366],[33.8,26457],[33.8,26539],[33.8,26624],[33.8,26706],[33.8,26790],[33.8,26873],[33,26958],[31.9,27041],[29.7,27125],[29.7,27207],[29.7,27289],[29.7,27366],[29.7,27450],[29.7,27538],[29.7,27617],[29.7,27708],[29.7,27790],[29.7,27874],[29.7,27950],[29.7,28033],[29.7,28123],[29.7,28208],[29.5,28290],[29.5,28367],[29.5,28458],[29.5,28533],[29.5,28617],[29.5,28708],[28.9,28792],[27.9,28877],[27.6,28951],[27.6,29034],[26.9,29126],[25.9,29210],[25.4,29284],[25.4,29367],[25.4,29451],[25.4,29541],[25.4,29625],[25.4,29708]]",648.6457,680.065,47.5877193,25.2258,"[{""rating"":47.66081871345029,""responseTime"":18.040200000017876},{""rating"":49.34210526315789,""responseTime"":19.788200000017923},{""rating"":62.28070175438596,""responseTime"":21.80610000002389},{""rating"":48.83040935672515,""responseTime"":22.874300000011885},{""rating"":44.07894736842105,""responseTime"":24.124700000017924},{""rating"":47.58771929824561,""responseTime"":25.225800000011986}]",space,30.874,,680.066,Partially,50,680.0757,,,[],,0,0,0,0,1,audio/Narrative13Situation2.wav,audio/Narrative13Situation2.wav,audio/Narrative13Situation2.wav,audio/Narrative13Situation2.wav,2,2,2,2,,,,,,,,,,,,,,,,,,,,,,,,,,,,,,,,,,,,,,,
,,,,,67f1626e4525cfea0f0a9753,2025-07-07_22h32.34.674,group3.4_multiperson,2023.2.2,Win32,59.52380952,686c2ebf0248f13bef9af11f,686c9048ac36fa3d7e7cd3b9,,,,,,,,,,,,,,,,,,,,,,,,,,,,,680.0764,1,audio/Narrative8Situation1.wav,685.6016,space,685.6018,701.5506,"[[999,4],[999,101],[999,189],[999,265],[999,349],[999,442],[999,525],[999,610],[999,692],[999,777],[999,849],[999,944],[999,1026],[999,1110],[999,1193],[999,1276],[999,1361],[999,1445],[999,1527],[999,1610],[999,1696],[999,1769],[999,1862],[51.7,1944],[44.5,2028],[42.1,2112],[41.7,2187],[37.1,2278],[28.6,2362],[27.6,2445],[25.9,2529],[23.4,2611],[23.4,2685],[23.3,2778],[23.3,2860],[23.3,2934],[23.3,3022],[22.8,3111],[22.8,3184],[22.8,3278],[22.8,3361],[22.8,3435],[22.8,3527],[22.8,3611],[22.8,3686],[23.8,3779],[24.8,3862],[25.4,3945],[25.7,4029],[25.7,4111],[25.7,4187],[25.7,4268],[25.7,4362],[25.7,4446],[25.9,4528],[25.9,4612],[26.1,4696],[26.8,4778],[29.8,4864],[38.6,4947],[47.2,5031],[53.2,5116],[58.1,5197],[84.5,6113],[84.5,6187],[84.3,6281],[83.4,6364],[83.4,6446],[82.2,6532],[82,6613],[82,6698],[82,6773],[82.5,6857],[83.1,6947],[83.1,7023],[83.1,7107],[83.1,7192],[83.1,7280],[83.1,7365],[83.1,7437],[83.1,7530],[83.1,7614],[83.1,7697],[83.1,7781],[83.1,7864],[83.1,7940],[81.4,8032],[52.1,8699],[50.7,8783],[47.2,8868],[42.8,8949],[42.8,9033],[42.8,9115],[44.2,9201],[45.8,9283],[46,9361],[46.5,9451],[47.2,9524],[47.2,9615],[49.2,9700],[50.4,9783],[59.6,9867],[61,9949],[62.1,10033],[70.2,10119],[72.5,10200],[73.4,10286],[78.4,10368],[81.1,10452],[82.8,10535],[85.1,10617],[86.6,10702],[86.8,10783],[86.8,10856],[87.5,10950],[87.6,11023],[87.9,11117],[87.9,11190],[87.9,11276],[87.9,11362],[87.9,11442]]",701.5511,713.5642,82.38304094,3.2728,"[{""rating"":82.38304093567251,""responseTime"":3.272800000011898}]",space,11.4588,,713.5644,Definitely yes,100,713.5749,,,[],,0,1,1,1,1,audio/Narrative7Situation1.wav,audio/Narrative8Situation1.wav,audio/Narrative5Situation1.wav,audio/Narrative6Situation1.wav,2,5,5,2,5.477,,,,,,,,,,,,,,,,,,,,,,,,,,,,,,,,,,,,,,
,,,,,67f1626e4525cfea0f0a9753,2025-07-07_22h32.34.674,group3.4_multiperson,2023.2.2,Win32,59.52380952,686c2ebf0248f13bef9af11f,686c9048ac36fa3d7e7cd3b9,,,,,,,,,,,,,,,,,,,,,,,,,,,,,713.5754,1,audio/Narrative8Situation2.wav,716.5895,,716.5897,726.7237,"[[999,2],[999,82],[999,173],[999,249],[999,339],[999,416],[999,499],[999,583],[999,673],[999,757],[999,840],[999,916],[999,1007],[999,1091],[999,1166],[999,1250],[999,1340],[999,1423],[999,1500],[999,1590],[999,1666],[999,1750],[999,1837],[999,1917],[999,2000],[999,2090],[999,2167],[999,2250],[999,2342],[999,2417],[999,2509],[999,2591],[999,2674],[999,2751],[999,2841],[999,2917],[999,3007],[999,3092],[999,3175],[999,3259],[999,3339],[999,3425],[999,3510],[999,3592],[72.6,3676],[72.4,3760],[72.6,3843],[72.8,3925],[72.8,4009],[73,4085],[73.3,4176],[73.3,4252],[73.5,4336],[73.7,4419],[74.3,4510],[75.7,4594],[77.9,4679],[80.5,4761],[80.8,4843],[81.9,4927],[82.5,5002],[82.5,5085],[82.5,5169],[82.5,5262],[82.5,5344],[82.5,5427],[82.5,5503],[82.5,5586],[82.5,5678],[82.5,5753],[82.5,5836],[82.5,5919],[82.5,6013],[82.5,6088],[82.5,6180],[82.5,6263],[82.5,6336],[82.5,6430],[82.5,6509],[82.5,6596],[82.5,6671],[82.5,6764],[82.5,6839],[82.5,6930],[82.5,7013],[82.5,7087],[82.5,7180],[82.5,7254],[82.5,7347],[82.5,7422],[82.5,7514],[82.5,7588],[82.5,7681],[82.5,7764],[82.5,7849],[82.5,7923],[82.5,8014],[82.5,8089],[82.5,8171],[82.5,8264],[82.5,8349],[82.5,8422],[82.5,8515],[82.5,8588],[82.5,8682],[82.5,8765],[82.5,8838],[82.5,8927],[82.5,9015],[82.5,9089],[82.5,9182],[82.5,9265],[82.5,9338],[82.5,9432],[82.5,9516],[82.5,9590],[82.5,9682],[82.5,9760],[82.5,9839],[82.5,9922],[82.5,10015],[82.5,10089]]",726.7239,737.5144,9.868421053,9.8715,"[{""rating"":82.45614035087719,""responseTime"":1.0485999999940532},{""rating"":21.052631578947366,""responseTime"":3.717699999988099},{""rating"":14.839181286549707,""responseTime"":6.385799999982169},{""rating"":6.578947368421051,""responseTime"":8.386899999976208},{""rating"":9.868421052631577,""responseTime"":9.871500000000083}]",space,10.2486,,737.5145,Partially,50,737.5188,,,[],,0,2,2,2,1,audio/Narrative7Situation2.wav,audio/Narrative8Situation2.wav,audio/Narrative5Situation2.wav,audio/Narrative6Situation2.wav,3,3,3,3,,,,,,,,,,,,,,,,,,,,,,,,,,,,,,,,,,,,,,,
,,,,,67f1626e4525cfea0f0a9753,2025-07-07_22h32.34.674,group3.4_multiperson,2023.2.2,Win32,59.52380952,686c2ebf0248f13bef9af11f,686c9048ac36fa3d7e7cd3b9,,,,,,,,,,,,,,,,,,,,,,,,,,,,,737.5194,1,audio/Narrative8Situation3.wav,741.5231,,741.5234,763.9049,"[[17.5,3102],[18.3,3184],[18.6,3268],[18.6,3351],[18.6,3434],[18.6,3518],[18.7,3602],[18.9,3685],[18.9,3768],[18.9,3851],[18.9,3935],[18.9,4018],[19.3,4102],[19.3,4185],[19.3,4269],[19.4,4352],[19.4,4435],[19.4,4519],[19.4,4602],[19.4,4685],[19.4,4769],[19.4,4852],[19.4,4935],[19.4,5019],[19.7,5103],[19.7,5186],[19.7,5269],[19.7,5352],[19.7,5436],[19.7,5519],[19.7,5602],[19.7,5686],[19.7,5769],[19.9,5853],[21.3,5936],[21.3,6019],[22.3,6104],[23.8,6187],[24.8,6270],[26.7,6356],[28.6,6437],[30.3,6520],[38.8,6603],[40.8,6686],[41,6770],[44.4,6855],[48.1,6938],[49,7020],[51,7104],[51.1,7187],[51.5,7271],[51.5,7354],[51.5,7437],[51.5,7521],[53.4,7605],[59.9,9189],[59.9,9272],[60.3,9355],[60.3,9439],[60.7,9523],[61,9605],[61.3,9689],[61.3,9772],[61.3,9855],[61.3,9939],[61.3,10022],[61.3,10106],[61.3,10189],[61.3,10273],[61.3,10356],[61.3,10439],[61.3,10523],[61.3,10606],[61.3,10689],[61.3,10773],[61.3,10856],[61.3,10940],[61.3,11023],[61.3,11107],[61.3,11190],[61.3,11273],[61.3,11357],[61.3,11440],[61.3,11524],[61.3,11607],[61.3,11690],[61.3,11773],[61.3,11856],[61.3,11940],[61.3,12023],[61.3,12107],[61.3,12191],[61.3,12274],[61.3,12357],[61.3,12441],[61.3,12524],[61.3,12608],[61.3,12692],[61.3,12774],[61.3,12858],[61.3,12941],[61.3,13024],[61.3,13108],[61.3,13191],[61.3,13275],[61.3,13359],[61.3,13441],[61.3,13525],[61.3,13608],[61.3,13692],[61.3,13775],[61.3,13858],[61.3,13942],[61.3,14025],[61.3,14109],[61.3,14192],[61.3,14275],[61.3,14359],[61.3,14442],[61.3,14525],[61.3,14609],[61.3,14692],[61.4,14776],[62.3,14859],[62.3,14942],[74.3,16777],[76.6,16864],[77.9,16944],[78.3,17027],[78.3,17110],[78.3,17194],[78.3,17277],[78.3,17360],[78.3,17444],[78.3,17528],[78.3,17611],[78.3,17694],[78.3,17778],[78.3,17861],[78.3,17945],[78.3,18028],[78.3,18111],[78.3,18195],[78.3,18278],[78.3,18361],[78.3,18445],[78.3,18528],[78.3,18612],[78.3,18695],[78.3,18778],[78.3,18862],[78.3,18945],[78.3,19028],[78.3,19112],[78.3,19195],[78.3,19279],[78.3,19362],[78.3,19445],[78.3,19529],[78.3,19612],[78.3,19695],[78.3,19779],[78.3,19862],[78.3,19946],[78.3,20029],[78.3,20113],[78.3,20196],[78.3,20279],[78.3,20363],[78.3,20446],[78.3,20530],[78.3,20613],[78.3,20696],[78.3,20780],[78.3,20863],[78.3,20947],[78.4,21030],[79,21113],[79.4,21197],[79.4,21280],[79.4,21363],[79.4,21447],[79.4,21530],[79.4,21614],[80.4,21697],[81.4,21781],[82.3,21865],[86.4,21947],[87.5,22031],[88.3,22115],[88.3,22197],[88.5,22281],[88.5,22365]]",763.9052,771.3545,89.54678363,1.6154,"[{""rating"":89.546783625731,""responseTime"":1.6153999999761481}]",space,6.8892,,771.3548,Partially,50,771.3587,,,[],,0,3,3,3,1,audio/Narrative7Situation3.wav,audio/Narrative8Situation3.wav,audio/Narrative5Situation3.wav,audio/Narrative6Situation3.wav,8,4,3,5,,,,,,,,,,,,,,,,,,,,,,,,,,,,,,,,,,,,,,,
,,,,,67f1626e4525cfea0f0a9753,2025-07-07_22h32.34.674,group3.4_multiperson,2023.2.2,Win32,59.52380952,686c2ebf0248f13bef9af11f,686c9048ac36fa3d7e7cd3b9,,,,,,,,,,,,,,,,,,,,,,,,,,,,,771.3595,1,audio/Narrative8Situation4.wav,774.3621,,774.3622,788.5498,"[[999,1],[999,94],[999,166],[999,249],[999,332],[999,416],[999,500],[999,585],[999,667],[999,760],[999,833],[999,918],[999,1010],[999,1085],[999,1169],[999,1250],[999,1334],[999,1417],[999,1510],[999,1584],[999,1667],[999,1760],[999,1839],[999,1927],[999,2002],[999,2095],[999,2169],[999,2261],[999,2336],[999,2420],[999,2503],[999,2595],[999,2668],[999,2757],[999,2834],[999,2928],[999,3003],[999,3085],[999,3170],[999,3262],[999,3335],[999,3418],[999,3504],[999,3586],[999,3678],[999,3752],[999,3836],[999,3919],[999,4012],[999,4085],[999,4178],[999,4252],[999,4345],[999,4429],[999,4512],[999,4586],[999,4675],[999,4753],[999,4836],[999,4919],[999,5003],[999,5086],[999,5170],[999,5254],[999,5338],[999,5429],[999,5503],[999,5586],[999,5669],[999,5753],[999,5837],[999,5930],[999,6013],[999,6096],[999,6172],[999,6254],[999,6339],[999,6426],[999,6504],[999,6587],[999,6670],[999,6753],[999,6846],[999,6920],[999,7013],[999,7087],[999,7181],[999,7254],[999,7348],[999,7423],[999,7504],[999,7589],[999,7671],[999,7756],[999,7848],[999,7923],[999,8005],[999,8088],[999,8181],[999,8255],[999,8348],[999,8422],[999,8515],[999,8590],[999,8682],[999,8756],[999,8848],[999,8932],[999,9015],[999,9090],[999,9172],[999,9256],[999,9349],[999,9432],[999,9515],[999,9589],[999,9673],[999,9756],[999,9839],[999,9923],[999,10006],[999,10091],[999,10173],[999,10256],[999,10340],[999,10423],[999,10506],[999,10590],[999,10675],[999,10757],[999,10840],[999,10923],[999,11007],[999,11100],[999,11174],[999,11267],[999,11350],[999,11435],[999,11518],[999,11601],[999,11685],[999,11760],[999,11851],[999,11935],[999,12018],[999,12102],[999,12179],[999,12269],[999,12351],[999,12436],[999,12509],[999,12591],[999,12685],[999,12758],[999,12851],[999,12926],[999,13020],[999,13102],[999,13188],[999,13269],[81.9,13354],[82.5,13435],[83.3,13519],[83.5,13592],[83.6,13676],[84,13769],[84,13843],[84.2,13935],[84.2,14011],[84.5,14103],[85.5,14186]]",788.5502,793.2085,94.66374269,2.2986,"[{""rating"":87.42690058479532,""responseTime"":1.201099999994085},{""rating"":94.66374269005848,""responseTime"":2.298599999994053}]",space,4.1264,,793.2087,Partially,50,793.2153,,,[],,0,4,4,4,1,audio/Narrative7Situation4.wav,audio/Narrative8Situation4.wav,audio/Narrative5Situation4.wav,audio/Narrative6Situation4.wav,3,3,1,2,,,,,,,,,,,,,,,,,,,,,,,,,,,,,,,,,,,,,,,
,,,,,67f1626e4525cfea0f0a9753,2025-07-07_22h32.34.674,group3.4_multiperson,2023.2.2,Win32,59.52380952,686c2ebf0248f13bef9af11f,686c9048ac36fa3d7e7cd3b9,,,,,,,,,,,,,,,,,,,,,,,,,,,,,793.216,1,audio/Narrative8Situation5.wav,795.2266,,795.2268,803.4998,"[[999,1],[999,92],[999,176],[999,261],[999,339],[999,427],[999,499],[999,586],[999,668],[999,752],[999,841],[999,916],[999,1002],[999,1085],[999,1177],[999,1260],[999,1333],[999,1419],[999,1511],[999,1593],[999,1677],[999,1760],[999,1836],[999,1927],[999,2002],[999,2085],[999,2172],[999,2250],[999,2334],[999,2427],[999,2500],[999,2584],[999,2667],[999,2758],[999,2834],[999,2924],[999,3001],[999,3091],[999,3168],[999,3251],[999,3334],[999,3419],[999,3501],[999,3584],[999,3668],[999,3752],[999,3842],[999,3919],[999,4002],[999,4089],[999,4168],[999,4252],[999,4343],[999,4426],[999,4502],[999,4592],[999,4669],[999,4752],[999,4839],[999,4919],[999,5003],[999,5091],[999,5176],[999,5261],[999,5336],[999,5420],[999,5503],[999,5593],[999,5670],[999,5760],[999,5836],[999,5920],[999,6003],[999,6094],[999,6170],[999,6254],[999,6343],[999,6420],[999,6510],[999,6594],[999,6670],[999,6754],[999,6841],[999,6921],[999,7004],[999,7087],[999,7177],[999,7262],[999,7346],[999,7430],[999,7512],[999,7595],[999,7678],[999,7754],[999,7846],[999,7932],[87.4,8013],[88.2,8098],[89.1,8181],[89.1,8262]]",803.5005,808.1107,90.05847953,1.205,"[{""rating"":90.05847953216374,""responseTime"":1.2049999999999272}]",space,4.0695,,808.1109,Not at all,0,808.1175,,,[],,0,5,5,5,1,audio/Narrative7Situation5.wav,audio/Narrative8Situation5.wav,audio/Narrative5Situation5.wav,audio/Narrative6Situation5.wav,5,2,5,2,,,,,,,,,,,,,,,,,,,,,,,,,,,,,,,,,,,,,,,
,,,,,67f1626e4525cfea0f0a9753,2025-07-07_22h32.34.674,group3.4_multiperson,2023.2.2,Win32,59.52380952,686c2ebf0248f13bef9af11f,686c9048ac36fa3d7e7cd3b9,,,,,,,,,,,,,,,,,,,,,,,,,,,,,808.1185,1,audio/Narrative8Situation6.wav,810.1219,,810.122,816.5941,"[[999,0],[999,90],[999,164],[999,258],[999,341],[999,414],[999,507],[999,592],[999,664],[999,758],[999,841],[999,915],[999,998],[999,1081],[999,1175],[999,1250],[999,1336],[999,1417],[999,1509],[999,1593],[999,1675],[999,1748],[999,1832],[999,1917],[999,2009],[999,2084],[999,2165],[999,2259],[999,2335],[999,2417],[999,2501],[999,2592],[999,2666],[999,2749],[999,2843],[999,2916],[999,2999],[999,3083],[999,3166],[999,3250],[999,3333],[999,3416],[999,3510],[999,3583],[999,3666],[999,3750],[999,3833],[999,3919],[999,4000],[999,4083],[999,4167],[999,4250],[999,4334],[999,4427],[999,4500],[999,4594],[999,4669],[999,4760],[999,4835],[999,4917],[999,5002],[999,5085],[999,5177],[999,5251],[999,5335],[999,5419],[999,5512],[999,5584],[999,5670],[999,5761],[999,5840],[999,5918],[999,6011],[999,6085],[999,6170],[999,6262],[999,6336],[999,6418]]",816.5944,827.7319,60.38011696,8.3271,"[{""rating"":60.380116959064324,""responseTime"":8.327099999994061}]",space,10.5941,,827.732,Partially,50,827.7378,,,[],,0,6,6,6,1,audio/Narrative7Situation6.wav,audio/Narrative8Situation6.wav,audio/Narrative5Situation6.wav,audio/Narrative6Situation6.wav,3,2,3,2,,,,,,,,,,,,,,,,,,,,,,,,,,,,,,,,,,,,,,,
,,,,,67f1626e4525cfea0f0a9753,2025-07-07_22h32.34.674,group3.4_multiperson,2023.2.2,Win32,59.52380952,686c2ebf0248f13bef9af11f,686c9048ac36fa3d7e7cd3b9,,,,,,,,,,,,,,,,,,,,,,,,,,,,,827.7382,1,audio/Narrative8Situation7.wav,830.745,,830.745,842.8429,"[[999,0],[999,98],[999,172],[999,265],[999,350],[999,422],[999,506],[999,595],[999,674],[999,766],[999,849],[999,923],[999,1016],[999,1089],[999,1184],[999,1256],[999,1349],[999,1423],[999,1516],[999,1599],[999,1673],[999,1757],[999,1840],[999,1923],[999,2008],[999,2090],[999,2173],[999,2256],[999,2340],[999,2423],[999,2507],[999,2590],[999,2674],[999,2757],[999,2841],[999,2933],[999,3017],[999,3091],[999,3174],[999,3258],[999,3341],[999,3424],[999,3508],[999,3601],[999,3685],[999,3768],[999,3841],[999,3934],[999,4019],[999,4091],[999,4176],[999,4261],[999,4354],[999,4436],[999,4519],[999,4602],[999,4686],[999,4770],[999,4852],[999,4937],[999,5019],[999,5103],[999,5187],[999,5269],[999,5353],[999,5436],[999,5510],[999,5594],[999,5688],[999,5770],[999,5853],[84.9,5939],[86,6020],[86.8,6105],[86.8,6186],[86.8,6261],[87,6353],[87.2,6428],[87.2,6521],[87.2,6596],[87.2,6680],[87.2,6762],[87.2,6843],[87.2,6937],[87.2,7010],[87.2,7103],[87.4,7188],[87.4,7270],[88.2,7354],[88.6,7437],[88.7,7523],[89.5,7604],[90.2,7680],[91.5,7773],[92,7854],[92.4,7937],[92.6,8015],[92.6,8097],[92.6,8188],[92.6,8272],[93.1,8347],[94.1,8439],[94.4,8522],[94.4,8595],[94.7,8680],[94.7,8761],[94.8,8855],[94.9,8931],[95.6,9024],[95.6,9105],[95.8,9188],[95.8,9265],[95.8,9351],[95.8,9438],[95.8,9512],[95.8,9598],[95.8,9689],[96,9764],[96,9848],[96,9939],[96,10012],[96,10105],[96,10184],[96,10262],[96,10347],[96,10440],[96,10513],[96,10596],[96,10690],[96,10772],[96,10856],[95.5,10940],[95.1,11024],[94.7,11106],[94.6,11181],[94.6,11273],[94.6,11356],[94.6,11430],[94.6,11513],[94.6,11596],[94.6,11690],[94.6,11774],[94.6,11848],[94.6,11941],[94.6,12015],[94.6,12097]]",842.8432,846.4229,94.37134503,1.4603,"[{""rating"":94.37134502923976,""responseTime"":1.4602999999821122}]",space,3.0371,,846.4232,Not at all,0,846.4306,,,[],,0,7,7,7,1,audio/Narrative7Situation7.wav,audio/Narrative8Situation7.wav,audio/Narrative5Situation7.wav,audio/Narrative6Situation7.wav,5,3,4,5,,,,,,,,,,,,,,,,,,,,,,,,,,,,,,,,,,,,,,,
,,,,,67f1626e4525cfea0f0a9753,2025-07-07_22h32.34.674,group3.4_multiperson,2023.2.2,Win32,59.52380952,686c2ebf0248f13bef9af11f,686c9048ac36fa3d7e7cd3b9,,,,,,,,,,,,,,,,,,,,,,,,,,,,,846.4314,1,audio/Narrative8Situation8.wav,849.4328,,849.4329,862.2904,"[[999,1],[999,81],[999,164],[999,247],[999,331],[999,415],[999,497],[999,581],[999,665],[999,748],[999,832],[999,915],[999,998],[999,1081],[999,1166],[999,1248],[999,1331],[999,1416],[999,1498],[999,1581],[999,1665],[999,1748],[999,1833],[999,1915],[999,1999],[999,2083],[999,2165],[999,2249],[999,2332],[999,2415],[999,2499],[999,2582],[999,2665],[999,2749],[999,2832],[999,2916],[999,2999],[999,3083],[999,3166],[999,3250],[999,3332],[999,3416],[999,3499],[999,3583],[999,3666],[999,3750],[999,3833],[999,3916],[999,4001],[999,4084],[999,4166],[999,4250],[999,4334],[999,4417],[999,4500],[999,4586],[999,4667],[999,4750],[999,4834],[999,4917],[999,5000],[999,5085],[999,5168],[999,5251],[999,5334],[999,5422],[999,5502],[999,5584],[999,5668],[999,5751],[999,5835],[999,5919],[999,6002],[999,6086],[999,6169],[999,6254],[999,6336],[999,6423],[999,6503],[999,6585],[999,6669],[999,6752],[999,6835],[999,6919],[999,7002],[999,7085],[999,7169],[999,7256],[999,7336],[999,7420],[999,7503],[999,7586],[999,7672],[999,7753],[999,7836],[999,7920],[999,8003],[999,8086],[999,8169],[999,8253],[999,8336],[999,8419],[999,8503],[999,8586],[999,8670],[999,8754],[999,8837],[999,8920],[999,9004],[999,9087],[63,9171],[62.6,9254],[62,9338],[61.3,9420],[61,9505],[60.7,9587],[60.7,9671],[60.7,9754],[60.7,9837],[60.7,9920],[60.7,10003],[60.7,10087],[60.7,10170],[60.7,10254],[60.7,10337],[60.9,10421],[61.1,10506],[61.3,10588],[61.3,10672],[61.3,10754],[61.3,10838],[61.5,10921],[61.5,11005],[61.5,11088],[61.5,11172],[61.5,11255],[61.5,11338],[61.5,11421],[61.6,11505],[62.4,11588],[62.7,11672],[62.9,11756],[63.5,11839],[65.5,11922],[67.9,12007],[70.6,12089],[73.2,12173],[75.4,12256],[75.9,12340],[77.7,12423],[79,12507],[80.2,12589],[81.4,12675],[82.6,12756],[82.6,12839]]",862.2907,867.0097,91.73976608,3.1459,"[{""rating"":84.35672514619883,""responseTime"":1.279400000006035},{""rating"":91.73976608187134,""responseTime"":3.1459000000060087}]",space,4.1716,,867.01,Definitely yes,100,867.0171,,,[],,0,8,8,8,1,audio/Narrative7Situation8.wav,audio/Narrative8Situation8.wav,audio/Narrative5Situation8.wav,audio/Narrative6Situation8.wav,2,3,3,5,,,,,,,,,,,,,,,,,,,,,,,,,,,,,,,,,,,,,,,
,,,,,67f1626e4525cfea0f0a9753,2025-07-07_22h32.34.674,group3.4_multiperson,2023.2.2,Win32,59.52380952,686c2ebf0248f13bef9af11f,686c9048ac36fa3d7e7cd3b9,,,,,,,,,,,,,,,,,,,,,,,,,,,,,867.0177,1,audio/Narrative8Situation9.wav,870.0285,,870.0285,881.3372,"[[85.2,5170],[84.9,5252],[84.8,5335],[84.8,5419],[84.8,5502],[84.8,5586],[84.8,5669],[84.8,5753],[84.8,5836],[84.8,5920],[85.5,6005],[86.4,6087],[87.1,6170],[87.9,6253],[88.5,6337],[88.8,6420],[88.8,6504],[88.8,6587],[89.5,6670],[89.5,6754],[89.5,6837],[89.5,6920],[89.5,7004],[89.5,7087],[89.5,7170],[89.5,7254],[89.5,7337],[89.5,7420],[89.5,7504],[89.5,7587],[89.5,7671],[89.5,7754],[89.5,7837],[89.5,7920],[89.5,8004],[89.5,8087],[89.5,8171],[89.5,8254],[89.5,8337],[89.5,8421],[89.5,8504],[89.5,8588],[89.5,8671],[89.5,8754],[89.5,8838],[89.5,8921],[89.5,9004],[89.5,9088],[89.5,9172],[89.5,9255],[89.5,9338],[89.5,9422],[89.5,9505],[89.5,9588],[89.5,9672],[89.5,9755],[89.5,9838],[89.5,9922],[89.5,10005],[89.5,10089],[89.5,10172],[89.5,10257],[89.5,10340],[89.5,10423],[89.5,10506],[89.5,10589],[89.5,10672],[89.5,10756],[89.5,10839],[89.5,10923],[89.5,11007],[89.5,11090],[89.5,11174],[89.5,11257]]",881.3379,897.5373,68.05555556,13.5161,"[{""rating"":63.01169590643275,""responseTime"":8.209199999988073},{""rating"":68.05555555555556,""responseTime"":13.516099999994026}]",space,15.6545,,897.5375,Definitely yes,100,897.5415,,,[],,0,9,9,9,1,audio/Narrative7Situation9.wav,audio/Narrative8Situation9.wav,audio/Narrative5Situation9.wav,audio/Narrative6Situation9.wav,2,3,3,4,,,,,,,,,,,,,,,,,,,,,,,,,,,,,,,,,,,,,,,
,,,,,67f1626e4525cfea0f0a9753,2025-07-07_22h32.34.674,group3.4_multiperson,2023.2.2,Win32,59.52380952,686c2ebf0248f13bef9af11f,686c9048ac36fa3d7e7cd3b9,,,,,,,,,,,,,,,,,,,,,,,,,,,,,897.5419,1,audio/Narrative7Situation1.wav,899.5488,,899.5491,955.4535,"[[999,2],[999,90],[999,172],[999,249],[999,332],[999,415],[999,500],[999,582],[999,667],[999,749],[999,839],[999,923],[999,1008],[999,1090],[999,1166],[999,1249],[999,1332],[999,1425],[999,1499],[999,1583],[999,1666],[999,1749],[999,1841],[999,1916],[999,2000],[999,2083],[999,2167],[999,2250],[999,2333],[999,2417],[999,2511],[999,2592],[999,2676],[999,2759],[999,2834],[999,2927],[999,3002],[999,3089],[999,3168],[999,3253],[999,3334],[999,3429],[999,3502],[999,3594],[999,3669],[999,3751],[999,3844],[999,3919],[999,4011],[999,4090],[999,4168],[999,4261],[999,4345],[999,4418],[999,4503],[999,4585],[999,4670],[999,4754],[999,4837],[999,4918],[999,5002],[999,5096],[999,5169],[999,5263],[999,5345],[999,5429],[999,5513],[999,5596],[999,5679],[999,5763],[999,5846],[999,5930],[999,6013],[999,6087],[999,6180],[999,6254],[999,6347],[999,6420],[999,6503],[999,6586],[999,6670],[999,6760],[999,6836],[999,6926],[999,7003],[999,7086],[999,7170],[999,7254],[999,7336],[999,7427],[999,7503],[999,7587],[999,7677],[999,7762],[999,7838],[999,7928],[999,8011],[999,8096],[999,8179],[999,8263],[999,8338],[999,8429],[999,8512],[999,8591],[79.9,8680],[80.3,8763],[80.8,8847],[81,8925],[81.2,9008],[81.6,9096],[81.9,9172],[82,9262],[82,9339],[82,9422],[82,9505],[82.2,9588],[82.6,9673],[83.1,9757],[83.7,9839],[83.8,9929],[83.8,10005],[84.2,10089],[84.2,10172],[84.2,10263],[84.2,10339],[84.2,10430],[84.2,10506],[84.2,10589],[84.2,10677],[84.2,10756],[84.2,10839],[84.2,10930],[84.2,11006],[84.2,11090],[84.2,11180],[84.4,11260],[84.4,11347],[84.4,11423],[84.6,11514],[84.6,11590],[84.6,11673],[84.6,11757],[84.6,11840],[84.6,11923],[84.8,12008],[84.8,12097],[84.8,12178],[84.8,12257],[84.8,12340],[84.8,12432],[84.8,12514],[84.8,12590],[84.8,12682],[85,12758],[85,12848],[85.2,12931],[85.2,13016],[85.2,13090],[85.2,13182],[85.2,13257],[85.2,13341],[85.2,13431],[85.2,13508],[85.2,13591],[85.3,13675],[85.3,13765],[85.3,13842],[85.3,13925],[85.5,14009],[85.5,14098],[85.5,14182],[85.5,14258],[85.5,14342],[85.5,14433],[85.7,14516],[85.7,14600],[85.7,14675],[85.8,14759],[86,14849],[86.4,14933],[86.6,15016],[87,15100],[87.4,15183],[87.4,15261],[88,15350],[88,15430],[88,15509],[88,15592],[88,15683],[88,15759],[88.2,15850],[88.6,15927],[89.2,16017],[89.3,16093],[89.7,16184],[90.1,16269],[90.1,16343],[90.1,16426],[90.1,16514],[90.1,16593],[90.1,16677],[90.1,16768],[90.1,16851],[90.1,16934],[90.1,17010],[90.1,17101],[90.1,17185],[90.3,17268],[90.3,17344],[90.3,17427],[90.3,17519],[90.3,17603],[90.3,17686],[90.3,17760],[90.5,17853],[90.7,17937],[90.7,18019],[91.2,18104],[91.3,18177],[91.3,18262],[91.3,18354],[91.3,18427],[91.3,18511],[91.3,18596],[91.3,18688],[91.3,18763],[91.3,18855],[91.3,18940],[91.3,19021],[91.3,19105]]",955.4539,960.8483,91.37426901,1.6442,"[{""rating"":91.37426900584795,""responseTime"":1.6441999999879044}]",space,4.8639,,960.8484,Definitely yes,100,960.8517,,,[],,0,10,10,10,1,audio/Narrative8Situation1.wav,audio/Narrative7Situation1.wav,audio/Narrative6Situation1.wav,audio/Narrative5Situation1.wav,5,2,2,5,,,,,,,,,,,,,,,,,,,,,,,,,,,,,,,,,,,,,,,
,,,,,67f1626e4525cfea0f0a9753,2025-07-07_22h32.34.674,group3.4_multiperson,2023.2.2,Win32,59.52380952,686c2ebf0248f13bef9af11f,686c9048ac36fa3d7e7cd3b9,,,,,,,,,,,,,,,,,,,,,,,,,,,,,960.8523,1,audio/Narrative7Situation2.wav,963.8591,,963.8592,971.3317,"[[999,1],[999,83],[999,166],[999,250],[999,333],[999,416],[999,500],[999,583],[999,677],[999,750],[999,844],[999,927],[999,1000],[999,1093],[999,1167],[999,1252],[999,1334],[999,1427],[999,1500],[999,1594],[999,1668],[999,1760],[999,1834],[999,1917],[999,2004],[999,2096],[999,2167],[999,2253],[999,2344],[999,2420],[999,2507],[999,2585],[999,2668],[999,2761],[999,2846],[999,2923],[999,3001],[999,3095],[999,3178],[999,3262],[999,3339],[999,3418],[999,3512],[999,3596],[999,3668],[999,3752],[999,3835],[999,3918],[999,4012],[999,4096],[999,4169],[999,4252],[999,4336],[999,4419],[999,4512],[999,4597],[999,4669],[999,4753],[999,4836],[999,4921],[999,5013],[999,5086],[999,5169],[999,5253],[999,5346],[999,5430],[999,5513],[999,5586],[999,5670],[999,5764],[999,5837],[999,5920],[999,6004],[999,6098],[999,6172],[999,6260],[999,6337],[999,6420],[999,6505],[999,6587],[999,6681],[999,6764],[999,6839],[999,6921],[999,7014],[999,7093],[999,7181],[999,7254],[999,7339],[999,7432]]",971.3321,975.4445,83.69883041,1.4098,"[{""rating"":83.69883040935673,""responseTime"":1.4098000000119555}]",space,3.5706,,975.4446,Not at all,0,975.4515,,,[],,0,11,11,11,1,audio/Narrative8Situation2.wav,audio/Narrative7Situation2.wav,audio/Narrative6Situation2.wav,audio/Narrative5Situation2.wav,3,3,3,3,,,,,,,,,,,,,,,,,,,,,,,,,,,,,,,,,,,,,,,
,,,,,67f1626e4525cfea0f0a9753,2025-07-07_22h32.34.674,group3.4_multiperson,2023.2.2,Win32,59.52380952,686c2ebf0248f13bef9af11f,686c9048ac36fa3d7e7cd3b9,,,,,,,,,,,,,,,,,,,,,,,,,,,,,975.4522,1,audio/Narrative7Situation3.wav,983.4611,,983.4612,992.7125,"[[999,0],[999,94],[999,177],[999,261],[999,344],[999,428],[999,511],[999,595],[999,679],[999,761],[999,845],[999,928],[999,1012],[999,1095],[999,1178],[999,1262],[999,1345],[999,1428],[999,1512],[999,1595],[999,1679],[999,1762],[999,1845],[999,1929],[999,2012],[999,2096],[999,2179],[999,2262],[999,2346],[999,2429],[999,2512],[999,2596],[999,2679],[999,2763],[999,2846],[999,2929],[999,3013],[999,3096],[999,3180],[999,3263],[999,3346],[999,3430],[999,3513],[999,3596],[999,3680],[999,3763],[999,3847],[999,3930],[999,4014],[999,4097],[999,4180],[999,4264],[999,4347],[999,4431],[999,4514],[999,4597],[999,4681],[999,4764],[999,4847],[999,4931],[999,5014],[999,5098],[999,5181],[999,5264],[999,5348],[999,5431],[999,5515],[999,5598],[999,5681],[999,5765],[999,5848],[999,5932],[999,6015],[999,6098],[999,6182],[999,6265],[999,6348],[999,6432],[999,6515],[999,6599],[999,6682],[999,6766],[999,6849],[999,6932],[999,7016],[999,7099],[999,7182],[999,7266],[999,7349],[999,7432],[999,7516],[999,7599],[999,7683],[999,7766],[999,7850],[999,7933],[999,8016],[999,8099],[999,8183],[999,8266],[999,8350],[999,8433],[999,8517],[999,8600],[999,8683],[999,8767],[999,8850],[999,8933],[999,9017],[999,9100],[999,9184]]",992.7128,999.4505,89.61988304,2.5757,"[{""rating"":89.61988304093566,""responseTime"":2.5757000000178323}]",space,6.1929,,999.4507,Partially,50,999.4596,,,[],,0,12,12,12,1,audio/Narrative8Situation3.wav,audio/Narrative7Situation3.wav,audio/Narrative6Situation3.wav,audio/Narrative5Situation3.wav,4,8,5,3,,,,,,,,,,,,,,,,,,,,,,,,,,,,,,,,,,,,,,,
,,,,,67f1626e4525cfea0f0a9753,2025-07-07_22h32.34.674,group3.4_multiperson,2023.2.2,Win32,59.52380952,686c2ebf0248f13bef9af11f,686c9048ac36fa3d7e7cd3b9,,,,,,,,,,,,,,,,,,,,,,,,,,,,,999.4601,1,audio/Narrative7Situation4.wav,1002.4689,,1002.469,1014.1899,"[[999,0],[999,87],[999,166],[999,257],[999,341],[999,416],[999,499],[999,583],[999,673],[999,750],[999,841],[999,921],[999,1000],[999,1084],[999,1167],[999,1259],[999,1334],[999,1417],[999,1500],[999,1584],[999,1672],[999,1751],[999,1843],[999,1917],[999,2001],[999,2093],[999,2168],[999,2251],[999,2340],[999,2427],[999,2501],[999,2594],[999,2678],[999,2753],[999,2835],[999,2919],[999,3001],[999,3085],[999,3168],[999,3253],[999,3345],[999,3420],[999,3504],[999,3587],[999,3678],[999,3753],[999,3838],[999,3924],[999,4013],[999,4087],[999,4169],[999,4254],[999,4346],[999,4419],[999,4513],[999,4587],[999,4681],[999,4753],[999,4836],[999,4929],[999,5014],[999,5096],[999,5180],[999,5253],[999,5336],[999,5420],[999,5503],[999,5588],[999,5672],[999,5765],[999,5836],[999,5920],[999,6004],[999,6097],[999,6170],[999,6265],[999,6339],[999,6430],[999,6514],[999,6587],[999,6681],[999,6764],[999,6838],[999,6931],[999,7016],[999,7088],[999,7181],[999,7264],[999,7349],[999,7431],[999,7514],[999,7598],[999,7671],[999,7764],[999,7838],[999,7931],[999,8015],[999,8088],[999,8173],[999,8255],[999,8340],[999,8424],[999,8515],[999,8589],[999,8682],[999,8760],[999,8839],[999,8924],[999,9006],[999,9090],[999,9173],[999,9256],[999,9342],[999,9425],[999,9517],[999,9589],[999,9679],[999,9766],[999,9840],[999,9933],[999,10007],[999,10099],[999,10173],[999,10256],[999,10340],[999,10434],[999,10507],[999,10590],[999,10684],[999,10757],[999,10840],[999,10934],[999,11007],[999,11090],[999,11173],[999,11257],[999,11341],[999,11435],[999,11508],[63.1,11602],[40.1,11685]]",1014.1904,1028.0649,26.53508772,7.1845,"[{""rating"":6.798245614035086,""responseTime"":2.4355999999941105},{""rating"":16.812865497076025,""responseTime"":3.2786999999882482},{""rating"":26.535087719298247,""responseTime"":7.184500000000071}]",space,13.322,,1028.0651,Partially,50,1028.0701,,,[],,0,13,13,13,1,audio/Narrative8Situation4.wav,audio/Narrative7Situation4.wav,audio/Narrative6Situation4.wav,audio/Narrative5Situation4.wav,3,3,2,1,,,,,,,,,,,,,,,,,,,,,,,,,,,,,,,,,,,,,,,
,,,,,67f1626e4525cfea0f0a9753,2025-07-07_22h32.34.674,group3.4_multiperson,2023.2.2,Win32,59.52380952,686c2ebf0248f13bef9af11f,686c9048ac36fa3d7e7cd3b9,,,,,,,,,,,,,,,,,,,,,,,,,,,,,1028.0707,1,audio/Narrative7Situation5.wav,1033.0787,,1033.0788,1041.5627,"[[999,0],[999,84],[999,161],[999,250],[999,328],[999,411],[999,494],[999,578],[999,661],[999,751],[999,829],[999,911],[999,995],[999,1085],[999,1162],[999,1245],[999,1335],[999,1412],[999,1495],[999,1578],[999,1669],[999,1745],[999,1829],[999,1912],[999,1996],[999,2079],[999,2162],[999,2253],[999,2329],[999,2420],[999,2496],[999,2579],[999,2663],[999,2746],[999,2829],[999,2913],[999,3000],[999,3080],[999,3163],[999,3246],[999,3330],[999,3413],[999,3496],[999,3580],[999,3663],[999,3747],[999,3830],[999,3923],[999,4006],[999,4082],[999,4163],[999,4249],[999,4330],[999,4415],[999,4497],[999,4581],[999,4664],[999,4747],[999,4832],[999,4914],[999,4999],[999,5084],[999,5174],[999,5258],[999,5341],[999,5425],[999,5499],[999,5584],[999,5675],[999,5748],[999,5841],[999,5920],[999,5998],[999,6086],[999,6175],[999,6258],[999,6332],[999,6424],[999,6499],[999,6582],[999,6665],[999,6750],[999,6832],[999,6915],[999,6998],[999,7082],[999,7176],[999,7255],[999,7332],[999,7416],[999,7501],[999,7583],[999,7676],[999,7759],[999,7843],[999,7916],[999,8000],[999,8083],[999,8166],[999,8260],[999,8333],[999,8416]]",1041.5631,1046.7444,3.581871345,3.178,"[{""rating"":3.5818713450292416,""responseTime"":3.1779999999998836}]",space,4.6375,,1046.7445,Partially,50,1046.7481,,,[],,0,14,14,14,1,audio/Narrative8Situation5.wav,audio/Narrative7Situation5.wav,audio/Narrative6Situation5.wav,audio/Narrative5Situation5.wav,2,5,2,5,,,,,,,,,,,,,,,,,,,,,,,,,,,,,,,,,,,,,,,
,,,,,67f1626e4525cfea0f0a9753,2025-07-07_22h32.34.674,group3.4_multiperson,2023.2.2,Win32,59.52380952,686c2ebf0248f13bef9af11f,686c9048ac36fa3d7e7cd3b9,,,,,,,,,,,,,,,,,,,,,,,,,,,,,1046.7489,1,audio/Narrative7Situation6.wav,1049.7573,,1049.7574,1059.742,"[[999,1],[999,94],[999,177],[999,260],[999,344],[999,427],[999,510],[999,594],[999,677],[999,760],[999,844],[999,927],[999,1011],[999,1094],[999,1178],[999,1261],[999,1345],[999,1428],[999,1511],[999,1595],[999,1678],[999,1761],[999,1845],[999,1928],[999,2012],[999,2095],[999,2179],[999,2262],[999,2345],[999,2429],[999,2512],[999,2595],[999,2679],[999,2762],[999,2846],[999,2929],[999,3012],[999,3096],[999,3179],[999,3263],[999,3346],[999,3429],[999,3513],[999,3596],[999,3680],[999,3764],[46.8,3847],[52,3931],[71.5,4597],[74.9,4682],[80,4764],[81.7,4847],[83,4932],[84.7,5014],[84.9,5097],[85.1,5181],[85.3,5264],[85.3,5347],[85.5,5430],[85.8,5514],[86.6,5598],[87.4,5681],[87.5,5765],[87.9,5847],[88.2,5932],[88.6,6014],[89,6097],[90.1,6181],[91.1,6265],[92.3,6348],[92.3,6431],[92.3,6515],[92.7,6598],[93.1,6681],[93.6,6765],[93.8,6848],[94,6932],[94,7016],[94,7099],[94,7182],[94,7265],[94,7349],[94,7432],[94,7516],[94,7599],[94,7682],[94,7766],[94,7849],[94,7932],[94,8016],[94,8099],[94,8183],[94,8266],[94,8349],[94,8433],[94,8516],[94,8600],[94,8683],[94,8766],[94,8850],[94,8933],[94,9017],[94,9100],[94,9183],[94,9267],[94,9350],[94,9433],[94,9517],[94,9600],[94,9684],[94,9767],[94,9850],[94,9934]]",1059.7423,1062.8362,94.00584795,1.0464,"[{""rating"":94.00584795321637,""responseTime"":1.0464000000060878}]",space,2.5557,,1062.8363,Partially,50,1062.8408,,,[],,0,15,15,15,1,audio/Narrative8Situation6.wav,audio/Narrative7Situation6.wav,audio/Narrative6Situation6.wav,audio/Narrative5Situation6.wav,2,3,2,3,,,,,,,,,,,,,,,,,,,,,,,,,,,,,,,,,,,,,,,
,,,,,67f1626e4525cfea0f0a9753,2025-07-07_22h32.34.674,group3.4_multiperson,2023.2.2,Win32,59.52380952,686c2ebf0248f13bef9af11f,686c9048ac36fa3d7e7cd3b9,,,,,,,,,,,,,,,,,,,,,,,,,,,,,1062.8415,1,audio/Narrative7Situation7.wav,1067.8474,,1067.8475,1085.0176,"[[999,0],[999,94],[999,175],[999,259],[999,337],[999,420],[999,503],[999,595],[999,670],[999,761],[999,834],[999,927],[999,1010],[999,1085],[999,1176],[999,1250],[999,1343],[999,1418],[999,1510],[999,1585],[999,1678],[999,1752],[999,1843],[999,1918],[999,2003],[999,2094],[999,2177],[999,2262],[999,2336],[999,2428],[999,2503],[999,2594],[999,2668],[999,2754],[999,2836],[999,2929],[999,3003],[999,3085],[999,3178],[999,3253],[999,3344],[999,3426],[999,3509],[999,3592],[999,3677],[999,3754],[999,3840],[999,3926],[999,4002],[999,4089],[999,4175],[999,4261],[999,4343],[999,4427],[999,4509],[999,4586],[999,4677],[999,4753],[999,4843],[999,4920],[999,5008],[999,5086],[999,5174],[999,5260],[999,5344],[999,5427],[999,5503],[999,5594],[999,5675],[999,5761],[999,5837],[999,5928],[999,6011],[999,6094],[999,6177],[999,6260],[999,6341],[999,6425],[999,6504],[999,6591],[999,6679],[999,6754],[999,6837],[999,6921],[999,7012],[999,7088],[999,7178],[999,7261],[999,7346],[999,7421],[999,7504],[999,7595],[999,7678],[999,7762],[999,7839],[999,7930],[999,8005],[999,8088],[999,8172],[999,8255],[999,8339],[999,8431],[999,8506],[999,8594],[999,8681],[999,8755],[999,8846],[999,8932],[999,9013],[999,9098],[999,9183],[999,9263],[999,9347],[999,9431],[999,9514],[999,9597],[999,9683],[72.1,9764],[73.2,9851],[74.4,9931],[75.2,10014],[76.5,10113],[77.3,10182],[78.1,10269],[78.4,10348],[78.7,10432],[79.2,10515],[80.6,10600],[81.8,10682],[83.2,10764],[83.8,10841],[84,10931],[84.5,11015],[84.7,11098],[84.9,11182],[85.1,11257],[85.3,11348],[85.5,11424],[85.8,11515],[85.8,11594],[85.8,11681],[85.8,11757],[86.3,11848],[86.3,11924],[86.4,12015],[86.7,12091],[86.7,12181],[86.7,12258],[86.7,12348],[86.7,12424],[86.7,12508],[86.7,12598],[86.7,12681],[86.7,12758],[86.7,12849],[86.7,12924],[86.7,13015],[86.7,13098],[86.7,13182],[86.7,13265],[86.7,13349],[86.9,13433],[86.9,13516],[87.1,13601],[87.3,13682],[87.4,13764],[87.4,13842],[87.6,13934],[87.6,14016],[87.6,14096],[87.6,14183],[87.6,14266],[87.6,14349],[87.6,14433],[87.6,14516],[87.6,14600],[87.6,14683],[87.6,14767],[87.6,14851],[87.6,14933],[87.9,15017],[88,15102],[88.2,15184],[88.4,15267],[88.7,15352],[89.2,15435],[89.3,15518],[89.6,15602],[89.8,15684],[89.8,15768],[90.1,15846],[90.1,15928],[90.2,16011],[90.4,16094],[90.4,16184],[90.4,16268],[90.4,16350],[90.4,16434],[90.4,16517],[90.4,16594],[90.4,16682],[90.4,16768],[90.4,16852],[90.4,16934],[90.6,17018],[90.8,17102]]",1085.0178,1090.5239,96.34502924,3.4534,"[{""rating"":92.32456140350878,""responseTime"":1.38430000001199},{""rating"":96.34502923976609,""responseTime"":3.453400000006013}]",space,4.9582,,1090.5241,Definitely yes,100,1090.5331,,,[],,0,16,16,16,1,audio/Narrative8Situation7.wav,audio/Narrative7Situation7.wav,audio/Narrative6Situation7.wav,audio/Narrative5Situation7.wav,3,5,5,4,,,,,,,,,,,,,,,,,,,,,,,,,,,,,,,,,,,,,,,
,,,,,67f1626e4525cfea0f0a9753,2025-07-07_22h32.34.674,group3.4_multiperson,2023.2.2,Win32,59.52380952,686c2ebf0248f13bef9af11f,686c9048ac36fa3d7e7cd3b9,,,,,,,,,,,,,,,,,,,,,,,,,,,,,1090.5338,1,audio/Narrative7Situation8.wav,1092.548,,1092.5482,1102.5652,"[[999,2],[999,82],[999,170],[999,250],[999,332],[999,424],[999,507],[999,582],[999,674],[999,750],[999,832],[999,923],[999,1000],[999,1083],[999,1167],[999,1250],[999,1333],[999,1423],[999,1507],[999,1583],[999,1667],[999,1750],[999,1839],[999,1917],[999,2000],[999,2090],[999,2173],[999,2250],[999,2334],[999,2417],[999,2501],[999,2588],[999,2671],[999,2751],[999,2841],[999,2918],[999,3001],[999,3084],[999,3175],[999,3258],[999,3335],[999,3422],[999,3501],[999,3592],[999,3668],[999,3752],[999,3842],[999,3919],[999,4002],[999,4085],[999,4169],[999,4253],[999,4343],[999,4419],[999,4502],[999,4594],[999,4669],[999,4760],[999,4844],[999,4919],[999,5002],[999,5095],[999,5178],[999,5252],[999,5345],[999,5419],[999,5503],[999,5586],[999,5669],[999,5754],[999,5846],[999,5919],[999,6003],[999,6086],[999,6170],[999,6253],[999,6348],[999,6420],[999,6503],[999,6587],[999,6680],[999,6755],[999,6842],[999,6920],[999,7004],[999,7099],[999,7182],[999,7264],[999,7350],[999,7431],[999,7504],[999,7587],[999,7681],[999,7765],[999,7848],[99.9,7933],[98.3,8016],[97.9,8099],[97,8182],[96.8,8265],[96.7,8344],[96.3,8424],[96.3,8515],[96.2,8594],[96,8673],[96,8755],[96,8848],[96,8922],[96,9005],[96,9090],[96,9182],[96,9255],[96,9349],[96,9422],[96,9516],[96,9589],[96,9672],[96,9756],[96,9840],[96,9925],[96,10016]]",1102.5655,1105.8565,96.27192982,1.6401,"[{""rating"":96.27192982456141,""responseTime"":1.6400999999939359}]",space,2.7519,,1105.8566,Definitely yes,100,1105.8609,,,[],,0,17,17,17,1,audio/Narrative8Situation8.wav,audio/Narrative7Situation8.wav,audio/Narrative6Situation8.wav,audio/Narrative5Situation8.wav,3,2,5,3,,,,,,,,,,,,,,,,,,,,,,,,,,,,,,,,,,,,,,,
,,,,,67f1626e4525cfea0f0a9753,2025-07-07_22h32.34.674,group3.4_multiperson,2023.2.2,Win32,59.52380952,686c2ebf0248f13bef9af11f,686c9048ac36fa3d7e7cd3b9,,,,,,,,,,,,,,,,,,,,,,,,,,,,,1105.862,1,audio/Narrative7Situation9.wav,1107.875,,1107.8752,1116.4993,"[[94.1,6098],[93.3,6181],[92.7,6264],[91.1,6349],[94.4,6848],[95,6932],[95.5,7014],[95.7,7099],[95.7,7171],[95.9,7257],[95.9,7348],[95.9,7421],[95.9,7514],[95.9,7598],[95.9,7681],[95.9,7756],[95.9,7838],[95.9,7923],[95.9,8011],[95.9,8098],[95.9,8173],[95.9,8266],[95.9,8348],[95.9,8427],[95.9,8515],[95.9,8594]]",1116.4997,1118.924,96.27192982,1.0724,"[{""rating"":96.27192982456141,""responseTime"":1.072400000006155}]",space,1.8697,,1118.9241,Definitely yes,100,1134.2097,95.54093567,11.5564,"[{""rating"":94.51754385964912,""responseTime"":8.594299999982013},{""rating"":95.54093567251462,""responseTime"":11.556400000005851}]",space,0,18,18,18,1,audio/Narrative8Situation9.wav,audio/Narrative7Situation9.wav,audio/Narrative6Situation9.wav,audio/Narrative5Situation9.wav,3,2,4,3,,,14.7487,,,,,,,,,,,,,,,,,,,,,,,,,,,,,,,,,,,,
,,,,,67f1626e4525cfea0f0a9753,2025-07-07_22h32.34.674,group3.4_multiperson,2023.2.2,Win32,59.52380952,686c2ebf0248f13bef9af11f,686c9048ac36fa3d7e7cd3b9,,,,,,,,,,,,,,,,,,,,,,,,,,,1142.3844,1144.9526,1144.9875,2,audio/Narrative13Situation2.wav,1144.9876,,1144.9876,1174.7389,"[[999,0],[999,80],[999,172],[999,251],[999,329],[999,412],[999,496],[999,579],[999,673],[999,748],[999,840],[999,913],[999,996],[999,1080],[999,1165],[999,1257],[999,1341],[999,1413],[999,1496],[999,1581],[999,1669],[999,1747],[999,1830],[999,1915],[999,2008],[999,2080],[999,2166],[999,2257],[999,2331],[999,2414],[999,2508],[999,2591],[999,2665],[999,2758],[999,2842],[999,2924],[999,3005],[999,3088],[999,3172],[999,3256],[999,3331],[999,3422],[999,3498],[999,3588],[999,3665],[999,3755],[999,3832],[999,3922],[999,3999],[999,4082],[999,4172],[999,4256],[999,4332],[999,4422],[999,4499],[999,4582],[999,4672],[999,4749],[999,4832],[999,4923],[999,5006],[999,5082],[999,5174],[999,5250],[999,5339],[999,5420],[999,5500],[999,5583],[999,5673],[999,5750],[999,5838],[999,5916],[999,6006],[999,6083],[999,6175],[999,6250],[999,6343],[999,6423],[999,6507],[999,6590],[999,6667],[999,6750],[999,6833],[999,6925],[999,7002],[999,7084],[999,7176],[999,7259],[999,7342],[999,7425],[999,7509],[999,7584],[999,7675],[999,7751],[999,7841],[999,7925],[999,8009],[999,8094],[999,8176],[999,8259],[90.9,8345],[87.9,8428],[87.6,8509],[87.6,8592],[87.6,8668],[87.4,8753],[87.4,8840],[87.4,8927],[87.4,9002],[87.4,9094],[87.4,9177],[87.4,9262],[87.4,9336],[87.6,9428],[87.6,9502],[87.7,9596],[87.9,9678],[87.9,9752],[87.9,9846],[87.9,9924],[88.2,10012],[88.2,10087],[88.2,10179],[88.2,10258],[88.2,10336],[88.2,10420],[88.2,10505],[88.2,10596],[88.3,10680],[88.3,10754],[88.3,10836],[88.3,10921],[88.3,11006],[88.3,11096],[88.3,11170],[88.3,11254],[88.5,11338],[88.5,11430],[88.5,11504],[89.3,11598],[89.6,11677],[89.6,11755],[89.9,11848],[89.9,11926],[90.1,12016],[90.1,12098],[90.1,12180],[90.1,12264],[90.1,12347],[90.1,12431],[90.1,12507],[90.1,12599],[90.1,12672],[90.1,12766],[90.1,12847],[90.1,12931],[90.1,13015],[90.1,13098],[90.1,13182],[90.1,13257],[90.1,13349],[90.1,13424],[90.1,13508],[90.1,13598],[90.1,13677],[90.1,13757],[90.1,13838],[90.1,13932],[90.5,14016],[91.4,14101],[93.3,14184],[95.8,14269],[97.7,14349],[98.1,14433],[98.1,14507],[98.1,14589],[98.1,14682],[98.1,14766],[98.1,14849],[98.1,14932],[98.1,15011],[98.1,15100],[98.1,15182],[98,15267],[96.9,15350],[94.5,15433],[94.5,15516],[94.4,15600],[94.4,15674],[94.4,15766],[94.4,15840],[94.4,15923],[94.4,16016],[94.4,16100],[94.4,16176],[94.4,16268],[94.4,16342],[94.4,16424],[94.4,16517],[94.4,16590],[94.4,16684],[94.5,16758],[94.7,16850],[95.2,16934],[95.6,17018],[95.6,17092],[95.6,17177],[95.6,17269],[95.6,17340],[95.6,17435],[95.6,17518],[95.6,17592],[95.6,17684],[95.6,17768],[95.6,17852],[95.6,17926],[95.6,18019],[95.6,18093],[95.6,18184],[95.6,18263],[95.6,18345],[95.6,18425],[95.6,18508],[95.6,18592],[95.6,18675],[95.6,18768],[95.6,18852],[95.6,18927],[95.6,19009],[95.6,19102],[95.6,19185],[95.6,19259],[95.6,19342],[95.6,19426],[95.6,19509],[95.6,19602],[95.6,19686],[95.6,19769],[95.6,19847],[95.6,19936],[95.6,20019],[95.6,20102],[95.6,20186],[95.6,20269],[95.6,20353],[95.6,20428],[95.6,20519],[95.6,20595],[95.6,20676],[95.6,20760],[95.6,20854],[95.6,20937],[95.6,21012],[95.6,21103],[95.6,21187],[95.6,21260],[95.6,21345],[95.6,21437],[95.6,21510],[95.6,21595],[95.6,21688],[95.6,21761],[95.6,21846],[95.6,21937],[95.6,22021],[95.6,22095],[95.6,22187],[95.6,22263],[95.6,22346],[95.6,22439],[95.6,22513],[95.6,22594],[95.6,22678],[95.6,22772],[95.6,22845],[95.6,22928],[95.6,23011],[95.6,23098],[95.6,23178],[95.6,23263],[95.6,23347],[95.6,23428],[95.6,23512],[95.6,23603],[95.6,23686],[95.6,23762],[95.6,23852],[95.6,23936],[95.6,24012],[95.6,24096],[95.6,24186],[95.6,24262],[95.6,24352],[95.6,24429],[95.6,24519],[95.6,24603],[95.6,24687],[95.6,24762],[95.6,24853],[95.6,24930],[95.6,25013],[95.6,25100],[95.6,25188],[95.6,25263],[95.6,25353],[95.6,25430],[95.6,25513],[95.6,25596],[95.6,25680],[95.6,25763],[95.6,25847],[95.6,25930],[95.6,26020],[95.6,26097],[95.6,26188],[95.6,26271],[95.6,26352],[95.6,26437],[95.6,26514],[95.6,26597],[95.6,26688],[95.6,26771],[95.6,26855],[95.6,26931],[95.6,27014],[95.6,27104],[95.6,27185],[95.6,27264],[95.6,27355],[95.6,27431],[95.6,27522],[95.6,27605],[95.6,27681],[95.6,27772],[95.6,27848],[95.6,27931],[95.6,28014],[95.6,28105],[95.6,28182],[95.6,28265],[95.6,28356],[95.6,28432],[95.6,28522],[95.6,28599],[95.6,28682],[95.6,28765],[95.6,28849],[95.6,28932],[95.6,29016],[95.6,29103],[95.6,29182],[95.6,29266],[95.6,29358],[95.6,29440],[95.6,29516],[95.6,29599],[95.6,29683]]",1174.74,1174.7457,,,[],,,,1174.7457,Not at all,0,1174.7527,,,[],,0,0,0,0,1,audio/Narrative13Situation2.wav,audio/Narrative13Situation2.wav,audio/Narrative13Situation2.wav,audio/Narrative13Situation2.wav,2,2,2,2,,,,,1134.2109,1142.3833,space,7.6263,,,,,,,,,,,,,,,,,,,,,,,,,,,,,,,
,,,,,67f1626e4525cfea0f0a9753,2025-07-07_22h32.34.674,group3.4_multiperson,2023.2.2,Win32,59.52380952,686c2ebf0248f13bef9af11f,686c9048ac36fa3d7e7cd3b9,,,,,,,,,,,,,,,,,,,,,,,,,,,,,1174.7533,2,audio/Narrative6Situation1.wav,1176.7557,,1176.7559,1203.3405,"[[50.7,166],[50.5,249],[50.5,333],[49.8,417],[48.8,500],[48.8,583],[48.8,666],[48.7,750],[49.4,834],[50,916],[50.9,999],[50.9,1083],[50.9,1166],[50.9,1250],[50.9,1333],[50.9,1416],[50.9,1500],[50.9,1583],[50.9,1666],[51.7,1750],[53.1,1834],[55.6,1917],[57.5,2001],[53.1,2502],[52.5,2584],[52.5,2667],[52.3,2751],[51.7,2835],[51.2,2918],[50.7,3002],[50.7,3084],[50.7,3168],[50.7,3251],[50.7,3335],[50.7,3418],[50.7,3502],[50.7,3585],[50.7,3668],[50.4,3752],[50.4,3835],[50.4,3918],[50.4,4002],[50.4,4085],[50.4,4169],[50.4,4252],[50.4,4336],[50.4,4419],[50.4,4502],[50.4,4586],[50.4,4669],[50.4,4753],[50.4,4836],[50.4,4919],[50.4,5002],[50.4,5086],[50.4,5169],[50.4,5253],[50.4,5336],[50.4,5419],[50.4,5503],[50.4,5586],[50.4,5670],[50.4,5753],[50.4,5836],[50.4,5920],[50.4,6003],[50.4,6087],[50.4,6170],[50.4,6253],[50.4,6337],[50.4,6420],[50.4,6503],[50.4,6587],[50.4,6670],[50.4,6753],[51.3,6837],[53.4,6922],[55.4,7004],[56.6,7088],[57.2,7171],[57.2,7254],[57.9,7337],[57.9,7421],[58.3,7505],[58.5,7588],[58.5,7671],[58.5,7755],[58.5,7838],[58.5,7922],[58.5,8005],[58.5,8088],[58.5,8171],[58.5,8255],[58.5,8338],[58.5,8422],[58.5,8505],[58.5,8589],[58.5,8672],[58.5,8755],[58.5,8839],[58.5,8922],[58.5,9005],[58.5,9089],[58.5,9172],[58.5,9256],[58.5,9339],[58.5,9423],[58.5,9506],[58.6,9589],[58.8,9673],[58.8,9756],[58.8,9840],[58.8,9925],[58.8,10006],[58.8,10089],[58.8,10173],[58.8,10256],[58.8,10340],[58.8,10423],[67.3,10507],[69.8,10590],[69.8,10673],[71.1,10757],[73.6,10840],[75.8,10924],[78.1,11007],[80.5,11091],[82.3,11174],[82.9,11257],[83.6,11341],[85.1,11424],[85.7,11507],[88,11591],[88.2,11674],[88.2,11757],[88.2,11841],[88.2,11924],[88.2,12007],[88.2,12090],[88.2,12174],[88.2,12258],[88.2,12341],[88.2,12424],[88.2,12508],[88.2,12591],[88.2,12674],[88.2,12758],[88.2,12841],[88.2,12925],[88.2,13008],[88.2,13091],[88.2,13175],[88.2,13258],[88.2,13342],[88.2,13425],[88.2,13508],[88.2,13592],[88.2,13675],[88.2,13758],[88.2,13842],[88.2,13925],[88.2,14009],[88.2,14093],[88.2,14175],[87.6,14260],[82.4,14343],[68.1,14426],[59.9,14510],[51.5,14594],[39.9,14676],[25,14760],[21,14843],[20.8,14926],[20.4,15010],[19.7,15093],[19.7,15176],[18.8,15259],[17.6,15343],[16.4,15427],[15.5,15510],[14.7,15594],[14.2,15677],[14.2,15760],[14.2,15843],[14.2,15927],[14.2,16010],[14.2,16094],[14,16177],[14,16261],[14,16344],[14,16427],[14,16510],[14,16594],[14,16677],[14,16760],[14,16844],[14,16927],[14,17011],[14,17094],[14,17177],[14,17262],[14,17344],[14,17427],[14,17511],[14,17595],[14,17678],[14,17761],[14,17845],[14,17928],[14,18012],[14,18095],[14,18179],[14,18262],[14,18346],[14,18429],[14,18512],[14,18595],[14,18679],[14,18762],[13.4,18846],[11.5,18929],[10.3,19013],[9.5,19096],[8.3,19179],[8.3,19262],[8.3,19346],[8.3,19429],[8.3,19512],[8.3,19596],[8.3,19679],[8.3,19763],[8.3,19846],[8.3,19930],[8.3,20013],[8.3,20096],[8.3,20180],[8.3,20263],[8.3,20347],[8.3,20430],[8.3,20513],[8.3,20597],[8.3,20680],[8.1,20764],[8.1,20847],[8.1,20930],[8.1,21014],[8.1,21097],[8.1,21181],[8.1,21264],[8.1,21347],[8.1,21431],[8.1,21514],[8.1,21597],[8.1,21681],[8.1,21764],[8.1,21848],[8.1,21931],[8.1,22014],[8.1,22098],[8.1,22181],[8.1,22264],[8.1,22348],[8.1,22431],[8.1,22514],[8.1,22598],[8.1,22681],[8.1,22764],[8.1,22848],[8.1,22932],[8.1,23015],[8.1,23099],[8.1,23182],[8.1,23266],[8.1,23348],[8.1,23432],[8.1,23515],[8.1,23599],[8.1,23682],[8.1,23766],[8.1,23849],[8.1,23932],[8.1,24016],[8.1,24099],[8.1,24182],[8.3,24266],[24.6,24350],[47.1,24433],[71.9,24517],[76,24600],[81.7,24684],[96.5,24767],[96.6,24849],[96.6,24933],[96.6,25016],[96.5,25100],[96.3,25183],[95,25267],[94.2,25350],[94.2,25434],[94.2,25517],[94.2,25600],[94.2,25683],[94.2,25767],[94.2,25850],[94.2,25933],[93.9,26018],[91.5,26101],[91,26185],[89.1,26269],[87.4,26351],[86.8,26434],[86.8,26517]]",1203.341,1226.3484,48.75730994,22.5688,"[{""rating"":45.97953216374269,""responseTime"":7.76190000000588},{""rating"":41.44736842105263,""responseTime"":8.762799999982008},{""rating"":47.66081871345029,""responseTime"":17.25149999999985},{""rating"":48.75730994152047,""responseTime"":22.568799999982048}]",space,22.464,,1226.3486,Partially,50,1238.7486,49.92690058,9.9296,"[{""rating"":49.92690058479532,""responseTime"":9.929599999994025}]",space,0,1,1,1,1,audio/Narrative7Situation1.wav,audio/Narrative8Situation1.wav,audio/Narrative5Situation1.wav,audio/Narrative6Situation1.wav,2,5,5,2,,,11.8614,,,,,,,,,,,,,,,,,,,,,,,,,,,,,,,,,,,,
,,,,,67f1626e4525cfea0f0a9753,2025-07-07_22h32.34.674,group3.4_multiperson,2023.2.2,Win32,59.52380952,686c2ebf0248f13bef9af11f,686c9048ac36fa3d7e7cd3b9,,,,,,,,,,,,,,,,,,,,,,,,,,,,,1238.7496,2,audio/Narrative6Situation2.wav,1241.7527,,1241.7529,1270.2641,"[[50,423],[50,498],[50,590],[50,664],[50,757],[50,833],[50.1,925],[50.1,1007],[50.1,1091],[50.1,1171],[50.1,1258],[50.1,1341],[50.1,1415],[50.1,1498],[50.1,1581],[50.8,1676],[51.2,1758],[51.2,1841],[51.2,1915],[51.8,2010],[52.1,2092],[52.1,2176],[52.1,2259],[52.3,2342],[52.3,2415],[52.7,2509],[52.7,2587],[52.7,2676],[52.7,2749],[52.7,2843],[52.7,2926],[52.7,3001],[52,3096],[51.5,3176],[51.2,3259],[51.1,3344],[51.1,3427],[51.1,3501],[51.1,3594],[51.1,3668],[51.1,3751],[50.9,3843],[50.9,3918],[50.9,4000],[50.9,4083],[50.9,4177],[50.9,4251],[50.9,4333],[50.9,4418],[50.9,4503],[50.9,4593],[50.9,4666],[50.9,4760],[50.9,4833],[50.9,4917],[50.9,5011],[50.9,5093],[50.9,5178],[50.9,5260],[50.9,5336],[50.9,5417],[50.9,5500],[50.9,5584],[50.9,5667],[50.9,5751],[50.9,5844],[50.9,5917],[50.9,6001],[50.9,6084],[50.9,6175],[50.9,6251],[50.9,6335],[50.9,6421],[50.9,6511],[50.9,6586],[50.9,6678],[50.9,6762],[50.9,6835],[50.9,6918],[50.9,7002],[50.9,7087],[50.9,7169],[50.9,7252],[50.9,7335],[50.9,7429],[50.9,7512],[50.9,7597],[50.9,7675],[50.9,7763],[50.9,7837],[50.9,7930],[50.9,8012],[50.9,8096],[50.9,8170],[50.9,8254],[50.9,8336],[50.9,8419],[50.9,8512],[50.9,8587],[50.9,8677],[50.9,8763],[50.9,8836],[50.9,8922],[50.9,9013],[50.9,9096],[50.9,9180],[50.9,9263],[50.9,9347],[50.7,9431],[50.7,9513],[50.7,9597],[50.7,9680],[50.7,9753],[50.7,9837],[50.7,9920],[50.7,10014],[50.7,10089],[50.7,10171],[50.7,10254],[50.3,10347],[50.3,10422],[50.3,10514],[50.3,10598],[50.3,10681],[50.3,10754],[50.3,10837],[50.3,10921],[50.3,11005],[50.3,11091],[50.3,11171],[50.3,11255],[50.3,11338],[50.3,11421],[50.3,11515],[50.3,11588],[50.3,11672],[50.3,11755],[50.3,11838],[50.3,11928],[50.3,12005],[50.3,12088],[50.3,12172],[50.3,12257],[50.3,12339],[50.3,12432],[50.3,12507],[50.3,12599],[50.3,12672],[50.3,12758],[50.3,12849],[50.3,12932],[50.3,13017],[50.3,13099],[50.3,13183],[50.3,13267],[50.3,13340],[50.3,13433],[50.3,13508],[50.3,13592],[50.3,13683],[50.3,13757],[50.3,13850],[50.3,13923],[50.3,14016],[50.3,14100],[50.3,14183],[50.3,14258],[50.3,14340],[49.9,14434],[49.9,14517],[49.8,14603],[49.6,14684],[49.2,14767],[49.2,14841],[49.2,14925],[49.2,15017],[49.2,15092],[49.2,15174],[49.2,15259],[49.2,15341],[49,15430],[48.8,15519],[48.7,15601],[48.5,15685],[48.2,15768],[48.1,15851],[47.4,15937],[46.9,16018],[46.9,16103],[46.9,16175],[46.9,16263],[46.9,16343],[46.9,16425],[46.9,16513],[46.9,16592],[46.9,16675],[46.9,16761],[46.9,16847],[46.9,16927],[46.9,17008],[46.9,17102],[46.6,17180],[46.4,17269],[46.4,17342],[46.4,17428],[46.4,17509],[46.4,17602],[46.4,17675],[46.4,17769],[46.4,17842],[46.4,17928],[46.4,18011],[46.4,18102],[46.4,18186],[46.4,18270],[46.4,18353],[46.4,18432],[46.4,18511],[46.4,18593],[46.4,18678],[46.1,18771],[45.9,18849],[45.9,18929],[45.9,19011],[45.9,19104],[45.9,19178],[45.9,19270],[45.9,19353],[45.9,19427],[45.9,19510],[45.9,19604],[45.9,19677],[45.9,19762],[45.9,19855],[45.9,19929],[45.9,20011],[45.9,20094],[45.9,20178],[45.9,20268],[45.9,20348],[45.9,20434],[45.9,20518],[45.9,20602],[45.9,20678],[45.9,20761],[45.7,20853],[45.7,20932],[45.5,21020],[91.1,28446]]",1270.2645,1275.6072,97.80701754,3.2033,"[{""rating"":97.80701754385966,""responseTime"":3.203299999982164}]",space,4.8078,,1275.6074,Not at all,0,1275.6158,,,[],,0,2,2,2,1,audio/Narrative7Situation2.wav,audio/Narrative8Situation2.wav,audio/Narrative5Situation2.wav,audio/Narrative6Situation2.wav,3,3,3,3,,,,,,,,,,,,,,,,,,,,,,,,,,,,,,,,,,,,,,,
,,,,,67f1626e4525cfea0f0a9753,2025-07-07_22h32.34.674,group3.4_multiperson,2023.2.2,Win32,59.52380952,686c2ebf0248f13bef9af11f,686c9048ac36fa3d7e7cd3b9,,,,,,,,,,,,,,,,,,,,,,,,,,,,,1275.6165,2,audio/Narrative6Situation3.wav,1280.6274,,1280.6274,1293.2306,"[[51.4,8851],[52.6,8933],[53.9,9017],[55.7,9102],[55.9,9175],[55.9,9267],[55.9,9339],[55.9,9432],[55.9,9505],[55.9,9600],[55.9,9674],[56.4,9770],[58.3,9851],[59.7,9935],[60.1,10016],[61,10101],[61.4,10183],[62,10268],[62.6,10340],[63.9,10435],[65.2,10518],[66.4,10601],[68.5,10686],[69.5,10767],[71.2,10851],[73.4,10934],[74,11007],[75.1,11100],[75.7,11179],[76.2,11267],[76.6,11341],[77,11426],[77.3,11517],[77.3,11601],[77.3,11674],[77.3,11768],[77.3,11841],[77.3,11924],[77.6,12018],[79.5,12102],[81.4,12186],[83,12268],[85.7,12352],[87,12437],[88.9,12519],[90.1,12602]]",1293.2309,1296.8554,98.39181287,1.3315,"[{""rating"":98.39181286549707,""responseTime"":1.3315000000000055}]",space,3.0829,,1296.8556,Partially,50,1296.8637,,,[],,0,3,3,3,1,audio/Narrative7Situation3.wav,audio/Narrative8Situation3.wav,audio/Narrative5Situation3.wav,audio/Narrative6Situation3.wav,8,4,3,5,,,,,,,,,,,,,,,,,,,,,,,,,,,,,,,,,,,,,,,
,,,,,67f1626e4525cfea0f0a9753,2025-07-07_22h32.34.674,group3.4_multiperson,2023.2.2,Win32,59.52380952,686c2ebf0248f13bef9af11f,686c9048ac36fa3d7e7cd3b9,,,,,,,,,,,,,,,,,,,,,,,,,,,,,1296.8643,2,audio/Narrative6Situation4.wav,1298.8731,,1298.8731,1311.4995,"[[999,0],[999,83],[999,168],[999,250],[999,333],[999,426],[999,500],[999,593],[999,669],[999,760],[999,843],[999,927],[999,1003],[999,1095],[999,1167],[999,1250],[999,1337],[999,1424],[999,1500],[999,1583],[999,1667],[999,1750],[999,1834],[999,1921],[999,2013],[999,2084],[999,2167],[999,2263],[999,2369],[999,2452],[999,2534],[999,2618],[999,2701],[999,2784],[999,2868],[999,2951],[999,3035],[999,3118],[999,3201],[999,3285],[999,3368],[999,3451],[999,3537],[999,3630],[999,3711],[999,3785],[999,3878],[999,3960],[999,4044],[999,4119],[999,4203],[999,4286],[999,4370],[999,4452],[999,4537],[999,4620],[999,4703],[999,4787],[999,4870],[999,4960],[999,5040],[999,5127],[999,5207],[999,5286],[999,5370],[999,5453],[999,5536],[999,5625],[999,5711],[999,5787],[999,5870],[999,5962],[999,6037],[999,6127],[999,6208],[999,6287],[999,6375],[999,6454],[999,6538],[999,6628],[999,6705],[999,6787],[999,6870],[999,6954],[999,7038],[999,7129],[999,7204],[999,7288],[999,7378],[999,7455],[999,7545],[999,7622],[999,7706],[999,7788],[999,7879],[999,7962],[999,8039],[999,8127],[999,8209],[999,8288],[999,8379],[999,8463],[999,8539],[999,8629],[999,8706],[999,8796],[999,8872],[999,8964],[999,9047],[999,9123],[999,9206],[999,9290],[999,9373],[999,9464],[999,9547],[999,9623],[999,9707],[999,9795],[999,9873],[999,9957],[999,10047],[999,10131],[999,10214],[999,10290],[999,10374],[999,10458],[999,10547],[999,10628],[999,10714],[999,10790],[999,10874],[999,10957],[999,11047],[999,11124],[999,11216],[999,11298],[68.8,11382],[74,11467],[76.2,11548],[78.6,11632],[81.1,11717],[90.6,12216],[91.1,12292],[91.8,12382],[91.8,12465],[91.8,12545],[91.8,12625]]",1311.5001,1314.9955,93.49415205,1.0569,"[{""rating"":93.49415204678363,""responseTime"":1.0568999999761672}]",space,2.934,,1314.9956,Not at all,0,1315.0023,,,[],,0,4,4,4,1,audio/Narrative7Situation4.wav,audio/Narrative8Situation4.wav,audio/Narrative5Situation4.wav,audio/Narrative6Situation4.wav,3,3,1,2,,,,,,,,,,,,,,,,,,,,,,,,,,,,,,,,,,,,,,,
,,,,,67f1626e4525cfea0f0a9753,2025-07-07_22h32.34.674,group3.4_multiperson,2023.2.2,Win32,59.52380952,686c2ebf0248f13bef9af11f,686c9048ac36fa3d7e7cd3b9,,,,,,,,,,,,,,,,,,,,,,,,,,,,,1315.0031,2,audio/Narrative6Situation5.wav,1317.029,,1317.0291,1324.9913,"[[999,1],[999,90],[999,173],[999,256],[999,340],[999,423],[999,506],[999,590],[999,673],[999,756],[999,841],[999,923],[999,1007],[999,1090],[999,1175],[999,1257],[999,1341],[999,1424],[999,1507],[999,1590],[999,1674],[999,1757],[999,1840],[999,1924],[999,2007],[999,2091],[999,2174],[999,2257],[999,2341],[999,2424],[999,2508],[999,2592],[999,2674],[999,2758],[999,2841],[999,2925],[999,3008],[999,3091],[999,3175],[999,3259],[999,3342],[999,3425],[999,3509],[999,3593],[999,3677],[999,3758],[999,3842],[999,3925],[999,4008],[999,4092],[999,4176],[999,4259],[999,4343],[96.9,4426],[97.8,4927],[96.7,5010],[95.7,5093],[95.3,5177],[95,5260],[95,5343],[95,5426],[95,5510],[95,5593],[95,5677],[95,5760],[95,5843],[95,5927],[95,6010],[95,6093],[95,6177],[95,6260],[95,6343],[95,6427],[95,6510],[95,6594],[95,6677],[95,6761],[95,6844],[95,6927],[95,7011],[95,7094],[95,7178],[95,7261],[95,7344],[95,7428],[95,7511],[95,7594],[95,7678],[95,7761],[95,7845],[95,7928]]",1324.9916,1329.1043,95.02923977,0.8432,"[{""rating"":95.02923976608186,""responseTime"":0.8432000000177595}]",space,3.5837,,1329.1043,Not at all,0,1329.1076,,,[],,0,5,5,5,1,audio/Narrative7Situation5.wav,audio/Narrative8Situation5.wav,audio/Narrative5Situation5.wav,audio/Narrative6Situation5.wav,5,2,5,2,,,,,,,,,,,,,,,,,,,,,,,,,,,,,,,,,,,,,,,
,,,,,67f1626e4525cfea0f0a9753,2025-07-07_22h32.34.674,group3.4_multiperson,2023.2.2,Win32,59.52380952,686c2ebf0248f13bef9af11f,686c9048ac36fa3d7e7cd3b9,,,,,,,,,,,,,,,,,,,,,,,,,,,,,1329.1081,2,audio/Narrative6Situation6.wav,1331.1216,,1331.1217,1342.2033,"[[92.6,3509],[92.3,3592],[92.3,3675],[92.3,3759],[92.3,3842],[92,3926],[91.9,4009],[91.7,4094],[91.4,4176],[91.2,4259],[91.2,4343],[91.2,4427],[91.2,4509],[91.2,4593],[91.2,4676],[91.2,4759],[91.2,4843],[91.2,4926],[91.2,5010],[91.2,5093],[91.2,5176],[91.2,5260],[91.2,5343],[91.2,5427],[91.2,5510],[91.2,5593],[91.2,5677],[91.2,5760],[90.8,5844],[90.8,5927],[90.6,6011],[90.6,6094],[90.6,6177],[90.6,6260],[90.6,6344],[90.6,6427],[90.6,6510],[90.6,6593],[90.6,6677],[90.6,6760],[90.6,6844],[90.6,6927],[90.6,7011],[90.6,7094],[90.6,7177],[90.6,7261],[90.6,7344],[90.6,7428],[90.6,7511],[90.6,7595],[90.6,7678],[90.6,7762],[90.6,7845],[90.6,7928],[90.7,8012],[93.3,8679],[94.9,8763],[94.9,8846],[95.2,8929],[95.2,9012],[95.2,9096],[95.6,9179],[95.8,9262],[96,9346],[96,9429],[96.2,9513],[96.2,9596],[96.2,9679],[96.2,9763],[96.2,9846],[96.2,9930],[96.2,10013],[96.2,10097],[96.2,10180],[96.2,10263],[96.2,10346],[96.2,10430],[96.2,10513],[96.2,10596],[96.2,10680],[96.2,10763],[96.2,10847],[96.2,10930],[96.2,11014]]",1342.2036,1349.5665,97.51461988,4.767,"[{""rating"":97.51461988304094,""responseTime"":4.766999999999825}]",space,6.7885,,1349.5668,Not at all,0,1349.5705,,,[],,0,6,6,6,1,audio/Narrative7Situation6.wav,audio/Narrative8Situation6.wav,audio/Narrative5Situation6.wav,audio/Narrative6Situation6.wav,3,2,3,2,,,,,,,,,,,,,,,,,,,,,,,,,,,,,,,,,,,,,,,
,,,,,67f1626e4525cfea0f0a9753,2025-07-07_22h32.34.674,group3.4_multiperson,2023.2.2,Win32,59.52380952,686c2ebf0248f13bef9af11f,686c9048ac36fa3d7e7cd3b9,,,,,,,,,,,,,,,,,,,,,,,,,,,,,1349.571,2,audio/Narrative6Situation7.wav,1354.5783,,1354.5785,1379.4288,"[[999,2],[999,99],[999,182],[999,266],[999,349],[999,432],[999,516],[999,599],[999,683],[999,766],[999,850],[999,933],[999,1016],[999,1100],[999,1183],[999,1267],[999,1350],[999,1433],[999,1517],[999,1600],[999,1683],[999,1767],[999,1850],[999,1934],[999,2017],[999,2100],[999,2184],[999,2267],[999,2351],[999,2434],[999,2517],[999,2601],[999,2684],[999,2768],[999,2851],[999,2935],[999,3018],[999,3101],[999,3185],[999,3268],[999,3351],[999,3435],[999,3518],[999,3601],[999,3685],[999,3769],[999,3852],[999,3935],[999,4019],[999,4102],[999,4185],[999,4268],[999,4352],[999,4435],[999,4519],[999,4602],[999,4685],[999,4769],[999,4852],[999,4936],[999,5019],[999,5102],[999,5186],[999,5269],[999,5353],[999,5436],[999,5519],[999,5603],[999,5686],[999,5770],[999,5853],[999,5936],[999,6020],[999,6103],[999,6187],[999,6270],[999,6353],[999,6437],[999,6520],[999,6604],[999,6687],[999,6770],[999,6854],[999,6937],[999,7021],[999,7104],[999,7187],[999,7271],[999,7354],[999,7437],[999,7521],[999,7604],[999,7688],[999,7771],[999,7855],[999,7938],[999,8021],[999,8105],[999,8188],[999,8272],[999,8355],[999,8438],[999,8521],[999,8605],[999,8688],[999,8772],[999,8855],[999,8938],[999,9022],[999,9105],[999,9189],[999,9272],[999,9355],[999,9439],[999,9522],[999,9605],[999,9689],[999,9772],[999,9856],[999,9939],[999,10023],[999,10106],[999,10189],[999,10273],[999,10356],[999,10440],[999,10523],[999,10606],[999,10690],[999,10773],[999,10856],[999,10940],[999,11023],[999,11106],[999,11190],[999,11273],[999,11357],[999,11440],[999,11524],[999,11607],[999,11690],[999,11774],[999,11857],[999,11941],[999,12024],[999,12107],[999,12191],[999,12274],[999,12358],[999,12441],[999,12524],[999,12608],[999,12691],[999,12774],[999,12858],[999,12941],[999,13025],[999,13108],[999,13191],[999,13275],[999,13358],[999,13442],[999,13525],[999,13608],[999,13692],[999,13775],[999,13859],[999,13942],[999,14025],[999,14109],[999,14192],[999,14276],[999,14359],[999,14442],[999,14526],[999,14609],[999,14692],[999,14776],[999,14859],[999,14942],[999,15025],[999,15109],[999,15193],[999,15276],[999,15360],[999,15443],[999,15526],[999,15610],[999,15693],[999,15777],[999,15860],[999,15943],[999,16027],[999,16110],[999,16194],[999,16277],[999,16360],[999,16444],[999,16527],[999,16610],[999,16694],[999,16777],[999,16861],[999,16944],[999,17028],[999,17111],[999,17194],[999,17277],[999,17362],[999,17445],[999,17528],[999,17611],[999,17696],[999,17780],[999,17861],[999,17945],[51.8,18029],[93.2,23366],[92.1,23449],[91.9,23532],[91.9,23618],[92.7,23699],[92.7,23782],[93.3,23866],[93.3,23949],[93.4,24032],[93.6,24116],[94.2,24200],[95,24282],[95.9,24366],[95.9,24449],[96.1,24533],[96.1,24616],[96.1,24699],[96.1,24783]]",1379.4291,1389.4133,91.00877193,7.9311,"[{""rating"":96.41812865497076,""responseTime"":4.2008000000118955},{""rating"":91.00877192982456,""responseTime"":7.931100000023662}]",space,9.4405,,1389.4134,Partially,50,1389.42,,,[],,0,7,7,7,1,audio/Narrative7Situation7.wav,audio/Narrative8Situation7.wav,audio/Narrative5Situation7.wav,audio/Narrative6Situation7.wav,5,3,4,5,,,,,,,,,,,,,,,,,,,,,,,,,,,,,,,,,,,,,,,
,,,,,67f1626e4525cfea0f0a9753,2025-07-07_22h32.34.674,group3.4_multiperson,2023.2.2,Win32,59.52380952,686c2ebf0248f13bef9af11f,686c9048ac36fa3d7e7cd3b9,,,,,,,,,,,,,,,,,,,,,,,,,,,,,1389.4209,2,audio/Narrative6Situation8.wav,1394.4222,,1394.4222,1401.3032,"[[999,1],[999,93],[999,167],[999,249],[999,333],[999,418],[999,510],[999,594],[999,678],[999,751],[999,844],[999,917],[999,1011],[999,1090],[999,1178],[999,1252],[999,1334],[999,1420],[999,1503],[999,1594],[999,1670],[999,1750],[999,1838],[999,1927],[999,2012],[999,2094],[999,2168],[999,2261],[999,2334],[999,2418],[999,2501],[999,2595],[999,2668],[999,2751],[999,2835],[999,2918],[999,3001],[999,3090],[999,3168],[999,3252],[999,3335],[999,3418],[999,3512],[999,3587],[999,3678],[999,3762],[999,3845],[999,3919],[999,4002],[999,4086],[999,4179],[999,4262],[999,4337],[999,4419],[999,4502],[999,4587],[999,4669],[999,4753],[999,4836],[999,4921],[999,5003],[999,5086],[999,5170],[999,5256],[999,5336],[999,5420],[999,5503],[999,5588],[999,5671],[999,5763],[999,5838],[999,5930],[999,6003],[999,6097],[999,6170],[999,6259],[999,6338],[999,6430],[999,6504],[999,6590],[999,6681],[999,6764],[999,6847]]",1401.3034,1408.1156,0.950292398,4.7515,"[{""rating"":0.950292397660818,""responseTime"":4.751500000000078}]",space,6.2749,,1408.1158,Not at all,0,1408.1239,,,[],,0,8,8,8,1,audio/Narrative7Situation8.wav,audio/Narrative8Situation8.wav,audio/Narrative5Situation8.wav,audio/Narrative6Situation8.wav,2,3,3,5,,,,,,,,,,,,,,,,,,,,,,,,,,,,,,,,,,,,,,,
,,,,,67f1626e4525cfea0f0a9753,2025-07-07_22h32.34.674,group3.4_multiperson,2023.2.2,Win32,59.52380952,686c2ebf0248f13bef9af11f,686c9048ac36fa3d7e7cd3b9,,,,,,,,,,,,,,,,,,,,,,,,,,,,,1408.1245,2,audio/Narrative6Situation9.wav,1412.1338,,1412.1339,1422.0749,"[[29.9,9424],[20.8,9506],[20.5,9590],[19.7,9674],[12.5,9757],[0.5,9840],[0.5,9923]]",1422.0751,1426.3884,2.704678363,1.2105,"[{""rating"":2.7046783625730986,""responseTime"":1.2104999999999109}]",space,3.7614,,1426.3887,Not at all,0,1426.3946,,,[],,0,9,9,9,1,audio/Narrative7Situation9.wav,audio/Narrative8Situation9.wav,audio/Narrative5Situation9.wav,audio/Narrative6Situation9.wav,2,3,3,4,,,,,,,,,,,,,,,,,,,,,,,,,,,,,,,,,,,,,,,
,,,,,67f1626e4525cfea0f0a9753,2025-07-07_22h32.34.674,group3.4_multiperson,2023.2.2,Win32,59.52380952,686c2ebf0248f13bef9af11f,686c9048ac36fa3d7e7cd3b9,,,,,,,,,,,,,,,,,,,,,,,,,,,,,1426.3956,2,audio/Narrative5Situation1.wav,1431.3977,,1431.3978,1444.6917,"[[999,1],[999,83],[999,166],[999,249],[999,333],[999,426],[999,499],[999,583],[999,669],[999,750],[999,843],[999,927],[999,1002],[999,1083],[999,1177],[999,1261],[999,1333],[999,1417],[999,1500],[999,1584],[999,1667],[999,1750],[999,1844],[999,1917],[999,2011],[999,2086],[999,2174],[999,2253],[999,2334],[999,2428],[999,2511],[999,2587],[999,2678],[999,2753],[999,2845],[999,2928],[999,3012],[999,3087],[999,3179],[999,3252],[999,3335],[999,3418],[999,3505],[999,3587],[999,3668],[999,3752],[999,3835],[999,3929],[999,4004],[999,4085],[999,4171],[999,4252],[999,4345],[999,4419],[999,4504],[999,4586],[999,4679],[999,4763],[999,4846],[999,4919],[999,5008],[999,5086],[999,5169],[999,5253],[999,5347],[999,5429],[999,5503],[999,5586],[999,5670],[999,5763],[999,5848],[999,5920],[999,6003],[999,6087],[999,6170],[999,6255],[999,6337],[999,6420],[999,6504],[999,6598],[999,6671],[999,6754],[999,6837],[999,6931],[999,7006],[999,7099],[999,7171],[999,7255],[999,7347],[999,7421],[999,7514],[999,7594],[999,7671],[999,7756],[999,7848],[999,7921],[999,8015],[999,8088],[999,8171],[999,8256],[999,8338],[999,8423],[999,8507],[999,8588],[999,8682],[999,8757],[999,8850],[999,8923],[999,9005],[999,9088],[999,9183],[999,9266],[999,9339],[999,9422],[999,9507],[999,9589],[999,9672],[999,9756],[999,9839],[999,9925],[999,10006],[999,10089],[999,10173],[999,10256],[999,10350],[999,10424],[999,10509],[999,10591],[999,10673],[999,10756],[999,10840],[999,10925],[999,11007],[999,11090],[999,11183],[999,11267],[999,11350],[999,11424],[999,11507],[999,11592],[999,11674],[999,11763],[999,11841],[999,11926],[999,12007],[999,12091],[999,12177],[999,12268],[999,12341],[999,12424],[999,12513],[999,12591],[999,12674],[999,12768],[999,12846],[999,12927],[999,13010],[999,13092],[999,13180],[999,13269]]",1444.6921,1450.905,98.0994152,3.4103,"[{""rating"":98.09941520467837,""responseTime"":3.41030000001183}]",space,5.6717,,1450.9051,Not at all,0,1450.9095,,,[],,0,10,10,10,1,audio/Narrative8Situation1.wav,audio/Narrative7Situation1.wav,audio/Narrative6Situation1.wav,audio/Narrative5Situation1.wav,5,2,2,5,,,,,,,,,,,,,,,,,,,,,,,,,,,,,,,,,,,,,,,
,,,,,67f1626e4525cfea0f0a9753,2025-07-07_22h32.34.674,group3.4_multiperson,2023.2.2,Win32,59.52380952,686c2ebf0248f13bef9af11f,686c9048ac36fa3d7e7cd3b9,,,,,,,,,,,,,,,,,,,,,,,,,,,,,1450.9105,2,audio/Narrative5Situation2.wav,1453.9132,,1453.9133,1483.4086,"[[99,10258],[99.1,10340],[99.1,10430],[99.1,10507],[99.1,10590],[99.9,10682],[100,10757],[100,11514],[100,11599],[100,11681],[98.2,11766],[98.2,11841],[98.2,11932],[98.2,12014],[98.2,12096],[98.2,12182],[98.2,12258],[98.2,12341],[98.2,12424],[98.2,12515],[98,12599],[98,12675],[98,12758],[98,12841],[98,12932],[98,13017],[98,13099],[98,13182],[98,13259],[98,13349],[98,13425],[98,13508],[98,13600],[98,13683],[98,13759],[98,13842],[98,13935],[98,14009],[98,14092],[98,14180],[98,14259],[98,14351],[98,14426],[98,14518],[98,14592],[98,14685],[98,14769],[98,14852],[98,14926],[98,15011],[98,15103],[98,15178],[98,15260],[98,15353],[98,15426],[98,15520],[98,15598],[98,15686],[98,15761],[98,15854],[98,15929],[98,16010],[98,16103],[98,16187],[98,16263],[98,16347],[98,16427],[98,16510],[98,16593],[98,16677],[98,16760],[98,16854],[98,16937],[98,17013],[98,17094],[98,17179],[98,17272],[98,17355],[98,17430],[98,17521],[98,17605],[98,17678],[98,17761],[98,17845],[98,17930],[98,18022],[98,18097],[98,18189],[98,18271],[98,18355],[97.7,18430],[97.4,18523],[97.2,18598],[96.3,18691],[95.9,18772],[95.8,18845],[95.8,18931],[95.8,19023],[95.8,19097],[95.8,19181],[95.8,19272],[95.8,19347],[95.8,19439],[95.8,19512],[95.8,19607],[96.4,19690],[97,19774],[97,19847],[97,19930],[97,20018],[97,20107],[97,20181],[97,20274],[97,20348],[97,20432],[97,20524],[97,20597],[97,20680],[97,20773],[97,20852],[97,20930],[97,21014],[97,21097],[97,21180],[97,21264],[97,21347],[97,21430],[97,21516],[97,21599],[97,21686],[97,21764],[97,21847],[97,21931],[97,22014],[97,22101],[97,22191],[97,22264],[97,22348],[97,22442],[97,22515],[97,22600],[97,22692],[97,22765],[97,22848],[97,22932],[97,23017],[97,23109],[97,23192],[97,23265],[97,23352],[97,23439],[97,23519],[97,23599],[97,23690],[97,23765],[97,23856],[97,23940],[97,24023],[97,24103],[97,24191],[97,24266],[97,24349],[97,24440],[97,24516],[97,24599],[97,24690],[97,24766],[97,24849],[97,24940],[97,25016],[97,25099],[97,25183],[97,25273],[97,25354],[97,25433],[97,25516],[97,25600],[97,25691],[97,25766],[97,25850],[97,25933],[97,26017],[97,26109],[97,26183],[97,26267],[97,26357],[97,26433],[97,26517],[97,26601],[97,26684],[97,26774],[97,26858],[97,26938],[97,27025],[97,27108],[97,27184],[97,27268],[97,27358],[97,27435],[97,27525],[97,27601],[97,27685],[97,27768],[97,27859],[97,27942],[97,28018],[97,28109],[97,28193],[97,28276],[97,28352],[97,28436],[97,28519],[97,28610],[97,28686],[97,28769],[97,28852],[97,28943],[97,29019],[97,29103],[97,29186],[97,29269],[97,29360],[97,29436]]",1483.4091,1488.9207,97.00292398,3.0924,"[{""rating"":97.00292397660819,""responseTime"":3.0924000000059095}]",space,4.98,,1488.9208,Definitely yes,100,1488.9277,,,[],,0,11,11,11,1,audio/Narrative8Situation2.wav,audio/Narrative7Situation2.wav,audio/Narrative6Situation2.wav,audio/Narrative5Situation2.wav,3,3,3,3,,,,,,,,,,,,,,,,,,,,,,,,,,,,,,,,,,,,,,,
,,,,,67f1626e4525cfea0f0a9753,2025-07-07_22h32.34.674,group3.4_multiperson,2023.2.2,Win32,59.52380952,686c2ebf0248f13bef9af11f,686c9048ac36fa3d7e7cd3b9,,,,,,,,,,,,,,,,,,,,,,,,,,,,,1488.9281,2,audio/Narrative5Situation3.wav,1491.9395,,1491.9397,1505.8733,"[[999,1],[999,92],[999,175],[999,255],[999,343],[999,418],[999,509],[999,585],[999,666],[999,751],[999,833],[999,917],[999,1002],[999,1083],[999,1169],[999,1250],[999,1343],[999,1427],[999,1501],[999,1593],[999,1668],[999,1753],[999,1834],[999,1917],[999,2002],[999,2084],[999,2167],[999,2252],[999,2334],[999,2417],[999,2501],[999,2584],[999,2668],[999,2751],[999,2834],[999,2917],[999,3003],[999,3084],[999,3170],[999,3251],[999,3345],[999,3428],[999,3501],[999,3585],[999,3668],[999,3761],[999,3835],[999,3918],[999,4004],[999,4091],[999,4170],[999,4252],[999,4335],[999,4419],[999,4512],[999,4586],[999,4669],[999,4756],[999,4846],[999,4922],[999,5006],[999,5095],[999,5180],[999,5263],[999,5336],[999,5419],[999,5505],[999,5592],[999,5671],[999,5763],[999,5838],[999,5931],[999,6012],[999,6097],[999,6170],[999,6256],[999,6338],[999,6420],[999,6503],[999,6593],[999,6670],[999,6753],[999,6837],[999,6920],[999,7014],[999,7097],[999,7170],[999,7264],[999,7338],[999,7430],[999,7514],[999,7587],[999,7672],[999,7754],[999,7838],[999,7921],[999,8010],[999,8088],[999,8171],[999,8254],[999,8338],[999,8421],[999,8506],[999,8589],[999,8681],[999,8755],[999,8838],[999,8922],[999,9016],[999,9090],[999,9173],[999,9261],[999,9339],[999,9422],[999,9511],[999,9591],[999,9672],[999,9760],[999,9841],[999,9923],[999,10006],[999,10089],[999,10183],[999,10266],[999,10340],[999,10423],[999,10507],[999,10589],[999,10678],[999,10756],[999,10840],[999,10934],[999,11016],[999,11099],[999,11173],[999,11264],[999,11340],[999,11431],[999,11515],[999,11590],[999,11674],[999,11757],[999,11848],[999,11931],[999,12015],[999,12098],[999,12174],[999,12258],[999,12341],[999,12424],[999,12508],[999,12591],[999,12674],[999,12758],[999,12841],[999,12925],[999,13008],[999,13100],[999,13180],[999,13265],[999,13342],[999,13425],[999,13516],[999,13592],[999,13683],[999,13759],[999,13849],[999,13933]]",1505.8737,1516.0561,98.17251462,6.1242,"[{""rating"":98.17251461988303,""responseTime"":6.124200000017936}]",space,9.6528,,1516.0563,Partially,50,1516.0677,,,[],,0,12,12,12,1,audio/Narrative8Situation3.wav,audio/Narrative7Situation3.wav,audio/Narrative6Situation3.wav,audio/Narrative5Situation3.wav,4,8,5,3,,,,,,,,,,,,,,,,,,,,,,,,,,,,,,,,,,,,,,,
,,,,,67f1626e4525cfea0f0a9753,2025-07-07_22h32.34.674,group3.4_multiperson,2023.2.2,Win32,59.52380952,686c2ebf0248f13bef9af11f,686c9048ac36fa3d7e7cd3b9,,,,,,,,,,,,,,,,,,,,,,,,,,,,,1516.0684,2,audio/Narrative5Situation4.wav,1517.0785,,1517.0788,1537.4722,"[[999,1],[999,94],[999,177],[999,261],[999,344],[999,427],[999,511],[999,594],[999,678],[999,762],[999,844],[999,927],[999,1011],[999,1094],[999,1178],[999,1261],[999,1345],[999,1428],[999,1511],[999,1595],[999,1678],[999,1761],[999,1845],[999,1928],[999,2012],[999,2095],[999,2179],[999,2262],[999,2346],[999,2429],[999,2512],[999,2596],[999,2679],[999,2762],[999,2846],[999,2929],[999,3012],[999,3096],[999,3179],[999,3263],[999,3346],[999,3430],[999,3513],[999,3597],[999,3679],[999,3763],[999,3846],[999,3930],[999,4013],[999,4096],[999,4180],[999,4263],[999,4347],[999,4430],[999,4514],[999,4597],[999,4680],[999,4764],[999,4847],[999,4931],[999,5014],[999,5097],[999,5180],[999,5264],[999,5347],[999,5431],[999,5514],[999,5598],[999,5681],[999,5764],[999,5848],[999,5931],[999,6014],[999,6098],[999,6181],[999,6264],[999,6348],[999,6431],[999,6515],[999,6598],[999,6682],[999,6766],[999,6848],[999,6932],[999,7015],[999,7099],[999,7182],[999,7266],[999,7349],[999,7432],[999,7516],[999,7599],[999,7682],[999,7766],[999,7849],[999,7933],[999,8016],[999,8110],[999,8183],[999,8266],[999,8349],[999,8435],[999,8516],[999,8609],[999,8693],[999,8776],[999,8852],[999,8933],[999,9022],[999,9110],[999,9185],[999,9278],[999,9350],[999,9434],[999,9517],[999,9611],[999,9686],[999,9767],[999,9852],[999,9944],[999,10022],[999,10101],[999,10194],[999,10267],[999,10351],[999,10434],[999,10528],[999,10603],[999,10695],[999,10768],[999,10851],[999,10936],[999,11028],[999,11103],[999,11185],[999,11269],[999,11352],[999,11445],[999,11518],[999,11601],[999,11685],[999,11768],[999,11852],[999,11935],[999,12019],[999,12102],[999,12185],[999,12269],[999,12352],[999,12435],[999,12529],[999,12603],[999,12696],[999,12771],[999,12853],[999,12946],[999,13019],[999,13113],[999,13196],[999,13281],[999,13363],[999,13447],[999,13520],[999,13614],[999,13692],[999,13770],[999,13853],[999,13948],[999,14030],[999,14105],[999,14197],[999,14272],[999,14354],[999,14447],[999,14520],[999,14605],[999,14687],[999,14772],[999,14854],[999,14947],[999,15021],[999,15114],[999,15197],[999,15271],[999,15356],[999,15449],[999,15522],[999,15605],[999,15689],[999,15771],[999,15865],[999,15938],[999,16021],[999,16115],[999,16188],[999,16271],[999,16365],[999,16439],[999,16522],[999,16605],[999,16688],[999,16782],[999,16855],[999,16938],[999,17022],[999,17115],[999,17191],[999,17275],[999,17361],[999,17439],[999,17532],[999,17607],[999,17689],[999,17782],[999,17856],[999,17941],[999,18023],[999,18112],[999,18200],[999,18273],[999,18356],[999,18440],[999,18523],[999,18618],[999,18690],[999,18777],[999,18857],[999,18951],[999,19024],[999,19118],[999,19200],[999,19274],[999,19357],[999,19440],[999,19524],[999,19609],[999,19691],[999,19784],[999,19857],[999,19942],[999,20027],[999,20109],[999,20202],[999,20274],[999,20368]]",1537.4726,1552.9749,69.88304094,9.8733,"[{""rating"":77.3391812865497,""responseTime"":8.013600000023644},{""rating"":69.88304093567251,""responseTime"":9.873300000011795}]",space,14.9612,,1552.9749,Not at all,0,1552.9817,,,[],,0,13,13,13,1,audio/Narrative8Situation4.wav,audio/Narrative7Situation4.wav,audio/Narrative6Situation4.wav,audio/Narrative5Situation4.wav,3,3,2,1,,,,,,,,,,,,,,,,,,,,,,,,,,,,,,,,,,,,,,,
,,,,,67f1626e4525cfea0f0a9753,2025-07-07_22h32.34.674,group3.4_multiperson,2023.2.2,Win32,59.52380952,686c2ebf0248f13bef9af11f,686c9048ac36fa3d7e7cd3b9,,,,,,,,,,,,,,,,,,,,,,,,,,,,,1552.9822,2,audio/Narrative5Situation5.wav,1557.9846,,1557.9847,1573.4122,[],1573.4124,1578.3767,2.558479532,2.8783,"[{""rating"":2.5584795321637435,""responseTime"":2.878300000012132}]",space,4.3866,,1578.3768,Not at all,0,1578.3816,,,[],,0,14,14,14,1,audio/Narrative8Situation5.wav,audio/Narrative7Situation5.wav,audio/Narrative6Situation5.wav,audio/Narrative5Situation5.wav,2,5,2,5,,,,,,,,,,,,,,,,,,,,,,,,,,,,,,,,,,,,,,,
,,,,,67f1626e4525cfea0f0a9753,2025-07-07_22h32.34.674,group3.4_multiperson,2023.2.2,Win32,59.52380952,686c2ebf0248f13bef9af11f,686c9048ac36fa3d7e7cd3b9,,,,,,,,,,,,,,,,,,,,,,,,,,,,,1578.3823,2,audio/Narrative5Situation6.wav,1581.3843,,1581.3845,1587.0711,[],1587.0712,1594.1341,98.97660819,3.8572,"[{""rating"":98.9766081871345,""responseTime"":3.85719999998787}]",space,6.5073,,1594.1342,Not at all,0,1594.1373,,,[],,0,15,15,15,1,audio/Narrative8Situation6.wav,audio/Narrative7Situation6.wav,audio/Narrative6Situation6.wav,audio/Narrative5Situation6.wav,2,3,2,3,,,,,,,,,,,,,,,,,,,,,,,,,,,,,,,,,,,,,,,
,,,,,67f1626e4525cfea0f0a9753,2025-07-07_22h32.34.674,group3.4_multiperson,2023.2.2,Win32,59.52380952,686c2ebf0248f13bef9af11f,686c9048ac36fa3d7e7cd3b9,,,,,,,,,,,,,,,,,,,,,,,,,,,,,1594.1379,2,audio/Narrative5Situation7.wav,1598.1457,,1598.1458,1619.1703,"[[999,0],[999,93],[999,176],[999,259],[999,344],[999,418],[999,510],[999,583],[999,668],[999,760],[999,843],[999,916],[999,1000],[999,1083],[999,1169],[999,1253],[999,1343],[999,1419],[999,1511],[999,1583],[999,1677],[999,1752],[999,1836],[999,1919],[999,2011],[999,2091],[999,2167],[999,2258],[999,2334],[999,2426],[999,2501],[999,2584],[999,2668],[999,2751],[999,2842],[999,2918],[999,3008],[999,3085],[999,3176],[999,3252],[999,3335],[999,3425],[999,3501],[999,3585],[999,3675],[999,3752],[999,3835],[999,3919],[999,4002],[999,4090],[999,4169],[999,4253],[999,4342],[999,4426],[999,4503],[999,4594],[999,4669],[999,4752],[999,4836],[999,4919],[999,5003],[999,5086],[999,5176],[999,5253],[999,5341],[999,5426],[999,5503],[999,5586],[999,5677],[999,5753],[999,5836],[999,5927],[999,6003],[999,6087],[999,6177],[999,6254],[999,6337],[999,6428],[999,6503],[999,6587],[999,6678],[999,6754],[999,6844],[999,6928],[999,7011],[999,7087],[999,7171],[999,7254],[999,7337],[999,7421],[999,7504],[999,7597],[999,7671],[999,7755],[999,7838],[999,7922],[999,8005],[999,8088],[999,8171],[999,8255],[999,8338],[999,8422],[999,8505],[999,8598],[999,8681],[999,8755],[999,8838],[999,8922],[999,9005],[999,9095],[999,9173],[999,9266],[999,9339],[999,9422],[999,9506],[999,9589],[999,9674],[999,9758],[999,9849],[999,9924],[999,10018],[999,10089],[999,10184],[999,10257],[999,10346],[999,10425],[999,10506],[999,10600],[999,10684],[999,10757],[999,10840],[999,10923],[999,11017],[999,11101],[999,11174],[999,11268],[999,11346],[999,11424],[999,11507],[999,11600],[999,11684],[999,11757],[999,11841],[999,11926],[999,12007],[999,12091],[999,12176],[999,12259],[999,12341],[999,12424],[999,12508],[999,12591],[999,12674],[999,12768],[999,12841],[999,12925],[999,13008],[999,13092],[999,13177],[999,13258],[999,13343],[999,13426],[999,13509],[999,13592],[999,13680],[999,13769],[999,13843],[999,13925],[999,14009],[999,14092],[999,14178],[999,14264],[999,14344],[999,14426],[999,14519],[999,14592],[999,14676],[999,14770],[999,14844],[999,14928],[999,15019],[999,15094],[999,15186],[999,15270],[999,15354],[999,15426],[999,15519],[999,15595],[999,15687],[999,15770],[999,15844],[999,15928],[999,16010],[999,16095],[999,16187],[999,16270],[999,16354],[999,16427],[999,16521],[999,16594],[999,16678],[999,16762],[999,16844],[999,16928],[999,17011],[999,17094],[999,17188],[999,17261],[999,17344],[999,17428],[999,17511],[999,17595],[999,17680],[999,17761],[999,17845],[999,17928],[999,18011],[999,18095],[999,18189],[999,18263],[999,18345],[999,18429],[999,18512],[999,18597],[999,18679],[999,18762],[999,18846],[999,18929],[999,19014],[999,19105],[999,19181],[999,19263],[999,19356],[999,19429],[999,19522],[999,19598],[999,19689],[999,19763],[999,19856],[999,19929],[999,20013],[999,20098],[999,20190],[999,20265],[999,20346],[999,20430],[999,20525],[999,20596],[999,20680],[999,20763],[999,20857],[999,20930],[999,21023]]",1619.1707,1624.9476,49.85380117,3.4169,"[{""rating"":49.853801169590646,""responseTime"":3.4169000000060805}]",space,5.2432,,1624.9477,Definitely yes,100,1624.957,,,[],,0,16,16,16,1,audio/Narrative8Situation7.wav,audio/Narrative7Situation7.wav,audio/Narrative6Situation7.wav,audio/Narrative5Situation7.wav,3,5,5,4,,,,,,,,,,,,,,,,,,,,,,,,,,,,,,,,,,,,,,,
,,,,,67f1626e4525cfea0f0a9753,2025-07-07_22h32.34.674,group3.4_multiperson,2023.2.2,Win32,59.52380952,686c2ebf0248f13bef9af11f,686c9048ac36fa3d7e7cd3b9,,,,,,,,,,,,,,,,,,,,,,,,,,,,,1624.9575,2,audio/Narrative5Situation8.wav,1627.9767,,1627.9768,1636.8132,"[[999,0],[999,94],[999,172],[999,266],[999,349],[999,433],[999,508],[999,589],[999,674],[999,759],[999,842],[999,933],[999,1006],[999,1100],[999,1173],[999,1257],[999,1339],[999,1423],[999,1506],[999,1590],[999,1673],[999,1757],[999,1840],[999,1935],[999,2008],[999,2090],[999,2174],[999,2259],[999,2341],[999,2424],[999,2518],[999,2591],[999,2674],[999,2769],[999,2844],[999,2935],[999,3009],[999,3091],[999,3177],[999,3269],[999,3341],[999,3426],[999,3508],[999,3593],[999,3678],[999,3760],[999,3853],[999,3927],[999,4019],[999,4093],[999,4185],[999,4260],[999,4342],[999,4427],[999,4518],[999,4592],[999,4677],[999,4759],[999,4842],[999,4936],[999,5019],[999,5102],[999,5176],[999,5269],[999,5343],[999,5426],[999,5519],[999,5603],[999,5686],[999,5764],[999,5843],[999,5928],[999,6009],[999,6093],[999,6176],[999,6260],[999,6353],[999,6427],[999,6510],[999,6593],[999,6676],[999,6760],[999,6843],[999,6936],[999,7020],[999,7104],[999,7177],[999,7261],[999,7344],[999,7437],[999,7513],[999,7594],[999,7678],[999,7761],[999,7844],[999,7928],[999,8011],[999,8094],[999,8186],[999,8261],[999,8345],[999,8435],[999,8512],[999,8595],[999,8686],[999,8762]]",1636.8135,1643.8607,1.169590643,5.078,"[{""rating"":1.1695906432748537,""responseTime"":5.0779999999999745}]",space,6.5076,,1643.8609,Definitely yes,100,1643.8656,,,[],,0,17,17,17,1,audio/Narrative8Situation8.wav,audio/Narrative7Situation8.wav,audio/Narrative6Situation8.wav,audio/Narrative5Situation8.wav,3,2,5,3,,,,,,,,,,,,,,,,,,,,,,,,,,,,,,,,,,,,,,,
,,,,,67f1626e4525cfea0f0a9753,2025-07-07_22h32.34.674,group3.4_multiperson,2023.2.2,Win32,59.52380952,686c2ebf0248f13bef9af11f,686c9048ac36fa3d7e7cd3b9,,,,,,,,,,,,,,,,,,,,,,,,,,,,,1643.8661,2,audio/Narrative5Situation9.wav,1646.8796,,1646.8797,1686.4072,[],1686.4074,1697.4089,88.59649123,9.2484,"[{""rating"":88.59649122807018,""responseTime"":9.248400000005859}]",space,10.4595,,1697.4089,Not at all,0,1697.4158,,,[],,0,18,18,18,1,audio/Narrative8Situation9.wav,audio/Narrative7Situation9.wav,audio/Narrative6Situation9.wav,audio/Narrative5Situation9.wav,3,2,4,3,,,,,,,,,,,,,,,,,,,,,,,,,,,,,,,,,,,,,,,
,,,,,67f1626e4525cfea0f0a9753,2025-07-07_22h32.34.674,group3.4_multiperson,2023.2.2,Win32,59.52380952,686c2ebf0248f13bef9af11f,686c9048ac36fa3d7e7cd3b9,,,,,,,,,,,,,,,,,,,,,,,,,,,,,,,,,,,,,,,,,,,,,,,,,,,,,,,,,,,,,,,,,,,,,,1697.4166,1737.9591,space,40.0116,,1737.9604,1763.3777,space,25.0851,,,,,,,,,,,,,,,,,,,,,,,,,,
,,,,,67f1626e4525cfea0f0a9753,2025-07-07_22h32.34.674,group3.4_multiperson,2023.2.2,Win32,59.52380952,686c2ebf0248f13bef9af11f,686c9048ac36fa3d7e7cd3b9,,,,,,,,,,,,,,,,,,,,,,,,,,,,,1765.9849,1,audio/Narrative7Situation9.wav,1767.9962,,,,,1799.9022,1813.0554,38.74269006,11.0768,"[{""rating"":42.54385964912281,""responseTime"":7.7890999999940504},{""rating"":38.74269005847953,""responseTime"":11.076799999982086}]",space,12.6094,,1813.0555,Partially,50,1813.0621,,,[],,,,,,,,,,,2,2,2,2,,,,,,,,,,,,,,,1763.3842,1765.9554,1767.9971,3,1799.902,[],0,0,0,0,1,"Larry had recently lost his family, job and home, and was now living on his own in the park. He had most of his belongings, including some clothes, a blanket, and his mother’s special necklace. His family had been very important to him and he felt as though he did not have much going for him. One of his first days in the park he came across a family that did not have much food and looked very cold. He decided to give them some of his food and his blanket.","Larry had recently lost his family, job and home, and was now living on his own in the park. He had most of his belongings, including some clothes, a blanket, and his mother’s special necklace. His family had been very important to him and he felt as though he did not have much going for him. One of his first days in the park he came across a family that did not have much food and looked very cold. He decided to give them some of his food and his blanket.","Larry had recently lost his family, job and home, and was now living on his own in the park. He had most of his belongings, including some clothes, a blanket, and his mother’s special necklace. His family had been very important to him and he felt as though he did not have much going for him. One of his first days in the park he came across a family that did not have much food and looked very cold. He decided to give them some of his food and his blanket.","Larry had recently lost his family, job and home, and was now living on his own in the park. He had most of his belongings, including some clothes, a blanket, and his mother’s special necklace. His family had been very important to him and he felt as though he did not have much going for him. One of his first days in the park he came across a family that did not have much food and looked very cold. He decided to give them some of his food and his blanket.",,,,,,,,,,
,,,,,67f1626e4525cfea0f0a9753,2025-07-07_22h32.34.674,group3.4_multiperson,2023.2.2,Win32,59.52380952,686c2ebf0248f13bef9af11f,686c9048ac36fa3d7e7cd3b9,,,,,,,,,,,,,,,,,,,,,,,,,,,,,1813.0634,1,audio/Narrative7Situation9.wav,1817.6137,space,,,,1841.5132,1846.3112,0.657894737,3.8619,"[{""rating"":0.6578947368421073,""responseTime"":3.861900000006017}]",space,4.2572,,1846.3113,Not at all,0,1846.3188,,,[],,,,,,,,,,,6,2,3,9,4.5243,,,,,,,,,,,,,,,,1817.6139,3,1841.513,"[[999,2],[999,99],[999,182],[999,266],[999,349],[999,432],[999,516],[999,599],[999,683],[999,766],[999,849],[999,933],[999,1016],[999,1099],[999,1183],[999,1266],[999,1350],[999,1433],[999,1516],[999,1600],[999,1683],[999,1767],[999,1851],[999,1933],[999,2018],[999,2100],[999,2185],[999,2267],[999,2350],[999,2434],[999,2517],[999,2602],[999,2683],[999,2767],[999,2850],[999,2934],[999,3017],[999,3101],[999,3184],[999,3268],[999,3351],[999,3445],[999,3518],[999,3611],[999,3696],[999,3768],[999,3863],[999,3939],[999,4023],[999,4102],[999,4185],[999,4269],[999,4352],[999,4435],[999,4529],[999,4602],[999,4685],[999,4769],[999,4852],[999,4936],[999,5021],[999,5103],[999,5186],[999,5269],[999,5355],[999,5436],[999,5525],[999,5613],[999,5686],[999,5769],[999,5853],[999,5936],[999,6030],[999,6105],[999,6186],[999,6270],[999,6353],[999,6439],[999,6520],[999,6606],[999,6692],[999,6780],[999,6854],[999,6937],[999,7020],[999,7104],[999,7187],[999,7270],[999,7355],[999,7438],[999,7520],[999,7604],[999,7698],[999,7771],[999,7854],[999,7948],[999,8020],[999,8104],[999,8193],[999,8271],[999,8355],[999,8438],[999,8521],[999,8606],[999,8691],[999,8771],[999,8855],[999,8938],[999,9022],[999,9105],[999,9188],[999,9274],[999,9355],[999,9439],[999,9522],[999,9616],[999,9691],[999,9772],[999,9865],[999,9939],[999,10022],[999,10108],[999,10189],[999,10273],[999,10356],[999,10439],[999,10523],[999,10606],[999,10692],[999,10773],[999,10856],[999,10950],[999,11033],[999,11106],[999,11190],[999,11273],[999,11358],[999,11440],[999,11523],[999,11607],[999,11700],[999,11773],[999,11867],[999,11940],[999,12024],[999,12107],[999,12191],[999,12274],[999,12357],[999,12441],[999,12524],[999,12608],[999,12697],[999,12784],[999,12858],[999,12941],[999,13024],[999,13108],[999,13191],[999,13274],[999,13357],[999,13441],[999,13524],[999,13608],[999,13694],[999,13775],[999,13858],[999,13942],[999,14025],[999,14112],[999,14194],[999,14275],[999,14359],[999,14442],[999,14525],[999,14609],[999,14703],[999,14778],[999,14859],[999,14942],[999,15026],[999,15109],[999,15192],[999,15276],[999,15369],[999,15443],[999,15526],[999,15609],[999,15704],[999,15778],[999,15860],[999,15943],[999,16027],[999,16110],[999,16193],[999,16286],[999,16360],[999,16443],[999,16537],[999,16610],[999,16704],[999,16779],[999,16860],[999,16944],[999,17027],[999,17111],[999,17194],[999,17280],[999,17361],[999,17454],[999,17538],[999,17611],[999,17695],[999,17778],[999,17862],[999,17944],[999,18038],[999,18111],[999,18205],[999,18288],[999,18364],[999,18445],[999,18528],[999,18621],[999,18705],[999,18787],[999,18863],[999,18945],[999,19028],[999,19112],[999,19195],[999,19279],[999,19372],[999,19445],[999,19529],[999,19612],[999,19706],[999,19779],[999,19871],[999,19955],[999,20029],[999,20129],[999,20213],[999,20296],[999,20379],[999,20463],[999,20546],[999,20630],[999,20713],[999,20796],[999,20880],[999,20963],[999,21047],[999,21130],[999,21213],[999,21297],[999,21380],[999,21463],[999,21547],[999,21630],[999,21714],[999,21797],[999,21880],[999,21965],[999,22047],[999,22131],[999,22214],[999,22298],[999,22381],[999,22464],[999,22548],[999,22631],[999,22715],[999,22798],[999,22881],[999,22965],[999,23048],[999,23131],[999,23215],[999,23298],[999,23382],[999,23465],[999,23548],[999,23632],[999,23715],[999,23798],[999,23882]]",0,1,1,1,1,"It was just another Sunday afternoon for Lucy, she was on her way to the farmer's market to pick up some produce. When she arrived at the old train depot that housed the market, she noticed two men fighting on the steps. Before she could call for help, one of the men crumpled to his knees. The other man dropped an object that appeared to be a knife and ran off. When Lucy approached the crime scene she realized that the man who had been murdered was the Mayor and that he had a gunshot wound.","One day at work, Margaret walked up to her partner, Al, to ask him to talk to the chief of staff at the local hospital where she worked as a nurse.","Luke always thought of himself as an honest man. That's why during his evening jog around the swamp, he pondered his recent affair with the receptionist at work. Luke looked up at the sky and asked God why he was so weak and unfaithful. He thought of the impact this would have on his family and told God of his conflicted feelings toward telling his wife Marta.","Linda and Amy had been best friends since kindergarten, they even found homes on the same street in the forest on the edge of town. Their biggest fight had been over who gets the bigger slice of cake, until Amy married Dan. Linda loathed Dan, she thought he was manipulative and had a violent temper. She only put up with him because Amy loved him. ",,,,,,,,,,
