consent.started,consent.stopped,consentResponse.keys,consentResponse.rt,consentResponse.duration,participantID,date,expName,psychopyVersion,OS,frameRate,STUDY_ID,SESSION_ID,opening1.started,opening1.stopped,keyEndingOpening1.keys,keyEndingOpening1.rt,keyEndingOpening1.duration,volumeAdjust.started,volumeAdjust.stopped,endingAdjust.keys,endingAdjust.rt,endingAdjust.duration,opening2.started,opening2.stopped,keyEndingOpening.keys,keyEndingOpening.rt,keyEndingOpening.duration,mouse.x,mouse.y,mouse.leftButton,mouse.midButton,mouse.rightButton,mouse.time,instructionLoop.thisRepN,instructionLoop.thisTrialN,instructionLoop.thisN,instructionLoop.thisIndex,instructionLoop.ran,readyForAudio.started,readyForAudio.stopped,fixation.started,run,audio_played,fixation.stopped,endPractice.keys,audioPre.started,audioPre.stopped,continuousResponses_audio,intRating.started,intRating.stopped,intQuestionSlider.response,intQuestionSlider.rt,intQuestionSlider.history,confirmResponse.keys,confirmResponse.rt,confirmResponse.duration,catchQuestion.started,catch_label,catch_value,catchQuestion.stopped,catchQuestionSlider.response,catchQuestionSlider.rt,catchQuestionSlider.history,confirmResponse_2.keys,audioRunLoop.thisRepN,audioRunLoop.thisTrialN,audioRunLoop.thisN,audioRunLoop.thisIndex,audioRunLoop.ran,conditions1_1,conditions2_1,conditions1_2,conditions2_2,dur1_1,dur2_1,dur1_2,dur2_2,endPractice.rt,endPractice.duration,confirmResponse_2.rt,confirmResponse_2.duration,runIntervalBreak.started,runIntervalBreak.stopped,endingBreakKey.keys,endingBreakKey.rt,endingBreakKey.duration,connection.started,connection.stopped,connectionEnding.keys,connectionEnding.rt,connectionEnding.duration,readyForText.started,readyForText.stopped,textPre.started,run_dup,textPre.stopped,continuousResponses_text,textRunLoop.thisRepN,textRunLoop.thisTrialN,textRunLoop.thisN,textRunLoop.thisIndex,textRunLoop.ran,text1_1,text1_2,text2_1,text2_2,runBreakText.started,runBreakText.stopped,endingBreakKey_2.keys,endingBreakKey_2.rt,endingBreakKey_2.duration,ending.started,ending.stopped,endingEnding.keys,endingEnding.rt,endingEnding.duration
0.0003,13.1013,y,12.78,,67f3147d939ee392b2741fb5,2025-07-07_19h17.56.514,group3.4_multiperson,2023.2.2,Win32,59.88023952,686c2ebf0248f13bef9af11f,686c7fa19336012acc800a82,,,,,,,,,,,,,,,,,,,,,,,,,,,,,,,,,,,,,,,,,,,,,,,,,,,,,,,,,,,,,,,,,,,,,,,,,,,,,,,,,,,,,,,,,,,,,,,,,,,,,,,,
,,,,,67f3147d939ee392b2741fb5,2025-07-07_19h17.56.514,group3.4_multiperson,2023.2.2,Win32,59.88023952,686c2ebf0248f13bef9af11f,686c7fa19336012acc800a82,13.1016,20.3336,space,7.1738,,,,,,,,,,,,,,,,,,,,,,,,,,,,,,,,,,,,,,,,,,,,,,,,,,,,,,,,,,,,,,,,,,,,,,,,,,,,,,,,,,,,,,,,,,,,,,,,,,,,
,,,,,67f3147d939ee392b2741fb5,2025-07-07_19h17.56.514,group3.4_multiperson,2023.2.2,Win32,59.88023952,686c2ebf0248f13bef9af11f,686c7fa19336012acc800a82,,,,,,20.3338,62.7276,space,42.0628,,,,,,,,,,,,,,,,,,,,,,,,,,,,,,,,,,,,,,,,,,,,,,,,,,,,,,,,,,,,,,,,,,,,,,,,,,,,,,,,,,,,,,,,,,,,,,,
,,,,,67f3147d939ee392b2741fb5,2025-07-07_19h17.56.514,group3.4_multiperson,2023.2.2,Win32,59.88023952,686c2ebf0248f13bef9af11f,686c7fa19336012acc800a82,,,,,,,,,,,62.7323,80.0255,space,17.2706,,[],[],[],[],[],[],0,0,0,0,1,,,,,,,,,,,,,,,,,,,,,,,,,,,,,,,,,,,,,,,,,,,,,,,,,,,,,,,,,,,,,,,,,,,,,,,,,,,,,,
,,,,,67f3147d939ee392b2741fb5,2025-07-07_19h17.56.514,group3.4_multiperson,2023.2.2,Win32,59.88023952,686c2ebf0248f13bef9af11f,686c7fa19336012acc800a82,,,,,,,,,,,80.0262,127.9752,space,47.8545,0.0002,[],[],[],[],[],[],1,0,1,0,1,,,,,,,,,,,,,,,,,,,,,,,,,,,,,,,,,,,,,,,,,,,,,,,,,,,,,,,,,,,,,,,,,,,,,,,,,,,,,,
,,,,,67f3147d939ee392b2741fb5,2025-07-07_19h17.56.514,group3.4_multiperson,2023.2.2,Win32,59.88023952,686c2ebf0248f13bef9af11f,686c7fa19336012acc800a82,,,,,,,,,,,127.9756,155.1146,space,27.0904,,[],[],[],[],[],[],2,0,2,0,1,,,,,,,,,,,,,,,,,,,,,,,,,,,,,,,,,,,,,,,,,,,,,,,,,,,,,,,,,,,,,,,,,,,,,,,,,,,,,,
,,,,,67f3147d939ee392b2741fb5,2025-07-07_19h17.56.514,group3.4_multiperson,2023.2.2,Win32,59.88023952,686c2ebf0248f13bef9af11f,686c7fa19336012acc800a82,,,,,,,,,,,155.115,199.9416,space,44.7959,,[],[],[],[],[],[],3,0,3,0,1,,,,,,,,,,,,,,,,,,,,,,,,,,,,,,,,,,,,,,,,,,,,,,,,,,,,,,,,,,,,,,,,,,,,,,,,,,,,,,
,,,,,67f3147d939ee392b2741fb5,2025-07-07_19h17.56.514,group3.4_multiperson,2023.2.2,Win32,59.88023952,686c2ebf0248f13bef9af11f,686c7fa19336012acc800a82,,,,,,,,,,,199.9419,235.8697,space,35.9011,,[],[],[],[],[],[],4,0,4,0,1,,,,,,,,,,,,,,,,,,,,,,,,,,,,,,,,,,,,,,,,,,,,,,,,,,,,,,,,,,,,,,,,,,,,,,,,,,,,,,
,,,,,67f3147d939ee392b2741fb5,2025-07-07_19h17.56.514,group3.4_multiperson,2023.2.2,Win32,59.88023952,686c2ebf0248f13bef9af11f,686c7fa19336012acc800a82,,,,,,,,,,,235.8701,267.0394,space,31.145,,[],[],[],[],[],[],5,0,5,0,1,,,,,,,,,,,,,,,,,,,,,,,,,,,,,,,,,,,,,,,,,,,,,,,,,,,,,,,,,,,,,,,,,,,,,,,,,,,,,,
,,,,,67f3147d939ee392b2741fb5,2025-07-07_19h17.56.514,group3.4_multiperson,2023.2.2,Win32,59.88023952,686c2ebf0248f13bef9af11f,686c7fa19336012acc800a82,,,,,,,,,,,,,,,,,,,,,,,,,,,267.0412,269.615,269.6334,1,audio/Narrative13Situation2.wav,271.648,,271.6481,301.4273,"[[999,0],[999,116],[999,206],[999,283],[999,372],[999,456],[999,533],[999,616],[999,699],[999,783],[999,866],[999,949],[999,1032],[999,1122],[999,1199],[999,1282],[999,1366],[999,1449],[999,1532],[999,1616],[999,1699],[999,1782],[999,1866],[999,1949],[999,2032],[999,2116],[999,2199],[999,2282],[999,2366],[999,2449],[999,2532],[999,2616],[999,2699],[999,2782],[999,2872],[999,2949],[999,3032],[999,3115],[999,3199],[999,3288],[999,3365],[999,3449],[999,3532],[999,3615],[999,3705],[999,3782],[999,3865],[999,3949],[999,4032],[999,4115],[999,4199],[999,4282],[999,4365],[999,4449],[999,4538],[999,4622],[999,4705],[999,4788],[999,4865],[999,4948],[999,5038],[999,5115],[999,5199],[999,5282],[999,5365],[999,5448],[999,5532],[999,5615],[999,5698],[999,5782],[999,5865],[999,5948],[999,6032],[999,6115],[999,6198],[999,6285],[999,6365],[999,6448],[999,6532],[999,6615],[999,6698],[999,6782],[999,6865],[999,6948],[999,7032],[999,7115],[999,7198],[999,7282],[999,7365],[999,7455],[999,7532],[999,7615],[999,7698],[999,7781],[999,7868],[999,7954],[999,8032],[999,8115],[999,8198],[999,8281],[999,8365],[999,8448],[999,8531],[999,8615],[999,8698],[999,8781],[999,8865],[999,8948],[999,9031],[999,9122],[33.9,9205],[34.3,9282],[34.2,9365],[34.1,9448],[34.1,9531],[34.1,9615],[39.6,9705],[45.6,9788],[52.4,9871],[58.2,9955],[63.2,10038],[67.4,10115],[71.3,10198],[74.5,10288],[77.5,10371],[80.5,10455],[84.3,10538],[87.2,10621],[89.3,10704],[90.6,10788],[91.1,10871],[91.7,10948],[91.7,11037],[91.7,11114],[91.7,11201],[91.7,11281],[91.7,11364],[91.7,11448],[91.7,11531],[91.7,11614],[91.7,11698],[91.7,11781],[91.7,11864],[91.7,11947],[91.6,12037],[91.7,12121],[92.2,12204],[93.2,12287],[93.5,12371],[93.8,12454],[94.3,12537],[94.7,12621],[94.8,12697],[95.1,12788],[95.8,12870],[96.8,12954],[97.3,13038],[97.7,13114],[97.9,13198],[97.9,13287],[97.9,13364],[97.9,13454],[97.9,13531],[97.9,13614],[97.9,13703],[97.9,13781],[98.8,13871],[99,13954],[99.7,14037],[99.7,14114],[99.7,14197],[99.7,14280],[99.7,14364],[99.7,14447],[99.7,14531],[99.7,14614],[99.7,14697],[99.7,14781],[99.7,14864],[99.7,14947],[99.7,15030],[99.7,15114],[99.7,15197],[99.7,15280],[99.7,15364],[99.7,15447],[99.7,15530],[99.7,15614],[99.7,15701],[99.7,15780],[99.7,15864],[99.7,15947],[99.7,16030],[99.7,16114],[99.7,16197],[99.7,16286],[99.7,16364],[99.7,16453],[99.7,16530],[99.7,16620],[99.7,16703],[99.7,16780],[99.7,16864],[99.7,16947],[99.7,17037],[99.7,17114],[99.7,17202],[99.7,17284],[99.7,17363],[99.7,17447],[99.7,17530],[99.7,17613],[99.7,17701],[99.7,17780],[99.7,17863],[99.7,17953],[99.7,18030],[99.7,18120],[99.7,18197],[99.7,18286],[99.7,18363],[99.7,18447],[99.7,18530],[99.7,18613],[99.7,18700],[99.7,18780],[99.7,18863],[99.7,18953],[99.7,19036],[99.7,19113],[99.7,19197],[99.7,19280],[99.7,19363],[99.7,19447],[99.7,19530],[99.7,19613],[99.7,19696],[99.7,19780],[99.7,19863],[99.7,19946],[99.7,20030],[99.7,20113],[99.7,20196],[99.7,20280],[99.7,20363],[99.7,20446],[99.7,20530],[99.7,20613],[99.7,20696],[99.7,20780],[99.7,20863],[99.7,20946],[99.7,21033],[99.7,21113],[99.7,21196],[99.7,21279],[99.7,21363],[99.7,21446],[99.7,21529],[99.7,21613],[99.7,21703],[99.7,21779],[99.7,21863],[99.7,21946],[99.7,22029],[99.7,22113],[99.7,22196],[99.7,22279],[99.7,22363],[99.7,22446],[99.7,22529],[99.7,22613],[94.2,22703],[85.7,22786],[81.7,22869],[79.3,22953],[77,23036],[75.2,23119],[73.9,23202],[71.7,23286],[68.3,23370],[64.3,23453],[47.2,24403],[49.2,24486],[49.5,24562],[49.8,24646],[50.4,24736],[50.4,24812],[50.4,24896],[50.4,24979],[48.6,25066],[38.8,25152],[32.5,25235],[29.1,25319],[26.5,25402],[24.4,25486],[22.6,25569],[22.5,25646],[22.5,25729],[22.5,25812],[22.5,25895],[22.8,25979],[23.4,26062],[25.1,26152],[32.2,26236],[42.8,26319],[53.1,26402],[62.8,26485],[68,26569],[71.8,26652],[74.3,26735],[77,26819],[80.2,26900],[82.8,26979],[85.4,27069],[87.5,27152],[89.3,27235],[90.5,27319],[91.3,27402],[91.4,27479]]",301.4275,326.8237,96.25000954,14.2607,"[{""rating"":90.93750317891438,""responseTime"":9.279699999995614},{""rating"":96.25000953674316,""responseTime"":14.260699999995609}]",space,24.8467,,326.8239,Not at all,0,326.8284,,,[],,0,0,0,0,1,audio/Narrative13Situation2.wav,audio/Narrative13Situation2.wav,audio/Narrative13Situation2.wav,audio/Narrative13Situation2.wav,2,2,2,2,,,,,,,,,,,,,,,,,,,,,,,,,,,,,,,,,,,,,,,
,,,,,67f3147d939ee392b2741fb5,2025-07-07_19h17.56.514,group3.4_multiperson,2023.2.2,Win32,59.88023952,686c2ebf0248f13bef9af11f,686c7fa19336012acc800a82,,,,,,,,,,,,,,,,,,,,,,,,,,,,,326.8286,1,audio/Narrative8Situation1.wav,331.1064,space,331.1064,347.0541,"[[94.5,1922],[93.5,1999],[91.8,2089],[69,3355],[65.7,3439],[63.3,3522],[60.6,3605],[58.6,3689],[58.1,3771],[58.1,3849],[56.5,3939],[53.5,4022],[48.2,4122],[42.1,4205],[38,4288],[34.7,4372],[32.9,4455],[32,4538],[32,4615],[32,4699],[32,4782],[32,4865],[32,4949],[32.5,5039],[32.8,5115],[32.8,5205],[33,5282],[33,5365],[33,5454],[33,5532],[33,5615],[33,5698],[33,5788],[33,5869],[33,5955],[33,6032],[33,6115],[33,6198],[33,6288],[33,6365],[33,6448],[33,6532],[33,6615],[33,6698],[33,6782],[33,6865],[33,6954],[33,7038],[33,7115],[33,7198],[33,7288],[33,7365],[33,7448],[33,7531],[33,7615],[33,7704],[33,7781],[33,7865],[33,7948],[33,8032],[33,8115],[33,8198],[33,8281],[33,8371],[33,8448],[33,8538],[33,8621],[33,8698],[33,8781],[33,8865],[33,8948],[33,9037],[33,9115],[33,9198],[33,9281],[33,9365],[33,9451],[33,9531],[33,9618],[33,9698],[33,9781],[33,9865],[33,9948],[33,10031],[33,10114],[33,10198],[33,10281],[33,10365],[33,10448],[33,10531],[33,10620],[33,10698],[33,10781],[33,10864],[44.1,10954],[50,11038],[54.4,11121],[59.6,11221],[63.9,11304],[67.6,11387],[74.7,11471],[84.4,11554],[89.3,11654],[89.3,11731],[89.3,11814],[89.3,11897],[89.3,11987],[89.3,12064],[90.7,12154],[92.4,12238],[94.3,12321],[94.6,12397],[95.6,12488],[96.1,12564],[97.1,12654],[97.1,12731],[97.1,12814],[97.1,12897],[97.3,12986],[97.3,13068],[97.3,13147],[97.3,13231],[97.3,13314],[97.3,13397],[97.3,13481],[97.3,13564],[97.3,13647],[97.3,13731],[97.3,13814],[97.4,13904],[97.7,13981],[97.9,14070],[97.9,14147],[97.9,14230],[97.9,14314],[97.9,14397],[97.9,14480],[97.9,14564],[97.9,14647],[97.9,14734],[97.9,14820],[97.9,14897],[97.9,14981],[97.9,15064],[97.9,15147],[97.9,15230],[97.9,15314],[97.9,15397],[97.8,15481],[97.7,15564],[97.7,15647],[97.7,15730],[97.7,15814],[97.7,15897]]",347.0543,351.8366,85.10416349,3.5385,"[{""rating"":85.10416348775227,""responseTime"":3.538499999999999}]",space,4.235,,351.8367,Not at all,0,351.8384,,,[],,0,1,1,1,1,audio/Narrative7Situation1.wav,audio/Narrative8Situation1.wav,audio/Narrative5Situation1.wav,audio/Narrative6Situation1.wav,2,5,5,2,4.2488,,,,,,,,,,,,,,,,,,,,,,,,,,,,,,,,,,,,,,
,,,,,67f3147d939ee392b2741fb5,2025-07-07_19h17.56.514,group3.4_multiperson,2023.2.2,Win32,59.88023952,686c2ebf0248f13bef9af11f,686c7fa19336012acc800a82,,,,,,,,,,,,,,,,,,,,,,,,,,,,,351.8386,1,audio/Narrative8Situation2.wav,354.8529,,354.8529,364.9909,"[[999,0],[999,83],[999,166],[999,249],[999,340],[999,416],[999,499],[999,583],[999,666],[999,749],[999,833],[999,916],[999,999],[999,1089],[999,1172],[999,1256],[999,1339],[999,1422],[999,1506],[999,1589],[54.3,1673],[54.1,1749],[53.2,1839],[52.5,1922],[52.5,1999],[52.5,2082],[52.5,2166],[52.5,2249],[51.9,2333],[51.8,2416],[51.6,2499],[51,5832],[51,5915],[51,5999],[51,6082],[50.7,6172],[50.7,6249],[50.4,6338],[50.1,6416],[49.3,6505],[48.6,6588],[48,6665],[46.9,6755],[46.5,6832],[46.3,6915],[46.3,6998],[46.3,7082],[46.3,7165],[46.3,7254],[46.3,7332],[46.3,7415],[46.3,7498],[46.3,7582],[46.3,7665],[46.3,7748],[46.3,7832],[46.3,7915],[46.3,7998],[46.3,8082],[46.3,8165],[46.3,8248],[46.3,8332],[46.3,8415],[46.3,8498],[46.3,8581],[46.3,8665],[46.3,8748],[46.3,8831],[46.3,8915],[46.3,8998],[46.3,9081],[46.3,9165],[46.3,9248],[46.3,9331],[46.3,9421],[46.3,9498],[46.3,9581],[46.3,9665],[46.3,9748],[46.3,9831],[46.3,9915],[46.3,9998],[46.3,10081]]",364.9911,370.4506,49.89583492,3.8842,"[{""rating"":49.89583492279053,""responseTime"":3.8841999999955306}]",space,4.9164,,370.4507,Definitely yes,100,370.4543,,,[],,0,2,2,2,1,audio/Narrative7Situation2.wav,audio/Narrative8Situation2.wav,audio/Narrative5Situation2.wav,audio/Narrative6Situation2.wav,3,3,3,3,,,,,,,,,,,,,,,,,,,,,,,,,,,,,,,,,,,,,,,
,,,,,67f3147d939ee392b2741fb5,2025-07-07_19h17.56.514,group3.4_multiperson,2023.2.2,Win32,59.88023952,686c2ebf0248f13bef9af11f,686c7fa19336012acc800a82,,,,,,,,,,,,,,,,,,,,,,,,,,,,,370.4545,1,audio/Narrative8Situation3.wav,374.4669,,374.4669,396.8699,"[[999,0],[999,82],[999,166],[999,249],[999,332],[999,416],[999,499],[999,583],[999,666],[999,749],[999,832],[999,916],[999,999],[999,1082],[999,1166],[999,1249],[999,1332],[999,1416],[999,1499],[999,1582],[999,1666],[999,1755],[999,1832],[999,1916],[999,1999],[999,2082],[999,2166],[999,2249],[999,2332],[999,2416],[999,2499],[999,2582],[999,2665],[999,2749],[999,2832],[999,2915],[999,2999],[999,3088],[999,3172],[999,3249],[999,3338],[999,3415],[999,3499],[999,3582],[999,3665],[999,3749],[999,3832],[999,3915],[999,3999],[999,4082],[999,4172],[999,4255],[999,4338],[999,4422],[999,4499],[999,4582],[999,4665],[999,4749],[999,4832],[999,4919],[999,4999],[999,5082],[999,5165],[999,5248],[999,5332],[999,5415],[999,5499],[999,5588],[999,5671],[999,5755],[999,5838],[72.8,5922],[76.7,6022],[78.9,6105],[80.5,6188],[82.3,6272],[84.3,6355],[86.4,6438],[87.3,6522],[88,6598],[88.5,6682],[88.5,6765],[88.5,6848],[88.5,6932],[88.5,7015],[88.5,7098],[88.5,7182],[88.5,7265],[88.5,7348],[88.5,7431],[88.5,7515],[88.5,7598],[88.5,7681],[88.5,7765],[88.5,7848],[89.1,7932],[90.6,8021],[92.6,8105],[94.3,8188],[95.5,8271],[96.5,8355],[97.1,8438],[97.8,8515],[97.9,8602],[97.9,8681],[97.9,8765],[97.9,8848],[98.2,8931],[98.3,9021],[98.4,9104],[98.4,9181],[98.4,9265],[98.4,9348],[98.6,9437],[98.8,9515],[99.1,9598],[99.1,9681],[99.1,9765],[99.1,9848],[99.1,9931],[99.1,10015],[99.1,10098],[99.1,10181],[99.1,10265],[99.1,10348],[99.1,10431],[99.1,10514],[99.1,10598],[99.1,10681],[99.1,10764],[99.1,10848],[99.1,10931],[99.1,11014],[99.1,11098],[99.1,11181],[99.1,11264],[99.1,11348],[99.1,11431],[99.1,11514],[99.1,11598],[99.1,11685],[99.1,11764],[99.1,11848],[99.1,11931],[99.1,12014],[99.1,12098],[99.1,12181],[99.1,12264],[99.1,12354],[99.1,12431],[99.1,12514],[99.1,12597],[99.1,12684],[99.1,12764],[99.1,12847],[99.1,12931],[99.1,13014],[99.1,13097],[99.1,13181],[99.1,13264],[98.3,13353],[98,13437],[98,13514],[97.6,13604],[97.6,13681],[100,13771],[100,13854],[100,13931],[100,14014],[100,14097],[100,14181],[100,14264],[100,14347],[100,14431],[100,14514],[100,14597],[100,14681],[100,14764],[100,14847],[100,14931],[100,15014],[99.9,15104],[99.6,15180],[99.6,15264],[99.3,15347],[98.9,15437],[98.9,15514],[98.9,15597],[98.9,15680],[98.9,15764],[98.9,15847],[98.9,15930],[98.9,16014],[98.9,16097],[98.9,16180],[98.9,16264],[98.9,16347],[98.9,16430],[98.9,16514],[98.9,16597],[98.9,16680],[98.9,16763],[98.9,16853],[98.9,16930],[98.9,17014],[98.8,17103],[98.8,17180],[98.8,17264],[98.8,17347],[98.8,17430],[98.8,17513],[98.8,17597],[98.8,17680],[98.8,17763],[98.8,17847],[98.8,17930],[98.8,18013],[98.8,18097],[98.8,18180],[98.8,18263],[98.8,18347],[98.8,18430],[98.8,18513],[98.8,18597],[98.8,18680],[98.8,18763],[98.8,18853],[98.8,18930],[98.8,19013],[98.8,19097],[98.8,19180],[98.8,19263],[98.8,19347],[98.8,19430],[98.8,19513],[98.8,19596],[98.8,19680],[98.8,19763],[98.8,19853],[98.8,19930],[98.8,20013],[98.8,20097],[98.8,20180],[98.8,20263],[98.8,20346],[98.8,20430],[98,20513],[95,20603],[90.8,20686],[88,20769],[87.4,20852],[87.5,20930],[90.6,21020],[92.7,21103],[94.1,21186],[96.1,21269],[97.8,21353],[97.9,21430],[98.1,21513],[98.1,21602],[98.1,21679],[98.1,21769],[98.1,21846],[98.1,21930],[98.1,22013],[98.1,22096],[98.1,22179],[98.1,22263],[98.1,22352]]",396.87,402.7295,98.33334287,3.0678,"[{""rating"":98.33334287007649,""responseTime"":3.067799999997078}]",space,5.3162,,402.7295,Partially,50,402.7321,,,[],,0,3,3,3,1,audio/Narrative7Situation3.wav,audio/Narrative8Situation3.wav,audio/Narrative5Situation3.wav,audio/Narrative6Situation3.wav,8,4,3,5,,,,,,,,,,,,,,,,,,,,,,,,,,,,,,,,,,,,,,,
,,,,,67f3147d939ee392b2741fb5,2025-07-07_19h17.56.514,group3.4_multiperson,2023.2.2,Win32,59.88023952,686c2ebf0248f13bef9af11f,686c7fa19336012acc800a82,,,,,,,,,,,,,,,,,,,,,,,,,,,,,402.7323,1,audio/Narrative8Situation4.wav,405.7457,,405.7457,419.9271,"[[999,0],[999,83],[999,166],[999,249],[999,333],[999,416],[999,499],[999,583],[999,666],[999,749],[999,833],[999,916],[999,999],[999,1083],[999,1166],[999,1249],[999,1339],[999,1416],[999,1499],[999,1583],[999,1666],[999,1749],[999,1833],[999,1916],[999,1999],[999,2083],[999,2166],[999,2249],[999,2336],[999,2416],[999,2505],[999,2582],[999,2666],[999,2749],[999,2832],[999,2922],[999,2999],[999,3082],[999,3172],[999,3249],[999,3332],[999,3416],[999,3499],[999,3582],[999,3666],[999,3755],[999,3832],[999,3919],[999,3999],[999,4082],[999,4166],[999,4249],[999,4332],[999,4416],[999,4499],[999,4582],[999,4665],[999,4749],[999,4832],[999,4922],[85.7,5006],[87.5,5089],[88.2,5165],[89.6,5253],[90.5,5338],[90.6,5415],[91.3,5499],[94.3,5589],[96.3,5672],[96.6,5755],[97.2,5832],[97.8,5915],[97.8,5999],[97.8,6082],[97.8,6165],[97.6,6249],[97.6,6332],[97.5,6421],[97.3,6505],[97.3,6582],[97.3,6665],[97.3,6749],[97.3,6832],[97.3,6915],[97.3,6998],[97.3,7082],[97.3,7165],[97.3,7249],[97.3,7332],[97.3,7415],[97.3,7498],[97.3,7582],[97.3,7665],[97.3,7748],[97.3,7832],[97.3,7915],[97.3,7998],[97.3,8082],[97.3,8165],[97.3,8248],[97.3,8332],[97.3,8415],[97.3,8498],[97.3,8582],[97.3,8665],[97.3,8748],[97.3,8832],[97.3,8915],[97.3,8998],[97.3,9081],[97.3,9165],[97.3,9248],[97.3,9332],[97.3,9415],[97.3,9498],[97.3,9581],[97.3,9665],[97.3,9755],[97.3,9831],[97.3,9915],[97.3,9998],[97.3,10088],[97.3,10165],[97.3,10248],[97.3,10331],[97.3,10415],[97.3,10504],[97.3,10581],[97.3,10671],[97.3,10748],[97.3,10831],[97.3,10915],[97.3,10998],[97.3,11081],[97.3,11165],[97.3,11248],[97.3,11335],[97.3,11415],[97.3,11498],[97.3,11581],[97.3,11665],[97.3,11748],[97.3,11831],[97.3,11914],[97.3,11998],[97.3,12081],[97.3,12164],[97.3,12248],[97.3,12331],[97.3,12414],[97.3,12498],[97.3,12581],[97.7,12665],[97.9,12748],[97.9,12831],[97.9,12921],[97.9,12998],[97.9,13081],[97.9,13164],[98.6,13254],[99,13337],[99,13414],[99.2,13498],[99.3,13581],[99.3,13664],[99.3,13748],[99.3,13831],[99.3,13914],[99.3,13998],[99.3,14081],[99.3,14164]]",419.9273,422.4433,99.27083651,1.5649,"[{""rating"":99.27083651224773,""responseTime"":1.564899999998488}]",space,1.97,,422.4435,Definitely yes,100,422.4459,,,[],,0,4,4,4,1,audio/Narrative7Situation4.wav,audio/Narrative8Situation4.wav,audio/Narrative5Situation4.wav,audio/Narrative6Situation4.wav,3,3,1,2,,,,,,,,,,,,,,,,,,,,,,,,,,,,,,,,,,,,,,,
,,,,,67f3147d939ee392b2741fb5,2025-07-07_19h17.56.514,group3.4_multiperson,2023.2.2,Win32,59.88023952,686c2ebf0248f13bef9af11f,686c7fa19336012acc800a82,,,,,,,,,,,,,,,,,,,,,,,,,,,,,422.4462,1,audio/Narrative8Situation5.wav,424.4597,,424.4597,432.7087,"[[99.1,7839],[98.8,7915],[97.7,8005],[97.6,8088],[97.6,8165],[97.6,8248]]",432.7089,435.2582,97.60416349,1.439,"[{""rating"":97.60416348775227,""responseTime"":1.4389999999999645}]",space,2.004,,435.2584,Partially,50,435.2611,,,[],,0,5,5,5,1,audio/Narrative7Situation5.wav,audio/Narrative8Situation5.wav,audio/Narrative5Situation5.wav,audio/Narrative6Situation5.wav,5,2,5,2,,,,,,,,,,,,,,,,,,,,,,,,,,,,,,,,,,,,,,,
,,,,,67f3147d939ee392b2741fb5,2025-07-07_19h17.56.514,group3.4_multiperson,2023.2.2,Win32,59.88023952,686c2ebf0248f13bef9af11f,686c7fa19336012acc800a82,,,,,,,,,,,,,,,,,,,,,,,,,,,,,435.2613,1,audio/Narrative8Situation6.wav,437.2746,,437.2747,443.7571,"[[91.4,839],[84.5,923],[80.3,1006],[78.2,1089],[77.7,1166],[77.7,1249],[77.7,1332],[77.7,1416],[77.7,1499],[77.7,1582],[77.7,1666],[75.6,1756],[65.7,2505],[59.3,2589],[56.1,2672],[54.5,2756],[52.8,2839],[50.7,2939],[50.7,3015],[50.7,3102],[50.7,3182],[50.7,3272],[50.7,3349],[50.7,3432],[50.7,3515],[50.7,3599],[50.7,3682],[50.7,3766],[50.7,3849],[50.7,3932],[50.7,4015],[50.7,4099],[50.7,4182],[50.7,4265],[50.7,4349],[50.7,4432],[50.7,4521],[50.7,4599],[50.7,4682],[50.7,4765],[50.7,4849],[50.7,4938],[50.7,5015],[50.7,5099],[50.7,5182],[50.7,5265],[50.7,5352],[50.7,5432],[50.7,5515],[50.7,5599],[50.7,5682],[50.7,5769],[50.7,5849],[50.7,5932],[50.7,6015],[50.7,6098],[50.7,6182],[50.7,6265],[50.7,6348],[50.6,6432]]",443.7572,446.2568,51.45833492,1.4594,"[{""rating"":51.45833492279053,""responseTime"":1.4593999999984817}]",space,1.9555,,446.2568,Not at all,0,446.2607,,,[],,0,6,6,6,1,audio/Narrative7Situation6.wav,audio/Narrative8Situation6.wav,audio/Narrative5Situation6.wav,audio/Narrative6Situation6.wav,3,2,3,2,,,,,,,,,,,,,,,,,,,,,,,,,,,,,,,,,,,,,,,
,,,,,67f3147d939ee392b2741fb5,2025-07-07_19h17.56.514,group3.4_multiperson,2023.2.2,Win32,59.88023952,686c2ebf0248f13bef9af11f,686c7fa19336012acc800a82,,,,,,,,,,,,,,,,,,,,,,,,,,,,,446.2611,1,audio/Narrative8Situation7.wav,449.2729,,449.2729,461.3712,"[[70.3,9165],[70.8,9248],[71.1,9332],[71.1,9415],[71.1,9498],[71.7,9588],[72.4,9671],[72.9,9748],[73.8,9838],[75.2,9921],[77.7,10004],[80.4,10088],[82.8,10169],[85,10255],[86.8,10338],[87.4,10415],[87.5,10499],[87.5,10581],[87.5,10665],[87.5,10748],[87.5,10831],[87.5,10915],[87.5,10998],[87.5,11081],[87.5,11165],[88.1,11254],[90.1,11338],[90.7,11421],[91,11498],[91,11581],[91,11665],[91,11748],[91,11831],[91,11915],[91,11998],[91,12081]]",461.3713,464.7772,91.0416762,1.9722,"[{""rating"":91.04167620340984,""responseTime"":1.9722000000029993}]",space,2.8586,,464.7773,Partially,50,464.7796,,,[],,0,7,7,7,1,audio/Narrative7Situation7.wav,audio/Narrative8Situation7.wav,audio/Narrative5Situation7.wav,audio/Narrative6Situation7.wav,5,3,4,5,,,,,,,,,,,,,,,,,,,,,,,,,,,,,,,,,,,,,,,
,,,,,67f3147d939ee392b2741fb5,2025-07-07_19h17.56.514,group3.4_multiperson,2023.2.2,Win32,59.88023952,686c2ebf0248f13bef9af11f,686c7fa19336012acc800a82,,,,,,,,,,,,,,,,,,,,,,,,,,,,,464.7798,1,audio/Narrative8Situation8.wav,467.7869,,467.787,480.6519,"[[81,5089],[69.1,5172],[62.8,5255],[57.9,5339],[55,5422],[52.3,5505],[49.5,5589],[49.2,5665],[48.5,5749],[47.8,5832],[47,5922],[46.1,6005],[44.6,6089],[43.1,6172],[41.6,6255],[40.7,6332],[40.7,6415],[40.5,6499],[40.2,6586],[40.2,6665],[40.2,6748],[40.2,6832],[40.2,6915],[40.2,6998],[40.2,7082],[40.2,7165],[40.2,7248],[39.9,7332],[39.3,7415],[38.6,7505],[38.4,7582],[37.8,7672],[37.6,7755],[32.3,7838],[30.8,7915],[30.8,7998],[30.8,8082],[30.7,8165],[30.7,8254],[30.7,8332],[30.6,8421],[30.5,8498],[30.4,8582],[30.4,8665],[30.4,8748],[30.4,8832],[30.4,8918],[30.4,8998],[30.4,9081],[30.4,9165],[30.4,9248],[30.5,9332],[30.9,9415],[32.5,9505],[32.5,9581],[32.5,9665],[32.6,9748],[33.1,9831],[33.2,9915],[33.2,9998],[33.2,10081],[33.2,10165],[33.2,10248],[33.2,10331],[33.2,10415],[33.2,10498],[33.2,10588],[33.3,10665],[40.3,10754],[57.2,11248],[57.2,11336],[57.1,11414],[57.1,11498],[57.1,11581],[57.1,11665],[57.1,11748],[57.1,11831],[57.1,11914],[57.1,11998],[57.1,12081],[57.1,12164],[57.1,12248],[57.1,12331],[57.1,12414],[57.1,12498],[57.1,12581],[57.1,12664],[57.1,12754],[57.1,12831]]",480.652,483.9347,55.62500159,2.2462,"[{""rating"":55.62500158945719,""responseTime"":2.2462000000030002}]",space,2.7373,,483.9347,Partially,50,483.9362,,,[],,0,8,8,8,1,audio/Narrative7Situation8.wav,audio/Narrative8Situation8.wav,audio/Narrative5Situation8.wav,audio/Narrative6Situation8.wav,2,3,3,5,,,,,,,,,,,,,,,,,,,,,,,,,,,,,,,,,,,,,,,
,,,,,67f3147d939ee392b2741fb5,2025-07-07_19h17.56.514,group3.4_multiperson,2023.2.2,Win32,59.88023952,686c2ebf0248f13bef9af11f,686c7fa19336012acc800a82,,,,,,,,,,,,,,,,,,,,,,,,,,,,,483.9365,1,audio/Narrative8Situation9.wav,486.951,,486.9511,498.2995,"[[999,0],[999,83],[999,166],[999,249],[999,332],[999,416],[999,499],[999,582],[999,666],[999,749],[999,832],[999,916],[999,1005],[999,1082],[999,1166],[999,1249],[999,1332],[999,1416],[999,1499],[999,1589],[999,1672],[999,1749],[999,1832],[999,1916],[999,1999],[999,2082],[999,2166],[999,2249],[999,2338],[999,2416],[999,2499],[999,2582],[999,2672],[999,2749],[999,2832],[999,2916],[999,2999],[999,3082],[999,3165],[999,3249],[999,3338],[999,3415],[999,3499],[999,3582],[999,3666],[999,3749],[999,3832],[999,3915],[999,3999],[999,4082],[999,4169],[999,4249],[999,4332],[999,4415],[999,4499],[999,4582],[999,4665],[999,4749],[999,4832],[999,4922],[64.2,5005],[71.6,5088],[79.7,5172],[85.7,5255],[89.3,5338],[91,5422],[91.1,5499],[91.1,5582],[91.1,5665],[91.1,5749],[91.1,5832],[91.1,5922],[91.1,5998],[91.1,6082],[91.1,6165],[91.1,6248],[91.1,6332],[91.1,6415],[91.1,6498],[91.1,6582],[91.1,6665],[91.1,6748],[91.1,6832],[91.1,6915],[91.1,6998],[91.1,7082],[91.1,7165],[91.1,7248],[91.1,7331],[91.1,7418],[91.1,7498],[91.1,7582],[91.1,7665],[91.1,7748],[91.1,7831],[91.1,7921],[91.1,7998],[91.1,8081],[91.1,8165],[91.1,8248],[91.1,8331],[91.1,8415],[91.1,8498],[91.1,8581],[91.1,8665],[91.1,8748],[91.1,8831],[91.1,8915],[91.1,8998],[91.1,9081],[91.1,9165],[91.1,9252],[91.1,9331],[91.1,9415],[91.1,9498],[91.1,9581],[91.1,9664],[91.1,9748],[91.1,9831],[91.1,9915],[91.1,9998],[91.1,10087],[91.1,10165],[91.1,10248],[91.1,10331],[91.1,10414],[91.1,10498],[91.1,10581],[91.1,10664],[91.1,10748],[91.1,10831],[91.1,10914],[91.1,10998],[91.1,11081],[91.1,11164],[91.1,11248],[91.1,11331]]",498.2996,502.1489,91.35416349,2.146,"[{""rating"":91.35416348775227,""responseTime"":2.146000000000072}]",space,3.3078,,502.1489,Definitely yes,100,502.1526,,,[],,0,9,9,9,1,audio/Narrative7Situation9.wav,audio/Narrative8Situation9.wav,audio/Narrative5Situation9.wav,audio/Narrative6Situation9.wav,2,3,3,4,,,,,,,,,,,,,,,,,,,,,,,,,,,,,,,,,,,,,,,
,,,,,67f3147d939ee392b2741fb5,2025-07-07_19h17.56.514,group3.4_multiperson,2023.2.2,Win32,59.88023952,686c2ebf0248f13bef9af11f,686c7fa19336012acc800a82,,,,,,,,,,,,,,,,,,,,,,,,,,,,,502.153,1,audio/Narrative7Situation1.wav,504.1652,,504.1653,560.0573,"[[999,0],[999,83],[999,172],[999,249],[999,333],[999,416],[999,499],[999,583],[999,666],[999,749],[999,833],[999,916],[999,999],[999,1082],[999,1166],[999,1249],[999,1332],[999,1416],[999,1499],[999,1583],[999,1666],[999,1749],[999,1832],[999,1916],[999,1999],[999,2082],[999,2166],[999,2249],[999,2332],[999,2416],[999,2499],[999,2582],[999,2666],[999,2749],[999,2832],[999,2916],[999,2999],[999,3082],[999,3166],[999,3249],[999,3332],[999,3416],[999,3499],[999,3582],[999,3666],[999,3749],[999,3832],[999,3915],[999,3999],[999,4082],[999,4165],[999,4249],[999,4332],[999,4415],[999,4499],[999,4582],[999,4665],[999,4749],[999,4832],[999,4915],[999,4999],[999,5082],[999,5165],[999,5249],[999,5338],[999,5422],[999,5505],[999,5588],[999,5672],[999,5749],[999,5832],[999,5921],[999,5999],[999,6082],[999,6165],[999,6248],[999,6332],[999,6415],[999,6498],[999,6582],[999,6665],[999,6752],[999,6832],[80.3,6921],[80.9,6998],[80.9,7082],[80.9,7165],[80.9,7253],[80.9,7332],[80.9,7422],[80.9,7498],[80.9,7582],[80.9,7665],[80.9,7748],[80.7,7838],[80.7,7915],[80.7,7998],[80.7,8081],[80.7,8165],[81.7,8255],[82.3,8331],[82.5,8415],[82.5,8498],[82.5,8581],[82.5,8665],[83.3,8755],[84.6,8838],[86.8,8922],[87.9,9004],[89.1,9104],[89.1,9181],[90.4,9271],[91.4,9352],[92,9438],[92,9515],[92,9598],[92,9681],[92.1,9765],[92.5,9854],[92.6,9931],[92.9,10018],[93.4,10098],[94.1,10181],[94.1,10264],[94.1,10348],[94.1,10431],[94.1,10514],[94.1,10598],[94.1,10681],[94.1,10764],[94.1,10848],[94.1,10931],[94.1,11014],[94.1,11098],[94.1,11181],[94.1,11264],[94.1,11348],[94.1,11431],[94.1,11514],[94.1,11598],[94.1,11681],[94.1,11764],[94.1,11848],[94.1,11931],[94.1,12014],[94.1,12098],[94.1,12181],[94.1,12264],[94.1,12348],[94.1,12431],[94.1,12514],[94.1,12598],[94.1,12681],[94.1,12764],[94.1,12848],[94.1,12931],[94.1,13014],[94.1,13098],[94.1,13181],[94.1,13264],[94.1,13347],[94.1,13431],[94.1,13514],[94.1,13598],[94.1,13681],[94.1,13764],[95.7,13854],[96.9,13937],[97.1,14020],[97.9,14104],[98.5,14187],[98.9,14264],[99,14354],[99,14434],[99,14514],[99,14597],[99,14681],[99,14764],[99,14847],[99,14931],[99,15014],[99,15098],[99,15181],[99,15264],[99,15353],[99,15431],[99,15514],[99,15597],[99,15681],[99,15764],[99,15847],[99,15931],[99,16014],[99,16097],[99,16180],[99,16264],[99,16353],[99,16430],[99,16514],[99,16597],[99,16681],[99,16764],[99,16847],[99,16930],[99,17014],[99,17097],[99,17180],[99,17264],[99,17347],[99,17430],[99,17514],[99,17597],[99,17680],[99,17763],[99,17847],[99,17930],[99,18013],[99,18097],[99,18180],[99,18263],[99,18347],[99,18430],[99,18520],[99,18597],[99,18680],[99,18763],[99,18847],[99,18930],[99,19013],[99,19097],[99,19180],[99,19263],[99,19347],[99,19430],[99,19513],[99,19597],[99,19680],[99,19763],[99,19846],[99,19930],[99,20013],[99,20096],[99,20180],[99,20263],[99,20346],[99,20430],[99,20513],[99,20596],[99,20680],[99,20763],[99,20846],[99,20930],[99,21013],[99,21096],[99,21180],[99,21263],[99,21346],[99,21430],[99,21513],[99,21596],[99,21680],[99,21763],[99,21846],[99,21930],[99,22019],[99,22096],[99,22186],[99,22263],[99,22346],[99,22430],[99,22513],[99,22596],[99,22680],[99,22763],[99,22846],[99,22929],[99,23013],[99,23096],[99,23179],[99,23263],[99,23346],[99,23429],[99,23513],[99,23596],[99,23679],[99,23763],[99,23850],[99,23929],[99,24013],[99,24096],[99,24179],[99,24269],[99,24346],[99,24436],[99,24513],[99,24596],[99,24679],[99,24763],[99,24846],[99,24929],[99,25019],[99,25096],[99,25179],[99,25262],[99,25346],[99,25429],[99,25516],[99,25596],[99,25679],[99,25762],[99,25846],[99,25929],[99,26012],[99,26096],[99,26179],[99,26268],[99,26346],[99,26429],[99,26512],[99,26596],[99,26679],[99,26762],[99,26846],[99,26935],[99,27012],[99,27096],[99,27179],[99,27262],[99,27346],[99,27429],[99,27518],[99,27595],[99,27679],[99,27762],[99,27845],[99,27935],[99,28012],[99,28101],[99,28179],[99,28262],[99,28345],[99,28429],[99,28518],[99,28595],[99,28679],[99,28762],[99,28845],[99,28929],[99,29012],[99,29095],[99,29179],[99,29262],[99,29345],[99,29429],[99,29512],[99,29595],[99,29679],[99,29762],[99,29845],[99,29928],[99,30012],[99,30095],[99,30178],[99,30262],[99,30345],[99,30428],[99,30518],[99,30595],[99,30678],[99,30762],[99,30845],[99,30928],[99,31012],[99,31095],[99,31178],[99,31268],[99,31345],[99,31428],[99,31512],[99,31595],[99,31678],[99,31762],[99,31851],[99,31928],[99,32012],[99,32095],[99,32178],[99,32265],[99,32345],[99,32432],[99,32511],[99,32595],[99,32678],[99,32761],[99,32845],[99,32928],[99,33011],[99,33095],[99,33178],[99,33261],[99,33345],[99,33428],[99,33511],[99,33595],[99,33678],[99,33761],[99,33845],[99,33928],[99,34011],[99,34095],[99,34178],[99,34261],[99,34345],[99,34428],[99,34511],[99,34595],[99,34678],[99,34761],[99,34844],[99,34928],[99,35011],[99,35094],[99,35178],[99,35261],[99,35344],[99,35428],[99,35511],[99,35594],[99,35678],[99,35761],[99,35844],[99,35928],[99,36011],[99,36094],[99,36178],[99,36261],[99,36344],[99,36428],[99,36511],[99,36594],[99,36678],[99,36761],[99,36844],[99,36927],[99,37011],[99,37094],[99,37184],[99,37261],[99,37344],[99,37428],[99,37511],[99,37594],[99,37684],[99,37761],[99,37844],[99,37927],[99,38011],[99,38094],[99,38177],[99,38261],[99,38344],[99,38427],[99,38511],[99,38594],[99,38681],[99,38761],[99,38844],[99,38927],[99,39010],[99,39094],[99,39177],[99,39260],[99,39344],[99,39427],[99,39517],[99,39594],[99,39677],[99,39760],[99,39844],[99,39927],[99,40010],[99,40094],[99,40177],[99,40260],[99,40344],[99,40427],[99,40510],[99,40594],[99,40677],[99,40760],[99,40844],[99,40933],[99,41010],[99,41094],[99,41177],[99,41260],[99,41344],[99,41427],[99,41510],[99,41593],[99,41677],[99,41760],[99,41843],[99,41927],[99,42010],[99,42093],[99,42177],[99,42260],[99,42343],[99,42427],[99,42510],[99,42593],[99,42677],[99,42760],[99,42843],[99,42933],[99,43010],[99,43093],[99,43183],[99,43260],[99,43343],[99,43427],[99,43516],[99,43593],[99,43677],[99,43760],[99,43843],[99,43926],[99,44010],[99,44093],[99,44183],[99,44260],[99,44343],[99,44426],[99,44510],[99,44593],[99,44676],[99,44760],[99,44843],[99,44926],[99,45010],[99,45093],[99,45183],[99,45260],[99,45343],[99,46043],[99,46126],[99,46209],[99,46293],[99,46376],[99,46459],[99,46543],[99,46626],[99,46709],[99,46793],[99,46876],[99,46959],[99,47043],[99,47126],[99,47216],[99,47293],[99,47376],[99,47459],[99,47543],[99,47626],[99,47709],[99,47793],[99,47876],[99,47959],[99,48043],[99,48126],[99,48209],[99,48293],[99,48376],[99,48459],[99,48543],[99,48626],[99,48709],[99,48792],[99,48876],[99,48959],[99,49042],[99,49126],[99,49215],[99,49292],[99,49376],[99,49459],[99,49542],[99,49626],[99,49709],[99,49792],[99,49876],[99,49959],[99,50042],[99,50126],[99,50209],[99,50292],[99,50376],[99,50459],[99,50542],[99,50626],[99,50709],[99,50792],[99,50876],[99,50959],[99,51042],[99,51126],[99,51209],[99,51292],[99,51376],[99,51459],[99,51542],[99,51625],[99,51709],[99,51792],[99,51875],[99,51959],[99,52042],[99,52125],[99,52209],[99,52292],[99,52375],[99,52459],[99,52542],[99,52625],[99,52709],[99,52792],[99,52875],[99,52959],[99,53042],[99,53132],[99,53209],[99,53292],[99,53375],[99,53459],[99,53542],[99,53625],[99,53708],[99,53792],[99,53875],[99,53958],[99,54042],[99,54125],[99,54208],[99,54292],[99,54375],[99,54458],[99,54542],[99,54625],[99,54708],[99,54792],[99,54875],[99,54958],[99,55042],[99,55125],[99,55208],[99,55292],[99,55375],[99,55458],[99,55542],[99,55625],[99,55708],[99,55791],[99,55875]]",560.0576,564.8733,99.37500954,3.8136,"[{""rating"":99.37500953674316,""responseTime"":3.8135999999940395}]",space,4.2759,,564.8733,Partially,50,564.876,,,[],,0,10,10,10,1,audio/Narrative8Situation1.wav,audio/Narrative7Situation1.wav,audio/Narrative6Situation1.wav,audio/Narrative5Situation1.wav,5,2,2,5,,,,,,,,,,,,,,,,,,,,,,,,,,,,,,,,,,,,,,,
,,,,,67f3147d939ee392b2741fb5,2025-07-07_19h17.56.514,group3.4_multiperson,2023.2.2,Win32,59.88023952,686c2ebf0248f13bef9af11f,686c7fa19336012acc800a82,,,,,,,,,,,,,,,,,,,,,,,,,,,,,564.8762,1,audio/Narrative7Situation2.wav,567.8896,,567.8897,575.3719,"[[999,0],[999,89],[999,172],[999,249],[999,332],[999,416],[999,506],[999,582],[999,666],[999,749],[999,832],[999,922],[999,999],[999,1082],[999,1166],[999,1249],[999,1336],[999,1416],[999,1499],[999,1582],[999,1666],[999,1749],[999,1832],[999,1916],[999,1999],[999,2082],[999,2166],[999,2249],[999,2332],[999,2416],[999,2499],[999,2582],[999,2666],[999,2749],[999,2832],[999,2915],[999,2999],[999,3082],[999,3165],[999,3249],[999,3332],[999,3415],[999,3499],[999,3582],[999,3665],[999,3749],[999,3832],[999,3915],[999,3999],[999,4082],[999,4169],[999,4255],[87.1,4339],[85.5,4422],[84.5,4505],[84,4588],[83,4672],[82.2,4749],[81.6,4832],[81.4,4915],[81.4,4998],[81.4,5082],[81.4,5171],[81.4,5248],[81.4,5332],[81.4,5415],[81.4,5499],[81.4,5582],[81.8,5665],[82.7,5755],[82.8,5832],[83.3,5915],[83.3,5999],[83.3,6082],[83.3,6165],[83.3,6254],[83.3,6332],[83.3,6415],[83.3,6498],[83.3,6588],[83.3,6665],[83.3,6748],[83.3,6832],[83.3,6915],[83.3,6998],[83.3,7082],[83.3,7171],[83.3,7248],[83.3,7332],[83.3,7415]]",575.3721,577.9548,86.25000318,1.7222,"[{""rating"":86.25000317891438,""responseTime"":1.7221999999956097}]",space,2.0334,,577.9548,Definitely yes,100,577.9575,,,[],,0,11,11,11,1,audio/Narrative8Situation2.wav,audio/Narrative7Situation2.wav,audio/Narrative6Situation2.wav,audio/Narrative5Situation2.wav,3,3,3,3,,,,,,,,,,,,,,,,,,,,,,,,,,,,,,,,,,,,,,,
,,,,,67f3147d939ee392b2741fb5,2025-07-07_19h17.56.514,group3.4_multiperson,2023.2.2,Win32,59.88023952,686c2ebf0248f13bef9af11f,686c7fa19336012acc800a82,,,,,,,,,,,,,,,,,,,,,,,,,,,,,577.9577,1,audio/Narrative7Situation3.wav,585.9703,,585.9703,595.2257,"[[74.2,4856],[64.9,4939],[44.8,5605],[45.5,5688],[45.5,5765],[45.4,5849],[45.4,5932],[45.4,6015],[45.4,6099],[45.4,6182],[45.4,6265],[47,6349],[50.4,6438],[51,6515],[51,6598],[51,6682],[51,6765],[51,6848],[51,6932],[51,7015],[51,7098],[51,7182],[51,7265],[51,7348],[51,7435],[51,7515],[54.4,7605],[58.5,7688],[60.3,7771],[60.9,7855],[61.3,7932],[61.7,8019],[61.8,8098],[62,8182],[62.2,8269],[62.2,8355],[62.2,8432],[62.2,8515],[62.2,8598],[62.2,8682],[62.2,8765],[62.2,8848],[62.2,8932],[62.2,9015],[62.2,9098],[62.3,9182]]",595.2258,598.252,68.22916667,1.858,"[{""rating"":68.22916666666666,""responseTime"":1.8579999999999472}]",space,2.486,,598.252,Definitely yes,100,598.2536,,,[],,0,12,12,12,1,audio/Narrative8Situation3.wav,audio/Narrative7Situation3.wav,audio/Narrative6Situation3.wav,audio/Narrative5Situation3.wav,4,8,5,3,,,,,,,,,,,,,,,,,,,,,,,,,,,,,,,,,,,,,,,
,,,,,67f3147d939ee392b2741fb5,2025-07-07_19h17.56.514,group3.4_multiperson,2023.2.2,Win32,59.88023952,686c2ebf0248f13bef9af11f,686c7fa19336012acc800a82,,,,,,,,,,,,,,,,,,,,,,,,,,,,,598.2539,1,audio/Narrative7Situation4.wav,601.2681,,601.2682,612.9832,"[[63.4,8671],[52.3,8755],[44.8,8836],[41.5,8922],[40,9005],[38.9,9088],[37.4,9172],[36.7,9248],[36.6,9331],[36.6,9415],[36.4,9498],[36,9587],[35.5,9665],[35,9748],[35,9831],[35,9915],[35,9998],[35,10081],[35,10165],[35,10254],[34.7,10331],[34.6,10415],[34.3,10498],[34.2,10588],[33.9,10665],[33.4,10754],[33,10838],[32.2,10921],[30.1,11005],[27.1,11088],[24.5,11171],[22.6,11254],[21.6,11338],[19.8,11421],[18.6,11498],[18.5,11581],[18.4,11665]]",612.9833,616.6327,17.29166508,2.36,"[{""rating"":17.291665077209473,""responseTime"":2.3599999999999}]",space,3.101,,616.6329,Not at all,0,616.6366,,,[],,0,13,13,13,1,audio/Narrative8Situation4.wav,audio/Narrative7Situation4.wav,audio/Narrative6Situation4.wav,audio/Narrative5Situation4.wav,3,3,2,1,,,,,,,,,,,,,,,,,,,,,,,,,,,,,,,,,,,,,,,
,,,,,67f3147d939ee392b2741fb5,2025-07-07_19h17.56.514,group3.4_multiperson,2023.2.2,Win32,59.88023952,686c2ebf0248f13bef9af11f,686c7fa19336012acc800a82,,,,,,,,,,,,,,,,,,,,,,,,,,,,,616.6368,1,audio/Narrative7Situation5.wav,621.6486,,621.6487,630.1307,"[[18,3089],[18.3,3172],[19,3255],[19,3332],[19,3416],[19,3499],[19,3582],[19,3665],[19,3753],[19,3832],[19,3915],[19.3,4005],[20,4088],[20.5,4165],[20.8,4249],[21.4,4338],[21.4,4415],[21.4,4499],[21.4,4584],[21.4,4665],[21.4,4749],[21.4,4832],[21.4,4915],[21.4,4999],[21.4,5082],[21.4,5165],[21.4,5249],[21.4,5332],[21.4,5415],[21.4,5505],[21.4,5582],[21.4,5665],[21.4,5749],[21.4,5832],[21.4,5915],[21.4,5999],[21.4,6082],[21.4,6165],[22.3,6249],[26.9,6338],[34.1,6422],[36.5,6505],[38.4,6588],[40.5,6672],[41.1,6748],[42.6,6838],[43.6,6922],[44,6999],[44.5,7085],[44.5,7165],[44.5,7248],[44.5,7332],[44.9,7415],[45.6,7498],[46.7,7588],[47.4,7671],[48.3,7755],[48.4,7832],[48.8,7915],[48.8,7998],[48.8,8081],[48.8,8165],[48.8,8248],[48.8,8331],[48.8,8415]]",630.1309,633.0303,48.75000318,1.5224,"[{""rating"":48.75000317891438,""responseTime"":1.5223999999984699}]",space,2.358,,633.0304,Partially,50,633.0328,,,[],,0,14,14,14,1,audio/Narrative8Situation5.wav,audio/Narrative7Situation5.wav,audio/Narrative6Situation5.wav,audio/Narrative5Situation5.wav,2,5,2,5,,,,,,,,,,,,,,,,,,,,,,,,,,,,,,,,,,,,,,,
,,,,,67f3147d939ee392b2741fb5,2025-07-07_19h17.56.514,group3.4_multiperson,2023.2.2,Win32,59.88023952,686c2ebf0248f13bef9af11f,686c7fa19336012acc800a82,,,,,,,,,,,,,,,,,,,,,,,,,,,,,633.0332,1,audio/Narrative7Situation6.wav,636.0466,,636.0466,646.0287,"[[999,0],[999,83],[999,166],[999,256],[999,333],[999,416],[999,499],[999,583],[999,666],[999,749],[999,833],[999,916],[999,999],[999,1083],[999,1166],[999,1249],[999,1333],[999,1416],[999,1499],[999,1582],[999,1666],[999,1749],[999,1833],[999,1916],[999,1999],[999,2082],[999,2166],[999,2255],[999,2332],[999,2416],[999,2499],[999,2582],[56.6,2672],[63,2755],[66.5,2839],[69.9,2922],[72.1,3006],[75.6,3089],[78.1,3172],[79.4,3256],[80.5,3343],[80.5,3416],[80.5,3499],[80.5,3582],[80.5,3671],[80.5,3758],[80.5,3832],[80.5,3916],[80.5,3999],[80.5,4082],[80.5,4166],[80.5,4249],[80.5,4332],[80.5,4416],[80.5,4499],[80.5,4588],[80.5,4666],[80.5,4749],[80.5,4832],[80.8,4922],[82.1,5003],[86.1,5089],[88.7,5172],[89.9,5255],[90,5332],[90,5422],[90,5499],[90,5582],[90,5665],[90,5749],[90,5832],[90,5915],[90,5999],[90,6082],[90,6165],[90,6249],[90,6332],[90,6415],[90,6499],[90,6582],[90,6665],[90,6749],[90,6832],[90,6915],[90,6998],[90,7082],[90,7165],[90,7248],[90,7332],[90,7415],[90,7498],[90,7582],[90,7665],[90,7748],[90,7832],[90,7915],[90,7998],[90,8082],[90,8165],[90,8248],[90,8331],[90,8415],[90,8498],[90,8581],[90,8671],[90,8752],[90,8832],[90,8915],[90,8998],[90,9082],[90,9165],[90,9248],[90,9331],[90,9415],[90,9498],[90,9581],[90,9665],[90,9748],[90,9831],[90,9915]]",646.0289,648.0157,90.00000954,1.1557,"[{""rating"":90.00000953674316,""responseTime"":1.1557000000029802}]",space,1.4383,,648.0158,Partially,50,648.0179,,,[],,0,15,15,15,1,audio/Narrative8Situation6.wav,audio/Narrative7Situation6.wav,audio/Narrative6Situation6.wav,audio/Narrative5Situation6.wav,2,3,2,3,,,,,,,,,,,,,,,,,,,,,,,,,,,,,,,,,,,,,,,
,,,,,67f3147d939ee392b2741fb5,2025-07-07_19h17.56.514,group3.4_multiperson,2023.2.2,Win32,59.88023952,686c2ebf0248f13bef9af11f,686c7fa19336012acc800a82,,,,,,,,,,,,,,,,,,,,,,,,,,,,,648.0182,1,audio/Narrative7Situation7.wav,653.0275,,653.0275,670.2085,"[[89.7,5588],[89.7,5665],[89.7,5749],[89.7,5832],[89.7,5915],[89.7,5999],[89.7,6082],[89.7,6165],[89.7,6249],[89.7,6332],[89.7,6415],[89.7,6499],[89.7,6582],[89.7,6665],[89.7,6749],[89.7,6836],[89.7,6915],[89.7,6999],[88.9,7088],[88.4,7165],[87.6,7255],[87.4,7332],[87.4,7415],[87.4,7505],[87.4,7588],[87.4,7665],[87.4,7755],[87.4,7832],[87.4,7915],[87.4,8004],[87.4,8082],[87.4,8165],[87.4,8248],[87.4,8332],[87.4,8415],[87.4,8498],[87.4,8582],[87.4,8665],[87.4,8748],[87.4,8832],[87.4,8915],[87.4,8998],[87.4,9088],[87.4,9165],[87.4,9248],[87.4,9332],[87.4,9415],[87.4,9498],[87.4,9581],[87.4,9665],[87.4,9754],[87.4,9831],[87.4,9915],[87.4,9998],[87.4,10081],[87.4,10165],[87.4,10248],[87.4,10331],[87.4,10415],[87.4,10498],[87.4,10588],[87.4,10665],[87.4,10748],[87.4,10837],[87.4,10915],[87.4,10998],[87.4,11081],[87.4,11165],[87.4,11248],[87.4,11331],[87.4,11421],[87.4,11504],[87.4,11581],[87.4,11668],[86.9,11748],[86.8,11831],[86.3,11914],[86.1,11998],[85.7,12081],[85.7,12164],[85.7,12248],[85.7,12331],[85.7,12414],[85.8,12498],[86.7,12581],[86.8,12664],[87.3,12748],[87.8,12831],[87.8,12918],[87.8,12998],[87.8,13081],[87.8,13164],[87.8,13248],[87.8,13331],[87.8,13414],[87.8,13498],[87.8,13581],[87.8,13664],[87.8,13747],[87.8,13831],[87.8,13914],[87.8,13997],[87.8,14081],[87.8,14164],[87.8,14247],[87.8,14331],[87.8,14414],[87.8,14497],[87.8,14581],[87.8,14664],[87.8,14747],[87.8,14831],[87.8,14914],[87.8,14997],[87.8,15081],[87.8,15164],[87.8,15247],[87.8,15331],[87.8,15414],[87.8,15497],[87.8,15581],[87.8,15664],[87.8,15753],[87.8,15831],[87.8,15914],[87.8,15997],[87.8,16081],[87.8,16164],[87.8,16247],[87.8,16331],[87.8,16418],[87.8,16497],[87.8,16580],[87.8,16664],[87.8,16747],[87.8,16831],[87.8,16914],[87.8,16997],[87.8,17080],[87.8,17164]]",670.2086,673.1914,99.06250636,2.1224,"[{""rating"":99.06250635782878,""responseTime"":2.1223999999986063}]",space,2.4405,,673.1915,Partially,50,673.1929,,,[],,0,16,16,16,1,audio/Narrative8Situation7.wav,audio/Narrative7Situation7.wav,audio/Narrative6Situation7.wav,audio/Narrative5Situation7.wav,3,5,5,4,,,,,,,,,,,,,,,,,,,,,,,,,,,,,,,,,,,,,,,
,,,,,67f3147d939ee392b2741fb5,2025-07-07_19h17.56.514,group3.4_multiperson,2023.2.2,Win32,59.88023952,686c2ebf0248f13bef9af11f,686c7fa19336012acc800a82,,,,,,,,,,,,,,,,,,,,,,,,,,,,,673.1931,1,audio/Narrative7Situation8.wav,675.2078,,675.2078,685.2397,"[[99.4,6422],[99.5,6505],[91.7,7605],[91.3,7682],[91.1,7765],[91.1,7848],[91.1,7932],[91.1,8015],[91.1,8098],[91.1,8182],[91.1,8265],[91.1,8348],[91.1,8432],[91.1,8515],[91.1,8598],[91.1,8682],[91.1,8765],[91.1,8848],[91.1,8932],[91.1,9015],[91.1,9098],[91.1,9182],[91.1,9265],[91.1,9348],[91.5,9438],[91.7,9515],[92.3,9605],[92.4,9681],[92.4,9765],[92.4,9848],[92.7,9931],[92.8,10015]]",685.2398,687.5794,96.25000954,1.839,"[{""rating"":96.25000953674316,""responseTime"":1.8389999999999418}]",space,1.7835,,687.5795,Partially,50,702.404,50,7.0875,"[{""rating"":50,""responseTime"":7.087499999999977}]",space,0,17,17,17,1,audio/Narrative8Situation8.wav,audio/Narrative7Situation8.wav,audio/Narrative6Situation8.wav,audio/Narrative5Situation8.wav,3,2,5,3,,,14.2893,,,,,,,,,,,,,,,,,,,,,,,,,,,,,,,,,,,,
,,,,,67f3147d939ee392b2741fb5,2025-07-07_19h17.56.514,group3.4_multiperson,2023.2.2,Win32,59.88023952,686c2ebf0248f13bef9af11f,686c7fa19336012acc800a82,,,,,,,,,,,,,,,,,,,,,,,,,,,,,702.4044,1,audio/Narrative7Situation9.wav,704.4203,,704.4203,713.0692,"[[52.6,2589],[55.9,2673],[57,2756],[57.7,2839],[58.9,2922],[60.2,2999],[62.5,3089],[63.9,3170],[65.1,3256],[66.6,3340],[68.2,3422],[69.2,3505]]",713.0694,717.7685,74.68750477,3.1385,"[{""rating"":74.68750476837158,""responseTime"":3.138500000000022}]",space,4.1511,,717.7685,Partially,50,717.7701,,,[],,0,18,18,18,1,audio/Narrative8Situation9.wav,audio/Narrative7Situation9.wav,audio/Narrative6Situation9.wav,audio/Narrative5Situation9.wav,3,2,4,3,,,,,,,,,,,,,,,,,,,,,,,,,,,,,,,,,,,,,,,
,,,,,67f3147d939ee392b2741fb5,2025-07-07_19h17.56.514,group3.4_multiperson,2023.2.2,Win32,59.88023952,686c2ebf0248f13bef9af11f,686c7fa19336012acc800a82,,,,,,,,,,,,,,,,,,,,,,,,,,,724.5184,727.1005,727.1175,2,audio/Narrative13Situation2.wav,727.1176,,727.1176,756.8964,"[[74.4,1488],[74,1572],[51.9,2905],[51.4,2989],[51,3071],[50.8,3149],[50.8,3232],[50.8,3315],[50.8,3399],[50.8,3482],[50.8,3565],[50.8,3649],[50.8,3732],[50.8,3815],[50.8,3898],[50.8,3982],[50.8,4065],[50.8,4148],[50.8,4232],[50.8,4315],[50.8,4398],[50.8,4488],[50.8,4565],[50.8,4648],[50.8,4732],[50.8,4815],[50.8,4898],[50.8,4982],[50.8,5065],[50.8,5148],[50.8,5231],[50.8,5315],[50.8,5398],[50.8,5481],[50.8,5565],[50.8,5652],[50.8,5731],[50.8,5815],[50.8,5898],[50.8,5981],[50.8,6065],[50.8,6148],[50.8,6231],[50.8,6315],[50.8,6398],[50.8,6481],[50.8,6565],[50.8,6648],[50.8,6731],[50.8,6815],[50.8,6898],[50.8,6987],[50.8,7065],[50.8,7148],[50.8,7231],[50.8,7314],[50.8,7398],[50.8,7481],[50.8,7565],[50.8,7648],[50.8,7731],[50.8,7814],[50.8,7898],[50.8,7981],[50.8,8064],[50.8,8148],[50.8,8231],[50.8,8314],[50.8,8398],[50.8,8481],[50.8,8564],[50.8,8648],[50.8,8731],[50.8,8814],[50.8,8898],[50.8,8981],[50.8,9064],[50.8,9148],[50.8,9231],[50.8,9314],[50.8,9398],[50.8,9481],[50.8,9564],[50.8,9648],[52.3,9738],[54.7,9821],[56.6,9904],[57.3,9981],[58.1,10071],[58.6,10154],[58.6,10231],[58.6,10314],[58.6,10398],[58.9,10487],[58.9,10564],[58.9,10648],[58.9,10731],[59.4,10821],[60,10904],[60.7,10987],[60.9,11064],[61.1,11154],[61.5,11254],[61.9,11331],[61.9,11418],[61.9,11497],[61.9,11581],[61.9,11664],[61.9,11747],[61.9,11831],[61.9,11920],[61.9,11997],[61.9,12081],[63.1,12170],[68,12254],[70.3,12331],[71.4,12420],[73.1,12504],[75,12587],[75,12664],[75,12747],[75,12831],[75,12920],[75,12997],[75,13080],[75,13164],[75,13247],[74.1,13337],[73.8,13414],[73.3,13497],[73.1,13581],[73,13664],[73,13747],[73,13836],[73,13914],[73,13997],[73,14080],[73,14164],[73,14247],[73,14330],[73.1,14414],[74.8,14504],[75.9,14587],[76.6,14670],[76.6,14747],[76.6,14830],[76.6,14913],[76.6,14997],[76.6,15080],[76.6,15163],[76.6,15247],[76.6,15330],[76.6,15413],[76.6,15497],[76.6,15580],[76.6,15663],[76.6,15747],[76.6,15830],[76.6,15913],[76.6,15997],[76.6,16080],[76.6,16163],[76.6,16247],[76.6,16330],[76.6,16413],[76.6,16500],[76.6,16586],[76.6,16663],[76.6,16747],[76.6,16830],[76.6,16913],[76.6,16997],[76.6,17080],[76.6,17163],[76.6,17246],[76.6,17330],[76.6,17413],[76.6,17496],[76.6,17580],[76.6,17663],[76.6,17746],[76.6,17830],[76.6,17913],[76.6,17996],[76.6,18080],[76.6,18163],[76.6,18246],[76.6,18330],[76.6,18413],[76.6,18496],[76.6,18580],[76.6,18663],[76.6,18746],[76.6,18830],[76.6,18919],[76.6,18996],[76.6,19080],[78.1,19169],[79.2,19253],[79.5,19336],[79.5,19413],[79.5,19496],[79.6,19586],[79.6,19663],[79.7,19746],[80.7,19836],[81.3,19913],[81.6,19996],[81.8,20079],[81.8,20167],[81.9,20246],[82.2,20336],[82.4,20413],[82.4,20496],[82.6,20579],[83.1,20663],[83.6,20746],[84,20836],[84.4,20919],[84.8,20996],[84.9,21079],[84.9,21163],[84.9,21246],[84.9,21336],[84.9,21413],[84.9,21496],[84.9,21579],[84.9,21663],[84.9,21750],[84.9,21829],[84.9,21913],[84.9,21996],[84.9,22079],[84.9,22163],[84.9,22246],[84.9,22329],[84.9,22419],[84.9,22496],[84.9,22579],[84.9,22662],[84.9,22746],[84.9,22829],[84.9,22913],[84.9,22996],[84.9,23079],[84.9,23162],[84.9,23246],[84.9,23329],[84.9,23412],[84.9,23496],[84.9,23579],[84.9,23669],[84.9,23746],[84.9,23829],[84.9,23912],[84.9,23996],[84.9,24079],[84.9,24162],[84.9,24246],[84.9,24329],[84.9,24412],[84.9,24495],[84.9,24579],[84.9,24662],[84.9,24745],[84.9,24829],[84.9,24912],[84.9,24995],[84.9,25079],[84.9,25162],[84.9,25245],[84.9,25329],[84.9,25412],[84.9,25495],[84.9,25579],[84.9,25662],[84.9,25745],[84.9,25829],[84.9,25912],[84.9,25995],[87.2,26085],[88.2,26162],[88.5,26252],[88.5,26329],[88.5,26418],[88.5,26501],[88.5,26578],[88.5,26662],[88.5,26745],[88.5,26828],[88.5,26912],[88.5,26995],[88.5,27078],[88.5,27162],[88.5,27245],[88.5,27328],[88.5,27412],[88.5,27495],[88.5,27578],[88.5,27662],[88.5,27745],[88.5,27828],[88.5,27912],[88.5,27995],[88.5,28078],[88.5,28162],[88.5,28245],[88.5,28328],[89,28412],[97.5,29582],[97.2,29668],[97,29745]]",756.8966,756.8988,,,[],,,,756.8989,Partially,50,756.9008,,,[],,0,0,0,0,1,audio/Narrative13Situation2.wav,audio/Narrative13Situation2.wav,audio/Narrative13Situation2.wav,audio/Narrative13Situation2.wav,2,2,2,2,,,,,717.7705,724.5179,space,6.2249,,,,,,,,,,,,,,,,,,,,,,,,,,,,,,,
,,,,,67f3147d939ee392b2741fb5,2025-07-07_19h17.56.514,group3.4_multiperson,2023.2.2,Win32,59.88023952,686c2ebf0248f13bef9af11f,686c7fa19336012acc800a82,,,,,,,,,,,,,,,,,,,,,,,,,,,,,756.9011,2,audio/Narrative6Situation1.wav,758.9127,,758.9127,785.5258,"[[93.1,6088],[90.7,6172],[89.9,6255],[89.7,6332],[89.7,6415],[89.7,6499],[89.7,6582],[90.6,6672],[92.6,6755],[93.8,6838],[94.6,6922],[95.2,7005],[95.2,7082],[95.2,7165],[95.2,7248],[95.4,7338],[95.7,7415],[95.8,7505],[96.1,7582],[96.4,7671],[96.4,7748],[96.4,7838],[96.4,7915],[96.4,7998],[96.4,8082],[96.4,8165],[96.4,8248],[96.4,8332],[96.4,8415],[96.4,8498],[96.4,8582],[96.4,8665],[96.4,8748],[96.4,8832],[96.4,8915],[96.4,8998],[96.4,9081],[96.4,9165],[96.4,9248],[96.4,9331],[96.4,9415],[96.4,9498],[96.4,9581],[96.4,9665],[96.4,9748],[92.6,9838],[89.4,9921],[88.9,10004],[88.9,10081],[88.9,10165],[88.9,10248],[88.9,10331],[88.9,10415],[88.9,10498],[88.9,10581],[88.9,10665],[88.9,10748],[88.9,10831],[88.9,10915],[88.9,11004],[88.9,11081],[88.9,11164],[88.9,11248],[88.9,11331],[88.9,11415],[88.9,11498],[88.9,11581],[88.9,11671],[88.9,11748],[88.9,11831],[88.9,11914],[88.9,12004],[88.9,12081],[88.9,12164],[88.9,12248],[88.9,12337],[88.9,12414],[88.9,12498],[88.9,12581],[88.9,12664],[88.9,12748],[88.9,12831],[88.9,12914],[88.9,12998],[88.9,13081],[88.9,13164],[88.9,13248],[88.9,13331],[88.9,13418],[88.9,13498],[88.9,13581],[88.9,13664],[88.9,13748],[88.9,13831],[88.9,13914],[88.9,13997],[88.9,14081],[88.9,14164],[88.9,14247],[88.9,14331],[88.9,14414],[88.9,14497],[88.9,14581],[88.9,14664],[88.9,14747],[88.9,14831],[88.9,14914],[88.9,14997],[88.9,15081],[88.9,15164],[88.9,15247],[88.9,15331],[88.9,15414],[85.4,15504],[80.4,15587],[74.5,15670],[69.6,15754],[64.5,15837],[60.4,15920],[58.2,16004],[54.9,16087],[53.7,16170],[53.2,16247],[52.4,16337],[52.2,16418],[52.2,16497],[52.2,16581],[52.2,16664],[52.3,16754],[52.7,16830],[55.2,16918],[69.1,17753],[67.9,17837],[67.8,17914],[67.8,17997],[67.8,18080],[67.8,18164],[67.8,18247],[67.8,18330],[68,18420],[68,18497],[68.1,18584],[68.1,18663],[68.1,18747],[68.1,18830],[68.1,18920],[68.1,18997],[68.1,19080],[68.1,19163],[68.1,19247],[68.1,19330],[68.1,19413],[68.1,19503],[68.1,19580],[68.1,19663],[68.1,19747],[68.1,19830],[68.1,19913],[68.1,19997],[68.1,20080],[68.1,20163],[68.1,20247],[68.1,20335],[68.1,20413],[68.1,20497],[68.1,20580],[68.1,20663],[68.1,20746],[68.1,20830],[68.1,20913],[68.1,20997],[68.1,21080],[68.1,21170],[68.1,21246],[68.1,21330],[68.1,21413],[68.1,21496],[68.1,21580],[68.1,21663],[68.1,21747],[68.1,21830],[68.1,21919],[68.1,21996],[68.1,22080],[68.1,22163],[68.1,22246],[68.1,22330],[68.1,22413],[68.1,22496],[68.1,22580],[68.1,22663],[68.1,22746],[68.1,22830],[68.1,22913],[68.1,22996],[68.1,23079],[68.1,23163],[68.1,23246],[68.1,23329],[68.1,23417],[68.1,23496],[68.1,23579],[68.1,23663],[68.1,23746],[68.1,23829],[68.1,23913],[68.1,23996],[68.1,24079],[68.1,24163],[68.1,24246],[68.1,24329],[68.1,24413],[68.1,24496],[68.1,24583],[68.1,24663],[68.1,24746],[68.1,24829],[68.1,24913],[68.1,24996],[68.1,25079],[70.3,25169],[73.6,25252],[77.1,25336],[81.6,25419],[85.4,25502],[89,25586],[91.8,25669],[94,25752],[95.9,25836],[96.3,25912],[97.3,26002],[98.2,26086],[98.2,26162],[98.2,26246],[98.2,26329],[98.2,26412],[98,26502],[97.9,26579]]",785.526,798.7237,79.27083174,10.7707,"[{""rating"":94.16667620340984,""responseTime"":3.6470999999941114},{""rating"":79.27083174387614,""responseTime"":10.7706999999956}]",space,12.6547,,798.7238,Partially,50,798.7256,,,[],,0,1,1,1,1,audio/Narrative7Situation1.wav,audio/Narrative8Situation1.wav,audio/Narrative5Situation1.wav,audio/Narrative6Situation1.wav,2,5,5,2,,,,,,,,,,,,,,,,,,,,,,,,,,,,,,,,,,,,,,,
,,,,,67f3147d939ee392b2741fb5,2025-07-07_19h17.56.514,group3.4_multiperson,2023.2.2,Win32,59.88023952,686c2ebf0248f13bef9af11f,686c7fa19336012acc800a82,,,,,,,,,,,,,,,,,,,,,,,,,,,,,798.7261,2,audio/Narrative6Situation2.wav,801.74,,801.74,830.2528,"[[999,0],[999,83],[999,166],[999,249],[999,333],[999,416],[999,499],[999,583],[999,666],[999,750],[999,833],[999,916],[999,999],[999,1082],[999,1166],[999,1249],[999,1333],[999,1416],[999,1499],[999,1582],[999,1666],[999,1749],[999,1832],[999,1916],[999,1999],[999,2082],[999,2166],[999,2249],[999,2332],[999,2416],[999,2499],[999,2582],[999,2666],[999,2749],[999,2832],[999,2916],[999,2999],[999,3082],[999,3166],[999,3249],[999,3332],[999,3416],[999,3499],[999,3588],[999,3665],[999,3749],[999,3832],[999,3922],[999,3999],[999,4082],[999,4165],[999,4249],[999,4332],[999,4415],[999,4499],[999,4582],[999,4665],[999,4749],[999,4832],[999,4915],[999,4999],[999,5082],[999,5165],[999,5249],[999,5332],[999,5415],[999,5499],[999,5582],[999,5665],[999,5749],[999,5832],[999,5915],[999,5999],[999,6082],[999,6165],[999,6249],[999,6338],[999,6422],[999,6505],[999,6588],[999,6665],[999,6748],[999,6832],[999,6919],[999,6998],[999,7082],[999,7165],[999,7248],[999,7332],[999,7415],[999,7498],[999,7582],[999,7665],[999,7748],[999,7832],[999,7915],[999,7998],[999,8082],[999,8165],[999,8248],[999,8331],[999,8415],[999,8498],[999,8581],[999,8665],[999,8748],[999,8831],[999,8915],[999,8998],[999,9088],[999,9165],[999,9248],[999,9331],[999,9415],[999,9498],[999,9587],[999,9671],[999,9748],[74.5,9838],[74.3,9921],[73.9,9998],[73.8,10081],[73.8,10165],[73.8,10248],[73.8,10331],[73.8,10415],[73.8,10498],[73.8,10581],[73.8,10665],[73.8,10748],[73.8,10831],[73.8,10915],[73.8,10998],[73.2,11088],[71.1,11171],[68.3,11254],[66.8,11338],[66,11415],[65.8,12338],[67.3,12421],[69.1,12504],[70.8,12588],[72.6,12664],[74.5,12754],[75.4,12831],[76.9,12921],[78.1,13004],[79.7,13087],[80.7,13171],[81.3,13254],[81.5,13337],[81.5,13414],[81.5,13498],[81.5,13581],[81.5,13664],[81.5,13748],[81.5,13831],[81.5,13914],[81.5,13998],[81.5,14081],[81.5,14164],[81.5,14247],[81.5,14331],[81.5,14414],[81.5,14497],[81.5,14581],[83.1,14671],[84.7,14754],[85.1,14831],[85.1,14914],[85.1,14997],[85.1,15081],[85.1,15164],[85.1,15247],[85.1,15331],[85.1,15414],[85.1,15497],[85.3,15581],[85.4,15668],[85.6,15747],[85.6,15831],[85.7,15914],[85.7,15997],[85.7,16081],[85.7,16164],[85.7,16253],[85.7,16330],[85.7,16420],[85.7,16497],[85.7,16580],[85.7,16664],[85.7,16747],[85.7,16830],[85.7,16914],[85.7,16997],[85.7,17080],[85.7,17164],[85.7,17247],[85.7,17330],[85.7,17414],[85.7,17497],[85.7,17586],[85.7,17664],[85.7,17747],[85.7,17830],[85.7,17914],[85.7,17997],[85.7,18080],[85.7,18163],[85.7,18247],[85.7,18330],[85.7,18414],[85.7,18497],[85.7,18586],[85.7,18664],[85.7,18747],[87.5,19219],[87.5,19297],[87.5,19380],[87.5,19463],[87.5,19547],[87.5,19630],[87.5,19713],[87.5,19797],[87.5,19880],[87.5,19963],[87.5,20047],[87.5,20130],[87.7,20220],[88.3,20303],[89.1,20386],[89.1,20463],[89.1,20547],[89.1,20630],[89.1,20719],[89.1,20797],[89.1,20886],[89.1,20963],[89.1,21046],[89.1,21130],[89.1,21219],[89.1,21296],[89.1,21380],[89.1,21463],[89.1,21546],[89.1,21630],[89.1,21713],[89.1,21796],[89.1,21880],[89.1,21963],[89.1,22050],[89.1,22130],[89.1,22213],[89.1,22297],[89.1,22380],[89.1,22463],[89.1,22546],[89.1,22629],[89.1,22713],[89.1,22796],[89.1,22879],[89,22963],[89,23046],[89,23130],[89,23213],[89,23296],[89,23379],[89,23463],[89,23546],[89,23629],[89,23713],[89,23796],[89,23879],[89,23963],[89,24052],[89,24129],[89,24219],[89,24296],[89,24379],[86,24469],[80.1,24553],[76.7,24636],[75.4,24719],[75.1,24796],[74.8,24879],[74.8,24962],[74.8,25050],[74.8,25129],[74.8,25213],[74.8,25296],[74.8,25379],[74.8,25463],[74.8,25546],[74.8,25629],[74.8,25719],[74.6,25796],[74.4,25879],[74.4,25969],[74.2,26052],[74.2,26135],[74.1,26212],[73.9,26302],[73.9,26379],[73.9,26462],[73.9,26546],[73.9,26629],[73.9,26712],[73.9,26802],[73.9,26885],[74.7,26969],[82.6,27052],[85.1,27135],[86.5,27219],[87.2,27302],[88.5,27385],[90.2,27469],[92,27552],[92.7,27635],[93.2,27718],[93.2,27795],[93.2,27879],[93.2,27962],[93.2,28045],[93.2,28129],[93.2,28218],[93.2,28295],[93.2,28379],[93.2,28462]]",830.2529,834.5354,96.97917302,2.7123,"[{""rating"":96.97917302449544,""responseTime"":2.7122999999970716}]",space,3.7339,,834.5354,Partially,50,834.537,,,[],,0,2,2,2,1,audio/Narrative7Situation2.wav,audio/Narrative8Situation2.wav,audio/Narrative5Situation2.wav,audio/Narrative6Situation2.wav,3,3,3,3,,,,,,,,,,,,,,,,,,,,,,,,,,,,,,,,,,,,,,,
,,,,,67f3147d939ee392b2741fb5,2025-07-07_19h17.56.514,group3.4_multiperson,2023.2.2,Win32,59.88023952,686c2ebf0248f13bef9af11f,686c7fa19336012acc800a82,,,,,,,,,,,,,,,,,,,,,,,,,,,,,834.5373,2,audio/Narrative6Situation3.wav,839.5513,,839.5513,852.1729,"[[999,0],[999,83],[999,166],[999,249],[999,333],[999,416],[999,499],[999,583],[999,666],[999,749],[999,833],[999,916],[999,999],[999,1083],[999,1166],[999,1249],[999,1332],[999,1420],[999,1499],[999,1583],[999,1666],[999,1749],[999,1832],[999,1916],[999,1999],[999,2082],[999,2166],[999,2249],[999,2332],[999,2419],[999,2499],[999,2582],[999,2666],[999,2749],[999,2832],[999,2916],[999,2999],[999,3082],[999,3166],[999,3249],[999,3332],[999,3416],[999,3499],[999,3582],[999,3665],[999,3749],[999,3832],[999,3915],[999,3999],[999,4082],[999,4165],[999,4249],[999,4332],[999,4415],[999,4499],[999,4582],[999,4665],[999,4749],[999,4838],[999,4916],[999,4999],[999,5088],[999,5172],[53.7,5255],[49.4,5338],[46.4,5422],[44.6,5505],[44,5589],[44,5665],[44,5749],[44,5832],[46.1,5915],[49.2,6005],[51.4,6089],[51.8,6165],[52,6249],[52,6332],[52,6415],[52,6498],[52,6582],[52,6665],[52,6748],[52,6832],[51.8,6915],[50.7,7005],[50.6,7086],[50.6,7165],[50.6,7248],[50.6,7332],[50.6,7415],[50.6,7498],[50.6,7582],[50.6,7665],[50.6,7748],[50.6,7832],[50.6,7915],[50.6,7998],[50.6,8082],[50.6,8165],[50.6,8248],[50.6,8332],[51.3,8422],[52.5,8505],[54,8588],[54.9,8665],[55.6,8755],[56.5,8838],[57.8,8921],[59.8,9005],[61.6,9088],[62.5,9171],[62.8,9248],[62.9,9331],[62.9,9415],[62.9,9504],[62.9,9581],[62.9,9665],[62.9,9748],[62.9,9831],[62.9,9915],[62.9,9998],[62.9,10081],[62.9,10165],[62.9,10248],[62.9,10331],[62.9,10415],[62.9,10504],[62.9,10581],[62.6,10671],[61.3,10754],[58.8,10838],[56.6,10921],[54.4,11004],[53.4,11088],[53.3,11164],[52.8,11254],[52.7,11331],[52.5,11415],[52.5,11498],[52.5,11581],[52.5,11671],[52.5,11748],[52.5,11831],[52.5,11914],[52.5,11998],[52.5,12081],[52.6,12171],[53.1,12248],[56,12337],[61.3,12421],[66.1,12504],[68.3,12587]]",852.173,859.5485,75.93750159,5.2903,"[{""rating"":75.9375015894572,""responseTime"":5.2902999999969325}]",space,6.8325,,859.5485,Definitely yes,100,866.2978,99.89584287,4.4879,"[{""rating"":99.89584287007649,""responseTime"":4.48789999999849}]",space,0,3,3,3,1,audio/Narrative7Situation3.wav,audio/Narrative8Situation3.wav,audio/Narrative5Situation3.wav,audio/Narrative6Situation3.wav,8,4,3,5,,,6.2096,,,,,,,,,,,,,,,,,,,,,,,,,,,,,,,,,,,,
,,,,,67f3147d939ee392b2741fb5,2025-07-07_19h17.56.514,group3.4_multiperson,2023.2.2,Win32,59.88023952,686c2ebf0248f13bef9af11f,686c7fa19336012acc800a82,,,,,,,,,,,,,,,,,,,,,,,,,,,,,866.2982,2,audio/Narrative6Situation4.wav,868.3139,,868.3139,880.929,"[[95.9,1922],[67.7,4505],[67.7,4582],[67.7,4672],[67.7,4749],[67.7,4832],[71.3,4916],[74.6,5005],[77.1,5089],[80,5172],[81.6,5255],[83.2,5339],[86,5422],[90.5,5522],[91.5,5605],[91.6,5682],[91.6,5765],[91.6,5849],[91.6,5932],[91.6,6015],[91.6,6099],[91.6,6182],[91.6,6265],[91.6,6349],[91.6,6438],[91.6,6515],[91.6,6599],[91.6,6682],[91.6,6765],[91.6,6849],[91.6,6932],[91.6,7015],[91.6,7105],[91.6,7182],[91.6,7265],[91.6,7348],[91.6,7432],[91.6,7515],[92,7605],[92.5,7688],[92.7,7772],[92.7,7849],[92.7,7932],[92.7,8015],[92.7,8098],[92.7,8182],[92.7,8265],[92.7,8348],[92.7,8432],[92.7,8515],[92.7,8598],[92.7,8682],[92.7,8765],[92.7,8848],[92.7,8932],[92.7,9015],[92.7,9098],[92.7,9182],[92.7,9271],[92.7,9348],[92.7,9432],[92.7,9515],[92.7,9598],[92.7,9681],[92.7,9765],[92.7,9848],[92.9,9932],[93.1,10015],[93.8,10098],[94.2,10188],[94.2,10265],[94.2,10348],[94.2,10431],[94.2,10515],[94.2,10598],[94.2,10688],[94.2,10765],[94.2,10854],[94.2,10931],[94.2,11014],[94.2,11098],[94.2,11181],[94.2,11264],[94.2,11348],[94.2,11431],[94.2,11521],[94.2,11598],[94.2,11681],[94.2,11765],[94.2,11848],[94.2,11931],[94.2,12014],[94.2,12098],[94.2,12181],[94.2,12264],[94.2,12348],[94.2,12431],[94.2,12514],[94.2,12598]]",880.9291,885.1783,95.3125,3.4051,"[{""rating"":95.3125,""responseTime"":3.4051000000015392}]",space,3.6999,,885.1784,Partially,50,885.1823,,,[],,0,4,4,4,1,audio/Narrative7Situation4.wav,audio/Narrative8Situation4.wav,audio/Narrative5Situation4.wav,audio/Narrative6Situation4.wav,3,3,1,2,,,,,,,,,,,,,,,,,,,,,,,,,,,,,,,,,,,,,,,
,,,,,67f3147d939ee392b2741fb5,2025-07-07_19h17.56.514,group3.4_multiperson,2023.2.2,Win32,59.88023952,686c2ebf0248f13bef9af11f,686c7fa19336012acc800a82,,,,,,,,,,,,,,,,,,,,,,,,,,,,,885.1826,2,audio/Narrative6Situation5.wav,887.1947,,887.1947,895.1602,"[[95.5,3589],[95.8,3672],[95.8,3749],[95.8,3832],[95.8,3915],[95.8,3999],[95.8,4082],[95.8,4172],[95.8,4249],[95.8,4332],[95.8,4415],[94.6,4505],[92.6,4589],[90.1,4672],[88.7,4749],[85.9,4839],[84.7,4915],[81.8,5005],[80.3,5089],[78.1,5172],[76.8,5249],[75.2,5338],[74.6,5415],[74.6,5499],[74.6,5582],[74.6,5665],[74.6,5749],[74.6,5832],[74.6,5915],[74.6,5999],[75.7,6089],[76.5,6172],[77,6255],[77.3,6332],[77.4,6422],[77.4,6498],[77.4,6582],[77.4,6665],[77.4,6748],[77.4,6832],[77.4,6915],[77.4,6998],[77.4,7082],[77.4,7165],[77.4,7248],[77.4,7332],[77.4,7415],[77.4,7498],[77.4,7582],[77.4,7665],[77.4,7748],[77.4,7832],[77.4,7915]]",895.1603,898.0996,87.9166762,2.0596,"[{""rating"":87.91667620340984,""responseTime"":2.05960000000141}]",space,2.4,,898.0996,Partially,50,898.101,,,[],,0,5,5,5,1,audio/Narrative7Situation5.wav,audio/Narrative8Situation5.wav,audio/Narrative5Situation5.wav,audio/Narrative6Situation5.wav,5,2,5,2,,,,,,,,,,,,,,,,,,,,,,,,,,,,,,,,,,,,,,,
,,,,,67f3147d939ee392b2741fb5,2025-07-07_19h17.56.514,group3.4_multiperson,2023.2.2,Win32,59.88023952,686c2ebf0248f13bef9af11f,686c7fa19336012acc800a82,,,,,,,,,,,,,,,,,,,,,,,,,,,,,898.1013,2,audio/Narrative6Situation6.wav,900.1095,,900.1096,911.1912,"[[89.8,7838],[90.9,7922],[91.7,8005],[92.6,8086],[93.6,8165],[94.6,8255],[94.6,8331],[94.6,8415],[94.6,8498],[94.6,8581],[94.6,8665],[94.6,8748],[94.6,8831],[94.6,8915],[94.6,8998],[94.6,9090],[94.6,9171],[94.6,9248],[94.6,9331],[94.6,9415],[94.6,9498],[94.6,9581],[94.6,9665],[94.6,9748],[94.6,9831],[94.6,9914],[94.6,9998],[94.6,10081],[94.6,10164],[94.6,10254],[94.6,10331],[94.6,10414],[94.6,10498],[94.6,10581],[94.6,10664],[94.6,10748],[94.6,10831],[94.6,10914],[94.6,10998],[94.6,11081]]",911.1913,913.6575,94.58333651,1.2636,"[{""rating"":94.58333651224773,""responseTime"":1.2636000000014747}]",space,1.9264,,913.6576,Definitely yes,100,913.66,,,[],,0,6,6,6,1,audio/Narrative7Situation6.wav,audio/Narrative8Situation6.wav,audio/Narrative5Situation6.wav,audio/Narrative6Situation6.wav,3,2,3,2,,,,,,,,,,,,,,,,,,,,,,,,,,,,,,,,,,,,,,,
,,,,,67f3147d939ee392b2741fb5,2025-07-07_19h17.56.514,group3.4_multiperson,2023.2.2,Win32,59.88023952,686c2ebf0248f13bef9af11f,686c7fa19336012acc800a82,,,,,,,,,,,,,,,,,,,,,,,,,,,,,913.6603,2,audio/Narrative6Situation7.wav,918.6735,,918.6736,943.5368,"[[94.4,1666],[94.4,1749],[94.4,1832],[94.4,1922],[94.4,1999],[94.4,2082],[94.4,2166],[94.4,2249],[94.4,2332],[94.1,2416],[91.4,2506],[86.5,2589],[80.5,2672],[74.2,2756],[67.7,2839],[62.8,2922],[59.7,3005],[56,3089],[54.1,3166],[51.7,3256],[49.1,3332],[48,3422],[47.3,3499],[46.5,3589],[46.5,3666],[46.5,3749],[46.5,3832],[46.5,3915],[46.5,3999],[46.5,4088],[46,4172],[44.7,4255],[44.5,4332],[44,4422],[43.9,4505],[43.9,4582],[43.9,4665],[43.9,4749],[43.9,4832],[43.9,4915],[43.9,4999],[43.8,5089],[43.8,5165],[43.8,5249],[43.8,5332],[43.8,5415],[43.8,5499],[43.8,5582],[43.8,5665],[43.8,5749],[43.8,5832],[43.8,5915],[43.8,5998],[43.8,6082],[43.8,6165],[43.8,6248],[43.8,6332],[43.8,6415],[43.8,6499],[43.8,6582],[43.8,6665],[43.8,6748],[43.8,6832],[43.8,6915],[43.8,6998],[43.8,7082],[43.8,7165],[43.8,7248],[43.8,7332],[43.8,7415],[43.8,7504],[43.8,7582],[43.8,7665],[43.8,7748],[43.8,7831],[43.8,7915],[43.8,7999],[43.8,8082],[54.2,8171],[62.8,8255],[67.2,8338],[68.6,8415],[71.7,8505],[73.3,8591],[76,8671],[76.7,8748],[77.3,8838],[78.1,8915],[78.1,8998],[78.1,9081],[78.1,9165],[78.1,9248],[78.1,9331],[78.1,9415],[78.1,9498],[78.1,9588],[78.1,9665],[78.1,9748],[78.1,9831],[78.3,9915],[78.6,9998],[78.6,10081],[78.9,10171],[78.9,10254],[78.9,10331],[78.9,10421],[78.9,10498],[78.9,10581],[78.9,10665],[78.9,10748],[78.9,10831],[78.9,10915],[78.9,10998],[78.9,11081],[78.9,11164],[78.9,11248],[78.9,11331],[78.9,11414],[78.9,11498],[78.9,11587],[78.9,11664],[78.9,11751],[78.9,11831],[78.9,11914],[78.9,11998],[78.9,12081],[78.9,12164],[78.9,12248],[78.9,12331],[79,12415],[80,12498],[82.1,12588],[84.9,12671],[86,12748],[86,12831],[86,12914],[86.5,13002],[86.5,13081],[86.5,13164],[86.5,13248],[86.5,13331],[86.5,13414],[86.5,13497],[86.5,13581],[86.5,13664],[86.5,13747],[86.5,13831],[86.5,13914],[86.5,13997],[86.5,14081],[86.5,14164],[86.5,14247],[86.5,14331],[86.5,14414],[86.5,14504],[87.5,14587],[89.4,14671],[91.3,14754],[91.5,14831],[91.5,14914],[91.5,14997],[91.7,15081],[91.7,15164],[91.7,15247],[91.7,15331],[91.7,15414],[91.7,15503],[91.7,15581],[91.6,15671],[88.2,15758],[81,15837],[71.9,15920],[61.7,16004],[55.6,16087],[53.9,16164],[53.7,16247],[53.7,16330],[53.7,16420],[53.7,16497],[53.7,16580],[53.7,16664],[53.7,16747],[53.7,16830],[53.7,16914],[53.7,16997],[53.7,17080],[53.7,17164],[53.7,17247],[53.7,17330],[60.9,17420],[67.1,17504],[71,17587],[74.8,17670],[77.5,17753],[79.2,17837],[80.6,17920],[82.3,17997],[83.3,18087],[83.3,18163],[83.6,18247],[84,18337],[84.3,18413],[84.3,18497],[84.4,18580],[84.5,18670],[84.7,18747],[84.7,18830],[84.7,18913],[84.8,18997],[84.8,19080],[84.9,19163],[84.9,19247],[84.9,19330],[84.9,19413],[84.9,19497],[84.9,19580],[84.9,19663],[85,19747],[85.2,19837],[85.5,19920],[85.5,19997],[85.5,20080],[85.5,20163],[85.5,20247],[85.5,20330],[85.6,20413],[85.6,20497],[85.6,20580],[85.6,20663],[85.6,20746],[85.6,20830],[85.7,20913],[85.7,20996],[85.7,21080],[85.7,21163],[85.7,21247],[85.7,21330],[85.7,21413],[85.7,21497],[85.7,21580],[85.7,21664],[85.7,21747],[85.7,21830],[85.7,21913],[85.7,21996],[85.7,22080],[85.7,22163],[87.9,22246],[90.2,22336],[91.1,22419],[91.1,22496],[91.4,22580],[91.4,22667],[91.4,22746],[91.4,22836],[91.4,22913],[91.4,22996],[91.4,23079],[91.4,23163],[91.4,23246],[91.4,23329],[91.4,23419],[91.4,23496],[91.4,23579],[91.4,23663],[91.4,23746],[91.4,23829],[91.4,23913],[91.4,23996],[91.4,24079],[91.4,24163],[91.4,24246],[91.4,24329],[91.4,24413],[92.1,24500],[94.3,24586],[94.9,24663],[95.3,24746],[95.7,24835]]",943.537,947.9596,98.54167302,2.7303,"[{""rating"":98.54167302449544,""responseTime"":2.7303000000044904}]",space,3.8692,,947.9596,Not at all,0,947.9633,,,[],,0,7,7,7,1,audio/Narrative7Situation7.wav,audio/Narrative8Situation7.wav,audio/Narrative5Situation7.wav,audio/Narrative6Situation7.wav,5,3,4,5,,,,,,,,,,,,,,,,,,,,,,,,,,,,,,,,,,,,,,,
,,,,,67f3147d939ee392b2741fb5,2025-07-07_19h17.56.514,group3.4_multiperson,2023.2.2,Win32,59.88023952,686c2ebf0248f13bef9af11f,686c7fa19336012acc800a82,,,,,,,,,,,,,,,,,,,,,,,,,,,,,947.9637,2,audio/Narrative6Situation8.wav,952.9688,,952.9688,959.8242,"[[93.4,6588],[78.7,6671],[69,6755],[62,6838]]",959.8243,968.0499,4.791669051,6.2654,"[{""rating"":4.79166905085246,""responseTime"":6.265399999998408}]",space,7.6671,,968.0499,Not at all,0,968.0513,,,[],,0,8,8,8,1,audio/Narrative7Situation8.wav,audio/Narrative8Situation8.wav,audio/Narrative5Situation8.wav,audio/Narrative6Situation8.wav,2,3,3,5,,,,,,,,,,,,,,,,,,,,,,,,,,,,,,,,,,,,,,,
,,,,,67f3147d939ee392b2741fb5,2025-07-07_19h17.56.514,group3.4_multiperson,2023.2.2,Win32,59.88023952,686c2ebf0248f13bef9af11f,686c7fa19336012acc800a82,,,,,,,,,,,,,,,,,,,,,,,,,,,,,968.0516,2,audio/Narrative6Situation9.wav,972.066,,972.066,982.0313,"[[999,0],[999,83],[999,166],[999,249],[999,333],[999,416],[999,499],[999,583],[999,667],[999,750],[999,833],[999,916],[999,999],[999,1082],[999,1166],[999,1249],[999,1333],[999,1416],[999,1499],[999,1582],[999,1666],[999,1749],[999,1832],[999,1916],[999,1999],[999,2082],[999,2166],[999,2249],[999,2332],[999,2416],[999,2499],[999,2582],[999,2666],[999,2749],[999,2832],[999,2916],[999,2999],[999,3082],[999,3166],[999,3249],[999,3332],[999,3416],[999,3499],[999,3582],[999,3666],[999,3749],[999,3832],[999,3916],[999,3999],[999,4082],[999,4166],[999,4249],[999,4332],[999,4415],[999,4499],[999,4582],[999,4666],[15.7,4749],[11.8,4832],[9.6,4916],[7.7,4999],[7.1,5082],[5.5,5166],[5.3,5249],[5.1,5332],[4.4,5415],[4.4,5499],[4.4,5582],[4.4,5665],[4.4,5749],[4.4,5832],[4.4,5915],[4.4,5999],[4.4,6082],[4.4,6165],[4.4,6249],[4.4,6332],[4.4,6415],[4.5,6499],[4.6,6582],[5,6665],[5.7,6749],[5.7,6832],[5.7,6915],[4.3,6999],[2.2,7082],[1.4,7165],[0.6,7248],[0.6,7332],[0.6,7415],[0.6,7498],[0.6,7582],[0.6,7665],[0.6,7748],[0.6,7832],[0.6,7915],[0.6,7998],[0.6,8082],[0.6,8165],[0.6,8248],[0.6,8332],[0.6,8415],[0.6,8498],[0.6,8582],[0.6,8665],[0.6,8748],[0.6,8831],[0.6,8915],[0.6,8998],[0.6,9081],[0.6,9165],[0.6,9248],[0.6,9331],[0.6,9415],[0.6,9498],[0.6,9581],[0.6,9665],[0.6,9748],[0.6,9831],[0.6,9915]]",982.0314,985.1808,0.625002384,0.957,"[{""rating"":0.625002384185791,""responseTime"":0.9569999999999936}]",space,2.6001,,985.1809,Definitely yes,100,985.1833,,,[],,0,9,9,9,1,audio/Narrative7Situation9.wav,audio/Narrative8Situation9.wav,audio/Narrative5Situation9.wav,audio/Narrative6Situation9.wav,2,3,3,4,,,,,,,,,,,,,,,,,,,,,,,,,,,,,,,,,,,,,,,
,,,,,67f3147d939ee392b2741fb5,2025-07-07_19h17.56.514,group3.4_multiperson,2023.2.2,Win32,59.88023952,686c2ebf0248f13bef9af11f,686c7fa19336012acc800a82,,,,,,,,,,,,,,,,,,,,,,,,,,,,,985.1835,2,audio/Narrative5Situation1.wav,990.1968,,990.1969,1003.4846,"[[0.3,999],[37.8,2256],[39.3,2339],[40.5,2422],[40.5,2505],[40.5,2589],[40.5,2672],[40.5,2755],[40.5,2838],[40.5,2922],[40.5,3005],[40.5,3088],[40.5,3172],[40.5,3255],[40.5,3338],[40.5,3422],[40.5,3505],[40.5,3589],[40.5,3672],[40.5,3755],[40.5,3839],[40.5,3922],[40.5,4005],[40.5,4089],[40.5,4171],[40.5,4255],[40.5,4339],[40.5,4422],[40.5,4505],[40.5,4588],[40.5,4671],[40.5,4755],[40.5,4838],[40.5,4922],[40.5,5005],[40.5,5088],[40.5,5171],[40.5,5255],[40.5,5338],[40.5,5422],[40.5,5505],[40.5,5588],[40.5,5672],[40.5,5755],[40.5,5838],[40.5,5922],[40.5,6005],[40.5,6088],[40.5,6172],[40.5,6255],[40.5,6338],[40.5,6421],[40.5,6505],[40.5,6588],[40.5,6671],[40.5,6754],[40.5,6838],[40.5,6921],[40.5,7004],[40.5,7088],[40.5,7171],[40.5,7255],[40.5,7338],[40.5,7421],[40.5,7504],[40.5,7588],[40.5,7671],[40.5,7754],[40.5,7838],[40.5,7921],[40.5,8004],[40.5,8088],[40.5,8171],[40.5,8254],[40.5,8338],[40.5,8421],[40.5,8504],[40.5,8588],[40.5,8671],[40.5,8754],[43.1,8838],[45.8,8921],[47.8,9005],[48.1,9088],[48.8,9171],[49.2,9255],[49.2,9337],[49.2,9421],[49.2,9504],[49.2,9591],[49.3,9671],[49.3,9754],[49.3,9838],[49.3,9921],[49.3,10004],[49.3,10087],[49.3,10171],[49.3,10254],[49.3,10337],[49.3,10421],[49.3,10505],[49.3,10587],[49.3,10671],[49.3,10754],[49.3,10837],[49.3,10921],[49.3,11004],[49.3,11087],[49.3,11171],[49.3,11254],[49.3,11337],[49.3,11420],[49.3,11504],[49.3,11587],[49.3,11672],[49.3,11754],[49.3,11837],[49.3,11920],[49.3,12004],[49.3,12088],[49.3,12170],[49.3,12254],[49.3,12337],[49.3,12420],[49.3,12504],[49.3,12587],[49.3,12670],[49.3,12754],[49.3,12837],[49.3,12920],[49.3,13004],[49.3,13087],[49.3,13170],[49.3,13254]]",1003.4847,1006.8842,50.41666826,1.9325,"[{""rating"":50.41666825612386,""responseTime"":1.9324999999998909}]",space,2.8499,,1006.8842,Definitely yes,100,1006.8855,,,[],,0,10,10,10,1,audio/Narrative8Situation1.wav,audio/Narrative7Situation1.wav,audio/Narrative6Situation1.wav,audio/Narrative5Situation1.wav,5,2,2,5,,,,,,,,,,,,,,,,,,,,,,,,,,,,,,,,,,,,,,,
,,,,,67f3147d939ee392b2741fb5,2025-07-07_19h17.56.514,group3.4_multiperson,2023.2.2,Win32,59.88023952,686c2ebf0248f13bef9af11f,686c7fa19336012acc800a82,,,,,,,,,,,,,,,,,,,,,,,,,,,,,1006.8857,2,audio/Narrative5Situation2.wav,1009.9001,,1009.9001,1039.3627,"[[53.7,10082],[55.8,10165],[58.4,10248],[60.4,10332],[63.6,10415],[66.6,10499],[70.1,10582],[74.6,10665],[77.8,10749],[81,10832],[84.9,10915],[87.5,10998],[90,11082],[92,11165],[93.8,11248],[94.3,11331],[94.3,11415],[94.3,11498],[94.3,11581],[94.3,11665],[94.3,11748],[94.3,11831],[94.8,11915],[94.8,11998],[94.8,12081],[94.8,12164],[94.8,12248],[94.8,12331],[94.8,12414],[95.3,12498],[95.7,12582],[96,12664],[96.1,12748],[96.1,12831],[96.1,12914],[96.1,12998],[96.1,13081],[96.1,13164],[96.1,13248],[96.1,13331],[96.1,13414],[96.1,13498],[96.3,13581],[96.3,13664],[96.3,13748],[96.4,13831],[96.7,13915],[96.8,13998],[97.1,14081],[97.3,14164],[97.3,14247],[97.3,14331],[97.3,14414],[97.3,14497],[97.3,14581],[97.3,14664],[97.3,14747],[97.3,14831],[97.3,14914],[97.3,14997],[97.3,15081],[97.3,15164],[97.3,15247],[97.3,15331],[97.3,15414],[97.3,15497],[97.3,15581],[97.3,15664],[97.3,15747],[97.3,15830],[97.3,15914],[97.3,15997],[97.3,16080],[97.3,16164],[97.3,16247],[97.3,16330],[97.3,16414],[97.3,16497],[97.3,16580],[97.3,16664],[97.3,16747],[97.3,16831],[97.6,16914],[97.6,16997],[97.8,17081],[97.9,17164],[98.1,17247],[98.1,17331],[98.1,17414],[98.2,17497],[98.2,17580],[98.4,17664],[98.4,17747],[98.6,17830],[98.6,17914],[98.6,17997],[98.6,18080],[98.6,18163],[98.6,18247],[98.8,18330],[99,18414],[99.2,18497],[99.2,18580],[99.2,18663],[99.2,18747],[99.2,18831],[99.2,18913],[99.2,18997],[99.2,19080],[99.2,19163],[99.2,19247],[99.3,19330],[99.3,19413],[99.3,19497],[99.3,19580],[99.3,19663],[99.3,19747],[99.3,19830],[99.3,19914],[99.3,19997],[99.3,20080],[99.3,20163],[99.3,20247],[99.3,20330],[99.3,20413],[99.3,20497],[99.3,20580],[99.3,20663],[99.3,20746],[99.3,20830],[99.3,20913],[99.3,20996],[99.3,21080],[99.3,21163],[99.3,21246],[99.3,21330],[99.3,21413],[99.3,21496],[99.3,21580],[99.3,21663],[99.3,21746],[99.3,21830],[99.3,21913],[99.3,21996],[99.3,22080],[99.3,22163],[99.3,22247],[99.3,22330],[99.3,22413],[99.3,22496],[99.3,22580],[99.3,22663],[99.3,22746],[99.3,22830],[99.3,22913],[99.3,22996],[99.3,23080],[99.3,23163],[99.3,23247],[99.3,23330],[99.3,23413],[99.3,23496],[99.3,23579],[99.3,23663],[99.3,23746],[99.3,23829],[99.3,23913],[99.3,23996],[99.3,24079],[99.3,24163],[99.3,24246],[99.3,24330],[99.3,24413],[99.3,24496],[99.3,24579],[99.3,24663],[99.3,24746],[99.3,24829],[99.3,24913],[99.3,24996],[99.3,25079],[99.3,25163],[99.3,25246],[99.3,25329],[99.3,25413],[99.3,25496],[99.3,25579],[99.3,25663],[99.3,25746],[99.3,25829],[99.3,25913],[99.3,25996],[99.3,26079],[99.3,26163],[99.3,26246],[99.3,26329],[99.3,26412],[99.3,26496],[99.3,26579],[99.3,26663],[99.3,26746],[99.3,26829],[99.3,26913],[99.3,26996],[99.3,27079],[99.3,27162],[99.3,27246],[99.3,27329],[99.3,27412],[99.3,27495],[99.3,27579],[99.3,27662],[99.3,27746],[99.3,27829],[99.3,27912],[99.3,27996],[99.3,28079],[99.3,28162],[99.3,28245],[99.3,28329],[99.3,28412],[99.3,28495],[99.3,28579],[99.3,28662],[99.3,28746],[99.3,28829],[99.3,28912],[99.3,28996],[99.3,29079],[99.3,29162],[99.3,29245],[99.3,29329],[99.3,29412]]",1039.3628,1043.129,99.27083651,3.3494,"[{""rating"":99.27083651224773,""responseTime"":3.3494000000059714}]",space,3.2332,,1043.1291,Partially,50,1043.131,,,[],,0,11,11,11,1,audio/Narrative8Situation2.wav,audio/Narrative7Situation2.wav,audio/Narrative6Situation2.wav,audio/Narrative5Situation2.wav,3,3,3,3,,,,,,,,,,,,,,,,,,,,,,,,,,,,,,,,,,,,,,,
,,,,,67f3147d939ee392b2741fb5,2025-07-07_19h17.56.514,group3.4_multiperson,2023.2.2,Win32,59.88023952,686c2ebf0248f13bef9af11f,686c7fa19336012acc800a82,,,,,,,,,,,,,,,,,,,,,,,,,,,,,1043.1312,2,audio/Narrative5Situation3.wav,1046.1452,,1046.1453,1060.0597,"[[97,5832],[94.2,5915],[94,5998],[93.6,6082],[93.6,6165],[93.6,6248],[93.6,6332],[93.6,6415],[93.6,6498],[93.6,6582],[93.6,6665],[94.3,6749],[94.5,6832],[94.8,6915],[95.1,6999],[95.1,7081],[95.1,7165],[95.1,7248],[95.1,7331],[95.1,7415],[95.1,7498],[95.1,7581],[95.1,7665],[95.1,7748],[95.1,7831],[95.1,7915],[95.1,7998],[95.1,8081],[95.1,8165],[95.1,8248],[95.1,8331],[95.1,8415],[95.1,8498],[95.1,8582],[95.1,8665],[95.1,8748],[95.1,8831],[95.1,8915],[95.1,8998],[95.1,9081],[95.2,9165],[95.2,9248],[95.2,9331],[95.3,9415],[95.3,9498],[95.3,9581],[95.3,9667],[95.3,9748],[95.5,9831],[95.6,9915],[95.8,9998],[96,10081],[96,10165],[96,10248],[96,10331],[96,10415],[96,10498],[96,10581],[96,10664],[96,10748],[96,10831],[96,10914],[96,10998],[96,11081],[96.1,11164],[96.3,11248],[96.6,11331],[96.9,11414],[97.3,11498],[97.4,11581],[97.4,11664],[97.4,11747],[97.4,11831],[97.4,11914],[97.4,11998],[97.4,12081],[97.4,12164],[97.4,12247],[97.4,12331],[97.4,12414],[97.4,12498],[97.4,12581],[97.4,12664],[97.3,12747],[97.2,12831],[97.1,12914],[97,12997],[97,13081],[96.7,13164],[96.7,13247],[96.7,13331],[96.7,13414],[96.7,13497],[96.7,13581],[96.7,13664],[96.7,13747],[96.7,13831],[96.7,13914]]",1060.0598,1062.9931,96.66666985,2.2162,"[{""rating"":96.66666984558105,""responseTime"":2.2162000000030275}]",space,2.4,,1062.9933,Not at all,0,1062.9961,,,[],,0,12,12,12,1,audio/Narrative8Situation3.wav,audio/Narrative7Situation3.wav,audio/Narrative6Situation3.wav,audio/Narrative5Situation3.wav,4,8,5,3,,,,,,,,,,,,,,,,,,,,,,,,,,,,,,,,,,,,,,,
,,,,,67f3147d939ee392b2741fb5,2025-07-07_19h17.56.514,group3.4_multiperson,2023.2.2,Win32,59.88023952,686c2ebf0248f13bef9af11f,686c7fa19336012acc800a82,,,,,,,,,,,,,,,,,,,,,,,,,,,,,1062.9964,2,audio/Narrative5Situation4.wav,1064.0092,,1064.0092,1084.4065,"[[96.1,5999],[82.8,6083],[18.3,6665],[18.4,6749],[19.1,6832],[19.1,6915],[19.1,6999],[19.1,7082],[19.1,7165],[17.9,7249],[16.8,7332],[15.8,7415],[15.8,7498],[15.3,7582],[14.7,7665],[14.2,7749],[13.6,7832],[13.2,7915],[13.2,7999],[13.2,8082],[13.2,8165],[13.2,8249],[13.2,8332],[13.2,8415],[13.2,8498],[13.2,8582],[13.2,8665],[13.2,8749],[13.2,8831],[13.2,8915],[13.2,8998],[13.2,9081],[13.2,9165],[13.2,9248],[13.2,9331],[13.2,9415],[13.2,9498],[25.1,9582],[38.3,9665],[51.4,9749],[57.8,9832],[62.3,9915],[65.2,9998],[66,10081],[66,10165],[66,10248],[66.1,10332],[66.1,10415],[66.1,10498],[66.1,10581],[66.1,10664],[66.1,10748],[66.1,10831],[66.1,10914],[66.1,10998],[66.1,11081],[66.1,11164],[66.1,11248],[66.1,11331],[66.1,11414],[66.1,11498],[66.1,11581],[66.1,11664],[66.1,11748],[66.1,11831],[66.1,11914],[66.1,11998],[66.1,12081],[66.1,12165],[66.1,12248],[66.1,12331],[66.1,12414],[66.1,12498],[66.1,12581],[66.1,12664],[66.1,12748],[66.1,12831],[66.1,12914],[77.9,12998],[84.9,13081],[88.1,13165],[88.2,13248],[92.2,13331],[94.9,13415],[95.9,13498],[95.9,13581],[95.9,13664],[95.9,13748],[95.9,13831],[95.9,13914],[95.9,13998],[95.9,14081],[95.9,14164],[95.9,14248],[95.9,14331],[95.9,14414],[95.9,14497],[95.9,14581],[95.9,14664],[95.9,14747],[95.9,14831],[95.9,14914],[95.9,14997],[95.9,15081],[95.9,15164],[95.9,15247],[95.9,15331],[95.9,15414],[95.9,15500],[95.9,15581],[95.9,15664],[95.9,15747],[95.9,15831],[95.9,15914],[96,15997],[96.1,16081],[96.4,16164],[96.8,16247],[97.4,16331],[97.9,16414],[98.4,16498],[98.5,16580],[98.8,16664],[98.9,16747],[99,16830],[99,16914],[99.4,16997],[99.4,17080],[99.4,17164],[99.4,17247],[99.4,17330],[99.4,17414],[99.4,17497],[99.4,17580],[99.4,17664],[99.4,17747],[99.4,17831],[99.4,17914],[99.4,17997],[99.4,18081],[99.4,18164],[99.4,18247],[99.4,18330],[99.4,18413],[99.4,18497],[99.4,18580],[99.4,18663],[99.4,18747],[99.4,18830],[99.4,18913],[99.4,18997],[99.4,19080],[99.4,19163],[99.4,19247],[99.4,19330],[99.4,19414],[99.4,19497],[99.4,19580],[99.4,19663],[99.4,19747],[99.4,19830],[99.4,19913],[99.4,19997],[99.4,20080],[99.4,20163],[99.4,20247],[99.4,20330]]",1084.4066,1088.1896,99.37500954,1.466,"[{""rating"":99.37500953674316,""responseTime"":1.4660000000001219}]",space,3.2333,,1088.1896,Partially,50,1088.1922,,,[],,0,13,13,13,1,audio/Narrative8Situation4.wav,audio/Narrative7Situation4.wav,audio/Narrative6Situation4.wav,audio/Narrative5Situation4.wav,3,3,2,1,,,,,,,,,,,,,,,,,,,,,,,,,,,,,,,,,,,,,,,
,,,,,67f3147d939ee392b2741fb5,2025-07-07_19h17.56.514,group3.4_multiperson,2023.2.2,Win32,59.88023952,686c2ebf0248f13bef9af11f,686c7fa19336012acc800a82,,,,,,,,,,,,,,,,,,,,,,,,,,,,,1088.1926,2,audio/Narrative5Situation5.wav,1093.205,,1093.2051,1108.6302,"[[98.5,6499],[95.3,6582],[91.9,6666],[89.5,6749],[87.7,6832],[87.2,6915],[86.8,6999],[86.6,7082],[86.6,7165],[86.6,7248],[86.6,7332],[86.6,7415],[86.6,7498],[86.6,7582],[86.6,7665],[86.6,7748],[86.6,7832],[86.6,7915],[86.6,7998],[86.6,8082],[86.6,8165],[86.6,8248],[86.6,8332],[86.6,8415],[86.6,8498],[86.6,8582],[86.6,8665],[86.6,8748],[86.6,8832],[86.6,8915],[86.6,8998],[86.6,9082],[86.6,9165],[86.6,9248],[86.6,9332],[86.6,9415],[86.6,9498],[86.6,9582],[86.6,9665],[86.6,9748],[86.6,9831],[86.6,9915],[86.6,9998],[86.6,10081],[86.6,10165],[86.6,10248],[86.6,10331],[86.6,10415],[86.6,10498],[86.6,10581],[86.6,10665],[86.6,10748],[86.6,10832],[86.6,10915],[86.6,10998],[86.6,11082],[86.6,11165],[86.6,11248],[86.6,11331],[86.6,11415],[86.6,11498],[86.6,11581],[86.6,11664],[86.6,11748],[86.6,11831],[86.6,11915],[86.6,11998],[86.6,12081],[86.6,12164],[86.6,12248],[86.6,12331],[86,12415],[85.5,12498],[85,12581],[83.8,12665],[82.5,12748],[81.4,12831],[80.1,12915],[79.8,12998],[79.1,13081],[78.4,13182],[78.3,13275],[78.2,13358],[79.5,13448],[84.2,13531],[86.8,13615],[87.7,13698],[88.5,13781],[88.5,13858],[88.9,13942],[88.9,14025],[89.1,14112],[89.2,14191],[89.4,14275],[89.5,14358],[89.8,14448],[89.8,14525],[89.8,14608],[89.8,14695],[89.8,14775],[89.8,14858],[89.8,14941],[89.8,15025],[89.8,15108],[89.8,15191],[89.8,15275],[89.8,15358]]",1108.6302,1111.3298,88.95834287,1.8057,"[{""rating"":88.95834287007649,""responseTime"":1.8057000000028438}]",space,2.15,,1111.3299,Not at all,0,1111.3335,,,[],,0,14,14,14,1,audio/Narrative8Situation5.wav,audio/Narrative7Situation5.wav,audio/Narrative6Situation5.wav,audio/Narrative5Situation5.wav,2,5,2,5,,,,,,,,,,,,,,,,,,,,,,,,,,,,,,,,,,,,,,,
,,,,,67f3147d939ee392b2741fb5,2025-07-07_19h17.56.514,group3.4_multiperson,2023.2.2,Win32,59.88023952,686c2ebf0248f13bef9af11f,686c7fa19336012acc800a82,,,,,,,,,,,,,,,,,,,,,,,,,,,,,1111.3339,2,audio/Narrative5Situation6.wav,1114.3459,,1114.3461,1120.0285,"[[89.8,5089],[90.8,5172],[91.1,5249],[91.1,5332],[91.1,5421],[91.1,5499],[91.1,5582],[91.1,5665]]",1120.0286,1122.4781,91.25000636,1.1611,"[{""rating"":91.25000635782878,""responseTime"":1.1610999999941214}]",space,1.9001,,1122.4782,Definitely yes,100,1122.4805,,,[],,0,15,15,15,1,audio/Narrative8Situation6.wav,audio/Narrative7Situation6.wav,audio/Narrative6Situation6.wav,audio/Narrative5Situation6.wav,2,3,2,3,,,,,,,,,,,,,,,,,,,,,,,,,,,,,,,,,,,,,,,
,,,,,67f3147d939ee392b2741fb5,2025-07-07_19h17.56.514,group3.4_multiperson,2023.2.2,Win32,59.88023952,686c2ebf0248f13bef9af11f,686c7fa19336012acc800a82,,,,,,,,,,,,,,,,,,,,,,,,,,,,,1122.4808,2,audio/Narrative5Situation7.wav,1126.4943,,1126.4943,1147.5476,"[[90.2,2256],[88.3,2339],[86.1,2422],[83.2,2506],[79.2,2589],[75,2672],[71.5,2756],[67.9,2839],[65.1,2922],[63.6,3005],[63.2,3088],[63.2,3166],[63.2,3249],[69.7,3339],[76.1,3422],[78.5,3505],[80.7,3589],[83,3672],[85,3755],[86.9,3839],[88,3922],[88.7,4005],[89,4082],[89,4165],[89,4249],[89,4332],[89,4422],[89,4499],[89,4582],[89,4665],[89,4749],[89,4832],[89,4915],[89,4999],[89,5082],[89,5165],[89,5249],[89,5332],[89,5415],[92.2,5505],[100,5749],[100,5832],[100,5915],[100,5999],[100,6082],[100,6165],[100,6249],[100,6332],[100,6415],[100,6498],[100,6582],[100,6665],[100,6748],[100,6832],[100,6915],[100,6998],[100,7082],[100,7165],[100,7248],[100,7332],[100,7415],[100,7498],[100,7582],[100,7665],[100,7748],[100,7832],[100,7915],[100,7998],[100,8082],[100,8165],[100,8255],[100,8332],[100,8415],[100,8498],[100,8581],[100,8665],[100,8748],[100,8831],[100,8915],[100,8998],[100,9081],[100,9165],[100,9248],[100,9331],[100,9415],[100,9498],[100,9581],[100,9665],[100,9748],[100,9831],[100,9915],[100,9998],[100,10081],[100,10165],[100,10248],[100,10331],[100,10414],[100,10504],[100,10581],[100,10665],[100,10748],[100,10831],[100,10914],[100,10998],[100,11081],[100,11164],[100,11248],[100,11331],[100,11414],[100,11504],[100,11581],[100,11664],[100,11748],[100,11831],[100,11921],[100,11998],[100,12081],[100,12164],[100,12248],[100,12331],[100,12414],[100,12498],[100,12581],[100,12664],[100,12748],[100,12831],[100,12914],[100,12998],[100,13081],[100,13164],[100,13248],[100,13331],[100,13414],[100,13498],[100,13581],[100,13664],[100,13747],[100,13837],[100,13914],[100,13998],[100,14081],[100,14164],[100,14247],[100,14331],[100,14414],[100,14497],[100,14587],[100,14670],[100,14747],[100,14831],[100,14914],[100,14997],[100,15081],[100,15168],[100,15247],[100,15331],[100,15414],[100,15497],[100,15580],[100,15664],[100,15747],[100,15830],[100,15914],[100,15997],[100,16080],[100,16164],[100,16254],[100,16330],[100,16414],[100,16497],[100,16580],[100,16664],[100,16747],[100,16830],[100,16914],[100,16997],[100,17080],[100,17164],[100,17247],[100,17330],[100,17417],[100,17497],[100,17580],[100,17664],[100,17747],[100,17830],[100,17914],[100,17997],[100,18080],[100,18163],[100,18247],[100,18330],[100,18413],[100,18497],[100,18580],[100,18663],[100,18747],[100,18830],[100,18913],[100,18997],[100,19080],[100,19163],[100,19247],[100,19330],[100,19413],[100,19497],[100,19580],[100,19663],[100,19747],[100,19830],[100,19913],[100,20003],[100,20080],[100,20163],[100,20247],[100,20330],[100,20419],[100,20497],[100,20580],[100,20663],[100,20753],[100,20830],[100,20913],[100,20997]]",1147.5478,1150.2576,98.12499682,1.7185,"[{""rating"":98.12499682108562,""responseTime"":1.718499999999949}]",space,2.1693,,1150.2576,Partially,50,1150.2602,,,[],,0,16,16,16,1,audio/Narrative8Situation7.wav,audio/Narrative7Situation7.wav,audio/Narrative6Situation7.wav,audio/Narrative5Situation7.wav,3,5,5,4,,,,,,,,,,,,,,,,,,,,,,,,,,,,,,,,,,,,,,,
,,,,,67f3147d939ee392b2741fb5,2025-07-07_19h17.56.514,group3.4_multiperson,2023.2.2,Win32,59.88023952,686c2ebf0248f13bef9af11f,686c7fa19336012acc800a82,,,,,,,,,,,,,,,,,,,,,,,,,,,,,1150.2605,2,audio/Narrative5Situation8.wav,1153.2739,,1153.2739,1162.1124,"[[82.3,4089],[42,4672],[40.6,4755],[39.4,4839],[37.9,4922],[36.4,5009],[34.2,5089],[31.9,5172],[29.8,5255],[29.6,5332],[29.6,5415],[29.6,5499],[29.6,5582],[29.6,5665],[29.6,5749],[29.6,5832],[29.6,5915],[29.6,5999],[29.6,6082],[29.6,6165],[29.6,6249],[29.6,6332],[29.6,6415],[29.6,6498],[29.6,6582],[29.2,6669],[26.1,6755],[24.7,6838],[24.1,6915],[22,7005],[20.1,7088],[18.6,7172],[17.5,7255],[17.3,7332],[17.3,7415],[17.3,7504],[17.3,7582],[17.3,7665],[17.3,7748],[17.3,7832],[17.3,7915],[17.3,7998],[17.3,8082],[17.3,8165],[17.3,8248],[17,8338],[17,8415],[16.8,8498],[16.8,8582],[16.8,8665],[16.8,8748],[12.8,8838]]",1162.1125,1165.1222,7.8125,1.6865,"[{""rating"":7.8125,""responseTime"":1.6865000000000236}]",space,2.4679,,1165.1223,Not at all,0,1165.1255,,,[],,0,17,17,17,1,audio/Narrative8Situation8.wav,audio/Narrative7Situation8.wav,audio/Narrative6Situation8.wav,audio/Narrative5Situation8.wav,3,2,5,3,,,,,,,,,,,,,,,,,,,,,,,,,,,,,,,,,,,,,,,
,,,,,67f3147d939ee392b2741fb5,2025-07-07_19h17.56.514,group3.4_multiperson,2023.2.2,Win32,59.88023952,686c2ebf0248f13bef9af11f,686c7fa19336012acc800a82,,,,,,,,,,,,,,,,,,,,,,,,,,,,,1165.1259,2,audio/Narrative5Situation9.wav,1168.1384,,1168.1384,1207.683,"[[999,0],[999,83],[999,166],[999,250],[999,333],[999,416],[999,499],[999,583],[999,666],[999,749],[999,833],[999,916],[999,999],[999,1083],[999,1166],[999,1249],[999,1332],[999,1416],[999,1499],[999,1582],[999,1666],[999,1749],[999,1832],[999,1916],[999,1999],[999,2082],[999,2166],[999,2249],[999,2332],[999,2416],[999,2499],[999,2582],[999,2666],[999,2749],[999,2832],[999,2923],[999,3005],[999,3089],[999,3172],[999,3255],[40,3340],[41.6,3416],[42.2,3505],[42.2,3582],[42.2,3666],[42.2,3749],[42.2,3832],[42.2,3916],[44.1,3999],[51.4,4089],[53.5,4169],[54.4,4255],[54.4,4332],[54.4,4415],[54.4,4499],[54.4,4582],[54.4,4665],[53,4755],[52.7,4839],[52.5,4915],[52.3,4999],[52.3,5082],[52.3,5165],[52.3,5249],[52.3,5332],[52.3,5415],[52.3,5499],[52.3,5582],[52.3,5665],[52.3,5749],[52.3,5838],[52.3,5915],[52.3,5999],[52.3,6082],[52.3,6165],[52.3,6249],[52.3,6338],[52.3,6415],[52.3,6499],[52.3,6582],[52.3,6665],[52.3,6749],[52.3,6832],[52.3,6921],[52.3,6999],[52.3,7082],[52.3,7165],[55,7255],[58.3,7338],[59.7,7415],[60.4,7498],[61.4,7588],[62.7,7672],[63.5,7755],[63.9,7838],[63.9,7915],[64.4,8004],[64.6,8088],[65.6,8171],[66.7,8249],[69.4,8338],[74.4,8422],[79.5,8505],[83.5,8588],[88.3,8671],[91.7,8755],[93.9,8838],[94.8,8922],[95.8,9005],[97.3,9088],[98.8,9171],[98.8,9255],[98.8,9331],[98.8,9415],[98.8,9498],[98.8,9581],[98.8,9665],[98.8,9748],[98.8,9831],[98.8,9915],[98.8,9998],[98.8,10081],[98.8,10165],[98.8,10248],[98.8,10331],[97.5,10421],[91.3,10504],[81.4,10588],[76.5,10671],[74.1,10755],[73.6,10831],[73.6,10914],[73.6,10998],[73.6,11081],[73.6,11164],[73.6,11248],[73.6,11331],[73.6,11414],[73.6,11498],[73.6,11581],[73.6,11673],[73.6,11751],[73.6,11831],[73.6,11914],[73.6,11998],[73.6,12088],[73.6,12164],[73.6,12253],[73.6,12331],[73.6,12421],[73.6,12498],[73.6,12581],[73.6,12664],[73.6,12748],[73.6,12831],[73.6,12914],[73.6,12998],[73.6,13081],[73.6,13164],[73.6,13254],[73.6,13331],[73.6,13414],[73.6,13498],[73.6,13581],[73.6,13664],[73.6,13748],[74.3,13837],[75.5,13921],[77.1,14004],[78.3,14087],[80.3,14171],[82.7,14254],[85.2,14338],[87.7,14421],[90.2,14504],[92.4,14585],[93.5,14671],[93.6,14747],[93.6,14831],[97.2,15320],[97.9,15397],[98.3,15481],[98.3,15564],[98.3,15647],[98.3,15731],[98.3,15814],[98.3,15897],[98.3,15980],[98.3,16064],[98.3,16153],[98.3,16230],[98.3,16314],[98.3,16397],[98.3,16480],[98.3,16564],[98.3,16647],[98.3,16731],[98.3,16814],[98.3,16897],[98.3,16981],[98.3,17064],[98.3,17147],[98.3,17230],[98.3,17314],[98.3,17397],[98.3,17480],[98.3,17564],[98.3,17647],[98.3,17730],[98.3,17814],[98.3,17897],[98.3,17980],[98.3,18070],[98.3,18147],[98.3,18230],[98.3,18314],[98.3,18397],[98.3,18480],[98.3,18564],[98.3,18647],[98.3,18730],[98.3,18813],[98.3,18897],[98.3,18980],[98.3,19063],[98.3,19147],[98.3,19230],[98.3,19313],[98.3,19397],[98.3,19480],[98.3,19563],[98.3,19647],[98.3,19730],[98.3,19813],[98.3,19897],[98.3,19980],[98.3,20063],[98.3,20147],[98.3,20230],[98.3,20313],[98.3,20397],[98.3,20480],[97.7,20563],[98.6,20653],[100,20736],[100,20836],[100,20913],[100,20996],[100,21080],[100,21163],[100,21246],[100,21330],[100,21413],[100,21496],[100,21580],[100,21663],[100,21746],[100,21830],[100,21913],[100,21996],[100,22080],[100,22163],[100,22246],[100,22330],[100,22413],[100,22496],[100,22586],[100,22663],[100,22746],[100,22830],[100,22913],[100,22996],[100,23079],[100,23163],[100,23246],[100,23329],[100,23416],[100,23496],[100,23579],[100,23663],[100,23746],[100,23829],[100,23913],[100,23996],[100,24079],[100,24163],[100,24246],[100,24329],[100,24413],[100,24496],[100,24579],[100,24663],[100,24746],[100,24829],[100,24913],[100,24996],[100,25079],[100,25169],[100,25246],[100,25329],[100,25413],[100,25496],[100,25579],[100,25663],[100,25746],[100,25829],[100,25913],[100,25996],[100,26079],[100,26163],[100,26246],[100,26329],[100,26412],[100,26496],[100,26579],[100,26662],[100,26746],[100,26829],[100,26912],[100,26996],[100,27079],[100,27162],[100,27246],[100,27329],[100,27412],[100,27496],[100,27579],[100,27662],[100,27745],[100,27829],[100,27912],[100,27995],[100,28085],[100,28162],[100,28245],[100,28329],[100,28412],[100,28495],[100,28579],[100,28662],[100,28745],[100,28829],[100,28912],[100,28995],[100,29079],[100,29162],[100,29245],[100,29329],[100,29412],[100,29495],[100,29579],[100,29662],[100,29745],[100,29828],[100,29912],[100,29995],[100,30078],[100,30162],[100,30245],[100,30328],[100,30412],[100,30495],[100,30578],[100,30662],[100,30745],[100,30828],[100,30912],[100,30995],[100,31078],[100,31162],[100,31245],[100,31328],[100,31412],[100,31495],[100,31578],[100,31662],[100,31745],[100,31828],[100,31912],[100,31995],[100,32078],[100,32168],[100,32245],[100,32328],[100,32411],[100,32495],[100,32578],[100,32662],[100,32745],[100,32828],[100,32911],[100,33001],[100,33078],[100,33162],[100,33245],[100,33328],[100,33411],[100,33495],[100,33578],[100,33661],[100,33745],[100,33828],[100,33911],[100,33995],[100,34078],[100,34161],[100,34245],[100,34328],[100,34411],[100,34495],[100,34578],[100,34661],[100,34745],[100,34834],[100,34911],[100,34994],[100,35078],[100,35161],[100,35251],[100,35328],[100,35411],[100,35494],[100,35578],[100,35661],[100,35744],[100,35828],[100,35911],[100,35994],[100,36078],[100,36161],[100,36244],[100,36328],[100,36411],[100,36494],[100,36578],[100,36661],[100,36744],[100,36827],[100,36911],[100,36994],[100,37078],[100,37167],[100,37244],[100,37327],[100,37415],[100,37494],[100,37577],[100,37661],[100,37744],[100,37827],[100,37917],[100,37994],[100,38077],[100,38161],[100,38244],[100,38327],[100,38411],[100,38494],[100,38577],[100,38661],[100,38744],[100,38827],[100,38911],[100,38994],[100,39077],[100,39161],[100,39244],[100,39327],[100,39410],[100,39494]]",1207.6834,1211.4157,99.06250636,2.6458,"[{""rating"":99.06250635782878,""responseTime"":2.6457999999970525}]",space,3.1888,,1211.4157,Partially,50,1211.418,,,[],,0,18,18,18,1,audio/Narrative8Situation9.wav,audio/Narrative7Situation9.wav,audio/Narrative6Situation9.wav,audio/Narrative5Situation9.wav,3,2,4,3,,,,,,,,,,,,,,,,,,,,,,,,,,,,,,,,,,,,,,,
,,,,,67f3147d939ee392b2741fb5,2025-07-07_19h17.56.514,group3.4_multiperson,2023.2.2,Win32,59.88023952,686c2ebf0248f13bef9af11f,686c7fa19336012acc800a82,,,,,,,,,,,,,,,,,,,,,,,,,,,,,,,,,,,,,,,,,,,,,,,,,,,,,,,,,,,,,,,,,,,,,,1211.4182,1213.7154,space,1.7683,,1213.7156,1231.7132,space,17.6731,,,,,,,,,,,,,,,,,,,,,,,,,,
