consent.started,consent.stopped,consentResponse.keys,consentResponse.rt,consentResponse.duration,participantID,date,expName,psychopyVersion,OS,frameRate,STUDY_ID,SESSION_ID,opening1.started,opening1.stopped,keyEndingOpening1.keys,keyEndingOpening1.rt,keyEndingOpening1.duration,volumeAdjust.started,volumeAdjust.stopped,endingAdjust.keys,endingAdjust.rt,endingAdjust.duration,opening2.started,opening2.stopped,keyEndingOpening.keys,keyEndingOpening.rt,keyEndingOpening.duration,mouse.x,mouse.y,mouse.leftButton,mouse.midButton,mouse.rightButton,mouse.time,instructionLoop.thisRepN,instructionLoop.thisTrialN,instructionLoop.thisN,instructionLoop.thisIndex,instructionLoop.ran,readyForAudio.started,readyForAudio.stopped,fixation.started,run,audio_played,fixation.stopped,endPractice.keys,audioPre.started,audioPre.stopped,continuousResponses_audio,intRating.started,intRating.stopped,intQuestionSlider.response,intQuestionSlider.rt,intQuestionSlider.history,confirmResponse.keys,confirmResponse.rt,confirmResponse.duration,catchQuestion.started,catch_label,catch_value,catchQuestion.stopped,catchQuestionSlider.response,catchQuestionSlider.rt,catchQuestionSlider.history,confirmResponse_2.keys,audioRunLoop.thisRepN,audioRunLoop.thisTrialN,audioRunLoop.thisN,audioRunLoop.thisIndex,audioRunLoop.ran,conditions1_1,conditions2_1,conditions1_2,conditions2_2,dur1_1,dur2_1,dur1_2,dur2_2,endPractice.rt,endPractice.duration,confirmResponse_2.rt,confirmResponse_2.duration,runIntervalBreak.started,runIntervalBreak.stopped,endingBreakKey.keys,connection.started,connection.stopped,connectionEnding.keys,connectionEnding.rt,connectionEnding.duration,readyForText.started,readyForText.stopped,textPre.started,run_dup,textPre.stopped,continuousResponses_text,textRunLoop.thisRepN,textRunLoop.thisTrialN,textRunLoop.thisN,textRunLoop.thisIndex,textRunLoop.ran,text1_1,text1_2,text2_1,text2_2,runBreakText.started,runBreakText.stopped,endingBreakKey_2.keys,ending.started,ending.stopped,endingEnding.keys,endingEnding.rt,endingEnding.duration
0,11.564,y,11.245,,67fdb95863b421ac7768f5d5,2025-07-07_22h01.36.293,group3.4_multiperson,2023.2.2,Win32,60.0240096,686c2ebf0248f13bef9af11f,686c7b405a43ea2a9c86316f,,,,,,,,,,,,,,,,,,,,,,,,,,,,,,,,,,,,,,,,,,,,,,,,,,,,,,,,,,,,,,,,,,,,,,,,,,,,,,,,,,,,,,,,,,,,,,,,,,,,
,,,,,67fdb95863b421ac7768f5d5,2025-07-07_22h01.36.293,group3.4_multiperson,2023.2.2,Win32,60.0240096,686c2ebf0248f13bef9af11f,686c7b405a43ea2a9c86316f,11.565,19.224,space,7.586,,,,,,,,,,,,,,,,,,,,,,,,,,,,,,,,,,,,,,,,,,,,,,,,,,,,,,,,,,,,,,,,,,,,,,,,,,,,,,,,,,,,,,,,,,,,,,,,
,,,,,67fdb95863b421ac7768f5d5,2025-07-07_22h01.36.293,group3.4_multiperson,2023.2.2,Win32,60.0240096,686c2ebf0248f13bef9af11f,686c7b405a43ea2a9c86316f,,,,,,19.224,77.759,space,58.201,,,,,,,,,,,,,,,,,,,,,,,,,,,,,,,,,,,,,,,,,,,,,,,,,,,,,,,,,,,,,,,,,,,,,,,,,,,,,,,,,,,,,,,,,,,
,,,,,67fdb95863b421ac7768f5d5,2025-07-07_22h01.36.293,group3.4_multiperson,2023.2.2,Win32,60.0240096,686c2ebf0248f13bef9af11f,686c7b405a43ea2a9c86316f,,,,,,,,,,,77.77,264.987,space,187.171,,[],[],[],[],[],[],0,0,0,0,1,,,,,,,,,,,,,,,,,,,,,,,,,,,,,,,,,,,,,,,,,,,,,,,,,,,,,,,,,,,,,,,,,,,,,,,,,,
,,,,,67fdb95863b421ac7768f5d5,2025-07-07_22h01.36.293,group3.4_multiperson,2023.2.2,Win32,60.0240096,686c2ebf0248f13bef9af11f,686c7b405a43ea2a9c86316f,,,,,,,,,,,264.993,304.536,space,39.397,,[],[],[],[],[],[],1,0,1,0,1,,,,,,,,,,,,,,,,,,,,,,,,,,,,,,,,,,,,,,,,,,,,,,,,,,,,,,,,,,,,,,,,,,,,,,,,,,
,,,,,67fdb95863b421ac7768f5d5,2025-07-07_22h01.36.293,group3.4_multiperson,2023.2.2,Win32,60.0240096,686c2ebf0248f13bef9af11f,686c7b405a43ea2a9c86316f,,,,,,,,,,,304.541,321.853,space,17.237,,[],[],[],[],[],[],2,0,2,0,1,,,,,,,,,,,,,,,,,,,,,,,,,,,,,,,,,,,,,,,,,,,,,,,,,,,,,,,,,,,,,,,,,,,,,,,,,,
,,,,,67fdb95863b421ac7768f5d5,2025-07-07_22h01.36.293,group3.4_multiperson,2023.2.2,Win32,60.0240096,686c2ebf0248f13bef9af11f,686c7b405a43ea2a9c86316f,,,,,,,,,,,321.858,390.19,space,68.272,,[],[],[],[],[],[],3,0,3,0,1,,,,,,,,,,,,,,,,,,,,,,,,,,,,,,,,,,,,,,,,,,,,,,,,,,,,,,,,,,,,,,,,,,,,,,,,,,
,,,,,67fdb95863b421ac7768f5d5,2025-07-07_22h01.36.293,group3.4_multiperson,2023.2.2,Win32,60.0240096,686c2ebf0248f13bef9af11f,686c7b405a43ea2a9c86316f,,,,,,,,,,,390.195,413.377,space,23.133,,[],[],[],[],[],[],4,0,4,0,1,,,,,,,,,,,,,,,,,,,,,,,,,,,,,,,,,,,,,,,,,,,,,,,,,,,,,,,,,,,,,,,,,,,,,,,,,,
,,,,,67fdb95863b421ac7768f5d5,2025-07-07_22h01.36.293,group3.4_multiperson,2023.2.2,Win32,60.0240096,686c2ebf0248f13bef9af11f,686c7b405a43ea2a9c86316f,,,,,,,,,,,413.38,427.924,space,14.49,,[],[],[],[],[],[],5,0,5,0,1,,,,,,,,,,,,,,,,,,,,,,,,,,,,,,,,,,,,,,,,,,,,,,,,,,,,,,,,,,,,,,,,,,,,,,,,,,
,,,,,67fdb95863b421ac7768f5d5,2025-07-07_22h01.36.293,group3.4_multiperson,2023.2.2,Win32,60.0240096,686c2ebf0248f13bef9af11f,686c7b405a43ea2a9c86316f,,,,,,,,,,,,,,,,,,,,,,,,,,,427.93,430.508,430.544,1,audio/Narrative13Situation2.wav,432.557,,432.557,462.309,"[[999,0],[999,133],[999,216],[999,299],[999,382],[999,466],[999,549],[999,632],[999,716],[999,800],[999,883],[999,965],[999,1049],[999,1132],[999,1216],[999,1299],[999,1382],[999,1465],[999,1549],[999,1632],[999,1716],[999,1799],[999,1883],[999,1966],[999,2049],[999,2133],[999,2216],[999,2299],[999,2383],[999,2466],[999,2550],[999,2632],[999,2716],[999,2799],[999,2882],[999,2966],[999,3049],[999,3133],[999,3216],[999,3299],[999,3382],[999,3466],[999,3550],[999,3633],[999,3716],[999,3799],[999,3883],[999,3966],[999,4049],[999,4133],[999,4216],[999,4299],[999,4383],[999,4466],[999,4550],[999,4632],[999,4716],[999,4800],[999,4883],[999,4966],[999,5050],[999,5133],[999,5216],[999,5299],[999,5382],[999,5466],[999,5550],[999,5635],[999,5716],[999,5799],[999,5883],[999,5966],[999,6049],[999,6133],[999,6216],[12.6,6300],[8.1,6383],[5.2,6467],[4,6550],[3,6633],[2.3,6715],[1.8,6800],[1.8,6884],[4.8,6966],[23.2,7050],[32.4,7134],[39.5,7217],[50.4,7300],[56.8,7383],[59.2,7466],[62.6,7550],[66.4,7633],[67.7,7716],[68,7799],[68,7883],[68,7966],[68,8049],[68,8133],[69.3,8216],[73.3,8299],[79.3,8383],[90.2,8466],[94.1,8550],[96.6,8633],[97,8716],[97.4,8800],[98.4,8883],[99,8967],[99,9050],[99,9133],[99,9217],[99,9299],[99,9383],[99,9466],[99,9549],[99,9633],[99,9716],[99,9799],[99,9883],[99,9966],[99,10050],[99,10133],[99,10217],[99,10300],[99,10383],[99,10466],[99,10550],[99,10633],[99,10716],[99,10800],[99,10883],[99,10966],[99,11050],[99,11133],[99,11216],[99,11300],[99,11383],[99,11466],[99,11549],[99,11633],[99,11716],[99,11799],[99,11883],[99,11966],[99,12049],[99,12133],[99,12217],[99,12300],[99,12383],[99,12466],[99,12550],[99,12633],[99,12716],[99,12800],[99,12884],[99,12967],[99,13050],[99,13133],[99,13217],[99,13299],[99,13383],[99,13467],[99,13550],[99,13633],[99,13716],[99,13800],[99,13883],[99,13966],[99,14049],[99,14133],[99,14217],[99,14300],[99,14383],[99,14467],[99,14550],[99,14633],[99,14717],[99,14799],[99,14883],[99,14966],[99,15050],[99,15133],[99,15216],[99,15300],[99,15383],[99,15467],[99,15550],[99,15633],[99,15717],[99,15800],[99,15883],[99,15967],[99,16050],[99,16133],[99,16216],[99,16299],[99,16383],[99,16466],[99,16549],[99,16633],[99,16717],[99,16800],[99,16884],[99,16967],[99,17050],[99,17133],[99,17217],[99,17299],[99,17383],[99,17466],[99,17550],[99,17634],[99,17717],[99,17800],[99,17883],[99,17966],[99,18050],[99,18133],[99,18217],[99,18301],[99.6,18384],[99.9,18467],[100,18551]]",462.309,480.16,98.046875,14.907,"[{""rating"":83.72395833333333,""responseTime"":11.555000000000007},{""rating"":98.046875,""responseTime"":14.907000000000039}]",space,17.319,,480.161,Partially,50,480.179,,,[],,0,0,0,0,1,audio/Narrative13Situation2.wav,audio/Narrative13Situation2.wav,audio/Narrative13Situation2.wav,audio/Narrative13Situation2.wav,2,2,2,2,,,,,,,,,,,,,,,,,,,,,,,,,,,,,,,,,,,
,,,,,67fdb95863b421ac7768f5d5,2025-07-07_22h01.36.293,group3.4_multiperson,2023.2.2,Win32,60.0240096,686c2ebf0248f13bef9af11f,686c7b405a43ea2a9c86316f,,,,,,,,,,,,,,,,,,,,,,,,,,,,,480.182,1,audio/Narrative8Situation1.wav,482.809,space,482.809,498.728,"[[98.3,4835],[99.1,4918],[99.3,5001],[99.7,5084],[99.7,5167],[99.6,5251],[98.6,5334],[97.7,5417],[97.5,5501],[97.7,5584],[97.8,5667],[98,5750],[98,5834],[98,5917],[98,6000],[98,6084],[98,6167],[98,6251],[98,6334],[98,6417],[98,6501],[98,6584],[98,6668],[98,6751],[98,6834],[98,6918],[98,7001],[98,7084],[98,7168],[98,7251],[98,7334],[98,7418],[98,7501],[98,7584],[98,7668],[98,7751],[98,7834],[98,7918],[98,8001],[98,8084],[98,8168],[98,8251],[98,8334],[98,8417],[98,8501],[98,8584],[98,8668],[98,8751],[98,8834],[98,8917],[98,9001],[98,9084],[98,9167],[98,9251],[98,9334],[98,9418],[98,9502],[98,9585],[98,9667],[98,9751],[98,9835],[98,9918],[98,10001],[98,10084],[98,10168],[98,10251],[98,10334],[98,10418],[98,10501],[98,10584],[98,10667],[98,10751],[98,10834],[98,10918],[98,11001],[98,11084],[98,11168],[98,11254],[98,11334],[98,11417],[98,11501],[98,11584],[98,11668],[98,11751],[98,11834],[98,11917],[98,12002],[98,12084],[98,12168],[98,12251],[98,12334],[98,12418],[98,12501],[98,12585],[98,12668],[98,12751],[98,12835],[98,12918],[98,13001],[98,13084],[98,13168],[98,13251],[98,13334],[98,13418],[98,13501],[98,13584],[98,13668],[98,13752],[98,13835],[98,13918],[98,14001],[98,14084],[98,14168],[98,14250],[98,14334],[98,14417],[98,14500],[98,14585],[98,14668],[98,14750],[98,14834],[98,14918],[98,15000],[98,15084],[98,15168],[98,15250],[98,15335],[98,15418],[98,15500],[98,15584],[98,15668],[98,15750],[98,15834],[98,15918]]",498.728,507.731,99.47916667,6.973,"[{""rating"":99.47916666666667,""responseTime"":6.9729999999998995}]",space,8.451,,507.731,Partially,50,507.741,,,[],,0,1,1,1,1,audio/Narrative7Situation1.wav,audio/Narrative8Situation1.wav,audio/Narrative5Situation1.wav,audio/Narrative6Situation1.wav,2,5,5,2,2.576,,,,,,,,,,,,,,,,,,,,,,,,,,,,,,,,,,
,,,,,67fdb95863b421ac7768f5d5,2025-07-07_22h01.36.293,group3.4_multiperson,2023.2.2,Win32,60.0240096,686c2ebf0248f13bef9af11f,686c7b405a43ea2a9c86316f,,,,,,,,,,,,,,,,,,,,,,,,,,,,,507.742,1,audio/Narrative8Situation2.wav,510.745,,510.745,520.862,"[[97.1,6415],[89.8,6499],[79.9,6582],[67.4,6665],[59.8,6749],[57.6,6831],[56.5,6915],[55.6,6999],[55.5,7081],[55.5,7165],[55.5,7249],[55.5,7332],[55.5,7415],[55.5,7500],[55.5,7582],[42.3,7667],[35.2,7750],[30.5,7832],[24.7,7917],[17.1,7999],[13.4,8082],[12.2,8165],[12.1,8249],[12.1,8331],[12.1,8415],[12.1,8510],[12.1,8582],[12.1,8665],[12.1,8749],[12.1,8832],[12.1,8915],[11.2,9000],[9.2,9082],[8.7,9165],[8.7,9249],[8.7,9332],[8.7,9415],[8.7,9499],[9.5,9582],[10.4,9665],[10.8,9749],[10.9,9832],[11.6,9917],[11.8,9999],[11.8,10082]]",520.862,525.895,51.69270833,4.329,"[{""rating"":51.692708333333336,""responseTime"":4.329000000000065}]",space,4.483,,525.895,Not at all,0,531.879,0.520833333,4.191,"[{""rating"":0.5208333333333315,""responseTime"":4.191000000000031}]",space,0,2,2,2,1,audio/Narrative7Situation2.wav,audio/Narrative8Situation2.wav,audio/Narrative5Situation2.wav,audio/Narrative6Situation2.wav,3,3,3,3,,,5.452,,,,,,,,,,,,,,,,,,,,,,,,,,,,,,,,
,,,,,67fdb95863b421ac7768f5d5,2025-07-07_22h01.36.293,group3.4_multiperson,2023.2.2,Win32,60.0240096,686c2ebf0248f13bef9af11f,686c7b405a43ea2a9c86316f,,,,,,,,,,,,,,,,,,,,,,,,,,,,,531.88,1,audio/Narrative8Situation3.wav,535.896,,535.896,558.297,"[[999,0],[999,81],[999,165],[999,249],[999,343],[999,416],[999,499],[999,581],[999,665],[999,749],[999,831],[999,916],[999,999],[999,1083],[999,1166],[999,1249],[999,1333],[999,1416],[999,1499],[999,1583],[999,1666],[999,1749],[999,1831],[999,1915],[999,1999],[999,2081],[999,2166],[999,2249],[999,2333],[999,2416],[999,2500],[999,2583],[999,2666],[999,2749],[999,2833],[999,2916],[999,3000],[999,3081],[999,3166],[999,3249],[999,3331],[999,3415],[999,3499],[999,3583],[999,3666],[999,3749],[999,3833],[999,3916],[999,4000],[999,4081],[999,4166],[999,4250],[999,4333],[999,4416],[999,4499],[999,4583],[999,4666],[999,4750],[999,4833],[999,4916],[999,5000],[999,5083],[999,5166],[999,5249],[999,5333],[40.8,5417],[89.7,6166],[89.8,6250],[92.1,6333],[93.1,6417],[94.1,6500],[96.1,6583],[97.5,6667],[98,6750],[98.2,6833],[98.2,6917],[98.2,7000],[98.2,7081],[98.2,7166],[98.2,7254],[98.2,7331],[98.2,7416],[98.2,7499],[98.2,7583],[98.2,7666],[98.2,7749],[98.2,7833],[98.2,7917],[98.2,7999],[98.2,8083],[98.2,8166],[98.2,8250],[98.2,8333],[98.2,8418],[98.2,8500],[98.2,8583],[98.2,8666],[98.2,8750],[98.2,8833],[98.2,8916],[98.2,9000],[98.2,9081],[98.2,9166],[98.2,9250],[98.2,9333],[98.2,9416],[98.2,9500],[98.2,9583],[98.2,9666],[98.2,9749],[98.2,9833],[98.2,9916],[98.2,9999],[98.2,10083],[98.2,10166],[98.2,10249],[98.2,10333],[98.2,10416],[98.2,10500],[98.2,10583],[98.2,10666],[98.2,10749],[98.2,10831],[98.2,10916],[98.2,11000],[98.2,11083],[98.2,11166],[98.2,11249],[98.2,11331],[98.2,11416],[98.2,11500],[98.2,11581],[98.2,11667],[98.2,11749],[98.2,11833],[98.2,11916],[98.2,12000],[98.2,12083],[98.2,12166],[98.2,12250],[98.2,12333],[98.2,12416],[98.2,12499],[98.2,12581],[98.2,12666],[98.2,12749],[98.2,12833],[98.2,12916],[98.2,13000],[98.2,13083],[98.2,13166],[98.2,13249],[98.2,13333],[98.2,13416],[98.2,13500],[98.2,13583],[98.2,13666],[98.2,13749],[98.2,13833],[98.2,13916],[98.2,14000],[98.2,14083],[98.2,14166],[98.2,14249],[98.2,14333],[98.2,14416],[98.2,14499],[98.2,14583],[98.2,14667],[98.2,14750],[98.2,14831],[98.2,14916],[98.2,15000],[98.2,15083],[98.2,15166],[98.2,15249],[98.2,15333],[98.2,15416],[98.2,15500],[98.2,15583],[98.2,15666],[98.2,15749],[98.2,15833],[98.2,15916],[98.2,15999],[98.2,16083],[98.2,16166],[98.2,16250],[98.2,16333],[98.2,16417],[98.2,16500],[98.2,16583],[98.2,16667],[98.2,16750],[98.2,16833],[98.2,16917],[98.2,17000],[98.2,17083],[98.2,17167],[98.2,17250],[98.2,17333],[98.2,17417],[98.2,17500],[98.2,17584],[98.2,17667],[98.2,17750],[98.2,17833],[98.2,17917],[98.2,17999],[98.2,18083],[98.2,18166],[98.2,18250],[98.2,18333],[98.2,18417],[98.2,18500],[98.2,18584],[98.2,18667],[98.2,18750],[98.2,18834],[98.2,18916],[98.2,19000],[98.2,19083],[98.2,19167],[98.2,19250],[98.2,19333],[98.2,19416],[98.2,19500],[98.2,19583],[98.2,19666],[98.2,19750],[98.2,19833],[98.2,19917],[98.2,20000],[98.2,20083],[98.2,20167],[98.2,20250],[98.2,20333],[98.2,20417],[98.2,20500],[98.2,20583],[98.2,20667],[98.2,20750],[98.2,20833],[98.2,20917],[98.2,21000],[98.2,21083],[98.2,21167],[98.2,21250],[98.2,21334],[98.2,21417],[98.2,21500],[98.2,21583],[98.2,21667],[98.2,21750],[98.2,21834],[98.2,21916],[98.2,22000],[98.2,22084],[98.2,22167],[98.2,22250],[98.2,22334]]",558.297,573.665,98.17708333,4.29,"[{""rating"":98.17708333333333,""responseTime"":4.290000000000077}]",space,14.818,,573.666,Not at all,0,573.685,,,[],,0,3,3,3,1,audio/Narrative7Situation3.wav,audio/Narrative8Situation3.wav,audio/Narrative5Situation3.wav,audio/Narrative6Situation3.wav,8,4,3,5,,,,,,,,,,,,,,,,,,,,,,,,,,,,,,,,,,,
,,,,,67fdb95863b421ac7768f5d5,2025-07-07_22h01.36.293,group3.4_multiperson,2023.2.2,Win32,60.0240096,686c2ebf0248f13bef9af11f,686c7b405a43ea2a9c86316f,,,,,,,,,,,,,,,,,,,,,,,,,,,,,573.687,1,audio/Narrative8Situation4.wav,576.698,,576.698,590.882,"[[999,3],[999,81],[999,166],[999,249],[999,332],[999,416],[999,499],[999,581],[999,664],[999,749],[999,831],[999,916],[999,999],[999,1081],[999,1164],[999,1249],[999,1332],[999,1414],[999,1500],[999,1581],[999,1666],[999,1749],[999,1831],[999,1914],[999,1999],[999,2082],[999,2164],[999,2249],[999,2331],[999,2416],[999,2499],[999,2584],[999,2666],[999,2749],[999,2832],[999,2916],[999,2999],[999,3081],[999,3164],[999,3249],[999,3331],[999,3414],[999,3499],[999,3581],[999,3666],[999,3750],[999,3831],[999,3914],[999,3999],[999,4082],[999,4166],[999,4250],[999,4331],[999,4416],[999,4499],[999,4581],[999,4666],[999,4749],[999,4831],[999,4914],[999,4999],[999,5082],[999,5166],[999,5249],[999,5331],[999,5416],[999,5499],[999,5581],[999,5666],[999,5750],[999,5831],[999,5916],[999,5999],[999,6082],[999,6166],[999,6249],[999,6331],[999,6416],[999,6499],[999,6582],[999,6666],[999,6750],[999,6832],[999,6916],[999,6999],[999,7082],[999,7169],[999,7249],[999,7332],[999,7416],[999,7499],[999,7582],[999,7666],[999,7750],[999,7832],[999,7917],[93.8,7999],[95.3,8082],[96,8167],[96.1,8249],[96.2,8332],[96.5,8416],[96.7,8500],[97.1,8582],[97.4,8666],[97.8,8749],[97.8,8831],[97.9,8917],[97.9,8999],[97.9,9081],[97.9,9166],[97.9,9249],[97.9,9332],[97.9,9416],[97.9,9499],[97.9,9581],[97.9,9666],[97.9,9750],[97.9,9831],[97.9,9916],[97.9,10000],[97.9,10082],[97.9,10166],[97.9,10250],[97.9,10331],[97.9,10416],[97.9,10500],[97.9,10582],[97.9,10666],[97.9,10750],[97.9,10832],[97.9,10916],[97.9,11000],[97.9,11082],[97.9,11167],[97.9,11250],[97.9,11332],[97.9,11416],[97.9,11499],[97.9,11581],[97.9,11666],[97.9,11750],[97.9,11832],[97.9,11916],[97.9,12000],[97.9,12082],[97.9,12166],[97.9,12249],[97.9,12332],[97.9,12416],[97.9,12499],[97.9,12582],[97.9,12666],[97.9,12749],[97.9,12832],[97.9,12916],[97.9,13000],[97.9,13087],[97.9,13167],[97.9,13250],[97.9,13334],[97.9,13423],[97.9,13500],[97.9,13582],[97.9,13666],[97.9,13749],[97.9,13832],[97.9,13916],[97.9,13999],[97.9,14082],[97.9,14166]]",590.882,599.298,98.69791667,7.059,"[{""rating"":98.69791666666667,""responseTime"":7.058999999999969}]",space,7.874,,599.299,Not at all,0,599.305,,,[],,0,4,4,4,1,audio/Narrative7Situation4.wav,audio/Narrative8Situation4.wav,audio/Narrative5Situation4.wav,audio/Narrative6Situation4.wav,3,3,1,2,,,,,,,,,,,,,,,,,,,,,,,,,,,,,,,,,,,
,,,,,67fdb95863b421ac7768f5d5,2025-07-07_22h01.36.293,group3.4_multiperson,2023.2.2,Win32,60.0240096,686c2ebf0248f13bef9af11f,686c7b405a43ea2a9c86316f,,,,,,,,,,,,,,,,,,,,,,,,,,,,,599.306,1,audio/Narrative8Situation5.wav,601.316,,601.317,609.566,"[[999,4],[999,97],[999,180],[999,264],[999,346],[999,430],[999,514],[999,597],[999,680],[999,764],[999,847],[999,930],[999,1014],[999,1097],[999,1182],[999,1264],[999,1347],[999,1432],[999,1514],[999,1597],[999,1680],[999,1764],[999,1846],[999,1932],[999,2014],[999,2098],[999,2182],[999,2264],[999,2347],[999,2430],[999,2514],[999,2597],[999,2682],[999,2764],[999,2847],[999,2930],[999,3014],[999,3097],[999,3180],[999,3264],[999,3347],[999,3430],[999,3514],[999,3597],[999,3680],[999,3764],[999,3847],[999,3932],[999,4014],[999,4097],[999,4180],[999,4264],[999,4347],[999,4432],[999,4514],[999,4597],[999,4682],[999,4764],[999,4847],[999,4930],[999,5014],[999,5097],[999,5180],[999,5264],[999,5347],[999,5430],[999,5514],[999,5597],[999,5682],[999,5764],[999,5847],[90.8,5932],[93.1,6014],[93.8,6098],[94.8,6182],[95.3,6264],[96,6347],[96.7,6430],[97.3,6514],[97.5,6597],[97.5,6680],[97.5,6764],[97.5,6847],[97.5,6932],[97.5,7014],[97.5,7097],[97.5,7182],[97.5,7264],[97.5,7348],[97.5,7430],[97.5,7514],[97.5,7597],[97.5,7680],[97.5,7764],[97.5,7847],[97.5,7932],[97.5,8014],[97.5,8097],[97.5,8182]]",609.566,616.533,99.34895833,5.877,"[{""rating"":99.34895833333333,""responseTime"":5.876999999999953}]",space,6.417,,616.533,Partially,50,616.545,,,[],,0,5,5,5,1,audio/Narrative7Situation5.wav,audio/Narrative8Situation5.wav,audio/Narrative5Situation5.wav,audio/Narrative6Situation5.wav,5,2,5,2,,,,,,,,,,,,,,,,,,,,,,,,,,,,,,,,,,,
,,,,,67fdb95863b421ac7768f5d5,2025-07-07_22h01.36.293,group3.4_multiperson,2023.2.2,Win32,60.0240096,686c2ebf0248f13bef9af11f,686c7b405a43ea2a9c86316f,,,,,,,,,,,,,,,,,,,,,,,,,,,,,616.545,1,audio/Narrative8Situation6.wav,618.55,,618.55,625.033,[],625.034,635.651,98.4375,9.562,"[{""rating"":93.09895833333333,""responseTime"":8.061000000000035},{""rating"":98.4375,""responseTime"":9.562000000000012}]",space,10.069,,635.651,Not at all,0,635.668,,,[],,0,6,6,6,1,audio/Narrative7Situation6.wav,audio/Narrative8Situation6.wav,audio/Narrative5Situation6.wav,audio/Narrative6Situation6.wav,3,2,3,2,,,,,,,,,,,,,,,,,,,,,,,,,,,,,,,,,,,
,,,,,67fdb95863b421ac7768f5d5,2025-07-07_22h01.36.293,group3.4_multiperson,2023.2.2,Win32,60.0240096,686c2ebf0248f13bef9af11f,686c7b405a43ea2a9c86316f,,,,,,,,,,,,,,,,,,,,,,,,,,,,,635.669,1,audio/Narrative8Situation7.wav,638.683,,638.683,650.784,"[[999,1],[999,83],[999,167],[999,250],[999,333],[999,417],[999,500],[999,583],[999,667],[999,750],[999,832],[999,917],[999,1000],[999,1082],[999,1167],[999,1250],[999,1333],[999,1417],[999,1500],[84.8,1583],[84.8,1667],[84.8,1750],[84.8,1833],[84.8,1917],[84.8,2000],[84.9,2085],[85.8,3083],[87.2,3167],[88.2,3250],[88.8,3332],[89.6,3417],[89.8,3500],[89.8,3583],[89.8,3667],[89.8,3750],[89.8,3832],[89.7,3917],[87.5,4000],[86.3,4083],[84.9,4167],[82.9,4250],[82.7,4333],[83.1,4418],[85.3,4500],[85.9,4585],[87,4668],[88.2,4750],[88.9,4833],[89.2,4917],[89.2,5000],[89.2,5082],[89.2,5166],[89.2,5250],[89.1,5333],[85.9,5417],[82.6,5500],[80.5,5583],[79.9,5667],[79.9,5750],[79.9,5833],[79.9,5917],[79.9,6000],[79.9,6083],[79.9,6167],[79.9,6250],[79.9,6332],[79.9,6417],[79.9,6500],[79.9,6583],[79.9,6667],[79.9,6750],[79.9,6833],[79.9,6917],[79.9,7000],[79.9,7082],[79.9,7167],[79.9,7250],[79.9,7332],[79.9,7418],[79.9,7500],[79.9,7583],[79.9,7668],[79.9,7750],[79.9,7832],[79.9,7917],[79.9,8000],[79.9,8083],[79.9,8167],[79.9,8250],[79.9,8333],[79.9,8417],[79.9,8500],[79.9,8583],[79.9,8667],[84.9,8750],[86.5,8835],[87,8918],[90,9000],[90.6,9083],[95.2,9167],[95.6,9250],[95.6,9332],[95.6,9417],[95.6,9500],[95.6,9583],[95.6,9667],[95.6,9750],[95.6,9833],[95.6,9917],[95.6,10000],[95.6,10082],[95.6,10168],[95.6,10250],[95.6,10333],[95.6,10417],[95.6,10500],[95.4,10583],[95.4,10667],[95.4,10750],[95.4,10833],[95.4,10917],[95.4,11000],[95.4,11083],[95.4,11167],[95.4,11250],[95.4,11333],[95.4,11417],[95.4,11500],[95.4,11583],[95.4,11668],[95.4,11750],[95.4,11833],[95.4,11917],[95.4,12000],[95.4,12083]]",650.785,655.334,98.95833333,3.478,"[{""rating"":98.95833333333333,""responseTime"":3.4780000000000655}]",space,4.006,,655.335,Not at all,0,655.342,,,[],,0,7,7,7,1,audio/Narrative7Situation7.wav,audio/Narrative8Situation7.wav,audio/Narrative5Situation7.wav,audio/Narrative6Situation7.wav,5,3,4,5,,,,,,,,,,,,,,,,,,,,,,,,,,,,,,,,,,,
,,,,,67fdb95863b421ac7768f5d5,2025-07-07_22h01.36.293,group3.4_multiperson,2023.2.2,Win32,60.0240096,686c2ebf0248f13bef9af11f,686c7b405a43ea2a9c86316f,,,,,,,,,,,,,,,,,,,,,,,,,,,,,655.343,1,audio/Narrative8Situation8.wav,658.351,,658.351,671.219,"[[999,1],[999,82],[999,167],[999,250],[999,332],[999,415],[999,499],[999,582],[999,665],[999,750],[999,832],[999,917],[999,1000],[999,1082],[999,1165],[999,1249],[999,1332],[999,1417],[999,1500],[999,1582],[999,1667],[999,1750],[999,1832],[999,1915],[999,2000],[999,2082],[999,2170],[999,2250],[999,2332],[999,2415],[999,2500],[999,2583],[85.8,2665],[85.8,2750],[85.8,2832],[85.8,2915],[85.8,3000],[85.8,3082],[85.8,3165],[85.8,3249],[84.9,3332],[84,3415],[82.8,3500],[82,3582],[81,3667],[80.2,3750],[79.8,3832],[79.9,3917],[80.6,4000],[81.8,4083],[82.9,4167],[83.6,4250],[83.7,4333],[83.7,4417],[83.7,4500],[83.7,4582],[83.7,4667],[83.7,4750],[83.7,4832],[83.3,4918],[82.4,5000],[81.1,5083],[80.3,5167],[80.3,5250],[80.3,5332],[80.5,5417],[80.5,5500],[80.5,5583],[80.5,5667],[80.5,5750],[80.5,5832],[81.4,5917],[82.8,6000],[83.7,6083],[84.1,6167],[84.4,6250],[84.8,6332],[84.8,6417],[84.8,6500],[84.8,6583],[84.8,6667],[84.8,6750],[84.8,6832],[85.8,6917],[87.4,7000],[88.5,7083],[89.7,7167],[90.6,7250],[91.3,7333],[91.7,7417],[91.9,7500],[91.9,7591],[92.1,7665],[92.2,7750],[92.2,7832],[92.2,7918],[92.2,8000],[92.2,8083],[92.2,8167],[92.2,8250],[92.2,8332],[92.2,8417],[92.2,8500],[92.2,8583],[92.2,8667],[92.2,8750],[92.2,8832],[92.2,8915],[92.2,9000],[92.2,9082],[92.2,9167],[92.2,9250],[92.2,9332],[92.2,9417],[92.2,9500],[92.2,9582],[92.2,9667],[92.2,9750],[92.2,9832],[92.2,9917],[92.2,10000],[92.2,10083],[92.2,10167],[92.2,10250],[92.2,10333],[92.2,10417],[92.2,10500],[92.2,10583],[92.2,10667],[92.2,10750],[92.2,10833],[92.2,10917],[92.2,11000],[92.2,11083],[92.2,11167],[92.2,11250],[92.2,11332],[92.2,11417],[92.2,11500],[92.2,11583],[92.2,11667],[92.2,11750],[92.2,11833],[92.2,11917],[92.2,12000],[92.2,12082],[92.2,12165],[92.2,12250],[92.2,12332],[92.2,12417],[92.2,12500],[92.2,12582],[92.2,12667],[92.2,12750],[92.2,12832]]",671.219,675.252,98.17708333,2.84,"[{""rating"":98.17708333333333,""responseTime"":2.839999999999918}]",space,3.487,,675.252,Partially,50,675.267,,,[],,0,8,8,8,1,audio/Narrative7Situation8.wav,audio/Narrative8Situation8.wav,audio/Narrative5Situation8.wav,audio/Narrative6Situation8.wav,2,3,3,5,,,,,,,,,,,,,,,,,,,,,,,,,,,,,,,,,,,
,,,,,67fdb95863b421ac7768f5d5,2025-07-07_22h01.36.293,group3.4_multiperson,2023.2.2,Win32,60.0240096,686c2ebf0248f13bef9af11f,686c7b405a43ea2a9c86316f,,,,,,,,,,,,,,,,,,,,,,,,,,,,,675.268,1,audio/Narrative8Situation9.wav,678.269,,678.269,689.586,"[[999,1],[999,81],[999,165],[999,250],[999,331],[999,415],[999,499],[999,581],[999,665],[999,754],[999,832],[999,914],[999,1000],[999,1081],[999,1165],[999,1249],[999,1332],[999,1415],[999,1499],[999,1582],[999,1665],[999,1750],[999,1832],[999,1915],[999,1999],[999,2081],[999,2165],[999,2249],[999,2332],[999,2415],[999,2500],[999,2582],[999,2665],[999,2750],[999,2832],[999,2915],[999,3000],[999,3082],[999,3167],[999,3250],[999,3332],[999,3415],[999,3499],[999,3581],[999,3665],[999,3749],[999,3832],[999,3915],[999,4000],[999,4082],[86.8,4167],[88.8,4250],[89.8,4332],[91.5,4415],[93.5,4500],[95.1,4582],[96.4,4665],[96.7,4749],[96.7,4831],[96.7,4915],[96.7,5000],[96.7,5082],[96.7,5165],[96.7,5250],[96.7,5332],[96.7,5418],[96.7,5499],[96.7,5582],[96.7,5665],[96.7,5750],[96.7,5832],[96.7,5917],[96.7,6000],[96.7,6082],[96.7,6165],[96.7,6249],[96.7,6331],[96.7,6415],[96.7,6500],[96.7,6582],[96.7,6667],[96.7,6750],[96.7,6832],[96.7,6917],[96.7,7000],[96.7,7082],[96.7,7167],[96.7,7250],[96.7,7332],[96.7,7415],[96.7,7499],[96.7,7582],[96.7,7665],[96.7,7750],[96.7,7832],[96.7,7915],[96.7,8000],[96.7,8082],[96.7,8167],[96.7,8249],[96.7,8332],[96.7,8415],[96.7,8499],[96.7,8582],[96.7,8665],[96.7,8749],[96.7,8832],[96.7,8915],[96.7,9000],[96.7,9082],[96.7,9165],[96.7,9250],[96.7,9332],[96.7,9415],[96.7,9500],[96.7,9583],[96.7,9667],[96.7,9750],[96.7,9832],[96.7,9917],[96.7,10000],[96.7,10082],[96.7,10165],[96.7,10250],[96.7,10332],[96.7,10415],[96.7,10500],[96.7,10582],[96.7,10667],[96.7,10750],[96.7,10832],[96.7,10915],[96.7,11000],[96.7,11082],[96.7,11165],[96.7,11250]]",689.587,695.986,97.78645833,4.878,"[{""rating"":97.78645833333333,""responseTime"":4.878000000000043}]",space,5.85,,695.986,Partially,50,695.994,,,[],,0,9,9,9,1,audio/Narrative7Situation9.wav,audio/Narrative8Situation9.wav,audio/Narrative5Situation9.wav,audio/Narrative6Situation9.wav,2,3,3,4,,,,,,,,,,,,,,,,,,,,,,,,,,,,,,,,,,,
,,,,,67fdb95863b421ac7768f5d5,2025-07-07_22h01.36.293,group3.4_multiperson,2023.2.2,Win32,60.0240096,686c2ebf0248f13bef9af11f,686c7b405a43ea2a9c86316f,,,,,,,,,,,,,,,,,,,,,,,,,,,,,695.994,1,audio/Narrative7Situation1.wav,698.004,,698.004,753.89,"[[999,6],[999,97],[999,180],[999,265],[999,347],[999,432],[999,514],[999,597],[999,682],[999,764],[999,848],[999,930],[999,1014],[999,1097],[999,1182],[999,1264],[999,1347],[999,1432],[999,1514],[999,1597],[999,1682],[999,1765],[999,1848],[999,1930],[999,2015],[999,2098],[999,2182],[999,2265],[999,2348],[999,2432],[999,2515],[999,2598],[999,2682],[999,2764],[88,2848],[89.6,2932],[90.2,3014],[90.4,3097],[90.4,3182],[90.8,3265],[91.5,3350],[91.9,3432],[91.9,3514],[91.9,3598],[92.6,3682],[93.2,3764],[93.5,3847],[93.5,3930],[93.5,4014],[93.6,4097],[93.6,4182],[93.6,4264],[93.6,4348],[93.6,4432],[93.6,4514],[93.6,4598],[93.6,4685],[93.6,4765],[93.6,4848],[93,4932],[91.7,5015],[89.7,5098],[86.2,5182],[84.6,5265],[83.9,5348],[82.7,5432],[79.4,5515],[76.3,5600],[74.2,5682],[72.9,5765],[72.5,5850],[72.5,5932],[72.5,6014],[72.5,6098],[72.5,6182],[72.5,6265],[72.5,6348],[72.5,6432],[72.5,6515],[72.5,6597],[70.1,6682],[68.2,6765],[66.9,6848],[65.4,6932],[62.9,7015],[59,7098],[50.3,7182],[41.1,7265],[39.3,7348],[39.3,7432],[39.3,7515],[39.3,7598],[39.3,7682],[38.5,7765],[37.4,7850],[37.1,7932],[37.1,8014],[37,8098],[36.8,8182],[35.7,8265],[34.9,8348],[34,8432],[32.7,8515],[31,8600],[27.1,8682],[13.9,8765],[9.9,8848],[9.4,8932],[7.8,9015],[6,9098],[5.2,9182],[4.9,9265],[4.7,9348],[4.7,9432],[4.7,9515],[4.7,9598],[4.7,9682],[4.7,9765],[4.7,9848],[4.7,9932],[4.7,10014],[4.7,10098],[4.7,10182],[4.7,10265],[4.7,10347],[4.7,10432],[4.7,10515],[4.7,10598],[4.7,10682],[4.7,10764],[4.7,10848],[4.7,10932],[4.7,11014],[4.7,11098],[4.7,11182],[4.7,11265],[4.7,11348],[4.7,11432],[4.7,11515],[4.7,11600],[4.7,11682],[4.7,11765],[4.7,11848],[4.7,11932],[4.7,12014],[4.7,12098],[4.7,12182],[4.7,12264],[4.7,12350],[4.7,12432],[4.7,12515],[4.7,12598],[4.7,12682],[4.7,12765],[4.7,12848],[4.7,12932],[4.7,13015],[4.7,13098],[4.7,13182],[4.7,13265],[4.7,13348],[4.7,13432],[4.7,13515],[4.7,13598],[4.7,13682],[4.7,13764],[4.7,13848],[4.7,13932],[4.7,14015],[4.7,14098],[4.7,14182],[4.7,14265],[4.7,14348],[4.7,14432],[4.7,14515],[4.7,14600],[4.7,14682],[4.7,14764],[4.7,14848],[4.7,14932],[4.7,15014],[4.7,15098],[4.7,15182],[4.7,15265],[4.7,15350],[4.7,15432],[4.7,15520],[4.7,15598],[4.7,15682],[4.7,15765],[4.7,15848],[4.7,15932],[4.7,16015],[4.7,16098],[4.7,16182],[4.7,16265],[4.7,16348],[4.7,16432],[4.7,16515],[4.7,16600],[4.7,16682],[4.7,16765],[4.7,16848],[4.7,16932],[4.7,17015],[4.7,17100],[4.7,17182],[4.7,17265],[4.7,17348],[4.7,17432],[4.7,17515],[4.7,17598],[4.7,17682],[4.7,17765],[5.2,17850],[6.5,17932],[7.3,18016],[7.4,18098],[7.4,18182],[7.6,18265],[7.8,18348],[8.7,18432],[9.8,18515],[9.9,18598],[9.9,18682],[9.9,18765],[9.9,18850],[9.9,18932],[9.9,19015],[9.9,19098],[9.9,19182],[9.9,19265],[9.9,19350],[9.9,19432],[9.9,19515],[9.9,19600],[9.9,19682],[9.9,19765],[9.9,19848],[9.9,19932],[9.9,20015],[9.9,20098],[9.9,20182],[9.9,20265],[9.9,20348],[9.9,20432],[9.9,20515],[9.9,20598],[9.9,20682],[9.9,20765],[9.9,20848],[9.9,20932],[9.9,21015],[9.9,21098],[9.9,21182],[9.9,21265],[9.9,21350],[9.9,21432],[9.9,21515],[9.9,21600],[9.9,21682],[9.9,21765],[9.9,21850],[10.9,21933],[12.1,22015],[13.8,22100],[14.7,22182],[15,22265],[15.1,22348],[15.6,22432],[15.8,22516],[15.8,22598],[15.8,22682],[19.5,22765],[24.1,22850],[30.6,22932],[41,23015],[50.9,23100],[53.6,23182],[56.9,23266],[60,23350],[60.5,23432],[60.8,23516],[61.6,23600],[61.7,23682],[61.8,23766],[62.4,23850],[63.2,23932],[63.8,24016],[64.6,24100],[65.5,24182],[65.9,24265],[66.3,24350],[66.5,24432],[67.1,24516],[67.7,24600],[68.5,24683],[68.6,24765],[68.6,24850],[68.6,24932],[68.6,25015],[68.6,25098],[68.6,25182],[68.6,25266],[68.6,25350],[68.6,25432],[68.6,25516],[68.6,25600],[68.6,25682],[68.6,25765],[68.6,25850],[68.6,25932],[68.6,26015],[68.6,26100],[68.6,26182],[72,26266],[74.9,26350],[75.4,26432],[75.8,26516],[77.2,26601],[79.8,26682],[84.2,26766],[87.4,26851],[87.9,26932],[89.2,27016],[90.8,27100],[91.5,27182],[91.5,27265],[92.1,27350],[92.2,27432],[92.2,27515],[92.2,27600],[92.4,27683],[92.7,27766],[92.7,27848],[92.7,27932],[92.7,28015],[92.7,28100],[92.7,28182],[92.7,28274],[92.7,28350],[92.7,28432],[92.7,28515],[92.7,28600],[92.7,28682],[92.7,28766],[92.7,28850],[92.7,28932],[92.7,29023],[92.7,29098],[92.7,29182],[92.7,29265],[92.7,29351],[92.7,29432],[92.7,29515],[92.7,29600],[92.7,29682],[92.7,29766],[92.7,29850],[92.7,29932],[92.7,30016],[92.7,30100],[92.7,30182],[92.7,30265],[92.7,30350],[92.7,30432],[92.7,30515],[92.7,30598],[92.7,30682],[92.7,30766],[92.7,30850],[92.7,30932],[92.7,31015],[92.7,31100],[92.7,31183],[92.7,31265],[92.7,31350],[92.7,31432],[92.7,31516],[92.7,31600],[92.7,31682],[92.7,31765],[92.7,31850],[92.7,31932],[92.7,32015],[92.7,32100],[92.7,32183],[92.7,32266],[92.7,32350],[92.7,32432],[92.7,32515],[92.7,32600],[92.7,32682],[92.7,32766],[92.7,32851],[92.7,32933],[92.7,33015],[92.7,33100],[92.7,33182],[92.7,33265],[92.7,33350],[92.7,33432],[92.7,33515],[92.7,33600],[92.7,33682],[92.7,33766],[92.7,33850],[92.7,33933],[92.7,34016],[92.7,34100],[92.7,34183],[92.7,34266],[92.7,34350],[92.7,34432],[92.7,34515],[92.7,34600],[92.7,34682],[92.7,34766],[92.7,34850],[92.7,34932],[92.7,35016],[92.7,35100],[92.7,35183],[92.7,35266],[92.7,35351],[92.7,35433],[92.7,35516],[92.7,35601],[92.7,35682],[92.7,35766],[92.7,35850],[92.7,35933],[92.7,36015],[92.7,36100],[92.7,36183],[92.7,36266],[92.7,36350],[92.7,36432],[92.7,36516],[92.7,36600],[92.7,36683],[92.7,36766],[92.7,36850],[92.7,36933],[92.7,37016],[92.7,37100],[92.7,37182],[92.7,37266],[92.7,37351],[92.7,37433],[92.7,37516],[92.7,37601],[92.7,37682],[92.7,37766],[92.7,37850],[92.7,37932],[92.7,38017],[92.7,38100],[92.7,38183],[92.7,38266],[92.7,38351],[92.7,38433],[92.7,38516],[92.7,38600],[92.7,38682],[92.7,38766],[92.7,38851],[92.7,38933],[92.7,39016],[92.7,39100],[92.7,39182],[92.7,39266],[92.7,39350],[92.7,39432],[92.7,39516],[92.7,39600],[92.7,39682],[92.7,39766],[92.7,39850],[92.7,39932],[92.7,40016],[92.7,40100],[92.7,40182],[92.7,40266],[92.7,40351],[92.7,40433],[92.7,40516],[92.7,40601],[92.7,40683],[92.7,40766],[92.7,40851],[92.7,40932],[92.7,41016],[92.7,41100],[92.7,41183],[92.7,41266],[92.7,41350],[92.7,41433],[92.7,41516],[92.7,41601],[92.7,41683],[92.7,41767],[92.7,41850],[92.7,41933],[92.7,42016],[92.7,42101],[92.7,42184],[92.7,42267],[92.7,42350],[92.7,42432],[92.7,42516],[92.7,42600],[92.7,42683],[92.7,42766],[92.7,42851],[92.7,42933],[92.7,43016],[92.7,43100],[92.7,43183],[92.7,43267],[92.7,43350],[92.7,43433],[92.7,43516],[92.7,43601],[92.7,43683],[92.7,43766],[92.7,43851],[92.7,43933],[92.7,44017],[92.7,44101],[92.7,44183],[92.7,44266],[92.7,44350],[92.7,44433],[92.7,44516],[92.7,44601],[92.7,44683],[92.7,44766],[92.7,44851],[92.7,44933],[92.7,45017],[92.7,45101],[92.7,45183],[92.7,45266],[92.7,45350],[92.7,45433],[92.7,45516],[92.7,45600],[92.7,45687],[92.7,45766],[92.7,45851],[92.7,45933],[92.7,46016],[92.7,46100],[92.7,46183],[92.7,46267],[92.7,46350],[92.7,46433],[92.7,46516],[92.7,46601],[92.7,46683],[92.7,46766],[92.7,46851],[92.7,46933],[92.7,47016],[92.7,47101],[92.7,47183],[92.7,47266],[92.7,47350],[92.7,47433],[92.7,47516],[92.7,47600],[92.7,47683],[92.7,47766],[92.7,47851],[92.7,47932],[92.7,48017],[92.7,48101],[92.7,48183],[92.7,48266],[92.7,48350],[92.7,48433],[92.7,48516],[92.7,48601],[92.7,48683],[92.7,48767],[92.7,48851],[92.7,48933],[92.7,49016],[92.7,49101],[92.7,49183],[92.7,49267],[92.7,49350],[92.7,49433],[92.7,49517],[92.7,49601],[92.7,49683],[92.7,49766],[92.7,49851],[92.7,49933],[92.7,50017],[92.7,50101],[92.7,50183],[92.7,50266],[92.7,50351],[92.7,50433],[92.7,50516],[92.7,50600],[92.7,50683],[92.7,50766],[92.7,50851],[92.7,50933],[92.7,51017],[92.7,51101],[92.7,51183],[92.7,51267],[92.7,51351],[92.7,51433],[92.7,51517],[92.7,51601],[92.7,51684],[92.7,51766],[92.7,51850],[92.7,51933],[92.7,52016],[92.7,52101],[92.7,52183],[92.7,52267],[92.7,52351],[92.7,52433],[92.7,52516],[92.7,52601],[92.7,52683],[92.7,52767],[92.7,52851],[92.7,52934],[92.7,53016],[92.7,53101],[92.7,53183],[92.7,53267],[92.7,53351],[92.7,53433],[92.7,53517],[92.7,53601],[92.7,53684],[92.7,53766],[92.7,53851],[92.7,53933],[92.7,54017],[92.7,54101],[92.7,54184],[92.7,54267],[92.7,54351],[92.7,54433],[92.7,54516],[92.7,54601],[92.7,54683],[92.7,54767],[92.7,54851],[92.7,54933],[92.7,55017],[92.7,55101],[92.7,55184],[92.7,55266],[92.7,55351],[92.7,55433],[92.7,55517],[92.7,55601],[92.7,55684],[92.7,55767],[92.7,55851]]",753.892,757.923,98.828125,2.904,"[{""rating"":98.828125,""responseTime"":2.9039999999999964}]",space,3.49,,757.924,Not at all,0,757.946,,,[],,0,10,10,10,1,audio/Narrative8Situation1.wav,audio/Narrative7Situation1.wav,audio/Narrative6Situation1.wav,audio/Narrative5Situation1.wav,5,2,2,5,,,,,,,,,,,,,,,,,,,,,,,,,,,,,,,,,,,
,,,,,67fdb95863b421ac7768f5d5,2025-07-07_22h01.36.293,group3.4_multiperson,2023.2.2,Win32,60.0240096,686c2ebf0248f13bef9af11f,686c7b405a43ea2a9c86316f,,,,,,,,,,,,,,,,,,,,,,,,,,,,,757.947,1,audio/Narrative7Situation2.wav,760.955,,760.956,768.439,"[[999,1],[999,81],[999,165],[999,249],[999,332],[999,415],[999,500],[999,582],[999,665],[999,750],[999,832],[999,915],[999,1000],[999,1082],[999,1165],[999,1250],[999,1331],[999,1415],[999,1499],[999,1583],[999,1665],[999,1749],[999,1832],[999,1915],[999,2000],[999,2082],[999,2165],[999,2254],[999,2333],[999,2416],[77.7,2500],[77.1,2582],[76.4,2665],[76.4,2749],[76.4,2832],[77.2,2916],[79.6,3000],[82.4,3082],[84.8,3165],[87.4,3250],[88.4,3332],[88.7,3415],[88.8,3500],[88.8,3582],[88.9,3666],[88.9,3749],[89.1,3832],[89.1,3915],[89.1,3999],[89.1,4082],[89.1,4166],[89.1,4249],[89.1,4332],[89.1,4415],[89.1,4500],[89.1,4582],[89.1,4665],[89.1,4750],[89.1,4832],[89.1,4916],[89.1,5000],[89.1,5082],[89.1,5166],[89.1,5250],[89.1,5332],[89.1,5415],[89.1,5500],[89.1,5582],[89.1,5665],[89.1,5750],[89.1,5832],[89.1,5915],[89.1,6000],[89.1,6082],[89.1,6165],[89.1,6249],[89.1,6332],[89.1,6415],[89.1,6499],[89.1,6582],[89.1,6666],[89.1,6749],[89.1,6832],[89.1,6915],[89.1,7000],[89.1,7082],[89.1,7165],[89.1,7250],[89.1,7332],[89.1,7416]]",768.442,771.656,96.484375,2.477,"[{""rating"":96.484375,""responseTime"":2.4769999999999754}]",space,2.669,,771.656,Definitely yes,100,771.665,,,[],,0,11,11,11,1,audio/Narrative8Situation2.wav,audio/Narrative7Situation2.wav,audio/Narrative6Situation2.wav,audio/Narrative5Situation2.wav,3,3,3,3,,,,,,,,,,,,,,,,,,,,,,,,,,,,,,,,,,,
,,,,,67fdb95863b421ac7768f5d5,2025-07-07_22h01.36.293,group3.4_multiperson,2023.2.2,Win32,60.0240096,686c2ebf0248f13bef9af11f,686c7b405a43ea2a9c86316f,,,,,,,,,,,,,,,,,,,,,,,,,,,,,771.666,1,audio/Narrative7Situation3.wav,779.673,,779.673,788.941,"[[62.6,333],[61.1,417],[70.6,1750],[70.2,1833],[36.3,4583],[34,4668],[33.2,4750],[33.1,4832],[33.1,4917],[33.1,5000],[33.1,5082],[33.1,5165],[33.1,5250],[33.3,5333],[34.6,5417],[35.4,5500],[38.2,5583],[42.7,5667],[44,5750],[44.4,5833],[44.4,5917],[44.4,6000],[45.6,6083],[48.7,6167],[51,6250],[53.5,6333],[56.9,6417],[58.1,6500],[58.3,6582],[58.5,6665],[58.7,6750],[58.7,6832],[58.9,6917],[59.4,7000],[59.9,7083],[60.3,7165],[60.3,7250],[60.3,7332],[60.3,7415],[60.3,7500],[60.3,7582],[60.3,7667],[60.3,7750],[41.9,7833],[24.2,7918],[10.5,8083],[9.6,8165],[9.6,8250],[9.9,8345],[12.6,8419],[13.8,8500],[14.3,8583],[14.3,8665],[14.5,8750],[14.5,8832],[14.5,8917],[14.5,9000],[14.5,9083],[14.5,9167],[14.5,9250]]",788.941,796.957,5.338541667,6.056,"[{""rating"":5.338541666666669,""responseTime"":6.05600000000004}]",space,7.468,,796.958,Not at all,0,796.972,,,[],,0,12,12,12,1,audio/Narrative8Situation3.wav,audio/Narrative7Situation3.wav,audio/Narrative6Situation3.wav,audio/Narrative5Situation3.wav,4,8,5,3,,,,,,,,,,,,,,,,,,,,,,,,,,,,,,,,,,,
,,,,,67fdb95863b421ac7768f5d5,2025-07-07_22h01.36.293,group3.4_multiperson,2023.2.2,Win32,60.0240096,686c2ebf0248f13bef9af11f,686c7b405a43ea2a9c86316f,,,,,,,,,,,,,,,,,,,,,,,,,,,,,796.973,1,audio/Narrative7Situation4.wav,799.974,,799.974,811.691,"[[999,0],[999,82],[999,165],[999,248],[999,332],[999,415],[999,500],[999,583],[999,666],[999,750],[999,832],[999,916],[999,1000],[999,1083],[999,1166],[999,1250],[999,1332],[999,1416],[999,1500],[999,1582],[999,1665],[999,1750],[999,1833],[999,1915],[999,2000],[999,2082],[999,2165],[999,2248],[999,2332],[999,2415],[999,2500],[999,2583],[999,2666],[999,2750],[999,2833],[999,2915],[999,3000],[999,3082],[999,3165],[999,3250],[999,3332],[999,3416],[999,3500],[999,3582],[999,3673],[999,3750],[999,3832],[999,3916],[999,4000],[999,4083],[999,4165],[999,4250],[999,4333],[999,4415],[999,4500],[999,4583],[19.8,4666],[17.7,4750],[16,4833],[15.2,4916],[14.8,5001],[14.7,5082],[14.8,5166],[14.8,5250],[14.8,5333],[14.8,5416],[14.8,5500],[14.8,5582],[34.1,5666],[52.5,5750],[57.8,5833],[58.2,5916],[58.5,6009],[59.6,6083],[61.6,6166],[64.6,6250],[68.4,6333],[68.9,6416],[68.9,6500],[68.9,6583],[68.9,6666],[68.9,6750],[68.9,6832],[69,6916],[70.3,7000],[71.4,7083],[71.7,7166],[71.7,7250],[71.7,7332],[71.7,7416],[71.6,7500],[71.2,7583],[69.9,7666],[64.8,7750],[52.2,7833],[44.3,7916],[42.3,8000],[42.3,8083],[42.3,8166],[42.3,8250],[42.3,8332],[41.7,8416],[30.5,8500],[26.6,8582],[23.6,8666],[21.7,8750],[20.4,8833],[19.3,8917],[18.8,9000],[18.6,9083],[18.6,9166],[18.6,9250],[18.6,9333],[18.6,9416],[18.6,9500],[18.6,9583],[18.6,9666],[18.6,9750],[18.6,9832],[18.6,9916],[18.6,10000],[18.6,10082],[18.6,10166],[18.4,10250],[18,10333],[18,10416],[18,10500],[18,10583],[18,10667],[18,10750],[17.7,10833],[17.2,10916],[16.8,11000],[16.8,11083],[16.8,11165],[16.8,11250],[16.8,11333],[16.8,11416],[16.8,11500],[16.8,11583],[16.8,11666]]",811.692,823.325,3.776041667,10.595,"[{""rating"":3.7760416666666687,""responseTime"":10.595000000000027}]",space,11.084,,823.325,Partially,50,823.339,,,[],,0,13,13,13,1,audio/Narrative8Situation4.wav,audio/Narrative7Situation4.wav,audio/Narrative6Situation4.wav,audio/Narrative5Situation4.wav,3,3,2,1,,,,,,,,,,,,,,,,,,,,,,,,,,,,,,,,,,,
,,,,,67fdb95863b421ac7768f5d5,2025-07-07_22h01.36.293,group3.4_multiperson,2023.2.2,Win32,60.0240096,686c2ebf0248f13bef9af11f,686c7b405a43ea2a9c86316f,,,,,,,,,,,,,,,,,,,,,,,,,,,,,823.34,1,audio/Narrative7Situation5.wav,828.342,,828.342,836.842,"[[999,3],[999,84],[999,167],[999,250],[999,332],[999,416],[999,499],[999,582],[999,666],[999,749],[999,832],[999,917],[999,1000],[999,1082],[999,1167],[999,1250],[999,1332],[999,1417],[999,1500],[999,1582],[999,1666],[999,1750],[999,1834],[999,1922],[999,2000],[999,2082],[999,2166],[999,2250],[999,2332],[999,2416],[999,2500],[999,2584],[999,2667],[999,2750],[999,2832],[999,2916],[999,2999],[999,3082],[999,3166],[999,3250],[999,3334],[999,3417],[999,3500],[999,3584],[999,3667],[999,3750],[999,3832],[999,3917],[999,4000],[999,4082],[999,4167],[999,4250],[999,4332],[999,4416],[999,4500],[999,4582],[999,4667],[999,4750],[999,4834],[999,4917],[999,5000],[999,5082],[999,5167],[999,5250],[999,5332],[999,5416],[999,5500],[999,5584],[999,5667],[999,5750],[999,5832],[999,5917],[999,6000],[999,6084],[999,6167],[999,6250],[999,6334],[999,6417],[999,6500],[999,6584],[999,6667],[999,6750],[999,6834],[999,6917],[999,7000],[999,7084],[999,7167],[999,7250],[999,7332],[999,7417],[999,7500],[999,7582],[999,7667],[999,7750],[999,7832],[999,7917],[999,8000],[999,8084],[999,8167],[999,8250],[999,8334],[999,8417],[999,8500]]",836.843,846.626,83.59375,3.745,"[{""rating"":83.59375,""responseTime"":3.7450000000000045}]",space,9.235,,846.626,Definitely yes,100,846.638,,,[],,0,14,14,14,1,audio/Narrative8Situation5.wav,audio/Narrative7Situation5.wav,audio/Narrative6Situation5.wav,audio/Narrative5Situation5.wav,2,5,2,5,,,,,,,,,,,,,,,,,,,,,,,,,,,,,,,,,,,
,,,,,67fdb95863b421ac7768f5d5,2025-07-07_22h01.36.293,group3.4_multiperson,2023.2.2,Win32,60.0240096,686c2ebf0248f13bef9af11f,686c7b405a43ea2a9c86316f,,,,,,,,,,,,,,,,,,,,,,,,,,,,,846.638,1,audio/Narrative7Situation6.wav,849.643,,849.643,859.627,"[[999,2],[999,82],[999,165],[999,250],[999,332],[999,415],[999,500],[999,582],[999,665],[999,750],[999,832],[999,916],[999,1000],[999,1082],[999,1166],[999,1250],[999,1332],[999,1415],[999,1500],[999,1583],[67.4,1665],[67.3,1748],[67.3,1832],[67.2,1915],[67.2,1998],[69.4,2082],[73.6,2166],[75,2250],[77.1,2333],[78.9,2416],[80.2,2500],[81.9,2583],[83.6,2666],[85.3,2750],[86.5,2832],[86.8,2915],[87.4,3000],[88.2,3082],[90.4,3166],[93.5,3250],[95.3,3333],[96.5,3416],[97,3500],[97,3582],[97.4,3668],[97.5,3750],[97.7,3833],[97.7,3915],[97.7,3998],[97.7,4082],[97.7,4166],[97.7,4250],[97.7,4332],[97.7,4416],[97.7,4500],[97.7,4582],[97.7,4666],[97.7,4750],[97.7,4834],[97.7,4915],[97.7,5001],[97.7,5082],[97.7,5166],[97.7,5250],[97.7,5332],[97.7,5416],[97.7,5500],[97.7,5583],[97.7,5665],[97.7,5750],[97.7,5832],[97.7,5915],[97.7,5998],[97.7,6082],[97.7,6166],[97.7,6250],[97.7,6332],[97.7,6416],[97.7,6500],[97.7,6584],[97.7,6666],[97.7,6750],[97.7,6832],[97.7,6915],[97.7,7000],[97.7,7082],[97.7,7166],[97.7,7250],[97.7,7333],[97.7,7416],[97.7,7500],[97.7,7583],[97.7,7666],[97.7,7750],[97.7,7833],[97.7,7916],[97.7,8000],[97.7,8083],[97.7,8165],[97.7,8250],[97.7,8332],[97.7,8416],[97.7,8500],[97.7,8582],[97.7,8666],[97.7,8750],[97.7,8833],[97.7,8916],[97.7,9000],[97.7,9083],[97.7,9165],[97.7,9250],[97.7,9333],[97.7,9415],[97.7,9500],[97.7,9582],[97.7,9666],[97.7,9750],[97.7,9832],[97.7,9916]]",859.628,888.73,98.56770833,1.559,"[{""rating"":98.56770833333333,""responseTime"":1.558999999999969}]",space,28.556,,888.73,Not at all,0,888.755,,,[],,0,15,15,15,1,audio/Narrative8Situation6.wav,audio/Narrative7Situation6.wav,audio/Narrative6Situation6.wav,audio/Narrative5Situation6.wav,2,3,2,3,,,,,,,,,,,,,,,,,,,,,,,,,,,,,,,,,,,
,,,,,67fdb95863b421ac7768f5d5,2025-07-07_22h01.36.293,group3.4_multiperson,2023.2.2,Win32,60.0240096,686c2ebf0248f13bef9af11f,686c7b405a43ea2a9c86316f,,,,,,,,,,,,,,,,,,,,,,,,,,,,,888.756,1,audio/Narrative7Situation7.wav,893.762,,893.762,910.946,"[[999,3],[999,83],[999,166],[999,249],[999,333],[999,416],[999,500],[999,583],[999,666],[999,749],[999,833],[999,916],[999,999],[999,1083],[999,1166],[999,1250],[999,1333],[999,1416],[999,1499],[999,1583],[999,1667],[999,1749],[999,1833],[999,1916],[999,1999],[999,2081],[999,2166],[999,2250],[999,2333],[999,2416],[999,2500],[999,2583],[999,2666],[72,2749],[73.7,2834],[76.2,2916],[77.2,3000],[77.9,3083],[78,3166],[78.1,3250],[78.1,3331],[78.1,3416],[78.6,3500],[79.3,3583],[80.2,3667],[80.9,3750],[81.6,3833],[82.2,3916],[82.3,4000],[75.3,4084],[51.2,4167],[38.2,4250],[36.2,4333],[36.2,4422],[38.5,4499],[39.5,4583],[59.4,4666],[69.7,4750],[76,4833],[80.2,4917],[84.2,5000],[86.7,5083],[87.9,5167],[89.3,5250],[92.1,5334],[94.8,5417],[96.1,5500],[96.9,5583],[97.3,5666],[97.3,5750],[97.3,5833],[97.3,5917],[97.3,5999],[97.3,6085],[97.3,6166],[97.3,6250],[97.3,6333],[97.3,6417],[97.3,6500],[97.3,6583],[97.3,6666],[97.3,6750],[97.3,6833],[97.3,6917],[97.3,7000],[97.3,7083],[97.3,7166],[97.3,7249],[97.3,7333],[97.3,7416],[97.3,7500],[97.3,7583],[97.3,7666],[97.3,7749],[97.3,7833],[97.3,7916],[97.3,8000],[97.3,8083],[97.3,8167],[97.3,8250],[97.3,8334],[97.3,8416],[97.3,8499],[97.3,8583],[97.3,8667],[97.3,8750],[97.3,8833],[97.3,8916],[97.3,9000],[97.3,9083],[97.3,9166],[97.3,9250],[97.3,9333],[97.3,9416],[97.3,9500],[97.3,9583],[97.3,9667],[97.3,9750],[97.3,9833],[97.3,9917],[97.3,10000],[97.3,10084],[97.3,10166],[97.3,10249],[97.3,10333],[97.3,10418],[97.3,10500],[97.3,10583],[97.3,10667],[97.3,10750],[97.3,10833],[97.3,10917],[97.3,11000],[97.3,11084],[97.3,11166],[97.3,11250],[97.3,11333],[97.3,11416],[97.3,11500],[97.3,11583],[97.3,11667],[97.3,11750],[97.3,11833],[97.3,11917],[97.3,12000],[97.3,12083],[97.3,12167],[97.3,12250],[97.3,12334],[97.3,12417],[97.3,12499],[97.3,12583],[97.3,12667],[97.3,12750],[97.3,12833],[97.3,12917],[97.3,13000],[97.3,13083],[97.3,13167],[97.3,13250],[97.3,13333],[97.3,13417],[97.3,13500],[97.3,13584],[97.3,13666],[97.3,13750],[97.3,13833],[97.3,13917],[97.3,14000],[97.3,14083],[97.3,14167],[97.3,14250],[97.3,14333],[97.3,14417],[97.3,14500],[97.3,14583],[97.3,14667],[97.3,14750],[97.3,14834],[97.3,14917],[97.3,15000],[97.3,15083],[97.3,15167],[97.3,15250],[97.3,15333],[97.3,15417],[97.3,15500],[97.3,15584],[97.3,15667],[97.3,15750],[97.3,15833],[97.3,15917],[97.3,16000],[97.3,16084],[97.3,16167],[97.3,16250],[97.3,16333],[97.3,16417],[97.3,16501],[97.3,16583],[97.3,16667],[97.3,16750],[97.3,16834],[97.3,16917],[97.3,17000],[97.3,17083],[97.3,17168]]",910.947,915.946,98.828125,3.946,"[{""rating"":98.828125,""responseTime"":3.9460000000000264}]",space,4.451,,915.947,Definitely yes,100,915.955,,,[],,0,16,16,16,1,audio/Narrative8Situation7.wav,audio/Narrative7Situation7.wav,audio/Narrative6Situation7.wav,audio/Narrative5Situation7.wav,3,5,5,4,,,,,,,,,,,,,,,,,,,,,,,,,,,,,,,,,,,
,,,,,67fdb95863b421ac7768f5d5,2025-07-07_22h01.36.293,group3.4_multiperson,2023.2.2,Win32,60.0240096,686c2ebf0248f13bef9af11f,686c7b405a43ea2a9c86316f,,,,,,,,,,,,,,,,,,,,,,,,,,,,,915.956,1,audio/Narrative7Situation8.wav,917.963,,917.963,927.98,"[[100,5250],[100,5334],[100,5675],[93.2,5750],[89.6,5832],[85.5,5917],[82.7,6000],[82.2,6084],[82,6166],[82,6250],[82.4,6334],[84.5,6417],[85.3,6500],[85.7,6582],[86.1,6667],[87.6,6750],[88.8,6834],[90.1,6917],[91.4,7000],[91.9,7082],[92.4,7167],[92.7,7249],[92.7,7332],[92.7,7417],[92.8,7500],[92.8,7582],[93,7666],[93.1,7750],[93.2,7832],[93.5,7916],[93.6,7999],[93.8,8082],[93.9,8167],[94.1,8250],[94.5,8332],[95.3,8417],[95.8,8500],[95.8,8584],[95.7,8667],[95.7,8750],[95.7,8832],[95.7,8917],[95.7,9000],[95.7,9082],[95.7,9166],[95.7,9249],[95.7,9332],[95.7,9416],[95.7,9500],[95.7,9584],[95.7,9667],[95.7,9750],[95.7,9834],[95.7,9916],[95.7,9999]]",927.98,930.747,97.78645833,1.712,"[{""rating"":97.78645833333333,""responseTime"":1.711999999999989}]",space,2.235,,930.747,Not at all,0,930.758,,,[],,0,17,17,17,1,audio/Narrative8Situation8.wav,audio/Narrative7Situation8.wav,audio/Narrative6Situation8.wav,audio/Narrative5Situation8.wav,3,2,5,3,,,,,,,,,,,,,,,,,,,,,,,,,,,,,,,,,,,
,,,,,67fdb95863b421ac7768f5d5,2025-07-07_22h01.36.293,group3.4_multiperson,2023.2.2,Win32,60.0240096,686c2ebf0248f13bef9af11f,686c7b405a43ea2a9c86316f,,,,,,,,,,,,,,,,,,,,,,,,,,,,,930.758,1,audio/Narrative7Situation9.wav,932.763,,932.763,941.397,"[[999,1],[999,82],[999,166],[999,250],[999,333],[999,416],[999,500],[999,583],[999,666],[999,750],[999,833],[999,916],[999,1000],[999,1087],[999,1166],[999,1250],[999,1333],[999,1416],[999,1500],[999,1583],[999,1668],[999,1750],[999,1833],[87.6,1918],[88.9,2000],[90,2082],[90.2,2166],[90.5,2250],[91.8,2333],[93.5,2416],[94.4,2500],[94.4,2582],[94.9,2668],[96,2750],[96.4,2833],[96.7,2918],[97.1,3000],[97.5,3083],[97.5,3166],[97.7,3250],[97.7,3332],[97.7,3416],[97.7,3500],[97.7,3582],[97.7,3665],[97.7,3750],[97.7,3833],[97.7,3916],[97.7,4000],[97.7,4083],[97.7,4166],[97.7,4250],[97.7,4333],[97.7,4416],[97.7,4500],[97.7,4583],[97.7,4666],[97.7,4750],[97.7,4833],[97.7,4916],[97.7,5000],[97.7,5083],[97.7,5166],[97.7,5250],[97.7,5333],[97.7,5416],[97.7,5500],[97.7,5583],[97.7,5666],[97.7,5750],[97.7,5833],[97.7,5916],[97.7,6000],[97.7,6083],[97.7,6166],[97.7,6250],[97.7,6333],[97.7,6416],[97.7,6500],[97.7,6583],[97.7,6666],[97.7,6750],[97.7,6833],[97.7,6916],[97.7,7009],[97.7,7083],[97.7,7166],[97.7,7250],[97.7,7333],[97.7,7416],[97.7,7500],[97.7,7582],[97.7,7666],[97.7,7750],[97.7,7833],[97.7,7918],[97.7,8000],[97.7,8083],[97.7,8166],[97.7,8250],[97.7,8333],[97.7,8416],[97.7,8500],[97.7,8583]]",941.398,950.332,98.95833333,1.577,"[{""rating"":98.95833333333333,""responseTime"":1.5769999999999982}]",space,8.379,,950.332,Partially,50,950.346,,,[],,0,18,18,18,1,audio/Narrative8Situation9.wav,audio/Narrative7Situation9.wav,audio/Narrative6Situation9.wav,audio/Narrative5Situation9.wav,3,2,4,3,,,,,,,,,,,,,,,,,,,,,,,,,,,,,,,,,,,
,,,,,67fdb95863b421ac7768f5d5,2025-07-07_22h01.36.293,group3.4_multiperson,2023.2.2,Win32,60.0240096,686c2ebf0248f13bef9af11f,686c7b405a43ea2a9c86316f,,,,,,,,,,,,,,,,,,,,,,,,,,,1010.356,1012.934,1012.965,2,audio/Narrative13Situation2.wav,1012.966,,1012.966,1042.702,"[[999,2],[999,100],[999,183],[999,268],[999,350],[999,434],[999,518],[999,600],[999,683],[999,767],[999,850],[999,933],[999,1017],[999,1100],[999,1183],[999,1268],[999,1350],[999,1433],[999,1518],[999,1602],[999,1684],[999,1767],[999,1849],[999,1933],[999,2018],[999,2100],[999,2183],[999,2268],[999,2352],[999,2433],[999,2517],[999,2600],[999,2684],[999,2768],[999,2850],[999,2934],[999,3018],[999,3100],[999,3184],[999,3268],[999,3350],[999,3434],[48.7,3518],[47.4,3600],[47.4,3684],[47.4,3767],[47.4,3855],[43.4,3934],[31.9,4019],[22.9,4100],[18.6,4183],[15.2,4268],[13.4,4350],[13,4433],[12.9,4518],[11.7,4600],[10.5,4683],[10.4,4768],[10.4,4850],[10.3,4934],[10.2,5018],[10.2,5102],[10.2,5184],[10.2,5267],[10.2,5350],[10.2,5433],[10.2,5517],[10.2,5600],[10.2,5683],[10.2,5768],[10.2,5850],[10.2,5933],[10.2,6017],[10.2,6100],[10,6183],[9.2,6269],[8.9,6350],[8.9,6434],[8.9,6518],[8.9,6600],[8.9,6684],[8.9,6767],[8.9,6850],[8.9,6934],[8.9,7018],[8.9,7102],[8.9,7184],[8.9,7268],[8.9,7350],[8.9,7433],[8.9,7518],[8.9,7600],[8.9,7683],[8.9,7768],[8.9,7852],[8.9,7934],[8.9,8018],[8.9,8100],[8.9,8183],[8.9,8267],[8.9,8352],[8.9,8433],[8.9,8518],[8.9,8602],[8.9,8684],[8.9,8768],[8.9,8852],[8.9,8934],[8.9,9018],[8.9,9100],[8.9,9184],[8.9,9268],[8.9,9350],[8.9,9433],[8.9,9518],[8.9,9600],[8.9,9683],[8.9,9768],[8.9,9852],[8.9,9934],[8.9,10025],[8.9,10100],[8.9,10184],[8.9,10268],[8.9,10350],[8.9,10434],[8.9,10518],[8.9,10602],[8.9,10683],[8.9,10768],[8.9,10850],[8.9,10933],[8.9,11018],[8.9,11100],[8.9,11184],[8.9,11268],[8.9,11350],[8.9,11434],[8.9,11518],[8.9,11600],[8.9,11683],[8.9,11768],[8.9,11852],[8.9,11934],[8.9,12018],[8.9,12100],[8.9,12184],[8.9,12268],[8.9,12352],[8.9,12434],[8.9,12518],[8.9,12600],[8.9,12683],[8.9,12768],[8.9,12850],[8.9,12934],[8.9,13019],[8.9,13102],[8.9,13184],[8.9,13268],[8.9,13352],[8.9,13434],[8.9,13518],[8.9,13600],[8.9,13683],[8.9,13768],[8.9,13850],[8.9,13934],[8.9,14018],[8.9,14102],[8.9,14183],[8.9,14268],[8.9,14350],[8.9,14434],[8.9,14518],[8.9,14602],[8.9,14684],[8.9,14769],[8.9,14852],[8.9,14934],[8.9,15018],[8.9,15100],[8.9,15183],[8.9,15268],[8.9,15350],[8.9,15434],[8.9,15518],[8.9,15602],[8.9,15684],[8.9,15768],[8.9,15852],[8.9,15934],[8.9,16019],[8.9,16100],[8.9,16184],[8.9,16269],[8.9,16350],[8.9,16433],[8.9,16518],[8.9,16600],[8.9,16686],[8.9,16768],[8.9,16852],[8.9,16934],[8.9,17018],[8.9,17102],[8.9,17184],[8.9,17268],[8.9,17350],[8.9,17434],[8.9,17518],[8.9,17602],[8.9,17684],[8.9,17768],[8.9,17852],[8.9,17934],[8.9,18018],[8.9,18100],[8.9,18184],[8.9,18269],[8.9,18350],[8.9,18434],[8.9,18518],[8.9,18602],[9.8,18684],[10.8,18768],[11.3,18850],[11.8,18934],[12.1,19018],[12.2,19102],[12.2,19184],[12.2,19268],[12.2,19352],[12.2,19434],[13.3,19519],[27.9,19602],[37.6,19684],[45.3,19769],[51.6,19852],[55.7,19934],[59,20019],[59.2,20100],[59.2,20184],[59.2,20268],[59.2,20353],[59.2,20434],[59.2,20518],[59.2,20600],[62.6,20685],[66.9,20768],[67.7,20852],[68.4,20934],[69,21019],[69.8,21102],[71.1,21185],[73.2,21269],[75.1,21353],[76.2,21434],[77,21518],[77.2,21602],[77.2,21684],[77.2,21768],[77.2,21850],[77.2,21934],[77.9,22019],[79.6,22102],[81.1,22185],[82.2,22269],[82.9,22353],[83.2,22434],[83.3,22518],[83.9,22603],[85.3,22685],[88,22769],[89.3,22852],[90,22935],[91.4,23019],[92.4,23102],[93.4,23185],[93.5,23270],[93.6,23352],[93.6,23434],[93.6,23518],[93.6,23602],[93.6,23684],[93.6,23769],[93.6,23852],[93.6,23934],[93.6,24019],[93.6,24102],[93.6,24184],[93.5,24269],[93.4,24352],[93.1,24434],[93.1,24519],[92.8,24602],[92.6,24684],[92.6,24768],[92.6,24850],[92.6,24934],[92.6,25019],[92.6,25102],[92.6,25185],[92.6,25269],[92.6,25352],[92.6,25435],[92.6,25519],[92.6,25600],[92.6,25684],[92.6,25769],[92.6,25852],[92.8,25935],[92.8,26019],[92.8,26102],[92.8,26184],[92.8,26269],[92.8,26352],[92.8,26434],[92.8,26519],[92.8,26602],[92.8,26685],[92.8,26769],[92.8,26852],[92.8,26935],[92.8,27019],[92.8,27102],[92.8,27184],[92.8,27268],[92.8,27352],[92.8,27434],[92.8,27518],[92.8,27602],[92.8,27685],[92.8,27769],[92.8,27853],[92.8,27935],[92.8,28019],[92.8,28102],[91.5,28185],[91,28269],[91,28352],[90.6,28434],[89.8,28519],[89.6,28604],[89.6,28684],[89.8,28769],[89.7,28853],[88,28935],[86.2,29019],[85.8,29102],[85.8,29184],[84.2,29269],[82.7,29353],[82.6,29434],[82.6,29518],[82.6,29602],[82.6,29685]]",1042.704,1042.716,,,[],,,,1042.717,Partially,50,1042.723,,,[],,0,0,0,0,1,audio/Narrative13Situation2.wav,audio/Narrative13Situation2.wav,audio/Narrative13Situation2.wav,audio/Narrative13Situation2.wav,2,2,2,2,,,,,950.347,1010.352,,,,,,,,,,,,,,,,,,,,,,,,,,,,,
,,,,,67fdb95863b421ac7768f5d5,2025-07-07_22h01.36.293,group3.4_multiperson,2023.2.2,Win32,60.0240096,686c2ebf0248f13bef9af11f,686c7b405a43ea2a9c86316f,,,,,,,,,,,,,,,,,,,,,,,,,,,,,1042.724,2,audio/Narrative6Situation1.wav,1044.736,,1044.736,1071.321,"[[79.8,8415],[80.3,8499],[80.3,8583],[80.7,8665],[81.4,8750],[81.9,8833],[82.7,8915],[83.3,8999],[83.5,9082],[83.5,9165],[83.5,9250],[83.3,9333],[79.7,9416],[74.3,9500],[71.7,9583],[69,9665],[66.3,9749],[64.1,9833],[63,9916],[62.8,10000],[62.8,10083],[62.8,10165],[62.8,10250],[62.8,10333],[62.8,10415],[62.8,10499],[60.7,10584],[59.8,10665],[59.6,10750],[60.9,10834],[64.3,10916],[65.6,10999],[66.3,11083],[67.4,11165],[68.2,11249],[68.6,11332],[68.6,11415],[68.6,11500],[68.6,11583],[68.6,11665],[68.8,11750],[68.8,11833],[68.8,11915],[68.9,12000],[69.9,12084],[71.6,12165],[72.5,12250],[72.7,12333],[72.7,12415],[72.7,12500],[72.7,12584],[72.7,12665],[72.7,12750],[72.7,12833],[72.7,12915],[72.7,12999],[72.7,13083],[72.7,13165],[72.7,13250],[72.7,13333],[72.7,13415],[72.7,13499],[72.7,13583],[72.7,13665],[72.7,13749],[73.3,13833],[76.6,13916],[78.8,14000],[80.5,14083],[81,14166],[81,14249],[81,14333],[81,14415],[81,14500],[81,14583],[81,14665],[81,14750],[81,14834],[81.1,14915],[81.5,14999],[81.6,15083],[81.8,15165],[81.9,15249],[81.9,15333],[82,15416],[82,15500],[82,15582],[82.2,15665],[82.2,15750],[82.2,15833],[82.3,15915],[82.3,16000],[82.3,16083],[82.3,16165],[82.3,16250],[82.3,16333],[82.3,16415],[82.3,16500],[82.3,16583],[82.3,16665],[82.3,16750],[82.3,16833],[82.3,16916],[82.3,17000],[82.3,17083],[82.3,17166],[82.3,17250],[82.3,17333],[82.3,17415],[82.3,17499],[82.3,17584],[82.3,17665],[82.3,17749],[82.3,17834],[82.3,17915],[82.3,18000],[82.3,18083],[82.3,18165],[82.3,18250],[82.3,18333],[82.3,18416],[82.3,18500],[82.3,18584],[82.3,18665],[82.3,18750],[82.3,18833],[82.3,18915],[82.3,19000],[82.3,19083],[82.3,19165],[82.3,19250],[82.3,19333],[82.3,19426],[82.3,19500],[82.3,19583],[82.3,19666],[82.3,19750],[82.3,19833],[82.3,19916],[82.3,19999],[82.3,20083],[82.3,20166],[82.3,20249],[82.3,20333],[82.3,20415],[82.3,20501],[82.6,20583],[82.7,20665],[82.8,20750],[83.1,20834],[83.3,20916],[83.6,21000],[84,21084],[84.1,21165],[84.2,21249],[84.2,21333],[84.2,21415],[84.2,21500],[84.2,21584],[84.2,21665],[84.2,21750],[84.2,21833],[84.2,21915],[84.2,22000],[84.2,22083],[84.2,22165],[84.2,22250],[84.2,22333],[84.2,22416],[84.2,22500],[84.2,22584],[84.2,22665],[84.2,22750],[84.2,22833],[84.2,22916],[84.2,23000],[84.2,23083],[84.2,23166],[84.2,23250],[84.2,23333],[84.2,23416],[84.2,23500],[84.2,23584],[84.2,23666],[84.2,23750],[84.2,23833],[84.2,23916],[84.2,24000],[84.2,24083],[84.2,24165],[84.2,24250],[84.2,24333],[84.2,24415],[84.2,24500],[84.2,24583],[84.2,24665],[84.2,24750],[84.2,24833],[84.2,24916],[84.2,25000],[84.2,25084],[84.2,25166],[84.2,25250],[84.2,25334],[84.2,25426],[84.2,25517],[84.2,25599],[84.2,25682],[84.2,25767],[84.2,25849],[84.2,25932],[84.9,26017],[88.5,26099],[89.2,26182],[89.5,26266],[89.5,26349],[89.5,26432],[89.5,26517]]",1071.322,1076.653,85.15625,2.672,"[{""rating"":85.15625,""responseTime"":2.6720000000000255}]",space,4.787,,1076.653,Partially,50,1076.663,,,[],,0,1,1,1,1,audio/Narrative7Situation1.wav,audio/Narrative8Situation1.wav,audio/Narrative5Situation1.wav,audio/Narrative6Situation1.wav,2,5,5,2,,,,,,,,,,,,,,,,,,,,,,,,,,,,,,,,,,,
,,,,,67fdb95863b421ac7768f5d5,2025-07-07_22h01.36.293,group3.4_multiperson,2023.2.2,Win32,60.0240096,686c2ebf0248f13bef9af11f,686c7b405a43ea2a9c86316f,,,,,,,,,,,,,,,,,,,,,,,,,,,,,1076.664,2,audio/Narrative6Situation2.wav,1079.671,,1079.671,1108.173,"[[999,0],[999,82],[999,166],[999,248],[999,332],[999,414],[999,499],[999,582],[999,664],[999,749],[999,832],[999,916],[999,999],[999,1085],[999,1166],[999,1249],[999,1332],[999,1414],[999,1499],[999,1583],[999,1666],[999,1750],[999,1833],[999,1916],[999,1999],[999,2082],[999,2166],[999,2249],[999,2332],[999,2416],[999,2499],[999,2582],[999,2666],[999,2749],[999,2832],[999,2916],[999,2999],[999,3082],[999,3166],[999,3249],[999,3332],[999,3416],[999,3499],[999,3582],[999,3664],[999,3748],[999,3833],[999,3914],[999,3999],[999,4082],[999,4166],[999,4249],[999,4333],[999,4414],[999,4499],[999,4582],[999,4666],[999,4749],[999,4832],[999,4916],[999,4999],[65.1,5083],[63.8,5166],[62.2,5249],[59,5333],[53.8,5416],[46,5499],[34,5582],[27.9,5666],[27.7,5749],[27.7,5834],[27.7,5914],[27.7,5999],[27.7,6083],[49.6,6167],[74.6,6249],[75.7,6333],[78.9,6416],[79.6,6499],[80.6,6583],[84.8,6667],[85.8,6749],[87.8,6833],[89.5,6916],[91.8,6999],[92.2,7082],[92.3,7166],[92.4,7249],[92.4,7332],[93.5,7416],[94.8,7500],[95.7,7583],[96.4,7667],[96.5,7749],[96.5,7833],[96.5,7916],[96.7,7999],[97.3,8082],[97.4,8164],[97.4,8249],[97.4,8333],[97.4,8416],[97.4,8499],[97.4,8582],[97.4,8666],[97.4,8749],[97.4,8833],[97.4,8916],[97.4,9001],[97.4,9083],[97.4,9166],[97.4,9250],[97.4,9333],[97.4,9416],[97.4,9499],[97.4,9582],[97.4,9669],[97.4,9749],[97.4,9832],[97.4,9916],[97.4,9999],[97.4,10083],[97.4,10166],[97.4,10250],[97.4,10332],[97.4,10416],[97.4,10499],[97.4,10583],[97.4,10666],[97.4,10749],[97.4,10832],[97.4,10916],[97.4,10999],[97.4,11082],[97.4,11166],[97.4,11249],[97.4,11333],[97.4,11416],[97.4,11500],[97.4,11583],[97.4,11666],[97.4,11750],[97.4,11833],[97.4,11916],[97.4,11999],[97.4,12083],[97.4,12167],[97.4,12250],[97.4,12333],[97.4,12416],[97.4,12499],[97.4,12583],[97.4,12667],[97.4,12749],[97.4,12832],[97.4,12916],[97.4,12999],[97.4,13083],[97.4,13166],[97.4,13250],[97.4,13332],[97.4,13416],[97.4,13500],[97.4,13583],[97.4,13666],[97.4,13749],[97.4,13833],[97.4,13916],[97.4,13999],[97.4,14083],[97.4,14167],[97.4,14250],[97.4,14332],[97.4,14416],[97.4,14500],[97.4,14583],[97.4,14667],[97.4,14750],[97.4,14833],[97.4,14916],[97.4,15000],[97.4,15083],[97.4,15166],[97.4,15250],[97.4,15333],[97.4,15416],[97.4,15499],[97.4,15583],[97.4,15666],[97.4,15749],[97.4,15833],[97.4,15916],[97.4,16000],[97.4,16083],[97.4,16167],[97.4,16249],[97.4,16332],[97.4,16416],[97.4,16500],[97.4,16582],[97.4,16666],[97.4,16750],[97.4,16833],[97.4,16916],[97.4,17000],[97.4,17083],[97.4,17166],[97.4,17250],[97.4,17333],[97.4,17416],[97.4,17500],[97.4,17583],[97.4,17666],[97.4,17750],[97.4,17833],[97.4,17916],[97.4,18000],[97.4,18083],[97.4,18167],[97.4,18250],[97.4,18333],[97.4,18417],[97.4,18500],[97.4,18584],[97.4,18666],[97.4,18749],[97.4,18833],[97.4,18917],[97.4,18999],[97.4,19083],[97.4,19166],[97.4,19250],[97.4,19333],[97.4,19417],[97.4,19500],[97.4,19583],[97.4,19667],[97.4,19750],[97.4,19833],[97.4,19917],[97.4,20000],[97.4,20083],[97.4,20167],[97.4,20249],[97.4,20333],[97.4,20416],[97.4,20500],[97.4,20583],[97.4,20667],[97.4,20750],[97.4,20833],[97.4,20917],[97.4,21000],[97.4,21085],[97.4,21178],[97.4,21250],[97.4,21334],[97.4,21416],[97.4,21500],[97.4,21584],[97.4,21667],[97.4,21749],[97.4,21833],[97.4,21917],[97.4,22000],[97.4,22083],[97.4,22166],[97.4,22250],[97.4,22333],[97.4,22416],[97.4,22500],[97.4,22583],[97.4,22667],[97.4,22750],[97.4,22833],[97.4,22916],[97.4,23000],[97.4,23084],[97.4,23167],[97.4,23250],[97.4,23333],[97.4,23416],[97.4,23500],[97.4,23583],[97.4,23667],[97.4,23749],[97.4,23834],[97.4,23917],[97.4,24003],[97.4,24084],[97.4,24167],[97.4,24250],[97.4,24334],[97.4,24417],[97.4,24499],[97.4,24583],[97.4,24667],[97.4,24750],[97.4,24834],[97.4,24917],[97.4,25000],[97.4,25083],[97.4,25167],[97.4,25250],[97.4,25333],[97.4,25416],[97.4,25500],[97.4,25584],[97.4,25667],[97.4,25750],[97.4,25833],[97.4,25917],[97.4,26000],[97.4,26083],[97.4,26167],[97.4,26250],[97.4,26334],[97.4,26417],[97.4,26500],[97.4,26583],[97.4,26667],[97.4,26750],[97.4,26833],[97.4,26917],[97.4,27005],[97.4,27084],[97.4,27167],[97.4,27250],[97.4,27333],[97.4,27416],[97.4,27500],[97.4,27584],[97.4,27666],[97.4,27750],[97.4,27834],[97.4,27917],[97.4,28003],[97.4,28084],[97.4,28167],[97.4,28250],[97.4,28334],[97.4,28416],[97.4,28500]]",1108.174,1117.039,99.47916667,8.127,"[{""rating"":99.47916666666667,""responseTime"":8.126999999999953}]",space,8.325,,1117.04,Partially,50,1117.048,,,[],,0,2,2,2,1,audio/Narrative7Situation2.wav,audio/Narrative8Situation2.wav,audio/Narrative5Situation2.wav,audio/Narrative6Situation2.wav,3,3,3,3,,,,,,,,,,,,,,,,,,,,,,,,,,,,,,,,,,,
,,,,,67fdb95863b421ac7768f5d5,2025-07-07_22h01.36.293,group3.4_multiperson,2023.2.2,Win32,60.0240096,686c2ebf0248f13bef9af11f,686c7b405a43ea2a9c86316f,,,,,,,,,,,,,,,,,,,,,,,,,,,,,1117.049,2,audio/Narrative6Situation3.wav,1122.056,,1122.056,1134.689,"[[99.2,2250],[98.4,2333],[94.9,2416],[57.7,3417],[54.7,3500],[54.2,3583],[65.6,3667],[66.5,3750],[66.5,3836],[66,3916],[58.1,4000],[51.2,4083],[50,4164],[50,4249],[50,4333],[50,4416],[50,4499],[50,4583],[50,4666],[50,4750],[50,4833],[50,4916],[49.7,5000],[45.6,5084],[43,5166],[40.8,5249],[37.1,5334],[31.9,5416],[29,5500],[28.8,5584],[28.8,5666],[28.8,5749],[28.3,5833],[26.6,5916],[25.3,6000],[25.1,6083],[25.1,6166],[25.1,6249],[25.1,6333],[25.1,6416],[25.1,6499],[25.1,6583],[25.1,6666],[48.2,6750],[76,6833],[84.1,6916],[90,7000],[94.1,7083],[94.1,7166],[94.1,7250],[93.8,7333],[93.8,7416],[94.1,7499],[94.8,7584],[94.9,7666],[95.2,7749],[95.4,7833],[95.6,7916],[95.7,7999],[95.7,8082],[95.8,8166],[96,8249],[96.1,8333],[96.2,8417],[96.2,8500],[96.4,8583],[96.4,8666],[96.4,8750],[96.4,8832],[96.4,8917],[96.4,9000],[96.4,9082],[96.4,9166],[96.4,9249],[96.4,9333],[96.4,9416],[96.4,9500],[96.4,9583],[96.4,9666],[96.4,9750],[96.4,9833],[96.4,9917],[96.4,10000],[96.4,10083],[96.4,10166],[96.4,10250],[96.4,10333],[96.4,10416],[96.4,10500],[96.4,10582],[96.4,10666],[96.5,10755],[96.7,10833],[96.9,10917],[97,11000],[97.1,11083],[97.1,11166],[97.1,11249],[97.1,11332],[97.1,11416],[97.1,11499],[97.1,11583],[97.1,11667],[97.1,11750],[97.1,11833],[97.1,11917],[97.1,11999],[97.1,12083],[97.1,12167],[97.1,12250],[97.1,12333],[97.1,12417],[97.1,12499],[97.1,12583]]",1134.69,1137.339,98.69791667,1.857,"[{""rating"":98.69791666666667,""responseTime"":1.856999999999971}]",space,2.103,,1137.34,Partially,50,1137.351,,,[],,0,3,3,3,1,audio/Narrative7Situation3.wav,audio/Narrative8Situation3.wav,audio/Narrative5Situation3.wav,audio/Narrative6Situation3.wav,8,4,3,5,,,,,,,,,,,,,,,,,,,,,,,,,,,,,,,,,,,
,,,,,67fdb95863b421ac7768f5d5,2025-07-07_22h01.36.293,group3.4_multiperson,2023.2.2,Win32,60.0240096,686c2ebf0248f13bef9af11f,686c7b405a43ea2a9c86316f,,,,,,,,,,,,,,,,,,,,,,,,,,,,,1137.351,2,audio/Narrative6Situation4.wav,1139.356,,1139.356,1151.957,"[[92.3,1166],[91.7,1250],[91.4,1333],[91.1,1416],[91.1,1500],[94,1584],[95.1,1667],[95.1,1750],[95.1,1833],[95.1,1916],[95.1,2000],[95.1,2083],[95.1,2167],[95.1,2250],[95.1,2333],[95.1,2417],[95.1,2500],[95.1,2583],[95.1,2667],[95.1,2750],[95.1,2834],[95.1,2916],[95.1,3000],[95.1,3084],[95.1,3167],[95.1,3250],[94.9,3338],[94.9,3417],[94.9,3500],[96.7,3584],[98.3,3666],[98.4,3750],[98.4,3833],[98.4,3917],[98.3,4000],[97.9,4083],[97.7,4167],[97.7,4251],[97.7,4334],[97.7,4417],[97.8,4500],[97.8,4583],[97.8,4667],[97.8,4750],[100,4834],[100,4916],[100,5000],[100,5083],[100,5167],[100,5250],[100,5334],[100,5417],[100,5500],[100,5584],[100,5667],[100,5750],[100,5834],[100,5917],[100,6001],[100,6083],[100,6166],[100,6251],[100,6334],[100,6417],[100,6500],[100,6584],[100,6667],[100,6750],[100,6834],[100,6917],[100,7000],[100,7084],[100,7167],[100,7251],[100,7334],[100,7417],[100,7501],[100,7583],[100,7667],[100,7750],[100,7833],[100,7917],[100,8000],[100,8083],[100,8167],[100,8251],[100,8334],[100,8417],[100,8501],[100,8583],[100,8667],[100,8750],[100,8833],[100,8917],[100,9000],[100,9084],[100,9167],[100,9251],[100,9334],[100,9418],[100,9500],[100,9584],[100,9667],[100,9751],[100,9834],[100,9917],[100,10000],[100,10083],[100,10167],[100,10250],[100,10334],[100,10417],[100,10501],[100,10584],[100,10667],[100,10750],[100,10834],[100,10918],[100,11005],[100,11084],[100,11167],[100,11251],[100,11333],[100,11417],[100,11501],[100,11584],[100,11667],[100,11750],[100,11834],[100,11917],[100,12000],[100,12083],[100,12167],[100,12251],[100,12334],[100,12417],[100,12501],[100,12584]]",1151.958,1155.123,99.08854167,2.077,"[{""rating"":99.08854166666667,""responseTime"":2.076999999999998}]",space,2.617,,1155.123,Definitely yes,100,1155.135,,,[],,0,4,4,4,1,audio/Narrative7Situation4.wav,audio/Narrative8Situation4.wav,audio/Narrative5Situation4.wav,audio/Narrative6Situation4.wav,3,3,1,2,,,,,,,,,,,,,,,,,,,,,,,,,,,,,,,,,,,
,,,,,67fdb95863b421ac7768f5d5,2025-07-07_22h01.36.293,group3.4_multiperson,2023.2.2,Win32,60.0240096,686c2ebf0248f13bef9af11f,686c7b405a43ea2a9c86316f,,,,,,,,,,,,,,,,,,,,,,,,,,,,,1155.135,2,audio/Narrative6Situation5.wav,1157.141,,1157.141,1165.108,"[[999,0],[999,82],[999,164],[999,249],[999,333],[999,415],[999,499],[999,583],[999,665],[999,749],[999,832],[999,915],[999,999],[999,1083],[999,1165],[999,1249],[999,1333],[999,1415],[999,1500],[93.9,1583],[94,1666],[94,1749],[94,1833],[94,1914],[94,1998],[93.9,2082],[93.5,2165],[91.8,2249],[91.1,2333],[91.1,2415],[92.1,2500],[92.8,2582],[93.8,2665],[94.9,2749],[95.6,2832],[95.8,2915],[96.4,2999],[96.6,3083],[96.6,3164],[96.6,3250],[96.6,3333],[96.6,3415],[96.6,3499],[96.6,3582],[96.6,3665],[96.6,3749],[96.6,3832],[96.6,3915],[96.6,3999],[96.6,4082],[96.6,4165],[96.6,4249],[96.6,4333],[96.6,4415],[96.6,4499],[96.6,4582],[96.6,4665],[96.6,4749],[96.6,4833],[96.6,4915],[96.6,4999],[96.6,5083],[96.6,5165],[96.6,5249],[96.6,5332],[96.6,5415],[96.6,5499],[96.6,5582],[96.6,5665],[96.6,5750],[96.6,5833],[96.6,5915],[96.6,5999],[96.6,6083],[96.6,6165],[96.6,6249],[96.6,6333],[96.6,6416],[96.6,6502],[96.6,6583],[96.6,6665],[96.6,6749],[96.6,6832],[96.6,6915],[96.6,6999],[96.6,7083],[96.6,7165],[96.6,7250],[96.6,7333],[96.6,7416],[96.6,7500],[96.6,7583],[96.6,7665],[96.6,7750],[96.6,7832],[96.6,7915]]",1165.108,1168.258,99.08854167,2.176,"[{""rating"":99.08854166666667,""responseTime"":2.175999999999931}]",space,2.621,,1168.258,Partially,50,1168.273,,,[],,0,5,5,5,1,audio/Narrative7Situation5.wav,audio/Narrative8Situation5.wav,audio/Narrative5Situation5.wav,audio/Narrative6Situation5.wav,5,2,5,2,,,,,,,,,,,,,,,,,,,,,,,,,,,,,,,,,,,
,,,,,67fdb95863b421ac7768f5d5,2025-07-07_22h01.36.293,group3.4_multiperson,2023.2.2,Win32,60.0240096,686c2ebf0248f13bef9af11f,686c7b405a43ea2a9c86316f,,,,,,,,,,,,,,,,,,,,,,,,,,,,,1168.275,2,audio/Narrative6Situation6.wav,1170.291,,1170.291,1181.376,"[[100,2583],[100,2665],[100,2750],[100,2832],[100,2916],[99.2,3000],[98.7,3083],[98.7,3166],[98.7,3250],[98.7,3335],[98.7,3415],[98.7,3499],[98.7,3582],[98.7,3665],[98.7,3750],[98.8,3832],[99.2,3915],[99.3,4000],[99.5,4082],[99.5,4165],[99.5,4250],[99.5,4332],[99.5,4416],[99.5,4500],[99.5,4582],[99.5,4665],[99.5,4749],[99.5,4832],[99.5,4916],[99.5,4999],[99.5,5082],[99.5,5165],[99.5,5250],[99.5,5332],[99.5,5415],[99.5,5500],[99.5,5582],[99.5,5666],[99.5,5750],[99.5,5832],[99.5,5916],[99.5,6000],[99.5,6082],[99.5,6165],[99.5,6250],[99.5,6333],[99.5,6415],[99.5,6500],[99.5,6582],[99.5,6665],[99.5,6750],[99.5,6832],[99.5,6916],[99.5,7000],[99.5,7083],[99.5,7165],[99.5,7250],[99.5,7333],[99.5,7415],[99.5,7500],[99.5,7582],[99.5,7665],[99.5,7750],[99.5,7832],[99.5,7915],[99.5,8000],[99.5,8083],[99.5,8166],[99.5,8250],[99.5,8333],[99.5,8416],[99.5,8500],[99.5,8583],[99.5,8666],[99.5,8750],[99.5,8832],[99.5,8916],[99.5,9000],[99.5,9083],[99.5,9165],[99.5,9250],[99.5,9333],[99.5,9416],[99.5,9500],[99.5,9583],[99.5,9666],[99.5,9750],[99.5,9833],[99.5,9916],[99.5,10000],[99.5,10083],[99.5,10166],[99.5,10250],[99.5,10332],[99.5,10416],[99.5,10500],[99.5,10582],[99.5,10665],[99.5,10750],[99.5,10833],[99.5,10916],[99.5,11000],[99.5,11083]]",1181.377,1185.075,99.47916667,3.025,"[{""rating"":99.47916666666667,""responseTime"":3.0249999999998636}]",space,3.157,,1185.075,Partially,50,1185.085,,,[],,0,6,6,6,1,audio/Narrative7Situation6.wav,audio/Narrative8Situation6.wav,audio/Narrative5Situation6.wav,audio/Narrative6Situation6.wav,3,2,3,2,,,,,,,,,,,,,,,,,,,,,,,,,,,,,,,,,,,
,,,,,67fdb95863b421ac7768f5d5,2025-07-07_22h01.36.293,group3.4_multiperson,2023.2.2,Win32,60.0240096,686c2ebf0248f13bef9af11f,686c7b405a43ea2a9c86316f,,,,,,,,,,,,,,,,,,,,,,,,,,,,,1185.086,2,audio/Narrative6Situation7.wav,1190.092,,1190.092,1214.977,"[[99.1,1166],[98.4,1250],[97.9,1333],[97,1416],[96.1,1500],[94.7,1584],[93.2,1666],[92.1,1750],[91.4,1834],[90.5,1915],[89.7,2000],[89.5,2083],[89.3,2166],[88.9,2250],[88.7,2333],[88.5,2416],[88.5,2500],[88.7,2584],[89.1,2666],[90.6,2750],[92.2,2834],[92.8,2916],[93.1,3000],[93.1,3083],[92.8,3166],[90,3250],[83.6,3333],[71.2,3416],[56.1,4165],[52.6,4250],[49.2,4333],[46,4416],[42.6,4500],[39.3,4583],[37.4,4666],[37,4750],[37,4833],[37,4915],[37,4999],[37,5083],[37,5166],[37,5250],[36.5,5333],[34.9,5415],[33.2,5500],[31.1,5583],[29.4,5666],[28.8,5750],[28.5,5833],[27.9,5916],[26.7,6000],[25.7,6084],[25.3,6173],[25.4,6250],[27.9,6334],[32.9,6416],[37.8,6500],[40.9,6583],[42.4,6666],[43.4,6750],[44.7,6834],[44.8,6916],[44.8,7000],[44.8,7083],[44.8,7165],[62.8,7250],[74.9,7334],[80.2,7416],[84.6,7500],[86.7,7584],[89.1,7666],[89.6,7750],[89.6,7833],[89.8,7916],[91,8000],[92.1,8084],[93.9,8166],[95.3,8250],[96.2,8333],[96.7,8416],[96.9,8500],[97.1,8584],[97.8,8666],[98.6,8750],[99.1,8834],[99.5,8916],[99.5,9000],[99.5,9084],[99.5,9166],[99.5,9250],[99.5,9333],[99.5,9416],[99.5,9500],[99.5,9583],[99.5,9665],[99.5,9750],[99.5,9834],[99.5,9915],[99.5,10000],[99.5,10083],[99.5,10166],[99.5,10249],[99.5,10333],[99.5,10416],[99.5,10500],[99.5,10584],[99.5,10665],[99.5,10750],[99.5,10833],[99.5,10916],[99.5,11000],[99.5,11084],[99.5,11166],[99.5,11250],[99.5,11333],[99.5,11416],[99.5,11500],[99.5,11584],[99.5,11666],[99.5,11750],[99.5,11834],[99.5,11916],[99.5,12000],[99.5,12083],[99.5,12166],[99.5,12250],[99.5,12333],[99.5,12416],[99.5,12500],[99.5,12584],[99.5,12673],[99.5,12750],[99.5,12833],[99.5,12915],[99.5,13000],[99.5,13084],[99.5,13165],[99.5,13250],[99.5,13334],[99.5,13415],[99.5,13500],[99.5,13583],[99.5,13666],[99.5,13750],[99.5,13834],[99.5,13916],[99.5,14000],[99.5,14084],[99.5,14166],[99.5,14250],[99.5,14334],[99.5,14416],[99.5,14500],[99.5,14583],[99.5,14666],[99.5,14750],[99.5,14833],[99.5,14916],[99.5,15000],[99.5,15084],[99.5,15166],[99.5,15250],[99.5,15333],[99.5,15416],[99.5,15500],[99.5,15583],[99.5,15666],[99.5,15750],[99.5,15834],[99.5,15916],[99.5,16000],[99.5,16084],[99.5,16166],[99.5,16250],[99.5,16333],[99.5,16416],[99.5,16500],[99.5,16584],[99.5,16666],[99.5,16750],[99.5,16834],[99.5,16916],[99.5,17000],[99.5,17083],[99.5,17166],[99.5,17250],[99.5,17334],[99.5,17416],[99.5,17500],[99.5,17584],[99.5,17666],[99.5,17750],[99.5,17834],[99.5,17916],[99.5,18000],[99.5,18084],[99.5,18166],[99.5,18250],[99.5,18333],[99.5,18416],[99.5,18500],[99.5,18583],[99.5,18666],[99.5,18750],[99.5,18834],[99.5,18916],[99.5,19000],[99.5,19084],[99.5,19166],[99.5,19250],[99.5,19334],[99.5,19417],[99.5,19500],[99.5,19584],[99.5,19666],[99.5,19750],[99.5,19834],[99.5,19916],[99.5,20000],[99.5,20084],[99.5,20166],[99.5,20250],[99.5,20333],[99.5,20416],[99.5,20500],[99.5,20584],[99.5,20666],[99.5,20750],[99.5,20834],[99.5,20916],[99.5,21000],[99.5,21084],[99.5,21167],[99.5,21250],[99.5,21334],[99.5,21416],[99.5,21500],[99.5,21584],[99.5,21666],[99.5,21750],[99.5,21834],[99.5,21916],[99.5,22000],[99.5,22084],[99.5,22166],[99.5,22250],[99.5,22334],[99.5,22417],[99.5,22500],[99.5,22584],[99.5,22666],[99.5,22750],[99.5,22833],[99.5,22916],[99.5,23000],[99.5,23084],[99.5,23166],[99.5,23250],[99.5,23335],[99.5,23416],[99.5,23500],[99.5,23584],[99.5,23666],[99.5,23750],[99.5,23834],[99.5,23917],[99.5,24000],[99.5,24084],[99.5,24166],[99.5,24250],[99.5,24334],[99.5,24417],[99.5,24500],[99.5,24584],[99.5,24667],[99.5,24750],[99.5,24834]]",1214.978,1224.06,98.56770833,3.873,"[{""rating"":98.56770833333333,""responseTime"":3.87299999999982}]",space,8.537,,1224.061,Partially,50,1238.661,49.86979167,12.882,"[{""rating"":49.86979166666667,""responseTime"":12.882000000000062}]",space,0,7,7,7,1,audio/Narrative7Situation7.wav,audio/Narrative8Situation7.wav,audio/Narrative5Situation7.wav,audio/Narrative6Situation7.wav,5,3,4,5,,,14.053,,,,,,,,,,,,,,,,,,,,,,,,,,,,,,,,
,,,,,67fdb95863b421ac7768f5d5,2025-07-07_22h01.36.293,group3.4_multiperson,2023.2.2,Win32,60.0240096,686c2ebf0248f13bef9af11f,686c7b405a43ea2a9c86316f,,,,,,,,,,,,,,,,,,,,,,,,,,,,,1238.662,2,audio/Narrative6Situation8.wav,1243.677,,1243.678,1250.546,"[[999,2],[999,83],[999,165],[999,250],[999,333],[999,415],[999,499],[999,583],[999,665],[999,750],[999,833],[999,915],[999,1000],[999,1081],[999,1165],[999,1249],[999,1331],[999,1415],[999,1499],[999,1583],[999,1665],[999,1749],[999,1831],[999,1915],[999,2000],[999,2083],[999,2165],[999,2249],[999,2333],[999,2415],[999,2499],[999,2583],[999,2672],[999,2749],[999,2833],[999,2915],[999,2999],[999,3083],[999,3165],[999,3250],[999,3333],[999,3415],[999,3499],[999,3583],[999,3665],[999,3750],[999,3831],[999,3915],[999,3999],[999,4083],[999,4165],[999,4249],[999,4333],[999,4415],[999,4500],[999,4583],[999,4665],[999,4750],[999,4831],[999,4916],[999,5000],[999,5083],[999,5165],[999,5249],[999,5333],[999,5415],[999,5499],[999,5583],[999,5666],[999,5750],[999,5833],[999,5915],[999,5999],[999,6083],[999,6166],[999,6250],[999,6333],[999,6415],[999,6499],[999,6583],[999,6665],[999,6750],[999,6833]]",1250.546,1256.978,47.265625,5.526,"[{""rating"":47.265625,""responseTime"":5.526000000000067}]",space,5.891,,1256.979,Definitely yes,100,1256.99,,,[],,0,8,8,8,1,audio/Narrative7Situation8.wav,audio/Narrative8Situation8.wav,audio/Narrative5Situation8.wav,audio/Narrative6Situation8.wav,2,3,3,5,,,,,,,,,,,,,,,,,,,,,,,,,,,,,,,,,,,
,,,,,67fdb95863b421ac7768f5d5,2025-07-07_22h01.36.293,group3.4_multiperson,2023.2.2,Win32,60.0240096,686c2ebf0248f13bef9af11f,686c7b405a43ea2a9c86316f,,,,,,,,,,,,,,,,,,,,,,,,,,,,,1256.99,2,audio/Narrative6Situation9.wav,1260.996,,1260.997,1270.946,"[[999,5],[999,96],[999,181],[999,264],[999,347],[999,431],[999,515],[999,597],[999,681],[999,764],[999,846],[999,931],[999,1014],[999,1097],[999,1181],[999,1265],[999,1346],[999,1431],[999,1514],[999,1598],[999,1682],[999,1765],[999,1847],[999,1932],[999,2015],[999,2096],[999,2182],[999,2265],[999,2348],[999,2432],[999,2515],[999,2597],[999,2682],[999,2765],[999,2847],[999,2931],[999,3015],[999,3097],[999,3181],[999,3264],[999,3347],[999,3431],[999,3514],[999,3597],[999,3682],[999,3765],[60.2,3847],[57.3,3932],[56,4015],[55.5,4097],[55.1,4182],[54.3,4265],[53.1,4347],[50.7,4432],[48.7,4515],[47.4,4598],[46.2,4682],[45.1,4765],[43.5,4847],[42.3,4932],[41.3,5015],[39.8,5097],[38,5181],[35.3,5265],[34.4,5347],[34.4,5431],[34.4,5514],[34.4,5597],[34.4,5682],[34.4,5765],[34.4,5847],[34.4,5932],[34.4,6015],[34.4,6098],[34.4,6181],[33.6,6265],[29.8,6347],[26.3,6432],[22.9,6515],[19.5,6597],[16.3,6682],[12.5,6765],[8.9,6848],[6.5,6932],[5.6,7015],[4.7,7098],[4.3,7182],[4,7265],[3.9,7347],[3.9,7432],[3.9,7515],[3.9,7597],[3.9,7682],[3.9,7764],[3.9,7847],[3.9,7931],[3.9,8015],[3.9,8097],[3.9,8181],[3.9,8265],[3.9,8348],[3.9,8432],[3.9,8515],[3.9,8597],[3.9,8682],[3.9,8764],[3.9,8847],[3.9,8931],[3.9,9015],[3.9,9097],[3.9,9182],[3.9,9265],[3.9,9348],[3.9,9431],[3.9,9515],[3.9,9597],[3.9,9682],[3.9,9765],[3.9,9847],[3.9,9931]]",1270.947,1275.996,1.041666667,2.644,"[{""rating"":1.0416666666666685,""responseTime"":2.6440000000000055}]",space,4.521,,1275.996,Definitely yes,100,1276.004,,,[],,0,9,9,9,1,audio/Narrative7Situation9.wav,audio/Narrative8Situation9.wav,audio/Narrative5Situation9.wav,audio/Narrative6Situation9.wav,2,3,3,4,,,,,,,,,,,,,,,,,,,,,,,,,,,,,,,,,,,
,,,,,67fdb95863b421ac7768f5d5,2025-07-07_22h01.36.293,group3.4_multiperson,2023.2.2,Win32,60.0240096,686c2ebf0248f13bef9af11f,686c7b405a43ea2a9c86316f,,,,,,,,,,,,,,,,,,,,,,,,,,,,,1276.005,2,audio/Narrative5Situation1.wav,1281.013,,1281.013,1294.297,"[[999,0],[999,81],[999,165],[999,249],[999,332],[999,415],[999,500],[999,582],[999,665],[999,749],[999,831],[999,915],[999,1000],[999,1081],[999,1165],[999,1249],[999,1332],[999,1415],[999,1499],[999,1582],[999,1665],[999,1749],[999,1832],[999,1916],[999,1999],[999,2082],[999,2165],[999,2249],[999,2332],[999,2415],[999,2500],[999,2582],[999,2665],[999,2749],[999,2832],[999,2915],[999,3000],[999,3082],[999,3165],[999,3250],[999,3332],[999,3415],[999,3499],[999,3581],[999,3665],[999,3749],[999,3832],[999,3916],[999,4000],[14.5,4082],[25.4,4165],[34.8,4250],[35.8,4332],[35.9,4415],[35.8,4500],[27.3,4584],[17.6,4666],[15,4749],[12.1,4832],[9,4915],[8.1,5000],[8.1,5081],[8.1,5165],[8.2,5250],[8.2,5332],[8.2,5415],[8.2,5499],[8.2,5582],[8.2,5665],[8.2,5750],[8.2,5832],[8.2,5915],[8.2,6000],[8.2,6082],[8.2,6165],[8.2,6250],[8.2,6332],[8.2,6415],[8.2,6499],[8.2,6582],[8.1,6665],[7.3,6750],[6.3,6832],[5.6,6915],[5.5,7000],[5.5,7082],[5.7,7166],[6.9,7250],[8.2,7336],[9.4,7416],[10.4,7500],[11.3,7582],[11.8,7665],[12.2,7750],[12.5,7832],[13.4,7915],[14.5,8000],[15.6,8084],[16.7,8182],[17.6,8267],[18.8,8349],[19.7,8433],[19.9,8515],[19.9,8599],[19.9,8683],[19.9,8767],[19.9,8849],[19.9,8932],[19.8,9015],[16.5,9099],[14.5,9182],[12.4,9267],[10.3,9349],[8.6,9432],[7.3,9517],[6.6,9599],[6.4,9682],[6.4,9765],[6.4,9849],[6.4,9933],[6.4,10015],[6.4,10098],[6.4,10182],[6.4,10267],[6.4,10349],[6.4,10432],[6.4,10515],[6.4,10599],[6.4,10682],[6.4,10767],[6.4,10849],[6.4,10932],[6.4,11015],[6.4,11099],[6.4,11182],[6.4,11267],[6.4,11348],[6.1,11433],[5.5,11517],[5.1,11599],[4.4,11683],[3.9,11765],[3.6,11849],[3.6,11932],[3.6,12015],[3.6,12099],[3.6,12182],[3.6,12267],[3.6,12349],[3.6,12433],[3.6,12515],[3.6,12598],[3.6,12682],[3.6,12767],[3.6,12849],[3.6,12932],[3.6,13017],[3.6,13099],[3.6,13183],[3.6,13272]]",1294.297,1300.964,1.041666667,2.058,"[{""rating"":1.0416666666666685,""responseTime"":2.0579999999999927}]",space,6.119,,1300.964,Partially,50,1300.978,,,[],,0,10,10,10,1,audio/Narrative8Situation1.wav,audio/Narrative7Situation1.wav,audio/Narrative6Situation1.wav,audio/Narrative5Situation1.wav,5,2,2,5,,,,,,,,,,,,,,,,,,,,,,,,,,,,,,,,,,,
,,,,,67fdb95863b421ac7768f5d5,2025-07-07_22h01.36.293,group3.4_multiperson,2023.2.2,Win32,60.0240096,686c2ebf0248f13bef9af11f,686c7b405a43ea2a9c86316f,,,,,,,,,,,,,,,,,,,,,,,,,,,,,1300.98,2,audio/Narrative5Situation2.wav,1303.98,,1303.98,1333.432,"[[999,2],[999,84],[999,167],[999,250],[999,334],[999,417],[999,500],[999,583],[999,666],[999,750],[999,833],[999,917],[999,1000],[999,1084],[999,1167],[999,1250],[999,1334],[999,1416],[999,1500],[999,1584],[999,1667],[999,1750],[999,1834],[999,1917],[999,2000],[999,2084],[999,2167],[999,2250],[999,2334],[999,2417],[999,2500],[999,2584],[999,2668],[999,2750],[999,2833],[999,2917],[999,3000],[999,3084],[999,3167],[999,3250],[999,3334],[999,3417],[6.1,3500],[5.5,3584],[5.1,3667],[4.8,3750],[4.7,3834],[4.6,3916],[4.6,4000],[4.6,4083],[4.6,4167],[4.6,4250],[4.6,4334],[24.6,4417],[38.8,4500],[39.2,4583],[37.8,4667],[21,4750],[6.8,4834],[4.2,4918],[3.6,5000],[3.4,5085],[3.4,5167],[3.8,5250],[4.9,5335],[5.6,5418],[5.6,5500],[5.6,5584],[5.6,5667],[5.6,5750],[5.7,5834],[5.7,5917],[5.7,6000],[5.7,6084],[5.9,6167],[5.9,6250],[5.9,6334],[5.9,6417],[5.9,6500],[5.9,6584],[6,6667],[6,6750],[6,6834],[6,6917],[6,7000],[6,7084],[6,7167],[6.1,7250],[6.1,7333],[6.1,7418],[6.1,7500],[6.1,7584],[6.1,7667],[6.1,7750],[6.1,7834],[6.1,7917],[6.1,8000],[6.1,8084],[6.1,8167],[6.3,8250],[6.3,8333],[6.3,8417],[6.3,8500],[6.3,8584],[6.4,8668],[7,8750],[7.8,8834],[8.6,8921],[9.2,9000],[9.8,9084],[9.9,9168],[10,9250],[10,9334],[10,9417],[10,9500],[10,9583],[10,9667],[10,9750],[10,9836],[10,9917],[10,10000],[10,10084],[10,10167],[10,10250],[11.1,10334],[24,10417],[37.2,10500],[39.8,10585],[40.4,10667],[40.4,10750],[40.4,10834],[40.4,10917],[40.4,11000],[40.4,11084],[40.4,11167],[41,11250],[45.4,11334],[46.6,11417],[46.9,11500],[46.9,11584],[46.9,11668],[46.9,11750],[46.9,11834],[47.1,11918],[47.9,12000],[49.3,12084],[52.2,12168],[55.3,12250],[58.2,12333],[60,12418],[61.2,12500],[61.2,12584],[61.2,12667],[61.2,12750],[62,12834],[70.2,12918],[71.7,13000],[72.9,13085],[74.5,13167],[76.7,13250],[78,13335],[79.3,13417],[80.6,13500],[82.3,13584],[84.1,13668],[85.7,13750],[86.7,13834],[87.6,13918],[92.7,14000],[95.8,14084],[97,14167],[97.1,14250],[97.3,14334],[97.4,14418],[97.7,14500],[97.7,14584],[97.7,14668],[97.7,14750],[97.7,14834],[97.7,14918],[97.7,15000],[97.7,15085],[97.7,15167],[97.7,15250],[97.7,15335],[97.7,15418],[97.7,15500],[97.7,15584],[97.7,15668],[97.7,15750],[97.7,15834],[97.7,15918],[97.7,16000],[97.7,16084],[97.7,16167],[97.7,16250],[97.7,16334],[97.7,16418],[97.7,16500],[97.7,16584],[97.7,16668],[97.7,16750],[97.7,16834],[97.7,16930],[97.7,17000],[97.7,17084],[97.7,17167],[97.7,17250],[97.7,17335],[97.7,17418],[97.7,17500],[97.7,17584],[97.7,17668],[97.7,17750],[97.7,17834],[97.7,17917],[97.7,18000],[97.7,18084],[97.7,18167],[97.7,18250],[97.7,18334],[97.7,18417],[97.7,18500],[97.7,18584],[97.7,18668],[97.7,18750],[97.7,18834],[97.7,18918],[97.7,19000],[97.7,19085],[97.7,19167],[97.7,19250],[97.7,19334],[97.7,19418],[97.7,19500],[97.7,19585],[97.7,19668],[97.7,19750],[97.7,19834],[97.7,19918],[97.7,20000],[97.7,20085],[97.7,20168],[97.7,20250],[97.7,20334],[97.7,20418],[97.7,20500],[97.7,20585],[97.7,20668],[97.7,20750],[97.7,20835],[97.7,20918],[97.7,21000],[97.7,21084],[97.7,21168],[97.7,21250],[97.7,21335],[97.7,21418],[97.7,21502],[97.7,21584],[97.7,21668],[97.7,21750],[97.7,21834],[97.7,21917],[97.7,22000],[97.7,22085],[97.7,22169],[97.7,22250],[97.7,22335],[97.7,22418],[97.7,22500],[97.7,22585],[97.7,22667],[97.7,22750],[97.7,22834],[97.7,22918],[97.7,23000],[97.7,23085],[97.7,23168],[97.7,23252],[97.7,23335],[97.7,23418],[97.7,23500],[97.7,23584],[97.7,23668],[97.7,23750],[97.7,23835],[97.7,23917],[97.7,24002],[97.7,24085],[97.7,24168],[97.7,24252],[97.7,24334],[97.7,24419],[97.7,24500],[97.7,24584],[97.7,24668],[97.7,24752],[97.7,24835],[97.7,24918],[97.7,25000],[97.7,25085],[97.7,25168],[97.7,25252],[97.7,25335],[97.7,25418],[97.7,25500],[97.7,25585],[97.7,25668],[97.7,25750],[97.7,25835],[97.7,25918],[97.7,26002],[97.7,26084],[97.7,26168],[97.7,26250],[97.7,26334],[97.7,26418],[97.7,26500],[97.7,26584],[97.7,26668],[97.7,26750],[97.7,26834],[97.7,26918],[97.7,27002],[97.7,27085],[97.7,27168],[97.7,27250],[97.7,27335],[97.7,27418],[97.7,27502],[97.7,27585],[97.7,27668],[97.7,27750],[97.7,27834],[97.7,27918],[97.7,28002],[97.7,28085],[97.7,28168],[97.7,28250],[97.7,28335],[97.7,28419],[97.7,28500],[97.7,28584],[97.7,28668],[97.7,28752],[97.7,28835],[97.7,28918],[97.7,29002],[97.7,29085],[97.7,29168],[97.7,29250],[97.7,29335],[97.7,29418]]",1333.434,1387.469,99.47916667,1.571,"[{""rating"":99.47916666666667,""responseTime"":1.5709999999999127}]",space,53.488,,1387.469,Definitely yes,100,1387.495,,,[],,0,11,11,11,1,audio/Narrative8Situation2.wav,audio/Narrative7Situation2.wav,audio/Narrative6Situation2.wav,audio/Narrative5Situation2.wav,3,3,3,3,,,,,,,,,,,,,,,,,,,,,,,,,,,,,,,,,,,
,,,,,67fdb95863b421ac7768f5d5,2025-07-07_22h01.36.293,group3.4_multiperson,2023.2.2,Win32,60.0240096,686c2ebf0248f13bef9af11f,686c7b405a43ea2a9c86316f,,,,,,,,,,,,,,,,,,,,,,,,,,,,,1387.496,2,audio/Narrative5Situation3.wav,1390.501,,1390.501,1404.402,"[[999,1],[999,82],[999,165],[999,250],[999,332],[999,415],[999,498],[999,582],[999,666],[999,750],[999,832],[999,915],[999,1000],[999,1082],[999,1165],[999,1248],[999,1331],[999,1415],[999,1500],[999,1582],[999,1665],[999,1748],[999,1833],[999,1915],[999,1998],[999,2082],[999,2167],[999,2250],[999,2332],[999,2416],[999,2498],[999,2583],[999,2666],[78,2751],[80.3,2832],[82.9,2916],[86.1,3000],[89.1,3083],[90.2,3166],[90.5,3250],[91.3,3333],[92.6,3416],[93.1,3500],[93.5,3583],[94.1,3666],[94.9,3750],[95.2,3833],[95.6,3916],[96.2,3998],[96.5,4082],[96.6,4166],[96.7,4250],[96.9,4332],[97,4415],[97,4500],[97,4583],[97,4666],[97,4750],[97,4832],[97,4916],[97,5000],[97,5082],[97,5165],[97,5250],[97,5333],[97,5416],[97,5500],[97,5582],[97,5665],[97,5750],[97,5833],[97,5916],[97,6000],[97,6083],[97,6166],[97,6250],[97,6333],[97,6415],[97,6500],[97,6583],[97,6666],[97,6750],[97,6832],[97,6916],[97,7000],[97,7084],[97,7165],[97,7250],[97,7333],[97,7416],[97,7500],[97,7583],[97,7666],[97,7750],[97,7832],[97,7916],[97,8000],[97,8082],[97,8165],[97,8250],[97,8332],[97,8417],[97,8500],[97,8583],[97,8666],[97,8750],[97,8833],[97,8916],[97,9000],[97,9082],[97,9166],[97,9250],[97,9332],[97,9416],[97,9500],[97,9582],[97,9666],[97,9750],[97,9833],[97,9916],[97,10000],[97,10083],[97,10166],[97,10250],[97,10332],[97,10416],[97,10500],[97,10583],[97,10666],[97,10750],[97,10832],[97,10916],[97,11000],[97,11082],[97,11166],[97,11250],[97,11333],[97,11416],[97,11500],[97,11582],[97,11666],[97,11750],[97,11833],[97,11915],[97,12000],[97,12083],[97,12166],[97,12250],[97,12332],[97,12416],[97,12500],[97,12582],[97,12666],[97,12750],[97,12833],[97,12916],[97,13000],[97,13083],[97,13169],[97,13250],[97,13333],[97,13415],[97,13500],[97,13582],[97,13666],[97,13750],[97,13833]]",1404.403,1408.051,99.73958333,2.66,"[{""rating"":99.73958333333333,""responseTime"":2.660000000000082}]",space,3.104,,1408.052,Definitely yes,100,1408.059,,,[],,0,12,12,12,1,audio/Narrative8Situation3.wav,audio/Narrative7Situation3.wav,audio/Narrative6Situation3.wav,audio/Narrative5Situation3.wav,4,8,5,3,,,,,,,,,,,,,,,,,,,,,,,,,,,,,,,,,,,
,,,,,67fdb95863b421ac7768f5d5,2025-07-07_22h01.36.293,group3.4_multiperson,2023.2.2,Win32,60.0240096,686c2ebf0248f13bef9af11f,686c7b405a43ea2a9c86316f,,,,,,,,,,,,,,,,,,,,,,,,,,,,,1408.06,2,audio/Narrative5Situation4.wav,1409.068,,1409.068,1429.471,"[[999,1],[999,82],[999,165],[999,250],[999,333],[999,416],[999,500],[999,583],[999,666],[999,750],[999,832],[999,916],[999,1000],[999,1082],[999,1166],[999,1250],[999,1333],[999,1416],[999,1500],[999,1582],[999,1666],[999,1750],[999,1833],[999,1916],[999,2000],[999,2083],[999,2167],[999,2250],[999,2332],[999,2417],[999,2500],[999,2583],[999,2666],[999,2750],[999,2832],[999,2916],[999,3000],[999,3083],[999,3166],[999,3250],[999,3333],[999,3416],[999,3500],[999,3582],[999,3666],[999,3750],[999,3833],[999,3916],[999,4000],[999,4082],[999,4166],[999,4250],[999,4332],[999,4416],[999,4500],[999,4583],[999,4666],[999,4750],[999,4832],[999,4916],[999,5000],[999,5083],[999,5166],[999,5254],[999,5332],[999,5416],[999,5500],[999,5582],[999,5666],[999,5750],[999,5836],[999,5916],[999,6000],[999,6083],[999,6166],[999,6250],[999,6332],[999,6416],[999,6500],[999,6583],[999,6666],[999,6750],[999,6832],[999,6917],[999,7000],[90.4,7087],[91.1,7167],[91.5,7250],[92.4,7333],[92.4,7416],[92.4,7500],[92.4,7583],[92.4,7666],[92.4,7750],[92.4,7833],[92.4,7916],[92.4,8000],[92.4,8084],[92.4,8166],[92.4,8250],[92.4,8333],[92.4,8416],[92.4,8500],[92.4,8582],[92.4,8666],[92.4,8750],[92.4,8833],[92.4,8917],[92.4,9000],[92.4,9082],[92.4,9166],[92.4,9250],[92.4,9333],[92.4,9416],[92.4,9500],[92.4,9583],[92.4,9666],[92.4,9750],[92.4,9833],[92.4,9917],[92.4,10000],[92.4,10083],[92.4,10166],[92.4,10250],[92.4,10333],[92.4,10416],[92.4,10500],[92.4,10583],[92.4,10666],[92.4,10750],[92.4,10832],[92.4,10916],[92.4,11000],[92.4,11083],[92.4,11167],[92.4,11250],[92.4,11333],[92.4,11416],[92.4,11500],[92.4,11583],[92.4,11666],[92.4,11750],[92.4,11833],[92.4,11916],[92.4,12000],[92.4,12083],[92.4,12167],[92.4,12250],[92.4,12333],[92.4,12416],[92.4,12500],[92.4,12583],[92.4,12666],[92.4,12750],[92.4,12833],[92.4,12917],[93,13000],[95.2,13083],[95.4,13167],[95.4,13250],[95.7,13334],[95.8,13417],[96.1,13500],[96.2,13583],[96.4,13666],[96.5,13750],[96.6,13833],[96.9,13917],[97.3,14000],[97.5,14083],[97.5,14167],[97.5,14250],[97.5,14333],[97.5,14416],[97.5,14500],[97.5,14584],[97.5,14667],[97.5,14750],[97.5,14834],[97.5,14917],[97.5,15000],[97.5,15083],[97.5,15167],[97.5,15250],[97.5,15333],[97.5,15417],[97.5,15500],[97.5,15583],[97.5,15666],[97.5,15750],[97.5,15833],[97.5,15917],[97.5,16000],[97.5,16083],[97.5,16167],[97.5,16250],[97.5,16334],[97.5,16416],[97.5,16500],[97.5,16584],[97.5,16666],[97.5,16750],[97.5,16834],[97.5,16917],[97.5,17000],[97.5,17083],[97.5,17167],[97.5,17250],[97.5,17333],[97.5,17417],[97.5,17500],[97.5,17583],[97.5,17667],[97.5,17750],[97.5,17834],[97.5,17917],[97.5,18000],[97.5,18083],[97.5,18166],[97.5,18250],[97.5,18333],[97.5,18416],[97.5,18500],[97.5,18583],[97.5,18666],[97.5,18750],[97.5,18833],[97.5,18917],[97.5,19000],[97.5,19083],[97.5,19167],[97.5,19250],[97.5,19333],[97.5,19417],[97.5,19500],[97.5,19583],[97.5,19667],[97.5,19750],[97.5,19834],[97.5,19917],[97.5,20000],[97.5,20084],[97.5,20167],[97.5,20250],[97.5,20333]]",1429.471,1432.92,99.21875,2.505,"[{""rating"":99.21875,""responseTime"":2.5049999999998818}]",space,2.901,,1432.92,Definitely yes,100,1432.929,,,[],,0,13,13,13,1,audio/Narrative8Situation4.wav,audio/Narrative7Situation4.wav,audio/Narrative6Situation4.wav,audio/Narrative5Situation4.wav,3,3,2,1,,,,,,,,,,,,,,,,,,,,,,,,,,,,,,,,,,,
,,,,,67fdb95863b421ac7768f5d5,2025-07-07_22h01.36.293,group3.4_multiperson,2023.2.2,Win32,60.0240096,686c2ebf0248f13bef9af11f,686c7b405a43ea2a9c86316f,,,,,,,,,,,,,,,,,,,,,,,,,,,,,1432.93,2,audio/Narrative5Situation5.wav,1437.937,,1437.937,1453.372,"[[999,0],[999,81],[999,165],[999,249],[999,331],[999,415],[999,500],[999,583],[999,666],[999,750],[999,833],[999,915],[999,999],[999,1083],[999,1164],[999,1249],[999,1331],[999,1415],[999,1499],[999,1583],[999,1665],[999,1749],[999,1833],[999,1915],[999,1999],[999,2081],[999,2166],[999,2250],[999,2331],[999,2415],[999,2499],[999,2583],[999,2665],[999,2749],[999,2833],[999,2915],[999,3000],[999,3083],[999,3165],[999,3249],[999,3331],[999,3415],[999,3500],[999,3583],[999,3665],[999,3750],[999,3833],[999,3915],[999,4000],[999,4083],[999,4165],[999,4249],[999,4333],[999,4415],[999,4499],[999,4583],[999,4665],[999,4749],[999,4833],[999,4916],[999,5000],[999,5083],[57.2,5165],[52.7,5250],[49.7,5333],[48,5415],[48,5499],[48,5583],[48,5665],[48,5750],[48,5834],[47.7,5916],[40.1,6000],[35.3,6083],[31.3,6165],[25.7,6250],[19,6333],[14.6,6415],[13,6500],[12.8,6583],[12.8,6665],[12.8,6749],[12.8,6833],[12.8,6915],[12.8,7000],[12.8,7083],[12.5,7166],[12,7250],[11.6,7333],[11.1,7416],[10.3,7500],[9.8,7583],[9.5,7665],[9.5,7750],[9.5,7833],[9.4,7915],[8.7,8000],[7.7,8083],[6.5,8166],[5.9,8250],[5.3,8333],[4.9,8415],[4.4,8499],[4,8583],[4,8665],[4,8750],[4,8833],[4,8915],[4,9000],[4,9083],[4,9165],[4,9250],[4,9333],[4,9415],[4,9499],[4,9583],[4,9666],[4,9749],[4,9833],[4,9916],[4,9999],[4,10083],[4,10166],[4,10250],[4,10333],[4,10415],[4,10500],[4,10583],[4,10665],[4,10749],[4,10833],[4,10915],[4,11000],[4,11083],[4,11165],[4,11250],[4,11333],[4,11416],[4,11500],[4,11583],[4,11665],[4,11753],[4,11833],[4,11915],[4,12000],[4,12083],[4,12165],[4,12250],[4,12333],[4,12416],[4,12500],[4,12583],[4,12665],[4,12750],[4,12833],[4,12916],[4,13000],[4,13083],[4,13166],[4,13250],[4,13333],[4,13415],[4,13500],[4,13583],[4,13666],[4,13750],[4,13834],[4,13916],[4,13999],[4,14083],[4,14166],[4,14250],[4,14333],[4,14416],[4,14500],[4,14583],[4,14665],[4,14750],[4,14834],[4,14916],[4,15000],[4,15083],[4,15165],[4,15250],[4,15333],[4,15415]]",1453.373,1456.021,1.302083333,1.372,"[{""rating"":1.3020833333333315,""responseTime"":1.3719999999998436}]",space,2.101,,1456.022,Not at all,0,1456.037,,,[],,0,14,14,14,1,audio/Narrative8Situation5.wav,audio/Narrative7Situation5.wav,audio/Narrative6Situation5.wav,audio/Narrative5Situation5.wav,2,5,2,5,,,,,,,,,,,,,,,,,,,,,,,,,,,,,,,,,,,
,,,,,67fdb95863b421ac7768f5d5,2025-07-07_22h01.36.293,group3.4_multiperson,2023.2.2,Win32,60.0240096,686c2ebf0248f13bef9af11f,686c7b405a43ea2a9c86316f,,,,,,,,,,,,,,,,,,,,,,,,,,,,,1456.039,2,audio/Narrative5Situation6.wav,1459.054,,1459.054,1464.739,"[[999,1],[999,83],[999,165],[999,250],[999,333],[999,416],[999,500],[999,583],[999,666],[999,750],[999,833],[999,916],[999,1000],[999,1084],[999,1166],[999,1250],[999,1333],[999,1415],[999,1499],[999,1584],[999,1666],[999,1750],[999,1833],[999,1916],[999,2000],[999,2084],[21.9,2166],[21.9,2250],[21.7,2333],[21.7,2415],[21.7,2499],[21.7,2584],[21.7,2665],[21.7,2750],[21.7,2833],[21.7,2916],[21.7,3000],[21.7,3084],[21.7,3166],[21.7,3250],[21.7,3333],[21.7,3416],[21.7,3500],[21.7,3583],[21.7,3665],[22.8,3750],[24,3834],[24.6,3916],[25.7,4000],[27.3,4084],[28.3,4166],[28.4,4250],[28.4,4333],[28.4,4415],[28.4,4500],[28.4,4589],[28.4,4666],[31.3,4750],[33.1,4834],[35,4916],[36.3,5000],[37.4,5083],[37.6,5166],[35.7,5250],[25.4,5334],[19.5,5416],[18.2,5500],[17.6,5583],[16.7,5666]]",1464.739,1469.038,16.66666667,3.526,"[{""rating"":11.458333333333332,""responseTime"":2.0930000000000746},{""rating"":16.666666666666668,""responseTime"":3.5260000000000673}]",space,3.75,,1469.038,Not at all,0,1469.043,,,[],,0,15,15,15,1,audio/Narrative8Situation6.wav,audio/Narrative7Situation6.wav,audio/Narrative6Situation6.wav,audio/Narrative5Situation6.wav,2,3,2,3,,,,,,,,,,,,,,,,,,,,,,,,,,,,,,,,,,,
,,,,,67fdb95863b421ac7768f5d5,2025-07-07_22h01.36.293,group3.4_multiperson,2023.2.2,Win32,60.0240096,686c2ebf0248f13bef9af11f,686c7b405a43ea2a9c86316f,,,,,,,,,,,,,,,,,,,,,,,,,,,,,1469.044,2,audio/Narrative5Situation7.wav,1473.054,,1473.054,1494.123,"[[999,0],[999,84],[999,166],[999,250],[999,333],[999,416],[999,500],[999,584],[999,666],[999,750],[999,835],[999,918],[999,1000],[999,1084],[999,1166],[999,1250],[999,1334],[999,1418],[999,1500],[999,1584],[999,1666],[999,1750],[999,1834],[999,1916],[999,2000],[999,2084],[999,2166],[999,2250],[999,2334],[999,2418],[999,2500],[999,2584],[999,2666],[999,2750],[13.9,2836],[15,2916],[15.1,3000],[15.1,3085],[15.1,3168],[15.1,3250],[15.1,3334],[15.1,3418],[15.1,3500],[15.1,3584],[15.1,3666],[15.1,3750],[15.1,3835],[14.7,3916],[13.3,4000],[11.7,4085],[10.2,4168],[9,4250],[8.3,4335],[7.7,4418],[7.6,4500],[7.6,4583],[7.6,4666],[7.6,4750],[7.6,4834],[7.6,4918],[7.6,5000],[7.6,5083],[7.6,5166],[7.6,5250],[7.6,5334],[7.6,5416],[8.3,5500],[10.5,5585],[11.7,5666],[12,5750],[12,5835],[11.7,5918],[8.3,6000],[6.8,6084],[6.4,6166],[6.4,6250],[6.4,6334],[6.4,6416],[6.4,6500],[6.4,6585],[6.4,6666],[6.4,6750],[6.4,6834],[6.4,6918],[6.4,7000],[6.4,7085],[6.4,7166],[6.4,7250],[6.4,7334],[6.4,7416],[6.4,7500],[6.4,7584],[6.4,7668],[6.4,7750],[6.4,7834],[6.4,7918],[6.4,8000],[6.4,8084],[6.4,8168],[6.4,8250],[6.4,8334],[6.4,8416],[6.4,8500],[6.4,8584],[6.4,8666],[6.4,8750],[6.4,8834],[6.4,8918],[6.4,9000],[6.4,9085],[6.4,9168],[6.4,9250],[6.4,9334],[6.4,9416],[6.4,9500],[6.4,9584],[6.4,9666],[6.4,9750],[6.4,9834],[6.4,9916],[6.4,10000],[6.4,10101],[6.4,10183],[6.4,10267],[6.4,10351],[6.4,10434],[6.4,10518],[6.4,10601],[6.4,10683],[6.4,10768],[6.4,10851],[6.4,10934],[6.4,11020],[6.4,11101],[6.4,11183],[6.4,11268],[6.4,11351],[6.4,11433],[6.4,11517],[6.4,11601],[6.4,11683],[6.4,11767],[6.4,11851],[6.4,11933],[6.4,12018],[6.4,12101],[6.4,12183],[6.4,12267],[6.4,12351],[6.4,12433],[6.4,12517],[6.4,12601],[6.4,12683],[6.4,12768],[6.4,12851],[6.4,12933],[6.4,13018],[6.4,13101],[6.4,13184],[6.4,13268],[6.4,13352],[6.4,13433],[6.4,13518],[6.4,13601],[6.4,13683],[6.4,13768],[6.4,13851],[6.4,13933],[6.4,14017],[6.4,14101],[6.4,14183],[6.4,14268],[8.5,14355],[13.3,14434],[15.2,14518],[15.6,14601],[15.6,14683],[15,14768],[11.6,14851],[9.2,14933],[8.3,15018],[8.3,15101],[8.3,15184],[8.3,15268],[8.3,15351],[8.3,15433],[8.3,15517],[8.3,15601],[8.3,15683],[8.5,15767],[8.5,15851],[8.5,15934],[8.5,16021],[8.5,16101],[8.5,16184],[8.5,16268],[8.5,16352],[8.5,16433],[8.5,16518],[8.5,16601],[8.5,16683],[8.5,16768],[8.5,16851],[8.5,16933],[8.5,17018],[8.5,17101],[8.5,17184],[8.5,17268],[8.5,17351],[8.5,17434],[8.5,17517],[11.6,17602],[34.4,17684],[44.8,17768],[45.8,17851],[45.8,17933],[45.8,18018],[45.8,18101],[45.8,18183],[45.8,18268],[45.8,18352],[45.8,18434],[47.4,18519],[48.4,18601],[48.7,18683],[48.7,18767],[48.4,18851],[47.4,18934],[46,19018],[44.8,19101],[44.1,19184],[44,19268],[44,19351],[44,19434],[44,19517],[44,19601],[44,19684],[44,19768],[43.9,19852],[43.6,19934],[43.2,20019],[42.6,20102],[41.9,20184],[41.4,20268],[40.9,20352],[40.5,20434],[40.2,20519],[39.5,20601],[38.7,20684],[37,20768],[35.4,20852],[33.2,20934],[30.6,21019]]",1494.124,1496.656,21.875,1.588,"[{""rating"":21.875,""responseTime"":1.5879999999999654}]",space,1.985,,1496.657,Not at all,0,1496.667,,,[],,0,16,16,16,1,audio/Narrative8Situation7.wav,audio/Narrative7Situation7.wav,audio/Narrative6Situation7.wav,audio/Narrative5Situation7.wav,3,5,5,4,,,,,,,,,,,,,,,,,,,,,,,,,,,,,,,,,,,
