exp_question,consent.started,consent.stopped,consentResponse.keys,consentResponse.rt,consentResponse.duration,participantID,date,expName,psychopyVersion,OS,frameRate,STUDY_ID,SESSION_ID,opening1.started,opening1.stopped,keyEndingOpening1.keys,keyEndingOpening1.rt,keyEndingOpening1.duration,volumeAdjust.started,volumeAdjust.stopped,endingAdjust.keys,endingAdjust.rt,endingAdjust.duration,opening2.started,opening2.stopped,keyEndingOpening.keys,keyEndingOpening.rt,keyEndingOpening.duration,mouse.x,mouse.y,mouse.leftButton,mouse.midButton,mouse.rightButton,mouse.time,instructionLoop.thisRepN,instructionLoop.thisTrialN,instructionLoop.thisN,instructionLoop.thisIndex,instructionLoop.ran,readyForAudio.started,readyForAudio.stopped,fixation.started,run,audio_played,fixation.stopped,endPractice.keys,audioPre.started,audioPre.stopped,continuousResponses_audio,continuousSlider.response,continuousSlider.rt,intRating.started,intRating.stopped,intQuestionSlider.response,intQuestionSlider.rt,intQuestionSlider.history,confirmResponse.keys,confirmResponse.rt,confirmResponse.duration,catchQuestion.started,catch_label,catch_value,catchQuestion.stopped,catchQuestionSlider.response,catchQuestionSlider.rt,catchQuestionSlider.history,confirmResponse_2.keys,confirmResponse_2.rt,confirmResponse_2.duration,audioRunLoop.thisRepN,audioRunLoop.thisTrialN,audioRunLoop.thisN,audioRunLoop.thisIndex,audioRunLoop.ran,conditions1_1,conditions2_1,conditions1_2,conditions2_2,dur1_1,dur2_1,dur1_2,dur2_2,endPractice.rt,endPractice.duration,runIntervalBreak.started,runIntervalBreak.stopped,endingBreakKey.keys,endingBreakKey.rt,endingBreakKey.duration,connection.started,connection.stopped,connectionEnding.keys,connectionEnding.rt,connectionEnding.duration,readyForText.started,readyForText.stopped,textPre.started,run_dup,textPre.stopped,continuousResponses_text,textRunLoop.thisRepN,textRunLoop.thisTrialN,textRunLoop.thisN,textRunLoop.thisIndex,textRunLoop.ran,text1_1,text1_2,text2_1,text2_2,runBreakText.started,runBreakText.stopped,endingBreakKey_2.keys,endingBreakKey_2.rt,endingBreakKey_2.duration,ending.started,ending.stopped,endingEnding.keys,endingEnding.rt,endingEnding.duration
social,0.002,5.282,y,4.974,,5658000ca9872d0011e1ba26,2024-02-08_16h02.53.778,group3.1-3.2-social-tom,2023.2.2,Win32,143.6781609,65c5074098b851296ff0b7ed,65c54171564e63bceab0c766,,,,,,,,,,,,,,,,,,,,,,,,,,,,,,,,,,,,,,,,,,,,,,,,,,,,,,,,,,,,,,,,,,,,,,,,,,,,,,,,,,,,,,,,,,,,,,,,,,,,,,,,,,
,,,,,,5658000ca9872d0011e1ba26,2024-02-08_16h02.53.778,group3.1-3.2-social-tom,2023.2.2,Win32,143.6781609,65c5074098b851296ff0b7ed,65c54171564e63bceab0c766,5.282,9.643,space,4.335,,,,,,,,,,,,,,,,,,,,,,,,,,,,,,,,,,,,,,,,,,,,,,,,,,,,,,,,,,,,,,,,,,,,,,,,,,,,,,,,,,,,,,,,,,,,,,,,,,,,,,
,,,,,,5658000ca9872d0011e1ba26,2024-02-08_16h02.53.778,group3.1-3.2-social-tom,2023.2.2,Win32,143.6781609,65c5074098b851296ff0b7ed,65c54171564e63bceab0c766,,,,,,9.643,50.15,space,40.199,,,,,,,,,,,,,,,,,,,,,,,,,,,,,,,,,,,,,,,,,,,,,,,,,,,,,,,,,,,,,,,,,,,,,,,,,,,,,,,,,,,,,,,,,,,,,,,,,
,,,,,,5658000ca9872d0011e1ba26,2024-02-08_16h02.53.778,group3.1-3.2-social-tom,2023.2.2,Win32,143.6781609,65c5074098b851296ff0b7ed,65c54171564e63bceab0c766,,,,,,,,,,,50.152,60.483,space,10.313,,[],[],[],[],[],[],0,0,0,0,1,,,,,,,,,,,,,,,,,,,,,,,,,,,,,,,,,,,,,,,,,,,,,,,,,,,,,,,,,,,,,,,,,,,,,,,,,,,,,,,,
,,,,,,5658000ca9872d0011e1ba26,2024-02-08_16h02.53.778,group3.1-3.2-social-tom,2023.2.2,Win32,143.6781609,65c5074098b851296ff0b7ed,65c54171564e63bceab0c766,,,,,,,,,,,60.483,75.838,space,15.305,,[],[],[],[],[],[],1,0,1,0,1,,,,,,,,,,,,,,,,,,,,,,,,,,,,,,,,,,,,,,,,,,,,,,,,,,,,,,,,,,,,,,,,,,,,,,,,,,,,,,,,
,,,,,,5658000ca9872d0011e1ba26,2024-02-08_16h02.53.778,group3.1-3.2-social-tom,2023.2.2,Win32,143.6781609,65c5074098b851296ff0b7ed,65c54171564e63bceab0c766,,,,,,,,,,,75.839,97.81,space,21.945,,[],[],[],[],[],[],2,0,2,0,1,,,,,,,,,,,,,,,,,,,,,,,,,,,,,,,,,,,,,,,,,,,,,,,,,,,,,,,,,,,,,,,,,,,,,,,,,,,,,,,,
,,,,,,5658000ca9872d0011e1ba26,2024-02-08_16h02.53.778,group3.1-3.2-social-tom,2023.2.2,Win32,143.6781609,65c5074098b851296ff0b7ed,65c54171564e63bceab0c766,,,,,,,,,,,97.81,146.533,space,48.694,,[],[],[],[],[],[],3,0,3,0,1,,,,,,,,,,,,,,,,,,,,,,,,,,,,,,,,,,,,,,,,,,,,,,,,,,,,,,,,,,,,,,,,,,,,,,,,,,,,,,,,
,,,,,,5658000ca9872d0011e1ba26,2024-02-08_16h02.53.778,group3.1-3.2-social-tom,2023.2.2,Win32,143.6781609,65c5074098b851296ff0b7ed,65c54171564e63bceab0c766,,,,,,,,,,,146.534,163.568,space,17.012,,[],[],[],[],[],[],4,0,4,0,1,,,,,,,,,,,,,,,,,,,,,,,,,,,,,,,,,,,,,,,,,,,,,,,,,,,,,,,,,,,,,,,,,,,,,,,,,,,,,,,,
,,,,,,5658000ca9872d0011e1ba26,2024-02-08_16h02.53.778,group3.1-3.2-social-tom,2023.2.2,Win32,143.6781609,65c5074098b851296ff0b7ed,65c54171564e63bceab0c766,,,,,,,,,,,,,,,,,,,,,,,,,,,163.569,166.144,166.151,1,audio/Narrative13Situation2.wav,168.151,,168.151,197.888,"[[999,1],[999,97],[999,181],[999,264],[999,347],[999,430],[999,513],[999,597],[999,680],[999,764],[999,847],[999,931],[999,1014],[999,1097],[999,1180],[999,1264],[999,1347],[999,1431],[999,1514],[999,1597],[999,1681],[999,1763],[999,1847],[999,1930],[999,2014],[999,2097],[999,2180],[999,2264],[999,2347],[999,2431],[999,2514],[13,2597],[10.3,2680],[9.7,2764],[8,2847],[3.8,2931],[1.6,3014],[0.7,3097],[1,4764],[2,4847],[2,4931],[2,5014],[2,5097],[2,5181],[2,5264],[2,5347],[1.8,5431],[1.6,5514],[1.5,5597],[1.3,5681],[1.3,5764],[1.3,5848],[1.3,5931],[1.3,6014],[1.3,6097],[1.3,6180],[1.3,6263],[1.3,6347],[1.3,6431],[1.3,6514],[1.3,6597],[1.3,6680],[1.3,6764],[1.3,6847],[1.3,6931],[1.3,7014],[1.3,7097],[1.3,7181],[1.3,7264],[1.3,7347],[1.3,7430],[1.3,7513],[1.3,7597],[1.3,7680],[1.3,7764],[1.3,7847],[1.3,7930],[1.3,8013],[1.3,8097],[1.3,8180],[4.2,8264],[12.7,8347],[18.4,8430],[30.4,8514],[37.7,8597],[43,8681],[48,8764],[50.4,8847],[62.9,8931],[73.1,9014],[77.6,9097],[78,9180],[78,9264],[80.5,9347],[82.6,9430],[83.9,9514],[86.5,9597],[88.8,9680],[89.2,9764],[89.9,9847],[90.8,9930],[91.8,10014],[93.5,10097],[93.5,10180],[93.5,10264],[93.5,10347],[93.5,10430],[93.4,10514],[93.2,10597],[93.2,10681],[93.2,10764],[93.2,10847],[93.2,10930],[93.2,11014],[93.8,11097],[95.4,11181],[96.2,11264],[96.4,11347],[96.7,11430],[96.7,11513],[97,11597],[97.2,11681],[97.2,11764],[97.2,11847],[97.4,11930],[97.4,12013],[97.4,12098],[97.4,12181],[97.4,12264],[97.9,12347],[98.1,12430],[98.1,12514],[98.1,12597],[98.1,12681],[98.1,12764],[98.1,12847],[98.1,12931],[98.1,13014],[98.1,13097],[98.1,13181],[98.1,13264],[98.1,13347],[98.1,13430],[98.1,13514],[98.1,13597],[98.1,13680],[98.1,13763],[98.1,13847],[98.1,13931],[98.1,14014],[97.9,14097],[93.5,14180],[90.5,14263],[89.6,14347],[89.6,14430],[90.9,14514],[95.3,14597],[98.4,14681],[98.5,14764],[99.2,14847],[99.3,14930],[99.3,15014],[99.3,15097],[99.3,15181],[99.3,15264],[99.3,15347],[99.3,15430],[99.1,15514],[98.5,15597],[97.3,15680],[97.3,15763],[97.3,15847],[93.7,15930],[92.7,16014],[92.6,16097],[92.6,16180],[92.6,16264],[92.6,16348],[92.6,16431],[92.6,16514],[92.6,16597],[92.6,16680],[88.9,16763],[84,16854],[79.4,16937],[74.8,17020],[72,17104],[66.3,17188],[48.7,17271],[39.3,17354],[36.1,17437],[28.6,17520],[27.5,17605],[25.9,17687],[21.8,17770],[13.6,17855],[10.9,17938],[10.5,18021],[9.9,18104],[9,18187],[8,18270],[7.9,18354],[7.9,18437],[6.9,18521],[6.2,18604],[6,18688],[5.4,18770],[4.3,18854],[3.9,18938],[3.8,19021],[3.8,19104],[3.7,19188],[3.7,19270],[3.7,19355],[3.7,19438],[3.7,19521],[3.7,19604],[3.7,19687],[3.7,19771],[3.7,19854],[3.7,19937],[3.7,20021],[3.7,20104],[3.7,20187],[3.4,20270],[2.8,20354],[2.6,20437],[2.4,20521],[2.4,20604],[2.4,20688],[2.4,20771],[2.4,20854],[2.4,20937],[2.4,21021],[2.4,21104],[2,21188],[1,21271],[0.9,21354],[0.8,21437],[0.8,21521],[0.8,21605],[0.8,21687],[0.8,21771],[0.8,21855],[0.8,21937],[0.8,22021],[0.8,22104],[0.8,22187],[0.8,22270],[0.8,22354],[0.8,22437],[0.8,22521],[0.8,22604],[0.8,22687],[0.8,22770],[0.8,22855],[0.8,22938],[0.8,23021],[0.8,23104],[0.8,23187],[0.8,23270],[0.8,23354],[0.8,23438],[0.8,23521],[0.8,23604],[0.8,23687],[0.8,23770],[0.8,23855],[0.8,23937],[0.8,24021],[0.8,24104],[0.8,24187],[0.8,24270],[0.8,24354],[0.8,24438],[0.8,24521],[0.8,24604],[0.8,24687],[0.8,24771],[0.8,24854],[0.8,24937],[0.8,25021],[0.8,25104],[0.8,25188],[0.8,25271],[0.8,25354],[0.8,25437],[0.8,25521],[0.8,25605],[0.8,25688],[0.8,25771],[0.8,25854],[0.8,25937],[0.8,26020],[0.8,26104],[0.8,26187],[0.8,26271],[0.8,26354],[0.8,26437],[0.8,26521],[0.8,26604],[0.8,26687],[0.8,26771],[0.8,26854],[0.8,26937],[0.8,27021],[0.8,27104],[0.8,27187],[0.8,27271],[0.8,27355],[0.8,27438],[0.8,27521],[0.8,27604],[0.8,27687],[0.8,27770],[0.8,27855],[0.8,27938],[0.8,28021],[0.8,28104],[0.8,28187],[0.8,28271],[0.8,28354],[0.8,28438],[0.8,28521],[0.8,28604],[0.8,28687],[0.8,28771],[0.8,28854],[0.8,28938],[0.8,29021],[0.8,29104],[0.8,29187],[0.8,29271],[0.8,29354],[0.8,29438],[0.8,29521],[0.8,29604],[0.8,29688]]",1,0,197.888,217.075,24.765625,18.678,"[{""rating"":49.140625,""responseTime"":10.735000000000014},{""rating"":24.765625000000004,""responseTime"":18.678000000000026}]",space,18.679,,217.075,Definitely yes,100,227.839,99.453125,7.733,"[{""rating"":99.453125,""responseTime"":7.733000000000004}]",space,10.255,,0,0,0,0,1,audio/Narrative13Situation2.wav,audio/Narrative13Situation2.wav,audio/Narrative13Situation2.wav,audio/Narrative13Situation2.wav,2,2,2,2,,,,,,,,,,,,,,,,,,,,,,,,,,,,,,,,,,,,,
,,,,,,5658000ca9872d0011e1ba26,2024-02-08_16h02.53.778,group3.1-3.2-social-tom,2023.2.2,Win32,143.6781609,65c5074098b851296ff0b7ed,65c54171564e63bceab0c766,,,,,,,,,,,,,,,,,,,,,,,,,,,,,227.839,1,audio/Narrative7Situation1.wav,245.651,space,245.651,301.527,"[[68,917],[68,1001],[68,1084],[68,1167],[82.4,1584],[8.7,2084],[24.7,2251],[12.5,2334],[11,2417],[6.3,2500],[5.9,2584],[5.9,2667],[5.9,2750],[5.7,2834],[5.7,2917],[5.9,3000],[6,3084],[3.7,3168],[2.2,3584],[3.5,3668],[5,3750],[5,3834],[4.2,3916],[0.9,4000],[0.3,4084],[0.1,4166],[0.1,4250],[0.4,4334],[1.3,4416],[1.5,4500],[1.9,4584],[1.9,4666],[1.8,4750],[1.6,4834],[1.6,4916],[1.3,5000],[1.3,5084],[1.3,5166],[1.3,5250],[1.3,5334],[1.3,5416],[1,5500],[0.2,5584],[15.8,36418],[24.5,36500],[31.6,36584],[36.3,36668],[42.3,36750],[48,36834],[48.2,36918],[48.2,37000],[48.2,37084],[48.2,37168],[48.2,37250],[48.2,37334],[48,37418],[42.2,37500],[41.4,37584],[42,37668],[49.5,37750],[50.5,37834],[50.5,37916],[50.5,38000],[50.5,38084],[50.5,38166],[50.5,38250],[52.7,38334],[54.8,38418],[56,38500],[58.3,38584],[59.5,38666],[63.7,38750],[64.2,38834],[64.2,38918],[64.2,39000],[64.2,39084],[64.2,39166],[64.2,39250],[64.2,39334],[64.2,39418],[64.2,39500],[64.2,39584],[64.2,39666],[64.2,39750],[64.2,39834],[64.2,39916],[64.9,40000],[67.5,40084],[67.6,40168],[67.6,40250],[67.6,40334],[67.6,40418],[67.6,40500],[67.6,40584],[67.6,40668],[67.6,40750],[67.6,40834],[67.6,40916],[67.6,41000],[67.6,41084],[66.6,41166],[60.7,41250],[51.2,41334],[46.4,41416],[43,41500],[41.8,41584],[31.6,41668],[26.3,41750],[15.4,41834],[10.9,41918],[10.5,42000],[5.2,42084],[4.7,42166],[4.5,42250],[3.2,42334],[0.2,42918],[0.6,43000],[0.9,43084],[4.3,43166],[5.2,43250],[15.1,43334],[47.5,43418],[58.4,43500],[61.4,43584],[73,43666],[73.5,43750],[73.7,43834],[77.2,43916],[88.1,44000],[94.1,44084],[100,44166],[100,44250],[100,44334],[100,44418],[100,44500],[100,44584],[100,44668],[100,44750],[100,44834],[100,44916],[100,45000],[100,45084],[100,45166],[100,45250],[100,45334],[100,45416],[100,45500],[100,45584],[100,45668],[100,45750],[100,45834],[100,45918],[100,46000],[100,46084],[100,46166],[100,46250],[100,46334],[100,46418],[100,46500],[100,46584],[100,46666],[100,46750],[100,46834],[100,46918],[100,47000],[99.3,47084],[98.4,47168],[97.7,47250],[95.9,47334],[94.3,47416],[85.2,47500],[76.4,47584],[70.5,47668],[68.7,47750],[68.1,47834],[63,47916],[61.9,48000],[60.9,48084],[59,48168],[56.5,48250],[53,48334],[51.6,48416],[49.8,48500],[48.5,48584],[48.3,48666],[48.1,48750],[48.1,48834],[48.1,48916],[48,49000],[47.4,49084],[47.4,49166],[47.3,49250],[46.8,49334],[46.3,49416],[45.4,49500],[39.1,49584],[38.6,49666],[38.4,49750],[34.1,49834],[32.6,49918],[31.5,50000],[28.9,50084],[26.8,50168],[27.2,50250],[39.8,50334],[43.8,50418],[44.2,50500],[46,50584],[48,50668],[48,50750],[48,50834],[47.1,50916],[46.4,51000],[31.7,51084],[11.8,51166],[2.1,51250],[2.1,51334],[2,51418],[2,51500],[2.3,51584],[5.8,51668],[9.1,51750],[12,51834],[16.2,51916],[21.6,52000],[23,52084],[24.8,52168],[26.5,52250],[30,52334],[30,52416],[30,52500],[25.4,52584],[16.2,52666],[14.9,52750],[8.7,52834],[7.1,52916],[7.1,53000],[5.2,53084],[4.9,53166],[4.9,53250],[5.1,53334],[8.6,53416],[10.1,53500],[10.9,53584],[16,53666],[20,53750],[22.3,53834],[27.3,53918],[27.6,54000],[27.6,54084],[27,54166],[22.4,54250],[18.5,54334],[17.1,54418],[16.2,54500],[14.9,54584],[13.4,54666],[12.7,54750],[12.7,54834],[24.9,54918],[35.1,55000],[37,55084],[37.6,55166],[37.6,55250],[37.6,55334],[39.3,55418],[39.4,55500],[39.4,55584],[39.4,55668],[39.4,55750],[38.5,55834]]",1,0,301.527,329.541,38.828125,8.8,"[{""rating"":38.828125,""responseTime"":8.800000000000011}]",space,27.501,,329.541,Partially,50,329.544,,,[],,,,0,1,1,1,1,audio/Narrative7Situation1.wav,audio/Narrative8Situation1.wav,audio/Narrative5Situation1.wav,audio/Narrative6Situation1.wav,2,5,5,2,17.803,,,,,,,,,,,,,,,,,,,,,,,,,,,,,,,,,,,,
,,,,,,5658000ca9872d0011e1ba26,2024-02-08_16h02.53.778,group3.1-3.2-social-tom,2023.2.2,Win32,143.6781609,65c5074098b851296ff0b7ed,65c54171564e63bceab0c766,,,,,,,,,,,,,,,,,,,,,,,,,,,,,329.544,1,audio/Narrative7Situation2.wav,332.548,,332.548,340.013,"[[999,0],[999,84],[999,166],[999,250],[999,334],[999,416],[999,500],[999,584],[999,666],[999,750],[999,832],[9.3,915],[5.5,1000],[2.7,1084],[2.6,1166],[2.4,1250],[1.7,1332],[1.7,1418],[1.7,1500],[1.7,1584],[1.7,1666],[1.7,1750],[1.8,1834],[2,1916],[2,2000],[2,2082],[2,2165],[2,2250],[1.8,2334],[1.4,2416],[1.4,2500],[1.4,2582],[1.4,2666],[1.4,2750],[1.4,2832],[1.4,2916],[1.4,3000],[1.4,3084],[1.4,3166],[1.4,3250],[1.4,3334],[1.4,3416],[1.4,3500],[1.4,3584],[1.4,3666],[1.4,3750],[1.4,3832],[1.8,3916],[4.9,4000],[4.9,4084],[5,4166],[10.9,4250],[23.5,4332],[33.4,4418],[46.9,4500],[49.1,4582],[54.7,4666],[60.9,4750],[67.7,4832],[80.6,4916],[91.2,5000],[98.8,5084],[100,5166],[100,5250],[100,5334],[100,5416],[100,5500],[100,5582],[100,5665],[100,5750],[100,5834],[100,5916],[100,6000],[100,6082],[100,6166],[100,6250],[100,6334],[100,6418],[100,6500],[100,6582],[100,6666],[100,6750],[100,6832],[100,6916],[100,7000],[100,7082],[100,7166],[100,7250],[100,7332],[100,7416]]",1,0,340.013,350.722,99.6875,5.407,"[{""rating"":99.6875,""responseTime"":5.407000000000039}]",space,10.195,,350.722,Partially,50,350.723,,,[],,,,0,2,2,2,1,audio/Narrative7Situation2.wav,audio/Narrative8Situation2.wav,audio/Narrative5Situation2.wav,audio/Narrative6Situation2.wav,3,3,3,3,,,,,,,,,,,,,,,,,,,,,,,,,,,,,,,,,,,,,
,,,,,,5658000ca9872d0011e1ba26,2024-02-08_16h02.53.778,group3.1-3.2-social-tom,2023.2.2,Win32,143.6781609,65c5074098b851296ff0b7ed,65c54171564e63bceab0c766,,,,,,,,,,,,,,,,,,,,,,,,,,,,,350.724,1,audio/Narrative7Situation3.wav,358.729,,358.729,367.972,"[[59.8,1083],[0.5,2250],[0.5,2333],[0.5,2417],[15.7,2667],[8.7,2750],[1.5,3167],[1.6,3250],[1.6,3333],[2.7,3417],[2.7,3500],[2.7,3583],[2.7,3665],[1.9,3750],[1.4,3833],[1.2,3917],[1.2,4000],[1.2,4083],[1.2,4165],[1.3,4250],[1.7,4333],[1.7,4417],[1.7,4500],[1.7,4583],[1.7,4667],[1.7,4750],[1.7,4833],[1.7,4915],[1.5,5000],[1.2,5083],[1,5167],[1,5250],[1,5334],[1,5417],[1,5499],[1,5584],[1,5667],[1,5750],[1,5833],[1.1,5915],[1.2,5999],[1.2,6084],[1.7,6165],[4,6250],[4,6333],[4.1,6417],[4.1,6500],[4.1,6583],[2.7,6667],[0.1,6750],[0.1,6833],[0.1,6917],[0.1,7000],[0.1,7084],[0.2,7167],[1.4,7250],[1.6,7334],[1.9,7417],[1.9,7500],[1.9,7583],[1.6,7667],[1,7750],[0.9,7833],[0.9,7917],[0.9,8000],[0.9,8083],[0.9,8165],[0.9,8250],[0.9,8333],[0.9,8417],[0.9,8500],[0.9,8583],[0.9,8667],[0.9,8750],[0.9,8833],[0.9,8917],[0.9,9000],[0.9,9083],[0.9,9167]]",1,0,367.972,373.847,0.078125,5.2,"[{""rating"":0.07812500000000111,""responseTime"":5.199999999999989}]",space,5.365,,373.847,Partially,50,373.85,,,[],,,,0,3,3,3,1,audio/Narrative7Situation3.wav,audio/Narrative8Situation3.wav,audio/Narrative5Situation3.wav,audio/Narrative6Situation3.wav,8,4,3,5,,,,,,,,,,,,,,,,,,,,,,,,,,,,,,,,,,,,,
,,,,,,5658000ca9872d0011e1ba26,2024-02-08_16h02.53.778,group3.1-3.2-social-tom,2023.2.2,Win32,143.6781609,65c5074098b851296ff0b7ed,65c54171564e63bceab0c766,,,,,,,,,,,,,,,,,,,,,,,,,,,,,373.85,1,audio/Narrative7Situation4.wav,376.854,,376.854,388.569,"[[999,1],[999,84],[999,167],[999,250],[999,333],[999,417],[999,500],[999,583],[999,667],[999,750],[999,834],[999,917],[999,1000],[999,1083],[999,1165],[999,1250],[999,1333],[999,1417],[999,1500],[999,1583],[999,1667],[999,1750],[999,1834],[999,1917],[999,2000],[999,2084],[999,2167],[0.5,2915],[0.5,3000],[0.5,3084],[0.5,3167],[0.5,3250],[0.5,3333],[0.5,3417],[0.5,3500],[0.5,3583],[0.5,3667],[0.5,3750],[0.5,3833],[0.5,3917],[0.5,4000],[0.5,4084],[0.5,4167],[0.5,4250],[0.5,4334],[0.5,4417],[0.4,4500],[0.2,4583],[0.2,4667],[0.2,4750],[0.2,4833],[0.2,4917],[0.2,5000],[0.2,5083],[0.2,5165],[0.2,5250],[0.2,5334],[0.2,5417],[0.2,5500],[0.2,5583],[0.2,5667],[0.2,5750],[0.2,5834],[0.2,5917],[0.2,6000],[0.2,6083],[0.2,6167],[0.2,6250],[0.2,6333],[0.2,6417],[0.2,6500],[0.2,6584],[0.5,6667],[2,6750],[4.8,6834],[5.5,6917],[5.5,7000],[5.5,7084],[5.5,7167],[5.5,7250],[5.5,7333],[5.5,7417],[8.7,7500],[10.9,7583],[12.1,7667],[15.7,7750],[21,7833],[21.5,7917],[21.6,8000],[27.3,8084],[34.5,8165],[38.7,8250],[40.5,8333],[41.3,8417],[44.1,8500],[46.3,8583],[46.4,8665],[46.4,8750],[46.4,8834],[46.4,8917],[46.4,9000],[46.4,9083],[39.8,9167],[17.9,9250],[9,9333],[9,9417],[9,9500],[9,9584],[9,9667],[14.2,9750],[30.5,9834],[30.7,9917],[26.4,10000],[11.5,10084],[6.9,10167],[0.4,10250],[0.5,11000],[1.3,11083],[1.7,11167],[3.2,11250],[3.4,11333],[3.4,11417],[3.4,11500],[2,11583],[1,11667]]",1,0,388.569,395.118,0.703125,5.088,"[{""rating"":0.7031249999999989,""responseTime"":5.087999999999965}]",space,6.035,,395.118,Not at all,0,395.121,,,[],,,,0,4,4,4,1,audio/Narrative7Situation4.wav,audio/Narrative8Situation4.wav,audio/Narrative5Situation4.wav,audio/Narrative6Situation4.wav,3,3,1,2,,,,,,,,,,,,,,,,,,,,,,,,,,,,,,,,,,,,,
,,,,,,5658000ca9872d0011e1ba26,2024-02-08_16h02.53.778,group3.1-3.2-social-tom,2023.2.2,Win32,143.6781609,65c5074098b851296ff0b7ed,65c54171564e63bceab0c766,,,,,,,,,,,,,,,,,,,,,,,,,,,,,395.122,1,audio/Narrative7Situation5.wav,400.125,,400.125,408.597,"[[9.5,584],[8.8,666],[6.4,750],[4.3,832],[2,916],[0.4,1000],[0.3,1082],[0.3,1166],[0.3,1250],[0.3,1332],[0.3,1415],[0.3,1500],[0.3,1582],[0.3,1665],[0.3,1750],[0.3,1834],[0.3,1916],[0.3,2000],[0.3,2084],[0.3,2165],[0.3,2250],[0.3,2334],[0.3,2416],[0.3,2500],[0.3,2582],[0.3,2665],[0.3,2750],[0.3,2832],[0.3,2915],[0.3,3000],[0.3,3084],[0.3,3166],[0.3,3250],[0.3,3332],[0.3,3415],[0.3,3500],[0.3,3582],[0.3,3666],[0.3,3750],[0.3,3832],[0.3,3915],[0.3,4000],[0.3,4084],[0.3,4166],[0.3,4250],[0.3,4334],[0.3,4415],[0.3,4500],[0.3,4582],[0.3,4666],[0.3,4750],[0.3,4834],[0.3,4916],[0.3,5000],[0.3,5082],[0.3,5166],[0.3,5250],[0.3,5334],[0.3,5416],[0.3,5500],[0.3,5582],[0.3,5666],[0.3,5750],[0.3,5834],[0.3,5916],[0.3,6000],[0.3,6082],[0.3,6165],[0.3,6250],[0.3,6334],[0.3,6416],[0.3,6500],[0.3,6582],[0.3,6666],[0.3,6750],[0.3,6834],[0.3,6915],[0.3,7000],[0.3,7084],[0.3,7166],[0.3,7250],[0.3,7332],[0.3,7415],[0.3,7500],[0.3,7582],[0.3,7666],[0.3,7750],[0.3,7834],[0.3,7915],[0.3,8000],[0.3,8084],[0.3,8166],[0.3,8250],[0.3,8334],[0.3,8415]]",1,0,408.597,410.958,0.078125,1.032,"[{""rating"":0.07812500000000111,""responseTime"":1.0319999999999823}]",space,1.848,,410.958,Not at all,0,416.389,0.234375,4.809,"[{""rating"":0.23437499999999778,""responseTime"":4.809000000000026}]",space,4.917,,0,5,5,5,1,audio/Narrative7Situation5.wav,audio/Narrative8Situation5.wav,audio/Narrative5Situation5.wav,audio/Narrative6Situation5.wav,5,2,5,2,,,,,,,,,,,,,,,,,,,,,,,,,,,,,,,,,,,,,
,,,,,,5658000ca9872d0011e1ba26,2024-02-08_16h02.53.778,group3.1-3.2-social-tom,2023.2.2,Win32,143.6781609,65c5074098b851296ff0b7ed,65c54171564e63bceab0c766,,,,,,,,,,,,,,,,,,,,,,,,,,,,,416.389,1,audio/Narrative7Situation6.wav,419.389,,419.389,429.348,"[[999,0],[999,82],[999,166],[999,250],[999,332],[999,415],[999,500],[999,584],[999,666],[999,750],[999,832],[999,916],[999,1000],[2.2,1084],[1.8,1166],[1.3,1250],[1.3,1332],[1.3,1416],[1.3,1500],[0.7,1584],[0.2,1666],[0.2,1750],[0.2,1832],[0.2,1916],[0.2,2000],[0.2,2082],[0.2,2166],[0.2,2250],[0.2,2334],[0.2,2416],[0.2,2500],[0.6,2584],[4.5,2666],[9.8,2750],[23.2,2834],[31.6,2916],[47.6,3000],[60.8,3082],[76.6,3165],[83.3,3250],[87.7,3334],[93.6,3416],[98.7,3500],[100,3582],[100,3665],[100,3750],[100,3834],[100,3916],[100,4000],[100,4082],[100,4166],[100,4250],[100,4332],[100,4416],[100,4500],[100,4584],[100,4666],[100,4750],[100,4834],[100,4916],[100,5000],[100,5084],[100,5166],[100,5250],[100,5332],[100,5415],[100,5500],[100,5587],[100,5666],[100,5750],[100,5832],[100,5916],[100,6000],[100,6082],[100,6166],[100,6250],[100,6332],[100,6416],[100,6500],[100,6584],[100,6666],[100,6750],[100,6834],[100,6916],[100,7000],[100,7082],[100,7166],[100,7250],[100,7332],[100,7416],[100,7500],[100,7584],[100,7666],[100,7750],[100,7832],[100,7916],[100,8000],[100,8084],[100,8166],[100,8250],[100,8332],[100,8415],[100,8500],[100,8584],[100,8666],[100,8750],[100,8832],[100,8915],[100,9000],[100,9082],[100,9166],[100,9250],[100,9334],[100,9416],[100,9500],[100,9582],[100,9666],[100,9750],[100,9834],[100,9916]]",1,0,429.348,436.459,99.453125,6.419,"[{""rating"":99.453125,""responseTime"":6.418999999999983}]",space,6.598,,436.459,Not at all,0,436.461,,,[],,,,0,6,6,6,1,audio/Narrative7Situation6.wav,audio/Narrative8Situation6.wav,audio/Narrative5Situation6.wav,audio/Narrative6Situation6.wav,3,2,3,2,,,,,,,,,,,,,,,,,,,,,,,,,,,,,,,,,,,,,
,,,,,,5658000ca9872d0011e1ba26,2024-02-08_16h02.53.778,group3.1-3.2-social-tom,2023.2.2,Win32,143.6781609,65c5074098b851296ff0b7ed,65c54171564e63bceab0c766,,,,,,,,,,,,,,,,,,,,,,,,,,,,,436.462,1,audio/Narrative7Situation7.wav,441.466,,441.466,458.626,"[[999,0],[999,82],[999,166],[999,248],[999,334],[21.5,416],[0.1,500],[0.4,1166],[1.2,1250],[1.2,1332],[1.3,1415],[1.3,1502],[1.3,1582],[1.3,1666],[1.3,1750],[1.2,1832],[1.2,1916],[0.7,1998],[0.4,2582],[0.4,2665],[0.4,2750],[0.7,2832],[2.7,2916],[10.1,3000],[38.2,3082],[49.7,3166],[54.9,3250],[62.1,3332],[74.9,3416],[93,3502],[98.2,3582],[100,3666],[100,3750],[100,3832],[100,3915],[100,3998],[100,4082],[100,4166],[100,4250],[100,4332],[100,4415],[100,4500],[100,4582],[100,4666],[100,4750],[100,4832],[100,4916],[100,5000],[100,5082],[100,5166],[100,5250],[100,5332],[100,5416],[100,5502],[100,5582],[100,5665],[100,5748],[100,5832],[100,5915],[100,6000],[100,6082],[100,6165],[100,6248],[100,6332],[100,6416],[100,6500],[100,6582],[100,6665],[100,6750],[100,6832],[100,6916],[100,7000],[100,7082],[100,7165],[100,7250],[100,7332],[100,7416],[100,7500],[100,7584],[94.5,7666],[84.9,7750],[80.2,7832],[80.2,7915],[73.9,7998],[72.9,8082],[78.4,8166],[87.5,8250],[90.3,8334],[94.9,8415],[96.3,8500],[96.4,8582],[92.5,8666],[81.8,8750],[80.7,8832],[76.5,8915],[75.9,9000],[75.9,9082],[75.9,9166],[75.9,9250],[76.3,9332],[83.8,9415],[84.2,9500],[84.2,9582],[75.4,9666],[66.8,9750],[61.6,9834],[59.3,9916],[57.1,10000],[52.8,10082],[51.9,10166],[51.5,10248],[51,10334],[49.4,10416],[49.4,10500],[49.4,10582],[49.8,10666],[50,10750],[50,10832],[49.1,10916],[48.7,11000],[48.7,11082],[47.3,11166],[43.7,11250],[43.7,11332],[44.8,11415],[52.1,11498],[54.3,11582],[56.1,11666],[59.5,11750],[61,11832],[64,11915],[71.8,12000],[71.6,12082],[52.9,12165],[39.5,12250],[36.8,12332],[21.1,12416],[15.4,12502],[12.3,12582],[9.4,12665],[9.1,12750],[5.5,12832],[4.9,12916],[2.5,13000],[1,13082],[1,13165],[1,13250],[1,13332],[1.2,13415],[2.1,13500],[2.6,13584],[2.6,13665],[2.6,13750],[1.8,13832],[1.1,13915],[1,14000],[1,14082],[1,14165],[1,14250],[19.1,14332],[65.2,14415],[100,14500],[100,14582],[100,14666],[100,14750],[100,14832],[100,14916],[100,15000],[100,15082],[99.2,15166],[99.2,15250],[99.3,15332],[99.7,15415],[99.7,15500],[99.8,15584],[99.8,15666],[99.8,15750],[99.8,15832],[99.8,15915],[99.8,16000],[99.8,16082],[99.8,16166],[99.8,16250],[99.8,16332],[99.8,16415],[99.8,16500],[99.8,16582],[99.8,16666],[99.8,16750],[99.8,16832],[99.8,16916],[99.8,17000],[99.8,17082]]",1,0,458.626,470.362,71.484375,11.311,"[{""rating"":79.453125,""responseTime"":7.7660000000000196},{""rating"":70.46875,""responseTime"":10.729000000000042},{""rating"":71.484375,""responseTime"":11.311000000000035}]",space,11.227,,470.362,Definitely yes,100,470.366,,,[],,,,0,7,7,7,1,audio/Narrative7Situation7.wav,audio/Narrative8Situation7.wav,audio/Narrative5Situation7.wav,audio/Narrative6Situation7.wav,5,3,4,5,,,,,,,,,,,,,,,,,,,,,,,,,,,,,,,,,,,,,
,,,,,,5658000ca9872d0011e1ba26,2024-02-08_16h02.53.778,group3.1-3.2-social-tom,2023.2.2,Win32,143.6781609,65c5074098b851296ff0b7ed,65c54171564e63bceab0c766,,,,,,,,,,,,,,,,,,,,,,,,,,,,,470.366,1,audio/Narrative7Situation8.wav,472.369,,472.369,482.376,"[[1.3,1667],[1.3,1750],[0.3,1833],[19.9,5174],[50.5,5257],[100,5590],[93.3,5674],[93,5757],[94.8,5840],[98.3,5923],[98.6,6006],[98.8,6090],[99.1,6173],[99.1,6257],[99.9,6340],[100,6423],[100,6506],[100,6593],[100,6673],[100,6757],[100,6840],[100,6923],[100,7007],[100,7090],[100,7173],[100,7256],[100,7341],[100,7424],[100,7507],[100,7590],[100,7673],[100,7756],[100,7840],[100,7923],[100,8006],[100,8091],[100,8173],[100,8257],[100,8340],[100,8423],[100,8506],[100,8591],[100,8673],[100,8757],[100,8840],[100,8923],[100,9007],[100,9090],[100,9173],[100,9257],[100,9340],[100,9423],[100,9507],[100,9590],[100,9673],[100,9757],[100,9840],[100,9923],[100,10007]]",1,0,482.376,488.237,99.140625,4.562,"[{""rating"":99.140625,""responseTime"":4.562000000000012}]",space,5.349,,488.237,Not at all,0,488.239,,,[],,,,0,8,8,8,1,audio/Narrative7Situation8.wav,audio/Narrative8Situation8.wav,audio/Narrative5Situation8.wav,audio/Narrative6Situation8.wav,2,3,3,5,,,,,,,,,,,,,,,,,,,,,,,,,,,,,,,,,,,,,
,,,,,,5658000ca9872d0011e1ba26,2024-02-08_16h02.53.778,group3.1-3.2-social-tom,2023.2.2,Win32,143.6781609,65c5074098b851296ff0b7ed,65c54171564e63bceab0c766,,,,,,,,,,,,,,,,,,,,,,,,,,,,,488.239,1,audio/Narrative7Situation9.wav,490.244,,490.244,498.862,"[[999,1],[999,84],[999,167],[999,250],[0.9,2083],[6.5,2165],[19.8,2250],[32.7,2334],[50.6,2417],[66.3,2500],[79.5,2583],[88,2667],[97.3,2750],[100,2833],[100,2917],[100,3000],[100,3084],[100,3167],[100,3250],[100,3334],[100,3417],[100,3499],[100,3584],[100,3667],[100,3750],[100,3833],[100,3915],[100,4000],[100,4083],[100,4165],[100,4250],[100,4333],[100,4417],[100,4500],[100,4583],[100,4665],[100,4750],[100,4834],[100,4917],[100,5000],[100,5083],[100,5165],[100,5249],[100,5333],[100,5417],[100,5500],[100,5583],[97.1,5665],[95.7,5750],[92,5833],[91.3,5915],[91.3,6000],[91.3,6083],[91.3,6167],[91.3,6250],[90.5,6333],[85.2,6415],[85.2,6500],[85.2,6584],[85.5,6667],[90.7,6750],[93.5,6833],[95.5,6915],[97,7000],[97.1,7083],[97.1,7165],[95.9,7250],[91.8,7333],[90.9,7418],[90.9,7500],[90.9,7583],[90.9,7665],[90.9,7750],[91,7833],[93.9,7915],[95.2,8000],[95.7,8083],[97,8167],[98.5,8250],[99.1,8333],[99.6,8417],[99.6,8500],[99.6,8583]]",1,0,498.862,501.723,99.0625,1.813,"[{""rating"":99.0625,""responseTime"":1.8129999999999882}]",space,2.347,,501.723,Not at all,0,501.726,,,[],,,,0,9,9,9,1,audio/Narrative7Situation9.wav,audio/Narrative8Situation9.wav,audio/Narrative5Situation9.wav,audio/Narrative6Situation9.wav,2,3,3,4,,,,,,,,,,,,,,,,,,,,,,,,,,,,,,,,,,,,,
,,,,,,5658000ca9872d0011e1ba26,2024-02-08_16h02.53.778,group3.1-3.2-social-tom,2023.2.2,Win32,143.6781609,65c5074098b851296ff0b7ed,65c54171564e63bceab0c766,,,,,,,,,,,,,,,,,,,,,,,,,,,,,501.726,1,audio/Narrative8Situation1.wav,506.73,,506.73,522.64,"[[999,0],[999,83],[999,167],[999,250],[999,334],[999,416],[999,500],[999,583],[999,667],[999,750],[999,833],[999,917],[999,1000],[999,1084],[999,1167],[999,1250],[999,1333],[999,1416],[999,1500],[8.7,1584],[5.8,1667],[4.6,1750],[2.7,1833],[2.3,1916],[0.9,2000],[0.9,2083],[0.9,2167],[0.9,2250],[0.9,2333],[0.9,2417],[0.9,2500],[0.9,2583],[0.9,2667],[0.9,2750],[0.9,2833],[0.9,2917],[0.9,3000],[0.9,3083],[0.9,3167],[0.9,3250],[0.9,3334],[0.9,3417],[0.9,3500],[0.9,3583],[0.9,3667],[0.9,3750],[0.9,3834],[0.9,3917],[0.9,4000],[0.9,4084],[0.9,4167],[0.9,4250],[0.9,4333],[0.9,4417],[0.9,4500],[0.9,4584],[0.9,4667],[0.9,4750],[0.9,4833],[0.9,4917],[0.9,5000],[0.9,5084],[0.9,5167],[0.9,5250],[0.9,5333],[0.9,5417],[0.9,5500],[0.9,5583],[0.9,5667],[0.9,5750],[0.9,5833],[0.9,5917],[0.9,6000],[0.9,6083],[0.9,6167],[0.9,6250],[0.9,6334],[0.9,6417],[0.9,6500],[0.9,6584],[0.9,6667],[0.9,6750],[0.9,6834],[0.9,6917],[0.9,7000],[0.9,7083],[0.9,7167],[0.9,7250],[0.9,7333],[0.9,7416],[0.9,7500],[0.9,7584],[0.9,7667],[0.9,7750],[0.9,7833],[0.9,7916],[0.9,8000],[0.9,8084],[0.9,8167],[0.9,8250],[0.9,8333],[0.9,8417],[0.9,8500],[0.9,8584],[0.9,8667],[0.9,8750],[0.9,8833],[0.9,8917],[0.9,9000],[0.9,9084],[0.9,9167],[0.9,9250],[0.9,9333],[0.9,9417],[0.9,9500],[0.9,9583],[0.9,9667],[0.9,9750],[6.8,9833],[32.9,9917],[74.8,10000],[90.9,10083],[96.3,10167],[100,10250],[100,10334],[100,10417],[100,10500],[100,10583],[100,10667],[100,10750],[100,10834],[100,10917],[100,11000],[100,11084],[100,11167],[100,11250],[100,11333],[100,11417],[100,11500],[100,11583],[100,11667],[100,11750],[100,11833],[100,11917],[100,12000],[100,12084],[100,12167],[100,12250],[100,12333],[100,12417],[100,12500],[100,12584],[100,12667],[100,12750],[100,12834],[100,12917],[100,13000],[100,13083],[100,13166],[100,13250],[100,13334],[100,13417],[100,13500],[100,13583],[100,13667],[100,13750],[100,13834],[100,13917],[100,14000],[100,14084],[100,14167],[100,14250],[100,14334],[100,14417],[100,14500],[100,14584],[100,14667],[100,14750],[100,14833],[100,14917],[100,15000],[100,15084],[100,15167],[100,15250],[100,15333],[100,15417],[100,15500],[100,15584],[100,15667],[100,15750],[100,15834]]",1,0,522.64,531.383,52.421875,8.433,"[{""rating"":54.37499999999999,""responseTime"":6.36099999999999},{""rating"":52.42187499999999,""responseTime"":8.432999999999993}]",space,8.235,,531.383,Definitely yes,100,531.386,,,[],,,,0,10,10,10,1,audio/Narrative8Situation1.wav,audio/Narrative7Situation1.wav,audio/Narrative6Situation1.wav,audio/Narrative5Situation1.wav,5,2,2,5,,,,,,,,,,,,,,,,,,,,,,,,,,,,,,,,,,,,,
,,,,,,5658000ca9872d0011e1ba26,2024-02-08_16h02.53.778,group3.1-3.2-social-tom,2023.2.2,Win32,143.6781609,65c5074098b851296ff0b7ed,65c54171564e63bceab0c766,,,,,,,,,,,,,,,,,,,,,,,,,,,,,531.386,1,audio/Narrative8Situation2.wav,534.39,,534.39,544.494,"[[7.9,500],[7.9,583],[6.3,666],[4.6,750],[2.6,832],[2,916],[1.8,1000],[1.5,1083],[1.5,1166],[1.5,1250],[1.5,1333],[1.5,1416],[1.5,1500],[1.5,1582],[1.5,1666],[1.5,1750],[1.5,1832],[1.5,1916],[1.5,2000],[1.5,2083],[1.5,2166],[1.5,2250],[1.5,2333],[1.5,2416],[1.5,2500],[1.5,2583],[1.5,2666],[1.5,2750],[1.5,2833],[1.5,2916],[1.5,3000],[1.5,3083],[1.5,3166],[1.5,3250],[1.5,3332],[1.5,3415],[1.5,3500],[1.6,3583],[1.6,3666],[1.6,3750],[1.6,3832],[1.6,3916],[1.6,4000],[1.6,4083],[1.6,4166],[1.6,4250],[1.6,4333],[1.6,4416],[1.6,4500],[1.6,4583],[1.6,4666],[1.6,4750],[1.6,4833],[1.6,4916],[1.6,5000],[1.6,5082],[1.6,5166],[1.6,5250],[1.6,5333],[1.6,5416],[1.6,5500],[1.6,5582],[1.6,5666],[1.6,5750],[1.6,5832],[1.6,5916],[1.6,6000],[1.6,6082],[1.6,6166],[1.6,6250],[1.6,6333],[1.6,6416],[1.6,6500],[1.6,6583],[1.6,6666],[1.6,6750],[1.6,6833],[1.6,6916],[1.6,7000],[1.6,7083],[1.6,7166],[1.6,7250],[1.6,7333],[1.6,7416],[1.6,7500],[1.6,7583],[1.6,7666],[1.6,7750],[1.6,7832],[1.6,7916],[1.6,8000],[1.6,8083],[1.6,8166],[1.6,8250],[1.6,8332],[1.6,8416],[1.6,8500],[1.6,8583],[1.6,8666],[1.6,8750],[1.6,8833],[1.6,8916],[1.6,9000],[1.6,9082],[1.6,9165],[1.6,9250],[1.6,9333],[1.6,9416],[1.6,9500],[1.6,9583],[1.6,9665],[1.6,9750],[1.6,9833],[1.6,9916],[1.6,10000],[1.6,10083]]",1,0,544.495,548.327,0.703125,3.012,"[{""rating"":0.7031249999999989,""responseTime"":3.0120000000000573}]",space,3.312,,548.328,Not at all,0,548.329,,,[],,,,0,11,11,11,1,audio/Narrative8Situation2.wav,audio/Narrative7Situation2.wav,audio/Narrative6Situation2.wav,audio/Narrative5Situation2.wav,3,3,3,3,,,,,,,,,,,,,,,,,,,,,,,,,,,,,,,,,,,,,
,,,,,,5658000ca9872d0011e1ba26,2024-02-08_16h02.53.778,group3.1-3.2-social-tom,2023.2.2,Win32,143.6781609,65c5074098b851296ff0b7ed,65c54171564e63bceab0c766,,,,,,,,,,,,,,,,,,,,,,,,,,,,,548.33,1,audio/Narrative8Situation3.wav,552.335,,552.335,574.703,"[[999,0],[999,82],[999,167],[999,249],[999,332],[999,416],[999,500],[999,582],[999,667],[999,750],[2.3,832],[0.7,917],[0.1,1000],[0.5,11340],[5.9,11423],[7.1,11507],[7.1,11590],[7.1,11673],[7.1,11757],[7.1,11841],[7.1,11923],[7.1,12007],[7.1,12090],[7.1,12173],[7.1,12257],[7.1,12340],[7.1,12423],[7.1,12507],[8.7,12590],[10.2,12673],[10.1,12757],[9.9,12840],[9.9,12923],[9.9,13007],[9.9,13090],[9,13173],[7,13257],[6.9,13340],[6.9,13423],[6.9,13507],[4.1,13590],[2.2,13673],[1.6,13757],[1.6,13841],[1.6,13923],[2.5,14007],[3.9,14090],[4.1,14173],[4.1,14257],[4.1,14340],[4.1,14423],[3.8,14505],[3.2,14590],[3,14680],[3,14763],[3,14846],[4.9,14931],[5.8,15014],[5.8,15096],[5.8,15180],[5.8,15264],[5,15346],[3.9,15430],[3.7,15514],[3.5,15596],[3.4,15681],[3.4,15764],[3.4,15846],[3.4,15931],[3.3,16014],[3.3,16096],[3.3,16181],[3.3,16264],[3,16346],[2.9,16430],[2.6,16513],[2.5,16596],[2.3,16680],[2.3,16764],[2.3,16846],[2.3,16930],[2.3,17014],[2.3,17096],[2.3,17180],[2.3,17264],[2.5,17347],[2.5,17431],[2.5,17514],[2.5,17596],[2.5,17680],[2.5,17763],[2.5,17847],[2.5,17931],[2.5,18014],[2.6,18096],[2.6,18180],[2.6,18264],[2.6,18346],[2.6,18430],[2.6,18513],[2.6,18596],[2.6,18680],[2.6,18764],[2.6,18846],[2.6,18930],[2.6,19014],[2.6,19096],[2.6,19181],[2.6,19264],[2.6,19346],[2.6,19431],[2.6,19513],[2.6,19597],[2.6,19681],[2.6,19764],[2.6,19846],[2.6,19930],[2.6,20013],[2.6,20097],[2.6,20180],[2.6,20264],[2.6,20346],[2.6,20431],[2.6,20514],[2.6,20596],[2.6,20680],[2.6,20764],[2.6,20846],[2.6,20930],[2.6,21014],[2.6,21096],[2.6,21180],[2.6,21264],[2.6,21346],[2.5,21431],[2.4,21514],[2.1,21596],[2,21680],[2,21763],[2,21846],[2,21931],[2,22014],[2,22096],[2,22180],[2,22263],[2,22346]]",1,0,574.703,583.779,10.3125,5.304,"[{""rating"":10.312500000000002,""responseTime"":5.303999999999974}]",space,8.566,,583.779,Definitely yes,100,583.783,,,[],,,,0,12,12,12,1,audio/Narrative8Situation3.wav,audio/Narrative7Situation3.wav,audio/Narrative6Situation3.wav,audio/Narrative5Situation3.wav,4,8,5,3,,,,,,,,,,,,,,,,,,,,,,,,,,,,,,,,,,,,,
,,,,,,5658000ca9872d0011e1ba26,2024-02-08_16h02.53.778,group3.1-3.2-social-tom,2023.2.2,Win32,143.6781609,65c5074098b851296ff0b7ed,65c54171564e63bceab0c766,,,,,,,,,,,,,,,,,,,,,,,,,,,,,583.783,1,audio/Narrative8Situation4.wav,586.787,,586.787,600.947,"[[4.4,1332],[1.9,1416],[0.5,1499],[0.5,1581],[0.5,1667],[0.5,1749],[0.5,1832],[0.5,1916],[0.5,1999],[0.5,2082],[0.5,2166],[0.5,2249],[0.5,2332],[0.5,2416],[0.5,2499],[0.5,2582],[0.5,2666],[0.5,2749],[0.5,2832],[0.5,2916],[0.5,3000],[0.5,3082],[0.5,3166],[0.5,3249],[0.5,3332],[0.5,3416],[0.5,3500],[0.5,3582],[0.5,3666],[0.5,3749],[0.5,3832],[0.5,3916],[0.5,3999],[0.5,4082],[0.5,4166],[0.5,4249],[0.5,4332],[0.5,4416],[0.5,4500],[0.5,4582],[0.5,4666],[0.5,4749],[0.5,4832],[0.5,4916],[0.5,4999],[0.5,5082],[0.5,5166],[0.5,5250],[0.5,5332],[0.5,5416],[0.5,5500],[0.5,5582],[0.5,5666],[0.5,5750],[0.5,5832],[0.5,5916],[0.5,5999],[0.5,6081],[0.5,6166],[0.5,6250],[0.5,6332],[0.5,6416],[0.5,6499],[4.1,6582],[27.2,6666],[41.9,6750],[57.9,6832],[76.6,6916],[80.6,7000],[84.4,7082],[94.7,7166],[100,7250],[100,7332],[100,7416],[100,7500],[100,7582],[100,7666],[100,7750],[100,7832],[100,7917],[100,8000],[100,8082],[100,8166],[100,8249],[100,8331],[100,8417],[100,8500],[100,8582],[100,8666],[100,8749],[100,8832],[100,8916],[100,8999],[100,9082],[100,9166],[100,9250],[100,9332],[100,9416],[100,9500],[100,9582],[100,9666],[100,9750],[100,9832],[100,9916],[100,9999],[100,10081],[100,10166],[100,10250],[100,10332],[100,10416],[100,10499],[100,10581],[100,10666],[100,10749],[100,10832],[100,10916],[100,10999],[100,11082],[100,11166],[100,11250],[100,11332],[100,11416],[100,11500],[100,11582],[100,11666],[100,11749],[100,11832],[100,11917],[100,12000],[100,12082],[100,12166],[100,12250],[100,12332],[100,12416],[100,12500],[100,12582],[100,12666],[100,12749],[100,12831],[100,12917],[100,13000],[100,13082],[100,13166],[100,13249],[100,13331],[100,13417],[100,13500],[100,13582],[100,13666],[100,13750],[100,13832],[100,13917],[100,14000],[100,14082]]",1,0,600.947,603.564,99.765625,1.75,"[{""rating"":99.765625,""responseTime"":1.75}]",space,2.098,,603.564,Not at all,0,603.568,,,[],,,,0,13,13,13,1,audio/Narrative8Situation4.wav,audio/Narrative7Situation4.wav,audio/Narrative6Situation4.wav,audio/Narrative5Situation4.wav,3,3,2,1,,,,,,,,,,,,,,,,,,,,,,,,,,,,,,,,,,,,,
,,,,,,5658000ca9872d0011e1ba26,2024-02-08_16h02.53.778,group3.1-3.2-social-tom,2023.2.2,Win32,143.6781609,65c5074098b851296ff0b7ed,65c54171564e63bceab0c766,,,,,,,,,,,,,,,,,,,,,,,,,,,,,603.568,1,audio/Narrative8Situation5.wav,605.571,,605.571,613.801,"[[97.7,84],[97.7,166],[97.7,250],[97.7,334],[97.7,417],[97.7,500],[94.8,584],[94.3,668],[79.8,750],[52.3,832],[33.7,917],[24,1000],[21.6,1084],[19.3,1167],[12.7,1250],[10.2,1332],[10.2,1417],[9.5,1500],[9,1585],[7.4,1667],[5.5,1750],[3.5,1832],[2.7,1917],[2.3,2000],[2.3,2084],[2,2167],[1.6,2250],[1.6,2332],[3.5,2417],[47,2500],[100,2584],[100,2667],[100,2750],[100,2832],[100,2917],[100,3000],[100,3084],[100,3167],[95.8,3250],[95.8,3332],[95.9,3417],[99.5,3500],[100,3582],[100,3667],[100,3750],[100,3834],[100,3917],[100,4000],[100,4082],[100,4167],[100,4250],[100,4334],[100,4417],[100,4500],[100,4584],[100,4667],[100,4750],[100,4834],[100,4917],[100,5000],[100,5084],[100,5167],[100,5250],[100,5332],[100,5417],[100,5500],[100,5584],[100,5667],[100,5750],[100,5834],[100,5917],[100,6000],[100,6084],[100,6167],[100,6250],[100,6334],[100,6417],[100,6500],[100,6582],[100,6667],[100,6750],[100,6834],[100,6917],[100,7000],[100,7082],[100,7167],[100,7250],[100,7334],[100,7417],[100,7500],[100,7584],[100,7667],[100,7750],[100,7834],[100,7917],[100,8000],[100,8084],[100,8167]]",1,0,613.801,615.772,99.609375,1.246,"[{""rating"":99.609375,""responseTime"":1.245999999999981}]",space,1.458,,615.773,Partially,50,615.774,,,[],,,,0,14,14,14,1,audio/Narrative8Situation5.wav,audio/Narrative7Situation5.wav,audio/Narrative6Situation5.wav,audio/Narrative5Situation5.wav,2,5,2,5,,,,,,,,,,,,,,,,,,,,,,,,,,,,,,,,,,,,,
,,,,,,5658000ca9872d0011e1ba26,2024-02-08_16h02.53.778,group3.1-3.2-social-tom,2023.2.2,Win32,143.6781609,65c5074098b851296ff0b7ed,65c54171564e63bceab0c766,,,,,,,,,,,,,,,,,,,,,,,,,,,,,615.774,1,audio/Narrative8Situation6.wav,617.78,,617.78,624.239,"[[96.2,332],[89.3,415],[76.2,498],[69.1,582],[63.7,666],[54.9,750],[40.8,832],[31.5,915],[15.5,1000],[2.1,1082],[0.8,1415],[0.9,1500],[3.3,1582],[17.5,1665],[18.5,1750],[35.2,1832],[73.7,1916],[100,2000],[100,2082],[100,2166],[100,2250],[100,2332],[100,2415],[100,2498],[100,2582],[100,2666],[100,2750],[100,2832],[100,2915],[100,2998],[100,3082],[100,3166],[100,3250],[100,3332],[100,3416],[100,3498],[100,3582],[100,3666],[100,3750],[100,3832],[100,3915],[100,3998],[100,4083],[100,4166],[100,4248],[100,4332],[100,4416],[100,4500],[100,4582],[100,4665],[100,4748],[100,4832],[100,4916],[100,5000],[100,5082],[100,5165],[100,5250],[100,5332],[100,5416],[100,5500],[100,5582],[100,5666],[100,5748],[100,5832],[100,5916],[100,6000],[100,6082],[100,6166],[100,6250],[100,6332],[100,6415]]",1,0,624.239,626.537,99.53125,1.032,"[{""rating"":99.53125,""responseTime"":1.032000000000039}]",space,1.781,,626.537,Not at all,0,626.539,,,[],,,,0,15,15,15,1,audio/Narrative8Situation6.wav,audio/Narrative7Situation6.wav,audio/Narrative6Situation6.wav,audio/Narrative5Situation6.wav,2,3,2,3,,,,,,,,,,,,,,,,,,,,,,,,,,,,,,,,,,,,,
,,,,,,5658000ca9872d0011e1ba26,2024-02-08_16h02.53.778,group3.1-3.2-social-tom,2023.2.2,Win32,143.6781609,65c5074098b851296ff0b7ed,65c54171564e63bceab0c766,,,,,,,,,,,,,,,,,,,,,,,,,,,,,626.539,1,audio/Narrative8Situation7.wav,629.544,,629.544,641.614,"[[94.1,915],[65.6,1000],[51.7,1082],[42,1166],[28.3,1250],[18.6,1332],[11.1,1415],[10.9,1500],[10.9,1582],[10.9,1665],[10.9,1750],[8.3,1832],[1.6,1916]]",1,0,641.614,651.69,1.484375,6.123,"[{""rating"":1.484374999999999,""responseTime"":6.123000000000047}]",space,9.555,,651.69,Not at all,0,651.693,,,[],,,,0,16,16,16,1,audio/Narrative8Situation7.wav,audio/Narrative7Situation7.wav,audio/Narrative6Situation7.wav,audio/Narrative5Situation7.wav,3,5,5,4,,,,,,,,,,,,,,,,,,,,,,,,,,,,,,,,,,,,,
,,,,,,5658000ca9872d0011e1ba26,2024-02-08_16h02.53.778,group3.1-3.2-social-tom,2023.2.2,Win32,143.6781609,65c5074098b851296ff0b7ed,65c54171564e63bceab0c766,,,,,,,,,,,,,,,,,,,,,,,,,,,,,651.693,1,audio/Narrative8Situation8.wav,654.697,,654.697,667.538,"[[999,0],[999,83],[999,166],[999,250],[999,333],[999,417],[999,500],[999,583],[999,666],[10.3,750],[9.4,833],[2.1,917],[0.7,1250],[2.3,1333],[2.4,1417],[2.4,1500],[1.6,1583],[0.9,1666],[0.9,1750],[0.9,1833],[0.9,1916],[0.9,1999],[0.9,2084],[0.9,2167],[0.9,2250],[0.9,2333],[0.9,2416],[0.9,2499],[0.9,2583],[0.9,2667],[0.9,2750],[0.9,2833],[0.9,2916],[0.9,2999],[0.9,3083],[0.9,3167],[0.9,3250],[0.9,3333],[0.9,3416],[0.9,3500],[0.9,3584],[0.9,3667],[0.9,3750],[0.9,3833],[0.9,3917],[0.9,3999],[0.9,4083],[0.9,4166],[0.9,4249],[0.9,4334],[0.9,4416],[0.9,4500],[0.9,4583],[0.9,4666],[0.9,4749],[0.9,4833],[0.9,4916],[0.9,5000],[0.9,5083],[0.9,5166],[0.9,5250],[0.9,5334],[0.9,5417],[0.9,5500],[0.9,5583],[0.9,5666],[0.9,5749],[0.9,5834],[0.9,5917],[0.9,5999],[0.9,6084],[0.9,6166],[0.9,6250],[0.9,6333],[0.9,6416],[0.9,6499],[0.9,6584],[0.9,6666],[0.9,6750],[0.9,6833],[0.9,6916],[0.9,7000],[0.9,7083],[0.9,7166],[0.9,7250],[0.9,7333],[0.9,7416],[0.9,7500],[0.9,7583],[0.9,7666],[0.9,7750],[0.9,7833],[0.9,7917],[0.9,7999],[0.9,8084],[0.9,8166],[0.9,8249],[0.9,8333],[0.9,8416],[0.9,8499],[0.9,8583],[0.9,8666],[0.9,8750],[0.9,8833],[0.9,8917],[0.9,9000],[0.9,9083],[0.9,9166],[0.9,9250],[0.9,9333],[0.9,9417],[0.9,9500],[0.9,9583],[0.9,9666],[0.9,9750],[0.9,9833],[0.9,9917],[0.9,10000],[0.9,10083],[0.9,10166],[0.9,10250],[0.9,10333],[0.9,10416],[0.9,10500],[0.9,10583],[0.9,10666],[0.9,10749],[0.9,10833],[0.9,10916],[0.9,10999],[0.9,11083],[0.9,11166],[0.9,11250],[0.9,11333],[0.9,11416],[0.9,11500],[0.9,11583],[0.9,11666],[0.9,11750],[0.9,11833],[0.9,11916],[0.9,12000],[0.9,12083],[0.9,12167],[0.9,12250],[0.9,12333],[0.9,12416],[0.9,12499],[0.9,12584],[0.9,12667],[0.9,12750],[0.9,12834]]",1,0,667.538,673.295,1.796875,5.087,"[{""rating"":0.9375000000000022,""responseTime"":2.210999999999899},{""rating"":1.7968749999999978,""responseTime"":5.086999999999989}]",space,5.237,,673.295,Partially,50,673.298,,,[],,,,0,17,17,17,1,audio/Narrative8Situation8.wav,audio/Narrative7Situation8.wav,audio/Narrative6Situation8.wav,audio/Narrative5Situation8.wav,3,2,5,3,,,,,,,,,,,,,,,,,,,,,,,,,,,,,,,,,,,,,
,,,,,,5658000ca9872d0011e1ba26,2024-02-08_16h02.53.778,group3.1-3.2-social-tom,2023.2.2,Win32,143.6781609,65c5074098b851296ff0b7ed,65c54171564e63bceab0c766,,,,,,,,,,,,,,,,,,,,,,,,,,,,,673.298,1,audio/Narrative8Situation9.wav,676.302,,676.302,687.607,"[[0.9,11166],[2.7,11249]]",1,0,687.607,696.281,0.546875,1.321,"[{""rating"":0.5468750000000022,""responseTime"":1.3209999999999127}]",space,8.16,,696.281,Not at all,0,696.283,,,[],,,,0,18,18,18,1,audio/Narrative8Situation9.wav,audio/Narrative7Situation9.wav,audio/Narrative6Situation9.wav,audio/Narrative5Situation9.wav,3,2,4,3,,,,,,,,,,,,,,,,,,,,,,,,,,,,,,,,,,,,,
,,,,,,5658000ca9872d0011e1ba26,2024-02-08_16h02.53.778,group3.1-3.2-social-tom,2023.2.2,Win32,143.6781609,65c5074098b851296ff0b7ed,65c54171564e63bceab0c766,,,,,,,,,,,,,,,,,,,,,,,,,,,699.761,702.336,702.342,2,audio/Narrative13Situation2.wav,702.342,,702.342,732.08,"[[1.2,1326],[1.2,1410],[1.3,1493],[0.7,2243],[1.5,2326],[1.6,2410],[1.6,2493],[1.6,2576],[1,2660],[0.5,2743],[0.5,2826],[0.5,2910],[0.5,2993],[0.5,3076],[0.5,3160],[0.5,3243],[0.5,3327],[0.5,3410],[0.5,3493],[0.5,3577],[0.5,3660],[0.5,3743],[0.5,3826],[0.5,3910],[0.5,3993],[0.5,4076],[0.5,4159],[0.5,4243],[0.5,4326],[0.5,4409],[0.5,4493],[0.5,4577],[0.5,4660],[0.5,4743],[0.5,4826],[0.5,4910],[0.5,4993],[0.5,5076],[0.5,5160],[0.5,5243],[0.5,5327],[0.5,5409],[0.5,5495],[0.5,5577],[0.5,5660],[0.5,5743],[0.5,5826],[0.5,5910],[0.5,5993],[0.5,6077],[0.5,6160],[0.5,6243],[0.5,6326],[0.5,6410],[0.5,6493],[0.5,6576],[0.5,6659],[0.5,6743],[0.5,6826],[0.5,6910],[0.5,6993],[0.5,7076],[0.5,7160],[0.5,7245],[0.5,7327],[0.5,7410],[0.5,7493],[0.5,7576],[0.5,7659],[0.5,7745],[0.5,7827],[0.5,7910],[0.5,7993],[0.5,8076],[0.5,8160],[0.5,8243],[0.5,8326],[0.5,8410],[0.5,8493],[0.5,8576],[0.5,8660],[0.5,8743],[0.5,8826],[0.5,8910],[0.5,8993],[0.5,9076],[0.5,9160],[0.5,9243],[0.5,9326],[0.5,9409],[0.5,9493],[0.5,9577],[0.5,9660],[0.5,9743],[0.5,9826],[0.5,9910],[0.5,9993],[1.3,10076],[38.7,10160],[89.7,10243],[100,10743],[100,10827],[100,10910],[100,10993],[100,11076],[100,11160],[100,11243],[100,11326],[100,11410],[100,11493],[100,11576],[100,11660],[100,11743],[100,11826],[100,11910],[100,11995],[100,12077],[100,12160],[100,12243],[100,12326],[100,12410],[100,12495],[100,12577],[100,12660],[100,12743],[100,12826],[100,12909],[100,12995],[100,13077],[100,13159],[100,13245],[100,13327],[100,13410],[100,13495],[100,13576],[100,13659],[100,13745],[100,13826],[100,13909],[100,13993],[100,14076],[100,14159],[100,14245],[100,14327],[100,14410],[100,14493],[100,14576],[100,14660],[100,14743],[100,14826],[100,14910],[100,14993],[100,15077],[100,15159],[100,15243],[100,15327],[100,15410],[100,15493],[100,15576],[100,15660],[100,15745],[100,15827],[100,15910],[100,15993],[100,16077],[100,16160],[99.8,16243],[99,16326],[97.6,16410],[96.3,16493],[93.2,16577],[91.2,16660],[87.4,16743],[82,16827],[77.9,16910],[72.3,16995],[58.6,17077],[43.9,17160],[40.1,17245],[38.7,17327],[33.5,17410],[30.1,17495],[29.7,17577],[26.6,17660],[21.2,17743],[19.8,17827],[18.1,17910],[15,17993],[13.4,18077],[12.5,18160],[7.9,18243],[4.8,18327],[2.3,18410],[1.1,18493],[0.8,18577],[0.7,18660],[0.7,18745],[0.7,18827],[0.7,18909],[0.7,18995],[0.7,19077],[0.7,19160],[0.7,19243],[0.7,19327],[0.7,19410],[0.7,19495],[0.7,19577],[0.7,19660],[0.7,19743],[0.7,19827],[0.7,19910],[0.7,19993],[0.7,20077],[0.7,20160],[0.7,20243],[0.7,20327],[0.7,20410],[0.7,20495],[0.7,20577],[0.7,20660],[0.7,20743],[0.7,20827],[0.7,20910],[0.7,20993],[0.7,21077],[0.7,21159],[0.7,21243],[0.7,21327],[0.7,21410],[0.7,21493],[0.7,21577],[0.7,21660],[0.7,21743],[0.7,21827],[0.7,21910],[0.7,21993],[0.7,22077],[0.7,22160],[0.7,22243],[0.7,22327],[0.7,22410],[0.7,22493],[0.7,22577],[0.7,22660],[0.7,22743],[0.7,22827],[0.7,22910],[0.7,22995],[0.7,23077],[0.7,23160],[0.7,23243],[0.7,23327],[0.7,23409],[0.7,23495],[0.7,23577],[0.7,23660],[0.7,23743],[0.7,23827],[0.7,23910],[0.7,23993],[0.7,24077],[0.7,24160],[0.7,24243],[0.7,24327],[0.7,24410],[0.7,24495],[0.7,24577],[0.7,24661],[0.7,24745],[0.7,24827],[0.7,24910],[0.7,24993],[0.7,25077],[0.7,25160],[0.7,25245],[0.7,25327],[0.7,25410],[0.7,25493],[0.7,25577],[0.7,25660],[0.7,25743],[0.7,25827],[0.7,25910],[0.7,25993],[0.7,26077],[0.7,26160],[0.7,26243],[0.7,26327],[0.7,26410],[0.7,26493],[0.7,26577],[0.7,26660],[0.7,26745],[0.7,26827],[0.7,26910],[0.7,26993],[0.7,27077],[0.7,27160],[0.7,27245],[0.7,27327],[0.7,27410],[0.7,27493],[0.7,27577],[0.7,27660],[0.7,27743],[0.7,27827],[0.7,27910],[0.7,27995],[0.7,28077],[0.7,28160],[0.7,28243],[0.7,28327],[0.7,28410],[0.7,28495],[0.7,28577],[0.7,28660],[0.7,28745],[0.7,28827],[0.7,28910],[0.7,28995],[0.7,29077],[0.7,29160],[0.7,29243],[0.7,29327],[0.7,29410],[0.7,29495],[0.7,29577],[0.7,29660]]",1,0,732.08,732.084,,,[],,,,732.084,Not at all,0,732.086,,,[],,,,0,0,0,0,1,audio/Narrative13Situation2.wav,audio/Narrative13Situation2.wav,audio/Narrative13Situation2.wav,audio/Narrative13Situation2.wav,2,2,2,2,,,696.283,699.76,space,2.965,,,,,,,,,,,,,,,,,,,,,,,,,,,,,,,
,,,,,,5658000ca9872d0011e1ba26,2024-02-08_16h02.53.778,group3.1-3.2-social-tom,2023.2.2,Win32,143.6781609,65c5074098b851296ff0b7ed,65c54171564e63bceab0c766,,,,,,,,,,,,,,,,,,,,,,,,,,,,,732.086,2,audio/Narrative5Situation1.wav,737.087,,737.087,750.357,"[[999,0],[999,82],[999,165],[999,250],[999,332],[999,415],[999,498],[999,581],[999,665],[999,750],[999,832],[999,915],[999,998],[4.8,1081],[1.8,1165],[0.4,1250],[0.1,1332],[0.1,1415],[0.1,1498],[0.1,1582],[0.1,1665],[0.1,1750],[0.1,1832],[0.1,1915],[0.1,2001],[0.1,2082],[0.1,2165],[0.1,2248],[0.1,2332],[0.1,2415],[0.1,2498],[0.1,2582],[0.1,2665],[0.1,2748],[0.1,2831],[0.1,2915],[0.1,3000],[0.1,3082],[0.1,3165],[0.1,3248],[0.1,3332],[0.1,3415],[0.1,3498],[0.1,3582],[0.1,3665],[0.1,3750],[0.1,3832],[0.1,3915],[0.1,4000],[0.1,4082],[0.1,4165],[0.1,4250],[0.1,4332],[0.1,4415],[0.1,4498],[0.1,4582],[0.1,4666],[0.1,4750],[0.1,4832],[0.1,4915],[0.1,5000],[0.1,5081],[0.1,5166],[0.1,5250],[0.1,5331],[0.1,5415],[0.1,5498],[0.1,5582],[0.1,5665],[0.1,5750],[0.1,5832],[0.1,5915],[0.1,6000],[0.1,6082],[0.1,6165],[0.1,6250],[0.1,6332],[0.1,6416],[0.1,6500],[0.1,6582],[0.1,6665],[0.1,6750],[0.1,6832],[0.1,6916],[0.1,7000],[0.1,7082],[0.1,7165],[0.1,7248],[0.1,7332],[0.1,7415],[0.1,7498],[0.1,7582],[0.1,7665],[0.1,7748],[0.1,7832],[0.1,7915],[0.1,8000],[0.1,8082],[0.1,8165],[0.1,8250],[0.1,8332],[0.1,8415],[0.1,8498],[0.1,8581],[0.1,8665],[0.1,8750],[0.1,8832],[0.1,8915],[0.1,8998],[0.1,9082],[0.1,9165],[0.1,9248],[0.1,9332],[0.1,9415],[0.1,9500],[0.1,9582],[0.1,9665],[0.1,9748],[0.1,9832],[0.1,9915],[0.1,10000],[0.1,10082],[0.1,10165],[0.1,10248],[0.1,10331],[0.1,10415],[0.1,10498],[0.1,10582],[0.1,10665],[0.1,10748],[0.1,10832],[0.1,10915],[0.1,10998],[0.1,11082],[0.1,11165],[0.1,11250],[0.1,11332],[0.1,11415],[0.1,11498],[0.1,11582],[0.1,11665],[0.1,11750],[0.1,11832],[0.1,11915],[0.1,11998],[0.1,12082],[0.1,12165],[0.1,12248],[0.1,12332],[0.1,12415],[0.1,12498],[0.1,12581],[0.1,12665],[0.1,12750],[0.1,12832],[0.1,12915],[0.1,12998],[0.1,13082],[0.1,13165],[0.1,13248]]",1,0,750.357,752.906,0.15625,1.295,"[{""rating"":0.15625000000000222,""responseTime"":1.294999999999959}]",space,2.04,,752.906,Definitely yes,100,752.909,,,[],,,,0,1,1,1,1,audio/Narrative7Situation1.wav,audio/Narrative8Situation1.wav,audio/Narrative5Situation1.wav,audio/Narrative6Situation1.wav,2,5,5,2,,,,,,,,,,,,,,,,,,,,,,,,,,,,,,,,,,,,,
,,,,,,5658000ca9872d0011e1ba26,2024-02-08_16h02.53.778,group3.1-3.2-social-tom,2023.2.2,Win32,143.6781609,65c5074098b851296ff0b7ed,65c54171564e63bceab0c766,,,,,,,,,,,,,,,,,,,,,,,,,,,,,752.909,2,audio/Narrative5Situation2.wav,755.913,,755.913,785.364,"[[1.3,167],[1.3,250],[1.3,333],[1.3,416],[1.3,499],[1.3,584],[1.3,666],[1.3,750],[1.3,833],[1.3,916],[1.3,1000],[1.3,1083],[1.3,1167],[1.3,1250],[1.3,1333],[1.3,1417],[1.3,1500],[1.3,1583],[1.3,1666],[1.3,1750],[1.3,1834],[1.3,1917],[1.3,2000],[1.3,2083],[1.3,2167],[1.3,2250],[1.3,2333],[1.3,2417],[1.3,2500],[1.3,2583],[1.3,2666],[1.3,2750],[1.3,2834],[1.3,2917],[1.3,3000],[1.3,3083],[1.3,3167],[1.3,3250],[1.3,3333],[1.3,3416],[1.3,3500],[1.3,3583],[1.3,3666],[1.3,3750],[1.3,3833],[1.3,3916],[1.3,4000],[1.3,4083],[1.3,4167],[1.3,4250],[1.3,4333],[1.3,4416],[1.3,4500],[1.3,4584],[1.3,4667],[1.3,4750],[1.3,4833],[1.3,4916],[1.3,5000],[1.3,5084],[1.3,5167],[1.3,5250],[1.3,5333],[1.3,5416],[1.3,5500],[1.3,5583],[1.3,5666],[1.3,5750],[1.3,5833],[1.3,5917],[1.3,6000],[1.3,6083],[1.3,6167],[1.3,6250],[1.3,6334],[1.3,6417],[1.3,6500],[1.3,6584],[1.3,6667],[1.3,6750],[1.3,6833],[1.3,6916],[1.3,7000],[1.3,7083],[1.3,7166],[1.3,7250],[1.3,7333],[1.3,7416],[1.3,7500],[1.3,7584],[1.3,7667],[1.3,7750],[1.3,7833],[1.3,7917],[1.3,8000],[1.3,8084],[1.3,8167],[1.3,8250],[1.3,8334],[1.3,8416],[1.3,8500],[1.3,8583],[1.3,8666],[1.3,8750],[1.3,8834],[1.3,8917],[1.3,9000],[1.3,9083],[1.3,9166],[1.3,9250],[1.3,9334],[1.3,9417],[1.3,9500],[1.3,9583],[1.3,9667],[1.3,9750],[1.3,9834],[1.3,9917],[1.3,10000],[1.3,10084],[1.3,10167],[1.3,10250],[1.3,10334],[1.3,10416],[1.3,10500],[1.3,10584],[1.3,10666],[1.3,10751],[1.3,10834],[1.3,10916],[1.3,11000],[1.3,11083],[1.3,11167],[1.3,11250],[1.3,11333],[1.3,11416],[1.3,11500],[1.3,11583],[1.3,11666],[1.3,11750],[1.3,11833],[1.3,11916],[1.3,12000],[1.3,12084],[1.3,12167],[1.3,12250],[1.3,12334],[1.3,12416],[1.3,12501],[1.3,12584],[1.3,12667],[1.3,12750],[1.3,12834],[1.3,12916],[1.3,13000],[1.3,13083],[1.3,13166],[1.3,13250],[1.3,13333],[1.3,13417],[1.3,13500],[1.3,13583],[1.3,13666],[1.3,13750],[1.3,13834],[1.3,13917],[1.3,14000],[1.3,14083],[1.3,14166],[1.3,14250],[1.3,14334],[1.3,14417],[1.3,14500],[1.3,14583],[1.3,14666],[1.3,14750],[1.3,14834],[1.3,14917],[1.3,15000],[1.3,15084],[1.3,15167],[1.3,15250],[1.3,15334],[1.3,15417],[1.3,15500],[1.3,15584],[1.3,15667],[1.3,15750],[1.3,15834],[1.3,15917],[1.3,16000],[1.3,16083],[1.3,16166],[1.3,16251],[1.3,16334],[1.3,16417],[1.3,16501],[1.3,16583],[1.3,16666],[1.3,16750],[1.3,16834],[1.3,16917],[1.3,17000],[1.3,17084],[1.3,17167],[1.3,17250],[1.3,17334],[1.3,17417],[1.3,17500],[1.3,17584],[1.3,17667],[1.3,17751],[1.3,17833],[1.3,17917],[1.3,18000],[1.3,18084],[1.3,18167],[1.3,18250],[1.3,18333],[1.3,18416],[1.3,18500],[1.3,18584],[1.3,18667],[1.3,18750],[1.3,18833],[1.3,18917],[1.3,19000],[1.3,19084],[1.3,19167],[1.3,19250],[1.3,19333],[1.3,19417],[1.3,19500],[1.3,19584],[1.3,19667],[1.3,19750],[1.3,19834],[1.3,19917],[1.3,20000],[1.3,20084],[1.3,20167],[1.3,20250],[1.3,20334],[1.3,20417],[1.3,20500],[1.3,20584],[1.3,20666],[1.3,20750],[1.3,20834],[1.3,20917],[1.3,21000],[1.3,21083],[1.3,21167],[1.3,21250],[1.3,21334],[1.3,21417],[1.3,21500],[1.3,21583],[1.3,21667],[1.3,21750],[1.3,21833],[1.3,21917],[1.3,22000],[1.3,22084],[1.3,22166],[1.3,22250],[1.3,22333],[1.3,22417],[1.3,22501],[1.3,22584],[1.3,22667],[1.3,22750],[1.3,22833],[1.3,22917],[1.3,23000],[1.3,23084],[1.3,23167],[1.3,23250],[1.3,23334],[1.3,23417],[1.3,23500],[1.3,23584],[1.3,23667],[1.3,23750],[1.3,23833],[1.3,23917],[1.3,24000],[1.3,24083],[1.3,24166],[1.3,24250],[1.3,24333],[1.3,24417],[1.3,24500],[1.3,24584],[1.3,24667],[1.3,24750],[1.4,24833],[2,24917],[8.4,25000],[9.2,25084],[12.2,25167],[13.4,25250],[13.8,25334],[14.8,25417],[15,25500],[15.1,25583],[15.2,25667],[15.2,25750],[15.7,25833],[16.3,25917],[16.4,26000],[16.4,26084],[16.4,26167],[15.1,26250],[11,26333],[9.5,26417],[9.1,26500],[9.1,26583],[9.1,26667],[9.1,26750],[10.9,26834],[12,26917],[12,27000],[12,27084],[12,27167],[11.6,27250],[10.6,27334],[9.5,27417],[8.9,27500],[8.7,27584],[8.4,27667],[8,27751],[7.6,27834],[6.6,27917],[5.5,28000],[5.1,28084],[5.1,28166],[5.1,28251],[5.1,28334],[5.1,28417],[5.1,28500],[5.1,28588],[5.1,28667],[5.6,28750],[5.9,28833],[5.9,28917],[5.9,29000],[5.9,29083],[5.9,29167],[5.9,29250],[5.9,29334],[5.2,29417]]",1,0,785.365,788.857,1.328125,2.123,"[{""rating"":1.3281250000000022,""responseTime"":2.1229999999999336}]",space,2.975,,788.858,Partially,50,788.861,,,[],,,,0,2,2,2,1,audio/Narrative7Situation2.wav,audio/Narrative8Situation2.wav,audio/Narrative5Situation2.wav,audio/Narrative6Situation2.wav,3,3,3,3,,,,,,,,,,,,,,,,,,,,,,,,,,,,,,,,,,,,,
,,,,,,5658000ca9872d0011e1ba26,2024-02-08_16h02.53.778,group3.1-3.2-social-tom,2023.2.2,Win32,143.6781609,65c5074098b851296ff0b7ed,65c54171564e63bceab0c766,,,,,,,,,,,,,,,,,,,,,,,,,,,,,788.862,2,audio/Narrative5Situation3.wav,791.864,,791.864,805.761,"[[1,668],[1,750],[0.9,834],[0.4,917],[0.4,1000],[0.4,1084],[0.5,1168],[0.7,1250],[0.7,1334],[0.7,1418],[0.7,1500],[0.7,1584],[0.7,1668],[0.7,1750],[0.7,1834],[0.7,1918],[0.7,2000],[0.7,2084],[0.7,2167],[0.7,2250],[0.7,2334],[0.7,2418],[0.7,2500],[0.7,2584],[0.7,2667],[0.7,2750],[0.7,2834],[0.7,2918],[0.7,3000],[0.7,3084],[0.7,3168],[0.7,3250],[0.7,3334],[0.7,3417],[0.7,3500],[0.7,3584],[0.7,3668],[0.7,3750],[0.7,3834],[0.7,3917],[0.7,4000],[0.7,4084],[0.7,4167],[0.8,4250],[0.8,4334],[0.8,4417],[0.8,4500],[0.8,4584],[0.8,4667],[0.9,4750],[2.6,4834],[6,4917],[6,5000],[7.1,5084],[8.5,5168],[11.6,5250],[16.6,5334],[17.3,5417],[21.2,5500],[26.2,5585],[36.7,5668],[59.6,5750],[91.7,5834],[100,5918],[100,6000],[100,6084],[100,6167],[100,6250],[100,6334],[100,6417],[100,6500],[100,6584],[100,6667],[100,6750],[100,6835],[100,6918],[100,7000],[100,7084],[100,7167],[100,7250],[100,7335],[100,7418],[100,7500],[100,7584],[100,7667],[100,7750],[100,7834],[100,7917],[100,8000],[100,8084],[100,8167],[100,8250],[100,8334],[100,8417],[100,8500],[100,8584],[100,8667],[100,8750],[100,8834],[98.5,8917],[96.5,9000],[96.2,9084],[96.2,9167],[98.5,9250],[99.1,9334],[99.5,9417],[99.5,9500],[99.5,9584],[99.5,9667],[99.5,9750],[99.5,9834],[99.5,9917],[99.5,10000],[99.5,10085],[99.5,10168],[99.5,10250],[99.5,10334],[99.5,10417],[99.5,10500],[99.5,10584],[99.4,10667],[97,10750],[94.8,10834],[94.8,10918],[94.8,11000],[94.8,11084],[94.8,11167],[94.8,11250],[94.8,11334],[94.8,11418],[94.2,11500],[85.7,11584],[70.9,11667],[70.7,11750],[70.7,11834],[70.1,11918],[53.1,12000],[43,12084],[41,12167],[26.8,12250],[12.7,12335],[4.8,12418],[0.2,12500],[1.3,13750],[3,13834]]",1,0,805.761,810.344,48.203125,3.626,"[{""rating"":48.203125,""responseTime"":3.6259999999999764}]",space,4.062,,810.344,Not at all,0,810.347,,,[],,,,0,3,3,3,1,audio/Narrative7Situation3.wav,audio/Narrative8Situation3.wav,audio/Narrative5Situation3.wav,audio/Narrative6Situation3.wav,8,4,3,5,,,,,,,,,,,,,,,,,,,,,,,,,,,,,,,,,,,,,
,,,,,,5658000ca9872d0011e1ba26,2024-02-08_16h02.53.778,group3.1-3.2-social-tom,2023.2.2,Win32,143.6781609,65c5074098b851296ff0b7ed,65c54171564e63bceab0c766,,,,,,,,,,,,,,,,,,,,,,,,,,,,,810.347,2,audio/Narrative5Situation4.wav,811.351,,811.351,831.727,"[[28.7,1417],[27.7,1500],[24.1,1583],[15.9,1666],[48.5,15417],[100,15500],[100,15584],[100,15667],[100,15750],[100,15833],[100,15917],[100,16000],[100,16083],[100,16167],[100,16250],[100,16334],[100,16417],[100,16500],[100,16584],[100,16667],[100,16750],[100,16834],[100,16917],[100,17000],[100,17083],[100,17167],[100,17250],[100,17334],[100,17417],[100,17500],[100,17583],[100,17667],[100,17750],[100,17833],[100,17917],[100,18000],[100,18083],[100,18167],[100,18250],[100,18333],[100,18417],[100,18501],[100,18583],[100,18667],[100,18750],[100,18833],[100,18917],[100,19000],[100,19083],[100,19166],[100,19250],[100,19333],[100,19417],[100,19500],[100,19583],[100,19667],[100,19750],[100,19833],[100,19917],[100,20000],[100,20084],[100,20166],[100,20250],[100,20334]]",1,0,831.727,835.789,99.453125,1.88,"[{""rating"":99.453125,""responseTime"":1.8799999999999955}]",space,3.544,,835.789,Definitely yes,100,840.581,99.296875,4.219,"[{""rating"":99.296875,""responseTime"":4.218999999999937}]",space,4.272,,0,4,4,4,1,audio/Narrative7Situation4.wav,audio/Narrative8Situation4.wav,audio/Narrative5Situation4.wav,audio/Narrative6Situation4.wav,3,3,1,2,,,,,,,,,,,,,,,,,,,,,,,,,,,,,,,,,,,,,
,,,,,,5658000ca9872d0011e1ba26,2024-02-08_16h02.53.778,group3.1-3.2-social-tom,2023.2.2,Win32,143.6781609,65c5074098b851296ff0b7ed,65c54171564e63bceab0c766,,,,,,,,,,,,,,,,,,,,,,,,,,,,,840.581,2,audio/Narrative5Situation5.wav,845.587,,845.587,860.997,"[[30.1,832],[3,10333],[35.1,10416],[65.2,10500],[66.7,10583],[66.7,10666],[67.1,10750],[81.4,10832],[83.1,10916],[84.1,11000],[84.5,11083],[84.5,11166],[81.5,11250],[76.7,11333],[73,11417],[69,11500],[67.7,11583],[67.7,11666],[67.7,11750],[63.5,11833],[60.3,11916],[60.3,12000],[62,12083],[68.8,12166],[70.4,12250],[70.5,12333],[70.5,12416],[70.5,12500],[70.5,12583],[71.5,12667],[71.8,12750],[72.9,12833],[74,12916],[75,13000],[75.5,13083],[75.6,13166],[75.6,13250],[75.7,13333],[76.9,13416],[78.4,13500],[78.4,13583],[78.4,13666],[78.4,13750],[78.4,13833],[78.4,13916],[78.4,14000],[78.4,14083],[78.4,14166],[78.4,14250],[78.4,14333],[72.7,14416],[60.9,14500],[57.7,14583],[57.6,14666],[57.6,14750],[57.7,14833],[61,14917],[63.4,15000],[63.8,15083],[63.8,15166],[63.8,15250],[63.7,15332]]",1,0,860.997,866.949,46.25,3.548,"[{""rating"":33.28125,""responseTime"":1.0199999999999818},{""rating"":43.59375,""responseTime"":2.3840000000000146},{""rating"":46.25,""responseTime"":3.548000000000002}]",space,5.442,,866.949,Definitely yes,100,866.951,,,[],,,,0,5,5,5,1,audio/Narrative7Situation5.wav,audio/Narrative8Situation5.wav,audio/Narrative5Situation5.wav,audio/Narrative6Situation5.wav,5,2,5,2,,,,,,,,,,,,,,,,,,,,,,,,,,,,,,,,,,,,,
,,,,,,5658000ca9872d0011e1ba26,2024-02-08_16h02.53.778,group3.1-3.2-social-tom,2023.2.2,Win32,143.6781609,65c5074098b851296ff0b7ed,65c54171564e63bceab0c766,,,,,,,,,,,,,,,,,,,,,,,,,,,,,866.951,2,audio/Narrative5Situation6.wav,869.956,,869.956,875.623,"[[21.9,417],[4.6,916],[4.6,1000],[4.6,1083]]",1,0,875.623,890.373,1.015625,14.117,"[{""rating"":3.593750000000001,""responseTime"":11.197999999999979},{""rating"":1.0156249999999978,""responseTime"":14.116999999999962}]",space,14.236,,890.373,Not at all,0,890.375,,,[],,,,0,6,6,6,1,audio/Narrative7Situation6.wav,audio/Narrative8Situation6.wav,audio/Narrative5Situation6.wav,audio/Narrative6Situation6.wav,3,2,3,2,,,,,,,,,,,,,,,,,,,,,,,,,,,,,,,,,,,,,
,,,,,,5658000ca9872d0011e1ba26,2024-02-08_16h02.53.778,group3.1-3.2-social-tom,2023.2.2,Win32,143.6781609,65c5074098b851296ff0b7ed,65c54171564e63bceab0c766,,,,,,,,,,,,,,,,,,,,,,,,,,,,,890.375,2,audio/Narrative5Situation7.wav,894.38,,894.38,915.408,"[[2.1,1000],[2,1083],[1.5,1167],[1,1250],[0.9,1333],[0.9,1416],[0.9,1499],[0.9,1584],[0.9,1667],[0.9,1750],[0.9,1833],[0.9,1916],[0.9,1999],[0.9,2083],[0.9,2166],[0.9,2249],[0.9,2333],[0.9,2416],[0.9,2500],[0.9,2583],[0.9,2666],[0.9,2749],[0.9,2833],[0.9,2916],[0.9,3000],[0.9,3083],[0.9,3166],[0.9,3249],[0.9,3333],[0.9,3416],[0.9,3500],[0.9,3586],[0.9,3666],[0.9,3749],[0.9,3833],[0.9,3916],[0.9,3999],[0.9,4083],[0.9,4166],[0.9,4249],[0.9,4333],[0.9,4416],[0.9,4500],[0.9,4583],[0.9,4666],[0.9,4750],[0.9,4833],[0.9,4916],[0.9,4999],[0.9,5082],[0.9,5167],[0.9,5249],[0.9,5333],[0.9,5416],[0.9,5499],[0.9,5587],[0.9,5666],[0.9,5749],[0.9,5833],[0.9,5916],[0.9,6000],[0.9,6083],[0.9,6166],[0.9,6249],[0.9,6333],[0.9,6416],[0.9,6500],[0.9,6583],[0.9,6666],[0.9,6750],[0.9,6833],[0.9,6917],[0.9,7000],[0.9,7083],[0.9,7166],[0.9,7249],[0.9,7333],[0.9,7417],[0.9,7500],[0.9,7587],[0.9,7666],[0.9,7749],[0.9,7833],[0.9,7916],[0.9,7999],[0.9,8083],[0.9,8166],[0.9,8249],[0.9,8333],[0.9,8416],[0.9,8500],[0.9,8583],[0.9,8666],[0.9,8750],[0.9,8833],[0.9,8916],[0.9,8999],[0.9,9083],[0.9,9167],[0.9,9250],[0.9,9333],[0.9,9416],[0.9,9500],[0.9,9588],[0.9,9666],[0.9,9750],[0.9,9833],[2.4,9916],[2.6,9999],[2.6,10083],[2.6,10166],[2.6,10249],[2.6,10333],[2.6,10416],[2.6,10500],[2.6,10584],[2.6,10666],[2.6,10749],[2.5,10833],[2.3,10916],[2.1,11000],[2,11083],[2,11167],[2,11249],[1.9,11333],[1.8,11416],[1.8,11500],[1.8,11586],[1.8,11666],[1.8,11750],[1.8,11833],[1.8,11916],[1.8,11999],[1.8,12083],[1.8,12167],[1.8,12250],[1.8,12333],[1.8,12416],[1.8,12499],[1.8,12583],[1.8,12666],[1.8,12749],[1.8,12833],[1.8,12917],[1.8,13000],[1.8,13083],[1.8,13166],[1.8,13249],[1.8,13333],[1.8,13416],[1.8,13499],[1.8,13585],[1.8,13666],[1.8,13750],[1.8,13833],[1.8,13917],[1.8,14000],[1.8,14083],[1.8,14166],[1.8,14250],[1.8,14332],[1.8,14417],[1.8,14500],[1.8,14584],[1.8,14667],[1.8,14749],[1.8,14832],[1.8,14917],[1.8,15000],[1.8,15083],[1.8,15167],[1.8,15249],[1.8,15332],[1.8,15416],[1.8,15500],[1.8,15583],[1.8,15666],[1.8,15750],[1.8,15833],[1.8,15916],[1.8,15999],[1.8,16083],[1.8,16167],[1.8,16250],[1.8,16333],[1.8,16416],[1.8,16500],[1.8,16583],[1.8,16667],[1.8,16750],[1.8,16833],[1.8,16916],[1.8,16999],[1.8,17083],[1.8,17167],[1.8,17250],[1.8,17333],[1.8,17416],[1.8,17499],[1.8,17586],[1.8,17666],[1.8,17749],[1.8,17833],[1.8,17916],[1.8,18000],[1.8,18083],[1.8,18166],[1.8,18249],[1.8,18333],[1.8,18416],[1.8,18500],[1.8,18583],[1.8,18666],[1.4,18749],[1.3,18832],[1.2,18917],[1.2,18999],[1.2,19083],[1.2,19166],[1.2,19250],[1.2,19333],[1.2,19416],[1.2,19500],[1.2,19583],[1.2,19667],[1.2,19750],[1.2,19833],[1.2,19916],[1.2,20000],[1.2,20083],[1.2,20167],[1.2,20250],[1.2,20333],[1.2,20417],[1.2,20500],[1.2,20583],[1.2,20666],[1.2,20749],[1.2,20833],[1.2,20917],[1.2,21000]]",1,0,915.408,919.457,0.390625,3.008,"[{""rating"":0.390625,""responseTime"":3.008000000000038}]",space,3.535,,919.457,Partially,50,919.46,,,[],,,,0,7,7,7,1,audio/Narrative7Situation7.wav,audio/Narrative8Situation7.wav,audio/Narrative5Situation7.wav,audio/Narrative6Situation7.wav,5,3,4,5,,,,,,,,,,,,,,,,,,,,,,,,,,,,,,,,,,,,,
,,,,,,5658000ca9872d0011e1ba26,2024-02-08_16h02.53.778,group3.1-3.2-social-tom,2023.2.2,Win32,143.6781609,65c5074098b851296ff0b7ed,65c54171564e63bceab0c766,,,,,,,,,,,,,,,,,,,,,,,,,,,,,919.46,2,audio/Narrative5Situation8.wav,922.463,,922.463,931.269,[],1,0,931.269,933.964,0.46875,1.981,"[{""rating"":0.4687500000000011,""responseTime"":1.9809999999999945}]",space,2.182,,933.964,Definitely yes,100,933.966,,,[],,,,0,8,8,8,1,audio/Narrative7Situation8.wav,audio/Narrative8Situation8.wav,audio/Narrative5Situation8.wav,audio/Narrative6Situation8.wav,2,3,3,5,,,,,,,,,,,,,,,,,,,,,,,,,,,,,,,,,,,,,
,,,,,,5658000ca9872d0011e1ba26,2024-02-08_16h02.53.778,group3.1-3.2-social-tom,2023.2.2,Win32,143.6781609,65c5074098b851296ff0b7ed,65c54171564e63bceab0c766,,,,,,,,,,,,,,,,,,,,,,,,,,,,,933.966,2,audio/Narrative5Situation9.wav,936.97,,936.97,976.499,"[[0.9,1584],[0.1,1667],[0.7,2167],[1.6,2250],[2.3,2332],[2.3,2417],[2.3,2500],[2.3,2582],[0.2,2667],[0.6,16000],[1.3,16082],[1.3,16166],[1.3,16250],[1.3,16332],[1.3,16417],[1.3,16500],[1.3,16582],[1.3,16667],[1.3,16750],[1.3,16832],[1.3,16917],[1.3,17003],[1.3,17084],[1.3,17167],[1.3,17250],[1.3,17332],[1.3,17417],[1.3,17500],[1.3,17584],[1.3,17667],[1.4,17750],[14.7,17834],[29.3,17917],[30.5,18000],[30.5,18082],[30.5,18167],[30.5,18250],[30.5,18332],[30.5,18417],[32.1,18500],[41.2,18582],[43.5,18667],[43.9,18750],[44.3,18834],[44.3,18917],[44.8,19003],[44.9,19084],[46,19167],[47,19250],[47.2,19334],[47.3,19417],[47.3,19500],[47.3,19582],[47.3,19667],[47.3,19750],[47.3,19832],[45.1,19918],[35.9,20000],[29.8,20084],[19.5,20167],[14.6,20250],[10.8,20332],[7,20417],[6.6,20500],[6.6,20584],[6.1,20667],[5,20750],[2.9,20832],[0.9,20917],[0.9,21000],[1,21084],[4,21167],[8.8,21250],[11.3,21332],[14.1,21417],[21.2,21500],[23.4,21582],[24.1,21667],[24.8,21750],[25.1,21834],[25.1,21917],[29.1,22000],[31.6,22082],[31.6,22167],[31.6,22250],[33,22334],[33.2,22417],[33.2,22500],[33.1,22582],[25.5,22668],[21.1,22750],[21.1,22834],[21.8,22917],[25.5,23000],[28.3,23084],[30.3,23168],[30.5,23250],[31.7,23334],[32.1,23417],[32,23500],[29.2,23582],[28,23667],[25.2,23750],[24.5,23832],[23.3,23917],[22,24000],[20.2,24084],[17.7,24167],[16.2,24250],[14.4,24334],[13.7,24417],[13.7,24500],[13.7,24582],[14.3,24667],[14.9,24750],[17,24834],[19.5,24917],[19.5,25000],[19.5,25084],[19.5,25167],[19.3,25250],[17.7,25334],[15.9,25417],[15.6,25500],[15.6,25584],[15.6,25668],[15.6,25750],[16,25834],[16.6,25917],[17.4,26003],[17.4,26082],[17.4,26167],[17.4,26250],[17.4,26332],[17.4,26417],[17.4,26500],[17.4,26582],[17.4,26667],[17.4,26750],[17.4,26834],[17.4,26918],[17.4,27000],[17.4,27084],[17.4,27167],[17.4,27250],[17.4,27332],[17.4,27418],[17.4,27500],[17.4,27584],[17.4,27667],[17.4,27750],[17.4,27834],[17.4,27917],[17.4,28002],[17.4,28084],[17.4,28167],[17.4,28250],[17.4,28334],[17.4,28417],[17.4,28500],[17.4,28584],[17.2,28667],[10.4,28750],[9.9,28834],[9.9,28917],[9.9,29000],[9.9,29084],[9.9,29167],[9.7,29250],[9.7,29334],[9.7,29417],[9.7,29500],[9.8,29584],[10.1,29667],[10.2,29750],[10.2,29834],[10.2,29917],[10.2,30000],[10.2,30084],[10.2,30167],[10.2,30250],[10.1,30334],[10.1,30417],[10.1,30500],[10.1,30584],[10.1,30667],[10.1,30750],[10.1,30834],[10.1,30917],[10.1,31000],[10.2,31084],[10.4,31167],[10.4,31250],[10.4,31334],[10.4,31417],[10.4,31500],[10.4,31584],[10.4,31667],[10.4,31750],[10.4,31834],[10.4,31918],[10.4,32002],[10.4,32084],[10.4,32167],[10.4,32250],[10.4,32332],[10.4,32417],[10.4,32500],[10.4,32584],[10.4,32667],[10.4,32750],[10.4,32834],[10.4,32917],[10.4,33000],[10.4,33084],[10.3,33167],[10.2,33250],[10.2,33332],[10.2,33417],[9.9,33500],[9.9,33582],[9.9,33667],[9.9,33750],[9.9,33834],[9.9,33917],[9.9,34000],[9.9,34084],[9.9,34167],[9.9,34250],[9.9,34334],[9.9,34417],[9.9,34500],[9.9,34584],[9.9,34667],[9.9,34750],[9.9,34834],[9.9,34917],[9.9,35000],[9.9,35084],[9.9,35167],[9.9,35250],[9.9,35332],[9.9,35417],[9.9,35500],[9.9,35584],[9.9,35667],[9.9,35750],[9.9,35834],[9.9,35917],[9.9,36000],[9.9,36084],[9.9,36167],[13.8,36250],[47.9,36334],[100,36417],[100,36500],[100,36584],[100,36667],[100,36750],[100,36834],[100,36917],[100,37000],[100,37084],[100,37168],[100,37250],[100,37334],[99.5,37417],[97,37500],[93.3,37584],[84.8,37667],[82.3,37750],[82.3,37834],[83.4,37917],[85.5,38000],[85.5,38084],[85.5,38167],[81.3,38250],[65.4,38334],[53.9,38418],[52.4,38500],[51.4,38584],[49.6,38667],[48,38750],[47.8,38832],[48.8,38918],[66,39000],[77.7,39084],[85.4,39167],[86.3,39250],[85.9,39334],[59.8,39417],[41.8,39500]]",1,0,976.499,982.137,30.078125,4.806,"[{""rating"":30.078125,""responseTime"":4.80600000000004}]",space,5.118,,982.137,Partially,50,982.141,,,[],,,,0,9,9,9,1,audio/Narrative7Situation9.wav,audio/Narrative8Situation9.wav,audio/Narrative5Situation9.wav,audio/Narrative6Situation9.wav,2,3,3,4,,,,,,,,,,,,,,,,,,,,,,,,,,,,,,,,,,,,,
,,,,,,5658000ca9872d0011e1ba26,2024-02-08_16h02.53.778,group3.1-3.2-social-tom,2023.2.2,Win32,143.6781609,65c5074098b851296ff0b7ed,65c54171564e63bceab0c766,,,,,,,,,,,,,,,,,,,,,,,,,,,,,982.141,2,audio/Narrative6Situation1.wav,984.144,,984.144,1010.714,"[[1.3,1583],[48.2,6084],[68,6167],[100,6501],[99,6750],[100,6834],[100,6916],[100,7000],[100,7084],[100,7167],[100,7250],[100,7334],[100,7417],[100,7500],[100,7583],[100,7667],[100,7751],[100,7833],[100,7917],[100,8000],[100,8084],[100,8167],[100,8250],[100,8334],[100,8417],[100,8500],[100,8584],[100,8667],[100,8751],[100,8835],[100,8917],[100,9001],[100,9084],[100,9167],[100,9251],[100,9334],[100,9417],[100,9500],[100,9583],[100,9667],[100,9751],[100,9834],[100,9917],[100,10000],[100,10084],[100,10167],[100,10250],[100,10333],[100,10417],[100,10500],[100,10584],[100,10667],[100,10750],[100,10833],[100,10917],[100,11001],[100,11084],[100,11167],[100,11251],[100,11334],[96.1,11417],[89.1,11501],[87.7,11584],[82,11667],[65.5,11751],[53.5,11833],[51.2,11924],[49.5,12007],[49.5,12091],[47.7,12174],[42.4,12257],[36.5,12340],[30.5,12424],[19.8,12507],[14.6,12591],[13.4,12674],[10.5,12757],[8.5,12841],[7.7,12924],[7.6,13007],[6.6,13091],[5.1,13174],[3.8,13257],[3.2,13340],[2.1,13424],[1.5,13508],[1.3,13591],[0.9,13674],[0.9,13757],[0.9,13840],[0.9,13924],[0.9,14008],[0.9,14091],[0.9,14174],[0.9,14257],[0.9,14340],[0.9,14424],[0.9,14507],[0.9,14590],[0.9,14673],[0.9,14758],[0.9,14841],[0.9,14924],[0.9,15007],[0.9,15090],[0.9,15174],[0.9,15257],[0.9,15341],[0.9,15424],[0.9,15507],[0.9,15591],[0.9,15674],[0.9,15758],[0.9,15841],[0.9,15924],[0.9,16007],[0.9,16091],[0.9,16174],[0.9,16258],[0.9,16340],[0.9,16424],[0.9,16507],[0.9,16591],[0.9,16674],[0.9,16757],[0.9,16840],[0.9,16923],[0.9,17007],[0.9,17091],[0.9,17174],[0.9,17257],[0.9,17340],[0.9,17424],[0.9,17508],[0.9,17591],[0.9,17674],[0.9,17757],[0.9,17840],[0.9,17924],[0.9,18007],[0.9,18091],[0.9,18174],[0.9,18257],[0.9,18340],[0.9,18424],[0.9,18508],[0.9,18590],[0.9,18674],[0.9,18758],[0.9,18847],[0.9,18931],[0.9,19014],[0.9,19097],[0.9,19181],[0.9,19264],[0.9,19347],[0.9,19431],[0.9,19514],[0.9,19598],[0.9,19681],[0.9,19764],[0.9,19848],[0.9,19931],[0.9,20014],[0.9,20098],[0.9,20181],[0.9,20264],[0.9,20347],[0.9,20431],[0.9,20514],[0.9,20598],[0.9,20681],[0.9,20764],[0.9,20848],[3,20931],[15.7,21014],[34.1,21097],[45.1,21181],[49.4,21264],[58,21348],[60.6,21431],[68.1,21514],[83.1,21598],[87.3,21681],[92.7,21764],[96.5,21848],[98,21931],[98.4,22014],[99.5,22098],[99.5,22181],[99.5,22264],[99.5,22348],[99.5,22431],[99.5,22514],[99.5,22598],[99.5,22681],[99.5,22764],[99.5,22848],[99.5,22931],[99.5,23014],[99.5,23098],[99.5,23181],[99.5,23264],[99.5,23348],[99.5,23431],[99.5,23514],[99.5,23598],[99.5,23681],[99.5,23764],[99.5,23848],[99.5,23931],[99.5,24014],[99.5,24097],[99.5,24181],[99.5,24264],[99.5,24348],[99.5,24431],[99.4,24514],[99.2,24598],[99,24681],[99,24764],[99,24848],[99,24931],[99,25014],[99,25098],[96.3,25181],[93,25264],[93,25348],[93,25431],[93,25514],[93,25598],[94.5,25681],[95.2,25764],[95.2,25848],[95.3,25931],[94.5,26014],[92.7,26098]]",1,0,1010.714,1013.735,98.90625,2.196,"[{""rating"":98.90625,""responseTime"":2.1960000000000264}]",space,2.509,,1013.735,Partially,50,1013.737,,,[],,,,0,10,10,10,1,audio/Narrative8Situation1.wav,audio/Narrative7Situation1.wav,audio/Narrative6Situation1.wav,audio/Narrative5Situation1.wav,5,2,2,5,,,,,,,,,,,,,,,,,,,,,,,,,,,,,,,,,,,,,
,,,,,,5658000ca9872d0011e1ba26,2024-02-08_16h02.53.778,group3.1-3.2-social-tom,2023.2.2,Win32,143.6781609,65c5074098b851296ff0b7ed,65c54171564e63bceab0c766,,,,,,,,,,,,,,,,,,,,,,,,,,,,,1013.737,2,audio/Narrative6Situation2.wav,1016.742,,1016.742,1045.228,"[[999,0],[999,83],[999,166],[999,250],[999,333],[999,416],[999,500],[999,583],[999,666],[999,749],[999,833],[63.5,917],[0.2,1916],[0.5,2000],[0.5,2083],[0.5,2166],[0.5,2250],[0.5,2333],[0.5,2417],[0.5,2500],[0.5,2583],[0.5,2666],[0.5,2750],[0.5,2833],[0.5,2916],[0.5,3000],[0.5,3083],[0.5,3167],[0.5,3250],[0.5,3333],[0.5,3416],[0.5,3500],[0.5,3583],[0.5,3666],[0.5,3750],[0.5,3833],[0.5,3916],[0.5,3999],[0.5,4083],[0.5,4166],[0.5,4250],[0.5,4333],[0.5,4416],[0.5,4500],[0.5,4583],[0.5,4666],[0.5,4750],[0.5,4833],[0.5,4917],[0.5,5000],[0.5,5083],[0.5,5166],[0.5,5250],[0.5,5333],[0.5,5417],[0.5,5500],[0.5,5583],[0.5,5666],[0.5,5750],[0.5,5833],[0.5,5916],[0.5,5999],[0.5,6083],[0.5,6166],[0.5,6250],[0.5,6333],[0.5,6416],[0.5,6499],[0.5,6584],[0.5,6667],[0.5,6750],[0.5,6833],[0.5,6917],[0.5,6999],[0.5,7084],[0.5,7166],[0.5,7250],[0.5,7333],[0.5,7416],[0.5,7500],[0.5,7583],[0.5,7666],[0.5,7749],[0.5,7833],[0.5,7917],[0.5,8000],[0.5,8083],[0.5,8166],[0.5,8250],[0.5,8333],[0.5,8417],[0.5,8500],[0.5,8583],[0.5,8666],[0.5,8749],[0.5,8833],[0.5,8917],[0.5,8999],[0.5,9083],[0.5,9166],[0.5,9249],[0.5,9333],[0.5,9416],[0.5,9499],[0.5,9583],[0.5,9666],[0.5,9750],[0.5,9833],[0.5,9916],[0.5,9999],[0.5,10083],[0.5,10166],[0.5,10250],[0.5,10333],[0.5,10416],[0.5,10500],[0.5,10583],[0.5,10667],[0.5,10750],[0.5,10833],[0.5,10916],[0.5,10999],[0.5,11083],[0.5,11167],[0.5,11250],[0.5,11333],[0.5,11416],[0.5,11499],[0.5,11583],[0.5,11666],[0.5,11750],[0.5,11833],[0.5,11916],[0.5,12000],[0.5,12083],[0.5,12166],[0.5,12250],[0.5,12334],[0.5,12417],[0.5,12503],[0.5,12583],[0.5,12666],[0.5,12750],[0.5,12833],[0.5,12917],[0.5,13000],[0.5,13083],[0.5,13166],[0.5,13250],[0.5,13333],[0.5,13416],[0.5,13500],[0.5,13584],[0.5,13666],[0.5,13749],[0.5,13833],[0.5,13916],[0.5,14000],[0.5,14084],[0.5,14167],[0.5,14250],[0.5,14333],[0.5,14417],[0.5,14500],[0.5,14583],[0.5,14667],[0.5,14750],[0.5,14833],[0.5,14917],[0.5,15000],[0.5,15084],[0.5,15166],[0.5,15249],[0.5,15333],[0.5,15417],[0.5,15500],[0.5,15583],[0.5,15666],[0.5,15750],[0.5,15833],[0.5,15917],[0.5,16000],[0.5,16083],[0.5,16167],[0.5,16250],[0.5,16333],[0.5,16417],[0.5,16500],[0.5,16584],[0.5,16667],[0.5,16750],[0.5,16834],[0.5,16917],[0.5,16999],[0.5,17083],[0.5,17167],[0.5,17250],[0.5,17333],[0.5,17417],[0.5,17500],[0.5,17583],[0.5,17667],[0.5,17750],[0.5,17833],[0.5,17917],[0.5,18000],[0.5,18084],[0.5,18167],[0.5,18250],[0.5,18333],[0.5,18417],[0.5,18499],[0.5,18584],[0.5,18667],[0.5,18750],[0.5,18833],[0.5,18917],[0.5,18999],[0.5,19083],[0.5,19166],[0.5,19250],[0.5,19334],[0.5,19417],[0.5,19500],[0.5,19583],[0.5,19666],[0.5,19749],[0.5,19833],[0.5,19917],[0.5,20000],[0.5,20083],[0.5,20166],[0.5,20250],[0.5,20334],[0.5,20417],[0.5,20500],[0.5,20583],[0.5,20667],[0.5,20749],[0.5,20834],[0.5,20917],[0.5,20999],[0.5,21084],[0.5,21166],[0.5,21250],[0.5,21333],[0.5,21416],[0.5,21499],[0.5,21583],[0.5,21667],[0.5,21750],[0.5,21833],[0.5,21916],[0.5,22000],[0.5,22084],[0.5,22167],[0.5,22250],[0.5,22333],[0.5,22417],[0.5,22500],[0.5,22583],[0.5,22666],[0.5,22749],[25.2,22834],[93.4,22917],[100,23000],[100,23083],[100,23166],[100,23250],[100,23333],[100,23417],[100,23500],[100,23583],[100,23667],[100,23750],[99.5,23834],[99.5,23916],[99.5,24000],[99.6,24084],[100,24167],[100,24250],[100,24333],[100,24416],[100,24500],[100,24583],[100,24667],[100,24750],[98.9,24833],[95.9,24917],[94.4,25000],[94.1,25083],[96.8,25167],[99.3,25250],[99.4,25333],[99.3,25417],[93,25500],[83.1,25583],[72.3,25667],[65.1,25750],[90.7,26000],[94,26083],[96.1,26167],[98.9,26250],[100,26334],[100,26417],[100,26500],[100,26583],[100,26667],[100,26750],[100,26833],[100,26917],[100,27000],[100,27083],[100,27166],[100,27249],[100,27334],[100,27417],[100,27500],[100,27583],[100,27666],[100,27750],[100,27834],[100,27919],[100,28000],[100,28084],[100,28167],[100,28249],[100,28333],[100,28417]]",1,0,1045.228,1047.54,99.21875,1.545,"[{""rating"":99.21875,""responseTime"":1.5450000000000728}]",space,1.8,,1047.54,Partially,50,1047.542,,,[],,,,0,11,11,11,1,audio/Narrative8Situation2.wav,audio/Narrative7Situation2.wav,audio/Narrative6Situation2.wav,audio/Narrative5Situation2.wav,3,3,3,3,,,,,,,,,,,,,,,,,,,,,,,,,,,,,,,,,,,,,
,,,,,,5658000ca9872d0011e1ba26,2024-02-08_16h02.53.778,group3.1-3.2-social-tom,2023.2.2,Win32,143.6781609,65c5074098b851296ff0b7ed,65c54171564e63bceab0c766,,,,,,,,,,,,,,,,,,,,,,,,,,,,,1047.543,2,audio/Narrative6Situation3.wav,1052.547,,1052.547,1065.145,"[[999,0],[999,83],[999,168],[999,250],[999,334],[999,419],[999,500],[999,584],[999,668],[31.7,750],[3.4,834],[11.5,6666],[41.8,6750],[79.2,6834],[91.9,6916],[94.8,7000],[99,7084],[100,7166],[100,7250],[100,7334],[100,7416],[100,7500],[100,7584],[100,7666],[100,7750],[100,7834],[100,7916],[100,8000],[100,8084],[100,8166],[100,8250],[100,8334],[100,8418],[100,8500],[100,8584],[100,8666],[100,8750],[100,8834],[100,8918],[100,9000],[100,9084],[100,9166],[100,9250],[100,9334],[100,9420],[100,9500],[100,9584],[100,9666],[100,9750],[100,9834],[100,9916],[100,10000],[99.3,10084],[97.1,10168],[96.3,10250],[96.3,10334],[97,10416],[97.9,10500],[98.3,10584],[98.4,10668],[98.4,10750],[98.4,10834],[91.2,10916],[83.8,11000],[80.7,11084],[77.4,11166],[76.2,11250],[73.7,11334],[71.8,11416],[71.2,11500],[69.6,11584],[69.6,11666],[68.7,11750],[67.4,11834],[66.1,11916],[66.1,12000],[66.1,12084],[66.1,12168],[65.7,12250],[64.1,12334],[62.6,12416],[60,12500],[56.1,12585]]",1,0,1065.145,1072.326,77.03125,6.52,"[{""rating"":77.03125,""responseTime"":6.519999999999982}]",space,6.67,,1072.326,Partially,50,1072.327,,,[],,,,0,12,12,12,1,audio/Narrative8Situation3.wav,audio/Narrative7Situation3.wav,audio/Narrative6Situation3.wav,audio/Narrative5Situation3.wav,4,8,5,3,,,,,,,,,,,,,,,,,,,,,,,,,,,,,,,,,,,,,
,,,,,,5658000ca9872d0011e1ba26,2024-02-08_16h02.53.778,group3.1-3.2-social-tom,2023.2.2,Win32,143.6781609,65c5074098b851296ff0b7ed,65c54171564e63bceab0c766,,,,,,,,,,,,,,,,,,,,,,,,,,,,,1072.327,2,audio/Narrative6Situation4.wav,1074.332,,1074.332,1086.93,"[[73.2,750],[4.5,1500],[2,1583],[0.1,1666],[0.2,1750],[0.2,1833],[0.2,1916],[0.2,2000],[0.2,2083],[0.2,2166],[0.2,2250],[0.2,2333],[0.4,3166],[0.4,3250],[0.4,3333],[0.4,3416],[0.4,3500],[0.4,3582],[0.4,3666],[0.4,3750],[0.4,3833],[0.4,3916],[0.4,4000],[0.4,4083],[0.4,4166],[0.4,4250],[0.4,4333],[0.4,4416],[0.4,4500],[0.4,4583],[0.4,4666],[0.4,4750],[0.4,4832],[0.4,4916],[0.4,5000],[0.4,5083],[0.4,5166],[0.4,5250],[0.4,5333],[0.4,5416],[0.4,5500],[0.4,5583],[0.4,5666],[0.4,5750],[0.4,5833],[0.4,5916],[0.4,6000],[0.4,6083],[0.4,6166],[0.4,6250],[0.4,6333],[0.4,6416],[0.4,6500],[0.4,6583],[0.4,6666],[0.4,6750],[0.4,6833],[0.4,6917],[0.4,7000],[0.4,7082],[0.4,7167],[0.4,7250],[0.4,7333],[0.4,7417],[0.4,7500],[0.4,7583],[0.4,7666],[0.4,7750],[0.4,7832],[0.4,7917],[0.4,8000],[0.4,8083],[0.4,8166],[0.4,8250],[0.4,8333],[0.4,8416],[0.4,8500],[0.4,8583],[0.4,8666],[0.4,8750],[0.4,8833],[0.4,8916],[0.4,9000],[0.4,9083],[0.4,9167],[0.4,9250],[0.4,9333],[0.4,9416],[0.4,9500],[0.4,9583],[0.4,9666],[0.4,9750],[0.4,9833],[0.4,9916],[0.4,10000],[0.4,10083],[0.4,10167],[0.4,10250],[0.4,10333],[0.4,10417],[3.3,10500],[3.4,10583],[3.4,10667],[3.5,10750],[3.5,10833],[3.7,10916],[5.3,11000],[7.4,11085],[7.4,11167],[7.4,11250],[7.4,11333],[7.4,11417],[7.2,11500],[4.2,11583],[3,11666],[2.7,11750],[2.7,11833],[2.7,11916],[3,12000],[12.9,12083],[25.4,12166],[27.9,12250],[28,12333],[28,12417],[28.1,12500],[32,12583]]",1,0,1086.93,1094.548,1.328125,4.765,"[{""rating"":12.734374999999998,""responseTime"":0.9529999999999745},{""rating"":1.3281250000000022,""responseTime"":4.764999999999873}]",space,7.104,,1094.548,Definitely yes,100,1094.554,,,[],,,,0,13,13,13,1,audio/Narrative8Situation4.wav,audio/Narrative7Situation4.wav,audio/Narrative6Situation4.wav,audio/Narrative5Situation4.wav,3,3,2,1,,,,,,,,,,,,,,,,,,,,,,,,,,,,,,,,,,,,,
,,,,,,5658000ca9872d0011e1ba26,2024-02-08_16h02.53.778,group3.1-3.2-social-tom,2023.2.2,Win32,143.6781609,65c5074098b851296ff0b7ed,65c54171564e63bceab0c766,,,,,,,,,,,,,,,,,,,,,,,,,,,,,1094.554,2,audio/Narrative6Situation5.wav,1096.555,,1096.555,1104.5,"[[999,0],[999,83],[999,165],[999,250],[999,333],[999,416],[999,500],[999,584],[999,666],[999,750],[999,833],[999,916],[999,1000],[999,1084],[1.8,1166],[0.3,1250],[0.3,1334],[0.3,1416],[0.3,1500],[0.3,1583],[0.5,1666],[0.7,1750],[0.7,1834],[0.7,1916],[0.7,2000],[0.7,2083],[0.7,2165],[0.7,2250],[0.7,2333],[0.7,2416],[0.7,2500],[0.7,2584],[0.7,2666],[0.7,2750],[0.7,2833],[0.7,2915],[0.7,3000],[0.7,3084],[0.7,3165],[0.7,3250],[0.7,3333],[0.7,3416],[0.7,3500],[0.7,3583],[0.7,3666],[0.7,3750],[0.7,3833],[0.7,3915],[0.7,4000],[0.7,4084],[0.7,4166],[0.7,4250],[0.7,4334],[0.7,4416],[0.7,4500],[0.7,4583],[0.7,4666],[0.7,4750],[0.7,4834],[0.7,4915],[0.7,5000],[0.7,5083],[0.7,5165],[0.7,5250],[0.7,5333],[0.7,5416],[0.7,5500],[0.7,5583],[0.7,5665],[0.7,5750],[0.7,5833],[0.7,5916],[0.7,6000],[0.7,6083],[0.7,6166],[0.7,6250],[0.7,6334],[0.7,6423],[0.6,6508],[0.6,6590],[0.6,6673],[0.6,6757],[0.6,6840],[0.6,6923],[0.6,7007],[0.6,7089],[0.6,7173],[0.6,7257],[0.6,7339],[0.6,7423],[0.6,7507],[0.6,7590],[0.6,7673],[0.6,7757],[0.6,7839],[0.6,7923]]",1,0,1104.5,1107.708,0.234375,2.397,"[{""rating"":0.23437499999999778,""responseTime"":2.3969999999999345}]",space,2.689,,1107.708,Partially,50,1107.71,,,[],,,,0,14,14,14,1,audio/Narrative8Situation5.wav,audio/Narrative7Situation5.wav,audio/Narrative6Situation5.wav,audio/Narrative5Situation5.wav,2,5,2,5,,,,,,,,,,,,,,,,,,,,,,,,,,,,,,,,,,,,,
,,,,,,5658000ca9872d0011e1ba26,2024-02-08_16h02.53.778,group3.1-3.2-social-tom,2023.2.2,Win32,143.6781609,65c5074098b851296ff0b7ed,65c54171564e63bceab0c766,,,,,,,,,,,,,,,,,,,,,,,,,,,,,1107.71,2,audio/Narrative6Situation6.wav,1109.715,,1109.715,1120.778,"[[999,0],[999,82],[999,166],[999,250],[999,332],[999,415],[999,500],[999,582],[4.6,666],[3.8,750],[2.3,833],[1.6,916],[1.3,1000],[1.3,1082],[1.3,1166],[1.3,1250],[1.3,1332],[1.3,1415],[1.3,1498],[1.3,1582],[1.3,1666],[1.3,1750],[1.3,1832],[1.3,1915],[1.3,2000],[1.3,2082],[1.3,2166],[1.3,2250],[1.3,2332],[1.3,2416],[1.3,2500],[1.3,2582],[1.3,2666],[1.3,2750],[1.3,2832],[1.3,2916],[1.3,3000],[1.3,3082],[1.3,3165],[1.3,3251],[1.3,3332],[1.3,3416],[1.3,3500],[1.3,3582],[1.3,3665],[1.3,3748],[1.3,3833],[1.3,3915],[1.3,4000],[1.3,4082],[1.3,4166],[1.3,4250],[1.3,4332],[1.3,4416],[1.3,4500],[1.3,4582],[1.3,4666],[1.3,4750],[1.3,4832],[1.3,4916],[1.3,5000],[1.3,5082],[1.3,5165],[1.3,5250],[1.3,5332],[1.3,5415],[1.3,5500],[1.3,5582],[1.3,5665],[1.3,5750],[1.3,5832],[1.3,5916],[1.3,6000],[1.3,6082],[1.3,6165],[1.3,6250],[1.3,6333],[1.3,6416],[1.3,6500],[1.3,6582],[1.3,6665],[1.3,6750],[1.3,6832],[1.3,6915],[1.3,7000],[1.3,7082],[1.3,7165],[1.3,7250],[1.3,7332],[1.3,7415],[1.3,7500],[1.3,7582],[1.3,7665],[1.3,7750],[1.3,7832],[1.3,7915],[1.3,8000],[1.3,8082],[1.3,8166],[1.3,8250],[1.3,8332],[1.3,8415],[1.3,8498],[1.3,8583],[1.3,8666],[1.3,8750],[1.3,8832],[1.3,8915],[1.3,9000],[1.3,9082],[1.3,9165],[1.3,9250],[1.3,9332],[1.3,9415],[1.3,9500],[1.3,9582],[1.3,9666],[1.3,9750],[1.3,9832],[1.7,9916],[1.8,10000],[1.8,10082],[1.8,10166],[1.8,10250],[1.8,10332],[2.1,10416],[2.3,10500],[2.5,10582],[2.5,10665],[2.5,10748],[2.5,10832],[3.1,10916],[6.8,11000]]",1,0,1120.778,1123.465,0.234375,1.634,"[{""rating"":0.23437499999999778,""responseTime"":1.6340000000000146}]",space,2.178,,1123.465,Not at all,0,1123.467,,,[],,,,0,15,15,15,1,audio/Narrative8Situation6.wav,audio/Narrative7Situation6.wav,audio/Narrative6Situation6.wav,audio/Narrative5Situation6.wav,2,3,2,3,,,,,,,,,,,,,,,,,,,,,,,,,,,,,,,,,,,,,
,,,,,,5658000ca9872d0011e1ba26,2024-02-08_16h02.53.778,group3.1-3.2-social-tom,2023.2.2,Win32,143.6781609,65c5074098b851296ff0b7ed,65c54171564e63bceab0c766,,,,,,,,,,,,,,,,,,,,,,,,,,,,,1123.468,2,audio/Narrative6Situation7.wav,1128.472,,1128.472,1153.313,"[[8.4,83],[11.3,166],[12.3,250],[12.4,333],[9.3,416],[3.8,500],[2,583],[1.2,666],[1,750],[1,833],[1,916],[1.2,1000],[1.3,1083],[1.3,1167],[1.3,1250],[1.3,1333],[1.3,1417],[1.3,1500],[1.3,1583],[1.3,1667],[1.3,1750],[1.3,1833],[1.3,1916],[1.3,2000],[1.3,2084],[1.3,2167],[1.3,2249],[1.3,2334],[1.3,2417],[1.3,2503],[1.3,2583],[1.3,2666],[1.3,2749],[1.3,2833],[1.3,2916],[1.3,3000],[1.3,3083],[1.3,3166],[1.3,3250],[1.3,3333],[1.3,3417],[1.3,3500],[1.3,3583],[1.3,3666],[1.4,3750],[1.4,3833],[1.5,3917],[1.7,4000],[2.3,4083],[2.6,4166],[2.6,4249],[2.6,4334],[2.6,4416],[2.6,4500],[2.6,4583],[2.6,4666],[2.3,4749],[2.3,4833],[1.9,4917],[1.8,5000],[1.8,5083],[1.8,5167],[1.8,5250],[1.8,5333],[1.8,5416],[1.8,5503],[1.8,5583],[1.8,5667],[1.8,5750],[1.8,5833],[1.8,5917],[1.8,6000],[1.8,6084],[1.8,6166],[1.8,6250],[1.8,6334],[1.8,6416],[1.8,6500],[1.8,6583],[1.8,6666],[1.8,6750],[12,6833],[74.8,6916],[96,7000],[100,7083],[100,7166],[100,7250],[100,7333],[100,7416],[100,7505],[100,7583],[100,7666],[100,7750],[100,7833],[100,7917],[100,8000],[100,8083],[100,8166],[100,8250],[100,8334],[100,8420],[99.6,8500],[99.3,8583],[99.3,8666],[97.1,8750],[96,8834],[95.9,8917],[95.9,9000],[95.9,9083],[95.9,9166],[96.4,9250],[97.1,9333],[97.8,9416],[98.5,9500],[98.5,9583],[98.5,9667],[98.5,9750],[97.7,9833],[97.7,9916],[96,10000],[90.3,10084],[85.5,10167],[81,10250],[79.6,10333],[87,10416],[99.7,10500],[99.8,10584],[100,10667],[100,10750],[100,10833],[100,10916],[100,11000],[100,11083],[100,11166],[100,11250],[100,11333],[100,11417],[100,11502],[99.5,11583],[98.4,11667],[97.3,11750],[97.2,11834],[97.2,11916],[97.2,12000],[97.2,12084],[97.6,12166],[97.9,12249],[98,12334],[98,12416],[98,12500],[98,12583],[98,12667],[98,12750],[98,12833],[98,12916],[98.2,13000],[98.4,13084],[98.4,13167],[98.4,13250],[98.4,13333],[98.4,13416],[98.4,13500],[98.4,13584],[98.4,13667],[98.4,13750],[98.4,13834],[98.4,13916],[98.4,14000],[98.4,14084],[98.4,14167],[98.4,14250],[98.4,14334],[98.4,14416],[98.4,14500],[98.4,14583],[98.4,14666],[98.4,14750],[98.4,14834],[98.4,14917],[98.4,15000],[98.4,15083],[98.4,15167],[98.4,15250],[98.4,15334],[98.4,15417],[98.4,15500],[98.4,15583],[98.4,15666],[98.4,15750],[98.4,15834],[98.4,15917],[98.4,16000],[98.4,16083],[98.4,16166],[95.2,16250],[91.2,16334],[86.3,16417],[79.8,16500],[62.9,16583],[46.1,16667],[35.3,16750],[23,16833],[21.7,16916],[20.1,17000],[15.5,17084],[14.1,17167],[12.7,17250],[10.3,17333],[7.3,17416],[7,17502],[7,17583],[7,17667],[7,17750],[7.9,17833],[9.1,17916],[9.6,18000],[12.5,18084],[39.9,18167],[93.5,18250],[100,18334],[100,18416],[100,18500],[100,18583],[100,18666],[100,18750],[99.5,18834],[95.3,18917],[91.8,19000],[91.6,19083],[93,19166],[99.5,19250],[99.5,19333],[99.5,19417],[99.5,19502],[99.5,19583],[99.5,19667],[99.5,19750],[99.5,19833],[99.5,19916],[99.5,20000],[99.5,20084],[99.4,20167],[98,20250],[96.8,20333],[96.8,20416],[96.8,20500],[97.2,20584],[98,20667],[98.7,20750],[98.7,20834],[98.7,20917],[98.7,21000],[98.7,21084],[98.7,21167],[98.7,21250],[98.7,21334],[98.7,21417],[98.7,21500],[98.7,21583],[98.7,21667],[98.7,21750],[98.7,21834],[98.7,21917],[98.7,22000],[98.7,22083],[98.7,22166],[98.7,22250],[98.7,22334],[98.7,22417],[98.7,22500],[98.7,22583],[98.7,22667],[98.7,22750],[98.7,22834],[98.7,22917],[98.7,23000],[98.7,23084],[98.7,23167],[98.7,23250],[98.7,23334],[98.7,23417],[98.7,23500],[98.7,23584],[98.7,23667],[98.7,23750],[98.7,23833],[98.7,23916],[98.7,24000],[98.7,24084],[98.7,24167],[98.7,24250],[98.7,24334],[98.7,24417],[98.7,24503],[98.7,24584],[98.7,24667],[98.7,24750],[98.5,24833]]",1,0,1153.313,1157.806,99.375,3.676,"[{""rating"":99.375,""responseTime"":3.675999999999931}]",space,3.98,,1157.806,Definitely yes,100,1157.809,,,[],,,,0,16,16,16,1,audio/Narrative8Situation7.wav,audio/Narrative7Situation7.wav,audio/Narrative6Situation7.wav,audio/Narrative5Situation7.wav,3,5,5,4,,,,,,,,,,,,,,,,,,,,,,,,,,,,,,,,,,,,,
,,,,,,5658000ca9872d0011e1ba26,2024-02-08_16h02.53.778,group3.1-3.2-social-tom,2023.2.2,Win32,143.6781609,65c5074098b851296ff0b7ed,65c54171564e63bceab0c766,,,,,,,,,,,,,,,,,,,,,,,,,,,,,1157.809,2,audio/Narrative6Situation8.wav,1162.813,,1162.813,1169.653,"[[999,0],[999,81],[999,165],[999,250],[999,332],[999,415],[999,499],[999,582],[59.3,665],[48,749],[45.7,832],[45.6,915],[45.6,1000],[45.6,1082],[42.6,1165],[30.5,1249],[22.4,1332],[15.4,1416],[9.5,1500],[6.3,1582],[3.4,1665],[3.1,1749],[3,1832],[2.7,1916],[2,2000],[1.8,2082],[1.8,2165],[1.8,2250],[1.8,2332],[1.8,2415],[1.8,2499],[1.8,2582],[1.8,2665],[1.8,2750],[1.8,2832],[1.8,2915],[1.8,2999],[2,3082],[2.7,3165],[3.2,3249],[3.7,3332],[4.1,3416],[4.3,3500],[4.3,3582],[4.3,3665],[3.4,3749],[3,3832],[2.4,3915],[2.4,3999],[2.4,4082],[2.2,4165],[2.1,4249],[1.8,4331],[1.8,4416],[1.5,4500],[1.5,4582],[1.3,4665],[1.3,4750],[1.3,4831],[1.3,4915],[1.3,5000],[1.3,5082],[1.3,5165],[1.3,5249],[1.3,5332],[1.3,5415],[1.3,5499],[1.3,5581],[1.3,5665],[1.3,5750],[1.3,5832],[1.3,5915],[1.3,5999],[1.3,6082],[1.3,6165],[1.3,6250],[1.3,6332],[1.3,6415],[1.3,6499],[1.3,6582],[1.3,6665],[1.3,6750],[1.3,6832]]",1,0,1169.653,1172.327,0.15625,1.843,"[{""rating"":0.15625000000000222,""responseTime"":1.8430000000000746}]",space,2.163,,1172.327,Definitely yes,100,1172.328,,,[],,,,0,17,17,17,1,audio/Narrative8Situation8.wav,audio/Narrative7Situation8.wav,audio/Narrative6Situation8.wav,audio/Narrative5Situation8.wav,3,2,5,3,,,,,,,,,,,,,,,,,,,,,,,,,,,,,,,,,,,,,
,,,,,,5658000ca9872d0011e1ba26,2024-02-08_16h02.53.778,group3.1-3.2-social-tom,2023.2.2,Win32,143.6781609,65c5074098b851296ff0b7ed,65c54171564e63bceab0c766,,,,,,,,,,,,,,,,,,,,,,,,,,,,,1172.328,2,audio/Narrative6Situation9.wav,1176.334,,1176.334,1186.271,"[[999,0],[999,83],[999,165],[999,249],[4.7,331],[3.4,415],[0.8,500]]",1,0,1186.271,1188.757,0.46875,1.755,"[{""rating"":0.4687500000000011,""responseTime"":1.7550000000001091}]",space,1.976,,1188.757,Not at all,0,1188.76,,,[],,,,0,18,18,18,1,audio/Narrative8Situation9.wav,audio/Narrative7Situation9.wav,audio/Narrative6Situation9.wav,audio/Narrative5Situation9.wav,3,2,4,3,,,,,,,,,,,,,,,,,,,,,,,,,,,,,,,,,,,,,
,,,,,,5658000ca9872d0011e1ba26,2024-02-08_16h02.53.778,group3.1-3.2-social-tom,2023.2.2,Win32,143.6781609,65c5074098b851296ff0b7ed,65c54171564e63bceab0c766,,,,,,,,,,,,,,,,,,,,,,,,,,,,,,,,,,,,,,,,,,,,,,,,,,,,,,,,,,,,,,,,,,,,,,,,1188.76,1191.382,space,2.112,,1191.382,1203.563,space,11.868,,,,,,,,,,,,,,,,,,,,,,,,,,
,,,,,,5658000ca9872d0011e1ba26,2024-02-08_16h02.53.778,group3.1-3.2-social-tom,2023.2.2,Win32,143.6781609,65c5074098b851296ff0b7ed,65c54171564e63bceab0c766,,,,,,,,,,,,,,,,,,,,,,,,,,,,,1206.147,1,audio/Narrative8Situation9.wav,1208.153,,,,,,,1239.998,1246.966,39.296875,6.026,"[{""rating"":39.296875,""responseTime"":6.026000000000067}]",space,6.452,,1239.995,Partially,50,1239.998,,,[],,,,,,,,,,,,,2,2,2,2,,,,,,,,,,,,,1203.564,1206.139,1208.153,3,1239.994,"[[999,0],[999,83],[999,166],[999,250],[999,333],[999,416],[999,500],[999,583],[999,666],[999,750],[999,833],[999,916],[999,1000],[999,1083],[999,1166],[999,1250],[999,1334],[999,1416],[999,1500],[999,1583],[16.8,1666],[16.8,1750],[17,1833],[17,1915],[17,2000],[17,2084],[17,2166],[17,2250],[17,2333],[17,2416],[17,2500],[17,2583],[17,2666],[17,2750],[17,2833],[17,2915],[17,3000],[17,3084],[16.3,3166],[14.5,3250],[12.3,3333],[8.1,3416],[5.1,3500],[3.9,3584],[3.2,3666],[3,3750],[3,3833],[3,3915],[3,4000],[3,4083],[3,4166],[2,4250],[1.6,4333],[1.5,4416],[1.4,4500],[1.4,4583],[1.4,4666],[1.4,4750],[1.4,4834],[1.4,4916],[1.4,5000],[1.4,5084],[1.4,5166],[1.5,5250],[1.5,5334],[1.5,5416],[1.7,5500],[1.8,5583],[1.8,5668],[1.9,5750],[1.9,5833],[1.9,5916],[1.9,6000],[1.9,6083],[1.9,6166],[1.9,6250],[1.9,6333],[1.9,6416],[1.9,6500],[1.6,6583],[1.6,6666],[1.5,6750],[1.5,6833],[1.5,6916],[1.5,7000],[1.5,7084],[1.5,7166],[1.5,7250],[1.5,7333],[1.5,7416],[1.5,7500],[1.5,7583],[1.5,7666],[1.5,7750],[1.5,7834],[1.5,7916],[1.5,8000],[1.5,8083],[1.5,8166],[1.5,8250],[1.5,8334],[1.5,8416],[1.5,8500],[1.5,8583],[1.5,8666],[1.5,8750],[1.5,8834],[1.5,8916],[1.5,9000],[1.5,9083],[1.5,9165],[1.5,9250],[1.5,9333],[1.5,9415],[1.5,9500],[1.5,9584],[1.5,9666],[1.5,9750],[1.5,9833],[1.5,9916],[1.5,10000],[1.5,10084],[1.5,10166],[1.5,10250],[1.5,10333],[1.5,10416],[1.5,10500],[1.5,10584],[1.5,10666],[1.5,10750],[1.5,10834],[1.5,10916],[1.5,11000],[1.5,11083],[1.5,11166],[1.5,11250],[1.5,11333],[1.5,11416],[1.5,11500],[1.5,11583],[1.5,11666],[1.5,11750],[1.5,11834],[1.5,11916],[1.5,12000],[1.5,12083],[1.5,12166],[1.5,12250],[1.5,12333],[1.5,12416],[1.5,12500],[1.5,12584],[1.5,12666],[1.5,12750],[1.5,12834],[1.5,12916],[1.5,13000],[1.5,13083],[1.5,13166],[1.5,13250],[1.5,13334],[1.5,13416],[1.5,13500],[1.5,13584],[1.5,13666],[1.5,13750],[1.5,13833],[1.5,13916],[1.5,14000],[1.5,14084],[1.5,14166],[1.5,14250],[1.5,14333],[1.5,14416],[1.5,14500],[1.5,14584],[1.5,14666],[1.5,14750],[1.5,14834],[1.5,14915],[1.5,15000],[1.5,15084],[1.5,15166],[1.5,15250],[1.5,15333],[1.5,15416],[1.5,15500],[1.5,15583],[1.5,15666],[1.5,15750],[1.5,15834],[1.5,15916],[1.5,16000],[1.5,16083],[1,16166],[1,16250],[1,16334],[1,16416],[1,16500],[1,16584],[1,16666],[1,16750],[1,16834],[1,16916],[1,17000],[1,17084],[1,17166],[1,17250],[1,17334],[1,17416],[1,17500],[1,17584],[1,17666],[1,17750],[1,17834],[1,17916],[1,18000],[1,18084],[1,18166],[1,18250],[1,18334],[1,18416],[1,18500],[1,18584],[1,18666],[1,18750],[1,18834],[1,18916],[1,19000],[1,19083],[1,19166],[1,19250],[1,19334],[1,19416],[1,19500],[1,19584],[1,19666],[1,19750],[1,19834],[1,19916],[1,20000],[1,20083],[1,20166],[1,20250],[1,20334],[1,20416],[1,20500],[1,20584],[1,20666],[1,20750],[1,20834],[1,20916],[1,21000],[1,21083],[1,21166],[1,21250],[1,21333],[1,21416],[1,21500],[1,21584],[1,21666],[1,21750],[1,21833],[1,21916],[1,22000],[1,22084],[1,22166],[1,22250],[1,22334],[1,22416],[1,22500],[1,22584],[1,22666],[1,22750],[1,22834],[1,22916],[1,23000],[1,23083],[1,23166],[1,23250],[1,23334],[1,23416],[1,23500],[1,23583],[1,23666],[1,23750],[1,23834],[1,23916],[1,24000],[1,24084],[1,24166],[1,24250],[1,24334],[1,24416],[1,24500],[1,24584],[1,24666],[1,24750],[1,24833],[1,24916],[1,25000],[1,25084],[1,25166],[1,25250],[1,25334],[1,25416],[1,25500],[1,25584],[1,25666],[1,25750],[1,25834],[1,25916],[1,26000],[1,26083],[1,26168],[1,26250],[1,26334],[1,26416],[1,26500],[1,26583],[1,26666],[1,26750],[1,26834],[1,26916],[1,27000],[1,27084],[1,27166],[1,27250],[1,27334],[1,27416],[1,27500],[1.5,27584],[1.6,27666],[1.6,27750],[1.6,27834],[1.6,27916],[1.6,28000],[1.6,28084],[1.6,28166],[1.6,28250],[1.6,28334],[1.6,28416],[1.6,28500],[1.6,28584],[1.6,28666],[1.6,28750],[1.6,28834],[1.6,28916],[6.3,29000],[8.8,29084],[12.4,29166],[16.3,29250],[18.3,29334],[18.5,29416],[18.5,29500],[18.5,29584],[18.6,29666],[18.6,29750],[18.6,29834],[18.6,29916],[19.1,30000],[26.3,30084],[28.4,30166],[28.4,30250],[28.4,30334],[29.5,30416],[31.8,30500],[32.9,30584],[33.7,30668],[35.3,30750],[37.3,30834],[38.4,30916],[39.3,31000],[40.4,31083],[40.9,31166],[41.1,31250],[41.6,31334],[41.7,31416],[41.7,31500],[41.7,31584],[41.7,31666],[41.6,31750],[40.5,31834]]",0,0,0,0,1,"Larry had recently lost his family, job and home, and was now living on his own in the park. He had most of his belongings, including some clothes, a blanket, and his mother’s special necklace. His family had been very important to him and he felt as though he did not have much going for him. One of his first days in the park he came across a family that did not have much food and looked very cold. He decided to give them some of his food and his blanket.","Larry had recently lost his family, job and home, and was now living on his own in the park. He had most of his belongings, including some clothes, a blanket, and his mother’s special necklace. His family had been very important to him and he felt as though he did not have much going for him. One of his first days in the park he came across a family that did not have much food and looked very cold. He decided to give them some of his food and his blanket.","Larry had recently lost his family, job and home, and was now living on his own in the park. He had most of his belongings, including some clothes, a blanket, and his mother’s special necklace. His family had been very important to him and he felt as though he did not have much going for him. One of his first days in the park he came across a family that did not have much food and looked very cold. He decided to give them some of his food and his blanket.","Larry had recently lost his family, job and home, and was now living on his own in the park. He had most of his belongings, including some clothes, a blanket, and his mother’s special necklace. His family had been very important to him and he felt as though he did not have much going for him. One of his first days in the park he came across a family that did not have much food and looked very cold. He decided to give them some of his food and his blanket.",,,,,,,,,,
