exp_question,consent.started,consent.stopped,consentResponse.keys,consentResponse.rt,consentResponse.duration,participantID,date,expName,psychopyVersion,OS,frameRate,STUDY_ID,SESSION_ID,opening1.started,opening1.stopped,keyEndingOpening1.keys,keyEndingOpening1.rt,keyEndingOpening1.duration,volumeAdjust.started,volumeAdjust.stopped,endingAdjust.keys,endingAdjust.rt,endingAdjust.duration,opening2.started,opening2.stopped,keyEndingOpening.keys,keyEndingOpening.rt,keyEndingOpening.duration,mouse.x,mouse.y,mouse.leftButton,mouse.midButton,mouse.rightButton,mouse.time,instructionLoop.thisRepN,instructionLoop.thisTrialN,instructionLoop.thisN,instructionLoop.thisIndex,instructionLoop.ran,readyForAudio.started,readyForAudio.stopped,fixation.started,run,audio_played,fixation.stopped,endPractice.keys,audioPre.started,audioPre.stopped,continuousResponses_audio,continuousSlider.response,continuousSlider.rt,intRating.started,intRating.stopped,intQuestionSlider.response,intQuestionSlider.rt,intQuestionSlider.history,confirmResponse.keys,confirmResponse.rt,confirmResponse.duration,catchQuestion.started,catch_label,catch_value,catchQuestion.stopped,catchQuestionSlider.response,catchQuestionSlider.rt,catchQuestionSlider.history,confirmResponse_2.keys,audioRunLoop.thisRepN,audioRunLoop.thisTrialN,audioRunLoop.thisN,audioRunLoop.thisIndex,audioRunLoop.ran,conditions1_1,conditions2_1,conditions1_2,conditions2_2,dur1_1,dur2_1,dur1_2,dur2_2,endPractice.rt,endPractice.duration,confirmResponse_2.rt,confirmResponse_2.duration,runIntervalBreak.started,runIntervalBreak.stopped,endingBreakKey.keys,endingBreakKey.rt,endingBreakKey.duration,connection.started,connection.stopped,connectionEnding.keys,connectionEnding.rt,connectionEnding.duration,readyForText.started,readyForText.stopped,textPre.started,run_dup,textPre.stopped,continuousResponses_text,textRunLoop.thisRepN,textRunLoop.thisTrialN,textRunLoop.thisN,textRunLoop.thisIndex,textRunLoop.ran,text1_1,text1_2,text2_1,text2_2,runBreakText.started,runBreakText.stopped,endingBreakKey_2.keys,endingBreakKey_2.rt,endingBreakKey_2.duration,ending.started,ending.stopped,endingEnding.keys,endingEnding.rt,endingEnding.duration
tom,0.0004,6.7576,y,6.4357,,5671927473f58b000d664293,2024-02-08_16h06.34.755,group3.1-3.2-social-tom,2023.2.2,Win32,59.88023952,65c5074098b851296ff0b7ed,65c541892f0cf4abf4887d22,,,,,,,,,,,,,,,,,,,,,,,,,,,,,,,,,,,,,,,,,,,,,,,,,,,,,,,,,,,,,,,,,,,,,,,,,,,,,,,,,,,,,,,,,,,,,,,,,,,,,,,,,,
,,,,,,5671927473f58b000d664293,2024-02-08_16h06.34.755,group3.1-3.2-social-tom,2023.2.2,Win32,59.88023952,65c5074098b851296ff0b7ed,65c541892f0cf4abf4887d22,6.7577,11.1069,space,4.3212,,,,,,,,,,,,,,,,,,,,,,,,,,,,,,,,,,,,,,,,,,,,,,,,,,,,,,,,,,,,,,,,,,,,,,,,,,,,,,,,,,,,,,,,,,,,,,,,,,,,,,
,,,,,,5671927473f58b000d664293,2024-02-08_16h06.34.755,group3.1-3.2-social-tom,2023.2.2,Win32,59.88023952,65c5074098b851296ff0b7ed,65c541892f0cf4abf4887d22,,,,,,11.107,22.5759,space,11.1434,,,,,,,,,,,,,,,,,,,,,,,,,,,,,,,,,,,,,,,,,,,,,,,,,,,,,,,,,,,,,,,,,,,,,,,,,,,,,,,,,,,,,,,,,,,,,,,,,
,,,,,,5671927473f58b000d664293,2024-02-08_16h06.34.755,group3.1-3.2-social-tom,2023.2.2,Win32,59.88023952,65c5074098b851296ff0b7ed,65c541892f0cf4abf4887d22,,,,,,,,,,,22.5784,32.1278,space,9.5261,,[],[],[],[],[],[],0,0,0,0,1,,,,,,,,,,,,,,,,,,,,,,,,,,,,,,,,,,,,,,,,,,,,,,,,,,,,,,,,,,,,,,,,,,,,,,,,,,,,,,,,
,,,,,,5671927473f58b000d664293,2024-02-08_16h06.34.755,group3.1-3.2-social-tom,2023.2.2,Win32,59.88023952,65c5074098b851296ff0b7ed,65c541892f0cf4abf4887d22,,,,,,,,,,,32.1281,56.5157,space,24.3294,,[],[],[],[],[],[],1,0,1,0,1,,,,,,,,,,,,,,,,,,,,,,,,,,,,,,,,,,,,,,,,,,,,,,,,,,,,,,,,,,,,,,,,,,,,,,,,,,,,,,,,
,,,,,,5671927473f58b000d664293,2024-02-08_16h06.34.755,group3.1-3.2-social-tom,2023.2.2,Win32,59.88023952,65c5074098b851296ff0b7ed,65c541892f0cf4abf4887d22,,,,,,,,,,,56.521,71.4521,space,14.9061,,[],[],[],[],[],[],2,0,2,0,1,,,,,,,,,,,,,,,,,,,,,,,,,,,,,,,,,,,,,,,,,,,,,,,,,,,,,,,,,,,,,,,,,,,,,,,,,,,,,,,,
,,,,,,5671927473f58b000d664293,2024-02-08_16h06.34.755,group3.1-3.2-social-tom,2023.2.2,Win32,59.88023952,65c5074098b851296ff0b7ed,65c541892f0cf4abf4887d22,,,,,,,,,,,71.4586,90.6725,space,19.1968,,[],[],[],[],[],[],3,0,3,0,1,,,,,,,,,,,,,,,,,,,,,,,,,,,,,,,,,,,,,,,,,,,,,,,,,,,,,,,,,,,,,,,,,,,,,,,,,,,,,,,,
,,,,,,5671927473f58b000d664293,2024-02-08_16h06.34.755,group3.1-3.2-social-tom,2023.2.2,Win32,59.88023952,65c5074098b851296ff0b7ed,65c541892f0cf4abf4887d22,,,,,,,,,,,90.6776,98.6572,space,7.9737,,[],[],[],[],[],[],4,0,4,0,1,,,,,,,,,,,,,,,,,,,,,,,,,,,,,,,,,,,,,,,,,,,,,,,,,,,,,,,,,,,,,,,,,,,,,,,,,,,,,,,,
,,,,,,5671927473f58b000d664293,2024-02-08_16h06.34.755,group3.1-3.2-social-tom,2023.2.2,Win32,59.88023952,65c5074098b851296ff0b7ed,65c541892f0cf4abf4887d22,,,,,,,,,,,,,,,,,,,,,,,,,,,98.6629,101.2413,101.2604,1,audio/Narrative13Situation2.wav,103.275,,103.2752,133.0309,"[[999,0],[999,82],[999,166],[999,249],[999,332],[999,416],[999,499],[999,582],[999,666],[999,749],[999,832],[999,916],[999,999],[999,1083],[999,1166],[999,1249],[999,1333],[999,1416],[999,1499],[999,1583],[999,1666],[999,1750],[999,1833],[999,1916],[999,1999],[999,2083],[999,2166],[999,2250],[91.3,2333],[77.1,2416],[76.8,2499],[76.8,2583],[76.8,2666],[76.8,2750],[70.4,2833],[64.9,2916],[59.6,3000],[57,3083],[56.4,3166],[54.8,3250],[53.6,3333],[52.4,3417],[51.8,3500],[50.7,3583],[48.8,3667],[45.9,3750],[42.4,3833],[38.4,3917],[33.9,4000],[27.8,4083],[22.7,4167],[19.1,4250],[16.3,4333],[12.7,4417],[9.5,4500],[7.2,4583],[4.9,4667],[3.3,4750],[1.3,4833],[0.3,21753],[0.7,21837],[1.9,21920],[3.8,22003],[5.3,22087],[7.8,22170],[11.8,22254],[17.3,22337],[20.9,22420],[24.7,22503],[29.6,22587],[32.9,22670],[36.6,22754],[40,22837],[42.4,22920],[44.8,23004],[46.1,23087],[47.1,23170],[48.3,23254],[49.3,23337],[50,23420],[50.2,23504],[50.3,23587],[50.3,23670],[50.3,23754],[50.3,23837],[50.3,23920],[50.3,24004],[50.3,24087],[50.3,24170],[50.4,24254],[50.5,24337],[50.8,24420],[50.9,24504],[51,24587],[51.9,24671],[52.9,24754],[53.4,24837],[53.9,24921],[54.4,25004],[55.2,25087],[56.1,25171],[57.7,25254],[59.1,25337],[60.9,25421],[62.8,25504],[64.4,25587],[66.5,25671],[68,25754],[69.2,25838],[70.2,25921],[71.7,26004],[72.9,26088],[74.1,26171],[74.6,26254],[75,26338],[75.4,26421],[75.4,26504],[75.4,26588],[75.4,26671],[75.4,26754],[75.4,26838],[75.4,26921],[75.4,27004],[75.4,27088],[75.4,27171],[75.4,27254],[75.4,27338],[75.4,27421],[75.4,27504],[75.4,27588],[75.4,27671],[75.4,27754],[75.4,27838],[75.4,27921],[75.4,28004],[75.4,28088],[75.5,28171],[75.5,28254],[75.5,28338],[75.5,28421],[75.5,28505],[75.5,28588],[75.5,28671],[75.5,28755],[75.5,28838],[75.5,28921],[75.5,29005],[75.5,29088],[75.5,29171],[75.5,29255],[75.5,29338],[75.5,29421],[75.5,29505],[75.5,29588],[75.5,29671],[75.5,29755]]",1,0,133.0311,141.716,50.10416667,3.497,"[{""rating"":50.10416666666667,""responseTime"":3.4969999999999857}]",space,8.1389,,141.7208,All the time,100,141.7231,,,[],,0,0,0,0,1,audio/Narrative13Situation2.wav,audio/Narrative13Situation2.wav,audio/Narrative13Situation2.wav,audio/Narrative13Situation2.wav,2,2,2,2,,,,,,,,,,,,,,,,,,,,,,,,,,,,,,,,,,,,,,,
,,,,,,5671927473f58b000d664293,2024-02-08_16h06.34.755,group3.1-3.2-social-tom,2023.2.2,Win32,59.88023952,65c5074098b851296ff0b7ed,65c541892f0cf4abf4887d22,,,,,,,,,,,,,,,,,,,,,,,,,,,,,141.7232,1,audio/Narrative8Situation1.wav,143.366,space,143.366,159.286,"[[50.4,1417],[50.9,1500],[50.9,1583],[50.9,1666],[50.9,1750],[50.9,1833],[50.9,1916],[50.9,2000],[50.9,2083],[50.9,2167],[50.9,2250],[50.3,2333],[37.4,2417],[25.1,2500],[22.6,2584],[19.2,2667],[18.3,2750],[15.4,2834],[10.9,2917],[8,3000],[7,3084],[2.2,3167],[0.4,5834],[0.4,5917],[0.4,6001],[0.4,6084],[0.4,6167],[0.9,14086],[2.2,14169],[4.7,14252],[7.1,14336],[9.2,14419],[12.1,14502],[14.9,14586],[18.6,14669],[22.5,14752],[28.1,14836],[32,14919],[35.1,15002],[37.9,15086],[40.1,15169],[41.5,15253],[42.6,15336],[43.9,15419],[44.9,15503],[45.8,15586],[46.9,15669],[47.8,15753],[48.4,15836],[49.2,15919]]",1,0,159.286,163.5533,50.10416667,2.1569,"[{""rating"":50.10416666666667,""responseTime"":2.156900000035762}]",space,3.7232,,163.5533,Half the time,50,163.555,,,[],,0,1,1,1,1,audio/Narrative7Situation1.wav,audio/Narrative8Situation1.wav,audio/Narrative5Situation1.wav,audio/Narrative6Situation1.wav,2,5,5,2,1.6296,,,,,,,,,,,,,,,,,,,,,,,,,,,,,,,,,,,,,,
,,,,,,5671927473f58b000d664293,2024-02-08_16h06.34.755,group3.1-3.2-social-tom,2023.2.2,Win32,59.88023952,65c5074098b851296ff0b7ed,65c541892f0cf4abf4887d22,,,,,,,,,,,,,,,,,,,,,,,,,,,,,163.5551,1,audio/Narrative8Situation2.wav,166.5706,,166.5707,176.6896,"[[50.8,9585],[50.9,9668],[50.9,9751],[50.9,9835],[50.7,9918],[50.5,10001],[50.4,10085]]",1,0,176.6897,181.3734,75.41666667,3.5163,"[{""rating"":75.41666666666667,""responseTime"":3.51630000001191}]",space,4.1442,,181.3734,Not at all,0,181.3751,,,[],,0,2,2,2,1,audio/Narrative7Situation2.wav,audio/Narrative8Situation2.wav,audio/Narrative5Situation2.wav,audio/Narrative6Situation2.wav,3,3,3,3,,,,,,,,,,,,,,,,,,,,,,,,,,,,,,,,,,,,,,,
,,,,,,5671927473f58b000d664293,2024-02-08_16h06.34.755,group3.1-3.2-social-tom,2023.2.2,Win32,59.88023952,65c5074098b851296ff0b7ed,65c541892f0cf4abf4887d22,,,,,,,,,,,,,,,,,,,,,,,,,,,,,181.3752,1,audio/Narrative8Situation3.wav,185.3908,,185.3909,207.7787,"[[76.5,5917],[76.5,6001],[76.5,6084],[76.5,6167],[76.5,6251],[76.5,6334],[76.5,6417],[76.5,6501],[76.5,6584],[76.5,6667],[76.5,6751],[76.5,6834],[76.5,6917],[76.5,7001],[76.5,7084],[76.5,7168],[76.5,7251],[76.5,7334],[76.5,7418],[76.5,7501],[76.5,7584],[76.5,7668],[76.5,7751],[76.5,7834],[76.5,7918],[76.5,8001],[76.5,8084],[76.5,8168],[76.5,8251],[76.5,8334],[76.5,8418],[76.5,8501],[76.5,8584],[76.5,8668],[76.5,8752],[76.5,8835],[76.5,8918],[76.5,9001],[76.5,9085],[76.5,9168],[76.5,9251],[76.5,9335],[76.5,9418],[76.5,9501],[76.5,9585],[76.5,9668],[76.5,9751],[76.5,9835],[76.5,9918],[76.5,10001],[76.5,10085],[76.5,10168],[76.5,10251],[76.5,10335],[76.5,10418],[76.5,10502],[76.5,10585],[76.5,10668],[76.5,10752],[76.5,10835],[76.5,10918],[76.5,11002],[76.5,11085],[76.5,11168],[76.5,11252],[76.5,11335],[76.5,11418],[76.5,11502],[76.5,11585],[76.5,11668],[76.5,11752],[76.5,11835],[76.5,11918],[76.5,12002],[76.5,12085],[76.5,12168],[76.5,12252],[76.5,12335],[76.5,12419],[76.5,12502],[76.5,12585],[76.5,12669],[76.5,12752],[76.5,12835],[76.5,12919],[76.5,13002],[76.5,13085],[76.5,13169],[76.5,13252],[76.5,13335],[76.5,13419],[76.5,13502],[76.5,13585],[76.5,13669],[76.5,13752],[76.5,13835],[76.5,13919],[76.5,14002],[76.5,14085],[76.5,14169],[76.5,14252],[76.5,14336],[76.5,14419],[76.5,14502],[76.5,14586],[76.5,14669],[76.5,14752],[76.5,14836],[76.5,14919],[76.5,15002],[76.5,15086],[76.5,15169],[76.5,15252],[76.5,15336],[76.5,15419],[76.5,15503],[76.5,15586],[76.5,15669],[76.5,15753],[76.5,15836],[76.5,15919],[76.5,16003],[76.5,16086],[76.5,16169],[76.5,16253],[76.5,16336],[76.5,16419],[76.5,16503],[76.5,16586],[76.5,16669],[76.5,16753],[76.5,16836],[76.5,16920],[76.5,17003],[76.5,17086],[76.5,17169],[76.5,17253],[76.5,17336],[76.5,17420],[76.5,17503],[76.5,17586],[76.5,17670],[76.5,17753],[76.5,17836],[76.5,17920],[75.7,18003],[75.4,18086],[75.2,18170],[75,18253],[74.6,18336],[74.3,18420],[74,18503],[73.6,18587],[73.2,18670],[72.7,18753],[72.5,18836],[72.1,18920],[71.4,19003],[70.5,19087],[69.9,19170],[69.5,19253],[68.9,19337],[68.2,19420],[67.6,19504],[67.3,19587],[66.9,19670],[66.7,19753],[66.7,19837],[66.7,19920],[66.7,20003],[66.7,20087],[66.7,20170],[66.7,20253],[66.7,20337],[66.7,20420],[66.7,20503],[66.7,20587],[66.7,20670],[66.7,20753],[66.7,20837],[66.7,20920],[66.7,21004],[66.7,21087],[66.7,21170],[66.7,21254],[66.7,21337],[66.7,21420],[66.7,21504],[66.7,21587],[66.7,21670],[66.7,21754],[66.7,21837],[66.7,21920],[66.7,22004],[66.7,22087],[66.7,22170],[66.7,22254],[66.7,22337]]",1,0,207.7787,210.3791,66.66666667,1.1646,"[{""rating"":66.66666666666666,""responseTime"":1.1646000000238246}]",space,2.0627,,210.3792,Not at all,0,210.3801,,,[],,0,3,3,3,1,audio/Narrative7Situation3.wav,audio/Narrative8Situation3.wav,audio/Narrative5Situation3.wav,audio/Narrative6Situation3.wav,8,4,3,5,,,,,,,,,,,,,,,,,,,,,,,,,,,,,,,,,,,,,,,
,,,,,,5671927473f58b000d664293,2024-02-08_16h06.34.755,group3.1-3.2-social-tom,2023.2.2,Win32,59.88023952,65c5074098b851296ff0b7ed,65c541892f0cf4abf4887d22,,,,,,,,,,,,,,,,,,,,,,,,,,,,,210.3801,1,audio/Narrative8Situation4.wav,213.3964,,213.3964,227.5826,"[[66.5,6251],[52.2,7501],[50.8,7584],[50.1,7668],[49.7,7751],[47.9,7835],[46.7,7918],[46.1,8001],[45.2,8084],[44.2,8168],[42.6,8251],[40.9,8334],[39.5,8418],[38.2,8501],[35.6,8585],[33.4,8668],[31.8,8751],[29.8,8835],[28.5,8918],[27,9001],[26.6,9085],[26.6,9168],[26.6,9251],[26.6,9335],[26.6,9418],[26.6,9501],[26.6,9585],[26.6,9668],[26.6,9751],[26.6,9835],[26.6,9918],[26.6,10001],[26.6,10085],[26.6,10168],[26.6,10251],[26.6,10335],[26.6,10418],[26.6,10501],[26.6,10585],[26.6,10668],[26.6,10751],[26.6,10835],[26.6,10918],[26.6,11002],[26.6,11085],[26.6,11168],[26.6,11252],[26.6,11335],[26.6,11418],[26.6,11502],[26.6,11585],[26.6,11668],[26.6,11752],[26.6,11835],[26.6,11918],[26.6,12002],[26.6,12085],[26.6,12168],[26.6,12252],[26.6,12335],[26.6,12419],[26.6,12502],[26.6,12585],[26.6,12669],[26.6,12752],[26.6,12835],[26.6,12919],[26.6,13002],[26.6,13085],[26.6,13169],[26.6,13252],[26.6,13335],[26.6,13419],[26.6,13502],[27.6,13586],[27.6,13669],[28.3,13752],[29.6,13836],[31.5,13919],[34.4,14002],[39.2,14086],[41.3,14169]]",1,0,227.5827,230.5664,41.45833333,1.0371,"[{""rating"":41.45833333333333,""responseTime"":1.0371000000238269}]",space,2.4423,,230.5664,Not at all,0,230.5673,,,[],,0,4,4,4,1,audio/Narrative7Situation4.wav,audio/Narrative8Situation4.wav,audio/Narrative5Situation4.wav,audio/Narrative6Situation4.wav,3,3,1,2,,,,,,,,,,,,,,,,,,,,,,,,,,,,,,,,,,,,,,,
,,,,,,5671927473f58b000d664293,2024-02-08_16h06.34.755,group3.1-3.2-social-tom,2023.2.2,Win32,59.88023952,65c5074098b851296ff0b7ed,65c541892f0cf4abf4887d22,,,,,,,,,,,,,,,,,,,,,,,,,,,,,230.5674,1,audio/Narrative8Situation5.wav,232.5835,,232.5836,240.8352,"[[43.1,7834],[45.4,7918],[46.3,8001],[46.3,8084],[46.3,8168],[46.3,8251]]",1,0,240.8352,243.8189,36.5625,1.1558,"[{""rating"":36.5625,""responseTime"":1.1558000000119364}]",space,2.4382,,243.819,All the time,100,243.8203,,,[],,0,5,5,5,1,audio/Narrative7Situation5.wav,audio/Narrative8Situation5.wav,audio/Narrative5Situation5.wav,audio/Narrative6Situation5.wav,5,2,5,2,,,,,,,,,,,,,,,,,,,,,,,,,,,,,,,,,,,,,,,
,,,,,,5671927473f58b000d664293,2024-02-08_16h06.34.755,group3.1-3.2-social-tom,2023.2.2,Win32,59.88023952,65c5074098b851296ff0b7ed,65c541892f0cf4abf4887d22,,,,,,,,,,,,,,,,,,,,,,,,,,,,,243.8204,1,audio/Narrative8Situation6.wav,245.8361,,245.8361,252.304,"[[39.9,2917],[39.2,3000],[38.3,3084],[37.4,3167],[36.7,3250],[35.7,3334],[34.9,3417],[34.2,3500],[33.5,3584],[32.5,3667],[30.9,3750],[27.9,3834],[26.1,3917],[25.9,4000],[25.9,4084],[25.9,4167],[25.9,4250],[25.9,4334],[25.9,4417],[25.9,4500],[25.9,4584],[25.9,4667],[25.9,4750],[25.9,4834],[26,4917],[27,5001],[27.6,5084],[28.9,5167],[30.1,5251],[31.1,5334],[31.9,5417],[32.4,5501],[32.9,5584],[33.8,5667],[34.7,5751],[36,5834],[38.5,5918],[41.3,6001],[42.3,6084],[42.4,6167],[42.7,6251],[42.7,6334],[42.7,6417]]",1,0,252.3041,255.5714,30.83333333,1.6088,"[{""rating"":30.833333333333336,""responseTime"":1.608800000011911}]",space,2.7462,,255.5714,Half the time,50,268.8405,50.10416667,7.8503,"[{""rating"":50.10416666666667,""responseTime"":7.850300000011941}]",space,0,6,6,6,1,audio/Narrative7Situation6.wav,audio/Narrative8Situation6.wav,audio/Narrative5Situation6.wav,audio/Narrative6Situation6.wav,3,2,3,2,,,12.7501,,,,,,,,,,,,,,,,,,,,,,,,,,,,,,,,,,,,
,,,,,,5671927473f58b000d664293,2024-02-08_16h06.34.755,group3.1-3.2-social-tom,2023.2.2,Win32,59.88023952,65c5074098b851296ff0b7ed,65c541892f0cf4abf4887d22,,,,,,,,,,,,,,,,,,,,,,,,,,,,,268.8454,1,audio/Narrative8Situation7.wav,271.8578,,271.8579,283.9436,"[[50,11752],[49.6,11835],[49.3,11919],[49.3,12002],[49.3,12085]]",1,0,283.9437,287.8277,49.6875,2.5782,"[{""rating"":49.6875,""responseTime"":2.578199999988101}]",space,3.3382,,287.8278,All the time,100,287.8292,,,[],,0,7,7,7,1,audio/Narrative7Situation7.wav,audio/Narrative8Situation7.wav,audio/Narrative5Situation7.wav,audio/Narrative6Situation7.wav,5,3,4,5,,,,,,,,,,,,,,,,,,,,,,,,,,,,,,,,,,,,,,,
,,,,,,5671927473f58b000d664293,2024-02-08_16h06.34.755,group3.1-3.2-social-tom,2023.2.2,Win32,59.88023952,65c5074098b851296ff0b7ed,65c541892f0cf4abf4887d22,,,,,,,,,,,,,,,,,,,,,,,,,,,,,287.8293,1,audio/Narrative8Situation8.wav,290.8448,,290.8448,303.6974,"[[10,583],[13,666],[16,750],[17.3,833],[18.3,916],[18.9,1000],[19,1083],[19,1166],[19,1250],[19,1333],[19,1416],[19,1500],[19,1583],[19,1666],[19,1750],[19,1833],[19,1916],[19,2000],[19.1,2083],[19.1,2167],[19.3,2250],[19.4,2333],[19.4,2417],[19.4,2500],[19.4,2583],[19.4,2667],[19.4,2750],[19.4,2833],[19.4,2917],[19.4,3000],[19.4,3083],[19.4,3167],[19.4,3250],[19.4,3334],[19.4,3417],[19.4,3500],[19.4,3584],[19.4,3667],[19.4,3750],[19.4,3834],[19.4,3917],[19.4,4000],[20.2,4084],[21.5,4167],[22,4250],[22.4,4334],[22.7,4417],[23.2,4500],[23.6,4584],[24,4667],[24.2,4750],[24.7,4834],[25.2,4917],[26.3,5001],[27.1,5084],[27.6,5167],[28.3,5251],[29.3,5334],[29.8,5417],[30.1,5501],[30.1,5584],[30.1,5667],[30.1,5751],[30.1,5834],[30.1,5917],[30.1,6001],[30.1,6084],[30.1,6167],[30.1,6251],[30.1,6334],[30.1,6417],[30.1,6501],[30.1,6584],[30.1,6667],[30.1,6751],[30.1,6834],[30.1,6918],[30.1,7001],[30.1,7084],[30.1,7168],[30.1,7251],[30.1,7334],[30.1,7418],[30.1,7501],[30.1,7584],[30.1,7668],[30.1,7751],[30.1,7834],[30.1,7918],[30.1,8001],[30.1,8084],[30.1,8168],[30.1,8251],[30.1,8334],[30.1,8418],[30.1,8501],[30.1,8584],[30.1,8668],[30.1,8751],[30.1,8835],[30.1,8918],[30.1,9001],[30.1,9085],[30.1,9168],[30.1,9251],[30.1,9335],[30.1,9418],[30.1,9501],[30.1,9585],[30.1,9668],[30.1,9751],[30.1,9835],[30.1,9918],[30.1,10001],[30.1,10085],[30.1,10168],[30.1,10252],[30.1,10335],[30.1,10418],[30.1,10502],[30.1,10585],[30.1,10668],[30.1,10752],[30.1,10835],[30.1,10918],[30.1,11002],[30.1,11085],[30.1,11168],[30.1,11252],[30.1,11335],[30.1,11418],[30.1,11502],[30,11585],[27.7,11669],[26.5,11752],[25.1,11835],[23.6,11919],[23.3,12002],[23.3,12085],[23.3,12169],[23.3,12252],[23.3,12335],[23.3,12419],[23.3,12502],[23.3,12585],[23.3,12669],[23.3,12752],[23.3,12835]]",1,0,303.6976,306.4812,23.33333333,1.1114,"[{""rating"":23.333333333333332,""responseTime"":1.1114000000357578}]",space,2.2489,,306.4813,Half the time,50,306.4827,,,[],,0,8,8,8,1,audio/Narrative7Situation8.wav,audio/Narrative8Situation8.wav,audio/Narrative5Situation8.wav,audio/Narrative6Situation8.wav,2,3,3,5,,,,,,,,,,,,,,,,,,,,,,,,,,,,,,,,,,,,,,,
,,,,,,5671927473f58b000d664293,2024-02-08_16h06.34.755,group3.1-3.2-social-tom,2023.2.2,Win32,59.88023952,65c5074098b851296ff0b7ed,65c541892f0cf4abf4887d22,,,,,,,,,,,,,,,,,,,,,,,,,,,,,306.4828,1,audio/Narrative8Situation9.wav,309.4985,,309.4985,320.8007,"[[21.4,4834],[19.2,4917],[17.3,5001],[15.7,5084],[13.8,5167],[11.5,5251],[9.6,5334],[7.9,5417],[6.6,5501],[6,5584],[5.5,5667],[5,5751],[4.7,5834],[3.8,5917],[3.3,6001],[3,6084],[2.7,6167],[2.6,6251],[2.6,6334],[2.6,6418],[2.6,6501],[2.6,6584],[2.6,6668],[2.6,6751],[2.6,6834],[2.6,6917],[2.6,7001],[2.6,7084],[2.6,7168],[2.6,7251],[2.6,7334],[2.6,7418],[2.6,7501],[3.4,7584],[3.6,7668],[3.8,7751],[3.9,7834],[4,7918],[4,8001],[4.1,8084],[4.1,8168],[4.1,8251],[4.1,8334],[4.1,8418],[4.1,8501],[4.2,8584],[5.2,8668],[6.1,8751],[7.6,8835],[9.2,8918],[10.6,9002],[12.3,9085],[13.6,9168],[15.4,9251],[16.4,9335],[16.5,9418],[16.5,9501],[16.5,9585],[16.7,9668],[17.4,9752],[18.1,9835],[18.6,9918],[19.4,10002],[20,10085],[20.9,10168],[22.7,10252],[24.2,10335],[25.1,10418],[25.3,10502],[25.9,10585],[26.3,10668],[26.8,10752],[28,10835],[28.8,10918],[29.7,11002],[30.2,11085],[30.4,11169],[31,11252]]",1,0,320.8008,324.1848,49.58333333,1.8191,"[{""rating"":49.583333333333336,""responseTime"":1.8191000000238091}]",space,2.8657,,324.1848,Not at all,0,324.1862,,,[],,0,9,9,9,1,audio/Narrative7Situation9.wav,audio/Narrative8Situation9.wav,audio/Narrative5Situation9.wav,audio/Narrative6Situation9.wav,2,3,3,4,,,,,,,,,,,,,,,,,,,,,,,,,,,,,,,,,,,,,,,
,,,,,,5671927473f58b000d664293,2024-02-08_16h06.34.755,group3.1-3.2-social-tom,2023.2.2,Win32,59.88023952,65c5074098b851296ff0b7ed,65c541892f0cf4abf4887d22,,,,,,,,,,,,,,,,,,,,,,,,,,,,,324.1864,1,audio/Narrative7Situation1.wav,326.2019,,326.2019,382.0961,"[[49.5,12168],[46.4,12252],[43.9,12335],[41.5,12419],[39.2,12502],[36.7,12585],[34,12669],[31.8,12752],[30.4,12835],[28.5,12919],[26.3,13002],[24.4,13085],[24.1,13168],[24.1,13252],[24.1,13335],[24.1,13419],[24.1,13502],[24.1,13585],[24.1,13669],[24.1,13752],[24.1,13835],[24.1,13919],[24.1,14002],[24.1,14085],[24,14169],[24,14252],[23.8,14335],[23.8,14419],[23.8,14502],[23.8,14585],[23.6,14669],[23.5,14752],[23.5,14836],[23.5,14919],[23.5,15002],[23.5,15086],[23.5,15169],[23.5,15252],[23.5,15336],[23.6,15419],[24.4,15502],[24.8,15586],[24.8,15669],[24.8,15752],[24.8,15836],[24.8,15919],[24.8,16002],[24.8,16086],[24.8,16169],[24.8,16252],[24.8,16336],[24.8,16419],[24.8,16503],[24.8,16586],[24.8,16669],[24.8,16753],[24.8,16836],[24.8,16919],[24.8,17003],[24.8,17086],[24.8,17169],[24.8,17253],[24.8,17336],[24.8,17419],[24.8,17503],[24.8,17586],[24.8,17670],[24.8,17753],[24.8,17836],[24.8,17920],[24.8,18003],[24.8,18086],[24.8,18169],[24.8,18253],[24.8,18336],[24.8,18420],[24.8,18503],[24.8,18586],[24.8,18670],[24.8,18753],[24.8,18836],[24.8,18920],[24.8,19003],[24.8,19086],[24.8,19170],[24.8,19253],[24.8,19336],[24.8,19420],[24.8,19503],[24.8,19586],[24.8,19670],[24.8,19753],[24.8,19837],[24.8,19920],[24.8,20003],[24.8,20087],[24.8,20170],[24.8,20253],[24.8,20337],[24.8,20420],[24.8,20503],[24.8,20587],[24.8,20670],[24.8,20753],[24.8,20837],[24.8,20920],[24.8,21003],[24.8,21087],[24.8,21170],[24.8,21254],[24.8,21337],[24.8,21420],[24.8,21504],[24.8,21587],[24.8,21670],[24.8,21754],[24.8,21837],[24.8,21920],[24.8,22004],[24.8,22087],[24.8,22170],[24.8,22254],[24.8,22337],[24.8,22420],[24.8,22504],[24.8,22587],[24.8,22670],[24.8,22754],[24.8,22837],[24.8,22920],[27.1,23004],[27.7,23087],[28.3,23171],[29.2,23254],[30,23337],[30.7,23421],[31.7,23504],[32.5,23587],[33.2,23671],[34.2,23754],[35.6,23837],[37.3,23921],[38.4,24004],[39.5,24088],[40.7,24171],[42.1,24254],[43.6,24338],[45,24421],[45.8,24504],[47,24588],[47.6,24671],[48.2,24754],[48.5,24837],[48.8,24921],[49,25004],[49.2,25088],[49.3,25171],[49.4,25254],[49.5,25338],[49.7,25421],[49.8,25504],[49.8,25588],[49.8,25671],[49.8,25754],[49.8,25838],[49.8,25921],[49.8,26004],[49.8,26088],[49.8,26171],[49.8,26254],[49.8,26338],[49.8,26421],[49.8,26504],[49.8,26588],[49.8,26671],[49.8,26754],[49.8,26838],[49.8,26921],[49.8,27005],[49.8,27088],[49.8,27171],[49.8,27255],[49.8,27338],[49.8,27421],[49.8,27505],[49.8,27588],[49.8,27671],[49.8,27755],[49.8,27838],[49.8,27922],[49.8,28005],[49.8,28088],[49.8,28171],[49.8,28255],[49.8,28338],[49.8,28422],[49.8,28505],[49.8,28588],[49.8,28672],[49.8,28755],[49.8,28838],[49.8,28922],[49.8,29005],[49.8,29088],[49.8,29172],[49.8,29255],[49.8,29338],[49.8,29422],[49.8,29505],[49.8,29589],[49.8,29672],[49.8,29755],[49.8,29839],[49.8,29922],[49.8,30005],[49.8,30089],[49.8,30172],[49.8,30255],[49.8,30339],[49.8,30422],[49.8,30505],[49.8,30589],[49.8,30672],[49.8,30755],[49.8,30839],[49.8,30922],[49.8,31005],[49.8,31089],[49.8,31172],[49.8,31255],[49.8,31339],[49.8,31422],[49.8,31506],[49.8,31589],[49.8,31672],[49.8,31755],[49.8,31839],[49.8,31922],[49.8,32005],[49.8,32089],[49.8,32172],[49.8,32256],[49.8,32339],[49.8,32422],[49.8,32506],[49.8,32589],[49.8,32672],[49.8,32756],[49.8,32839],[49.8,32922],[49.8,33006],[49.8,33089],[49.8,33173],[49.8,33256],[49.8,33339],[49.8,33423],[49.8,33506],[49.8,33589],[49.8,33673],[49.8,33756],[49.8,33839],[49.8,33923],[49.8,34006],[49.8,34089],[49.8,34173],[49.8,34256],[49.8,34339],[49.8,34423],[49.8,34506],[49.8,34589],[49.8,34673],[49.8,34756],[49.8,34839],[49.8,34923],[49.8,35006],[49.8,35089],[49.8,35173],[51.8,35256],[53.1,35340],[54.5,35423],[55.6,35506],[57.7,35590],[59,35673],[59.6,35756],[60.2,35840],[60.4,35923],[60.5,36006],[60.5,36090],[60.5,36173],[60.5,36256],[60.5,36340],[60.5,36423],[60.5,36506],[60.5,36590],[60.5,36673],[60.5,36757],[60.5,36840],[60.5,36923],[60.5,37006],[60.5,37090],[60.5,37173],[60.5,37257],[60.5,37340],[60.5,37423],[60.5,37507],[60.5,37590],[60.5,37673],[60.5,37757],[60.5,37840],[60.5,37923],[60.5,38007],[60.5,38090],[60.5,38173],[60.5,38257],[60.5,38340],[60.5,38423],[60.5,38507],[60.5,38590],[60.5,38674],[60.5,38757],[60.5,38840],[60.5,38924],[60.5,39007],[60.5,39090],[60.5,39174],[60.5,39257],[60.5,39340],[60.5,39424],[60.5,39507],[60.5,39590],[60.5,39674],[60.5,39757],[60.5,39841],[60.5,39924],[60.5,40007],[60.5,40090],[60.5,40174],[60.5,40257],[60.5,40341],[60.5,40424],[60.5,40507],[60.5,40591],[60.5,40674],[60.5,40757],[60.5,40841],[60.5,40924],[60.5,41007],[60.5,41091],[60.5,41174],[60.5,41257],[60.5,41341],[60.5,41424],[60.5,41507],[60.5,41591],[60.5,41674],[60.5,41757],[60.5,41841],[60.5,41924],[60.5,42007],[60.5,42091],[60.5,42174],[60.5,42258],[60.5,42341],[60.5,42424],[60.5,42508],[60.5,42591],[60.5,42674],[60.5,42758],[60.5,42841],[60.5,42924],[60.5,43008],[60.5,43091],[60.5,43174],[60.5,43258],[60.5,43341],[60.5,43424],[60.5,43508],[60.5,43591],[60.5,43675],[60.5,43758],[60.5,43841],[61.1,43925],[61.1,44008],[61.1,44091],[61.1,44175],[61.1,44258],[61.1,44341],[61.1,44425],[61.3,44508],[61.3,44591],[61.4,44675],[61.7,44758],[61.9,44841],[62.5,44925],[63.2,45008],[64,45092],[64.9,45175],[66.4,45258],[67.7,45342],[69.2,45425],[70.4,45508],[71.3,45592],[72,45675],[72.8,45758],[73.6,45842],[74.6,45925],[74.6,46008],[74.7,46092],[74.7,46175],[74.7,46258],[74.7,46342],[74.7,46425],[74.8,46508],[75,46592],[75.4,46675],[75.4,46758],[75.5,46842],[75.5,46925],[75.5,47009],[75.5,47092],[75.5,47175],[75.5,47259],[75.5,47342],[75.5,47425],[75.5,47509],[75.5,47592],[75.5,47675],[75.5,47759],[75.5,47842],[75.5,47925],[75.5,48009],[75.5,48092],[75.5,48175],[75.5,48259],[75.5,48342],[75.5,48425],[75.5,48509],[75.5,48592],[75.5,48675],[75.5,48759],[75.5,48842],[75.5,48926],[75.5,49009],[75.5,49092],[75.5,49176],[75.5,49259],[75.5,49342],[75.5,49426],[75.5,49509],[75.5,49592],[75.5,49676],[75.5,49759],[75.5,49842],[75.5,49926],[75.5,50009],[75.5,50092],[75.5,50176],[75.5,50259],[75.5,50342],[75.5,50426],[75.5,50509],[75.5,50593],[75.5,50676],[75.5,50759],[75.5,50843],[75.5,50926],[75.5,51009],[75.5,51093],[75.5,51176],[75.5,51259],[75.5,51343],[75.5,51426],[75.5,51509],[75.5,51593],[75.5,51676],[75.5,51759],[75.5,51843],[75.5,51926],[75.5,52010],[75.5,52093],[75.5,52176],[75.5,52260],[75.5,52343],[75.5,52426],[75.5,52510],[75.5,52593],[75.5,52676],[75.5,52760],[75.5,52843],[75.5,52926],[75.5,53010],[75.5,53093],[75.5,53176],[75.5,53260],[75.5,53343],[75.5,53426],[75.5,53510],[75.5,53593],[75.5,53676],[75.5,53760],[75.5,53843],[75.5,53927],[75.5,54010],[75.5,54093],[75.5,54177],[75.5,54260],[75.5,54343],[75.5,54427],[75.5,54510],[75.5,54593],[75.5,54677],[75.5,54760],[75.5,54843],[75.5,54927],[75.5,55010],[75.5,55093],[75.5,55177],[75.5,55260],[75.5,55343],[75.5,55427],[75.5,55510],[75.5,55593],[75.5,55677],[75.9,55760],[76.5,55844]]",1,0,382.0962,386.1469,78.54166667,0.9536,"[{""rating"":78.54166666666667,""responseTime"":0.9536000000238118}]",space,3.53,,386.147,Half the time,50,386.1532,,,[],,0,10,10,10,1,audio/Narrative8Situation1.wav,audio/Narrative7Situation1.wav,audio/Narrative6Situation1.wav,audio/Narrative5Situation1.wav,5,2,2,5,,,,,,,,,,,,,,,,,,,,,,,,,,,,,,,,,,,,,,,
,,,,,,5671927473f58b000d664293,2024-02-08_16h06.34.755,group3.1-3.2-social-tom,2023.2.2,Win32,59.88023952,65c5074098b851296ff0b7ed,65c541892f0cf4abf4887d22,,,,,,,,,,,,,,,,,,,,,,,,,,,,,386.1533,1,audio/Narrative7Situation2.wav,389.1642,,389.1642,396.6492,"[[78.3,7334],[68.9,7418]]",1,0,396.6493,402.2667,49.89583333,4.5837,"[{""rating"":49.895833333333336,""responseTime"":4.5836999999880845}]",space,5.0722,,402.2667,All the time,100,402.268,,,[],,0,11,11,11,1,audio/Narrative8Situation2.wav,audio/Narrative7Situation2.wav,audio/Narrative6Situation2.wav,audio/Narrative5Situation2.wav,3,3,3,3,,,,,,,,,,,,,,,,,,,,,,,,,,,,,,,,,,,,,,,
,,,,,,5671927473f58b000d664293,2024-02-08_16h06.34.755,group3.1-3.2-social-tom,2023.2.2,Win32,59.88023952,65c5074098b851296ff0b7ed,65c541892f0cf4abf4887d22,,,,,,,,,,,,,,,,,,,,,,,,,,,,,402.2681,1,audio/Narrative7Situation3.wav,410.2683,,410.2683,419.5201,"[[999,5],[999,83],[999,166],[999,249],[999,333],[999,416],[999,500],[999,583],[999,666],[999,750],[999,833],[999,916],[999,1000],[999,1083],[999,1166],[999,1250],[999,1333],[999,1416],[999,1500],[999,1583],[999,1666],[999,1750],[999,1833],[999,1916],[999,2000],[999,2083],[999,2166],[999,2250],[999,2333],[999,2417],[999,2500],[999,2583],[999,2667],[999,2750],[999,2833],[999,2917],[999,3000],[999,3083],[999,3167],[999,3250],[999,3333],[999,3417],[999,3500],[999,3583],[999,3667],[999,3750],[999,3834],[999,3917],[999,4000],[999,4084],[999,4167],[999,4250],[999,4334],[999,4417],[999,4500],[999,4584],[999,4667],[999,4750],[999,4834],[999,4917],[999,5000],[999,5084],[999,5167],[999,5251],[24.1,5334],[24.1,5417],[24.1,5501],[24.1,5584],[24.1,5667],[24.1,5750],[24.1,5834],[24.1,5917],[24.1,6001],[24.1,6084],[24.1,6167],[24.1,6251],[24.1,6334],[24.1,6417],[24.1,6501],[24.1,6584],[24.1,6667],[24.1,6751],[24.1,6834],[24.1,6917],[24.1,7001],[24.1,7084],[24.1,7168],[24.1,7251],[24.1,7334],[24.1,7418],[24.1,7501],[24.1,7584],[24.1,7668],[24.1,7751],[24.1,7834],[24.1,7918],[24.1,8001],[24.1,8084],[24.1,8168],[24.1,8251],[24.1,8334],[24.1,8418],[24.1,8501],[24.1,8584],[24.1,8668],[24.1,8751],[24.1,8834],[24.1,8918],[24.1,9001],[24.1,9085],[24.1,9168],[24.1,9251]]",1,0,419.5203,421.6705,24.0625,0.6796,"[{""rating"":24.062499999999996,""responseTime"":0.6796000000238109}]",space,1.6015,,421.6705,Half the time,50,421.6718,,,[],,0,12,12,12,1,audio/Narrative8Situation3.wav,audio/Narrative7Situation3.wav,audio/Narrative6Situation3.wav,audio/Narrative5Situation3.wav,4,8,5,3,,,,,,,,,,,,,,,,,,,,,,,,,,,,,,,,,,,,,,,
,,,,,,5671927473f58b000d664293,2024-02-08_16h06.34.755,group3.1-3.2-social-tom,2023.2.2,Win32,59.88023952,65c5074098b851296ff0b7ed,65c541892f0cf4abf4887d22,,,,,,,,,,,,,,,,,,,,,,,,,,,,,421.6719,1,audio/Narrative7Situation4.wav,424.6878,,424.6879,436.4234,"[[24,5000],[21.4,5084],[19.9,5167],[18.6,5250],[17,5334],[15.3,5417],[13.3,5501],[11,5584],[9.3,5667],[7.5,5750],[6.1,5834],[4.9,5917],[4.4,6001],[4.2,6084],[4.2,6167],[4.2,6251],[4.2,6334],[4.8,6417],[6,6501],[6.4,6584],[6.4,6667],[6.4,6751],[6.4,6834],[6.4,6917],[6.4,7001],[6.4,7084],[6.4,7167],[6.4,7251],[6.5,7334],[8.3,7418],[11,7501],[15.5,7584],[19.2,7668],[21.8,7751],[23.6,7834],[26.1,7918],[28,8001],[29.7,8084],[31.1,8168],[32.4,8251],[34.1,8334],[35.5,8418],[36.8,8501],[38.1,8584],[39.6,8668],[40.8,8751],[41.9,8834],[42.6,8918],[43.3,9001],[44.3,9085],[45,9168],[45.5,9251],[46,9335],[46.1,9418],[46.1,9501],[46.7,9585],[47,9668],[47.2,9751],[47.6,9835],[48,9918],[48.2,10001],[48.4,10085],[48.8,10168],[49.1,10251],[49.2,10335],[49.4,10418],[49.4,10501],[49.4,10585],[49.6,10668],[49.8,10751],[49.9,10835],[49.9,10918],[49.9,11001],[49.9,11085],[49.9,11168],[49.9,11252],[49.9,11335],[49.9,11418],[49.9,11502],[49.9,11585],[49.9,11668]]",1,0,436.4235,438.5071,49.89583333,0.4024,"[{""rating"":49.895833333333336,""responseTime"":0.4023999999761827}]",space,1.5626,,438.5071,Half the time,50,438.5081,,,[],,0,13,13,13,1,audio/Narrative8Situation4.wav,audio/Narrative7Situation4.wav,audio/Narrative6Situation4.wav,audio/Narrative5Situation4.wav,3,3,2,1,,,,,,,,,,,,,,,,,,,,,,,,,,,,,,,,,,,,,,,
,,,,,,5671927473f58b000d664293,2024-02-08_16h06.34.755,group3.1-3.2-social-tom,2023.2.2,Win32,59.88023952,65c5074098b851296ff0b7ed,65c541892f0cf4abf4887d22,,,,,,,,,,,,,,,,,,,,,,,,,,,,,438.5082,1,audio/Narrative7Situation5.wav,443.5248,,443.5248,452.0264,"[[999,4],[999,83],[999,166],[999,249],[999,333],[999,416],[999,500],[999,583],[999,666],[999,750],[999,833],[999,916],[999,1000],[999,1083],[999,1166],[999,1250],[999,1333],[999,1416],[999,1500],[999,1583],[999,1666],[999,1750],[999,1833],[999,1916],[999,2000],[999,2083],[999,2167],[999,2250],[999,2333],[999,2417],[999,2500],[999,2583],[999,2666],[999,2750],[999,2833],[999,2917],[999,3000],[999,3083],[999,3167],[999,3250],[999,3333],[999,3417],[999,3500],[999,3584],[999,3667],[999,3750],[999,3834],[999,3917],[999,4000],[999,4084],[999,4167],[999,4250],[999,4334],[999,4417],[999,4500],[999,4584],[999,4667],[999,4750],[999,4834],[999,4917],[999,5000],[999,5084],[999,5167],[999,5250],[999,5334],[999,5417],[999,5500],[999,5584],[999,5667],[999,5750],[999,5834],[999,5917],[999,6001],[999,6084],[999,6167],[999,6251],[999,6334],[999,6417],[999,6501],[999,6584],[999,6667],[999,6751],[999,6834],[999,6917],[999,7001],[999,7084],[999,7168],[999,7251],[999,7334],[999,7418],[999,7501],[999,7584],[999,7668],[999,7751],[999,7834],[999,7918],[999,8001],[999,8084],[999,8168],[999,8251],[37.3,8334],[33.8,8418],[32.9,8501]]",1,0,452.0265,454.9104,34.6875,0.6693,"[{""rating"":34.6875,""responseTime"":0.6693000000119014}]",space,2.3515,,454.9104,All the time,100,454.9117,,,[],,0,14,14,14,1,audio/Narrative8Situation5.wav,audio/Narrative7Situation5.wav,audio/Narrative6Situation5.wav,audio/Narrative5Situation5.wav,2,5,2,5,,,,,,,,,,,,,,,,,,,,,,,,,,,,,,,,,,,,,,,
,,,,,,5671927473f58b000d664293,2024-02-08_16h06.34.755,group3.1-3.2-social-tom,2023.2.2,Win32,59.88023952,65c5074098b851296ff0b7ed,65c541892f0cf4abf4887d22,,,,,,,,,,,,,,,,,,,,,,,,,,,,,454.9119,1,audio/Narrative7Situation6.wav,457.9276,,457.9276,467.8963,"[[33.8,9335],[26.7,9418],[26.1,9501],[26.1,9585],[26.1,9668],[26.1,9751],[26.1,9835],[26.1,9918]]",1,0,467.8964,471.1469,26.14583333,0.7556,"[{""rating"":26.145833333333336,""responseTime"":0.7556000000238896}]",space,2.7133,,471.1471,All the time,100,471.1482,,,[],,0,15,15,15,1,audio/Narrative8Situation6.wav,audio/Narrative7Situation6.wav,audio/Narrative6Situation6.wav,audio/Narrative5Situation6.wav,2,3,2,3,,,,,,,,,,,,,,,,,,,,,,,,,,,,,,,,,,,,,,,
,,,,,,5671927473f58b000d664293,2024-02-08_16h06.34.755,group3.1-3.2-social-tom,2023.2.2,Win32,59.88023952,65c5074098b851296ff0b7ed,65c541892f0cf4abf4887d22,,,,,,,,,,,,,,,,,,,,,,,,,,,,,471.1483,1,audio/Narrative7Situation7.wav,476.1645,,476.1646,493.3512,"[[26.4,7418],[29.8,7501],[30.6,7584],[31,7668],[31.3,7751],[31.7,7835],[32.8,7918],[33.8,8001],[34.1,8084],[34.2,8168],[34.3,8251],[34.6,8334],[34.6,8418],[34.6,8501],[34.6,8585],[34.6,8668],[34.6,8751],[34.6,8834],[34.6,8918],[34.6,9001],[34.6,9085],[34.6,9168],[34.6,9251],[34.6,9335],[34.6,9418],[34.6,9501],[34.6,9585],[34.6,9668],[34.6,9751],[34.6,9835],[34.9,9918],[35.6,10001],[36.7,10085],[37.6,10168],[38.3,10252],[39.4,10335],[40.7,10418],[41.9,10502],[42.2,10585],[42.3,10668],[42.4,10752],[42.4,10835],[42.4,10918],[42.4,11002],[42.4,11085],[42.4,11168],[42.4,11252],[42.4,11335],[42.4,11418],[42.4,11502],[42.4,11585],[42.4,11668],[42.4,11752],[42.4,11835],[42.4,11918],[42.4,12002],[42.4,12085],[42.4,12169],[42.4,12252],[42.4,12335],[42.4,12419],[42.4,12502],[42.5,12586],[43,12669],[44,12752],[45,12835],[46.1,12919],[47.8,13002],[49.5,13085],[50,13169],[50.1,13252],[50.1,13335],[50.2,13419],[50.2,13502],[50.2,13585],[50.2,13669],[50.2,13752],[50.2,13835],[50.2,13919],[50.2,14002],[50.2,14086],[50.2,14169],[50.2,14252],[50.2,14336],[50.2,14419],[50.2,14502],[50.2,14586],[50.2,14669],[50.2,14752],[50.2,14836],[50.2,14919],[50.2,15002],[50.2,15086],[50.2,15169],[50.2,15252],[50.2,15336],[50.2,15419],[50.2,15502],[50.2,15586],[50.2,15669],[50.2,15752],[50.2,15836],[50.2,15919],[50.2,16002],[50.2,16086],[50.2,16169],[50.2,16252],[50.2,16336],[50.2,16419],[50.2,16503],[50.2,16586],[50.2,16669],[50.2,16753],[50.2,16836],[50.2,16919],[50.2,17003],[50.2,17086],[50.2,17169]]",1,0,493.3513,495.7684,50.20833333,1.1038,"[{""rating"":50.208333333333336,""responseTime"":1.1038000000119155}]",space,1.8909,,495.7684,All the time,100,495.7693,,,[],,0,16,16,16,1,audio/Narrative8Situation7.wav,audio/Narrative7Situation7.wav,audio/Narrative6Situation7.wav,audio/Narrative5Situation7.wav,3,5,5,4,,,,,,,,,,,,,,,,,,,,,,,,,,,,,,,,,,,,,,,
,,,,,,5671927473f58b000d664293,2024-02-08_16h06.34.755,group3.1-3.2-social-tom,2023.2.2,Win32,59.88023952,65c5074098b851296ff0b7ed,65c541892f0cf4abf4887d22,,,,,,,,,,,,,,,,,,,,,,,,,,,,,495.7694,1,audio/Narrative7Situation8.wav,497.7854,,497.7855,507.8207,[],1,0,507.8207,509.5044,50.20833333,0.1271,"[{""rating"":50.208333333333336,""responseTime"":0.12709999996422994}]",space,1.1652,,509.5045,All the time,100,509.5052,,,[],,0,17,17,17,1,audio/Narrative8Situation8.wav,audio/Narrative7Situation8.wav,audio/Narrative6Situation8.wav,audio/Narrative5Situation8.wav,3,2,5,3,,,,,,,,,,,,,,,,,,,,,,,,,,,,,,,,,,,,,,,
,,,,,,5671927473f58b000d664293,2024-02-08_16h06.34.755,group3.1-3.2-social-tom,2023.2.2,Win32,59.88023952,65c5074098b851296ff0b7ed,65c541892f0cf4abf4887d22,,,,,,,,,,,,,,,,,,,,,,,,,,,,,509.5053,1,audio/Narrative7Situation9.wav,511.5214,,511.5214,520.1399,"[[47.8,1833],[46.5,1917],[43.9,2000],[40.2,2083],[37.7,2167],[35,2250],[30.4,2333],[26.1,2417],[21.8,2500],[19.6,2584],[17.3,2667],[16.4,2750],[16.4,2833],[16.4,2917],[16.4,3000],[16.4,3083],[16.4,3167],[16.9,3250],[17.8,3334],[18.8,3417],[19.4,3500],[20,3584],[20.8,3667],[21.4,3750],[21.7,3834],[22.3,3917],[23.4,4000],[24.3,4084],[24.7,4167],[24.8,4250],[24.8,4334],[24.8,4417],[24.9,4500],[25.1,4584],[25.2,4667],[25.2,4750],[25.2,4834],[25.2,4917],[25.2,5000],[25.2,5084],[25.2,5167],[25.3,5251],[25.3,5334],[25.4,5417],[25.4,5501],[25.5,5584],[25.6,5667],[25.6,5751],[25.6,5834],[26.7,5918],[28.9,6001],[31.4,6084],[34.7,6168],[39.1,6251],[40.8,6334],[41.3,6418],[41.8,6501],[41.9,6584],[41.9,6668],[41.9,6751],[41.9,6834],[41.9,6918],[41.9,7001],[41.9,7084],[41.9,7168],[41.9,7251],[41.9,7334],[41.9,7418],[41.9,7501],[42.1,7584],[42.5,7668],[43.2,7751],[44,7835],[44.9,7918],[46.1,8001],[47,8085],[47.4,8168],[47.9,8251],[48.4,8335],[48.9,8418],[49.2,8501],[49.4,8585]]",1,0,520.1399,522.3069,49.47916667,0.8389,"[{""rating"":49.47916666666667,""responseTime"":0.8388999999760927}]",space,1.6381,,522.3069,All the time,100,522.3078,,,[],,0,18,18,18,1,audio/Narrative8Situation9.wav,audio/Narrative7Situation9.wav,audio/Narrative6Situation9.wav,audio/Narrative5Situation9.wav,3,2,4,3,,,,,,,,,,,,,,,,,,,,,,,,,,,,,,,,,,,,,,,
,,,,,,5671927473f58b000d664293,2024-02-08_16h06.34.755,group3.1-3.2-social-tom,2023.2.2,Win32,59.88023952,65c5074098b851296ff0b7ed,65c541892f0cf4abf4887d22,,,,,,,,,,,,,,,,,,,,,,,,,,,527.78,530.3584,530.3698,2,audio/Narrative13Situation2.wav,530.3698,,530.3699,560.1143,"[[49,5573],[47.7,5656],[46.5,5739],[44.8,5823],[43.4,5906],[41.8,5989],[40,6073],[38.3,6156],[36.9,6240],[35.5,6323],[34,6406],[31.7,6489],[29.3,6573],[28.1,6656],[27.2,6739],[25.9,6823],[24.7,6906],[24.3,6989],[24.3,7073],[24.3,7156],[24.2,7240],[22.8,7323],[21.4,7406],[19.5,7490],[18,7573],[15.5,7656],[14.2,7740],[14,7823],[13.8,7906],[13.8,7990],[13.8,8073],[13.8,8156],[13.8,8240],[13.8,8323],[13.8,8406],[13.8,8490],[13.8,8573],[13.8,8656],[13.8,8740],[13.8,8823],[13.8,8906],[13.8,8990],[13.8,9073],[13.8,9156],[13.8,9240],[14.1,9323],[14.5,9407],[15.3,9490],[16.1,9573],[17.2,9657],[17.9,9740],[18.4,9823],[18.9,9907],[19.1,9990],[19.4,10073],[19.6,10157],[19.7,10240],[19.7,10323],[19.8,10407],[19.9,10490],[20,10573],[20,10657],[20,10740],[20.1,10823],[20.2,10907],[20.2,10990],[20.2,11073],[20.2,11157],[20.2,11240],[20.2,11323],[20.2,11407],[20.2,11490],[20.2,11574],[20.2,11657],[20.2,11740],[20.2,11824],[20.2,11907],[20.2,11990],[20.2,12074],[20.2,12157],[20.2,12240],[20.2,12324],[20.2,12407],[20.2,12490],[20.2,12574],[20.2,12657],[20.2,12740],[20.2,12824],[20.2,12907],[20.2,12990],[20.2,13074],[20.2,13157],[20.2,13241],[20.2,13324],[20.2,13407],[20.2,13491],[20.2,13574],[20.2,13657],[20.2,13741],[20.2,13824],[20.2,13907],[20.2,13991],[20.2,14074],[20.2,14158],[20.2,14241],[20.2,14324],[20.2,14408],[20.2,14491],[20.2,14574],[19,14658],[18,14741],[16.9,14824],[15.1,14908],[13.9,14991],[12.6,15074],[11.5,15158],[10.2,15241],[8.3,15324],[7.1,15408],[6.8,15491],[6.8,15574],[8.9,15658],[10.9,15741],[12.4,15825],[14.1,15908],[15.5,15991],[16.1,16075],[16.7,16158],[17.3,16241],[18.6,16325],[19.8,16408],[20.3,16491],[20.4,16575],[20.4,16658],[20.4,16741],[20.4,16825],[20.4,16908],[20.4,16992],[20.4,17075],[19.1,17158],[17.8,17242],[17,17325],[15.6,17408],[14.9,17492],[14.2,17575],[13.4,17658],[12.5,17742],[11.3,17825],[10.5,17908],[10.1,17992],[9.3,18075],[8.9,18158],[8.9,18242],[8.9,18325],[8.9,18408],[8.9,18492],[8.9,18575],[8.9,18658],[8.9,18742],[8.9,18825],[8.9,18908],[8.9,18992],[8.9,19075],[8.9,19158],[8.9,19242],[8.9,19325],[8.9,19408],[8.9,19492],[8.9,19575],[8.9,19658],[8.9,19742],[8.9,19825],[8.9,19909],[8.9,19992],[8.9,20075],[8.9,20159],[8.9,20242],[8.9,20325],[8.9,20409],[8.9,20492],[8.9,20576],[8.9,20659],[8.9,20742],[8.9,20825],[8.9,20909],[8.9,20992],[8.9,21076],[8.9,21159],[8.9,21242],[8.9,21326],[8.9,21409],[8.9,21492],[8.9,21576],[8.9,21659],[8.9,21742],[8.9,21826],[8.9,21909],[8.9,21992],[8.9,22076],[8.9,22159],[8.9,22242],[8.9,22326],[8.9,22409],[8.9,22492],[8.9,22576],[8.9,22659],[12,22743],[14.5,22826],[15.8,22909],[17.3,22993],[18.4,23076],[18.6,23159],[18.6,23242],[18.6,23326],[19,23409],[22.2,23493],[27.1,23576],[29.9,23659],[32.1,23743],[35.3,23826],[36.5,23910],[37,23993],[37.3,24076],[37.7,24159],[37.9,24243],[38.2,24326],[38.3,24409],[38.3,24493],[38.4,24576],[38.4,24659],[38.4,24743],[38.4,24826],[38.4,24909],[38.4,24993],[38.4,25076],[38.4,25160],[38.4,25243],[38.4,25326],[38.4,25410],[38.4,25493],[38.8,25577],[39.3,25660],[39.9,25743],[40.6,25827],[41.6,25910],[42.7,25993],[43,26077],[43,26160],[43.1,26243],[43.1,26327],[43.1,26410],[43.1,26493],[43.1,26577],[43.1,26660],[43.1,26743],[43.1,26827],[43.1,26910],[43.1,26993],[43.1,27077],[43.1,27160],[43.1,27243],[43.1,27327],[43.1,27410],[43.1,27493],[43.1,27577],[43.1,27660],[43.1,27743],[43.1,27827],[43.1,27910],[43.1,27994],[43.1,28077],[43.1,28160],[43.1,28243],[43.1,28327],[43.1,28410],[43.6,28494],[45.1,28577],[46,28660],[47.1,28744],[48.2,28827],[49.1,28910],[50,28994],[50.4,29077],[50.4,29160],[50.4,29244],[50.4,29327],[50.4,29410],[50.4,29494],[50.4,29577],[50.4,29660],[50.4,29744]]",1,0,560.1144,560.1153,,,[],,,,560.1153,Half the time,50,560.1163,,,[],,0,0,0,0,1,audio/Narrative13Situation2.wav,audio/Narrative13Situation2.wav,audio/Narrative13Situation2.wav,audio/Narrative13Situation2.wav,2,2,2,2,,,,,522.3083,527.7749,space,4.9422,,,,,,,,,,,,,,,,,,,,,,,,,,,,,,,
,,,,,,5671927473f58b000d664293,2024-02-08_16h06.34.755,group3.1-3.2-social-tom,2023.2.2,Win32,59.88023952,65c5074098b851296ff0b7ed,65c541892f0cf4abf4887d22,,,,,,,,,,,,,,,,,,,,,,,,,,,,,560.1164,2,audio/Narrative6Situation1.wav,562.1315,,562.1315,588.72,"[[50.3,5917],[49.8,6001],[49,6084],[47.5,6167],[45.3,6251],[42.9,6334],[40.7,6418],[39.3,6501],[38,6584],[36,6667],[33.8,6751],[32.2,6834],[32.2,6917],[32.2,7001],[32.2,7084],[32.2,7167],[29.9,7251],[28.3,7334],[28.2,7418],[28.2,7501],[28.2,7584],[28.2,7667],[28.2,7751],[28.2,7834],[28.2,7918],[28.2,8001],[28.2,8084],[28.2,8168],[28.2,8251],[28.2,8334],[28.2,8418],[28.2,8501],[28.2,8584],[28.2,8668],[28.2,8751],[28.2,8834],[28.2,8918],[28.2,9001],[28.2,9084],[28.2,9168],[29.9,9251],[31.8,9335],[33.4,9418],[35.2,9501],[37.8,9585],[40.3,9668],[42.8,9751],[45.3,9835],[47.1,9918],[49,10001],[50.1,10085],[50.1,10168],[50.1,10251],[50.1,10335],[50.1,10418],[50.1,10501],[50.1,10585],[50.1,10668],[50.1,10751],[50.1,10835],[50.1,10918],[50.1,11001],[50.1,11085],[50.1,11168],[50.1,11251],[50.1,11335],[50.1,11418],[50.1,11502],[50.1,11585],[50.1,11668],[50.1,11751],[50.1,11835],[50.1,11918],[50.1,12002],[50.1,12085],[50.1,12168],[50.1,12252],[50.1,12335],[50.1,12418],[50.2,12502],[50.9,12585],[51,12668],[51.5,12752],[52.6,12835],[53.9,12919],[56.4,13002],[58.1,13085],[60.1,13169],[62.1,13252],[63.6,13335],[65.3,13419],[67.3,13502],[68.5,13586],[70,13669],[71.1,13752],[72.3,13836],[73.2,13919],[74.5,14002],[75.3,14086],[75.7,14169],[75.8,14252],[75.8,14335],[75.8,14419],[75.8,14502],[75.8,14586],[75.9,14669],[75.9,14752],[75.9,14836],[75.9,14919],[75.9,15002],[75.9,15086],[75.9,15169],[75.9,15252],[75.9,15336],[75.9,15419],[75.9,15502],[75.9,15586],[75.9,15669],[75.9,15752],[75.9,15836],[75.9,15919],[75.9,16002],[75.9,16086],[75.9,16169],[75.9,16253],[75.9,16336],[75.9,16419],[75.9,16503],[75.9,16586],[75.9,16669],[75.9,16753],[75.9,16836],[75.9,16919],[75.9,17003],[75.9,17086],[75.9,17169],[75.9,17253],[75.9,17336],[75.9,17419],[75.9,17503],[75.9,17586],[75.9,17669],[75.9,17753],[75.9,17836],[75.9,17919],[75.9,18003],[75.9,18086],[75.9,18169],[75.9,18253],[75.9,18336],[75.9,18420],[75.9,18503],[75.9,18586],[75.9,18670],[75.9,18753],[75.9,18836],[75.9,18920],[75.9,19003],[75.9,19086],[75.9,19170],[75.9,19253],[75.9,19336],[75.9,19420],[75.9,19503],[75.9,19586],[75.9,19670],[75.9,19753],[75.9,19836],[75.9,19920],[75.9,20003],[75.9,20086],[75.9,20170],[75.9,20253],[75.9,20337],[75.9,20420],[75.9,20503],[75.9,20587],[75.9,20670],[75.9,20753],[75.9,20837],[75.9,20920],[75.9,21003],[75.9,21087],[75.9,21170],[75.9,21253],[75.9,21337],[75.9,21420],[75.9,21504],[75.9,21587],[75.9,21670],[75.9,21754],[75.9,21837],[75.9,21920],[75.9,22004],[75.9,22087],[75.9,22170],[75.9,22254],[75.9,22337],[75.9,22420],[75.9,22504],[75.9,22587],[75.9,22671],[75.9,22754],[75.9,22837],[75.9,22921],[75.9,23004],[75.9,23087],[75.9,23171],[75.9,23254],[75.9,23337],[75.9,23421],[75.9,23504],[75.9,23587],[75.9,23671],[75.9,23754],[75.9,23837],[75.9,23921],[76.5,24004],[77.5,24087],[78.3,24171],[79.3,24254],[80.1,24338],[80.5,24421],[80.8,24504],[81.4,24588],[81.9,24671],[82.3,24754],[82.8,24838],[83.1,24921],[83.4,25004],[83.4,25088],[83.4,25171],[83.5,25254],[83.5,25338],[83.5,25421],[83.5,25504],[83.5,25588],[83.5,25671],[83.5,25754],[83.5,25838],[83.5,25921],[83.5,26004],[83.5,26088],[83.5,26171],[83.5,26254],[83.5,26338],[83.5,26421],[83.5,26504],[83.5,26588]]",1,0,588.72,591.3538,83.54166667,0.5379,"[{""rating"":83.54166666666667,""responseTime"":0.5378999999761618}]",space,2.097,,591.3539,All the time,100,591.3551,,,[],,0,1,1,1,1,audio/Narrative7Situation1.wav,audio/Narrative8Situation1.wav,audio/Narrative5Situation1.wav,audio/Narrative6Situation1.wav,2,5,5,2,,,,,,,,,,,,,,,,,,,,,,,,,,,,,,,,,,,,,,,
,,,,,,5671927473f58b000d664293,2024-02-08_16h06.34.755,group3.1-3.2-social-tom,2023.2.2,Win32,59.88023952,65c5074098b851296ff0b7ed,65c541892f0cf4abf4887d22,,,,,,,,,,,,,,,,,,,,,,,,,,,,,591.3554,2,audio/Narrative6Situation2.wav,594.3712,,594.3712,622.8768,"[[999,4],[999,83],[999,166],[999,250],[999,333],[999,416],[999,499],[999,583],[999,666],[999,749],[999,833],[999,916],[999,1000],[999,1083],[999,1166],[999,1250],[999,1333],[999,1416],[999,1500],[999,1583],[999,1666],[999,1750],[999,1833],[999,1916],[999,2000],[999,2083],[999,2166],[999,2250],[999,2333],[999,2416],[999,2500],[999,2583],[999,2667],[999,2750],[999,2833],[999,2917],[999,3000],[999,3083],[999,3167],[999,3250],[999,3333],[999,3417],[999,3500],[999,3583],[999,3667],[999,3750],[999,3833],[999,3917],[999,4000],[999,4083],[999,4167],[999,4250],[999,4334],[999,4417],[999,4500],[999,4584],[999,4667],[999,4750],[999,4834],[999,4917],[999,5000],[999,5084],[999,5167],[999,5250],[999,5334],[999,5417],[999,5500],[999,5584],[999,5667],[999,5750],[999,5834],[999,5917],[999,6000],[999,6084],[999,6167],[999,6250],[999,6334],[999,6417],[999,6501],[999,6584],[999,6667],[999,6751],[999,6834],[999,6917],[999,7001],[999,7084],[999,7167],[999,7251],[999,7334],[999,7418],[999,7501],[999,7584],[999,7668],[999,7751],[999,7834],[999,7918],[999,8001],[999,8084],[31,8168],[29.9,8251],[29.1,8334],[29.1,8418],[29.1,8501],[29.1,8584],[29.1,8668],[29.1,8751],[29.1,8834],[29.1,8918],[29.1,9001],[29.1,9084],[29.1,9168],[29.1,9251],[29.1,9334],[29.1,9418],[29.1,9501],[29.1,9585],[29.1,9668],[29.1,9751],[29.1,9835],[29.1,9918],[29.1,10001],[29.1,10085],[29.1,10168],[29.1,10251],[29.1,10335],[29.1,10418],[29.1,10501],[29.1,10585],[29.1,10668],[29.1,10751],[29.1,10835],[29.1,10918],[29.1,11001],[29.1,11085],[29.1,11168],[29.1,11252],[29.1,11335],[29.1,11418],[29.1,11502],[29.1,11585],[29.1,11668],[29.1,11752],[29.1,11835],[29.1,11918],[29.1,12002],[29.1,12085],[29.1,12168],[29.1,12252],[29.1,12335],[29.1,12418],[29.1,12502],[29.1,12585],[29.1,12668],[29.1,12752],[29.1,12835],[29.1,12918],[29.1,13002],[29.1,13085],[29.1,13169],[29.1,13252],[29.1,13335],[29.1,13419],[29.1,13502],[29.1,13585],[29.1,13669],[29.1,13752],[29.1,13835],[29.1,13919],[29.1,14002],[29.1,14085],[29.1,14169],[29.1,14252],[29.1,14335],[29.1,14419],[29.1,14502],[29.1,14585],[29.1,14669],[29.1,14752],[29.1,14836],[29.1,14919],[29.1,15002],[29.1,15086],[29.1,15169],[29.1,15252],[29.1,15336],[29.1,15419],[29.1,15502],[29.1,15586],[29.1,15669],[29.1,15752],[29.1,15836],[29.1,15919],[29.1,16002],[29.1,16086],[29.1,16169],[29.1,16252],[29.1,16336],[29.1,16419],[29.8,16503],[31.1,16586],[31.8,16669],[32.6,16753],[33.6,16836],[35.4,16919],[36.9,17003],[39,17086],[41.7,17169],[44.1,17253],[46.1,17336],[48.2,17420],[49.9,17503],[50.6,17586],[50.7,17669],[50.7,17753],[50.7,17836],[50.7,17919],[50.7,18003],[50.7,18086],[50.7,18170],[50.7,18253],[50.7,18336],[50.7,18419],[50.7,18503],[50.7,18586],[50.7,18670],[50.7,18753],[50.7,18836],[50.7,18920],[50.7,19003],[50.7,19086],[50.7,19170],[50.7,19253],[50.7,19336],[50.7,19420],[50.7,19503],[50.7,19586],[50.7,19670],[50.7,19753],[50.7,19837],[50.7,19920],[50.7,20003],[50.7,20087],[50.7,20170],[50.7,20253],[50.7,20337],[50.7,20420],[50.7,20503],[50.7,20587],[50.7,20670],[50.7,20753],[50.7,20837],[50.7,20920],[51.1,21004],[51.6,21087],[51.6,21170],[51.6,21253],[51.6,21337],[51.6,21420],[51.6,21503],[51.9,21587],[52.5,21670],[53.3,21754],[54.1,21837],[55.9,21920],[57.6,22004],[58.5,22087],[59.3,22170],[59.9,22254],[60.3,22337],[60.8,22420],[61.4,22504],[62.8,22587],[64.9,22671],[67.2,22754],[69.4,22837],[71,22921],[72.3,23004],[73.1,23087],[74.4,23171],[75.1,23254],[76,23337],[76.5,23421],[76.5,23504],[76.5,23587],[76.5,23671],[76.5,23754],[76.5,23837],[76.5,23921],[76.5,24004],[76.5,24087],[76.5,24171],[76.5,24254],[76.5,24337],[76.5,24421],[76.5,24504],[76.5,24588],[76.5,24671],[76.5,24754],[76.5,24838],[76.5,24921],[76.5,25004],[76.5,25088],[76.5,25171],[76.5,25254],[76.5,25338],[76.5,25421],[76.5,25504],[76.5,25588],[76.5,25671],[76.5,25754],[76.5,25838],[76.5,25921],[76.5,26004],[76.5,26088],[76.5,26171],[76.5,26254],[76.5,26338],[76.5,26421],[76.5,26504],[76.5,26588],[76.5,26671],[76.5,26755],[76.5,26838],[76.5,26921],[76.5,27005],[76.5,27088],[76.5,27171],[76.5,27255],[76.5,27338],[76.5,27421],[76.5,27505],[76.5,27588],[76.5,27671],[76.5,27755],[76.5,27838],[77.4,27922],[79.6,28005],[81.9,28088],[83.5,28172],[84.4,28255],[84.4,28338],[84.4,28421],[84.4,28505]]",1,0,622.8769,624.8437,85,0.6183,"[{""rating"":85,""responseTime"":0.6183000000119137}]",space,1.4205,,624.8438,Half the time,50,624.845,,,[],,0,2,2,2,1,audio/Narrative7Situation2.wav,audio/Narrative8Situation2.wav,audio/Narrative5Situation2.wav,audio/Narrative6Situation2.wav,3,3,3,3,,,,,,,,,,,,,,,,,,,,,,,,,,,,,,,,,,,,,,,
,,,,,,5671927473f58b000d664293,2024-02-08_16h06.34.755,group3.1-3.2-social-tom,2023.2.2,Win32,59.88023952,65c5074098b851296ff0b7ed,65c541892f0cf4abf4887d22,,,,,,,,,,,,,,,,,,,,,,,,,,,,,624.8451,2,audio/Narrative6Situation3.wav,629.8613,,629.8613,642.4639,"[[999,4],[999,83],[999,166],[999,249],[999,333],[999,416],[999,500],[999,583],[999,666],[999,750],[999,833],[999,916],[999,1000],[999,1083],[999,1166],[999,1250],[999,1333],[999,1416],[999,1500],[999,1583],[999,1666],[999,1750],[999,1833],[999,1917],[999,2000],[999,2083],[999,2167],[999,2250],[999,2333],[999,2417],[999,2500],[999,2583],[999,2667],[999,2750],[999,2833],[999,2917],[999,3000],[999,3083],[999,3167],[999,3250],[999,3333],[999,3417],[999,3500],[999,3584],[999,3667],[999,3750],[999,3834],[999,3917],[999,4000],[999,4084],[999,4167],[999,4250],[999,4334],[999,4417],[999,4500],[999,4584],[999,4667],[999,4751],[999,4834],[999,4917],[999,5001],[999,5084],[999,5167],[999,5250],[999,5334],[999,5417],[999,5501],[999,5584],[999,5667],[999,5751],[999,5834],[999,5917],[999,6001],[999,6084],[999,6167],[999,6251],[999,6334],[999,6417],[999,6501],[999,6584],[999,6668],[999,6751],[999,6834],[999,6918],[999,7001],[999,7084],[999,7168],[999,7251],[49.7,7334],[49.7,7418],[49.7,7501],[49.7,7584],[49.7,7668],[49.7,7751],[49.7,7834],[49.7,7918],[49.7,8001],[49.7,8084],[49.7,8168],[49.7,8251],[49.7,8334],[49.7,8418],[49.7,8501],[49.7,8584],[49.7,8668],[49.7,8751],[49.7,8835],[49.7,8918],[49.7,9001],[49.7,9085],[49.7,9168],[49.7,9251],[49.7,9335],[49.7,9418],[49.7,9501],[49.7,9585],[49.7,9668],[49.7,9751],[49.7,9835],[49.7,9918],[49.7,10002],[49.7,10085],[49.7,10168],[49.7,10251],[49.7,10335],[49.7,10418],[49.7,10502],[49.7,10585],[49.7,10668],[49.7,10752],[49.7,10835],[49.7,10919],[49.7,11002],[49.7,11085],[49.7,11168],[49.7,11252],[49.7,11335],[49.7,11418],[49.7,11502],[49.7,11585],[49.7,11668],[49.7,11752],[49.7,11835],[49.7,11918],[49.7,12002],[53.3,12085],[58.1,12169],[61.5,12252],[65.2,12335],[68,12419],[69,12502],[69.2,12585]]",1,0,642.464,644.4642,71.14583333,0.5967,"[{""rating"":71.14583333333333,""responseTime"":0.5966999999880045}]",space,1.4578,,644.4642,Half the time,50,644.465,,,[],,0,3,3,3,1,audio/Narrative7Situation3.wav,audio/Narrative8Situation3.wav,audio/Narrative5Situation3.wav,audio/Narrative6Situation3.wav,8,4,3,5,,,,,,,,,,,,,,,,,,,,,,,,,,,,,,,,,,,,,,,
,,,,,,5671927473f58b000d664293,2024-02-08_16h06.34.755,group3.1-3.2-social-tom,2023.2.2,Win32,59.88023952,65c5074098b851296ff0b7ed,65c541892f0cf4abf4887d22,,,,,,,,,,,,,,,,,,,,,,,,,,,,,644.4651,2,audio/Narrative6Situation4.wav,646.4812,,646.4812,659.0837,"[[71,7168],[69.8,7251],[69.1,7334],[68.8,7418],[68.5,7501],[68.2,7584],[67.8,7668],[67.5,7751],[67.1,7835],[66.5,7918],[65.3,8001],[64.3,8085],[62.6,8168],[60.5,8251],[60,8335],[59.4,8418],[59.3,8501],[59.3,8585],[59.3,8668],[59.3,8751],[59.3,8835],[59.3,8918],[59.3,9001],[59.3,9085],[59.3,9168],[59.3,9251],[59.3,9335],[59.3,9418],[59.3,9501],[59.3,9585],[59.3,9668],[59.3,9751],[59.3,9835],[59.3,9918],[59.3,10001],[59.3,10085],[59.3,10168],[59.3,10252],[59.3,10335],[59.3,10418],[59.3,10502],[59.3,10585],[59.3,10668],[59.3,10752],[59.3,10835],[59.3,10918],[59.3,11002],[59.3,11085],[59.5,11169],[61.3,11252],[63.5,11335],[66.4,11418],[68,11502],[70.1,11585],[72.2,11668],[74.3,11752],[76.6,11835],[79.2,11919],[81,12002],[84.8,12085],[85.6,12169],[86.3,12252],[86.3,12335],[86.3,12419],[86.3,12502],[86.3,12585]]",1,0,659.0838,661.2341,86.25,0.4711,"[{""rating"":86.25,""responseTime"":0.47110000002385277}]",space,1.6227,,661.2342,Half the time,50,661.235,,,[],,0,4,4,4,1,audio/Narrative7Situation4.wav,audio/Narrative8Situation4.wav,audio/Narrative5Situation4.wav,audio/Narrative6Situation4.wav,3,3,1,2,,,,,,,,,,,,,,,,,,,,,,,,,,,,,,,,,,,,,,,
,,,,,,5671927473f58b000d664293,2024-02-08_16h06.34.755,group3.1-3.2-social-tom,2023.2.2,Win32,59.88023952,65c5074098b851296ff0b7ed,65c541892f0cf4abf4887d22,,,,,,,,,,,,,,,,,,,,,,,,,,,,,661.235,2,audio/Narrative6Situation5.wav,663.2512,,663.2512,671.2195,"[[84.8,750],[80.9,833],[77.2,916],[72,1000],[63.6,1083],[57.9,1166],[54,1250],[49.6,1333],[45,1417],[40.6,1500],[37,1583],[32.6,1666],[28.3,1750],[26.3,1833],[26.3,1916],[26.3,2000],[26.3,2083],[26.8,2167],[35.2,2250],[42.3,2333],[46.4,2417],[49,2500],[49.3,2583],[49.4,2667],[49.4,2750],[49.4,2833],[49.4,2917],[49.4,3000],[49.4,3083],[49.4,3167],[49.4,3250],[49.4,3333],[49.4,3417],[49.4,3500],[49.4,3583],[49.4,3667],[49.4,3750],[49.4,3833],[49.4,3917],[49.4,4000],[49.4,4083],[49.4,4167],[49.4,4250],[49.4,4334],[49.4,4417],[49.4,4500],[49.4,4584],[49.4,4667],[49.4,4750],[49.4,4834],[49.4,4917],[49.4,5000],[49.4,5084],[49.4,5167],[49.4,5250],[49.4,5334],[49.4,5417],[49.4,5500],[49.4,5584],[49.4,5667],[49.4,5750],[49.4,5834],[51.3,5917],[52.4,6001],[53.6,6084],[55.8,6167],[58.8,6251],[60.7,6334],[63.9,6417],[66,6501],[66.7,6584],[67,6667],[67.1,6751],[67.2,6834],[67.2,6917],[67.7,7001],[69.1,7084],[71.6,7168],[75.3,7251],[82.9,7334],[88.6,7418],[92.2,7501],[95.5,7584],[97.9,7668],[99.9,7751],[100,7834],[100,7918]]",1,0,671.2196,674.4367,99.89583333,1.4902,"[{""rating"":99.89583333333334,""responseTime"":1.4901999999880218}]",space,2.6779,,674.4368,Not at all,0,674.438,,,[],,0,5,5,5,1,audio/Narrative7Situation5.wav,audio/Narrative8Situation5.wav,audio/Narrative5Situation5.wav,audio/Narrative6Situation5.wav,5,2,5,2,,,,,,,,,,,,,,,,,,,,,,,,,,,,,,,,,,,,,,,
,,,,,,5671927473f58b000d664293,2024-02-08_16h06.34.755,group3.1-3.2-social-tom,2023.2.2,Win32,59.88023952,65c5074098b851296ff0b7ed,65c541892f0cf4abf4887d22,,,,,,,,,,,,,,,,,,,,,,,,,,,,,674.4381,2,audio/Narrative6Situation6.wav,676.4538,,676.4538,687.5394,"[[95.6,2333],[93.2,2417],[90.9,2500],[88.6,2583],[87.2,2667],[86,2750],[85.9,2833],[85.9,2917],[85.4,3000],[83.8,3083],[81.7,3167],[79.2,3250],[76,3334],[73.6,3417],[70.9,3500],[68.3,3583],[65.7,3667],[62.4,3750],[59.5,3834],[58.1,3917],[56.8,4000],[55.9,4084],[54.8,4167],[53.6,4250],[52.6,4334],[52,4417],[51.5,4500],[51.1,4584],[51,4667],[51,4750],[51,4834],[51,4917],[51,5000],[50.9,5084],[50.9,5167],[50.9,5251],[50.9,5334],[50.9,5417],[50.9,5501],[50.9,5584],[50.9,5667],[50.6,5751],[49.8,5834],[48.8,5917],[47.7,6001],[46.1,6084],[44.1,6167],[41,6251],[39,6334],[37.7,6417],[35.9,6501],[34.2,6584],[32.5,6668],[31,6751],[30.2,6834],[29.5,6918],[28.8,7001],[27.7,7084],[27.2,7168],[26.9,7251],[26.6,7334],[25.9,7418],[25,7501],[23.9,7584],[22.5,7668],[21.7,7751],[21.1,7834],[21,7918],[21,8001],[21,8084],[21,8168],[21,8251],[21,8335],[21,8418],[21,8501],[21,8584],[21,8668],[21,8751],[21,8834],[21,8918],[21,9001],[21,9084],[21,9168],[21,9251],[21,9334],[21,9418],[21,9501],[21,9585],[21,9668],[21,9751],[21,9835],[21,9918],[21,10001],[21,10085],[21,10168],[22.7,10252],[27.9,10335],[33.1,10418],[38.8,10502],[45.7,10585],[48,10668],[53.6,10752],[64.6,10835],[72.4,10918],[77.2,11002],[83.5,11085]]",1,0,687.5395,691.8402,97.91666667,1.2192,"[{""rating"":97.91666666666667,""responseTime"":1.2191999999880636}]",space,3.7577,,691.8402,Half the time,50,697.808,50,3.3553,"[{""rating"":50.416666666666664,""responseTime"":2.820300000011912},{""rating"":50,""responseTime"":3.35530000001188}]",space,0,6,6,6,1,audio/Narrative7Situation6.wav,audio/Narrative8Situation6.wav,audio/Narrative5Situation6.wav,audio/Narrative6Situation6.wav,3,2,3,2,,,5.4178,,,,,,,,,,,,,,,,,,,,,,,,,,,,,,,,,,,,
,,,,,,5671927473f58b000d664293,2024-02-08_16h06.34.755,group3.1-3.2-social-tom,2023.2.2,Win32,59.88023952,65c5074098b851296ff0b7ed,65c541892f0cf4abf4887d22,,,,,,,,,,,,,,,,,,,,,,,,,,,,,697.8082,2,audio/Narrative6Situation7.wav,702.8089,,702.8089,727.6473,"[[50.3,7501],[50.3,7584],[50.3,7668],[50.3,7751],[50.3,7834],[52.5,7918],[56.3,8001],[63.4,8085],[70.8,8168],[74.5,8251],[77.7,8335],[82,8418],[85.3,8501],[87,8585],[87.2,8668],[87.3,8751],[87.3,8835],[87.3,8918],[87.3,9001],[87.3,9085],[87.3,9168],[87.3,9251],[87.3,9335],[87.3,9418],[87.3,9501],[87.3,9585],[87.3,9668],[87.3,9751],[87.3,9835],[87.3,9918],[87.3,10001],[87.3,10085],[87.3,10168],[87.3,10251],[87.3,10335],[87.3,10418],[87.3,10501],[87.3,10585],[87.3,10668],[87.3,10751],[87.3,10835],[87.3,10918],[87.3,11001],[87.3,11085],[87.3,11168],[87.3,11252],[87.3,11335],[87.3,11418],[87.3,11502],[87.3,11585],[87.3,11668],[87.3,11752],[87.3,11835],[87.3,11918],[87.3,12002],[87.3,12085],[87.3,12168],[87.3,12252],[87.3,12335],[87.3,12418],[87.3,12502],[87.3,12585],[87.3,12669],[87.3,12752],[87.3,12835],[87.3,12919],[87.3,13002],[87.3,13085],[87.3,13169],[87.3,13252],[87.3,13335],[87.3,13419],[87.3,13502],[87.3,13586],[87.3,13669],[87.6,13752],[88.5,13836],[89.4,13919],[90.3,14002],[90.8,14086],[91.7,14169],[92.6,14252],[94,14336],[94.8,14419],[95.5,14502],[95.8,14586],[95.8,14669],[95.8,14752],[95.8,14836],[95.8,14919],[95.8,15002],[96.1,15086],[96.5,15169],[97,15253],[97,15336],[97,15419],[97,15503],[97,15586],[97,15669],[97,15753],[97,15836],[97,15919],[97,16003],[97,16086],[97,16169],[97,16253],[97,16336],[97,16419],[97,16503],[97,16586],[97,16669],[97,16753],[97,16836],[97,16919],[97,17003],[97,17086],[97,17170],[97,17253],[97,17336],[97,17420],[97,17503],[97,17586],[97,17670],[97,17753],[97,17836],[97,17920],[97,18003],[97,18086],[97,18170],[97,18253],[97,18336],[96.7,18420],[96.4,18503],[95.3,18587],[94.7,18670],[94.7,18753],[94.7,18837],[94.7,18920],[94.7,19003],[94.7,19086],[94.7,19170],[94.7,19253],[94.7,19337],[94.7,19420],[94.7,19503],[94.7,19587],[94.7,19670],[94.7,19753],[94.7,19837],[94.7,19920],[94.7,20003],[94.7,20087],[94.7,20170],[94.7,20253],[94.7,20337],[94.7,20420],[95.4,20504],[96.3,20587],[97,20670],[97.9,20754],[99.2,20837],[99.9,20920],[100,21004],[100,21087],[100,21170],[100,21254],[100,21337],[100,21420],[100,21504],[100,21587],[100,21670],[100,21754],[100,21837],[99.2,21921],[97.6,22004],[96.8,22087],[96.6,22171],[96,22254],[96,22337],[96,22421],[96,22504],[96,22587],[96,22671],[96,22754],[96,22837],[96,22921],[96,23004],[96,23087],[96,23171],[96,23254],[96,23337],[96,23421],[96.3,23504],[97.8,23588],[98.6,23671],[99.2,23754],[99.3,23837],[99.3,23921],[99.3,24004],[99.3,24087],[99.3,24171],[99.3,24254],[99.3,24338],[99.3,24421],[97.2,24504],[96.4,24588],[96.4,24671],[96.4,24754],[96.4,24838]]",1,0,727.6474,730.7644,100,1.2573,"[{""rating"":97.8125,""responseTime"":0.7872999999523245},{""rating"":100,""responseTime"":1.2572999999523518}]",space,2.5783,,730.7644,All the time,100,730.7658,,,[],,0,7,7,7,1,audio/Narrative7Situation7.wav,audio/Narrative8Situation7.wav,audio/Narrative5Situation7.wav,audio/Narrative6Situation7.wav,5,3,4,5,,,,,,,,,,,,,,,,,,,,,,,,,,,,,,,,,,,,,,,
,,,,,,5671927473f58b000d664293,2024-02-08_16h06.34.755,group3.1-3.2-social-tom,2023.2.2,Win32,59.88023952,65c5074098b851296ff0b7ed,65c541892f0cf4abf4887d22,,,,,,,,,,,,,,,,,,,,,,,,,,,,,730.7659,2,audio/Narrative6Situation8.wav,735.782,,735.7821,742.6335,"[[98.8,6501],[81.7,6584],[69.9,6668],[68.6,6751],[66.7,6834]]",1,0,742.6336,745.5173,79.27083333,1.2802,"[{""rating"":79.27083333333333,""responseTime"":1.280199999988099}]",space,2.3354,,745.5174,All the time,100,745.5182,,,[],,0,8,8,8,1,audio/Narrative7Situation8.wav,audio/Narrative8Situation8.wav,audio/Narrative5Situation8.wav,audio/Narrative6Situation8.wav,2,3,3,5,,,,,,,,,,,,,,,,,,,,,,,,,,,,,,,,,,,,,,,
,,,,,,5671927473f58b000d664293,2024-02-08_16h06.34.755,group3.1-3.2-social-tom,2023.2.2,Win32,59.88023952,65c5074098b851296ff0b7ed,65c541892f0cf4abf4887d22,,,,,,,,,,,,,,,,,,,,,,,,,,,,,745.5182,2,audio/Narrative6Situation9.wav,749.5348,,749.5348,759.4701,"[[999,4],[999,83],[999,166],[999,249],[999,333],[999,416],[999,500],[999,583],[999,666],[999,750],[999,833],[999,916],[999,1000],[999,1083],[999,1166],[999,1250],[999,1333],[999,1416],[999,1500],[999,1583],[999,1667],[999,1750],[999,1833],[999,1917],[999,2000],[999,2083],[999,2167],[999,2250],[999,2333],[999,2417],[999,2500],[999,2583],[999,2667],[999,2750],[999,2833],[999,2917],[999,3000],[999,3083],[999,3167],[999,3250],[999,3334],[999,3417],[999,3500],[24,3584],[24.5,3667],[25,3750],[25.2,3834],[25.6,3917],[26.8,4000],[28.9,4084],[30.5,4167],[31.6,4250],[33.1,4334],[35.3,4417],[38,4500],[40.6,4584],[42.8,4667],[44.7,4751],[46.8,4834],[48.6,4917],[50,5001],[50.5,5084],[50.6,5167],[50.6,5251],[50.6,5334],[50.6,5417],[50.6,5501],[50.6,5584],[50.6,5667],[50.6,5751],[50.6,5834],[50.6,5917],[50.6,6001],[50.6,6084],[50.6,6167],[50.6,6251],[50.6,6334],[50.6,6417],[50.6,6501],[50.6,6584],[50.6,6667],[50.6,6751],[50.8,6834],[52.8,6918],[54.6,7001],[56.3,7084],[57,7168],[59,7251],[61.3,7334],[63.5,7418],[66.1,7501],[68,7584],[69.5,7668],[71,7751],[72.5,7835],[74.2,7918],[75.9,8001],[77.6,8085],[79.1,8168],[80.2,8251],[81.5,8335],[82.8,8418],[84.7,8501],[86.7,8585],[89.2,8668],[91.4,8751],[92.9,8835],[94.5,8918],[95.9,9001],[96.9,9085],[97.8,9168],[98.9,9251],[100,9335],[100,9418],[100,9501],[100,9585],[100,9668],[100,9751],[100,9835],[100,9918]]",1,0,759.4702,762.7208,99.0625,1.9756,"[{""rating"":99.0625,""responseTime"":1.9756000000237464}]",space,2.7235,,762.7208,All the time,100,762.7217,,,[],,0,9,9,9,1,audio/Narrative7Situation9.wav,audio/Narrative8Situation9.wav,audio/Narrative5Situation9.wav,audio/Narrative6Situation9.wav,2,3,3,4,,,,,,,,,,,,,,,,,,,,,,,,,,,,,,,,,,,,,,,
,,,,,,5671927473f58b000d664293,2024-02-08_16h06.34.755,group3.1-3.2-social-tom,2023.2.2,Win32,59.88023952,65c5074098b851296ff0b7ed,65c541892f0cf4abf4887d22,,,,,,,,,,,,,,,,,,,,,,,,,,,,,762.7217,2,audio/Narrative5Situation1.wav,767.7383,,767.7384,781.0244,"[[98.9,5584],[96.4,5667],[93.8,5751],[89.8,5834],[83.2,5917],[77.1,6001],[70.9,6084],[66.5,6167],[61.1,6251],[56.3,6334],[50.5,6418],[45.3,6501],[42.7,6584],[41.4,6668],[41,6751],[45.5,6834],[49.5,6918],[50.9,7001],[51.8,7084],[51.8,7167],[51.8,7251],[49.2,7334],[49.1,7417],[49.1,7501],[49.1,7584],[50.1,7668],[50.2,7751],[50.2,7834],[50.2,7918],[50.2,8001],[50.2,8084],[50.2,8168],[50.2,8251],[50.1,8335],[50.1,8418],[50.1,8501],[50.1,8584],[50.1,8668],[50.1,8751],[50.1,8835],[50.1,8918],[50.1,9001],[50.1,9084],[50.1,9168],[50.1,9251],[50.1,9335],[50.1,9418],[50.1,9501],[50.1,9585],[50.1,9668],[50.1,9751],[50.1,9835],[50.1,9918],[50.1,10001],[50.1,10085],[50.1,10168],[50.1,10251],[50.1,10335],[50.1,10418],[50.1,10501],[50.1,10585],[50.1,10668],[50.1,10752],[50.1,10835],[50.1,10918],[50.1,11002],[50.1,11085],[50.1,11168],[50.1,11252],[50.1,11335],[50.1,11418],[50.1,11502],[50.1,11585],[50.1,11668],[50.1,11752],[50.1,11835],[50.1,11918],[50.1,12002],[50.1,12085],[50.1,12169],[50.1,12252],[50.1,12335],[50.1,12418],[50.1,12502],[50.1,12585],[50.1,12669],[50.1,12752],[50.1,12835],[50.1,12919],[50.1,13002],[50.1,13085],[50.1,13169],[50.1,13252]]",1,0,781.0244,783.3414,50.10416667,0.4315,"[{""rating"":50.10416666666667,""responseTime"":0.4315000000000282}]",space,1.7766,,783.3414,Not at all,0,783.3426,,,[],,0,10,10,10,1,audio/Narrative8Situation1.wav,audio/Narrative7Situation1.wav,audio/Narrative6Situation1.wav,audio/Narrative5Situation1.wav,5,2,2,5,,,,,,,,,,,,,,,,,,,,,,,,,,,,,,,,,,,,,,,
,,,,,,5671927473f58b000d664293,2024-02-08_16h06.34.755,group3.1-3.2-social-tom,2023.2.2,Win32,59.88023952,65c5074098b851296ff0b7ed,65c541892f0cf4abf4887d22,,,,,,,,,,,,,,,,,,,,,,,,,,,,,783.3427,2,audio/Narrative5Situation2.wav,786.3586,,786.3587,815.8312,"[[48.3,7751],[46.8,7834],[45.2,7918],[43.1,8001],[40.2,8084],[36.6,8168],[32.8,8251],[29.9,8335],[27.4,8418],[24.7,8501],[21,8584],[18.8,8668],[17.2,8751],[15.2,8835],[13.8,8918],[12.9,9001],[12,9085],[11,9168],[9.9,9251],[9.2,9335],[8.9,9418],[8.9,9501],[8.9,9585],[11.1,9668],[14.4,9751],[14.9,9835],[14.9,9918],[14.9,10001],[14.9,10085],[14.9,10168],[16.4,10252],[19.6,10335],[22.1,10418],[23.5,10501],[23.9,10585],[23.9,10668],[23.9,10751],[23.9,10835],[23.9,10918],[23.9,11002],[23.9,11085],[23.9,11168],[23.9,11252],[23.9,11335],[23.9,11418],[23.9,11502],[23.9,11585],[23.9,11668],[23.9,11752],[23.9,11835],[23.9,11918],[23.9,12002],[23.9,12085],[23.9,12168],[23.9,12252],[23.9,12335],[23.9,12418],[23.9,12502],[23.9,12585],[23.9,12669],[23.9,12752],[23.9,12835],[23.9,12919],[23.9,13002],[23.9,13085],[23.9,13169],[23.9,13252],[23.9,13335],[23.9,13419],[23.9,13502],[23.9,13586],[23.9,13669],[23.9,13752],[23.9,13835],[23.9,13919],[23.9,14002],[23.9,14086],[23.9,14169],[23.9,14252],[23.9,14336],[23.9,14419],[23.9,14502],[23.9,14586],[23.9,14669],[23.9,14752],[23.9,14836],[22.9,14919],[21.7,15002],[21.4,15086],[21.4,15169],[21.4,15252],[21.4,15336],[21.4,15419],[21.4,15502],[21.4,15586],[21.4,15669],[21.4,15752],[21.4,15836],[21.4,15919],[21.4,16002],[21.4,16086],[21.4,16169],[21.8,16253],[23.8,16336],[25.7,16419],[27.6,16503],[29.6,16586],[31.8,16669],[33.2,16753],[34.3,16836],[35.7,16919],[39,17003],[41.8,17086],[43,17170],[43.1,17253],[43.1,17336],[43.1,17419],[43.1,17503],[43.1,17586],[43.1,17669],[43.1,17753],[43.1,17836],[43.1,17920],[43.1,18003],[43.1,18086],[43.1,18170],[43.1,18253],[43.1,18336],[43.1,18420],[43.1,18503],[43.1,18586],[43.1,18670],[43.1,18753],[43.1,18837],[43.1,18920],[43.1,19003],[43.1,19087],[43.1,19170],[43.1,19253],[43.1,19337],[43.1,19420],[43.1,19503],[43.1,19587],[43.1,19670],[43.1,19753],[43.9,19837],[44.4,19920],[44.4,20003],[44.8,20087],[46.1,20170],[47.3,20254],[48.4,20337],[49.3,20420],[50,20504],[50.1,20587],[50.1,20670],[50.1,20754],[50.1,20837],[50.1,20920],[50.1,21004],[50.1,21087],[50.1,21170],[50.1,21254],[50.1,21337],[50.1,21420],[50.1,21504],[50.1,21587],[50.1,21670],[50.1,21754],[50.1,21837],[50.1,21920],[50.1,22004],[50.1,22087],[50.1,22170],[50.1,22254],[50.1,22337],[50.1,22420],[50.1,22504],[50.1,22587],[50.1,22670],[50.1,22754],[50.1,22837],[50.1,22921],[50.1,23004],[50.1,23087],[50.1,23170],[50.1,23254],[50.1,23337],[50.1,23421],[50.1,23504],[50.1,23587],[50.1,23671],[50.1,23754],[50.1,23837],[50.1,23921],[50.1,24004],[50.1,24087],[50.1,24171],[50.1,24254],[50.1,24337],[50.1,24421],[50.1,24504],[50.1,24587],[50.1,24671],[50.1,24754],[50.1,24838],[50.1,24921],[50.1,25004],[50.1,25088],[50.1,25171],[50.1,25254],[50.1,25338],[50.1,25421],[50.1,25504],[50.1,25588],[50.1,25671],[50.1,25754],[50.1,25838],[50.1,25921],[50.1,26004],[50.1,26088],[50.1,26171],[50.1,26254],[50.1,26338],[50.1,26421],[50.1,26505],[50.1,26588],[50.1,26671],[50.1,26755],[50.1,26838],[50.1,26921],[50.1,27005],[50.1,27088],[50.1,27171],[50.1,27255],[50.1,27338],[50.1,27421],[50.1,27505],[50.1,27588],[50.2,27672],[51.8,27755],[53.8,27838],[54.9,27922],[56.3,28005],[57.1,28088],[57.5,28172],[57.6,28255],[57.6,28338],[57.6,28422],[57.6,28505],[57.6,28588],[57.6,28672],[57.6,28755],[57.6,28838],[57.6,28922],[57.6,29005],[57.6,29088],[57.6,29172],[57.6,29255],[57.6,29338],[57.6,29422]]",1,0,815.8312,818.6984,57.60416667,1.2596,"[{""rating"":57.604166666666664,""responseTime"":1.25959999996428}]",space,2.3468,,818.6984,Half the time,50,818.6996,,,[],,0,11,11,11,1,audio/Narrative8Situation2.wav,audio/Narrative7Situation2.wav,audio/Narrative6Situation2.wav,audio/Narrative5Situation2.wav,3,3,3,3,,,,,,,,,,,,,,,,,,,,,,,,,,,,,,,,,,,,,,,
,,,,,,5671927473f58b000d664293,2024-02-08_16h06.34.755,group3.1-3.2-social-tom,2023.2.2,Win32,59.88023952,65c5074098b851296ff0b7ed,65c541892f0cf4abf4887d22,,,,,,,,,,,,,,,,,,,,,,,,,,,,,818.6997,2,audio/Narrative5Situation3.wav,821.7156,,821.7156,835.635,"[[46.4,83],[42.4,166],[36.8,2417],[36.8,2500],[36.8,2583],[36.8,2667],[36.8,2750],[36.8,2833],[36.8,2917],[36.8,3000],[36.8,3083],[35.8,3167],[32.8,3250],[30.7,3334],[25.7,3417],[25.2,3500],[25.2,3583],[25.2,3667],[25.2,3750],[25.2,3834],[25.2,3917],[25.2,4000],[25.2,4084],[25.2,4167],[25.2,4250],[25.2,4334],[25.2,4417],[25.2,4500],[25.2,4584],[25.2,4667],[25.2,4750],[25.2,4834],[25.2,4917],[25.2,5000],[25.2,5084],[25.2,5167],[25.2,5250],[25.2,5334],[25.2,5417],[25.2,5501],[25.2,5584],[25.2,5667],[25.2,5751],[25.2,5834],[25.2,5917],[25.2,6001],[25.2,6084],[25.2,6167],[25.2,6251],[25.2,6334],[25.2,6417],[25.2,6501],[25.2,6584],[25.2,6667],[25.2,6751],[25.2,6834],[25.2,6917],[25.2,7001],[25.2,7084],[25.2,7168],[25.2,7251],[25.2,7334],[25.2,7418],[25.2,7501],[25.2,7584],[25.2,7668],[25.2,7751],[25.2,7834],[25.2,7918],[25.2,8001],[25.2,8084],[25.2,8168],[25.2,8251],[25.2,8334],[25.2,8418],[25.2,8501],[25.2,8584],[25.2,8668],[25.2,8751],[25.2,8835],[25.2,8918],[25.2,9001],[25.2,9085],[26.4,9168],[29.3,9251],[31.5,9335],[33.5,9418],[36,9501],[38.2,9585],[40.1,9668],[41.9,9752],[43.6,9835],[45.8,9918],[47.9,10001],[49.2,10085],[50,10168],[50.4,10251],[50.4,10335],[50.4,10418],[50.4,10502],[50.4,10585],[50.4,10668],[50.4,10752],[50.4,10835],[50.4,10918],[50.4,11002],[50.4,11085],[50.4,11168],[50.4,11252],[50.4,11335],[50.4,11418],[50.4,11502],[50.4,11585],[50.4,11668],[50.4,11752],[50.4,11835],[50.4,11918],[50.4,12002],[50.4,12085],[50.4,12169],[50.4,12252],[50.4,12335],[50.4,12419],[50.4,12502],[50.4,12585],[50.4,12669],[50.4,12752],[50.4,12835],[50.4,12919],[50.4,13002],[50.4,13085],[50.4,13169],[51.1,13252],[54.3,13336],[57.9,13419],[61.1,13502],[64.5,13586],[65.7,13669],[66,13752],[66.6,13836],[67.7,13919]]",1,0,835.6351,838.7189,67.91666667,1.5917,"[{""rating"":67.91666666666667,""responseTime"":1.5916999999881227}]",space,2.5505,,838.719,Not at all,0,838.7201,,,[],,0,12,12,12,1,audio/Narrative8Situation3.wav,audio/Narrative7Situation3.wav,audio/Narrative6Situation3.wav,audio/Narrative5Situation3.wav,4,8,5,3,,,,,,,,,,,,,,,,,,,,,,,,,,,,,,,,,,,,,,,
,,,,,,5671927473f58b000d664293,2024-02-08_16h06.34.755,group3.1-3.2-social-tom,2023.2.2,Win32,59.88023952,65c5074098b851296ff0b7ed,65c541892f0cf4abf4887d22,,,,,,,,,,,,,,,,,,,,,,,,,,,,,838.7201,2,audio/Narrative5Situation4.wav,839.7358,,839.7358,860.1231,"[[68,333],[68.1,416],[60.5,1667],[59.7,1750],[58.9,1833],[58.4,1916],[58.3,2000],[58.3,2083],[58.3,2167],[58.3,2250],[58.3,2333],[58.3,2417],[58.3,2500],[58.3,2583],[57.7,2667],[56.6,2750],[55.2,2834],[54.3,2917],[54.1,3000],[50.1,3750],[50.1,3834],[50.1,3917],[48.8,4000],[43.2,4084],[36.7,4167],[30.3,4250],[28.6,4334],[28.5,4417],[28.5,4500],[28.4,4584],[28,4667],[26.8,4750],[25.6,4834],[25.5,4917],[25.5,5000],[25.5,5084],[25.4,5167],[25.4,5250],[25.4,5334],[25.4,5417],[25.5,5500],[25.8,5584],[25.9,5667],[25.9,5750],[25.9,5834],[25.9,5917],[29.4,6001],[34.7,6084],[40,6167],[45,6251],[46.9,6334],[48.8,6418],[50.5,6501],[50.8,6584],[50.8,6667],[50.8,6751],[50.8,6834],[50.8,6918],[50.8,7001],[50.8,7084],[50.8,7168],[50.8,7251],[50.8,7334],[50.8,7418],[50.8,7501],[50.8,7584],[50.8,7668],[51.1,7751],[53.3,7834],[56.5,7918],[59.9,8001],[62.7,8085],[64.9,8168],[67.3,8251],[69.2,8335],[70.7,8418],[71.3,8501],[71.3,8585],[71.3,8668],[71.3,8751],[71.3,8834],[71.3,8918],[71.3,9001],[71.3,9085],[72.5,9168],[73.5,9251],[74,9335],[74,9418],[74,9501],[74,9585],[74,9668],[74,9751],[74,9835],[74,9918],[74,10001],[74,10085],[74,10168],[74,10251],[74,10335],[74,10418],[74,10502],[74,10585],[74,10668],[74,10752],[74,10835],[74,10918],[74,11002],[74,11085],[74,11168],[74,11252],[74,11335],[74,11418],[74,11502],[74,11585],[74,11668],[74,11752],[74,11835],[74,11918],[74,12002],[74,12085],[74,12168],[74,12252],[74,12335],[74,12418],[74,12502],[74,12585],[74,12668],[74,12752],[74,12835],[74,12919],[74,13002],[74,13086],[74,13169],[74,13252],[74,13335],[74,13419],[74,13502],[74,13585],[74,13669],[74,13752],[74,13835],[74,13919],[74,14002],[74,14086],[74,14169],[74,14252],[74,14336],[74,14419],[74,14502],[74,14586],[74,14669],[74,14752],[74,14836],[74,14919],[74,15002],[74,15086],[74,15169],[74,15252],[74,15336],[74,15419],[74,15503],[74,15586],[74,15669],[74,15752],[74,15836],[74,15919],[74,16003],[74,16086],[74,16169],[74,16253],[74,16336],[74,16419],[74,16503],[74,16586],[74,16669],[74,16753],[74,16836],[74,16919],[74,17003],[74,17086],[74,17169],[74,17253],[75.3,17336],[76.1,17420],[77.4,17503],[78.6,17586],[80.3,17670],[81.7,17753],[82.7,17836],[83.9,17920],[84.5,18003],[84.5,18086],[84.5,18170],[84.5,18253],[84.5,18336],[84.5,18420],[84.5,18503],[84.5,18586],[84.5,18670],[84.5,18753],[84.5,18836],[84.5,18920],[84.5,19003],[84.5,19086],[84.5,19170],[84.5,19253],[84.5,19336],[84.5,19420],[84.5,19503],[84.5,19587],[84.5,19670],[84.5,19753],[84.5,19837],[84.5,19920],[84.5,20003],[84.5,20087],[84.5,20170],[84.5,20253],[84.5,20337]]",1,0,860.1232,861.8736,87.5,0.5256,"[{""rating"":87.5,""responseTime"":0.5255999999642427}]",space,1.2138,,861.8736,Not at all,0,861.8743,,,[],,0,13,13,13,1,audio/Narrative8Situation4.wav,audio/Narrative7Situation4.wav,audio/Narrative6Situation4.wav,audio/Narrative5Situation4.wav,3,3,2,1,,,,,,,,,,,,,,,,,,,,,,,,,,,,,,,,,,,,,,,
,,,,,,5671927473f58b000d664293,2024-02-08_16h06.34.755,group3.1-3.2-social-tom,2023.2.2,Win32,59.88023952,65c5074098b851296ff0b7ed,65c541892f0cf4abf4887d22,,,,,,,,,,,,,,,,,,,,,,,,,,,,,861.8743,2,audio/Narrative5Situation5.wav,866.8745,,866.8745,882.3109,"[[999,4],[999,83],[999,166],[999,250],[999,333],[999,416],[999,500],[999,583],[999,666],[999,750],[999,833],[999,916],[999,1000],[999,1083],[999,1166],[999,1250],[999,1333],[999,1416],[999,1500],[999,1583],[999,1666],[999,1750],[999,1833],[999,1916],[999,2000],[999,2083],[999,2166],[999,2250],[999,2333],[999,2416],[999,2500],[999,2583],[999,2666],[999,2750],[999,2833],[999,2917],[999,3000],[999,3083],[999,3167],[999,3250],[999,3333],[999,3417],[999,3500],[999,3583],[999,3667],[999,3750],[999,3834],[999,3917],[999,4000],[999,4083],[999,4167],[999,4250],[999,4333],[999,4417],[999,4500],[999,4584],[999,4667],[999,4750],[999,4834],[999,4917],[999,5000],[999,5084],[999,5167],[999,5250],[999,5334],[999,5417],[999,5500],[999,5584],[999,5667],[999,5751],[999,5834],[999,5917],[999,6000],[999,6084],[999,6167],[999,6251],[999,6334],[999,6418],[999,6501],[999,6584],[999,6667],[999,6751],[999,6834],[999,6918],[48,7001],[49.3,7084],[49.7,7168],[49.9,7251],[49.9,7334],[49.9,7418],[49.9,7501],[49.9,7584],[49.9,7668],[49.9,7751],[49.9,7834],[49.9,7918],[49.9,8001],[49.9,8084],[49.9,8168],[49.9,8251],[49.9,8334],[49.9,8418],[49.9,8501],[49.9,8584],[49.9,8668],[49.9,8751],[49.9,8834],[49.9,8918],[49.9,9001],[49.9,9084],[49.9,9168],[49.9,9251],[49.9,9335],[49.9,9418],[49.9,9501],[49.9,9585],[49.9,9668],[49.9,9751],[49.9,9835],[49.9,9918],[49.9,10001],[49.9,10085],[49.9,10168],[49.9,10251],[49.9,10335],[49.9,10418],[49.9,10501],[49.9,10585],[49.9,10668],[49.9,10751],[49.9,10835],[49.9,10918],[49.9,11001],[49.9,11085],[49.9,11168],[49.9,11252],[49.9,11335],[49.9,11418],[49.9,11502],[49.9,11585],[49.9,11668],[49.9,11752],[49.9,11835],[49.9,11918],[49.9,12002],[49.9,12085],[49.9,12168],[49.9,12252],[49.9,12335],[49.9,12419],[49.9,12502],[49.9,12585],[50,12669],[52.9,12752],[54.4,12835],[56.4,12919],[58.9,13002],[62.1,13085],[64.6,13169],[66.1,13252],[67.6,13335],[69.4,13419],[70.3,13502],[71.8,13585],[73.1,13669],[74.9,13752],[76.1,13835],[76.6,13919],[77.4,14002],[78.6,14086],[80.2,14169],[82.5,14252],[84.6,14336],[85.9,14419],[86.6,14502],[87.3,14585],[87.4,14669],[87.4,14752],[87.4,14836],[87.4,14919],[87.4,15002],[87.4,15086],[87.4,15169],[87.4,15252],[87.4,15336],[87.4,15419]]",1,0,882.311,884.3278,88.125,0.4948,"[{""rating"":88.125,""responseTime"":0.49480000001199187}]",space,1.4823,,884.3278,Half the time,50,884.3292,,,[],,0,14,14,14,1,audio/Narrative8Situation5.wav,audio/Narrative7Situation5.wav,audio/Narrative6Situation5.wav,audio/Narrative5Situation5.wav,2,5,2,5,,,,,,,,,,,,,,,,,,,,,,,,,,,,,,,,,,,,,,,
,,,,,,5671927473f58b000d664293,2024-02-08_16h06.34.755,group3.1-3.2-social-tom,2023.2.2,Win32,59.88023952,65c5074098b851296ff0b7ed,65c541892f0cf4abf4887d22,,,,,,,,,,,,,,,,,,,,,,,,,,,,,884.3294,2,audio/Narrative5Situation6.wav,887.3451,,887.3452,893.0297,"[[86.6,3250],[85,3334],[84.1,3417],[81.8,3500],[78.6,3583],[73.9,3667],[69,3750],[67,3834],[64.5,3917],[60.1,4000],[56.6,4084],[54.6,4167],[52,4250],[48.6,4334],[45.2,4417],[41.6,4500],[38.6,4584],[36.7,4667],[34.8,4750],[31.5,4834],[28.3,4917],[25.2,5000],[22.8,5084],[20.6,5167],[18,5250],[14.5,5334],[10.2,5417],[7.8,5501],[6.5,5584],[5.4,5667]]",1,0,893.0298,896.697,21.14583333,2.171,"[{""rating"":21.145833333333336,""responseTime"":2.171000000000049}]",space,3.124,,896.697,Half the time,50,896.6979,,,[],,0,15,15,15,1,audio/Narrative8Situation6.wav,audio/Narrative7Situation6.wav,audio/Narrative6Situation6.wav,audio/Narrative5Situation6.wav,2,3,2,3,,,,,,,,,,,,,,,,,,,,,,,,,,,,,,,,,,,,,,,
,,,,,,5671927473f58b000d664293,2024-02-08_16h06.34.755,group3.1-3.2-social-tom,2023.2.2,Win32,59.88023952,65c5074098b851296ff0b7ed,65c541892f0cf4abf4887d22,,,,,,,,,,,,,,,,,,,,,,,,,,,,,896.698,2,audio/Narrative5Situation7.wav,900.7144,,900.7145,921.7519,"[[20.8,3250],[20.7,3333],[20.6,3417],[20.6,3500],[20.6,3583],[20.6,3667],[20.6,3750],[20.6,3833],[20.6,3917],[20.6,4000],[20.6,4084],[20.6,4167],[20.6,4250],[20.6,4334],[20.6,4417],[20.6,4500],[20.6,4584],[20.6,4667],[20.6,4750],[20.6,4834],[20.6,4917],[20.6,5000],[20.6,5084],[20.6,5167],[20.6,5250],[20.6,5334],[20.6,5417],[20.6,5500],[20.6,5584],[20.6,5667],[20.6,5751],[20.6,5834],[20.6,5917],[20.6,6001],[20.6,6084],[20.6,6167],[20.6,6251],[20.6,6334],[20.6,6417],[20.6,6501],[20.6,6584],[20.6,6667],[20.6,6751],[20.6,6834],[20.6,6917],[20.6,7001],[20.6,7084],[20.6,7167],[20.6,7251],[20.6,7334],[20.6,7417],[20.6,7501],[20.6,7584],[20.6,7668],[20.6,7751],[20.6,7834],[20.6,7918],[20.6,8001],[20.6,8084],[20.6,8168],[20.6,8251],[20.6,8334],[20.6,8418],[20.6,8501],[20.6,8584],[20.6,8668],[20.6,8751],[20.6,8834],[20.6,8918],[20.6,9001],[20.6,9084],[20.6,9168],[20.6,9251],[20.6,9335],[20.6,9418],[20.6,9501],[20.6,9585],[20.6,9668],[20.6,9751],[20.6,9835],[20.6,9918],[20.6,10001],[20.6,10085],[20.6,10168],[23,10252],[27.9,10335],[33.2,10418],[38,10502],[40.8,10585],[42.6,10668],[44,10752],[45.1,10835],[46.3,10918],[47,11002],[47.6,11085],[47.8,11168],[47.9,11252],[48,11335],[48.2,11418],[48.4,11502],[48.8,11585],[49,11668],[49.2,11752],[49.5,11835],[49.8,11918],[49.9,12002],[49.9,12085],[49.9,12168],[49.9,12252],[49.9,12335],[49.9,12418],[49.9,12502],[49.9,12585],[49.9,12668],[49.9,12752],[49.9,12835],[49.9,12918],[49.9,13002],[49.9,13085],[49.9,13168],[49.9,13252],[49.9,13335],[49.9,13419],[49.9,13502],[49.9,13585],[50.1,13669],[50.6,13752],[50.9,13836],[52.3,13919],[53.6,14002],[54.7,14086],[55.4,14169],[55.4,14252],[55.4,14336],[55.4,14419],[55.4,14502],[55.4,14586],[55.4,14669],[55.4,14752],[55.4,14836],[55.4,14919],[55.4,15002],[55.4,15086],[55.4,15169],[55.4,15252],[55.4,15336],[55.4,15419],[55.4,15502],[55.4,15586],[55.4,15669],[55.4,15752],[55.4,15836],[55.4,15919],[55.4,16003],[55.4,16086],[55.4,16169],[55.4,16253],[55.4,16336],[55.4,16419],[55.4,16503],[55.4,16586],[55.4,16669],[55.4,16753],[55.4,16836],[55.4,16919],[55.4,17003],[55.4,17086],[55.7,17170],[56.5,17253],[56.9,17336],[56.9,17419],[56.9,17503],[56.9,17586],[57.3,17670],[58.1,17753],[59.9,17836],[61.4,17920],[62.6,18003],[64,18086],[65.1,18170],[66.1,18253],[67.7,18336],[69.1,18420],[70.4,18503],[72.1,18586],[73.2,18670],[73.9,18753],[73.9,18836],[73.9,18920],[73.9,19003],[73.9,19086],[73.9,19170],[73.9,19253],[73.9,19336],[73.9,19420],[73.9,19503],[73.9,19586],[73.9,19670],[73.9,19753],[73.9,19836],[73.9,19920],[73.9,20003],[73.9,20087],[73.9,20170],[73.9,20253],[73.9,20337],[73.9,20420],[73.9,20503],[73.9,20587],[73.9,20670],[73.9,20753],[73.9,20837],[73.9,20920],[73.9,21003]]",1,0,921.7521,924.8525,75.3125,0.7486,"[{""rating"":75.3125,""responseTime"":0.7486000000237709}]",space,2.5613,,924.8525,Half the time,50,924.8535,,,[],,0,16,16,16,1,audio/Narrative8Situation7.wav,audio/Narrative7Situation7.wav,audio/Narrative6Situation7.wav,audio/Narrative5Situation7.wav,3,5,5,4,,,,,,,,,,,,,,,,,,,,,,,,,,,,,,,,,,,,,,,
,,,,,,5671927473f58b000d664293,2024-02-08_16h06.34.755,group3.1-3.2-social-tom,2023.2.2,Win32,59.88023952,65c5074098b851296ff0b7ed,65c541892f0cf4abf4887d22,,,,,,,,,,,,,,,,,,,,,,,,,,,,,924.8537,2,audio/Narrative5Situation8.wav,927.8697,,927.8698,936.7048,"[[74.6,3750],[71.7,3834],[68.9,3917],[66.9,4000],[62.7,4084],[56.1,4167],[50.4,4250],[45.9,4334],[41.7,4417],[36.9,4500],[33.3,4584],[30.4,4667],[26.4,4750],[23.5,4834],[23.1,4917],[23.1,5000],[23.1,5084],[23.1,5167],[23.1,5250],[23.1,5334],[23.1,5417],[26.9,5501],[32.5,5584],[38.2,5667],[42.2,5751],[45.6,5834],[48.3,5917],[49.5,6001],[50.4,6084],[50.5,6167],[50.5,6251],[50.5,6334],[50.5,6417],[50.5,6501],[50.5,6584],[50.5,6667],[50.5,6751],[50.5,6834],[50.5,6917],[50.5,7001],[50.5,7084],[50.5,7167],[50.5,7251],[50.5,7334],[50.5,7418],[50.5,7501],[50.5,7584],[50.5,7668],[50.5,7751],[50.5,7834],[50.5,7918],[50.5,8001],[50.5,8084],[50.5,8168],[50.5,8251],[50.5,8334],[50.5,8418],[50.5,8501],[50.5,8585],[50.5,8668],[50.5,8751],[50.5,8834]]",1,0,936.7049,938.8719,50.52083333,0.4297,"[{""rating"":50.520833333333336,""responseTime"":0.42969999998808817}]",space,1.6171,,938.8719,Half the time,50,938.8727,,,[],,0,17,17,17,1,audio/Narrative8Situation8.wav,audio/Narrative7Situation8.wav,audio/Narrative6Situation8.wav,audio/Narrative5Situation8.wav,3,2,5,3,,,,,,,,,,,,,,,,,,,,,,,,,,,,,,,,,,,,,,,
,,,,,,5671927473f58b000d664293,2024-02-08_16h06.34.755,group3.1-3.2-social-tom,2023.2.2,Win32,59.88023952,65c5074098b851296ff0b7ed,65c541892f0cf4abf4887d22,,,,,,,,,,,,,,,,,,,,,,,,,,,,,938.8727,2,audio/Narrative5Situation9.wav,941.8892,,941.8892,981.447,"[[49.9,6251],[48.3,6334],[45.1,6417],[40.6,6501],[37.2,6584],[34.9,6668],[33,6751],[30.7,6834],[27.8,6918],[25.9,7001],[25.7,7084],[25.6,7168],[25.6,7251],[25.6,7334],[25.6,7418],[25.6,7501],[25.6,7584],[25.5,7668],[18.5,7751],[16.3,7834],[16.3,7918],[16.1,8001],[16.1,8084],[16.1,8168],[16.1,8251],[16.1,8334],[17.7,8418],[19.2,8501],[19.2,8584],[19.2,8668],[19.2,8751],[19.2,8834],[19.2,8918],[19.2,9001],[19.2,9085],[19.2,9168],[19.2,9251],[19.2,9335],[19.2,9418],[19.2,9501],[19.2,9585],[19.2,9668],[19.2,9751],[19.2,9835],[19.2,9918],[19.2,10001],[19.2,10085],[19.2,10168],[19.2,10251],[19.2,10335],[19.2,10418],[19.2,10501],[19.2,10585],[19.2,10668],[19.2,10752],[19.2,10835],[19.2,10918],[19.2,11002],[19.2,11085],[19.2,11168],[19.2,11252],[19.2,11335],[19.2,11418],[19.2,11502],[19.2,11585],[19.2,11668],[19.2,11752],[19.2,11835],[19.2,11918],[19.2,12002],[19.2,12085],[19.2,12168],[19.2,12252],[19.2,12335],[19.2,12418],[19.2,12502],[19.2,12585],[19.2,12669],[19.2,12752],[19.2,12835],[19.2,12918],[19.2,13002],[19.2,13085],[19.2,13169],[19.2,13252],[19.2,13335],[19.2,13419],[19.2,13502],[19.2,13585],[19.2,13669],[19.2,13752],[19.2,13835],[19.2,13919],[19.2,14002],[19.2,14086],[19.2,14169],[19.2,14252],[19.2,14336],[19.2,14419],[19.2,14502],[19.2,14586],[19.2,14669],[19.2,14752],[19.2,14836],[19.2,14919],[19.2,15002],[19.2,15086],[19.2,15169],[19.2,15252],[19.2,15336],[19.2,15419],[19.2,15502],[19.2,15586],[19.2,15669],[19.2,15753],[19.2,15836],[19.2,15919],[19.2,16003],[19.2,16086],[19.2,16169],[19.2,16253],[19.2,16336],[19.2,16419],[19.2,16503],[19.2,16586],[19.2,16669],[19.2,16753],[19.2,16836],[19.2,16919],[19.7,17003],[20,17086],[20.1,17170],[20.2,17253],[20.3,17336],[20.3,17419],[20.6,17503],[21.8,17586],[23.3,17670],[24.5,17753],[25.5,17836],[27.3,17920],[29.3,18003],[31,18086],[32.9,18170],[34.5,18253],[35.9,18336],[37.4,18420],[38.9,18503],[40.2,18586],[41.4,18670],[42.6,18753],[43.8,18836],[44.8,18920],[46,19003],[47.2,19086],[48,19170],[49,19253],[49.8,19337],[50.5,19420],[50.6,19503],[50.6,19586],[50.6,19670],[50.6,19753],[50.6,19837],[50.6,19920],[50.6,20003],[50.6,20087],[50.6,20170],[50.6,20253],[50.6,20337],[50.7,20420],[51.4,20504],[52.8,20587],[54.3,20670],[55.7,20754],[57.7,20837],[59.8,20920],[61.8,21004],[63.8,21087],[65.7,21170],[67.6,21254],[69.2,21337],[70.5,21420],[71.8,21504],[73.1,21587],[74.7,21670],[75.6,21754],[75.9,21837],[75.9,21920],[75.9,22004],[75.9,22087],[75.9,22170],[75.9,22254],[75.9,22337],[75.9,22420],[75.9,22504],[75.9,22587],[75.9,22671],[75.9,22754],[75.9,22837],[75.9,22921],[75.9,23004],[75.9,23087],[75.9,23171],[75.9,23254],[75.9,23337],[75.9,23421],[75.9,23504],[75.9,23587],[75.9,23671],[75.9,23754],[75.9,23837],[75.9,23921],[75.9,24004],[75.9,24087],[76.1,24171],[77.1,24254],[78.1,24338],[79.4,24421],[79.8,24504],[80.3,24588],[81.6,24671],[82.7,24754],[83.6,24838],[84.2,24921],[85,25004],[85.9,25088],[86.6,25171],[87.5,25254],[88.5,25338],[89.4,25421],[89.9,25504],[90,25588],[90,25671],[90,25754],[90,25838],[90,25921],[90,26004],[90,26088],[90,26171],[90,26254],[90,26338],[90,26421],[90,26505],[90,26588],[90,26671],[90,26755],[90,26838],[90,26921],[90,27005],[90,27088],[90,27171],[90,27255],[90,27338],[90,27422],[90,27505],[90,27588],[90,27671],[90,27755],[90,27838],[90,27922],[90,28005],[90,28088],[90,28172],[90,28255],[90,28338],[90,28422],[90,28505],[90,28588],[90,28672],[90,28755],[90,28838],[90,28922],[90,29005],[90,29088],[90,29172],[90,29255],[90,29339],[90,29422],[90,29505],[90,29589],[90,29672],[90,29755],[90,29839],[90,29922],[90,30005],[90,30089],[90,30172],[90,30255],[90,30339],[90,30422],[90,30505],[90,30589],[90,30672],[90,30755],[90,30839],[90,30922],[90,31005],[90,31089],[90,31172],[90,31255],[90,31339],[90,31422],[90,31506],[90,31589],[90,31672],[90,31755],[90,31839],[90,31922],[90,32006],[90,32089],[90,32172],[90,32256],[90,32339],[90,32422],[90,32506],[90,32589],[90,32672],[90,32756],[90,32839],[90,32923],[90,33006],[90,33089],[90,33173],[90,33256],[90,33339],[90,33423],[90,33506],[90,33589],[90,33673],[90,33756],[90,33839],[90,33923],[90,34006],[90,34089],[90,34173],[90,34256],[90,34340],[90,34423],[90,34506],[90,34590],[90,34673],[90,34756],[90,34840],[90,34923],[90,35006],[90,35090],[90,35173],[90,35256],[90,35340],[90,35423],[90,35506],[90,35590],[90,35673],[90,35756],[90,35840],[90,35923],[90,36006],[90,36090],[90,36173],[90,36256],[90,36340],[90,36423],[90,36507],[90,36590],[90,36673],[90,36757],[90,36840],[90,36923],[90,37007],[90,37090],[90,37173],[90,37257],[90,37340],[90,37423],[90,37507],[90,37590],[90,37673],[90,37757],[90,37840],[90,37923],[90,38007],[90,38090],[90,38173],[90,38257],[90,38340],[90,38423],[90,38507],[90,38590],[90,38674],[90,38757],[90,38840],[90,38924],[91.8,39007],[94.1,39091],[94.9,39174],[95.2,39257],[95.3,39340],[95.3,39424],[95.3,39507]]",1,0,981.447,988.2816,84.6875,5.2536,"[{""rating"":98.85416666666667,""responseTime"":0.8676000000239128},{""rating"":91.04166666666667,""responseTime"":4.1024000000358},{""rating"":88.4375,""responseTime"":4.749600000023861},{""rating"":84.6875,""responseTime"":5.25360000002388}]",space,6.3146,,988.2817,All the time,100,988.2832,,,[],,0,18,18,18,1,audio/Narrative8Situation9.wav,audio/Narrative7Situation9.wav,audio/Narrative6Situation9.wav,audio/Narrative5Situation9.wav,3,2,4,3,,,,,,,,,,,,,,,,,,,,,,,,,,,,,,,,,,,,,,,
,,,,,,5671927473f58b000d664293,2024-02-08_16h06.34.755,group3.1-3.2-social-tom,2023.2.2,Win32,59.88023952,65c5074098b851296ff0b7ed,65c541892f0cf4abf4887d22,,,,,,,,,,,,,,,,,,,,,,,,,,,,,,,,,,,,,,,,,,,,,,,,,,,,,,,,,,,,,,,,,,,,,,,,988.2832,1006.6853,space,17.8716,,1006.6857,1017.9711,space,10.9556,,,,,,,,,,,,,,,,,,,,,,,,,,
,,,,,,5671927473f58b000d664293,2024-02-08_16h06.34.755,group3.1-3.2-social-tom,2023.2.2,Win32,59.88023952,65c5074098b851296ff0b7ed,65c541892f0cf4abf4887d22,,,,,,,,,,,,,,,,,,,,,,,,,,,,,1020.5618,1,audio/Narrative7Situation9.wav,1022.5717,,,,,,,1054.4345,1057.7451,73.22916667,1.0512,"[{""rating"":73.22916666666667,""responseTime"":1.0511999999880572}]",space,2.7819,,1054.4284,Not at all,0,1054.4345,,,[],,,,,,,,,,,2,2,2,2,,,,,,,,,,,,,,,1017.9767,1020.5547,1022.5718,3,1054.4282,"[[999,0],[999,83],[999,166],[999,249],[999,333],[999,416],[999,499],[999,583],[999,666],[999,749],[999,833],[999,916],[999,1000],[999,1083],[999,1166],[999,1250],[999,1333],[999,1416],[999,1500],[999,1583],[999,1666],[999,1750],[999,1833],[999,1916],[999,2000],[999,2083],[999,2166],[999,2250],[999,2333],[999,2416],[999,2500],[999,2583],[999,2667],[999,2750],[999,2833],[999,2916],[999,3000],[61.5,3083],[61.5,3167],[61.5,3250],[61.5,3333],[61,3417],[58,3500],[55.6,3583],[53.3,3667],[52.8,3750],[52.8,3833],[58,3917],[66.8,4000],[76.3,4084],[78.6,4167],[78.6,4250],[78.6,4333],[78.6,4417],[78.6,4500],[78.6,4583],[78.6,4667],[78.6,4750],[78.6,4833],[82,4917],[84.2,5000],[84.4,5084],[84.4,5167],[84.4,5250],[84.4,5334],[81.6,5417],[78.1,5500],[77.9,5584],[77.9,5667],[77.9,5750],[77.9,5834],[77.9,5917],[77.9,6000],[77.9,6084],[77.9,6167],[77.9,6250],[77.9,6334],[77.9,6417],[77.9,6500],[77.9,6584],[77.9,6667],[77.9,6750],[77.9,6834],[77.9,6917],[77.9,7001],[77.9,7084],[77.9,7167],[77.9,7251],[77.9,7334],[77.9,7417],[77.9,7501],[77.9,7584],[77.9,7667],[77.9,7751],[75.4,7834],[74,7918],[73,8001],[73,8084],[73,8168],[70.8,8251],[63.8,8334],[59.4,8418],[56.4,8501],[53.5,8584],[51.8,8668],[51.7,8751],[52.2,8834],[56.1,8918],[57.7,9001],[58.5,9084],[59.2,9168],[59.8,9251],[60.4,9334],[61,9418],[61.3,9501],[61.5,9585],[61.5,9668],[61.5,9751],[61.5,9834],[61.5,9918],[61.5,10001],[61.5,10085],[61.5,10168],[61.5,10251],[61.5,10335],[61.4,10418],[60.7,10501],[58.9,10585],[57.3,10668],[55.5,10751],[54.9,10835],[54.9,10918],[54.9,11001],[54.9,11085],[56.9,11168],[57.8,11252],[57.9,11335],[58.2,11418],[58.9,11502],[59,11585],[59,11668],[59,11752],[58.9,11835],[56.7,11918],[55.4,12002],[54.6,12085],[54.5,12168],[54.5,12252],[54.5,12335],[54.5,12418],[54.5,12502],[54.5,12585],[54.5,12668],[55.5,12752],[56.6,12835],[57,12918],[57,13002],[57,13085],[57,13169],[57,13252],[57,13335],[57,13419],[57,13502],[57,13585],[57,13669],[57,13752],[57,13835],[57,13919],[57,14002],[57,14085],[57,14169],[57,14252],[57.2,14335],[57.6,14419],[57.8,14502],[58.1,14586],[58.3,14669],[58.8,14752],[59.3,14836],[60.1,14919],[60.9,15002],[62.2,15086],[63.6,15169],[65.7,15252],[67.3,15336],[68.5,15419],[70.2,15502],[71.6,15586],[73,15669],[74.4,15752],[75.5,15836],[76.7,15919],[77.6,16003],[78.5,16086],[79,16169],[79,16252],[79,16336],[79,16419],[79,16502],[79,16586],[79,16669],[79,16752],[79,16836],[79,16919],[79,17003],[79,17086],[79,17169],[79,17253],[79,17336],[79,17419],[79,17503],[79,17586],[79,17669],[79,17753],[79,17836],[79,17919],[79,18003],[79,18086],[79,18169],[79,18253],[79,18336],[79,18420],[79,18503],[79,18586],[79,18670],[79,18753],[79,18836],[79,18920],[79,19003],[79,19086],[79,19170],[79,19253],[79,19336],[79,19420],[79,19503],[79,19586],[79,19670],[79,19753],[79,19836],[79,19920],[79,20003],[79,20086],[79,20170],[79,20253],[79,20337],[79,20420],[79,20503],[79,20587],[79,20670],[79,20753],[79,20837],[79,20920],[79,21003],[79,21087],[79,21170],[79,21253],[79,21337],[79,21420],[79,21503],[79,21587],[79,21670],[79,21753],[79,21837],[79,21920],[79,22003],[79,22087],[79,22170],[79,22254],[79,22337],[79,22420],[79,22504],[79,22587],[79,22670],[79,22754],[79,22837],[79,22920],[79,23004],[79,23087],[79,23170],[78.9,23254],[78.1,23337],[77.4,23421],[76.6,23504],[75.6,23587],[74.7,23671],[73.9,23754],[73.4,23837],[73.4,23921],[73.4,24004],[73.4,24087],[73.4,24171],[73.4,24254],[73.4,24337],[73.4,24421],[73.4,24504],[73.4,24587],[73.4,24671],[73.4,24754],[73.4,24837],[73.4,24921],[73.4,25004],[73.4,25087],[73.4,25171],[73.4,25254],[73.4,25338],[73.4,25421],[73.4,25504],[73.4,25588],[73.4,25671],[73.4,25754],[73.4,25838],[73.4,25921],[73.4,26004],[73.4,26088],[72.4,26171],[71.8,26255],[71.1,26338],[70.2,26421],[69.6,26504],[69.1,26588],[68.6,26671],[68.1,26755],[67.5,26838],[67.2,26921],[67,27004],[67,27088],[67,27171],[67,27254],[66.8,27338],[65.6,27421],[64.7,27505],[64.3,27588],[64,27671],[63.8,27755],[63.8,27838],[63.8,27921],[63.8,28005],[63.8,28088],[63.8,28171],[63.8,28255],[63.8,28338],[63.8,28421],[63.8,28505],[63.8,28588],[63.8,28672],[63.8,28755],[63.8,28838],[63.8,28922],[63.8,29005],[63.8,29088],[63.8,29172],[63.8,29255],[63.8,29338],[63.8,29422],[63.8,29505],[63.8,29588],[63.8,29672],[63.8,29755],[63.8,29838],[63.8,29922],[63.8,30005],[63.8,30088],[63.8,30172],[63.8,30255],[63.8,30339],[63.8,30422],[63.8,30505],[63.8,30589],[63.8,30672],[63.8,30755],[63.8,30839],[63.8,30922],[63.8,31005],[63.8,31089],[63.8,31172],[63.8,31255],[63.8,31339],[63.8,31422],[63.8,31505],[63.8,31589],[63.8,31672],[63.8,31755],[63.8,31839]]",0,0,0,0,1,"Larry had recently lost his family, job and home, and was now living on his own in the park. He had most of his belongings, including some clothes, a blanket, and his mother’s special necklace. His family had been very important to him and he felt as though he did not have much going for him. One of his first days in the park he came across a family that did not have much food and looked very cold. He decided to give them some of his food and his blanket.","Larry had recently lost his family, job and home, and was now living on his own in the park. He had most of his belongings, including some clothes, a blanket, and his mother’s special necklace. His family had been very important to him and he felt as though he did not have much going for him. One of his first days in the park he came across a family that did not have much food and looked very cold. He decided to give them some of his food and his blanket.","Larry had recently lost his family, job and home, and was now living on his own in the park. He had most of his belongings, including some clothes, a blanket, and his mother’s special necklace. His family had been very important to him and he felt as though he did not have much going for him. One of his first days in the park he came across a family that did not have much food and looked very cold. He decided to give them some of his food and his blanket.","Larry had recently lost his family, job and home, and was now living on his own in the park. He had most of his belongings, including some clothes, a blanket, and his mother’s special necklace. His family had been very important to him and he felt as though he did not have much going for him. One of his first days in the park he came across a family that did not have much food and looked very cold. He decided to give them some of his food and his blanket.",,,,,,,,,,
