exp_question,consent.started,consent.stopped,consentResponse.keys,consentResponse.rt,consentResponse.duration,participantID,date,expName,psychopyVersion,OS,frameRate,STUDY_ID,SESSION_ID,opening1.started,opening1.stopped,keyEndingOpening1.keys,keyEndingOpening1.rt,keyEndingOpening1.duration,volumeAdjust.started,volumeAdjust.stopped,endingAdjust.keys,endingAdjust.rt,endingAdjust.duration,opening2.started,opening2.stopped,keyEndingOpening.keys,keyEndingOpening.rt,keyEndingOpening.duration,mouse.x,mouse.y,mouse.leftButton,mouse.midButton,mouse.rightButton,mouse.time,instructionLoop.thisRepN,instructionLoop.thisTrialN,instructionLoop.thisN,instructionLoop.thisIndex,instructionLoop.ran,readyForAudio.started,readyForAudio.stopped,fixation.started,run,audio_played,fixation.stopped,endPractice.keys,audioPre.started,audioPre.stopped,continuousResponses_audio,continuousSlider.response,continuousSlider.rt,intRating.started,intRating.stopped,intQuestionSlider.response,intQuestionSlider.rt,intQuestionSlider.history,confirmResponse.keys,confirmResponse.rt,confirmResponse.duration,catchQuestion.started,catch_label,catch_value,catchQuestion.stopped,catchQuestionSlider.response,catchQuestionSlider.rt,catchQuestionSlider.history,confirmResponse_2.keys,audioRunLoop.thisRepN,audioRunLoop.thisTrialN,audioRunLoop.thisN,audioRunLoop.thisIndex,audioRunLoop.ran,conditions1_1,conditions2_1,conditions1_2,conditions2_2,dur1_1,dur2_1,dur1_2,dur2_2,endPractice.rt,endPractice.duration,confirmResponse_2.rt,confirmResponse_2.duration,runIntervalBreak.started,runIntervalBreak.stopped,endingBreakKey.keys,endingBreakKey.rt,endingBreakKey.duration,connection.started,connection.stopped,connectionEnding.keys,connectionEnding.rt,connectionEnding.duration,readyForText.started,readyForText.stopped,textPre.started,run_dup,textPre.stopped,continuousResponses_text,textRunLoop.thisRepN,textRunLoop.thisTrialN,textRunLoop.thisN,textRunLoop.thisIndex,textRunLoop.ran,text1_1,text1_2,text2_1,text2_2,runBreakText.started,runBreakText.stopped,endingBreakKey_2.keys,endingBreakKey_2.rt,endingBreakKey_2.duration,ending.started,ending.stopped,endingEnding.keys,endingEnding.rt,endingEnding.duration
social,0.0007,19.6518,y,19.3222,,56875435369319000c26947d,2024-05-13_11h33.59.971,group3.1-3.2-social-tom,2023.2.2,Linux x86_64,59.88023952,65c5074098b851296ff0b7ed,664232bea79683a540f69ee8,,,,,,,,,,,,,,,,,,,,,,,,,,,,,,,,,,,,,,,,,,,,,,,,,,,,,,,,,,,,,,,,,,,,,,,,,,,,,,,,,,,,,,,,,,,,,,,,,,,,,,,,,,
,,,,,,56875435369319000c26947d,2024-05-13_11h33.59.971,group3.1-3.2-social-tom,2023.2.2,Linux x86_64,59.88023952,65c5074098b851296ff0b7ed,664232bea79683a540f69ee8,19.6521,21.0754,space,1.3666,,,,,,,,,,,,,,,,,,,,,,,,,,,,,,,,,,,,,,,,,,,,,,,,,,,,,,,,,,,,,,,,,,,,,,,,,,,,,,,,,,,,,,,,,,,,,,,,,,,,,,
,,,,,,56875435369319000c26947d,2024-05-13_11h33.59.971,group3.1-3.2-social-tom,2023.2.2,Linux x86_64,59.88023952,65c5074098b851296ff0b7ed,664232bea79683a540f69ee8,,,,,,21.0757,22.1175,space,0.719,,,,,,,,,,,,,,,,,,,,,,,,,,,,,,,,,,,,,,,,,,,,,,,,,,,,,,,,,,,,,,,,,,,,,,,,,,,,,,,,,,,,,,,,,,,,,,,,,
,,,,,,56875435369319000c26947d,2024-05-13_11h33.59.971,group3.1-3.2-social-tom,2023.2.2,Linux x86_64,59.88023952,65c5074098b851296ff0b7ed,664232bea79683a540f69ee8,,,,,,,,,,,22.1274,24.7002,space,2.5413,,[],[],[],[],[],[],0,0,0,0,1,,,,,,,,,,,,,,,,,,,,,,,,,,,,,,,,,,,,,,,,,,,,,,,,,,,,,,,,,,,,,,,,,,,,,,,,,,,,,,,,
,,,,,,56875435369319000c26947d,2024-05-13_11h33.59.971,group3.1-3.2-social-tom,2023.2.2,Linux x86_64,59.88023952,65c5074098b851296ff0b7ed,664232bea79683a540f69ee8,,,,,,,,,,,24.7017,36.2455,space,11.4081,,[],[],[],[],[],[],1,0,1,0,1,,,,,,,,,,,,,,,,,,,,,,,,,,,,,,,,,,,,,,,,,,,,,,,,,,,,,,,,,,,,,,,,,,,,,,,,,,,,,,,,
,,,,,,56875435369319000c26947d,2024-05-13_11h33.59.971,group3.1-3.2-social-tom,2023.2.2,Linux x86_64,59.88023952,65c5074098b851296ff0b7ed,664232bea79683a540f69ee8,,,,,,,,,,,36.246,36.9452,space,0.6376,,[],[],[],[],[],[],2,0,2,0,1,,,,,,,,,,,,,,,,,,,,,,,,,,,,,,,,,,,,,,,,,,,,,,,,,,,,,,,,,,,,,,,,,,,,,,,,,,,,,,,,
,,,,,,56875435369319000c26947d,2024-05-13_11h33.59.971,group3.1-3.2-social-tom,2023.2.2,Linux x86_64,59.88023952,65c5074098b851296ff0b7ed,664232bea79683a540f69ee8,,,,,,,,,,,36.9456,42.7932,space,5.8115,,[],[],[],[],[],[],3,0,3,0,1,,,,,,,,,,,,,,,,,,,,,,,,,,,,,,,,,,,,,,,,,,,,,,,,,,,,,,,,,,,,,,,,,,,,,,,,,,,,,,,,
,,,,,,56875435369319000c26947d,2024-05-13_11h33.59.971,group3.1-3.2-social-tom,2023.2.2,Linux x86_64,59.88023952,65c5074098b851296ff0b7ed,664232bea79683a540f69ee8,,,,,,,,,,,42.7941,43.2771,space,0.4575,,[],[],[],[],[],[],4,0,4,0,1,,,,,,,,,,,,,,,,,,,,,,,,,,,,,,,,,,,,,,,,,,,,,,,,,,,,,,,,,,,,,,,,,,,,,,,,,,,,,,,,
,,,,,,56875435369319000c26947d,2024-05-13_11h33.59.971,group3.1-3.2-social-tom,2023.2.2,Linux x86_64,59.88023952,65c5074098b851296ff0b7ed,664232bea79683a540f69ee8,,,,,,,,,,,,,,,,,,,,,,,,,,,43.2793,45.859,45.8963,1,audio/Narrative13Situation2.wav,47.9083,,47.9086,77.6735,"[[999,1],[999,116],[999,199],[999,282],[999,365],[999,449],[999,532],[999,615],[999,699],[999,782],[999,865],[999,949],[999,1032],[999,1115],[999,1199],[999,1282],[999,1365],[999,1448],[999,1531],[999,1615],[999,1698],[999,1782],[999,1865],[999,1948],[999,2031],[999,2115],[999,2198],[999,2281],[999,2365],[999,2448],[999,2531],[999,2615],[999,2699],[999,2782],[999,2865],[999,2948],[999,3032],[999,3115],[999,3198],[999,3282],[999,3365],[999,3448],[999,3531],[999,3615],[999,3698],[999,3781],[999,3865],[999,3948],[999,4031],[999,4114],[999,4197],[999,4281],[999,4364],[999,4447],[999,4531],[999,4614],[999,4698],[999,4781],[999,4864],[999,4947],[999,5030],[999,5114],[999,5197],[999,5280],[999,5364],[999,5447],[999,5531],[999,5614],[999,5698],[999,5780],[999,5863],[999,5947],[999,6030],[999,6113],[999,6197],[999,6301],[999,6380],[999,6463],[999,6547],[999,6630],[999,6713],[999,6797],[999,6880],[999,6963],[999,7047],[999,7130],[999,7213],[999,7296],[999,7380],[999,7464],[999,7546],[999,7630],[999,7713],[999,7796],[999,7879],[999,7963],[999,8046],[999,8132],[999,8214],[999,8296],[53.3,8380],[52.8,8464],[52.7,8546],[52.8,8630],[53.3,8713],[53.3,8796],[53.3,8879],[53.3,8963],[53.3,9046],[53.3,9131],[53.3,9212],[59.5,9296],[60.5,9379],[60.5,9462],[60.5,9545],[60.4,9629],[60.4,9712],[60.4,9795],[60.4,9879],[60.4,9962],[60.4,10046],[64.8,10130],[76.3,10212],[88.3,10296],[89.7,10379],[89.6,10462],[87.5,10546],[81.7,10629],[80.3,10713],[80.3,10795],[80.3,10878],[80.3,10962],[80.2,11045],[80.2,11129],[80.2,11212],[80.2,11295],[80.2,11378],[80.2,11461],[80.2,11545],[80.2,11628],[80.2,11711],[80.2,11795],[80.2,11878],[80.2,11961],[80.2,12045],[80.2,12128],[80.2,12211],[80.2,12295],[80.2,12378],[80.2,12462],[80.2,12545],[80.2,12628],[79,12711],[74.1,12795],[73.1,12879],[72.8,12961],[72.8,13044],[72.7,13128],[72.7,13211],[72.7,13294],[72.7,13378],[72.7,13461],[72.7,13544],[74.2,15377],[74.2,15461],[74.1,15544],[74.1,15627],[74.1,15710],[74.1,15793],[74.1,15877],[74.1,15960],[74.1,16043],[74.1,16126],[74.7,16210],[75.5,16294],[75.5,16377],[75.5,16460],[75.5,16543],[75.5,16628],[75.5,16711],[75.5,16793],[75.5,16876],[75.5,16960],[75.5,17043],[75.5,17126],[75.5,17210],[75.5,17293],[75.5,17376],[75.5,17459],[75.5,17543],[75.5,17626],[75.5,17710],[75.5,17793],[75.5,17876],[75.5,17959],[75.5,18043],[75.5,18126],[75.5,18210],[75.5,18292],[75.5,18376],[75.5,18459],[75.5,18543],[99.5,18626],[100,18710],[100,18793],[100,18876],[100,18959],[100,19042],[100,19126],[100,19210],[100,19292],[100,19375],[100,19459],[100,19542],[100,19625],[100,19709],[100,19793],[100,19876],[100,19959],[100,20042],[100,20125],[100,20208],[100,20292],[39.4,21042],[61.2,21125],[64.9,21209],[65.1,21291],[64.8,21375],[64.7,21458],[67.5,21541],[76.3,21625],[76.4,21708],[76.4,21791],[76.3,21874],[76.3,21958],[76.3,22041],[76.3,22124],[76.3,22208],[40.3,22291],[36.4,22375],[36,22458],[36,22541],[36,22624],[35.9,22708],[35.9,22791],[35.9,22874],[35.9,22958],[35.9,23041],[35.9,23124],[45.8,24720],[45.9,24800],[45.9,24883],[45.9,24965],[45.9,25073],[46.2,25141],[46.5,25225],[46.6,25308],[46.8,25391],[46.8,25474],[46.9,25559],[46.9,25640],[46.9,25724],[46.9,25808],[46.9,25890],[46.9,25974],[46.9,26057],[46.9,26141],[46.9,26224],[46.9,26323],[46.9,26406],[46.9,26490],[46.9,26574],[46.9,26656],[48,26740],[51.1,26823],[51.6,26908],[51.6,26991],[51.6,27073],[51.6,27156],[51.6,27240],[51.6,27323],[51.6,27406],[51.6,27489],[77.5,27573],[81.4,27658],[82.1,27739],[82.1,27823],[82.1,27906],[82,27989],[82,28072],[82,28156],[94.1,28239],[100,28324],[100,28406],[100,28489],[100,28574],[100,28661],[100,28741],[100,28822],[100,28906],[100,28989]]",1,0,77.6739,95.2257,69.99565215,16.8122,"[{""rating"":52.685802492083575,""responseTime"":15.14509999999403},{""rating"":69.99565214640799,""responseTime"":16.81220000001788}]",space,16.9887,,95.2264,Partially,50,95.2324,,,[],,0,0,0,0,1,audio/Narrative13Situation2.wav,audio/Narrative13Situation2.wav,audio/Narrative13Situation2.wav,audio/Narrative13Situation2.wav,2,2,2,2,,,,,,,,,,,,,,,,,,,,,,,,,,,,,,,,,,,,,,,
,,,,,,56875435369319000c26947d,2024-05-13_11h33.59.971,group3.1-3.2-social-tom,2023.2.2,Linux x86_64,59.88023952,65c5074098b851296ff0b7ed,664232bea79683a540f69ee8,,,,,,,,,,,,,,,,,,,,,,,,,,,,,95.2329,1,audio/Narrative8Situation1.wav,101.8558,space,101.8559,117.7842,"[[999,11],[999,83],[999,166],[999,249],[999,332],[999,416],[999,499],[999,582],[999,666],[999,749],[999,833],[69,1083],[69.4,1166],[68.9,1249],[65.3,1333],[65.1,1416],[65.1,1499],[65.3,1582],[66.8,1666],[67.5,1749],[68.1,1832],[68.4,1915],[68.4,1998],[68.4,2082],[68.3,2165],[68.3,2248],[68.3,2333],[68.3,2416],[68.3,2498],[68.3,2582],[68.3,2665],[68.3,2748],[68.3,2831],[68.3,2915],[68.3,3000],[68.3,3081],[68.3,3165],[68.3,3248],[68.3,3332],[68.3,3415],[68.3,3498],[68.3,3581],[76.6,4166],[73.2,4248],[73.4,4332],[73.4,4415],[73.7,4498],[74.2,4582],[74.5,4665],[74.6,4748],[74.5,4831],[74.3,4915],[74.3,4998],[74.3,5081],[74.2,5164],[74.2,5247],[74.2,5331],[74.2,5414],[74.2,5497],[74.2,5581],[74.2,5664],[74.2,5747],[74.2,5831],[74.2,5914],[74.2,5997],[74.2,6080],[74.2,6164],[49.9,6248],[48.1,6331],[48.2,6414],[48.5,6497],[49.9,6581],[54.1,6665],[82,6747],[45.9,8163],[46.4,8247],[46.8,8330],[47,8413],[47.2,8497],[47.9,8580],[48.6,8663],[48.6,8746],[48.6,8829],[48.6,8913],[48.6,8996],[43.2,9080],[42.8,9164],[42.6,9246],[42.2,9330],[40.4,9414],[38.8,9496],[40.1,9580],[59.3,9663],[59.9,9747],[60,9830],[60.1,9913],[60.1,9996],[60.1,10079],[60,10163],[60,10246],[60,10329],[60,10412],[60,10495],[60,10579],[60,10663],[60,10745],[60,10829],[60,10912],[60,10995],[60,11079],[60,11162],[60,11245],[60,11329],[60,11412],[60,11496],[60,11578],[60,11662],[60,11745],[60,11829],[60,11912],[60,11995],[60,12078],[60,12162],[60,12245],[60,12328],[60,12411],[60,12495],[60,12578],[60,12661],[60,12745],[60,12828],[60,12911],[60,12995],[60,13078],[60,13161],[60,13245],[60,13328],[60,13411],[60,13494],[60,13578],[60,13661],[60,13744],[60,13828],[60,13911],[60,13994],[60,14078],[60,14161],[60,14244],[60,14329],[60,14411],[60,14494],[60,14578],[60,14661],[65,14744],[68.3,14828],[68.7,14911],[69.5,14994],[69.5,15077],[69.5,15161],[69.5,15245],[69.5,15327],[69.5,15411],[69.5,15494],[69.5,15577],[69.5,15660],[69.5,15744],[69.5,15827],[69.5,15911]]",1,0,117.7844,120.4493,58.64927157,1.8755,"[{""rating"":58.649271569270866,""responseTime"":1.8755000000000166}]",space,2.1215,,120.4494,Partially,50,120.4526,,,[],,0,1,1,1,1,audio/Narrative7Situation1.wav,audio/Narrative8Situation1.wav,audio/Narrative5Situation1.wav,audio/Narrative6Situation1.wav,2,5,5,2,6.6014,,,,,,,,,,,,,,,,,,,,,,,,,,,,,,,,,,,,,,
,,,,,,56875435369319000c26947d,2024-05-13_11h33.59.971,group3.1-3.2-social-tom,2023.2.2,Linux x86_64,59.88023952,65c5074098b851296ff0b7ed,664232bea79683a540f69ee8,,,,,,,,,,,,,,,,,,,,,,,,,,,,,120.4531,1,audio/Narrative8Situation2.wav,123.4648,,123.465,133.5947,"[[63.1,2332],[63.4,2416],[63.4,2498],[63.4,2582],[63.4,2665],[63.4,2748],[64.9,2832],[65.7,2915],[66.1,2999],[66.6,3082],[66.7,3165],[66.7,3248],[66.7,3332],[66.7,3415],[66.7,3498],[66.7,3583],[66.7,3665],[66.7,3765],[66.7,3848],[66.7,3931],[66.7,4015],[66.7,4098],[66.7,4181],[66.7,4264],[66.7,4348],[66.7,4431],[66.7,4514],[66.7,4599],[66.7,4681],[66.7,4764],[66.7,4847],[66.7,4931],[66.7,5014],[66.7,5098],[66.7,5181],[66.7,5264],[66.7,5347],[66.7,5431],[66.7,5514],[66.7,5598],[66.7,5681],[66.7,5764],[66.7,5847],[66.7,5930],[66.7,6014],[66.7,6097],[66.7,6180],[66.7,6264],[66.7,6347],[66.7,6431],[66.7,6514],[66.7,6597],[66.7,6683],[66.7,6764],[66.7,6847],[66.7,6930],[66.7,7013],[66.7,7097],[66.7,7180],[66.7,7263],[66.7,7347],[66.7,7430],[66.7,7513],[66.7,7597],[66.7,7680],[66.7,7764],[66.7,7846],[66.7,7930],[66.7,8013],[66.7,8096],[66.7,8180],[66.7,8263],[66.7,8347],[66.7,8430],[66.7,8513],[66.7,8596],[66.7,8679],[66.7,8763],[66.7,8847],[66.7,8929],[66.7,9013],[66.7,9096],[66.7,9179],[66.7,9263],[66.7,9346],[66.7,9429],[66.7,9512],[66.7,9597],[66.7,9679],[66.7,9763],[66.7,9846],[66.7,9929],[66.7,10012],[66.7,10096]]",1,0,133.595,144.3079,75.75019083,10.5773,"[{""rating"":75.75019083261442,""responseTime"":10.577299999982102}]",space,10.1606,,144.3079,Partially,50,144.3115,,,[],,0,2,2,2,1,audio/Narrative7Situation2.wav,audio/Narrative8Situation2.wav,audio/Narrative5Situation2.wav,audio/Narrative6Situation2.wav,3,3,3,3,,,,,,,,,,,,,,,,,,,,,,,,,,,,,,,,,,,,,,,
,,,,,,56875435369319000c26947d,2024-05-13_11h33.59.971,group3.1-3.2-social-tom,2023.2.2,Linux x86_64,59.88023952,65c5074098b851296ff0b7ed,664232bea79683a540f69ee8,,,,,,,,,,,,,,,,,,,,,,,,,,,,,144.3119,1,audio/Narrative8Situation3.wav,148.323,,148.323,170.7153,"[[76.5,6583],[77.8,6664],[78.9,6748],[79.1,6831],[78.7,6914],[76.4,6997],[75.6,7080],[75.4,7163],[75.4,7247],[75.4,7330],[75.4,7413],[75.4,7496],[75.4,7580],[75.4,7663],[75.4,7746],[75.4,7830],[75.4,7913],[75.4,7996],[75.4,8080],[75.4,8163],[75.4,8246],[75.4,8329],[75.4,8413],[75.4,8496],[75.4,8580],[75.4,8663],[75.4,8746],[75.4,8830],[75.4,8913],[75.4,8996],[75.4,9079],[75.4,9163],[75.4,9246],[75.4,9329],[75.4,9413],[75.4,9496],[75.4,9579],[75.4,9662],[75.4,9746],[75.4,9829],[75.4,9912],[75.4,9996],[75.4,10079],[75.4,10162],[75.4,10245],[75.4,10329],[75.4,10412],[75.4,10495],[75.4,10579],[75.4,10662],[75.4,10746],[75.4,10829],[75.4,10912],[75.4,10995],[75.4,11079],[75.4,11162],[75.4,11245],[75.4,11329],[75.4,11412],[75.4,11496],[75.4,11578],[75.4,11662],[75.4,11745],[75.4,11828],[75.4,11912],[75.4,11995],[75.4,12078],[75.4,12162],[75.4,12245],[75.4,12328],[75.4,12411],[75.4,12495],[75.4,12578],[75.4,12661],[75.4,12745],[75.4,12828],[75.4,12911],[75.4,12995],[74.1,13080],[74,13161],[74,13245],[74,13328],[74,13411],[74,13494],[74,13578],[74,13661],[74,13744],[74,13828],[74,13911],[74,13994],[74,14077],[74,14161],[74,14244],[74,14327],[74,14411],[74,14494],[74,14577],[74,14661],[74,14744],[74,14828],[74,14911],[74,14994],[74,15077],[74,15161],[74,15244],[74,15327],[74,15411],[74,15494],[74,15578],[74,15661],[74,15744],[74,15827],[74,15910],[74,15994],[74,16077],[74,16160],[74,16244],[74,16327],[74,16410],[74,16494],[74,16577],[74,16660],[74,16743],[74,16827],[74,16910],[74,16993],[74,17077],[74,17160],[74,17243],[74,17327],[74,17410],[74,17493],[74,17576],[74,17660],[74,17743],[73.4,17827],[70.1,18160],[70.8,18243],[70.8,18327],[70.8,18410],[70.9,18493],[70.6,18577],[70.6,18660],[70.6,18743],[70.6,18826],[70.6,18909],[70.6,18993],[70.6,19076],[70.6,19159],[70.6,19242],[70.6,19326],[70.6,19409],[70.6,19493],[70.6,19577],[70.6,19659],[70.6,19742],[70.6,19826],[70.6,19909],[70.6,19992],[70.6,20075],[70.6,20159],[70.6,20242],[70.6,20325],[70.6,20409],[70.6,20492],[70.6,20575],[70.6,20659],[70.6,20742],[70.6,20826],[70.6,20909],[70.6,20992],[70.6,21076],[72.5,21160],[73.7,21243],[73.9,21325],[73.9,21408],[73.9,21492],[73.9,21575],[73.9,21658],[73.9,21742],[73.9,21825],[73.9,21908],[73.9,21992],[73.9,22075],[73.9,22158],[73.9,22241],[73.9,22325]]",1,0,170.7156,178.3858,69.96257097,7.6578,"[{""rating"":69.96257096506551,""responseTime"":7.6578000000119175}]",space,0.3177,,178.3865,Definitely yes,100,178.3913,,,[],,0,3,3,3,1,audio/Narrative7Situation3.wav,audio/Narrative8Situation3.wav,audio/Narrative5Situation3.wav,audio/Narrative6Situation3.wav,8,4,3,5,,,,,,,,,,,,,,,,,,,,,,,,,,,,,,,,,,,,,,,
,,,,,,56875435369319000c26947d,2024-05-13_11h33.59.971,group3.1-3.2-social-tom,2023.2.2,Linux x86_64,59.88023952,65c5074098b851296ff0b7ed,664232bea79683a540f69ee8,,,,,,,,,,,,,,,,,,,,,,,,,,,,,178.3917,1,audio/Narrative8Situation4.wav,181.3948,,181.3949,195.5733,"[[71.5,1749],[72.6,1833],[72.6,1915],[72.5,1999],[72.3,2083],[72.2,2165],[72.2,2248],[72.2,2332],[72.2,2415],[72.2,2499],[72.2,2582],[72.2,2699],[72.2,2766],[72.2,2848],[72.2,2932],[72.2,3015],[72.2,3099],[72.2,3181],[72.2,3265],[72.2,3348],[72.2,3432],[72.2,3515],[72.2,3598],[72.2,3681],[72.2,3765],[72.2,3848],[72.2,3931],[72.2,4014],[72.2,4098],[72.2,4181],[72.2,4265],[72.2,4348],[72.2,4431],[72.2,4514],[72.2,4598],[72.2,4681],[72.2,4764],[72.2,4848],[72.2,4931],[72.2,5015],[72.2,5098],[72.2,5181],[72.2,5264],[72.2,5347],[72.2,5431],[72.2,5514],[72.2,5597],[72.2,5680],[72.2,5764],[72.2,5847],[72.2,5931],[72.2,6014],[72.2,6097],[72.2,6180],[72.2,6264],[72.2,6347],[72.2,6430],[72.2,6514],[72.2,6597],[72.2,6681],[72.2,6764],[72.2,6848],[72.2,6931],[72.2,7013],[72.2,7097],[72.2,7180],[72.2,7263],[72.2,7347],[72.2,7430],[72.2,7513],[72.2,7597],[72.2,7681],[72.2,7763],[72.2,7846],[72.2,7930],[72.2,8013],[72.2,8096],[72.2,8180],[72.2,8263],[72.2,8346],[72.2,8430],[72.2,8513],[72.2,8597],[72.2,8680],[72.2,8763],[72.2,8846],[72.2,8930],[72.2,9013],[72.2,9096],[72.2,9180],[72.2,9263],[72.2,9346],[72.2,9429],[72.2,9513],[72.2,9596],[72.2,9679],[72.2,9763],[72.2,9846],[72.2,9930],[72.2,10013],[72.2,10096],[72.2,10179],[72.2,10263],[72.2,10346],[72.2,10429],[72.2,10513],[72.2,10596],[72.2,10679],[72.2,10762],[72.2,10846],[72.2,10929],[72.2,11012],[72.2,11097],[72.2,11179],[72.2,11262],[72.2,11345],[72.2,11429],[72.2,11512],[72.2,11599],[72.2,11679],[72.2,11762],[72.2,11845],[72.2,11928],[72.2,12012],[72.2,12096],[72.2,12178],[72.2,12261],[72.2,12345],[72.2,12428],[72.2,12512],[72.2,12595],[72.2,12678],[72.2,12762],[72.2,12845],[72.2,12930],[72.2,13012],[72.2,13095],[72.2,13178],[72.2,13261],[72.2,13344],[72.2,13428],[72.2,13511],[72.2,13595],[72.2,13679],[72.2,13761],[72.2,13845],[72.2,13927],[72.2,14011],[72.2,14094],[72.2,14178]]",1,0,195.5735,200.1882,72.84732432,4.4362,"[{""rating"":72.44643300964971,""responseTime"":3.213499999999982},{""rating"":72.8473243178631,""responseTime"":4.4362000000178625}]",space,4.0695,,200.1882,Definitely yes,100,200.192,,,[],,0,4,4,4,1,audio/Narrative7Situation4.wav,audio/Narrative8Situation4.wav,audio/Narrative5Situation4.wav,audio/Narrative6Situation4.wav,3,3,1,2,,,,,,,,,,,,,,,,,,,,,,,,,,,,,,,,,,,,,,,
,,,,,,56875435369319000c26947d,2024-05-13_11h33.59.971,group3.1-3.2-social-tom,2023.2.2,Linux x86_64,59.88023952,65c5074098b851296ff0b7ed,664232bea79683a540f69ee8,,,,,,,,,,,,,,,,,,,,,,,,,,,,,200.1926,1,audio/Narrative8Situation5.wav,202.204,,202.2041,210.4523,"[[72.9,3498],[73.8,3582],[76,3665],[76.6,3748],[76.7,3832],[73.8,3915],[72.5,3998],[72.5,4081],[72.5,4165],[72.5,4248],[72.5,4332],[72.5,4414],[72.5,4498],[72.5,4581],[72.5,4664],[72.5,4748],[72.5,4831],[72.5,4914],[72.5,4997],[72.5,5081],[72.5,5164],[72.5,5248],[72.5,5331],[72.5,5414],[72.5,5498],[72.5,5581],[72.5,5664],[72.5,5747],[72.5,5831],[72.5,5914],[72.5,5997],[72.5,6081],[72.5,6164],[72.5,6247],[72.5,6331],[72.5,6414],[72.5,6497],[72.5,6582],[72.5,6664],[72.5,6747],[72.5,6830],[72.5,6913],[72.5,6997],[72.5,7080],[72.5,7163],[72.5,7264],[72.5,7347],[72.5,7430],[72.5,7513],[72.5,7597],[72.5,7680],[72.5,7763],[72.7,7848],[73.1,7932],[73.2,8015],[73.3,8099],[73.3,8180]]",1,0,210.453,211.136,73.28259775,0.2116,"[{""rating"":73.28259775275266,""responseTime"":0.21159999999403567}]",space,0.1352,,211.1364,Definitely yes,100,211.1397,,,[],,0,5,5,5,1,audio/Narrative7Situation5.wav,audio/Narrative8Situation5.wav,audio/Narrative5Situation5.wav,audio/Narrative6Situation5.wav,5,2,5,2,,,,,,,,,,,,,,,,,,,,,,,,,,,,,,,,,,,,,,,
,,,,,,56875435369319000c26947d,2024-05-13_11h33.59.971,group3.1-3.2-social-tom,2023.2.2,Linux x86_64,59.88023952,65c5074098b851296ff0b7ed,664232bea79683a540f69ee8,,,,,,,,,,,,,,,,,,,,,,,,,,,,,211.1408,1,audio/Narrative8Situation6.wav,213.1502,,213.1503,219.6313,"[[74.2,2332],[75.2,2415],[75.7,2499],[76,2582],[75.4,2665],[71.8,2749],[71.8,2831],[71.8,2915],[71.7,2998],[71.7,3082],[71.7,3165],[71.7,3248],[71.7,3331],[71.7,3415],[71.7,3498],[71.7,3581],[71.7,3665],[71.7,3748],[71.7,3831],[71.7,3914],[71.7,3998],[71.7,4081],[71.7,4165],[71.7,4248],[71.7,4331],[71.7,4415],[71.7,4498],[71.7,4581],[71.7,4664],[71.7,4748],[71.7,4831],[71.7,4914],[71.7,4997],[71.7,5081],[71.7,5164],[71.7,5247],[71.7,5331],[71.7,5414],[71.7,5497],[71.7,5581],[71.7,5664],[71.7,5748],[71.7,5831],[71.7,5914],[71.7,5997],[71.7,6080],[71.7,6164],[71.7,6247],[71.7,6330],[71.7,6414]]",1,0,219.6316,232.8437,75.04928152,12.36,"[{""rating"":75.0492815159078,""responseTime"":12.360000000000014}]",space,12.6731,,232.8437,Definitely yes,100,232.847,,,[],,0,6,6,6,1,audio/Narrative7Situation6.wav,audio/Narrative8Situation6.wav,audio/Narrative5Situation6.wav,audio/Narrative6Situation6.wav,3,2,3,2,,,,,,,,,,,,,,,,,,,,,,,,,,,,,,,,,,,,,,,
,,,,,,56875435369319000c26947d,2024-05-13_11h33.59.971,group3.1-3.2-social-tom,2023.2.2,Linux x86_64,59.88023952,65c5074098b851296ff0b7ed,664232bea79683a540f69ee8,,,,,,,,,,,,,,,,,,,,,,,,,,,,,232.8475,1,audio/Narrative8Situation7.wav,235.859,,235.8591,247.9553,"[[65,1999],[65,2081],[65,2165],[65,2248],[65,2332],[65,2415],[65,2499],[65,2581],[65,2665],[65,2748],[65,2832],[65,2915],[65,2998],[65,3082],[65,3165],[65,3248],[65,3331],[65,3414],[65,3498],[65,3581],[65,3665],[65,3748],[65,3831],[65,3915],[65,3998],[65,4081],[65,4164],[65,4248],[65,4331],[65,4415],[65,4498],[65,4581],[65,4664],[65,4748],[65,4831],[65,4914],[65,4997],[65,5081],[65,5164],[65,5247],[65,5331],[65,5414],[65,5497],[65,5581],[65,5664],[65,5747],[65,5831],[65,5914],[65,5997],[65,6080],[65,6164],[65,6247],[65,6330],[65,6414],[65,6497],[65,6581],[65,6664],[65,6747],[65,6830],[65,6913],[65,6997],[65,7080],[65,7163],[65,7247],[65,7330],[65,7413],[65,7497],[65,7580],[65,7667],[65,7748],[65,7830],[65,7914],[65,7996],[65,8080],[65,8163],[65,8246],[65,8330],[65,8413],[65,8496],[65,8580],[65,8663],[65,8746],[65,8829],[65,8913],[65,8996],[65,9079],[65,9163],[65,9246],[65,9329],[65,9413],[65,9496],[65,9579],[65,9663],[65,9746],[65,9829],[65,9912],[65,9996],[65,10079],[65,10162],[65,10245],[65,10329],[65,10413],[65,10496],[65,10579],[65,10662],[65,10745],[65,10829],[65,10912],[65,10995],[65,11079],[65,11162],[65,11245],[65,11329],[65,11412],[65,11495],[65,11578],[65,11662],[65,11745],[65,11829],[65,11912],[65,11995],[65,12078]]",1,0,247.9556,262.7497,77.55155694,14.5932,"[{""rating"":80.38430107225467,""responseTime"":12.810199999988072},{""rating"":77.55155694059965,""responseTime"":14.593199999988087}]",space,14.2473,,262.7498,Definitely yes,100,262.7536,,,[],,0,7,7,7,1,audio/Narrative7Situation7.wav,audio/Narrative8Situation7.wav,audio/Narrative5Situation7.wav,audio/Narrative6Situation7.wav,5,3,4,5,,,,,,,,,,,,,,,,,,,,,,,,,,,,,,,,,,,,,,,
,,,,,,56875435369319000c26947d,2024-05-13_11h33.59.971,group3.1-3.2-social-tom,2023.2.2,Linux x86_64,59.88023952,65c5074098b851296ff0b7ed,664232bea79683a540f69ee8,,,,,,,,,,,,,,,,,,,,,,,,,,,,,262.754,1,audio/Narrative8Situation8.wav,265.7651,,265.7651,278.6117,"[[48.6,677],[49,766],[50,859],[50.7,933],[50.9,1018],[50.9,1099],[50.9,1182],[50.9,1266],[50.9,1349],[50.9,1432],[58,1517],[64.6,1599],[65.5,1683],[66.4,1783],[67.1,1866],[67.4,1949],[68.7,2032],[71.7,2116],[71.9,2199],[71.9,2282],[71.9,2365],[76.5,2449],[79.1,2532],[79.1,2615],[79.1,2698],[79,2782],[79,2865],[79,2949],[79,3032],[79,3120],[79,3198],[79,3282],[79,3365],[79,3448],[79,3531],[79,3615],[79,3698],[78.7,3782],[75.3,7614],[76,7697],[76.2,7780],[76.5,7864],[76.7,7949],[76.7,8030],[76.6,8114],[76.6,8196],[76.6,8280],[76.6,8363],[76.5,8446],[76.5,8530],[76.5,8613],[76.5,8696],[76.5,8780],[76.5,8863],[76.5,8946],[76.5,9030],[76.5,9113],[76.5,9197],[73.8,9280],[47.8,9363]]",1,0,278.6122,287.2911,80.0023521,8.2569,"[{""rating"":73.95926087950386,""responseTime"":4.091900000005978},{""rating"":80.00235209994393,""responseTime"":8.256900000005942}]",space,8.133,,287.2912,Not at all,0,287.2972,,,[],,0,8,8,8,1,audio/Narrative7Situation8.wav,audio/Narrative8Situation8.wav,audio/Narrative5Situation8.wav,audio/Narrative6Situation8.wav,2,3,3,5,,,,,,,,,,,,,,,,,,,,,,,,,,,,,,,,,,,,,,,
,,,,,,56875435369319000c26947d,2024-05-13_11h33.59.971,group3.1-3.2-social-tom,2023.2.2,Linux x86_64,59.88023952,65c5074098b851296ff0b7ed,664232bea79683a540f69ee8,,,,,,,,,,,,,,,,,,,,,,,,,,,,,287.2976,1,audio/Narrative8Situation9.wav,290.3066,,290.3066,301.6192,"[[80.7,1999],[79,2082],[78.1,2167],[77.9,2249],[77.9,2332],[77.9,2415],[77.9,2498],[77.8,2582],[77.8,2665],[77.8,2748],[77.8,2832],[77.8,2915],[77.8,2998],[77.8,3082],[77.8,3165],[77.8,3248],[77.8,3331],[77.8,3415],[77.8,3498],[77.8,3582],[77.8,3665],[77.8,3748],[77.8,3832],[77.8,3915],[77.8,3998],[77.8,4081],[77.8,4165],[77.8,4248],[77.8,4331],[77.8,4414],[77.8,4497],[77.2,4582],[76.7,4665],[76.5,4748],[75.8,4831],[75.6,4915],[75.6,4998],[75.6,5082],[75.6,5164],[75.6,5247],[75.6,5331],[75.6,5414],[75.6,5497],[75.6,5581],[75.6,5664],[75.6,5747],[75.6,5831],[75.6,5914],[75.6,5997],[75.6,6081],[75.6,6164],[75.6,6247],[75.6,6330],[75.6,6414],[75.6,6497],[75.6,6580],[75.6,6664],[75.6,6747],[75.6,6830],[75.3,6914],[74.8,6997],[74.5,7081],[74.4,7163],[74.4,7247],[74.4,7330],[74.3,7413],[74.3,7497],[74.3,7580],[74.3,7664],[74.3,7747],[74.3,7830],[74.3,7913],[74.3,7997],[74.3,8080],[74.3,8163],[74.3,8246],[74.3,8330],[74.3,8413],[74.3,8496],[74.3,8580],[74.3,8663],[74.3,8746],[74.3,8830],[74.3,8913],[74.3,8997],[74.3,9079],[74.3,9163],[74.3,9246],[74.3,9329],[74.3,9413],[74.3,9496],[74.3,9579],[74.3,9663],[74.3,9746],[74.3,9829],[74.3,9913],[76.2,9996],[78.6,10079],[78.7,10162],[78.7,10246],[78.1,10330],[76.4,10413],[76.1,10496],[76.1,10579],[76.1,10662],[76.1,10746],[76.1,10829],[76.1,10912],[76.1,10995],[76.1,11079],[76.1,11162],[76.1,11247]]",1,0,301.6194,302.6021,76.08494837,0.7445,"[{""rating"":76.08494837034799,""responseTime"":0.7445000000000164}]",space,0.4353,,302.6022,Not at all,0,302.6049,,,[],,0,9,9,9,1,audio/Narrative7Situation9.wav,audio/Narrative8Situation9.wav,audio/Narrative5Situation9.wav,audio/Narrative6Situation9.wav,2,3,3,4,,,,,,,,,,,,,,,,,,,,,,,,,,,,,,,,,,,,,,,
,,,,,,56875435369319000c26947d,2024-05-13_11h33.59.971,group3.1-3.2-social-tom,2023.2.2,Linux x86_64,59.88023952,65c5074098b851296ff0b7ed,664232bea79683a540f69ee8,,,,,,,,,,,,,,,,,,,,,,,,,,,,,302.6053,1,audio/Narrative7Situation1.wav,304.6181,,304.6182,360.5154,"[[999,0],[999,83],[999,166],[999,250],[999,333],[999,416],[999,499],[999,583],[999,666],[999,749],[999,832],[999,916],[999,999],[999,1082],[999,1166],[999,1250],[999,1332],[999,1416],[999,1499],[999,1582],[999,1665],[999,1749],[999,1832],[999,1915],[999,1999],[999,2082],[999,2165],[999,2249],[999,2332],[999,2415],[999,2500],[999,2582],[999,2665],[999,2749],[999,2832],[999,2915],[999,2998],[999,3082],[999,3165],[999,3248],[999,3332],[999,3415],[999,3499],[999,3581],[999,3665],[999,3748],[999,3831],[999,3915],[999,3998],[999,4081],[999,4165],[999,4248],[999,4331],[999,4415],[54.9,4501],[54.2,4582],[54,4665],[53.9,4748],[53.9,4831],[53.9,4914],[53.9,4998],[54.1,5083],[54.3,5164],[56.3,5248],[57.3,5332],[57.4,5414],[57.4,5498],[57.4,5581],[57.4,5664],[57.4,5748],[57.4,5831],[57.4,5914],[57.4,5997],[57.4,6081],[57.4,6164],[57.4,6247],[57.4,6331],[57.4,6414],[57.4,6497],[54.9,6581],[52.9,6664],[52.4,6748],[52.2,6831],[52.7,6914],[63.4,6997],[64.8,7081],[66.4,7164],[68.3,7247],[68.6,7330],[68.6,7413],[68.6,7497],[68.6,7580],[68.6,7663],[68.6,7747],[68.6,7830],[68.6,7913],[68.6,7997],[68.6,8080],[68.6,8163],[68.6,8246],[68.6,8330],[68.6,8413],[68.6,8496],[68.6,8580],[68.6,8663],[68.6,8746],[68.6,8830],[68.6,8913],[68.6,8996],[68.6,9080],[68.6,9163],[68.6,9246],[68.6,9330],[68.6,9413],[68.6,9496],[68.6,9579],[68.6,9663],[68.6,9746],[68.6,9829],[68.6,9913],[68.6,9996],[68.6,10079],[68.6,10163],[68.6,10246],[68.6,10329],[68.6,10412],[68.6,10496],[68.6,10579],[68.6,10662],[68.6,10746],[68.6,10829],[68.6,10912],[68.6,10996],[68.6,11079],[68.6,11162],[68.6,11246],[68.6,11329],[68.6,11412],[68.6,11496],[68.6,11579],[68.6,11662],[68.6,11745],[68.6,11829],[68.6,11912],[68.6,11995],[68.6,12079],[68.6,12162],[68.6,12245],[68.6,12328],[68.6,12412],[68.6,12495],[68.6,12578],[68.6,12662],[68.6,12745],[68.6,12828],[68.6,12912],[68.6,12995],[68.6,13078],[68.6,13162],[68.6,13245],[68.6,13328],[68.6,13411],[68.6,13495],[68.6,13578],[68.6,13661],[68.6,13745],[68.6,13828],[68.6,13911],[68.6,13994],[68.6,14078],[68.6,14161],[68.6,14245],[68.6,14328],[68.6,14411],[68.6,14494],[68.6,14579],[68.6,14661],[68.6,14744],[68.6,14827],[68.6,14911],[68.6,14995],[68.6,15077],[68.6,15161],[68.6,15244],[68.6,15328],[68.6,15411],[68.6,15494],[68.6,15577],[68.6,15661],[68.6,15744],[68.6,15827],[68.6,15911],[68.6,15994],[68.6,16077],[68.6,16160],[73.8,16244],[74,16661],[73.8,16744],[73.8,16827],[73.8,16910],[73.7,16993],[73.7,17077],[73.7,17160],[73.7,17243],[73.7,17327],[73.7,17410],[73.7,17494],[73.7,17577],[73.7,17660],[73.7,17743],[73.7,17827],[73.7,17910],[73.7,17993],[73.7,18076],[73.7,18160],[73.7,18243],[73.7,18326],[73.7,18410],[73.7,18493],[73.7,18576],[73.7,18660],[73.7,18743],[73.7,18826],[73.7,18910],[73.7,18993],[73.7,19076],[73.7,19159],[73.7,19243],[73.7,19326],[73.7,19409],[73.7,19493],[73.7,19576],[73.7,19660],[73.7,19742],[73.7,19826],[73.7,19909],[73.7,19993],[73.7,20076],[73.7,20159],[73.7,20243],[73.7,20326],[73.7,20409],[73.7,20492],[73.7,20576],[73.7,20659],[73.7,20742],[73.7,20826],[73.7,20909],[73.7,20992],[73.7,21075],[73.7,21159],[73.7,21242],[73.7,21325],[73.7,21409],[73.7,21492],[73.7,21575],[73.7,21658],[73.7,21742],[73.7,21825],[73.7,21909],[74,21998],[74.6,22075],[72.1,22908],[72,22991],[72,23075],[72,23158],[72,23241],[71.9,23325],[71.9,23408],[71.9,23491],[71.9,23574],[71.9,23658],[71.4,23742],[71,23825],[71,23908],[71,23991],[70.9,24074],[70.9,24158],[70.9,24241],[70.9,24325],[70.9,24407],[70.9,24491],[70.9,24574],[70.9,24657],[70.9,24741],[70.9,24824],[70.9,24907],[70.9,24991],[69.5,25075],[66.7,25158],[66,25241],[66,25324],[66,25407],[66,25491],[66.2,25574],[66.2,25657],[66.2,25741],[66.2,25824],[66.2,25907],[66.2,25990],[66.2,26073],[66.2,26157],[66.2,26240],[66.2,26324],[66.2,26407],[66.2,26490],[66.2,26573],[66.2,26657],[66.2,26740],[66.2,26824],[66.2,26907],[66.2,26990],[66.2,27073],[66.2,27157],[66.2,27240],[66.2,27323],[66.2,27407],[66.2,27490],[66.2,27573],[66.2,27656],[66.2,27740],[66.2,27823],[66.2,27906],[66.2,27989],[66.2,28073],[66.2,28156],[66.2,28240],[66.2,28323],[66.2,28406],[66.2,28489],[66.2,28573],[66.2,28656],[66.2,28739],[66.2,28823],[66.2,28906],[66.2,28990],[66.2,29072],[66.2,29156],[66.2,29239],[66.2,29322],[66.2,29406],[66.2,29489],[66.2,29572],[66.2,29656],[66.2,29739],[66.2,29822],[66.2,29906],[66.2,29989],[66.2,30072],[66.2,30155],[66.2,30239],[66.2,30322],[66.2,30405],[66.2,30489],[68,30576],[68.3,30655],[68.3,30739],[68.3,30822],[68.3,30905],[68.3,30988],[68.3,31072],[68.3,31155],[68.3,31238],[68.3,31322],[68.3,31405],[68.3,31488],[69.7,31574],[70.1,31655],[70.2,31738],[70.2,31821],[70.2,31905],[70.2,31988],[70.2,32072],[70.2,32155],[70.2,32238],[70.2,32321],[70.2,32405],[70.2,32488],[70.2,32571],[70.2,32655],[70.2,32738],[70.2,32822],[70.7,32905],[70.9,32988],[70.9,33071],[70.9,33155],[70.8,33238],[70.8,33321],[70.8,33404],[70.8,33488],[70.8,33571],[70.8,33654],[70.8,33738],[70.8,33821],[70.8,33904],[70.8,33987],[70.8,34071],[70.8,34154],[70.8,34237],[70.8,34321],[70.8,34404],[70.8,34487],[70.8,34571],[70.8,34654],[70.8,34737],[70.8,34821],[70.8,34904],[70.8,34987],[70.8,35070],[70.8,35154],[70.8,35237],[70.8,35320],[70.8,35404],[70.8,35487],[70.8,35571],[70.8,35654],[70.8,35737],[70.8,35820],[70.8,35904],[70.8,35987],[70.8,36070],[70.8,36154],[70.8,36237],[70.8,36320],[70.8,36403],[70.8,36487],[70.8,36570],[70.8,36653],[70.8,36736],[70.8,36820],[70.8,36903],[70.8,36986],[70.8,37070],[70.8,37153],[70.8,37236],[70.8,37320],[70.8,37403],[70.8,37486],[70.8,37569],[70.8,37653],[70.8,37736],[70.8,37820],[70.8,37903],[70.8,37986],[70.8,38069],[70.8,38153],[70.8,38236],[70.8,38319],[70.8,38403],[70.8,38486],[70.8,38569],[70.8,38652],[70.8,38736],[70.8,38819],[70.8,38902],[70.4,38986],[69.3,39070],[68.9,39153],[68.7,39236],[68.6,39319],[68.6,39402],[68.6,39486],[68.6,39569],[68.6,39652],[68.6,39736],[68.6,39819],[68.6,39902],[68.6,39985],[68.6,40069],[68.6,40152],[68.6,40235],[68.6,40319],[68.6,40402],[68.6,40485],[68.6,40569],[68.6,40652],[68.6,40735],[68.6,40819],[68.6,40902],[68.6,40985],[68.6,41068],[68.6,41152],[67.7,41235],[66.3,41319],[65.7,41402],[65.3,41485],[65.2,41568],[65.2,41651],[65.2,41735],[65.1,41818],[65.1,41901],[65.1,41985],[65.1,42068],[65.1,42151],[65.1,42235],[65.1,42318],[65.1,42401],[65.1,42485],[65.1,42568],[65.1,42651],[65.1,42735],[65.1,42818],[65.1,42901],[65.1,42984],[65.1,43068],[65.1,43151],[65.1,43234],[65.1,43318],[65.1,43401],[65.1,43484],[65.1,43567],[65.1,43651],[65.1,43734],[65.1,43817],[65.1,43901],[65.1,43984],[65.1,44067],[65.1,44151],[65.1,44234],[65.1,44318],[65.1,44400],[65.1,44484],[65.1,44567],[70.2,44651],[71,44734],[71,44817],[71,44901],[70.6,44984],[70.5,45067],[70.5,45150],[70.4,45234],[70.4,45317],[70.4,45400],[70.4,45483],[70.4,45567],[70.4,45650],[70.4,45733],[70.4,45817],[70.4,45900],[70.4,45983],[70.4,46067],[70.4,46150],[70.4,46233],[70.4,46317],[70.4,46400],[70.4,46483],[70.4,46567],[70.4,46650],[70.4,46733],[72.6,46817],[73.2,46900],[73.2,46983],[73.2,47067],[73.2,47149],[73.2,47233],[73.2,47316],[73.1,47400],[73.1,47483],[73.1,47566],[73.1,47649],[73.1,47733],[73.1,47816],[73.1,47899],[73.1,47982],[73.1,48066],[73.1,48149],[73.1,48232],[73.1,48316],[73.1,48399],[73.1,48482],[73.1,48566],[73.1,48649],[73.1,48732],[68.1,48817],[66.4,48899],[66.4,48982],[66.4,49066],[66.4,49149],[66.3,49232],[66.3,49316],[66.3,49399],[66.3,49482],[66.3,49566],[66.3,49649],[66.3,49732],[66.3,49815],[66.3,49898],[66.3,49982],[67.4,50066],[70.1,50149],[70.6,50232],[70.8,50316],[70.8,50398],[70.8,50482],[70.8,50565],[70.8,50648],[70.8,50732],[70.8,50815],[70.8,50899],[70.8,50986],[70.8,51065],[70.8,51148],[70.8,51231],[70.8,51315],[70.8,51398],[70.8,51482],[70.8,51565],[70.8,51648],[70.8,51731],[70.8,51815],[70.8,51898],[70.8,51981],[70.8,52065],[70.8,52148],[70.8,52231],[70.8,52314],[70.8,52398],[71,52482],[71.8,52565],[72,52648],[72,52731],[72,52814],[72,52898],[72,52981],[72,53064],[72,53148],[72,53231],[72,53314],[72,53397],[72,53480],[72,53564],[72,53647],[72,53730],[72,53814],[72,53898],[72,53981],[72,54064],[72,54147],[72,54230],[72,54314],[72,54397],[72,54480],[72,54564],[72,54647],[72,54730],[72,54814],[72,54897],[72,54980],[72,55063],[72,55147],[72,55230],[72,55313],[72,55397],[72,55480],[72,55563],[72,55647],[72,55730],[72,55813],[72,55896]]",1,0,360.5157,363.1982,71.96606967,2.2664,"[{""rating"":71.96606966726048,""responseTime"":2.2664000000059445}]",space,2.1349,,363.1984,Not at all,0,363.2015,,,[],,0,10,10,10,1,audio/Narrative8Situation1.wav,audio/Narrative7Situation1.wav,audio/Narrative6Situation1.wav,audio/Narrative5Situation1.wav,5,2,2,5,,,,,,,,,,,,,,,,,,,,,,,,,,,,,,,,,,,,,,,
,,,,,,56875435369319000c26947d,2024-05-13_11h33.59.971,group3.1-3.2-social-tom,2023.2.2,Linux x86_64,59.88023952,65c5074098b851296ff0b7ed,664232bea79683a540f69ee8,,,,,,,,,,,,,,,,,,,,,,,,,,,,,363.2019,1,audio/Narrative7Situation2.wav,366.2138,,366.2138,373.694,"[[72.1,836],[72.3,919],[72.4,1000],[72.9,1082],[73.3,1166],[73.6,1249],[73.8,1332],[73.8,1415],[73.8,1498],[73.8,1582],[73.8,1665],[73.8,1749],[73.8,1832],[73.8,1915],[73.8,1998],[73.8,2082],[73.8,2165],[73.8,2248],[73.8,2331],[73.8,2415],[73.8,2498],[73.8,2581],[73.8,2665],[73.8,2748],[73.8,2832],[73.8,2915],[73.8,2998],[73.8,3081],[73.8,3165],[73.8,3248],[73.8,3331],[73.8,3414],[73.8,3498],[73.8,3581],[73.8,3665],[73.8,3750],[73.8,3832],[73.8,3914],[73.8,3997],[73.8,4081],[73.8,4164],[73.8,4249],[73.8,4331],[73.8,4414],[73.8,4497],[73.8,4581],[73.8,4664],[73.8,4748],[73.8,4832],[73.8,4914],[73.8,4997],[73.8,5081],[73.8,5164],[73.8,5247],[73.8,5330],[73.8,5414],[73.8,5497],[73.8,5581],[73.8,5664],[73.8,5747],[73.8,5831],[73.8,5930],[73.8,6013],[73.8,6097],[73.8,6180],[73.8,6264],[73.8,6347],[73.8,6430],[73.8,6513],[73.8,6596],[73.8,6680],[75,6769],[75.6,6847],[75.8,6930],[76,7014],[76,7096],[75.8,7180],[72.2,7263],[71,7347],[70.8,7430]]",1,0,373.6943,380.2424,85.1582272,6.0407,"[{""rating"":65.14925907973469,""responseTime"":4.578600000023812},{""rating"":74.85831417780372,""responseTime"":5.442100000023856},{""rating"":85.1582271950105,""responseTime"":6.040700000017864}]",space,5.9991,,380.2425,Partially,50,380.2481,,,[],,0,11,11,11,1,audio/Narrative8Situation2.wav,audio/Narrative7Situation2.wav,audio/Narrative6Situation2.wav,audio/Narrative5Situation2.wav,3,3,3,3,,,,,,,,,,,,,,,,,,,,,,,,,,,,,,,,,,,,,,,
,,,,,,56875435369319000c26947d,2024-05-13_11h33.59.971,group3.1-3.2-social-tom,2023.2.2,Linux x86_64,59.88023952,65c5074098b851296ff0b7ed,664232bea79683a540f69ee8,,,,,,,,,,,,,,,,,,,,,,,,,,,,,380.2485,1,audio/Narrative7Situation3.wav,388.2563,,388.2563,397.5191,"[[999,12],[999,82],[999,165],[999,249],[999,332],[999,415],[999,499],[999,582],[999,665],[999,749],[65,833],[64.5,915],[63.8,999],[63.5,1082],[63,1165],[62.8,1248],[62.8,1331],[62.8,1415],[62.8,1498],[62.8,1581],[62.8,1665],[62.8,1748],[63.6,1832],[65.6,1915],[66.8,1998],[67.3,2082],[67.8,2165],[68,2249],[68,2331],[68,2415],[68,2498],[68,2581],[68,2664],[68,2748],[68,2831],[68,2914],[68,2998],[68,3081],[68,3165],[68,3248],[68.7,3331],[69.3,3414],[69.5,3498],[69.8,3581],[70.8,3664],[71.4,3748],[72,3831],[72.2,3914],[72.4,3998],[72.6,4081],[72.6,4164],[72.6,4247],[72.6,4331],[72.6,4414],[72.6,4497],[72.6,4580],[72.6,4664],[72.6,4747],[72.6,4830],[72.6,4914],[72.6,4997],[72.6,5080],[72.6,5164],[72.6,5247],[72.6,5330],[72.6,5413],[72.6,5497],[72.6,5580],[72.6,5663],[72.6,5747],[72.6,5830],[72.6,5914],[72.6,5997],[72.6,6080],[72.6,6163],[72.6,6247],[72.6,6330],[72.6,6413],[72.6,6496],[72.6,6580],[72.6,6663],[72.6,6746],[72.6,6830],[72.6,6913],[72.6,6996],[72.6,7080],[72.6,7163],[72.6,7246],[72.6,7331],[72.6,7413],[72.6,7496],[72.6,7579],[72.6,7663],[72.6,7746],[72.6,7829],[72.6,7913],[72.6,7996],[72.6,8079],[72.6,8162],[72.6,8246],[72.6,8329],[72.6,8413],[72.6,8496],[72.6,8579],[72.6,8662],[72.6,8746],[72.6,8829],[72.6,8912],[72.6,8995],[72.6,9079],[72.6,9162],[72.6,9245]]",1,0,397.5193,404.717,73.14043731,4.3744,"[{""rating"":73.14043730881592,""responseTime"":4.374399999976163}]",space,6.6495,,404.7171,Partially,50,404.7199,,,[],,0,12,12,12,1,audio/Narrative8Situation3.wav,audio/Narrative7Situation3.wav,audio/Narrative6Situation3.wav,audio/Narrative5Situation3.wav,4,8,5,3,,,,,,,,,,,,,,,,,,,,,,,,,,,,,,,,,,,,,,,
,,,,,,56875435369319000c26947d,2024-05-13_11h33.59.971,group3.1-3.2-social-tom,2023.2.2,Linux x86_64,59.88023952,65c5074098b851296ff0b7ed,664232bea79683a540f69ee8,,,,,,,,,,,,,,,,,,,,,,,,,,,,,404.7204,1,audio/Narrative7Situation4.wav,407.7324,,407.7325,419.4615,"[[73.4,3249]]",1,0,419.4616,427.5419,69.8336773,7.4674,"[{""rating"":69.83367730431192,""responseTime"":7.467400000005966}]",space,7.536,,427.542,Partially,50,427.5448,,,[],,0,13,13,13,1,audio/Narrative8Situation4.wav,audio/Narrative7Situation4.wav,audio/Narrative6Situation4.wav,audio/Narrative5Situation4.wav,3,3,2,1,,,,,,,,,,,,,,,,,,,,,,,,,,,,,,,,,,,,,,,
,,,,,,56875435369319000c26947d,2024-05-13_11h33.59.971,group3.1-3.2-social-tom,2023.2.2,Linux x86_64,59.88023952,65c5074098b851296ff0b7ed,664232bea79683a540f69ee8,,,,,,,,,,,,,,,,,,,,,,,,,,,,,427.5453,1,audio/Narrative7Situation5.wav,432.5568,,432.5568,441.0539,"[[69,833],[67.4,916],[67.9,999],[70.3,1083],[73.7,1416],[76.5,1499],[76.8,1582],[76.8,1665],[76.8,1749],[76.7,1832],[76.7,1915],[76.7,1999],[76.7,2082],[76.7,2165],[76.7,2249],[76.7,2332],[76.7,2415],[76.7,2499],[76.7,2582],[76.7,2665],[76.7,2748],[76.7,2832],[76.7,2915],[76.7,2998],[76.7,3082],[76.7,3165],[76.7,3248],[76.7,3331],[76.7,3415],[76.7,3498],[76.7,3581],[76.7,3665],[76.7,3748],[76.7,3832],[76.7,3915],[76.7,3998],[76.7,4081],[76.7,4165],[76.7,4248],[76.7,4331],[76.7,4414],[76.7,4498],[76.7,4582],[76.7,4666],[76.7,4748],[76.7,4831],[76.7,4914],[76.7,4998],[76.7,5081],[76.7,5164],[76.7,5248],[76.7,5331],[76.7,5414],[76.7,5498],[76.7,5581],[76.7,5664],[76.7,5747],[76.7,5831],[76.7,5914],[76.7,5997],[76.7,6081],[76.7,6164],[76.7,6247],[76.7,6331],[76.7,6414],[76.7,6497],[76.7,6580],[76.7,6664],[76.7,6747],[76.7,6830],[76.7,6914],[76.7,6997],[76.7,7080],[76.7,7163],[76.7,7247],[76.7,7330],[76.7,7413],[76.7,7497],[76.7,7580],[76.7,7663],[76.7,7747],[76.7,7830],[76.7,7913],[76.7,7997],[76.7,8080],[76.7,8163],[76.7,8247],[76.7,8330],[76.7,8413],[76.7,8497]]",1,0,441.0541,450.967,78.6154586,1.7983,"[{""rating"":78.61545859761176,""responseTime"":1.7983000000119205}]",space,9.3667,,450.9671,Not at all,0,450.9842,,,[],,0,14,14,14,1,audio/Narrative8Situation5.wav,audio/Narrative7Situation5.wav,audio/Narrative6Situation5.wav,audio/Narrative5Situation5.wav,2,5,2,5,,,,,,,,,,,,,,,,,,,,,,,,,,,,,,,,,,,,,,,
,,,,,,56875435369319000c26947d,2024-05-13_11h33.59.971,group3.1-3.2-social-tom,2023.2.2,Linux x86_64,59.88023952,65c5074098b851296ff0b7ed,664232bea79683a540f69ee8,,,,,,,,,,,,,,,,,,,,,,,,,,,,,450.9847,1,audio/Narrative7Situation6.wav,453.9993,,453.9993,463.9792,"[[80.1,1333],[92,1416],[94.9,1499],[95.8,1582],[94.5,1666],[86.8,1749],[81.6,1832],[78.2,1916],[77.8,1999],[77.7,2082],[77.7,2165],[77.7,2249],[77.6,2332],[77.6,2415],[77.6,2499],[77.6,2582],[77.6,2665],[77.6,2748],[77.6,2832],[77.6,2915],[77.6,2998],[77.6,3081],[77.6,3165],[77.6,3248],[77.6,3331],[77.6,3415],[77.6,3498],[77.6,3581],[77.6,3665],[77.6,3748],[77.6,3831],[77.6,3915],[77.6,3998],[77.6,4081],[77.6,4164],[77.6,4248],[77.6,4331],[77.6,4414],[77.6,4498],[77.6,4581],[77.6,4664],[77.6,4747],[77.6,4831],[77.6,4914],[77.6,4997],[77.6,5081],[77.6,5164],[77.6,5247],[77.6,5331],[77.6,5414],[77.6,5497],[77.6,5581],[77.6,5664],[77.6,5747],[77.6,5831],[77.6,5914],[77.6,5997],[77.6,6080],[77.6,6164],[77.6,6247],[77.6,6330],[77.6,6414],[77.6,6497],[77.6,6580],[77.6,6664],[77.6,6747],[77.6,6830],[77.6,6913],[77.6,6997],[77.6,7080],[77.6,7163],[77.6,7247],[77.6,7330],[77.6,7413],[77.6,7497],[77.6,7580],[77.6,7663],[77.6,7747],[77.6,7830],[77.6,7913],[77.6,7996],[77.6,8080],[77.6,8163],[77.6,8247],[77.6,8330],[77.6,8413],[77.6,8496],[77.6,8580],[77.6,8663],[77.6,8746],[77.6,8830],[77.6,8913],[77.6,8996],[77.6,9079],[77.6,9163],[77.6,9246],[77.6,9329],[77.6,9412],[77.6,9496],[77.6,9579],[77.6,9662],[77.6,9746],[77.6,9829],[77.6,9913]]",1,0,463.9793,472.976,78.70736824,7.6631,"[{""rating"":78.70736824102178,""responseTime"":7.663099999994017}]",space,8.4509,,472.9761,Definitely yes,100,472.9817,,,[],,0,15,15,15,1,audio/Narrative8Situation6.wav,audio/Narrative7Situation6.wav,audio/Narrative6Situation6.wav,audio/Narrative5Situation6.wav,2,3,2,3,,,,,,,,,,,,,,,,,,,,,,,,,,,,,,,,,,,,,,,
,,,,,,56875435369319000c26947d,2024-05-13_11h33.59.971,group3.1-3.2-social-tom,2023.2.2,Linux x86_64,59.88023952,65c5074098b851296ff0b7ed,664232bea79683a540f69ee8,,,,,,,,,,,,,,,,,,,,,,,,,,,,,472.9823,1,audio/Narrative7Situation7.wav,477.9912,,477.9917,495.1684,"[[999,11],[999,82],[999,165],[999,248],[999,332],[999,415],[999,498],[999,582],[999,665],[999,749],[999,832],[48.8,916],[48.8,998],[48.9,1081],[48.9,1165],[48.9,1248],[48.9,1332],[76.3,15981],[75.8,16060],[75.3,16143],[75.3,16226],[75.3,16309],[75.3,16393],[75.2,16476],[75.2,16559],[75.2,16643],[75.2,16726],[75.2,16809],[75.2,16893],[75.2,16976],[75.2,17060],[75.2,17142]]",1,0,495.1686,497.534,73.31010345,1.6907,"[{""rating"":73.3101034540936,""responseTime"":1.6907000000178414}]",space,1.8202,,497.5341,Not at all,0,497.5397,,,[],,0,16,16,16,1,audio/Narrative8Situation7.wav,audio/Narrative7Situation7.wav,audio/Narrative6Situation7.wav,audio/Narrative5Situation7.wav,3,5,5,4,,,,,,,,,,,,,,,,,,,,,,,,,,,,,,,,,,,,,,,
,,,,,,56875435369319000c26947d,2024-05-13_11h33.59.971,group3.1-3.2-social-tom,2023.2.2,Linux x86_64,59.88023952,65c5074098b851296ff0b7ed,664232bea79683a540f69ee8,,,,,,,,,,,,,,,,,,,,,,,,,,,,,497.5402,1,audio/Narrative7Situation8.wav,499.55,,499.55,509.58,"[[73.8,1999],[74.5,2082],[75.2,2166],[75.5,2249],[75.7,2332],[75.9,2415],[76,2499],[76.5,2582],[77.2,2666],[78.1,2749],[78.9,2832],[78.9,2915],[78.9,2998],[78.9,3082],[83.1,3165],[84.2,3249],[84.2,3332],[84.2,3415],[84.2,3498],[84.2,3581],[84.2,3665],[82.6,3751],[82.3,3832],[82.3,3915],[82.3,3998],[82.2,4081],[82.2,4164],[82.2,4248],[82.2,4331],[82.2,4415],[82.2,4499],[82.2,4581],[82.2,4664],[82.2,4748],[82.2,4831],[80.5,4914]]",1,0,509.5802,519.6928,69.57060757,9.4131,"[{""rating"":69.57060757290586,""responseTime"":9.41309999999396}]",space,9.5858,,519.693,Definitely yes,100,519.6993,,,[],,0,17,17,17,1,audio/Narrative8Situation8.wav,audio/Narrative7Situation8.wav,audio/Narrative6Situation8.wav,audio/Narrative5Situation8.wav,3,2,5,3,,,,,,,,,,,,,,,,,,,,,,,,,,,,,,,,,,,,,,,
,,,,,,56875435369319000c26947d,2024-05-13_11h33.59.971,group3.1-3.2-social-tom,2023.2.2,Linux x86_64,59.88023952,65c5074098b851296ff0b7ed,664232bea79683a540f69ee8,,,,,,,,,,,,,,,,,,,,,,,,,,,,,519.6997,1,audio/Narrative7Situation9.wav,521.7087,,521.7089,530.3394,"[[84,5247],[84,5331],[84,5415],[84,5498],[83.9,5581],[83.9,5664],[83.9,5748],[83.9,5831],[84,5914],[84,5998],[84,6081],[84,6164],[84,6248],[84,6331],[84,6414],[84,6497],[84,6580],[84,6664],[84,6747],[84,6830],[84,6913],[84,6997],[84,7080],[84,7163],[84,7247],[84,7330],[84,7414],[84,7497],[84,7580],[84,7664],[84,7747],[84,7830],[84,7913],[84,7996],[84,8080],[84.1,8163],[84.1,8247],[84.1,8330],[84.1,8413],[84.1,8496],[84.2,8580]]",1,0,530.3396,532.3719,82.69367918,1.5948,"[{""rating"":75.80531660411684,""responseTime"":0.8760999999940395},{""rating"":82.69367918499573,""responseTime"":1.5948000000120146}]",space,1.4854,,532.372,Partially,50,539.6193,50.15942384,6.5708,"[{""rating"":50.15942383846199,""responseTime"":6.570799999982114}]",space,0,18,18,18,1,audio/Narrative8Situation9.wav,audio/Narrative7Situation9.wav,audio/Narrative6Situation9.wav,audio/Narrative5Situation9.wav,3,2,4,3,,,6.6957,,,,,,,,,,,,,,,,,,,,,,,,,,,,,,,,,,,,
,,,,,,56875435369319000c26947d,2024-05-13_11h33.59.971,group3.1-3.2-social-tom,2023.2.2,Linux x86_64,59.88023952,65c5074098b851296ff0b7ed,664232bea79683a540f69ee8,,,,,,,,,,,,,,,,,,,,,,,,,,,541.336,543.9178,543.9766,2,audio/Narrative13Situation2.wav,543.9768,,543.9768,574.9413,"[[999,0],[999,74],[999,161],[999,241],[999,1558],[999,1640],[999,1723],[999,1806],[999,1891],[999,1973],[999,2058],[999,2140],[59.5,2224],[60.2,2306],[60.2,2389],[60.2,2473],[60.2,2556],[60.2,2639],[60.2,2723],[60.2,2806],[63.7,2890],[64,2973],[64.1,3056],[64.1,3139],[64.1,3222],[64.1,3306],[64.1,3389],[64.1,3472],[64.1,3556],[64.1,3639],[64.1,3722],[64.1,3806],[64.1,3889],[64.1,3973],[64.1,4056],[64.1,4139],[64.1,4222],[64.1,4306],[64.1,4389],[64.1,4472],[64.1,4556],[64.1,4639],[64.1,4722],[64.1,4805],[64.1,4889],[64.1,4972],[64.1,5055],[64.1,5139],[64.1,5222],[64.1,5305],[64.1,5389],[64.1,5472],[64.1,5555],[64.1,5638],[64.1,5722],[64.1,5805],[64.1,5888],[64.1,5972],[64.1,6055],[64.1,6138],[64.1,6222],[64.1,6305],[64.1,6388],[64.1,6471],[64.1,6555],[64.1,6638],[64.1,6721],[64.1,6805],[64.1,6888],[64.1,6971],[64.1,7055],[64.1,7138],[64.1,7221],[64.1,7304],[64.1,7388],[64.1,7471],[64.1,7555],[64.1,7638],[64.1,7721],[64.1,7804],[64.1,7888],[64.1,7971],[64.1,8054],[64.1,8138],[64.1,8221],[64.1,8304],[64.1,8388],[64.1,8471],[64.1,8554],[64.1,8637],[70.1,8726],[72.2,8804],[72.2,8888],[72.2,8970],[72.2,9054],[72.1,9137],[72.1,9220],[72.1,9304],[72.1,9387],[72.1,9471],[72.1,9553],[72.1,9637],[72.1,9720],[72.1,9803],[72.1,9887],[72.1,9970],[72.1,10053],[72.1,10137],[72.1,10220],[72.1,10304],[72.1,10387],[72.1,10470],[72.1,10553],[72.1,10637],[72.1,10720],[72.1,10803],[72.1,10887],[72.1,10970],[72.1,11053],[72.1,11137],[72.1,11220],[72.1,11303],[72.1,11386],[72.1,11470],[72.1,11553],[72.1,11636],[72.1,11720],[72.1,11803],[72.1,11886],[72.1,11970],[72.1,12053],[72.1,12137],[72.1,12219],[72.1,12303],[72.1,12386],[72.1,12469],[72.1,12553],[72.1,12636],[72.1,12719],[72.1,12802],[72.1,12886],[72.1,12969],[72.1,13053],[72.1,13136],[72.1,13219],[72.1,13302],[72.1,13386],[72.1,13469],[72.1,13552],[72.1,13635],[72.1,13719],[72.1,13802],[72.1,13885],[72.1,13969],[72.1,14052],[72.1,14135],[72.1,14219],[72.1,14302],[72.1,14385],[72.1,14469],[72.1,14552],[72.1,14635],[72.1,14719],[72.1,14802],[72.1,14885],[72.1,14969],[72.1,15052],[72.1,15135],[72.1,15219],[72.1,15302],[72.1,15385],[72.1,15469],[72.1,15552],[72.1,15635],[72.1,15718],[72.1,15801],[72.1,15885],[72.1,15968],[72.1,16051],[72,16135],[70.5,16218],[69.9,16302],[69.7,16385],[69.6,16469],[69.5,16551],[69.9,16635],[70.6,16718],[71.3,16802],[72.1,16885],[73,16968],[73.7,17052],[74.5,17135],[75,17219],[75.3,17301],[75.5,17384],[75.6,17468],[75.8,17551],[76,17635],[76,17717],[76,17801],[76,17884],[76,17967],[76,18051],[76,18134],[76,18217],[76,18301],[76,18384],[76,18467],[76,18551],[76,18634],[76,18717],[76,18801],[76,18884],[76,18967],[76,19050],[76,19134],[76,19217],[76,19300],[76,19383],[76,19467],[76,19550],[76,19633],[76,19717],[76,19800],[76,19883],[76,19967],[76,20050],[76,20133],[76,20216],[76,20300],[76,20383],[76,20467],[76,20550],[76,20634],[76,20716],[76,20799],[76,20883],[76,20966],[76,21050],[76,21133],[76,21216],[76,21300],[76,21383],[76,21466],[76,21550],[76,21633],[76,21716],[76,21799],[75.9,21892],[75.9,21966],[75.9,22049],[75.9,22133],[75.9,22216],[75.9,22299],[75.5,22383],[74,22466],[73.6,22549],[73.5,22632],[73.5,22716],[73.5,22799],[73.5,22882],[73.5,22966],[73.5,23049],[73.5,23132],[73.5,23216],[73.5,23299],[73.5,23382],[73.5,23465],[73.5,23549],[73.5,23632],[73.5,23715],[73.5,23799],[73.5,23882],[73.5,23965],[73.5,24048],[73.5,24132],[73.5,24215],[73.5,24299],[73.5,24382],[73.5,24465],[73.5,24548],[73.5,24632],[73.5,24715],[73.5,24798],[73.5,24882],[73.5,24965],[73.5,25048],[73.5,25132],[73.5,25215],[73.5,25298],[73.5,25381],[73.5,25465],[73.5,25548],[73.5,25632],[73.5,25715],[73.5,25798],[73.5,25882],[73.5,25965],[73.5,26048],[73.5,26131],[73.5,26214],[73.5,26298],[73.5,26381],[73.5,26465],[73.5,26548],[73.5,26631],[73.5,26714],[73.5,26798],[73.5,26881],[73.5,26964],[73.5,27048],[73.5,27131],[73.5,27214],[73.5,27297],[73.5,27380],[73.5,27464],[73.5,27547],[73.5,27631],[73.5,27714],[73.5,27797],[73.5,27881],[73.5,27964],[73.5,28047],[73.5,28130],[73.5,28214],[73.5,28297],[73.5,28380],[73.5,28464],[73.5,28547],[73.5,28630],[73.5,28714],[72.4,28797],[71,28881],[70.8,28964],[70.7,29047],[70.7,29130],[70.7,29214],[70.6,29297],[70.6,29380],[70.6,29463],[70.6,29547],[70.6,29630],[70.6,29713],[70.6,29797],[70.6,29880],[70.6,29963],[70.6,30047],[70.6,30130],[70.6,30213],[70.6,30296],[70.6,30380],[70.6,30463],[70.6,30546],[70.6,30629],[70.6,30713],[70.6,30796],[70.6,30879],[70.6,30963]]",1,0,574.9417,574.9454,,,[],,,,574.9455,Not at all,0,574.9503,,,[],,0,0,0,0,1,audio/Narrative13Situation2.wav,audio/Narrative13Situation2.wav,audio/Narrative13Situation2.wav,audio/Narrative13Situation2.wav,2,2,2,2,,,,,539.6203,541.3355,space,1.1841,,,,,,,,,,,,,,,,,,,,,,,,,,,,,,,
,,,,,,56875435369319000c26947d,2024-05-13_11h33.59.971,group3.1-3.2-social-tom,2023.2.2,Linux x86_64,59.88023952,65c5074098b851296ff0b7ed,664232bea79683a540f69ee8,,,,,,,,,,,,,,,,,,,,,,,,,,,,,574.9541,2,audio/Narrative6Situation1.wav,576.9561,,576.9563,603.5304,"[[65.3,833],[66.6,916],[66.6,999],[66.6,1082],[66.6,1165],[68.5,1249],[74.6,1333],[74.9,1416],[74.9,1499],[74.9,1582],[74.9,1665],[74.9,1749],[74.9,1832],[74.9,1915],[74.9,1999],[74.9,2083],[74.9,2166],[74.9,2249],[74.9,2332],[74.9,2415],[74.9,2499],[74.9,2582],[74.9,2665],[74.9,2749],[74.9,2832],[74.9,2915],[74.9,2998],[74.9,3081],[74.9,3165],[74.9,3248],[74.9,3331],[74.9,3415],[74.9,3498],[74.9,3581],[74.9,3665],[74.9,3748],[74.9,3831],[74.9,3915],[74.9,3998],[74.9,4081],[74.9,4164],[74.9,4248],[74.9,4331],[74.9,4414],[74.9,4498],[74.9,4581],[74.9,4664],[74.9,4747],[74.9,4831],[74.9,4914],[74.9,4998],[74.9,5081],[74.9,5164],[74.9,5247],[74.9,5331],[74.9,5414],[74.9,5497],[74.9,5581],[74.9,5664],[74.9,5747],[74.9,5831],[74.9,5914],[74.9,5997],[74.9,6081],[74.9,6164],[74.9,6247],[74.9,6330],[74.9,6414],[74.9,6497],[74.9,6580],[74.9,6664],[74.9,6747],[74.9,6830],[74.9,6914],[74.9,6997],[74.9,7080],[74.9,7163],[74.9,7247],[74.9,7330],[74.9,7414],[74.9,7497],[74.9,7580],[74.9,7663],[74.9,7746],[74.9,7830],[74.9,7913],[74.9,7997],[74.9,8080],[74.9,8163],[74.9,8246],[74.9,8330],[74.9,8413],[74.9,8496],[74.9,8579],[74.9,8663],[74.9,8746],[74.9,8829],[74.9,8913],[74.9,8996],[74.9,9079],[74.9,9163],[74.9,9246],[74.9,9329],[75.2,9413],[75.9,9498],[76.2,9579],[76.2,9663],[76.2,9746],[76.1,9829],[76.1,9912],[76.1,9996],[76.1,10079],[76.1,10162],[76.1,10246],[76.1,10329],[76.1,10412],[76.1,10496],[76.1,10579],[76.1,10662],[76.1,10745],[76.1,10829],[76.1,10912],[76.1,10995],[76.1,11079],[76.1,11162],[76.1,11245],[76.1,11329],[76.1,11412],[76.1,11495],[76.1,11579],[76.1,11662],[76.1,11745],[76.1,11828],[76.1,11912],[76.1,11995],[76.1,12078],[76.1,12162],[76.1,12245],[76.1,12328],[76.1,12412],[76.1,12495],[76.1,12578],[76.1,12662],[76.1,12745],[76.1,12828],[76.1,12912],[76.1,12995],[76.1,13078],[76.1,13161],[76.1,13245],[76.1,13328],[76.1,13411],[76.1,13494],[76.1,13578],[76.1,13661],[76.1,13744],[76.1,13828],[76.1,13911],[76.1,13994],[76.1,14078],[76.1,14161],[76.1,14244],[76.1,14327],[76.1,14411],[76.1,14494],[76.1,14577],[76.1,14661],[76.1,14744],[76.1,14827],[76.1,14911],[76.1,14994],[76.1,15077],[76.1,15161],[76.1,15244],[76.1,15327],[76.1,15410],[76.1,15496],[76.1,15577],[76.1,15660],[76.1,15744],[76.1,15827],[76.1,15910],[76.1,15994],[76.1,16077],[76.1,16161],[76.1,16244],[76.1,16327],[76.1,16410],[76.1,16493],[76.1,16577],[76.1,16660],[76.1,16743],[76.1,16827],[76.1,16910],[76.1,16994],[76.1,17077],[76.1,17160],[76.1,17243],[76.1,17327],[76.1,17410],[76.1,17493],[76.1,17576],[76.1,17660],[76.1,17743],[76.1,17826],[76.1,17910],[76.1,17993],[76.1,18076],[76.1,18160],[76.1,18243],[76.1,18326],[76.1,18409],[76.1,18493],[76.1,18576],[76.1,18659],[76.1,18743],[76.1,18826],[76.1,18909],[76.1,18993],[76.1,19076],[76.1,19159],[76.1,19242],[76.1,19327],[76.1,19409],[76.1,19493],[76.1,19576],[76.1,19659],[76.1,19742],[76.1,19826],[76.1,19909],[76.1,19992],[76.1,20076],[76.1,20159],[76.1,20242],[76.1,20326],[76.1,20409],[76.1,20492],[76.1,20576],[76.1,20659],[76.1,20742],[76.1,20825],[76.1,20909],[76.1,20992],[76.1,21075],[76.1,21159],[76.1,21242],[76.1,21325],[76.1,21409],[76.1,21492],[76.1,21575],[76.1,21658],[76.1,21742],[76.1,21825],[76.1,21908],[76.1,21992],[76.1,22075],[76.1,22158],[76.1,22241],[76.1,22325],[76.1,22408],[76.1,22491],[76.1,22575],[76.1,22658],[76.1,22742],[76.1,22825],[76.1,22908],[76.1,22991],[76.1,23074],[76.1,23158],[76.1,23241],[76.1,23324],[76.1,23408],[76.1,23491],[76.1,23574],[76.1,23658],[76.1,23741],[76.1,23824],[76.1,23908],[76.1,23991],[76.1,24074],[76.1,24157],[76.1,24241],[76.1,24324],[76.1,24407],[76.1,24491],[76.1,24574],[76.1,24657],[76.1,24741],[76.1,24824],[76.1,24907],[76.1,24991],[76.1,25074],[76.1,25158],[76.1,25240],[76.1,25324],[76.1,25407],[76.1,25490],[76.1,25574],[76.1,25657],[76.1,25740],[76.1,25824],[76.1,25908],[76.1,25990],[76.1,26073],[76.1,26157],[76.1,26240],[76.1,26323],[76.1,26407],[76.1,26490],[76.1,26573]]",1,0,603.5306,606.3794,76.40795451,2.2048,"[{""rating"":76.40795451177065,""responseTime"":2.2048000000119146}]",space,2.2969,,606.3794,Definitely yes,100,606.385,,,[],,0,1,1,1,1,audio/Narrative7Situation1.wav,audio/Narrative8Situation1.wav,audio/Narrative5Situation1.wav,audio/Narrative6Situation1.wav,2,5,5,2,,,,,,,,,,,,,,,,,,,,,,,,,,,,,,,,,,,,,,,
,,,,,,56875435369319000c26947d,2024-05-13_11h33.59.971,group3.1-3.2-social-tom,2023.2.2,Linux x86_64,59.88023952,65c5074098b851296ff0b7ed,664232bea79683a540f69ee8,,,,,,,,,,,,,,,,,,,,,,,,,,,,,606.3855,2,audio/Narrative6Situation2.wav,609.3952,,609.3952,637.9017,"[[82.7,832],[85.4,916],[85.3,1000],[78.7,1082],[75.1,1166],[74.9,1249],[74.4,1332],[74.2,1416],[74.2,1498],[74.2,1582],[74.2,1665],[74.2,1749],[74.2,1832],[74.2,1915],[74.2,1998],[74.2,2082],[74.2,2165],[74.2,2248],[72.2,12098],[73.9,12178],[77,12262],[79.9,12345],[79.8,12428],[79.8,12511],[79.8,12595],[80.2,12685],[80.8,12762],[80.9,12844],[80.9,12928],[80.9,13011],[80.8,13094],[80.8,13178],[80.8,13261],[80.8,13344],[80.8,13428],[80.8,13511],[80.8,13595],[80.8,13678],[80.8,13761],[80.8,13844],[80.8,13928],[80.8,14011],[80.8,14094],[80.8,14178],[80.8,14261],[80.8,14344],[80.8,14427],[80.8,14511],[80.8,14594],[80.8,14677],[80.8,14761],[80.8,14844],[80.8,14927],[80.8,15010],[80.8,15094],[80.8,15177],[80.8,15261],[80.8,15344],[80.8,15427],[80.8,15510],[80.8,15594],[80.8,15677],[81.2,15761],[81.7,15844],[81.8,15927],[81.8,16010],[81.8,16094],[81.2,16177],[80.2,16260],[79,16344],[78.6,16428],[78.4,16510],[78.2,16594],[78.1,16676],[78.1,16760],[78.1,16843],[78.1,16927],[78.1,17010],[78.1,17093],[78.1,17176],[78.1,17260],[78.1,17343],[78.1,17426],[78.1,17509],[78.1,17593],[78.1,17676],[78.1,17759],[78.1,17843],[78.1,17926],[78.1,18009],[78.1,18093],[78.1,18176],[78.1,18259],[78.1,18343],[78.1,18426],[78.1,18509],[78.6,18593],[79.2,18677],[79.3,18760],[79.4,18842],[79.4,18926],[79.4,19009],[79.3,19092],[79.3,19176],[79.3,19259],[79.3,19342],[79.3,19425],[79.3,19509],[79.3,19592],[79.3,19675],[79.3,19759],[79.3,19842],[79.3,19925],[79.3,20009],[79.3,20092],[79.3,20175],[79.3,20259],[79.3,20342],[79.3,20425],[79.3,20508],[79.3,20592],[79.3,20675],[79.3,20758],[79.3,20842],[79.3,20925],[79.3,21008],[79.3,21092],[79.3,21175],[79.3,21259],[79.3,21341],[79.3,21425],[79.3,21508],[79.3,21591],[79.3,21675],[79.3,21758],[79.3,21841],[79.3,21925],[79.3,22008],[79.3,22091],[79.3,22175],[79.3,22258],[79.3,22341],[79.3,22425],[79.3,22508],[79.3,22591],[79.3,22674],[79.3,22758],[79.3,22841],[79.3,22925],[79.3,23008],[79.3,23091],[79.3,23175],[79.3,23258],[79.3,23341],[79.3,23424],[79.3,23507],[79.3,23591],[79.3,23674],[79.3,23757],[79.3,23841],[79.3,23924],[79.3,24007],[79.3,24091],[79.3,24174],[79.3,24257],[79.3,24341],[79.3,24424],[79.3,24507],[79.3,24600],[79.3,24674],[79.3,24757],[79.3,24840],[79.3,24924],[79.3,25007],[79.3,25090],[79.3,25174],[79.3,25257],[79.3,25340],[79.3,25424],[79.3,25507],[79.3,25590],[79.3,25674],[79.3,25757],[79.3,25840],[79.3,25923],[79.3,26007],[79.3,26090],[79.3,26173],[79.3,26256],[79.3,26340],[80.2,26424],[80.3,26506],[80.3,26590],[80.3,26673],[80.4,26757],[80.5,26840],[80.6,26923],[80.8,27007],[80.9,27090],[80.9,27173],[80.9,27256],[80.9,27339],[80.9,27423],[80.9,27506],[80.9,27589],[80.9,27673],[80.9,27756],[80.9,27839],[80.9,27923],[80.9,28006],[80.9,28089],[80.9,28173],[80.9,28256],[80.9,28339],[80.9,28422],[80.9,28506]]",1,0,637.902,639.5844,80.83520015,1.0749,"[{""rating"":80.83520014725113,""responseTime"":1.0749000000059823}]",space,1.1322,,639.5845,Not at all,0,639.5896,,,[],,0,2,2,2,1,audio/Narrative7Situation2.wav,audio/Narrative8Situation2.wav,audio/Narrative5Situation2.wav,audio/Narrative6Situation2.wav,3,3,3,3,,,,,,,,,,,,,,,,,,,,,,,,,,,,,,,,,,,,,,,
,,,,,,56875435369319000c26947d,2024-05-13_11h33.59.971,group3.1-3.2-social-tom,2023.2.2,Linux x86_64,59.88023952,65c5074098b851296ff0b7ed,664232bea79683a540f69ee8,,,,,,,,,,,,,,,,,,,,,,,,,,,,,639.5901,2,audio/Narrative6Situation3.wav,644.5993,,644.5994,657.2286,"[[83.5,6081],[90.3,6581],[89,6665],[87.7,6747],[85.8,6831],[85.1,6914],[84.8,6997],[84.8,7080],[84.8,7163],[84.7,7247],[84.7,7330],[84.7,7413],[84.7,7497],[84.7,7580],[84.7,7663],[84.7,7746],[84.7,7830],[84.7,7913],[84.7,7996],[84.7,8081],[84.7,8163],[84.7,8246],[84.7,8330],[84.7,8413],[84.7,8496],[84.7,8580],[84.7,8663],[84.7,8746],[84.7,8829],[84.7,8913],[84.7,8996],[84.7,9079],[84.7,9163],[84.7,9246],[84.7,9329],[84.7,9413],[84.7,9496],[84.7,9579],[84.7,9663],[84.7,9746],[84.7,9829],[84.7,9912],[84.7,9996],[84.7,10079],[84.7,10162],[84.7,10246],[84.7,10329],[84.1,10413],[82.5,10496],[82.1,10579],[82.1,10662],[82.1,10745],[82.1,10829],[82.1,10912],[82,10995],[82,11079],[82,11162],[82,11245],[82,11329],[82,11412],[82,11495],[82,11579],[82,11662],[82,11745],[82,11828],[82,11912],[82,11995],[82,12078],[82,12162],[82,12245],[82,12328],[82,12412],[82,12495],[82,12578]]",1,0,657.2289,659.9105,83.79327821,2.1928,"[{""rating"":79.17932547510098,""responseTime"":1.3907999999820504},{""rating"":83.79327821012028,""responseTime"":2.1927999999820713}]",space,2.1393,,659.9106,Not at all,0,659.9135,,,[],,0,3,3,3,1,audio/Narrative7Situation3.wav,audio/Narrative8Situation3.wav,audio/Narrative5Situation3.wav,audio/Narrative6Situation3.wav,8,4,3,5,,,,,,,,,,,,,,,,,,,,,,,,,,,,,,,,,,,,,,,
,,,,,,56875435369319000c26947d,2024-05-13_11h33.59.971,group3.1-3.2-social-tom,2023.2.2,Linux x86_64,59.88023952,65c5074098b851296ff0b7ed,664232bea79683a540f69ee8,,,,,,,,,,,,,,,,,,,,,,,,,,,,,659.9141,2,audio/Narrative6Situation4.wav,661.9266,,661.9266,674.5555,"[[100,6914],[99.3,7247],[86.1,7330],[85.7,7414],[82.2,7497],[81.2,7580],[80.4,7663],[78.8,7747],[78.8,7830],[78.8,7913],[78.8,7996],[78.8,8080],[78.8,8163],[78.8,8246],[78.8,8330],[78.8,8413],[78.8,8496],[78.8,8579],[78.8,8663],[78.8,8746],[78.8,8829],[78.8,8913],[78.8,8996],[78.8,9079],[78.8,9163],[78.8,9246],[78.8,9329],[78.8,9413],[78.8,9496],[78.8,9579],[78.8,9663],[78.8,9746],[78.8,9829],[78.8,9912],[78.8,9996],[78.8,10079],[78.8,10162],[78.8,10246],[78.8,10329],[78.8,10412],[78.8,10496],[78.8,10579],[78.8,10662],[78.8,10745],[78.8,10829],[78.8,10913],[78.8,10997],[78.8,11079],[78.8,11163],[78.8,11245],[78.8,11329],[78.8,11412],[78.8,11496],[78.8,11579],[78.8,11662],[78.8,11745],[78.8,11829],[78.8,11912],[78.8,11995],[78.8,12078],[78.8,12162],[78.8,12245],[78.8,12328],[78.8,12412],[78.8,12495],[78.8,12578]]",1,0,674.5557,676.0384,78.76210802,1.0347,"[{""rating"":78.76210801775487,""responseTime"":1.0347000000178923}]",space,0.9339,,676.0384,Not at all,0,676.042,,,[],,0,4,4,4,1,audio/Narrative7Situation4.wav,audio/Narrative8Situation4.wav,audio/Narrative5Situation4.wav,audio/Narrative6Situation4.wav,3,3,1,2,,,,,,,,,,,,,,,,,,,,,,,,,,,,,,,,,,,,,,,
,,,,,,56875435369319000c26947d,2024-05-13_11h33.59.971,group3.1-3.2-social-tom,2023.2.2,Linux x86_64,59.88023952,65c5074098b851296ff0b7ed,664232bea79683a540f69ee8,,,,,,,,,,,,,,,,,,,,,,,,,,,,,676.0425,2,audio/Narrative6Situation5.wav,678.0543,,678.0544,686.0015,"[[79.2,3751],[79.7,3831],[81.9,3915],[85.5,3999],[84.9,4081],[79.9,4165],[79.4,4248],[79.4,4331],[79.4,4414],[79.3,4498],[79.3,4581],[79.3,4664],[79.3,4748],[79.3,4831],[79.3,4914],[79.3,4998],[79.3,5081],[79.3,5164],[79.3,5248],[79.3,5331],[79.3,5414],[79.3,5497],[79.3,5581],[79.3,5664],[79.3,5747],[79.3,5830],[79.3,5914],[79.3,5997],[79.3,6080],[79.3,6164],[79.3,6247],[79.3,6330],[79.3,6413],[79.3,6497],[79.3,6580],[79.3,6664],[79.3,6747],[79.3,6830],[79.3,6914],[79.3,6997],[79.3,7080],[79.3,7163],[79.3,7247],[79.3,7330],[79.3,7413],[79.3,7496],[79.3,7580],[79.3,7663],[79.3,7746],[79.3,7830],[79.3,7913]]",1,0,686.0017,695.2482,82.55430648,5.4034,"[{""rating"":82.55430648105977,""responseTime"":5.403400000005945}]",space,8.6987,,695.2483,Definitely yes,100,695.2638,,,[],,0,5,5,5,1,audio/Narrative7Situation5.wav,audio/Narrative8Situation5.wav,audio/Narrative5Situation5.wav,audio/Narrative6Situation5.wav,5,2,5,2,,,,,,,,,,,,,,,,,,,,,,,,,,,,,,,,,,,,,,,
,,,,,,56875435369319000c26947d,2024-05-13_11h33.59.971,group3.1-3.2-social-tom,2023.2.2,Linux x86_64,59.88023952,65c5074098b851296ff0b7ed,664232bea79683a540f69ee8,,,,,,,,,,,,,,,,,,,,,,,,,,,,,695.2642,2,audio/Narrative6Situation6.wav,697.2644,,697.2644,708.344,"[[80.9,1999],[80.2,2082],[80.2,2165],[80.2,2248],[80.2,2332],[80.1,2415],[80.1,2498],[80.1,2582],[80.1,2665],[80.1,2748],[80.1,2831],[80.1,2915],[80.1,2998],[80.1,3081],[80.1,3165],[80.1,3248],[80.1,3331],[80.1,3415],[80.1,3498],[80.1,3581],[80.1,3664],[80.1,3748],[80.1,3831],[80.1,3915],[80.1,3998],[80.1,4082],[80.1,4165],[80.1,4248],[80.1,4331],[80.1,4414],[80.1,4498],[80.1,4581],[80.1,4664],[80.1,4747],[80.1,4831],[80.1,4914],[80.1,4997],[80.1,5081],[80.1,5164],[80.1,5247],[80.1,5331],[80.1,5414],[80.1,5497],[80.1,5581],[80.1,5664],[80.1,5747],[80.1,5831],[80.1,5914],[80.1,5997],[80.1,6080],[80.1,6164],[80.1,6247],[80.1,6330],[80.1,6413],[80.1,6497],[80.1,6580],[80.1,6663],[80.1,6747],[80.1,6830],[80.1,6914],[80.1,6997],[80.1,7080],[80.1,7163],[80.1,7246],[80.1,7330],[80.1,7413],[80.1,7496],[80.1,7579],[80.1,7663],[80.1,7746],[80.1,7830],[80.1,7913],[80.1,7996],[80.1,8080],[80.1,8163],[80.1,8246],[80.1,8329],[80.1,8413],[80.1,8496],[80.1,8579],[80.1,8663],[80.1,8746],[80.1,8829],[80.1,8913],[80.1,8996],[80.1,9079],[80.1,9163],[80.1,9246],[80.1,9329],[80.1,9413],[80.1,9496],[80.1,9579],[80.1,9662],[80.1,9746],[80.1,9829],[80.1,9912],[80.1,9996],[80.1,10079],[80.1,10162],[80.1,10246],[80.1,10329],[80.1,10412],[80.1,10495],[80.1,10579],[80.1,10662],[80.1,10745],[80.1,10829],[80.1,10913],[80.1,10995],[80.1,11079]]",1,0,708.3442,711.7759,80.10456923,2.914,"[{""rating"":80.10456923330554,""responseTime"":2.9139999999999873}]",space,2.8865,,711.7759,Partially,50,711.781,,,[],,0,6,6,6,1,audio/Narrative7Situation6.wav,audio/Narrative8Situation6.wav,audio/Narrative5Situation6.wav,audio/Narrative6Situation6.wav,3,2,3,2,,,,,,,,,,,,,,,,,,,,,,,,,,,,,,,,,,,,,,,
,,,,,,56875435369319000c26947d,2024-05-13_11h33.59.971,group3.1-3.2-social-tom,2023.2.2,Linux x86_64,59.88023952,65c5074098b851296ff0b7ed,664232bea79683a540f69ee8,,,,,,,,,,,,,,,,,,,,,,,,,,,,,711.7814,2,audio/Narrative6Situation7.wav,732.6009,,732.601,757.4437,"[[999,16],[999,117],[999,200],[999,283],[999,367],[999,452],[999,533],[999,617],[999,700],[999,783],[999,867],[999,950],[999,1033],[999,1116],[999,1200],[999,1300],[999,1400],[999,1483],[999,1577],[999,1701],[999,1816],[999,1899],[999,1983],[999,2076],[999,2149],[999,2241],[999,2316],[999,2401],[999,2500],[999,2589],[999,2674],[999,2759],[999,2900],[999,3066],[999,3192],[999,3266],[999,3349],[999,3433],[999,3516],[999,3599],[999,3716],[999,3871],[999,3960],[999,4060],[999,4133],[79.5,4221],[79.4,4299],[79.4,4382],[79.4,4465],[79.4,4549],[79.4,4632],[79.4,4715],[79.4,4798],[79.4,4882],[79.4,4965],[79.4,5048],[79.4,5132],[79.4,5215],[79.4,5298],[81.8,5382],[81.8,5465],[81.8,5548],[81.8,5631],[81.8,5715],[80.1,5799],[80,5882],[80,5965],[80,6048],[79.9,6131],[79.9,6215],[79.9,6298],[79.9,6381],[79.9,6464],[79.9,6548],[79.9,6631],[79.9,6714],[79.9,6798],[79.9,6881],[79.9,6964],[78.8,7048],[78.4,7131],[78.3,7215],[78.3,7298],[78.3,7381],[78.2,7464],[78.2,7548],[78.2,7631],[78.2,7714],[78.2,7797],[78.2,7880],[78.2,7964],[78.2,8047],[78.2,8131],[78.2,8214],[78.2,8297],[78.2,8380],[78.2,8464],[78.2,8547],[78.2,8631],[78.2,8714],[78.2,8797],[78.2,8880],[78.2,8964],[78.2,9047],[78.2,9130],[78.2,9214],[78.2,9297],[78.2,9380],[78.2,9463],[78.2,9547],[78.2,9630],[78.2,9713],[78.2,9797],[78.2,9880],[78.2,9963],[78.2,10047],[78.2,10130],[78.2,10213],[78.2,10297],[78.2,10380],[78.2,10463],[78.2,10546],[78.2,10630],[78.2,10713],[78.2,10797],[78.2,10880],[78.2,10963],[78.2,11046],[78.2,11129],[78.2,11213],[78.2,11296],[78.2,11380],[78.2,11463],[78.2,11546],[78.2,11629],[78.2,11713],[78.2,11796],[78.2,11879],[78.2,11962],[78.2,12047],[78.2,12129],[78.2,12212],[78.2,12296],[78.2,12379],[78.2,12463],[78.2,12546],[78.2,12629],[78.2,12712],[78.2,12795],[78.2,12879],[78.2,12962],[78.2,13046],[78.2,13129],[78.2,13212],[78.2,13296],[78.2,13379],[78.2,13462],[78.2,13546],[78.2,13628],[78.2,13712],[78.2,13795],[78.2,13878],[78.2,13962],[78.2,14045],[78.2,14128],[78.2,14212],[78.2,14295],[78.2,14378],[78.2,14462],[78.2,14545],[78.2,14628],[78.2,14712],[78.2,14795],[78.2,14878],[78.2,14962],[78.2,15045],[78.2,15128],[78.2,15211],[78.2,15295],[78.2,15378],[78.2,15462],[78.2,15545],[78.2,15628],[78.2,15711],[78.2,15795],[78.2,15878],[78.2,15961],[78.2,16045],[78.2,16128],[78.2,16211],[78.2,16294],[78.2,16378],[78.2,16461],[78.2,16544],[78.2,16628],[78.2,16711],[78.2,16794],[78.2,16878],[78.2,16961],[78.2,17044],[78.2,17127],[78.2,17211],[78.2,17294],[78.2,17377],[78.2,17461],[78.2,17544],[78.2,17627],[78.2,17711],[78.2,17794],[78.2,17877],[78.2,17960],[78.2,18044],[78.2,18127],[78.2,18211],[78.2,18294],[78.2,18377],[78.2,18461],[78.2,18544],[78.2,18627],[78.2,18710],[78.2,18794],[78.2,18877],[78.2,18960],[78.2,19044],[78.2,19127],[78.2,19210],[78.2,19293],[78.2,19377],[78.2,19460],[78.2,19543],[78.2,19627],[78.2,19710],[78.2,19793],[78.2,19877],[78.2,19960],[78.2,20043],[78.2,20126],[78.2,20210],[78.2,20293],[78.2,20376],[78.2,20460],[78.2,20543],[78.2,20626],[78.2,20710],[78.2,20793],[78.2,20876],[78.2,20959],[78.2,21043],[78.2,21126],[78.2,21209],[78.2,21293],[78.2,21376],[78.2,21459],[78.2,21542],[78.2,21626],[78.2,21709],[78.2,21793],[78.2,21876],[78.2,21959],[78.2,22043],[78.2,22126],[78.2,22209],[78.2,22292],[78.2,22376],[78.2,22459],[78.2,22542],[78.2,22625],[78.2,22709],[78.2,22792],[78.2,22875],[78.2,22959],[78.2,23042],[78.2,23125],[78.2,23209],[78.2,23292],[78.2,23375],[78.2,23459],[78.2,23542],[78.2,23625],[78.2,23710],[78.2,23792],[78.2,23875],[78.2,23959],[78.2,24042],[78.2,24125],[78.2,24208],[78.2,24292],[78.2,24375],[78.2,24458],[78.2,24541],[78.2,24625],[78.2,24708],[78.2,24791]]",1,0,757.4439,759.5756,79.67840242,1.6172,"[{""rating"":79.67840241575182,""responseTime"":1.6172000000178741}]",space,1.5841,,759.5757,Definitely yes,100,759.5826,,,[],,0,7,7,7,1,audio/Narrative7Situation7.wav,audio/Narrative8Situation7.wav,audio/Narrative5Situation7.wav,audio/Narrative6Situation7.wav,5,3,4,5,,,,,,,,,,,,,,,,,,,,,,,,,,,,,,,,,,,,,,,
,,,,,,56875435369319000c26947d,2024-05-13_11h33.59.971,group3.1-3.2-social-tom,2023.2.2,Linux x86_64,59.88023952,65c5074098b851296ff0b7ed,664232bea79683a540f69ee8,,,,,,,,,,,,,,,,,,,,,,,,,,,,,759.5831,2,audio/Narrative6Situation8.wav,764.591,,764.591,771.4548,"[[81.5,4499],[83.6,5331],[83.2,5414],[83.2,5497],[83.2,5581],[83.1,5663],[83.1,5747],[83.1,5830],[83.1,5913],[83.1,5997],[83.1,6080],[83.1,6163],[83.1,6247],[83.1,6330],[83.1,6414],[83.1,6497],[83.1,6580],[83.1,6663],[83.1,6747],[83.1,6830]]",1,0,771.455,796.7125,80.04351058,24.65,"[{""rating"":80.04351057923735,""responseTime"":24.649999999999977}]",space,24.7155,,796.7126,Partially,50,796.7177,,,[],,0,8,8,8,1,audio/Narrative7Situation8.wav,audio/Narrative8Situation8.wav,audio/Narrative5Situation8.wav,audio/Narrative6Situation8.wav,2,3,3,5,,,,,,,,,,,,,,,,,,,,,,,,,,,,,,,,,,,,,,,
,,,,,,56875435369319000c26947d,2024-05-13_11h33.59.971,group3.1-3.2-social-tom,2023.2.2,Linux x86_64,59.88023952,65c5074098b851296ff0b7ed,664232bea79683a540f69ee8,,,,,,,,,,,,,,,,,,,,,,,,,,,,,796.7183,2,audio/Narrative6Situation9.wav,800.7293,,800.7295,810.6911,"[[79.9,1865],[79.6,1947],[78.8,2031],[78.6,2121],[78.6,2214],[78.6,2298],[78.5,2382],[78.5,2464],[78.5,2549],[78.5,2630],[78.5,2713],[78.5,2799],[78.5,2880],[78.5,2964],[78.5,3047],[78.5,3130],[78.5,3213],[78.5,3297],[78.5,3380],[78.5,3463],[78.5,3547],[78.5,3630],[78.5,3714],[78.5,3797],[78.5,3880],[78.5,3963],[78.5,4046],[78.5,4130],[78.5,4213],[78.5,4296],[78.5,4379],[78.5,4463],[78.5,4546],[78.5,4629],[78.5,4713],[78.5,4796],[78.5,4879],[78.5,4963],[78.5,5046],[78.5,5129],[78.5,5212],[78.5,5296],[78.5,5379],[78.5,5462],[78.5,5546],[78.5,5629],[78.5,5712],[78.5,5796],[78.5,5879],[78.5,5962],[78.5,6046],[78.5,6129],[78.5,6212],[78.5,6296],[78.5,6379],[78.5,6462],[78.5,6546],[78.5,6629],[78.5,6712],[78.5,6795],[78.5,6879],[78.5,6962],[78.5,7047],[78.5,7128],[78.5,7212],[78.5,7295],[78.5,7379],[78.5,7462],[78.5,7545],[78.5,7629],[78.5,7712],[78.5,7795],[78.5,7878],[78.5,7962],[78.5,8045],[78.5,8128],[78.5,8212],[78.5,8295],[78.5,8378],[78.5,8462],[78.5,8545],[78.5,8628],[78.5,8712],[78.5,8795],[78.5,8878],[78.5,8961],[78.5,9045],[78.5,9128],[78.5,9211],[78.5,9294],[78.5,9378],[78.5,9461],[78.5,9544],[78.5,9628],[78.5,9711],[78.5,9794],[78.5,9878],[78.5,9961]]",1,0,810.6912,812.9902,78.3161268,1.3484,"[{""rating"":78.31612680204184,""responseTime"":1.3484000000058813}]",space,1.7553,,812.9902,Partially,50,812.9937,,,[],,0,9,9,9,1,audio/Narrative7Situation9.wav,audio/Narrative8Situation9.wav,audio/Narrative5Situation9.wav,audio/Narrative6Situation9.wav,2,3,3,4,,,,,,,,,,,,,,,,,,,,,,,,,,,,,,,,,,,,,,,
,,,,,,56875435369319000c26947d,2024-05-13_11h33.59.971,group3.1-3.2-social-tom,2023.2.2,Linux x86_64,59.88023952,65c5074098b851296ff0b7ed,664232bea79683a540f69ee8,,,,,,,,,,,,,,,,,,,,,,,,,,,,,812.9942,2,audio/Narrative5Situation1.wav,818.0051,,818.0052,831.3005,"[[86.6,6914],[82.5,7581],[82,7664],[81.6,7747],[81.5,7830],[81.5,7913],[81.4,7997],[81.4,8080],[81.4,8163],[81.4,8247],[81.4,8330],[81.4,8413],[81.4,8496],[81.4,8580],[81.4,8663],[81.4,8746],[81.4,8830],[81.4,8913],[81.4,8996],[81.4,9080],[81.4,9163],[81.4,9246],[81.4,9329],[81.4,9413],[81.4,9496],[81.4,9579],[81.4,9663],[81.4,9746],[81.4,9829],[81.4,9913],[81.4,9996],[81.4,10079],[81.4,10163],[81.4,10246],[81.4,10329],[81.4,10413],[81.4,10496],[81.4,10579],[81.4,10662],[81.4,10746],[81.4,10829],[81.4,10912],[81.4,10995],[81.4,11079],[81.4,11162],[81.4,11245],[81.4,11329],[81.4,11412],[81.4,11495],[81.4,11579],[81.4,11662],[81.4,11746],[81.4,11828],[81.4,11912],[81.4,11995],[81.4,12078],[81.4,12162],[81.4,12245],[81.4,12329],[81.4,12412],[81.4,12495],[81.4,12578],[81.4,12662],[81.4,12745],[81.4,12828],[81.4,12912],[81.4,12995],[81.4,13078],[81.4,13161],[81.4,13245]]",1,0,831.301,832.6667,81.41872417,0.9697,"[{""rating"":81.41872416577142,""responseTime"":0.8139000000059013},{""rating"":81.41872416577142,""responseTime"":0.9696999999880518}]",space,0.8208,,832.6669,Definitely yes,100,832.6722,,,[],,0,10,10,10,1,audio/Narrative8Situation1.wav,audio/Narrative7Situation1.wav,audio/Narrative6Situation1.wav,audio/Narrative5Situation1.wav,5,2,2,5,,,,,,,,,,,,,,,,,,,,,,,,,,,,,,,,,,,,,,,
,,,,,,56875435369319000c26947d,2024-05-13_11h33.59.971,group3.1-3.2-social-tom,2023.2.2,Linux x86_64,59.88023952,65c5074098b851296ff0b7ed,664232bea79683a540f69ee8,,,,,,,,,,,,,,,,,,,,,,,,,,,,,832.6726,2,audio/Narrative5Situation2.wav,835.6826,,835.6826,865.1555,"[[81.2,2499],[81.4,2582],[82.2,2665],[82.2,2749],[82.2,2831],[82.2,2915],[81.8,2998],[81.5,3082],[81.5,3165],[81.5,3248],[81.5,3331],[81.5,3415],[81.5,3498],[81.5,3581],[81.5,3665],[81.5,3748],[81.5,3831],[81.5,3914],[81.5,3998],[81.5,4081],[81.5,4164],[81.5,4248],[81.5,4331],[81.5,4414],[81.5,4498],[81.5,4581],[81.5,4664],[81.5,4747],[81.5,4831],[81.5,4914],[81.5,4997],[81.5,5081],[81.5,5164],[81.5,5248],[81.5,5331],[81.5,5414],[81.5,5497],[81.5,5580],[81.5,5664],[81.5,5747],[81.5,5831],[81.5,5914],[81.5,5997],[81.5,6080],[81.5,6164],[81.5,6247],[81.5,6330],[81.5,6413],[81.5,6497],[81.5,6582],[81.5,6663],[81.5,6747],[81.5,6830],[81.5,6914],[81.5,6997],[81.5,7080],[81.5,7163],[81.5,7247],[81.5,7330],[81.5,7413],[81.5,7496],[81.5,7580],[81.5,7663],[81.5,7746],[81.5,7830],[81.5,7913],[81.5,7996],[81.5,8079],[81.5,8163],[81.5,8246],[81.5,8330],[81.5,8413],[81.5,8498],[81.5,8580],[81.5,8663],[81.5,8746],[81.5,8829],[81.5,8913],[81.5,8996],[81.5,9079],[81.5,9162],[81.5,9246],[81.5,9329],[81.5,9412],[81.5,9496],[81.5,9579],[81.5,9663],[81.5,9746],[81.5,9829],[81.5,9912],[81.5,9996],[81.5,10079],[81.5,10162],[81.5,10246],[81.5,10329],[81.5,10412],[81.5,10495],[81.5,10579],[81.5,10662],[81.5,10745],[81.5,10829],[81.5,10912],[81.5,10995],[81.5,11079],[81.5,11162],[81.5,11245],[81.5,11329],[81.5,11412],[81.5,11495],[81.5,11579],[81.5,11662],[81.5,11745],[81.5,11829],[81.5,11912],[81.5,11995],[81.5,12078],[81.5,12162],[81.5,12245],[81.5,12328],[81.5,12412],[81.5,12495],[81.5,12578],[81.5,12661],[81.5,12745],[81.5,12828],[80.4,12912],[79.4,12995],[79.1,13078],[79.1,13161],[79.1,13245],[79.1,13328],[79.1,13411],[79.1,13494],[79.1,13578],[79.1,13661],[79.1,13744],[79.1,13828],[79.1,13911],[79.1,13994],[79.1,14078],[79.1,14161],[79.1,14245],[79.1,14327],[79.1,14411],[79.1,14494],[79.1,14578],[79.1,14661],[79.1,14744],[79.1,14827],[79.1,14911],[79.1,14994],[79.1,15077],[79.1,15160],[79.1,15244],[79.1,15327],[79.1,15410],[79.1,15494],[79.1,15577],[79.1,15661],[79.1,15744],[79.1,15827],[79.1,15910],[79.1,15994],[79.1,16077],[79.1,16160],[79.1,16243],[79.1,16327],[79.1,16410],[79.1,16493],[79.1,16577],[79.1,16660],[79.1,16743],[79.1,16827],[79.1,16910],[79.1,16993],[79.1,17077],[79.1,17160],[79.1,17243],[79.1,17326],[79.1,17410],[79.1,17493],[79.1,17576],[79.1,17660],[79.1,17743],[79.1,17826],[79.1,17909],[79.1,17993],[79.1,18076],[79.1,18159],[79.1,18243],[79.1,18326],[79.1,18410],[79.1,18493],[79.1,18576],[79.1,18659],[79.1,18743],[79.1,18826],[79.1,18909],[79.1,18992],[79.1,19076],[79.1,19159],[79.1,19242],[79.1,19326],[79.1,19409],[79.9,19497],[80.7,19576],[80.8,19659],[80.8,19742],[80.7,19825],[80.7,19909],[80.7,19992],[80.7,20075],[80.7,20159],[80.7,20243],[80.7,20325],[80.7,20408],[80.7,20492],[80.7,20575],[80.7,20658],[80.7,20742],[80.7,20825],[80.7,20908],[80.7,20992],[80.7,21075],[80.7,21158],[80.7,21243],[80.7,21325],[80.7,21408],[80.7,21498],[80.7,21575],[80.7,21659],[80.7,21741],[80.7,21827],[80.7,21909],[80.7,21998],[80.7,22075],[80.7,22158],[80.7,22242],[80.7,22325],[81,22408],[81.5,22492],[81.6,22575],[81.8,22658],[82,22741],[82.1,22825],[82.2,22908],[82.4,22991],[82.5,23075],[82.7,23158],[82.9,23241],[82.9,23324],[82.9,23408],[82.8,23491],[82.8,23575],[82.8,23658],[82.8,23741],[82.8,23824],[82.8,23908],[82.8,23991],[82.8,24074],[82.8,24157],[82.8,24241],[82.8,24324],[82.8,24407],[82.8,24490],[82.8,24574],[82.8,24657],[82.8,24740],[82.8,24824],[82.8,24907],[82.8,24990],[82.8,25074],[82.8,25157],[82.8,25240],[82.8,25324],[82.8,25407],[82.8,25490],[82.8,25574],[82.8,25657],[82.8,25740],[82.8,25823],[82.8,25906],[82.8,25990],[82.8,26073],[82.8,26157],[82.8,26240],[82.8,26323],[82.8,26407],[82.8,26490],[82.8,26573],[82.8,26657],[82.8,26740],[82.8,26823],[82.8,26906],[82.8,26990],[83.3,27073],[83.5,27157],[83.7,27240],[83.7,27323],[83.7,27406],[83.7,27489],[83.7,27573],[83.7,27656],[83.7,27740],[83.7,27823],[83.7,27906],[83.7,27989],[83.7,28073],[83.7,28156],[83.7,28239],[83.7,28323],[83.7,28406],[83.7,28489],[83.7,28572],[83.7,28656],[83.7,28739],[83.7,28822],[83.7,28906],[83.7,28989],[83.7,29072],[83.7,29156],[83.7,29239],[83.7,29322],[83.7,29405]]",1,0,865.1557,866.9214,82.17557413,1.348,"[{""rating"":82.17557413182686,""responseTime"":1.3479999999999563}]",space,1.2242,,866.9217,Not at all,0,866.927,,,[],,0,11,11,11,1,audio/Narrative8Situation2.wav,audio/Narrative7Situation2.wav,audio/Narrative6Situation2.wav,audio/Narrative5Situation2.wav,3,3,3,3,,,,,,,,,,,,,,,,,,,,,,,,,,,,,,,,,,,,,,,
,,,,,,56875435369319000c26947d,2024-05-13_11h33.59.971,group3.1-3.2-social-tom,2023.2.2,Linux x86_64,59.88023952,65c5074098b851296ff0b7ed,664232bea79683a540f69ee8,,,,,,,,,,,,,,,,,,,,,,,,,,,,,866.9274,2,audio/Narrative5Situation3.wav,869.937,,869.9371,883.849,"[[82.6,8331],[84.7,8413],[86.3,8497],[87.5,8580],[87.9,8664],[87.8,8748],[85.5,8830],[84.6,8913],[84.4,8996],[84.4,9079],[84.4,9163],[84.4,9246],[83.7,9330],[82.7,9413],[82.5,9496],[82.5,9580],[82.5,9663],[82.5,9747],[82.5,9829],[82.5,9913],[82.5,9996],[82.5,10079],[82.5,10162],[82.5,10246],[82.5,10329],[82.5,10412],[82.5,10496],[82.5,10579],[82.5,10662],[82.5,10745],[82.5,10829],[82.5,10912],[82.5,10995],[82.5,11079],[82.5,11162],[82.5,11245],[82.5,11329],[82.5,11412],[82.5,11496],[82.5,11579],[82.5,11662],[82.5,11745],[82.5,11828],[82.5,11912],[82.5,11995],[82.5,12078],[82.5,12162],[82.5,12245],[82.5,12329],[82.5,12412],[82.5,12495],[82.5,12578],[82.5,12662],[82.5,12745],[82.5,12828],[82.5,12912],[82.5,12995],[82.5,13078],[82.5,13161],[82.5,13245],[82.5,13328],[82.5,13411],[82.5,13495],[82.5,13578],[82.5,13661],[82.5,13745],[82.5,13828],[82.5,13911]]",1,0,883.8492,896.7443,84.08793518,12.4339,"[{""rating"":84.08793518015048,""responseTime"":12.43390000000602}]",space,12.344,,896.7443,Partially,50,896.7511,,,[],,0,12,12,12,1,audio/Narrative8Situation3.wav,audio/Narrative7Situation3.wav,audio/Narrative6Situation3.wav,audio/Narrative5Situation3.wav,4,8,5,3,,,,,,,,,,,,,,,,,,,,,,,,,,,,,,,,,,,,,,,
,,,,,,56875435369319000c26947d,2024-05-13_11h33.59.971,group3.1-3.2-social-tom,2023.2.2,Linux x86_64,59.88023952,65c5074098b851296ff0b7ed,664232bea79683a540f69ee8,,,,,,,,,,,,,,,,,,,,,,,,,,,,,896.7517,2,audio/Narrative5Situation4.wav,897.7607,,897.7608,918.1537,"[[83.3,6831],[81.4,6914],[80.8,6998],[80.6,7081],[80.6,7163],[80.5,7247],[80.5,7330],[80.5,7413],[80.5,7497],[80.4,7580],[80.4,7663],[80.4,7746],[80.4,7830],[80.4,7913],[80.4,7996],[80.4,8080],[80.4,8163],[80.4,8246],[80.4,8330],[80.4,8413],[80.4,8496],[80.4,8579],[80.4,8663],[80.4,8746],[80.4,8829],[80.4,8913],[80.4,8996],[80.4,9079],[80.4,9163],[80.4,9246],[80.4,9329],[80.4,9413],[80.4,9496],[80.4,9579],[80.4,9663],[80.4,9746],[80.4,9829],[80.4,9912],[80.4,9996],[80.4,10079],[80.4,10162],[80.4,10246],[80.4,10329],[80.4,10412],[80.4,10496],[80.4,10579],[80.4,10662],[80.4,10745],[80.4,10829],[80.4,10912],[80.4,10995],[80.4,11079],[80.4,11162],[80.4,11245],[80.4,11329],[80.4,11412],[80.4,11495],[80.4,11579],[80.4,11662],[80.4,11745],[80.4,11828],[80.4,11912],[80.4,11995],[80.4,12078],[80.4,12162],[80.4,12245],[80.4,12328],[80.4,12412],[80.4,12495],[80.4,12578],[80.4,12662],[80.4,12745],[80.4,12828],[80.4,12911],[80.4,12995],[80.4,13078],[80.4,13161],[80.4,13245],[80.4,13328],[80.4,13411],[80.4,13495],[80.4,13578],[80.4,13661],[80.4,13744],[80.4,13828],[80.4,13911],[80.4,13994],[80.4,14078],[80.4,14161],[80.4,14244],[80.4,14327],[80.4,14411],[80.4,14494],[80.4,14577],[80.4,14661],[80.4,14744],[80.4,14827],[80.4,14911],[80.4,14994],[80.4,15077],[80.4,15161],[80.4,15244],[80.4,15327],[80.4,15411],[80.4,15494],[80.4,15577],[80.4,15661],[80.4,15744],[80.4,15827],[80.4,15910],[80.4,15994],[80.4,16077],[80.4,16161],[80.4,16243],[80.4,16327],[80.4,16410],[80.4,16493],[80.4,16577],[80.4,16660],[80.4,16744],[80.4,16827],[80.4,16910],[80.4,16994],[80.4,17077],[80.4,17160],[80.4,17243],[80.4,17327],[80.4,17410],[80.4,17493],[80.4,17576],[80.4,17659],[80.4,17743],[80.4,17826],[80.4,17910],[80.4,17993],[80.4,18076],[80.4,18160],[80.4,18243],[80.4,18326],[80.4,18409],[80.4,18493],[80.4,18576],[80.4,18659],[80.4,18743],[80.4,18826],[81.5,18909],[81.7,18994],[81.7,19076],[81.7,19159],[81.7,19243],[81.7,19326],[81.7,19410],[81.7,19492],[81.7,19576],[81.7,19659],[81.7,19742],[81.7,19826],[81.7,19909],[81.7,19992],[81.7,20075],[81.7,20159],[81.7,20242],[81.7,20326]]",1,0,918.1539,921.3357,85.05997008,2.5649,"[{""rating"":81.88572065225954,""responseTime"":1.344400000005976},{""rating"":85.05997008206026,""responseTime"":2.5649000000059914}]",space,2.6405,,921.3358,Partially,50,921.3385,,,[],,0,13,13,13,1,audio/Narrative8Situation4.wav,audio/Narrative7Situation4.wav,audio/Narrative6Situation4.wav,audio/Narrative5Situation4.wav,3,3,2,1,,,,,,,,,,,,,,,,,,,,,,,,,,,,,,,,,,,,,,,
,,,,,,56875435369319000c26947d,2024-05-13_11h33.59.971,group3.1-3.2-social-tom,2023.2.2,Linux x86_64,59.88023952,65c5074098b851296ff0b7ed,664232bea79683a540f69ee8,,,,,,,,,,,,,,,,,,,,,,,,,,,,,921.3391,2,audio/Narrative5Situation5.wav,926.3517,,926.3517,946.9932,"[[91.8,1665],[92.5,1748],[92.9,1831],[93.2,1915],[90.6,1998],[83.3,2081],[83.1,2164],[83.1,2247],[83.1,2331],[83.1,2414],[83.1,2497],[83.1,2581],[83.1,2664],[83.1,2747],[83.1,2831],[83.1,2914],[83.1,2997],[83.1,3081],[83.1,3164],[83.1,3247],[83.1,3330],[83.1,3414]]",1,0,946.9934,949.8431,94.80302131,2.307,"[{""rating"":94.80302131203611,""responseTime"":2.3070000000000164}]",space,2.3003,,949.8432,Partially,50,949.8457,,,[],,0,14,14,14,1,audio/Narrative8Situation5.wav,audio/Narrative7Situation5.wav,audio/Narrative6Situation5.wav,audio/Narrative5Situation5.wav,2,5,2,5,,,,,,,,,,,,,,,,,,,,,,,,,,,,,,,,,,,,,,,
,,,,,,56875435369319000c26947d,2024-05-13_11h33.59.971,group3.1-3.2-social-tom,2023.2.2,Linux x86_64,59.88023952,65c5074098b851296ff0b7ed,664232bea79683a540f69ee8,,,,,,,,,,,,,,,,,,,,,,,,,,,,,949.8462,2,audio/Narrative5Situation6.wav,952.858,,952.858,958.5393,"[[86.3,5081],[85.9,5165],[86,5248],[86.2,5332],[86.3,5414],[86.3,5497],[86.3,5581],[86.2,5664]]",1,0,958.5394,960.5218,90.72252764,1.525,"[{""rating"":90.72252764434383,""responseTime"":1.5249999999999773}]",space,1.436,,960.522,Definitely yes,100,960.5281,,,[],,0,15,15,15,1,audio/Narrative8Situation6.wav,audio/Narrative7Situation6.wav,audio/Narrative6Situation6.wav,audio/Narrative5Situation6.wav,2,3,2,3,,,,,,,,,,,,,,,,,,,,,,,,,,,,,,,,,,,,,,,
,,,,,,56875435369319000c26947d,2024-05-13_11h33.59.971,group3.1-3.2-social-tom,2023.2.2,Linux x86_64,59.88023952,65c5074098b851296ff0b7ed,664232bea79683a540f69ee8,,,,,,,,,,,,,,,,,,,,,,,,,,,,,960.5285,2,audio/Narrative5Situation7.wav,964.5376,,964.5377,985.5799,"[[94.1,15998],[98,16077],[98,16160],[88.4,16244],[86.8,16327],[86.1,16410],[85.2,16493],[85.1,16576],[85.1,16660],[85.1,16743],[85,16826],[85,16910],[85,16993],[85,17076],[85,17160],[85,17243],[85,17326],[85,17409],[85,17493],[85,17576],[85,17659],[85,17743],[85,17826],[85,17909],[85,17993],[85,18076],[85,18159],[85,18243],[85,18326],[85,18409],[85,18492],[85,18576],[85,18659],[85,18743],[85,18826],[85,18909],[85,18992],[85,19076],[85,19159],[85,19242],[85,19326],[85,19409],[85,19492],[85,19575],[85,19659],[85,19743],[85,19825],[85,19908],[85,19992],[85,20075],[85,20158],[85,20242],[85,20325],[85,20408],[85,20492],[85,20575],[85,20658],[85,20742],[85,20825],[85,20908],[85,20992]]",1,0,985.5805,994.5936,84.98365749,8.3716,"[{""rating"":84.98365748655196,""responseTime"":8.371600000023932}]",space,8.4655,,994.5937,Partially,50,994.5983,,,[],,0,16,16,16,1,audio/Narrative8Situation7.wav,audio/Narrative7Situation7.wav,audio/Narrative6Situation7.wav,audio/Narrative5Situation7.wav,3,5,5,4,,,,,,,,,,,,,,,,,,,,,,,,,,,,,,,,,,,,,,,
,,,,,,56875435369319000c26947d,2024-05-13_11h33.59.971,group3.1-3.2-social-tom,2023.2.2,Linux x86_64,59.88023952,65c5074098b851296ff0b7ed,664232bea79683a540f69ee8,,,,,,,,,,,,,,,,,,,,,,,,,,,,,994.5987,2,audio/Narrative5Situation8.wav,997.609,,997.609,1006.4235,[],1,0,1006.4237,1024.5331,88.89025336,17.5937,"[{""rating"":88.89025336260646,""responseTime"":17.59370000001809}]",space,17.5665,,1024.5333,Definitely yes,100,1024.5384,,,[],,0,17,17,17,1,audio/Narrative8Situation8.wav,audio/Narrative7Situation8.wav,audio/Narrative6Situation8.wav,audio/Narrative5Situation8.wav,3,2,5,3,,,,,,,,,,,,,,,,,,,,,,,,,,,,,,,,,,,,,,,
,,,,,,56875435369319000c26947d,2024-05-13_11h33.59.971,group3.1-3.2-social-tom,2023.2.2,Linux x86_64,59.88023952,65c5074098b851296ff0b7ed,664232bea79683a540f69ee8,,,,,,,,,,,,,,,,,,,,,,,,,,,,,1024.5388,2,audio/Narrative5Situation9.wav,1027.5488,,1027.5489,1067.1017,"[[89.4,1500],[85.1,2083],[84.4,2167],[84.3,2248],[84.3,2331],[84.3,2415],[84.3,2498],[84.3,2581],[84.3,2665],[84.3,2748],[84.2,2831],[84.2,2914],[84.2,2998],[84.2,3081],[84.2,3164],[84.2,3248],[84.2,3331],[84.2,3414],[84.2,3498],[84.2,3581],[84.2,3664],[84.2,3748],[84.2,3831],[84.2,3914],[84.2,3998],[84.2,4081],[84.2,4164],[84.2,4247],[84.2,4331],[84.2,4414],[84.2,4497],[84.2,4581],[84.2,4664],[84.2,4747],[84.2,4830],[84.2,4914],[84.2,4997],[84.2,5081],[84.2,5164],[84.2,5247],[84.2,5330],[84.2,5414],[84.2,5497],[84.2,5580],[84.2,5664],[84.2,5747],[84.2,5830],[84.2,5914],[84.2,5997],[84.2,6080],[84.2,6164],[84.2,6247],[84.2,6330],[84.2,6413],[84.2,6497],[84.2,6580],[84.2,6663],[84.2,6747],[84.2,6830],[84.2,6913],[84.2,6998],[84.2,7080],[84.2,7164],[84.2,7247],[84.2,7330],[84.2,7413],[84.2,7496],[84.2,7580],[84.2,7663],[84.2,7746],[84.2,7830],[84.2,7913],[84.2,7996],[84.2,8080],[84.2,8163],[84.2,8246],[84.2,8329],[84.2,8413],[84.2,8496],[84.2,8579],[84.2,8663],[84.2,8746],[84.2,8829],[84.2,8913],[84.2,8996],[84.2,9079],[84.2,9162],[84.2,9246],[84.2,9329],[84.2,9413],[84.2,9497],[84.2,9579],[84.2,9662],[84.2,9745],[84.2,9829],[84.2,9912],[84.2,9996],[84.2,10079],[84.2,10162],[84.2,10245],[84.2,10329],[84.2,10412],[84.2,10495],[84.2,10579],[84.2,10662],[84.2,10746],[84.2,10834],[84.2,10912],[84.2,10995],[84.2,11079],[84.2,11162],[84.2,11245],[84.2,11328],[84.2,11412],[84.2,11495],[84.2,11578],[84.2,11662],[84.2,11745],[84.2,11828],[84.2,11911],[84.2,11995],[84.2,12078],[84.2,12161],[84.2,12245],[84.2,12328],[84.2,12411],[84.2,12500],[84.2,12578],[84.2,12663],[84.2,12744],[84.2,12828],[84.2,12911],[84.2,12995],[84.2,13078],[84.2,13161],[84.2,13245],[84.2,13328],[84.2,13411],[84.2,13494],[84.2,13578],[84.2,13661],[84.2,13744],[84.2,13827],[84.2,13911],[84.2,13994],[84.2,14077],[84.2,14161],[84.2,14244],[84.2,14327],[84.2,14411],[84.2,14494],[84.2,14577],[84.2,14661],[84.2,14744],[84.2,14827],[84.2,14910],[84.2,14994],[84.2,15077],[84.2,15160],[84.2,15244],[84.2,15327],[84.2,15410],[84.2,15493],[84.2,15577],[84.2,15660],[84.2,15743],[84.2,15827],[84.2,15910],[84.2,15993],[84.2,16077],[84.2,16160],[84.2,16243],[84.2,16327],[84.2,16410],[84.2,16493],[84.2,16577],[84.2,16660],[84.2,16743],[84.2,16826],[84.2,16910],[84.2,16993],[84.2,17076],[84.2,17160],[84.2,17243],[84.2,17326],[84.2,17410],[84.2,17493],[84.2,17576],[84.2,17659],[84.4,17750],[84.4,17826],[84.4,17910],[83.3,17993],[82.4,18076],[82.4,18159],[82.4,18242],[82.4,18326],[82.4,18409],[82.4,18493],[82.4,18576],[82.4,18659],[82.4,18742],[82.4,18826],[82.4,18909],[82.4,18992],[82.4,19076],[82.4,19159],[82.4,19242],[82.4,19326],[82.4,19409],[82.4,19492],[82.4,19576],[82.4,19659],[82.4,19742],[82.4,19826],[82.4,19909],[82.4,19992],[82.4,20075],[82.4,20159],[82.4,20242],[82.4,20325],[82.4,20408],[82.4,20492],[82.4,20575],[82.4,20658],[82.4,20742],[82.4,20825],[82.4,20908],[82.4,20992],[82.4,21075],[82.4,21158],[82.4,21242],[82.4,21325],[82.4,21408],[82.4,21491],[82.4,21575],[82.4,21658],[82.4,21741],[82.4,21825],[82.4,21910],[82.4,21991],[82.4,22075],[82.4,22158],[82.4,22241],[82.4,22325],[82.4,22408],[82.4,22491],[82.4,22574],[82.4,22658],[82.4,22741],[82.4,22825],[82.4,22908],[82.4,22991],[82.4,23074],[82.4,23157],[82.4,23241],[82.4,23324],[82.4,23407],[82.4,23491],[82.4,23574],[82.4,23657],[82.4,23741],[82.4,23824],[82.4,23907],[82.4,23990],[82.4,24074],[82.4,24157],[82.4,24240],[82.4,24324],[82.4,24407],[82.4,24490],[82.4,24574],[82.4,24657],[82.4,24741],[82.4,24824],[82.4,24907],[82.4,24990],[82.4,25074],[82.4,25157],[82.4,25240],[82.4,25324],[82.4,25407],[82.4,25490],[82.4,25574],[83.1,25658],[83.1,25740],[82.1,25824],[81.5,25906],[81.5,25990],[81.5,26073],[81.4,26157],[81.4,26240],[81.4,26323],[81.4,26406],[81.4,26490],[81.4,26573],[81.4,26656],[81.4,26740],[81.4,26823],[81.4,26906],[81.4,26989],[81.4,27073],[81.4,27156],[81.4,27240],[81.4,27323],[81.4,27406],[81.4,27490],[81.4,27573],[81.4,27656],[81.4,27739],[81.4,27823],[81.4,27906],[81.4,27989],[81.4,28072],[81.4,28156],[81.4,28239],[81.4,28323],[81.4,28406],[81.4,28489],[81.4,28572],[81.4,28655],[81.4,28739],[81.4,28822],[81.4,28905],[81.4,28989],[81.4,29072],[81.4,29155],[81.4,29239],[81.4,29322],[81.4,29405],[81.4,29488],[81.4,29572],[81.4,29655],[81.4,29739],[81.4,29822],[81.4,29905],[81.4,29989],[81.4,30072],[81.4,30155],[81.4,30238],[81.4,30322],[81.4,30405],[81.4,30488],[81.4,30572],[81.4,30655],[81.4,30739],[81.5,30822],[81.8,30905],[82,30988],[82,31072],[81.5,31156],[81.4,31238],[81.4,31322],[81.4,31405],[81.4,31488],[81.4,31571],[81.4,31654],[81.4,31738],[81.4,31821],[81.4,31904],[81.4,31988],[81.4,32071],[81.4,32154],[81.4,32238],[81.4,32321],[81.4,32404],[81.4,32487],[81.4,32571],[81.4,32654],[81.4,32738],[81.4,32821],[81.4,32904],[81.4,32987],[81.4,33071],[81.4,33154],[81.4,33238],[81.4,33321],[81.4,33404],[81.4,33488],[81.4,33571],[81.4,33654],[81.4,33737],[81.4,33820],[81.4,33904],[81.4,33987],[81.4,34070],[81.4,34154],[81.4,34237],[81.4,34320],[81.4,34404],[81.4,34487],[81.4,34570],[81.4,34654],[81.4,34737],[81.4,34820],[81.4,34912],[81.4,34987],[81.4,35070],[81.4,35153],[81.4,35237],[81.4,35320],[81.4,35403],[81.4,35487],[81.4,35570],[81.4,35653],[81.4,35737],[81.4,35820],[81.4,35903],[81.4,35986],[81.4,36069],[81.4,36153],[81.4,36236],[81.4,36320],[81.4,36403],[81.4,36486],[81.4,36570],[81.4,36653],[81.4,36736],[81.4,36819],[81.4,36903],[81.4,36986],[81.4,37069],[81.4,37153],[81.4,37236],[81.4,37319],[81.4,37402],[81.4,37486],[81.4,37569],[81.4,37652],[81.4,37736],[81.4,37819],[81.4,37902],[81.4,37985],[81.4,38069],[81.4,38152],[77.1,38236],[78.2,38903],[79,38986],[79.1,39069],[79.3,39152],[79.5,39236],[79.6,39319],[79.6,39402],[79.6,39485]]",1,0,1067.102,1069.5171,82.89165161,2.1913,"[{""rating"":82.89165161335819,""responseTime"":1.5643000000120537},{""rating"":82.89165161335819,""responseTime"":2.1913000000120064}]",space,1.8674,,1069.5171,Not at all,0,1079.897,84.71925107,9.3272,"[{""rating"":84.71925106955578,""responseTime"":9.327199999988125}]",space,0,18,18,18,1,audio/Narrative8Situation9.wav,audio/Narrative7Situation9.wav,audio/Narrative6Situation9.wav,audio/Narrative5Situation9.wav,3,2,4,3,,,9.8307,,,,,,,,,,,,,,,,,,,,,,,,,,,,,,,,,,,,
,,,,,,56875435369319000c26947d,2024-05-13_11h33.59.971,group3.1-3.2-social-tom,2023.2.2,Linux x86_64,59.88023952,65c5074098b851296ff0b7ed,664232bea79683a540f69ee8,,,,,,,,,,,,,,,,,,,,,,,,,,,,,,,,,,,,,,,,,,,,,,,,,,,,,,,,,,,,,,,,,,,,,,,,1079.8974,1080.9131,space,0.4857,,1080.9135,1083.6808,space,2.4396,,,,,,,,,,,,,,,,,,,,,,,,,,
,,,,,,56875435369319000c26947d,2024-05-13_11h33.59.971,group3.1-3.2-social-tom,2023.2.2,Linux x86_64,59.88023952,65c5074098b851296ff0b7ed,664232bea79683a540f69ee8,,,,,,,,,,,,,,,,,,,,,,,,,,,,,1086.288,1,audio/Narrative7Situation9.wav,1088.2938,,,,,,,1120.2347,1125.2482,11.51417078,4.5273,"[{""rating"":11.5141707842899,""responseTime"":4.527299999982233}]",space,4.4659,,1120.2172,Definitely yes,100,1120.2347,,,[],,,,,,,,,,,2,2,2,2,,,,,,,,,,,,,,,1083.6952,1086.2615,1088.2943,3,1120.2169,"[[84.1,1499],[79,1582],[76.1,1665],[75.8,1749],[76.3,1832],[76.3,1915],[76,1999],[74.7,2082],[74,2165],[73.9,2248],[73.9,2332],[73.9,2415],[73.9,2498],[73.9,2581],[73.9,2665],[73.9,2748],[73.9,2831],[73.9,2915],[73.9,2998],[73.9,3082],[77,3165],[78.4,3249],[79.2,3332],[79.6,3415],[79.7,3498],[79.7,3581],[79.7,3665],[79.7,3748],[79.7,3831],[79.7,3914],[79.7,3998],[79.7,4081],[79.7,4164],[79.7,4248],[79.7,4331],[79.7,4414],[79.7,4497],[79.7,4581],[79.7,4664],[79.7,4747],[79.7,4831],[79.7,4914],[79.7,4997],[79.7,5082],[79.7,5164],[79.7,5247],[79.7,5330],[73.1,5414],[62.4,5497],[61.9,5581],[61.9,5664],[61.9,5747],[61.9,5831],[63.2,5914],[65.4,5997],[67.2,6080],[67.2,6163],[67.2,6247],[67.2,6330],[67.2,6413],[67.2,6497],[67.2,6580],[67.2,6664],[67.2,6747],[67.2,6830],[67.2,6914],[67.2,6997],[67.2,7080],[67.2,7163],[67.2,7247],[67.2,7330],[67.2,7413],[67.2,7496],[70.2,7581],[71.6,7664],[71.7,7746],[71.7,7830],[71.7,7913],[71.7,7996],[71.7,8080],[39,8164],[24.1,8247],[23.5,8330],[23.5,8413],[23.5,8496],[23.5,8579],[21.5,8663],[11.8,8747],[10.5,8830],[10.1,8913],[9.9,8996],[9.6,9080],[8.9,9163],[8.7,9246],[8.6,9329],[8.6,9413],[8.6,9496],[8.6,9579],[8.6,9663],[8.6,9748],[8.6,9829],[8.6,9913],[8.6,9996],[8.6,10079],[8.6,10163],[8.6,10246],[8.6,10329],[8.6,10412],[8.6,10496],[8.6,10579],[8.6,10662],[8.6,10745],[8.6,10829],[8.6,10912],[8.6,10995],[8.6,11079],[8.6,11162],[8.6,11245],[8.6,11328],[8.6,11412],[8.6,11495],[8.6,11578],[8.6,11662],[8.6,11745],[8.6,11828],[8.6,11912],[8.6,11995],[8.6,12079],[8.6,12161],[8.6,12245],[8.6,12328],[8.6,12411],[8.6,12495],[8.6,12578],[8.6,12662],[8.6,12745],[8.6,12828],[8.6,12911],[8.6,12994],[8.6,13078],[8.6,13161],[8.6,13244],[8.6,13328],[8.6,13411],[8.6,13494],[8.6,13577],[8.6,13661],[8.6,13744],[8.6,13827],[8.6,13911],[8.6,13994],[8.6,14077],[8.6,14161],[8.6,14244],[8.6,14327],[8.6,14411],[8.6,14494],[8.6,14577],[8.6,14660],[8.6,14744],[8.6,14827],[8.6,14910],[8.6,14994],[8.6,15077],[9,15161],[9.2,15244],[9.3,15327],[9.3,15410],[9.3,15493],[9.3,15577],[9.3,15660],[9.3,15744],[9.1,15827],[9.1,15910],[9.1,15993],[9.1,16077],[9.1,16160],[9.1,16243],[9.1,16327],[9.1,16410],[9.1,16493],[9.1,16577],[9.1,16660],[9.1,16751],[9.1,16827],[9.1,16911],[9.1,16993],[9.1,17077],[9.1,17160],[9.1,17244],[9.1,17327],[9.1,17410],[9.1,17493],[9.1,17576],[9.1,17660],[9.1,17743],[9.1,17826],[9.1,17910],[9.1,17994],[9.1,18077],[9.1,18160],[9.1,18245],[9.1,18326],[9.1,18409],[9.1,18493],[9.1,18576],[9.1,18660],[9.1,18744],[9.1,18826],[9.1,18910],[9.1,18993],[9.1,19076],[9.1,19160],[9.1,19243],[9.1,19326],[9.1,19409],[9.1,19492],[9.1,19575],[9.1,19659],[9.1,19742],[9.1,19825],[9.1,19909],[9.1,19992],[9.1,20075],[9.1,20159],[9.1,20242],[9.1,20325],[9.1,20409],[9.1,20492],[9.1,20575],[9.1,20658],[9.1,20741],[9.1,20825],[9.1,20908],[9.1,20992],[9.1,21075],[9.1,21158],[9.1,21241],[9.1,21325],[9.1,21408],[9.1,21491],[9.1,21575],[9.1,21658],[9.1,21741],[9.1,21825],[9.1,21908],[9.1,21991],[9.1,22075],[9.1,22158],[9.1,22241],[9.1,22324],[9.1,22408],[9.1,22491],[9.1,22575],[9.1,22658],[9.1,22741],[9.1,22824],[9.1,22908],[9.1,22991],[9.1,23074],[9.3,23163],[9.4,23241],[9.7,23325],[9.9,23408],[9.9,23491],[9.9,23574],[9.8,23657],[9.8,23741],[9.8,23824],[9.8,23907],[9.8,23991],[9.8,24074],[9.8,24157],[9.8,24241],[9.8,24324],[9.8,24407],[9.8,24491],[9.8,24574],[9.8,24657],[9.8,24741],[9.8,24824],[9.8,24907],[9.8,24990],[9.8,25074],[9.8,25157],[9.8,25240],[9.8,25323],[9.8,25407],[9.8,25490],[9.8,25573],[9.8,25657],[9.8,25740],[9.8,25824],[9.8,25907],[9.8,25990],[9.8,26074],[9.8,26157],[9.8,26240],[9.8,26324],[9.8,26407],[9.8,26490],[9.8,26573],[9.8,26656],[9.8,26740],[9.8,26823],[9.8,26906],[9.8,26990],[9.8,27073],[9.8,27157],[9.8,27240],[9.8,27323],[9.8,27407],[9.8,27489],[9.8,27573],[9.8,27656],[9.8,27739],[9.8,27823],[9.8,27906],[9.8,27989],[9.8,28072],[9.8,28156],[9.8,28239],[9.8,28322],[9.8,28406],[9.8,28489],[9.8,28572],[9.8,28656],[9.8,28739],[9.8,28822],[9.8,28905],[9.8,28989],[9.8,29072],[9.8,29156],[9.8,29239],[9.8,29322],[9.8,29405],[9.8,29489],[9.8,29572],[9.8,29655],[9.8,29739],[9.8,29822],[9.8,29905],[9.8,29989],[9.8,30072],[9.8,30155],[9.8,30238],[9.8,30322],[9.8,30405],[9.8,30488],[9.8,30572],[9.8,30655],[9.8,30738],[9.8,30822],[9.8,30905],[9.8,30988],[9.8,31072],[9.8,31155],[9.8,31238],[9.8,31322],[9.8,31405],[9.8,31489],[9.8,31572],[9.8,31656],[9.8,31739],[9.8,31821],[9.8,31904]]",0,0,0,0,1,"Larry had recently lost his family, job and home, and was now living on his own in the park. He had most of his belongings, including some clothes, a blanket, and his mother’s special necklace. His family had been very important to him and he felt as though he did not have much going for him. One of his first days in the park he came across a family that did not have much food and looked very cold. He decided to give them some of his food and his blanket.","Larry had recently lost his family, job and home, and was now living on his own in the park. He had most of his belongings, including some clothes, a blanket, and his mother’s special necklace. His family had been very important to him and he felt as though he did not have much going for him. One of his first days in the park he came across a family that did not have much food and looked very cold. He decided to give them some of his food and his blanket.","Larry had recently lost his family, job and home, and was now living on his own in the park. He had most of his belongings, including some clothes, a blanket, and his mother’s special necklace. His family had been very important to him and he felt as though he did not have much going for him. One of his first days in the park he came across a family that did not have much food and looked very cold. He decided to give them some of his food and his blanket.","Larry had recently lost his family, job and home, and was now living on his own in the park. He had most of his belongings, including some clothes, a blanket, and his mother’s special necklace. His family had been very important to him and he felt as though he did not have much going for him. One of his first days in the park he came across a family that did not have much food and looked very cold. He decided to give them some of his food and his blanket.",,,,,,,,,,
