exp_question,consent.started,consent.stopped,consentResponse.keys,consentResponse.rt,consentResponse.duration,participantID,date,expName,psychopyVersion,OS,frameRate,STUDY_ID,SESSION_ID,opening1.started,opening1.stopped,keyEndingOpening1.keys,keyEndingOpening1.rt,keyEndingOpening1.duration,volumeAdjust.started,volumeAdjust.stopped,endingAdjust.keys,endingAdjust.rt,endingAdjust.duration,opening2.started,opening2.stopped,keyEndingOpening.keys,keyEndingOpening.rt,keyEndingOpening.duration,mouse.x,mouse.y,mouse.leftButton,mouse.midButton,mouse.rightButton,mouse.time,instructionLoop.thisRepN,instructionLoop.thisTrialN,instructionLoop.thisN,instructionLoop.thisIndex,instructionLoop.ran,readyForAudio.started,readyForAudio.stopped,fixation.started,run,audio_played,fixation.stopped,endPractice.keys,audioPre.started,audioPre.stopped,continuousResponses_audio,continuousSlider.response,continuousSlider.rt,intRating.started,intRating.stopped,intQuestionSlider.response,intQuestionSlider.rt,intQuestionSlider.history,confirmResponse.keys,confirmResponse.rt,confirmResponse.duration,catchQuestion.started,catch_label,catch_value,catchQuestion.stopped,catchQuestionSlider.response,catchQuestionSlider.rt,catchQuestionSlider.history,confirmResponse_2.keys,audioRunLoop.thisRepN,audioRunLoop.thisTrialN,audioRunLoop.thisN,audioRunLoop.thisIndex,audioRunLoop.ran,conditions1_1,conditions2_1,conditions1_2,conditions2_2,dur1_1,dur2_1,dur1_2,dur2_2,endPractice.rt,endPractice.duration,confirmResponse_2.rt,confirmResponse_2.duration,runIntervalBreak.started,runIntervalBreak.stopped,endingBreakKey.keys,endingBreakKey.rt,endingBreakKey.duration,connection.started,connection.stopped,connectionEnding.keys,connectionEnding.rt,connectionEnding.duration,readyForText.started,readyForText.stopped,textPre.started,run_dup,textPre.stopped,continuousResponses_text,textRunLoop.thisRepN,textRunLoop.thisTrialN,textRunLoop.thisN,textRunLoop.thisIndex,textRunLoop.ran,text1_1,text1_2,text2_1,text2_2,runBreakText.started,runBreakText.stopped,endingBreakKey_2.keys,endingBreakKey_2.rt,endingBreakKey_2.duration,ending.started,ending.stopped,endingEnding.keys,endingEnding.rt,endingEnding.duration
social,0.0001,12.2624,y,11.9344,,57d0a0bee3221e00015fe385,2024-02-08_13h05.18.271,group3.1-3.2-social-tom,2023.2.2,Win32,59.88023952,65c5074098b851296ff0b7ed,65c54140200212ad4b51ffef,,,,,,,,,,,,,,,,,,,,,,,,,,,,,,,,,,,,,,,,,,,,,,,,,,,,,,,,,,,,,,,,,,,,,,,,,,,,,,,,,,,,,,,,,,,,,,,,,,,,,,,,,,
,,,,,,57d0a0bee3221e00015fe385,2024-02-08_13h05.18.271,group3.1-3.2-social-tom,2023.2.2,Win32,59.88023952,65c5074098b851296ff0b7ed,65c54140200212ad4b51ffef,12.2626,17.2138,space,4.9288,,,,,,,,,,,,,,,,,,,,,,,,,,,,,,,,,,,,,,,,,,,,,,,,,,,,,,,,,,,,,,,,,,,,,,,,,,,,,,,,,,,,,,,,,,,,,,,,,,,,,,
,,,,,,57d0a0bee3221e00015fe385,2024-02-08_13h05.18.271,group3.1-3.2-social-tom,2023.2.2,Win32,59.88023952,65c5074098b851296ff0b7ed,65c54140200212ad4b51ffef,,,,,,17.2141,29.8688,space,12.3259,,,,,,,,,,,,,,,,,,,,,,,,,,,,,,,,,,,,,,,,,,,,,,,,,,,,,,,,,,,,,,,,,,,,,,,,,,,,,,,,,,,,,,,,,,,,,,,,,
,,,,,,57d0a0bee3221e00015fe385,2024-02-08_13h05.18.271,group3.1-3.2-social-tom,2023.2.2,Win32,59.88023952,65c5074098b851296ff0b7ed,65c54140200212ad4b51ffef,,,,,,,,,,,29.8774,44.0403,space,14.148,,[],[],[],[],[],[],0,0,0,0,1,,,,,,,,,,,,,,,,,,,,,,,,,,,,,,,,,,,,,,,,,,,,,,,,,,,,,,,,,,,,,,,,,,,,,,,,,,,,,,,,
,,,,,,57d0a0bee3221e00015fe385,2024-02-08_13h05.18.271,group3.1-3.2-social-tom,2023.2.2,Win32,59.88023952,65c5074098b851296ff0b7ed,65c54140200212ad4b51ffef,,,,,,,,,,,44.047,64.0808,space,19.9694,,[],[],[],[],[],[],1,0,1,0,1,,,,,,,,,,,,,,,,,,,,,,,,,,,,,,,,,,,,,,,,,,,,,,,,,,,,,,,,,,,,,,,,,,,,,,,,,,,,,,,,
,,,,,,57d0a0bee3221e00015fe385,2024-02-08_13h05.18.271,group3.1-3.2-social-tom,2023.2.2,Win32,59.88023952,65c5074098b851296ff0b7ed,65c54140200212ad4b51ffef,,,,,,,,,,,64.0872,76.0688,space,11.9441,,[],[],[],[],[],[],2,0,2,0,1,,,,,,,,,,,,,,,,,,,,,,,,,,,,,,,,,,,,,,,,,,,,,,,,,,,,,,,,,,,,,,,,,,,,,,,,,,,,,,,,
,,,,,,57d0a0bee3221e00015fe385,2024-02-08_13h05.18.271,group3.1-3.2-social-tom,2023.2.2,Win32,59.88023952,65c5074098b851296ff0b7ed,65c54140200212ad4b51ffef,,,,,,,,,,,76.0751,104.3298,space,28.239,,[],[],[],[],[],[],3,0,3,0,1,,,,,,,,,,,,,,,,,,,,,,,,,,,,,,,,,,,,,,,,,,,,,,,,,,,,,,,,,,,,,,,,,,,,,,,,,,,,,,,,
,,,,,,57d0a0bee3221e00015fe385,2024-02-08_13h05.18.271,group3.1-3.2-social-tom,2023.2.2,Win32,59.88023952,65c5074098b851296ff0b7ed,65c54140200212ad4b51ffef,,,,,,,,,,,104.337,117.285,space,12.923,,[],[],[],[],[],[],4,0,4,0,1,,,,,,,,,,,,,,,,,,,,,,,,,,,,,,,,,,,,,,,,,,,,,,,,,,,,,,,,,,,,,,,,,,,,,,,,,,,,,,,,
,,,,,,57d0a0bee3221e00015fe385,2024-02-08_13h05.18.271,group3.1-3.2-social-tom,2023.2.2,Win32,59.88023952,65c5074098b851296ff0b7ed,65c54140200212ad4b51ffef,,,,,,,,,,,,,,,,,,,,,,,,,,,117.2928,119.8692,119.8837,1,audio/Narrative13Situation2.wav,121.8903,,121.8905,151.6653,"[[999,1],[999,82],[999,165],[999,249],[999,329],[999,416],[999,496],[999,583],[999,662],[999,745],[999,829],[999,912],[999,1000],[999,1079],[999,1166],[999,1250],[999,1329],[999,1413],[999,1496],[999,1579],[999,1665],[999,1749],[999,1833],[999,1916],[999,1999],[999,2083],[999,2163],[999,2247],[999,2330],[999,2413],[80.4,2500],[61.6,2583],[54.8,2666],[52.4,2749],[52.4,2833],[52.4,2917],[52.4,2997],[52.4,3084],[52.4,3163],[52.4,3250],[52.4,3334],[50.6,3417],[50.3,3500],[50.3,3580],[50.3,3667],[50.3,3747],[35.3,3834],[7.8,3917],[3.6,4001],[2.4,4084],[0.9,4167],[4.2,8841],[14.6,8919],[24.6,9002],[37.5,9083],[51.3,9169],[72.2,9249],[78.3,9332],[78.3,9416],[78.3,9499],[78.3,9586],[78.3,9670],[86.3,9754],[100,9836],[100,9916],[100,9999],[100,10083],[100,10170],[100,10252],[100,10333],[100,10416],[100,10500],[100,10583],[100,10666],[100,10750],[100,10833],[100,10916],[100,11000],[100,11083],[100,11167],[100,11250],[100,11333],[100,11417],[100,11500],[100,11587],[100,11669],[100,11750],[100,11833],[100,11920],[100,12000],[100,12084],[100,12167],[100,12250],[100,12333],[100,12417],[100,12503],[100,12584],[100,12667],[100,12753],[100,12834],[100,12917],[100,13001],[100,13087],[100,13167],[100,13251],[100,13334],[100,13418],[100,13501],[100,13584],[100,13668],[100,13754],[100,13834],[100,13918],[100,14001],[100,14088],[100,14171],[100,14255],[100,14338],[100,14417],[100,14501],[100,14584],[100,14668],[100,14751],[100,14835],[100,14921],[100,15001],[100,15085],[100,15168],[100,15255],[100,15335],[100,15418],[100,15502],[100,15585],[100,15668],[100,15755],[100,15835],[100,15918],[100,16002],[100,16085],[100,16171],[100,16256],[100,16335],[100,16419],[100,16502],[100,16589],[100,16672],[100,16752],[100,16839],[100,16922],[100,17002],[100,17086],[100,17172],[100,17252],[100,17336],[100,17422],[100,17506],[100,17589],[100,17671],[100,17756],[100,17835],[100,17919],[100,18002],[100,18086],[100,18169],[100,18256],[100,18339],[100,18419],[100,18503],[100,18589],[100,18669],[97.1,18756],[83.9,18839],[69.4,18923],[58.3,19006],[43.5,19089],[24.8,19172],[21.5,19257],[21.5,19336],[21.5,19420],[21.5,19503],[21.5,19587],[14.3,19673],[9.4,19757],[4.5,19840],[0.2,19923]]",1,0,151.6655,159.1849,99.79166985,6.0296,"[{""rating"":99.79166984558105,""responseTime"":6.029600000143091}]",space,6.9724,,159.1851,Definitely yes,100,159.1884,,,[],,0,0,0,0,1,audio/Narrative13Situation2.wav,audio/Narrative13Situation2.wav,audio/Narrative13Situation2.wav,audio/Narrative13Situation2.wav,2,2,2,2,,,,,,,,,,,,,,,,,,,,,,,,,,,,,,,,,,,,,,,
,,,,,,57d0a0bee3221e00015fe385,2024-02-08_13h05.18.271,group3.1-3.2-social-tom,2023.2.2,Win32,59.88023952,65c5074098b851296ff0b7ed,65c54140200212ad4b51ffef,,,,,,,,,,,,,,,,,,,,,,,,,,,,,159.1887,1,audio/Narrative8Situation1.wav,162.1693,space,162.1693,178.1081,"[[95.6,4421],[78.7,4504],[48.1,4587],[14.3,4671],[10.2,4750],[10.2,4837],[10.2,4917],[10.2,5001],[4.2,5088],[94.5,11420],[95.3,11507],[96.3,11590],[96.5,11673],[96.7,11754],[97.6,11840],[97.8,11920],[98.2,12007],[99.8,12090],[100,12172],[100,12256],[100,12339],[100,12424],[100,12504],[100,12587],[100,12670],[100,12754],[100,12837],[100,12924],[100,13004],[100,13087],[100,13174],[100,13254],[100,13337],[100,13424],[100,13504],[100,13587],[100,13670],[100,13754],[100,13838],[100,13921],[100,14008],[100,14087],[100,14171],[100,14257],[100,14341],[100,14421],[100,14504],[100,14588],[100,14671],[100,14755],[100,14841],[100,14921],[100,15004],[100,15088],[100,15175],[100,15258],[100,15340],[100,15421],[100,15505],[100,15591],[100,15675],[100,15755],[100,15842],[100,15922]]",1,0,178.1083,183.58,98.64583015,4.2523,"[{""rating"":98.64583015441895,""responseTime"":4.2522999999522995}]",space,4.9331,,183.58,Not at all,0,183.582,,,[],,0,1,1,1,1,audio/Narrative7Situation1.wav,audio/Narrative8Situation1.wav,audio/Narrative5Situation1.wav,audio/Narrative6Situation1.wav,2,5,5,2,2.9646,,,,,,,,,,,,,,,,,,,,,,,,,,,,,,,,,,,,,,
,,,,,,57d0a0bee3221e00015fe385,2024-02-08_13h05.18.271,group3.1-3.2-social-tom,2023.2.2,Win32,59.88023952,65c5074098b851296ff0b7ed,65c54140200212ad4b51ffef,,,,,,,,,,,,,,,,,,,,,,,,,,,,,183.5821,1,audio/Narrative8Situation2.wav,186.5943,,186.5943,196.7156,"[[66.5,4752],[18,4838]]",1,0,196.7157,199.4537,0.104169051,1.401,"[{""rating"":0.10416905085245953,""responseTime"":1.4010000000000105}]",space,2.2016,,199.4538,Partially,50,199.457,,,[],,0,2,2,2,1,audio/Narrative7Situation2.wav,audio/Narrative8Situation2.wav,audio/Narrative5Situation2.wav,audio/Narrative6Situation2.wav,3,3,3,3,,,,,,,,,,,,,,,,,,,,,,,,,,,,,,,,,,,,,,,
,,,,,,57d0a0bee3221e00015fe385,2024-02-08_13h05.18.271,group3.1-3.2-social-tom,2023.2.2,Win32,59.88023952,65c5074098b851296ff0b7ed,65c54140200212ad4b51ffef,,,,,,,,,,,,,,,,,,,,,,,,,,,,,199.4572,1,audio/Narrative8Situation3.wav,203.468,,203.468,225.8432,"[[0.3,3587],[0.4,3668],[0.4,3754],[0.4,3834],[0.4,3918],[0.4,4001],[0.4,4088],[0.4,4167],[0.4,4254],[0.4,4334],[0.4,4418],[0.4,4501],[0.4,4584],[0.4,4671],[0.4,4754],[0.4,4838],[0.4,4918],[0.4,5001],[0.4,5085],[0.4,5168],[0.4,5251],[0.4,5335],[0.4,5418],[0.4,5501],[0.4,5585],[0.4,5671],[0.4,5751],[0.4,5835],[0.4,5918],[0.4,6001],[0.4,6085],[0.4,6168],[0.4,6252],[0.4,6335],[0.4,6423],[0.4,6505],[0.4,6585],[0.4,6672],[0.4,6755],[0.4,6835],[0.4,6919],[0.4,7006],[0.4,7089],[0.4,7169],[0.4,7256],[0.4,7339],[0.4,7418],[0.4,7502],[0.4,7585],[0.4,7669],[0.4,7754],[0.4,7836],[0.4,7922],[0.4,8002],[0.4,8086],[0.4,8172],[0.4,8252],[0.4,8339],[0.4,8419],[0.4,8503],[0.4,8586],[0.4,8669],[0.4,8756],[0.4,8836],[0.4,8919],[0.4,9006],[0.4,9086],[0.4,9169],[0.4,9256],[0.4,9336],[0.4,9420],[0.4,9503],[0.4,9589],[0.4,9674],[0.4,9753],[0.4,9840],[0.4,9923],[0.4,10003],[0.4,10087],[0.4,10170],[0.4,10253],[0.4,10336],[0.4,10423],[0.4,10503],[0.4,10587],[0.4,10673],[0.4,10754],[0.4,10837],[0.4,10920],[0.4,11004],[0.4,11087],[0.4,11170],[0.4,11258],[0.4,11337],[12.4,11429],[93,12091],[95.6,12171],[98,12257],[98.8,12341],[99.4,12424],[99.8,12508],[99.8,12587],[99.8,12671],[99.8,12754],[99.8,12838],[99.8,12925],[99.8,13008],[99.8,13087],[99.8,13173],[99.8,13258],[99.8,13338],[99.8,13421],[99.8,13507],[99.8,13588],[99.8,13671],[99.8,13758],[99.8,13841],[99.8,13921],[99.8,14005],[99.8,14088],[99.8,14171],[99.8,14255],[99.8,14338],[99.8,14421],[99.8,14505],[99.8,14588],[99.8,14672],[99.8,14758],[99.8,14842],[99.8,14925],[99.8,15005],[99.8,15091],[99.8,15172],[99.8,15255],[99.8,15342],[99.8,15425],[99.8,15509],[99.8,15592],[99.8,15675],[99.8,15755],[99.8,15839],[99.8,15924],[99.8,16009],[99.8,16089],[99.8,16172],[99.8,16256],[99.8,16339],[99.8,16422],[99.8,16509],[99.8,16592],[99.8,16672],[99.8,16759],[99.8,16839],[99.8,16922],[99.8,17006],[99.8,17093],[99.8,17176],[99.8,17256],[99.8,17343],[99.8,17423],[99.8,17506],[99.8,17592],[99.8,17673],[99.8,17756],[99.8,17839],[99.8,17926],[99.8,18006],[99.8,18090],[99.8,18176],[99.8,18260],[99.8,18340],[99.8,18426],[99.8,18507],[99.8,18590],[99.8,18673],[99.8,18756],[99.8,18840],[99.8,18923],[99.8,19009],[99.8,19090],[99.8,19173],[99.8,19257],[99.8,19340],[99.8,19424],[99.8,19510],[99.8,19593],[99.8,19674],[99.8,19760],[99.8,19844],[99.8,19924],[99.8,20007],[99.8,20090],[99.8,20177],[99.8,20257],[99.8,20340],[99.8,20424],[99.8,20507],[99.8,20590],[99.8,20677],[99.8,20761],[99.8,20841],[99.8,20924],[99.8,21007],[99.8,21091],[99.8,21174],[99.8,21261],[99.8,21341],[99.8,21424],[99.8,21511],[99.8,21591],[99.8,21674],[99.8,21758],[99.8,21841],[99.8,21924],[99.8,22008],[99.8,22091],[99.8,22177],[99.8,22261],[99.8,22341]]",1,0,225.8433,227.4601,99.68749682,1.235,"[{""rating"":99.68749682108562,""responseTime"":1.2350000000000136}]",space,1.0744,,227.4602,Definitely yes,100,227.4624,,,[],,0,3,3,3,1,audio/Narrative7Situation3.wav,audio/Narrative8Situation3.wav,audio/Narrative5Situation3.wav,audio/Narrative6Situation3.wav,8,4,3,5,,,,,,,,,,,,,,,,,,,,,,,,,,,,,,,,,,,,,,,
,,,,,,57d0a0bee3221e00015fe385,2024-02-08_13h05.18.271,group3.1-3.2-social-tom,2023.2.2,Win32,59.88023952,65c5074098b851296ff0b7ed,65c54140200212ad4b51ffef,,,,,,,,,,,,,,,,,,,,,,,,,,,,,227.4627,1,audio/Narrative8Situation4.wav,230.4781,,230.4782,244.6503,"[[92.9,5338],[48.4,6172],[50.6,6255],[50.9,6338],[51.6,6418],[52,6502],[52,6585],[52,6669],[52,6752],[52,6835],[52,6922],[55,7005],[64.7,7088],[76.4,7169],[83.5,7256],[89.4,7335],[94.6,7422],[96.4,7506],[97.8,7589],[98.4,7673],[98.8,7755],[99,7836],[99,7923],[99,8006],[99,8086],[99,8169],[99,8253],[99,8336],[99,8419],[99,8503],[99,8586],[99,8669],[99,8756],[99,8836],[99,8919],[99,9002],[99,9087],[99,9170],[99,9253],[99,9340],[99,9424],[99,9503],[99,9590],[99,9670],[99,9757],[99,9837],[99,9920],[99,10003],[99,10086],[99,10170],[99,10257],[99,10341],[99,10420],[99,10507],[99,10587],[99,10670],[99,10754],[99,10840],[99,10920],[99,11007],[99,11091],[99,11171],[99,11257],[99,11340],[99,11420],[99,11504],[99,11587],[99,11670],[99,11754],[99,11841],[99,11925],[99,12004],[99,12091],[99,12171],[99,12254],[99,12341],[99,12421],[99,12504],[99,12588],[99,12671],[99,12758],[99,12841],[99,12921],[99,13004],[99,13087],[99,13171],[99,13255],[99,13338],[99,13421],[99,13508],[99,13592],[99,13671],[99,13755],[99,13841],[99,13925],[99,14008],[99,14088],[99,14171]]",1,0,244.6505,246.3178,99.06250636,1.2796,"[{""rating"":99.06250635782878,""responseTime"":1.2796000001430343}]",space,1.1191,,246.3178,Not at all,0,246.32,,,[],,0,4,4,4,1,audio/Narrative7Situation4.wav,audio/Narrative8Situation4.wav,audio/Narrative5Situation4.wav,audio/Narrative6Situation4.wav,3,3,1,2,,,,,,,,,,,,,,,,,,,,,,,,,,,,,,,,,,,,,,,
,,,,,,57d0a0bee3221e00015fe385,2024-02-08_13h05.18.271,group3.1-3.2-social-tom,2023.2.2,Win32,59.88023952,65c5074098b851296ff0b7ed,65c54140200212ad4b51ffef,,,,,,,,,,,,,,,,,,,,,,,,,,,,,246.3202,1,audio/Narrative8Situation5.wav,248.3351,,248.3351,256.5716,[],1,0,256.5716,258.6089,99.58333969,1.7485,"[{""rating"":99.58333969116211,""responseTime"":1.7484999999999786}]",space,1.4858,,258.609,Not at all,0,258.6102,,,[],,0,5,5,5,1,audio/Narrative7Situation5.wav,audio/Narrative8Situation5.wav,audio/Narrative5Situation5.wav,audio/Narrative6Situation5.wav,5,2,5,2,,,,,,,,,,,,,,,,,,,,,,,,,,,,,,,,,,,,,,,
,,,,,,57d0a0bee3221e00015fe385,2024-02-08_13h05.18.271,group3.1-3.2-social-tom,2023.2.2,Win32,59.88023952,65c5074098b851296ff0b7ed,65c54140200212ad4b51ffef,,,,,,,,,,,,,,,,,,,,,,,,,,,,,258.6104,1,audio/Narrative8Situation6.wav,260.6267,,260.6267,267.1089,[],1,0,267.109,269.9142,50.2083381,2.1781,"[{""rating"":50.20833810170492,""responseTime"":2.178099999904589}]",space,2.2673,,269.9143,Definitely yes,100,269.9172,,,[],,0,6,6,6,1,audio/Narrative7Situation6.wav,audio/Narrative8Situation6.wav,audio/Narrative5Situation6.wav,audio/Narrative6Situation6.wav,3,2,3,2,,,,,,,,,,,,,,,,,,,,,,,,,,,,,,,,,,,,,,,
,,,,,,57d0a0bee3221e00015fe385,2024-02-08_13h05.18.271,group3.1-3.2-social-tom,2023.2.2,Win32,59.88023952,65c5074098b851296ff0b7ed,65c54140200212ad4b51ffef,,,,,,,,,,,,,,,,,,,,,,,,,,,,,269.9174,1,audio/Narrative8Situation7.wav,272.9279,,272.9279,285.0159,"[[51.6,1836],[52.1,1917],[52.1,2003],[51.8,2087],[47,2170],[45.5,2253],[45.5,2334],[45.5,2417],[45.5,2500],[45.5,2587],[45.5,2667],[45.5,2750],[45.5,2837],[45.5,2917],[45.5,3000],[45.5,3087],[45.5,3170],[43.8,3254],[34.2,3337],[25.1,3421],[14.4,3504],[8.2,3587],[7.2,3670],[5.8,3754],[3.2,3834],[2.7,3922],[2.5,4001],[2.5,4084],[2.5,4168],[2.5,4251],[2.4,4334],[2.2,4421],[2.2,4504],[2.2,4584],[2.2,4672],[2.2,4751],[2.2,4835],[2.2,4918],[2.2,5001],[2.2,5088],[2.2,5168],[2.2,5251],[2.2,5338],[2.2,5418],[2.2,5502],[2.2,5588],[2.2,5668],[2.2,5751],[2.2,5835],[2.2,5922],[2.2,6002],[2.2,6085],[2.2,6171],[2.2,6252],[2.2,6339],[2.2,6418],[2.2,6502],[2.2,6585],[2.2,6671],[2.2,6752],[2.2,6839],[2.2,6922],[2.2,7005],[2.2,7086],[2.2,7169],[2.2,7252],[2.2,7336],[2.2,7419],[2.2,7502],[2.2,7589],[2.2,7669],[2.2,7752],[2.2,7839],[2.2,7922],[2.2,8002],[2.2,8089],[2.2,8169],[2.2,8252],[2.2,8336],[2.2,8423],[2.2,8502],[2.2,8586],[2.2,8673],[2.2,8752],[2.2,8836],[2.2,8919],[2.2,9003],[2.2,9090],[2.2,9170],[2.2,9257],[2.2,9336],[2.2,9420],[2.2,9506],[2.2,9586],[2.2,9672],[2.2,9756],[2.2,9836],[2.2,9920],[2.2,10003],[2.2,10086],[2.2,10170],[2.2,10253],[2.2,10336],[2.2,10420],[2.2,10507],[2.2,10587],[2.2,10670],[2.2,10754],[4.6,10837],[5.4,10920],[7.8,11003],[10.8,11087],[11.1,11170],[13.2,11254],[16.7,11337],[20.1,11420],[21.3,11504],[21.6,11587],[22.6,11670],[23.2,11754],[23.4,11837],[23.6,11921],[23.6,12004],[23.6,12087]]",1,0,285.0159,286.8496,4.375000795,1.2219,"[{""rating"":4.375000794728595,""responseTime"":1.221899999856987}]",space,1.305,,286.8497,Not at all,0,286.8517,,,[],,0,7,7,7,1,audio/Narrative7Situation7.wav,audio/Narrative8Situation7.wav,audio/Narrative5Situation7.wav,audio/Narrative6Situation7.wav,5,3,4,5,,,,,,,,,,,,,,,,,,,,,,,,,,,,,,,,,,,,,,,
,,,,,,57d0a0bee3221e00015fe385,2024-02-08_13h05.18.271,group3.1-3.2-social-tom,2023.2.2,Win32,59.88023952,65c5074098b851296ff0b7ed,65c54140200212ad4b51ffef,,,,,,,,,,,,,,,,,,,,,,,,,,,,,286.8519,1,audio/Narrative8Situation8.wav,289.8671,,289.8672,302.7061,"[[3.3,12398],[2.8,12474],[2.7,12555],[2.7,12638],[2.7,12721],[2.7,12809]]",1,0,302.7063,303.7063,2.604166667,0.2208,"[{""rating"":2.6041666666666687,""responseTime"":0.22079999995230537}]",space,0.4511,,303.7064,Not at all,0,303.7083,,,[],,0,8,8,8,1,audio/Narrative7Situation8.wav,audio/Narrative8Situation8.wav,audio/Narrative5Situation8.wav,audio/Narrative6Situation8.wav,2,3,3,5,,,,,,,,,,,,,,,,,,,,,,,,,,,,,,,,,,,,,,,
,,,,,,57d0a0bee3221e00015fe385,2024-02-08_13h05.18.271,group3.1-3.2-social-tom,2023.2.2,Win32,59.88023952,65c5074098b851296ff0b7ed,65c54140200212ad4b51ffef,,,,,,,,,,,,,,,,,,,,,,,,,,,,,303.7086,1,audio/Narrative8Situation9.wav,306.724,,306.7241,318.0286,"[[3.6,7172],[14.4,7255],[24.4,7339],[42.5,7422],[60.9,7502],[69.2,7588],[74.7,7672],[74.7,7752],[74.7,7838],[74.7,7919],[74.7,8002],[76.9,8089],[81.1,8173],[82.3,8252],[85.5,8339],[87,8423],[89.1,8506],[91.9,8589],[92.7,8673],[93.2,8756],[93.6,8836],[94.8,8923],[95.3,9006],[95.6,9086],[96.1,9173],[96.4,9253],[96.4,9340],[96.7,9423],[96.9,9503],[97.1,9586],[97.4,9673],[97.7,9755],[97.7,9836],[97.7,9920],[97.7,10003],[97.7,10087],[97.7,10170],[97.7,10253],[97.7,10339],[97.7,10420],[97.7,10503],[97.7,10590],[97.7,10670],[97.7,10754],[97.7,10837],[97.7,10924],[97.7,11003],[97.7,11087],[97.7,11174],[97.7,11254]]",1,0,318.0287,319.3788,97.70833651,1.0702,"[{""rating"":97.70833651224773,""responseTime"":1.0702000000476914}]",space,0.805,,319.3789,Partially,50,319.3812,,,[],,0,9,9,9,1,audio/Narrative7Situation9.wav,audio/Narrative8Situation9.wav,audio/Narrative5Situation9.wav,audio/Narrative6Situation9.wav,2,3,3,4,,,,,,,,,,,,,,,,,,,,,,,,,,,,,,,,,,,,,,,
,,,,,,57d0a0bee3221e00015fe385,2024-02-08_13h05.18.271,group3.1-3.2-social-tom,2023.2.2,Win32,59.88023952,65c5074098b851296ff0b7ed,65c54140200212ad4b51ffef,,,,,,,,,,,,,,,,,,,,,,,,,,,,,319.3814,1,audio/Narrative7Situation1.wav,321.3832,,321.3832,377.2681,"[[92.8,7749],[30.4,8583],[30.4,8669],[30.6,8753],[30.5,8832],[31.1,8919],[32.8,9003],[31.5,9086],[23,9169],[18.6,9253],[18.5,9333],[18.5,9420],[18.5,9500],[18.5,9586],[18.5,9670],[18.5,9753],[18.5,9833],[18.5,9916],[18.5,10003],[18.5,10087],[18.5,10166],[18.5,10250],[18.5,10333],[18.5,10420],[18.5,10500],[18.5,10583],[18.5,10666],[18.5,10750],[18.5,10837],[18.5,10917],[18.5,11000],[18.5,11083],[18.5,11166],[18.5,11253],[18.5,11333],[18.5,11417],[18.5,11500],[18.5,11584],[18.5,11670],[18.5,11750],[18.5,11834],[18.5,11920],[18.5,12001],[18.5,12084],[18.5,12167],[18.5,12250],[18.5,12337],[18.5,12417],[18.5,12501],[18.5,12584],[18.5,12668],[18.5,12754],[18.5,12834],[18.5,12918],[18.5,13001],[18.5,13084],[18.5,13168],[18.5,13251],[18.5,13335],[18.5,13418],[18.5,13501],[18.5,13584],[18.5,13668],[18.5,13751],[18.5,13837],[18.5,13918],[18.5,14001],[18.5,14085],[18.5,14168],[18.5,14253],[18.5,14335],[18.5,14418],[18.5,14502],[18.5,14585],[18.5,14668],[18.5,14752],[18.5,14835],[18.5,14918],[18.5,15005],[18.5,15085],[18.5,15169],[18.5,15254],[18.5,15335],[18.5,15418],[18.5,15502],[18.5,15585],[18.5,15669],[18.5,15752],[18.5,15839],[18.5,15918],[18.5,16002],[18.5,16088],[18.5,16169],[18.5,16252],[18.5,16336],[18.5,16419],[18.5,16502],[18.5,16586],[18.5,16673],[18.5,16753],[18.5,16836],[18.5,16922],[18.5,17002],[18.5,17086],[18.5,17169],[18.5,17252],[18.5,17336],[18.5,17419],[18.5,17506],[18.5,17586],[18.5,17673],[18.5,17756],[18.5,17836],[18.3,17920],[16,18006],[14.7,18090],[12.1,18173],[11.6,18253],[11.2,18340],[11.2,18420],[11.2,18503],[11.2,18590],[11.2,18670],[11.2,18753],[11.2,18839],[11.2,18920],[11.2,19003],[11.2,19087],[11.2,19174],[11.2,19253],[11.2,19340],[11.2,19424],[11.2,19504],[11.2,19586],[11.2,19670],[11.2,19754],[11.2,19837],[11.2,19920],[11.2,20007],[11.2,20087],[11.2,20174],[11.2,20255],[11.2,20340],[11.2,20420],[11.2,20504],[11.2,20587],[11.2,20670],[11.2,20754],[11.2,20841],[11.2,20921],[11.2,21004],[11.2,21090],[11.2,21171],[11.2,21254],[11.2,21340],[11.2,21421],[11.2,21504],[11.2,21588],[11.2,21674],[11.2,21758],[9.2,21841],[6.7,21921],[5.8,22008],[4.3,22091],[3.3,22174],[3.2,22254],[2.5,22338],[2,22425],[2,22508],[2,22588],[2,22671],[2,22755],[2,22838],[2,22922],[2,23005],[2,23088],[2,23172],[2,23256],[2,23340],[2,23422],[2,23505],[2,23591],[2,23672],[2,23758],[2,23839],[2,23922],[2,24005],[2,24089],[2,24176],[2,24255],[2,24339],[2,24425],[2,24505],[2,24589],[2,24672],[2,24755],[2,24839],[2,24922],[2,25005],[2,25089],[2,25172],[2,25259],[2,25339],[2,25422],[2,25505],[2,25589],[2,25673],[2,25756],[2,25842],[2,25923],[2,26006],[2,26092],[2,26173],[2,26256],[2,26341],[2,26426],[2,26506],[2,26590],[2,26673],[2,26756],[2,26840],[2,26927],[2,27006],[2,27090],[2,27173],[2,27256],[2,27342],[2,27423],[2,27510],[2,27590],[2,27673],[2,27760],[2,27840],[2,27923],[2,28006],[2,28090],[2,28173],[2,28257],[2,28344],[2,28424],[2,28511],[2,28594],[2,28677],[2,28757],[2,28841],[2,28924],[2,29007],[2,29090],[2,29173],[2,29257],[2,29340],[2,29426],[2,29507],[2,29591],[2,29674],[2,29757],[2,29841],[2,29924],[2,30011],[2,30091],[2,30178],[2,30261],[2,30341],[2,30428],[2,30508],[2,30591],[2,30674],[2,30758],[2,30845],[2,30924],[2,31008],[2,31093],[2,31175],[2,31258],[2,31341],[2,31425],[2,31508],[2,31591],[2,31674],[2,31758],[2,31845],[2,31928],[2,32008],[2,32092],[2,32175],[2,32259],[2,32342],[2,32425],[2,32508],[2,32592],[2,32675],[2,32762],[2,32845],[2,32925],[2,33008],[2,33092],[2,33175],[2,33259],[2,33342],[2,33425],[2,33509],[2,33595],[2,33675],[2,33759],[2,33842],[2,33926],[2,34009],[2,34092],[2,34179],[2,34259],[2,34346],[2,34429],[2,34509],[2,34596],[2,34679],[2,34759],[2,34846],[2,34926],[2,35013],[2,35093],[2,35177],[2,35259],[2,35343],[2,35426],[2,35509],[2,35593],[2,35676],[2,35762],[2,35846],[2,35926],[2,36012],[2,36096],[2,36176],[2,36260],[2,36343],[2,36426],[2,36510],[2,36593],[2,36680],[2,36760],[2,36843],[2,36929],[2,37010],[2,37093],[2,37177],[2,37260],[2,37344],[2,37427],[2,37514],[2,37594],[2,37677],[2,37764],[2,37844],[2,37927],[2,38011],[2,38097],[2,38177],[2,38260],[2,38344],[2,38427],[2,38510],[2,38597],[2,38677],[2,38761],[2,38844],[2,38928],[2,39011],[2,39098],[2,39181],[2,39261],[2,39344],[2,39431],[2,39511],[2,39595],[2,39681],[2,39761],[2,39844],[2,39928],[2,40015],[2,40095],[2,40178],[2,40261],[2,40345],[2,40428],[2,40512],[2,40595],[2,40678],[2,40762],[2,40848],[2,40928],[2,41013],[2,41095],[2,41178],[2,41262],[2,41348],[2,41429],[2,41512],[2,41598],[2,41682],[2,41762],[2,41845],[2,41932],[2,42012],[2,42095],[2,42179],[2,42262],[2,42349],[3.3,42432],[5,42515],[10.6,42599],[15.9,42682],[19.4,42765],[21.4,42849],[21.9,42929],[21.9,43013],[21.9,43096],[21.9,43179],[21.9,43263],[32.8,43349],[48.9,43433],[64.4,43516],[76.7,43599],[81.3,43679],[85.5,43766],[91,43849],[94.7,43929],[96.8,44016],[97.7,44096],[98.4,44182],[98.4,44263],[98.4,44346],[98.4,44430],[98.4,44517],[98.4,44596],[98.4,44680],[98.4,44763],[98.4,44846],[98.4,44930],[98.4,45013],[98.4,45100],[98.4,45180],[98.4,45267],[98.4,45347],[98.4,45430],[98.4,45516],[98.4,45597],[98.4,45680],[98.4,45764],[98.4,45851],[98.4,45930],[98.4,46017],[98.4,46100],[98.4,46181],[98.4,46267],[98.4,46347],[98.4,46430],[98.4,46514],[98.4,46597],[98.4,46681],[98.4,46764],[98.4,46847],[98.4,46934],[98.4,47014],[98.4,47097],[98.4,47183],[98.4,47264],[98.4,47347],[98.4,47431],[98.4,47518],[98.4,47601],[98.4,47684],[98.4,47768],[98.4,47848],[98.4,47931],[98.4,48014],[98.4,48098],[98.4,48181],[98.4,48265],[98.4,48348],[98.4,48431],[98.4,48515],[98.4,48598],[98.4,48685],[98.4,48765],[98.4,48851],[98.4,48931],[98.4,49015],[98.4,49098],[98.4,49185],[98.4,49265],[98.4,49352],[98.4,49431],[98.4,49515],[98.4,49598],[98.4,49682],[98.4,49765],[98.4,49848],[98.4,49932],[98.4,50019],[98.4,50099],[98.4,50184],[98.4,50268],[98.4,50349],[98.4,50432],[98.4,50518],[98.4,50599],[98.4,50682],[98.4,50765],[98.4,50853],[98.4,50936],[98.4,51019],[98.4,51102],[98.4,51186],[98.4,51266],[98.4,51349],[98.4,51432],[98.4,51516],[98.4,51599],[98.4,51686],[98.4,51766],[98.4,51849],[98.4,51936],[98.4,52020],[98.4,52099],[98.4,52186],[98.4,52266],[98.4,52350],[98.4,52433],[98.4,52520],[98.4,52600],[98.4,52683],[98.4,52766],[98.4,52849],[98.4,52933],[98.4,53016],[98.4,53100],[98.4,53184],[98.4,53266],[98.4,53352],[98.4,53433],[98.4,53516],[98.4,53599],[98.4,53687],[98.4,53766],[98.4,53849],[98.4,53933],[98.4,54017],[98.4,54100],[98.4,54187],[98.4,54267],[98.4,54353],[98.4,54433],[98.4,54517],[98.4,54600],[98.4,54684],[98.4,54767],[98.4,54850],[98.4,54934],[98.4,55020],[98.4,55101],[98.4,55183],[98.4,55269],[98.4,55352],[98.4,55434],[98.4,55517],[98.4,55600],[98.4,55684],[98.4,55767],[98.4,55851]]",1,0,377.2685,378.7016,98.64583015,1.1347,"[{""rating"":98.64583015441895,""responseTime"":1.134700000047701}]",space,0.8892,,378.7016,Definitely yes,100,378.7034,,,[],,0,10,10,10,1,audio/Narrative8Situation1.wav,audio/Narrative7Situation1.wav,audio/Narrative6Situation1.wav,audio/Narrative5Situation1.wav,5,2,2,5,,,,,,,,,,,,,,,,,,,,,,,,,,,,,,,,,,,,,,,
,,,,,,57d0a0bee3221e00015fe385,2024-02-08_13h05.18.271,group3.1-3.2-social-tom,2023.2.2,Win32,59.88023952,65c5074098b851296ff0b7ed,65c54140200212ad4b51ffef,,,,,,,,,,,,,,,,,,,,,,,,,,,,,378.7036,1,audio/Narrative7Situation2.wav,381.7194,,381.7195,389.2089,[],1,0,389.209,392.0071,99.79166985,2.4306,"[{""rating"":99.79166984558105,""responseTime"":2.430600000143045}]",space,2.2589,,392.0072,Definitely yes,100,392.009,,,[],,0,11,11,11,1,audio/Narrative8Situation2.wav,audio/Narrative7Situation2.wav,audio/Narrative6Situation2.wav,audio/Narrative5Situation2.wav,3,3,3,3,,,,,,,,,,,,,,,,,,,,,,,,,,,,,,,,,,,,,,,
,,,,,,57d0a0bee3221e00015fe385,2024-02-08_13h05.18.271,group3.1-3.2-social-tom,2023.2.2,Win32,59.88023952,65c5074098b851296ff0b7ed,65c54140200212ad4b51ffef,,,,,,,,,,,,,,,,,,,,,,,,,,,,,392.0094,1,audio/Narrative7Situation3.wav,400.01,,400.0101,409.2636,"[[94,3587],[87.4,3667],[72,3754],[60.9,3837],[42.2,3917],[24.7,4004],[20.8,4084],[20.8,4171],[20.8,4251],[20.8,4334],[20.8,4418],[20.8,4501],[14.5,4587],[8.8,4671],[7.5,4755],[5.3,4837],[4.3,4921],[3.8,5001],[3.8,5085],[3.8,5168],[3.6,5254],[3.6,5334],[3.6,5418],[3.6,5503],[3.6,5589],[3.6,5668],[3.6,5751],[3.6,5835],[3.6,5918],[3.6,6002],[3.6,6088],[3.6,6168],[3.6,6251],[3.6,6335],[3.6,6418],[3.6,6502],[3.6,6585],[3.6,6672],[3.6,6752],[3.6,6835],[3.6,6918],[3.6,7002],[3.6,7085],[3.6,7168],[3.6,7252],[3.6,7335],[3.6,7422],[3.6,7505],[3.6,7586],[3.6,7672],[3.6,7755],[3.6,7836],[3.6,7919],[3.6,8002],[3.6,8089],[3.6,8173],[3.6,8252],[3.6,8336],[3.6,8419],[3.6,8503],[3.6,8586],[3.6,8669],[3.6,8753],[3.6,8839],[3.6,8919],[3.6,9003],[3.6,9086],[3.6,9169],[3.6,9253]]",1,0,409.2637,410.6304,3.645833333,0.7968,"[{""rating"":3.6458333333333313,""responseTime"":0.7967999999523272}]",space,0.8334,,410.6305,Definitely yes,100,410.6317,,,[],,0,12,12,12,1,audio/Narrative8Situation3.wav,audio/Narrative7Situation3.wav,audio/Narrative6Situation3.wav,audio/Narrative5Situation3.wav,4,8,5,3,,,,,,,,,,,,,,,,,,,,,,,,,,,,,,,,,,,,,,,
,,,,,,57d0a0bee3221e00015fe385,2024-02-08_13h05.18.271,group3.1-3.2-social-tom,2023.2.2,Win32,59.88023952,65c5074098b851296ff0b7ed,65c54140200212ad4b51ffef,,,,,,,,,,,,,,,,,,,,,,,,,,,,,410.632,1,audio/Narrative7Situation4.wav,413.6483,,413.6484,425.3695,"[[3.5,4251],[3.2,4338],[3.1,4418],[3.1,4501],[3.1,4585],[3.1,4668],[3.1,4751],[3.1,4835],[3.1,4918],[3.1,5001],[3.1,5085],[3.1,5168],[3.1,5251],[3.1,5335],[3.1,5418],[3.1,5501],[3.1,5585],[3.1,5672],[3.1,5751],[3.1,5835],[3.1,5918],[3.1,6001],[3.1,6085],[3.1,6169],[3.1,6252],[3.1,6335],[2.5,6422],[2.3,6505],[2.3,6585],[2.3,6669],[2.3,6755],[2.3,6835],[2.3,6919],[2.3,7002],[2.3,7085],[2.3,7169],[2.3,7252],[2.3,7336],[2.3,7419],[2.3,7506],[2.3,7589],[2.3,7669],[2.3,7753],[2.3,7836],[2.3,7919],[2.3,8003],[2.3,8086],[10.8,8173],[16.8,8256],[24,8339],[28,8423],[32.8,8508],[38.3,8589],[40.6,8673],[42.3,8756],[43.1,8840],[43.2,8922],[44,9006],[44.3,9089],[44.5,9170],[44.5,9256],[44.5,9336],[44.5,9419],[44.5,9503],[44.5,9586],[44.5,9670],[44.5,9754],[44.5,9841],[44.5,9920],[44.5,10004],[44.5,10086],[44.5,10170],[44.5,10253],[44.5,10337],[44.5,10420],[44.5,10504],[44.5,10587],[44.5,10674],[44.5,10754],[44.5,10839],[44.5,10923],[44.5,11004],[44.5,11091],[44.5,11170],[44.5,11254],[44.5,11337],[44.5,11420],[44.5,11504],[44.5,11587],[44.5,11670]]",1,0,425.3696,427.0735,47.29166826,1.3672,"[{""rating"":47.291668256123856,""responseTime"":1.3671999998092588}]",space,1.1831,,427.0736,Not at all,0,427.0749,,,[],,0,13,13,13,1,audio/Narrative8Situation4.wav,audio/Narrative7Situation4.wav,audio/Narrative6Situation4.wav,audio/Narrative5Situation4.wav,3,3,2,1,,,,,,,,,,,,,,,,,,,,,,,,,,,,,,,,,,,,,,,
,,,,,,57d0a0bee3221e00015fe385,2024-02-08_13h05.18.271,group3.1-3.2-social-tom,2023.2.2,Win32,59.88023952,65c5074098b851296ff0b7ed,65c54140200212ad4b51ffef,,,,,,,,,,,,,,,,,,,,,,,,,,,,,427.075,1,audio/Narrative7Situation5.wav,432.0891,,432.0891,440.5915,"[[46.7,1083],[31.4,1170],[1.8,2334],[2.2,2420],[2.2,2503],[2.1,2587],[2,2670],[2,2750],[2,2834],[2,2917],[2,3000],[2,3084],[2,3167],[2,3250],[2,3334],[2,3421],[2,3505],[2,3584],[2,3670],[2,3751],[2,3834],[2,3917],[2,4001],[2,4084],[2,4167],[2,4251],[2,4337],[2,4418],[2,4501],[2,4587],[2,4668],[2,4751],[2,4834],[2,4918],[2,5001],[2,5084],[2,5168],[2,5251],[2,5335],[2,5421],[2,5501],[2,5588],[2,5668],[2,5751],[2,5835],[2,5918],[2,6005],[2.6,6085],[5.9,6172],[7.7,6255],[10.9,6338],[12.5,6418],[12.5,6502],[12.5,6585],[12.5,6668],[12.5,6752],[12.5,6835],[12.5,6922],[12.5,7005],[12.5,7085],[12.5,7168],[12.5,7252],[12.5,7335],[12.5,7419],[12.5,7502],[12.5,7586],[12.5,7672],[12.5,7752],[12.5,7836],[12.5,7919],[12.5,8002],[12.5,8090],[12.5,8169],[12.5,8252],[12.5,8336],[12.5,8419],[12.5,8502]]",1,0,440.5916,442.8299,2.291667461,1.3616,"[{""rating"":2.2916674613952637,""responseTime"":1.3616000001430848}]",space,1.7011,,442.8299,Definitely yes,100,442.8332,,,[],,0,14,14,14,1,audio/Narrative8Situation5.wav,audio/Narrative7Situation5.wav,audio/Narrative6Situation5.wav,audio/Narrative5Situation5.wav,2,5,2,5,,,,,,,,,,,,,,,,,,,,,,,,,,,,,,,,,,,,,,,
,,,,,,57d0a0bee3221e00015fe385,2024-02-08_13h05.18.271,group3.1-3.2-social-tom,2023.2.2,Win32,59.88023952,65c5074098b851296ff0b7ed,65c54140200212ad4b51ffef,,,,,,,,,,,,,,,,,,,,,,,,,,,,,442.8334,1,audio/Narrative7Situation6.wav,445.848,,445.8481,455.8314,"[[2.5,1084],[3.5,1166],[3.5,1246],[3.5,1333],[3.5,1412],[3.5,1496],[3.5,1579],[3.5,1663],[3.5,1746],[3.5,1829],[3.5,1917],[3.5,1996],[3.5,2080],[3.5,2163],[3.5,2246],[3.5,2330],[5,2417],[14.1,2500],[27.4,2583],[69,3247],[80.1,3333],[84.1,3413],[89.4,3500],[91.1,3583],[92.8,3667],[95.6,3750],[97.2,3833],[98.2,3917],[99.7,4000],[100,4080],[100,4164],[100,4247],[100,4330],[100,4418],[100,4497],[100,4581],[100,4666],[100,4747],[100,4831],[100,4914],[100,4998],[100,5081],[100,5164],[100,5251],[100,5331],[100,5414],[100,5501],[100,5581],[100,5664],[100,5748],[100,5831],[100,5915],[100,5998],[100,6085],[100,6165],[100,6248],[100,6334],[100,6415],[100,6498],[100,6581],[100,6664],[100,6748],[100,6831],[100,6918],[100,6998],[100,7081],[100,7168],[100,7248],[100,7331],[100,7415],[100,7498],[100,7582],[100,7665],[100,7752],[100,7832],[100,7915],[100,7999],[100,8082],[100,8165],[100,8249],[100,8331],[100,8415],[100,8499],[100,8585],[100,8666],[100,8749],[100,8835],[100,8916],[100,8999],[100,9085],[100,9165],[100,9249],[100,9332],[100,9419],[100,9499],[100,9582],[100,9665],[100,9749],[100,9833],[100,9916]]",1,0,455.8315,457.5486,98.54167302,1.4458,"[{""rating"":98.54167302449544,""responseTime"":1.445799999952328}]",space,1.1748,,457.5487,Definitely yes,100,457.5503,,,[],,0,15,15,15,1,audio/Narrative8Situation6.wav,audio/Narrative7Situation6.wav,audio/Narrative6Situation6.wav,audio/Narrative5Situation6.wav,2,3,2,3,,,,,,,,,,,,,,,,,,,,,,,,,,,,,,,,,,,,,,,
,,,,,,57d0a0bee3221e00015fe385,2024-02-08_13h05.18.271,group3.1-3.2-social-tom,2023.2.2,Win32,59.88023952,65c5074098b851296ff0b7ed,65c54140200212ad4b51ffef,,,,,,,,,,,,,,,,,,,,,,,,,,,,,457.5506,1,audio/Narrative7Situation7.wav,462.5673,,462.5673,479.761,"[[95.7,1586],[85.1,1670],[72.8,1753],[50.3,2587],[50.8,2667],[50.8,2750],[50.8,2834],[50.8,2917],[50.8,3003],[50.8,3084],[50.8,3170],[50.8,3251],[50.8,3334],[50.8,3417],[50.8,3501],[50.8,3584],[50.8,3668],[50.8,3750],[50.8,3834],[50.8,3921],[50.8,4001],[50.8,4084],[50.8,4168],[50.8,4251],[50.8,4334],[50.8,4418],[50.8,4501],[50.8,4584],[50.8,4668],[50.8,4751],[50.8,4838],[50.8,4918],[50.8,5001],[50.8,5085],[50.8,5168],[50.8,5255],[50.8,5334],[50.8,5418],[50.8,5501],[50.8,5585],[50.8,5670],[50.8,5751],[50.8,5835],[50.8,5918],[50.8,6001],[50.8,6085],[50.8,6168],[50.8,6252],[50.8,6335],[50.8,6418],[50.8,6505],[50.8,6585],[50.8,6668],[50.8,6756],[50.8,6838],[50.8,6919],[50.8,7002],[50.8,7086],[50.8,7169],[50.8,7252],[50.8,7339],[50.8,7419],[50.8,7502],[50.8,7586],[50.8,7668],[50.8,7752],[50.8,7838],[50.8,7919],[50.8,8002],[51.4,8089],[52.5,8172],[53.1,8255],[53.6,8340],[54.2,8422],[54.9,8506],[55.8,8590],[56.8,8673],[57.1,8752],[57.1,8836],[57.1,8919],[57.1,9002],[57.1,9086],[58.9,9173],[62.6,9256],[66.5,9339],[70.5,9423],[74.6,9506],[80.9,9589],[85,9673],[86.6,9753],[86.6,9840],[86.6,9920],[86.6,10003],[86.6,10087],[86.6,10170],[86.6,10253],[86.6,10337],[86.6,10420],[86.6,10503],[86.6,10587],[86.6,10673],[86.6,10757],[86.6,10837],[86.6,10920],[86.6,11005],[86.6,11087],[86.6,11170],[86.6,11254],[86.6,11337],[86.6,11420],[86.6,11505],[86.6,11587],[86.6,11670],[86.6,11754],[86.6,11837],[86.6,11920],[86.6,12004],[86.6,12087],[86.6,12171],[86.6,12258],[86.6,12338],[86.6,12421],[86.6,12504],[86.6,12588],[86.6,12671],[86.6,12754],[86.6,12838],[86.6,12924],[86.6,13004],[86.6,13087],[86.6,13174],[86.6,13254],[86.6,13338],[86.6,13421],[86.6,13504],[86.6,13588],[86.6,13673],[86.6,13754],[86.6,13838],[86.6,13925],[86.6,14004],[86.6,14091],[86.6,14171],[86.6,14255],[86.6,14338],[86.6,14421],[86.6,14505],[86.6,14588],[86.6,14671],[86.6,14755],[86.6,14842],[86.6,14921],[86.6,15009],[86.6,15092],[86.6,15172],[88.2,15265],[91.5,15342],[93.8,15425],[95.8,15509],[97.4,15588],[97.7,15675],[97.7,15755],[97.9,15839],[98.1,15922],[98.4,16009],[98.8,16092],[98.8,16172],[98.8,16256],[98.8,16339],[98.8,16422],[98.8,16506],[98.8,16589],[98.8,16677],[98.8,16755],[98.8,16839],[98.8,16922],[98.8,17008],[98.8,17089],[98.8,17172]]",1,0,479.7612,480.6075,98.75000318,0.5271,"[{""rating"":98.75000317891438,""responseTime"":0.5270999999046353}]",space,0.3006,,480.6076,Not at all,0,480.6103,,,[],,0,16,16,16,1,audio/Narrative8Situation7.wav,audio/Narrative7Situation7.wav,audio/Narrative6Situation7.wav,audio/Narrative5Situation7.wav,3,5,5,4,,,,,,,,,,,,,,,,,,,,,,,,,,,,,,,,,,,,,,,
,,,,,,57d0a0bee3221e00015fe385,2024-02-08_13h05.18.271,group3.1-3.2-social-tom,2023.2.2,Win32,59.88023952,65c5074098b851296ff0b7ed,65c54140200212ad4b51ffef,,,,,,,,,,,,,,,,,,,,,,,,,,,,,480.6106,1,audio/Narrative7Situation8.wav,482.625,,482.625,492.6456,"[[91.8,2417],[84.4,2504],[73.4,2587],[62.3,2670],[62.3,2750],[62.3,2834],[62.3,2917],[62.3,3002],[54.6,3087],[53.2,3170],[50.6,3254],[48.8,3337],[48.5,3417],[48.5,3501],[48.5,3584],[48.5,3668],[48.5,3751],[48.5,3834],[48.5,3918],[48.5,4001],[48.5,4084],[48.5,4171],[48.5,4251],[48.5,4338],[48.5,4417],[48.5,4501],[48.5,4587],[48.5,4668],[48.5,4754],[48.5,4834],[48.5,4918],[48.5,5001],[48.5,5084],[48.5,5168],[48.5,5254],[48.5,5335],[51,5418],[68.5,5505],[75.2,5588],[81.1,5672],[86.7,5755],[94.7,5838],[97.3,5921],[97.8,6005],[99,6088],[99.3,6168],[99.3,6252],[99.3,6335],[99.3,6418],[99.3,6502],[99.3,6585],[99.3,6669],[99.3,6752],[99.3,6835],[99.3,6922],[99.3,7002],[99.3,7085],[99.3,7171],[99.3,7252],[99.3,7336],[99.3,7419],[99.3,7506],[99.3,7586],[99.3,7673],[99.3,7752],[99.3,7836],[99.3,7923],[99.3,8002],[99.3,8086],[99.3,8169],[99.3,8253],[99.3,8338],[99.3,8419],[99.3,8503],[99.3,8589],[99.3,8669],[99.3,8753],[99.3,8836],[99.3,8920],[99.3,9003],[99.3,9086],[99.3,9173],[99.3,9253],[99.3,9336],[99.3,9423],[99.3,9503],[99.3,9587],[99.3,9670],[99.3,9753],[99.3,9836],[99.3,9920],[99.3,10007]]",1,0,492.6458,496.4303,99.27083651,2.7499,"[{""rating"":99.27083651224773,""responseTime"":2.7498999998568934}]",space,3.2389,,496.4304,Not at all,0,496.4324,,,[],,0,17,17,17,1,audio/Narrative8Situation8.wav,audio/Narrative7Situation8.wav,audio/Narrative6Situation8.wav,audio/Narrative5Situation8.wav,3,2,5,3,,,,,,,,,,,,,,,,,,,,,,,,,,,,,,,,,,,,,,,
,,,,,,57d0a0bee3221e00015fe385,2024-02-08_13h05.18.271,group3.1-3.2-social-tom,2023.2.2,Win32,59.88023952,65c5074098b851296ff0b7ed,65c54140200212ad4b51ffef,,,,,,,,,,,,,,,,,,,,,,,,,,,,,496.4327,1,audio/Narrative7Situation9.wav,498.4475,,498.4476,507.0709,"[[69.6,8253],[74,8336],[79.3,8419],[83.3,8506],[84.9,8590]]",1,0,507.071,508.6016,97.50000636,1.1527,"[{""rating"":97.50000635782878,""responseTime"":1.15270000004773}]",space,0.9841,,508.6016,Definitely yes,100,524.7076,99.89584287,15.276,"[{""rating"":99.89584287007649,""responseTime"":15.276000000000067}]",space,0,18,18,18,1,audio/Narrative8Situation9.wav,audio/Narrative7Situation9.wav,audio/Narrative6Situation9.wav,audio/Narrative5Situation9.wav,3,2,4,3,,,15.5665,,,,,,,,,,,,,,,,,,,,,,,,,,,,,,,,,,,,
,,,,,,57d0a0bee3221e00015fe385,2024-02-08_13h05.18.271,group3.1-3.2-social-tom,2023.2.2,Win32,59.88023952,65c5074098b851296ff0b7ed,65c54140200212ad4b51ffef,,,,,,,,,,,,,,,,,,,,,,,,,,,584.7043,587.2813,587.2884,2,audio/Narrative13Situation2.wav,587.2884,,587.2884,617.0428,"[[42.6,6832],[3.1,7332],[3.3,7416],[3.3,7495],[3.4,7579],[3,7665],[3,7746],[3,7829],[3,7913],[3,7996],[3,8079],[3,8163],[4.2,8249],[73.5,9083],[74.3,9166],[75.1,9250],[75.1,9330],[75.1,9413],[75.1,9496],[75.1,9580],[75.1,9663],[75.1,9746],[75.1,9832],[75.1,9917],[75.1,9996],[75.1,10084],[75.1,10166],[75.1,10247],[75.1,10330],[75.1,10413],[75.1,10497],[75.1,10580],[75.1,10668],[75.1,10750],[75.1,10830],[75.1,10914],[75.1,10997],[75.1,11080],[75.1,11163],[75.1,11247],[75.1,11330],[75.1,11414],[75.1,11497],[75.1,11584],[75.1,11664],[75.1,11747],[75.1,11831],[75.1,11914],[75.1,11998],[75.1,12080],[75.1,12164],[75.1,12248],[75.1,12331],[75.1,12414],[75.1,12498],[75.1,12581],[75.1,12667],[75.1,12748],[75.1,12833],[75.1,12918],[78,13001],[87.5,13084],[91.5,13168],[94,13251],[95.3,13331],[95.7,13415],[97.3,13501],[98.3,13585],[98.8,13668],[99,13752],[99,13831],[99,13915],[99,13998],[99,14085],[99,14165],[99,14248],[99,14331],[99,14415],[99,14498],[99,14582],[99,14665],[99,14748],[99,14832],[99,14919],[99,14998],[99,15082],[99,15165],[99,15248],[99,15332],[99,15415],[99,15499],[99,15582],[99,15666],[99,15752],[99,15832],[99,15918],[99,15999],[99,16082],[99,16166],[99,16249],[99,16332],[99,16416],[99,16499],[99,16586],[99,16666],[99,16749],[99,16836],[99,16916],[99,16999],[99,17083],[99,17166],[99,17249],[99,17333],[99,17416],[99,17500],[99,17583],[99,17666],[99,17749],[99,17833],[99,17916],[99,18000],[99,18083],[99,18166],[99,18253],[99,18333],[99,18416],[99,18503],[99,18583],[99,18666],[99,18750],[99,18833],[99,18916],[99,19004],[99,19087],[99,19167],[99,19254],[99,19334],[99,19417],[99,19500],[99,19584],[99,19667],[99,19750],[99,19837],[99,19921],[99,20000],[99,20084],[99,20170],[99,20250],[99,20334],[99,20417],[99,20501],[99,20584],[99,20671],[99,20754],[99,20834],[99,20921],[99,21001],[99,21084],[99,21171],[99,21254],[99,21337],[99,21418],[99,21503],[99,21588],[99,21668],[99,21754],[99,21838],[99,21918],[99,22004],[99,22085],[99,22168],[99,22251],[99,22335],[99,22422],[99,22505],[99,22587],[99,22668],[99,22751],[99,22835],[99,22918],[99,23002],[99,23085],[99,23168],[99,23255],[99,23335],[99,23418],[99,23501],[99,23585],[89.9,23669],[79.1,23755],[68.3,23839],[57.1,23918],[51.7,24005],[47.8,24089],[43.8,24169],[43.3,24254],[43.3,24335],[43.6,24422],[43.6,24502],[43.6,24585],[43.6,24669],[43.6,24756],[43.6,24836],[43.6,24923],[43.6,25005],[43.6,25086],[43.6,25169],[43.6,25253],[43.6,25336],[43.6,25419],[43.6,25503],[43.6,25586],[43.6,25673],[43.6,25756],[43.6,25836],[43.6,25919],[43.6,26003],[43.6,26086],[43.6,26169],[43.6,26253],[43.6,26336],[43.6,26420],[43.6,26503],[43.6,26590],[43.6,26670],[43.6,26753],[43.6,26838],[43.6,26920],[43.6,27003],[43.6,27086],[43.6,27170],[43.6,27253],[43.6,27340],[43.6,27420],[43.6,27503],[43.6,27586],[43.6,27670],[43.6,27753],[43.2,27840],[41.6,27923],[40.7,28007],[39.7,28090],[38.8,28170],[37.7,28256],[37.6,28337],[37.6,28420],[37.6,28504],[37.6,28587],[37.6,28671],[37.6,28754],[37.6,28837],[37.6,28920],[37.6,29004],[37.6,29091],[37.6,29171],[37.6,29254],[37.6,29337],[37.6,29421],[37.6,29504],[37.6,29587],[37.6,29671],[37.6,29754]]",1,0,617.0431,617.0447,,,[],,,,617.0448,Definitely yes,100,617.0453,,,[],,0,0,0,0,1,audio/Narrative13Situation2.wav,audio/Narrative13Situation2.wav,audio/Narrative13Situation2.wav,audio/Narrative13Situation2.wav,2,2,2,2,,,,,524.7082,584.6978,,,,,,,,,,,,,,,,,,,,,,,,,,,,,,,,,
,,,,,,57d0a0bee3221e00015fe385,2024-02-08_13h05.18.271,group3.1-3.2-social-tom,2023.2.2,Win32,59.88023952,65c5074098b851296ff0b7ed,65c54140200212ad4b51ffef,,,,,,,,,,,,,,,,,,,,,,,,,,,,,617.0455,2,audio/Narrative6Situation1.wav,619.0605,,619.0605,645.6543,"[[30.5,3921],[27.5,4004],[26.9,4087],[24.1,4171],[22.3,4254],[18.1,4334],[16.4,4418],[14.1,4504],[9.6,4588],[9,4668],[7.9,4755],[5.3,4834],[4.8,4921],[3.2,5004],[2.3,5085],[2.3,5168],[2.3,5252],[2.3,5335],[2.3,5418],[2.3,5502],[2.3,5588],[2.3,5668],[2.3,5752],[2.3,5838],[2.3,5918],[2.3,6005],[2.3,6085],[2.3,6168],[2.3,6252],[2.3,6339],[2.3,6423],[2.3,6505],[12.5,6585],[30.2,6668],[79.5,7505],[84.4,7586],[85.2,7673],[85.2,7752],[85.2,7836],[85.2,7919],[87.9,8006],[97.1,8089],[97.6,8169],[97.6,8253],[97.6,8336],[97.6,8419],[97.6,8503],[97.6,8586],[97.6,8669],[97.6,8753],[97.6,8840],[97.6,8923],[97.6,9006],[97.6,9087],[97.6,9170],[97.6,9253],[97.6,9337],[97.6,9419],[97.6,9506],[97.6,9587],[97.6,9670],[97.6,9757],[97.6,9841],[97.6,9920],[97.6,10006],[97.6,10087],[97.6,10170],[97.6,10254],[97.6,10337],[97.6,10420],[97.6,10506],[97.6,10591],[97.6,10673],[97.6,10757],[97.6,10837],[97.6,10920],[97.5,11006],[91.7,11091],[86.3,11173],[82.1,11257],[77.4,11339],[67.2,11423],[54.7,11507],[50.5,11591],[50.5,11671],[50.5,11754],[50.5,11838],[50.5,11921],[50.5,12004],[50.5,12088],[50.5,12174],[47.7,12257],[40.8,12341],[34.8,12424],[30.8,12504],[25.7,12591],[18.1,12674],[11.7,12758],[8,12841],[7.1,12925],[6.5,13008],[5.7,13091],[5.3,13171],[4.8,13257],[4.2,13342],[4.2,13421],[4.2,13504],[4.2,13588],[4.2,13672],[4.2,13755],[4.2,13838],[4.2,13922],[4.2,14005],[4.2,14088],[4.2,14172],[4.2,14255],[4.2,14338],[4.2,14422],[4.2,14505],[4.2,14588],[4.2,14675],[4.2,14759],[4.2,14838],[4.2,14926],[4.2,15005],[4.2,15089],[4.2,15172],[4.2,15255],[4.2,15338],[4.2,15426],[4.2,15506],[4.2,15589],[4.2,15672],[4.2,15756],[4.2,15839],[4.2,15922],[4.2,16006],[4.2,16092],[4.2,16173],[4.2,16256],[4.2,16339],[4.2,16423],[4.2,16506],[4.2,16593],[4.2,16675],[4.2,16756],[4.2,16839],[4.2,16923],[4.2,17006],[4.2,17089],[4.2,17172],[4.2,17256],[4.2,17339],[4.2,17426],[4.2,17509],[4.2,17589],[4.2,17673],[4.2,17756],[4.2,17843],[4.2,17923],[4.2,18010],[4.2,18090],[4.2,18173],[4.2,18260],[4.2,18343],[4.2,18423],[4.2,18506],[4.2,18590],[4.2,18673],[4.2,18757],[4.2,18840],[4.2,18927],[4.2,19007],[4.2,19090],[4.2,19173],[4.2,19257],[4.2,19340],[4.2,19424],[4.2,19507],[4.2,19590],[4.2,19677],[4.2,19761],[4.2,19841],[4.2,19927],[4.2,20010],[4.2,20091],[4.2,20174],[4.2,20257],[4.2,20341],[4.2,20424],[4.2,20507],[4.2,20593],[4.2,20674],[4.2,20758],[4.2,20844],[4.2,20924],[4.2,21007],[4.2,21091],[4.2,21174],[4.2,21258],[4.2,21341],[4.2,21428],[4.2,21508],[4.2,21591],[4.2,21674],[4.2,21758],[4.2,21841],[4.2,21925],[4.2,22011],[4.2,22091],[4.2,22178],[4.2,22262],[4.2,22341],[4.2,22428],[4.2,22508],[4.2,22591],[4.2,22675],[4.2,22758],[4.2,22842],[4.2,22925],[4.2,23011],[4.2,23095],[4.2,23175],[4.2,23258],[4.2,23345],[4.2,23425],[4.2,23512],[4.2,23592],[4.2,23675],[4.2,23759],[4.2,23842],[4.2,23929],[4.2,24012],[4.2,24092],[4.2,24178],[4.2,24259],[4.2,24342],[4.2,24426],[4.2,24509],[4.2,24592],[4.2,24676],[4.2,24763],[4.2,24842],[4.2,24926],[4.2,25013],[4.2,25092],[4.2,25176],[4.2,25259],[4.2,25342],[4.2,25426],[4.2,25509],[4.2,25596],[4.2,25676],[4.2,25763],[4.2,25843],[4.2,25926],[4.2,26009],[4.2,26093],[4.2,26176],[4.2,26260],[4.2,26343],[4.2,26430],[4.2,26509],[4.2,26593]]",1,0,645.6546,647.5252,3.437499205,0.9793,"[{""rating"":3.437499205271405,""responseTime"":0.979300000190733}]",space,1.335,,647.5253,Definitely yes,100,647.5273,,,[],,0,1,1,1,1,audio/Narrative7Situation1.wav,audio/Narrative8Situation1.wav,audio/Narrative5Situation1.wav,audio/Narrative6Situation1.wav,2,5,5,2,,,,,,,,,,,,,,,,,,,,,,,,,,,,,,,,,,,,,,,
,,,,,,57d0a0bee3221e00015fe385,2024-02-08_13h05.18.271,group3.1-3.2-social-tom,2023.2.2,Win32,59.88023952,65c5074098b851296ff0b7ed,65c54140200212ad4b51ffef,,,,,,,,,,,,,,,,,,,,,,,,,,,,,647.5276,2,audio/Narrative6Situation2.wav,650.5387,,650.5387,679.0337,"[[3.6,2672],[4.2,2755],[4.7,2838],[5.2,2918],[5.6,3000],[5.6,3084],[5.6,3168],[5.6,3254],[5.6,3334],[5.6,3418],[5.6,3505],[5.6,3585],[5.6,3668],[5.6,3754],[5.6,3835],[5.6,3918],[5.6,4001],[5.6,4089],[5.6,4168],[5.6,4252],[5.6,4334],[5.6,4418],[5.6,4502],[5.6,4585],[5.6,4668],[5.6,4752],[5.6,4835],[5.6,4923],[5.6,5002],[5.6,5089],[5.6,5173],[5.6,5252],[5.6,5339],[5.6,5422],[5.6,5502],[5.6,5586],[5.6,5668],[5.6,5754],[5.6,5835],[5.6,5919],[5.6,6006],[5.6,6086],[5.6,6169],[5.6,6253],[5.6,6336],[5.6,6419],[5.6,6502],[5.6,6586],[5.6,6669],[5.6,6753],[5.6,6836],[5.6,6920],[5.6,7003],[5.6,7086],[5.6,7169],[5.6,7253],[5.6,7336],[5.6,7420],[5.6,7503],[5.6,7586],[5.6,7672],[5.6,7753],[5.6,7836],[5.6,7920],[5.6,8003],[5.6,8086],[5.6,8170],[5.6,8257],[5.6,8336],[5.6,8423],[5.6,8507],[5.6,8587],[5.6,8670],[5.6,8757],[5.6,8840],[5.6,8920],[5.6,9003],[5.6,9090],[5.6,9170],[5.6,9254],[5.6,9340],[5.6,9420],[5.6,9503],[5.6,9587],[5.6,9670],[5.6,9754],[5.6,9837],[5.6,9924],[5.6,10004],[5.6,10087],[5.6,10170],[5.6,10254],[5.6,10337],[5.6,10422],[5.6,10504],[5.6,10588],[5.6,10671],[5.6,10758],[5.6,10838],[5.6,10921],[5.6,11007],[5.6,11088],[5.6,11171],[5.6,11257],[5.6,11338],[5.6,11421],[5.6,11504],[5.6,11588],[5.6,11671],[5.6,11758],[5.6,11842],[5.6,11925],[5.6,12007],[5.6,12088],[5.6,12171],[5.6,12254],[5.6,12338],[5.6,12425],[5.6,12508],[5.6,12588],[5.6,12675],[5.6,12755],[5.6,12838],[5.6,12925],[5.6,13005],[5.6,13089],[5.6,13172],[5.6,13259],[5.6,13339],[5.6,13422],[5.6,13508],[5.6,13589],[5.6,13672],[5.6,13755],[5.6,13839],[5.6,13922],[5.6,14005],[5.6,14093],[5.6,14172],[5.6,14259],[5.6,14343],[5.6,14422],[5.6,14505],[5.6,14592],[5.6,14672],[5.6,14756],[5.6,14839],[5.6,14922],[5.6,15005],[5.6,15089],[5.6,15175],[5.6,15256],[5.6,15339],[5.6,15423],[5.6,15506],[5.6,15589],[5.6,15673],[5.6,15760],[5.6,15839],[5.6,15923],[5.6,16009],[5.6,16093],[5.6,16173],[5.6,16256],[5.6,16340],[5.6,16423],[5.6,16507],[5.6,16593],[5.6,16673],[5.6,16756],[5.6,16843],[5.6,16923],[5.6,17006],[5.6,17093],[5.6,17173],[5.6,17257],[5.6,17340],[5.6,17427],[5.6,17507],[5.6,17590],[5.6,17677],[5.6,17757],[5.6,17843],[5.6,17926],[5.6,18007],[5.6,18090],[8.3,18173],[30.4,18260],[49.7,18343],[66.8,18427],[97.4,19007],[97.4,19094],[97.9,19178],[97.9,19258],[97.9,19344],[97.9,19424],[97.9,19507],[97.9,19591],[97.9,19678],[97.9,19758],[97.9,19841],[97.9,19924],[97.9,20008],[97.9,20091],[97.9,20177],[97.9,20258],[97.9,20341],[97.9,20424],[97.9,20508],[97.9,20591],[97.9,20675],[97.9,20758],[97.9,20844],[97.9,20924],[97.9,21008],[97.9,21091],[97.9,21175],[97.9,21258],[97.9,21341],[97.9,21425],[97.9,21508],[97.9,21595],[97.9,21675],[97.9,21758],[97.9,21845],[97.9,21925],[97.9,22012],[97.9,22092],[97.9,22175],[97.9,22259],[97.9,22342],[97.9,22429],[97.9,22508],[97.9,22595],[97.9,22678],[97.9,22759],[97.9,22842],[97.9,22925],[97.9,23009],[97.9,23092],[97.9,23176],[97.9,23263],[97.9,23342],[97.9,23426],[97.9,23512],[97.9,23593],[97.9,23676],[97.9,23759],[97.9,23843],[97.9,23929],[97.9,24009],[97.9,24092],[97.9,24176],[97.9,24263],[97.9,24346],[97.9,24426],[97.9,24509],[97.9,24593],[97.9,24676],[97.9,24760],[97.9,24843],[97.9,24930],[97.9,25009],[97.9,25093],[97.9,25180],[97.9,25260],[97.9,25347],[97.9,25430],[97.9,25509],[97.9,25596],[97.9,25676],[97.9,25761],[97.9,25844],[97.9,25927],[97.9,26010],[97.9,26093],[97.9,26177],[97.9,26260],[97.9,26343],[97.9,26427],[97.9,26510],[97.9,26597],[97.9,26677],[97.9,26760],[97.9,26846],[97.9,26931],[97.9,27010],[97.9,27093],[97.9,27177],[97.9,27261],[97.9,27344],[97.9,27431],[97.9,27510],[97.9,27594],[97.9,27680],[97.9,27764],[97.9,27844],[97.9,27927],[97.9,28011],[97.9,28094],[97.9,28177],[97.9,28261],[97.9,28344],[97.9,28427]]",1,0,679.034,680.7341,98.02083969,1.1854,"[{""rating"":98.02083969116211,""responseTime"":1.185400000095342}]",space,1.1572,,680.7342,Definitely yes,100,680.7359,,,[],,0,2,2,2,1,audio/Narrative7Situation2.wav,audio/Narrative8Situation2.wav,audio/Narrative5Situation2.wav,audio/Narrative6Situation2.wav,3,3,3,3,,,,,,,,,,,,,,,,,,,,,,,,,,,,,,,,,,,,,,,
,,,,,,57d0a0bee3221e00015fe385,2024-02-08_13h05.18.271,group3.1-3.2-social-tom,2023.2.2,Win32,59.88023952,65c5074098b851296ff0b7ed,65c54140200212ad4b51ffef,,,,,,,,,,,,,,,,,,,,,,,,,,,,,680.7361,2,audio/Narrative6Situation3.wav,685.7362,,685.7363,698.3579,"[[93.3,2836],[88.1,2920],[17.1,3670],[12.7,3754],[10.3,3836],[7.4,3917],[6.9,4001],[6.1,4087],[5.3,4167],[4.4,4254],[3.9,4337],[3.9,4418],[3.9,4501],[3.9,4584],[3.9,4668],[3.9,4751],[3.9,4835],[3.9,4918],[3.9,5001],[3.9,5085],[3.9,5168],[3.9,5254],[3.9,5337],[3.9,5418],[3.9,5504],[3.9,5585],[3.9,5668],[3.9,5751],[3.9,5835],[3.9,5918],[3.9,6002],[3.9,6087],[3.9,6171],[3.9,6252],[3.9,6335],[3.9,6418],[3.9,6502],[3.9,6585],[3.9,6668],[3.9,6752],[3.9,6835],[3.9,6918],[3.9,7005],[3.9,7085],[3.9,7169],[17.5,7255],[72.4,7589],[80.8,7672],[87.8,7755],[91.3,7839],[94,7923],[96.9,8005],[98.9,8089],[99.5,8173],[99.5,8252],[99.5,8336],[99.5,8419],[99.5,8502],[99.5,8586],[99.5,8670],[99.5,8756],[99.5,8836],[99.5,8922],[99.5,9003],[99.5,9086],[99.5,9169],[99.5,9253],[99.5,9336],[99.5,9420],[99.5,9503],[99.5,9586],[99.5,9670],[99.5,9753],[99.5,9836],[99.5,9919],[99.5,10003],[99.5,10086],[99.5,10170],[99.5,10253],[99.5,10340],[99.5,10420],[99.5,10503],[99.5,10589],[99.5,10670],[99.5,10754],[99.5,10837],[99.5,10920],[99.5,11004],[99.5,11087],[99.5,11173],[99.5,11254],[99.5,11337],[99.5,11420],[99.5,11504],[99.5,11587],[99.5,11670],[99.5,11754],[99.5,11837],[99.5,11921],[99.5,12007],[99.5,12087],[99.5,12171],[99.5,12254],[99.5,12339],[99.5,12420],[99.5,12504],[99.5,12587]]",1,0,698.3581,702.5592,99.27083651,3.7044,"[{""rating"":99.27083651224773,""responseTime"":3.704399999856946}]",space,3.6522,,702.5593,Partially,50,702.5623,,,[],,0,3,3,3,1,audio/Narrative7Situation3.wav,audio/Narrative8Situation3.wav,audio/Narrative5Situation3.wav,audio/Narrative6Situation3.wav,8,4,3,5,,,,,,,,,,,,,,,,,,,,,,,,,,,,,,,,,,,,,,,
,,,,,,57d0a0bee3221e00015fe385,2024-02-08_13h05.18.271,group3.1-3.2-social-tom,2023.2.2,Win32,59.88023952,65c5074098b851296ff0b7ed,65c54140200212ad4b51ffef,,,,,,,,,,,,,,,,,,,,,,,,,,,,,702.5626,2,audio/Narrative6Situation4.wav,704.5769,,704.577,717.1852,"[[31.5,3003],[22.2,3086],[12.2,3171],[9.9,3254],[8.3,3334],[8.3,3417],[8.3,3501],[8.3,3584],[8.3,3671],[6.7,3754],[6,3837],[4.9,3920],[4,4000],[4,4087],[4,4167],[4,4251],[4,4334],[4,4417],[4,4504],[4,4584],[4,4671],[4,4754],[4,4834],[4,4918],[4,5001],[4,5084],[4,5168],[4,5251],[4,5338],[4,5418],[4,5501],[4,5588],[4,5668],[4,5751],[4,5835],[4,5918],[4,6001],[4,6085],[4,6168],[4,6251],[4,6337],[4,6418],[4,6501],[4,6585],[4,6668],[4,6755],[4,6835],[4,6919],[4,7006],[4,7085],[4,7172],[4,7255],[4,7339],[4,7419],[4,7502],[4,7586],[4,7669],[4,7752],[4,7835],[4,7919],[4,8002],[4,8085],[4,8169],[4,8252],[4,8339],[4,8419],[4,8502],[4,8586],[4,8669],[4,8752],[4,8840],[4,8923],[4,9003],[4,9090],[4,9172],[4,9253],[4,9336],[4,9419],[4,9503],[4,9590],[4,9670],[4,9756],[4,9836],[4,9920],[4,10003],[4,10086],[4,10170],[4,10253],[4,10336],[4,10420],[4,10503],[4,10590],[4,10670],[4,10753],[4,10837],[4,10920],[4,11003],[4,11089],[4,11174],[4,11257],[4,11341],[4,11423],[4,11504],[4,11587],[4,11670],[4,11754],[2.5,11846],[2,11920],[1.7,12006],[1.7,12087],[1.7,12170],[1.7,12257],[1.7,12337],[1.7,12421],[1.7,12504],[1.7,12587]]",1,0,717.1853,718.2151,1.666669051,0.67,"[{""rating"":1.6666690508524595,""responseTime"":0.6700000000000728}]",space,0.4846,,718.2152,Not at all,0,722.3669,0.312499205,3.7214,"[{""rating"":0.31249920527140485,""responseTime"":3.721399999856885}]",space,0,4,4,4,1,audio/Narrative7Situation4.wav,audio/Narrative8Situation4.wav,audio/Narrative5Situation4.wav,audio/Narrative6Situation4.wav,3,3,1,2,,,3.5937,,,,,,,,,,,,,,,,,,,,,,,,,,,,,,,,,,,,
,,,,,,57d0a0bee3221e00015fe385,2024-02-08_13h05.18.271,group3.1-3.2-social-tom,2023.2.2,Win32,59.88023952,65c5074098b851296ff0b7ed,65c54140200212ad4b51ffef,,,,,,,,,,,,,,,,,,,,,,,,,,,,,722.3674,2,audio/Narrative6Situation5.wav,724.3675,,724.3675,732.3246,"[[1.6,4094],[2.3,4171],[2.6,4254],[2.6,4337],[2.6,4418],[2.6,4505],[2.6,4588],[2.6,4671],[2.6,4751],[2.6,4835],[2.6,4918],[2.6,5001],[2.6,5088],[2.6,5168],[2.6,5251],[2.6,5338],[2.6,5418],[2.6,5501],[2.6,5585],[2.6,5668],[2.6,5751],[2.6,5838],[2.6,5922],[2.6,6002],[2.6,6085],[2.6,6172],[2.6,6252],[2.6,6335],[2.6,6419],[2.6,6504],[2.6,6585],[2.6,6668],[2.6,6752],[2.6,6836],[2.6,6919],[2.6,7002],[2.6,7085],[2.6,7169],[2.6,7252],[2.6,7335],[2.6,7419],[2.6,7502],[2.6,7589],[2.6,7669],[2.6,7752],[2.6,7839],[2.6,7919]]",1,0,732.3248,733.7546,2.708335718,0.6258,"[{""rating"":2.7083357175191223,""responseTime"":0.6257999999523918}]",space,0.8885,,733.7548,Not at all,0,733.7567,,,[],,0,5,5,5,1,audio/Narrative7Situation5.wav,audio/Narrative8Situation5.wav,audio/Narrative5Situation5.wav,audio/Narrative6Situation5.wav,5,2,5,2,,,,,,,,,,,,,,,,,,,,,,,,,,,,,,,,,,,,,,,
,,,,,,57d0a0bee3221e00015fe385,2024-02-08_13h05.18.271,group3.1-3.2-social-tom,2023.2.2,Win32,59.88023952,65c5074098b851296ff0b7ed,65c54140200212ad4b51ffef,,,,,,,,,,,,,,,,,,,,,,,,,,,,,733.7571,2,audio/Narrative6Situation6.wav,735.7722,,735.7723,746.8595,"[[3.3,7672],[3.9,7756],[4.2,7837],[4.4,7919],[4.4,8002],[4.4,8086],[4.4,8169],[4.4,8252],[4.4,8335],[4.4,8419],[4.4,8502],[4.4,8586],[4.4,8669],[4.4,8752],[4.4,8836],[4.4,8919],[4.4,9002],[4.4,9086],[4.4,9169],[4.4,9256],[4.4,9336],[4.4,9419],[4.4,9506],[4.4,9586],[4.4,9669],[4.4,9757],[4.4,9836],[4.4,9920],[4.4,10003],[4.4,10086],[4.4,10173],[4.4,10253],[4.4,10336],[4.4,10420],[4.4,10507],[4.4,10586],[4.4,10670],[4.4,10753],[4.4,10840],[4.4,10923],[4.4,11007],[4.4,11086]]",1,0,746.8596,748.727,2.708335718,1.3407,"[{""rating"":2.7083357175191223,""responseTime"":1.3407000000477183}]",space,1.3293,,748.7271,Definitely yes,100,748.7302,,,[],,0,6,6,6,1,audio/Narrative7Situation6.wav,audio/Narrative8Situation6.wav,audio/Narrative5Situation6.wav,audio/Narrative6Situation6.wav,3,2,3,2,,,,,,,,,,,,,,,,,,,,,,,,,,,,,,,,,,,,,,,
,,,,,,57d0a0bee3221e00015fe385,2024-02-08_13h05.18.271,group3.1-3.2-social-tom,2023.2.2,Win32,59.88023952,65c5074098b851296ff0b7ed,65c54140200212ad4b51ffef,,,,,,,,,,,,,,,,,,,,,,,,,,,,,748.7304,2,audio/Narrative6Situation7.wav,753.7454,,753.7454,778.605,"[[3.1,4755],[4.3,4838],[5.3,4922],[5.4,5002],[5.4,5085],[5.4,5171],[5.4,5252],[5.4,5335],[5.4,5418],[5.4,5504],[5.4,5585],[5.4,5672],[5.4,5752],[5.4,5839],[5.4,5922],[5.4,6002],[5.4,6085],[5.4,6169],[5.4,6252],[5.4,6339],[5.4,6419],[5.4,6502],[5.4,6589],[5.4,6668],[5.4,6752],[5.4,6836],[5.4,6919],[5.4,7002],[5.4,7086],[5.4,7173],[5.4,7252],[5.4,7339],[5.4,7419],[5.4,7502],[5.4,7589],[5.4,7669],[5.4,7753],[5.4,7838],[5.4,7919],[5.4,8002],[5.4,8086],[5.4,8169],[5.4,8256],[5.4,8336],[5.4,8419],[5.4,8503],[5.4,8586],[5.4,8669],[5.4,8753],[14.3,8836],[48.8,8919],[64.8,9006],[75.1,9090],[78.9,9170],[84.3,9256],[94.3,9336],[96.9,9423],[97.9,9506],[98.4,9591],[98.4,9673],[99,9758],[99,9837],[99,9923],[99,10003],[99,10086],[99,10170],[99,10253],[99,10337],[99,10420],[99,10503],[99,10589],[99,10670],[99,10754],[99,10839],[99,10920],[99,11004],[99,11087],[99,11171],[99,11254],[99,11341],[99,11420],[99,11504],[99,11587],[99,11671],[99,11757],[99,11841],[99,11921],[99,12004],[99,12088],[99,12171],[99,12254],[99,12337],[99,12424],[99,12504],[99,12587],[99,12674],[99,12755],[99,12838],[99,12921],[99,13008],[99,13088],[99,13175],[99,13258],[99,13341],[99,13421],[99,13508],[99,13588],[99,13672],[99,13755],[99,13842],[99,13922],[99,14005],[99,14091],[99,14171],[99,14255],[99,14338],[99,14421],[99,14505],[99,14589],[99,14676],[99,14755],[99,14839],[99,14922],[99,15009],[99,15089],[99,15172],[99,15255],[99,15339],[99,15422],[99,15509],[99,15589],[99,15672],[99,15756],[99,15839],[99,15926],[99,16006],[99,16089],[99,16173],[99,16256],[99,16343],[99,16423],[99,16509],[99,16589],[99,16674],[99,16756],[99,16839],[99,16923],[99,17006],[99,17089],[99,17176],[99,17256],[99,17339],[99,17426],[99,17506],[99,17590],[99,17673],[99,17756],[99,17840],[99,17923],[99,18010],[99,18090],[99,18173],[99,18260],[99,18340],[99,18423],[99,18510],[99,18590],[99,18673],[99,18757],[99,18840],[99,18923],[99,19007],[99,19094],[99,19174],[99,19257],[99,19343],[99,19423],[99,19510],[99,19591],[99,19676],[99,19761],[99,19840],[99,19924],[99,20007],[99,20090],[99,20174],[99,20257],[99,20341],[99,20424],[99,20511],[99,20590],[99,20678],[99,20761],[99,20841],[99,20928],[99,21008],[99,21091],[99,21174],[99,21258],[99,21345],[99,21424],[99,21508],[99,21594],[99,21675],[99,21758],[99,21841],[99,21925],[99,22008],[99,22091],[99,22178],[99,22258],[99,22342],[99,22425],[99,22512],[99,22595],[99,22675],[99,22761],[99,22841],[99,22924],[99,23010],[99,23092],[99,23175],[99,23261],[99,23342],[99,23425],[99,23512],[99,23592],[99,23675],[99,23759],[99,23846],[99,23925],[99,24011],[99,24095],[99,24176],[99,24259],[99,24342],[99,24426],[99,24509],[99,24592],[99,24676],[99,24759],[99,24842]]",1,0,778.6052,780.125,98.95833333,0.7228,"[{""rating"":98.95833333333333,""responseTime"":0.7227999999522581}]",space,0.9656,,780.1251,Partially,50,780.1267,,,[],,0,7,7,7,1,audio/Narrative7Situation7.wav,audio/Narrative8Situation7.wav,audio/Narrative5Situation7.wav,audio/Narrative6Situation7.wav,5,3,4,5,,,,,,,,,,,,,,,,,,,,,,,,,,,,,,,,,,,,,,,
,,,,,,57d0a0bee3221e00015fe385,2024-02-08_13h05.18.271,group3.1-3.2-social-tom,2023.2.2,Win32,59.88023952,65c5074098b851296ff0b7ed,65c54140200212ad4b51ffef,,,,,,,,,,,,,,,,,,,,,,,,,,,,,780.1269,2,audio/Narrative6Situation8.wav,785.128,,785.128,792.0102,"[[86,2080],[40.6,5668],[30.1,5751],[22.8,5834],[17.4,5918],[9.7,6001],[5.4,6085],[4.5,6165],[3.5,6251],[1.1,6335],[0.6,6417],[0.6,6500],[0.6,6585],[0.6,6665],[0.6,6752],[0.6,6831]]",1,0,792.0103,793.394,0.625002384,0.8707,"[{""rating"":0.625002384185791,""responseTime"":0.870700000047691}]",space,0.8599,,793.394,Not at all,0,793.3964,,,[],,0,8,8,8,1,audio/Narrative7Situation8.wav,audio/Narrative8Situation8.wav,audio/Narrative5Situation8.wav,audio/Narrative6Situation8.wav,2,3,3,5,,,,,,,,,,,,,,,,,,,,,,,,,,,,,,,,,,,,,,,
,,,,,,57d0a0bee3221e00015fe385,2024-02-08_13h05.18.271,group3.1-3.2-social-tom,2023.2.2,Win32,59.88023952,65c5074098b851296ff0b7ed,65c54140200212ad4b51ffef,,,,,,,,,,,,,,,,,,,,,,,,,,,,,793.3967,2,audio/Narrative6Situation9.wav,797.3987,,797.3988,807.3492,"[[1,6168],[1.5,6248],[1.8,6335],[2.1,6415],[2.1,6499],[2.2,6586],[2.2,6665],[2.2,6753],[2.2,6832],[2.2,6915],[2.2,6999],[2.2,7082],[2.2,7166],[2.2,7249],[2.2,7332],[2.2,7419],[2.2,7499],[2.2,7582],[2.2,7666],[2.2,7749],[2.2,7832],[2.2,7916],[2.2,7999],[2.2,8082],[2.2,8169],[2.2,8253],[2.2,8333],[2.2,8416],[2.2,8499],[2.2,8583],[2.2,8666],[2.2,8750],[2.2,8836],[2.2,8916],[2.2,9000],[2.2,9087],[2.2,9166],[2.2,9253],[2.2,9333],[2.2,9416],[2.2,9502],[2.2,9583],[2.2,9666],[2.2,9750],[2.2,9833],[2.2,9920]]",1,0,807.3493,808.6335,2.187502384,0.9331,"[{""rating"":2.187502384185791,""responseTime"":0.9330999999045844}]",space,0.7581,,808.6335,Definitely yes,100,808.6363,,,[],,0,9,9,9,1,audio/Narrative7Situation9.wav,audio/Narrative8Situation9.wav,audio/Narrative5Situation9.wav,audio/Narrative6Situation9.wav,2,3,3,4,,,,,,,,,,,,,,,,,,,,,,,,,,,,,,,,,,,,,,,
,,,,,,57d0a0bee3221e00015fe385,2024-02-08_13h05.18.271,group3.1-3.2-social-tom,2023.2.2,Win32,59.88023952,65c5074098b851296ff0b7ed,65c54140200212ad4b51ffef,,,,,,,,,,,,,,,,,,,,,,,,,,,,,808.6367,2,audio/Narrative5Situation1.wav,813.6519,,813.6519,826.9571,"[[2.4,3759],[2.7,3838],[3.1,3921],[3.3,4001],[3.4,4088],[3.4,4168],[3.4,4255],[3.4,4334],[3.4,4418],[3.4,4501],[3.4,4585],[3.4,4668],[3.4,4751],[3.4,4834],[3.4,4922],[3.4,5001],[3.4,5085],[3.4,5168],[3.4,5251],[3.4,5338],[3.4,5418],[3.4,5501],[3.4,5589],[3.4,5668],[3.4,5755],[3.4,5835],[3.4,5918],[3.4,6002],[3.4,6085],[3.4,6168],[3.4,6255],[3.4,6335],[3.4,6418],[3.4,6505],[3.4,6589],[3.4,6668],[3.4,6755],[3.4,6835],[3.4,6919],[3.4,7002],[3.4,7085],[3.4,7169],[3.4,7252],[3.4,7336],[3.4,7422],[3.4,7502],[3.4,7585],[3.4,7669],[3.4,7752],[3.4,7836],[3.4,7918],[3.4,8002],[3.4,8086],[3.4,8173],[3.4,8255],[3.4,8336],[3.4,8419],[3.4,8502],[3.4,8586],[3.2,8669],[2.8,8753],[2.8,8836],[2.8,8920],[2.8,9003],[2.8,9090],[2.7,9173],[2.7,9253],[2.5,9340],[2.5,9420],[2.5,9507],[2.5,9586],[2.5,9670],[2.5,9753],[2.5,9836],[2.5,9920],[2.5,10003],[2.5,10086],[2.5,10170],[2.5,10253],[2.5,10337],[2.5,10420],[2.5,10503],[2.5,10587],[2.5,10670],[2.5,10753],[2.5,10837],[2.5,10920],[2.5,11003],[2.5,11087],[2.5,11170],[2.5,11254],[2.5,11337],[2.5,11424],[2.5,11503],[2.5,11587],[2.5,11670],[2.5,11753],[2.5,11840],[2.5,11921],[2.5,12004],[2.5,12087],[2.5,12171],[2.5,12254],[2.5,12337],[2.5,12425],[2.5,12504],[2.5,12587],[2.5,12674],[2.5,12755],[2.5,12837],[2.5,12924],[2.5,13004],[2.5,13088],[2.5,13171],[2.5,13258]]",1,0,826.9573,829.0411,1.145835718,1.6306,"[{""rating"":1.1458357175191225,""responseTime"":1.6306000001430903}]",space,1.5391,,829.0412,Not at all,0,829.044,,,[],,0,10,10,10,1,audio/Narrative8Situation1.wav,audio/Narrative7Situation1.wav,audio/Narrative6Situation1.wav,audio/Narrative5Situation1.wav,5,2,2,5,,,,,,,,,,,,,,,,,,,,,,,,,,,,,,,,,,,,,,,
,,,,,,57d0a0bee3221e00015fe385,2024-02-08_13h05.18.271,group3.1-3.2-social-tom,2023.2.2,Win32,59.88023952,65c5074098b851296ff0b7ed,65c54140200212ad4b51ffef,,,,,,,,,,,,,,,,,,,,,,,,,,,,,829.0444,2,audio/Narrative5Situation2.wav,832.0623,,832.0624,861.5203,"[[2.8,1583],[5.2,1666],[5.7,1750],[5.7,1830],[5.7,1913],[5.7,1996],[5.7,2083],[5.7,2163],[5.7,2250],[5.7,2330],[5.7,2417],[5.7,2497],[5.7,2580],[5.7,2664],[5.7,2747],[5.7,2834],[5.7,2917],[5.7,2997],[5.7,3081],[5.7,3164],[5.7,3247],[5.7,3331],[5.7,3414],[5.7,3497],[5.7,3581],[5.7,3664],[5.7,3750],[5.7,3831],[4.1,3918],[2.4,4000],[1.9,4085],[1.9,4164],[1.9,4248],[1.9,4331],[1.9,4414],[1.9,4497],[1.9,4581],[1.9,4664],[1.9,4751],[1.9,4831],[1.9,4915],[1.9,5002],[1.9,5081],[1.9,5164],[1.9,5248],[1.9,5331],[1.9,5418],[1.9,5498],[1.9,5581],[1.9,5665],[1.9,5748],[1.9,5831],[1.9,5915],[1.9,5998],[1.9,6082],[1.9,6169],[1.9,6251],[1.9,6331],[1.9,6415],[1.9,6499],[1.9,6582],[1.9,6665],[1.9,6749],[1.9,6832],[1.9,6915],[1.9,6999],[1.9,7086],[1.9,7165],[1.9,7252],[1.9,7335],[1.9,7415],[1.9,7499],[1.9,7582],[1.9,7665],[1.9,7749],[1.9,7832],[1.9,7919],[1.9,7999],[1.9,8086],[1.9,8166],[1.9,8249],[1.9,8336],[1.9,8416],[1.9,8499],[1.9,8582],[1.9,8670],[1.9,8752],[1.9,8832],[1.9,8916],[1.9,8999],[1.9,9083],[1.9,9166],[1.9,9250],[1.9,9333],[1.9,9416],[1.9,9500],[1.9,9586],[1.9,9666],[1.9,9753],[1.9,9836],[1.9,9916],[1.9,10000],[1.9,10083],[1.9,10166],[1.9,10250],[1.9,10333],[1.9,10416],[1.9,10499],[1.9,10586],[1.9,10666],[1.9,10750],[1.9,10833],[1.9,10917],[1.9,11000],[1.9,11086],[1.9,11170],[1.9,11254],[1.9,11333],[1.9,11420],[1.9,11500],[1.9,11586],[1.9,11666],[1.9,11754],[1.9,11834],[1.9,11917],[1.9,12000],[1.9,12084],[1.9,12167],[1.9,12251],[1.9,12334],[1.9,12418],[1.9,12501],[1.9,12584],[1.9,12667],[1.9,12751],[1.9,12834],[1.9,12921],[1.9,13001],[1.9,13085],[1.9,13171],[1.9,13251],[1.9,13335],[1.9,13417],[1.9,13502],[1.9,13588],[1.9,13668],[1.9,13755],[1.9,13835],[1.9,13918],[1.9,14001],[1.9,14085],[1.9,14168],[1.9,14251],[1.9,14335],[1.9,14421],[1.9,14505],[1.9,14588],[1.9,14668],[1.9,14752],[1.9,14835],[1.9,14918],[1.9,15002],[1.9,15085],[1.9,15168],[1.9,15252],[1.9,15335],[1.9,15422],[1.9,15502],[1.9,15585],[1.9,15669],[1.9,15752],[1.9,15835],[1.9,15919],[1.9,16002],[1.9,16086],[1.9,16169],[1.9,16252],[1.9,16336],[1.9,16423],[1.9,16502],[1.9,16585],[1.9,16672],[1.9,16752],[1.9,16836],[1.9,16919],[1.9,17002],[1.9,17089],[1.9,17169],[1.9,17252],[1.9,17336],[1.9,17419],[1.9,17504],[1.9,17586],[1.9,17669],[1.9,17756],[1.9,17839],[1.9,17920],[1.9,18003],[1.9,18086],[1.9,18173],[1.9,18253],[1.9,18336],[1.9,18420],[1.9,18503],[1.9,18586],[1.9,18670],[1.9,18756],[1.9,18836],[1.9,18924],[1.9,19003],[1.9,19090],[1.9,19170],[1.9,19256],[1.9,19336],[1.9,19420],[1.9,19503],[1.9,19589],[1.9,19670],[1.9,19754],[1.9,19840],[1.9,19920],[1.9,20004],[1.9,20087],[1.9,20170],[1.9,20254],[1.9,20341],[1.9,20424],[1.9,20507],[1.9,20587],[1.9,20674],[1.9,20754],[1.9,20837],[1.9,20921],[1.9,21004],[1.9,21087],[1.9,21171],[1.9,21256],[1.9,21337],[1.9,21421],[1.9,21504],[1.9,21587],[1.9,21671],[1.9,21758],[1.9,21838],[1.9,21921],[1.9,22004],[1.9,22091],[1.9,22171],[1.9,22255],[1.9,22341],[1.9,22421],[1.9,22504],[1.9,22587],[1.9,22671],[1.9,22755],[1.9,22842],[1.9,22925],[1.9,23005],[1.9,23092],[1.9,23171],[1.9,23258],[1.9,23338],[1.9,23421],[1.9,23507],[1.9,23588],[1.9,23672],[1.9,23758],[1.9,23838],[1.9,23922],[1.9,24005],[1.9,24088],[1.9,24172],[1.9,24255],[1.9,24338],[1.9,24422],[1.9,24509],[1.9,24589],[1.9,24672],[1.9,24759],[1.9,24839],[1.9,24922],[1.9,25006],[1.9,25089],[1.9,25172],[1.9,25256],[1.9,25339],[1.9,25425],[1.9,25506],[1.9,25589],[1.9,25672],[1.9,25756],[1.9,25839],[1.9,25926],[1.9,26006],[1.9,26089],[1.9,26176],[1.9,26259],[1.9,26339],[1.9,26422],[1.9,26506],[1.9,26589],[1.9,26673],[1.9,26756],[1.9,26840],[1.9,26923],[1.9,27006],[1.9,27093],[1.9,27173],[1.9,27256],[1.9,27343],[1.9,27423],[1.9,27506],[1.9,27590],[1.9,27673],[1.9,27756],[1.9,27843],[1.9,27926],[1.9,28010],[1.9,28094],[1.9,28173],[1.9,28257],[1.9,28340],[1.9,28424],[1.9,28507],[1.9,28594],[1.9,28673],[1.9,28760],[1.9,28840],[1.9,28924],[1.9,29007],[1.9,29091],[1.9,29174],[1.9,29257],[1.9,29340],[1.9,29424]]",1,0,861.5205,863.2042,1.874999205,1.098,"[{""rating"":1.8749992052714048,""responseTime"":1.0980000000001837}]",space,1.1507,,863.2042,Definitely yes,100,863.2072,,,[],,0,11,11,11,1,audio/Narrative8Situation2.wav,audio/Narrative7Situation2.wav,audio/Narrative6Situation2.wav,audio/Narrative5Situation2.wav,3,3,3,3,,,,,,,,,,,,,,,,,,,,,,,,,,,,,,,,,,,,,,,
,,,,,,57d0a0bee3221e00015fe385,2024-02-08_13h05.18.271,group3.1-3.2-social-tom,2023.2.2,Win32,59.88023952,65c5074098b851296ff0b7ed,65c54140200212ad4b51ffef,,,,,,,,,,,,,,,,,,,,,,,,,,,,,863.2074,2,audio/Narrative5Situation3.wav,866.222,,866.2221,880.144,"[[4.4,5171],[5.2,5251],[6.6,5338],[7.6,5418],[10.5,5505],[30.1,5588],[57.7,5672],[65.4,5751],[65.4,5834],[65.4,5918],[65.4,6001],[65.4,6088],[70.2,6172],[82.1,6255],[89,6338],[92.2,6422],[93.1,6505],[93.4,6585],[96.6,6672],[97.4,6755],[98.2,6835],[98.8,6922],[98.8,7002],[98.8,7085],[98.8,7169],[98.8,7252],[98.8,7335],[98.8,7419],[98.8,7502],[98.8,7588],[98.8,7672],[98.8,7756],[98.8,7836],[98.8,7919],[98.8,8002],[98.8,8086],[98.8,8169],[98.8,8252],[98.8,8336],[98.8,8419],[98.8,8503],[98.8,8586],[98.8,8669],[98.8,8752],[98.8,8839],[98.8,8920],[98.8,9003],[98.8,9086],[98.8,9169],[98.8,9257],[98.8,9336],[98.8,9423],[98.8,9503],[98.8,9586],[98.8,9670],[98.8,9753],[98.8,9836],[98.8,9920],[98.8,10003],[98.8,10086],[98.8,10170],[98.8,10257],[98.8,10336],[98.8,10423],[98.8,10503],[98.8,10586],[98.8,10674],[98.8,10753],[98.8,10837],[98.8,10920],[98.8,11005],[98.8,11090],[98.8,11171],[98.8,11254],[98.8,11340],[98.8,11420],[98.8,11504],[98.8,11587],[98.8,11670],[98.8,11754],[98.8,11837],[98.8,11924],[98.8,12007],[98.8,12091],[98.8,12171],[98.8,12254],[98.8,12337],[98.8,12421],[98.8,12504],[98.8,12588],[98.8,12671],[98.8,12757],[98.8,12837],[98.8,12921],[98.8,13004],[98.8,13088],[98.8,13175],[98.8,13254],[98.8,13337],[98.8,13421],[98.8,13505],[98.8,13588],[98.8,13674],[98.8,13755],[98.8,13838],[98.8,13921]]",1,0,880.1441,881.7611,98.75000318,0.7356,"[{""rating"":98.75000317891438,""responseTime"":0.7355999999047071}]",space,1.0836,,881.7612,Not at all,0,881.7633,,,[],,0,12,12,12,1,audio/Narrative8Situation3.wav,audio/Narrative7Situation3.wav,audio/Narrative6Situation3.wav,audio/Narrative5Situation3.wav,4,8,5,3,,,,,,,,,,,,,,,,,,,,,,,,,,,,,,,,,,,,,,,
,,,,,,57d0a0bee3221e00015fe385,2024-02-08_13h05.18.271,group3.1-3.2-social-tom,2023.2.2,Win32,59.88023952,65c5074098b851296ff0b7ed,65c54140200212ad4b51ffef,,,,,,,,,,,,,,,,,,,,,,,,,,,,,881.7635,2,audio/Narrative5Situation4.wav,882.7653,,882.7654,903.1529,"[[97.9,2163],[70.7,2250],[29.1,3082],[26,3166],[21.1,3252],[17.4,3334],[17.4,3413],[17.4,3497],[17.4,3580],[17.4,3667],[17.4,3751],[13,3830],[10.5,3917],[7.9,4001],[5.6,4084],[2.8,4167],[2.2,4251],[2.2,4330],[2.2,4414],[2.2,4497],[2.2,4581],[2.2,4667],[2.2,4747],[2.2,4831],[2.2,4917],[2.2,4997],[2.2,5081],[2.2,5164],[2.2,5248],[2.2,5331],[2.2,5419],[2.2,5501],[2.2,5581],[2.2,5668],[2.2,5748],[2.2,5831],[2.2,5915],[2.2,5998],[2.2,6081],[2.2,6165],[2.2,6251],[2.2,6335],[2.2,6415],[2.2,6498],[2.2,6581],[2.2,6665],[2.2,6748],[2.2,6832],[2.2,6918],[2.2,6998],[2.2,7082],[2.2,7165],[2.2,7249],[2.2,7332],[2.2,7415],[2.2,7499],[2.2,7582],[2.2,7665],[2.2,7749],[2.2,7835],[2.2,7915],[2.2,7999],[2.2,8082],[2.2,8169],[2.2,8249],[2.2,8332],[2.2,8416],[2.2,8499],[2.2,8582],[2.2,8666],[2.2,8749],[2.2,8835],[2.2,8920],[2.2,9003],[2.2,9083],[2.2,9169],[2.2,9249],[2.2,9333],[2.2,9416],[2.2,9499],[2.2,9583],[2.2,9669],[2.2,9749],[2.2,9833],[2.2,9916],[2.2,9999],[2.2,10083],[2.2,10166],[2.2,10250],[2.2,10337],[2.2,10416],[2.2,10503],[2.2,10583],[2.2,10666],[2.2,10749],[2.2,10833],[3,10916],[6.6,11003],[9.5,11086],[11.2,11170],[12.1,11253],[12.1,11336],[12.1,11417],[12.1,11500],[12.1,11587],[12.1,11667],[12.1,11750],[12.1,11833],[12.1,11917],[12.1,12004],[12.1,12087],[12.1,12170],[12.1,12250],[12.1,12333],[12.9,12421],[13.5,12504],[14.8,12588],[16.1,12667],[16.7,12751],[16.7,12834],[16.7,12917],[16.7,13001],[16.7,13084],[16.7,13168],[16.7,13251],[16.7,13334],[16.7,13418],[16.7,13501],[16.7,13584],[16.7,13667],[16.7,13751],[16.7,13834],[16.7,13917],[16.7,14001],[16.7,14085],[16.7,14168],[16.7,14251],[16.7,14334],[16.7,14418],[16.7,14502],[16.7,14588],[16.7,14671],[16.7,14751],[16.7,14835],[16.7,14918],[16.7,15001],[16.7,15085],[16.7,15168],[16.7,15252],[16.7,15337],[16.7,15418],[16.7,15502],[16.7,15585],[16.7,15668],[19.4,15761],[26,15838],[32.2,15922],[42.4,16005],[51.7,16088],[62.6,16172],[70,16255],[77.8,16339],[83.9,16423],[87.7,16505],[90.9,16589],[93.2,16672],[94.7,16756],[95.8,16838],[96.9,16922],[98.4,17006],[98.9,17085],[98.9,17173],[98.9,17252],[98.9,17339],[98.9,17422],[98.9,17502],[98.9,17586],[98.9,17669],[98.9,17752],[98.9,17836],[98.9,17923],[98.9,18006],[98.9,18086],[98.9,18169],[98.9,18253],[98.9,18336],[98.9,18423],[98.9,18503],[98.9,18586],[98.9,18669],[98.9,18753],[98.9,18838],[98.9,18920],[98.9,19003],[98.9,19086],[98.9,19170],[98.9,19253],[98.9,19336],[98.9,19420],[98.9,19503],[98.9,19586],[98.9,19670],[98.9,19753],[98.9,19840],[98.9,19922],[98.9,20003],[98.9,20087],[98.9,20170],[98.9,20253],[98.9,20340]]",1,0,903.153,906.1411,98.8541762,1.3041,"[{""rating"":98.85417620340984,""responseTime"":1.3040999999047926}]",space,2.4513,,906.1412,Partially,50,906.144,,,[],,0,13,13,13,1,audio/Narrative8Situation4.wav,audio/Narrative7Situation4.wav,audio/Narrative6Situation4.wav,audio/Narrative5Situation4.wav,3,3,2,1,,,,,,,,,,,,,,,,,,,,,,,,,,,,,,,,,,,,,,,
,,,,,,57d0a0bee3221e00015fe385,2024-02-08_13h05.18.271,group3.1-3.2-social-tom,2023.2.2,Win32,59.88023952,65c5074098b851296ff0b7ed,65c54140200212ad4b51ffef,,,,,,,,,,,,,,,,,,,,,,,,,,,,,906.1443,2,audio/Narrative5Situation5.wav,911.1557,,911.1558,926.5804,"[[99.8,3254],[91.3,3334],[79.8,3417],[66.7,3504],[52.1,3588],[36.5,3670],[17.4,3754],[5.3,3834],[0.5,3921],[12.8,13591],[92.7,14258],[94.6,14341],[98.6,14425],[99.2,14509],[98.8,14589],[98,14675],[97.7,14755],[97.7,14838],[97.7,14922],[97.7,15005],[97.7,15092],[97.7,15172],[97.7,15255],[97.7,15339],[97.7,15424]]",1,0,926.5804,928.9961,97.70833651,1.9338,"[{""rating"":97.70833651224773,""responseTime"":1.9337999999522708}]",space,1.8801,,928.9961,Definitely yes,100,928.9989,,,[],,0,14,14,14,1,audio/Narrative8Situation5.wav,audio/Narrative7Situation5.wav,audio/Narrative6Situation5.wav,audio/Narrative5Situation5.wav,2,5,2,5,,,,,,,,,,,,,,,,,,,,,,,,,,,,,,,,,,,,,,,
,,,,,,57d0a0bee3221e00015fe385,2024-02-08_13h05.18.271,group3.1-3.2-social-tom,2023.2.2,Win32,59.88023952,65c5074098b851296ff0b7ed,65c54140200212ad4b51ffef,,,,,,,,,,,,,,,,,,,,,,,,,,,,,928.9991,2,audio/Narrative5Situation6.wav,932.0138,,932.014,937.7196,"[[91.3,3421],[82,3500],[23.3,4171],[22.1,4254],[21.5,4334],[20.9,4421],[20.6,4504],[20.1,4588],[19.1,4670],[17.8,4755],[17.1,4838],[17.1,4918],[17.1,5004],[17.1,5085],[17.1,5168],[17.1,5251],[17.1,5335],[17.1,5418],[17.1,5501],[17.1,5587],[13.5,5671]]",1,0,937.7196,939.6837,1.145835718,1.634,"[{""rating"":1.1458357175191225,""responseTime"":1.6340000000000146}]",space,1.4221,,939.6838,Partially,50,939.6864,,,[],,0,15,15,15,1,audio/Narrative8Situation6.wav,audio/Narrative7Situation6.wav,audio/Narrative6Situation6.wav,audio/Narrative5Situation6.wav,2,3,2,3,,,,,,,,,,,,,,,,,,,,,,,,,,,,,,,,,,,,,,,
,,,,,,57d0a0bee3221e00015fe385,2024-02-08_13h05.18.271,group3.1-3.2-social-tom,2023.2.2,Win32,59.88023952,65c5074098b851296ff0b7ed,65c54140200212ad4b51ffef,,,,,,,,,,,,,,,,,,,,,,,,,,,,,939.6866,2,audio/Narrative5Situation7.wav,943.7016,,943.7016,964.7264,"[[1.6,2087],[2,2170],[2.1,2250],[2.4,2337],[2.4,2421],[2.4,2501],[2.4,2584],[2.4,2667],[2.4,2751],[2.4,2834],[2.4,2917],[2.4,3004],[2.4,3084],[2.4,3167],[2.4,3251],[2.4,3334],[2.4,3418],[2.4,3501],[2.4,3584],[2.4,3667],[2.4,3755],[2.4,3838],[2.4,3921],[2.4,4001],[2.4,4085],[2.4,4168],[2.4,4251],[2.4,4335],[2.4,4418],[2.4,4501],[2.4,4585],[2.4,4668],[2.4,4752],[2.4,4835],[2.4,4921],[2.4,5001],[2.4,5085],[2.4,5168],[2.4,5252],[2.4,5335],[2.4,5422],[2.4,5505],[2.4,5585],[2.4,5672],[2.4,5755],[2.4,5835],[2.4,5922],[2.4,6001],[2.4,6087],[2.4,6172],[2.4,6252],[2.4,6339],[2.4,6419],[2.4,6502],[2.4,6585],[2.4,6669],[2.4,6752],[2.4,6836],[2.4,6919],[2.4,7002],[2.4,7086],[2.4,7169],[2.4,7253],[2.4,7335],[2.4,7419],[2.4,7503],[2.4,7586],[2.4,7669],[2.4,7753],[2.4,7836],[2.4,7923],[2.4,8003],[2.4,8086],[2.4,8173],[2.4,8253],[2.4,8336],[2.4,8420],[2.4,8503],[2.4,8586],[2.4,8670],[2.4,8753],[2.4,8839],[2.4,8920],[2.4,9003],[2.4,9090],[2.4,9169],[2.4,9253],[2.4,9336],[2.4,9420],[2.4,9503],[2.4,9589],[2.4,9673],[2.4,9757],[2.4,9836],[2.4,9920],[2.4,10003],[2.4,10087],[2.4,10170],[2.4,10253],[2.4,10337],[2.4,10420],[2.4,10507],[2.4,10587],[2.4,10670],[2.4,10754],[2.4,10837],[2.4,10920],[2.4,11004],[2.4,11087],[2.4,11174],[2.4,11257],[2.4,11341],[2.4,11421],[2.4,11504],[2.4,11591],[2.4,11671],[2.4,11754],[2.4,11837],[2.4,11921],[2.4,12004],[2.4,12087],[2.4,12174],[2.4,12257],[2.4,12338],[2.4,12421],[2.4,12504],[2.4,12588],[2.4,12671],[2.4,12755],[2.4,12838],[2.4,12923],[2.4,13007],[2.4,13088],[2.4,13171],[2.4,13255],[2.4,13338],[2.4,13421],[2.4,13505],[2.4,13588],[2.4,13671],[2.4,13758],[2.4,13838],[2.4,13922],[2.4,14005],[2.4,14091],[2.4,14171],[2.4,14255],[2.4,14338],[2.4,14422],[2.4,14505],[2.4,14589],[2.4,14672],[2.4,14755],[2.4,14839],[2.4,14922],[2.4,15005],[2.4,15089],[2.4,15172],[2.4,15255],[2.4,15339],[2.4,15422],[2.4,15509],[2.4,15589],[2.4,15672],[2.4,15756],[2.4,15839],[2.4,15925],[2.4,16005],[2.4,16089],[2.4,16173],[2.4,16259],[2.4,16339],[2.4,16423],[2.4,16509],[2.4,16589],[2.4,16673],[2.4,16756],[2.4,16839],[2.4,16923],[2.4,17006],[2.4,17090],[2.4,17176],[2.4,17256],[2.4,17340],[2.4,17423],[2.4,17506],[2.4,17589],[2.4,17673],[2.4,17756],[2.4,17840],[2.4,17926],[2.4,18007],[2.4,18089],[2.4,18173],[2.4,18257],[2.4,18343],[2.4,18423],[2.4,18507],[2.4,18590],[2.4,18673],[2.4,18757],[2.4,18842],[2.4,18923],[2.4,19006],[2.4,19092],[2.4,19173],[2.4,19257],[2.4,19340],[2.4,19424],[2.4,19507],[2.4,19594],[2.4,19677],[2.4,19761],[2.4,19841],[2.4,19927],[2.4,20007],[2.4,20090],[2.4,20174],[2.4,20257],[2.4,20341],[2.4,20424],[2.4,20510],[2.4,20591],[2.4,20674],[2.4,20760],[2.4,20841],[2.4,20924],[2.4,21008]]",1,0,964.7266,966.9775,0.208334128,1.8514,"[{""rating"":0.2083341280619322,""responseTime"":1.851400000095282}]",space,1.7171,,966.9775,Partially,50,966.9793,,,[],,0,16,16,16,1,audio/Narrative8Situation7.wav,audio/Narrative7Situation7.wav,audio/Narrative6Situation7.wav,audio/Narrative5Situation7.wav,3,5,5,4,,,,,,,,,,,,,,,,,,,,,,,,,,,,,,,,,,,,,,,
,,,,,,57d0a0bee3221e00015fe385,2024-02-08_13h05.18.271,group3.1-3.2-social-tom,2023.2.2,Win32,59.88023952,65c5074098b851296ff0b7ed,65c54140200212ad4b51ffef,,,,,,,,,,,,,,,,,,,,,,,,,,,,,966.9795,2,audio/Narrative5Situation8.wav,969.9953,,969.9953,978.8026,"[[2.7,2171],[5.4,2253],[7.1,2337],[7.1,2417],[7.1,2503],[7.1,2583],[7.1,2667],[7.1,2754],[7.1,2834],[7.1,2917],[7.1,3000],[7.1,3084],[7.1,3167],[7.1,3250],[7.1,3334],[7.1,3417],[7.1,3505],[7.1,3585],[7.1,3667],[7.1,3751],[7.1,3836],[7.1,3917],[7.1,4001],[7.1,4084],[7.1,4170],[7.1,4251],[7.1,4334],[7.1,4421],[7.1,4501],[7.1,4588],[7.1,4668],[7.1,4751],[7.1,4835],[7.1,4918],[7.1,5001],[7.1,5088],[7.1,5168],[7.1,5251],[7.1,5335],[7.1,5422],[7.1,5501],[7.1,5589],[7.1,5668],[7.1,5752],[7.1,5835],[7.1,5918],[7.1,6002],[7.1,6085],[7.1,6168],[7.1,6252],[7.1,6338],[7.1,6418],[7.1,6502],[7.1,6585],[7.1,6669],[7,6752],[4.3,6839],[3.4,6922],[2.9,7002],[2.8,7089],[2.8,7172],[2.8,7252],[2.7,7335],[2.7,7419],[2.5,7506],[2.5,7589],[2.5,7672],[2.5,7755],[2.5,7836],[2.5,7919],[2.5,8006],[2.5,8086],[2.5,8169],[2.5,8253],[2.5,8336],[2.5,8419],[2.5,8506],[2.5,8589],[2.5,8669],[2.5,8753]]",1,0,978.8027,980.2319,1.354165872,1.0364,"[{""rating"":1.3541658719380678,""responseTime"":1.0364000000954547}]",space,0.8734,,980.2319,Partially,50,980.2329,,,[],,0,17,17,17,1,audio/Narrative8Situation8.wav,audio/Narrative7Situation8.wav,audio/Narrative6Situation8.wav,audio/Narrative5Situation8.wav,3,2,5,3,,,,,,,,,,,,,,,,,,,,,,,,,,,,,,,,,,,,,,,
,,,,,,57d0a0bee3221e00015fe385,2024-02-08_13h05.18.271,group3.1-3.2-social-tom,2023.2.2,Win32,59.88023952,65c5074098b851296ff0b7ed,65c54140200212ad4b51ffef,,,,,,,,,,,,,,,,,,,,,,,,,,,,,980.2331,2,audio/Narrative5Situation9.wav,983.2336,,983.2336,1022.7653,"[[1.6,6335],[2.1,6422],[2.3,6502],[2.3,6589],[2.3,6671],[2,6755],[1.7,6838],[1.7,6918],[1.7,7002],[1.7,7085],[1.7,7169],[1.7,7255],[1.7,7335],[1.7,7419],[1.7,7502],[1.7,7585],[1.7,7669],[1.7,7752],[1.7,7835],[1.7,7919],[1.7,8006],[1.7,8085],[1.7,8169],[1.7,8256],[1.7,8339],[1.7,8423],[1.7,8503],[1.7,8586],[1.7,8669],[1.7,8753],[1.7,8838],[1.7,8919],[1.7,9003],[1.7,9086],[1.7,9172],[1.7,9253],[1.7,9336],[1.7,9419],[1.7,9503],[1.7,9586],[1.7,9674],[1.7,9756],[1.7,9836],[1.7,9920],[1.7,10006],[1.7,10087],[1.7,10170],[1.7,10253],[1.7,10340],[1.7,10420],[1.7,10507],[1.7,10586],[1.7,10670],[1.7,10753],[1.7,10836],[1.7,10920],[1.7,11003],[1.7,11087],[1.7,11170],[1.7,11254],[1.7,11339],[1.7,11424],[1.7,11504],[1.7,11587],[1.7,11671],[1.7,11754],[1.7,11837],[1.7,11921],[1.7,12004],[1.7,12087],[1.7,12171],[1.7,12253],[1.7,12337],[1.7,12421],[1.7,12507],[1.7,12587],[1.7,12671],[1.7,12754],[1.7,12837],[1.7,12921],[1.7,13007],[1.7,13091],[1.7,13171],[1.7,13258],[1.7,13341],[1.7,13421],[1.7,13508],[1.7,13588],[1.7,13671],[1.7,13755],[1.7,13837],[1.7,13925],[1.7,14004],[1.7,14088],[1.7,14174],[1.7,14255],[1.7,14338],[1.7,14421],[1.7,14505],[1.7,14588],[1.7,14675],[1.7,14755],[1.7,14842],[1.7,14922],[1.7,15008],[1.7,15089],[1.7,15172],[1.7,15255],[1.7,15339],[1.7,15422],[1.7,15505],[1.7,15592],[1.7,15672],[1.7,15755],[1.7,15839],[1.7,15922],[1.7,16005],[1.7,16089],[1.7,16172],[1.7,16255],[1.7,16342],[1.7,16426],[1.7,16505],[1.7,16589],[1.7,16672],[1.7,16756],[1.7,16839],[1.7,16923],[1.7,17006],[1.7,17089],[1.7,17173],[1.7,17256],[1.7,17339],[1.7,17423],[1.7,17509],[1.7,17589],[1.7,17673],[1.7,17756],[1.7,17839],[1.7,17923],[1.7,18006],[1.7,18089],[1.7,18173],[1.7,18256],[1.7,18341],[1.7,18423],[1.7,18506],[1.7,18590],[1.7,18673],[1.7,18760],[1.7,18843],[1.7,18927],[1.7,19010],[1.7,19090],[1.7,19176],[1.7,19257],[1.7,19340],[1.7,19423],[1.7,19507],[1.7,19590],[1.7,19674],[1.7,19760],[1.7,19840],[1.7,19924],[1.7,20007],[1.7,20090],[1.7,20173],[1.7,20257],[1.7,20340],[1.7,20423],[1.7,20507],[1.7,20594],[1.7,20674],[1.7,20757],[1.7,20840],[1.7,20924],[1.7,21011],[1.7,21094],[1.7,21174],[1.7,21257],[1.7,21345],[1.7,21428],[1.7,21508],[1.7,21594],[1.7,21674],[1.7,21758],[1.7,21841],[1.7,21924],[1.7,22008],[1.7,22091],[1.7,22174],[1.7,22261],[1.7,22341],[1.7,22428],[1.7,22508],[1.7,22591],[1.7,22675],[1.7,22760],[1.7,22841],[1.7,22925],[1.7,23008],[1.7,23091],[1.7,23175],[1.7,23258],[1.7,23344],[1.7,23425],[1.7,23512],[1.7,23592],[1.7,23675],[1.7,23759],[1.7,23842],[1.7,23929],[1.7,24008],[1.7,24092],[1.7,24175],[1.7,24259],[1.7,24342],[1.7,24428],[1.7,24509],[1.7,24592],[1.7,24679],[1.7,24762],[1.7,24842],[1.7,24929],[1.7,25009],[1.7,25092],[1.7,25176],[1.7,25259],[1.7,25342],[1.7,25426],[1.7,25509],[1.7,25595],[1.7,25675],[1.7,25759],[1.7,25842],[1.7,25926],[1.7,26009],[1.7,26093],[1.7,26176],[1.7,26259],[1.7,26346],[1.7,26426],[1.7,26510],[1.7,26596],[1.7,26676],[1.7,26760],[1.7,26843],[1.7,26929],[1.7,27009],[1.7,27093],[1.7,27180],[1.7,27263],[1.7,27343],[1.7,27426],[1.7,27510],[1.7,27593],[1.7,27677],[1.7,27760],[1.7,27843],[1.7,27927],[1.7,28010],[1.7,28093],[1.7,28177],[1.7,28260],[1.7,28344],[1.7,28427],[1.7,28510],[1.7,28594],[1.7,28677],[1.7,28764],[1.7,28847],[1.7,28931],[1.7,29010],[1.7,29098],[1.7,29181],[1.7,29261],[1.7,29343],[1.7,29427],[1.7,29510],[1.7,29594],[1.7,29677],[1.7,29761],[1.7,29847],[1.7,29927],[1.7,30011],[1.7,30094],[1.7,30178],[1.7,30261],[1.7,30344],[1.7,30428],[1.7,30514],[1.7,30598],[1.7,30678],[1.7,30761],[1.7,30848],[1.7,30928],[1.7,31011],[1.7,31095],[1.7,31178],[1.7,31261],[1.7,31345],[1.7,31428],[1.7,31511],[1.7,31595],[1.7,31678],[1.7,31761],[6.6,31848],[20.2,31932],[72.7,32348],[73.9,32428],[73.9,32512],[73.9,32595],[73.9,32679],[73.9,32762],[73.9,32845],[80.3,32932],[85.1,33015],[88.7,33098],[92.1,33182],[93.3,33262],[95.1,33345],[96.7,33432],[97.5,33515],[98.1,33595],[98.1,33679],[98.1,33762],[98.1,33846],[98.1,33933],[98.1,34012],[98.1,34099],[98.1,34179],[98.1,34264],[98.1,34346],[98.1,34429],[98.1,34513],[98.1,34596],[98.1,34679],[98.1,34763],[98.1,34849],[98.1,34929],[98.1,35016],[98.1,35099],[98.1,35179],[98.1,35263],[98.1,35349],[98.1,35429],[98.1,35513],[98.1,35599],[98.1,35680],[98.1,35763],[98.1,35846],[98.1,35930],[98.1,36013],[98.1,36097],[98.1,36180],[98.1,36263],[98.1,36347],[98.1,36432],[98.1,36513],[98.1,36599],[98.1,36680],[98.1,36764],[98.1,36850],[98.1,36930],[98.1,37017],[98.1,37096],[98.1,37180],[98.1,37267],[98.1,37347],[98.1,37430],[98.1,37514],[98.1,37597],[98.1,37681],[98.1,37764],[98.1,37847],[98.1,37931],[97.6,38024],[96.4,38100],[95.2,38184],[94.1,38268],[92.5,38350],[91.4,38431],[90.2,38514],[88.4,38600],[85.8,38684],[85.8,38767],[85.8,38847],[85.8,38934],[85.8,39014],[85.8,39098],[85.8,39184],[85.8,39264],[85.8,39348],[85.8,39431],[85.8,39514]]",1,0,1022.7655,1025.733,92.50000318,1.8891,"[{""rating"":92.50000317891438,""responseTime"":1.8890999999046016}]",space,2.4195,,1025.7331,Partially,50,1025.7352,,,[],,0,18,18,18,1,audio/Narrative8Situation9.wav,audio/Narrative7Situation9.wav,audio/Narrative6Situation9.wav,audio/Narrative5Situation9.wav,3,2,4,3,,,,,,,,,,,,,,,,,,,,,,,,,,,,,,,,,,,,,,,
,,,,,,57d0a0bee3221e00015fe385,2024-02-08_13h05.18.271,group3.1-3.2-social-tom,2023.2.2,Win32,59.88023952,65c5074098b851296ff0b7ed,65c54140200212ad4b51ffef,,,,,,,,,,,,,,,,,,,,,,,,,,,,,,,,,,,,,,,,,,,,,,,,,,,,,,,,,,,,,,,,,,,,,,,,1025.7354,1083.9221,space,57.6595,,1083.9228,1103.0968,space,18.8498,,,,,,,,,,,,,,,,,,,,,,,,,,
,,,,,,57d0a0bee3221e00015fe385,2024-02-08_13h05.18.271,group3.1-3.2-social-tom,2023.2.2,Win32,59.88023952,65c5074098b851296ff0b7ed,65c54140200212ad4b51ffef,,,,,,,,,,,,,,,,,,,,,,,,,,,,,1105.6874,1,audio/Narrative7Situation9.wav,1107.6979,,,,,,,1139.663,1141.9612,1.145835718,1.0228,"[{""rating"":1.1458357175191225,""responseTime"":1.0227999999522126}]",space,1.7553,,1139.6614,Partially,50,1139.663,,,[],,,,,,,,,,,2,2,2,2,,,,,,,,,,,,,,,1103.1042,1105.6799,1107.6984,3,1139.6612,"[[86.9,3334],[17.5,3920],[14.7,4004],[12.9,4084],[10.9,4171],[10,4254],[8.1,4337],[5.2,4421],[4.4,4504],[3.8,4584],[3.5,4668],[3.5,4751],[3.5,4834],[3.5,4918],[3.5,5001],[3.5,5085],[3.5,5168],[3.5,5251],[3.5,5334],[3.5,5417],[3.5,5505],[3.5,5588],[3.5,5671],[2.3,5755],[1.7,5838],[1.7,5918],[1.7,6002],[1.7,6085],[1.7,6168],[1.7,6255],[1.7,6335],[1.7,6418],[1.7,6502],[1.7,6585],[1.7,6668],[1.7,6755],[1.7,6835],[1.7,6918],[1.7,7005],[1.7,7085],[1.7,7168],[1.7,7252],[1.7,7335],[1.7,7418],[1.7,7502],[1.7,7585],[1.7,7669],[1.7,7752],[1.7,7839],[1.7,7919],[1.7,8002],[1.7,8086],[1.7,8169],[1.7,8252],[1.7,8336],[1.7,8419],[1.7,8506],[1.7,8589],[1.7,8673],[1.7,8753],[1.7,8839],[1.7,8923],[1.7,9003],[1.7,9090],[1.7,9169],[1.7,9253],[1.7,9339],[1.7,9419],[1.7,9506],[1.7,9590],[1.7,9670],[1.7,9753],[1.7,9840],[1.7,9919],[1.7,10003],[1.7,10089],[1.7,10170],[1.7,10256],[1.7,10337],[1.7,10420],[1.7,10503],[1.7,10590],[1.7,10670],[1.7,10753],[1.7,10837],[1.7,10920],[1.7,11003],[1.7,11087],[1.7,11170],[1.7,11253],[1.7,11337],[1.7,11420],[1.7,11503],[1.7,11591],[1.7,11674],[1.7,11754],[1.7,11837],[1.7,11920],[1.7,12004],[1.7,12087],[1.7,12170],[1.7,12254],[1.7,12337],[1.7,12420],[1.7,12506],[1.7,12590],[1.7,12670],[1.7,12757],[1.7,12837],[1.7,12921],[1.7,13004],[1.7,13087],[1.7,13171],[1.7,13256],[1.7,13338],[1.7,13424],[1.7,13504],[1.7,13588],[1.7,13671],[1.7,13754],[1.7,13841],[1.7,13921],[1.7,14004],[1.7,14090],[1.7,14171],[1.7,14255],[1.7,14338],[1.7,14425],[1.7,14505],[1.7,14588],[1.7,14674],[1.7,14755],[1.7,14838],[1.7,14922],[1.7,15005],[1.7,15088],[1.7,15172],[1.7,15259],[1.7,15338],[1.7,15422],[1.7,15508],[1.7,15592],[1.7,15672],[1.7,15755],[1.7,15838],[1.7,15922],[1.7,16005],[1.7,16093],[1.7,16172],[1.7,16255],[1.7,16342],[1.7,16422],[1.7,16505],[1.7,16592],[1.7,16672],[1.7,16761],[1.7,16842],[1.7,16922],[1.7,17006],[1.7,17092],[1.7,17172],[1.7,17256],[1.7,17339],[1.7,17422],[1.7,17506],[1.7,17589],[1.7,17673],[1.7,17756],[1.7,17839],[1.7,17923],[1.7,18006],[1.7,18089],[1.7,18173],[1.7,18256],[1.7,18340],[1.7,18426],[1.7,18506],[1.7,18592],[1.7,18673],[1.7,18756],[1.7,18840],[1.7,18923],[1.7,19006],[1.7,19092],[1.7,19177],[1.7,19256],[1.7,19340],[1.7,19423],[1.7,19507],[1.7,19590],[1.7,19673],[1.7,19757],[1.7,19840],[1.7,19923],[1.7,20010],[1.7,20096],[1.7,20177],[1.7,20257],[1.7,20340],[1.7,20424],[1.7,20507],[1.7,20590],[1.7,20677],[1.7,20757],[1.7,20840],[1.7,20924],[1.7,21007],[1.7,21091],[1.7,21174],[1.7,21257],[1.7,21340],[1.7,21428],[1.7,21507],[1.7,21590],[1.7,21678],[1.7,21757],[1.7,21841],[1.7,21924],[1.7,22011],[1.7,22091],[1.7,22174],[1.7,22258],[1.7,22344],[1.7,22424],[1.7,22508],[1.7,22591],[1.7,22677],[1.7,22758],[1.7,22841],[1.7,22925],[1.7,23012],[1.7,23091],[1.7,23178],[1.7,23262],[1.7,23341],[1.7,23428],[1.7,23508],[1.7,23592],[1.7,23679],[1.7,23758],[1.7,23845],[1.7,23928],[1.7,24008],[1.7,24095],[1.7,24175],[1.7,24258],[1.7,24342],[1.7,24425],[1.7,24512],[1.7,24592],[1.7,24678],[1.7,24762],[1.7,24841],[1.7,24925],[1.7,25009],[1.7,25092],[1.7,25175],[1.7,25262],[1.7,25346],[1.7,25426],[1.7,25513],[1.7,25596],[1.7,25676],[1.7,25759],[1.7,25842],[1.7,25926],[1.7,26009],[1.7,26092],[1.7,26180],[1.7,26259],[1.7,26342],[1.7,26429],[1.7,26509],[1.7,26593],[1.7,26676],[1.7,26759],[1.7,26843],[1.7,26926],[1.7,27009],[1.7,27093],[1.7,27176],[1.7,27260],[1.7,27343],[1.7,27426],[1.7,27513],[1.7,27593],[1.7,27676],[1.7,27763],[1.7,27843],[1.7,27930],[1.7,28010],[1.7,28093],[1.7,28177],[1.7,28260],[1.7,28343],[1.7,28430],[1.7,28510],[1.7,28593],[1.7,28677],[1.7,28760],[1.7,28844],[1.7,28931],[1.7,29010],[1.7,29097],[1.7,29181],[1.7,29260],[1.7,29343],[1.7,29427],[1.7,29510],[1.7,29594],[1.7,29677],[1.7,29761],[3.5,29847],[5.9,29927],[8.4,30014],[10.6,30097],[11.2,30180],[11.2,30261],[11.2,30344],[11.2,30428],[11.2,30515],[11.2,30594],[11.2,30678],[11.2,30760],[11.2,30844],[11.2,30931],[11.2,31014],[11.2,31094],[7.7,31181],[4.8,31264],[4.1,31348],[4.1,31431],[4,31515],[3.8,31598],[1.8,31681],[1.1,31765],[1.1,31845],[1.1,31932]]",0,0,0,0,1,"Larry had recently lost his family, job and home, and was now living on his own in the park. He had most of his belongings, including some clothes, a blanket, and his mother’s special necklace. His family had been very important to him and he felt as though he did not have much going for him. One of his first days in the park he came across a family that did not have much food and looked very cold. He decided to give them some of his food and his blanket.","Larry had recently lost his family, job and home, and was now living on his own in the park. He had most of his belongings, including some clothes, a blanket, and his mother’s special necklace. His family had been very important to him and he felt as though he did not have much going for him. One of his first days in the park he came across a family that did not have much food and looked very cold. He decided to give them some of his food and his blanket.","Larry had recently lost his family, job and home, and was now living on his own in the park. He had most of his belongings, including some clothes, a blanket, and his mother’s special necklace. His family had been very important to him and he felt as though he did not have much going for him. One of his first days in the park he came across a family that did not have much food and looked very cold. He decided to give them some of his food and his blanket.","Larry had recently lost his family, job and home, and was now living on his own in the park. He had most of his belongings, including some clothes, a blanket, and his mother’s special necklace. His family had been very important to him and he felt as though he did not have much going for him. One of his first days in the park he came across a family that did not have much food and looked very cold. He decided to give them some of his food and his blanket.",,,,,,,,,,
,,,,,,57d0a0bee3221e00015fe385,2024-02-08_13h05.18.271,group3.1-3.2-social-tom,2023.2.2,Win32,59.88023952,65c5074098b851296ff0b7ed,65c54140200212ad4b51ffef,,,,,,,,,,,,,,,,,,,,,,,,,,,,,1141.9617,1,audio/Narrative7Situation9.wav,1144.9981,space,,,,,,1168.883,1174.7925,49.89583492,1.7917,"[{""rating"":49.89583492279053,""responseTime"":1.79170000004774}]",space,5.3541,,1168.875,Not at all,0,1168.883,,,[],,,,,,,,,,,6,2,3,9,3.0169,,,,,,,,,,,,,,,,1144.9983,3,1168.8749,"[[3.9,2167],[4.8,2248],[5,2333],[5,2418],[5,2501],[5,2580],[5,2668],[4.8,2748],[3.4,2835],[2.3,2917],[2.3,2998],[2.3,3081],[2.3,3164],[2.3,3248],[2.3,3333],[2.3,3414],[2.3,3501],[2.3,3581],[2.3,3665],[2.3,3752],[2.3,3832],[2.3,3915],[2.3,4002],[2.3,4081],[2.3,4165],[2.3,4248],[2.3,4332],[2.3,4415],[2.3,4498],[2.3,4582],[2.3,4668],[2.3,4748],[2.3,4832],[2.3,4917],[2.3,4999],[2.3,5082],[2.3,5165],[2.3,5249],[2.3,5332],[2.3,5419],[2.3,5503],[2.3,5585],[2.3,5665],[2.3,5752],[2.3,5832],[2.3,5915],[2.3,5999],[2.3,6082],[2.3,6166],[2.3,6249],[2.3,6336],[2.3,6416],[2.3,6499],[2.3,6586],[2.3,6666],[2.3,6749],[2.3,6836],[2.3,6916],[2.3,6999],[2.3,7086],[2.3,7166],[2.3,7253],[2.3,7333],[2.3,7416],[2.3,7500],[2.3,7583],[2.3,7670],[2.3,7750],[2.3,7837],[2.3,7920],[2.3,8000],[2.3,8087],[2.3,8167],[2.3,8250],[2.3,8333],[2.3,8416],[2.3,8504],[2.3,8583],[2.3,8667],[2.3,8750],[2.3,8833],[2.3,8916],[2.3,9002],[2.3,9083],[2.3,9167],[2.3,9250],[2.3,9337],[2.3,9417],[2.3,9500],[2.3,9587],[2.3,9667],[2.3,9750],[2.3,9834],[2.3,9917],[2.3,10001],[2.3,10087],[2.3,10167],[2.3,10250],[2.3,10334],[2.3,10418],[2.3,10500],[2.3,10584],[2.3,10671],[2.3,10750],[2.3,10834],[2.3,10921],[2.3,11001],[2.3,11084],[2.3,11168],[2.3,11254],[2.3,11334],[2.3,11418],[2.3,11501],[2.3,11587],[2.3,11667],[2.3,11751],[2.3,11835],[2.3,11918],[2.3,12001],[2.3,12085],[2.3,12168],[2.3,12251],[2.3,12339],[2.3,12418],[2.3,12505],[2.3,12585],[2.3,12672],[9,12752],[13,12835],[17.5,12921],[22.7,13005],[30.3,13089],[36,13172],[38.6,13255],[41.7,13335],[42.9,13422],[43.5,13505],[43.8,13585],[44.8,13672],[45.6,13756],[46,13838],[46,13922],[46,14002],[46,14086],[46,14169],[46,14252],[46,14336],[46,14419],[46,14506],[46,14585],[46,14669],[46,14752],[46,14836],[46,14919],[46,15005],[46,15086],[46,15169],[46,15253],[46,15340],[46,15419],[46,15503],[46,15589],[46,15669],[46,15753],[46,15836],[40,15922],[29.2,16003],[19.1,16089],[12.3,16173],[9,16256],[6,16339],[1.8,16419],[48.4,19423],[49,19507],[49.4,19591],[49.9,19674],[49.9,19754],[49.9,19838],[49.9,19921],[49.9,20004],[49.9,20088],[49.9,20171],[49.9,20255],[49.9,20338],[49.9,20421],[49.9,20505],[49.9,20591],[49.9,20671],[49.9,20758],[49.9,20841],[49.9,20922],[49.9,21005],[49.9,21088],[49.9,21172],[49.9,21255],[49.9,21338],[49.9,21422],[49.9,21505],[49.9,21588],[49.9,21672],[49.9,21755],[49.9,21838],[49.9,21922],[49.9,22005],[49.9,22088],[49.9,22172],[49.9,22255],[49.9,22339],[49.9,22425],[49.9,22505],[49.9,22589],[49.9,22674],[49.9,22755],[49.9,22839],[49.9,22922],[49.9,23005],[49.9,23092],[49.9,23172],[49.9,23259],[49.9,23339],[49.9,23422],[49.9,23506],[49.9,23589],[49.9,23675],[49.9,23756],[49.9,23838]]",0,1,1,1,1,"It was just another Sunday afternoon for Lucy, she was on her way to the farmer's market to pick up some produce. When she arrived at the old train depot that housed the market, she noticed two men fighting on the steps. Before she could call for help, one of the men crumpled to his knees. The other man dropped an object that appeared to be a knife and ran off. When Lucy approached the crime scene she realized that the man who had been murdered was the Mayor and that he had a gunshot wound.","One day at work, Margaret walked up to her partner, Al, to ask him to talk to the chief of staff at the local hospital where she worked as a nurse.","Luke always thought of himself as an honest man. That's why during his evening jog around the swamp, he pondered his recent affair with the receptionist at work. Luke looked up at the sky and asked God why he was so weak and unfaithful. He thought of the impact this would have on his family and told God of his conflicted feelings toward telling his wife Marta.","Linda and Amy had been best friends since kindergarten, they even found homes on the same street in the forest on the edge of town. Their biggest fight had been over who gets the bigger slice of cake, until Amy married Dan. Linda loathed Dan, she thought he was manipulative and had a violent temper. She only put up with him because Amy loved him. ",,,,,,,,,,
