exp_question,consent.started,consent.stopped,consentResponse.keys,consentResponse.rt,consentResponse.duration,participantID,date,expName,psychopyVersion,OS,frameRate,STUDY_ID,SESSION_ID,opening1.started,opening1.stopped,keyEndingOpening1.keys,keyEndingOpening1.rt,keyEndingOpening1.duration,volumeAdjust.started,volumeAdjust.stopped,endingAdjust.keys,endingAdjust.rt,endingAdjust.duration,opening2.started,opening2.stopped,keyEndingOpening.keys,keyEndingOpening.rt,keyEndingOpening.duration,mouse.x,mouse.y,mouse.leftButton,mouse.midButton,mouse.rightButton,mouse.time,instructionLoop.thisRepN,instructionLoop.thisTrialN,instructionLoop.thisN,instructionLoop.thisIndex,instructionLoop.ran,readyForAudio.started,readyForAudio.stopped,fixation.started,run,audio_played,fixation.stopped,endPractice.keys,audioPre.started,audioPre.stopped,continuousResponses_audio,continuousSlider.response,continuousSlider.rt,intRating.started,intRating.stopped,intQuestionSlider.response,intQuestionSlider.rt,intQuestionSlider.history,confirmResponse.keys,confirmResponse.rt,confirmResponse.duration,catchQuestion.started,catch_label,catch_value,catchQuestion.stopped,catchQuestionSlider.response,catchQuestionSlider.rt,catchQuestionSlider.history,confirmResponse_2.keys,audioRunLoop.thisRepN,audioRunLoop.thisTrialN,audioRunLoop.thisN,audioRunLoop.thisIndex,audioRunLoop.ran,conditions1_1,conditions2_1,conditions1_2,conditions2_2,dur1_1,dur2_1,dur1_2,dur2_2,endPractice.rt,endPractice.duration,confirmResponse_2.rt,confirmResponse_2.duration,runIntervalBreak.started,runIntervalBreak.stopped,endingBreakKey.keys,endingBreakKey.rt,endingBreakKey.duration,connection.started,connection.stopped,connectionEnding.keys,connectionEnding.rt,connectionEnding.duration,readyForText.started,readyForText.stopped,textPre.started,run_dup,textPre.stopped,continuousResponses_text,textRunLoop.thisRepN,textRunLoop.thisTrialN,textRunLoop.thisN,textRunLoop.thisIndex,textRunLoop.ran,text1_1,text1_2,text2_1,text2_2,runBreakText.started,runBreakText.stopped,endingBreakKey_2.keys,endingBreakKey_2.rt,endingBreakKey_2.duration,ending.started,ending.stopped,endingEnding.keys,endingEnding.rt,endingEnding.duration
social,0.0001,5.0455,y,4.7379,,580670eceee5dc00017584c6,2024-05-13_10h44.11.066,group3.1-3.2-social-tom,2023.2.2,Win32,100,65c5074098b851296ff0b7ed,664234352b230208b3c86edb,,,,,,,,,,,,,,,,,,,,,,,,,,,,,,,,,,,,,,,,,,,,,,,,,,,,,,,,,,,,,,,,,,,,,,,,,,,,,,,,,,,,,,,,,,,,,,,,,,,,,,,,,,
,,,,,,580670eceee5dc00017584c6,2024-05-13_10h44.11.066,group3.1-3.2-social-tom,2023.2.2,Win32,100,65c5074098b851296ff0b7ed,664234352b230208b3c86edb,5.0456,10.1581,space,5.0882,,,,,,,,,,,,,,,,,,,,,,,,,,,,,,,,,,,,,,,,,,,,,,,,,,,,,,,,,,,,,,,,,,,,,,,,,,,,,,,,,,,,,,,,,,,,,,,,,,,,,,
,,,,,,580670eceee5dc00017584c6,2024-05-13_10h44.11.066,group3.1-3.2-social-tom,2023.2.2,Win32,100,65c5074098b851296ff0b7ed,664234352b230208b3c86edb,,,,,,10.1581,50.9746,space,40.5092,,,,,,,,,,,,,,,,,,,,,,,,,,,,,,,,,,,,,,,,,,,,,,,,,,,,,,,,,,,,,,,,,,,,,,,,,,,,,,,,,,,,,,,,,,,,,,,,,
,,,,,,580670eceee5dc00017584c6,2024-05-13_10h44.11.066,group3.1-3.2-social-tom,2023.2.2,Win32,100,65c5074098b851296ff0b7ed,664234352b230208b3c86edb,,,,,,,,,,,50.9766,55.5106,space,4.5188,,[],[],[],[],[],[],0,0,0,0,1,,,,,,,,,,,,,,,,,,,,,,,,,,,,,,,,,,,,,,,,,,,,,,,,,,,,,,,,,,,,,,,,,,,,,,,,,,,,,,,,
,,,,,,580670eceee5dc00017584c6,2024-05-13_10h44.11.066,group3.1-3.2-social-tom,2023.2.2,Win32,100,65c5074098b851296ff0b7ed,664234352b230208b3c86edb,,,,,,,,,,,55.515,68.111,space,12.548,,[],[],[],[],[],[],1,0,1,0,1,,,,,,,,,,,,,,,,,,,,,,,,,,,,,,,,,,,,,,,,,,,,,,,,,,,,,,,,,,,,,,,,,,,,,,,,,,,,,,,,
,,,,,,580670eceee5dc00017584c6,2024-05-13_10h44.11.066,group3.1-3.2-social-tom,2023.2.2,Win32,100,65c5074098b851296ff0b7ed,664234352b230208b3c86edb,,,,,,,,,,,68.1156,89.599,space,21.4641,,[-0.23081395348837208],[-0.7652777777777777],[1],[0],[0],[4.866599999964222],2,0,2,0,1,,,,,,,,,,,,,,,,,,,,,,,,,,,,,,,,,,,,,,,,,,,,,,,,,,,,,,,,,,,,,,,,,,,,,,,,,,,,,,,,
,,,,,,580670eceee5dc00017584c6,2024-05-13_10h44.11.066,group3.1-3.2-social-tom,2023.2.2,Win32,100,65c5074098b851296ff0b7ed,664234352b230208b3c86edb,,,,,,,,,,,89.6037,105.3388,space,15.7183,,[],[],[],[],[],[],3,0,3,0,1,,,,,,,,,,,,,,,,,,,,,,,,,,,,,,,,,,,,,,,,,,,,,,,,,,,,,,,,,,,,,,,,,,,,,,,,,,,,,,,,
,,,,,,580670eceee5dc00017584c6,2024-05-13_10h44.11.066,group3.1-3.2-social-tom,2023.2.2,Win32,100,65c5074098b851296ff0b7ed,664234352b230208b3c86edb,,,,,,,,,,,105.3433,113.9704,space,8.6129,,[],[],[],[],[],[],4,0,4,0,1,,,,,,,,,,,,,,,,,,,,,,,,,,,,,,,,,,,,,,,,,,,,,,,,,,,,,,,,,,,,,,,,,,,,,,,,,,,,,,,,
,,,,,,580670eceee5dc00017584c6,2024-05-13_10h44.11.066,group3.1-3.2-social-tom,2023.2.2,Win32,100,65c5074098b851296ff0b7ed,664234352b230208b3c86edb,,,,,,,,,,,,,,,,,,,,,,,,,,,113.9758,116.5545,116.5651,1,audio/Narrative13Situation2.wav,118.5669,,118.5671,148.3078,"[[999,0],[999,89],[999,169],[999,249],[999,329],[999,409],[999,490],[999,570],[999,650],[999,730],[999,810],[999,890],[47.7,970],[47.7,1051],[48.4,1131],[48.5,1210],[48.6,1291],[48.6,1371],[48.6,1451],[48.7,1531],[49,1611],[49.6,1691],[49.9,1772],[49.9,1851],[49.9,1932],[49.9,2012],[49.9,2092],[49.9,2172],[49.9,2252],[49.9,2332],[49.9,2412],[49.9,2497],[49.9,2572],[49.9,2653],[49.9,2734],[49.9,2815],[49.9,2896],[49.9,2973],[49.9,3053],[49.9,3133],[49.9,3213],[49.9,3293],[49.9,3373],[49.9,3458],[49.9,3536],[39.8,3616],[13.4,3697],[3.1,3776],[50.3,8745],[54.8,8823],[62.1,8905],[69.7,8988],[76.3,9065],[78.7,9144],[81.8,9226],[88.5,9305],[88.9,9382],[88.9,9462],[88.9,9547],[88.9,9624],[98.4,9705],[100,9786],[100,9862],[100,9943],[100,10023],[100,10103],[100,10185],[100,10263],[100,10347],[100,10425],[100,10506],[100,10583],[100,10663],[100,10744],[100,10824],[100,10906],[100,10984],[100,11068],[100,11148],[100,11224],[100,11304],[100,11388],[100,11465],[100,11545],[100,11625],[100,11705],[100,11785],[100,11865],[100,11946],[100,12027],[100,12106],[100,12188],[100,12266],[100,12346],[100,12426],[100,12508],[100,12586],[100,12666],[100,12746],[100,12827],[100,12907],[100,12987],[100,13067],[100,13147],[100,13227],[100,13307],[100,13387],[100,13469],[100,13548],[100,13628],[100,13710],[100,13790],[100,13868],[100,13952],[100,14028],[100,14113],[100,14192],[100,14269],[100,14349],[100,14429],[100,14511],[100,14591],[100,14669],[100,14751],[100,14831],[100,14913],[100,14990],[100,15072],[100,15153],[100,15230],[100,15315],[100,15393],[7.5,16193],[6.2,16274],[4.5,16355],[4.3,16435],[4.1,16514],[4.1,16592],[1.9,16675]]",1,0,148.3078,162.0165,41.91860465,13.3434,"[{""rating"":38.604651162790695,""responseTime"":6.828800000011938},{""rating"":46.1046511627907,""responseTime"":9.337699999988104},{""rating"":41.918604651162795,""responseTime"":13.343399999976157}]",space,13.1909,,162.0167,Definitely yes,100,162.0188,,,[],,0,0,0,0,1,audio/Narrative13Situation2.wav,audio/Narrative13Situation2.wav,audio/Narrative13Situation2.wav,audio/Narrative13Situation2.wav,2,2,2,2,,,,,,,,,,,,,,,,,,,,,,,,,,,,,,,,,,,,,,,
,,,,,,580670eceee5dc00017584c6,2024-05-13_10h44.11.066,group3.1-3.2-social-tom,2023.2.2,Win32,100,65c5074098b851296ff0b7ed,664234352b230208b3c86edb,,,,,,,,,,,,,,,,,,,,,,,,,,,,,162.019,1,audio/Narrative7Situation1.wav,165.1606,space,165.1606,221.0274,"[[999,4],[999,79],[999,159],[999,240],[999,320],[999,400],[999,481],[999,560],[999,640],[999,721],[999,801],[999,881],[999,961],[999,1041],[999,1121],[999,1201],[999,1281],[999,1361],[999,1441],[999,1521],[999,1602],[999,1682],[999,1762],[999,1842],[999,1922],[12.6,2003],[12.7,2082],[11.3,2162],[9.8,2243],[8.7,2323],[6.9,2402],[6.9,2483],[6.9,2563],[7.2,2643],[8,2723],[8.7,2803],[10.6,2883],[11.6,2963],[11.6,3044],[11.6,3125],[10.4,3204],[5.3,3284],[1.8,3364],[1.7,3444],[1.7,3525],[1.7,3604],[1.7,3685],[1.7,3764],[1.7,3845],[1.7,3925],[0.9,4005],[0.3,4085],[0.1,4166],[0.1,4245],[0.1,4326],[0.1,4406],[0.1,4486],[0.1,4566],[0.1,4646],[0.1,4726],[0.1,4806],[0.1,4886],[0.1,4966],[0.1,5046],[0.1,5126],[0.1,5206],[0.1,5287],[0.1,5367],[0.1,5447],[0.1,5527],[0.1,5607],[0.1,5687],[0.1,5767],[0.1,5847],[0.1,5928],[0.1,6008],[0.1,6088],[0.1,6168],[0.1,6248],[0.1,6328],[0.1,6408],[0.1,6488],[0.1,6569],[0.1,6649],[0.1,6729],[0.1,6809],[0.1,6889],[0.1,6969],[0.1,7050],[0.2,7129],[0.8,7209],[1.2,7289],[1.6,7369],[1.6,7449],[1.6,7529],[1.6,7610],[1.6,7690],[1.5,7770],[1.2,7850],[0.9,7930],[0.9,8010],[0.9,8091],[0.9,8171],[0.9,8251],[0.9,8331],[0.9,8411],[1.1,8491],[2.4,8571],[6.8,8651],[10.6,8731],[12.3,8811],[13.1,8892],[13.8,8972],[15.4,9052],[15.4,9132],[15.4,9212],[15.4,9292],[15.4,9372],[15.4,9452],[15.4,9532],[15.9,9613],[15.9,9693],[15.9,9773],[15.9,9853],[15.9,9933],[15.9,10013],[15.9,10093],[15.9,10173],[15.9,10253],[15.9,10334],[15.9,10414],[15.9,10494],[15.9,10574],[15.9,10654],[15.9,10734],[15.9,10814],[15.9,10895],[15.9,10974],[15.9,11055],[15.9,11135],[15.9,11215],[15.9,11295],[15.9,11376],[15.9,11455],[15.9,11536],[15.9,11616],[15.9,11695],[15.9,11776],[15.9,11856],[15.9,11936],[15.9,12016],[15.9,12096],[15.3,12176],[15.3,12256],[15.3,12336],[15.3,12417],[15.3,12496],[15.3,12577],[15.3,12657],[15.3,12737],[15.3,12817],[15.3,12898],[15.3,12977],[15.3,13057],[15.3,13137],[15.3,13217],[15.3,13298],[15.3,13378],[15.3,13458],[15.3,13538],[15.3,13619],[15.3,13698],[15.3,13778],[15.3,13858],[15.3,13938],[15.3,14019],[15.3,14099],[15.3,14179],[15.3,14259],[15.2,14339],[13.5,14419],[12,14499],[12,14579],[12,14659],[11.7,14740],[10.6,14820],[9.9,14900],[8,14980],[7.3,15060],[4.6,15140],[2.4,15220],[1.7,15300],[1.7,15381],[1.7,15460],[1.7,15541],[1.5,15621],[1.3,15701],[1.2,15781],[1.2,15861],[1.2,15941],[1.2,16021],[1.2,16101],[1.2,16181],[0.8,16262],[0.7,16342],[0.7,16422],[0.7,16502],[0.7,16582],[0.7,16663],[0.7,16743],[0.7,16823],[0.7,16903],[0.7,16983],[0.7,17063],[0.1,17143],[0.8,19706],[5.2,19786],[9.6,19867],[14.2,19947],[19.8,20027],[25.8,20107],[27.9,20187],[27.9,20267],[27.9,20347],[28.3,20428],[28.5,20507],[29.3,20588],[29.3,20668],[29.3,20748],[29.3,20828],[29.3,20908],[29.3,20988],[29.3,21068],[29.3,21149],[29.3,21229],[29.3,21308],[29.3,21389],[29.3,21469],[29.3,21549],[29.3,21629],[29.3,21709],[29.3,21789],[29.3,21870],[29.3,21949],[29.3,22029],[29.3,22110],[29.3,22190],[29.3,22270],[29.3,22350],[29.3,22431],[29.3,22510],[29.3,22590],[29.3,22670],[29.3,22751],[29.3,22831],[29.3,22911],[29.3,22991],[29.3,23071],[29.3,23151],[29.3,23231],[29.3,23311],[29.3,23391],[29.3,23472],[28.8,23552],[27.6,23632],[25.9,23712],[23.3,23792],[20.9,23872],[19.1,23952],[17.4,24033],[15.9,24113],[14.1,24192],[12.6,24273],[12,24353],[11.3,24433],[10.9,24513],[9.8,24593],[8.9,24673],[8.9,24753],[8.9,24833],[8.9,24914],[8.9,24994],[8.9,25074],[8.9,25154],[8.9,25234],[8.9,25314],[8.9,25394],[8.9,25474],[8.9,25554],[8.9,25635],[8.9,25715],[8.9,25795],[8.9,25875],[8.9,25955],[8.9,26036],[8.9,26115],[8.9,26195],[8.9,26275],[8.9,26356],[8.9,26435],[8.9,26516],[8.9,26597],[8.9,26676],[8.9,26756],[8.9,26836],[8.9,26916],[8.9,26996],[8.9,27077],[8.9,27157],[8.9,27237],[8.9,27317],[8.9,27397],[8.9,27477],[8.9,27558],[8.9,27637],[8.9,27717],[8.9,27798],[8.9,27878],[8.9,27958],[8.9,28038],[8.9,28118],[8.9,28198],[8.9,28278],[8.9,28358],[8.9,28438],[8.9,28518],[8.9,28599],[8.9,28679],[8.9,28759],[8.9,28839],[8.9,28919],[8.9,29000],[8.9,29080],[8.9,29159],[8.9,29240],[8.9,29320],[8.9,29400],[8.9,29480],[8.9,29560],[8.9,29640],[8.9,29720],[8.9,29800],[8.9,29881],[8.9,29960],[8.9,30040],[8.9,30121],[8.9,30201],[8.9,30281],[8.9,30361],[8.7,30441],[8,30521],[7.4,30601],[7,30681],[6.7,30762],[6.4,30842],[5.3,30922],[3.8,31002],[3.8,31082],[3.8,31163],[3.4,31242],[1.9,31322],[1.3,31402],[1.2,31483],[0.9,31563],[0.9,31643],[0.9,31723],[0.6,31803],[0.5,31883],[0.2,40375],[1.7,40455],[3.1,40535],[5.9,40615],[9.5,40695],[11.9,40775],[12.4,40855],[13.3,40935],[14.3,41015],[14.4,41096],[14.4,41176],[14.4,41257],[14.4,41336],[14.4,41416],[14.4,41497],[14.4,41577],[14.4,41656],[14.4,41737],[14.4,41817],[14.4,41898],[14.4,41978],[14.4,42057],[14.4,42137],[14.4,42218],[14.4,42297],[14.4,42377],[14.4,42458],[14.4,42538],[14.4,42618],[14.4,42698],[14.4,42778],[14.4,42858],[14.4,42938],[14.4,43018],[14.4,43098],[14.4,43178],[14.4,43259],[14.4,43339],[14.4,43420],[14.4,43499],[14.4,43579],[14.4,43659],[14.4,43739],[14.4,43820],[14.4,43900],[14.4,43980],[14.4,44060],[14.4,44141],[14.4,44221],[14.4,44300],[14.4,44380],[14.4,44460],[14.4,44541],[14.4,44621],[14.4,44702],[14.4,44781],[14.4,44861],[14.4,44941],[14.4,45021],[14.4,45101],[14.4,45181],[14.4,45261],[14.4,45342],[14.4,45422],[14.4,45502],[14.4,45582],[14.4,45663],[14.4,45743],[14.4,45822],[14.4,45902],[14.4,45983],[14.4,46062],[14.4,46143],[14.4,46223],[14.4,46303],[14.4,46383],[14.4,46463],[14.4,46543],[14.4,46623],[14.4,46704],[14.4,46783],[14.4,46864],[14.4,46944],[14.4,47024],[14.4,47104],[14.4,47184],[14.4,47265],[14.4,47345],[14.4,47424],[14.4,47505],[14.4,47585],[14.4,47665],[14.4,47745],[14.4,47825],[14.4,47905],[14.4,47985],[14.4,48066],[14.4,48145],[14.4,48226],[14.4,48306],[14.4,48386],[14.4,48466],[14.4,48546],[14.4,48626],[14.4,48707],[14.4,48786],[14.4,48866],[14.4,48947],[14.4,49027],[14.4,49107],[14.4,49187],[14.4,49267],[14.4,49348],[14.4,49427],[14.4,49507],[14.4,49588],[14.4,49668],[14.4,49748],[14.4,49828],[14.4,49908],[14.4,49988],[14.4,50068],[14.4,50148],[14.4,50228],[14.4,50308],[14.4,50389],[14.4,50469],[14.4,50550],[14.4,50630],[14.4,50709],[14.4,50790],[14.4,50870],[14.4,50949],[14.4,51029],[14.4,51109],[14.4,51189],[14.4,51270],[14.4,51351],[14.4,51430],[14.4,51510],[14.4,51590],[14.4,51670],[14.4,51750],[14.4,51830],[14.4,51911],[14.4,51991],[14.4,52071],[14.4,52151],[14.4,52231],[14.4,52311],[14.4,52391],[14.4,52471],[14.4,52551],[14.4,52632],[14.4,52712],[14.4,52792],[14.4,52872],[14.4,52952],[14.4,53033],[14.4,53113],[14.4,53192],[14.4,53272],[14.4,53354],[14.4,53433],[14.4,53513],[14.4,53593],[14.4,53673],[14.4,53753],[14.4,53833],[14.4,53913],[14.4,53994],[14.4,54073],[14.4,54154],[14.4,54234],[14.4,54314],[14.4,54394],[14.2,54474],[13.1,54554],[12.1,54634],[11.9,54714],[11.8,54795],[11.7,54875],[11.7,54955],[11.7,55035],[11.7,55116],[11.7,55195],[11.7,55275],[11.7,55355],[11.7,55435],[11.7,55515],[11.7,55597],[11.7,55676],[11.7,55756],[11.7,55836]]",1,0,221.0276,229.2884,5,2.7611,"[{""rating"":4.999999999999999,""responseTime"":2.7611000000238164}]",space,7.7433,,229.2885,Partially,50,229.2901,,,[],,0,1,1,1,1,audio/Narrative7Situation1.wav,audio/Narrative8Situation1.wav,audio/Narrative5Situation1.wav,audio/Narrative6Situation1.wav,2,5,5,2,3.1289,,,,,,,,,,,,,,,,,,,,,,,,,,,,,,,,,,,,,,
,,,,,,580670eceee5dc00017584c6,2024-05-13_10h44.11.066,group3.1-3.2-social-tom,2023.2.2,Win32,100,65c5074098b851296ff0b7ed,664234352b230208b3c86edb,,,,,,,,,,,,,,,,,,,,,,,,,,,,,229.2902,1,audio/Narrative7Situation2.wav,232.2926,,232.2926,239.753,"[[5.5,2723],[5.5,2803],[5.5,2884],[5.5,2963],[5.9,3043],[5.9,3124],[5.9,3204],[5.9,3284],[5.8,3364],[5.4,3444],[5.4,3525],[5.4,3604],[5.4,3685],[5.4,3764],[5.4,3844],[5.8,3925],[6,4005],[6,4085],[6,4165],[6,4245],[6,4325],[6,4406],[6,4486],[6,4565],[6.1,4646],[6.1,4726],[6.1,4806],[6.1,4886],[6.1,4966],[6.1,5046],[6.1,5127],[6.1,5206],[6.1,5287],[6.1,5367],[6.1,5448],[6.1,5527],[6.1,5607],[6.1,5687],[6.1,5768],[6.1,5848],[6.1,5928],[6.1,6008],[6.1,6088],[6.1,6168],[6.1,6248],[6.1,6328],[6.1,6408],[6.1,6488],[6.1,6568],[6.1,6649],[6.1,6729],[6.1,6809],[6.1,6889],[6.1,6969],[6.1,7049],[6.1,7129],[6.1,7209],[6.1,7289],[6.1,7370],[6.1,7450]]",1,0,239.7531,243.9885,12.73255814,4.0206,"[{""rating"":12.732558139534882,""responseTime"":4.020600000023876}]",space,3.7212,,243.9886,Definitely yes,100,243.9898,,,[],,0,2,2,2,1,audio/Narrative7Situation2.wav,audio/Narrative8Situation2.wav,audio/Narrative5Situation2.wav,audio/Narrative6Situation2.wav,3,3,3,3,,,,,,,,,,,,,,,,,,,,,,,,,,,,,,,,,,,,,,,
,,,,,,580670eceee5dc00017584c6,2024-05-13_10h44.11.066,group3.1-3.2-social-tom,2023.2.2,Win32,100,65c5074098b851296ff0b7ed,664234352b230208b3c86edb,,,,,,,,,,,,,,,,,,,,,,,,,,,,,243.99,1,audio/Narrative7Situation3.wav,251.9995,,251.9995,261.2322,"[[999,4],[999,80],[999,160],[999,240],[999,320],[999,400],[999,480],[999,560],[999,641],[999,721],[999,801],[999,881],[999,961],[999,1041],[999,1121],[999,1201],[999,1281],[999,1361],[999,1441],[999,1522],[999,1602],[999,1682],[999,1762],[999,1842],[10.3,1922],[9.1,2002],[8.4,2082],[8.3,2163],[8.3,2243],[8.3,2323],[8.3,2403],[8.3,2483],[8.3,2564],[8.3,2643],[8.3,2723],[8.3,2804],[8.3,2884],[8.4,2964],[8.8,3044],[9,3124],[9.1,3204],[9.2,3284],[9.3,3365],[9.3,3444],[9.3,3524],[9.3,3605],[9.3,3685],[9.5,3765],[9.6,3845],[9.7,3925],[9.7,4005],[9.7,4085],[9.8,4165],[9.8,4245],[9.8,4326],[9.9,4406],[9.9,4486],[9.9,4566],[9.9,4646],[9.9,4726],[9.9,4806],[9.9,4886],[9.9,4966],[9.9,5047],[9.9,5127],[9.9,5207],[9.9,5288],[9.9,5367],[9.9,5447],[9.8,5527],[9.5,5607],[9.1,5687],[8.4,5767],[7.9,5848],[7.5,5928],[7.2,6008],[6.7,6088],[6.5,6168],[6.2,6248],[5.5,6328],[5.2,6408],[5.2,6489],[5.2,6569],[5.2,6649],[5.2,6730],[5.2,6809],[5.2,6889],[5.2,6969],[5.2,7049],[5.2,7129],[5.2,7210],[5.2,7290],[5.2,7370],[5.2,7450],[5.2,7530],[5.2,7610],[5.2,7690],[5.2,7771],[5.2,7850],[5.2,7930],[5.2,8012],[5.2,8091],[5.2,8171],[5.2,8251],[5.2,8331],[5.2,8411],[5.2,8491],[5.2,8571],[5.2,8651],[5.2,8732],[5.2,8812],[5.2,8892],[5.2,8972],[5.2,9052],[5.2,9132],[5.2,9212]]",1,0,261.2323,264.6071,2.38372093,2.6392,"[{""rating"":2.383720930232558,""responseTime"":2.6391999999880795}]",space,2.8569,,264.6071,Not at all,0,264.6086,,,[],,0,3,3,3,1,audio/Narrative7Situation3.wav,audio/Narrative8Situation3.wav,audio/Narrative5Situation3.wav,audio/Narrative6Situation3.wav,8,4,3,5,,,,,,,,,,,,,,,,,,,,,,,,,,,,,,,,,,,,,,,
,,,,,,580670eceee5dc00017584c6,2024-05-13_10h44.11.066,group3.1-3.2-social-tom,2023.2.2,Win32,100,65c5074098b851296ff0b7ed,664234352b230208b3c86edb,,,,,,,,,,,,,,,,,,,,,,,,,,,,,264.6087,1,audio/Narrative7Situation4.wav,267.6172,,267.6173,279.337,"[[999,0],[999,73],[999,155],[999,238],[999,315],[999,394],[999,474],[999,554],[999,634],[999,714],[999,794],[999,874],[999,954],[999,1034],[999,1117],[999,1195],[999,1275],[999,1357],[999,1435],[999,1519],[999,1597],[999,1677],[999,1756],[999,1837],[999,1918],[999,1999],[999,2078],[999,2158],[999,2240],[999,2316],[999,2399],[999,2480],[999,2559],[3,2639],[2.4,2721],[2.3,2799],[2.3,2877],[2.3,2961],[2.3,3037],[2.3,3120],[2.3,3198],[1.6,3281],[0.3,3360],[0.3,3438],[0.3,3518],[0.3,3598],[0.3,3683],[0.3,3764],[0.3,3840],[0.3,3918],[0.3,4001],[0.3,4079],[0.3,4161],[0.3,4240],[0.3,4319],[0.3,4403],[0.3,4490],[0.3,4569],[0.3,4652],[0.3,4729],[0.3,4812],[0.3,4891],[0.3,4977],[0.3,5052],[0.3,5130],[0.3,5210],[0.3,5290],[0.3,5370],[0.3,5451],[0.3,5531],[0.3,5611],[0.3,5695],[0.3,5771],[0.3,5851],[0.3,5931],[0.3,6011],[0.3,6091],[0.3,6172],[0.3,6252],[1.2,6335],[12.2,6415],[23,6494],[29.9,6574],[36.2,6656],[41.2,6736],[45.5,6814],[47.4,6898],[48.7,6976],[48.9,7053],[48.9,7135],[48.9,7213],[48.9,7295],[48.9,7373],[48.9,7453],[48.9,7533],[49,7620],[49.4,7693],[49.7,7774],[49.7,7856],[49.8,7934],[49.8,8014],[49.8,8094],[49.8,8174],[49.8,8254],[49.8,8337],[49.8,8415],[49.8,8495],[49.8,8577],[49.8,8655],[49.8,8737],[49.8,8815],[49.8,8895],[49.5,8978],[49.5,9057],[49.5,9136],[49.5,9218],[49.5,9298],[49.8,9380],[50.1,9456],[50.1,9536],[50.1,9616],[50.1,9700],[50.1,9778],[50.1,9857],[50.1,9937],[50.1,10017],[50.1,10097],[50.1,10180],[50.1,10259],[50.1,10337],[50.1,10421],[50.1,10498],[50.1,10580],[50.1,10662],[50.1,10738],[50.1,10818],[50.1,10906],[50.1,10980],[50.1,11058],[50.1,11138],[50.1,11220],[50.2,11299],[50.2,11379],[50.2,11459],[50.2,11541],[50.3,11619],[50.3,11699]]",1,0,279.3371,282.123,50.05813953,2.4052,"[{""rating"":49.53488372093023,""responseTime"":1.6848000000119328},{""rating"":50.058139534883715,""responseTime"":2.405199999988099}]",space,2.2633,,282.123,Not at all,0,282.1237,,,[],,0,4,4,4,1,audio/Narrative7Situation4.wav,audio/Narrative8Situation4.wav,audio/Narrative5Situation4.wav,audio/Narrative6Situation4.wav,3,3,1,2,,,,,,,,,,,,,,,,,,,,,,,,,,,,,,,,,,,,,,,
,,,,,,580670eceee5dc00017584c6,2024-05-13_10h44.11.066,group3.1-3.2-social-tom,2023.2.2,Win32,100,65c5074098b851296ff0b7ed,664234352b230208b3c86edb,,,,,,,,,,,,,,,,,,,,,,,,,,,,,282.1237,1,audio/Narrative7Situation5.wav,287.1277,,287.1277,295.5993,"[[999,4],[999,80],[999,160],[999,240],[999,320],[999,400],[999,480],[999,560],[999,640],[999,720],[999,801],[999,881],[999,961],[999,1041],[999,1121],[999,1201],[999,1281],[8.5,1361],[6.9,1442],[6.7,1521],[6.7,1602],[6.7,1682],[6.6,1762],[6.6,1842],[6.6,1922],[6.4,2003],[6.3,2082],[6.2,2163],[5.9,2243],[5.5,2323],[4.5,2403],[4.5,2483],[4.1,2563],[2.4,2643],[2,2724],[2,2803],[1.7,2884],[1.6,2963],[1.6,3044],[1.5,3124],[1.2,3204],[1,3284],[1,3364],[1,3444],[1,3524],[0.9,3604],[0.8,3685],[0.7,3765],[0.6,3845],[0.6,3925],[0.6,4005],[0.6,4092],[0.6,4169],[0.6,4246],[0.5,4326],[0.5,4407],[0.5,4490],[0.5,4566],[0.5,4648],[0.5,4726],[0.5,4806],[0.5,4889],[0.5,4966],[0.3,5047],[0.2,5128],[0.2,5206],[0.2,5290],[0.2,5369],[0.2,5447],[0.2,5531],[0.2,5607],[0.2,5687],[0.2,5769],[0.2,5847],[0.2,5928],[0.2,6010],[0.2,6088],[0.2,6169],[0.2,6248],[0.2,6328],[0.2,6409],[0.2,6488],[0.2,6569],[0.2,6651],[0.2,6729],[0.2,6809],[0.2,6891],[0.2,6969],[0.2,7049],[0.2,7133],[0.2,7211],[0.2,7290],[0.2,7374],[0.2,7450],[0.2,7533],[0.2,7610],[0.2,7691],[0.2,7770],[0.2,7854],[0.2,7931],[0.2,8012],[0.2,8091],[0.2,8173],[0.2,8251],[0.2,8331],[0.2,8412]]",1,0,295.5994,297.6941,0,1.8255,"[{""rating"":0,""responseTime"":1.8255000000000337}]",space,1.5736,,297.6942,Partially,50,297.6955,,,[],,0,5,5,5,1,audio/Narrative7Situation5.wav,audio/Narrative8Situation5.wav,audio/Narrative5Situation5.wav,audio/Narrative6Situation5.wav,5,2,5,2,,,,,,,,,,,,,,,,,,,,,,,,,,,,,,,,,,,,,,,
,,,,,,580670eceee5dc00017584c6,2024-05-13_10h44.11.066,group3.1-3.2-social-tom,2023.2.2,Win32,100,65c5074098b851296ff0b7ed,664234352b230208b3c86edb,,,,,,,,,,,,,,,,,,,,,,,,,,,,,297.6956,1,audio/Narrative7Situation6.wav,300.7012,,300.7012,310.6601,"[[999,4],[999,77],[999,155],[999,235],[999,316],[999,400],[999,476],[999,557],[999,635],[999,716],[999,796],[999,876],[999,959],[999,1036],[999,1116],[999,1197],[999,1276],[999,1356],[999,1440],[999,1517],[999,1597],[999,1677],[999,1760],[999,1837],[999,1917],[999,1997],[999,2078],[999,2157],[999,2238],[999,2318],[999,2408],[999,2488],[999,2568],[999,2648],[999,2729],[999,2808],[999,2889],[999,2969],[999,3049],[999,3129],[999,3209],[999,3289],[999,3369],[999,3449],[999,3529],[999,3609],[999,3690],[999,3770],[999,3850],[999,3930],[999,4010],[999,4090],[2,4170],[4.5,4250],[18.5,4331],[39.5,4411],[41.6,4492],[44,4571],[48.1,4651],[48.3,4731],[48.4,4811],[48.8,4892],[49.1,4972],[49.2,5052],[50.1,5132],[52,5212],[53.2,5292],[55.1,5372],[55.3,5452],[55.3,5532],[55.3,5612],[55.3,5693],[55.4,5772],[55.6,5853],[56,5933],[56,6013],[56,6093],[57,6173],[57,6253],[57,6333],[57,6413],[57,6494],[57,6573],[57,6654],[57,6734],[57,6814],[56.8,6894],[56.8,6974],[56.8,7055],[56.8,7134],[56.8,7214],[56.8,7295],[57.3,7375],[58.5,7455],[59.1,7535],[59.2,7619],[59.3,7695],[59.3,7775],[59.3,7855],[59.3,7936],[59.3,8016],[59.4,8097],[59.6,8180],[59.7,8259],[60.2,8338],[60.7,8420],[60.8,8496],[60.9,8576],[62.4,8661],[64.1,8739],[66.7,8819],[72.7,8900],[76.7,8979],[78.5,9059],[79.3,9141],[81.3,9217],[85.2,9300],[93.3,9381],[99.2,9459],[100,9538],[100,9618],[100,9698],[100,9778],[100,9858],[100,9938]]",1,0,310.6601,313.586,89.65116279,2.515,"[{""rating"":89.65116279069767,""responseTime"":2.5149999999999864}]",space,2.4047,,313.586,Partially,50,313.5867,,,[],,0,6,6,6,1,audio/Narrative7Situation6.wav,audio/Narrative8Situation6.wav,audio/Narrative5Situation6.wav,audio/Narrative6Situation6.wav,3,2,3,2,,,,,,,,,,,,,,,,,,,,,,,,,,,,,,,,,,,,,,,
,,,,,,580670eceee5dc00017584c6,2024-05-13_10h44.11.066,group3.1-3.2-social-tom,2023.2.2,Win32,100,65c5074098b851296ff0b7ed,664234352b230208b3c86edb,,,,,,,,,,,,,,,,,,,,,,,,,,,,,313.5868,1,audio/Narrative7Situation7.wav,318.5908,,318.5908,335.7585,"[[999,4],[999,80],[999,162],[999,242],[999,323],[999,400],[999,480],[999,560],[999,642],[999,723],[999,805],[999,883],[999,964],[999,1044],[999,1121],[999,1203],[999,1285],[999,1363],[999,1443],[15.8,1525],[13.5,1604],[12.2,1684],[12,1762],[12,1844],[11.8,1922],[11,2006],[9.4,2085],[8.7,2165],[8.7,2243],[8.5,2323],[8.5,2405],[8.5,2486],[8.5,2563],[8.5,2643],[16.1,2727],[38,2807],[51.3,2886],[54.8,2968],[54.8,3044],[54.8,3124],[54.8,3204],[54.8,3288],[54.8,3366],[54.8,3444],[54.8,3530],[54.8,3605],[54.8,3694],[54.8,3765],[54.8,3845],[54.8,3925],[54.8,4006],[54.8,4085],[54.8,4165],[54.8,4245],[54.8,4325],[54.8,4406],[54.8,4486],[54.9,4566],[54.9,4646],[54.9,4726],[55.1,4806],[55.2,4886],[55.3,4966],[55.4,5046],[55.4,5127],[55.5,5207],[55.6,5287],[55.6,5367],[55.6,5447],[55.6,5527],[55.6,5607],[55.8,5688],[55.9,5767],[55.9,5848],[55.9,5928],[56.1,6008],[56.2,6088],[56.2,6169],[56.3,6248],[56.4,6328],[56.5,6408],[56.5,6488],[56.5,6568],[56.6,6649],[56.6,6729],[56.6,6809],[56.6,6889],[56.6,6969],[56.7,7049],[56.9,7129],[58,7209],[59.6,7289],[59.9,7370],[59.9,7450],[58.4,7530],[53.8,7610],[48.9,7690],[41.6,7770],[34.4,7850],[26.1,7930],[22.3,8010],[16.3,8110],[15.3,8191],[14.7,8271],[14,8351],[13.9,8431],[13.9,8511],[13.9,8591],[13.9,8671],[13.9,8751],[13.9,8832],[13.9,8913],[13.9,8992],[13.9,9072],[13.9,9152],[13.9,9232],[13.9,9312],[13.9,9392],[13.9,9473],[13.9,9553],[13.9,9633],[13.9,9713],[13.9,9793],[13.9,9873],[13.9,9953],[13.9,10033],[13.9,10114],[13.7,10193],[12.2,10274],[10.6,10354],[10.4,10434],[10.4,10515],[10.4,10594],[15.2,10674],[21.2,10754],[21.4,10834],[21.4,10915],[22.3,10995],[26.2,11075],[28.3,11155],[28.3,11235],[28.3,11315],[28.2,11395],[27,11475],[26.6,11555],[26.6,11636],[26.6,11716],[26.6,11796],[26.6,11876],[26.6,11956],[26.6,12036],[26.6,12116],[26.6,12196],[26.6,12277],[26.6,12357],[26.6,12437],[26.6,12517],[26.6,12597],[26.6,12677],[26.6,12757],[26.6,12844],[26.6,12917],[26.6,12998],[26.6,13081],[26.6,13159],[26.6,13238],[26.6,13318],[26.6,13399],[26.6,13481],[26.6,13558],[26.6,13640],[26.6,13718],[26.6,13798],[26.6,13878],[26.6,13959],[26.6,14039],[26.6,14119],[26.6,14201],[26.6,14279],[26,14361],[24.4,14441],[22.4,14521],[22.3,14603],[23,14680],[32.3,14762],[40.4,14843],[46.6,14922],[49.9,15002],[52.6,15084],[56.5,15162],[60.4,15242],[62.7,15324],[62.7,15404],[62.8,15483],[63.2,15561],[63.7,15644],[63.7,15721],[63.7,15801],[63.7,15881],[63.7,15961],[63.7,16046],[63.7,16122],[63.7,16202],[63.7,16289],[63.7,16366],[63.7,16444],[63.7,16522],[63.7,16606],[66.7,16685],[74.1,16765],[75.1,16848],[75.1,16923],[75.1,17005],[75.1,17083],[75.1,17167]]",1,0,335.7586,341.1639,67.90697674,1.8402,"[{""rating"":67.90697674418604,""responseTime"":1.8401999999880445}]",space,4.8718,,341.1639,Definitely yes,100,341.1652,,,[],,0,7,7,7,1,audio/Narrative7Situation7.wav,audio/Narrative8Situation7.wav,audio/Narrative5Situation7.wav,audio/Narrative6Situation7.wav,5,3,4,5,,,,,,,,,,,,,,,,,,,,,,,,,,,,,,,,,,,,,,,
,,,,,,580670eceee5dc00017584c6,2024-05-13_10h44.11.066,group3.1-3.2-social-tom,2023.2.2,Win32,100,65c5074098b851296ff0b7ed,664234352b230208b3c86edb,,,,,,,,,,,,,,,,,,,,,,,,,,,,,341.1653,1,audio/Narrative7Situation8.wav,343.1744,,343.1744,353.18,"[[999,0],[999,82],[999,160],[999,240],[999,320],[999,403],[999,480],[999,562],[999,643],[999,724],[999,803],[999,883],[999,964],[999,1043],[999,1123],[999,1205],[4.6,1284],[3.2,1366],[2.7,1445],[2.7,1522],[2.4,1602],[2.3,1682],[2.1,1764],[2,1842],[1.8,1926],[1,2005],[0.9,2082],[0.9,2166],[0.9,2243],[0.9,2323],[0.7,2406],[0.6,2483],[0.5,2565],[0.5,2643],[0.5,2725],[0.5,2803],[0.5,2887],[0.5,2967],[0.5,3046],[0.5,3126],[0.5,3207],[0.5,3284],[0.5,3364],[0.5,3444],[0.5,3524],[0.5,3608],[0.5,3687],[0.5,3765],[0.5,3848],[0.5,3930],[0.5,4005],[0.5,4085],[0.5,4165],[0.5,4246],[0.5,4328],[0.5,4406],[0.5,4488],[0.5,4566],[0.5,4646],[0.5,4726],[0.5,4806],[0.5,4887],[0.5,4967],[0.5,5049],[0.5,5127],[0.5,5207],[0.5,5289],[0.5,5367],[0.5,5448],[0.5,5527],[2.1,5610],[13.5,5689],[35.1,5767],[52.6,5852],[59.1,5930],[62.3,6011],[64.9,6091],[69.2,6170],[73.9,6251],[77.3,6331],[77.6,6408],[78.5,6492],[78.7,6571],[78.7,6652],[78.7,6730],[78.7,6809],[78.7,6889],[78.7,6969],[78.7,7049],[78.7,7133],[78.7,7211],[78.7,7290],[78.7,7370],[78.7,7452],[78.7,7532],[78.7,7613],[78.7,7690],[78.7,7770],[78.7,7854],[78.7,7930],[78.7,8010],[78.7,8091],[78.7,8171],[78.7,8251],[78.7,8332],[78.7,8411],[78.7,8493],[78.7,8572],[78.7,8652],[78.7,8734],[78.7,8812],[78.7,8893],[78.7,8974],[78.7,9057],[78.7,9132],[78.7,9214],[78.7,9292],[78.7,9372],[78.7,9455],[78.7,9533],[78.7,9615],[78.7,9699],[80.8,9773],[82.2,9855],[82.5,9937]]",1,0,353.1801,355.0348,88.6627907,1.5844,"[{""rating"":88.66279069767442,""responseTime"":1.584400000035771}]",space,1.3308,,355.0348,Definitely yes,100,355.0355,,,[],,0,8,8,8,1,audio/Narrative7Situation8.wav,audio/Narrative8Situation8.wav,audio/Narrative5Situation8.wav,audio/Narrative6Situation8.wav,2,3,3,5,,,,,,,,,,,,,,,,,,,,,,,,,,,,,,,,,,,,,,,
,,,,,,580670eceee5dc00017584c6,2024-05-13_10h44.11.066,group3.1-3.2-social-tom,2023.2.2,Win32,100,65c5074098b851296ff0b7ed,664234352b230208b3c86edb,,,,,,,,,,,,,,,,,,,,,,,,,,,,,355.0357,1,audio/Narrative7Situation9.wav,357.0438,,357.0438,365.6556,"[[999,0],[999,79],[999,162],[999,239],[999,320],[999,400],[999,483],[999,562],[999,643],[999,720],[5.5,802],[5.4,880],[6,963],[8.4,1043],[16,1123],[27.1,1203],[31,1283],[31.7,1361],[37,1445],[37.7,1523],[37.7,1601],[37.7,1682],[36.3,1765],[36.2,1842],[36.2,1922],[36.2,2002],[36.2,2084],[36.2,2162],[36.3,2242],[40.7,2325],[53.4,2405],[62.4,2487],[67.6,2565],[72.6,2646],[78.7,2727],[80.8,2805],[82.8,2886],[85.7,2967],[87.3,3045],[87.3,3124],[87.8,3204],[88.8,3286],[90.1,3364],[90.1,3448],[90.1,3524],[90.1,3604],[90.1,3684],[90.1,3764],[90.1,3845],[90.1,3925],[90.1,4005],[90.1,4087],[90.1,4165],[90.2,4245],[93.8,4335],[95.1,4415],[96.6,4495],[98.4,4576],[99.1,4656],[99.1,4736],[99.1,4816],[99.1,4896],[99.7,4976],[100,5056],[100,5136],[100,5217],[100,5297],[100,5377],[100,5458],[100,5537],[100,5617],[100,5698],[100,5777],[100,5857],[100,5937],[100,6018],[100,6097],[100,6178],[100,6258],[100,6338],[100,6418],[100,6498],[99.5,6578],[99.4,6658],[99.4,6738],[98.6,6818],[98.5,6899],[98.5,6979],[98.5,7059],[98.5,7139],[98.5,7219],[98.5,7300],[99,7379],[99.2,7460],[99.2,7539],[99.3,7620],[99.3,7700],[99.3,7780],[99.3,7860],[99.3,7940],[99.3,8020],[99.3,8100],[99.3,8181],[99.3,8261],[99.3,8341],[100,8421],[100,8501],[100,8581]]",1,0,365.6557,368.0206,100,1.9501,"[{""rating"":99.4186046511628,""responseTime"":1.136300000011886},{""rating"":100,""responseTime"":1.950099999964209}]",space,1.853,,368.0206,Partially,50,368.0221,,,[],,0,9,9,9,1,audio/Narrative7Situation9.wav,audio/Narrative8Situation9.wav,audio/Narrative5Situation9.wav,audio/Narrative6Situation9.wav,2,3,3,4,,,,,,,,,,,,,,,,,,,,,,,,,,,,,,,,,,,,,,,
,,,,,,580670eceee5dc00017584c6,2024-05-13_10h44.11.066,group3.1-3.2-social-tom,2023.2.2,Win32,100,65c5074098b851296ff0b7ed,664234352b230208b3c86edb,,,,,,,,,,,,,,,,,,,,,,,,,,,,,368.0222,1,audio/Narrative8Situation1.wav,373.0257,,373.0257,388.9373,"[[999,4],[999,79],[999,160],[999,240],[999,322],[999,400],[999,480],[999,560],[999,640],[999,722],[999,802],[999,883],[999,962],[999,1043],[999,1124],[999,1203],[999,1283],[3.4,1365],[3.1,1443],[2.9,1526],[2.7,1601],[2.7,1681],[2.7,1762],[2.7,1842],[2.7,1923],[2.7,2002],[2.7,2082],[2.7,2163],[2.7,2242],[3,2324],[4.1,2406],[7.4,2484],[12.2,2563],[16.4,2646],[19.3,2725],[25.5,2805],[30.9,2886],[33.4,2965],[37,3045],[37.5,3127],[37.5,3207],[37.5,3284],[37.4,3368],[34.5,3447],[32.7,3526],[30.1,3606],[26.7,3688],[26.4,3766],[26.4,3844],[25.2,3928],[23.9,4007],[22.4,4085],[21.4,4168],[21.4,4245],[21.4,4325],[21.4,4406],[21.4,4487],[19.3,4567],[19.3,4646],[19.3,4726],[19.3,4806],[19.3,4886],[19.6,4969],[19.7,5046],[19.7,5126],[19.2,5210],[17.5,5288],[17.2,5369],[15.6,5450],[15,5529],[14.5,5609],[14.2,5689],[14.2,5767],[14.2,5849],[14.2,5930],[14.2,6008],[12.7,6088],[8.3,6170],[3.6,6251],[25.2,9376],[43,9464],[43.9,9542],[47,9622],[50.7,9702],[51.3,9783],[51.6,9863],[51.6,9943],[51.6,10023],[50.9,10103],[50.9,10183],[50.9,10263],[50.9,10343],[50.9,10424],[50.9,10504],[51,10584],[51.3,10664],[51.8,10744],[52.2,10824],[52.4,10904],[52.6,10985],[52.6,11064],[52.6,11144],[52.6,11224],[52.6,11305],[52.6,11385],[52.6,11465],[52.4,11545],[52.2,11625],[52.2,11705],[52.2,11785],[52.2,11865],[52.2,11945],[52.2,12026],[52.2,12106],[52.2,12186],[52.2,12266],[52.2,12346],[52.2,12426],[52.2,12506],[52.2,12586],[52.2,12667],[52.2,12747],[52.2,12827],[52.2,12907],[52.2,12988],[52.2,13067],[52.2,13147],[52.2,13227],[52.1,13307],[51.6,13388],[51.6,13468],[51.3,13548],[51.2,13629],[51.2,13708],[51.2,13788],[51.2,13868],[51.2,13948],[51.2,14029],[51.2,14109],[51.2,14189],[51.2,14269],[51.2,14349],[46.7,14429],[30.6,14509],[20.6,14589],[15.7,14669],[13.2,14750],[11.9,14829],[10.1,14910],[9.2,14990],[9.1,15070],[9,15150],[8.7,15230],[8.7,15310],[8.7,15391],[8.7,15471],[8.7,15550],[8.7,15630],[8.7,15711],[7.8,15793],[6.9,15871]]",1,0,388.9374,391.112,50.40697674,1.1795,"[{""rating"":50.406976744186046,""responseTime"":1.1795000000000186}]",space,1.6524,,391.1121,Partially,50,391.1128,,,[],,0,10,10,10,1,audio/Narrative8Situation1.wav,audio/Narrative7Situation1.wav,audio/Narrative6Situation1.wav,audio/Narrative5Situation1.wav,5,2,2,5,,,,,,,,,,,,,,,,,,,,,,,,,,,,,,,,,,,,,,,
,,,,,,580670eceee5dc00017584c6,2024-05-13_10h44.11.066,group3.1-3.2-social-tom,2023.2.2,Win32,100,65c5074098b851296ff0b7ed,664234352b230208b3c86edb,,,,,,,,,,,,,,,,,,,,,,,,,,,,,391.1129,1,audio/Narrative8Situation2.wav,394.1143,,394.1143,404.2182,"[[49.9,801],[42.3,881],[32.4,961],[21.7,1044],[19.3,1125],[19,1203],[19,1281],[19,1365],[19,1444],[19.1,1522],[19.1,1601],[19.1,1682],[19.1,1762],[25.7,1847],[24.4,1922],[17,2004],[15.3,2082],[15.3,2163],[14.9,2245],[13.8,2325],[9.8,2406],[8.3,2485],[8.3,2563],[8.3,2647],[8.3,2723],[8.3,2803],[8.3,2883],[7.8,2966],[7.3,3048],[6.9,3136],[6.7,3216],[6.2,3298],[4.5,3377],[4.4,3454],[4.4,3534],[4.4,3614],[4.4,3695],[4.4,3775],[4.4,3858],[4.4,3937],[4.4,4015],[4.4,4096],[4.4,4178],[4.4,4255],[4.4,4336],[4.4,4416],[4.4,4496],[4.4,4579],[4.4,4658],[4.4,4736],[4.4,4816],[4.4,4896],[4.4,4976],[4.4,5060],[3.4,5138],[1.3,5216],[1.3,5299],[1.3,5377],[1.3,5461],[1.3,5537],[1.3,5619],[1.3,5701],[1.3,5777],[1.3,5858],[1.3,5938],[1,6024],[0.7,6098],[0.7,6179],[0.2,6262]]",1,0,404.2183,406.393,0.290697674,1.665,"[{""rating"":0.29069767441860517,""responseTime"":1.6649999999999636}]",space,1.6521,,406.393,Definitely yes,100,413.6111,100,5.8276,"[{""rating"":99.88372093023256,""responseTime"":5.161999999999978},{""rating"":100,""responseTime"":5.827599999964207}]",space,0,11,11,11,1,audio/Narrative8Situation2.wav,audio/Narrative7Situation2.wav,audio/Narrative6Situation2.wav,audio/Narrative5Situation2.wav,3,3,3,3,,,6.708,,,,,,,,,,,,,,,,,,,,,,,,,,,,,,,,,,,,
,,,,,,580670eceee5dc00017584c6,2024-05-13_10h44.11.066,group3.1-3.2-social-tom,2023.2.2,Win32,100,65c5074098b851296ff0b7ed,664234352b230208b3c86edb,,,,,,,,,,,,,,,,,,,,,,,,,,,,,413.6113,1,audio/Narrative8Situation3.wav,417.6202,,417.6202,439.9972,"[[999,4],[999,76],[999,156],[999,236],[999,318],[999,396],[999,477],[999,557],[999,637],[999,717],[999,797],[999,877],[999,957],[999,1037],[999,1117],[999,1198],[999,1278],[999,1360],[999,1438],[999,1520],[999,1598],[999,1678],[999,1760],[999,1840],[999,1921],[999,1999],[999,2079],[999,2162],[999,2241],[999,2321],[999,2401],[999,2483],[3.5,2562],[2.3,2644],[2.2,2721],[2.2,2800],[2.2,2880],[2.2,2960],[2.3,3040],[2.3,3120],[2.3,3200],[2.3,3280],[2.6,3360],[2.6,3444],[2.7,3523],[2.7,3601],[2.7,3681],[2.7,3761],[2.7,3841],[2.7,3921],[1.3,4003],[0.3,9773],[2.6,9851],[6.5,9929],[11.5,10013],[15.2,10092],[19.8,10172],[23.3,10254],[23.6,10330],[23.8,10414],[25.6,10494],[28,10572],[31,10653],[33.3,10734],[34.9,10813],[36.4,10893],[38.4,10974],[40.1,11055],[41.3,11133],[42,11213],[42.8,11295],[43.5,11374],[44.1,11456],[44.2,11532],[44.2,11612],[44.2,11692],[44.2,11772],[44.2,11852],[44.2,11932],[44.2,12013],[44.2,12094],[44.2,12172],[44.2,12253],[44.2,12333],[44.2,12413],[44.2,12493],[44.2,12573],[44.2,12653],[44.2,12733],[44.2,12817],[44.2,12896],[44.2,12974],[44.2,13054],[44.3,13134],[44.6,13216],[45.3,13298],[45.9,13376],[45.9,13456],[46.3,13534],[46.6,13616],[46.7,13695],[47.2,13778],[47.7,13855],[47.9,13935],[47.9,14015],[47.9,14095],[47.9,14175],[47.9,14257],[47.9,14340],[46.2,14416],[44.1,14499],[43.8,14579],[43.8,14656],[43.3,14736],[42.8,14820],[42,14898],[40.8,14976],[39.8,15060],[38.8,15138],[37.7,15219],[37,15300],[36.7,15379],[36,15459],[35.9,15537],[35.9,15617],[35.9,15700],[35.9,15777],[38.5,15861],[44.3,15940],[48.1,16020],[49.5,16102],[51,16180],[52.3,16258],[53.7,16342],[55.2,16421],[57,16501],[57.6,16583],[57.6,16659],[57.6,16741],[57.6,16819],[57.6,16899],[57.6,16979],[57.6,17059],[56.9,17143],[55.7,17222],[55.6,17302],[55.6,17380],[55.6,17464],[55.6,17540],[55.6,17622],[55.6,17701],[55.6,17781],[55.8,17866],[57,17944],[57.7,18023],[57.9,18101],[57.9,18184],[57.9,18261],[57.9,18341],[57.9,18421],[57.9,18503],[57.9,18581],[57.9,18665],[57.9,18744],[58,18824],[58,18902],[58,18984],[58,19062],[58,19142],[59.1,19222],[59.3,19303],[59.3,19383],[59.3,19462],[59.3,19543],[59.3,19627],[59.3,19703],[59.3,19783],[59.2,19863],[57.2,19950],[56.6,20027],[56.5,20113],[56.5,20193],[56.5,20274],[56.5,20354],[56.5,20434],[56.7,20514],[57.4,20594],[58.4,20674],[58.7,20754],[59,20834],[59.5,20914],[60.1,20994],[60.1,21075],[60.1,21155],[60.1,21235],[60.1,21315],[60.1,21395],[60.1,21475],[60.1,21555],[60.1,21636],[60.1,21716],[60.1,21796],[60.1,21876],[59.9,21956],[57.6,22036],[56,22116],[54.9,22196],[54.2,22276],[51.9,22356]]",1,0,439.9973,444.2431,46.97674419,4.1691,"[{""rating"":49.76744186046512,""responseTime"":1.237699999988081},{""rating"":46.97674418604651,""responseTime"":4.16909999996426}]",space,3.7228,,444.2431,Definitely yes,100,444.2439,,,[],,0,12,12,12,1,audio/Narrative8Situation3.wav,audio/Narrative7Situation3.wav,audio/Narrative6Situation3.wav,audio/Narrative5Situation3.wav,4,8,5,3,,,,,,,,,,,,,,,,,,,,,,,,,,,,,,,,,,,,,,,
,,,,,,580670eceee5dc00017584c6,2024-05-13_10h44.11.066,group3.1-3.2-social-tom,2023.2.2,Win32,100,65c5074098b851296ff0b7ed,664234352b230208b3c86edb,,,,,,,,,,,,,,,,,,,,,,,,,,,,,444.244,1,audio/Narrative8Situation4.wav,447.247,,447.2471,461.4066,"[[999,0],[999,80],[999,160],[999,240],[999,320],[999,400],[999,480],[999,561],[999,640],[999,721],[999,801],[999,881],[999,961],[999,1041],[999,1121],[999,1201],[999,1281],[999,1361],[999,1441],[999,1521],[1.1,1602],[0.3,1682],[0.3,1762],[0.3,1843],[0.3,1922],[0.3,2002],[0.3,2083],[0.3,2163],[0.3,2243],[0.4,2323],[0.5,2403],[0.5,2483],[0.5,2563],[0.5,2643],[0.5,2723],[0.5,2804],[0.5,2883],[0.5,2964],[0.5,3044],[0.5,3124],[0.5,3204],[0.5,3284],[0.8,3364],[1.5,3444],[1.6,3524],[1.6,3604],[1.6,3685],[1.6,3765],[1.3,3845],[1,3925],[0.7,4005],[0.6,4085],[0.6,4165],[0.6,4246],[0.6,4325],[0.6,4405],[0.6,4486],[0.6,4566],[0.6,4646],[0.6,4726],[0.6,4806],[0.6,4886],[0.6,4966],[0.6,5047],[0.6,5126],[0.6,5207],[0.6,5287],[0.6,5367],[0.6,5447],[0.6,5527],[0.6,5607],[0.6,5687],[0.6,5768],[0.6,5848],[0.6,5928],[0.6,6008],[0.6,6090],[0.6,6168],[0.6,6248],[0.6,6330],[0.6,6410],[0.6,6492],[0.6,6568],[0.6,6651],[0.6,6729],[0.6,6809],[0.6,6889],[0.6,6969],[0.9,7049],[16.8,7133],[43.1,7212],[46.5,7289],[46.5,7372],[46.9,7455],[47.3,7532],[48,7612],[48.6,7694],[49.6,7774],[49.9,7850],[49.9,7930],[49.9,8015],[49.9,8093],[49.9,8171],[49.9,8255],[49.9,8333],[49.9,8413],[49.9,8491],[49.9,8573],[49.9,8651],[49.9,8735],[50,8812],[50,8893],[50,8972],[50,9055],[50,9134],[50.3,9214],[51.7,9297],[53.1,9374],[54.1,9456],[55.2,9537],[56.2,9615],[56.6,9695],[56.7,9773],[56.7,9853],[56.7,9935],[56.7,10014],[56.7,10094],[56.7,10174],[56.7,10254],[56.7,10334],[56.7,10416],[56.7,10496],[56.7,10574],[56.7,10655],[56.7,10734],[56.7,10814],[56.7,10894],[56.7,10975],[56.7,11059],[56.8,11135],[56.8,11215],[56.8,11299],[56.9,11375],[56.9,11455],[54.9,11540],[53.5,11616],[53.5,11698],[53.6,11776],[57.3,11861],[59.7,11936],[61.2,12016],[62.4,12096],[63.5,12176],[64.2,12256],[65.8,12336],[67,12417],[67.1,12497],[67.1,12577],[67.1,12657],[67.1,12737],[67.1,12817],[67.1,12897],[67.1,12977],[67.1,13057],[67.1,13138],[67.1,13218],[67.1,13298],[67.1,13379],[67.1,13458],[67.1,13538],[67.1,13619],[67.1,13698],[67.1,13778],[67.1,13859],[67.1,13939],[67.1,14019],[67.1,14099]]",1,0,461.4067,464.1402,74.59302326,1.6276,"[{""rating"":74.59302325581395,""responseTime"":1.6275999999642181}]",space,2.2143,,464.1403,Definitely yes,100,464.1411,,,[],,0,13,13,13,1,audio/Narrative8Situation4.wav,audio/Narrative7Situation4.wav,audio/Narrative6Situation4.wav,audio/Narrative5Situation4.wav,3,3,2,1,,,,,,,,,,,,,,,,,,,,,,,,,,,,,,,,,,,,,,,
,,,,,,580670eceee5dc00017584c6,2024-05-13_10h44.11.066,group3.1-3.2-social-tom,2023.2.2,Win32,100,65c5074098b851296ff0b7ed,664234352b230208b3c86edb,,,,,,,,,,,,,,,,,,,,,,,,,,,,,464.1411,1,audio/Narrative8Situation5.wav,466.143,,466.143,474.3742,"[[999,0],[999,80],[999,161],[999,240],[999,320],[999,400],[7.8,480],[4,560],[2.1,641],[0.8,721],[0.8,801],[0.8,881],[0.8,961],[0.9,1041],[0.9,1121],[1,1201],[1.6,1281],[4.8,1361],[11.2,1441],[13.7,1522],[15.9,1602],[18.2,1682],[18.5,1762],[18.5,1842],[18.5,1922],[18.5,2002],[18.5,2082],[18.5,2162],[18.5,2243],[18.5,2323],[18.5,2403],[18.5,2483],[18.5,2563],[18.5,2644],[18.5,2723],[18.5,2803],[18.6,2883],[19.1,2964],[20.8,3044],[23.3,3124],[27.3,3204],[35.1,3284],[38.8,3364],[42,3444],[45.7,3525],[48.7,3604],[52.3,3684],[56.8,3765],[62.6,3845],[66.3,3925],[68.8,4005],[71.4,4085],[72.4,4165],[72.4,4245],[72.4,4326],[72.4,4406],[72.4,4486],[72.4,4566],[72.4,4646],[72.4,4727],[73,4806],[73.4,4886],[73.4,4966],[73.8,5046],[76.3,5127],[77.2,5207],[77.2,5287],[77.2,5367],[77.2,5447],[77.2,5527],[77.2,5608],[77.2,5687],[77.2,5768],[77.2,5848],[77.2,5928],[77.2,6008],[77.1,6088],[77,6168],[76.9,6248],[76.7,6329],[75.1,6408],[69.1,6488],[67.4,6569],[67.4,6649],[67.4,6729],[64.7,6809],[59.8,6889],[57,6969],[56.7,7049],[56.7,7129],[57.4,7210],[57.6,7289],[57.6,7370],[57.6,7451],[57.6,7530],[57.6,7610],[57.6,7690],[57.6,7771],[57.6,7850],[57.6,7931],[57.6,8011],[57.6,8091],[57.7,8171]]",1,0,474.3743,476.2771,72.61627907,1.4525,"[{""rating"":72.61627906976744,""responseTime"":1.4525000000001}]",space,1.3848,,476.2771,Partially,50,476.2786,,,[],,0,14,14,14,1,audio/Narrative8Situation5.wav,audio/Narrative7Situation5.wav,audio/Narrative6Situation5.wav,audio/Narrative5Situation5.wav,2,5,2,5,,,,,,,,,,,,,,,,,,,,,,,,,,,,,,,,,,,,,,,
,,,,,,580670eceee5dc00017584c6,2024-05-13_10h44.11.066,group3.1-3.2-social-tom,2023.2.2,Win32,100,65c5074098b851296ff0b7ed,664234352b230208b3c86edb,,,,,,,,,,,,,,,,,,,,,,,,,,,,,476.2786,1,audio/Narrative8Situation6.wav,478.2797,,478.2797,484.7285,"[[999,0],[999,80],[999,160],[999,240],[999,320],[999,400],[999,480],[999,560],[999,641],[999,721],[999,801],[999,881],[999,962],[999,1041],[999,1121],[999,1201],[999,1281],[999,1361],[999,1441],[999,1522],[25.2,1602],[19.9,1682],[19.9,1762],[26.2,1842],[49.1,1922],[61.3,2002],[61.6,2082],[62.2,2163],[64.1,2243],[69.8,2323],[76.2,2403],[78,2483],[78.2,2563],[79.1,2643],[79.1,2723],[79.1,2803],[79.1,2884],[79.1,2964],[79.1,3044],[79.1,3124],[79.1,3204],[79.1,3284],[79.1,3364],[79.1,3444],[79.1,3524],[79.1,3604],[79.1,3685],[79.1,3765],[79.1,3845],[79.1,3925],[79.1,4005],[79.1,4085],[79.1,4165],[79.1,4245],[79.1,4325],[79.2,4405],[79.2,4485],[79.2,4566],[79.2,4646],[79.2,4726],[79.2,4806],[79.2,4886],[79.2,4966],[79.2,5046],[79.2,5127],[79.2,5207],[79.4,5287],[79.5,5367],[79.5,5447],[79.7,5527],[79.8,5607],[79.8,5688],[79.9,5767],[80.9,5848],[81.3,5927],[81.3,6008],[81.3,6088],[81.3,6168],[81.5,6248],[81.7,6328],[82.1,6408]]",1,0,484.7286,486.331,86.39534884,1.1641,"[{""rating"":86.3953488372093,""responseTime"":1.1640999999642645}]",space,1.0869,,486.3311,Partially,50,486.3318,,,[],,0,15,15,15,1,audio/Narrative8Situation6.wav,audio/Narrative7Situation6.wav,audio/Narrative6Situation6.wav,audio/Narrative5Situation6.wav,2,3,2,3,,,,,,,,,,,,,,,,,,,,,,,,,,,,,,,,,,,,,,,
,,,,,,580670eceee5dc00017584c6,2024-05-13_10h44.11.066,group3.1-3.2-social-tom,2023.2.2,Win32,100,65c5074098b851296ff0b7ed,664234352b230208b3c86edb,,,,,,,,,,,,,,,,,,,,,,,,,,,,,486.3319,1,audio/Narrative8Situation7.wav,489.3351,,489.3351,501.4015,"[[999,0],[999,80],[999,159],[999,240],[999,320],[999,400],[999,480],[999,560],[999,640],[999,720],[999,801],[999,880],[999,961],[999,1041],[999,1121],[999,1201],[999,1281],[999,1361],[31.3,1441],[24.4,1521],[22.3,1601],[18.8,1682],[15.2,1762],[14.8,1842],[14.5,1922],[11.9,2002],[8.6,2082],[5.1,2162],[4.4,2242],[2.7,2322],[2.6,2403],[2.5,2483],[2.3,2563],[1.3,2643]]",1,0,501.4015,504.3754,0.11627907,2.1927,"[{""rating"":0.11627906976744429,""responseTime"":2.192699999988122}]",space,2.4591,,504.3754,Not at all,0,504.3766,,,[],,0,16,16,16,1,audio/Narrative8Situation7.wav,audio/Narrative7Situation7.wav,audio/Narrative6Situation7.wav,audio/Narrative5Situation7.wav,3,5,5,4,,,,,,,,,,,,,,,,,,,,,,,,,,,,,,,,,,,,,,,
,,,,,,580670eceee5dc00017584c6,2024-05-13_10h44.11.066,group3.1-3.2-social-tom,2023.2.2,Win32,100,65c5074098b851296ff0b7ed,664234352b230208b3c86edb,,,,,,,,,,,,,,,,,,,,,,,,,,,,,504.3767,1,audio/Narrative8Situation8.wav,507.3796,,507.3796,520.2173,"[[999,0],[999,80],[999,160],[999,240],[999,320],[999,400],[999,480],[999,560],[999,640],[999,721],[999,801],[999,881],[999,961],[999,1041],[999,1121],[999,1201],[999,1281],[0.3,1441],[0.6,1522],[0.8,1602],[0.8,1682],[0.8,1762],[0.7,1842],[0.2,1922]]",1,0,520.2174,521.309,0,0.7356,"[{""rating"":0,""responseTime"":0.735600000023851}]",space,0.5751,,521.309,Definitely yes,100,521.3104,,,[],,0,17,17,17,1,audio/Narrative8Situation8.wav,audio/Narrative7Situation8.wav,audio/Narrative6Situation8.wav,audio/Narrative5Situation8.wav,3,2,5,3,,,,,,,,,,,,,,,,,,,,,,,,,,,,,,,,,,,,,,,
,,,,,,580670eceee5dc00017584c6,2024-05-13_10h44.11.066,group3.1-3.2-social-tom,2023.2.2,Win32,100,65c5074098b851296ff0b7ed,664234352b230208b3c86edb,,,,,,,,,,,,,,,,,,,,,,,,,,,,,521.3105,1,audio/Narrative8Situation9.wav,524.3128,,524.3128,535.6082,"[[0.3,1602],[1.2,1682],[1.5,1762],[1.5,1842],[1.5,1922],[1.5,2002],[1.5,2082],[1.5,2163],[1.5,2243],[1.5,2322],[1.5,2403],[1.5,2483],[1.3,2563],[1.1,2643],[1,2724],[1,2803],[0.9,2884],[0.9,2963],[0.9,3043],[0.9,3124],[0.9,3204],[0.9,3284],[0.9,3364],[0.9,3444],[0.9,3524],[0.9,3605],[0.9,3684],[0.9,3765],[0.9,3845],[0.9,3925],[0.9,4005],[0.9,4085],[0.9,4166],[0.9,4245],[0.9,4325],[0.8,4405],[0.6,4486],[0.3,4566],[0.2,4646],[0.2,4726],[0.2,4806],[0.2,4886],[0.2,4966],[0.2,5046],[0.2,5126],[0.2,5206],[0.2,5287],[0.2,5367],[0.2,5447],[0.2,5527],[0.2,5607],[0.2,5687],[0.2,5767],[0.2,5847],[0.2,5927],[0.2,6008],[0.2,6089],[0.2,6168],[0.2,6248],[0.2,6328],[0.2,6408],[0.2,6489],[0.2,6568],[0.2,6649],[0.2,6729],[0.2,6809],[0.2,6889],[0.2,6969],[0.2,7049],[0.2,7129],[0.2,7209],[0.2,7289],[0.2,7369],[0.2,7450],[0.2,7530],[0.2,7610],[0.2,7690],[0.2,7770],[0.2,7851],[0.2,7930],[0.2,8010],[0.2,8091],[0.2,8171],[0.2,8251],[0.2,8331],[0.2,8411],[0.2,8491],[0.2,8571],[0.2,8651],[0.2,8731],[0.2,8812],[0.2,8892],[0.2,8972],[0.2,9052],[0.2,9132],[0.2,9212],[0.2,9292],[0.2,9372],[0.2,9452],[0.2,9533],[0.2,9613],[0.2,9693],[0.2,9773],[0.2,9853],[0.2,9933],[0.6,10013],[0.8,10093],[1,10173],[1.2,10253],[1.5,10333],[1.7,10414],[2.3,10494],[3.8,10574],[4.8,10654],[4.9,10734],[5.2,10814],[5.4,10894],[5.5,10975],[5.5,11055],[5.5,11135],[5.5,11215],[5.5,11295]]",1,0,535.6083,537.3905,6.627906977,1.5656,"[{""rating"":6.627906976744185,""responseTime"":1.5656000000238919}]",space,1.2663,,537.3905,Not at all,0,537.3918,,,[],,0,18,18,18,1,audio/Narrative8Situation9.wav,audio/Narrative7Situation9.wav,audio/Narrative6Situation9.wav,audio/Narrative5Situation9.wav,3,2,4,3,,,,,,,,,,,,,,,,,,,,,,,,,,,,,,,,,,,,,,,
,,,,,,580670eceee5dc00017584c6,2024-05-13_10h44.11.066,group3.1-3.2-social-tom,2023.2.2,Win32,100,65c5074098b851296ff0b7ed,664234352b230208b3c86edb,,,,,,,,,,,,,,,,,,,,,,,,,,,540.3293,542.9084,542.9144,2,audio/Narrative13Situation2.wav,542.9144,,542.9145,572.649,"[[5.8,73],[5.7,154],[5.9,234],[5.2,314],[5.2,394],[5.2,474],[5.6,554],[5.2,634],[2.6,715],[2.4,795],[2.4,874],[2.4,954],[2.4,1035],[2.4,1115],[2.4,1195],[2.4,1275],[2.4,1355],[2.4,1436],[2.3,1515],[2,1595],[1.8,1676],[1.6,1756],[1.6,1837],[1.6,1916],[1.6,1996],[1.6,2076],[1.6,2156],[1.6,2236],[1.6,2317],[1.6,2397],[1.6,2477],[1.6,2558],[1.6,2637],[1.6,2717],[1.6,2797],[1.6,2877],[1.6,2957],[1.6,3037],[1.6,3118],[1.6,3198],[1.6,3278],[1.6,3359],[1.6,3439],[1.6,3518],[1.6,3598],[1.6,3678],[1.6,3759],[1.6,3838],[1.6,3918],[1.6,3999],[1.6,4079],[1.6,4159],[1.6,4239],[1.6,4319],[1.6,4399],[1.6,4479],[1.6,4559],[1.6,4639],[1.6,4720],[1.6,4800],[1.6,4880],[1.6,4960],[1.6,5040],[1.6,5120],[1.6,5200],[1.6,5280],[1.6,5361],[1.6,5441],[1.6,5521],[1.6,5601],[1.6,5681],[1.6,5761],[1.6,5841],[1.6,5921],[1.6,6002],[1.6,6081],[1.6,6162],[1.6,6242],[1.6,6322],[1.6,6402],[1.6,6482],[1.6,6562],[1.6,6642],[1.6,6723],[1.6,6802],[1.6,6883],[1.6,6963],[1.6,7043],[1.6,7124],[1.6,7203],[1.6,7283],[1.6,7363],[1.6,7443],[1.6,7523],[1.6,7604],[3.4,7684],[4.9,7764],[5.6,7844],[11,7924],[25.4,8004],[35.7,8084],[41.9,8164],[51.6,8245],[54.1,8324],[54.1,8405],[52.6,8485],[47.7,8565],[47.5,8645],[47.6,8725],[48.5,8805],[49.5,8885],[50.9,8965],[54.5,9047],[55.3,9126],[59.4,9206],[67.6,9286],[72,9366],[76.5,9446],[78.7,9526],[83.8,9606],[91.7,9686],[97.3,9767],[98.8,9847],[99.5,9927],[99.5,10007],[99.5,10087],[99.5,10167],[99.5,10247],[99.5,10327],[99.6,10408],[99.3,10487],[99.3,10568],[99.3,10648],[99.3,10728],[99.3,10808],[99.3,10888],[99.3,10968],[99.3,11049],[99.3,11128],[99.3,11209],[99.3,11289],[99.3,11369],[99.3,11449],[99.3,11529],[99.3,11609],[99.3,11689],[99.3,11769],[99.3,11849],[99.3,11930],[99.3,12010],[99.3,12090],[99.3,12170],[99.3,12250],[99.3,12330],[99.3,12410],[99.3,12490],[99.3,12571],[99.3,12651],[99.3,12731],[99.3,12811],[99.3,12891],[99.3,12971],[99.3,13051],[99.3,13131],[99.3,13211],[99.3,13291],[99.3,13371],[99.3,13451],[99.3,13532],[99.3,13612],[99.3,13692],[99.3,13772],[99.3,13852],[99.3,13932],[99.3,14012],[99.3,14092],[99.3,14173],[99.3,14253],[99.3,14333],[99.3,14413],[99.3,14494],[99.3,14573],[99.3,14654],[99.3,14733],[99.3,14813],[99.3,14894],[99.3,14974],[99.3,15054],[31.1,15775],[29,15855],[28.9,15936],[28.9,16015],[28.8,16095],[27.8,16175],[24.5,16255],[24,16336],[23.9,16416],[22.2,16496],[19.1,16576],[17,16656],[16.8,16736],[16.2,16816],[16.2,16897],[16.2,16976],[16.1,17057],[14.9,17137],[14.1,17217],[12.9,17297],[12.8,17377],[12.8,17457],[11.1,17537],[9.2,17617],[8.3,17697],[6.9,17777],[5.8,17858],[5.8,17938],[5.8,18018],[5.8,18098],[4.5,18178],[2.4,18258],[1.5,18338],[1.5,18418],[1.2,18498],[1.2,18579],[1.2,18659],[1.2,18739],[1.2,18819],[1.2,18899],[1.2,18979],[1.2,19059],[1.2,19140],[0.6,19220],[2.3,26990],[2.4,27070],[2.7,27150],[2.7,27230],[2.6,27311],[2.6,27391],[2.6,27471],[2.6,27551],[2.5,27631],[1.9,27711],[0.9,27791],[0.2,27871],[0.2,27952],[0.2,28031],[0.2,28112],[0.2,28192],[0.2,28272],[0.2,28353],[0.2,28432],[0.2,28512],[0.2,28592],[0.2,28672],[0.2,28753],[0.2,28833],[0.2,28913],[0.2,28993],[0.2,29073],[0.2,29153],[0.2,29234],[0.2,29314],[0.2,29393],[0.2,29473],[0.2,29554],[0.2,29634],[0.2,29714]]",1,0,572.649,572.6499,,,[],,,,572.6499,Not at all,0,572.6504,,,[],,0,0,0,0,1,audio/Narrative13Situation2.wav,audio/Narrative13Situation2.wav,audio/Narrative13Situation2.wav,audio/Narrative13Situation2.wav,2,2,2,2,,,,,537.3922,540.325,space,2.4136,,,,,,,,,,,,,,,,,,,,,,,,,,,,,,,
,,,,,,580670eceee5dc00017584c6,2024-05-13_10h44.11.066,group3.1-3.2-social-tom,2023.2.2,Win32,100,65c5074098b851296ff0b7ed,664234352b230208b3c86edb,,,,,,,,,,,,,,,,,,,,,,,,,,,,,572.6505,2,audio/Narrative5Situation1.wav,577.6556,,577.6557,590.9239,"[[999,4],[999,80],[999,162],[999,240],[999,320],[999,401],[999,480],[999,561],[999,641],[999,721],[999,801],[999,881],[999,962],[999,1043],[999,1124],[999,1203],[999,1283],[999,1365],[3.8,1443],[3,1526],[3,1605],[2.9,1684],[2.9,1762],[2.9,1846],[2.9,1922],[2.9,2007],[2.9,2082],[2.9,2164],[2.9,2243],[2.7,2326],[2.2,2403],[1.5,2485],[1.4,2567],[1.4,2645],[1.4,2723],[1.4,2808],[1.4,2888],[1.4,2966],[1.4,3044],[0.9,3127],[0.7,3204],[0.6,3284],[0.5,3364],[0.4,3444],[0.4,3526],[0.4,3604],[0.3,3685],[0.3,3767],[0.3,3850],[0.3,3925],[0.3,4005],[0.3,4089],[0.3,4167],[0.3,4245],[0.3,4325],[0.3,4406],[0.3,4486],[0.3,4566],[0.3,4650],[0.3,4726],[0.3,4806],[0.3,4886],[0.3,4966],[0.3,5046],[0.3,5127],[0.3,5207],[0.3,5289],[0.3,5367],[0.3,5447],[0.3,5529],[0.3,5608],[0.3,5689],[0.3,5767],[0.3,5848],[0.3,5928],[0.3,6008],[0.3,6088],[0.3,6173],[0.3,6250],[0.3,6328],[0.3,6409],[0.3,6491],[0.3,6568],[0.3,6649],[0.3,6731],[0.3,6809],[0.3,6889],[0.3,6979],[0.3,7059],[0.3,7140],[0.3,7219],[0.3,7300],[0.3,7380],[0.3,7460],[0.3,7540],[0.3,7620],[0.3,7700],[0.3,7780],[0.3,7860],[0.3,7941],[0.3,8021],[0.3,8101],[0.3,8181],[0.3,8261],[0.3,8341],[0.3,8422],[0.3,8501],[0.3,8582],[0.3,8662],[0.3,8742],[0.3,8822],[0.3,8902],[0.3,8982],[0.3,9062],[0.3,9142],[0.3,9222],[0.3,9302],[0.3,9383],[0.3,9463],[0.3,9543],[0.3,9623],[0.3,9703],[0.3,9783],[0.3,9863],[0.3,9943],[0.3,10023],[0.3,10103],[0.3,10183],[0.3,10264],[0.3,10344],[0.3,10424],[0.3,10504],[0.3,10585],[0.3,10664],[0.3,10744],[0.3,10825],[0.3,10904],[0.3,10984],[0.3,11065],[0.3,11145],[0.3,11225],[0.3,11305],[0.3,11385],[0.3,11466],[0.3,11550],[0.3,11626],[0.3,11706],[0.7,11786],[2.4,11869],[5.2,11948],[6.9,12028],[8.8,12109],[10.3,12190],[11.6,12268],[12.8,12350],[12.9,12427],[12.9,12507],[12.9,12587],[12.9,12667],[12.9,12747],[12,12829],[11.4,12908],[11.2,12989],[10.8,13067],[10.6,13148],[10.6,13228]]",1,0,590.924,593.4675,9.825581395,1.4137,"[{""rating"":9.825581395348838,""responseTime"":1.4136999999880118}]",space,2.0293,,593.4675,Partially,50,593.4694,,,[],,0,1,1,1,1,audio/Narrative7Situation1.wav,audio/Narrative8Situation1.wav,audio/Narrative5Situation1.wav,audio/Narrative6Situation1.wav,2,5,5,2,,,,,,,,,,,,,,,,,,,,,,,,,,,,,,,,,,,,,,,
,,,,,,580670eceee5dc00017584c6,2024-05-13_10h44.11.066,group3.1-3.2-social-tom,2023.2.2,Win32,100,65c5074098b851296ff0b7ed,664234352b230208b3c86edb,,,,,,,,,,,,,,,,,,,,,,,,,,,,,593.4696,2,audio/Narrative5Situation2.wav,596.4716,,596.4717,625.922,"[[18.7,320],[18.7,404],[18.7,480],[18.7,561],[18.7,644],[18.7,722],[18.7,800],[18.7,880],[11.6,963],[5.6,1365],[5.6,1441],[4.4,1524],[3,1605],[1.4,1684],[1.4,1762],[1.4,1844],[1.4,1922],[1.6,2325],[1.6,2406],[1.6,2485],[1.6,2563],[1.6,2643],[1.7,2723],[1.7,2803],[1.7,2883],[1.9,2966],[3.1,3043],[3.4,3124],[3.4,3204],[3.4,3284],[1.7,3368],[1.2,6898],[5.8,6972],[12.8,7051],[17.7,7135],[23.1,7212],[25.7,7299],[26.8,7382],[26.9,7459],[26.9,7540],[26.9,7620],[22.5,7700],[8.5,7780],[3.7,7860],[2,7940],[1.9,8021],[0.9,8100],[0.1,8181],[0.1,8261],[0.3,12747],[9.4,12827],[17,12907],[21.6,12987],[25.5,13067],[25.7,13147],[26.5,13227],[26.7,13308],[26.7,13388],[26.9,13468],[27,13548],[28,13628],[28.4,13708],[28.5,13788],[28.6,13868],[28.6,13949],[29.5,14028],[30.3,14109],[31,14189],[34.2,14269],[34.7,14349],[34.7,14429],[34.7,14509],[34.7,14589],[34.7,14670],[34.7,14750],[34.7,14830],[33.2,14910],[26.4,14990],[21.5,15070],[17.4,15150],[13.7,15230],[9.6,15310],[4.2,15390],[1.5,15471],[0.5,22851],[1.2,22931],[2.3,23011],[3.2,23091],[3.2,23171],[3.2,23251],[3.2,23331],[3.2,23411],[3,23492],[0.6,23572],[0.3,23652],[0.2,23732],[0.2,23812],[0.2,23892],[0.2,23972],[0.2,24052],[0.2,24133],[0.2,24213],[0.2,24293],[0.2,24373],[0.2,24453],[0.2,24533],[0.2,24614],[0.2,24693],[0.2,24773],[0.2,24853],[0.2,24933],[0.2,25014],[0.2,25094],[0.2,25174],[0.2,25254],[0.2,25344],[0.2,25426],[0.2,25504],[0.2,25589],[0.2,25666],[0.2,25748],[0.2,25825],[0.2,25905],[0.2,25985],[0.2,26069],[0.2,26147],[0.2,26225],[0.2,26305],[0.2,26386],[0.2,26466],[0.2,26549],[0.2,26627],[0.2,26706],[0.2,26790],[0.2,26868],[0.2,26946],[0.2,27026],[0.2,27107],[0.2,27187],[0.2,27267],[0.2,27347],[0.2,27429],[0.2,27512],[0.2,27587],[0.2,27667],[0.2,27749],[0.2,27827],[0.2,27910],[0.2,27990],[0.2,28068],[0.2,28150],[0.2,28230],[0.2,28308],[0.2,28388],[0.2,28468],[0.2,28551],[0.2,28631],[0.2,28711],[0.2,28789],[0.2,28869],[0.2,28951],[0.2,29029],[0.2,29110],[0.2,29189],[0.2,29269],[0.2,29351],[0.2,29430]]",1,0,625.9221,630.3784,2.73255814,4.1129,"[{""rating"":0.7558139534883712,""responseTime"":2.8329000000358064},{""rating"":2.732558139534885,""responseTime"":4.112900000035779}]",space,3.9303,,630.3785,Definitely yes,100,630.3797,,,[],,0,2,2,2,1,audio/Narrative7Situation2.wav,audio/Narrative8Situation2.wav,audio/Narrative5Situation2.wav,audio/Narrative6Situation2.wav,3,3,3,3,,,,,,,,,,,,,,,,,,,,,,,,,,,,,,,,,,,,,,,
,,,,,,580670eceee5dc00017584c6,2024-05-13_10h44.11.066,group3.1-3.2-social-tom,2023.2.2,Win32,100,65c5074098b851296ff0b7ed,664234352b230208b3c86edb,,,,,,,,,,,,,,,,,,,,,,,,,,,,,630.3798,2,audio/Narrative5Situation3.wav,633.382,,633.382,647.2813,"[[3.1,1444],[2.5,1524],[2.1,1604],[2.1,1683],[1.8,1767],[1.3,1852],[1,1932],[0.5,2012],[0.2,2092],[0.1,2173],[5.5,9943],[20.3,10025],[34.9,10107],[36.5,10186],[36.7,10266],[37.1,10344],[37.2,10424],[37.2,10504],[37.8,10588],[40.2,10667],[41.7,10746],[43,10828],[44,10905],[44.1,10987],[44.2,11065],[44.2,11145],[44.2,11227],[44.2,11309],[44.2,11386],[44.2,11467],[44.2,11546],[44.2,11628],[44.2,11706],[44.2,11786],[44.2,11870],[44.2,11946],[44.2,12026],[44.2,12106],[44.2,12187],[44.2,12267],[44.2,12347],[44.2,12427],[44.2,12507],[44.2,12587],[44.2,12667],[43.8,12747],[43.4,12827],[43.1,12908],[43,12987],[42.9,13068],[42.9,13148],[42.9,13228],[42.9,13308],[42.9,13388],[42.7,13468],[42.7,13548],[42.7,13628],[42.7,13708],[42.6,13789],[42.5,13869]]",1,0,647.2813,651.8175,26.86046512,4.4253,"[{""rating"":23.255813953488374,""responseTime"":1.9258999999761954},{""rating"":26.86046511627907,""responseTime"":4.42530000001193}]",space,4.0215,,651.8175,Definitely yes,100,651.8181,,,[],,0,3,3,3,1,audio/Narrative7Situation3.wav,audio/Narrative8Situation3.wav,audio/Narrative5Situation3.wav,audio/Narrative6Situation3.wav,8,4,3,5,,,,,,,,,,,,,,,,,,,,,,,,,,,,,,,,,,,,,,,
,,,,,,580670eceee5dc00017584c6,2024-05-13_10h44.11.066,group3.1-3.2-social-tom,2023.2.2,Win32,100,65c5074098b851296ff0b7ed,664234352b230208b3c86edb,,,,,,,,,,,,,,,,,,,,,,,,,,,,,651.8182,2,audio/Narrative5Situation4.wav,652.8187,,652.8187,673.1868,"[[999,0],[999,80],[999,160],[999,240],[999,320],[999,400],[999,480],[999,560],[999,640],[999,721],[999,801],[999,881],[999,961],[999,1041],[999,1121],[999,1201],[999,1281],[999,1361],[999,1442],[999,1522],[10.6,1602],[8.8,1682],[6.2,1762],[2.7,1842],[0.5,9775],[7.2,9857],[16.2,9935],[20.2,10015],[20.8,10096],[21.5,10175],[23.7,10257],[28,10336],[32.8,10416],[36.3,10496],[37.7,10576],[38.5,10656],[38.7,10736],[38.7,10816],[38.7,10896],[38.7,10976],[38.7,11058],[38.2,11138],[37.4,11217],[36.9,11297],[36.9,11378],[36.8,11457],[36.3,11537],[35,11619],[33.5,11698],[33.4,11778],[33.4,11859],[34,11938],[38.4,12018],[42.9,12100],[45.8,12178],[47.6,12258],[48.7,12338],[48.7,12420],[48.8,12499],[49.2,12579],[49.2,12660],[49.2,12739],[49.4,12819],[49.2,12900],[49.2,12979],[49.2,13059],[49.2,13140],[49.5,13221],[49.7,13299],[49.7,13383],[49.7,13461],[49.7,13540],[49.7,13622],[49.7,13702],[49.6,13783],[49.7,13860],[49.7,13942],[49.7,14020],[49.7,14100],[49.8,14182],[49.8,14260],[49.9,14341],[49.9,14421],[49.9,14501],[49.9,14581],[49.9,14664],[49.9,14743],[49.9,14821],[49.9,14901],[49.9,14983],[49.9,15062],[49.9,15142],[49.9,15223],[49.9,15302],[49.9,15383],[49.9,15464],[49.9,15542],[49.9,15623],[50.2,15704],[51.3,15783],[53.9,15863],[57.9,15944],[60.1,16023],[61.1,16103],[61.1,16185],[61.6,16265],[62.4,16343],[63.5,16424],[64.4,16505],[64.4,16584],[64.4,16664],[64.5,16746],[65.2,16824],[65.3,16904],[65.3,16986],[65.3,17064],[65.3,17145],[65.3,17226],[65.3,17305],[65.3,17385],[65.3,17466],[65.3,17545],[65.3,17625],[65.3,17707],[65.3,17786],[65.3,17866],[65.3,17947],[65.3,18027],[65.3,18106],[65.3,18186],[65.3,18275],[65.3,18355],[65.3,18435],[65.3,18515],[65.3,18595],[65.3,18675],[65.3,18755],[65.3,18837],[65.3,18916],[65.3,18999],[65.3,19076],[65.3,19156],[65.3,19238],[65.3,19318],[65.3,19400],[65.3,19476],[65.3,19558],[65.3,19642],[65.3,19717],[65.3,19797],[65.3,19882],[65.3,19961],[65.3,20037],[65.6,20119],[65.6,20198],[65.6,20279],[65.6,20358]]",1,0,673.1868,675.0821,59.30232558,1.7054,"[{""rating"":59.302325581395344,""responseTime"":1.7054000000358656}]",space,1.3752,,675.0822,Not at all,0,675.0836,,,[],,0,4,4,4,1,audio/Narrative7Situation4.wav,audio/Narrative8Situation4.wav,audio/Narrative5Situation4.wav,audio/Narrative6Situation4.wav,3,3,1,2,,,,,,,,,,,,,,,,,,,,,,,,,,,,,,,,,,,,,,,
,,,,,,580670eceee5dc00017584c6,2024-05-13_10h44.11.066,group3.1-3.2-social-tom,2023.2.2,Win32,100,65c5074098b851296ff0b7ed,664234352b230208b3c86edb,,,,,,,,,,,,,,,,,,,,,,,,,,,,,675.0837,2,audio/Narrative5Situation5.wav,680.0863,,680.0863,695.4872,"[[999,4],[999,79],[999,159],[999,240],[999,320],[999,400],[999,480],[999,560],[999,640],[999,721],[999,800],[999,880],[999,961],[999,1041],[999,1121],[999,1201],[999,1281],[999,1361],[999,1441],[999,1521],[999,1602],[999,1682],[999,1762],[999,1842],[999,1922],[999,2002],[999,2082],[999,2162],[999,2243],[999,2322],[999,2403],[999,2483],[999,2563],[999,2644],[999,2723],[999,2803],[999,2884],[999,2963],[999,3043],[999,3124],[35.3,3204],[28.5,3284],[21.5,3364],[15.2,3444],[10.3,3524],[6.9,3604],[4.7,3684],[3.6,3764],[1.7,3845],[0.1,3924],[0.5,9456],[2.6,9536],[5.2,9612],[10.9,9697],[17,9776],[19,9855],[19,9933],[19,10019],[19,10094],[19,10176],[19.2,10257],[19.5,10334],[19.7,10415],[19.8,10494],[19.9,10579],[20,10658],[20.1,10754],[20.2,10834],[20.2,10914],[20.2,10994],[20.2,11074],[20.2,11155],[20.2,11235],[20.2,11315],[20.2,11395],[20.2,11475],[20.2,11555],[20.2,11635],[20.2,11715],[20.2,11795],[20.2,11875],[20.2,11956],[22,12036],[24.8,12116],[27.1,12196],[31,12276],[37.7,12356],[42.3,12436],[44.1,12516],[46.3,12596],[48.4,12677],[50.2,12757],[50.7,12837],[50.7,12917],[50.7,12997],[50.7,13077],[50.7,13157],[50.7,13238],[50.7,13318],[50.7,13398],[50.7,13478],[50.7,13558],[50.7,13638],[50.7,13719],[51.2,13798],[52,13878],[53.3,13958],[53.7,14038],[53.7,14119],[54.3,14199],[54.4,14279],[54.4,14359],[54.4,14439],[54.4,14519],[54.4,14599],[53.5,14679],[52,14760],[50.9,14840],[50.5,14920],[50.5,15000],[50.5,15080],[50.5,15160],[50.5,15240],[50.5,15320],[50.5,15400]]",1,0,695.4872,696.859,50.40697674,0.5544,"[{""rating"":50.406976744186046,""responseTime"":0.5543999999762264}]",space,0.859,,696.8591,Partially,50,696.8602,,,[],,0,5,5,5,1,audio/Narrative7Situation5.wav,audio/Narrative8Situation5.wav,audio/Narrative5Situation5.wav,audio/Narrative6Situation5.wav,5,2,5,2,,,,,,,,,,,,,,,,,,,,,,,,,,,,,,,,,,,,,,,
,,,,,,580670eceee5dc00017584c6,2024-05-13_10h44.11.066,group3.1-3.2-social-tom,2023.2.2,Win32,100,65c5074098b851296ff0b7ed,664234352b230208b3c86edb,,,,,,,,,,,,,,,,,,,,,,,,,,,,,696.8604,2,audio/Narrative5Situation6.wav,699.863,,699.863,705.521,"[[49.4,160],[48.2,242],[48,320],[48,403],[48,480],[48,561],[48,646],[48,721],[48,801],[48,882],[48,961],[48,1043],[48,1127],[48,1205],[47.8,1284],[46.6,1364],[40.5,1446],[34,1524],[19.2,1604],[7,1686],[5.3,1764],[2.3,1845],[2.4,2409],[2.4,2486],[2.4,2564],[2.4,2643],[1.3,2727],[0.6,2803]]",1,0,705.521,709.0592,21.68604651,3.3391,"[{""rating"":21.686046511627904,""responseTime"":3.339099999964219}]",space,3.0251,,709.0592,Not at all,0,709.0605,,,[],,0,6,6,6,1,audio/Narrative7Situation6.wav,audio/Narrative8Situation6.wav,audio/Narrative5Situation6.wav,audio/Narrative6Situation6.wav,3,2,3,2,,,,,,,,,,,,,,,,,,,,,,,,,,,,,,,,,,,,,,,
,,,,,,580670eceee5dc00017584c6,2024-05-13_10h44.11.066,group3.1-3.2-social-tom,2023.2.2,Win32,100,65c5074098b851296ff0b7ed,664234352b230208b3c86edb,,,,,,,,,,,,,,,,,,,,,,,,,,,,,709.0607,2,audio/Narrative5Situation7.wav,713.0612,,713.0613,734.0802,"[[20.3,881],[17.4,963],[14.5,1044],[13.2,1123],[12.7,1203],[12.7,1285],[12.3,1364],[6.9,1444],[2,1525],[1.7,1604],[1.7,1682],[1.7,1762],[1.7,1852],[1.3,1938],[1,2014],[0.8,2095],[0.6,2172],[0.6,2256],[0.6,2333],[0.6,2413],[0.6,2495],[0.6,2575],[0.6,2653],[0.6,2733],[0.5,2813],[0.2,2894],[0.1,2976],[0.1,3055],[0.1,3134],[0.1,3214],[0.1,3294],[0.1,3374],[0.1,3454],[0.1,3536],[0.1,3614],[0.1,3694],[0.1,3776],[0.1,3855],[0.1,3937],[0.1,4015],[0.1,4095],[0.1,4175],[0.1,4256],[0.1,4335],[0.1,4416],[0.1,4497],[0.1,4580],[0.1,4656],[0.1,4736],[0.1,4818],[0.1,4900],[0.4,4976],[9,5058],[25.2,5140],[28.7,5218],[29.8,5299],[35.8,5380],[36.2,5459],[36.2,5539],[36.7,5617],[37.6,5697],[37.7,5778],[38.7,5857],[40.1,5939],[40.5,6018],[41.5,6101],[42.1,6178],[42.2,6262],[42.2,6338],[42.2,6418],[42.2,6498],[42.2,6579],[42.2,6660],[42.2,6742],[42.2,6822],[42.2,6901],[42.2,6979],[42.2,7062],[42.2,7139],[42.2,7221],[42.2,7303],[42.2,7382],[42.2,7460],[42.2,7545],[42.2,7622],[42.2,7700],[41.9,7780],[40.5,7875],[38.2,7955],[30.9,8032],[24.7,8113],[21.1,8194],[18,8273],[14.2,8353],[11.5,8434],[9.8,8512],[8.5,8595],[8.4,8671],[8.1,8751],[7.6,8831],[7.4,8912],[7.4,8992],[7.4,9072],[7.4,9152],[7.4,9232],[7.4,9312],[7.4,9396],[7.4,9473],[4.2,9554],[0.9,9635],[0.8,9716],[0.8,9793],[0.8,9873],[0.8,9953],[0.8,10033],[0.8,10115],[0.8,10197],[0.8,10275],[0.8,10354],[0.8,10434],[0.8,10514],[0.8,10594],[0.8,10674],[0.8,10754],[0.8,10836],[0.8,10914],[0.8,10995],[0.5,11077],[0.3,11155],[0.3,11235],[0.3,11317],[0.3,11395],[0.3,11476],[0.3,11555],[0.3,11640],[0.3,11716],[0.3,11796],[0.3,11876],[0.3,11956],[0.3,12038],[0.3,12116],[0.3,12196],[0.3,12276],[0.3,12361],[0.3,12437],[0.3,12517],[0.3,12597],[0.3,12677],[0.3,12757],[0.3,12837],[0.3,12917],[0.3,12997],[0.3,13077],[0.3,13158],[0.3,13237],[0.3,13318],[0.3,13398],[0.3,13480],[0.3,13558],[0.3,13642],[0.3,13718],[0.3,13798],[0.3,13879],[0.3,13959],[0.3,14039],[0.3,14122],[0.3,14209],[0.3,14293],[0.3,14369],[0.2,14449],[0.2,14530],[0.2,14610],[0.2,14689],[0.2,14770],[0.2,14850],[0.2,14930],[0.2,15010],[0.2,15090],[0.2,15170],[0.2,15250],[0.2,15330],[0.2,15411],[0.2,15491],[0.2,15571],[0.2,15651],[0.2,15731],[0.2,15811],[0.2,15891],[0.2,15973],[0.2,16052],[0.2,16132],[0.2,16212],[0.2,16292],[0.2,16372],[0.2,16452],[0.2,16532],[0.2,16612],[0.2,16692],[0.2,16773],[0.2,16852],[0.2,16933],[0.2,17013],[0.2,17093],[0.2,17173],[0.2,17253],[0.2,17334],[0.2,17413],[0.2,17493],[0.2,17574],[0.2,17653],[0.2,17734],[0.2,17814],[0.2,17894],[0.2,17975],[0.2,18054],[0.2,18134],[0.2,18214],[0.2,18294],[0.2,18375],[0.2,18455],[0.2,18535],[0.2,18615],[0.2,18695],[0.2,18775],[0.2,18855],[0.2,18935],[0.2,19015],[0.2,19096],[0.2,19176],[0.2,19256],[0.2,19336],[0.2,19416],[0.2,19496],[0.2,19576],[0.2,19656],[0.2,19736],[0.2,19817],[0.2,19896],[0.2,19977],[0.2,20057],[0.2,20137],[0.2,20217],[0.2,20297],[0.2,20377],[0.2,20457],[0.2,20538],[0.2,20618],[0.2,20698],[0.2,20778],[0.2,20858],[0.2,20938],[0.2,21018]]",1,0,734.0802,736.4433,3.313953488,2.1482,"[{""rating"":3.3139534883720954,""responseTime"":2.1481999999880372}]",space,1.8454,,736.4433,Not at all,0,736.444,,,[],,0,7,7,7,1,audio/Narrative7Situation7.wav,audio/Narrative8Situation7.wav,audio/Narrative5Situation7.wav,audio/Narrative6Situation7.wav,5,3,4,5,,,,,,,,,,,,,,,,,,,,,,,,,,,,,,,,,,,,,,,
,,,,,,580670eceee5dc00017584c6,2024-05-13_10h44.11.066,group3.1-3.2-social-tom,2023.2.2,Win32,100,65c5074098b851296ff0b7ed,664234352b230208b3c86edb,,,,,,,,,,,,,,,,,,,,,,,,,,,,,736.4441,2,audio/Narrative5Situation8.wav,739.4474,,739.4474,748.2495,"[[3.1,1521],[2,1602],[1.8,1682],[1.8,1762],[1.7,1842],[1.6,1922],[1.6,2002],[1.6,2083],[1.6,2162],[1.5,2242],[1.2,2323],[1,2403],[0.6,2483],[0.5,2563],[0.3,2643],[0.1,2723],[0.1,2803],[0.1,2883],[0.1,2964],[0.1,3044],[0.1,3124],[0.1,3204],[0.1,3284],[0.1,3364],[0.1,3445],[0.1,3524],[0.1,3604],[0.1,3684],[0.1,3764],[0.1,3845],[0.1,3925],[0.1,4005],[0.1,4085],[0.1,4165],[0.1,4245],[0.1,4326],[0.1,4406],[0.1,4486],[0.1,4566],[0.1,4646],[0.1,4726],[0.1,4806],[0.1,4887],[0.1,4966],[0.1,5046],[0.1,5126],[0.1,5207],[0.1,5288],[0.1,5367],[0.1,5447],[0.1,5527],[0.1,5607],[0.1,5688],[0.1,5767],[0.1,5848],[0.1,5928],[0.1,6008],[0.1,6088],[0.1,6168],[0.1,6248],[0.1,6328],[0.1,6408],[0.1,6489],[0.3,6568],[0.6,6649],[0.8,6729],[0.8,6809],[0.9,6889],[1,6969],[1,7049],[1.2,7130],[1.3,7209],[1.5,7289],[1.6,7370],[1.6,7450],[1.6,7530],[1.6,7610],[1.6,7690],[1.6,7770],[1.6,7850],[1.6,7931],[1.6,8010],[1.5,8091],[1.4,8171],[1.3,8251],[1.2,8331],[0.9,8411],[0.6,8491],[0.5,8571],[0.4,8651],[0.3,8731]]",1,0,748.2495,751.3374,4.127906977,0.9757,"[{""rating"":4.127906976744184,""responseTime"":0.9756999999881373}]",space,2.5706,,751.3374,Definitely yes,100,751.3386,,,[],,0,8,8,8,1,audio/Narrative7Situation8.wav,audio/Narrative8Situation8.wav,audio/Narrative5Situation8.wav,audio/Narrative6Situation8.wav,2,3,3,5,,,,,,,,,,,,,,,,,,,,,,,,,,,,,,,,,,,,,,,
,,,,,,580670eceee5dc00017584c6,2024-05-13_10h44.11.066,group3.1-3.2-social-tom,2023.2.2,Win32,100,65c5074098b851296ff0b7ed,664234352b230208b3c86edb,,,,,,,,,,,,,,,,,,,,,,,,,,,,,751.3387,2,audio/Narrative5Situation9.wav,754.3403,,754.3403,793.8844,"[[1,479],[0.8,560],[0.8,639],[0.8,719],[0.8,801],[0.8,880],[0.8,961],[0.8,1040],[0.8,1120],[0.5,1200],[0.4,1283],[0.3,1362],[0.3,1440],[0.2,1520],[0.2,1602],[0.2,1681],[0.2,1761],[0.2,1843],[0.1,1921],[0.1,2002],[0.1,2083],[0.1,2161],[0.1,2241],[0.1,2323],[0.1,2402],[0.1,2482],[0.1,2564],[0.1,2642],[0.1,2722],[0.1,2804],[0.1,2884],[0.1,2962],[0.1,3043],[0.1,3124],[0.1,3203],[0.1,3283],[0.1,3365],[0.1,3443],[0.1,3524],[0.1,3605],[0.1,3683],[0.1,3764],[0.1,3845],[0.1,3924],[0.1,4006],[0.1,4091],[0.1,4193],[0.1,4273],[0.1,4353],[0.1,4433],[0.1,4514],[0.1,4593],[0.1,4673],[0.1,4753],[0.1,4833],[0.1,4914],[0.1,4995],[0.1,5074],[0.1,5154],[0.1,5234],[0.1,5314],[0.1,5394],[0.1,5474],[0.1,5554],[0.1,5635],[0.1,5715],[0.1,5795],[0.1,5875],[0.1,5955],[0.1,6035],[0.1,6115],[0.1,6196],[0.1,6276],[0.1,6356],[0.1,6436],[0.1,6516],[0.1,6596],[0.1,6676],[0.1,6756],[0.1,6836],[0.1,6917],[0.1,6997],[0.1,7076],[0.1,7157],[0.1,7237],[0.1,7317],[0.1,7397],[0.1,7477],[0.1,7557],[0.1,7637],[0.1,7717],[0.1,7798],[0.1,7878],[0.1,7958],[0.1,8038],[0.1,8118],[0.1,8198],[0.1,8278],[0.1,8358],[0.1,8438],[0.1,8519],[0.1,8599],[0.1,8679],[0.1,8759],[0.1,8839],[0.1,8919],[0.1,8999],[0.1,9079],[0.1,9159],[0.1,9240],[1.5,19506],[3.5,19586],[5.2,19667],[7.3,19747],[8,19824],[8.1,19907],[8.8,19987],[9.5,20066],[10.1,20147],[10.8,20228],[13.7,20307],[15.5,20385],[16.7,20468],[18.7,20547],[21.2,20628],[21.8,20705],[22.2,20788],[22.9,20867],[24.1,20948],[24.9,21029],[25,21106],[25,21186],[25,21270],[25,21346],[25,21426],[25,21506],[25.1,21588],[25.1,21667],[25.1,21747],[25.1,21827],[25.1,21909],[25.1,21990],[25.1,22067],[25.1,22147],[25.1,22227],[25.1,22310],[25.1,22387],[25.1,22468],[25.1,22550],[25.1,22628],[25.1,22708],[25.1,22788],[25.1,22870],[25.1,22948],[25.1,23032],[25.1,23108],[25.1,23189],[25.1,23272],[25.1,23351],[25.1,23429],[25.1,23513],[25.1,23590],[25.1,23669],[25.1,23750],[25.1,23830],[25.1,23910],[25.1,23992],[25.1,24070],[25.1,24153],[25.1,24230],[25.1,24310],[25.1,24391],[25.1,24470],[25.1,24554],[25.1,24631],[24.9,24714],[24.9,24795],[24.9,24873],[24.7,24951],[24.3,25031],[24.1,25114],[23.8,25192],[23.4,25275],[23,25354],[22.2,25432],[21,25512],[19,25594],[16.3,25674],[15.6,25752],[15.1,25835],[14.7,25912],[14.5,25996],[14.4,26075],[14.4,26154],[14,26235],[13.3,26316],[12.4,26395],[12.4,26475],[12.4,26556],[12.4,26635],[12.4,26717],[12.4,26796],[12.4,26875],[12.4,26955],[12.4,27036],[12.4,27115],[12.4,27196],[12.4,27276],[12.4,27357],[12.4,27436],[12.4,27518],[12.4,27596],[12.4,27676],[12.4,27758],[12.4,27838],[12.3,27917],[11.8,27999],[11.5,28077],[11.1,28157],[10.6,28237],[9.4,28319],[9.4,28397],[9.4,28481],[9.4,28559],[9.4,28638],[9.4,28718],[9.4,28799],[9.4,28878],[9.4,28962],[9.4,29039],[9.4,29118],[9.4,29202],[9.4,29279],[9.4,29359],[9.4,29442],[9.4,29520],[9.4,29599],[9.4,29680],[9.4,29761],[9.4,29839],[9.4,29921],[9.4,30004],[9.4,30080],[9.4,30162],[9.4,30240],[9.4,30321],[9.4,30400],[9.4,30481],[9.4,30560],[9.4,30640],[9.4,30722],[9.4,30802],[9.4,30881],[9.4,30964],[9.4,31042],[9.4,31121],[9.4,31201],[9.4,31283],[9.4,31361],[9.4,31442],[9.4,31523],[9.4,31602],[9.4,31682],[9.4,31763],[9.4,31842],[9.4,31922],[9.4,32004],[9.4,32082],[9.4,32165],[9.4,32244],[9.4,32325],[9.4,32403],[9.4,32483],[9.4,32564],[9.4,32643],[9.4,32723],[9.4,32805],[9.4,32883],[9.4,32965],[8.7,33045],[8,33124],[8,33206],[8,33285],[8,33365],[8,33444],[8,33525],[8,33605],[8,33685],[8,33767],[8,33846],[8,33947],[8,34023],[8,34104],[8,34184],[8,34264],[8,34344],[8,34424],[8,34506],[8,34584],[8,34668],[8,34747],[8,34825],[8,34905],[8,34987],[7,35065],[3.4,35145],[1.9,35227],[1.7,35305],[1.7,35389],[1.7,35469],[1.7,35546],[1.7,35626],[1.7,35706],[1.7,35788],[1.7,35866],[1.7,35950],[1.8,36026],[2.5,36109],[3.1,36192],[3.5,36270],[3.7,36347],[4.2,36429],[5,36509],[5.2,36587],[5.2,36670],[5.2,36747],[5.2,36827],[5.2,36912],[5.2,36992],[5.2,37068],[5.2,37148],[5.2,37228],[5.2,37310],[5.2,37388],[5.2,37468],[5.2,37551],[5.2,37629],[5.2,37709],[5.2,37789],[5.2,37869],[5.2,37949],[5.2,38031],[5.2,38112],[5.2,38189],[5.2,38269],[5.2,38349],[5.2,38432],[5.2,38510],[5.2,38590],[5.2,38672],[5.2,38754],[5.2,38832],[5.2,38912],[5.1,38995],[5,39074],[4.8,39153],[4.4,39234],[3.8,39314],[3.1,39393],[2.7,39473]]",1,0,793.8845,796.1654,22.09302326,2.073,"[{""rating"":22.093023255813954,""responseTime"":2.0730000000000928}]",space,1.7563,,796.1654,Definitely yes,100,796.1661,,,[],,0,9,9,9,1,audio/Narrative7Situation9.wav,audio/Narrative8Situation9.wav,audio/Narrative5Situation9.wav,audio/Narrative6Situation9.wav,2,3,3,4,,,,,,,,,,,,,,,,,,,,,,,,,,,,,,,,,,,,,,,
,,,,,,580670eceee5dc00017584c6,2024-05-13_10h44.11.066,group3.1-3.2-social-tom,2023.2.2,Win32,100,65c5074098b851296ff0b7ed,664234352b230208b3c86edb,,,,,,,,,,,,,,,,,,,,,,,,,,,,,796.1662,2,audio/Narrative6Situation1.wav,798.1682,,798.1682,824.7441,"[[999,0],[999,79],[999,159],[999,239],[999,320],[999,399],[999,480],[999,560],[999,640],[999,720],[999,800],[999,880],[999,961],[999,1040],[999,1121],[999,1201],[999,1281],[999,1361],[999,1441],[999,1521],[999,1601],[999,1682],[999,1762],[999,1841],[999,1922],[999,2002],[999,2082],[999,2169],[999,2252],[999,2336],[999,2414],[999,2492],[999,2573],[999,2656],[999,2735],[999,2813],[999,2893],[999,2974],[999,3053],[999,3134],[999,3213],[999,3294],[999,3377],[0.1,4899],[0.2,4976],[0.2,5059],[0.2,5141],[0.2,5217],[0.2,5300],[1.4,5380],[20.8,5460],[39.6,5541],[42.4,5620],[46.7,5699],[50.2,5779],[54,5861],[54.9,5939],[54.9,6017],[54.9,6101],[56,6181],[59.4,6260],[60.6,6338],[60.8,6421],[64.7,6500],[66.9,6581],[68.5,6662],[70.1,6741],[70.3,6818],[70.3,6902],[70.3,6979],[70.6,7062],[80.3,7143],[88,7221],[91.9,7302],[96.3,7383],[98.3,7461],[98.3,7542],[100,7623],[100,7701],[100,7784],[100,7860],[100,7941],[100,8020],[100,8100],[100,8180],[100,8262],[100,8343],[100,8421],[100,8503],[100,8584],[100,8661],[100,8741],[100,8822],[100,8901],[100,8983],[100,9062],[100,9145],[100,9222],[100,9302],[100,9382],[100,9462],[100,9542],[100,9622],[100,9702],[100,9785],[100,9866],[100,9945],[100,10025],[100,10106],[100,10183],[100,10263],[100,10345],[100,10423],[100,10505],[100,10584],[100,10666],[100,10746],[100,10824],[100,10904],[100,10986],[100,11068],[100,11148],[100,11225],[100,11307],[100,11385],[100,11465],[100,11545],[96.6,11628],[86.4,11707],[78,11787],[70.3,11868],[65.6,11947],[62.2,12029],[59.6,12108],[57.2,12188],[55.1,12268],[54.6,12346],[54.6,12426],[54.6,12506],[53.5,12591],[51.8,12670],[51.7,12746],[51.7,12826],[51.7,12907],[51.7,12989],[51.7,13067],[51.7,13147],[51.7,13227],[51.7,13307],[51.7,13387],[51.7,13467],[51.7,13548],[51.7,13632],[51.7,13708],[51.7,13788],[51.7,13868],[51.7,13948],[51.7,14028],[51.7,14108],[51.7,14192],[51.7,14269],[51.7,14351],[51.7,14429],[51.7,14509],[51.7,14590],[51.7,14669],[51.7,14753],[51.7,14831],[51.7,14913],[51.7,14990],[51.7,15070],[51.7,15155],[51.7,15230],[51.8,15310],[51.9,15390],[52,15470],[52.2,15551],[52.7,15630],[55,15714],[57.8,15791],[58.7,15871],[59,15955],[60,16035],[60.9,16115],[61.7,16201],[61.9,16281],[61.9,16361],[63.7,16442],[65,16522],[65,16602],[65,16682],[65,16762],[65,16842],[65,16923],[65,17003],[65,17082],[65,17163],[65,17243],[65,17323],[65,17403],[65.6,17483],[68.8,17563],[69.7,17643],[69.7,17724],[69.7,17803],[69.7,17884],[71.5,17964],[74.1,18044],[75.5,18124],[75.5,18205],[75.5,18284],[75.5,18364],[75.5,18445],[75.5,18525],[75.5,18605],[75.5,18685],[75.5,18765],[75.5,18845],[75.5,18925],[75.5,19005],[75.5,19085],[75.5,19165],[75.5,19245],[75.5,19326],[75.5,19406],[75.5,19486],[75.5,19566],[75.5,19646],[75.5,19727],[75.5,19806],[75.5,19886],[75.5,19967],[75.5,20046],[75.5,20127],[75.5,20207],[75.5,20287],[75.5,20367],[75.5,20447],[75.5,20527],[75.5,20607],[75.5,20687],[75.5,20768],[75.5,20848],[75.5,20928],[75.5,21008],[75.5,21088],[75.5,21168],[75.5,21248],[75.5,21328],[77.6,21408],[86.9,21498],[92.4,21579],[96.6,21659],[100,21739],[100,21819],[100,21899],[100,21979],[100,22060],[100,22139],[100,22220],[100,22300],[100,22380],[100,22461],[100,22540],[100,22620],[100,22700],[100,22780],[100,22861],[100,22940],[100,23021],[100,23101],[100,23181],[100,23261],[100,23341],[100,23421],[100,23501],[100,23582],[100,23662],[100,23741],[100,23822],[100,23902],[100,23982],[100,24062],[100,24142],[100,24222],[100,24302],[100,24383],[100,24462],[100,24543],[100,24623],[100,24703],[100,24783],[100,24863],[100,24943],[100,25024],[100,25103],[100,25183],[100,25264],[100,25344],[100,25424],[100,25504],[100,25585],[100,25664],[100,25744],[100,25825],[100,25904],[100,25985],[100,26065],[100,26145],[100,26225],[100,26305],[100,26385],[100,26465],[100,26545]]",1,0,824.7442,832.1043,100,3.0918,"[{""rating"":98.83720930232558,""responseTime"":2.024299999952291},{""rating"":100,""responseTime"":3.0917999999522863}]",space,6.8442,,832.1043,Definitely yes,100,832.1092,,,[],,0,10,10,10,1,audio/Narrative8Situation1.wav,audio/Narrative7Situation1.wav,audio/Narrative6Situation1.wav,audio/Narrative5Situation1.wav,5,2,2,5,,,,,,,,,,,,,,,,,,,,,,,,,,,,,,,,,,,,,,,
,,,,,,580670eceee5dc00017584c6,2024-05-13_10h44.11.066,group3.1-3.2-social-tom,2023.2.2,Win32,100,65c5074098b851296ff0b7ed,664234352b230208b3c86edb,,,,,,,,,,,,,,,,,,,,,,,,,,,,,832.1093,2,audio/Narrative6Situation2.wav,835.1123,,835.1123,863.5975,"[[999,0],[999,76],[999,156],[999,239],[999,316],[999,396],[999,476],[999,556],[999,638],[999,720],[999,799],[999,877],[999,960],[999,1039],[999,1117],[999,1201],[999,1281],[14.8,1360],[14.7,1437],[14.4,1521],[14,1600],[14,1678],[14,1758],[14,1840],[14.1,1918],[13.3,2000],[13.3,2082],[13.3,2162],[13,2239],[6.2,2319],[0.1,4492],[2.6,4572],[5.5,4652],[7.8,4732],[8.7,4812],[8.7,4892],[8.7,4972],[8.8,5053],[8.8,5133],[8.8,5213],[8.8,5293],[9.1,5373],[14.8,5453],[20.7,5533],[21.5,5613],[21.8,5693],[23.5,5774],[25.2,5854],[25.4,5934],[25.9,6014],[26,6094],[26,6174],[26,6254],[26,6334],[26,6415],[26,6494],[26,6575],[26,6655],[26,6735],[26,6815],[25.7,6895],[25.3,6975],[25.3,7056],[25.3,7136],[25.3,7216],[25.3,7296],[26.4,7376],[28.1,7456],[31.1,7536],[33,7616],[33,7696],[33,7776],[33,7856],[33,7937],[33,8017],[33,8097],[33,8177],[33.3,8268],[34,8349],[34,8431],[34,8510],[34,8587],[32.4,8670],[31.3,8748],[31.3,8828],[31.3,8908],[31.3,8988],[31.3,9068],[31.3,9148],[31.3,9228],[30.1,9310],[26.7,9388],[26.5,9472],[26.5,9551],[26.5,9629],[25.6,9712],[24,9791],[22.9,9871],[22.2,9952],[22.2,10029],[22.2,10109],[22.2,10189],[22.2,10273],[22.2,10352],[22.2,10434],[21.6,10512],[20.8,10590],[20.8,10670],[20.8,10750],[20.8,10830],[20.8,10911],[20.8,10991],[20.8,11072],[20.8,11151],[20.8,11231],[20.8,11313],[20.8,11391],[20.8,11471],[20.8,11551],[20.8,11631],[20.8,11712],[20.8,11792],[20.8,11872],[20.8,11956],[20.8,12034],[20.8,12116],[20.8,12192],[20.8,12275],[20.8,12353],[20.8,12433],[20.8,12513],[20.8,12593],[20.8,12673],[20.8,12753],[20.8,12835],[20.8,12913],[20.8,12994],[20.8,13073],[20.8,13153],[21.9,13237],[23.6,13318],[27.1,13407],[30.4,13486],[34.7,13566],[38.9,13648],[49.4,14528],[49.3,14609],[49.3,14687],[49.3,14766],[49.3,14846],[49.3,14926],[49.2,15006],[45.6,15089],[44.2,15168],[41.3,15248],[37.9,15329],[35.9,15408],[34.7,15489],[32.7,15570],[29.5,15649],[26.8,15729],[23.7,15811],[22.2,15891],[21.2,15969],[20.9,16048],[20.9,16128],[20.9,16208],[20.9,16288],[20.9,16371],[20.9,16450],[20.9,16528],[20.9,16612],[20.9,16688],[20.9,16769],[20.9,16849],[20.9,16929],[20.9,17009],[20.9,17089],[20.9,17169],[20.9,17249],[20.9,17333],[20.9,17412],[20.9,17490],[20.9,17573],[20.9,17650],[20.9,17730],[20.9,17810],[20.9,17890],[20.9,17971],[20.9,18050],[20.9,18130],[20.9,18213],[20.9,18291],[20.9,18371],[20.9,18451],[20.9,18531],[20.9,18615],[20.9,18691],[20.9,18771],[20.9,18851],[20.9,18931],[20.9,19012],[20.9,19092],[20.9,19172],[20.9,19252],[20.9,19336],[20.9,19412],[20.9,19495],[20.9,19572],[20.9,19653],[20.9,19733],[20.9,19813],[20.9,19893],[20.9,19973],[20.9,20053],[20.9,20133],[20.2,20216],[19.2,20293],[17.8,20373],[16,20456],[14.7,20539],[14.7,20614],[14.4,20696],[11.3,20778],[8.9,20858],[8.8,20934],[13.4,21017],[61.1,21098],[72.4,21174],[72.5,21255],[74,21345],[79.3,21429],[84.1,21509],[84.8,21585],[85.9,21667],[90.1,21749],[94.6,21827],[99.7,21909],[100,21989],[100,22066],[100,22146],[100,22226],[100,22306],[100,22386],[100,22470],[100,22546],[100,22629],[100,22707],[100,22787],[100,22867],[100,22947],[100,23027],[100,23107],[100,23187],[100,23268],[100,23348],[100,23428],[100,23508],[100,23588],[100,23668],[100,23752],[100,23829],[100,23908],[100,23989],[100,24072],[100,24151],[100,24233],[100,24309],[100,24389],[100,24471],[100,24549],[100,24630],[100,24715],[100,24793],[100,24872],[100,24952],[100,25030],[100,25111],[100,25192],[100,25274],[100,25352],[100,25430],[100,25511],[100,25597],[100,25671],[100,25755],[100,25831],[100,25913],[100,25993],[100,26075],[100,26153],[100,26232],[100,26312],[100,26392],[100,26472],[100,26554],[100,26632],[100,26712],[100,26792],[100,26872],[100,26957],[100,27043],[100,27123],[100,27203],[100,27283],[100,27363],[100,27443],[100,27523],[100,27603],[100,27683],[100,27764],[100,27844],[100,27924],[100,28005],[100,28084],[100,28164],[100,28244],[100,28325],[100,28405],[100,28485]]",1,0,863.5975,865.9507,100,2.0973,"[{""rating"":100,""responseTime"":2.0973000000119555}]",space,1.8376,,865.9508,Partially,50,865.952,,,[],,0,11,11,11,1,audio/Narrative8Situation2.wav,audio/Narrative7Situation2.wav,audio/Narrative6Situation2.wav,audio/Narrative5Situation2.wav,3,3,3,3,,,,,,,,,,,,,,,,,,,,,,,,,,,,,,,,,,,,,,,
,,,,,,580670eceee5dc00017584c6,2024-05-13_10h44.11.066,group3.1-3.2-social-tom,2023.2.2,Win32,100,65c5074098b851296ff0b7ed,664234352b230208b3c86edb,,,,,,,,,,,,,,,,,,,,,,,,,,,,,865.9521,2,audio/Narrative6Situation3.wav,870.9573,,870.9573,883.5568,"[[999,4],[999,83],[999,164],[999,250],[999,332],[999,412],[999,490],[999,570],[999,651],[999,732],[999,811],[999,893],[999,974],[999,1054],[999,1133],[999,1215],[9.5,1294],[7,1373],[5.1,1454],[4.2,1533],[4.1,1612],[4.1,1692],[4,1774],[3.4,1854],[1.9,1935],[1.8,2014],[1.8,2092],[1.8,2173],[1.8,2253],[1.8,2333],[1.8,2413],[1.8,2495],[1.8,2573],[1.8,2657],[1.8,2735],[1.8,2813],[1.8,2894],[1.8,2976],[1.8,3056],[1.8,3137],[1.8,3214],[1.8,3297],[1.8,3374],[1.8,3456],[1.2,3536],[1.2,3615],[1.2,3695],[1,3776],[1,3855],[1,3939],[0.8,4017],[0.6,4095],[0.6,4176],[0.6,4255],[0.6,4335],[0.6,4416],[0.6,4496],[0.6,4576],[0.6,4656],[0.6,4738],[0.6,4818],[0.6,4896],[0.6,4976],[0.6,5057],[0.6,5140],[0.6,5217],[0.6,5299],[0.6,5382],[0.6,5461],[0.6,5539],[0.6,5618],[0.6,5697],[0.6,5780],[0.6,5860],[0.6,5942],[0.6,6020],[0.6,6098],[0.6,6178],[0.6,6259],[0.6,6340],[0.6,6418],[0.6,6499],[0.6,6579],[0.6,6661],[3.5,6742],[20.6,6821],[35.6,6901],[50,6983],[66.6,7061],[80.8,7142],[94.2,7223],[100,7302],[100,7382],[100,7464],[100,7540],[100,7620],[100,7700],[100,7780],[100,7860],[100,7941],[100,8026],[100,8104],[100,8181],[100,8264],[100,8341],[100,8421],[100,8501],[100,8581],[100,8661],[100,8741],[100,8822],[100,8904],[100,8985],[100,9062],[100,9142],[100,9222],[100,9307],[100,9383],[100,9463],[100,9546],[100,9623],[100,9705],[100,9783],[100,9866],[100,9943],[100,10023],[100,10103],[100,10183],[100,10264],[100,10344],[100,10424],[100,10504],[100,10584],[100,10664],[100,10744],[100,10824],[100,10905],[100,10985],[100,11065],[100,11147],[100,11225],[100,11305],[100,11387],[100,11465],[100,11546],[100,11625],[100,11706],[100,11786],[100,11866],[100,11949],[100,12031],[100,12109],[100,12186],[100,12267],[100,12349],[100,12430],[100,12509],[99,12590]]",1,0,883.5569,885.0786,100,1.119,"[{""rating"":100,""responseTime"":1.1190000000000282}]",space,1.0019,,885.0786,Definitely yes,100,885.0798,,,[],,0,12,12,12,1,audio/Narrative8Situation3.wav,audio/Narrative7Situation3.wav,audio/Narrative6Situation3.wav,audio/Narrative5Situation3.wav,4,8,5,3,,,,,,,,,,,,,,,,,,,,,,,,,,,,,,,,,,,,,,,
,,,,,,580670eceee5dc00017584c6,2024-05-13_10h44.11.066,group3.1-3.2-social-tom,2023.2.2,Win32,100,65c5074098b851296ff0b7ed,664234352b230208b3c86edb,,,,,,,,,,,,,,,,,,,,,,,,,,,,,885.0799,2,audio/Narrative6Situation4.wav,887.0801,,887.0801,899.6967,"[[999,0],[999,79],[999,162],[999,241],[999,319],[999,399],[999,480],[999,565],[999,643],[999,722],[999,805],[999,884],[999,962],[999,1044],[999,1124],[999,1202],[9.7,1283],[5.8,1365],[3.4,1443],[3.1,1523],[1.2,1605],[1,1681],[0.3,1761],[0.1,2562],[0.1,2646],[0.1,2723],[0.1,2805],[0.1,2883],[0.1,2966],[0.1,3045],[0.1,3129],[0.1,3205],[0.1,3283],[0.1,3363],[0.1,3444],[0.1,3526],[0.1,3604],[0.1,3684],[0.1,3764],[0.1,3848],[0.1,3925],[0.1,4004],[0.1,4084],[0.1,4165],[0.1,4247],[0.1,4325],[0.1,4407],[0.1,4485],[0.1,4569],[0.1,4645],[0.1,4725],[0.1,4806],[0.1,4888],[0.1,4966],[0.1,5046],[0.1,5126],[0.1,5210],[0.1,5287],[0.1,5366],[0.1,5446],[0.1,5528],[0.1,5607],[0.1,5687],[0.1,5769],[0.1,5847],[0.1,5927],[0.1,6007],[0.1,6088],[0.1,6168],[0.1,6248],[0.1,6328],[0.1,6408],[0.1,6490],[0.1,6571],[0.1,6649],[0.1,6728],[0.1,6808],[0.1,6888],[0.1,6968],[0.1,7049],[0.1,7132],[0.1,7209],[0.1,7294],[0.1,7369],[0.1,7449],[0.1,7531],[0.1,7609],[0.1,7689],[0.1,7772],[0.1,7854],[0.1,7931],[0.1,8012],[0.1,8090],[0.1,8172],[0.1,8250],[0.1,8330],[0.1,8412],[0.1,8493],[0.1,8571],[0.1,8651],[0.1,8731],[0.1,8811],[0.1,8891],[0.1,8971],[0.1,9051],[0.1,9133],[0.1,9212],[0.1,9292],[0.1,9372],[0.1,9452],[0.1,9532],[0.1,9612],[0.1,9694],[0.1,9777],[0.1,9857],[0.1,9933],[0.1,10013],[0.1,10093],[0.1,10173],[0.1,10255],[0.1,10334],[0.1,10415],[0.1,10496],[0.1,10574],[0.1,10654],[0.1,10734],[0.1,10824],[0.1,10907],[0.1,10984],[0.1,11067],[0.1,11146],[0.1,11224],[0.1,11305],[0.1,11385],[0.1,11465],[0.1,11549],[0.1,11625],[0.1,11705],[0.1,11785],[0.1,11867],[0.1,11945],[0.1,12029],[0.1,12106],[0.1,12186],[0.1,12266],[0.1,12346],[0.1,12426],[0.1,12510],[0.1,12586]]",1,0,899.6968,903.3618,10.34883721,3.4768,"[{""rating"":10.348837209302324,""responseTime"":3.476800000011849}]",space,3.1474,,903.3618,Not at all,0,903.363,,,[],,0,13,13,13,1,audio/Narrative8Situation4.wav,audio/Narrative7Situation4.wav,audio/Narrative6Situation4.wav,audio/Narrative5Situation4.wav,3,3,2,1,,,,,,,,,,,,,,,,,,,,,,,,,,,,,,,,,,,,,,,
,,,,,,580670eceee5dc00017584c6,2024-05-13_10h44.11.066,group3.1-3.2-social-tom,2023.2.2,Win32,100,65c5074098b851296ff0b7ed,664234352b230208b3c86edb,,,,,,,,,,,,,,,,,,,,,,,,,,,,,903.3631,2,audio/Narrative6Situation5.wav,905.3667,,905.3667,913.3159,"[[15.5,801],[9.7,881],[0.1,7047],[0.1,7127],[0.1,7207],[0.1,7293],[0.1,7368],[0.1,7447],[0.1,7538],[0.1,7618],[0.1,7698],[0.1,7778],[0.1,7858],[0.1,7940]]",1,0,913.3159,914.8277,5.639534884,1.2967,"[{""rating"":5.639534883720931,""responseTime"":1.29669999998805}]",space,0.9901,,914.8278,Definitely yes,100,920.3871,100,3.2771,"[{""rating"":100,""responseTime"":3.277099999964321}]",space,0,14,14,14,1,audio/Narrative8Situation5.wav,audio/Narrative7Situation5.wav,audio/Narrative6Situation5.wav,audio/Narrative5Situation5.wav,2,5,2,5,,,5.0389,,,,,,,,,,,,,,,,,,,,,,,,,,,,,,,,,,,,
,,,,,,580670eceee5dc00017584c6,2024-05-13_10h44.11.066,group3.1-3.2-social-tom,2023.2.2,Win32,100,65c5074098b851296ff0b7ed,664234352b230208b3c86edb,,,,,,,,,,,,,,,,,,,,,,,,,,,,,920.3873,2,audio/Narrative6Situation6.wav,922.3879,,922.388,933.4651,"[[999,0],[999,83],[999,160],[999,240],[999,322],[999,404],[999,480],[999,562],[999,640],[999,721],[999,800],[999,886],[999,961],[999,1041],[999,1123],[999,1201],[999,1284],[999,1364],[999,1445],[999,1522],[999,1601],[999,1682],[999,1762],[999,1842],[999,1922],[999,2002],[999,2086],[999,2162],[999,2243],[999,2325],[999,2403],[999,2490],[999,2567],[999,2646],[999,2725],[999,2805],[999,2887],[999,2965],[0.7,3045],[1,3128],[1.5,3207],[1.5,3284],[1.3,3370]]",1,0,933.4651,938.4832,0,4.843,"[{""rating"":0,""responseTime"":2.179499999999962},{""rating"":4.476744186046511,""responseTime"":3.966400000035719},{""rating"":0,""responseTime"":4.843000000000075}]",space,4.4812,,938.4832,Definitely yes,100,938.484,,,[],,0,15,15,15,1,audio/Narrative8Situation6.wav,audio/Narrative7Situation6.wav,audio/Narrative6Situation6.wav,audio/Narrative5Situation6.wav,2,3,2,3,,,,,,,,,,,,,,,,,,,,,,,,,,,,,,,,,,,,,,,
,,,,,,580670eceee5dc00017584c6,2024-05-13_10h44.11.066,group3.1-3.2-social-tom,2023.2.2,Win32,100,65c5074098b851296ff0b7ed,664234352b230208b3c86edb,,,,,,,,,,,,,,,,,,,,,,,,,,,,,938.484,2,audio/Narrative6Situation7.wav,943.4869,,943.4869,968.3269,"[[999,4],[999,83],[999,160],[999,240],[999,323],[999,402],[999,482],[999,560],[999,641],[999,720],[999,805],[999,881],[999,961],[999,1045],[999,1123],[1.9,1203],[1.7,1281],[1.6,1365],[1.5,1442],[0.9,1524],[0.1,1602],[6.4,6892],[54,6971],[72.3,7051],[77.6,7133],[82.7,7211],[87.1,7292],[92.2,7373],[94.5,7451],[97.4,7534],[98.3,7610],[98.5,7692],[99.3,7772],[99.4,7850],[100,7932],[100,8010],[100,8090],[100,8171],[100,8251],[100,8333],[100,8411],[100,8491],[100,8571],[100,8651],[100,8731],[100,8813],[100,8891],[100,8972],[100,9052],[100,9144],[100,9222],[100,9306],[100,9382],[100,9462],[100,9542],[100,9623],[100,9703],[100,9783],[100,9863],[100,9945],[100,10023],[100,10103],[100,10184],[100,10266],[100,10347],[100,10424],[100,10504],[100,10586],[100,10669],[100,10746],[100,10824],[100,10906],[100,10984],[100,11067],[100,11145],[100,11227],[100,11308],[100,11389],[100,11468],[100,11545],[100,11625],[100,11705],[100,11785],[100,11866],[100,11946],[100,12028],[100,12106],[100,12186],[100,12270],[100,12346],[100,12429],[100,12506],[100,12592],[100,12667],[100,12749],[100,12827],[100,12907],[100,12988],[100,13067],[100,13151],[100,13230],[100,13310],[100,13388],[100,13470],[100,13550],[100,13628],[100,13708],[100,13788],[100,13868],[100,13949],[100,14029],[100,14109],[100,14189],[100,14269],[100,14349],[100,14429],[100,14509],[100,14589],[100,14674],[100,14750],[100,14830],[100,14910],[100,14990],[100,15072],[100,15150],[100,15230],[100,15310],[100,15391],[100,15474],[100,15553],[100,15633],[100,15711],[100,15793],[100,15873],[100,15952],[100,16033],[100,16111],[100,16194],[98.5,16274],[96.3,16354],[96,16435],[96,16512],[94.9,16594],[91.7,16676],[91,16752],[90.3,16833],[88.5,16916],[87.1,16995],[86.3,17073],[86.3,17156],[86.3,17235],[86.1,17315],[85.6,17393],[85.5,17478],[85.3,17555],[84.9,17638],[84.8,17714],[84.8,17796],[84.6,17874],[84.5,17954],[84.5,18036],[84.5,18114],[84.1,18199],[82.5,18276],[82.4,18355],[82.4,18435],[82.4,18517],[82.4,18597],[83,18680],[84.8,18757],[87,18837],[88,18918],[89.2,18999],[91.3,19077],[92.7,19159],[93.4,19239],[94.4,19318],[95.1,19398],[95.8,19480],[97.2,19558],[98.7,19638],[99.2,19716],[99.2,19796],[99.2,19879],[99.2,19960],[99.2,20037],[99.5,20120],[100,20201],[100,20277],[100,20357],[100,20437],[100,20518],[100,20600],[100,20683],[100,20758],[100,20838],[100,20920],[100,20998],[100,21079],[100,21158],[100,21243],[100,21319],[100,21399],[100,21479],[100,21559],[100,21639],[100,21719],[100,21801],[100,21881],[100,21961],[100,22040],[100,22123],[100,22200],[100,22281],[100,22360],[100,22442],[100,22524],[100,22603],[100,22682],[100,22763],[100,22841],[100,22921],[100,23001],[100,23082],[100,23163],[100,23241],[100,23321],[100,23402],[100,23482],[100,23567],[100,23642],[100,23722],[100,23802],[100,23882],[100,23963],[100,24042],[100,24123],[100,24203],[100,24283],[100,24363],[100,24443],[100,24523],[100,24603],[100,24683],[100,24763]]",1,0,968.327,970.9043,100,2.2555,"[{""rating"":99.88372093023256,""responseTime"":1.7386999999880572},{""rating"":100,""responseTime"":2.2554999999999836}]",space,2.0562,,970.9043,Not at all,0,970.9055,,,[],,0,16,16,16,1,audio/Narrative8Situation7.wav,audio/Narrative7Situation7.wav,audio/Narrative6Situation7.wav,audio/Narrative5Situation7.wav,3,5,5,4,,,,,,,,,,,,,,,,,,,,,,,,,,,,,,,,,,,,,,,
,,,,,,580670eceee5dc00017584c6,2024-05-13_10h44.11.066,group3.1-3.2-social-tom,2023.2.2,Win32,100,65c5074098b851296ff0b7ed,664234352b230208b3c86edb,,,,,,,,,,,,,,,,,,,,,,,,,,,,,970.9056,2,audio/Narrative6Situation8.wav,975.9113,,975.9113,982.7507,"[[999,4],[999,80],[999,160],[999,240],[999,320],[999,403],[999,480],[999,562],[999,640],[999,722],[999,802],[999,883],[9.5,963],[7.3,1041],[7.3,1121],[7.3,1201],[6.5,1281],[2.4,1363]]",1,0,982.7507,985.384,0,2.416,"[{""rating"":0,""responseTime"":1.7303000000119937},{""rating"":0,""responseTime"":2.41599999999994}]",space,2.12,,985.384,Partially,50,985.3851,,,[],,0,17,17,17,1,audio/Narrative8Situation8.wav,audio/Narrative7Situation8.wav,audio/Narrative6Situation8.wav,audio/Narrative5Situation8.wav,3,2,5,3,,,,,,,,,,,,,,,,,,,,,,,,,,,,,,,,,,,,,,,
,,,,,,580670eceee5dc00017584c6,2024-05-13_10h44.11.066,group3.1-3.2-social-tom,2023.2.2,Win32,100,65c5074098b851296ff0b7ed,664234352b230208b3c86edb,,,,,,,,,,,,,,,,,,,,,,,,,,,,,985.3852,2,audio/Narrative6Situation9.wav,989.3898,,989.3898,999.3235,"[[4.1,881],[3.3,961],[2.6,1041],[2.2,1121],[0.9,1201],[0.6,1281],[0.5,1362]]",1,0,999.3235,1005.3635,0,2.6022,"[{""rating"":0,""responseTime"":2.602199999987988}]",space,5.5301,,1005.3636,Not at all,0,1005.3648,,,[],,0,18,18,18,1,audio/Narrative8Situation9.wav,audio/Narrative7Situation9.wav,audio/Narrative6Situation9.wav,audio/Narrative5Situation9.wav,3,2,4,3,,,,,,,,,,,,,,,,,,,,,,,,,,,,,,,,,,,,,,,
,,,,,,580670eceee5dc00017584c6,2024-05-13_10h44.11.066,group3.1-3.2-social-tom,2023.2.2,Win32,100,65c5074098b851296ff0b7ed,664234352b230208b3c86edb,,,,,,,,,,,,,,,,,,,,,,,,,,,,,,,,,,,,,,,,,,,,,,,,,,,,,,,,,,,,,,,,,,,,,,,,1005.3649,1036.3439,space,30.4561,,1036.3442,1048.9316,space,12.2802,,,,,,,,,,,,,,,,,,,,,,,,,,
,,,,,,580670eceee5dc00017584c6,2024-05-13_10h44.11.066,group3.1-3.2-social-tom,2023.2.2,Win32,100,65c5074098b851296ff0b7ed,664234352b230208b3c86edb,,,,,,,,,,,,,,,,,,,,,,,,,,,,,1051.5209,1,audio/Narrative8Situation9.wav,1053.5276,,,,,,,1085.393,1089.4267,22.79069767,2.9012,"[{""rating"":22.790697674418603,""responseTime"":2.9011999999879663}]",space,3.5056,,1085.3917,Definitely yes,100,1085.393,,,[],,,,,,,,,,,2,2,2,2,,,,,,,,,,,,,,,1048.9368,1051.5147,1053.5277,3,1085.3917,"[[999,0],[999,80],[999,159],[999,240],[999,320],[999,400],[999,480],[999,560],[999,640],[999,720],[999,801],[999,881],[999,961],[999,1041],[999,1121],[999,1201],[999,1281],[999,1361],[999,1441],[999,1521],[999,1601],[999,1682],[999,1761],[6.6,1842],[6.1,1922],[5.5,2002],[5.1,2082],[4.9,2162],[4.9,2242],[3.5,2323],[1.2,2402],[4.6,29720],[13.8,29800],[19.4,29880],[19.8,29960],[20,30040],[20.1,30121],[20.1,30201],[20.1,30281],[20.4,30361],[20.9,30441],[21,30521],[21,30601],[21,30681],[21,30761],[21,30841],[21,30922],[21,31002],[21,31082],[21,31163],[21,31243],[21,31322],[21,31402],[21,31482],[21,31562],[21,31643],[21,31723],[21,31803]]",0,0,0,0,1,"Larry had recently lost his family, job and home, and was now living on his own in the park. He had most of his belongings, including some clothes, a blanket, and his mother’s special necklace. His family had been very important to him and he felt as though he did not have much going for him. One of his first days in the park he came across a family that did not have much food and looked very cold. He decided to give them some of his food and his blanket.","Larry had recently lost his family, job and home, and was now living on his own in the park. He had most of his belongings, including some clothes, a blanket, and his mother’s special necklace. His family had been very important to him and he felt as though he did not have much going for him. One of his first days in the park he came across a family that did not have much food and looked very cold. He decided to give them some of his food and his blanket.","Larry had recently lost his family, job and home, and was now living on his own in the park. He had most of his belongings, including some clothes, a blanket, and his mother’s special necklace. His family had been very important to him and he felt as though he did not have much going for him. One of his first days in the park he came across a family that did not have much food and looked very cold. He decided to give them some of his food and his blanket.","Larry had recently lost his family, job and home, and was now living on his own in the park. He had most of his belongings, including some clothes, a blanket, and his mother’s special necklace. His family had been very important to him and he felt as though he did not have much going for him. One of his first days in the park he came across a family that did not have much food and looked very cold. He decided to give them some of his food and his blanket.",,,,,,,,,,
