exp_question,consent.started,consent.stopped,consentResponse.keys,consentResponse.rt,consentResponse.duration,participantID,date,expName,psychopyVersion,OS,frameRate,STUDY_ID,SESSION_ID,opening1.started,opening1.stopped,keyEndingOpening1.keys,keyEndingOpening1.rt,keyEndingOpening1.duration,volumeAdjust.started,volumeAdjust.stopped,endingAdjust.keys,endingAdjust.rt,endingAdjust.duration,opening2.started,opening2.stopped,keyEndingOpening.keys,keyEndingOpening.rt,keyEndingOpening.duration,mouse.x,mouse.y,mouse.leftButton,mouse.midButton,mouse.rightButton,mouse.time,instructionLoop.thisRepN,instructionLoop.thisTrialN,instructionLoop.thisN,instructionLoop.thisIndex,instructionLoop.ran,readyForAudio.started,readyForAudio.stopped,fixation.started,run,audio_played,fixation.stopped,endPractice.keys,audioPre.started,audioPre.stopped,continuousResponses_audio,continuousSlider.response,continuousSlider.rt,intRating.started,intRating.stopped,intQuestionSlider.response,intQuestionSlider.rt,intQuestionSlider.history,confirmResponse.keys,confirmResponse.rt,confirmResponse.duration,catchQuestion.started,catch_label,catch_value,catchQuestion.stopped,catchQuestionSlider.response,catchQuestionSlider.rt,catchQuestionSlider.history,confirmResponse_2.keys,audioRunLoop.thisRepN,audioRunLoop.thisTrialN,audioRunLoop.thisN,audioRunLoop.thisIndex,audioRunLoop.ran,conditions1_1,conditions2_1,conditions1_2,conditions2_2,dur1_1,dur2_1,dur1_2,dur2_2,endPractice.rt,endPractice.duration,confirmResponse_2.rt,confirmResponse_2.duration,runIntervalBreak.started,runIntervalBreak.stopped,endingBreakKey.keys,endingBreakKey.rt,endingBreakKey.duration,connection.started,connection.stopped,connectionEnding.keys,connectionEnding.rt,connectionEnding.duration,readyForText.started,readyForText.stopped,textPre.started,run_dup,textPre.stopped,continuousResponses_text,textRunLoop.thisRepN,textRunLoop.thisTrialN,textRunLoop.thisN,textRunLoop.thisIndex,textRunLoop.ran,text1_1,text1_2,text2_1,text2_2,runBreakText.started,runBreakText.stopped,endingBreakKey_2.keys,endingBreakKey_2.rt,endingBreakKey_2.duration,ending.started,ending.stopped,endingEnding.keys,endingEnding.rt,endingEnding.duration
tom,0.0008,13.3242,y,12.9974,,582bee72b1afc30001af4eb4,2024-02-08_16h06.54.006,group3.1-3.2-social-tom,2023.2.2,Win32,61.72839506,65c5074098b851296ff0b7ed,65c54182f551826588565dcc,,,,,,,,,,,,,,,,,,,,,,,,,,,,,,,,,,,,,,,,,,,,,,,,,,,,,,,,,,,,,,,,,,,,,,,,,,,,,,,,,,,,,,,,,,,,,,,,,,,,,,,,,,
,,,,,,582bee72b1afc30001af4eb4,2024-02-08_16h06.54.006,group3.1-3.2-social-tom,2023.2.2,Win32,61.72839506,65c5074098b851296ff0b7ed,65c54182f551826588565dcc,13.3244,17.2715,space,3.9132,,,,,,,,,,,,,,,,,,,,,,,,,,,,,,,,,,,,,,,,,,,,,,,,,,,,,,,,,,,,,,,,,,,,,,,,,,,,,,,,,,,,,,,,,,,,,,,,,,,,,,
,,,,,,582bee72b1afc30001af4eb4,2024-02-08_16h06.54.006,group3.1-3.2-social-tom,2023.2.2,Win32,61.72839506,65c5074098b851296ff0b7ed,65c54182f551826588565dcc,,,,,,17.2717,44.8807,space,27.2815,,,,,,,,,,,,,,,,,,,,,,,,,,,,,,,,,,,,,,,,,,,,,,,,,,,,,,,,,,,,,,,,,,,,,,,,,,,,,,,,,,,,,,,,,,,,,,,,,
,,,,,,582bee72b1afc30001af4eb4,2024-02-08_16h06.54.006,group3.1-3.2-social-tom,2023.2.2,Win32,61.72839506,65c5074098b851296ff0b7ed,65c54182f551826588565dcc,,,,,,,,,,,44.902,52.329,space,7.3998,,[],[],[],[],[],[],0,0,0,0,1,,,,,,,,,,,,,,,,,,,,,,,,,,,,,,,,,,,,,,,,,,,,,,,,,,,,,,,,,,,,,,,,,,,,,,,,,,,,,,,,
,,,,,,582bee72b1afc30001af4eb4,2024-02-08_16h06.54.006,group3.1-3.2-social-tom,2023.2.2,Win32,61.72839506,65c5074098b851296ff0b7ed,65c54182f551826588565dcc,,,,,,,,,,,52.3514,87.2031,space,34.7483,,[],[],[],[],[],[],1,0,1,0,1,,,,,,,,,,,,,,,,,,,,,,,,,,,,,,,,,,,,,,,,,,,,,,,,,,,,,,,,,,,,,,,,,,,,,,,,,,,,,,,,
,,,,,,582bee72b1afc30001af4eb4,2024-02-08_16h06.54.006,group3.1-3.2-social-tom,2023.2.2,Win32,61.72839506,65c5074098b851296ff0b7ed,65c54182f551826588565dcc,,,,,,,,,,,87.2255,99.5837,space,12.318,,[],[],[],[],[],[],2,0,2,0,1,,,,,,,,,,,,,,,,,,,,,,,,,,,,,,,,,,,,,,,,,,,,,,,,,,,,,,,,,,,,,,,,,,,,,,,,,,,,,,,,
,,,,,,582bee72b1afc30001af4eb4,2024-02-08_16h06.54.006,group3.1-3.2-social-tom,2023.2.2,Win32,61.72839506,65c5074098b851296ff0b7ed,65c54182f551826588565dcc,,,,,,,,,,,99.6047,116.8961,space,17.2548,,[],[],[],[],[],[],3,0,3,0,1,,,,,,,,,,,,,,,,,,,,,,,,,,,,,,,,,,,,,,,,,,,,,,,,,,,,,,,,,,,,,,,,,,,,,,,,,,,,,,,,
,,,,,,582bee72b1afc30001af4eb4,2024-02-08_16h06.54.006,group3.1-3.2-social-tom,2023.2.2,Win32,61.72839506,65c5074098b851296ff0b7ed,65c54182f551826588565dcc,,,,,,,,,,,116.9183,126.1448,space,9.2009,,[],[],[],[],[],[],4,0,4,0,1,,,,,,,,,,,,,,,,,,,,,,,,,,,,,,,,,,,,,,,,,,,,,,,,,,,,,,,,,,,,,,,,,,,,,,,,,,,,,,,,
,,,,,,582bee72b1afc30001af4eb4,2024-02-08_16h06.54.006,group3.1-3.2-social-tom,2023.2.2,Win32,61.72839506,65c5074098b851296ff0b7ed,65c54182f551826588565dcc,,,,,,,,,,,,,,,,,,,,,,,,,,,126.1712,128.7441,128.7923,1,audio/Narrative13Situation2.wav,130.7939,,130.7948,160.5604,"[[999,3],[999,148],[999,231],[999,314],[999,397],[999,480],[999,564],[999,647],[999,730],[999,814],[999,898],[999,981],[999,1064],[999,1147],[999,1230],[999,1315],[999,1398],[999,1481],[999,1564],[999,1647],[999,1731],[999,1813],[999,1897],[999,1981],[999,2064],[999,2147],[999,2230],[999,2314],[999,2396],[999,2480],[999,2564],[999,2646],[999,2730],[999,2814],[999,2897],[999,2980],[999,3064],[999,3147],[999,3230],[999,3313],[999,3396],[999,3480],[999,3564],[999,3647],[999,3731],[999,3814],[999,3897],[999,3982],[999,4064],[999,4147],[999,4231],[999,4313],[999,4397],[999,4482],[999,4565],[999,4649],[77.3,4731],[77.9,4814],[78.1,4896],[78.1,4980],[77.9,5063],[77.7,5146],[77.7,5231],[77.2,5314],[76.4,5397],[73.3,5483],[71.2,5563],[70.2,5647],[69.9,5730],[69.9,5813],[69.9,5896],[69.9,5980],[69.9,6063],[69.9,6148],[69.9,6230],[69.9,6313],[69.9,6396],[69.9,6481],[69.9,6563],[69.9,6646],[69.9,6730],[69.9,6813],[69.9,6897],[69.9,6981],[69.9,7063],[69.9,7146],[69.9,7230],[69.9,7313],[69.9,7396],[69.9,7480],[69.9,7563],[69.9,7647],[69.9,7730],[69.9,7814],[69.9,7896],[69.9,7980],[69.9,8062],[69.9,8146],[69.9,8229],[69.9,8312],[69.9,8396],[69.9,8479],[69.9,8562],[69.9,8646],[69.9,8730],[69.9,8812],[69.9,8896],[69.9,8980],[69.9,9063],[69.9,9146],[69.9,9229],[69.9,9313],[69.9,9396],[69.9,9479],[69.9,9563],[69.9,9646],[69.9,9729],[69.9,9813],[69.9,9896],[69.9,9979],[69.9,10062],[69.9,10146],[69.9,10229],[69.9,10312],[69.9,10395],[69.9,10479],[69.9,10562],[69.9,10645],[69.9,10729],[69.9,10812],[69.9,10895],[69.9,10979],[69.9,11062],[69.9,11145],[69.9,11229],[69.9,11312],[69.9,11396],[69.9,11479],[69.9,11562],[69.9,11645],[69.9,11729],[69.9,11812],[69.9,11895],[69.9,11979],[70.7,12065],[72.4,12145],[73.2,12229],[73.6,12313],[73.6,12395],[73.6,12478],[73.6,12562],[73.6,12646],[73.5,12729],[73.5,12813],[73.5,12895],[73.5,12978],[73.5,13061],[73.5,13145],[73.5,13229],[73.5,13312],[73.5,13395],[73.5,13478],[73.5,13562],[73.5,13645],[73.5,13728],[73.5,13812],[73.5,13895],[73.5,13978],[73.5,14062],[73.5,14145],[73.5,14228],[73.5,14312],[73.5,14395],[73.5,14478],[73.5,14562],[73.5,14644],[73.5,14728],[73.5,14812],[73.5,14895],[73.5,14978],[73.4,15064],[71.2,15145],[68.8,15229],[67.5,15312],[66.5,15397],[65.8,15480],[64.9,15562],[64.1,15645],[63.7,15728],[63,15812],[62.3,15895],[61.3,15978],[60.5,16061],[59.6,16147],[57.8,16229],[55.3,16313],[54.1,16397],[53.6,16479],[53.6,16561],[53.6,16646],[53.6,16729],[53.6,16811],[50.9,16895],[48,16977],[42.2,17061],[38.5,17144],[38.4,17228],[38.4,17310],[38.4,17394],[38.4,17479],[20.2,17561],[18.6,17644],[18.1,17728],[18.1,17811],[18.1,17894],[15.1,17978],[11.4,18062],[10.6,18144],[10.1,18228],[10,18311],[10,18394],[9.9,18478],[9.9,18562],[9.9,18645],[9.9,18727],[9.9,18811],[9.9,18894],[9.9,18977],[9.9,19060],[9.9,19143],[9.9,19227],[9.9,19311],[9.9,19394],[9.9,19477],[9.9,19561],[9.9,19644],[9.9,19727],[9.9,19811],[9.9,19893],[9.9,19977],[9.9,20060],[9.5,20143],[8.7,20227],[8.2,20310],[7.3,20394],[6.5,20477],[5.5,20560],[4.2,20644],[3.1,20728],[2,20810],[0.9,20893],[0.6,20976],[0.1,21060],[0.1,21143],[0.1,21226],[0.1,21313],[0.1,21393],[0.1,21477],[0.1,21560],[0.1,21644],[0.1,21726],[0.1,21810],[0.1,21893],[0.1,21977],[0.1,22061],[0.1,22143],[0.1,22227],[0.1,22311],[0.1,22393],[0.1,22477],[0.1,22560],[0.1,22642],[0.1,22726],[0.1,22810],[0.1,22893],[0.1,22976],[12.8,23060],[23.6,23143],[28.4,23226],[40.4,23310],[46.9,23393],[52,23476],[54.5,23559],[55.4,23643],[55.8,23726],[55.8,23809],[55.8,23892],[55.8,23976],[55.8,24059],[55.8,24142],[55.8,24226],[55.8,24310],[55.8,24392],[55.8,24749],[55.8,24831],[55.8,24909],[55.8,24993],[55.8,25075],[55.8,25164],[55.8,25242],[55.8,25333],[55.8,25409],[55.8,25492],[55.8,25576],[55.8,25659],[55.8,25748],[55.8,25832],[55.8,25909],[55.8,25992],[55.8,26083],[55.8,26166],[55.8,26242],[55.8,26331],[55.8,26409],[55.8,26498],[55.8,26575],[55.8,26658],[55.8,26745],[55.8,26831],[55.8,26908],[55.8,26992],[55.8,27075],[55.8,27158],[55.8,27242],[55.8,27325],[55.8,27408],[55.8,27492],[55.8,27575],[55.8,27659],[55.8,27748],[55.8,27828],[55.8,27913],[55.8,27997],[55.8,28082],[55.8,28158],[55.8,28242],[55.8,28325],[55.8,28409],[55.8,28492],[55.8,28575],[55.8,28664],[55.8,28744],[55.8,28831],[55.8,28912],[55.8,28996],[55.8,29080],[55.8,29163],[55.8,29247],[55.8,29325],[55.8,29408],[55.8,29493],[55.8,29575],[55.8,29664],[55.8,29742]]",1,0,160.561,168.4353,53.07268491,6.2334,"[{""rating"":53.07268490527569,""responseTime"":6.233400000095372}]",space,7.3361,,168.4356,Not at all,0,168.4399,,,[],,0,0,0,0,1,audio/Narrative13Situation2.wav,audio/Narrative13Situation2.wav,audio/Narrative13Situation2.wav,audio/Narrative13Situation2.wav,2,2,2,2,,,,,,,,,,,,,,,,,,,,,,,,,,,,,,,,,,,,,,,
,,,,,,582bee72b1afc30001af4eb4,2024-02-08_16h06.54.006,group3.1-3.2-social-tom,2023.2.2,Win32,61.72839506,65c5074098b851296ff0b7ed,65c54182f551826588565dcc,,,,,,,,,,,,,,,,,,,,,,,,,,,,,168.4402,1,audio/Narrative7Situation1.wav,170.1017,space,170.1018,225.9793,"[[999,2],[999,83],[999,165],[999,249],[999,333],[999,416],[999,499],[999,583],[999,665],[999,749],[999,832],[999,916],[999,999],[999,1082],[999,1165],[999,1249],[999,1333],[999,1415],[999,1499],[999,1583],[999,1665],[999,1749],[999,1832],[999,1916],[999,1999],[999,2082],[999,2166],[999,2249],[999,2333],[999,2416],[999,2499],[999,2583],[999,2665],[999,2749],[999,2832],[999,2917],[999,2999],[999,3082],[999,3166],[999,3248],[999,3331],[999,3415],[999,3499],[999,3582],[999,3665],[999,3748],[999,3832],[999,3915],[999,3998],[999,4081],[999,4164],[999,4248],[999,4332],[999,4415],[999,4499],[999,4584],[999,4667],[999,4748],[999,4831],[999,4915],[999,4999],[999,5082],[999,5167],[999,5248],[999,5333],[999,5415],[999,5498],[999,5582],[999,5665],[999,5749],[999,5831],[999,5915],[52.1,5998],[52.1,6082],[52.1,6166],[51.7,6249],[51.7,6332],[51.7,6414],[51.7,6498],[51.7,6581],[51.7,6664],[51.7,6748],[51.7,6831],[51.7,6914],[51.7,6998],[51.7,7082],[51.7,7165],[51.7,7248],[51.7,7331],[51.7,7415],[51.7,7497],[51.7,7581],[51.7,7664],[51.7,7748],[51.7,7831],[51.7,7914],[51.7,7997],[51.7,8081],[51.7,8164],[51.7,8247],[51.7,8330],[51.7,8414],[51.7,8497],[51.7,8581],[52.4,8666],[52.8,8748],[53.5,8831],[53.8,8915],[54.2,8998],[54.6,9081],[54.9,9164],[55.6,9248],[56.2,9331],[56.6,9415],[57,9497],[57.5,9581],[57.9,9664],[58.2,9748],[58.5,9831],[58.7,9914],[59.2,9997],[59.3,10080],[59.3,10164],[59.3,10247],[59.3,10331],[59.3,10415],[59.3,10497],[59.3,10580],[59.3,10663],[59.3,10747],[59.3,10830],[59.3,10913],[59.3,10997],[59.3,11080],[59.3,11163],[59.3,11247],[59.3,11331],[59.3,11414],[59.3,11496],[59.3,11580],[59.3,11664],[59.3,11747],[59.3,11830],[59.3,11913],[59.3,11997],[59.3,12080],[59.3,12163],[59.3,12246],[59.3,12330],[59.3,12414],[59.3,12496],[59.3,12580],[59.3,12664],[59.3,12746],[59.3,12829],[59.3,12913],[59.3,12996],[59.3,13080],[59.6,13165],[60.4,13253],[60.8,13336],[61.1,13419],[61.6,13503],[61.6,13586],[61.6,13669],[61.3,13754],[60.9,13835],[60.5,13912],[60.5,14001],[60.5,14087],[60.5,14168],[60,14253],[58.6,14336],[56.7,14420],[55.8,14503],[55.3,14588],[55,14669],[54.8,14754],[54.8,14836],[54.8,14918],[54.8,15003],[54.8,15086],[54.8,15169],[54.8,15251],[54.8,15335],[54.8,15419],[54.8,15496],[54.8,15585],[54.8,15663],[54.8,15751],[54.8,15829],[54.8,15912],[54.8,15995],[54.8,16079],[54.8,16168],[54.8,16252],[54.8,16335],[54.8,16414],[54.8,16495],[54.8,16586],[54.5,16669],[51.1,16753],[44.1,16836],[42,16919],[40.8,17003],[40.6,17085],[40.6,17166],[40.6,17246],[35.6,17337],[20.6,17418],[19.1,17502],[19.1,17585],[19.1,17662],[19.1,17750],[7.7,17834],[5.3,17918],[4,18003],[3.2,18078],[2.4,18169],[0.7,18252],[0.6,21501],[10.1,21595],[15.1,21679],[18.6,21761],[21.2,21845],[24.5,21928],[28.2,22011],[32.5,22096],[37.6,22178],[41.6,22262],[43.1,22346],[44,22428],[45.1,22512],[47.7,22595],[49.8,22678],[52,22761],[53.4,22844],[54.2,22927],[54.9,23010],[55.6,23094],[55.9,23177],[55.9,23260],[55.9,23344],[55.9,23427],[55.9,23510],[55.9,23593],[55.9,23677],[55.9,23761],[55.9,23844],[55.9,23927],[55.9,24010],[55.9,24094],[55.9,24177],[55.9,24260],[55.9,24343],[55.9,24427],[55.9,24511],[55.9,24594],[55.9,24677],[55.9,24760],[55.9,24844],[55.9,24927],[55.9,25010],[55.9,25095],[55.9,25177],[55.9,25260],[55.9,25344],[55.9,25427],[55.9,25511],[55.9,25595],[55.9,25677],[55.9,25760],[55.9,25844],[55.9,25927],[55.9,26010],[55.9,26094],[55.9,26177],[55.9,26260],[55.9,26344],[55.9,26427],[55.9,26510],[55.9,26593],[55.9,26677],[55.9,26760],[55.9,26844],[41.4,26927],[24.8,27010],[23.5,27094],[23.5,27176],[23.5,27260],[18.4,27344],[29.6,35008],[47.6,35093],[54.5,35175],[63,35261],[66.4,35342],[67.3,35425],[67.7,35509],[67.7,35592],[67.7,35675],[67.7,35758],[67.7,35842],[67.7,35925],[67.7,36008],[67.7,36092],[67.7,36174],[67.7,36258],[67.7,36341],[67.7,36425],[67.7,36508],[47.5,36592],[12.5,42590],[36.1,42673],[36.1,42757],[36.1,42840],[36.1,42924],[36.1,43006],[42.6,43091],[56.6,43175],[65.4,43257],[67.1,43340],[67.9,43424],[68.7,43507],[70,43590],[71,43676],[71.5,43756],[72.5,43841],[73.6,43925],[74.2,44007],[74.4,44090],[74.4,44174],[74.4,44256],[74.4,44339],[74.4,44424],[74.4,44506],[74.4,44590],[74.4,44674],[74.4,44756],[74.4,44839],[74.4,44924],[74.4,45006],[74.4,45090],[74.4,45173],[74.4,45256],[74.4,45340],[74.4,45424],[74.4,45507],[74.4,45590],[74.4,45673],[74.4,45756],[74.4,45839],[74.4,45923],[74.4,46006],[74.4,46089],[74.4,46173],[74.4,46256],[74.4,46340],[74.4,46423],[74.4,46506],[74.4,46589],[74.4,46673],[74.4,46756],[74.4,46839],[74.4,46923],[74.4,47006],[74.4,47090],[74.4,47173],[74.4,47256],[74.4,47341],[74.4,47423],[74.4,47506],[74.4,47589],[74.4,47673],[74.4,47756],[74.4,47839],[74.4,47923],[74.1,48006],[72.7,48096],[71.9,48178],[71.4,48257],[71.2,48346],[71.2,48422],[71.2,48510],[70.9,48596],[70.3,48679],[69.6,48762],[68.8,48846],[68.5,48923],[68.5,49006],[68.2,49089],[66,49178],[64,49262],[63.3,49346],[63,49429],[62.6,49505],[62.4,49588],[62.4,49676],[62.4,49756],[62.4,49844],[62.4,49922],[62.4,50010],[62.4,50094],[62.4,50177],[62.4,50255],[62.4,50344],[62.4,50427],[62.4,50505],[62.4,50593],[62.4,50672],[62.4,50755],[62.4,50838],[62.4,50922],[62.4,51011],[62.4,51094],[62.4,51171],[62.4,51260],[62.4,51338],[62.4,51428],[62.4,51510],[62.4,51596],[62.4,51672],[62.4,51761],[62.4,51842],[62.4,51927],[62.4,52010],[62.4,52094],[62.4,52172],[62.4,52262],[59.1,52345],[15.3,53178],[0.2,53261]]",1,0,225.9798,233.822,64.52520848,5.8974,"[{""rating"":64.52520847933404,""responseTime"":5.897399999976187}]",space,7.2849,,233.8224,Half the time,50,233.8316,,,[],,0,1,1,1,1,audio/Narrative7Situation1.wav,audio/Narrative8Situation1.wav,audio/Narrative5Situation1.wav,audio/Narrative6Situation1.wav,2,5,5,2,1.6408,,,,,,,,,,,,,,,,,,,,,,,,,,,,,,,,,,,,,,
,,,,,,582bee72b1afc30001af4eb4,2024-02-08_16h06.54.006,group3.1-3.2-social-tom,2023.2.2,Win32,61.72839506,65c5074098b851296ff0b7ed,65c54182f551826588565dcc,,,,,,,,,,,,,,,,,,,,,,,,,,,,,233.8327,1,audio/Narrative7Situation2.wav,236.8377,,236.8378,244.3189,"[[999,0],[999,82],[999,167],[999,249],[999,332],[999,416],[999,499],[999,582],[999,667],[999,749],[999,833],[999,916],[999,999],[999,1082],[999,1165],[999,1250],[999,1332],[999,1415],[999,1499],[999,1582],[999,1665],[999,1749],[999,1833],[999,1915],[999,2000],[999,2082],[999,2165],[999,2249],[999,2332],[999,2415],[999,2499],[999,2581],[999,2666],[999,2749],[999,2832],[999,2915],[999,2999],[999,3081],[999,3165],[999,3248],[999,3331],[999,3415],[999,3500],[999,3581],[999,3665],[999,3748],[999,3831],[999,3915],[999,4000],[999,4081],[999,4164],[999,4247],[999,4331],[999,4415],[999,4499],[999,4581],[999,4665],[999,4749],[999,4831],[999,4915],[999,4999],[999,5081],[999,5164],[999,5249],[999,5331],[999,5414],[999,5498],[999,5581],[999,5664],[999,5749],[999,5831],[999,5914],[999,5998],[999,6081],[999,6164],[999,6248],[999,6331],[999,6414],[999,6498],[999,6581],[999,6664],[999,6748],[999,6831],[999,6914],[999,6998],[999,7081],[999,7164],[999,7249],[999,7332],[999,7415]]",1,0,244.3192,251.2237,0,5.7856,"[{""rating"":1.1198905195583808,""responseTime"":4.977700000047662},{""rating"":0,""responseTime"":5.7856000000238055}]",space,6.3809,,251.2238,Half the time,50,257.7499,49.74104218,5.4084,"[{""rating"":49.741042179390526,""responseTime"":5.4083999999761545}]",space,0,2,2,2,1,audio/Narrative7Situation2.wav,audio/Narrative8Situation2.wav,audio/Narrative5Situation2.wav,audio/Narrative6Situation2.wav,3,3,3,3,,,5.9674,,,,,,,,,,,,,,,,,,,,,,,,,,,,,,,,,,,,
,,,,,,582bee72b1afc30001af4eb4,2024-02-08_16h06.54.006,group3.1-3.2-social-tom,2023.2.2,Win32,61.72839506,65c5074098b851296ff0b7ed,65c54182f551826588565dcc,,,,,,,,,,,,,,,,,,,,,,,,,,,,,257.7507,1,audio/Narrative7Situation3.wav,265.7649,,265.765,275.0293,"[[50.7,2350],[52,2434],[52.8,2515],[53.5,2598],[53.8,2682],[54.2,2765],[54.2,2849],[54.9,2932],[55.6,3016],[56.5,3099],[57,3182],[57.2,3265],[57.2,3348],[57.2,3432],[57.2,3514],[57.2,3598],[57.7,3683],[58.3,3765],[58.7,3848],[58.7,3932],[59.8,4017],[60.8,4099],[61.3,4181],[61.6,4265],[61.6,4348],[61.6,4432],[61.6,4515],[61.6,4598],[61.6,4681],[61.6,4765],[61.6,4849],[61.6,4932],[61.6,5014],[61.6,5098],[61.6,5181],[61.6,5264],[61.6,5348],[61.6,5431],[61.6,5515],[61.6,5599],[61.6,5681],[61.6,5765],[61.6,5847],[61.6,5930],[61.6,6014],[61.6,6097],[61.6,6180],[61.6,6264],[61.6,6347],[61.6,6431],[61.6,6514],[61.6,6597],[61.6,6682],[61.6,6764],[61.6,6847],[65.1,6931],[73.9,7014],[77.1,7098],[79.7,7182],[80.9,7265],[81.5,7348],[81.5,7432],[81.6,7514],[81.6,7597],[81.6,7680],[81.6,7764],[81.6,7847],[81.6,7931],[81.6,8014],[81.6,8097],[81.6,8181],[81.6,8264],[81.6,8347],[81.6,8431],[81.6,8514],[81.6,8597],[81.6,8681],[81.6,8764],[81.6,8847],[81.6,8931],[81.6,9014],[81.6,9097],[81.6,9181],[81.6,9264]]",1,0,275.0297,285.9769,78.58056345,9.6867,"[{""rating"":78.58056345045142,""responseTime"":9.686699999928464}]",space,10.4067,,285.9771,Half the time,50,285.9819,,,[],,0,3,3,3,1,audio/Narrative7Situation3.wav,audio/Narrative8Situation3.wav,audio/Narrative5Situation3.wav,audio/Narrative6Situation3.wav,8,4,3,5,,,,,,,,,,,,,,,,,,,,,,,,,,,,,,,,,,,,,,,
,,,,,,582bee72b1afc30001af4eb4,2024-02-08_16h06.54.006,group3.1-3.2-social-tom,2023.2.2,Win32,61.72839506,65c5074098b851296ff0b7ed,65c54182f551826588565dcc,,,,,,,,,,,,,,,,,,,,,,,,,,,,,285.9825,1,audio/Narrative7Situation4.wav,288.993,,288.9931,300.7302,"[[77.9,4183],[69.6,4274],[66.8,4355],[65.7,4438],[64.9,4522],[64,4605],[62.5,4687],[61.5,4771],[61.3,4848],[61.3,4938],[61.3,5015],[61.3,5098],[61.3,5187],[61.3,5271],[61.3,5354],[61.3,5432],[61.3,5518],[61.3,5605],[61.3,5682],[61.3,5768],[61.3,5852],[61.3,5938],[61.3,6020],[61.3,6098],[61.3,6187],[61.3,6270],[61.3,6355],[61.3,6437],[61.3,6521],[61.3,6598],[61.3,6682],[61.3,6770],[61.3,6854],[61.3,6932],[61.3,7018],[61.3,7098],[62.2,7188],[65.2,7270],[66.6,7355],[67.7,7438],[68.7,7515],[70,7605],[70.7,7683],[71.1,7771],[71.5,7848],[72.2,7936],[73.1,8022],[73.9,8103],[75.2,8189],[76.3,8271],[77.6,8355],[79.6,8437],[81.8,8521],[83.5,8604],[84.7,8687],[85,8770],[85.2,8852],[85.2,8937],[85.2,9014],[85.2,9104],[85.2,9186],[85.2,9271],[85.2,9347],[85.2,9431],[85.2,9519],[85.2,9597],[85.2,9687],[85.2,9764],[85.2,9853],[85.2,9936],[85.2,10020],[85.2,10097],[85.2,10186],[85.2,10267],[85.2,10353],[85.2,10436],[85.2,10519],[85.2,10597],[85.2,10686],[85.2,10766],[85.2,10853],[85.2,10936],[85.2,11013],[85.2,11097],[85.2,11187],[85.2,11269],[85.2,11354],[85.2,11436],[85.2,11514],[85.2,11603],[85.2,11680]]",1,0,300.7308,306.9224,84.51506483,4.8499,"[{""rating"":84.51506483464502,""responseTime"":4.84989999997606}]",space,5.6486,,306.9226,All the time,100,306.9303,,,[],,0,4,4,4,1,audio/Narrative7Situation4.wav,audio/Narrative8Situation4.wav,audio/Narrative5Situation4.wav,audio/Narrative6Situation4.wav,3,3,1,2,,,,,,,,,,,,,,,,,,,,,,,,,,,,,,,,,,,,,,,
,,,,,,582bee72b1afc30001af4eb4,2024-02-08_16h06.54.006,group3.1-3.2-social-tom,2023.2.2,Win32,61.72839506,65c5074098b851296ff0b7ed,65c54182f551826588565dcc,,,,,,,,,,,,,,,,,,,,,,,,,,,,,306.9308,1,audio/Narrative7Situation5.wav,311.9391,,311.9391,320.4368,"[[84.3,432],[71.4,2765],[70.9,2848],[70.6,2932],[70.2,3014],[69.7,3099],[69,3182],[68.8,3265],[68.2,3349],[66,3431],[64.1,3516],[63,3598],[62.6,3681],[62.1,3765],[61,3848],[60.2,3931],[60.2,4015],[60.2,4098],[60.2,4181],[60.2,4265],[60.2,4348],[60.2,4431],[60.2,4514],[60.2,4597],[60.2,4681],[60.2,4764],[60.2,4847],[60.2,4932],[60.2,5014],[60.2,5098],[60.2,5181],[60.2,5264],[60.2,5347],[60.2,5430],[60.2,5514],[59,5598],[58.1,5681],[57.4,5764],[56.7,5847],[56.1,5932],[55.4,6015],[54.5,6098],[46.9,6180],[40.1,6264],[40.1,6348],[40.1,6430],[40.1,6514],[39.9,6598],[38.7,6681],[38.2,6765],[38.1,6847],[53.7,6930],[68.3,7014],[70.8,7098],[71.9,7180],[72.6,7263],[72.9,7346],[72.9,7430],[72.9,7514],[72.9,7597],[72.9,7680],[72.9,7763],[72.9,7847],[72.9,7930],[72.9,8013],[72.9,8097],[72.9,8180],[72.9,8263],[72.9,8346],[72.9,8430]]",1,0,320.437,324.3189,58.07015354,2.4396,"[{""rating"":58.07015353764502,""responseTime"":2.439599999904658}]",space,3.3359,,324.3191,All the time,100,324.3244,,,[],,0,5,5,5,1,audio/Narrative7Situation5.wav,audio/Narrative8Situation5.wav,audio/Narrative5Situation5.wav,audio/Narrative6Situation5.wav,5,2,5,2,,,,,,,,,,,,,,,,,,,,,,,,,,,,,,,,,,,,,,,
,,,,,,582bee72b1afc30001af4eb4,2024-02-08_16h06.54.006,group3.1-3.2-social-tom,2023.2.2,Win32,61.72839506,65c5074098b851296ff0b7ed,65c54182f551826588565dcc,,,,,,,,,,,,,,,,,,,,,,,,,,,,,324.3251,1,audio/Narrative7Situation6.wav,327.3355,,327.3355,337.3172,"[[62.9,3939],[73.3,4016],[78.7,4098],[83.2,4183],[87.3,4265],[88.8,4348],[89.3,4432],[89.5,4514],[89.5,4599],[89.5,4682],[89.5,4765],[89.5,4848],[89.5,4931],[89.5,5014],[89.5,5098],[89.5,5183],[89.5,5264],[89.5,5348],[89.5,5431],[89.5,5514],[89.5,5598],[89.5,5681],[89.5,5764],[89.5,5848],[89.5,5931],[90.3,6015],[96.7,6098],[97.5,6182],[98.4,6264],[99.4,6349],[100,6432],[100,6514],[100,6597],[100,6682],[100,6764],[100,6847],[100,6931],[100,7015],[100,7098],[100,7182],[100,7264],[100,7347],[100,7431],[100,7513],[100,7597],[100,7681],[100,7763],[100,7847],[100,7931],[100,8014],[100,8098],[100,8181],[100,8263],[100,8347],[100,8430],[100,8513],[100,8597],[100,8680],[100,8765],[100,8847],[100,8931],[100,9013],[100,9099],[100,9180],[100,9263],[100,9346],[100,9430],[100,9513],[100,9597],[100,9682],[100,9764],[100,9847],[100,9931]]",1,0,337.3176,342.0155,99.71568307,2.889,"[{""rating"":99.71568306766801,""responseTime"":2.88900000000001}]",space,4.1482,,342.0155,All the time,100,342.0187,,,[],,0,6,6,6,1,audio/Narrative7Situation6.wav,audio/Narrative8Situation6.wav,audio/Narrative5Situation6.wav,audio/Narrative6Situation6.wav,3,2,3,2,,,,,,,,,,,,,,,,,,,,,,,,,,,,,,,,,,,,,,,
,,,,,,582bee72b1afc30001af4eb4,2024-02-08_16h06.54.006,group3.1-3.2-social-tom,2023.2.2,Win32,61.72839506,65c5074098b851296ff0b7ed,65c54182f551826588565dcc,,,,,,,,,,,,,,,,,,,,,,,,,,,,,342.0192,1,audio/Narrative7Situation7.wav,347.031,,347.0312,364.2108,"[[83.3,6265],[83.6,6348],[83.8,6431],[83.8,6515],[83.8,6597],[83.8,6681],[83.8,6765],[83.8,6847],[83.8,6931],[83.8,7014],[83.8,7097],[83.8,7181],[83.8,7264],[83.8,7348],[83.8,7431],[83.8,7515],[83.8,7597],[83.8,7681],[83.8,7765],[83.8,7847],[83.8,7932],[83.8,8014],[83.8,8098],[83.8,8180],[83.8,8264],[83.8,8347],[83.8,8431],[83.8,8514],[83.8,8597],[83.8,8680],[83.8,8764],[83.8,8847],[83.8,8930],[83.8,9014],[83.8,9097],[83.8,9180],[83.8,9266],[83.8,9347],[81.5,9430],[77.6,9514],[76.4,9596],[76.2,9680],[76.2,9763],[76.2,9846],[73.1,9933],[69.3,10015],[68.3,10097],[67.8,10180],[67.5,10263],[67.5,10346],[67.4,10430],[67.4,10514],[67.2,10597],[67.2,10680],[66.9,10764],[66.9,10848],[66.9,10930],[66.9,11014],[66.9,11097],[66.9,11179],[66.9,11264],[66.9,11347],[66.9,11430],[66.9,11514],[66.9,11596],[66.9,11680],[66.9,11763],[66.9,11847],[66.9,11930],[66.9,12013],[66.9,12097],[66.9,12180],[66.9,12263],[66.5,12346],[66.5,12430],[66.4,12513],[66.1,12596],[65.7,12680],[65.4,12763],[65.4,12847],[65.4,12929],[65.4,13013],[65.1,13096],[64.8,13180],[64.8,13263],[64.7,13346],[63.7,13430],[63,13517],[62.4,13595],[62.4,13679],[62.4,13763],[62.4,13846],[62.4,13929],[62.4,14013],[62.4,14096],[62.4,14179],[62.4,14263],[62.4,14347],[62.4,14429],[62.4,14513],[62.4,14596],[62.4,14679],[62.4,14762],[62.4,14846],[62.4,14929],[62.4,15013],[62.4,15096],[62.4,15179],[62.4,15262],[62.4,15346],[62.4,15429],[61.7,15513],[59.6,15596],[58.6,15681],[57.8,15762],[54.8,15846],[45.9,15929],[43.9,16014],[43.7,16095],[43.7,16179],[43.7,16263],[43.7,16346],[43.7,16429],[44.7,16513],[46.1,16599],[48.2,16681],[50.4,16763],[51.4,16845],[52.1,16929],[52.2,17012],[52.2,17095],[52.2,17179]]",1,0,364.211,370.4974,50.99040707,4.3694,"[{""rating"":50.990407065712084,""responseTime"":4.369399999976167}]",space,5.7396,,370.4975,Not at all,0,370.4999,,,[],,0,7,7,7,1,audio/Narrative7Situation7.wav,audio/Narrative8Situation7.wav,audio/Narrative5Situation7.wav,audio/Narrative6Situation7.wav,5,3,4,5,,,,,,,,,,,,,,,,,,,,,,,,,,,,,,,,,,,,,,,
,,,,,,582bee72b1afc30001af4eb4,2024-02-08_16h06.54.006,group3.1-3.2-social-tom,2023.2.2,Win32,61.72839506,65c5074098b851296ff0b7ed,65c54182f551826588565dcc,,,,,,,,,,,,,,,,,,,,,,,,,,,,,370.5002,1,audio/Narrative7Situation8.wav,372.5147,,372.5147,382.5462,"[[999,1],[999,77],[999,165],[999,243],[999,333],[999,410],[999,493],[999,583],[999,665],[999,750],[999,826],[999,916],[999,994],[999,1083],[999,1165],[999,1243],[999,1332],[999,1410],[999,1493],[999,1583],[999,1660],[999,1743],[999,1833],[999,1915],[999,2000],[999,2076],[999,2165],[999,2242],[999,2333],[999,2416],[999,2498],[999,2583],[999,2659],[999,2749],[999,2832],[999,2915],[999,2998],[999,3076],[999,3159],[999,3243],[999,3334],[999,3415],[999,3500],[999,3582],[999,3665],[999,3748],[999,3831],[66.7,3916],[67.7,3992],[68.6,4085],[69.1,4165],[69.1,4248],[69.1,4332],[69.1,4414],[69.1,4499],[69.1,4582],[70.5,4665],[71.8,4748],[73.6,4832],[76.3,4916],[78.3,5000],[80.6,5082],[83.8,5166],[85.4,5248],[86.6,5332],[87,5415],[87.5,5499],[87.5,5582],[87.5,5659],[87.5,5748],[87.5,5832],[87.5,5915],[87.5,5993],[87.5,6082],[87.5,6158],[87.5,6248],[87.5,6325],[87.5,6409],[87.5,6499],[87.5,6581],[87.5,6658],[87.5,6747],[87.5,6831],[87.5,6909],[87.5,6996],[87.5,7079],[87.5,7165],[87.7,7243],[92.9,7332],[94,7408],[95.4,7499],[99.2,7582],[100,7667],[100,7746],[100,7831],[100,7911],[100,7992],[100,8081],[100,8158],[100,8247],[100,8325],[100,8414],[100,8497],[100,8581],[100,8662],[100,8747],[100,8830],[100,8908],[100,8992],[100,9081],[100,9164],[100,9247],[100,9331],[100,9414],[100,9491],[100,9582],[100,9658],[100,9741],[100,9825],[100,9908],[100,9997]]",1,0,382.5464,386.4067,100,2.8055,"[{""rating"":100,""responseTime"":2.805500000000052}]",space,3.3027,,386.4067,Not at all,0,386.4121,,,[],,0,8,8,8,1,audio/Narrative7Situation8.wav,audio/Narrative8Situation8.wav,audio/Narrative5Situation8.wav,audio/Narrative6Situation8.wav,2,3,3,5,,,,,,,,,,,,,,,,,,,,,,,,,,,,,,,,,,,,,,,
,,,,,,582bee72b1afc30001af4eb4,2024-02-08_16h06.54.006,group3.1-3.2-social-tom,2023.2.2,Win32,61.72839506,65c5074098b851296ff0b7ed,65c54182f551826588565dcc,,,,,,,,,,,,,,,,,,,,,,,,,,,,,386.4128,1,audio/Narrative7Situation9.wav,388.4219,,388.4219,397.0534,"[[99.8,2099],[99.3,2186],[99,2266],[99,2349],[99,2432],[99,2516],[99,2599],[99,2682],[99,2765],[99,2849],[99,2933],[99,3015],[99,3099],[99,3183],[99,3266],[99,3349],[99,3432],[99,3515],[99,3598],[99,3682],[99,3765],[99,3849],[99,3933],[99,4015],[99,4098],[99,4183],[99,4265],[99,4349],[99,4432],[99,4515],[99,4598],[99,4683],[99,4765],[99,4848],[99,4931],[99,5015],[99,5098],[99,5182],[99,5265],[99,5348],[99,5432],[99,5515],[99,5600],[99,5682],[99,5766],[99,5848],[99,5932],[99,6015],[99,6098],[99.9,6185],[100,6266],[100,6348],[100,6431],[100,6514],[100,6598],[100,6681],[100,6765],[100,6849],[100,6931],[100,7015],[100,7098],[100,7181],[100,7265],[100,7348],[100,7431],[100,7515],[100,7598],[100,7681],[100,7764],[100,7848],[100,7931],[100,8015],[100,8098],[100,8182],[100,8265],[100,8347],[100,8431],[100,8515],[100,8597]]",1,0,397.0538,400.1861,99.81979378,2.3055,"[{""rating"":99.8197937791671,""responseTime"":2.305500000000052}]",space,2.5867,,400.1863,All the time,100,400.1921,,,[],,0,9,9,9,1,audio/Narrative7Situation9.wav,audio/Narrative8Situation9.wav,audio/Narrative5Situation9.wav,audio/Narrative6Situation9.wav,2,3,3,4,,,,,,,,,,,,,,,,,,,,,,,,,,,,,,,,,,,,,,,
,,,,,,582bee72b1afc30001af4eb4,2024-02-08_16h06.54.006,group3.1-3.2-social-tom,2023.2.2,Win32,61.72839506,65c5074098b851296ff0b7ed,65c54182f551826588565dcc,,,,,,,,,,,,,,,,,,,,,,,,,,,,,400.1926,1,audio/Narrative8Situation1.wav,405.2014,,405.2015,421.1159,"[[999,20],[999,83],[999,167],[999,250],[999,334],[999,417],[999,500],[999,583],[999,668],[999,752],[999,836],[999,916],[999,1000],[999,1084],[999,1166],[999,1250],[999,1333],[999,1416],[999,1500],[999,1583],[999,1666],[999,1750],[999,1833],[999,1916],[999,1999],[999,2082],[999,2165],[999,2249],[999,2332],[999,2416],[999,2500],[999,2583],[999,2667],[999,2749],[999,2833],[999,2916],[999,2998],[999,3082],[999,3165],[999,3249],[999,3334],[999,3416],[999,3500],[999,3582],[999,3666],[999,3748],[999,3832],[999,3915],[999,3999],[999,4085],[999,4166],[999,4249],[999,4332],[999,4416],[999,4499],[999,4582],[999,4666],[999,4749],[999,4833],[999,4916],[999,4998],[999,5084],[999,5165],[999,5249],[999,5333],[999,5416],[23,5499],[22.5,5582],[22.5,5666],[22.5,5749],[19.6,5834],[17,5917],[13,6000],[7.5,6084],[4.5,6167],[1.4,6250],[17.3,11415],[40.6,11498],[54.9,11581],[56.6,11666],[56.5,11748],[56.5,11831],[56.5,11915],[70.4,11999],[72.4,12083],[72.6,12164],[72.6,12248],[81.4,12331],[95.3,12415],[96.1,12498],[96.3,12581],[96.3,12665],[96.3,12748],[96.2,12830],[95.9,12914],[95.5,12997],[95.5,13081],[95.3,13163],[95.2,13248],[95,13331],[95,13415],[95,13497],[95,13581],[95,13664],[95,13747],[95,13831],[95,13914],[95,13997],[95,14080],[95,14165],[95,14247],[95,14331],[95,14415],[95,14497],[95,14581],[94.5,14665],[94.1,14747],[93.5,14833],[92.8,14915],[92.5,14997],[92.4,15080],[92.2,15165],[91.8,15247],[91.5,15331],[91,15415],[90.7,15496],[90.5,15581],[90.5,15664],[90.5,15747],[90.5,15830],[90.5,15914]]",1,0,421.1162,427.4144,36.31035148,5.2805,"[{""rating"":36.31035147726765,""responseTime"":5.280499999999961}]",space,5.7672,,427.4144,Half the time,50,427.4196,,,[],,0,10,10,10,1,audio/Narrative8Situation1.wav,audio/Narrative7Situation1.wav,audio/Narrative6Situation1.wav,audio/Narrative5Situation1.wav,5,2,2,5,,,,,,,,,,,,,,,,,,,,,,,,,,,,,,,,,,,,,,,
,,,,,,582bee72b1afc30001af4eb4,2024-02-08_16h06.54.006,group3.1-3.2-social-tom,2023.2.2,Win32,61.72839506,65c5074098b851296ff0b7ed,65c54182f551826588565dcc,,,,,,,,,,,,,,,,,,,,,,,,,,,,,427.4201,1,audio/Narrative8Situation2.wav,430.4302,,430.4302,440.5615,"[[999,0],[999,83],[999,167],[999,249],[999,334],[999,417],[999,500],[999,582],[999,668],[5.2,751],[3.8,835],[2.9,917],[2,1000],[1.7,1083],[1.4,1167],[1.4,1249],[1.4,1333],[1.4,1417],[1.4,1499],[2.1,1585],[3.6,1667],[4.6,1750],[5.4,1832],[14.3,1917],[20,1999],[43.9,3082],[43.9,3167],[43.9,3248],[46.5,3331],[48.1,3415],[51.1,3498],[53.6,3582],[54.8,3665],[55.2,3748],[55.5,3832],[55.5,3914],[55.5,3998],[55.5,4081],[55.5,4164],[55.5,4247],[55.5,4331],[55.5,4415],[55.5,4498],[55.5,4583],[55.5,4665],[55.5,4748],[55.5,4831],[55.5,4914],[55.5,4998],[55.5,5081],[55.5,5165],[55.5,5248],[55.5,5331],[55.5,5414],[55.5,5497],[55.5,5580],[55.5,5664],[55.5,5747],[55.5,5831],[55.5,5915],[55.5,5997],[55.5,6080],[55.5,6164],[56.1,6248],[66.6,6331],[73.1,6415],[78.9,6498],[84.5,6581],[96.5,6915],[100,6997],[100,7081],[100,7164],[100,7247],[100,7330],[100,7414],[100,7497],[100,7581],[100,7663],[100,7746],[100,7830],[100,7913],[100,7997],[100,8080],[100,8164],[100,8246],[100,8330],[100,8413],[100,8497],[100,8580],[100,8663],[100,8747],[100,8831],[100,8914],[100,8997],[100,9081],[100,9164],[100,9247],[100,9332],[100,9414],[100,9498],[100,9581],[100,9665],[100,9747],[100,9831],[100,9914],[100,9997],[100,10080]]",1,0,440.5616,444.1448,71.39672444,2.4399,"[{""rating"":71.39672444118568,""responseTime"":2.4398999999760917}]",space,3.0599,,444.1449,All the time,100,444.1514,,,[],,0,11,11,11,1,audio/Narrative8Situation2.wav,audio/Narrative7Situation2.wav,audio/Narrative6Situation2.wav,audio/Narrative5Situation2.wav,3,3,3,3,,,,,,,,,,,,,,,,,,,,,,,,,,,,,,,,,,,,,,,
,,,,,,582bee72b1afc30001af4eb4,2024-02-08_16h06.54.006,group3.1-3.2-social-tom,2023.2.2,Win32,61.72839506,65c5074098b851296ff0b7ed,65c54182f551826588565dcc,,,,,,,,,,,,,,,,,,,,,,,,,,,,,444.1531,1,audio/Narrative8Situation3.wav,448.1584,,448.1586,470.5381,"[[999,9],[999,83],[999,166],[999,250],[999,334],[999,417],[999,499],[999,583],[999,678],[999,755],[999,835],[999,920],[999,1000],[999,1084],[999,1168],[999,1251],[999,1334],[999,1416],[999,1500],[999,1583],[999,1667],[999,1750],[999,1834],[999,1917],[999,2001],[999,2083],[999,2166],[999,2251],[999,2334],[78,2418],[78.9,2500],[79.4,2584],[79.9,2668],[80.1,2750],[80.1,2833],[80.1,2916],[80.1,3000],[80.1,3083],[80.1,3167],[80.1,3250],[80.1,3333],[80.1,3416],[80.1,3501],[80.1,3583],[80.1,3666],[80.1,3750],[80.1,3833],[80.1,3916],[80.1,4000],[80.1,4083],[80.1,4166],[80.1,4249],[80.1,4333],[80.1,4417],[80.1,4499],[80.1,4584],[80.1,4666],[80.1,4749],[80.1,4833],[80.1,4917],[80.1,4998],[80.1,5082],[80.1,5165],[80.1,5248],[80.1,5333],[80.1,5415],[80.1,5498],[80.1,5582],[80.1,5665],[79.8,5749],[78.5,5832],[76.4,5916],[73.6,6000],[70.5,6084],[68,6166],[67.8,6249],[67.8,6333],[67.8,6416],[67.8,6499],[67.8,6583],[64.9,6666],[60.1,6749],[57.2,6834],[56,6917],[56,6999],[56,7082],[56,7165],[55.4,7249],[48.4,7332],[43.8,7416],[42.3,7500],[42.2,7582],[42.2,7665],[42.2,7748],[42.2,7832],[30.1,7916],[24.7,8000],[22.8,8084],[22.8,8165],[22.8,8249],[22.8,8332],[20.4,8416],[19.7,8499],[19.5,8582],[19.5,8666],[19.5,8749],[19.5,8832],[19.6,8915],[39.1,8999],[54.7,9082],[62.9,9167],[67.3,9249],[71,9333],[71.5,9417],[72.1,9498],[72.1,9582],[72.1,9665],[72.1,9749],[72.1,9832],[72.1,9915],[72.1,9998],[72.1,10082],[72.1,10165],[72.1,10248],[72.1,10332],[72.1,10415],[72.1,10498],[72.1,10582],[72.1,10665],[72.1,10748],[72.1,10832],[72.1,10915],[72.1,10998],[72.1,11083],[72.1,11165],[72.1,11249],[72.1,11331],[72.1,11415],[72.1,11498],[72.1,11581],[72.1,11665],[72.1,11748],[72.1,11831],[72.1,11915],[72.1,11998],[72.1,12081],[72.1,12165],[72.1,12248],[72.1,12331],[69.9,12416],[66.8,12500],[65.1,12581],[63.4,12665],[62.1,12749],[61.2,12831],[60.2,12915],[59.9,12998],[59.6,13081],[59.6,13164],[59.6,13249],[59.6,13331],[59.1,13415],[57.8,13499],[56.1,13583],[51.7,13665],[48.5,13748],[47.5,13831],[47.5,13914],[47.5,13998],[47.5,14081],[46.1,14164],[44.9,14247],[43.3,14331],[41.9,14416],[40.4,14497],[39.9,14580],[39.9,14664],[39.9,14748],[39.9,14831],[39.9,14914],[39.5,14998],[38.7,15081],[38,15164],[37.4,15249],[37.1,15331],[36.7,15414],[36.7,15498],[36.7,15581],[36.6,15664],[35.6,15747],[34.6,15830],[33.8,15914],[32.2,15999],[29.7,16080],[26.5,16166],[16.1,16247],[10.1,16332],[8.3,16416],[6.2,16499],[1.9,16581]]",1,0,470.5383,476.5265,41.41193991,4.7035,"[{""rating"":41.41193990821919,""responseTime"":4.703500000000076}]",space,5.435,,476.5266,All the time,100,476.5306,,,[],,0,12,12,12,1,audio/Narrative8Situation3.wav,audio/Narrative7Situation3.wav,audio/Narrative6Situation3.wav,audio/Narrative5Situation3.wav,4,8,5,3,,,,,,,,,,,,,,,,,,,,,,,,,,,,,,,,,,,,,,,
,,,,,,582bee72b1afc30001af4eb4,2024-02-08_16h06.54.006,group3.1-3.2-social-tom,2023.2.2,Win32,61.72839506,65c5074098b851296ff0b7ed,65c54182f551826588565dcc,,,,,,,,,,,,,,,,,,,,,,,,,,,,,476.5312,1,audio/Narrative8Situation4.wav,479.5355,,479.5356,493.7187,"[[999,15],[999,82],[999,166],[999,255],[999,333],[999,422],[999,500],[999,589],[999,670],[999,755],[999,839],[999,922],[999,1005],[999,1090],[999,1172],[999,1255],[999,1338],[999,1422],[999,1500],[999,1590],[999,1666],[999,1750],[999,1839],[999,1923],[999,2005],[999,2082],[999,2166],[999,2256],[999,2339],[999,2416],[999,2504],[999,2589],[999,2666],[999,2755],[999,2833],[999,2923],[999,3007],[999,3089],[999,3174],[999,3249],[999,3338],[999,3416],[999,3506],[999,3586],[999,3666],[999,3755],[999,3838],[999,3916],[999,4000],[999,4089],[999,4172],[999,4250],[999,4338],[999,4416],[999,4499],[999,4583],[999,4666],[999,4750],[999,4838],[999,4922],[999,4999],[999,5082],[999,5172],[999,5255],[999,5337],[999,5422],[72.1,5516],[71.6,5599],[71.6,5683],[71.2,5765],[71,5848],[71,5931],[71,6015],[71,6099],[71,6181],[71,6266],[71,6351],[71,6432],[71,6515],[71,6598],[71,6681],[71,6765],[71,6848],[71,6931],[71,7015],[71,7098],[71,7182],[71,7265],[71,7349],[71,7432],[71,7515],[71,7598],[71,7681],[71,7765],[71,7849],[71,7932],[71,8015],[71,8098],[71,8182],[71,8265],[71,8348],[71,8431],[71,8516],[71,8599],[71,8681],[71,8764],[71,8847],[71,8931],[71,9015],[71,9098],[71,9182],[71,9264],[71,9347],[71,9431],[71,9514],[71,9597],[71,9681],[71,9764],[71,9847],[71,9932],[71,10015],[71,10097],[71,10181],[71.1,10265],[71.4,10348],[72.1,10431],[73.6,10514],[75.2,10599],[76.3,10681],[77.8,10766],[78.8,10849],[79.3,10933],[79.9,11014],[80.8,11098],[81.4,11181],[81.7,11264],[81.7,11347],[81.8,11431],[81.8,11514],[81.8,11597],[81.8,11681],[81.8,11765],[81.8,11848],[81.8,11931],[81.8,12014],[81.8,12097],[81.8,12181],[81.8,12264],[81.8,12348],[81.8,12431],[81.8,12514],[81.8,12597],[81.8,12681],[81.8,12764],[81.8,12847],[81.8,12931],[81.8,13015],[81.8,13097],[81.8,13180],[81.8,13264],[81.8,13347],[81.8,13431],[81.8,13514],[81.8,13598],[81.8,13680],[81.8,13763],[81.7,13847],[81.6,13931],[81.6,14014],[81.2,14096],[80.9,14182]]",1,0,493.7188,497.0166,76.29007327,2.1872,"[{""rating"":76.29007327497277,""responseTime"":2.1872000000475964}]",space,2.7491,,497.0167,Half the time,50,497.0219,,,[],,0,13,13,13,1,audio/Narrative8Situation4.wav,audio/Narrative7Situation4.wav,audio/Narrative6Situation4.wav,audio/Narrative5Situation4.wav,3,3,2,1,,,,,,,,,,,,,,,,,,,,,,,,,,,,,,,,,,,,,,,
,,,,,,582bee72b1afc30001af4eb4,2024-02-08_16h06.54.006,group3.1-3.2-social-tom,2023.2.2,Win32,61.72839506,65c5074098b851296ff0b7ed,65c54182f551826588565dcc,,,,,,,,,,,,,,,,,,,,,,,,,,,,,497.0224,1,audio/Narrative8Situation5.wav,499.0316,,499.0317,507.2803,[],1,0,507.2806,513.9619,0.182862311,5.9327,"[{""rating"":0.18286231127565,""responseTime"":5.932700000047703}]",space,6.1465,,513.9622,Half the time,50,513.9688,,,[],,0,14,14,14,1,audio/Narrative8Situation5.wav,audio/Narrative7Situation5.wav,audio/Narrative6Situation5.wav,audio/Narrative5Situation5.wav,2,5,2,5,,,,,,,,,,,,,,,,,,,,,,,,,,,,,,,,,,,,,,,
,,,,,,582bee72b1afc30001af4eb4,2024-02-08_16h06.54.006,group3.1-3.2-social-tom,2023.2.2,Win32,61.72839506,65c5074098b851296ff0b7ed,65c54182f551826588565dcc,,,,,,,,,,,,,,,,,,,,,,,,,,,,,513.9692,1,audio/Narrative8Situation6.wav,515.9778,,515.978,522.4605,"[[33,3839],[47.8,3916],[50.5,3999],[50.5,4082],[50.5,4166],[50.5,4249],[50.5,4332],[69.6,4417],[71.4,4499],[72.1,4583],[72.2,4665],[72.2,4748],[72.2,4831],[72.2,4916],[72.2,4999],[72.2,5082],[72.2,5166],[72.2,5249],[72.2,5333],[72.2,5415],[72.2,5499],[72.2,5581],[72.2,5665],[72.2,5749],[72.2,5832],[72.2,5915],[72.2,5998],[72.2,6082],[72.2,6166],[72.2,6249],[72.2,6332],[72.2,6416]]",1,0,522.4608,526.3094,53.48914593,2.7898,"[{""rating"":53.489145925438294,""responseTime"":2.789800000071523}]",space,3.3126,,526.3096,Not at all,0,526.3163,,,[],,0,15,15,15,1,audio/Narrative8Situation6.wav,audio/Narrative7Situation6.wav,audio/Narrative6Situation6.wav,audio/Narrative5Situation6.wav,2,3,2,3,,,,,,,,,,,,,,,,,,,,,,,,,,,,,,,,,,,,,,,
,,,,,,582bee72b1afc30001af4eb4,2024-02-08_16h06.54.006,group3.1-3.2-social-tom,2023.2.2,Win32,61.72839506,65c5074098b851296ff0b7ed,65c54182f551826588565dcc,,,,,,,,,,,,,,,,,,,,,,,,,,,,,526.3176,1,audio/Narrative8Situation7.wav,529.3261,,529.3262,541.4226,"[[59.7,4581],[61.7,4664],[62.7,4748],[63.2,4831],[63.5,4914],[63.8,4998],[63.8,5081],[63.8,5164],[63.8,5248],[63.8,5331],[63.8,5414],[63.8,5497],[63.8,5581],[63.8,5665],[63.8,5747],[63.8,5831],[63.8,5914],[63.8,5998],[63.8,6081],[63.8,6165],[63.8,6248],[63.8,6331],[63.8,6414],[63.8,6497],[63.8,6581],[63.8,6664],[63.8,6747],[63.8,6831],[63.7,6915],[63.3,6997],[62.8,7082],[62.3,7164],[61.1,7247],[60.2,7331],[59.5,7415],[58.8,7500],[57.9,7583],[57.2,7666],[56.3,7748],[55.7,7832],[55,7914],[54.3,7997],[53.9,8080],[53.3,8164],[52.6,8247],[51.8,8331],[51,8415],[50,8499],[49.6,8581],[49.1,8664],[49,8747],[49,8830],[49,8914],[51.1,8999],[52.8,9080],[54.1,9165],[56.4,9247],[59.1,9332],[60.8,9413],[62.5,9496],[63.9,9580],[65.3,9663],[66.3,9747],[66.8,9830],[67.1,9913],[67.4,9996],[67.9,10081],[69.1,10164],[70.9,10251],[77.9,10331],[89.5,10413],[100,10496],[100,10580],[100,10663],[100,10747],[100,10830],[100,10913],[100,10996],[100,11079],[100,11163],[100,11246],[100,11330],[100,11412],[100,11496],[100,11579],[100,11662],[100,11745],[100,11829],[100,11912],[100,11996],[100,12079]]",1,0,541.4228,547.3878,92.21948466,5.6232,"[{""rating"":81.28753282025896,""responseTime"":2.48930000007158},{""rating"":92.21948466265562,""responseTime"":5.623200000047632}]",space,5.418,,547.3879,All the time,100,547.3954,,,[],,0,16,16,16,1,audio/Narrative8Situation7.wav,audio/Narrative7Situation7.wav,audio/Narrative6Situation7.wav,audio/Narrative5Situation7.wav,3,5,5,4,,,,,,,,,,,,,,,,,,,,,,,,,,,,,,,,,,,,,,,
,,,,,,582bee72b1afc30001af4eb4,2024-02-08_16h06.54.006,group3.1-3.2-social-tom,2023.2.2,Win32,61.72839506,65c5074098b851296ff0b7ed,65c54182f551826588565dcc,,,,,,,,,,,,,,,,,,,,,,,,,,,,,547.3967,1,audio/Narrative8Situation8.wav,550.4044,,550.4046,563.268,"[[92.7,1183],[100,1266],[100,1349],[100,1433],[100,1515],[100,1598],[100,1682],[100,1766],[100,1848],[100,1932],[100,2015],[100,2098],[100,2182],[100,2265],[100,2348],[100,2432],[100,2515],[100,2598],[100,2682],[100,2765],[100,2849],[100,2932],[100,3015],[100,3098],[100,3182],[100,3265],[100,3348],[100,3432],[100,3514],[100,3598],[100,3682],[100,3765],[100,3848],[100,3932],[100,4015],[100,4098],[100,4182],[100,4265],[100,4348],[100,4432],[100,4515],[100,4598],[100,4681],[100,4764],[100,4848],[100,4933],[100,5014],[100,5098],[100,5181],[100,5264],[100,5348],[100,5431],[100,5514],[100,5598],[100,5681],[100,5764],[100,5848],[100,5932],[100,6014],[100,6097],[100,6181],[100,6264],[100,6347],[100,6432],[100,6514],[100,6597],[100,6681],[100,6764],[100,6847],[100,6932],[100,7014],[100,7097],[100,7182],[100,7264],[100,7347],[100,7432],[100,7514],[100,7597],[100,7681],[100,7764],[100,7847],[100,7931],[100,8014],[100,8097],[100,8181],[100,8264],[100,8347],[100,8430],[100,8514],[100,8597],[100,8681],[100,8764],[100,8847],[100,8931],[100,9014],[100,9097],[100,9180],[100,9264],[100,9347],[100,9431],[100,9514],[100,9597],[100,9681],[100,9764],[100,9847],[100,9931],[100,10013],[100,10097],[100,10181],[100,10264],[100,10347],[100,10431],[100,10513],[100,10598],[100,10681],[100,10763],[100,10847],[100,10930],[100,11013],[100,11096],[100,11181],[100,11263],[100,11346],[100,11431],[100,11513],[100,11596],[100,11681],[100,11763],[100,11846],[100,11930],[100,12013],[100,12096],[100,12180],[100,12263],[100,12346],[100,12430],[100,12513],[100,12596],[100,12681],[100,12763],[100,12846]]",1,0,563.2683,566.4342,99.92391358,1.7017,"[{""rating"":99.92391357774932,""responseTime"":1.7017000000475946}]",space,2.6347,,566.4343,Not at all,0,566.4402,,,[],,0,17,17,17,1,audio/Narrative8Situation8.wav,audio/Narrative7Situation8.wav,audio/Narrative6Situation8.wav,audio/Narrative5Situation8.wav,3,2,5,3,,,,,,,,,,,,,,,,,,,,,,,,,,,,,,,,,,,,,,,
,,,,,,582bee72b1afc30001af4eb4,2024-02-08_16h06.54.006,group3.1-3.2-social-tom,2023.2.2,Win32,61.72839506,65c5074098b851296ff0b7ed,65c54182f551826588565dcc,,,,,,,,,,,,,,,,,,,,,,,,,,,,,566.4408,1,audio/Narrative8Situation9.wav,569.4502,,569.4503,580.7812,"[[99.8,1099],[99.8,1182],[99.8,1266],[99.8,1349],[99.8,1432],[99.8,1515],[99.8,1599],[99.8,1682],[99.8,1766],[99.8,1849],[99.8,1932],[99.8,2016],[99.8,2099],[99.8,2182],[99.8,2266],[99.8,2349],[99.8,2432],[99.8,2515],[99.8,2598],[99.8,2682],[99.8,2765],[99.8,2849],[99.8,2932],[99.8,3015],[99.8,3099],[99.8,3182],[99.8,3265],[99.8,3349],[99.8,3432],[99.8,3515],[99.8,3598],[99.8,3682],[99.8,3766],[99.8,3848],[99.8,3932],[99.8,4016],[99.8,4098],[99.8,4181],[99.8,4265],[99.8,4348],[99.8,4432],[99.8,4515],[99.8,4598],[99.8,4681],[99.8,4766],[99.8,4848],[99.8,4931],[99.8,5016],[99.8,5098],[99.8,5181],[99.8,5266],[99.8,5348],[99.8,5431],[99.8,5514],[99.8,5599],[99.8,5681],[99.8,5764],[99.8,5848],[99.8,5931],[99.8,6015],[99.8,6098],[99.8,6182],[99.8,6265],[99.8,6348],[99.8,6432],[99.8,6515],[99.8,6597],[99.8,6682],[99.8,6765],[99.8,6848],[99.8,6930],[99.8,7014],[99.8,7097],[99.8,7181],[99.8,7265],[99.8,7347],[99.8,7431],[99.8,7515],[99.8,7598],[99.8,7681],[99.8,7765],[99.8,7847],[99.8,7931],[99.8,8015],[99.8,8098],[96.1,8182],[91.2,8267],[90,8348],[88.6,8431],[87.9,8514],[87.3,8600],[86.8,8681],[86.5,8765],[85.4,8848],[83.8,8931],[83.1,9014],[82.7,9097],[82,9181],[81.6,9264],[81.3,9347],[81.3,9431],[81.3,9514],[81.3,9597],[81.3,9680],[81.3,9764],[81.3,9847],[81.3,9930],[81.3,10014],[81.3,10097],[81.3,10180],[81.3,10264],[81.3,10347],[81.3,10430],[81.3,10514],[81.3,10597],[81.3,10680],[81.3,10764],[81.3,10846],[81.3,10930],[81.3,11014],[81.3,11098],[81.3,11180],[81.3,11263]]",1,0,580.7814,583.248,90.76188018,1.6659,"[{""rating"":90.76188017916962,""responseTime"":1.6658999999762045}]",space,1.9413,,583.248,All the time,100,583.2573,,,[],,0,18,18,18,1,audio/Narrative8Situation9.wav,audio/Narrative7Situation9.wav,audio/Narrative6Situation9.wav,audio/Narrative5Situation9.wav,3,2,4,3,,,,,,,,,,,,,,,,,,,,,,,,,,,,,,,,,,,,,,,
,,,,,,582bee72b1afc30001af4eb4,2024-02-08_16h06.54.006,group3.1-3.2-social-tom,2023.2.2,Win32,61.72839506,65c5074098b851296ff0b7ed,65c54182f551826588565dcc,,,,,,,,,,,,,,,,,,,,,,,,,,,611.727,614.3074,614.3382,2,audio/Narrative13Situation2.wav,614.3385,,614.3385,644.0846,"[[90.7,2073],[90.3,2156],[89.4,2234],[88.9,2320],[86.5,2408],[84.2,2491],[83.1,2575],[82.5,2653],[82.5,2738],[82.5,2824],[82.5,2907],[78.1,2993],[75,3075],[73.7,3158],[73,3242],[72.8,3324],[72.8,3406],[72.8,3488],[72.8,3573],[72.8,3657],[72.8,3740],[72.8,3817],[72.8,3901],[72.8,3990],[72.8,4074],[72.8,4151],[72.8,4240],[72.8,4317],[72.8,4407],[72.8,4489],[72.8,4574],[72.8,4651],[72.8,4734],[72.8,4817],[72.8,4902],[72.8,4990],[72.8,5074],[72.8,5156],[72.8,5241],[72.8,5324],[72.8,5406],[72.8,5489],[67.4,5575],[56.4,5656],[55.9,5740],[55.9,5823],[55.9,5900],[54,5984],[45.3,6074],[45,6156],[45,6240],[45,6317],[45,6407],[41.7,6490],[38.1,6573],[37.2,6657],[36.9,6740],[36.9,6823],[36.9,6901],[36.9,6983],[47.5,7074],[48.5,7152],[56.6,7240],[58,7324],[59.3,7406],[60.5,7490],[60.8,7572],[60.8,7656],[60.8,7739],[60.8,7823],[60.8,7900],[60.8,7983],[60.8,8073],[60.8,8151],[60.8,8235],[60.8,8323],[60.8,8406],[60.8,8489],[60.8,8571],[60.8,8656],[60.8,8739],[60.8,8821],[60.8,8905],[60.8,8989],[60.8,9072],[60.8,9153],[60.8,9239],[60.8,9323],[60.8,9404],[60.8,9488],[60.8,9572],[60.6,9650],[59.9,9739],[59.5,9823],[58.6,9905],[53,9989],[48.8,10073],[47.7,10156],[46.9,10239],[43.1,10323],[39.1,10406],[38.2,10490],[38.1,10572],[38.1,10653],[38.1,10732],[38.1,10820],[38.1,10906],[38.1,10982],[38.1,11072],[38.1,11155],[25.4,11241],[17.3,11738],[14.8,11823],[13.4,11905],[11.8,11989],[11,12065],[11,12149],[11,12234],[11,12317],[1.9,12405],[4.3,22100],[15.6,22182],[24.3,22264],[39.6,22347],[62.5,22432],[65.5,22513],[65.5,22598],[65.5,22681],[65.5,22763],[65.5,22846],[65.5,22931],[65.5,23013],[65.5,23097],[65.5,23181],[65.5,23264],[65.5,23347],[65.9,23431],[66.6,23513],[67.7,23597],[68.5,23680],[69.1,23764],[70.3,23848],[71.7,23932],[72.6,24013],[73.5,24098],[74.2,24180],[75,24262],[75.5,24346],[75.7,24429],[75.7,24513],[75.7,24596],[75.7,24680],[75.7,24764],[75.7,24847],[75.7,24930],[75.7,25013],[75.7,25096],[75.7,25181],[75.7,25262],[75.7,25346],[75.7,25430],[75.7,25514],[75.7,25596],[75.7,25679],[75.7,25763],[75.7,25846],[75.7,25929],[75.7,26012],[75.7,26096],[75.7,26179],[75.7,26262],[75.7,26346],[75.7,26430],[75.7,26512],[75.7,26596],[75.7,26680],[75.7,26762],[75.7,26846],[75.7,26930],[75.7,27012],[75.7,27096],[75.7,27179],[75.7,27262],[75.7,27346],[75.7,27429],[75.7,27512],[75.7,27596],[75.7,27679],[75.7,27762],[75.7,27846],[75.7,27929],[75.7,28012],[75.7,28096],[75.7,28179],[75.7,28262],[75.7,28346],[75.7,28429],[75.7,28512],[75.7,28595],[75.7,28679],[75.7,28762],[75.7,28845],[75.7,28930],[75.7,29012],[75.7,29095],[75.7,29178],[75.7,29262],[75.7,29346],[75.7,29428],[75.7,29512],[75.7,29595],[75.7,29679]]",1,0,644.085,644.1086,,,[],,,,644.1087,All the time,100,644.1105,,,[],,0,0,0,0,1,audio/Narrative13Situation2.wav,audio/Narrative13Situation2.wav,audio/Narrative13Situation2.wav,audio/Narrative13Situation2.wav,2,2,2,2,,,,,583.259,611.7263,space,27.9468,,,,,,,,,,,,,,,,,,,,,,,,,,,,,,,
,,,,,,582bee72b1afc30001af4eb4,2024-02-08_16h06.54.006,group3.1-3.2-social-tom,2023.2.2,Win32,61.72839506,65c5074098b851296ff0b7ed,65c54182f551826588565dcc,,,,,,,,,,,,,,,,,,,,,,,,,,,,,644.1108,2,audio/Narrative5Situation1.wav,649.1166,,649.1167,662.4203,"[[999,22],[999,99],[999,184],[999,266],[999,349],[999,433],[999,515],[999,600],[999,683],[999,766],[999,850],[999,932],[999,1016],[999,1099],[999,1183],[999,1266],[999,1349],[999,1433],[999,1515],[999,1599],[999,1683],[999,1767],[999,1849],[999,1933],[999,2015],[999,2099],[999,2182],[999,2265],[999,2349],[999,2433],[999,2515],[999,2599],[999,2683],[999,2765],[999,2848],[999,2933],[999,3015],[999,3099],[999,3184],[999,3267],[999,3350],[999,3432],[999,3516],[999,3599],[2.4,7023],[3.6,7100],[4.4,7181],[5.6,7265],[9.6,7348],[11,7432],[12.2,7514],[13.9,7598],[14.7,7681],[15.3,7765],[15.3,7849],[15.3,7931],[15.3,8014],[15.3,8098],[15.3,8181],[15.3,8264],[15.3,8347],[15.3,8431],[15.3,8514],[15.3,8597],[15.3,8681],[15.3,8764],[15.3,8847],[15.3,8931],[15.3,9015],[15.3,9097],[15.3,9182],[15.3,9264],[15.3,9347],[15.3,9431],[15.3,9514],[15.3,9597],[15.3,9681],[15.3,9764],[15.3,9847],[15.3,9930],[15.3,10014],[15.3,10098],[15.3,10180],[15.3,10264],[15.3,10347],[15.3,10430],[15.3,10514],[15.3,10597],[15.3,10680],[15.3,10764],[15.3,10847],[15.3,10932],[15.3,11013],[15.3,11097],[16,11188],[16.5,11270],[17.2,11354],[18,11437],[18.4,11523],[18.7,11603],[18.9,11687],[19.3,11769],[19.3,11854],[19.3,11936],[19.3,12020],[19.3,12097],[19.3,12180],[19.3,12268],[19.3,12353],[19.3,12430],[19.3,12520],[19.3,12603],[19.3,12687],[19.3,12769],[19.3,12847],[19.3,12930],[19.3,13019],[19.3,13103],[19.3,13181],[19.3,13264]]",1,0,662.4205,665.9021,12.36418358,2.6315,"[{""rating"":12.364183583535421,""responseTime"":2.6315000000000737}]",space,2.9178,,665.9022,Half the time,50,665.9046,,,[],,0,1,1,1,1,audio/Narrative7Situation1.wav,audio/Narrative8Situation1.wav,audio/Narrative5Situation1.wav,audio/Narrative6Situation1.wav,2,5,5,2,,,,,,,,,,,,,,,,,,,,,,,,,,,,,,,,,,,,,,,
,,,,,,582bee72b1afc30001af4eb4,2024-02-08_16h06.54.006,group3.1-3.2-social-tom,2023.2.2,Win32,61.72839506,65c5074098b851296ff0b7ed,65c54182f551826588565dcc,,,,,,,,,,,,,,,,,,,,,,,,,,,,,665.9049,2,audio/Narrative5Situation2.wav,668.9183,,668.9183,698.3801,"[[12.5,2832],[13.6,2928],[14.3,3009],[15,3093],[15.7,3180],[16.4,3260],[17.5,3344],[18.8,3427],[20.3,3511],[21.3,3594],[22.4,3677],[23,3760],[23.3,3842],[23.3,3926],[23.3,4009],[23.3,4094],[23.3,4176],[23.3,4259],[23.3,4342],[23.3,4426],[23.3,4509],[23.3,4592],[23.3,4676],[23.3,4760],[23.3,4842],[23.3,4926],[23.3,5009],[23.3,5092],[23.3,5176],[23.3,5259],[23.3,5343],[23.3,5426],[23.3,5509],[23.3,5592],[23.3,5676],[23.3,5759],[23.3,5842],[23.3,5926],[23.3,6009],[23.3,6092],[23.3,6176],[23.3,6260],[23.3,6342],[23.3,6425],[23.3,6509],[23.3,6592],[23.3,6676],[23.3,6759],[23.3,6842],[23.3,6925],[23.3,7009],[23.3,7092],[23.3,7175],[23.3,7259],[23.3,7342],[23.3,7425],[23.3,7509],[23.3,7593],[23.3,7675],[23.3,7759],[23.3,7842],[23.3,7925],[23.3,8008],[23.3,8092],[23.3,8175],[23.3,8258],[23.3,8342],[23.3,8425],[23.3,8508],[23.3,8592],[23.3,8675],[23.3,8758],[23.3,8842],[23.3,8925],[23.3,9008],[23.3,9092],[23.3,9174],[23.3,9258],[23.3,9342],[23.3,9425],[23.3,9509],[23.3,9592],[23.3,9675],[23.3,9758],[23.3,9842],[23.3,9925],[23.3,10008],[23.3,10091],[23.3,10174],[23.3,10258],[23.3,10342],[23.3,10424],[23.3,10508],[23.3,10591],[23.3,10674],[23.3,10758],[23.3,10841],[23.3,10925],[23.3,11008],[23.3,11093],[23.3,11174],[23.3,11258],[23.3,11341],[23.3,11424],[23.3,11508],[23.3,11591],[23.3,11674],[23.3,11758],[23.3,11841],[23.3,11924],[23.3,12007],[23.3,12092],[23.3,12174],[23.3,12258],[23.3,12342],[23.3,12424],[23.3,12507],[23.3,12591],[23.3,12674],[23.3,12757],[23.3,12842],[23.3,12924],[23.3,13007],[23.3,13091],[23.3,13174],[23.3,13257],[23.3,13341],[23.3,13424],[23.3,13507],[23.3,13591],[23.3,13674],[23.3,13757],[23.3,13841],[23.3,13923],[23.3,14007],[23.3,14091],[23.3,14173],[23.3,14257],[23.3,14341],[23.3,14423],[23.3,14507],[23.3,14591],[23.3,14674],[23.3,14757],[23.3,14841],[23.3,14924],[23.3,15007],[23.3,15091],[23.3,15173],[23.3,15257],[23.3,15341],[23.3,15424],[23.3,15507],[23.3,15591],[23.3,15673],[23.3,15757],[23.3,15841],[23.3,15923],[23.3,16007],[23.3,16091],[23.3,16173],[23.3,16256],[23.3,16341],[23.3,16423],[23.3,16507],[23.3,16591],[23.3,16673],[23.3,16756],[23.3,16840],[23.3,16923],[23.3,17006],[26.6,17091],[40.8,17175],[44.6,17258],[46.7,17340],[48.3,17423],[49.3,17507],[50.1,17590],[50.7,17673],[51.1,17756],[51.1,17839],[51.3,17923],[51.3,18006],[51.3,18090],[51.3,18174],[51.3,18257],[51.3,18339],[51.3,18423],[51.3,18506],[51.3,18590],[51.3,18673],[51.3,18756],[51.3,18839],[51.3,18923],[51.3,19006],[51.3,19089],[51.3,19173],[51.3,19256],[51.3,19339],[51.3,19422],[52.3,19509],[57.6,19591],[59.5,19673],[60.1,19756],[60.4,19840],[60.4,19922],[60.4,20006],[60.4,20091],[60.4,20173],[60.4,20255],[60.4,20339],[60.4,20422],[60.4,20505],[60.4,20590],[60.4,20673],[60.4,20756],[60.4,20839],[60.4,20922],[60.4,21006],[60.4,21089],[60.4,21172],[60.4,21256],[60.4,21339],[60.4,21423],[60.4,21505],[60.4,21589],[60.4,21672],[60.4,21755],[60.4,21839],[60.4,21922],[60.4,22005],[60.4,22089],[60.4,22172],[60.4,22255],[60.4,22339],[60.4,22422],[60.4,22505],[60.4,22589],[60.4,22672],[60.4,22755],[60.4,22839],[60.4,22922],[60.4,23005],[60.4,23088],[60.4,23172],[60.4,23255],[60.4,23338],[60.4,23422],[60.4,23505],[60.4,23588],[60.4,23672],[60.4,23755],[60.4,23838],[60.4,23922],[60.4,24005],[60.4,24088],[60.4,24172],[60.8,24255],[61.1,24344],[61.4,24422],[61.8,24512],[62.4,24595],[62.5,24678],[62.8,24762],[62.8,24844],[62.9,24927],[62.9,25005],[62.9,25093],[62.9,25177],[63.1,25256],[63.5,25344],[64.2,25423],[64.8,25512],[65.2,25595],[65.3,25677],[65.3,25755],[65.5,25845],[65.5,25927],[65.5,26005],[65.5,26093],[65.5,26175],[65.5,26255],[65.5,26345],[65.5,26421],[65.5,26505],[65.5,26587],[65.5,26677],[65.5,26760],[65.5,26837],[65.5,26921],[65.5,27004],[65.5,27093],[65.5,27173],[65.5,27260],[65.5,27344],[65.6,27427],[66,27511],[66,27594],[66,27677],[66,27761],[66,27843],[66,27921],[66,28010],[66,28094],[66,28177],[66,28254],[66,28344],[66,28426],[66,28505],[66,28593],[66,28674],[66,28754],[63.8,28844],[52.8,28927],[49.8,29010],[49.1,29094],[48.5,29176],[47.1,29263],[44.5,29344],[42.6,29426]]",1,0,698.3805,703.1566,39.43377278,4.1808,"[{""rating"":39.43377278015465,""responseTime"":4.180800000071486}]",space,4.2221,,703.1567,Not at all,0,703.1636,,,[],,0,2,2,2,1,audio/Narrative7Situation2.wav,audio/Narrative8Situation2.wav,audio/Narrative5Situation2.wav,audio/Narrative6Situation2.wav,3,3,3,3,,,,,,,,,,,,,,,,,,,,,,,,,,,,,,,,,,,,,,,
,,,,,,582bee72b1afc30001af4eb4,2024-02-08_16h06.54.006,group3.1-3.2-social-tom,2023.2.2,Win32,61.72839506,65c5074098b851296ff0b7ed,65c54182f551826588565dcc,,,,,,,,,,,,,,,,,,,,,,,,,,,,,703.1643,2,audio/Narrative5Situation3.wav,706.1717,,706.1719,720.0852,"[[46,1766],[69.3,2265],[69.9,2350],[70.5,2433],[70.8,2516],[70.8,2601],[70.8,2681],[70.8,2765],[70.8,2848],[70.8,2931],[70.8,3015],[70.8,3099],[70.8,3181],[70.8,3265],[70.8,3349],[70.8,3432],[70.8,3515],[70.8,3598],[70.8,3681],[70.8,3764],[70.8,3848],[70.8,3931],[70.8,4014],[70.8,4097],[70.8,4181],[70.8,4264],[70.8,4348],[70.8,4431],[70.8,4514],[70.8,4598],[70.8,4682],[70.8,4764],[70.8,4848],[70.8,4931],[70.8,5014],[70.8,5098],[70.8,5181],[70.8,5264],[70.8,5348],[70.8,5431],[70.8,5514],[70.8,5597],[70.8,5681],[70.8,5764],[70.8,5848],[70.8,5931],[70.8,6014],[70.8,6098],[70.8,6181],[70.8,6264],[70.8,6348],[70.8,6430],[70.8,6514],[70.8,6597],[70.8,6680],[70.8,6764],[70.8,6848],[70.8,6930],[70.8,7014],[70.8,7098],[70.8,7180],[70.8,7263],[70.8,7347],[70.8,7431],[70.8,7514],[70.8,7598],[70.8,7680],[70.8,7764],[70.8,7848],[70.8,7930],[70.8,8013],[70.8,8098],[70.8,8181],[70.8,8264],[70.8,8348],[70.8,8430],[70.8,8513],[70.8,8596],[70.8,8680],[70.8,8763],[70.8,8847],[70.8,8930],[70.8,9013],[70.8,9097],[70.8,9179],[70.8,9265],[70.8,9346],[70.8,9429],[70.8,9513],[70.8,9597],[70.8,9679],[70.8,9763],[70.8,9847],[70.8,9930],[70.8,10013],[70.8,10098],[70.8,10179],[70.8,10263],[70.8,10347],[70.8,10429],[70.8,10513],[70.8,10597],[70.8,10679],[70.8,10763],[70.8,10846],[70.8,10929],[70.8,11013],[70.8,11098],[70.8,11179],[70.8,11263],[70.8,11347],[70.8,11429],[70.8,11513],[70.8,11596],[70.8,11679],[70.8,11763],[70.8,11846],[70.8,11929],[70.8,12013],[70.8,12096],[70.8,12179],[70.8,12263],[70.8,12346],[70.8,12430],[70.8,12513],[70.8,12596],[70.8,12679],[70.8,12763],[70.8,12850],[70.8,12930],[70.8,13012],[70.8,13096],[70.8,13180],[70.8,13262],[70.8,13346],[70.8,13429],[70.8,13512],[70.8,13596],[70.8,13680],[70.8,13762],[70.8,13845]]",1,0,720.0855,724.9009,13.30120725,4.1823,"[{""rating"":13.301207248276581,""responseTime"":4.182299999952306}]",space,4.2652,,724.9012,Not at all,0,724.9046,,,[],,0,3,3,3,1,audio/Narrative7Situation3.wav,audio/Narrative8Situation3.wav,audio/Narrative5Situation3.wav,audio/Narrative6Situation3.wav,8,4,3,5,,,,,,,,,,,,,,,,,,,,,,,,,,,,,,,,,,,,,,,
,,,,,,582bee72b1afc30001af4eb4,2024-02-08_16h06.54.006,group3.1-3.2-social-tom,2023.2.2,Win32,61.72839506,65c5074098b851296ff0b7ed,65c54182f551826588565dcc,,,,,,,,,,,,,,,,,,,,,,,,,,,,,724.905,2,audio/Narrative5Situation4.wav,725.917,,725.9171,746.3169,"[[88,6665],[85.8,6748],[83.8,6833],[82.9,6914],[82.7,6999],[82.5,7082],[82.5,7164],[82.5,7247],[82.5,7332],[82.5,7414],[82.5,7498],[82.5,7581],[82.5,7664],[82.5,7750],[82.5,7831],[82.5,7914],[82.5,7997],[82.5,8081],[82.5,8164],[82.5,8248],[82.5,8332],[82.5,8413],[82.5,8497],[82.5,8581],[82.5,8664],[82.5,8747],[82.5,8830],[82.5,8914],[82.5,8997],[82.5,9080],[82.5,9164],[82.5,9247],[82.5,9332],[82.5,9414],[82.5,9497],[82.5,9581],[82.5,9664],[82.5,9747],[82.5,9831],[82.5,9914],[82.5,9997],[82.5,10080],[82.5,10163],[82.5,10247],[82.5,10331],[82.5,10415],[82.5,10497],[82.5,10581],[82.5,10663],[82.5,10747],[82.5,10831],[82.5,10914],[82.5,10997],[82.5,11080],[82.5,11165],[82.5,11247],[82.5,11330],[82.5,11414],[82.5,11497],[82.5,11580],[82.5,11664],[82.5,11747],[82.5,11830],[82.5,11914],[82.5,11997],[82.5,12080],[82.5,12164],[82.5,12247],[82.5,12329],[82.5,12414],[82.5,12496],[82.5,12580],[82.5,12663],[82.5,12747],[82.5,12830],[82.5,12914],[82.5,12996],[82.5,13080],[82.5,13163],[82.5,13246],[71.7,13336],[65.9,13419],[64.7,13503],[63.7,13588],[61.3,13671],[58.8,13754],[57.6,13837],[57.1,13914],[56.7,14003],[56.7,14086],[56.7,14168],[56.7,14246],[56.7,14336],[56.7,14413],[56.7,14501],[56.7,14580],[56.7,14663],[56.7,14753],[56.7,14835],[56.7,14919],[56.7,14996],[56.7,15085],[56.7,15163],[56.7,15252],[56.7,15335],[56.7,15418],[56.7,15502],[56.7,15585],[56.7,15663],[56.7,15746],[56.7,15830],[56.7,15919],[56.7,16002],[57.7,16086],[59.6,16168],[60.8,16253],[62.5,16336],[63.7,16419],[64.2,16495],[65.2,16584],[65.9,16664],[66.6,16748],[67.3,16836],[67.4,16918],[67.4,16999],[67.4,17085],[67.4,17164],[67.4,17252],[67.4,17334],[67.4,17412],[67.4,17495],[67.4,17584],[67.4,17663],[67.4,17750],[67.4,17834],[67.4,17917],[67.4,18003],[67.4,18084],[67.4,18167],[67.4,18251],[67.4,18328],[67.4,18417],[67.4,18500],[67.4,18578],[67.4,18661],[67.4,18745],[67.4,18828],[67.4,18912],[67.4,18995],[67.4,19084],[67.4,19162],[68.1,19245],[69.1,19333],[69.7,19418],[70.1,19501],[70.1,19582],[70.1,19667],[70.1,19745],[70.1,19835],[70.1,19913],[70.1,19995],[70.1,20078],[70.1,20162],[70.1,20245],[70.1,20334]]",1,0,746.3177,750.1001,66.71159703,2.3368,"[{""rating"":66.71159703039675,""responseTime"":2.336799999952291}]",space,3.2337,,750.1002,Not at all,0,750.1037,,,[],,0,4,4,4,1,audio/Narrative7Situation4.wav,audio/Narrative8Situation4.wav,audio/Narrative5Situation4.wav,audio/Narrative6Situation4.wav,3,3,1,2,,,,,,,,,,,,,,,,,,,,,,,,,,,,,,,,,,,,,,,
,,,,,,582bee72b1afc30001af4eb4,2024-02-08_16h06.54.006,group3.1-3.2-social-tom,2023.2.2,Win32,61.72839506,65c5074098b851296ff0b7ed,65c54182f551826588565dcc,,,,,,,,,,,,,,,,,,,,,,,,,,,,,750.1041,2,audio/Narrative5Situation5.wav,755.1117,,755.1118,770.5414,"[[79.4,4181],[79.9,4264],[80.1,4348],[80.1,4431],[80.1,4514],[80.1,4598],[80.1,4680],[80.1,4764],[80.1,4847],[80.1,4931],[80.1,5014],[80.1,5097],[80.9,5181],[81.8,5265],[83.5,5348],[84.8,5432],[85.9,5514],[87,5599],[88.7,5681],[91.7,5764],[99.3,5847],[100,5931],[100,6015],[100,6097],[100,6182],[100,6264],[100,6348],[100,6430],[100,6514],[100,6598],[100,6680],[100,6763],[100,6848],[100,6930],[100,7014],[100,7097],[100,7181],[100,7263],[100,7348],[100,7430],[100,7513],[100,7597],[100,7680],[100,7763],[100,7847],[100,7931],[100,8013],[100,8098],[100,8180],[100,8263],[100,8348],[100,8429],[100,8513],[100,8597],[100,8680],[100,8763],[100,8848],[100,8930],[100,9013],[100,9098],[100,9181],[100,9263],[100,9347],[100,9429],[100,9513],[100,9596],[100,9679],[100,9763],[100,9847],[100,9929],[100,10013],[100,10096],[100,10179],[100,10263],[100,10346],[100,10429],[100,10513],[100,10596],[100,10679],[100,10763],[100,10846],[100,10929],[100,11013],[100,11096],[100,11180],[100,11263],[100,11346],[100,11430],[100,11514],[100,11596],[100,11679],[100,11763],[100,11846],[100,11929],[100,12013],[100,12096],[100,12179],[100,12262],[100,12346],[100,12430],[100,12512],[100,12596],[100,12679],[100,12762],[100,12846],[100,12930],[100,13012],[100,13095],[100,13178],[100,13263],[100,13345],[100,13429],[100,13512],[100,13596],[100,13679],[100,13762],[100,13846],[100,13929],[100,14013],[100,14096],[100,14179],[100,14262],[100,14346],[100,14429],[100,14513],[100,14596],[100,14679],[100,14763],[100,14846],[100,14929],[100,15013],[100,15096],[100,15178],[100,15263],[100,15346],[100,15429]]",1,0,770.5416,773.5904,92.53182588,2.4524,"[{""rating"":92.53182588423597,""responseTime"":2.452400000095281}]",space,2.5024,,773.5904,Not at all,0,773.5947,,,[],,0,5,5,5,1,audio/Narrative7Situation5.wav,audio/Narrative8Situation5.wav,audio/Narrative5Situation5.wav,audio/Narrative6Situation5.wav,5,2,5,2,,,,,,,,,,,,,,,,,,,,,,,,,,,,,,,,,,,,,,,
,,,,,,582bee72b1afc30001af4eb4,2024-02-08_16h06.54.006,group3.1-3.2-social-tom,2023.2.2,Win32,61.72839506,65c5074098b851296ff0b7ed,65c54182f551826588565dcc,,,,,,,,,,,,,,,,,,,,,,,,,,,,,773.5956,2,audio/Narrative5Situation6.wav,776.6062,,776.6064,782.2717,"[[100,2182],[100,2266],[100,2349],[100,2433],[100,2515],[100,2598],[100,2682],[100,2765],[100,2848],[100,2933],[100,3015],[100,3099],[100,3182],[100,3265],[100,3348],[100,3432],[100,3515],[100,3598],[100,3682],[100,3765],[100,3849],[100,3932],[100,4015],[100,4099],[100,4183],[100,4264],[100,4349],[100,4431],[100,4515],[100,4598],[100,4682],[100,4764],[100,4847],[100,4932],[100,5016],[100,5098],[100,5182],[100,5264],[100,5348],[100,5432],[100,5516],[100,5598]]",1,0,782.272,785.5881,99.71568307,2.3564,"[{""rating"":99.71568306766801,""responseTime"":2.3563999999761336}]",space,2.7858,,785.5881,Half the time,50,785.5943,,,[],,0,6,6,6,1,audio/Narrative7Situation6.wav,audio/Narrative8Situation6.wav,audio/Narrative5Situation6.wav,audio/Narrative6Situation6.wav,3,2,3,2,,,,,,,,,,,,,,,,,,,,,,,,,,,,,,,,,,,,,,,
,,,,,,582bee72b1afc30001af4eb4,2024-02-08_16h06.54.006,group3.1-3.2-social-tom,2023.2.2,Win32,61.72839506,65c5074098b851296ff0b7ed,65c54182f551826588565dcc,,,,,,,,,,,,,,,,,,,,,,,,,,,,,785.5949,2,audio/Narrative5Situation7.wav,789.6035,,789.6036,810.6492,"[[99.6,2433],[99.4,2516],[99.3,2599],[99.3,2682],[99.3,2766],[99.3,2849],[99.3,2932],[99.3,3016],[99.3,3099],[99.3,3182],[99.3,3266],[99.3,3348],[99.3,3432],[99.3,3516],[99.3,3598],[99.3,3682],[99.3,3766],[99.3,3848],[99.3,3932],[99.3,4016],[99.3,4099],[99.3,4182],[99.2,4266],[99.2,4348],[99.2,4432],[99.2,4515],[99.2,4598],[99.2,4681],[99.4,4765],[99.9,4848],[100,4932],[100,5015],[100,5098],[100,5182],[100,5266],[100,5349],[100,5432],[100,5515],[100,5598],[100,5681],[100,5766],[100,5848],[100,5932],[100,6016],[100,6098],[100,6181],[100,6265],[100,6348],[100,6431],[100,6514],[100,6597],[100,6681],[100,6764],[100,6848],[100,6931],[100,7016],[100,7097],[100,7181],[100,7264],[100,7347],[100,7431],[100,7515],[100,7598],[100,7681],[100,7764],[100,7847],[100,7931],[100,8015],[100,8097],[100,8181],[100,8265],[100,8347],[100,8431],[100,8514],[100,8597],[100,8681],[100,8764],[100,8848],[100,8931],[100,9014],[100,9097],[100,9181],[100,9264],[100,9347],[100,9431],[100,9515],[100,9597],[100,9680],[100,9763],[100,9847],[100,9931],[100,10015],[100,10097],[100,10181],[100,10263],[100,10347],[100,10430],[100,10513],[100,10597],[100,10681],[100,10764],[100,10847],[100,10930],[100,11013],[100,11097],[100,11180],[100,11263],[100,11347],[100,11430],[100,11513],[100,11597],[100,11680],[100,11763],[100,11847],[100,11930],[100,12013],[100,12097],[100,12180],[100,12263],[100,12347],[100,12430],[100,12513],[100,12597],[100,12680],[100,12765],[100,12847],[100,12930],[100,13013],[100,13097],[100,13179],[100,13263],[100,13347],[100,13430],[100,13513],[100,13597],[100,13679],[100,13763],[100,13846],[100,13929],[100,14014],[100,14097],[100,14180],[100,14263],[100,14346],[100,14429],[100,14513],[100,14597],[100,14679],[100,14763],[100,14846],[100,14929],[100,15013],[100,15097],[100,15179],[100,15263],[100,15346],[100,15430],[100,15513],[100,15596],[100,15679],[100,15762],[100,15846],[100,15929],[100,16012],[100,16096],[100,16180],[100,16263],[100,16346],[100,16429],[100,16512],[100,16596],[100,16680],[100,16762],[99.8,16847],[91.9,16932],[88,17014],[85.9,17097],[83.8,17180],[78.4,17264],[75.8,17348],[74.8,17429],[74.3,17512],[74.3,17596],[74.3,17679],[74.3,17762],[74.3,17846],[74.3,17929],[74.3,18012],[74.3,18096],[74.3,18179],[74.3,18262],[74.3,18345],[74.3,18428],[74.3,18512],[74.3,18595],[74.3,18678],[74.3,18762],[74.3,18845],[74.3,18928],[74.3,19012],[74.3,19095],[74.3,19178],[74.3,19261],[74.3,19345],[74.3,19428],[74.3,19512],[74.3,19595],[74.3,19678],[74.3,19762],[74.3,19845],[74.3,19928],[74.3,20012],[74.3,20095],[74.3,20178],[74.3,20262],[74.3,20345],[74.3,20428],[74.3,20512],[74.3,20595],[74.3,20678],[74.3,20763],[74.3,20844],[74.3,20929],[74.3,21011]]",1,0,810.6496,815.048,80.45461078,3.5717,"[{""rating"":80.45461077993374,""responseTime"":3.571700000047713}]",space,3.8664,,815.0481,All the time,100,815.0544,,,[],,0,7,7,7,1,audio/Narrative7Situation7.wav,audio/Narrative8Situation7.wav,audio/Narrative5Situation7.wav,audio/Narrative6Situation7.wav,5,3,4,5,,,,,,,,,,,,,,,,,,,,,,,,,,,,,,,,,,,,,,,
,,,,,,582bee72b1afc30001af4eb4,2024-02-08_16h06.54.006,group3.1-3.2-social-tom,2023.2.2,Win32,61.72839506,65c5074098b851296ff0b7ed,65c54182f551826588565dcc,,,,,,,,,,,,,,,,,,,,,,,,,,,,,815.0548,2,audio/Narrative5Situation8.wav,818.0641,,818.0642,826.8841,"[[81.2,3172],[81.9,3255],[82.6,3337],[83,3421],[83,3505],[83,3588],[83,3665],[83,3755],[83,3839],[83,3920],[83,4004],[83,4082],[83,4165],[83,4248],[83,4331],[83,4414],[83,4504],[83,4588],[83,4670],[83,4755],[83,4832],[83,4916],[83,4998],[83,5088],[83,5170],[83,5248],[83,5331],[83,5421],[83,5498],[83,5587],[83,5670],[83,5748],[83,5838],[83,5918],[83,6004],[83,6081],[83,6166],[83,6254],[83,6338],[83,6417],[83,6505],[83,6581],[83,6670],[83,6753],[94.5,6838],[98.7,6920],[99.3,7005],[99.8,7082],[100,7172],[100,7254],[100,7334],[100,7420],[100,7502],[100,7587],[100,7665],[100,7747],[100,7837],[100,7920],[100,7997],[100,8086],[100,8170],[100,8253],[100,8331],[100,8415],[100,8497],[100,8587],[100,8670],[100,8753]]",1,0,826.8843,835.1773,77.22709694,7.898,"[{""rating"":92.84415801873325,""responseTime"":5.004500000000007},{""rating"":77.22709693971393,""responseTime"":7.898000000000025}]",space,7.7513,,835.1774,All the time,100,835.1827,,,[],,0,8,8,8,1,audio/Narrative7Situation8.wav,audio/Narrative8Situation8.wav,audio/Narrative5Situation8.wav,audio/Narrative6Situation8.wav,2,3,3,5,,,,,,,,,,,,,,,,,,,,,,,,,,,,,,,,,,,,,,,
,,,,,,582bee72b1afc30001af4eb4,2024-02-08_16h06.54.006,group3.1-3.2-social-tom,2023.2.2,Win32,61.72839506,65c5074098b851296ff0b7ed,65c54182f551826588565dcc,,,,,,,,,,,,,,,,,,,,,,,,,,,,,835.1832,2,audio/Narrative5Situation9.wav,838.1956,,838.1957,877.7349,"[[94.7,1414],[100,1497],[100,1580],[100,1664],[100,1746],[100,1830],[100,1913],[100,1996],[100,2080],[100,2163],[100,2246],[100,2330],[100,2413],[100,2497],[100,2579],[100,2663],[100,2746],[100,2829],[100,2914],[100,2996],[100,3079],[100,3163],[100,3246],[100,3329],[100,3414],[100,3496],[100,3579],[100,3664],[100,3746],[100,3830],[100,3914],[100,3997],[100,4079],[100,4163],[100,4245],[100,4329],[100,4414],[100,4497],[100,4579],[100,4662],[100,4745],[100,4829],[100,4913],[100,4996],[100,5079],[100,5163],[100,5245],[100,5329],[100,5412],[100,5496],[100,5579],[100,5662],[100,5746],[100,5828],[100,5913],[100,5995],[100,6079],[100,6163],[100,6246],[100,6329],[100,6412],[100,6496],[100,6579],[100,6662],[100,6746],[100,6829],[100,6913],[100,6996],[100,7079],[100,7163],[100,7245],[100,7332],[100,7412],[100,7496],[100,7578],[100,7664],[100,7746],[100,7828],[100,7912],[100,7996],[100,8079],[100,8162],[100,8245],[100,8328],[100,8412],[100,8495],[100,8578],[100,8661],[100,8745],[100,8828],[100,8911],[100,8995],[100,9078],[100,9162],[100,9245],[100,9328],[100,9411],[100,9495],[100,9578],[100,9662],[100,9745],[100,9828],[100,9912],[100,9995],[100,10078],[100,10161],[100,10245],[100,10328],[100,10411],[100,10495],[100,10578],[100,10661],[100,10745],[100,10828],[100,10911],[100,10995],[100,11077],[100,11161],[100,11244],[100,11328],[100,11412],[100,11495],[100,11577],[100,11661],[100,11745],[100,11827],[100,11911],[100,11995],[100,12077],[100,12161],[100,12244],[100,12327],[100,12411],[100,12494],[100,12577],[100,12661],[100,12745],[100,12827],[100,12911],[100,12995],[100,13077],[100,13160],[100,13245],[100,13327],[100,13411],[100,13494],[100,13577],[100,13660],[100,13745],[100,13827],[100,13910],[100,13995],[100,14077],[100,14160],[100,14244],[100,14327],[100,14410],[100,14494],[100,14577],[100,14660],[100,14745],[100,14827],[100,14910],[100,14994],[100,15077],[100,15160],[100,15244],[100,15327],[100,15410],[100,15494],[100,15577],[100,15660],[100,15744],[100,15827],[100,15910],[100,15994],[100,16077],[100,16160],[100,16244],[100,16326],[100,16410],[100,16493],[100,16577],[100,16660],[100,16744],[100,16827],[100,16910],[100,16994],[100,17076],[100,17160],[100,17244],[100,17326],[100,17410],[100,17494],[100,17576],[100,17660],[100,17743],[100,17826],[100,17910],[100,17993],[100,18076],[100,18159],[100,18243],[100,18326],[100,18410],[100,18496],[100,18576],[100,18659],[100,18743],[100,18826],[100,18909],[100,18993],[100,19076],[100,19159],[100,19242],[100,19326],[100,19409],[100,19492],[100,19576],[100,19659],[100,19744],[100,19827],[100,19909],[100,19994],[100,20076],[100,20159],[100,20243],[100,20325],[100,20409],[100,20493],[100,20575],[100,20659],[100,20743],[100,20825],[100,20909],[100,20993],[100,21075],[100,21159],[100,21243],[100,21325],[100,21409],[100,21494],[100,21575],[100,21659],[100,21742],[100,21826],[100,21909],[100,21993],[100,22075],[100,22159],[100,22243],[100,22325],[100,22409],[100,22492],[100,22575],[100,22659],[100,22742],[100,22825],[100,22909],[100,22992],[100,23075],[100,23158],[100,23242],[100,23326],[100,23408],[100,23492],[100,23576],[100,23658],[100,23742],[100,23825],[100,23908],[100,23992],[100,24075],[100,24158],[100,24242],[100,24325],[100,24408],[100,24492],[100,24575],[100,24658],[100,24742],[100,24824],[100,24908],[100,24991],[100,25076],[100,25158],[100,25242],[100,25325],[100,25409],[100,25492],[100,25575],[100,25658],[100,25741],[100,25825],[100,25908],[100,25991],[100,26074],[100,26158],[100,26241],[100,26325],[100,26408],[100,26491],[100,26574],[100,26658],[100,26741],[100,26825],[100,26908],[100,26991],[100,27075],[100,27157],[100,27241],[100,27325],[100,27408],[100,27491],[100,27575],[100,27657],[100,27741],[100,27825],[100,27907],[100,27991],[100,28075],[100,28157],[100,28241],[100,28325],[100,28408],[100,28491],[100,28575],[100,28657],[100,28741],[100,28825],[100,28908],[100,28991],[100,29075],[100,29157],[100,29240],[100,29324],[100,29407],[100,29490],[100,29575],[100,29657],[100,29740],[100,29824],[100,29907],[100,29990],[100,30074],[100,30157],[100,30240],[100,30324],[100,30407],[100,30490],[100,30573],[100,30657],[100,30740],[100,30824],[100,30906],[100,30990],[100,31075],[100,31157],[100,31240],[100,31324],[100,31406],[100,31490],[100,31574],[100,31657],[100,31740],[100,31824],[100,31907],[100,31990],[100,32073],[100,32156],[100,32240],[100,32324],[100,32407],[100,32490],[100,32574],[100,32657],[100,32740],[100,32824],[100,32906],[100,32990],[100,33073],[100,33156],[100,33239],[100,33323],[100,33406],[100,33494],[100,33574],[100,33656],[100,33740],[100,33823],[100,33906],[100,33990],[100,34074],[100,34156],[100,34239],[100,34324],[100,34406],[100,34489],[100,34572],[100,34656],[100,34739],[100,34823],[100,34906],[100,34990],[100,35073],[100,35156],[100,35239],[100,35323],[100,35406],[100,35489],[100,35573],[100,35655],[100,35739],[100,35823],[100,35905],[100,35989],[100,36074],[100,36155],[100,36239],[100,36322],[100,36405],[100,36489],[100,36572],[100,36656],[100,36739],[100,36822],[100,36905],[100,36989],[100,37072],[100,37156],[100,37239],[100,37323],[100,37405],[100,37489],[100,37573],[100,37655],[100,37739],[100,37822],[100,37907],[100,37990],[100,38073],[100,38156],[100,38238],[100,38323],[100,38405],[100,38488],[100,38572],[100,38655],[100,38739],[100,38822],[100,38905],[100,38988],[100,39072],[100,39155],[100,39238],[100,39322],[100,39405],[100,39488]]",1,0,877.7354,880.1737,99.81979378,1.7977,"[{""rating"":99.8197937791671,""responseTime"":1.7976999999284544}]",space,1.9115,,880.1738,Not at all,0,880.1798,,,[],,0,9,9,9,1,audio/Narrative7Situation9.wav,audio/Narrative8Situation9.wav,audio/Narrative5Situation9.wav,audio/Narrative6Situation9.wav,2,3,3,4,,,,,,,,,,,,,,,,,,,,,,,,,,,,,,,,,,,,,,,
,,,,,,582bee72b1afc30001af4eb4,2024-02-08_16h06.54.006,group3.1-3.2-social-tom,2023.2.2,Win32,61.72839506,65c5074098b851296ff0b7ed,65c54182f551826588565dcc,,,,,,,,,,,,,,,,,,,,,,,,,,,,,880.1804,2,audio/Narrative6Situation1.wav,882.1837,,882.1838,908.7812,"[[99.8,3418],[98.8,3499],[97.4,4166],[97.8,4250],[97.9,4332],[97.9,4417],[97.9,4498],[97.9,4581],[97.9,4665],[97.9,4748],[97.9,4832],[97.9,4915],[97.9,4998],[97.9,5082],[97.9,5166],[91.8,5249],[90.4,5331],[90,5415],[89.8,5498],[89.4,5582],[88.9,5665],[88.6,5748],[88.6,5832],[88.6,5914],[88.6,5998],[88.6,6081],[88.6,6164],[88.6,6248],[88.6,6331],[88.6,6416],[88.6,6498],[88.6,6581],[88.6,6665],[88.6,6748],[88.6,6831],[88.6,6915],[88.6,6998],[88.6,7081],[88.6,7165],[88.6,7247],[88.6,7332],[88.6,7415],[88.6,7497],[88.6,7581],[88.6,7666],[88.6,7747],[88.6,7831],[88.6,7916],[88.6,7998],[88.6,8081],[88.6,8165],[88.6,8248],[88.6,8331],[88.6,8415],[88.4,8498],[86.1,8582],[85.1,8666],[84.4,8748],[84.1,8831],[84.1,8914],[84.1,8998],[84.1,9081],[84.2,9164],[84.7,9250],[84.9,9332],[84.9,9414],[84.9,9497],[84.9,9581],[84.9,9664],[84.9,9747],[85,9831],[85.7,9914],[87,9998],[88.4,10081],[89.1,10164],[89.5,10248],[89.9,10331],[89.9,10414],[89.9,10497],[89.9,10580],[89.9,10664],[89.9,10747],[89.9,10830],[89.9,10914],[89.9,10997],[89.9,11080],[89.9,11164],[89.9,11247],[89.9,11331],[89.9,11414],[89.9,11497],[89.9,11581],[89.9,11664],[89.9,11747],[89.9,11830],[89.9,11914],[89.9,11997],[89.9,12080],[89.9,12165],[89.9,12248],[89.9,12330],[89.9,12414],[89.9,12497],[89.9,12580],[89.9,12663],[89.9,12747],[89.9,12830],[89.9,12914],[89.9,12997],[89.9,13081],[89.9,13164],[89.9,13247],[89.9,13330],[89.9,13414],[89.9,13497],[90.1,13580],[90.5,13665],[90.9,13748],[91.2,13830],[91.6,13913],[92.2,13997],[92.5,14080],[92.6,14163],[92.7,14247],[92.7,14330],[92.7,14413],[92.9,14498],[93,14579],[93.5,14663],[93.7,14746],[94,14829],[94,14913],[94,14997],[94,15079],[94,15163],[94,15247],[94,15329],[94,15412],[94,15497],[94,15579],[94,15663],[94,15747],[94,15829],[94,15913],[94,15996],[94,16079],[94,16163],[94,16247],[94,16329],[94,16413],[94,16496],[94,16579],[94,16663],[94,16745],[94,16829],[94,16912],[94,16997],[94,17079],[94,17163],[94,17247],[94,17329],[94,17412],[94,17496],[94,17579],[94,17662],[94,17746],[94,17829],[94,17912],[94,17996],[94,18078],[94,18162],[94,18245],[94,18329],[94,18412],[94,18496],[94,18579],[94,18662],[94,18745],[94,18829],[94,18912],[94,18996],[94,19079],[94,19162],[94,19246],[94,19329],[94,19412],[94,19495],[94,19578],[94,19662],[94,19745],[94,19829],[94,19912],[94,19995],[92,20080],[89.9,20162],[88,20246],[83.7,20328],[80.4,20414],[77.7,20497],[75.8,20580],[74.2,20663],[73.3,20747],[72.1,20829],[70.9,20912],[70.2,20995],[69.2,21078],[68.5,21162],[67.9,21245],[67.6,21328],[67.5,21411],[67.6,21495],[71.2,21580],[74.6,21663],[75.7,21745],[76.3,21828],[76.7,21911],[76.9,21995],[77.1,22079],[77.1,22162],[77.1,22245],[77.1,22328],[77.1,22411],[77.1,22495],[77.1,22578],[77.1,22662],[77.1,22745],[77.1,22827],[77.1,22912],[77.1,22994],[77.1,23078],[77.8,23161],[78.6,23246],[79.4,23328],[80.9,23412],[82.3,23497],[83.3,23578],[84.7,23663],[85.6,23745],[86.2,23827],[86.4,23911],[86.7,23997],[87.3,24078],[87.7,24162],[88,24245],[88,24328],[88,24411],[88,24494],[88,24578],[88,24661],[88.7,24746],[90.2,24828],[91.5,24911],[93.8,24998],[96,25078],[98.1,25160],[99.5,25245],[100,25327],[100,25412],[100,25495],[100,25577],[100,25661],[100,25744],[100,25828],[100,25911],[100,25994],[100,26078],[100,26160],[100,26244],[100,26327],[100,26410],[100,26494],[100,26577]]",1,0,908.7815,912.4441,83.78625351,2.5718,"[{""rating"":83.78625350581889,""responseTime"":2.571799999952418}]",space,3.1199,,912.4443,All the time,100,912.4513,,,[],,0,10,10,10,1,audio/Narrative8Situation1.wav,audio/Narrative7Situation1.wav,audio/Narrative6Situation1.wav,audio/Narrative5Situation1.wav,5,2,2,5,,,,,,,,,,,,,,,,,,,,,,,,,,,,,,,,,,,,,,,
,,,,,,582bee72b1afc30001af4eb4,2024-02-08_16h06.54.006,group3.1-3.2-social-tom,2023.2.2,Win32,61.72839506,65c5074098b851296ff0b7ed,65c54182f551826588565dcc,,,,,,,,,,,,,,,,,,,,,,,,,,,,,912.4518,2,audio/Narrative6Situation2.wav,915.4601,,915.4601,943.9713,"[[999,0],[999,83],[999,166],[999,250],[999,333],[999,416],[999,501],[999,583],[999,666],[999,749],[999,833],[999,916],[999,1000],[999,1082],[999,1166],[999,1250],[999,1335],[97.1,1419],[98.2,1499],[98.5,1582],[98.7,1666],[98.7,1750],[98.7,1832],[98.7,1916],[98.7,1999],[98.7,2082],[99.8,2166],[100,2249],[100,2333],[100,2418],[100,2501],[100,2582],[100,2666],[100,2749],[100,2832],[100,2915],[100,2999],[100,3082],[100,3165],[100,3250],[100,3331],[100,3415],[100,3500],[100,3582],[100,3665],[100,3749],[100,3832],[100,3915],[100,3999],[100,4082],[100,4165],[100,4249],[100,4332],[100,4415],[100,4499],[100,4581],[100,4665],[100,4749],[100,4832],[100,4915],[100,4999],[100,5081],[100,5165],[100,5248],[100,5332],[100,5415],[100,5499],[100,5581],[100,5665],[100,5749],[100,5831],[100,5915],[100,5999],[100,6081],[100,6165],[100,6249],[100,6331],[100,6415],[100,6498],[100,6582],[100,6665],[100,6749],[100,6831],[100,6915],[100,6998],[100,7082],[100,7165],[100,7248],[100,7332],[100,7414],[100,7498],[100,7581],[100,7664],[100,7749],[100,7831],[100,7914],[100,7998],[100,8081],[100,8164],[100,8247],[100,8331],[100,8414],[100,8498],[100,8581],[100,8664],[100,8748],[100,8831],[100,8914],[100,8998],[100,9081],[100,9164],[100,9247],[100,9331],[100,9414],[100,9498],[100,9581],[100,9664],[100,9748],[100,9831],[100,9914],[100,9997],[100,10081],[100,10164],[100,10247],[100,10331],[100,10414],[100,10498],[100,10580],[100,10664],[100,10748],[100,10836],[100,10914],[100,10997],[100,11086],[100,11168],[100,11248],[100,11334],[100,11414],[100,11503],[100,11586],[100,11664],[100,11753],[100,11831],[100,11919],[100,11999],[100,12087],[100,12163],[100,12246],[100,12330],[100,12420],[100,12502],[100,12584],[100,12669],[100,12748],[100,12830],[100,12920],[100,13002],[100,13081],[100,13169],[100,13252],[100,13331],[100,13420],[100,13503],[100,13586],[100,13667],[100,13747],[100,13833],[100,13919],[100,13997],[100,14079],[100,14163],[100,14246],[100,14335],[100,14419],[100,14503],[100,14580],[100,14669],[100,14752],[100,14831],[100,14913],[100,15002],[100,15085],[100,15166],[100,15248],[100,15337],[100,15419],[100,15496],[100,15585],[100,15663],[100,15752],[100,15835],[100,15920],[100,16001],[100,16080],[100,16169],[100,16246],[100,16333],[100,16420],[100,16502],[100,16585],[100,16669],[100,16745],[100,16829],[100,16918],[100,17002],[100,17085],[100,17169],[100,17252],[100,17329],[100,17412],[100,17502],[100,17585],[100,17662],[100,17746],[100,17835],[100,17912],[100,18002],[100,18084],[100,18162],[100,18249],[100,18330],[100,18418],[100,18499],[100,18584],[100,18665],[100,18750],[100,18829],[100,18918],[100,18997],[100,19084],[100,19168],[100,19251],[100,19335],[100,19412],[100,19501],[100,19579],[100,19668],[100,19747],[100,19834],[100,19912],[100,19995],[100,20084],[100,20168],[100,20250],[100,20335],[100,20412],[100,20500],[100,20579],[100,20662],[100,20751],[100,20829],[100,20918],[100,20999],[100,21079],[100,21165],[100,21245],[100,21334],[100,21418],[100,21496],[100,21584],[100,21661],[100,21752],[100,21834],[100,21917],[100,22001],[100,22078],[100,22169],[100,22244],[100,22335],[100,22412],[100,22501],[100,22583],[100,22663],[100,22745],[100,22829],[100,22911],[100,23001],[100,23083],[100,23161],[100,23251],[100,23334],[100,23417],[100,23495],[100,23584],[100,23667],[100,23745],[100,23834],[98.7,23928],[98,24011],[97.6,24094],[96.9,24178],[95.9,24263],[94.7,24345],[93.9,24428],[93.5,24511],[93.5,24594],[93.5,24678],[93.5,24761],[93.5,24844],[93.5,24927],[93.5,25011],[93.5,25094],[93.5,25177],[93.5,25260],[93.5,25344],[93.5,25428],[93.5,25511],[93.5,25594],[93.5,25678],[93.5,25761],[93.5,25844],[93.5,25928],[93.5,26010],[93.7,26094],[93.7,26178],[93.7,26260],[93.7,26344],[93.7,26427],[93.7,26510],[93.7,26593],[93.7,26677],[93.7,26761],[93.7,26844],[93.7,26927],[93.7,27010],[93.7,27094],[93.7,27177],[93.5,27261],[92.8,27343],[92,27427],[91,27511],[89.9,27593],[88.9,27677],[88.2,27761],[87.9,27843],[87.3,27927],[86.8,28010],[86.5,28093],[86.5,28177],[86.1,28260],[85.8,28343],[85.6,28427],[85.3,28510]]",1,0,943.9716,949.0204,98.57042889,2.2719,"[{""rating"":98.57042889284554,""responseTime"":2.271899999976199}]",space,4.5017,,949.0206,Not at all,0,949.0272,,,[],,0,11,11,11,1,audio/Narrative8Situation2.wav,audio/Narrative7Situation2.wav,audio/Narrative6Situation2.wav,audio/Narrative5Situation2.wav,3,3,3,3,,,,,,,,,,,,,,,,,,,,,,,,,,,,,,,,,,,,,,,
,,,,,,582bee72b1afc30001af4eb4,2024-02-08_16h06.54.006,group3.1-3.2-social-tom,2023.2.2,Win32,61.72839506,65c5074098b851296ff0b7ed,65c54182f551826588565dcc,,,,,,,,,,,,,,,,,,,,,,,,,,,,,949.0281,2,audio/Narrative6Situation3.wav,954.0351,,954.0352,966.6317,"[[97.6,2349],[96.3,2432],[95.5,2517],[95.2,2598],[94.4,2682],[91.4,2765],[90,2849],[88.7,2933],[87.7,3015],[87.2,3098],[86.6,3183],[86.6,3266],[86.6,3349],[86.6,3432],[86.6,3515],[86.6,3598],[86.6,3682],[86.6,3765],[86.6,3849],[86.6,3932],[87,4016],[87.8,4098],[88.4,4183],[89.1,4265],[89.9,4348],[90.6,4432],[90.9,4515],[91.2,4598],[91.2,4682],[91.5,4767],[92.2,4849],[92.9,4932],[93.6,5017],[93.9,5098],[94.3,5181],[94.8,5265],[94.8,5348],[94.8,5431],[94.8,5515],[94.8,5598],[94.8,5682],[94.8,5765],[94.8,5848],[94.8,5931],[94.8,6014],[94.8,6098],[94.8,6181],[94.8,6265],[94.8,6348],[94.8,6432],[94.8,6516],[94.8,6598],[94.8,6681],[94.8,6765],[94.8,6848],[94.8,6931],[94.8,7015],[94.8,7097],[94.8,7181],[94.8,7265],[94.8,7348],[94.8,7431],[94.8,7515],[94.8,7598],[94.8,7681],[94.8,7765],[94.8,7847],[94.8,7931],[94.8,8014],[94.8,8097],[94.8,8181],[94.8,8264],[94.8,8347],[94.8,8431],[94.8,8514],[94.8,8597],[94.8,8681],[94.8,8765],[94.8,8848],[94.8,8931],[94.8,9014],[94.2,9098],[91.4,9181],[88.2,9266],[84.4,9348],[79.1,9431],[62.5,10515],[62,10597],[61.1,10681],[60.6,10766],[60.2,10847],[59.5,10930],[59.1,11014],[58.4,11097],[57.3,11182],[56.1,11265],[55.3,11348],[54.5,11431],[53.9,11514],[53.6,11597],[53.6,11680],[53.1,11763],[53,11846],[53,11929],[53,12013],[53,12096],[53,12180],[53,12263],[53,12346],[53,12430],[53,12513],[53,12596]]",1,0,966.6319,970.0483,78.68469234,2.7913,"[{""rating"":78.68469233611678,""responseTime"":2.791299999952116}]",space,2.8708,,970.0483,All the time,100,970.0538,,,[],,0,12,12,12,1,audio/Narrative8Situation3.wav,audio/Narrative7Situation3.wav,audio/Narrative6Situation3.wav,audio/Narrative5Situation3.wav,4,8,5,3,,,,,,,,,,,,,,,,,,,,,,,,,,,,,,,,,,,,,,,
,,,,,,582bee72b1afc30001af4eb4,2024-02-08_16h06.54.006,group3.1-3.2-social-tom,2023.2.2,Win32,61.72839506,65c5074098b851296ff0b7ed,65c54182f551826588565dcc,,,,,,,,,,,,,,,,,,,,,,,,,,,,,970.0543,2,audio/Narrative6Situation4.wav,972.0647,,972.0649,984.7012,"[[999,0],[999,83],[999,169],[50.3,250],[50.3,332],[50.3,418],[50.3,499],[50.3,582],[50.3,666],[50.3,749],[50.3,832],[50.3,916],[50.3,999],[50.3,1082],[50.3,1166],[50.3,1249],[50.3,1332],[50.3,1415],[50.3,1500],[50.3,1581],[50.3,1666],[50.3,1749],[50.3,1833],[50.3,1916],[50.3,1999],[50.3,2082],[50.3,2165],[50.3,2248],[50.3,2332],[50.3,2415],[50.3,2499],[50.3,2582],[50.3,2666],[50.3,2749],[50.3,2832],[50.3,2915],[50.3,2998],[50.3,3082],[50.3,3165],[50.3,3249],[50.3,3332],[50.3,3415],[50.3,3499],[50.3,3582],[50.3,3665],[50.3,3748],[50.3,3832],[50.3,3916],[50.3,3998],[50.3,4082],[50.3,4166],[50.3,4248],[50.3,4331],[50.3,4416],[50.3,4498],[50.3,4582],[50.3,4665],[50.3,4748],[50.3,4831],[50.3,4915],[50.3,4998],[50.3,5081],[50.7,5165],[51.4,5249],[52.5,5335],[53.2,5415],[54.6,5499],[55.6,5582],[56.6,5665],[57.3,5748],[57.9,5832],[58.3,5916],[58.9,5999],[59.3,6081],[59.8,6164],[59.8,6248],[59.8,6331],[59.8,6415],[59.8,6497],[59.8,6581],[59.8,6665],[59.8,6748],[59.8,6831],[59.8,6914],[59.8,6998],[59.8,7081],[59.8,7165],[59.8,7248],[59.8,7331],[59.8,7415],[59.8,7497],[59.8,7581],[59.8,7664],[59.8,7747],[59.8,7830],[59.8,7915],[60.1,7998],[60.1,8082],[60.3,8165],[60.3,8247],[60.3,8331],[60.3,8415],[60.3,8498],[60.3,8580],[60.3,8665],[60.3,8747],[60.3,8831],[60.3,8914],[60.3,8997],[60.3,9080],[60.3,9165],[60.3,9247],[60.3,9330],[60.3,9414],[60.3,9496],[60.3,9580],[60.3,9663],[60.4,9747],[60.4,9831],[60.6,9914],[60.6,9997],[60.6,10081],[60.6,10165],[60.6,10247],[60.7,10330],[71.6,10414],[76.2,10498],[78.1,10581],[79.1,10664],[79.4,10747],[79.6,10830],[79.6,10914],[79.6,11549],[79.6,12330],[80.1,12535],[80.7,12619]]",1,0,984.7013,988.6685,72.75020004,2.9982,"[{""rating"":72.75020003900629,""responseTime"":2.9982000000477456}]",space,3.4185,,988.6687,All the time,100,988.6723,,,[],,0,13,13,13,1,audio/Narrative8Situation4.wav,audio/Narrative7Situation4.wav,audio/Narrative6Situation4.wav,audio/Narrative5Situation4.wav,3,3,2,1,,,,,,,,,,,,,,,,,,,,,,,,,,,,,,,,,,,,,,,
,,,,,,582bee72b1afc30001af4eb4,2024-02-08_16h06.54.006,group3.1-3.2-social-tom,2023.2.2,Win32,61.72839506,65c5074098b851296ff0b7ed,65c54182f551826588565dcc,,,,,,,,,,,,,,,,,,,,,,,,,,,,,988.6729,2,audio/Narrative6Situation5.wav,990.6775,,990.6777,998.6322,"[[76.9,2005],[82.4,2088],[85.7,2172],[90.3,2255],[94,2338],[95.8,2422],[98.5,2506],[100,2588],[100,2672],[100,2755],[100,2838],[100,2916],[100,3004],[100,3087],[100,3165],[100,3255],[100,3338],[100,3415],[100,3505],[100,3582],[100,3672],[100,3754],[100,3837],[100,3921],[100,4003],[100,4085],[100,4170],[100,4248],[100,4337],[100,4415],[100,4498],[100,4588],[100,4671],[100,4755],[100,4837],[100,4915],[100,5005],[100,5087],[100,5171],[100,5248],[100,5338],[100,5415],[100,5504],[100,5587],[100,5670],[100,5752],[100,5832],[100,5914],[100,6005],[100,6082],[100,6171],[100,6248],[100,6337],[100,6414],[100,6505],[100,6581],[100,6671],[100,6753],[100,6837],[100,6914],[100,7005],[100,7086],[100,7171],[100,7254],[100,7337],[100,7421],[100,7497],[100,7587],[100,7664],[100,7754],[100,7836],[100,7921]]",1,0,998.6324,1000.9751,99.92391358,1.8272,"[{""rating"":99.92391357774932,""responseTime"":1.8272000000476964}]",space,1.8016,,1000.9752,Not at all,0,1000.9837,,,[],,0,14,14,14,1,audio/Narrative8Situation5.wav,audio/Narrative7Situation5.wav,audio/Narrative6Situation5.wav,audio/Narrative5Situation5.wav,2,5,2,5,,,,,,,,,,,,,,,,,,,,,,,,,,,,,,,,,,,,,,,
,,,,,,582bee72b1afc30001af4eb4,2024-02-08_16h06.54.006,group3.1-3.2-social-tom,2023.2.2,Win32,61.72839506,65c5074098b851296ff0b7ed,65c54182f551826588565dcc,,,,,,,,,,,,,,,,,,,,,,,,,,,,,1000.9845,2,audio/Narrative6Situation6.wav,1002.9946,,1002.9947,1014.0794,"[[99.8,1748],[99.6,1836],[99.4,1913],[99.4,1996],[99.4,2079],[99.4,2169],[99.4,2245],[99.4,2329],[99.4,2413],[99.4,2502],[99.4,2585],[99.4,2663],[99.4,2749],[99.4,2834],[99.4,2918],[99.4,2996],[99.4,3086],[99.4,3168],[99.4,3252],[99.4,3335],[99.4,3419],[99.4,3501],[99.4,3584],[99.4,3662],[99.4,3746],[99.4,3835],[99.4,3919],[99.4,3996],[99.4,4084],[99.4,4168],[99.4,4251],[99.5,4335],[99.5,4419],[99.5,4501],[99.9,4585],[100,4668],[100,4753],[100,4835],[100,4914],[100,5002],[100,5081],[100,5168],[100,5245],[100,5335],[100,5412],[100,5501],[100,5585],[100,5668],[100,5745],[100,5834],[100,5914],[100,5995],[100,6084],[100,6168],[100,6247],[100,6334],[100,6418],[100,6501],[100,6585],[100,6667],[100,6749],[100,6828],[100,6911],[100,6995],[100,7078],[100,7167],[100,7247],[100,7334],[100,7418],[100,7500],[100,7578],[100,7667],[100,7747],[100,7834],[100,7917],[100,8000],[100,8078],[100,8167],[100,8250],[100,8334],[100,8411],[100,8498],[100,8584],[100,8666],[100,8750],[100,8834],[100,8917],[100,9000],[100,9084],[100,9162],[100,9245],[100,9327],[100,9417],[100,9495],[100,9581],[100,9667],[100,9744],[100,9828],[100,9915],[100,9999],[100,10084],[100,10167],[100,10250],[100,10327],[100,10417],[100,10494],[100,10584],[100,10661],[100,10745],[100,10833],[100,10915],[100,10994],[100,11084]]",1,0,1014.0797,1016.2117,100,1.3424,"[{""rating"":100,""responseTime"":1.3424000000954948}]",space,1.5826,,1016.2118,Not at all,0,1016.2149,,,[],,0,15,15,15,1,audio/Narrative8Situation6.wav,audio/Narrative7Situation6.wav,audio/Narrative6Situation6.wav,audio/Narrative5Situation6.wav,2,3,2,3,,,,,,,,,,,,,,,,,,,,,,,,,,,,,,,,,,,,,,,
,,,,,,582bee72b1afc30001af4eb4,2024-02-08_16h06.54.006,group3.1-3.2-social-tom,2023.2.2,Win32,61.72839506,65c5074098b851296ff0b7ed,65c54182f551826588565dcc,,,,,,,,,,,,,,,,,,,,,,,,,,,,,1016.2154,2,audio/Narrative6Situation7.wav,1021.2214,,1021.2214,1046.0828,"[[100,1849],[100,1932],[100,2015],[100,2099],[100,2182],[100,2265],[100,2349],[100,2432],[100,2515],[100,2599],[100,2682],[100,2765],[100,2849],[100,2933],[100,3015],[100,3099],[100,3182],[100,3265],[100,3348],[100,3431],[100,3515],[100,3598],[100,3682],[100,3765],[100,3848],[100,3931],[100,4015],[100,4098],[100,4181],[100,4264],[100,4348],[100,4431],[100,4515],[100,4597],[100,4681],[100,4764],[100,4849],[100,4931],[100,5016],[100,5099],[100,5181],[100,5264],[100,5349],[100,5431],[98.7,5514],[96.3,5599],[94.3,5682],[93.2,5767],[92,5848],[91.1,5932],[90.5,6014],[90.5,6099],[90.5,6181],[90.5,6264],[88.8,6349],[83.3,6432],[80.4,6516],[79.6,6597],[79.6,6681],[79.6,6764],[78.3,6849],[74.8,6931],[73.5,7014],[73.5,7098],[73.5,7181],[73.5,7265],[72.7,7351],[70.6,7431],[69.9,7514],[69.9,7598],[69.9,7681],[69.9,7764],[69.7,7849],[68.5,7931],[67.8,8014],[66.8,8097],[66.1,8181],[65.4,8264],[64.3,8348],[63.1,8431],[61.6,8517],[60.5,8597],[59.9,8680],[59.9,8764],[59.9,8848],[59.9,8930],[59.9,9014],[58.9,9100],[57.1,9181],[55.8,9263],[55.1,9347],[55,9430],[55,9513],[55,9597],[55.4,9681],[57.3,9765],[59.1,9848],[60.1,9931],[60.4,10015],[60.6,10098],[60.6,10180],[60.6,10263],[60.6,10348],[60.6,10431],[60.6,10513],[60.6,10597],[60.6,10680],[60.6,10764],[60.6,10847],[60.6,10930],[60.6,11013],[60.6,11097],[60.6,11180],[60.6,11263],[60.6,11346],[60.3,11431],[59.5,11513],[58.8,11597],[58.1,11680],[57.8,11763],[57.1,11847],[55.7,11930],[54.8,12013],[53.9,12097],[52.9,12180],[52.3,12264],[51.8,12347],[51.5,12429],[51.5,12513],[51.2,12596],[50.8,12679],[50.8,12763],[50.8,12846],[50.8,12929],[50.8,13012],[50.8,13096],[50.8,13180],[50.8,13263],[50.8,13346],[50.8,13429],[50.8,13512],[50.8,13599],[50.8,13680],[50.8,13762],[50.8,13846],[50.8,13930],[50.8,14013],[50.8,14096],[50.8,14180],[50.8,14263],[50.8,14346],[50.8,14429],[50.8,14513],[50.8,14596],[50.8,14679],[43.4,14764],[39.1,14846],[38,14930],[38,15012],[38,15096],[38,15180],[38,15263],[38,15347],[37.4,15429],[35.6,15513],[34,15597],[32.9,15680],[31.1,15762],[29.4,15848],[27.4,15930],[26.4,16012],[26.4,16096],[26.4,16179],[26.4,16262],[26.4,16345],[26.4,16429],[25.2,16512],[23.9,16597],[22.6,16680],[21.4,16763],[20.5,16847],[20.2,16929],[20.6,17012],[21.5,17096],[27.9,17180],[38.6,17262],[49.8,17348],[62,17430],[66.5,17512],[66.5,17595],[66.5,17679],[66.5,17762],[66.5,17845],[66.5,17929],[66.5,18012],[66.5,18095],[66.5,18179],[66.5,18261],[66.5,18345],[66.5,18428],[66.5,18512],[66.5,18595],[66.5,18680],[66.5,18761],[66.6,18847],[67.7,18929],[68.6,19011],[68.9,19095],[70.1,19179],[71.4,19261],[72.5,19345],[73.1,19428],[73.5,19512],[73.6,19595],[73.6,19679],[73.6,19763],[73.6,19845],[73.6,19929],[73.6,20011],[73.6,20095],[73.6,20178],[73.6,20261],[73.6,20346],[73.6,20428],[73.6,20512],[73.6,20595],[73.6,20679],[73.6,20761],[73.6,20845],[73.6,20929],[73.6,21011],[73.6,21094],[73.1,21181],[70.5,21263],[67.4,21345],[64.9,21429],[62.4,21512],[60,21594],[53.3,21681],[49.3,21761],[47.5,21844],[46.3,21930],[44.1,22011],[40,22096],[39.2,22178],[39.2,22261],[39.2,22344],[39.2,22427],[39.2,22510],[36.1,22595],[32.5,22679],[30.1,22761],[27.6,22845],[23.8,22931],[20.3,23011],[19.8,23094],[19.8,23178],[19.8,23260],[19.8,23344],[19.8,23427],[18.9,23511],[17.1,23594],[15.8,23680],[15.2,23761],[14.8,23844],[14.5,23928],[14.5,24010],[14.5,24094],[14.5,24178],[14.5,24260],[14.5,24344],[14.5,24427],[14.5,24511],[12.9,24594],[11.8,24679],[10.4,24761],[9,24847]]",1,0,1046.083,1050.8142,49.32459025,2.8575,"[{""rating"":49.324590246311054,""responseTime"":2.8575000000000728}]",space,4.1813,,1050.8143,All the time,100,1050.8189,,,[],,0,16,16,16,1,audio/Narrative8Situation7.wav,audio/Narrative7Situation7.wav,audio/Narrative6Situation7.wav,audio/Narrative5Situation7.wav,3,5,5,4,,,,,,,,,,,,,,,,,,,,,,,,,,,,,,,,,,,,,,,
,,,,,,582bee72b1afc30001af4eb4,2024-02-08_16h06.54.006,group3.1-3.2-social-tom,2023.2.2,Win32,61.72839506,65c5074098b851296ff0b7ed,65c54182f551826588565dcc,,,,,,,,,,,,,,,,,,,,,,,,,,,,,1050.8192,2,audio/Narrative6Situation8.wav,1055.8304,,1055.8304,1062.7018,"[[49.7,3437],[50.1,3520],[50.1,3600],[50.1,3688],[50.1,3772],[50.2,3849],[50.2,3932],[50.2,4021],[50.2,4106],[50.2,4187],[50.2,4270],[50.2,4354],[50.2,4432],[50.2,4521],[50.2,4604],[50.2,4682],[50.2,4765],[50.2,4848],[50.2,4937],[50.2,5021],[50.4,5100],[54,5188],[56.3,5272],[58.3,5354],[61,5438],[63.6,5521],[66.2,5605],[68.1,5690],[69.4,5772],[71.7,5854],[72.9,5937],[73.5,6021],[73.6,6103],[73.6,6184],[73.6,6271],[73.6,6352],[73.6,6431],[73.6,6520],[73.6,6604],[73.6,6681],[73.6,6771],[73.6,6853]]",1,0,1062.7023,1066.469,73.47900228,2.0484,"[{""rating"":73.47900228074928,""responseTime"":2.048399999976027}]",space,3.2156,,1066.469,All the time,100,1066.4726,,,[],,0,17,17,17,1,audio/Narrative8Situation8.wav,audio/Narrative7Situation8.wav,audio/Narrative6Situation8.wav,audio/Narrative5Situation8.wav,3,2,5,3,,,,,,,,,,,,,,,,,,,,,,,,,,,,,,,,,,,,,,,
,,,,,,582bee72b1afc30001af4eb4,2024-02-08_16h06.54.006,group3.1-3.2-social-tom,2023.2.2,Win32,61.72839506,65c5074098b851296ff0b7ed,65c54182f551826588565dcc,,,,,,,,,,,,,,,,,,,,,,,,,,,,,1066.473,2,audio/Narrative6Situation9.wav,1070.4827,,1070.4827,1080.4584,"[[73.4,1178],[73.4,1260],[73.4,1343],[73.4,1428],[73.4,1510],[73.4,1593],[73.4,1677],[73.4,1761],[73.4,1843],[73.4,1928],[73.4,2010],[73.4,2093],[73.4,2178],[73.4,2260],[73.4,2343],[73.4,2427],[73.4,2509],[73.4,2593],[73.4,2678],[73.4,2759],[73.4,2843],[73.4,2926],[73.4,3010],[73.4,3093],[73.4,3177],[73.4,3260],[73.4,3343],[73.4,3427],[73.4,3510],[73.4,3593],[73.4,3677],[73.4,3760],[73.4,3843],[73.4,3927],[73.4,4009],[73.4,4093],[73.4,4176],[73.4,4259],[73.4,4343],[73.4,4427],[73.4,4509],[73.4,4593],[73.4,4677],[73.4,4759],[73.4,4843],[73.4,4927],[73.4,5009],[73.4,5093],[74,5177],[75.8,5260],[77.6,5343],[78.4,5426],[79.3,5510],[80.2,5592],[81.5,5679],[82.2,5759],[82.6,5848],[82.9,5926],[83.3,6009],[83.5,6093],[83.6,6176],[83.6,6259],[83.9,6342],[84,6426],[84.2,6512],[84.5,6593],[84.9,6676],[85,6759],[85.4,6842],[85.4,6926],[85.4,7009],[85.4,7092],[85.4,7175],[85.4,7258],[85.4,7342],[85.4,7425],[85.4,7509],[85.4,7592],[85.4,7677],[85.4,7759],[85.4,7842],[85.4,7925],[85.4,8008],[85.4,8092],[85.4,8176],[85.4,8260],[85.4,8343],[85.4,8425],[85.4,8508],[85.4,8592],[85.4,8677],[85.4,8758],[85.4,8842],[85.4,8927],[85.4,9009],[85.4,9092],[85.4,9176],[85.4,9259],[85.4,9342],[85.4,9426],[85.4,9508],[85.4,9593],[85.4,9676],[85.4,9758],[85.4,9843],[85.4,9926]]",1,0,1080.4587,1084.5912,83.16157106,1.9421,"[{""rating"":83.16157106265814,""responseTime"":1.9421000000238564}]",space,3.5824,,1084.5913,All the time,100,1088.8241,99.92391358,3.5227,"[{""rating"":99.92391357774932,""responseTime"":3.5227000000475073}]",space,0,18,18,18,1,audio/Narrative8Situation9.wav,audio/Narrative7Situation9.wav,audio/Narrative6Situation9.wav,audio/Narrative5Situation9.wav,3,2,4,3,,,3.6855,,,,,,,,,,,,,,,,,,,,,,,,,,,,,,,,,,,,
,,,,,,582bee72b1afc30001af4eb4,2024-02-08_16h06.54.006,group3.1-3.2-social-tom,2023.2.2,Win32,61.72839506,65c5074098b851296ff0b7ed,65c54182f551826588565dcc,,,,,,,,,,,,,,,,,,,,,,,,,,,,,,,,,,,,,,,,,,,,,,,,,,,,,,,,,,,,,,,,,,,,,,,,1088.8246,1103.4537,space,14.1051,,1103.4549,1111.9032,space,8.1173,,,,,,,,,,,,,,,,,,,,,,,,,,
