exp_question,consent.started,consent.stopped,consentResponse.keys,consentResponse.rt,consentResponse.duration,participantID,date,expName,psychopyVersion,OS,frameRate,STUDY_ID,SESSION_ID,opening1.started,opening1.stopped,keyEndingOpening1.keys,keyEndingOpening1.rt,keyEndingOpening1.duration,volumeAdjust.started,volumeAdjust.stopped,endingAdjust.keys,endingAdjust.rt,endingAdjust.duration,opening2.started,opening2.stopped,keyEndingOpening.keys,keyEndingOpening.rt,keyEndingOpening.duration,mouse.x,mouse.y,mouse.leftButton,mouse.midButton,mouse.rightButton,mouse.time,instructionLoop.thisRepN,instructionLoop.thisTrialN,instructionLoop.thisN,instructionLoop.thisIndex,instructionLoop.ran,readyForAudio.started,readyForAudio.stopped,fixation.started,run,audio_played,fixation.stopped,endPractice.keys,audioPre.started,audioPre.stopped,continuousResponses_audio,continuousSlider.response,continuousSlider.rt,intRating.started,intRating.stopped,intQuestionSlider.response,intQuestionSlider.rt,intQuestionSlider.history,confirmResponse.keys,confirmResponse.rt,confirmResponse.duration,catchQuestion.started,catch_label,catch_value,catchQuestion.stopped,catchQuestionSlider.response,catchQuestionSlider.rt,catchQuestionSlider.history,confirmResponse_2.keys,audioRunLoop.thisRepN,audioRunLoop.thisTrialN,audioRunLoop.thisN,audioRunLoop.thisIndex,audioRunLoop.ran,conditions1_1,conditions2_1,conditions1_2,conditions2_2,dur1_1,dur2_1,dur1_2,dur2_2,endPractice.rt,endPractice.duration,confirmResponse_2.rt,confirmResponse_2.duration,runIntervalBreak.started,runIntervalBreak.stopped,endingBreakKey.keys,endingBreakKey.rt,endingBreakKey.duration,connection.started,connection.stopped,connectionEnding.keys,connectionEnding.rt,connectionEnding.duration,readyForText.started,readyForText.stopped,textPre.started,run_dup,textPre.stopped,continuousResponses_text,textRunLoop.thisRepN,textRunLoop.thisTrialN,textRunLoop.thisN,textRunLoop.thisIndex,textRunLoop.ran,text1_1,text1_2,text2_1,text2_2,runBreakText.started,runBreakText.stopped,endingBreakKey_2.keys,endingBreakKey_2.rt,endingBreakKey_2.duration,ending.started,ending.stopped,endingEnding.keys,endingEnding.rt,endingEnding.duration
social,0.0003,5.7898,y,5.2674,,5885f97f41da4500014d3645,2024-02-08_15h01.54.166,group3.1-3.2-social-tom,2023.2.2,Win32,14.4092219,65c5074098b851296ff0b7ed,65c54139fad0c82b865c2a24,,,,,,,,,,,,,,,,,,,,,,,,,,,,,,,,,,,,,,,,,,,,,,,,,,,,,,,,,,,,,,,,,,,,,,,,,,,,,,,,,,,,,,,,,,,,,,,,,,,,,,,,,,
,,,,,,5885f97f41da4500014d3645,2024-02-08_15h01.54.166,group3.1-3.2-social-tom,2023.2.2,Win32,14.4092219,65c5074098b851296ff0b7ed,65c54139fad0c82b865c2a24,5.7901,8.5156,space,2.6402,0.0002,,,,,,,,,,,,,,,,,,,,,,,,,,,,,,,,,,,,,,,,,,,,,,,,,,,,,,,,,,,,,,,,,,,,,,,,,,,,,,,,,,,,,,,,,,,,,,,,,,,,,
,,,,,,5885f97f41da4500014d3645,2024-02-08_15h01.54.166,group3.1-3.2-social-tom,2023.2.2,Win32,14.4092219,65c5074098b851296ff0b7ed,65c54139fad0c82b865c2a24,,,,,,8.5157,15.4535,space,6.5283,1E-04,,,,,,,,,,,,,,,,,,,,,,,,,,,,,,,,,,,,,,,,,,,,,,,,,,,,,,,,,,,,,,,,,,,,,,,,,,,,,,,,,,,,,,,,,,,,,,,,
,,,,,,5885f97f41da4500014d3645,2024-02-08_15h01.54.166,group3.1-3.2-social-tom,2023.2.2,Win32,14.4092219,65c5074098b851296ff0b7ed,65c54139fad0c82b865c2a24,,,,,,,,,,,15.4558,24.7289,space,9.1809,0.0001,[],[],[],[],[],[],0,0,0,0,1,,,,,,,,,,,,,,,,,,,,,,,,,,,,,,,,,,,,,,,,,,,,,,,,,,,,,,,,,,,,,,,,,,,,,,,,,,,,,,,,
,,,,,,5885f97f41da4500014d3645,2024-02-08_15h01.54.166,group3.1-3.2-social-tom,2023.2.2,Win32,14.4092219,65c5074098b851296ff0b7ed,65c54139fad0c82b865c2a24,,,,,,,,,,,24.7292,41.9551,space,17.1008,,[],[],[],[],[],[],1,0,1,0,1,,,,,,,,,,,,,,,,,,,,,,,,,,,,,,,,,,,,,,,,,,,,,,,,,,,,,,,,,,,,,,,,,,,,,,,,,,,,,,,,
,,,,,,5885f97f41da4500014d3645,2024-02-08_15h01.54.166,group3.1-3.2-social-tom,2023.2.2,Win32,14.4092219,65c5074098b851296ff0b7ed,65c54139fad0c82b865c2a24,,,,,,,,,,,41.9553,45.8843,space,3.8251,,[0.3975022190300993],[0.5659885173672242],[1],[0],[0],[3.563299999997021],2,0,2,0,1,,,,,,,,,,,,,,,,,,,,,,,,,,,,,,,,,,,,,,,,,,,,,,,,,,,,,,,,,,,,,,,,,,,,,,,,,,,,,,,,
,,,,,,5885f97f41da4500014d3645,2024-02-08_15h01.54.166,group3.1-3.2-social-tom,2023.2.2,Win32,14.4092219,65c5074098b851296ff0b7ed,65c54139fad0c82b865c2a24,,,,,,,,,,,45.8845,66.826,space,20.8496,1E-04,[0.43303189536397774],[-0.18518524886296947],[1],[0],[0],[3.700000000000003],3,0,3,0,1,,,,,,,,,,,,,,,,,,,,,,,,,,,,,,,,,,,,,,,,,,,,,,,,,,,,,,,,,,,,,,,,,,,,,,,,,,,,,,,,
,,,,,,5885f97f41da4500014d3645,2024-02-08_15h01.54.166,group3.1-3.2-social-tom,2023.2.2,Win32,14.4092219,65c5074098b851296ff0b7ed,65c54139fad0c82b865c2a24,,,,,,,,,,,66.8313,80.9201,space,14.0037,,[],[],[],[],[],[],4,0,4,0,1,,,,,,,,,,,,,,,,,,,,,,,,,,,,,,,,,,,,,,,,,,,,,,,,,,,,,,,,,,,,,,,,,,,,,,,,,,,,,,,,
,,,,,,5885f97f41da4500014d3645,2024-02-08_15h01.54.166,group3.1-3.2-social-tom,2023.2.2,Win32,14.4092219,65c5074098b851296ff0b7ed,65c54139fad0c82b865c2a24,,,,,,,,,,,,,,,,,,,,,,,,,,,80.9265,83.4569,83.4675,1,audio/Narrative13Situation2.wav,85.4851,,85.4852,115.3369,"[[52.2,2232],[52.3,2297],[51.7,2369],[51.1,2452],[77,4695],[66.5,4771],[58,4846],[54.4,4919],[52.8,4989],[52.8,5067],[52.8,5143],[52.8,5206],[53.1,5281],[55.9,5350],[62.5,5423],[67.4,5496],[69,5565],[69.2,5645],[69.2,5720],[68.8,5792],[66.3,5866],[62.7,5943],[59.5,6022],[56.9,6092],[54.7,6173],[52.7,6244],[52.5,6314],[52.5,6380],[52.5,6447],[52.5,6514],[52,6583],[52,6652],[52,6719],[52,6798],[52,6874],[52,6948],[52,7021],[52,7097],[52,7170],[51.4,7245],[51.2,7319],[49.8,7390],[48.6,7466],[47.5,7532],[46.1,7612],[45.2,7684],[43.7,7759],[42.3,7830],[40,7902],[36.1,7975],[32.6,8046],[31.4,8121],[31,8189],[30.3,8265],[30.3,8336],[30.3,8410],[30.1,8492],[37.5,8715],[51.3,8795],[55.8,8867],[56.6,8944],[56.7,9018],[56.7,9089],[56.8,9161],[56.8,9224],[56.8,9295],[56.6,9369],[56.2,9438],[55.6,9508],[55.3,9578],[54,9650],[51.7,9720],[50.6,9790],[50.6,9865],[50.3,9940],[50.3,10022],[50.7,10104],[51.1,10176],[51.3,10243],[51.3,10313],[51.3,10381],[51.3,10457],[51.4,10522],[51.5,10602],[51.7,10670],[52.2,10744],[52.8,10813],[54.2,10884],[55,10956],[55.6,11026],[55.9,11095],[55.9,11161],[56.3,11238],[56.5,11311],[56.5,11388],[56.5,11460],[56.5,11531],[56.5,11604],[56.5,11675],[56.5,11754],[56.5,11820],[56.5,11890],[56.5,11956],[57.9,12034],[58.7,12102],[58.7,12174],[58.7,12238],[58.7,12308],[58.7,12379],[58.7,12446],[58.7,12521],[58.7,12591],[58.7,12667],[58.7,12740],[58.7,12814],[58.7,12885],[58.7,12960],[58.7,13038],[58.7,13112],[58.7,13188],[58.7,13260],[58.7,13332],[58.7,13407],[58.7,13476],[58.7,13550],[58.7,13617],[58.7,13685],[58.7,13753],[58.7,13820],[59.5,13891],[61.3,13960],[62.2,14026],[62.5,14099],[62.7,14171],[62.7,14243],[62.8,14324],[62.8,14394],[62.8,14464],[62.8,14537],[62.8,14606],[62.8,14678],[63.4,14749],[63.9,14829],[63.9,14903],[63.9,14971],[63.9,15048],[63.9,15114],[63.9,15186],[63.9,15251],[63.9,15323],[63.9,15395],[63.9,15467],[63.9,15540],[63.9,15613],[63.9,15690],[63.6,15769],[63.3,15844],[62.8,15915],[62.3,15992],[62.1,16063],[62.1,16136],[62.1,16208],[62.1,16278],[61.6,16346],[61.2,16414],[61.1,16485],[61.1,16552],[61.1,16623],[61.1,16689],[61.1,16756],[61,16828],[60.5,16915],[59.8,16989],[59,17066],[58.6,17141],[58.5,17202],[58.4,17271],[58.4,17341],[58.3,17416],[58.2,17492],[58.1,17565],[58,17637],[57.9,17699],[57.8,17777],[57.7,17849],[57.5,17921],[57.5,17992],[57.3,18065],[57.3,18137],[57.2,18208],[57.2,18288],[57.1,18360],[57.1,18439],[56.8,18515],[56.8,18586],[56.6,18652],[56.5,18723],[56.5,18801],[56.5,18870],[56.5,18945],[56.5,19009],[56.5,19083],[56.5,19150],[56.5,19226],[56.5,19302],[56.5,19374],[56.2,19448],[56.1,19517],[55.6,19601],[54.4,19676],[52.9,19759],[52.2,19833],[51.6,19908],[51,19993],[50.5,20065],[50.1,20134],[50,20204],[49.7,20285],[49.3,20357],[48.9,20424],[48.4,20510],[47.8,20586],[47.4,20656],[47.1,20724],[46.7,20792],[46.3,20867],[45.8,20933],[45.3,21008],[45,21082],[44.4,21158],[43.9,21241],[43.8,21315],[43.7,21387],[43.5,21451],[43.3,21524],[43.2,21594],[43.1,21664],[43.1,21734],[43.1,21801],[43.1,21868],[43,21939],[42.7,22024],[42.6,22104],[42.5,22182],[42.4,22255],[42.4,22319],[42.4,22396],[42.4,22470],[42.4,22543],[42.4,22618],[42.4,22700],[42.4,22770],[42.4,22841],[42.4,22921],[42.4,22985],[42.4,23048],[42.4,23115],[42.4,23182],[42.4,23252],[42.4,23324],[42.4,23396],[42.4,23471],[42.4,23542],[42.4,23607],[42.4,23684],[42.4,23760],[42.4,23834],[42.4,23913],[42.4,23996],[42.4,24069],[42.4,24146],[42.4,24220],[42.4,24286],[42.4,24356],[42.4,24422],[42.4,24489],[42.4,24557],[42.4,24630],[42.4,24699],[42.4,24782],[42.4,24851],[42.4,24926],[42.4,24996],[42.4,25065],[42.4,25149],[42.4,25227],[42.4,25298],[42.4,25373],[42.4,25446],[42.4,25527],[42.4,25602],[42.4,25668],[42.4,25748],[42.4,25817],[42.4,25884],[42.4,25958],[42.4,26026],[42.4,26098],[42.4,26166],[42.4,26237],[42.4,26299],[42.4,26367],[42.4,26433],[42.4,26507],[42.4,26587],[42.4,26662],[42.4,26736],[42.4,26806],[42.4,26882],[42.4,26957],[42.3,27035],[42.3,27120],[42.2,27190],[42.1,27274],[41.9,27345],[41.8,27415],[41.7,27485],[41.6,27555],[41.4,27625],[41,27695],[40.4,27769],[39.5,27851],[38.8,27929],[38.8,28004],[38.8,28078],[38.8,28149],[38.8,28223],[38.8,28297],[38.8,28367],[38.8,28444],[38.8,28513],[38.8,28579],[38.8,28649],[38.8,28715],[38.8,28790],[38.8,28856],[38.8,28926],[38.8,28992],[38.8,29064],[38.8,29129],[38.8,29202],[38.8,29284],[38.8,29358],[38.8,29429],[38.8,29501],[38.8,29572],[38.8,29645],[38.8,29717],[38.8,29785],[38.8,29851]]",1,0,115.3371,123.3432,24.69618717,5.0991,"[{""rating"":24.69618717300696,""responseTime"":5.099099999994053}]",space,7.3341,,123.3484,Definitely yes,100,123.3512,,,[],,0,0,0,0,1,audio/Narrative13Situation2.wav,audio/Narrative13Situation2.wav,audio/Narrative13Situation2.wav,audio/Narrative13Situation2.wav,2,2,2,2,,,,,,,,,,,,,,,,,,,,,,,,,,,,,,,,,,,,,,,
,,,,,,5885f97f41da4500014d3645,2024-02-08_15h01.54.166,group3.1-3.2-social-tom,2023.2.2,Win32,14.4092219,65c5074098b851296ff0b7ed,65c54139fad0c82b865c2a24,,,,,,,,,,,,,,,,,,,,,,,,,,,,,123.3513,1,audio/Narrative8Situation1.wav,125.2483,space,125.2484,141.3407,"[[999,0],[999,76],[999,139],[999,216],[999,283],[999,360],[999,433],[999,501],[999,572],[999,642],[999,723],[999,797],[999,877],[999,949],[999,1020],[999,1088],[999,1160],[999,1229],[999,1297],[999,1363],[999,1429],[999,1497],[999,1565],[50.1,1637],[50,1707],[50,1784],[50,1857],[50.3,1925],[50.1,1998],[50.1,2069],[50.1,2140],[50.1,2214],[50.1,2289],[50.1,2354],[49.7,2432],[49.6,2501],[49.6,2569],[49.6,2640],[49.6,2705],[49.6,2772],[49.6,2840],[49.6,2911],[49.6,2976],[49.6,3048],[49.6,3114],[49.6,3182],[49.6,3249],[49.6,3331],[49.6,3408],[49.6,3478],[49.6,3552],[49.6,3622],[49.6,3696],[49.6,3765],[49.6,3831],[49.6,3912],[49.6,3975],[49.6,4048],[49.6,4113],[49.6,4185],[49.6,4253],[49.6,4325],[49.6,4394],[49.6,4466],[47.9,4537],[43.5,4607],[37.7,4682],[32.4,4751],[28.3,4826],[26.3,4903],[24.3,4978],[23.6,5048],[23.3,5126],[22.8,5205],[22.1,5272],[21.2,5339],[20.2,5407],[19.1,5472],[18.3,5553],[17.2,5634],[16.3,5706],[16,5777],[15.8,5845],[15.7,5917],[15.7,5989],[15.7,6056],[15.7,6122],[15.8,6195],[15.9,6271],[16,6346],[16,6428],[16,6502],[16,6570],[16,6636],[16.1,6708],[16.2,6778],[16.6,6848],[17.1,6915],[17.2,6986],[17.2,7057],[17.2,7122],[17.2,7191],[17.2,7268],[17.2,7338],[17.2,7402],[17.2,7473],[17.2,7535],[17.2,7613],[17.2,7697],[17.2,7775],[17.2,7848],[17.2,7919],[17.2,7987],[17.2,8063],[17.2,8131],[17.2,8196],[17.2,8272],[17.2,8339],[17.2,8407],[17.2,8484],[17.2,8561],[17.2,8632],[17.2,8696],[17.2,8767],[17.2,8834],[17.2,8908],[17.2,8980],[17.2,9051],[17.2,9125],[17.2,9207],[17.2,9279],[17.2,9348],[17.2,9423],[17.2,9490],[17.5,9562],[18.5,9627],[19.4,9700],[20.3,9766],[21.1,9844],[21.8,9910],[22.6,9979],[23.2,10048],[23.5,10114],[24,10189],[24.2,10263],[24.3,10329],[24.4,10403],[24.4,10477],[24.4,10551],[24.4,10623],[24.4,10695],[24.4,10771],[24.4,10841],[24.4,10910],[24.4,10975],[24.4,11043],[24.4,11108],[24.4,11178],[24.4,11253],[24.4,11329],[24.4,11395],[24.4,11466],[24.4,11534],[24.4,11599],[24.4,11663],[24.4,11742],[24.4,11818],[24.4,11888],[24.4,11963],[24.4,12036],[24.4,12115],[24.4,12197],[24.4,12265],[24.4,12345],[24.4,12413],[24.4,12484],[24.4,12547],[24.4,12623],[24.4,12694],[24.4,12760],[24.4,12828],[24.4,12893],[24.4,12964],[24.4,13030],[24.4,13101],[24.4,13172],[24.4,13250],[24.4,13328],[24.4,13399],[24.4,13471],[24.4,13537],[24.4,13612],[24.4,13680],[24.4,13755],[24.4,13823],[24.4,13889],[24.4,13959],[24.4,14027],[24.4,14103],[24.4,14168],[24.4,14242],[24.4,14309],[24.4,14377],[24.4,14445],[24.4,14514],[24.4,14598],[24.4,14670],[24.4,14741],[24.4,14814],[24.4,14886],[24.4,14954],[24.4,15022],[24.4,15090],[24.4,15164],[24.4,15233],[24.4,15301],[24.4,15371],[24.4,15436],[24.4,15517],[24.4,15585],[24.4,15655],[24.4,15724],[24.4,15793],[24.4,15864],[24.4,15948],[24.4,16020],[24.4,16092]]",1,0,141.3408,145.0393,8.443848108,2.361,"[{""rating"":8.443848107830204,""responseTime"":2.3610000000000184}]",space,3.0036,,145.0393,Partially,50,145.0407,,,[],,0,1,1,1,1,audio/Narrative7Situation1.wav,audio/Narrative8Situation1.wav,audio/Narrative5Situation1.wav,audio/Narrative6Situation1.wav,2,5,5,2,1.8188,,,,,,,,,,,,,,,,,,,,,,,,,,,,,,,,,,,,,,
,,,,,,5885f97f41da4500014d3645,2024-02-08_15h01.54.166,group3.1-3.2-social-tom,2023.2.2,Win32,14.4092219,65c5074098b851296ff0b7ed,65c54139fad0c82b865c2a24,,,,,,,,,,,,,,,,,,,,,,,,,,,,,145.0408,1,audio/Narrative8Situation2.wav,148.0552,,148.0553,158.2864,"[[999,0],[999,79],[999,155],[999,233],[999,306],[999,380],[999,456],[999,522],[999,589],[999,658],[999,722],[999,793],[999,861],[999,926],[999,991],[999,1061],[999,1124],[999,1201],[999,1277],[999,1347],[999,1423],[999,1502],[999,1582],[999,1652],[999,1724],[999,1800],[999,1871],[999,1949],[999,2013],[999,2084],[999,2165],[999,2233],[999,2301],[999,2368],[999,2443],[999,2507],[999,2579],[999,2641],[999,2712],[999,2779],[999,2857],[999,2939],[999,3018],[999,3091],[999,3160],[999,3234],[999,3303],[999,3371],[999,3439],[999,3506],[999,3576],[999,3641],[999,3717],[999,3794],[999,3864],[999,3929],[999,3996],[999,4063],[999,4126],[999,4193],[999,4259],[999,4332],[999,4406],[999,4488],[999,4565],[999,4650],[999,4724],[999,4788],[999,4865],[999,4936],[999,5013],[999,5079],[999,5148],[999,5215],[999,5287],[999,5362],[999,5436],[999,5503],[999,5569],[999,5635],[999,5703],[999,5776],[999,5847],[999,5921],[999,5993],[999,6067],[999,6137],[999,6205],[999,6278],[999,6347],[999,6415],[22.9,6481],[21.8,6557],[21.5,6626],[21.4,6702],[21.4,6775],[21.4,6837],[21.4,6903],[21.4,6979],[21.4,7054],[21.4,7124],[21.3,7194],[19.9,7266],[18.2,7348],[16.9,7423],[16.5,7499],[16.8,7574],[16.8,7640],[16.8,7712],[16.8,7783],[16.8,7852],[16.8,7917],[16.8,7983],[17,8053],[16.5,8123],[16.1,8198],[14.4,8265],[12.2,8344],[11,8412],[10.5,8491],[10.3,8566],[10.3,8638],[10.3,8714],[10.3,8789],[10.3,8861],[10.4,8944],[10.4,9025],[10.4,9100],[10.4,9170],[10.4,9236],[10.4,9304],[10.5,9380],[10.6,9449],[10.6,9523],[10.6,9591],[10.6,9659],[10.6,9727],[10.6,9796],[10.6,9863],[10.6,9933],[10.6,10008],[10.6,10077],[10.6,10155],[10.6,10230]]",1,0,158.2865,162.1143,0.802016869,2.6124,"[{""rating"":0.2638612384730954,""responseTime"":2.2966999999880784},{""rating"":0.8020168690539731,""responseTime"":2.612399999991055}]",space,3.1654,1E-04,162.1144,Partially,50,162.1152,,,[],,0,2,2,2,1,audio/Narrative7Situation2.wav,audio/Narrative8Situation2.wav,audio/Narrative5Situation2.wav,audio/Narrative6Situation2.wav,3,3,3,3,,,,,,,,,,,,,,,,,,,,,,,,,,,,,,,,,,,,,,,
,,,,,,5885f97f41da4500014d3645,2024-02-08_15h01.54.166,group3.1-3.2-social-tom,2023.2.2,Win32,14.4092219,65c5074098b851296ff0b7ed,65c54139fad0c82b865c2a24,,,,,,,,,,,,,,,,,,,,,,,,,,,,,162.1152,1,audio/Narrative8Situation3.wav,166.1637,,166.1638,188.7654,"[[16.6,1129],[16.6,1193],[16.6,1265],[16.6,1332],[16.6,1412],[16.6,1485],[16.6,1556],[16.6,1633],[16.6,1708],[16.6,1785],[16.6,1857],[16.6,1929],[16.5,2004],[15.2,2075],[14.2,2143],[12.4,2210],[10.4,2293],[9.1,2360],[8.5,2430],[7.5,2497],[6.2,2568],[5.4,2637],[4.7,2721],[4,2808],[3.5,2881],[3.4,2956],[3.4,3031],[3.4,3103],[3.4,3184],[3.4,3254],[3.5,3324],[3.5,3390],[3.6,3466],[3.6,3531],[3.6,3603],[3.6,3668],[3.6,3745],[3.7,3818],[3.8,3889],[3.8,3959],[3.8,4026],[3.8,4097],[3.8,4163],[3.8,4233],[3.8,4307],[3.8,4380],[3.8,4461],[3.8,4532],[3.8,4609],[3.8,4683],[3.8,4762],[3.8,4845],[3.8,4919],[3.8,4992],[3.8,5060],[3.8,5127],[3.9,5194],[4,5261],[4,5331],[4,5406],[4,5474],[4,5541],[4,5607],[4,5676],[4,5745],[4,5818],[4,5893],[4,5964],[4,6037],[4,6111],[4,6182],[4,6250],[4,6317],[4,6389],[4,6455],[4.3,6525],[4.5,6593],[4.6,6660],[4.8,6730],[5,6798],[5.2,6871],[5.6,6945],[5.6,7025],[5.6,7092],[5.6,7158],[5.6,7231],[5.6,7312],[5.6,7389],[5.6,7476],[5.6,7559],[5.6,7636],[5.6,7710],[5.6,7781],[5.6,7851],[5.6,7918],[5.6,7988],[5.6,8058],[5.6,8127],[5.6,8209],[5.6,8280],[5.6,8356],[5.6,8422],[5.6,8491],[5.6,8569],[5.6,8635],[5.6,8715],[5.6,8786],[5.6,8861],[5.6,8933],[5.6,9015],[5.6,9088],[5.6,9156],[5.6,9214],[5.6,9284],[5.6,9354],[5.6,9425],[5.6,9497],[5.6,9577],[5.6,9656],[5.6,9721],[5.6,9793],[5.6,9866],[5.7,9937],[6,10013],[6.2,10088],[6.4,10164],[6.6,10241],[6.6,10316],[6.7,10391],[7.5,10463],[9.1,10533],[10.4,10603],[12.3,10674],[14.2,10746],[16,10826],[17.5,10895],[18,10962],[18,11036],[18,11105],[18,11171],[18,11240],[18,11310],[18,11372],[18,11447],[18,11514],[18,11589],[18,11659],[18,11741],[18,11817],[18,11889],[18,11958],[18,12028],[18,12098],[18,12168],[18,12239],[18,12312],[18,12377],[18,12446],[18,12513],[18,12582],[18,12647],[18,12717],[18,12781],[18,12855],[18,12924],[18,13003],[18,13073],[18,13152],[18.3,13227],[18.4,13294],[18.4,13378],[18.4,13453],[18.4,13522],[18.4,13591],[18.4,13660],[18.4,13729],[18.4,13798],[18.4,13869],[18.4,13932],[18.4,13999],[18.4,14068],[18.4,14134],[18.4,14199],[18.4,14272],[18.4,14348],[18.4,14437],[18.4,14525],[18.4,14601],[18.4,14674],[18.4,14751],[18.4,14817],[18.4,14899],[18.4,14967],[18.4,15041],[18.4,15115],[18.4,15179],[18.4,15247],[18.4,15319],[18.4,15393],[18.4,15459],[18.4,15527],[18.4,15594],[18.4,15671],[18.4,15750],[18.4,15825],[18.4,15899],[18.4,15971],[18.4,16041],[18.4,16114],[18.4,16192],[18.4,16270],[18.4,16337],[18.4,16400],[18.4,16478],[18.4,16545],[18.4,16622],[18.4,16690],[18.4,16762],[18.4,16834],[18.4,16900],[18.4,16969],[18.4,17038],[18.4,17112],[18.4,17181],[18.4,17254],[18.4,17331],[18.4,17412],[18.4,17481],[18.4,17546],[18.4,17614],[18.4,17677],[18.4,17748],[18.4,17818],[18.4,17892],[18.4,17958],[18.4,18028],[18.4,18099],[18.4,18169],[18.4,18233],[18.4,18309],[18.4,18384],[18.4,18451],[18.4,18522],[18.4,18593],[18.4,18665],[18.4,18747],[18.4,18833],[18.4,18903],[18.4,18975],[18.4,19052],[18.4,19118],[18.4,19189],[18.4,19258],[18.4,19325],[18.4,19391],[18.4,19467],[18.4,19535],[18.4,19604],[18.4,19680],[18.4,19748],[18.4,19823],[18.4,19894],[18.4,19982],[18.4,20064],[18.4,20152],[18.4,20236],[18.4,20325],[18.4,20395],[18.4,20460],[18.4,20528],[18.4,20590],[18.4,20659],[18.4,20726],[18.4,20795],[18.4,20860],[18.4,20922],[18.4,20990],[18.4,21058],[18.4,21124],[18.4,21191],[18.4,21253],[18.4,21325],[18.4,21391],[18.4,21463],[18.4,21533],[18.4,21603],[18.4,21678],[18.4,21751],[18.4,21809],[18.4,21875],[18.4,21947],[18.4,22014],[18.4,22090],[18.4,22159],[18.4,22230],[18.4,22297],[18.4,22374],[18.4,22452],[18.4,22527],[18.4,22601]]",1,0,188.7656,193.1619,14.79409874,3.9354,"[{""rating"":19.42224780362919,""responseTime"":2.1007000000029734},{""rating"":14.79409873836976,""responseTime"":3.9354000000059557}]",space,3.6826,,193.162,Not at all,0,193.1636,,,[],,0,3,3,3,1,audio/Narrative7Situation3.wav,audio/Narrative8Situation3.wav,audio/Narrative5Situation3.wav,audio/Narrative6Situation3.wav,8,4,3,5,,,,,,,,,,,,,,,,,,,,,,,,,,,,,,,,,,,,,,,
,,,,,,5885f97f41da4500014d3645,2024-02-08_15h01.54.166,group3.1-3.2-social-tom,2023.2.2,Win32,14.4092219,65c5074098b851296ff0b7ed,65c54139fad0c82b865c2a24,,,,,,,,,,,,,,,,,,,,,,,,,,,,,193.1638,1,audio/Narrative8Situation4.wav,196.1843,,196.1844,210.5453,"[[15.2,786],[15.2,858],[15.2,924],[15.2,993],[15.2,1073],[15.2,1158],[15.2,1233],[15.2,1306],[15.2,1377],[15.2,1449],[15.2,1516],[15.2,1584],[15.2,1653],[15.2,1724],[15.2,1797],[15.2,1866],[15.2,1935],[15.2,2002],[15.2,2072],[15.2,2141],[15.2,2221],[15.2,2302],[15.2,2371],[15.2,2442],[15.2,2513],[15.2,2585],[15.2,2658],[15.2,2744],[15.2,2811],[15.2,2880],[15.2,2952],[15.2,3025],[15.2,3093],[15.1,3172],[13.7,3243],[13.1,3310],[12.2,3381],[10.8,3448],[9.8,3526],[9.5,3597],[9.3,3666],[9,3739],[8.4,3808],[8,3880],[8,3956],[8,4031],[8,4109],[8,4182],[8,4257],[8,4321],[7.7,4391],[4.2,4473],[3.6,4546],[8.2,4823],[9.4,4893],[9.6,4959],[9.8,5032],[9.9,5099],[9.9,5167],[9.9,5235],[9.9,5309],[9.9,5382],[9.9,5458],[9.9,5526],[9.9,5598],[9.9,5673],[9.9,5738],[9.9,5818],[9.9,5882],[9.9,5957],[9.9,6029],[9.9,6097],[9.9,6167],[9.9,6239],[9.9,6313],[9.9,6393],[9.9,6471],[9.9,6534],[9.9,6605],[9.9,6673],[9.9,6748],[9.9,6823],[9.9,6906],[9.9,6975],[9.9,7044],[9.9,7117],[9.9,7184],[10.1,7258],[10.9,7328],[13.7,7396],[16.3,7469],[16.5,7539],[16.5,7609],[16.5,7675],[16.5,7749],[16.5,7817],[16.5,7884],[16.5,7953],[16.5,8024],[16.5,8101],[16.5,8180],[16.5,8257],[16.5,8330],[16.6,8397],[16.8,8469],[16.8,8540],[16.9,8608],[16.9,8674],[16.9,8748],[16.9,8820],[16.9,8896],[16.9,8966],[16.9,9039],[16.9,9120],[16.9,9199],[16.9,9272],[17,9354],[17.1,9425],[17.2,9504],[17.4,9588],[17.6,9663],[18.3,9738],[18.7,9812],[19.8,9882],[20.6,9959],[21.3,10029],[22.6,10100],[23.4,10176],[24,10245],[24.1,10316],[24.2,10384],[24.4,10451],[24.7,10521],[24.8,10594],[24.8,10658],[24.8,10726],[24.8,10804],[24.8,10883],[24.8,10963],[24.8,11038],[24.8,11118],[24.8,11185],[24.8,11260],[24.8,11328],[24.8,11404],[24.8,11463],[24.8,11537],[24.8,11605],[24.8,11678],[24.8,11744],[24.8,11813],[24.8,11884],[25.2,11952],[25.9,12025],[26.6,12095],[27,12166],[27,12245],[27.1,12324],[27.1,12394],[27.1,12480],[27.4,12553],[27.8,12624],[28.2,12689],[28.8,12758],[29.5,12830],[29.8,12901],[30.2,12982],[30.5,13057],[31.8,13133],[33.3,13203],[34.6,13269],[35.7,13338],[36.5,13406],[37.1,13477],[37.3,13549],[37.9,13621],[38.9,13696],[40.1,13768],[40.9,13842],[41.7,13916],[43.2,13992],[44.6,14058],[46.1,14131],[48.4,14199],[49.7,14283],[50.9,14360]]",1,0,210.5454,213.8811,72.48452187,2.8616,"[{""rating"":76.46689245442285,""responseTime"":1.7066000000089332},{""rating"":72.48452186854418,""responseTime"":2.8616000000089343}]",space,2.6499,,213.8812,Definitely yes,100,213.8823,,,[],,0,4,4,4,1,audio/Narrative7Situation4.wav,audio/Narrative8Situation4.wav,audio/Narrative5Situation4.wav,audio/Narrative6Situation4.wav,3,3,1,2,,,,,,,,,,,,,,,,,,,,,,,,,,,,,,,,,,,,,,,
,,,,,,5885f97f41da4500014d3645,2024-02-08_15h01.54.166,group3.1-3.2-social-tom,2023.2.2,Win32,14.4092219,65c5074098b851296ff0b7ed,65c54139fad0c82b865c2a24,,,,,,,,,,,,,,,,,,,,,,,,,,,,,213.8824,1,audio/Narrative8Situation5.wav,215.9195,,215.9195,224.2994,"[[999,0],[999,70],[999,139],[999,207],[999,274],[999,343],[999,411],[999,489],[999,558],[999,642],[999,714],[999,790],[999,854],[999,929],[999,1003],[999,1077],[999,1151],[999,1227],[999,1304],[999,1383],[999,1456],[999,1532],[999,1592],[999,1667],[999,1737],[68.4,1810],[68.2,1880],[68.2,1957],[68.3,2030],[68.8,2094],[69,2163],[69,2230],[69,2298],[69,2372],[69,2457],[69,2535],[69.1,2620],[69.1,2695],[69.1,2763],[69.1,2836],[69.1,2903],[69.1,2972],[69.1,3043],[69.2,3112],[69.2,3176],[69.2,3245],[69.2,3320],[69.2,3384],[69.2,3450],[69.2,3516],[69.2,3604],[69.2,3672],[69.2,3738],[69.2,3811],[69.2,3892],[69.2,3964],[69.2,4045],[69.2,4122],[69.2,4191],[69.2,4262],[69.2,4324],[69.2,4394],[69.2,4463],[69.2,4536],[69.2,4622],[69.2,4687],[69.2,4762],[69.2,4833],[69.2,4898],[69.2,4962],[69.2,5032],[69.2,5105],[69.2,5174],[69.3,5247],[69.3,5321],[69.3,5396],[69.3,5471],[69.3,5539],[69.3,5612],[69.3,5678],[69.3,5752],[69.3,5825],[69.5,5892],[69.6,5963],[69.6,6032],[69.6,6101],[69.6,6166],[69.7,6236],[69.7,6308],[69.7,6377],[69.7,6441],[69.9,6508],[69.9,6590],[69.9,6672],[69.9,6746],[70,6819],[70,6889],[70,6956],[70,7023],[70,7091],[70,7165],[70,7235],[70,7306],[70,7374],[70,7439],[70,7508],[70,7578],[70,7650],[70,7718],[70,7784],[70,7856],[70,7926],[70,8000],[70,8084],[70,8165],[70,8243],[70,8312],[70,8379]]",1,0,224.2996,227.3124,78.18898811,2.386,"[{""rating"":69.25558808505883,""responseTime"":0.8952999999970075},{""rating"":71.62347995445731,""responseTime"":1.6792999999970277},{""rating"":78.18898810733417,""responseTime"":2.3859999999999957}]",space,2.294,,227.3124,Partially,50,227.3137,,,[],,0,5,5,5,1,audio/Narrative7Situation5.wav,audio/Narrative8Situation5.wav,audio/Narrative5Situation5.wav,audio/Narrative6Situation5.wav,5,2,5,2,,,,,,,,,,,,,,,,,,,,,,,,,,,,,,,,,,,,,,,
,,,,,,5885f97f41da4500014d3645,2024-02-08_15h01.54.166,group3.1-3.2-social-tom,2023.2.2,Win32,14.4092219,65c5074098b851296ff0b7ed,65c54139fad0c82b865c2a24,,,,,,,,,,,,,,,,,,,,,,,,,,,,,227.3138,1,audio/Narrative8Situation6.wav,229.375,,229.375,236.0587,"[[76.8,295],[76.8,361],[76.8,427],[76.8,495],[76.8,566],[76.8,632],[75.9,706],[74.8,776],[73.4,846],[72.3,914],[70.6,985],[69.1,1073],[68,1144],[67.5,1222],[66.8,1292],[66.3,1365],[65.6,1439],[65.4,1513],[65.2,1584],[65.1,1657],[65.1,1729],[65.1,1798],[65.1,1875],[65.5,1943],[67.2,2019],[68.8,2085],[69.2,2163],[69.5,2223],[69.5,2294],[69.5,2368],[69.5,2432],[69.5,2509],[69.5,2578],[69.5,2646],[70.2,2717],[71.3,2789],[71.3,2860],[71.3,2932],[71.3,3008],[71.3,3080],[71.3,3153],[71.3,3216],[71.3,3287],[71.3,3355],[71.3,3424],[71.3,3498],[71.3,3564],[71.3,3639],[71.3,3707],[71.3,3776],[71.3,3841],[71.3,3915],[71.3,3971],[71.3,4043],[71.3,4107],[71.3,4186],[71.3,4259],[71.3,4331],[71.3,4409],[71.3,4477],[71.3,4562],[71.3,4631],[71.3,4704],[71.3,4775],[71.3,4844],[71.3,4915],[71.3,4992],[71.3,5067],[71.3,5135],[71.3,5214],[71.3,5287],[71.3,5360],[71.3,5445],[71.3,5518],[71.3,5603],[71.3,5678],[71.3,5749],[71.3,5828],[71.3,5901],[71.3,5973],[71.3,6048],[71.3,6120],[71.3,6187],[71.3,6254],[71.3,6328],[71.3,6393],[71.3,6467],[71.3,6533],[71.3,6617],[71.3,6683]]",1,0,236.0588,237.7757,98.53132061,0.9411,"[{""rating"":98.53132060718951,""responseTime"":0.9411000000089587}]",space,1.0043,,237.7757,Not at all,0,237.777,,,[],,0,6,6,6,1,audio/Narrative7Situation6.wav,audio/Narrative8Situation6.wav,audio/Narrative5Situation6.wav,audio/Narrative6Situation6.wav,3,2,3,2,,,,,,,,,,,,,,,,,,,,,,,,,,,,,,,,,,,,,,,
,,,,,,5885f97f41da4500014d3645,2024-02-08_15h01.54.166,group3.1-3.2-social-tom,2023.2.2,Win32,14.4092219,65c5074098b851296ff0b7ed,65c54139fad0c82b865c2a24,,,,,,,,,,,,,,,,,,,,,,,,,,,,,237.7771,1,audio/Narrative8Situation7.wav,240.7969,,240.7969,253.0731,"[[999,0],[999,71],[999,137],[999,206],[999,279],[999,346],[999,414],[999,483],[999,551],[999,624],[999,700],[999,771],[999,842],[999,914],[999,981],[999,1051],[999,1123],[999,1208],[999,1288],[999,1359],[999,1433],[999,1503],[999,1574],[999,1643],[999,1711],[999,1779],[999,1853],[999,1934],[999,2009],[999,2073],[999,2144],[999,2213],[999,2286],[999,2350],[999,2425],[999,2493],[999,2570],[999,2643],[999,2716],[999,2787],[999,2860],[999,2945],[999,3016],[999,3089],[999,3157],[999,3224],[999,3302],[999,3369],[999,3439],[999,3500],[999,3573],[999,3646],[999,3715],[999,3777],[999,3843],[999,3921],[999,3991],[999,4064],[999,4135],[999,4206],[999,4279],[999,4357],[999,4424],[14.4,4493],[12.4,4567],[11.5,4639],[11.6,4707],[12.3,4775],[12.6,4845],[12.6,4910],[12.6,4984],[13,5050],[13,5123],[13.1,5195],[13.1,5264],[13.1,5337],[13.1,5405],[13.1,5479],[13.1,5558],[12.7,5639],[12,5711],[11.4,5781],[10.8,5861],[10.8,5928],[10.8,5997],[10.8,6064],[10.8,6134],[10.8,6199],[10.8,6269],[10.8,6333],[10.8,6417],[11,6487],[11.2,6557],[11.4,6625],[11.5,6694],[11.5,6764],[11.6,6839],[11.7,6921],[11.7,6994],[11.7,7068],[11.7,7139],[11.7,7205],[11.7,7282],[11.7,7347],[11.8,7417],[11.9,7482],[12,7556],[12.2,7642],[12.2,7728],[12.4,7806],[12.7,7877],[12.7,7950],[12.7,8015],[12.7,8076],[12.7,8144],[12.7,8219],[12.7,8289],[12.7,8366],[12.7,8437],[12.7,8511],[12.7,8581],[12.8,8647],[12.9,8716],[12.9,8786],[12.9,8855],[12.9,8931],[12.9,9008],[13,9073],[13,9146],[13,9208],[13,9284],[13,9351],[13,9424],[13,9486],[13,9555],[13,9629],[13,9706],[13,9776],[13,9849],[13,9926],[13,9991],[13,10061],[13,10128],[13,10201],[13,10265],[13,10335],[13,10398],[13,10469],[13,10532],[13,10609],[13,10676],[13,10746],[13,10815],[13,10883],[13,10959],[13,11032],[13,11117],[13,11191],[13,11268],[13,11342],[13,11406],[13,11482],[13.2,11556],[14.5,11634],[17,11703],[18.8,11775],[20.2,11851],[20.5,11920],[20.5,11997],[20.5,12064],[20.5,12139],[20.1,12207],[19.2,12276]]",1,0,253.0733,255.8705,19.52988248,1.4516,"[{""rating"":19.529882477166637,""responseTime"":0.9139999999999873},{""rating"":19.529882477166637,""responseTime"":1.4516000000089093}]",space,2.1019,,255.8705,Not at all,0,255.8714,,,[],,0,7,7,7,1,audio/Narrative7Situation7.wav,audio/Narrative8Situation7.wav,audio/Narrative5Situation7.wav,audio/Narrative6Situation7.wav,5,3,4,5,,,,,,,,,,,,,,,,,,,,,,,,,,,,,,,,,,,,,,,
,,,,,,5885f97f41da4500014d3645,2024-02-08_15h01.54.166,group3.1-3.2-social-tom,2023.2.2,Win32,14.4092219,65c5074098b851296ff0b7ed,65c54139fad0c82b865c2a24,,,,,,,,,,,,,,,,,,,,,,,,,,,,,255.8715,1,audio/Narrative8Situation8.wav,258.8744,,258.8744,271.8874,"[[20.1,949],[20.1,1018],[20.1,1086],[20.6,1171],[22.1,1241],[25.3,2819],[22.4,2890],[18.9,2960],[15.9,3027],[12.8,3092],[9.6,3166],[6.1,3244],[3.9,3311],[3.2,3382],[4,3447],[10.8,3519],[19.9,3591],[26.6,3665],[30.3,3731],[31.7,3800],[31.5,3873],[24.2,3949],[12.8,4021],[5,4095],[2.6,4170],[2.4,4244],[6.2,4333],[18.6,4408],[29.5,4481],[32.4,4550],[32.5,4617],[30.6,4688],[24.7,4755],[14.4,4835],[10,4900],[8.8,4970],[8.8,5039],[10.5,5115],[18.7,5195],[23.9,5264],[23.5,5341],[18.3,5411],[9.5,5492],[6.1,5572],[5.8,5647],[7.4,5710],[14.1,5779],[22.6,5851],[25.6,5920],[24.4,5990],[18.9,6060],[9.5,6140],[7.1,6209],[6.8,6277],[7.4,6348],[13.7,6417],[23.6,6487],[28.1,6556],[26.4,6629],[19,6698],[8.7,6772],[5.3,6848],[5.3,6919],[12,7004],[23.1,7079],[27.4,7158],[24.9,7234],[13.1,7316],[5.4,7385],[5,7458],[6.1,7526],[14.5,7599],[18.4,7667],[12.8,7739],[5,7806],[5.8,7880],[14.6,7947],[11,8020],[3.8,8090],[7.8,8159],[11.9,8231],[5.7,8306],[9.2,8383],[11.2,8459],[3.7,8532],[6.2,8610],[10.3,8681],[6.7,8749],[9,8818],[10.8,8891],[6.1,8964],[9.8,9042],[8.8,9119],[6,9188],[9.8,9259],[5.9,9331],[7.5,9406],[9,9476],[8.5,9546],[8.4,9610],[9.1,9679],[9.2,9751],[5.1,9826],[10.6,9899],[4.3,9973],[7.8,10046],[9.1,10126],[6.8,10197],[10,10264],[1.7,10334],[8.6,10414],[7.8,10488],[6.5,10559],[13.2,10633],[8.5,10703],[8,10776],[8.2,10847],[8.6,10920],[9.1,10991],[10.3,11063],[14.5,11136],[15.6,11208],[16,11278],[16,11350],[16,11430],[16.1,11497],[16.8,11566],[18.2,11630],[19.9,11702],[21.9,11777],[22,11846],[22,11916],[22,11985],[22,12060],[22.2,12126],[24.2,12197],[25.8,12271],[26.6,12336],[28.5,12408],[31.1,12477],[33.5,12553],[34.6,12625],[36.3,12697],[37.3,12783],[39.7,12863],[40.9,12932],[42.4,13012]]",1,0,271.8876,274.5873,39.11879591,1.9269,"[{""rating"":40.948526238183746,""responseTime"":0.8325999999939881},{""rating"":39.11879591173497,""responseTime"":1.926899999991008}]",space,2.0353,,274.5873,Partially,50,285.1152,50.85062059,9.3314,"[{""rating"":49.77429749929042,""responseTime"":6.4792000000029475},{""rating"":50.85062058518973,""responseTime"":9.331400000005942}]",space,0,8,8,8,1,audio/Narrative7Situation8.wav,audio/Narrative8Situation8.wav,audio/Narrative5Situation8.wav,audio/Narrative6Situation8.wav,2,3,3,5,,,9.8837,,,,,,,,,,,,,,,,,,,,,,,,,,,,,,,,,,,,
,,,,,,5885f97f41da4500014d3645,2024-02-08_15h01.54.166,group3.1-3.2-social-tom,2023.2.2,Win32,14.4092219,65c5074098b851296ff0b7ed,65c54139fad0c82b865c2a24,,,,,,,,,,,,,,,,,,,,,,,,,,,,,285.1153,1,audio/Narrative8Situation9.wav,288.1186,,288.1186,299.5263,"[[50.5,869],[50.5,937],[50.5,1011],[50.5,1085],[50.5,1154],[50.5,1226],[50.5,1301],[50.5,1375],[50.3,1443],[50.3,1521],[50.3,1593],[50.3,1660],[50.3,1728],[50.1,1796],[49.4,1866],[47.2,1935],[44.4,2015],[37.7,2084],[29.5,2156],[24.5,2222],[23.1,2293],[22.9,2367],[23.4,2436],[23.4,2503],[23.4,2579],[23.4,2651],[23.4,2734],[23.4,2809],[23.1,2881],[22.6,2961],[22.5,3029],[22,3099],[21.9,3172],[21.9,3241],[21.9,3312],[21.9,3378],[21.9,3447],[21.9,3513],[21.9,3582],[21.9,3658],[23.5,3734],[24.3,3803],[25.4,3872],[26.6,3949],[27.1,4018],[27.1,4091],[27.1,4172],[27.2,4251],[27.8,4329],[28.4,4399],[29,4469],[30.1,4538],[31.2,4613],[31.9,4682],[32.5,4753],[32.8,4823],[32.9,4894],[32.9,4969],[33,5044],[33.1,5116],[33.7,5185],[34.9,5261],[37.3,5334],[38.5,5406],[40.5,5491],[41.9,5564],[44.4,5647],[45.8,5720],[47.8,5790],[49.7,5861],[50.9,5931],[52,6005],[53,6073],[55.3,6146],[57.8,6220],[59.3,6291],[59.6,6357],[59.8,6428],[61,6498],[63.6,6565],[65.3,6634],[65.3,6708],[66.1,6783],[66.8,6857],[67.6,6940],[67.6,7016],[67.6,7095],[67.8,7168],[68.4,7234],[68.4,7303],[68.4,7372],[68.4,7456],[68.4,7533],[68.4,7600],[68.4,7686],[68.4,7753],[68.4,7823],[68.8,7893],[69,7966],[69,8035],[69,8123],[69,8197],[69,8271],[69.4,8353],[71,8430],[71.9,8505],[72.8,8578],[73.5,8646],[74.1,8713],[75.3,8785],[76.3,8844],[77.8,8912],[80,8984],[83.1,9052],[86,9122],[87.1,9192],[87.6,9270],[88.2,9338],[88.5,9408],[88.6,9473],[88.7,9545],[88.7,9613],[88.7,9686],[88.7,9766],[88.7,9838],[88.7,9916],[88.7,9986],[88.7,10052],[88.7,10124],[88.7,10190],[88.7,10260],[88.7,10326],[88.7,10402],[88.7,10473],[88.7,10542],[88.7,10608],[88.7,10679],[88.7,10756],[88.7,10823],[88.7,10901],[88.7,10971],[88.7,11046],[88.7,11119],[88.7,11195],[88.7,11267],[88.7,11338],[88.7,11407]]",1,0,299.5264,302.4175,88.73686685,1.2797,"[{""rating"":88.73686684608974,""responseTime"":1.279699999988111}]",space,2.2153,,302.4175,Partially,50,302.4183,,,[],,0,9,9,9,1,audio/Narrative7Situation9.wav,audio/Narrative8Situation9.wav,audio/Narrative5Situation9.wav,audio/Narrative6Situation9.wav,2,3,3,4,,,,,,,,,,,,,,,,,,,,,,,,,,,,,,,,,,,,,,,
,,,,,,5885f97f41da4500014d3645,2024-02-08_15h01.54.166,group3.1-3.2-social-tom,2023.2.2,Win32,14.4092219,65c5074098b851296ff0b7ed,65c54139fad0c82b865c2a24,,,,,,,,,,,,,,,,,,,,,,,,,,,,,302.4184,1,audio/Narrative7Situation1.wav,304.451,,304.451,360.4817,"[[999,0],[999,69],[999,139],[999,209],[999,280],[999,352],[999,430],[999,500],[999,567],[999,640],[999,722],[999,804],[999,876],[999,947],[999,1011],[999,1080],[999,1150],[999,1222],[999,1289],[999,1360],[999,1433],[999,1504],[999,1585],[999,1658],[999,1733],[999,1807],[999,1875],[999,1943],[999,2012],[999,2094],[999,2166],[999,2241],[999,2307],[999,2379],[999,2450],[999,2529],[999,2599],[999,2672],[999,2739],[999,2798],[999,2876],[999,2951],[999,3029],[999,3096],[999,3165],[999,3230],[999,3302],[999,3368],[999,3434],[999,3502],[999,3572],[999,3642],[999,3708],[999,3776],[999,3853],[999,3925],[999,3994],[999,4060],[999,4132],[999,4201],[999,4271],[999,4345],[999,4417],[999,4489],[999,4562],[999,4632],[999,4701],[999,4768],[999,4844],[999,4914],[999,4980],[999,5050],[999,5122],[999,5200],[999,5271],[999,5337],[999,5402],[999,5473],[999,5538],[999,5601],[999,5672],[999,5745],[999,5819],[999,5891],[999,5972],[999,6046],[999,6110],[999,6177],[999,6241],[999,6306],[999,6372],[999,6444],[999,6513],[999,6588],[999,6651],[999,6722],[999,6790],[999,6867],[999,6934],[999,7004],[999,7078],[999,7147],[999,7219],[999,7290],[999,7364],[999,7433],[999,7505],[999,7583],[999,7655],[999,7725],[999,7795],[999,7861],[999,7927],[999,8004],[999,8072],[999,8140],[999,8205],[999,8280],[999,8354],[999,8423],[999,8499],[999,8574],[999,8645],[999,8717],[999,8796],[999,8860],[999,8940],[999,9010],[999,9076],[999,9144],[999,9213],[999,9283],[999,9354],[999,9427],[999,9507],[999,9574],[999,9654],[999,9720],[999,9786],[999,9858],[999,9936],[999,10009],[999,10086],[999,10156],[999,10227],[999,10298],[999,10367],[999,10435],[999,10500],[999,10567],[999,10630],[999,10699],[999,10765],[999,10833],[999,10907],[999,10974],[999,11045],[999,11109],[999,11182],[999,11256],[999,11329],[999,11403],[999,11477],[999,11553],[999,11619],[999,11693],[999,11763],[999,11841],[999,11904],[999,11974],[999,12035],[999,12113],[999,12182],[999,12251],[999,12319],[999,12398],[999,12473],[999,12542],[999,12617],[999,12691],[999,12764],[999,12835],[999,12906],[999,12978],[999,13045],[999,13121],[999,13189],[999,13260],[999,13328],[999,13399],[999,13469],[7.2,13538],[6.4,13622],[7.2,13688],[13,13758],[13.1,13838],[13.1,13909],[13.1,13980],[13.1,14054],[13.1,14127],[12,14197],[11.8,14271],[11.3,14342],[10.3,14412],[9.2,14482],[8.9,14559],[8.5,14632],[7.5,14698],[6.6,14771],[6.4,14841],[6.4,14910],[6.4,14979],[6.4,15049],[6.4,15125],[6.4,15191],[6.4,15270],[6.4,15337],[6.4,15411],[6.4,15486],[6.4,15554],[6.4,15628],[6.4,15708],[6.4,15777],[6.4,15845],[6.4,15915],[6.4,15981],[6.4,16051],[6.4,16125],[6.4,16194],[6.4,16262],[6.4,16328],[6.4,16400],[6.4,16466],[6.4,16533],[6.4,16599],[6.4,16674],[6.6,16748],[6.7,16820],[7,16908],[7.2,16981],[7.6,17055],[8.1,17129],[8.6,17198],[9,17270],[9.3,17338],[9.4,17412],[9.4,17484],[9.4,17555],[9.4,17626],[9.4,17705],[9.4,17773],[9.4,17837],[9.4,17906],[9.4,17971],[9.4,18042],[9.4,18113],[9.4,18190],[9.4,18266],[9.4,18347],[9.4,18423],[9.4,18487],[9.4,18560],[9.4,18632],[9.4,18701],[9.4,18778],[9.4,18844],[9.4,18913],[9.4,18984],[9.4,19050],[9.4,19115],[9.4,19182],[9.4,19250],[9.4,19315],[9.4,19381],[9.4,19461],[9.4,19546],[9.4,19619],[9.4,19692],[9.4,19774],[9.4,19844],[9.4,19920],[9.4,19988],[9.4,20055],[9.4,20124],[9.4,20193],[9.4,20267],[9.8,20336],[9.9,20412],[10.1,20481],[10.1,20551],[10.1,20620],[10.1,20693],[10.1,20767],[10.1,20833],[10.1,20906],[10.1,20982],[10.1,21063],[10.1,21132],[10.1,21205],[10.1,21274],[10.1,21346],[10.1,21414],[10.1,21480],[10.1,21547],[10.1,21615],[10.1,21687],[10.1,21752],[10.4,21828],[11,21901],[11.9,21977],[13.3,22049],[14.6,22119],[15.2,22195],[15.9,22269],[16.4,22343],[16.9,22422],[17.4,22490],[17.9,22562],[18.2,22632],[18.3,22705],[18.3,22775],[18.3,22849],[18.3,22912],[18.3,22983],[18.3,23048],[18.3,23122],[18.3,23186],[18.3,23262],[18.3,23328],[18.3,23401],[18.3,23469],[18.3,23538],[18.3,23605],[18.3,23675],[18.3,23751],[18.3,23827],[18.3,23906],[18.3,23976],[18.3,24039],[18.3,24116],[18.3,24191],[18.3,24264],[18.3,24331],[18.3,24398],[18.3,24467],[18.3,24532],[18.3,24610],[18.3,24679],[18.3,24752],[18.3,24818],[18.3,24894],[18.3,24969],[18.3,25041],[18.3,25117],[18.3,25195],[18.3,25270],[18.3,25344],[18.3,25411],[18.3,25480],[18.3,25549],[18.3,25627],[18.3,25691],[18.3,25761],[18.3,25822],[18.3,25888],[18.3,25951],[18.8,26027],[18.8,26094],[18.8,26162],[18.8,26242],[18.8,26307],[18.8,26372],[18.8,26443],[18.8,26516],[18.8,26585],[18.8,26660],[19,26735],[19.3,26808],[19.4,26880],[19.4,26952],[19.4,27020],[19.4,27095],[19.4,27164],[19.4,27233],[19.4,27302],[19.4,27369],[19.4,27440],[19.4,27509],[19.4,27590],[19.4,27669],[19.4,27733],[19.4,27807],[19.4,27891],[19.4,27964],[19.4,28047],[19.4,28115],[19.4,28185],[19.4,28254],[19.4,28325],[19.4,28396],[19.4,28464],[19.4,28534],[19.4,28603],[19.4,28675],[19.4,28735],[19.4,28801],[19.4,28864],[19.4,28943],[19.4,29017],[19.4,29084],[19.4,29163],[19.4,29240],[19.4,29313],[19.4,29386],[19.4,29461],[19.4,29530],[19.4,29601],[19.4,29668],[19.4,29738],[19.4,29810],[19.4,29877],[19.4,29951],[19.4,30031],[19.4,30114],[19.4,30187],[19.4,30252],[19.4,30327],[19.4,30393],[19.4,30462],[19.4,30527],[19.4,30602],[19.4,30674],[19.4,30748],[19.4,30820],[19.4,30906],[19.4,30980],[19.4,31046],[19.4,31118],[19.4,31185],[19.4,31260],[19.4,31331],[19.4,31397],[19.4,31471],[19.4,31546],[19.4,31624],[19.4,31690],[19.4,31759],[19.4,31833],[19.4,31905],[19.4,31984],[19.4,32057],[19.4,32126],[19.4,32205],[19.4,32276],[19.4,32353],[19.4,32425],[19.4,32491],[19.4,32559],[19.4,32626],[19.4,32692],[19.4,32760],[19.4,32831],[19.4,32900],[19.4,32966],[19.4,33034],[19.4,33103],[19.4,33184],[19.4,33252],[19.4,33324],[19.4,33396],[19.4,33473],[19.4,33548],[19.4,33618],[19.4,33691],[19.4,33757],[19.4,33827],[19.4,33895],[19.4,33966],[19.4,34047],[19.4,34113],[19.4,34180],[19.4,34242],[19.4,34315],[19.4,34384],[19.4,34452],[19.4,34523],[19.4,34591],[19.4,34661],[19.4,34733],[19.4,34809],[19.4,34881],[19.4,34953],[19.4,35031],[19.4,35097],[19.4,35170],[19.4,35237],[19.4,35309],[19.4,35372],[19.4,35447],[19.4,35521],[19.4,35596],[19.4,35662],[19.4,35734],[19.4,35804],[19.4,35876],[19.4,35958],[19.4,36026],[19.4,36108],[19.4,36180],[19.4,36262],[19.4,36343],[19.4,36415],[19.4,36486],[19.4,36555],[19.4,36624],[19.4,36698],[19.4,36766],[19.4,36835],[19.4,36901],[19.4,36970],[19.4,37037],[19.4,37120],[19.4,37190],[19.4,37271],[19.4,37340],[20.1,37417],[23.1,37497],[26,37571],[28.3,37654],[30.2,37726],[31.3,37806],[32,37878],[32.8,37952],[33.4,38022],[34.4,38091],[36.7,38160],[39.1,38230],[42.1,38305],[43.3,38372],[44.5,38441],[45.9,38520],[46.3,38587],[46.4,38661],[46.8,38728],[47.4,38799],[48.1,38871],[48.5,38948],[49.1,39031],[49.2,39102],[49.6,39176],[49.6,39245],[49.6,39321],[49.6,39388],[49.6,39461],[49.6,39537],[49.6,39614],[49.6,39682],[49.6,39748],[49.6,39819],[49.6,39887],[49.6,39963],[49.6,40029],[49.6,40102],[49.6,40170],[49.6,40247],[49.6,40318],[49.6,40389],[49.6,40463],[49.6,40535],[49.6,40608],[49.6,40686],[49.6,40753],[49.6,40818],[49.6,40891],[49.6,40958],[49.6,41030],[49.6,41099],[49.6,41167],[49.6,41247],[49.6,41322],[49.6,41392],[50,41459],[51,41532],[51,41598],[51.3,41680],[51.9,41753],[51.9,41829],[51.9,41897],[52.4,41969],[52.6,42054],[52.6,42121],[52.6,42192],[52.6,42269],[52.6,42341],[52.6,42414],[52.6,42480],[52.6,42541],[52.6,42608],[52.6,42679],[52.6,42750],[52.6,42819],[52.6,42889],[52.6,42962],[52.5,43030],[52.4,43108],[52.3,43181],[52.2,43255],[52.2,43328],[52.2,43407],[52.2,43477],[52.2,43546],[52.2,43615],[52.2,43685],[52.2,43762],[52.2,43837],[52.2,43905],[52.2,43978],[52.2,44047],[52.2,44124],[52.2,44184],[52.2,44256],[52.2,44324],[52.2,44398],[52.2,44468],[52.2,44543],[52.2,44617],[52.2,44687],[52.2,44771],[52.2,44845],[52.2,44911],[52.7,44981],[53.8,45055],[53.9,45129],[53.9,45210],[53.9,45288],[53.9,45364],[53.9,45435],[53.9,45515],[53.9,45584],[53.9,45652],[53.9,45721],[53.9,45788],[53.9,45859],[53.9,45935],[53.9,46016],[53.9,46088],[53.9,46163],[53.9,46235],[53.8,46308],[53.8,46384],[53.7,46459],[53.7,46530],[53.7,46600],[53.7,46669],[53.7,46738],[53.7,46805],[53.7,46879],[53.7,46948],[53.7,47019],[53.7,47087],[53.7,47156],[54.2,47233],[54.5,47303],[55,47379],[55.2,47450],[55.3,47537],[55.3,47605],[55.3,47674],[55.3,47751],[55.5,47821],[55.6,47889],[55.9,47956],[56.4,48028],[56.7,48095],[57,48172],[57.2,48245],[57.3,48315],[57.3,48384],[57.3,48450],[57.3,48520],[57.5,48587],[57.6,48661],[57.8,48731],[58.3,48806],[59.4,48875],[59.8,48951],[59.8,49023],[59.8,49089],[59.8,49174],[59.8,49239],[59.8,49318],[59.9,49387],[60,49459],[60,49532],[60,49602],[60,49671],[60,49733],[60,49802],[60,49880],[60,49952],[60,50027],[59.9,50100],[59.9,50172],[59.8,50246],[59.7,50316],[59.6,50386],[59.6,50448],[59.6,50516],[59.6,50575],[59.6,50642],[59.6,50709],[59.6,50781],[59.6,50850],[59.6,50914],[59.6,50985],[59.6,51052],[59.6,51116],[59.6,51181],[59.6,51251],[59.6,51316],[59.6,51389],[59.6,51457],[59.6,51542],[59.5,51612],[59.5,51693],[59.5,51762],[59.5,51831],[59.5,51905],[59.5,51970],[59.5,52040],[59.5,52107],[59.5,52179],[59.5,52252],[59.5,52332],[59.5,52413],[59.5,52485],[59.5,52566],[59.5,52635],[59.5,52706],[59.5,52780],[59.5,52855],[59.5,52934],[59.5,53010],[59.5,53086],[59.5,53160],[59.5,53226],[59.5,53295],[59.5,53374],[59.5,53443],[59.5,53512],[59.5,53592],[59.5,53665],[59.5,53735],[59.5,53803],[59.5,53876],[59.5,53944],[59.5,54010],[59.5,54086],[59.5,54157],[59.5,54230],[59.5,54306],[59.5,54380],[59.5,54453],[59.5,54525],[59.5,54596],[59.5,54665],[59.5,54733],[59.5,54802],[59.5,54866],[60.1,54949],[62,55025],[63.9,55091],[64.8,55165],[64.8,55232],[64.8,55307],[65,55376],[65,55453],[65,55522],[65,55596],[65,55669],[65.3,55740],[66.3,55819],[66.7,55890],[67.6,55962],[69.1,56030]]",1,0,360.482,367.012,62.15191248,4.2228,"[{""rating"":70.33189934622061,""responseTime"":1.91519999998809},{""rating"":62.151912476863515,""responseTime"":4.222799999996994}]",space,5.8486,,367.012,Not at all,0,367.0135,,,[],,0,10,10,10,1,audio/Narrative8Situation1.wav,audio/Narrative7Situation1.wav,audio/Narrative6Situation1.wav,audio/Narrative5Situation1.wav,5,2,2,5,,,,,,,,,,,,,,,,,,,,,,,,,,,,,,,,,,,,,,,
,,,,,,5885f97f41da4500014d3645,2024-02-08_15h01.54.166,group3.1-3.2-social-tom,2023.2.2,Win32,14.4092219,65c5074098b851296ff0b7ed,65c54139fad0c82b865c2a24,,,,,,,,,,,,,,,,,,,,,,,,,,,,,367.0136,1,audio/Narrative7Situation2.wav,370.0491,,370.0492,377.7022,"[[28.3,2365],[24.9,2445],[19.8,2517],[17.1,2595],[17.1,2664],[17.1,2735],[17.1,2806],[17,2879],[17,2945],[17,3018],[16.2,3088],[8.8,3159],[7.2,3237],[7.3,3305],[8.1,3373],[9.5,3438],[10.4,3518],[11,3585],[11.4,3654],[12,3727],[12.2,3795],[12.2,3865],[12.3,3937],[12.3,4027],[12.3,4102],[12.3,4175],[12.3,4248],[12.3,4319],[12.3,4389],[12.3,4459],[12.3,4534],[12.3,4607],[12.3,4675],[12.3,4742],[12.3,4810],[12.3,4878],[12.3,4945],[12.3,5018],[12.3,5087],[12.3,5159],[12.3,5225],[12.4,5297],[17.9,5370],[21.4,5442],[24.4,5519],[24.4,5588],[24.1,5664],[23.3,5735],[20.8,5807],[20.5,5871],[20.5,5939],[20.5,6000],[20.5,6071],[20.5,6140],[20.5,6209],[20.5,6283],[20.5,6358],[20.5,6427],[20.5,6494],[20.5,6573],[20.5,6637],[20.5,6704],[20.5,6773],[20.5,6842],[20.5,6931],[20.5,7001],[20.4,7078],[20.4,7145],[20.4,7215],[20.4,7283],[20.4,7355],[20.4,7424],[20.4,7500],[20.4,7580],[21.2,7652]]",1,0,377.7023,381.6451,46.00720217,2.1915,"[{""rating"":50.74297999928351,""responseTime"":1.0312000000029684},{""rating"":46.00720217285541,""responseTime"":2.191500000000019}]",space,3.2337,,381.6451,Definitely yes,100,381.6463,,,[],,0,11,11,11,1,audio/Narrative8Situation2.wav,audio/Narrative7Situation2.wav,audio/Narrative6Situation2.wav,audio/Narrative5Situation2.wav,3,3,3,3,,,,,,,,,,,,,,,,,,,,,,,,,,,,,,,,,,,,,,,
,,,,,,5885f97f41da4500014d3645,2024-02-08_15h01.54.166,group3.1-3.2-social-tom,2023.2.2,Win32,14.4092219,65c5074098b851296ff0b7ed,65c54139fad0c82b865c2a24,,,,,,,,,,,,,,,,,,,,,,,,,,,,,381.6464,1,audio/Narrative7Situation3.wav,389.6771,,389.6771,399.1178,"[[999,5],[999,73],[999,139],[999,210],[999,277],[999,347],[999,414],[999,493],[999,559],[999,626],[999,696],[999,767],[999,841],[999,912],[999,999],[999,1071],[999,1142],[999,1217],[999,1284],[999,1351],[999,1416],[999,1489],[999,1556],[999,1623],[999,1689],[999,1765],[999,1835],[999,1903],[999,1974],[999,2041],[999,2114],[999,2191],[999,2267],[999,2346],[999,2418],[999,2492],[999,2561],[999,2634],[999,2703],[999,2782],[999,2846],[999,2908],[999,2975],[999,3045],[999,3110],[999,3179],[999,3249],[999,3319],[999,3387],[999,3460],[999,3538],[999,3628],[999,3702],[999,3771],[999,3843],[999,3913],[999,3984],[999,4051],[999,4118],[999,4197],[999,4266],[999,4336],[999,4399],[999,4469],[999,4536],[999,4613],[999,4679],[999,4746],[999,4829],[999,4898],[29.3,4969],[27,5046],[24.8,5125],[22.8,5202],[21.3,5284],[20.4,5366],[20,5438],[19.3,5508],[19.1,5581],[18.8,5653],[18.3,5729],[17.8,5795],[17.6,5861],[17.2,5928],[16.6,5998],[16,6068],[15.4,6144],[14.8,6216],[14.6,6293],[14.4,6362],[14.2,6435],[14.2,6508],[14.2,6577],[14.2,6658],[14.2,6731],[14.2,6810],[14.2,6875],[14.2,6953],[14.2,7033],[14.3,7100],[14.3,7167],[14.3,7232],[14.3,7304],[14.3,7373],[14.3,7441],[14.3,7504],[14.4,7580],[14.4,7646],[14.4,7716],[14.4,7788],[14.4,7862],[14.4,7935],[14.5,8008],[14.5,8088],[14.5,8155],[14.5,8226],[14.5,8297],[14.5,8363],[14.5,8432],[14.6,8495],[14.6,8569],[14.6,8635],[14.6,8704],[14.6,8776],[14.6,8844],[14.6,8911],[14.7,8979],[14.7,9059],[14.8,9141],[14.8,9217],[14.8,9289],[14.8,9368],[14.8,9440]]",1,0,399.1179,401.2911,6.398848434,1.5512,"[{""rating"":5.322537173144753,""responseTime"":1.161299999997027},{""rating"":6.398848434306542,""responseTime"":1.551199999988114}]",space,1.4836,0.0003,401.2912,Partially,50,401.2922,,,[],,0,12,12,12,1,audio/Narrative8Situation3.wav,audio/Narrative7Situation3.wav,audio/Narrative6Situation3.wav,audio/Narrative5Situation3.wav,4,8,5,3,,,,,,,,,,,,,,,,,,,,,,,,,,,,,,,,,,,,,,,
,,,,,,5885f97f41da4500014d3645,2024-02-08_15h01.54.166,group3.1-3.2-social-tom,2023.2.2,Win32,14.4092219,65c5074098b851296ff0b7ed,65c54139fad0c82b865c2a24,,,,,,,,,,,,,,,,,,,,,,,,,,,,,401.2924,1,audio/Narrative7Situation4.wav,404.3651,,404.3651,416.1992,"[[999,0],[999,76],[999,149],[999,225],[999,305],[999,378],[999,445],[999,510],[999,579],[999,646],[999,711],[999,783],[999,852],[999,927],[999,1010],[999,1077],[999,1146],[999,1207],[999,1277],[999,1340],[999,1409],[999,1485],[999,1569],[999,1643],[999,1728],[999,1801],[999,1875],[999,1942],[999,2007],[999,2076],[999,2141],[999,2208],[999,2284],[999,2355],[999,2434],[999,2510],[999,2577],[999,2647],[999,2733],[999,2814],[999,2887],[999,2962],[999,3037],[999,3112],[999,3183],[999,3255],[999,3326],[999,3393],[999,3464],[999,3549],[999,3631],[999,3707],[999,3772],[999,3843],[999,3914],[999,3984],[999,4062],[999,4132],[999,4203],[999,4273],[24.2,4363],[18.7,4440],[16,4513],[14.6,4583],[13.4,4657],[13.2,4726],[13.1,4796],[13.1,4864],[12.9,4937],[12.2,5006],[10.9,5079],[9.3,5148],[8.7,5219],[8.7,5291],[8.7,5356],[8.7,5429],[8.7,5496],[8.7,5574],[8.7,5648],[8.7,5722],[8.7,5796],[8.7,5868],[8.7,5944],[8.7,6012],[8.7,6083],[9.9,6160],[12.3,6236],[15.8,6307],[19.2,6383],[20.2,6456],[20.3,6527],[20.4,6596],[20.6,6666],[20.7,6737],[20.7,6805],[20.7,6874],[20.7,6948],[20.7,7019],[20.7,7095],[20.7,7170],[20.7,7247],[20.7,7316],[20.7,7379],[20.7,7459],[20.7,7519],[20.7,7598],[20.7,7670],[20.7,7747],[20.7,7814],[20.7,7883],[20.7,7954],[20.7,8025],[20.7,8096],[20.7,8160],[20.7,8228],[20.7,8294],[20.7,8371],[20.7,8444],[20.7,8512],[20.7,8587],[20.7,8661],[20.7,8732],[20.7,8796],[20.7,8875],[20.7,8944],[20.7,9008],[20.7,9081],[20.7,9148],[20.7,9223],[20.7,9290],[20.7,9362],[20.7,9428],[20.7,9502],[20.7,9569],[20.7,9643],[20.7,9717],[20.7,9796],[20.7,9865],[20.7,9942],[20.7,10012],[20.7,10085],[20.7,10154],[20.7,10226],[20.7,10297],[20.7,10359],[20.7,10433],[20.7,10498],[20.7,10578],[20.7,10644],[20.7,10716],[20.7,10781],[20.7,10848],[20.7,10918],[20.7,10984],[20.7,11059],[20.7,11131],[20.7,11203],[20.7,11275],[20.3,11354],[19.7,11426],[18.7,11495],[17,11564],[14.8,11630],[12.2,11703],[11.3,11769],[11.3,11834]]",1,0,416.1993,420.2818,1.232543738,3.4629,"[{""rating"":11.026997499565983,""responseTime"":0.8752999999970257},{""rating"":1.2325437384662075,""responseTime"":3.462899999991066}]",space,3.3931,,420.2818,Not at all,0,420.283,,,[],,0,13,13,13,1,audio/Narrative8Situation4.wav,audio/Narrative7Situation4.wav,audio/Narrative6Situation4.wav,audio/Narrative5Situation4.wav,3,3,2,1,,,,,,,,,,,,,,,,,,,,,,,,,,,,,,,,,,,,,,,
,,,,,,5885f97f41da4500014d3645,2024-02-08_15h01.54.166,group3.1-3.2-social-tom,2023.2.2,Win32,14.4092219,65c5074098b851296ff0b7ed,65c54139fad0c82b865c2a24,,,,,,,,,,,,,,,,,,,,,,,,,,,,,420.2832,1,audio/Narrative7Situation5.wav,425.2855,,425.2855,433.9777,"[[999,5],[999,81],[999,165],[999,235],[999,310],[999,384],[999,460],[999,540],[999,607],[999,681],[999,757],[999,827],[999,897],[999,973],[999,1045],[999,1117],[999,1186],[999,1258],[999,1343],[999,1416],[999,1488],[999,1557],[999,1626],[999,1692],[999,1773],[999,1842],[999,1916],[999,1982],[999,2050],[999,2119],[999,2192],[999,2273],[999,2343],[999,2408],[999,2474],[999,2546],[999,2626],[999,2711],[999,2784],[999,2857],[999,2927],[999,2999],[999,3064],[999,3134],[999,3207],[999,3278],[999,3344],[999,3420],[999,3490],[999,3559],[21.6,3633],[21.2,3702],[21.2,3773],[20.8,3846],[20.4,3919],[20.4,3982],[20.4,4064],[20.3,4138],[20.3,4208],[20.3,4282],[20.3,4352],[20.3,4425],[20.3,4491],[20.3,4570],[20.3,4635],[20.3,4701],[20.4,4767],[20.4,4837],[20.4,4905],[20.4,4972],[20.4,5051],[20.4,5116],[20.4,5189],[20.4,5257],[20.4,5326],[20.4,5387],[20.4,5461],[20.4,5535],[20.4,5608],[20.4,5680],[20.4,5753],[20.4,5824],[20.4,5891],[20.4,5963],[20.4,6027],[20.4,6100],[20.4,6167],[20.4,6235],[20.4,6299],[20.4,6363],[20.4,6429],[20.4,6501],[20.4,6566],[20.4,6636],[20.4,6707],[20.4,6776],[20.4,6850],[20.4,6930],[20.4,7006],[20.4,7077],[20.4,7157],[20.4,7233],[20.4,7301],[20.4,7366],[20.4,7436],[20.4,7506],[20.4,7574],[20.4,7643],[20.4,7719],[20.4,7794],[20.4,7864],[20.4,7937],[20.4,8001],[20.4,8066],[20.4,8135],[20.4,8209],[20.4,8284],[20.4,8360],[20.4,8443],[20.5,8525],[22.2,8612],[23.1,8692]]",1,0,433.9778,436.0013,18.02303843,1.5807,"[{""rating"":18.02303843422387,""responseTime"":1.1658999999910407},{""rating"":18.02303843422387,""responseTime"":1.5807000000029916}]",space,1.2972,,436.0013,Not at all,0,436.002,,,[],,0,14,14,14,1,audio/Narrative8Situation5.wav,audio/Narrative7Situation5.wav,audio/Narrative6Situation5.wav,audio/Narrative5Situation5.wav,2,5,2,5,,,,,,,,,,,,,,,,,,,,,,,,,,,,,,,,,,,,,,,
,,,,,,5885f97f41da4500014d3645,2024-02-08_15h01.54.166,group3.1-3.2-social-tom,2023.2.2,Win32,14.4092219,65c5074098b851296ff0b7ed,65c54139fad0c82b865c2a24,,,,,,,,,,,,,,,,,,,,,,,,,,,,,436.0022,1,audio/Narrative7Situation6.wav,439.0419,,439.0419,449.1268,"[[999,5],[999,88],[999,169],[999,244],[999,320],[999,398],[999,470],[999,557],[999,632],[999,701],[999,771],[999,840],[999,910],[999,971],[999,1039],[999,1104],[999,1184],[999,1251],[999,1320],[999,1389],[999,1456],[999,1531],[999,1600],[999,1672],[999,1745],[999,1820],[999,1893],[999,1973],[999,2044],[999,2115],[999,2180],[45,2253],[48.5,2325],[50.5,2404],[51.4,2469],[53.4,2547],[54.5,2616],[54.5,2686],[54.5,2756],[54.5,2826],[54.5,2896],[54.5,2968],[54.5,3043],[54.5,3115],[54.5,3187],[54.5,3263],[55,3333],[55.8,3406],[56.3,3475],[56.4,3561],[56.4,3629],[56.4,3707],[56.4,3775],[56.4,3845],[56.4,3916],[56.4,3983],[56.3,4063],[56.3,4128],[56.2,4197],[56.2,4264],[55.9,4339],[55.8,4411],[55.8,4490],[55.7,4564],[55.7,4640],[55.7,4718],[55.7,4804],[55.7,4883],[55.7,4954],[55.7,5029],[55.7,5096],[55.7,5169],[55.7,5237],[55.7,5312],[55.7,5385],[55.7,5455],[55.7,5523],[55.7,5589],[55.7,5656],[55.7,5724],[55.7,5802],[55.7,5873],[55.7,5952],[55.7,6025],[55.7,6103],[55.7,6173],[55.7,6241],[55.7,6311],[55.7,6379],[55.7,6447],[55.7,6523],[55.7,6595],[55.7,6661],[55.7,6730],[55.7,6796],[55.7,6864],[55.7,6933],[55.7,7000],[55.7,7068],[55.7,7132],[55.7,7204],[55.7,7281],[55.7,7353],[55.7,7437],[55.7,7512],[55.7,7586],[55.7,7653],[55.7,7726],[55.7,7792],[55.7,7863],[55.7,7930],[55.7,8002],[55.7,8070],[55.7,8151],[55.7,8228],[55.7,8301],[55.7,8372],[55.7,8441],[55.7,8511],[55.7,8577],[55.7,8656],[55.7,8740],[55.7,8816],[55.7,8886],[55.8,8962],[55.9,9032],[56.4,9108],[56.5,9176],[56.8,9248],[57.2,9324],[57.6,9406],[58.6,9484],[59.1,9554],[59.1,9636],[59.1,9707],[59.1,9788],[59.1,9862],[59.1,9936],[59.1,10014],[59.1,10084]]",1,0,449.1268,451.7116,62.47481059,2.1193,"[{""rating"":58.81533810747196,""responseTime"":1.058200000003012},{""rating"":57.523757499235295,""responseTime"":1.4434000000059655},{""rating"":62.474810585107065,""responseTime"":2.119299999997054}]",space,1.9244,,451.7117,Not at all,0,451.7123,,,[],,0,15,15,15,1,audio/Narrative8Situation6.wav,audio/Narrative7Situation6.wav,audio/Narrative6Situation6.wav,audio/Narrative5Situation6.wav,2,3,2,3,,,,,,,,,,,,,,,,,,,,,,,,,,,,,,,,,,,,,,,
,,,,,,5885f97f41da4500014d3645,2024-02-08_15h01.54.166,group3.1-3.2-social-tom,2023.2.2,Win32,14.4092219,65c5074098b851296ff0b7ed,65c54139fad0c82b865c2a24,,,,,,,,,,,,,,,,,,,,,,,,,,,,,451.7125,1,audio/Narrative7Situation7.wav,456.7147,,456.7147,474.0535,"[[999,4],[999,68],[999,136],[999,207],[999,273],[67.1,345],[66.8,413],[66.8,496],[66.8,565],[66.8,637],[66.8,711],[66.8,783],[66.8,855],[66.5,927],[66.5,997],[66.5,1066],[66.5,1138],[66.5,1207],[66.4,1279],[66.3,1344],[66.2,1410],[66.2,1475],[66.2,1547],[66.1,1618],[64,1689],[61.1,1762],[58,1833],[53.7,1903],[48.5,1976],[44.9,2050],[43,2124],[42.6,2195],[40.9,2269],[33.2,2341],[23.1,2422],[15.9,2494],[14.6,2562],[14.6,2631],[14.6,2698],[14.6,2772],[14.6,2843],[14.6,2914],[14.6,2983],[14.6,3050],[14.6,3117],[14.6,3185],[14.6,3257],[14.6,3328],[14.7,3400],[14.8,3465],[14.8,3543],[14.8,3612],[14.8,3689],[14.8,3762],[14.8,3835],[14.8,3912],[14.8,3981],[14.8,4049],[14.8,4120],[14.8,4186],[14.9,4253],[14.9,4321],[14.9,4387],[14.9,4457],[14.9,4523],[15.1,4592],[15.1,4660],[15.1,4727],[15.1,4795],[15.1,4861],[15.1,4939],[15.2,5013],[15.2,5086],[15.2,5158],[15.2,5236],[15.2,5310],[15.2,5376],[15.2,5445],[15.2,5510],[15.4,5582],[15.4,5651],[15.4,5720],[15.4,5788],[15.4,5853],[15.5,5923],[15.6,5992],[15.6,6062],[15.6,6132],[15.7,6214],[15.7,6284],[15.8,6357],[15.8,6434],[15.8,6514],[15.8,6592],[15.8,6652],[15.8,6720],[15.8,6784],[15.8,6855],[15.8,6919],[15.8,6990],[15.8,7057],[15.8,7135],[15.8,7203],[15.8,7272],[15.8,7336],[15.8,7406],[15.9,7477],[16.8,7545],[18.7,7617],[21.7,7690],[22.7,7765],[23.4,7838],[24,7910],[24.9,7993],[27,8075],[28.6,8147],[28.8,8214],[28.8,8288],[28.8,8358],[28.8,8428],[28.8,8508],[28.8,8574],[28.8,8650],[28.8,8722],[28.8,8798],[28.8,8860],[28.8,8936],[28.8,9008],[28.8,9080],[28.8,9157],[28.8,9231],[28.8,9304],[28.8,9373],[28.8,9444],[28.8,9518],[28.8,9587],[28.8,9654],[28.8,9722],[28.8,9788],[28.8,9860],[28.8,9933],[28.8,10000],[28.8,10073],[28.8,10141],[28.8,10209],[28.8,10277],[28.8,10352],[28.8,10427],[28.8,10504],[28.8,10579],[28.8,10650],[28.8,10725],[28.8,10799],[28.8,10867],[28.8,10940],[28.8,11006],[28.8,11079],[28.8,11144],[28.8,11217],[28.8,11286],[28.8,11357],[28.8,11433],[28.8,11501],[28.8,11575],[28.8,11644],[28.8,11715],[28.8,11785],[28.8,11853],[28.8,11923],[28.8,11995],[28.8,12068],[28.8,12141],[28.8,12215],[28.8,12289],[28.8,12356],[28.8,12429],[28.8,12499],[28.8,12570],[28.8,12636],[28.8,12712],[28.8,12769],[28.8,12844],[28.8,12912],[28.8,12983],[28.8,13052],[28.8,13122],[28.8,13194],[28.8,13268],[28.8,13349],[28.8,13423],[28.8,13496],[28.8,13577],[28.8,13646],[28.8,13719],[28.8,13782],[28.8,13851],[28.8,13919],[28.8,13987],[28.8,14055],[28.8,14127],[28.8,14190],[28.8,14260],[28.8,14333],[28.8,14399],[28.8,14471],[28.8,14538],[28.8,14608],[28.8,14681],[28.8,14755],[32.5,14827],[38.7,14905],[44.6,14979],[47.1,15051],[48.9,15134],[51,15209],[52.2,15281],[52.9,15354],[52.9,15421],[52.9,15491],[53.5,15569],[53.8,15632],[53.8,15703],[53.8,15770],[53.8,15840],[53.8,15902],[54,15978],[54,16047],[54,16122],[54,16193],[54,16268],[54,16342],[54,16425],[54,16497],[54,16574],[54,16645],[55,16716],[59.6,16785],[65.8,16858],[66.5,16926],[66.5,16997],[66.5,17062],[66.5,17137],[66.5,17200],[66.5,17269],[66.5,17338]]",1,0,474.0536,475.9659,65.91901372,0.8483,"[{""rating"":65.91901371566729,""responseTime"":0.8482999999970389}]",space,1.2065,,475.966,Not at all,0,475.9668,,,[],,0,16,16,16,1,audio/Narrative8Situation7.wav,audio/Narrative7Situation7.wav,audio/Narrative6Situation7.wav,audio/Narrative5Situation7.wav,3,5,5,4,,,,,,,,,,,,,,,,,,,,,,,,,,,,,,,,,,,,,,,
,,,,,,5885f97f41da4500014d3645,2024-02-08_15h01.54.166,group3.1-3.2-social-tom,2023.2.2,Win32,14.4092219,65c5074098b851296ff0b7ed,65c54139fad0c82b865c2a24,,,,,,,,,,,,,,,,,,,,,,,,,,,,,475.967,1,audio/Narrative7Situation8.wav,477.9949,,477.9949,488.1764,"[[62.8,72],[63.2,139],[63.3,212],[63.3,281],[63.4,353],[63.4,426],[63.5,511],[63.5,584],[63.5,657],[63.5,732],[63.5,816],[63.5,890],[63.5,956],[62.7,1024],[58.3,1093],[54.1,1167],[51.2,1237],[50.7,1308],[50.7,1381],[50.7,1458],[50.7,1526],[50.7,1593],[50.7,1666],[50.7,1735],[50.7,1805],[50.7,1874],[50.7,1947],[50.7,2021],[50.7,2092],[50.7,2166],[50.7,2238],[50.7,2307],[50.7,2384],[50.7,2463],[50.7,2533],[50.7,2600],[50.7,2668],[50.7,2738],[50.7,2813],[50.7,2883],[50.7,2959],[50.7,3039],[50.7,3106],[50.7,3183],[50.7,3257],[50.7,3338],[50.7,3417],[50.7,3489],[50.7,3559],[50.7,3641],[50.7,3712],[50.7,3783],[50.7,3853],[50.7,3924],[50.7,3995],[50.7,4068],[50.7,4137],[50.7,4208],[50.7,4274],[50.7,4353],[50.7,4418],[50.7,4488],[50.7,4555],[50.3,4615],[40.2,5624],[42.2,5695],[41.3,5763],[37.5,5832],[32.7,5900],[31.2,5972],[28.4,6043],[25.6,6113],[23.5,6197],[21.1,6273],[20.6,6348],[20.6,6424],[20.6,6499],[20.6,6572],[21.5,6643],[21.7,6724],[15.5,6802],[20.7,7086],[34.8,7155],[32.8,7233],[19.6,7305],[28.4,7531],[29,7608],[12.2,7679],[6.5,7752],[26.2,7833],[37.1,7914],[17,7988],[17.4,8140],[34.2,8212],[25.9,8283],[11.5,8354],[16.8,8423],[34,8492],[27.4,8572],[30.7,8803],[34.6,8871],[19.1,8942],[12.1,9010],[16.6,9084],[23.2,9160],[23.6,9234],[23.6,9317],[23.6,9390],[23.6,9467],[23.6,9543],[23.6,9612],[24.5,9681],[29.3,9750],[30.6,9821],[30.7,9894],[30.5,9963],[28.6,10036],[27.8,10111],[27.8,10181]]",1,0,488.1765,491.7138,29.21670748,1.2422,"[{""rating"":29.21670747709775,""responseTime"":1.2421999999880882}]",space,2.8338,,491.7138,Definitely yes,100,491.7149,,,[],,0,17,17,17,1,audio/Narrative8Situation8.wav,audio/Narrative7Situation8.wav,audio/Narrative6Situation8.wav,audio/Narrative5Situation8.wav,3,2,5,3,,,,,,,,,,,,,,,,,,,,,,,,,,,,,,,,,,,,,,,
,,,,,,5885f97f41da4500014d3645,2024-02-08_15h01.54.166,group3.1-3.2-social-tom,2023.2.2,Win32,14.4092219,65c5074098b851296ff0b7ed,65c54139fad0c82b865c2a24,,,,,,,,,,,,,,,,,,,,,,,,,,,,,491.7151,1,audio/Narrative7Situation9.wav,493.746,,493.746,502.5284,"[[999,0],[999,66],[999,133],[999,197],[999,273],[999,338],[999,423],[999,496],[999,570],[999,639],[999,706],[999,776],[999,844],[999,916],[999,982],[999,1059],[999,1130],[999,1206],[999,1275],[999,1349],[999,1426],[999,1492],[999,1561],[999,1620],[999,1702],[999,1765],[999,1838],[999,1908],[999,1979],[999,2049],[999,2116],[999,2187],[999,2251],[999,2319],[999,2386],[999,2456],[999,2518],[999,2588],[999,2665],[999,2729],[999,2799],[999,2868],[999,2944],[999,3013],[999,3091],[999,3160],[999,3246],[999,3316],[999,3378],[999,3447],[999,3513],[999,3585],[999,3666],[999,3731],[999,3798],[999,3870],[999,3951],[999,4022],[999,4095],[999,4174],[999,4244],[41.9,4312],[44.7,4400],[49.4,4474],[55,4545],[57.8,4620],[60,4694],[60.4,4768],[60.4,4837],[60.4,4901],[60.4,4966],[60.4,5039],[60.4,5103],[60.4,5173],[60.4,5238],[60.4,5305],[60.4,5369],[60.4,5439],[60.4,5517],[60.1,5585],[58.5,5653],[58.5,5728],[58.5,5802],[58.5,5875],[58.5,5952],[58.5,6023],[58.5,6096],[58.5,6170],[58.5,6240],[58.5,6305],[58.5,6371],[58.5,6445],[58.5,6514],[58.5,6582],[58.5,6647],[58.5,6721],[58.5,6782],[58.5,6861],[58.5,6929],[58.5,6998],[58.5,7067],[58.5,7132],[58.5,7203],[58.5,7273],[58.5,7348],[58.5,7419],[58.5,7496],[58.5,7577],[58.5,7642],[58.5,7714],[58.5,7781],[58.5,7857],[58.5,7928],[58.5,7996],[58.5,8064],[58.5,8137],[59.1,8204],[60.8,8270],[60.9,8338],[61.5,8410],[62.3,8480],[65.7,8552],[69.4,8631],[71.7,8709],[72.2,8782]]",1,0,502.5285,504.5316,81.63319124,1.2698,"[{""rating"":79.37293995440217,""responseTime"":0.8125},{""rating"":81.6331912378944,""responseTime"":1.2697999999970193}]",space,1.3496,,504.5316,Definitely yes,100,504.5323,,,[],,0,18,18,18,1,audio/Narrative8Situation9.wav,audio/Narrative7Situation9.wav,audio/Narrative6Situation9.wav,audio/Narrative5Situation9.wav,3,2,4,3,,,,,,,,,,,,,,,,,,,,,,,,,,,,,,,,,,,,,,,
,,,,,,5885f97f41da4500014d3645,2024-02-08_15h01.54.166,group3.1-3.2-social-tom,2023.2.2,Win32,14.4092219,65c5074098b851296ff0b7ed,65c54139fad0c82b865c2a24,,,,,,,,,,,,,,,,,,,,,,,,,,,559.8291,559.8292,559.8349,2,audio/Narrative13Situation2.wav,559.835,,559.835,589.7482,"[[999,0],[999,89],[999,168],[999,241],[999,311],[999,384],[999,458],[999,529],[999,598],[999,673],[999,743],[999,818],[999,885],[999,955],[999,1025],[999,1100],[999,1174],[999,1259],[999,1330],[999,1410],[999,1478],[999,1545],[999,1612],[999,1680],[999,1755],[999,1829],[999,1898],[50.1,1978],[50.3,2046],[50.2,2116],[50.1,2197],[50.1,2288],[50.1,2362],[50.1,2430],[50.1,2507],[50.1,2580],[50.1,2657],[49.8,2732],[49.8,2800],[49.8,2878],[49.8,2952],[49.8,3023],[49.8,3086],[49.8,3156],[49.8,3225],[49.8,3293],[49.8,3365],[49.8,3431],[49.8,3504],[49.8,3571],[49.7,3650],[44.9,3719],[31.9,3792],[21.5,3861],[13.5,3942],[8.2,4015],[8,4088],[8,4170],[8,4237],[8,4304],[8,4372],[8,4445],[8,4513],[8,4584],[8,4649],[8,4717],[8,4784],[8,4868],[8,4945],[8,5009],[8.1,5082],[8.1,5138],[8.1,5206],[8.1,5274],[8.1,5347],[8.1,5420],[8.1,5498],[8.1,5572],[8.1,5646],[8.1,5713],[8.1,5792],[8.1,5867],[8.1,5935],[8.1,6006],[8.1,6080],[8.1,6159],[8.1,6229],[8.1,6305],[8.1,6379],[8.1,6444],[8.1,6516],[8.1,6584],[8.1,6665],[8.1,6736],[8.1,6810],[8.1,6886],[8.1,6956],[8.1,7026],[8.1,7096],[8.1,7168],[8.1,7238],[8.1,7309],[8.1,7384],[8.4,7452],[8.9,7523],[8.9,7589],[8.9,7665],[8.9,7730],[8.9,7801],[8.9,7865],[8.9,7936],[8.9,8005],[9,8079],[11.4,8156],[13.5,8237],[16.8,8315],[19.2,8391],[19.8,8468],[20.5,8544],[20.7,8625],[21.1,8696],[21.1,8773],[21.1,8832],[21.1,8902],[21.1,8970],[21.1,9037],[21.1,9102],[21.1,9172],[21.1,9244],[21.1,9310],[21.1,9380],[21.1,9446],[21.1,9515],[21.1,9588],[21.1,9662],[21.1,9734],[21.1,9813],[21.1,9888],[21.1,9968],[21.1,10036],[21.1,10101],[21.1,10170],[21.1,10250],[21.1,10316],[21.1,10391],[21.1,10456],[21.1,10526],[21.1,10595],[21.1,10662],[21.1,10737],[21.1,10804],[21.1,10874],[21.1,10942],[21.1,11011],[21.1,11084],[21.1,11156],[21.1,11228],[21.1,11305],[21.1,11369],[21.1,11444],[21.1,11514],[21.1,11581],[21.1,11653],[21.1,11718],[21.1,11789],[21.1,11854],[21.1,11923],[21.1,12001],[21.1,12080],[21.1,12142],[21.1,12212],[21.1,12279],[21.1,12354],[21.1,12425],[21.1,12503],[21.1,12574],[21.1,12644],[21.1,12716],[21.1,12779],[21.1,12850],[21.1,12917],[21.1,12991],[21.1,13060],[21.1,13131],[21.1,13196],[21.1,13262],[21.1,13333],[21.1,13402],[21.1,13474],[20.1,13542],[19.2,13623],[18.7,13685],[18.5,13759],[17.9,13835],[17.9,13910],[17.9,13982],[17.9,14053],[17.9,14123],[17.9,14192],[17.9,14260],[17.9,14332],[17.9,14402],[17.9,14476],[17.9,14547],[17.9,14612],[17.9,14679],[17.9,14747],[17.9,14815],[17.9,14882],[17.9,14950],[17.9,15017],[17.9,15084],[17.9,15154],[17.9,15230],[17.9,15301],[17.9,15374],[17.9,15446],[17.9,15518],[17.9,15585],[17.9,15655],[17.9,15725],[17.9,15791],[17.9,15866],[17.9,15933],[17.9,16001],[17.9,16068],[17.9,16141],[17.9,16219],[17.9,16290],[17.9,16362],[17.9,16433],[17.9,16505],[17.9,16580],[17.9,16641],[17.9,16712],[17.9,16786],[18,16859],[18.2,16935],[18.2,17005],[18.2,17069],[18.2,17139],[18.2,17207],[18.2,17275],[18.2,17342],[18.2,17415],[18.2,17481],[18.2,17552],[18.2,17618],[18.2,17694],[18.2,17760],[18.2,17832],[18.2,17909],[18.2,17981],[18.3,18064],[18.3,18138],[18.3,18210],[18.3,18290],[18.3,18359],[18.4,18426],[18.5,18495],[18.5,18575],[18.5,18641],[18.5,18718],[18.5,18783],[18.5,18853],[18.5,18919],[18.5,18987],[18.5,19057],[18.5,19124],[18.5,19196],[18.5,19263],[18.6,19337],[18.6,19410],[18.6,19487],[18.6,19557],[18.6,19628],[18.6,19703],[18.6,19768],[18.6,19837],[18.6,19899],[18.6,19971],[18.6,20043],[18.6,20110],[18.6,20177],[18.6,20244],[18.6,20310],[18.6,20378],[18.6,20446],[18.7,20514],[18.7,20585],[18.7,20651],[18.7,20728],[18.7,20803],[18.7,20880],[18.7,20952],[18.7,21025],[18.7,21102],[18.7,21182],[18.7,21250],[18.7,21318],[18.7,21392],[18.7,21462],[18.7,21534],[18.7,21604],[18.7,21669],[18.7,21740],[18.7,21808],[18.7,21876],[18.7,21941],[18.7,22028],[18.7,22100],[18.7,22173],[18.7,22252],[18.7,22332],[18.7,22403],[18.7,22471],[18.7,22539],[18.7,22605],[17.7,22679],[17,22746],[16.5,22820],[14.9,22898],[13.4,22969],[13,23035],[12.9,23102],[12.8,23172],[12.8,23240],[12.8,23311],[12.8,23381],[12.8,23452],[12.8,23525],[12.8,23601],[12.8,23675],[12.8,23747],[12.8,23820],[12.8,23889],[12.8,23961],[12.8,24028],[12.8,24099],[12.8,24169],[12.8,24244],[12.8,24314],[12.8,24381],[12.8,24451],[12.8,24516],[12.8,24585],[12.8,24658],[12.8,24729],[12.8,24800],[12.8,24867],[12.8,24939],[12.8,25012],[12.8,25100],[12.8,25172],[12.8,25243],[12.8,25315],[12.9,25381],[12.9,25457],[12.9,25523],[13,25591],[13,25662],[13,25736],[13,25807],[13,25871],[13,25944],[13,26011],[13,26081],[13,26144],[13,26232],[13,26308],[13,26387],[13,26466],[13,26541],[13,26617],[13,26694],[13,26767],[13,26839],[13,26908],[13,26990],[13,27055],[13,27125],[13,27191],[13,27257],[13,27334],[13,27401],[13,27471],[13,27537],[13,27618],[13,27688],[13,27764],[13,27839],[13,27912],[13,27989],[13,28056],[13,28126],[13,28194],[13,28275],[13,28339],[13,28417],[13,28483],[13,28551],[13,28621],[13,28691],[13,28765],[13,28828],[13,28905],[13,28969],[13,29040],[13,29118],[13,29187],[13,29260],[13,29332],[13,29407],[13,29475],[13,29552],[13,29621],[13,29690],[13,29766],[13,29831],[13,29913]]",1,0,589.7484,589.7542,,,[],,,,589.7543,Not at all,0,589.7551,,,[],,0,0,0,0,1,audio/Narrative13Situation2.wav,audio/Narrative13Situation2.wav,audio/Narrative13Situation2.wav,audio/Narrative13Situation2.wav,2,2,2,2,,,,,504.5328,559.8238,,,,,,,,,,,,,,,,,,,,,,,,,,,,,,,,,
,,,,,,5885f97f41da4500014d3645,2024-02-08_15h01.54.166,group3.1-3.2-social-tom,2023.2.2,Win32,14.4092219,65c5074098b851296ff0b7ed,65c54139fad0c82b865c2a24,,,,,,,,,,,,,,,,,,,,,,,,,,,,,589.7552,2,audio/Narrative6Situation1.wav,591.8185,,591.8185,618.6147,"[[14,502],[14.7,577],[14.9,646],[15.2,711],[15.4,778],[15.4,851],[15.4,914],[15.4,987],[15.4,1054],[15.4,1113],[15.4,1184],[15.4,1259],[15.4,1329],[15.4,1414],[15.4,1489],[15.4,1558],[15.4,1623],[15.4,1691],[15.4,1765],[15.4,1832],[15.4,1903],[15.4,1974],[15.4,2038],[15.4,2114],[15.4,2180],[15.4,2251],[15.4,2316],[15.4,2388],[15.4,2457],[15.4,2532],[15.4,2605],[15.4,2678],[15.4,2751],[15.4,2821],[15.4,2897],[15.4,2973],[15.4,3043],[15.4,3108],[15.4,3180],[15.4,3247],[15.4,3314],[15.4,3382],[15.4,3451],[15.4,3521],[15.4,3587],[15.4,3656],[15.4,3722],[15.4,3798],[15.4,3861],[15.4,3931],[15.4,4005],[15.4,4077],[15.4,4148],[14.8,4221],[13.4,4303],[13.3,4382],[13.3,4454],[13.3,4525],[13.3,4594],[13.3,4667],[13.3,4734],[13.3,4811],[13.3,4880],[13.3,4951],[13.3,5018],[13.3,5087],[13.3,5162],[13.3,5235],[13.3,5299],[13.3,5370],[13.3,5440],[13.3,5513],[13.3,5595],[13.3,5667],[13.3,5735],[13.3,5800],[13.3,5876],[13.3,5942],[13.3,6013],[13.3,6080],[13.3,6151],[13.3,6222],[13.3,6288],[13.3,6358],[13.3,6426],[13.3,6498],[13.3,6565],[13.3,6639],[13.3,6713],[13.3,6785],[13.3,6860],[13.3,6931],[13.3,7011],[13.3,7081],[13.3,7147],[13.3,7208],[13.3,7276],[13.3,7341],[13.3,7418],[13.3,7485],[13.3,7546],[13.3,7615],[13.3,7691],[13.3,7759],[13.3,7827],[13.3,7897],[13.3,7965],[13.3,8045],[13.3,8115],[13.3,8193],[13.3,8265],[13.3,8341],[13.3,8419],[13.3,8497],[13.3,8582],[13.3,8656],[13.3,8737],[13.3,8810],[13.3,8892],[13.3,8960],[13.3,9038],[13.3,9111],[13.3,9192],[13.3,9266],[13.3,9339],[13.3,9412],[13.3,9481],[13.3,9553],[13.3,9629],[13.3,9703],[13.3,9773],[13.3,9846],[13.3,9913],[13.3,9980],[13.3,10042],[13.3,10121],[13.3,10190],[13.3,10256],[13.3,10326],[13.3,10395],[13.3,10459],[13.3,10526],[13.3,10599],[13.3,10665],[13.3,10733],[13.3,10798],[13.3,10868],[13.3,10937],[13.3,11011],[13.3,11081],[13.3,11155],[13.3,11229],[13.3,11315],[13.3,11385],[13.3,11456],[13.3,11532],[13.3,11600],[13.3,11671],[13.3,11731],[13.3,11801],[13.3,11870],[13.3,11939],[13.3,12011],[13.3,12077],[13.3,12146],[13.3,12213],[13.3,12285],[13.3,12355],[13.3,12429],[13.3,12500],[13.3,12577],[13.3,12646],[13.3,12716],[13.3,12785],[13.3,12852],[13.3,12926],[13.3,12988],[13.3,13056],[13.3,13121],[13.3,13196],[13.3,13261],[13.3,13336],[13.3,13404],[13.3,13477],[13.3,13545],[13.3,13620],[13.3,13689],[13.3,13762],[13.3,13843],[13.3,13917],[13.3,13991],[13.3,14064],[13.3,14138],[13.3,14208],[13.3,14290],[13.3,14361],[13.8,14431],[17.3,14515],[20.3,14587],[22,14668],[24,14746],[24.1,14817],[24.1,14886],[24.1,14952],[24.1,15026],[23.3,15097],[22.7,15172],[21.1,15251],[20.3,15324],[19.8,15398],[19,15466],[18.3,15538],[17.5,15608],[16.6,15688],[14.8,15757],[13.7,15828],[13.7,15898],[15.9,15965],[17.9,16035],[18,16105],[18,16174],[17.3,16240],[14.3,16309],[12.6,16376],[12.2,16442],[12.2,16512],[12.2,16587],[12.2,16661],[12.2,16733],[12.2,16818],[12.3,16892],[13,16961],[13.2,17027],[13.5,17101],[13.5,17167],[13.6,17234],[14.3,17301],[14.9,17374],[14.9,17451],[14.9,17521],[14.4,17597],[12.4,17668],[11.5,17738],[11.5,17810],[11.5,17875],[11.5,17947],[11.5,18017],[11.5,18097],[11.5,18171],[11.5,18244],[11.5,18320],[11.5,18389],[11.5,18457],[11.5,18523],[11.5,18592],[11.5,18656],[11.8,18725],[11.9,18791],[11.9,18863],[11.9,18932],[11.9,18998],[11.9,19067],[11.9,19133],[11.9,19200],[11.9,19268],[11.9,19341],[11.9,19422],[11.9,19490],[11.9,19560],[11.9,19632],[11.9,19705],[11.9,19774],[11.9,19843],[11.9,19922],[11.9,19987],[11.9,20060],[11.9,20131],[11.9,20199],[11.9,20267],[11.9,20336],[11.9,20405],[11.9,20470],[11.9,20539],[11.9,20605],[11.9,20672],[11.9,20745],[11.9,20824],[11.9,20896],[11.9,20975],[11.9,21048],[11.9,21117],[11.9,21187],[11.9,21251],[11.9,21317],[11.9,21394],[11.9,21468],[11.9,21538],[11.9,21611],[11.9,21677],[11.9,21744],[11.9,21813],[11.9,21879],[11.9,21949],[12.8,22017],[14.7,22088],[16.5,22166],[17.8,22243],[18.4,22314],[18.7,22388],[18.7,22461],[18.7,22542],[18.7,22611],[18.7,22678],[18.7,22747],[18.7,22817],[18.7,22886],[18.7,22952],[18.7,23029],[18.7,23101],[18.7,23178],[18.7,23251],[18.7,23318],[18.7,23394],[18.7,23457],[18.7,23534],[18.7,23605],[18.7,23678],[18.7,23751],[18.7,23825],[18.7,23896],[18.7,23964],[18.7,24034],[18.7,24104],[18.7,24173],[18.7,24241],[18.7,24320],[18.7,24388],[18.7,24465],[18.7,24528],[18.7,24598],[18.7,24668],[18.7,24734],[18.7,24806],[18.7,24874],[18.7,24946],[18.7,25019],[18.7,25097],[18.7,25168],[18.7,25247],[18.7,25316],[18.7,25385],[18.7,25453],[18.7,25524],[18.7,25592],[18.7,25661],[18.7,25728],[18.7,25796],[18.7,25870],[18.7,25944],[18.7,26013],[18.7,26078],[18.7,26147],[18.7,26213],[18.7,26280],[18.7,26352],[18.7,26424],[18.7,26495],[18.7,26576],[18.7,26648],[18.7,26718],[18.7,26796]]",1,0,618.6148,643.7775,14.47120654,2.8716,"[{""rating"":20.175666868916192,""responseTime"":1.745999999999981},{""rating"":14.471206542494969,""responseTime"":2.8715999999940323}]",space,24.4985,,643.7776,Not at all,0,643.7841,,,[],,0,1,1,1,1,audio/Narrative7Situation1.wav,audio/Narrative8Situation1.wav,audio/Narrative5Situation1.wav,audio/Narrative6Situation1.wav,2,5,5,2,,,,,,,,,,,,,,,,,,,,,,,,,,,,,,,,,,,,,,,
,,,,,,5885f97f41da4500014d3645,2024-02-08_15h01.54.166,group3.1-3.2-social-tom,2023.2.2,Win32,14.4092219,65c5074098b851296ff0b7ed,65c54139fad0c82b865c2a24,,,,,,,,,,,,,,,,,,,,,,,,,,,,,643.7843,2,audio/Narrative6Situation2.wav,646.7889,,646.7889,675.4857,"[[999,0],[999,72],[999,148],[999,214],[999,285],[999,348],[999,413],[999,479],[999,550],[999,620],[999,692],[999,760],[48.5,844],[48.9,918],[50.3,992],[50.3,1071],[50.3,1143],[50.3,1215],[50.3,1292],[50.3,1359],[50.2,1431],[50.1,1496],[49.5,1556],[49.4,1624],[49.4,1693],[43.6,1770],[30.5,1841],[22.5,1910],[21,1992],[21,2051],[20.8,2130],[20.8,2200],[20.8,2269],[21.5,2344],[21.7,2418],[21.7,2503],[21.6,2575],[21.6,2648],[21.6,2719],[21.6,2788],[21.6,2855],[21.6,2932],[21.6,3001],[21.2,3065],[18.8,3136],[18.8,3208],[18.8,3274],[18.8,3340],[18.8,3404],[18.6,3476],[18,3549],[16,3630],[13.8,3712],[13.6,3789],[13.6,3863],[11.4,3944],[10.1,4019],[10.1,4096],[10.1,4171],[10.1,4243],[10.1,4314],[10.1,4391],[10.1,4459],[10.1,4543],[10.2,4609],[11.4,4687],[11.4,4757],[11.4,4825],[11.4,4897],[11.4,4966],[11.4,5038],[11.4,5109],[11.4,5187],[11.4,5254],[11.4,5336],[11.4,5409],[11.4,5487],[11.4,5557],[11.4,5628],[11.4,5695],[11.4,5761],[11.4,5833],[11.4,5900],[11.4,5972],[11.4,6044],[11.4,6115],[11.4,6183],[11.4,6251],[11.4,6319],[11.4,6386],[11.4,6464],[11.4,6544],[11.4,6617],[11.4,6691],[11.4,6764],[11.4,6836],[11.4,6904],[11.4,6973],[11.4,7048],[11.4,7127],[11.4,7205],[11.4,7270],[11.4,7340],[11.4,7408],[11.4,7479],[11.4,7546],[11.4,7615],[11.4,7682],[11.4,7749],[11.4,7817],[11.4,7886],[11.4,7955],[11.4,8037],[11.4,8108],[11.4,8184],[11.4,8257],[11.4,8323],[11.4,8390],[11.4,8459],[11.4,8528],[11.4,8593],[11.4,8663],[11.4,8729],[11.4,8799],[11.4,8866],[11.4,8935],[11.4,9003],[11.4,9074],[11.4,9145],[11.4,9215],[11.4,9282],[11.4,9354],[11.4,9433],[11.4,9503],[11.4,9582],[11.4,9653],[11.4,9727],[11.4,9803],[11.4,9872],[11.4,9943],[11.4,10009],[11.4,10086],[11.4,10149],[11.4,10217],[11.4,10284],[11.4,10350],[11.4,10412],[11.4,10487],[11.4,10556],[11.4,10626],[11.4,10692],[11.4,10774],[11.4,10851],[11.4,10928],[11.4,11004],[11.4,11075],[11.4,11142],[11.4,11216],[12.2,11280],[12.2,11358],[12.7,11425],[13.6,11500],[14,11566],[14,11643],[14,11714],[14,11781],[14,11853],[14,11920],[14,11990],[14,12071],[14,12147],[14,12220],[14,12296],[14,12368],[14,12443],[14,12514],[14,12586],[14,12659],[14,12730],[14,12800],[14,12870],[14,12941],[14,13020],[14,13094],[14,13164],[14,13232],[14,13301],[14,13373],[14,13446],[14,13528],[14,13599],[14,13674],[14,13762],[14,13839],[14,13912],[14,13983],[14,14050],[14,14115],[14,14194],[14,14269],[14,14342],[14,14419],[14,14491],[14,14563],[14,14629],[15.4,14700],[16.3,14772],[17.2,14852],[17.5,14929],[18,15012],[18.8,15085],[18.8,15158],[18.8,15234],[18.8,15309],[18.8,15385],[18.8,15456],[18.8,15529],[18.8,15596],[18.8,15669],[18.6,15733],[18,15801],[17.8,15868],[17.7,15944],[17.7,16017],[17.7,16090],[17.7,16163],[17.7,16231],[17.7,16303],[17.7,16370],[17.7,16439],[17.7,16511],[17.7,16585],[17.7,16656],[17.7,16730],[17.7,16812],[17.7,16879],[17.7,16953],[17.7,17038],[17.7,17107],[17.7,17167],[17.7,17232],[17.7,17299],[17.7,17367],[18.4,17438],[18.9,17514],[19.4,17583],[19.9,17649],[20.2,17720],[20.4,17793],[20.7,17860],[20.7,17935],[20.8,18016],[21,18092],[21,18164],[21,18238],[21,18316],[21,18398],[21,18474],[21,18537],[21,18611],[21,18676],[21,18749],[21,18810],[21,18888],[21,18962],[21,19031],[21,19096],[21,19165],[21,19231],[21,19301],[21,19373],[21,19448],[21,19524],[21,19605],[21,19685],[21,19753],[21,19820],[21,19890],[21,19964],[21,20037],[21,20105],[20.1,20180],[20.1,20246],[20.1,20318],[20.1,20383],[20.1,20463],[20.1,20535],[20.1,20605],[20.1,20681],[20.1,20753],[20.1,20825],[20.1,20899],[20.1,20973],[20.1,21048],[20.1,21121],[20.1,21186],[20.1,21258],[20.1,21326],[20.1,21407],[20.1,21483],[20.1,21551],[20.1,21624],[20.1,21691],[20.1,21760],[20.1,21831],[20.1,21904],[20.1,21973],[20.1,22045],[20.1,22121],[20.1,22213],[20.1,22288],[20.1,22361],[20.1,22433],[20.1,22505],[20.1,22574],[20.1,22649],[20.1,22728],[20.1,22796],[20.1,22865],[20.5,22932],[23,23009],[24.1,23080],[25,23149],[25.2,23227],[25.2,23293],[25.2,23354],[25.2,23422],[25.2,23503],[25.2,23573],[25.2,23649],[25.2,23721],[25.2,23793],[25.2,23865],[25.2,23930],[25.2,24002],[25.2,24074],[25.2,24147],[25.2,24230],[25.2,24301],[25.2,24370],[25.2,24440],[25.2,24516],[25.2,24588],[25.2,24658],[25.2,24715],[25.2,24790],[25.2,24861],[25.2,24931],[25.2,25005],[25.2,25083],[25.2,25168],[25.3,25243],[26.9,25322],[27,25395],[27,25460],[27,25537],[27.1,25617],[27.3,25686],[27.5,25757],[27.6,25830],[27.7,25903],[27.7,25969],[27.8,26040],[27.8,26110],[27.8,26182],[27.8,26253],[27.8,26328],[27.8,26402],[27.8,26474],[27.8,26543],[27.8,26614],[27.8,26685],[27.8,26754],[27.8,26835],[27.8,26904],[27.8,26976],[27.8,27044],[27.8,27121],[27.8,27192],[27.8,27259],[27.8,27328],[27.8,27395],[27.8,27463],[27.8,27529],[27.8,27596],[27.8,27664],[27.8,27746],[27.8,27823],[29,27900],[33.7,27978],[35.9,28052],[38.2,28131],[39.4,28214],[40.2,28283],[41.9,28352],[44.6,28416],[48,28493],[48.2,28561],[48.1,28628],[48,28696]]",1,0,675.4859,678.5649,47.72930374,1.2988,"[{""rating"":47.62167497696686,""responseTime"":0.9212000000029548},{""rating"":47.72930373813552,""responseTime"":1.2987999999969588}]",space,2.4009,,678.565,Definitely yes,100,678.5662,,,[],,0,2,2,2,1,audio/Narrative7Situation2.wav,audio/Narrative8Situation2.wav,audio/Narrative5Situation2.wav,audio/Narrative6Situation2.wav,3,3,3,3,,,,,,,,,,,,,,,,,,,,,,,,,,,,,,,,,,,,,,,
,,,,,,5885f97f41da4500014d3645,2024-02-08_15h01.54.166,group3.1-3.2-social-tom,2023.2.2,Win32,14.4092219,65c5074098b851296ff0b7ed,65c54139fad0c82b865c2a24,,,,,,,,,,,,,,,,,,,,,,,,,,,,,678.5663,2,audio/Narrative6Situation3.wav,683.5847,,683.5847,696.3594,"[[999,5],[999,78],[999,148],[999,221],[999,299],[999,364],[999,432],[999,500],[999,583],[999,655],[999,730],[999,815],[999,892],[999,962],[999,1028],[999,1096],[999,1172],[999,1238],[999,1315],[999,1390],[999,1458],[999,1525],[999,1595],[999,1669],[999,1737],[999,1809],[999,1874],[999,1953],[999,2021],[999,2097],[999,2172],[999,2243],[999,2312],[999,2380],[999,2455],[999,2526],[999,2597],[999,2662],[999,2736],[999,2803],[999,2873],[999,2939],[999,3004],[999,3067],[999,3134],[999,3208],[999,3271],[999,3349],[999,3418],[999,3504],[999,3564],[999,3644],[999,3711],[999,3791],[999,3864],[999,3934],[999,4001],[999,4067],[999,4135],[999,4203],[999,4289],[999,4363],[999,4433],[999,4502],[999,4570],[999,4643],[999,4706],[999,4787],[999,4854],[999,4932],[999,5004],[999,5079],[999,5145],[999,5207],[999,5275],[999,5342],[999,5415],[999,5490],[999,5565],[999,5640],[999,5711],[999,5780],[999,5856],[0.9,5926],[0.4,6003],[0.5,6072],[0.8,6143],[1.1,6224],[2.3,6306],[2.5,6389],[3.1,6462],[3.6,6531],[3.9,6604],[6.1,6682],[6.6,6751],[6.6,6817],[6.6,6893],[6.6,6963],[6.6,7036],[6.6,7120],[6.6,7184],[9,7258],[13.1,7323],[14.3,7395],[15.7,7480],[16.5,7552],[16.5,7628],[16.5,7694],[16.5,7772],[16.5,7844],[16.5,7916],[16.5,7987],[16.5,8056],[16.5,8143],[16.5,8212],[15.5,8281],[15.1,8347],[15.1,8418],[15.1,8488],[15.1,8555],[15.1,8630],[15.1,8698],[15.1,8769],[15.1,8837],[15.1,8919],[15.1,9000],[15.1,9076],[15.1,9153],[15.1,9225],[15.1,9299],[15.1,9370],[15.1,9439],[15.1,9504],[15.1,9573],[15.1,9636],[15.1,9706],[15.1,9779],[15.1,9844],[15.1,9919],[15.1,9989],[15.1,10057],[15.1,10124],[15.1,10194],[15.1,10269],[15.1,10350],[15.1,10422],[15.1,10501],[15.1,10579],[15.1,10649],[15.1,10721],[15.1,10789],[15.1,10860],[15.1,10926],[15.1,11001],[15.1,11072],[15.1,11140],[15.1,11206],[15.1,11272],[15.1,11351],[15.1,11419],[15.1,11490],[15.1,11564],[15.1,11641],[15.1,11705],[15.1,11777],[15.1,11851],[15.1,11921],[15.1,11991],[15.1,12063],[15.1,12142],[15.1,12208],[15.1,12284],[16.5,12356],[18.8,12432],[20.5,12494],[21.4,12561],[22.6,12631],[22.9,12702],[22.9,12774]]",1,0,696.3596,698.7249,23.94276811,0.8811,"[{""rating"":23.94276810771997,""responseTime"":0.881099999994035}]",space,1.6515,,698.7249,Not at all,0,698.7261,,,[],,0,3,3,3,1,audio/Narrative7Situation3.wav,audio/Narrative8Situation3.wav,audio/Narrative5Situation3.wav,audio/Narrative6Situation3.wav,8,4,3,5,,,,,,,,,,,,,,,,,,,,,,,,,,,,,,,,,,,,,,,
,,,,,,5885f97f41da4500014d3645,2024-02-08_15h01.54.166,group3.1-3.2-social-tom,2023.2.2,Win32,14.4092219,65c5074098b851296ff0b7ed,65c54139fad0c82b865c2a24,,,,,,,,,,,,,,,,,,,,,,,,,,,,,698.7262,2,audio/Narrative6Situation4.wav,700.7442,,700.7442,713.5466,"[[31.3,505],[31.5,576],[31.5,662],[31.5,741],[30.7,813],[30.1,882],[28.3,953],[16.5,1730],[12.8,1806],[12.1,1878],[11.8,1956],[11.4,2028],[11.4,2103],[10.9,2172],[10.9,2236],[10.9,2311],[9.9,2378],[9.4,2449],[9.4,2517],[9.4,2588],[9.4,2656],[9.4,2730],[9.3,2797],[9.3,2864],[9.3,2934],[9.3,2999],[9.3,3077],[9.3,3153],[9.3,3229],[9.3,3306],[9.3,3374],[9.3,3445],[9.3,3523],[9.3,3596],[9.3,3671],[9.3,3739],[9.3,3811],[9.3,3876],[9.3,3950],[9.3,4017],[9.3,4081],[9.3,4151],[9.3,4214],[9.3,4288],[9.3,4352],[9.3,4420],[9.3,4489],[9.3,4567],[9.3,4641],[9.6,4724],[9.6,4803],[9.6,4886],[9.6,4955],[9.6,5026],[9.6,5093],[9.6,5175],[9.6,5245],[9.6,5317],[9.6,5396],[9.6,5464],[9.6,5538],[9.6,5620],[9.6,5692],[10.1,5763],[10.6,5845],[11.6,5919],[13.4,5992],[15,6075],[15.8,6151],[15.8,6227],[15.8,6305],[15.8,6380],[15.8,6450],[15.8,6525],[15.8,6606],[15.8,6682],[15.8,6745],[15.8,6815],[15.8,6882],[15.8,6952],[15.8,7020],[15.8,7086],[15.8,7153],[15.8,7221],[15.8,7293],[15.8,7372],[15.8,7443],[15.8,7516],[15.8,7590],[15.8,7672],[15.8,7740],[15.8,7810],[15.8,7878],[15.8,7954],[15.8,8023],[15.8,8095],[15.8,8163],[15.8,8232],[15.8,8303],[15.8,8372],[15.8,8445],[15.8,8516],[15.8,8581],[15.8,8647],[15.8,8718],[15.8,8801],[15.8,8874],[15.8,8949],[15.8,9017],[15.8,9094],[15.7,9164],[15.5,9240],[15.5,9309],[15.5,9368],[15.4,9436],[15.4,9508],[15.4,9580],[15.4,9647],[15.4,9716],[15.4,9782],[15.4,9852],[15.4,9927],[15.4,10004],[15.4,10082],[15.4,10156],[15.4,10231],[15.4,10302],[15.4,10384],[15.4,10457],[15.2,10531],[15.2,10601],[14.1,10671],[12.3,10743],[11.2,10813],[10.9,10891],[10.9,10955],[10.9,11027],[10.9,11111],[10.9,11179],[10.9,11250],[10.9,11317],[10.9,11384],[10.9,11450],[10.9,11519],[10.9,11593],[10.9,11668],[10.9,11739],[10.9,11815],[10.9,11886],[10.9,11965],[10.9,12036],[10.9,12106],[8.8,12173],[6.1,12243],[4.8,12310],[4.7,12372],[4.7,12446],[4.7,12517],[4.7,12586],[4.7,12657],[4.7,12731],[4.7,12802]]",1,0,713.5467,720.1285,13.17962593,5.5186,"[{""rating"":6.61411186901264,""responseTime"":0.8537000000029593},{""rating"":13.287260607795753,""responseTime"":4.750299999996969},{""rating"":12.856733738383536,""responseTime"":5.068200000003003},{""rating"":13.179625934258304,""responseTime"":5.518599999993967}]",space,5.877,,720.1285,Partially,50,720.1297,,,[],,0,4,4,4,1,audio/Narrative7Situation4.wav,audio/Narrative8Situation4.wav,audio/Narrative5Situation4.wav,audio/Narrative6Situation4.wav,3,3,1,2,,,,,,,,,,,,,,,,,,,,,,,,,,,,,,,,,,,,,,,
,,,,,,5885f97f41da4500014d3645,2024-02-08_15h01.54.166,group3.1-3.2-social-tom,2023.2.2,Win32,14.4092219,65c5074098b851296ff0b7ed,65c54139fad0c82b865c2a24,,,,,,,,,,,,,,,,,,,,,,,,,,,,,720.1298,2,audio/Narrative6Situation5.wav,722.1605,,722.1605,730.2115,"[[17.6,306],[17.6,370],[17.6,435],[17.3,504],[17.3,577],[17.3,648],[17.3,726],[17.3,787],[17.3,860],[17.3,936],[17.3,1012],[17.3,1082],[17.3,1148],[17.3,1216],[17.3,1290],[17.3,1363],[17.3,1446],[17.3,1517],[17.3,1589],[17.3,1661],[17.3,1744],[17.3,1815],[17.3,1884],[17.2,1956],[17,2029],[17,2104],[17,2167],[17,2236],[17,2303],[17,2377],[17,2445],[17,2522],[17,2582],[17,2650],[17,2715],[17,2790],[17,2857],[17,2935],[17,3004],[17,3080],[17,3146],[17,3222],[17,3298],[17,3369],[17,3435],[17,3494],[17,3569],[17,3641],[17,3704],[17,3774],[17,3845],[17,3914],[17,3982],[17,4048],[17,4116],[17,4191],[17,4262],[17,4335],[17,4417],[17,4500],[17,4579],[17,4653],[17,4722],[17,4792],[17,4858],[17,4926],[17,4995],[17,5063],[17,5132],[17,5211],[17,5284],[17,5353],[17,5427],[17,5507],[17,5574],[17,5652],[17,5722],[17,5798],[17,5875],[17,5951],[17,6024],[17,6092],[17,6163],[17,6230],[17,6306],[17,6370],[17,6443],[17,6517],[17,6588],[17,6656],[17,6722],[17,6792],[17,6870],[17,6945],[17,7018],[17,7093],[17,7169],[17,7247],[17,7330],[17,7416],[17,7486],[17,7565],[17,7629],[17,7705],[17,7768],[17,7838],[17,7908],[17,7984],[17,8050]]",1,0,730.2116,732.4443,10.38121311,0.8481,"[{""rating"":10.381213107816418,""responseTime"":0.8481000000090262}]",space,1.5313,,732.4443,Partially,50,732.4454,,,[],,0,5,5,5,1,audio/Narrative7Situation5.wav,audio/Narrative8Situation5.wav,audio/Narrative5Situation5.wav,audio/Narrative6Situation5.wav,5,2,5,2,,,,,,,,,,,,,,,,,,,,,,,,,,,,,,,,,,,,,,,
,,,,,,5885f97f41da4500014d3645,2024-02-08_15h01.54.166,group3.1-3.2-social-tom,2023.2.2,Win32,14.4092219,65c5074098b851296ff0b7ed,65c54139fad0c82b865c2a24,,,,,,,,,,,,,,,,,,,,,,,,,,,,,732.4455,2,audio/Narrative6Situation6.wav,734.4755,,734.4755,745.7083,"[[999,0],[999,69],[999,135],[999,199],[999,267],[999,338],[999,408],[999,483],[999,555],[999,627],[999,692],[999,774],[999,843],[999,915],[999,987],[999,1050],[999,1117],[999,1183],[999,1260],[999,1329],[999,1410],[999,1491],[999,1563],[999,1635],[999,1715],[999,1788],[999,1871],[999,1954],[999,2025],[999,2097],[999,2170],[999,2237],[999,2310],[999,2383],[999,2454],[999,2533],[999,2599],[999,2671],[999,2745],[999,2831],[999,2907],[999,2973],[999,3043],[999,3115],[999,3190],[45,3270],[40.7,3347],[38.7,3431],[34,3511],[27.8,3578],[22.8,3653],[21.9,3724],[20.6,3793],[20.8,3866],[20.8,3940],[20.8,4013],[20.8,4083],[20.8,4151],[20.8,4219],[20.1,4289],[19.3,4357],[18.6,4425],[18,4503],[18,4575],[17.9,4650],[17.8,4725],[17.8,4800],[17.8,4871],[17.8,4942],[17.8,5012],[17.8,5075],[17.8,5149],[17.8,5216],[17.8,5283],[18.3,5339],[18.6,5410],[18.6,5476],[18.6,5543],[18.6,5609],[18.6,5676],[18.6,5745],[18.6,5819],[18.6,5888],[18.6,5968],[18.6,6044],[18.6,6116],[18.6,6191],[18.6,6264],[18.6,6332],[18.6,6402],[18.6,6471],[18.6,6537],[18.6,6607],[18.6,6673],[18.6,6744],[18.6,6812],[18.6,6881],[18.6,6945],[18.6,7014],[18.6,7085],[18.6,7151],[18.6,7219],[18.6,7284],[18.6,7357],[18.6,7429],[18.6,7509],[18.6,7584],[18.6,7657],[18.6,7724],[18.6,7795],[18.6,7871],[18.6,7936],[18.6,8005],[18.6,8072],[18.6,8151],[18.6,8223],[18.6,8297],[18.6,8368],[18.6,8444],[18.5,8527],[18.5,8598],[18.5,8666],[18.5,8739],[18.5,8809],[18.5,8884],[18.5,8957],[18.5,9028],[18.5,9107],[18.5,9176],[18.5,9250],[18.5,9322],[18.5,9391],[18.5,9461],[18.5,9531],[18.5,9599],[18.5,9668],[18.4,9736],[18.3,9806],[18.3,9875],[18.3,9944],[18.3,10015],[18.3,10084],[19.1,10159],[20,10234],[20,10306],[20,10377],[20,10456],[19.6,10528],[17.8,10597],[15.2,10664],[14.3,10738],[14.1,10809],[14.1,10879],[14.1,10954],[14.1,11019],[17.3,11161],[17.5,11232]]",1,0,745.7084,747.7663,16.83909841,0.6978,"[{""rating"":16.83909841189341,""responseTime"":0.6977999999970734}]",space,1.348,,747.7663,Partially,50,747.7671,,,[],,0,6,6,6,1,audio/Narrative7Situation6.wav,audio/Narrative8Situation6.wav,audio/Narrative5Situation6.wav,audio/Narrative6Situation6.wav,3,2,3,2,,,,,,,,,,,,,,,,,,,,,,,,,,,,,,,,,,,,,,,
,,,,,,5885f97f41da4500014d3645,2024-02-08_15h01.54.166,group3.1-3.2-social-tom,2023.2.2,Win32,14.4092219,65c5074098b851296ff0b7ed,65c54139fad0c82b865c2a24,,,,,,,,,,,,,,,,,,,,,,,,,,,,,747.7672,2,audio/Narrative6Situation7.wav,752.7681,,752.7681,777.7807,"[[46.5,646],[46.9,718],[47.4,793],[47.5,863],[47.5,938],[47.5,1007],[47.5,1085],[47.5,1157],[47.5,1227],[47.5,1299],[47.5,1370],[47.5,1441],[47.3,1516],[46.9,1590],[46.8,1669],[46.8,1747],[46.7,1817],[46.6,1885],[48.8,8302],[44.4,8376],[38.4,8448],[36.3,8525],[35.8,8599],[37.3,8670],[41.8,8748],[43.6,8818],[45.1,8890],[45.8,8965],[46.1,9037],[46.1,9100],[46.3,9167],[47.1,9237],[48.2,9310],[48.2,9379],[48.2,9461],[48.2,9535],[48.2,9602],[48.2,9670],[48.2,9737],[48.2,9810],[48.2,9888],[48.2,9969],[48.2,10040],[48.2,10113],[48.2,10186],[48.2,10252],[48.2,10331],[48.2,10397],[48.2,10467],[48.2,10539],[48.2,10607],[48.2,10679],[48.2,10743],[48.2,10811],[48,10885],[48,10961],[48,11031],[48,11104],[48,11175],[48,11250],[48,11321],[48,11391],[47.7,11463],[47.7,11532],[47.7,11601],[50.2,11668],[54,11739],[56.5,11810],[59.2,11882],[59.8,11951],[59.8,12027],[59.8,12096],[59.5,12166],[59.2,12237],[59.1,12312],[59.1,12375],[59.1,12445],[59,12521],[58.7,12593],[58.7,12676],[58.7,12747],[58.5,12826],[58.4,12899],[58.4,12964],[58.4,13042],[58.4,13107],[58.4,13179],[58.4,13248],[58.4,13318],[58.4,13389],[58.1,13458],[58.1,13532],[58.1,13600],[58,13674],[57.9,13743],[57.9,13814],[57.9,13889],[57.9,13960],[57.9,14040],[57.9,14119],[57.9,14196],[57.9,14267],[57.8,14340],[57.8,14410],[57.7,14478],[57.2,14552],[57.1,14630],[57.1,14699],[57.1,14772],[56.9,14842],[56.9,14909],[56.9,14981],[56.9,15052],[56.9,15119],[56.9,15189],[56.9,15254],[56.9,15336],[56.9,15407],[56.9,15488],[56.9,15561],[56.9,15632],[57.6,15706],[57.8,15770],[57.8,15847],[57.8,15911],[57.8,15983],[57.8,16047],[57.8,16119],[57.8,16185],[57.8,16254],[57.9,16324],[58,16392],[58,16461],[58.7,16534],[59.9,16606],[60.8,16685],[61.8,16763],[62.2,16846],[62.3,16919],[62.3,16992],[62.3,17065],[62.3,17147],[62.3,17223],[62.3,17300],[62.3,17369],[62.3,17435],[62.3,17505],[62.3,17569],[62.3,17644],[62.3,17707],[62.3,17778],[62.3,17844],[62.3,17916],[62.3,17985],[62.3,18057],[62.3,18128],[62.3,18204],[62.3,18277],[62.2,18358],[62.2,18436],[62.2,18504],[62.2,18578],[62.2,18644],[62.2,18725],[62.2,18793],[62.2,18858],[62.2,18925],[62.2,18990],[62.2,19062],[62.2,19133],[62.2,19210],[62.2,19274],[62.2,19344],[62.2,19414],[62.2,19490],[62.2,19563],[62.2,19640],[62.2,19713],[62.2,19780],[62.2,19856],[62.2,19922],[62.2,19991],[62.2,20064],[62.2,20132],[62.2,20201],[62.2,20265],[62.2,20340],[62.2,20398],[62.2,20476],[62.2,20542],[62.2,20616],[62.2,20682],[62.2,20756],[62.2,20820],[62.2,20898],[62.2,20969],[62.2,21042],[62.2,21114],[62.2,21186],[62.2,21256],[62.2,21323],[62.2,21382],[62.2,21445],[62.2,21512],[62.2,21582],[62.2,21660],[62.2,21737],[62,21807],[61.8,21873],[61.6,21951],[61.5,22022],[61.2,22091],[61.2,22161],[61.2,22235],[61.1,22313],[61,22387],[60.9,22462],[60.9,22535],[60.9,22603],[60.8,22676],[60.8,22741],[60.8,22821],[60.8,22889],[60.8,22965],[60.8,23033],[60.8,23107],[60.8,23176],[60.8,23243],[60.8,23312],[60.8,23380],[60.8,23450],[60.8,23518],[60.8,23589],[61.6,23670],[62.7,23741],[65,23816],[67.6,23890],[69.4,23964],[70.3,24035],[70.4,24102],[70.4,24168],[70.4,24237],[70.4,24302],[70.4,24373],[70.4,24438],[69.8,24517],[69.5,24586],[69.4,24653],[69.3,24727],[69.3,24797],[69.3,24867],[69.3,24929],[69.3,25012]]",1,0,777.7807,780.3808,80.66450874,1.3877,"[{""rating"":69.25558808505883,""responseTime"":0.48220000000299024},{""rating"":80.66450873790129,""responseTime"":1.3877000000030648}]",space,1.8994,,780.3808,Definitely yes,100,780.382,,,[],,0,7,7,7,1,audio/Narrative7Situation7.wav,audio/Narrative8Situation7.wav,audio/Narrative5Situation7.wav,audio/Narrative6Situation7.wav,5,3,4,5,,,,,,,,,,,,,,,,,,,,,,,,,,,,,,,,,,,,,,,
,,,,,,5885f97f41da4500014d3645,2024-02-08_15h01.54.166,group3.1-3.2-social-tom,2023.2.2,Win32,14.4092219,65c5074098b851296ff0b7ed,65c54139fad0c82b865c2a24,,,,,,,,,,,,,,,,,,,,,,,,,,,,,780.3821,2,audio/Narrative6Situation8.wav,785.4366,,785.4366,792.4973,"[[999,5],[999,84],[999,152],[999,225],[999,293],[999,366],[999,425],[999,499],[999,562],[999,632],[999,699],[999,772],[999,845],[999,916],[999,989],[999,1057],[999,1135],[999,1202],[999,1270],[999,1327],[999,1393],[999,1459],[999,1541],[999,1610],[999,1678],[999,1757],[999,1820],[999,1887],[999,1952],[999,2034],[999,2105],[999,2180],[999,2261],[999,2329],[999,2407],[999,2472],[999,2553],[999,2621],[999,2693],[999,2765],[999,2837],[999,2907],[999,2982],[999,3053],[999,3119],[999,3197],[999,3274],[999,3345],[999,3413],[999,3485],[999,3563],[999,3638],[71.6,3715],[71.6,3783],[71.6,3853],[71.7,3922],[71.7,3996],[71.7,4067],[71.7,4135],[71.7,4209],[71.7,4287],[71.7,4358],[71.7,4427],[71.7,4500],[71.7,4565],[71.7,4636],[71.7,4707],[71.7,4775],[71.7,4849],[71.7,4921],[71.7,4997],[71.7,5071],[70.7,5144],[70.6,5212],[70.5,5278],[69.3,5349],[66.7,5416],[60.1,5492],[49.5,5567],[38.6,5642],[28.3,5713],[20.2,5781],[17.2,5855],[17.1,5924],[16.3,5995],[14.4,6063],[12.9,6141],[12.2,6215],[12.2,6289],[12.2,6359],[12.2,6431],[12.2,6500],[12.2,6570],[11.2,6642],[10.4,6711],[9.9,6783],[9.6,6852],[9.2,6923],[7.7,6992],[7,7060]]",1,0,792.4974,794.517,2.416489673,0.6253,"[{""rating"":2.4164896731654286,""responseTime"":0.6252999999970825}]",space,1.314,,794.517,Partially,50,794.5182,,,[],,0,8,8,8,1,audio/Narrative7Situation8.wav,audio/Narrative8Situation8.wav,audio/Narrative5Situation8.wav,audio/Narrative6Situation8.wav,2,3,3,5,,,,,,,,,,,,,,,,,,,,,,,,,,,,,,,,,,,,,,,
,,,,,,5885f97f41da4500014d3645,2024-02-08_15h01.54.166,group3.1-3.2-social-tom,2023.2.2,Win32,14.4092219,65c5074098b851296ff0b7ed,65c54139fad0c82b865c2a24,,,,,,,,,,,,,,,,,,,,,,,,,,,,,794.5183,2,audio/Narrative6Situation9.wav,798.5714,,798.5714,808.6765,"[[21.2,77],[21.3,157],[21.3,232],[21.3,307],[21.3,378],[21.3,461],[21.3,528],[21.3,593],[21.3,665],[21.3,733],[21.3,804],[21.3,869],[21.3,945],[21.3,1014],[21.3,1089],[21.3,1162],[21.3,1230],[21.2,1301],[21.1,1368],[21,1438],[21,1510],[20.8,1587],[20.7,1657],[20.6,1750],[20.6,1840],[20.6,1923],[20.5,2008],[20,2074],[17.9,2142],[14.8,2207],[13,2281],[11.2,2350],[10.6,2420],[10.4,2481],[10.4,2550],[10.4,2616],[10.4,2688],[10.4,2754],[10.4,2824],[10.4,2892],[10.4,2963],[10.4,3038],[10.4,3111],[10.4,3184],[10.4,3257],[10.4,3337],[10.4,3405],[10.4,3473],[10.4,3543],[10.4,3612],[10.4,3684],[10.4,3752],[10.4,3823],[10.4,3893],[10.4,3964],[10.4,4025],[10.4,4099],[10.4,4162],[10.4,4237],[10.4,4307],[10.4,4378],[10.4,4451],[10.4,4526],[10.4,4601],[10.4,4671],[10.4,4746],[10.4,4816],[10.4,4895],[10.4,4961],[10.4,5022],[10.4,5080],[10.4,5151],[10.4,5217],[10.4,5289],[10.4,5361],[10.4,5437],[10.4,5506],[10.4,5573],[10.4,5641],[10.4,5710],[10.4,5794],[10.4,5866],[10.4,5942],[10.4,6016],[10.4,6092],[10.4,6158],[10.4,6222],[10.4,6288],[10.3,6365],[10.2,6440],[10.1,6509],[10.1,6579],[10.1,6649],[10.1,6720],[10.1,6791],[10.1,6867],[10.1,6935],[10.1,7004],[10.1,7084],[10.1,7157],[10.1,7231],[10.1,7308],[10.1,7385],[10.1,7457],[10.1,7529],[10.1,7594],[9.3,7662],[9.1,7731],[8.4,7799],[7.6,7880],[7.3,7944],[7,8021],[6.6,8092],[6.3,8174],[6,8251],[5.9,8316],[5.3,8387],[4.4,8457],[3.2,9249],[3.3,9322],[3.3,9392],[3,9462],[2.5,9532],[2.1,9598],[2.1,9671],[2.1,9737],[2.1,9809],[2.1,9876],[2.1,9952],[2.1,10024],[2.1,10104]]",1,0,808.6766,811.3099,0,1.2138,"[{""rating"":1.4478071731723163,""responseTime"":0.8207000000029439},{""rating"":0,""responseTime"":1.2138000000119291}]",space,1.9673,,811.3099,Partially,50,811.3108,,,[],,0,9,9,9,1,audio/Narrative7Situation9.wav,audio/Narrative8Situation9.wav,audio/Narrative5Situation9.wav,audio/Narrative6Situation9.wav,2,3,3,4,,,,,,,,,,,,,,,,,,,,,,,,,,,,,,,,,,,,,,,
,,,,,,5885f97f41da4500014d3645,2024-02-08_15h01.54.166,group3.1-3.2-social-tom,2023.2.2,Win32,14.4092219,65c5074098b851296ff0b7ed,65c54139fad0c82b865c2a24,,,,,,,,,,,,,,,,,,,,,,,,,,,,,811.3109,2,audio/Narrative5Situation1.wav,816.3704,,816.3704,829.8263,"[[999,4],[999,70],[999,148],[999,216],[999,292],[999,358],[999,427],[999,502],[999,567],[999,634],[999,707],[999,782],[999,854],[999,930],[999,1004],[999,1079],[999,1152],[999,1220],[999,1288],[999,1355],[999,1437],[999,1509],[999,1576],[999,1645],[999,1713],[999,1792],[999,1868],[999,1939],[999,2019],[999,2090],[999,2167],[999,2258],[999,2335],[999,2413],[999,2487],[999,2572],[999,2637],[999,2708],[999,2776],[999,2846],[999,2916],[999,2988],[999,3062],[999,3135],[999,3218],[999,3288],[999,3364],[999,3432],[999,3512],[999,3587],[999,3661],[999,3748],[999,3821],[999,3894],[999,3975],[999,4047],[999,4125],[999,4192],[999,4259],[999,4328],[999,4398],[999,4471],[999,4540],[999,4611],[999,4683],[999,4753],[999,4831],[999,4900],[999,4976],[999,5043],[999,5131],[999,5207],[999,5288],[999,5367],[999,5441],[999,5519],[999,5595],[999,5664],[999,5733],[999,5802],[999,5883],[999,5951],[999,6019],[999,6087],[999,6164],[999,6233],[999,6313],[999,6377],[999,6458],[999,6529],[999,6601],[999,6672],[999,6749],[999,6825],[999,6901],[999,6973],[999,7056],[999,7128],[999,7199],[999,7279],[999,7342],[999,7424],[999,7496],[999,7580],[999,7660],[999,7733],[999,7798],[999,7867],[999,7945],[999,8016],[999,8092],[999,8167],[999,8245],[999,8329],[999,8409],[999,8480],[999,8558],[999,8639],[999,8715],[999,8788],[999,8858],[999,8935],[999,9007],[999,9084],[999,9152],[999,9221],[999,9292],[999,9373],[999,9444],[999,9521],[999,9603],[999,9696],[999,9769],[999,9851],[999,9927],[999,10001],[999,10070],[999,10142],[999,10208],[999,10281],[999,10356],[999,10432],[999,10504],[999,10570],[999,10645],[999,10717],[999,10792],[999,10866],[999,10952],[999,11028],[999,11096],[999,11169],[999,11235],[999,11306],[999,11373],[999,11453],[999,11524],[999,11599],[999,11674],[999,11738],[999,11811],[999,11874],[999,11952],[999,12021],[999,12094],[999,12166],[999,12235],[999,12310],[999,12384],[999,12463],[999,12534],[999,12603],[999,12679],[999,12746],[999,12823],[999,12891],[999,12964],[999,13033],[999,13104],[999,13170],[999,13236],[999,13310],[999,13380],[34.7,13455]]",1,0,829.8264,832.1549,33.41432967,0.697,"[{""rating"":33.414329672944966,""responseTime"":0.6970000000000027}]",space,1.6244,,832.1549,Definitely yes,100,832.1563,,,[],,0,10,10,10,1,audio/Narrative8Situation1.wav,audio/Narrative7Situation1.wav,audio/Narrative6Situation1.wav,audio/Narrative5Situation1.wav,5,2,2,5,,,,,,,,,,,,,,,,,,,,,,,,,,,,,,,,,,,,,,,
