exp_question,consent.started,consent.stopped,consentResponse.keys,consentResponse.rt,consentResponse.duration,participantID,date,expName,psychopyVersion,OS,frameRate,STUDY_ID,SESSION_ID,opening1.started,opening1.stopped,keyEndingOpening1.keys,keyEndingOpening1.rt,keyEndingOpening1.duration,volumeAdjust.started,volumeAdjust.stopped,endingAdjust.keys,endingAdjust.rt,endingAdjust.duration,opening2.started,opening2.stopped,keyEndingOpening.keys,keyEndingOpening.rt,keyEndingOpening.duration,mouse.x,mouse.y,mouse.leftButton,mouse.midButton,mouse.rightButton,mouse.time,instructionLoop.thisRepN,instructionLoop.thisTrialN,instructionLoop.thisN,instructionLoop.thisIndex,instructionLoop.ran,readyForAudio.started,readyForAudio.stopped,fixation.started,run,audio_played,fixation.stopped,endPractice.keys,audioPre.started,audioPre.stopped,continuousResponses_audio,continuousSlider.response,continuousSlider.rt,intRating.started,intRating.stopped,intQuestionSlider.response,intQuestionSlider.rt,intQuestionSlider.history,confirmResponse.keys,confirmResponse.rt,confirmResponse.duration,catchQuestion.started,catch_label,catch_value,catchQuestion.stopped,catchQuestionSlider.response,catchQuestionSlider.rt,catchQuestionSlider.history,confirmResponse_2.keys,audioRunLoop.thisRepN,audioRunLoop.thisTrialN,audioRunLoop.thisN,audioRunLoop.thisIndex,audioRunLoop.ran,conditions1_1,conditions2_1,conditions1_2,conditions2_2,dur1_1,dur2_1,dur1_2,dur2_2,endPractice.rt,endPractice.duration,confirmResponse_2.rt,confirmResponse_2.duration,runIntervalBreak.started,runIntervalBreak.stopped,endingBreakKey.keys,endingBreakKey.rt,endingBreakKey.duration,connection.started,connection.stopped,connectionEnding.keys,connectionEnding.rt,connectionEnding.duration,readyForText.started,readyForText.stopped,textPre.started,run_dup,textPre.stopped,continuousResponses_text,textRunLoop.thisRepN,textRunLoop.thisTrialN,textRunLoop.thisN,textRunLoop.thisIndex,textRunLoop.ran,text1_1,text1_2,text2_1,text2_2,runBreakText.started,runBreakText.stopped,endingBreakKey_2.keys,endingBreakKey_2.rt,endingBreakKey_2.duration,ending.started,ending.stopped,endingEnding.keys,endingEnding.rt,endingEnding.duration
social,0,24.367,y,24.055,,58a5d6527cf56d0001f92567,2024-02-08_16h10.46.518,group3.1-3.2-social-tom,2023.2.2,Win32,60.0240096,65c5074098b851296ff0b7ed,65c54335959171a351c7c19e,,,,,,,,,,,,,,,,,,,,,,,,,,,,,,,,,,,,,,,,,,,,,,,,,,,,,,,,,,,,,,,,,,,,,,,,,,,,,,,,,,,,,,,,,,,,,,,,,,,,,,,,,,
,,,,,,58a5d6527cf56d0001f92567,2024-02-08_16h10.46.518,group3.1-3.2-social-tom,2023.2.2,Win32,60.0240096,65c5074098b851296ff0b7ed,65c54335959171a351c7c19e,24.367,35.853,space,11.46,,,,,,,,,,,,,,,,,,,,,,,,,,,,,,,,,,,,,,,,,,,,,,,,,,,,,,,,,,,,,,,,,,,,,,,,,,,,,,,,,,,,,,,,,,,,,,,,,,,,,,
,,,,,,58a5d6527cf56d0001f92567,2024-02-08_16h10.46.518,group3.1-3.2-social-tom,2023.2.2,Win32,60.0240096,65c5074098b851296ff0b7ed,65c54335959171a351c7c19e,,,,,,35.853,56.327,space,20.141,,,,,,,,,,,,,,,,,,,,,,,,,,,,,,,,,,,,,,,,,,,,,,,,,,,,,,,,,,,,,,,,,,,,,,,,,,,,,,,,,,,,,,,,,,,,,,,,,
,,,,,,58a5d6527cf56d0001f92567,2024-02-08_16h10.46.518,group3.1-3.2-social-tom,2023.2.2,Win32,60.0240096,65c5074098b851296ff0b7ed,65c54335959171a351c7c19e,,,,,,,,,,,56.331,78.535,space,22.188,,[],[],[],[],[],[],0,0,0,0,1,,,,,,,,,,,,,,,,,,,,,,,,,,,,,,,,,,,,,,,,,,,,,,,,,,,,,,,,,,,,,,,,,,,,,,,,,,,,,,,,
,,,,,,58a5d6527cf56d0001f92567,2024-02-08_16h10.46.518,group3.1-3.2-social-tom,2023.2.2,Win32,60.0240096,65c5074098b851296ff0b7ed,65c54335959171a351c7c19e,,,,,,,,,,,78.536,155.545,space,76.936,,[],[],[],[],[],[],1,0,1,0,1,,,,,,,,,,,,,,,,,,,,,,,,,,,,,,,,,,,,,,,,,,,,,,,,,,,,,,,,,,,,,,,,,,,,,,,,,,,,,,,,
,,,,,,58a5d6527cf56d0001f92567,2024-02-08_16h10.46.518,group3.1-3.2-social-tom,2023.2.2,Win32,60.0240096,65c5074098b851296ff0b7ed,65c54335959171a351c7c19e,,,,,,,,,,,155.547,180.755,space,25.167,,[],[],[],[],[],[],2,0,2,0,1,,,,,,,,,,,,,,,,,,,,,,,,,,,,,,,,,,,,,,,,,,,,,,,,,,,,,,,,,,,,,,,,,,,,,,,,,,,,,,,,
,,,,,,58a5d6527cf56d0001f92567,2024-02-08_16h10.46.518,group3.1-3.2-social-tom,2023.2.2,Win32,60.0240096,65c5074098b851296ff0b7ed,65c54335959171a351c7c19e,,,,,,,,,,,180.756,220.669,space,39.881,,[],[],[],[],[],[],3,0,3,0,1,,,,,,,,,,,,,,,,,,,,,,,,,,,,,,,,,,,,,,,,,,,,,,,,,,,,,,,,,,,,,,,,,,,,,,,,,,,,,,,,
,,,,,,58a5d6527cf56d0001f92567,2024-02-08_16h10.46.518,group3.1-3.2-social-tom,2023.2.2,Win32,60.0240096,65c5074098b851296ff0b7ed,65c54335959171a351c7c19e,,,,,,,,,,,220.67,247.112,space,26.419,,[],[],[],[],[],[],4,0,4,0,1,,,,,,,,,,,,,,,,,,,,,,,,,,,,,,,,,,,,,,,,,,,,,,,,,,,,,,,,,,,,,,,,,,,,,,,,,,,,,,,,
,,,,,,58a5d6527cf56d0001f92567,2024-02-08_16h10.46.518,group3.1-3.2-social-tom,2023.2.2,Win32,60.0240096,65c5074098b851296ff0b7ed,65c54335959171a351c7c19e,,,,,,,,,,,,,,,,,,,,,,,,,,,247.113,249.696,249.705,1,audio/Narrative13Situation2.wav,251.713,,251.713,281.457,"[[999,0],[999,82],[999,166],[999,250],[999,334],[999,416],[999,500],[999,584],[999,666],[999,750],[31.2,834],[40.9,918],[44.5,1000],[44.5,1082],[44.4,1166],[44.2,1250],[44.2,1334],[43.8,1416],[42.7,1500],[38.8,1584],[33,1666],[28.1,1750],[22.3,1834],[17.2,1916],[12.6,2000],[8.2,2084],[5.2,2168],[4.9,2250],[4.9,2334],[4.9,2418],[5.5,2500],[6.6,2584],[7.1,2668],[7.4,2750],[7.5,2834],[7.6,2916],[7.7,3000],[8,3084],[8.1,3168],[8.1,3250],[8.1,3334],[8.1,3418],[8.2,3500],[8.4,3584],[8.4,3668],[8.4,3750],[8.4,3834],[8.4,3918],[8.4,4002],[7.1,4084],[5.6,4168],[4.8,4252],[4.4,4334],[3.4,4418],[3.1,4502],[3,4584],[2.9,4668],[2.7,4752],[2.4,4834],[2.2,4918],[1.9,5002],[1.8,5084],[1.8,5168],[1.8,5252],[1.8,5334],[1.8,5418],[1.8,5502],[1.8,5584],[1.8,5668],[1.8,5752],[1.8,5834],[1.8,5918],[1.8,6002],[1.9,6084],[1.9,6168],[1.9,6252],[1.9,6336],[1.9,6418],[1.9,6502],[1.9,6586],[1.9,6668],[1.9,6752],[1.9,6836],[1.9,6918],[2,7002],[2,7086],[2.1,7169],[2.2,7252],[2.3,7336],[2.3,7418],[2.3,7502],[2.3,7586],[2.4,7668],[2.7,7752],[2.8,7836],[3,7919],[3.3,8002],[3.6,8086],[4.5,8169],[8.4,8252],[17.3,8336],[29.5,8419],[42.2,8502],[52.2,8586],[57.7,8669],[64.9,8752],[65.9,8836],[65.9,8919],[66.6,9003],[68.3,9086],[69.8,9169],[69.8,9252],[69.8,9336],[70.9,9419],[73.9,9503],[78.9,9586],[81.1,9669],[81.1,9753],[81.1,9836],[81.4,9920],[81.7,10003],[82.3,10086],[82.3,10169],[82.3,10253],[82.3,10336],[82.3,10419],[82.3,10502],[82.3,10586],[82.3,10670],[84.4,10753],[85.9,10836],[87.4,10920],[87.7,11003],[87.8,11087],[87.8,11170],[87.8,11253],[87.8,11337],[87.8,11419],[87.6,11503],[87,11587],[85.9,11670],[84.9,11754],[84.9,11837],[84.8,11920],[84.8,12003],[84.8,12087],[84.7,12171],[84.7,12253],[84.5,12336],[84.1,12420],[83.8,12503],[83.8,12586],[83.8,12670],[83.8,12754],[83.8,12837],[83.8,12921],[84.2,13004],[85.3,13087],[85.3,13171],[85.3,13253],[85.3,13337],[84.5,13421],[83.5,13504],[82.5,13587],[81.8,13671],[81.4,13754],[81.2,13837],[80.9,13921],[80.3,14004],[79.3,14088],[78.1,14171],[76.8,14254],[76.1,14337],[75.7,14421],[75.5,14504],[75.5,14588],[75.5,14671],[75.5,14754],[75.5,14837],[75.5,14921],[75.5,15005],[75.5,15088],[75.5,15171],[75.5,15254],[75.5,15338],[75.5,15421],[75.5,15505],[75.5,15588],[75.4,15671],[74.7,15754],[73,15838],[70.2,15923],[67,16005],[64.8,16088],[61.6,16171],[60,16255],[58,16339],[56.5,16423],[53.8,16507],[51.2,16589],[49.7,16673],[48.2,16757],[46.8,16839],[45.4,16923],[43.4,17005],[41.4,17089],[40,17173],[38,17257],[36.2,17339],[34.5,17423],[33.6,17505],[33.1,17589],[32.4,17673],[31.4,17755],[29.9,17839],[28.2,17923],[26.2,18005],[24.1,18089],[22.3,18173],[21.3,18257],[20.2,18341],[19.2,18423],[18.4,18505],[17.7,18591],[17.6,18673],[17.4,18757],[17.3,18839],[17.3,18923],[17.3,19007],[17.3,19091],[17.3,19173],[16.6,19257],[16,19339],[15.6,19423],[15.2,19507],[14.8,19589],[14.5,19673],[14.5,19757],[14.5,19839],[14.5,19923],[14.5,20007],[14.5,20091],[14.5,20173],[14.5,20257],[14.5,20339],[14.5,20423],[14.5,20507],[13.4,20591],[13.1,20675],[12.6,20757],[12.3,20841],[12.2,20923],[12.2,21007],[12.2,21091],[12.2,21173],[12.2,21257],[12.2,21341],[12.2,21423],[12.2,21507],[12.2,21591],[12.2,21673],[12.2,21757],[12.2,21841],[12.2,21925],[12.2,22007],[12.2,22091],[12.2,22175],[12.2,22257],[12.2,22341],[12.2,22425],[12.2,22507],[12.2,22591],[12.2,22675],[12.2,22757],[12.2,22841],[12.2,22925],[12.2,23008],[12.2,23091],[12.2,23175],[12.2,23258],[12.2,23341],[12.2,23425],[12.2,23507],[12.2,23591],[12.2,23675],[12.2,23758],[12.2,23841],[12.2,23925],[12.2,24007],[12.2,24091],[12.2,24175],[12.2,24258],[12.2,24341],[12.2,24425],[12.2,24508],[12.2,24591],[12.2,24675],[12.2,24758],[12.2,24841],[12.2,24925],[12.2,25008],[12.2,25092],[12.2,25175],[12.2,25258],[12.2,25341],[12.2,25425],[12.2,25508],[12.2,25592],[12.2,25675],[12.2,25758],[12.2,25841],[12.2,25925],[12.2,26008],[12.2,26092],[12.2,26175],[12.2,26259],[12.2,26342],[12.2,26425],[12.2,26508],[12.2,26592],[12.2,26675],[12.2,26758],[12.2,26842],[12.2,26925],[12.2,27008],[12.2,27092],[12,27176],[12,27258],[11.9,27342],[11.8,27425],[11.8,27509],[11.2,27593],[10.7,27675],[10.3,27759],[10.2,27843],[10.2,27925],[10.2,28009],[10.2,28093],[10.2,28175],[10.2,28259],[10.2,28342],[10.2,28426],[10.2,28509],[10.2,28592],[10.2,28676],[10.2,28759],[10.2,28842],[10.2,28926],[10.2,29009],[10.2,29092],[10.2,29176],[10.2,29260],[10.2,29343],[10.2,29426],[10.2,29509],[10.2,29593],[10.2,29677]]",1,0,281.458,306.366,2.1875,15.347,"[{""rating"":9.531250000000002,""responseTime"":11.508999999999958},{""rating"":2.187499999999998,""responseTime"":15.34699999999998}]",space,24.369,,306.366,Definitely yes,100,306.372,,,[],,0,0,0,0,1,audio/Narrative13Situation2.wav,audio/Narrative13Situation2.wav,audio/Narrative13Situation2.wav,audio/Narrative13Situation2.wav,2,2,2,2,,,,,,,,,,,,,,,,,,,,,,,,,,,,,,,,,,,,,,,
,,,,,,58a5d6527cf56d0001f92567,2024-02-08_16h10.46.518,group3.1-3.2-social-tom,2023.2.2,Win32,60.0240096,65c5074098b851296ff0b7ed,65c54335959171a351c7c19e,,,,,,,,,,,,,,,,,,,,,,,,,,,,,306.373,1,audio/Narrative8Situation1.wav,310.034,space,310.034,325.956,"[[999,1],[999,84],[999,167],[999,250],[999,334],[999,417],[999,500],[999,583],[999,667],[999,750],[999,833],[999,917],[18,1000],[11.3,1084],[7.7,1167],[6.5,1250],[6,1334],[5.5,1417],[5.5,1500],[4.5,1584],[3,1667],[3,1750],[3,1834],[3,1917],[3,2000],[3,2083],[3,2167],[3,2250],[3,2334],[3,2417],[3,2500],[3,2584],[3,2667],[3,2751],[3,2834],[3,2918],[3,3001],[3,3084],[3,3167],[3,3251],[3,3335],[3,3417],[3,3501],[3,3584],[3,3667],[3,3751],[3,3834],[3,3917],[3,4001],[4.1,4084],[4.8,4168],[5.9,4251],[6.8,4334],[7.2,4418],[7.2,4502],[7.2,4585],[7,4669],[6.6,4751],[6.4,4835],[6.1,4919],[6,5001],[6,5085],[6,5168],[6,5251],[6,5335],[6,5418],[6,5502],[6,5585],[6,5668],[6,5752],[6,5835],[6,5919],[6,6002],[6,6085],[6,6169],[6,6252],[6,6335],[6,6419],[6,6502],[6,6586],[6,6669],[6,6752],[5.9,6836],[4.9,6919],[4.8,7002],[4.6,7086],[4.6,7169],[4.6,7253],[4.6,7336],[4.6,7419],[4.6,7502],[4.6,7586],[4.6,7669],[4.6,7753],[4.6,7836],[4.6,7919],[4.6,8003],[4.6,8086],[4.6,8169],[4.6,8253],[4.6,8336],[4.6,8419],[4.6,8502],[4.6,8586],[4.6,8670],[4.6,8753],[4.6,8836],[4.6,8920],[4.6,9003],[4.6,9086],[4.6,9170],[4.6,9253],[4.6,9336],[4.6,9419],[4.6,9503],[4.6,9586],[4.6,9670],[4.6,9753],[4.9,9836],[12.7,9920],[17.3,10004],[25.2,10086],[28.7,10170],[41.9,10253],[53.5,10336],[62.9,10420],[69.3,10504],[88.4,10836],[89.1,10920],[89.1,11004],[89.1,11086],[89.1,11170],[88.9,11254],[88.5,11336],[87.5,11420],[87.3,11504],[87.3,11586],[86.7,11670],[85.9,11754],[85.2,11838],[84.1,11920],[83.8,12004],[83.2,12086],[82.7,12170],[82.7,12254],[82.7,12338],[81.5,12420],[79.1,12504],[77,12586],[74.2,12670],[72.5,12754],[71.6,12838],[70.9,12920],[70.5,13004],[69.9,13088],[69.1,13170],[65.5,14088],[66.9,14170],[66.9,14254],[66.9,14338],[66.4,14422],[64.5,14504],[63.3,14588],[62.4,14672],[61.4,14756],[60.9,14838],[60.3,14922],[59.7,15006],[59,15088],[58.2,15172],[56.5,15254],[53.7,15338],[51.3,15422],[48.9,15506],[46.4,15588],[44.5,15672],[43,15756],[41.6,15838],[40.7,15922]]",1,0,325.956,335.777,84.21875,6.713,"[{""rating"":84.21875,""responseTime"":6.712999999999965}]",space,9.287,,335.777,Not at all,0,335.783,,,[],,0,1,1,1,1,audio/Narrative7Situation1.wav,audio/Narrative8Situation1.wav,audio/Narrative5Situation1.wav,audio/Narrative6Situation1.wav,2,5,5,2,3.645,,,,,,,,,,,,,,,,,,,,,,,,,,,,,,,,,,,,,,
,,,,,,58a5d6527cf56d0001f92567,2024-02-08_16h10.46.518,group3.1-3.2-social-tom,2023.2.2,Win32,60.0240096,65c5074098b851296ff0b7ed,65c54335959171a351c7c19e,,,,,,,,,,,,,,,,,,,,,,,,,,,,,335.783,1,audio/Narrative8Situation2.wav,338.794,,338.794,348.898,"[[999,1],[999,84],[999,165],[999,250],[999,333],[999,415],[999,500],[999,584],[5.5,667],[5.1,751],[4.5,834],[4.1,917],[4.1,1000],[4.1,1084],[4.1,1167],[4.1,1251],[4.1,1334],[4.1,1417],[4.1,1500],[4.1,1584],[4.1,1667],[4.1,1751],[4.1,1834],[4.1,1917],[4.1,2000],[4.1,2084],[4.1,2167],[4.1,2251],[4.1,2334],[4.1,2418],[4.1,2501],[4.1,2584],[4.1,2667],[4.1,2751],[4.1,2834],[4.1,2918],[4.1,3001],[4.1,3084],[4.1,3168],[4.1,3251],[4.5,3335],[5.2,3419],[5.5,3501],[5.5,3584],[5.5,3668],[5.5,3751],[5.5,3835],[5.5,3918],[5.5,4001],[5.5,4085],[5.5,4168],[5.5,4252],[5.5,4335],[5.5,4418],[5.5,4501],[5.5,4585],[5.5,4668],[5.5,4752],[5.5,4835],[5.5,4918],[5.5,5002],[5.5,5086],[5.5,5169],[5.5,5252],[5.5,5335],[5.5,5418],[5.5,5502],[5.5,5585],[5.5,5669],[5.5,5752],[5.5,5835],[5.5,5918],[5.5,6002],[5.5,6086],[5.5,6169],[5.5,6253],[5.5,6336],[5.5,6419],[5.5,6503],[5.5,6586],[5.5,6669],[5.5,6753],[5.5,6836],[5.5,6919],[5.5,7002],[5.5,7086],[5.5,7169],[5.5,7253],[5.5,7336],[5.5,7420],[5.5,7502],[5.5,7587],[5.5,7670],[5.5,7753],[5.5,7837],[5.5,7919],[5.5,8003],[5.5,8086],[5.5,8169],[5.5,8253],[5.5,8337],[5.5,8419],[5.5,8503],[5.5,8587],[5.5,8670],[5.5,8753],[5.5,8837],[5.5,8920],[5.5,9003],[5.5,9086],[5.5,9170],[5.5,9254],[5.5,9336],[5.5,9420],[5.5,9504],[5.5,9587],[5.5,9670],[5.5,9753],[5.5,9837],[5.5,9920],[5.5,10003],[5.5,10087]]",1,0,348.898,352.365,0.9375,1.615,"[{""rating"":0.9375000000000022,""responseTime"":1.615000000000009}]",space,2.937,,352.365,Not at all,0,352.367,,,[],,0,2,2,2,1,audio/Narrative7Situation2.wav,audio/Narrative8Situation2.wav,audio/Narrative5Situation2.wav,audio/Narrative6Situation2.wav,3,3,3,3,,,,,,,,,,,,,,,,,,,,,,,,,,,,,,,,,,,,,,,
,,,,,,58a5d6527cf56d0001f92567,2024-02-08_16h10.46.518,group3.1-3.2-social-tom,2023.2.2,Win32,60.0240096,65c5074098b851296ff0b7ed,65c54335959171a351c7c19e,,,,,,,,,,,,,,,,,,,,,,,,,,,,,352.367,1,audio/Narrative8Situation3.wav,356.367,,356.367,378.758,"[[9.1,500],[8,582],[6.5,666],[5.5,750],[4.5,834],[3.8,916],[3.8,1000],[3.8,1082],[3.8,1166],[3.8,1250],[3.8,1334],[3.8,1416],[3.8,1500],[3.8,1584],[3.8,1666],[3.8,1750],[3.8,1834],[3.8,1916],[3.8,2000],[3.8,2084],[3.8,2168],[3.8,2250],[3.8,2334],[3.8,2418],[3.8,2500],[3.8,2584],[3.8,2666],[3.8,2750],[3.8,2834],[3.8,2918],[3.8,3000],[3.8,3084],[3.8,3168],[3.8,3250],[3.8,3334],[3.8,3418],[3.8,3500],[3.8,3584],[3.8,3668],[3.8,3750],[4.8,3834],[8,3918],[11.2,4002],[15.5,4084],[20.5,4168],[25.4,4252],[29.4,4334],[33,4418],[37,4502],[39.2,4584],[40.5,4668],[40.8,4752],[41.6,4834],[43.7,4918],[45.4,5002],[47.3,5086],[48.9,5168],[49.8,5252],[50.3,5334],[50.3,5418],[50.3,5502],[50.3,5584],[50.3,5668],[50.3,5752],[50.5,5834],[51.7,5918],[52.4,6002],[54.1,6084],[56.2,6168],[57.7,6252],[59.3,6336],[59.3,6418],[59.3,6502],[59.3,6586],[59.3,6668],[59.8,6752],[61.2,6836],[61.6,6918],[62.4,7002],[62.8,7086],[62.9,7168],[62.9,7252],[62.9,7336],[61.8,7418],[61.5,7502],[61.5,7586],[61.6,7668],[62,7752],[63,7836],[64.1,7918],[66.3,8002],[67.4,8086],[69.5,8170],[71.2,8252],[73.4,8336],[75.7,8420],[78.4,8502],[81,8586],[82.2,8670],[82.8,8753],[83.1,8836],[83.2,8920],[83.2,9002],[83.4,9086],[84.7,9170],[86.5,9252],[89.1,9336],[90.8,9420],[91.5,9502],[92.1,9586],[92.9,9670],[93.3,9752],[93.7,9836],[94.1,9920],[94.5,10002],[94.8,10086],[94.9,10170],[94.9,10252],[94.9,10336],[94.9,10420],[94.7,10503],[94.3,10586],[93.4,10670],[92.7,10753],[92.5,10837],[92.5,10920],[92.5,11003],[92.7,11087],[93.7,11170],[94,11253],[94.4,11337],[94.5,11420],[94.5,11503],[94.5,11586],[94.5,11670],[94.5,11754],[93.9,11836],[93.2,11920],[93,12004],[92.7,12087],[92.3,12170],[92.3,12254],[91.7,12337],[91.5,12420],[90.7,12503],[90.5,12587],[90.1,12671],[89.6,12754],[88.8,12837],[88,12920],[85.9,13004],[85.2,13087],[84.8,13171],[84.8,13254],[84.8,13337],[86.4,13420],[86.6,13504],[87.2,13587],[87.2,13670],[87.5,13754],[87.7,13837],[87.7,13921],[87.7,14004],[87.7,14087],[87.7,14171],[87.7,14254],[87.7,14338],[87.7,14421],[87.7,14505],[87.5,14588],[87.5,14671],[87.5,14754],[87.5,14838],[87.5,14921],[87.5,15004],[87.5,15088],[87.7,15171],[91.7,15255],[92.9,15338],[92.9,15421],[93.2,15505],[94.4,15588],[95.6,15673],[95.8,15755],[95.8,15837],[95.8,15921],[95.8,16005],[95.8,16088],[95.8,16171],[95.8,16255],[94.8,16339],[94.3,16423],[93.4,16505],[92.4,16589],[90,16673],[88.2,16755],[86.8,16839],[85.8,16923],[83.8,17005],[82.9,17089],[82.7,17173],[81.6,17255],[80.8,17339],[80.6,17421],[80.6,17505],[80.6,17589],[79.9,17673],[78.5,17755],[78,17839],[77.4,17923],[76.7,18005],[75.9,18089],[75.5,18173],[75.2,18257],[75.1,18339],[74.9,18423],[74.9,18505],[74.9,18589],[74.9,18673],[75,18755],[78,18839],[81.6,18923],[83.8,19005],[84.9,19091],[85.3,19173],[85.3,19257],[85.3,19339],[85.3,19423],[85.3,19507],[85.3,19591],[85.3,19673],[85.3,19757],[85.3,19839],[85.3,19923],[85.3,20007],[85.2,20091],[84.5,20173],[84,20257],[83.7,20339],[83.5,20423],[83,20507],[82.7,20591],[82.1,20673],[81.6,20757],[81.6,20839],[81.6,20923],[81.6,21007],[81.6,21091],[81.6,21173],[81.6,21257],[81.6,21341],[81.6,21425],[81.6,21507],[81.6,21591],[81.6,21673],[81.6,21757],[81.6,21841],[81.6,21925],[81.6,22007],[81.6,22091],[81.6,22173],[81.6,22257],[81.6,22341]]",1,0,378.758,385.228,93.28125,4.408,"[{""rating"":86.25,""responseTime"":2.2239999999999895},{""rating"":93.28125,""responseTime"":4.4080000000000155}]",space,5.935,,385.228,Definitely yes,100,385.232,,,[],,0,3,3,3,1,audio/Narrative7Situation3.wav,audio/Narrative8Situation3.wav,audio/Narrative5Situation3.wav,audio/Narrative6Situation3.wav,8,4,3,5,,,,,,,,,,,,,,,,,,,,,,,,,,,,,,,,,,,,,,,
,,,,,,58a5d6527cf56d0001f92567,2024-02-08_16h10.46.518,group3.1-3.2-social-tom,2023.2.2,Win32,60.0240096,65c5074098b851296ff0b7ed,65c54335959171a351c7c19e,,,,,,,,,,,,,,,,,,,,,,,,,,,,,385.232,1,audio/Narrative8Situation4.wav,388.245,,388.245,402.417,"[[999,0],[999,84],[999,167],[999,250],[999,333],[999,417],[999,500],[3,584],[2.3,667],[2.3,750],[2.3,834],[2.3,917],[2.5,1000],[5.1,1084],[6.5,1167],[6.5,1250],[6.5,1334],[6.6,1417],[6.6,1500],[6.6,1584],[6.6,1667],[6.6,1750],[6.6,1834],[6.6,1918],[6.6,2000],[6.6,2084],[6.6,2167],[6.6,2250],[6.6,2334],[6.6,2418],[6.6,2500],[6.6,2584],[6.6,2668],[6.6,2750],[6.6,2834],[6.6,2917],[6.6,3000],[6.6,3084],[6.6,3168],[6.6,3250],[6.6,3334],[6.6,3417],[6.6,3500],[6.6,3584],[6.6,3668],[6.6,3750],[6.6,3834],[6.6,3918],[6.6,4002],[6.6,4084],[6.6,4168],[6.6,4250],[6.6,4334],[6.6,4418],[6.6,4500],[6.6,4584],[6.6,4668],[10.2,4752],[58.6,4918],[67.7,5002],[71.8,5086],[72.6,5168],[72.6,5252],[72.6,5334],[72.6,5418],[72.6,5502],[72.6,5584],[72.6,5668],[72.6,5752],[72.6,5836],[73.1,5918],[73.1,6002],[73.1,6084],[73.1,6168],[73.1,6252],[73.1,6334],[73.1,6418],[73.1,6502],[73.1,6586],[73.1,6668],[73.3,6752],[75.4,6836],[79.9,6920],[85.5,7002],[87.1,7086],[88.2,7168],[89.2,7252],[89.8,7336],[89.8,7418],[89.8,7502],[89.8,7586],[89.8,7668],[89.8,7752],[89.8,7836],[89.8,7920],[89.8,8002],[89.8,8086],[89.8,8168],[89.8,8252],[89.8,8336],[89.8,8420],[89.8,8502],[89.8,8586],[89.8,8668],[89.8,8752],[89.8,8836],[89.8,8920],[89.8,9002],[90.2,9086],[92,9170],[93.2,9254],[94.7,9336],[95.6,9420],[95.7,9502],[96.6,9586],[97.7,9670],[98.8,9754],[98.8,9836],[98.8,9920],[98.8,10004],[98.8,10086],[98.8,10170],[98.8,10254],[98.8,10336],[98.8,10420],[98.8,10504],[98.8,10586],[98.8,10670],[98.8,10754],[98.8,10836],[98.8,10920],[98.8,11004],[98.8,11088],[98.8,11170],[98.8,11254],[98.8,11338],[98.8,11420],[98.8,11504],[98.8,11586],[98.8,11670],[98.8,11754],[98.8,11836],[98.8,11920],[98.8,12004],[98.8,12086],[98.8,12170],[98.8,12254],[98.8,12338],[98.8,12422],[98.8,12504],[98.8,12588],[98.8,12672],[98.8,12754],[98.8,12838],[98.8,12920],[98.8,13004],[98.8,13088],[98.8,13170],[98.8,13254],[98.8,13338],[98.8,13420],[98.8,13504],[98.8,13588],[98.8,13670],[98.8,13754],[98.8,13838],[98.8,13920],[98.8,14004],[98.8,14088],[98.8,14172]]",1,0,402.418,405.468,98.984375,0.922,"[{""rating"":98.984375,""responseTime"":0.9220000000000255}]",space,2.501,,405.468,Definitely yes,100,405.472,,,[],,0,4,4,4,1,audio/Narrative7Situation4.wav,audio/Narrative8Situation4.wav,audio/Narrative5Situation4.wav,audio/Narrative6Situation4.wav,3,3,1,2,,,,,,,,,,,,,,,,,,,,,,,,,,,,,,,,,,,,,,,
,,,,,,58a5d6527cf56d0001f92567,2024-02-08_16h10.46.518,group3.1-3.2-social-tom,2023.2.2,Win32,60.0240096,65c5074098b851296ff0b7ed,65c54335959171a351c7c19e,,,,,,,,,,,,,,,,,,,,,,,,,,,,,405.472,1,audio/Narrative8Situation5.wav,407.485,,407.485,415.739,"[[999,0],[999,84],[999,166],[999,250],[999,334],[999,416],[999,500],[999,584],[999,668],[999,750],[999,834],[999,918],[999,1000],[999,1084],[18.4,1168],[14.6,1250],[13.2,1334],[16.8,1416],[37.7,1500],[61.3,1584],[73.9,1666],[80.6,1750],[88.3,1834],[92.1,1918],[95.4,2000],[96.3,2084],[97.5,2166],[97.5,2250],[97.5,2334],[97.5,2418],[97.5,2502],[97.5,2584],[97.5,2668],[97.5,2752],[97.5,2834],[97.5,2918],[97.5,3002],[97.5,3084],[97.5,3168],[97.5,3250],[97.5,3334],[97.5,3418],[97.5,3502],[97.5,3584],[97.5,3668],[97.5,3752],[97.5,3834],[97.5,3918],[97.5,4000],[97.5,4084],[97.5,4168],[97.5,4252],[97.5,4336],[97.5,4418],[97.5,4502],[97.5,4586],[97.5,4668],[97.5,4750],[97.5,4834],[97.5,4918],[97.5,5002],[97.5,5084],[97.5,5168],[97.5,5252],[97.5,5334],[97.5,5418],[97.5,5502],[97.5,5584],[97.5,5668],[97.5,5752],[97.5,5834],[97.5,5918],[97.5,6002],[97.5,6084],[97.5,6168],[97.5,6252],[97.5,6336],[97.5,6418],[97.5,6502],[97.5,6586],[97.5,6668],[97.5,6752],[97.5,6836],[97.5,6918],[97.5,7002],[97.4,7086],[97.4,7168],[97.4,7252],[97.4,7336],[95.7,7420],[92.8,7502],[90.5,7586],[88,7670],[85.6,7752],[82,7836],[75.9,7918],[69,8002],[61.4,8086],[54.5,8170],[47.3,8252]]",1,0,415.739,427.476,77.734375,9.914,"[{""rating"":91.5625,""responseTime"":2.155999999999949},{""rating"":77.734375,""responseTime"":9.913999999999987}]",space,11.193,,427.476,Not at all,0,452.918,0,12.692,"[{""rating"":0.23437499999999778,""responseTime"":11.315999999999974},{""rating"":0,""responseTime"":12.69199999999995}]",space,0,5,5,5,1,audio/Narrative7Situation5.wav,audio/Narrative8Situation5.wav,audio/Narrative5Situation5.wav,audio/Narrative6Situation5.wav,5,2,5,2,,,24.911,,,,,,,,,,,,,,,,,,,,,,,,,,,,,,,,,,,,
,,,,,,58a5d6527cf56d0001f92567,2024-02-08_16h10.46.518,group3.1-3.2-social-tom,2023.2.2,Win32,60.0240096,65c5074098b851296ff0b7ed,65c54335959171a351c7c19e,,,,,,,,,,,,,,,,,,,,,,,,,,,,,452.919,1,audio/Narrative8Situation6.wav,454.919,,454.919,461.371,"[[17.3,583],[13,667],[7.9,750],[5.5,834],[4.3,917],[4.3,1000],[4.3,1083],[4.3,1167],[4.3,1250],[4.3,1334],[4.3,1417],[4.3,1500],[4.3,1584],[4.3,1667],[4.3,1750],[4.3,1833],[11.7,1918],[35.7,2000],[64.2,2084],[86.3,2168],[95.4,2251],[98.4,2334],[99,2417],[99,2501],[98.4,2584],[96.5,2667],[96.5,2750],[96.5,2834],[96.7,2918],[97.7,3001],[97.7,3084],[97.7,3168],[97.7,3251],[97.7,3335],[97.7,3417],[97.7,3501],[97.7,3585],[97.7,3668],[97.7,3751],[97.7,3835],[97.7,3917],[97.7,4002],[97.7,4084],[97.7,4168],[97.7,4252],[97.7,4335],[97.7,4418],[97.7,4501],[97.7,4585],[97.7,4668],[97.7,4751],[97.7,4834],[97.7,4918],[97.7,5002],[97.7,5085],[97.7,5168],[97.7,5251],[97.7,5335],[97.1,5419],[96.6,5502],[96.2,5585],[95.9,5669],[95.5,5751],[95.4,5836],[95.2,5919],[94.9,6002],[94.7,6086],[94.4,6169],[94,6252],[93.6,6336],[93.4,6419]]",1,0,461.371,466.023,95.3125,1.674,"[{""rating"":95.3125,""responseTime"":1.674000000000035}]",space,4.128,,466.023,Not at all,0,466.025,,,[],,0,6,6,6,1,audio/Narrative7Situation6.wav,audio/Narrative8Situation6.wav,audio/Narrative5Situation6.wav,audio/Narrative6Situation6.wav,3,2,3,2,,,,,,,,,,,,,,,,,,,,,,,,,,,,,,,,,,,,,,,
,,,,,,58a5d6527cf56d0001f92567,2024-02-08_16h10.46.518,group3.1-3.2-social-tom,2023.2.2,Win32,60.0240096,65c5074098b851296ff0b7ed,65c54335959171a351c7c19e,,,,,,,,,,,,,,,,,,,,,,,,,,,,,466.025,1,audio/Narrative8Situation7.wav,469.04,,469.04,481.111,"[[13.2,334],[13.2,418],[12.2,500],[8.8,584],[8.8,666],[8.8,750],[8.8,834],[8.8,916],[8.8,1000],[8.8,1084],[8.8,1168],[8.8,1250],[8.8,1334],[8.8,1416],[6.9,1500],[5.4,1584],[5.1,1666],[4.6,1750],[4.6,1834],[4.6,1916],[4.6,2000],[4.6,2084],[4.6,2168],[4.6,2252],[4.6,2334],[4.6,2418],[4.6,2500],[4.6,2584],[4.6,2668],[4.6,2750],[4.6,2834],[4.6,2918],[4.6,3002],[4.6,3084],[4.6,3168],[4.6,3250],[4.6,3334],[4.6,3418],[4.6,3502],[5.9,3584],[8.9,3668],[11.4,3752],[13,3834],[13.5,3918],[14,4002],[14.1,4084],[14.1,4168],[14.1,4252],[14.1,4334],[14.1,4418],[14.1,4502],[14.1,4584],[14.1,4668],[14.1,4752],[14.1,4836],[13.8,4918],[13.1,5002],[13.1,5084],[13.1,5168],[13.1,5252],[13.8,5336],[16.6,5418],[19.5,5502],[22.6,5586],[25.2,5668],[27.4,5752],[29.5,5836],[31.8,5919],[33.1,6002],[33.4,6086],[33.4,6168],[33.7,6252],[34,6336],[34.4,6419],[34.6,6502],[34.7,6586],[34.7,6669],[34.7,6752],[34.7,6836],[34.7,6919],[34.7,7002],[34.7,7086],[34.7,7168],[34.7,7252],[34.7,7336],[34.7,7419],[34.7,7502],[34.7,7586],[34.7,7669],[34.7,7752],[34.7,7836],[34.4,7919],[34.2,8002],[34,8086],[33.4,8169],[32.9,8253],[32.3,8336],[31.7,8419],[31.4,8503],[31,8586],[30.9,8669],[30.9,8753],[30.9,8836],[30.9,8919],[30.9,9002],[30.9,9086],[30.9,9170],[31.2,9253],[31.3,9336],[31.4,9420],[31.4,9503],[31.4,9586],[31.4,9670],[31.4,9753],[31.6,9837],[32.1,9920],[32.7,10003],[32.9,10087],[33.1,10170],[33.4,10254],[33.5,10336],[33.6,10420],[33.7,10504],[33.8,10586],[33.8,10670],[33.9,10753],[34,10837],[34.1,10920],[34.1,11003],[34.1,11087],[34.1,11170],[34.1,11253],[34.1,11336],[34.1,11420],[34.1,11504],[34.1,11587],[34.1,11670],[34.1,11753],[34.1,11837],[34.1,11920],[34.1,12004]]",1,0,481.112,485.614,26.953125,1.065,"[{""rating"":26.953125,""responseTime"":1.0649999999999977}]",space,3.952,,485.614,Definitely yes,100,485.616,,,[],,0,7,7,7,1,audio/Narrative7Situation7.wav,audio/Narrative8Situation7.wav,audio/Narrative5Situation7.wav,audio/Narrative6Situation7.wav,5,3,4,5,,,,,,,,,,,,,,,,,,,,,,,,,,,,,,,,,,,,,,,
,,,,,,58a5d6527cf56d0001f92567,2024-02-08_16h10.46.518,group3.1-3.2-social-tom,2023.2.2,Win32,60.0240096,65c5074098b851296ff0b7ed,65c54335959171a351c7c19e,,,,,,,,,,,,,,,,,,,,,,,,,,,,,485.616,1,audio/Narrative8Situation8.wav,488.631,,488.631,501.486,"[[20.6,500],[15.2,582],[12.6,666],[11.8,750],[11.8,832],[11.8,916],[11.8,1000],[11.8,1084],[11.8,1166],[11.8,1250],[11.8,1334],[11.8,1416],[11.8,1500],[11.8,1584],[11.8,1666],[11.8,1750],[11.8,1834],[11.8,1916],[11.8,2000],[11.8,2084],[11.8,2166],[11.8,2250],[11.8,2334],[11.8,2416],[11.7,2500],[10.1,2584],[9.3,2666],[8.7,2750],[7.7,2834],[7.2,2918],[6.4,3000],[6.3,3084],[6.2,3166],[6.2,3250],[6.2,3334],[6.2,3416],[6.2,3500],[6.2,3584],[6.2,3666],[6.2,3750],[6.2,3834],[6.2,3916],[6.2,4000],[6.2,4084],[6.2,4168],[6.2,4251],[6.2,4334],[6.2,4418],[6.2,4501],[6.2,4584],[6.2,4668],[6.2,4750],[6.2,4834],[6.3,4918],[6.9,5001],[8.1,5084],[10.9,5168],[11.7,5251],[12,5334],[12.6,5418],[13.3,5500],[14.1,5584],[14.9,5668],[15.5,5751],[15.9,5834],[16,5918],[16,6001],[16,6084],[16,6168],[16,6251],[16,6335],[16,6418],[16,6501],[16,6584],[16,6668],[16,6751],[16,6835],[16,6918],[16,7001],[16,7084],[16,7168],[16,7252],[16,7334],[16,7418],[16,7502],[16,7585],[16,7668],[16,7751],[16,7835],[16,7918],[16,8002],[16,8085],[16.1,8169],[17.3,8252],[18.3,8335],[19.1,8418],[20.4,8502],[21.9,8585],[22.8,8669],[23.5,8752],[24.2,8835],[24.8,8919],[25.2,9002],[25.4,9085],[25.6,9169],[25.9,9252],[27,9336],[28.4,9419],[28.8,9502],[29.5,9586],[30.6,9669],[31.4,9752],[32.1,9836],[32.3,9919],[32.3,10002],[32.3,10085],[32.3,10169],[32.3,10253],[32.3,10336],[32.3,10419],[33,10502],[35.3,10586],[37.8,10669],[40.3,10753],[41.8,10837],[42.3,10919],[42.6,11002],[42.6,11086],[42.8,11170],[43,11253],[43,11336],[43,11420],[43,11503],[43,11586],[43,11669],[42.7,11753],[42.5,11836],[42.5,11920],[42.5,12003],[42.5,12086],[42.5,12170],[42.5,12253],[42.5,12336],[42.5,12420],[42.5,12504],[42.5,12586],[42.5,12670],[42.5,12753],[42.5,12837]]",1,0,501.486,504.137,44.21875,0.972,"[{""rating"":44.21875,""responseTime"":0.9720000000000368}]",space,2.125,,504.137,Partially,50,504.141,,,[],,0,8,8,8,1,audio/Narrative7Situation8.wav,audio/Narrative8Situation8.wav,audio/Narrative5Situation8.wav,audio/Narrative6Situation8.wav,2,3,3,5,,,,,,,,,,,,,,,,,,,,,,,,,,,,,,,,,,,,,,,
,,,,,,58a5d6527cf56d0001f92567,2024-02-08_16h10.46.518,group3.1-3.2-social-tom,2023.2.2,Win32,60.0240096,65c5074098b851296ff0b7ed,65c54335959171a351c7c19e,,,,,,,,,,,,,,,,,,,,,,,,,,,,,504.141,1,audio/Narrative8Situation9.wav,507.155,,507.155,518.475,"[[27.9,499],[23.4,582],[19.8,665],[16.6,749],[13.7,832],[12.1,915],[11.6,1000],[11.4,1082],[11.4,1165],[11,1250],[9.4,1332],[8.4,1415],[7.9,1500],[7.9,1581],[7.9,1665],[8.6,1749],[11.5,1832],[16.1,1915],[20.6,2000],[23.8,2082],[28,2167],[31.4,2250],[34.1,2333],[36.2,2415],[37.9,2500],[39.4,2583],[41.5,2665],[42.5,2750],[43.8,2833],[44.6,2917],[44.9,3000],[45.5,3083],[45.6,3167],[45.7,3250],[45.9,3332],[45.9,3417],[45.9,3500],[45.9,3582],[45.9,3667],[45.9,3750],[45.9,3832],[45.9,3917],[45.9,4000],[45.9,4083],[45.9,4167],[46,4250],[46.6,4333],[46.8,4418],[47.1,4500],[47.1,4583],[47.1,4668],[46.9,4750],[45.2,4834],[44.6,4917],[44.1,5000],[43.5,5084],[43.4,5167],[43.4,5250],[43.4,5334],[43.4,5417],[43.4,5500],[43.4,5584],[43.4,5668],[43.4,5750],[43.4,5834],[44.1,5918],[44.7,6000],[45,6084],[45.6,6168],[45.9,6250],[46.1,6334],[46.3,6418],[46.3,6500],[46.3,6584],[46.3,6668],[46.3,6751],[46.3,6834],[45.9,6918],[45.4,7001],[44.9,7086],[44.7,7168],[44.7,7251],[44.7,7334],[44.7,7418],[44.7,7500],[44.7,7584],[44.7,7668],[44.7,7751],[44.7,7834],[44.7,7918],[44.7,8001],[44.7,8086],[44.7,8168],[44.7,8251],[44.7,8334],[44.7,8418],[44.7,8501],[44.7,8586],[44.7,8668],[44.7,8751],[44.7,8836],[44.7,8918],[44.7,9001],[44.7,9084],[44.2,9168],[44.1,9251],[44.1,9334],[44.1,9418],[44.1,9502],[44.2,9586],[44.8,9668],[45.4,9752],[45.5,9836],[45.6,9918],[45.7,10002],[45.9,10086],[46.3,10169],[46.4,10252],[46.5,10336],[46.5,10418],[46.5,10502],[46.5,10586],[46.5,10669],[46.5,10752],[46.1,10836],[45.5,10919],[45.2,11002],[45.1,11086],[45.1,11169],[45.1,11252]]",1,0,518.475,521.876,45.078125,0.948,"[{""rating"":45.078125,""responseTime"":0.9480000000000928}]",space,2.855,,521.876,Definitely yes,100,521.879,,,[],,0,9,9,9,1,audio/Narrative7Situation9.wav,audio/Narrative8Situation9.wav,audio/Narrative5Situation9.wav,audio/Narrative6Situation9.wav,2,3,3,4,,,,,,,,,,,,,,,,,,,,,,,,,,,,,,,,,,,,,,,
,,,,,,58a5d6527cf56d0001f92567,2024-02-08_16h10.46.518,group3.1-3.2-social-tom,2023.2.2,Win32,60.0240096,65c5074098b851296ff0b7ed,65c54335959171a351c7c19e,,,,,,,,,,,,,,,,,,,,,,,,,,,,,521.879,1,audio/Narrative7Situation1.wav,523.894,,523.894,579.78,"[[43,582],[37.1,666],[32.9,750],[28.6,832],[26.2,916],[20.8,1000],[14.4,1082],[12.3,1166],[11.3,1250],[11.3,1332],[11.3,1416],[11.3,1500],[12.7,1582],[12.7,1666],[12.8,1750],[13.3,1832],[14.2,1916],[14.4,2000],[14.4,2082],[14.4,2166],[14.4,2250],[14.4,2332],[13.9,2416],[13,2500],[12.7,2583],[12.7,2666],[12.7,2750],[12.7,2833],[12.7,2916],[12.7,3000],[12.7,3083],[12.7,3166],[12.7,3250],[12.7,3333],[12.7,3416],[12.7,3500],[12.7,3583],[12.7,3666],[12.7,3750],[12.7,3833],[12.7,3916],[12.7,4000],[12.7,4083],[12.7,4167],[12.7,4250],[12.7,4333],[12.7,4417],[12.7,4500],[12.7,4583],[12.7,4667],[12.7,4750],[12.7,4833],[12.7,4917],[12.7,5001],[12.7,5084],[12.7,5167],[12.7,5250],[12.7,5334],[12.7,5417],[12.7,5500],[12.7,5584],[12.7,5667],[12.7,5750],[12.7,5833],[12.7,5917],[12.7,6000],[12.7,6084],[12.7,6167],[12.7,6250],[12.7,6333],[12.7,6418],[12.7,6500],[12.7,6584],[12.7,6667],[12.7,6751],[12.7,6834],[12.7,6917],[12.7,7001],[12.7,7084],[12.7,7167],[12.7,7251],[12.7,7334],[12.7,7417],[12.7,7501],[12.7,7585],[12.7,7667],[12.7,7751],[12.7,7834],[12.7,7918],[12.7,8001],[12.7,8084],[12.7,8167],[12.7,8252],[12.7,8334],[12.7,8418],[12.7,8501],[12.7,8584],[12.7,8668],[12.7,8752],[12.7,8835],[12.7,8918],[12.7,9001],[12.7,9085],[12.7,9168],[12.7,9251],[12.7,9335],[12.7,9419],[12.7,9501],[12.7,9585],[12.7,9668],[12.7,9751],[12.7,9835],[12.7,9919],[12.7,10001],[12.7,10085],[12.7,10169],[12.7,10251],[12.7,10335],[12.7,10419],[12.7,10502],[12.7,10586],[12.7,10669],[12.7,10752],[12.7,10836],[12.7,10919],[12.7,11003],[12.7,11086],[12.7,11169],[12.7,11252],[12.7,11336],[12.7,11419],[12.7,11503],[12.7,11586],[12.7,11669],[12.7,11753],[12.7,11836],[12.7,11919],[12.7,12003],[12.7,12085],[12.7,12169],[12.7,12253],[12.7,12336],[12.7,12420],[12.7,12503],[12.7,12586],[12.7,12670],[12.7,12753],[12.7,12836],[12.7,12920],[12.7,13003],[12.7,13086],[12.7,13169],[12.7,13253],[12.7,13337],[13,13420],[13.5,13503],[13.7,13587],[14.2,13670],[15.1,13754],[15.9,13837],[16.8,13920],[17.7,14003],[18.3,14087],[19.1,14170],[20.1,14254],[21.4,14337],[23.4,14420],[24.3,14503],[25.5,14587],[27.3,14671],[28.9,14754],[30.2,14837],[31.6,14921],[33,15003],[34.4,15087],[36.1,15170],[37.3,15254],[38.4,15337],[39.1,15421],[39.2,15504],[39.5,15588],[40,15671],[40.9,15754],[41.6,15837],[42,15921],[42.2,16004],[42.3,16088],[42.7,16171],[43,16254],[43.2,16338],[43.2,16421],[43.2,16505],[43.2,16588],[43.2,16671],[43.2,16754],[43.2,16837],[43.2,16921],[43.2,17005],[43.2,17088],[43.2,17171],[43.2,17255],[43.2,17338],[43.2,17422],[43.2,17505],[43.2,17588],[43.2,17671],[43.2,17755],[43.2,17838],[43.2,17922],[43.2,18005],[43.2,18088],[43.2,18172],[43.2,18254],[43.2,18338],[43.2,18421],[43.2,18504],[43.2,18588],[43.2,18672],[43.2,18755],[43.2,18838],[43.2,18922],[43.2,19005],[43.2,19088],[43.2,19172],[43.2,19255],[43.2,19339],[43.4,19421],[43.4,19505],[43.4,19588],[43.4,19672],[43.4,19755],[43.4,19839],[43.4,19922],[43.4,20005],[43.4,20089],[43.4,20172],[43.4,20255],[43.4,20339],[43.4,20422],[43.4,20506],[43.4,20589],[43.4,20672],[43.4,20756],[43.4,20839],[43.4,20922],[43.7,21006],[44.8,21090],[47.4,21173],[50.2,21256],[50.2,21339],[50.2,21422],[50.2,21506],[50,21589],[49.3,21673],[49.1,21756],[49.1,21839],[49.1,21923],[49.1,22006],[49,22090],[47.5,22173],[46.9,22256],[46.9,22339],[46.9,22423],[47.7,22506],[48,22589],[48,22673],[47.5,22756],[46.8,22840],[46.7,22923],[46.7,23006],[46.7,23090],[46.7,23174],[46,23257],[45.8,23340],[45.8,23424],[45.8,23507],[45.8,23590],[45.8,23673],[45.8,23757],[45.8,23840],[45.8,23923],[45.8,24007],[45.8,24090],[45.8,24174],[45.8,24257],[45.8,24340],[45.5,24424],[44.7,24507],[44.1,24590],[44.1,24674],[44.1,24757],[44.1,24840],[44.1,24924],[44.1,25008],[44.1,25091],[44.1,25174],[44.1,25257],[44.1,25340],[44.1,25424],[44.1,25507],[44.1,25591],[44.1,25674],[44.1,25757],[44.1,25841],[44.1,25924],[44.1,26008],[44.1,26091],[44.1,26174],[44.1,26258],[44.1,26341],[44.1,26424],[44.1,26508],[44.1,26591],[44.1,26675],[44.1,26757],[44.1,26841],[44.1,26924],[44.1,27008],[44.1,27091],[44.1,27174],[44.1,27258],[44.1,27341],[44.1,27424],[44.1,27508],[44.1,27592],[44.1,27675],[44.1,27759],[44.1,27841],[44.1,27925],[44.1,28009],[44.1,28091],[44.1,28175],[44.1,28259],[44.1,28341],[44.1,28425],[44.1,28509],[44.1,28592],[44.1,28675],[44.1,28758],[44.1,28842],[44.1,28925],[44.1,29008],[44.1,29092],[44.1,29175],[44.1,29258],[44.1,29342],[44.1,29426],[44.1,29509],[44.1,29592],[44.1,29676],[44.1,29759],[44.1,29843],[44.1,29925],[44.1,30009],[44.3,30093],[44.3,30175],[44.3,30259],[44.3,30342],[44.3,30426],[44.3,30509],[44.3,30593],[44.3,30676],[44.3,30760],[44.3,30842],[44.3,30926],[43.8,31010],[43.8,31093],[43.8,31176],[43.8,31259],[43.8,31343],[43.8,31427],[43.8,31510],[43.8,31593],[43.8,31677],[43.8,31759],[43.8,31843],[43.8,31927],[43.8,32010],[43.8,32093],[43.8,32176],[44.4,32260],[44.5,32344],[44.5,32427],[44.5,32510],[44.5,32593],[44.5,32677],[44.5,32760],[44.8,32844],[45.6,32928],[45.9,33010],[46,33093],[46,33178],[46,33261],[46,33344],[46,33428],[46,33510],[46,33593],[46,33678],[46,33761],[46,33844],[46,33928],[46,34010],[46,34094],[46,34178],[46,34261],[46,34344],[46,34428],[46,34511],[46,34594],[46,34678],[46,34761],[46,34844],[46,34928],[46,35011],[46,35094],[46,35178],[47,35261],[48.4,35345],[48.5,35428],[48.8,35511],[48.8,35594],[48.8,35678],[48.8,35761],[48.8,35845],[48.8,35928],[48.8,36011],[48.8,36095],[48.8,36178],[48.8,36261],[48.8,36344],[48.8,36428],[48.8,36511],[49.1,36595],[49.3,36678],[49.4,36761],[49.8,36844],[50.3,36928],[50.7,37012],[51.2,37095],[51.5,37178],[51.8,37262],[52.5,37345],[53.5,37428],[54.1,37512],[54.7,37595],[55.2,37678],[55.7,37762],[55.7,37845],[55.9,37929],[56.5,38012],[56.7,38095],[57.2,38178],[58,38262],[58.1,38345],[58.1,38428],[58.1,38512],[58.1,38595],[58.9,38679],[59.2,38762],[59.2,38846],[59.2,38929],[59.2,39012],[59.2,39095],[59.2,39179],[59.2,39262],[59.2,39346],[59,39430],[59,39513],[58.9,39596],[58.9,39679],[58.9,39762],[59.5,39845],[60.1,39929],[60.3,40013],[61.3,40096],[61.6,40179],[62.3,40262],[63.1,40346],[63.6,40430],[64.1,40513],[65.2,40596],[66.6,40679],[67.9,40762],[68,40846],[68,40930],[68,41013],[68,41096],[68,41179],[68.7,41263],[69.4,41347],[69.5,41430],[69.5,41513],[69.5,41596],[69.5,41679],[69.5,41763],[69.5,41847],[69.5,41930],[69.5,42013],[69.5,42096],[69.5,42180],[69.5,42263],[69.5,42347],[69.5,42430],[69.5,42514],[69.5,42596],[69.5,42680],[69.5,42764],[69.5,42847],[69.5,42930],[69.5,43013],[69.5,43097],[69.5,43181],[70.1,43264],[71.8,43347],[72.5,43430],[73.7,43514],[74.9,43598],[76.7,43680],[79.6,43764],[82.1,43848],[82.5,43931],[84.5,44014],[86.7,44098],[87.7,44181],[89,44265],[89.3,44347],[89.3,44431],[89.3,44515],[89.3,44597],[89.3,44681],[89.3,44765],[89.3,44848],[89.3,44931],[89.3,45014],[89.3,45098],[89.3,45181],[89.3,45264],[89.3,45348],[89.3,45431],[89.3,45514],[89.3,45598],[90.5,45682],[91.2,45765],[91.2,45848],[91.2,45932],[91.2,46014],[91.2,46098],[91.2,46181],[91.2,46265],[91.2,46348],[91.2,46431],[91.2,46515],[91.2,46598],[91.2,46681],[91.2,46765],[91.2,46848],[91.2,46932],[89.4,47016],[87.4,47098],[86,47182],[85,47265],[84.5,47348],[84.1,47432],[84.1,47515],[84.1,47598],[84.1,47682],[84.1,47765],[84.1,47848],[84.1,47933],[84.1,48015],[84.1,48099],[84.1,48182],[84.1,48265],[84.1,48349],[84.1,48432],[84.1,48516],[84.1,48599],[84.1,48682],[84.1,48766],[84.1,48849],[84.1,48932],[84.1,49015],[84.1,49099],[84.1,49183],[84.1,49266],[84.1,49349],[84.1,49433],[84.1,49516],[84.1,49599],[84.1,49683],[84.1,49766],[84.1,49849],[84.1,49933],[84.1,50016],[84.1,50099],[84.1,50183],[84.1,50266],[84.1,50349],[84.1,50433],[84.1,50516],[84.1,50601],[84.1,50683],[84.1,50767],[84.1,50851],[84.1,50933],[84.1,51017],[84.1,51101],[84.1,51183],[84.1,51267],[84.1,51351],[84.1,51433],[84.1,51517],[84.1,51601],[84.5,51684],[84.5,51767],[84.5,51851],[84,51934],[81.7,52017],[80.5,52101],[79.8,52183],[78.6,52267],[77.4,52351],[76.9,52434],[76.9,52517],[76.9,52601],[76.9,52684],[76.9,52767],[76.9,52851],[76.9,52934],[76.9,53017],[76.9,53101],[76.9,53184],[76.9,53267],[76.9,53351],[76.9,53434],[76.9,53517],[76.9,53601],[76.9,53684],[76.9,53767],[76.9,53851],[76.9,53934],[76.9,54018],[76.9,54101],[76.9,54184],[76.7,54268],[75.8,54351],[75.6,54434],[75.6,54518],[75.6,54601],[75.6,54684],[75.6,54768],[75.6,54852],[75.6,54935],[75.6,55018],[75.6,55101],[75.6,55185],[75.6,55268],[75.6,55351],[75.6,55435],[75.6,55518],[75.6,55601],[75.6,55685],[75.6,55768],[75.6,55851]]",1,0,579.78,583.531,78.75,0.96,"[{""rating"":78.75,""responseTime"":0.9600000000000364}]",space,3.223,,583.531,Partially,50,583.535,,,[],,0,10,10,10,1,audio/Narrative8Situation1.wav,audio/Narrative7Situation1.wav,audio/Narrative6Situation1.wav,audio/Narrative5Situation1.wav,5,2,2,5,,,,,,,,,,,,,,,,,,,,,,,,,,,,,,,,,,,,,,,
,,,,,,58a5d6527cf56d0001f92567,2024-02-08_16h10.46.518,group3.1-3.2-social-tom,2023.2.2,Win32,60.0240096,65c5074098b851296ff0b7ed,65c54335959171a351c7c19e,,,,,,,,,,,,,,,,,,,,,,,,,,,,,583.535,1,audio/Narrative7Situation2.wav,586.549,,586.549,594.035,"[[999,0],[999,82],[999,166],[999,250],[999,332],[999,416],[999,500],[999,583],[999,666],[18.1,750],[15.5,833],[13.9,916],[12.2,1000],[11.6,1083],[11.6,1166],[11.3,1250],[10.4,1333],[10.3,1416],[10.3,1500],[11.3,1583],[18.8,1668],[28.4,1750],[37.1,1833],[44.4,1918],[50.5,2000],[54.7,2084],[55.9,2168],[56.2,2250],[57.6,2333],[59.4,2416],[61.2,2500],[63,2584],[63.8,2668],[63.8,2750],[63.8,2834],[63.8,2918],[63.8,3000],[63.8,3084],[63.8,3168],[63.8,3250],[63.8,3333],[63.4,3418],[61.6,3501],[61.5,3583],[61.1,3668],[61.1,3751],[61.1,3834],[61.1,3918],[61.1,4001],[61.1,4084],[61.1,4168],[61.1,4250],[61.1,4334],[61.1,4418],[61.1,4501],[61.1,4584],[61.1,4668],[61.1,4750],[61.1,4834],[61.1,4918],[61.1,5001],[61.1,5084],[61.1,5168],[61.1,5251],[61.1,5336],[61.1,5418],[61.1,5501],[61.1,5586],[61.1,5668],[61.1,5751],[61.1,5836],[61.1,5918],[61.1,6001],[60.7,6086],[62.7,6168],[74.2,6251],[88,6501],[88.8,6586],[89.3,6668],[89.3,6751],[89.3,6836],[89.3,6918],[89.3,7001],[89.3,7084],[89.3,7168],[89.3,7252],[89.3,7336],[89.9,7418]]",1,0,594.035,598.019,93.75,1.2,"[{""rating"":93.75,""responseTime"":1.1999999999999318}]",space,3.456,,598.019,Partially,50,598.021,,,[],,0,11,11,11,1,audio/Narrative8Situation2.wav,audio/Narrative7Situation2.wav,audio/Narrative6Situation2.wav,audio/Narrative5Situation2.wav,3,3,3,3,,,,,,,,,,,,,,,,,,,,,,,,,,,,,,,,,,,,,,,
,,,,,,58a5d6527cf56d0001f92567,2024-02-08_16h10.46.518,group3.1-3.2-social-tom,2023.2.2,Win32,60.0240096,65c5074098b851296ff0b7ed,65c54335959171a351c7c19e,,,,,,,,,,,,,,,,,,,,,,,,,,,,,598.021,1,audio/Narrative7Situation3.wav,606.023,,606.023,615.293,"[[999,1],[999,83],[999,166],[999,250],[999,333],[999,417],[999,500],[999,583],[999,667],[999,750],[33.2,833],[26.6,917],[19.9,1000],[15.2,1083],[12.8,1167],[10.4,1250],[8.4,1333],[7.8,1417],[7.8,1500],[7.8,1583],[7.8,1667],[9.5,1750],[17.2,1834],[21.7,1917],[22,2000],[22,2084],[21.9,2167],[17.8,2251],[14.5,2334],[10.2,2417],[8.2,2501],[7.8,2584],[7.3,2667],[6.6,2751],[6.3,2834],[6.1,2917],[6.1,3001],[6.1,3084],[6.1,3167],[6.3,3251],[6.4,3334],[6.4,3417],[6.4,3501],[5.9,3584],[5.2,3667],[5.2,3751],[5.2,3834],[5.2,3917],[5.2,4001],[5.2,4084],[5.2,4167],[5.2,4251],[5.2,4334],[5.2,4418],[5.2,4501],[5.2,4584],[5.2,4668],[5.2,4751],[5.2,4835],[5.2,4918],[5.2,5001],[5.2,5085],[5.2,5168],[5.2,5252],[5.2,5335],[5.2,5418],[5.2,5501],[5.2,5585],[5.2,5668],[5.2,5751],[5.2,5835],[5.2,5918],[5.2,6001],[5.2,6085],[5.2,6168],[5.2,6252],[5.2,6336],[5.2,6418],[5.2,6502],[5.2,6586],[5.2,6668],[5.2,6752],[5.2,6835],[5.2,6918],[5.2,7002],[5.2,7086],[5.2,7168],[5.2,7252],[5.2,7335],[5.2,7418],[5.2,7502],[5.2,7585],[5.2,7668],[5.2,7753],[5.2,7836],[5.2,7918],[5.2,8002],[5.2,8085],[5.2,8168],[5.2,8253],[5.2,8336],[5.2,8418],[5.2,8502],[5.2,8586],[5.2,8670],[5.2,8753],[5.2,8836],[5.2,8918],[5.2,9003],[5.2,9086],[5.2,9170],[5.2,9253]]",1,0,615.293,618.41,6.640625,0.899,"[{""rating"":6.640625,""responseTime"":0.8990000000000009}]",space,2.584,,618.41,Not at all,0,618.414,,,[],,0,12,12,12,1,audio/Narrative8Situation3.wav,audio/Narrative7Situation3.wav,audio/Narrative6Situation3.wav,audio/Narrative5Situation3.wav,4,8,5,3,,,,,,,,,,,,,,,,,,,,,,,,,,,,,,,,,,,,,,,
,,,,,,58a5d6527cf56d0001f92567,2024-02-08_16h10.46.518,group3.1-3.2-social-tom,2023.2.2,Win32,60.0240096,65c5074098b851296ff0b7ed,65c54335959171a351c7c19e,,,,,,,,,,,,,,,,,,,,,,,,,,,,,618.414,1,audio/Narrative7Situation4.wav,621.428,,621.428,633.149,"[[999,0],[999,83],[999,165],[999,250],[999,333],[999,416],[999,500],[999,583],[999,666],[20.5,750],[17,832],[15,916],[12.3,1000],[10.7,1082],[10,1166],[9.1,1250],[8.8,1332],[8.4,1418],[8.4,1500],[8.4,1583],[8.4,1666],[8.4,1750],[8.4,1833],[8.8,1916],[9.9,2000],[11.3,2083],[12.4,2168],[13.4,2250],[14.5,2333],[14.8,2416],[15.2,2500],[15.5,2584],[15.8,2666],[16.1,2750],[16.1,2833],[16.6,2916],[16.8,3000],[17,3084],[17.3,3166],[17.3,3251],[17.7,3333],[18.4,3418],[19.8,3500],[21.6,3584],[24,3668],[26.5,3750],[28.7,3834],[29.6,3918],[30.5,4001],[31.5,4084],[32.5,4168],[33.4,4250],[33.8,4334],[33.8,4418],[33.8,4500],[33.8,4584],[33.8,4668],[33.8,4751],[33.8,4834],[33.8,4918],[33.8,5000],[33.8,5084],[33.8,5168],[33.8,5250],[33.8,5334],[33.8,5418],[33.8,5501],[33.8,5585],[33.8,5668],[33.8,5751],[33.8,5834],[33.8,5918],[33.8,6001],[27.7,6085],[23.1,6168],[19.1,6251],[16.8,6335],[12.9,6418],[9.2,6502],[8.2,6585],[8.1,6668],[8.1,6751],[8.1,6834],[8.1,6918],[8.1,7002],[8.1,7084],[8.1,7168],[8.1,7251],[8.1,7335],[8.1,7419],[8.1,7502],[8.1,7585],[8.1,7668],[8,7752],[7.9,7836],[6.9,7919],[5.7,8002],[4.7,8085],[4.4,8168],[4.4,8252],[4.4,8336],[4.4,8419],[4.4,8502],[4.4,8585],[4.4,8668],[4.2,8752],[3.8,8835],[3.4,8919],[3.4,9003],[3.4,9086],[3.4,9169],[3.4,9252],[3.4,9335],[3.4,9419],[3.4,9503],[3.4,9586],[3.4,9670],[3.4,9752],[3.4,9835],[3.4,9919],[3.4,10003],[3.4,10086],[3.4,10169],[3.4,10253],[3.4,10336],[3.4,10419],[3.4,10503],[3.4,10587],[3.4,10669],[3.4,10753],[3.4,10837],[3.4,10920],[3.4,11003],[3.4,11086],[3.4,11169],[3.4,11253],[3.4,11336],[3.4,11420],[3.4,11504],[3.4,11586],[3.4,11670]]",1,0,633.149,635.216,1.25,0.604,"[{""rating"":1.250000000000001,""responseTime"":0.6040000000000418}]",space,1.542,,635.217,Partially,50,635.22,,,[],,0,13,13,13,1,audio/Narrative8Situation4.wav,audio/Narrative7Situation4.wav,audio/Narrative6Situation4.wav,audio/Narrative5Situation4.wav,3,3,2,1,,,,,,,,,,,,,,,,,,,,,,,,,,,,,,,,,,,,,,,
,,,,,,58a5d6527cf56d0001f92567,2024-02-08_16h10.46.518,group3.1-3.2-social-tom,2023.2.2,Win32,60.0240096,65c5074098b851296ff0b7ed,65c54335959171a351c7c19e,,,,,,,,,,,,,,,,,,,,,,,,,,,,,635.221,1,audio/Narrative7Situation5.wav,640.235,,640.235,648.704,"[[18,500],[12.6,583],[9.1,666],[7.2,750],[5.9,834],[5.3,917],[5.1,1000],[4.9,1084],[4.9,1166],[4.5,1251],[4.5,1334],[4.5,1416],[4.5,1500],[4.5,1583],[4.8,1667],[6.7,1751],[8.1,1834],[9.5,1917],[10,2001],[10.5,2084],[11.3,2167],[12.3,2251],[13.5,2334],[14.8,2418],[16.2,2501],[17.8,2584],[19,2667],[20.1,2750],[22,2834],[23.3,2917],[25.8,3001],[29.7,3084],[32.2,3167],[32.7,3251],[32.7,3334],[32.7,3418],[32.7,3501],[32.7,3584],[32.7,3668],[32.7,3751],[32.7,3834],[32.7,3918],[32.7,4001],[32.9,4085],[34.3,4168],[35.7,4251],[36.4,4335],[36.7,4418],[37,4502],[37.3,4585],[37.6,4668],[38.3,4751],[38.6,4835],[38.8,4918],[38.8,5001],[38.8,5085],[38.8,5168],[38.8,5252],[38.8,5335],[38.8,5418],[38.8,5502],[38.8,5585],[38.8,5668],[38.8,5752],[38.8,5835],[38.8,5918],[38.8,6002],[38.8,6085],[38.8,6169],[38.8,6252],[38.8,6335],[38.8,6419],[38.8,6502],[38.8,6585],[38.8,6669],[38.8,6752],[38.8,6836],[38.8,6919],[38.8,7002],[38.8,7085],[38.8,7169],[38.8,7253],[38.9,7335],[39.1,7419],[39.2,7503],[39.4,7586],[40.2,7669],[41.7,7753],[43.4,7836],[44.1,7919],[44.1,8002],[44.1,8086],[44.1,8169],[44.1,8252],[44.1,8336],[44.1,8419]]",1,0,648.705,653.756,6.328125,1.522,"[{""rating"":6.328125000000001,""responseTime"":1.5220000000000482}]",space,4.523,,653.756,Definitely yes,100,653.76,,,[],,0,14,14,14,1,audio/Narrative8Situation5.wav,audio/Narrative7Situation5.wav,audio/Narrative6Situation5.wav,audio/Narrative5Situation5.wav,2,5,2,5,,,,,,,,,,,,,,,,,,,,,,,,,,,,,,,,,,,,,,,
,,,,,,58a5d6527cf56d0001f92567,2024-02-08_16h10.46.518,group3.1-3.2-social-tom,2023.2.2,Win32,60.0240096,65c5074098b851296ff0b7ed,65c54335959171a351c7c19e,,,,,,,,,,,,,,,,,,,,,,,,,,,,,653.76,1,audio/Narrative7Situation6.wav,656.774,,656.774,666.761,"[[999,0],[999,83],[999,166],[999,250],[999,332],[999,415],[999,500],[999,583],[21.2,666],[15.7,750],[12.4,833],[9.5,917],[7,1000],[6.8,1083],[6.8,1166],[6.8,1250],[6.8,1332],[6.8,1416],[6.8,1500],[6.8,1583],[6.8,1666],[6.8,1750],[6.8,1833],[6.8,1917],[6.8,2000],[6.8,2083],[6.8,2166],[6.8,2250],[6.8,2333],[6.8,2417],[6.8,2500],[6.9,2583],[7.4,2667],[7.4,2750],[7.6,2833],[7.7,2916],[7.7,3000],[7.7,3083],[7.7,3167],[7.7,3250],[9.2,3333],[14.2,3417],[24.3,3500],[36.3,3584],[48.5,3667],[58.6,3750],[63.4,3833],[64.9,3918],[65.5,4000],[65.7,4084],[66.1,4168],[67.7,4250],[72.4,4334],[77.3,4417],[79.6,4500],[80,4584],[80.5,4668],[80.7,4751],[80.7,4834],[80.7,4917],[80.7,5001],[80.7,5084],[80.7,5167],[80.7,5251],[80.7,5334],[80.7,5417],[80.7,5501],[80.7,5584],[80.7,5667],[80.7,5751],[80.9,5834],[81.9,5918],[82.9,6002],[83.8,6084],[84.4,6168],[85,6251],[85.2,6334],[85.2,6418],[85.2,6502],[85.2,6585],[84.8,6669],[82.9,6751],[80.2,6835],[78,6918],[77.2,7002],[77.2,7085],[77.2,7168],[77.2,7252],[76.6,7335],[76.1,7419],[75.6,7502],[74.8,7585],[74.1,7668],[73.3,7751],[72.9,7835],[72.6,7919],[72,8002],[71.4,8086],[71.1,8169],[70.7,8252],[70.5,8335],[70.4,8419],[70.4,8502],[70.4,8586],[70.4,8669],[70.4,8752],[70.4,8836],[70.4,8919],[70.2,9002],[69.7,9086],[69.5,9169],[69.5,9253],[69.5,9336],[69.5,9419],[69.5,9502],[69.5,9586],[69.5,9669],[69.5,9753],[69.4,9836],[69.4,9919]]",1,0,666.761,673.23,78.671875,1.015,"[{""rating"":78.671875,""responseTime"":1.0149999999999864}]",space,5.946,,673.23,Definitely yes,100,673.233,,,[],,0,15,15,15,1,audio/Narrative8Situation6.wav,audio/Narrative7Situation6.wav,audio/Narrative6Situation6.wav,audio/Narrative5Situation6.wav,2,3,2,3,,,,,,,,,,,,,,,,,,,,,,,,,,,,,,,,,,,,,,,
,,,,,,58a5d6527cf56d0001f92567,2024-02-08_16h10.46.518,group3.1-3.2-social-tom,2023.2.2,Win32,60.0240096,65c5074098b851296ff0b7ed,65c54335959171a351c7c19e,,,,,,,,,,,,,,,,,,,,,,,,,,,,,673.233,1,audio/Narrative7Situation7.wav,678.248,,678.249,695.438,"[[17.5,666],[16.6,750],[15.7,833],[14.1,916],[13,999],[11.8,1083],[11.6,1166],[11.6,1250],[17.1,1333],[29.2,1417],[35.6,1500],[35.6,1583],[35.6,1667],[35.5,1750],[35.5,1833],[35.5,1916],[35.5,2000],[35.5,2083],[35.5,2166],[35.5,2250],[35.5,2334],[35.5,2417],[35.5,2501],[35.5,2583],[35.5,2667],[35.5,2751],[35.7,2834],[36.6,2917],[37.3,3001],[38,3083],[38.6,3167],[38.9,3251],[39.1,3334],[39.8,3417],[41.6,3500],[45.1,3584],[48,3667],[50.9,3751],[52.5,3834],[52.9,3917],[52.9,4001],[52.9,4084],[52.9,4168],[52.9,4251],[52.9,4334],[53,4417],[55.6,4501],[60.1,4585],[66.3,4668],[69.7,4751],[70.9,4835],[70.9,4917],[70.9,5001],[70.9,5084],[70.9,5168],[72,5251],[73.5,5334],[74.1,5418],[74.1,5501],[74.1,5585],[74.1,5668],[74.1,5751],[74.1,5835],[74.1,5918],[74.5,6002],[74.6,6085],[74.6,6168],[74.6,6251],[74.6,6335],[74.6,6418],[74.6,6501],[74.6,6585],[74.6,6668],[74.6,6751],[74.6,6835],[74.6,6918],[74.6,7001],[74.6,7085],[74.6,7169],[74.6,7252],[74.1,7336],[73.4,7418],[72.7,7502],[72.4,7586],[72,7669],[71.1,7752],[70.2,7835],[69.7,7919],[69.3,8003],[68.8,8086],[68.5,8169],[68.5,8253],[68.3,8336],[67.6,8419],[67.1,8503],[67.1,8585],[67.1,8669],[67,8753],[67,8835],[67,8919],[67,9003],[67,9086],[67,9170],[67,9252],[67,9336],[67,9420],[67,9502],[67,9586],[67,9670],[67,9753],[67,9836],[67,9919],[67,10003],[67,10086],[67,10169],[67,10253],[67,10336],[67,10419],[67,10503],[67,10586],[67,10669],[67,10753],[67,10836],[67,10920],[67,11004],[67,11086],[67,11170],[67,11254],[67,11336],[67,11420],[67,11504],[67,11586],[67,11671],[67,11754],[67,11836],[67,11921],[67,12004],[67,12086],[67,12171],[67,12253],[67,12336],[67,12421],[67,12504],[67,12586],[67,12670],[67,12754],[67,12838],[67,12920],[67,13004],[67,13086],[67,13171],[67,13254],[67,13338],[67,13421],[67,13504],[67,13586],[67,13671],[67,13754],[67,13838],[67,13921],[67,14004],[67,14088],[67,14171],[67,14254],[67,14338],[67,14421],[67,14504],[67,14588],[67.7,14672],[70.9,14754],[76.4,14838],[81.5,14922],[84.7,15004],[87.6,15088],[90.9,15172],[93.4,15254],[95.5,15339],[96.7,15422],[97.6,15504],[97.7,15588],[97.7,15671],[97.7,15754],[97.7,15839],[97.7,15922],[97.7,16004],[97.7,16088],[97.7,16171],[97.7,16254],[97.7,16338],[97.7,16422],[97.7,16504],[97.7,16588],[97.7,16672],[97.7,16754],[97.7,16838],[97.7,16922],[97.7,17004],[97.7,17088],[97.3,17172]]",1,0,695.439,700.407,67.65625,1.539,"[{""rating"":67.65625,""responseTime"":1.5389999999999873}]",space,4.428,,700.407,Definitely yes,100,700.411,,,[],,0,16,16,16,1,audio/Narrative8Situation7.wav,audio/Narrative7Situation7.wav,audio/Narrative6Situation7.wav,audio/Narrative5Situation7.wav,3,5,5,4,,,,,,,,,,,,,,,,,,,,,,,,,,,,,,,,,,,,,,,
,,,,,,58a5d6527cf56d0001f92567,2024-02-08_16h10.46.518,group3.1-3.2-social-tom,2023.2.2,Win32,60.0240096,65c5074098b851296ff0b7ed,65c54335959171a351c7c19e,,,,,,,,,,,,,,,,,,,,,,,,,,,,,700.412,1,audio/Narrative7Situation8.wav,702.423,,702.423,712.444,"[[999,0],[999,83],[999,167],[999,250],[999,333],[999,416],[999,500],[35.2,584],[30.9,667],[26.9,750],[24.9,833],[24.8,916],[24.8,1000],[28,1084],[36.7,1167],[45.4,1250],[46.3,1333],[46.3,1416],[46.3,1500],[46.3,1583],[46.3,1667],[46.3,1750],[46.3,1833],[46.3,1917],[46.3,2000],[46.3,2084],[46.3,2167],[46.3,2250],[46.3,2334],[46.3,2417],[45.5,2500],[45.2,2583],[45.2,2667],[45,2750],[45,2833],[45,2917],[45,3001],[45,3084],[45,3167],[44.8,3251],[44.2,3335],[43.5,3417],[43.4,3501],[43.4,3584],[43.4,3667],[43.4,3751],[43.4,3834],[43.4,3918],[43.4,4001],[43.4,4084],[43.4,4168],[43.4,4251],[43.4,4334],[43.4,4417],[43.4,4501],[43.4,4584],[43.4,4668],[43.4,4751],[43.4,4835],[43.4,4917],[49.4,5001],[66.8,5085],[79.6,5168],[84,5252],[84.6,5335],[84.6,5418],[84.6,5502],[84.6,5585],[84.9,5668],[85.2,5752],[85.2,5835],[85.2,5918],[85.2,6002],[85.2,6085],[85.2,6168],[85.2,6251],[85.2,6335],[85.2,6418],[85.2,6502],[85.2,6585],[85.2,6669],[85.2,6751],[85.2,6835],[85.2,6919],[85.2,7002],[85.2,7086],[85.2,7169],[85.2,7252],[85.2,7336],[85.2,7419],[85.2,7503],[85.2,7586],[85.2,7669],[85.2,7752],[85.2,7835],[85.2,7919],[85.2,8003],[85.2,8086],[85.2,8169],[85.2,8253],[85.2,8336],[85.2,8420],[85.2,8503],[85.2,8586],[85.2,8669],[85.2,8753],[85.2,8836],[85.2,8919],[85.2,9003],[85.2,9086],[85.2,9169],[85.2,9253],[85.2,9336],[85.2,9420],[85.2,9503],[85.2,9586],[85.2,9670],[85.2,9753],[84.5,9837],[83.7,9920],[83.4,10003]]",1,0,712.444,714.611,88.515625,0.861,"[{""rating"":88.515625,""responseTime"":0.86099999999999}]",space,1.64,,714.611,Not at all,0,714.615,,,[],,0,17,17,17,1,audio/Narrative8Situation8.wav,audio/Narrative7Situation8.wav,audio/Narrative6Situation8.wav,audio/Narrative5Situation8.wav,3,2,5,3,,,,,,,,,,,,,,,,,,,,,,,,,,,,,,,,,,,,,,,
,,,,,,58a5d6527cf56d0001f92567,2024-02-08_16h10.46.518,group3.1-3.2-social-tom,2023.2.2,Win32,60.0240096,65c5074098b851296ff0b7ed,65c54335959171a351c7c19e,,,,,,,,,,,,,,,,,,,,,,,,,,,,,714.615,1,audio/Narrative7Situation9.wav,716.629,,716.629,725.265,"[[999,0],[999,83],[999,166],[999,250],[999,334],[999,416],[63.3,500],[62.8,584],[62.8,667],[62.7,750],[62.7,833],[62.6,917],[62.5,1000],[62.4,1084],[62.4,1167],[62.7,1250],[66.9,1333],[73.5,1417],[80.5,1500],[85.9,1584],[89.4,1667],[92.2,1751],[94.3,1833],[94.8,1917],[94.8,2000],[94.8,2083],[94.8,2167],[94.8,2251],[94.8,2334],[94.8,2417],[94.8,2500],[94.8,2584],[94.8,2667],[94.8,2751],[94.8,2834],[95.3,2917],[95.8,3001],[96.2,3085],[96.2,3168],[96.2,3251],[96.2,3335],[96.2,3417],[96.2,3501],[96.2,3584],[96.2,3668],[96.2,3751],[96.2,3834],[96.2,3917],[96.2,4001],[96.2,4085],[96.2,4168],[96.2,4251],[96.2,4334],[96.2,4418],[96.2,4501],[96.2,4585],[96.2,4668],[96.2,4751],[96.2,4835],[96.2,4918],[96.2,5002],[96.2,5085],[96.2,5168],[96.2,5251],[96.2,5335],[96.2,5418],[96.2,5502],[96.2,5585],[96.2,5668],[96.2,5751],[96.2,5835],[96.2,5919],[96.2,6002],[96.2,6085],[96.2,6168],[96.2,6252],[96.2,6336],[96.2,6419],[96.2,6502],[96.2,6585],[96.2,6669],[96.2,6752],[96.2,6835],[96.2,6918],[96.2,7002],[96.2,7085],[96.2,7169],[96.2,7252],[96.2,7336],[96.2,7419],[96.2,7502],[96.2,7586],[96.2,7670],[96.2,7752],[96.2,7835],[96.2,7919],[96.2,8002],[96.2,8086],[96.2,8170],[96.2,8253],[96.2,8336],[96.2,8419],[96.2,8503],[96.2,8586]]",1,0,725.265,729.883,99.453125,1.466,"[{""rating"":99.453125,""responseTime"":1.4660000000000082}]",space,4.085,,729.883,Definitely yes,100,729.885,,,[],,0,18,18,18,1,audio/Narrative8Situation9.wav,audio/Narrative7Situation9.wav,audio/Narrative6Situation9.wav,audio/Narrative5Situation9.wav,3,2,4,3,,,,,,,,,,,,,,,,,,,,,,,,,,,,,,,,,,,,,,,
,,,,,,58a5d6527cf56d0001f92567,2024-02-08_16h10.46.518,group3.1-3.2-social-tom,2023.2.2,Win32,60.0240096,65c5074098b851296ff0b7ed,65c54335959171a351c7c19e,,,,,,,,,,,,,,,,,,,,,,,,,,,768.749,771.332,771.34,2,audio/Narrative13Situation2.wav,771.34,,771.34,801.092,"[[999,0],[999,75],[999,158],[999,242],[999,325],[999,408],[999,492],[999,576],[999,658],[999,740],[999,825],[999,908],[999,992],[999,1075],[999,1158],[999,1242],[9.7,1326],[8.4,1408],[6.1,1492],[5.6,1575],[5.6,1658],[5.4,1742],[5.3,1826],[5.3,1908],[4.7,1992],[4.4,2075],[3.3,2158],[2.9,2242],[2.9,2326],[2.9,2408],[2.9,2492],[2.9,2575],[2.9,2658],[2.9,2743],[2.9,2826],[2.9,2908],[2.9,2992],[2.9,3076],[2.9,3160],[2.9,3243],[2.9,3326],[2.9,3410],[2.9,3492],[2.9,3576],[2.9,3660],[2.9,3742],[2.2,3826],[2,3908],[2,3992],[2,4076],[2,4160],[2,4243],[2,4326],[2,4408],[2,4493],[2.3,4576],[3.4,4660],[3.7,4743],[3.7,4826],[3.7,4910],[4.1,4994],[5.8,5076],[6.5,5160],[6.5,5244],[6.5,5326],[6.5,5410],[6.5,5494],[6.5,5576],[6.5,5660],[6.5,5744],[6.5,5826],[6.5,5910],[6.5,5993],[6.5,6076],[6.5,6160],[6.5,6244],[6.5,6326],[6.5,6410],[6.5,6494],[6.5,6576],[6.5,6661],[6.5,6743],[6.5,6826],[6.5,6910],[6.5,6994],[6.5,7076],[6.5,7161],[6.5,7244],[6.5,7326],[6.5,7411],[6.5,7494],[6.7,7576],[6.7,7661],[6.8,7744],[7.1,7828],[11.6,7911],[32.3,7994],[59.8,8078],[75.5,8161],[84.1,8244],[86.2,8328],[87.3,8411],[87.4,8495],[87.1,8578],[86.2,8661],[85.8,8744],[85.8,8828],[85.8,8911],[85.8,8995],[85.8,9078],[85.8,9161],[85.8,9245],[86.5,9328],[88.4,9411],[89.5,9495],[90.5,9578],[90.7,9662],[90.7,9745],[90.7,9828],[90.7,9912],[90.7,9995],[90.7,10079],[90.7,10162],[90.7,10245],[90.7,10328],[90.7,10412],[90.7,10495],[90.7,10579],[90.7,10662],[90.7,10745],[90.7,10828],[90.7,10912],[90.7,10995],[90.7,11079],[90.7,11162],[90.7,11245],[90.7,11329],[90.9,11413],[91,11495],[91.3,11579],[91.3,11663],[91.3,11745],[91.3,11829],[91.3,11913],[91.3,11995],[91.3,12079],[91.3,12163],[91.3,12245],[91.3,12330],[91.3,12412],[91.3,12495],[91.3,12580],[91.3,12662],[91.3,12745],[91.3,12830],[91.3,12912],[91.3,12995],[91.3,13079],[91.3,13163],[91.3,13247],[91.3,13329],[91.3,13413],[91.3,13497],[91.3,13580],[91.3,13663],[91.3,13747],[91.3,13830],[91.3,13913],[91.3,13997],[91.3,14080],[91.3,14163],[91.3,14247],[91.3,14330],[91.3,14413],[91.3,14497],[91.3,14580],[91.3,14663],[91.3,14747],[91.3,14830],[91.3,14913],[91.3,14997],[91.3,15080],[91.3,15163],[91.3,15247],[91.3,15330],[91.3,15413],[91.3,15497],[91.3,15581],[90.9,15663],[89.9,15747],[88,15830],[85.6,15913],[83.6,15998],[81.3,16081],[78.5,16163],[76.2,16247],[75,16331],[74.3,16413],[74,16498],[73.8,16581],[72.8,16663],[70.1,16747],[67.6,16831],[64.7,16915],[62.5,16998],[60.9,17081],[59.5,17163],[58.5,17247],[57.9,17331],[57.9,17415],[57.9,17497],[57.9,17581],[57.9,17663],[56.9,17748],[55.9,17831],[54.5,17915],[52.3,17998],[51.1,18081],[51,18163],[50.9,18247],[50.9,18331],[50.9,18413],[50.9,18498],[50.8,18581],[50.7,18663],[50.5,18748],[49.9,18831],[49.5,18915],[48.7,18998],[47.7,19081],[47.1,19165],[46.6,19249],[46.3,19331],[45.7,19416],[44.9,19499],[44,19581],[42.9,19666],[42.1,19748],[41.2,19831],[40.2,19916],[39.5,19998],[38.9,20081],[38.2,20165],[37.5,20249],[36.8,20331],[36,20416],[35.3,20499],[34.3,20581],[33.7,20665],[33.1,20749],[32.8,20831],[32.3,20915],[32.1,20999],[31.6,21083],[31.5,21165],[31.3,21249],[31.3,21331],[31.3,21416],[31.3,21499],[31.3,21581],[30.9,21666],[29.3,21750],[28.4,21831],[27.6,21916],[26.8,21999],[26.3,22083],[25.7,22166],[25.4,22250],[25.2,22333],[24.8,22416],[24.4,22500],[23.9,22583],[23.3,22666],[22.7,22750],[22,22833],[21.8,22916],[21.6,23000],[21.3,23083],[21.3,23166],[21.2,23249],[21.2,23333],[21.2,23417],[21.2,23500],[21.1,23583],[20.7,23667],[19.9,23750],[19.5,23833],[19.1,23917],[19.1,24000],[19.1,24083],[19.1,24166],[19.1,24250],[19.1,24334],[19.1,24417],[19.2,24500],[22.3,24584],[26.3,24667],[28.9,24750],[31,24834],[31.6,24917],[31.8,25000],[31.9,25083],[31.9,25167],[31.9,25250],[31.9,25334],[31.9,25417],[31.9,25500],[32.2,25584],[33.4,25667],[34.9,25750],[37.2,25834],[41.8,25917],[44.6,26000],[46.8,26084],[47,26168],[47,26250],[47,26334],[47,26417],[47,26500],[47,26585],[47,26667],[47,26750],[45.9,26834],[45.2,26918],[44.2,27000],[43,27085],[41,27168],[39.4,27252],[38.5,27335],[38,27418],[37.5,27500],[37,27585],[35.8,27668],[33.4,27752],[31.6,27835],[31.1,27918],[30.9,28000],[30.8,28085],[30.8,28168],[30.8,28250],[30,28335],[29.6,28418],[29.5,28500],[29.5,28585],[29.5,28668],[29.4,28752],[29.1,28835],[29,28918],[28.8,29000],[28.8,29085],[28.6,29168],[28.4,29252],[28.3,29335],[28.2,29418],[28.2,29502],[28.2,29585],[28.2,29668],[28.2,29752]]",1,0,801.093,801.096,,,[],,,,801.096,Definitely yes,100,801.097,,,[],,0,0,0,0,1,audio/Narrative13Situation2.wav,audio/Narrative13Situation2.wav,audio/Narrative13Situation2.wav,audio/Narrative13Situation2.wav,2,2,2,2,,,,,729.885,768.748,space,38.335,,,,,,,,,,,,,,,,,,,,,,,,,,,,,,,
,,,,,,58a5d6527cf56d0001f92567,2024-02-08_16h10.46.518,group3.1-3.2-social-tom,2023.2.2,Win32,60.0240096,65c5074098b851296ff0b7ed,65c54335959171a351c7c19e,,,,,,,,,,,,,,,,,,,,,,,,,,,,,801.098,2,audio/Narrative6Situation1.wav,803.11,,803.11,829.702,"[[27,1333],[23.6,1417],[20.5,1500],[17,1583],[15.3,1667],[14.3,1750],[12.8,1834],[11.8,1917],[10.9,2000],[9.8,2083],[9.2,2166],[8.6,2251],[8.2,2334],[7.6,2417],[7.2,2500],[6.9,2583],[6.9,2667],[6.9,2751],[6.9,2834],[6.9,2917],[6.9,3000],[8.3,3084],[8.9,3168],[9.8,3251],[11.1,3334],[12.2,3417],[13,3500],[13.5,3584],[13.8,3668],[14.3,3751],[14.5,3834],[14.8,3918],[14.9,4001],[15.2,4084],[15.3,4168],[15.4,4251],[15.5,4334],[15.6,4418],[15.9,4501],[15.9,4584],[16.2,4668],[16.5,4751],[16.9,4835],[17.4,4918],[17.8,5001],[18.3,5085],[18.7,5168],[19.1,5251],[19.6,5335],[19.9,5418],[20.3,5502],[20.6,5585],[21,5668],[21.5,5752],[21.8,5835],[21.8,5918],[21.9,6002],[21.9,6085],[21.9,6168],[21.9,6252],[21.9,6335],[21.9,6419],[21.9,6502],[21.9,6585],[21.9,6669],[21.9,6752],[22.2,6835],[22.8,6919],[23.2,7002],[24.4,7085],[32.2,7169],[56.2,7252],[75.7,7336],[84.8,7419],[87.1,7502],[90,7586],[92.7,7669],[92.7,7752],[92.7,7835],[92.7,7919],[92.7,8002],[93,8086],[93,8169],[93,8252],[92.1,8336],[85.6,8420],[83.5,8502],[82.7,8586],[82.2,8669],[82,8752],[82,8836],[84,8919],[89.1,9002],[90.2,9086],[90.2,9169],[89.4,9253],[86,9336],[84.3,9420],[82,9503],[80.1,9587],[78.7,9670],[77.3,9753],[75.9,9836],[74.3,9919],[73.2,10004],[72.3,10086],[71.4,10170],[70.4,10254],[69.5,10336],[68.3,10420],[66.9,10504],[65.9,10587],[65.5,10670],[64.5,10753],[63.8,10836],[62.7,10920],[62.3,11003],[62,11087],[60.6,11170],[59.8,11254],[58.5,11337],[57.7,11420],[57,11504],[56.4,11587],[55.9,11670],[55.4,11754],[54.5,11837],[53.4,11920],[52.2,12004],[51,12088],[50.2,12171],[49.6,12254],[49.1,12337],[48.8,12421],[48.4,12504],[47.5,12588],[45.7,12671],[42.6,12754],[41.3,12837],[41.3,12920],[41.3,13004],[41.3,13087],[41.3,13171],[41.3,13254],[41.3,13337],[41.3,13421],[41.3,13504],[40.9,13588],[40.4,13671],[40.1,13754],[40.1,13837],[40.1,13921],[40.1,14004],[40.1,14088],[40.1,14171],[40.1,14254],[40.1,14338],[42.4,14422],[50.5,14504],[60.1,14588],[65.2,14671],[65.8,14754],[65.8,14838],[65.8,14921],[65.8,15004],[59.8,15088],[52.2,15171],[48.4,15254],[45.5,15338],[43,15422],[39.3,15504],[37.3,15588],[35.9,15672],[35.2,15754],[35.2,15838],[35.2,15921],[35.2,16004],[35.2,16089],[35.2,16171],[35.2,16254],[35.2,16339],[35.2,16422],[35.2,16504],[35.2,16588],[35.2,16672],[35.2,16756],[35.2,16838],[35.2,16922],[35,17006],[35,17088],[35,17173],[35,17256],[35,17339],[35,17423],[34.9,17504],[34.9,17589],[34.8,17673],[34.7,17756],[34.7,17839],[34.7,17922],[34.7,18004],[34.7,18089],[34.7,18173],[34.7,18256],[34.7,18339],[34.5,18422],[32.8,18506],[31.6,18590],[30.6,18672],[30.2,18756],[29.8,18839],[29.5,18923],[29.3,19007],[29.3,19090],[29.1,19173],[28.8,19257],[28.6,19339],[28.4,19423],[28.3,19507],[28.3,19590],[28.3,19673],[28.2,19756],[27.3,19840],[26.3,19924],[25.6,20007],[24.9,20090],[24.5,20173],[23.9,20257],[23.5,20340],[23.3,20424],[22.9,20507],[22.6,20590],[22.4,20673],[22.3,20757],[22.3,20841],[22.1,20924],[22.1,21007],[22.1,21090],[22.1,21174],[23.5,21258],[24.4,21341],[25.7,21424],[27.9,21507],[32.7,21590],[39.5,21674],[49,21758],[56.8,21841],[61.6,21924],[63.8,22008],[65.7,22091],[67.5,22175],[69.3,22258],[70.8,22341],[72.2,22424],[73.7,22507],[75.6,22591],[77.8,22675],[79,22758],[80.6,22841],[82.3,22925],[83.7,23008],[85.6,23091],[86.8,23175],[87,23258],[87,23341],[87,23424],[87,23508],[86.8,23592],[86.6,23675],[86.6,23758],[86.6,23842],[87.7,23925],[90,24008],[91.1,24092],[91.7,24175],[92.2,24258],[92.2,24342],[92.2,24425],[92.2,24508],[92.2,24592],[92.1,24675],[91.6,24758],[91.1,24841],[90.6,24925],[90.3,25008],[89.9,25091],[88.8,25175],[87.3,25259],[85.2,25342],[83.5,25425],[82.4,25509],[81.5,25592],[80.7,25675],[79.8,25758],[78.4,25842],[77,25926],[74.9,26008],[73,26092],[71.8,26175],[70.5,26259],[69.5,26342],[68.8,26426],[68.3,26509],[68,26592]]",1,0,829.702,832.487,74.21875,1.072,"[{""rating"":74.21875,""responseTime"":1.0720000000000027}]",space,2.253,,832.488,Definitely yes,100,832.492,,,[],,0,1,1,1,1,audio/Narrative7Situation1.wav,audio/Narrative8Situation1.wav,audio/Narrative5Situation1.wav,audio/Narrative6Situation1.wav,2,5,5,2,,,,,,,,,,,,,,,,,,,,,,,,,,,,,,,,,,,,,,,
,,,,,,58a5d6527cf56d0001f92567,2024-02-08_16h10.46.518,group3.1-3.2-social-tom,2023.2.2,Win32,60.0240096,65c5074098b851296ff0b7ed,65c54335959171a351c7c19e,,,,,,,,,,,,,,,,,,,,,,,,,,,,,832.493,2,audio/Narrative6Situation2.wav,835.505,,835.505,864.015,"[[999,0],[999,81],[999,165],[999,248],[999,331],[999,416],[999,500],[999,582],[999,666],[999,748],[999,832],[999,915],[21.1,1000],[18.6,1082],[16.3,1165],[14.8,1250],[14.1,1332],[13.4,1416],[12.4,1500],[12.1,1582],[12.1,1665],[12.1,1750],[12.5,1832],[13.8,1916],[15.4,2000],[16.9,2083],[18.6,2166],[19.1,2250],[19.1,2333],[17.1,2416],[13.6,2500],[12.6,2583],[11.3,2666],[10.3,2750],[9.2,2833],[7.5,2916],[6.3,3000],[6.2,3083],[6.2,3166],[6.2,3250],[6.2,3333],[6.2,3416],[6.2,3500],[6.2,3583],[6.2,3666],[6.2,3750],[6.2,3833],[6.2,3916],[6.2,4000],[6.2,4083],[6.2,4168],[6.2,4250],[6.2,4333],[6.2,4418],[6.2,4500],[6.2,4583],[6.2,4668],[6.2,4750],[6.2,4833],[6.2,4916],[6.2,5000],[6.2,5084],[6.2,5168],[6.2,5250],[6.2,5334],[6.2,5418],[6.2,5500],[6.2,5584],[6.2,5668],[6.2,5751],[6.2,5834],[6.2,5918],[6.2,6001],[6.2,6083],[6.2,6168],[6.2,6251],[6.2,6334],[6.2,6418],[6.2,6501],[6.2,6584],[6.2,6668],[6.2,6750],[6.2,6834],[6.2,6918],[6.2,7001],[6.2,7084],[6.2,7168],[6,7251],[5.8,7334],[5.6,7418],[5.5,7501],[5.3,7585],[5,7668],[3.5,7751],[2.6,7835],[2.6,7918],[2.6,8001],[2.6,8085],[2.6,8168],[2.7,8251],[2.9,8335],[3,8418],[3,8502],[3,8585],[3.1,8668],[4.2,8751],[5.6,8835],[6.6,8918],[6.7,9002],[7.6,9085],[8.2,9169],[8.7,9252],[9.4,9335],[9.7,9418],[10.2,9502],[10.5,9586],[10.7,9669],[10.7,9752],[10.7,9835],[10.7,9919],[10.9,10002],[11.3,10086],[11.7,10169],[12.3,10252],[12.9,10335],[13.4,10419],[14.2,10502],[15.1,10585],[16.3,10669],[17.9,10752],[19,10836],[19.8,10919],[20.5,11003],[21.2,11086],[21.6,11169],[22,11252],[22.7,11336],[23.4,11420],[24.1,11503],[24.8,11586],[25.4,11669],[25.5,11752],[25.9,11836],[25.9,11920],[26,12003],[26,12086],[26,12169],[26,12253],[26,12336],[26,12419],[25.9,12503],[25.2,12586],[24.8,12670],[24.8,12753],[24.7,12836],[24.7,12919],[24.7,13003],[24.7,13086],[24.7,13169],[24.7,13253],[24.7,13336],[24.7,13420],[24.7,13503],[24.7,13587],[24.7,13670],[24.7,13753],[24.7,13837],[24.7,13920],[24.7,14003],[24.7,14086],[24.7,14170],[24.7,14254],[24.7,14337],[24.7,14420],[24.7,14503],[24.7,14587],[24.7,14671],[24.7,14753],[24.7,14837],[24.7,14920],[24.7,15003],[24.7,15087],[24.7,15170],[24.7,15254],[24.7,15338],[24.7,15421],[24.7,15504],[24.7,15587],[24.7,15670],[24.7,15754],[24.7,15837],[24.7,15921],[24.7,16004],[24.7,16088],[24.7,16171],[24.7,16254],[24.7,16337],[24.7,16421],[24.7,16504],[24.7,16588],[24.7,16671],[24.7,16754],[24.7,16837],[25.2,16921],[29.2,17005],[33,17088],[36.5,17171],[40.5,17255],[48.6,17338],[59.2,17421],[68.9,17505],[76.3,17588],[79.9,17673],[83.2,17755],[83.9,17838],[84.7,17921],[85.5,18004],[85.5,18088],[87.5,18173],[88.4,18255],[88.7,18338],[88.7,18421],[88.7,18505],[88.9,18589],[88.9,18673],[88.9,18755],[88.9,18838],[88.9,18923],[88.9,19005],[88.9,19089],[88.9,19173],[89,19255],[89,19339],[89,19423],[89,19505],[89,19589],[89,19673],[89,19755],[89,19838],[89,19923],[89,20006],[88.7,20089],[88.6,20173],[88.6,20255],[88.1,20339],[88.1,20423],[88.1,20506],[88.1,20589],[88.1,20673],[88.8,20756],[91.8,20839],[92,20923],[92,21006],[92.8,21089],[95.9,21173],[98,21256],[98.1,21339],[98.4,21423],[98.4,21506],[98.2,21591],[97,21673],[95.9,21756],[95.6,21841],[95.5,21923],[95.5,22007],[94.9,22089],[94.1,22173],[92.8,22257],[92.6,22339],[92.6,22423],[92,22507],[91.9,22591],[91.4,22673],[90.9,22757],[90.3,22841],[90.2,22923],[90.2,23006],[90.2,23091],[90.2,23174],[89.6,23257],[88,23341],[86.9,23424],[86.9,23506],[86.2,23591],[85.3,23674],[84.8,23757],[84.7,23841],[84.7,23923],[85.8,24007],[91.1,24091],[94.7,24174],[96.9,24257],[98.2,24341],[98.3,24424],[98.3,24507],[98.3,24591],[98.3,24673],[98.3,24757],[98.4,24841],[98.4,24924],[98.4,25008],[98.4,25091],[98.4,25174],[98.4,25258],[98.4,25341],[98.4,25424],[98.4,25507],[98.4,25591],[98.4,25674],[98.4,25757],[98.4,25841],[98.4,25924],[98.4,26008],[98.4,26091],[98.4,26174],[98.4,26257],[98.4,26341],[98.4,26424],[98.4,26507],[98.4,26591],[98.4,26674],[98.4,26757],[98.4,26841],[98.4,26925],[98.4,27008],[98.4,27091],[98.4,27175],[98.4,27258],[98.4,27342],[98.4,27425],[98.4,27508],[98.4,27591],[98.4,27675],[98.4,27758],[98.4,27842],[98.4,27925],[98.4,28008],[98.4,28092],[98.4,28175],[98.4,28258],[98.4,28342],[98.4,28425],[98.4,28509]]",1,0,864.015,865.799,98.046875,0.706,"[{""rating"":98.046875,""responseTime"":0.7060000000000173}]",space,1.261,,865.799,Definitely yes,100,865.804,,,[],,0,2,2,2,1,audio/Narrative7Situation2.wav,audio/Narrative8Situation2.wav,audio/Narrative5Situation2.wav,audio/Narrative6Situation2.wav,3,3,3,3,,,,,,,,,,,,,,,,,,,,,,,,,,,,,,,,,,,,,,,
,,,,,,58a5d6527cf56d0001f92567,2024-02-08_16h10.46.518,group3.1-3.2-social-tom,2023.2.2,Win32,60.0240096,65c5074098b851296ff0b7ed,65c54335959171a351c7c19e,,,,,,,,,,,,,,,,,,,,,,,,,,,,,865.804,2,audio/Narrative6Situation3.wav,870.817,,870.817,883.422,"[[999,1],[999,83],[999,167],[999,249],[999,333],[999,417],[999,500],[999,584],[999,667],[999,751],[13.2,834],[12.3,917],[11.1,1001],[10.5,1083],[10.5,1166],[10.4,1251],[10.4,1333],[10.3,1417],[11.6,1500],[12.3,1584],[13.6,1667],[15.6,1751],[17.7,1834],[20,1917],[21.8,2001],[24.1,2084],[25.9,2167],[26.3,2251],[26.3,2334],[26.3,2417],[26.3,2501],[27.6,2585],[29.5,2668],[29.8,2751],[29.8,2834],[29.8,2917],[28.4,3001],[24.1,3085],[23.8,3168],[23.8,3251],[23.8,3334],[23.8,3418],[23.8,3501],[23.8,3584],[23.8,3668],[23.8,3751],[23.8,3835],[23.8,3918],[23.8,4001],[23.8,4085],[23.8,4168],[23.8,4252],[23.8,4335],[23.8,4418],[23.8,4501],[23.8,4585],[23.8,4668],[23.8,4752],[23.8,4835],[23.8,4919],[23.8,5002],[23.8,5085],[23.8,5168],[23.8,5252],[23.8,5335],[23.8,5418],[23.8,5502],[23.8,5585],[23.8,5669],[23.8,5752],[23.8,5835],[23.8,5919],[23.8,6002],[23.8,6086],[23.8,6169],[23.8,6252],[23.8,6335],[23.8,6419],[23.8,6502],[23.8,6586],[27.1,6669],[49.5,6752],[70,6836],[97.7,7253],[96.3,7336],[93.4,7419],[93,7502],[93,7586],[93,7669],[92.9,7752],[92.9,7836],[92.9,7919],[92.7,8003],[92.6,8086],[92.6,8170],[92.6,8253],[92.6,8336],[92.6,8419],[92.6,8503],[92.6,8586],[92.6,8669],[92.6,8753],[92.6,8836],[92.6,8919],[92.6,9003],[92.6,9087],[92.6,9170],[92.6,9253],[92.6,9336],[92.6,9420],[92.6,9504],[92.6,9586],[92.4,9670],[91.6,9753],[90.1,9837],[88.2,9920],[88,10004],[88,10087],[87.8,10170],[87.8,10253],[87.8,10337],[87.8,10421],[87.8,10504],[87.8,10587],[87.8,10670],[87.8,10753],[87.8,10837],[87.8,10921],[87.8,11004],[87.8,11087],[87.8,11171],[87.8,11254],[87.8,11337],[87.8,11420],[87.8,11504],[87.5,11588],[84.5,11671],[80.1,11754],[76.5,11837],[74.9,11921],[73.8,12004],[73.7,12088],[73.7,12171],[73.7,12254],[73.7,12337],[73.7,12421],[73.7,12505],[73.7,12588]]",1,0,883.422,886.39,82.8125,1.789,"[{""rating"":78.359375,""responseTime"":1.0220000000000482},{""rating"":82.8125,""responseTime"":1.7889999999999873}]",space,2.438,,886.39,Definitely yes,100,886.391,,,[],,0,3,3,3,1,audio/Narrative7Situation3.wav,audio/Narrative8Situation3.wav,audio/Narrative5Situation3.wav,audio/Narrative6Situation3.wav,8,4,3,5,,,,,,,,,,,,,,,,,,,,,,,,,,,,,,,,,,,,,,,
,,,,,,58a5d6527cf56d0001f92567,2024-02-08_16h10.46.518,group3.1-3.2-social-tom,2023.2.2,Win32,60.0240096,65c5074098b851296ff0b7ed,65c54335959171a351c7c19e,,,,,,,,,,,,,,,,,,,,,,,,,,,,,886.391,2,audio/Narrative6Situation4.wav,888.406,,888.406,901.011,"[[999,0],[999,83],[999,167],[999,250],[999,333],[999,417],[999,500],[999,583],[999,667],[999,750],[999,833],[999,918],[999,1000],[999,1083],[31.5,1167],[30.4,1250],[34.1,1333],[41.1,1418],[42,1500],[42,1583],[41.6,1668],[38.8,1751],[36.2,1835],[31.2,1918],[27.4,2000],[25.2,2085],[24.7,2167],[24.5,2250],[24.5,2335],[24.5,2418],[24.5,2501],[24.1,2583],[23.9,2668],[23.6,2751],[22.8,2835],[21.4,2918],[18.8,3001],[17.1,3085],[16.8,3168],[16.7,3251],[16.7,3335],[16.7,3418],[16.7,3501],[16.7,3585],[16.7,3668],[16.7,3751],[16.7,3835],[16.7,3918],[16.7,4000],[16.7,4085],[16.7,4168],[16.7,4251],[16.7,4336],[16.7,4418],[16.7,4501],[16.8,4586],[17.1,4668],[17.2,4751],[18.1,4836],[19.4,4918],[20.1,5003],[20.5,5086],[20.8,5168],[20.8,5253],[20.8,5335],[20.8,5418],[20.8,5503],[20.8,5585],[20.8,5668],[20.8,5753],[20.8,5836],[20.8,5918],[20.8,6001],[20.8,6086],[20.8,6168],[20.8,6253],[20.8,6336],[20.8,6418],[20.8,6503],[20.8,6586],[20.8,6668],[20.8,6753],[20.8,6836],[20.8,6919],[20.8,7003],[20.8,7086],[20.8,7169],[20.8,7253],[20.8,7336],[20.8,7419],[21.6,7503],[22.9,7586],[25.4,7669],[27.5,7754],[28.7,7836],[29.6,7919],[30.4,8003],[31,8086],[31.2,8169],[31.3,8253],[31.3,8336],[31.3,8419],[31.3,8503],[31.3,8586],[31.3,8669],[31.3,8754],[31.3,8836],[31.3,8919],[31.3,9004],[31.3,9086],[31.3,9169],[31.3,9254],[31.3,9336],[31.3,9419],[31.3,9504],[31.3,9587],[31.3,9671],[31.3,9754],[31.3,9836],[31.3,9921],[30.9,10004],[30.9,10087],[30.9,10171],[30.9,10254],[30.9,10337],[30.9,10421],[30.9,10504],[30.9,10586],[30.9,10671],[30.9,10754],[30.9,10836],[30.9,10921],[30.9,11004],[30.9,11087],[30.9,11171],[30.9,11254],[30.9,11337],[30.9,11421],[30.9,11504],[30.9,11587],[30.9,11672],[30.9,11754],[30.9,11837],[30.9,11921],[30.9,12004],[30.9,12087],[30.9,12172],[30.9,12254],[30.9,12337],[30.9,12421],[30.9,12504],[30.9,12587]]",1,0,901.012,905.162,19.609375,2.381,"[{""rating"":12.265625000000002,""responseTime"":1.8640000000000327},{""rating"":19.609375,""responseTime"":2.380999999999972}]",space,3.607,,905.163,Not at all,0,913.332,0,5.743,"[{""rating"":0.15625000000000222,""responseTime"":4.2719999999999345},{""rating"":0,""responseTime"":5.742999999999938}]",space,0,4,4,4,1,audio/Narrative7Situation4.wav,audio/Narrative8Situation4.wav,audio/Narrative5Situation4.wav,audio/Narrative6Situation4.wav,3,3,1,2,,,7.619,,,,,,,,,,,,,,,,,,,,,,,,,,,,,,,,,,,,
,,,,,,58a5d6527cf56d0001f92567,2024-02-08_16h10.46.518,group3.1-3.2-social-tom,2023.2.2,Win32,60.0240096,65c5074098b851296ff0b7ed,65c54335959171a351c7c19e,,,,,,,,,,,,,,,,,,,,,,,,,,,,,913.332,2,audio/Narrative6Situation5.wav,915.333,,915.333,923.302,"[[999,0],[999,82],[999,165],[999,250],[999,332],[999,415],[999,500],[999,582],[999,667],[999,750],[999,832],[999,917],[999,1000],[10,1082],[7.7,1167],[6.8,1250],[6.5,1332],[6.4,1417],[5.9,1500],[5.5,1583],[5.4,1667],[5.3,1750],[5.3,1833],[5.3,1917],[5.3,2000],[5.3,2083],[5.3,2167],[5.3,2250],[5.3,2333],[5.3,2417],[8.6,2500],[18.4,2583],[31.6,2667],[44.6,2750],[55.6,2833],[62.5,2917],[66.3,3000],[66.4,3083],[66.4,3167],[66.4,3250],[66.4,3335],[66.2,3418],[63.6,3500],[62,3585],[61.2,3668],[60.7,3750],[60.7,3833],[60.7,3918],[60.7,4000],[60.6,4085],[60.6,4168],[60.6,4251],[60.6,4335],[60.6,4418],[59.1,4501],[56.3,4585],[55.2,4668],[54.2,4751],[53.6,4835],[53.5,4918],[53.5,5001],[53.5,5085],[53.5,5168],[53.5,5250],[53.5,5335],[54.1,5418],[55.2,5501],[55.8,5585],[56.3,5668],[56.6,5751],[56.6,5836],[56.6,5918],[56.6,6001],[56.6,6085],[56.6,6168],[56.6,6251],[56.6,6335],[56.6,6418],[56.6,6501],[56.6,6586],[56.6,6668],[56.6,6752],[56.6,6836],[56.6,6918],[56.6,7001],[56.6,7085],[56.6,7168],[56.6,7251],[56.6,7336],[56.6,7418],[56.6,7501],[56.6,7586],[56.6,7669],[56.6,7751],[56.6,7836],[56.6,7918]]",1,0,923.303,928.304,39.765625,2.44,"[{""rating"":39.765625,""responseTime"":2.439999999999941}]",space,4.46,,928.305,Not at all,0,928.305,,,[],,0,5,5,5,1,audio/Narrative7Situation5.wav,audio/Narrative8Situation5.wav,audio/Narrative5Situation5.wav,audio/Narrative6Situation5.wav,5,2,5,2,,,,,,,,,,,,,,,,,,,,,,,,,,,,,,,,,,,,,,,
,,,,,,58a5d6527cf56d0001f92567,2024-02-08_16h10.46.518,group3.1-3.2-social-tom,2023.2.2,Win32,60.0240096,65c5074098b851296ff0b7ed,65c54335959171a351c7c19e,,,,,,,,,,,,,,,,,,,,,,,,,,,,,928.306,2,audio/Narrative6Situation6.wav,930.321,,930.321,941.392,"[[999,0],[999,84],[999,167],[999,250],[999,334],[999,417],[999,500],[999,584],[999,668],[999,750],[999,834],[999,917],[27,1001],[22,1084],[19.8,1168],[17.2,1251],[17.1,1334],[17.1,1417],[16.6,1502],[14.1,1585],[12.4,1668],[11.3,1752],[11.3,1834],[11.6,1918],[14.4,2001],[17.7,2085],[21.9,2168],[26.2,2252],[30.1,2335],[33.8,2418],[37.1,2501],[40.6,2585],[45.3,2668],[48.3,2752],[50.4,2835],[52.8,2918],[54.9,3002],[56.6,3085],[57.3,3168],[57.5,3252],[57.9,3335],[58.2,3418],[58.5,3502],[58.9,3585],[59.2,3668],[59.5,3751],[59.5,3835],[59.5,3918],[59.5,4001],[55.3,4085],[53,4168],[53,4252],[52.7,4335],[52.6,4418],[52.6,4502],[52.6,4586],[52.6,4668],[52.6,4753],[52.6,4836],[52.6,4918],[52.6,5002],[52.6,5086],[52.6,5168],[52.6,5252],[52.6,5335],[52.6,5418],[52.6,5503],[52.4,5586],[50.6,5668],[49.5,5753],[48.8,5836],[48.5,5920],[48.4,6003],[48.4,6086],[48.4,6170],[48.4,6253],[48.4,6336],[48.4,6418],[48.4,6502],[46.6,6586],[44.9,6668],[44.2,6753],[42.8,6836],[41.8,6918],[41.3,7003],[41,7086],[40.9,7170],[40.8,7253],[40.8,7336],[40.8,7420],[40.8,7504],[40.8,7586],[41,7670],[42,7753],[42.7,7836],[43.2,7920],[43.5,8004],[43.6,8086],[43.6,8170],[43.6,8253],[43.6,8336],[44.1,8420],[45.4,8504],[46.8,8586],[47.8,8670],[48.4,8753],[48.6,8836],[48.8,8920],[48.8,9004],[48.8,9086],[48.8,9170],[48.8,9254],[48.8,9336],[48.5,9421],[47.7,9504],[47.2,9586],[46.4,9670],[45.5,9754],[44.6,9838],[44.2,9921],[43.5,10004],[42.8,10086],[42,10171],[41,10254],[40.7,10336],[40.7,10421],[40.7,10504],[40.7,10586],[40.7,10671],[40.7,10754],[40.7,10838],[40.7,10922],[40.7,11004]]",1,0,941.392,946.16,42.34375,3.907,"[{""rating"":46.953125,""responseTime"":0.8580000000000609},{""rating"":40.9375,""responseTime"":1.8899999999999864},{""rating"":42.34375,""responseTime"":3.907000000000039}]",space,4.234,,946.16,Definitely yes,100,946.164,,,[],,0,6,6,6,1,audio/Narrative7Situation6.wav,audio/Narrative8Situation6.wav,audio/Narrative5Situation6.wav,audio/Narrative6Situation6.wav,3,2,3,2,,,,,,,,,,,,,,,,,,,,,,,,,,,,,,,,,,,,,,,
,,,,,,58a5d6527cf56d0001f92567,2024-02-08_16h10.46.518,group3.1-3.2-social-tom,2023.2.2,Win32,60.0240096,65c5074098b851296ff0b7ed,65c54335959171a351c7c19e,,,,,,,,,,,,,,,,,,,,,,,,,,,,,946.164,2,audio/Narrative6Situation7.wav,951.179,,951.179,976.055,"[[999,0],[999,82],[999,165],[999,250],[999,332],[999,417],[999,500],[999,582],[999,665],[999,750],[999,832],[999,915],[999,1000],[999,1082],[999,1167],[999,1250],[999,1333],[999,1417],[24.7,1500],[24.5,1583],[24.5,1667],[23.9,1750],[22.9,1833],[19.8,1917],[17,2000],[15.2,2083],[15.2,2167],[15.2,2250],[15.2,2333],[16.8,2417],[19.1,2500],[21.6,2584],[22.4,2667],[22.7,2750],[22.7,2833],[22.7,2918],[22.7,3000],[22.7,3083],[22.7,3168],[22.7,3250],[22.7,3333],[22.7,3418],[22.7,3500],[22.7,3583],[22.7,3668],[22.7,3750],[22.7,3833],[22.7,3918],[22.7,4000],[22.7,4083],[22.7,4168],[22.7,4250],[22.7,4334],[22.7,4418],[22.7,4500],[22.7,4583],[22.7,4668],[22.7,4751],[22.7,4834],[22.7,4918],[22.7,5000],[22.7,5084],[22.7,5168],[22.7,5251],[22.7,5334],[22.7,5418],[22.7,5501],[22.7,5584],[22.7,5668],[22.7,5751],[22.7,5834],[22.7,5918],[22.7,6001],[22.7,6084],[22.7,6168],[22.7,6251],[22.9,6334],[23.2,6418],[23.8,6501],[24.4,6586],[25.5,6668],[27,6751],[31.6,6836],[40.6,6918],[52.2,7001],[59.4,7086],[62.8,7169],[67,7252],[70.7,7334],[74.3,7418],[76.5,7501],[76.5,7584],[76.5,7668],[76.5,7752],[76.5,7836],[76.5,7918],[76.5,8002],[76.5,8086],[76.5,8168],[76.5,8252],[76.5,8336],[76.5,8418],[76.5,8502],[76.5,8586],[76.5,8669],[76.5,8752],[77,8836],[77.4,8919],[78.6,9002],[78.8,9086],[78.8,9169],[78.9,9252],[79.8,9336],[81.2,9419],[82.8,9502],[84.1,9586],[85.2,9669],[86.3,9752],[87.3,9836],[88.8,9919],[89.9,10004],[90.7,10086],[91.3,10169],[91.5,10254],[92.1,10336],[92.9,10419],[93.8,10504],[94.9,10586],[95.8,10669],[96.6,10754],[96.8,10836],[97.1,10919],[97.7,11004],[97.9,11087],[98.2,11170],[98.4,11254],[98.4,11337],[98.4,11419],[98.4,11504],[98.4,11586],[98.4,11670],[98.4,11754],[98.4,11836],[98.4,11920],[98.4,12004],[98.4,12086],[98,12170],[97.8,12254],[97.4,12337],[97,12420],[96.7,12504],[96.6,12587],[96.4,12670],[96.4,12754],[96.4,12837],[96.4,12922],[96.4,13004],[96.4,13087],[96.4,13172],[96.4,13254],[96.3,13337],[96.3,13422],[96.3,13504],[96.3,13587],[96.3,13670],[96.3,13754],[96.3,13837],[96.3,13920],[96.3,14004],[96.3,14088],[96.3,14172],[96.3,14254],[96.3,14337],[96.3,14422],[96.3,14504],[96.3,14587],[96.3,14670],[96.3,14754],[96.3,14837],[96.3,14922],[96.3,15004],[96.3,15088],[96.3,15172],[96.3,15254],[96.3,15337],[96.3,15422],[96.3,15505],[96.3,15587],[96.3,15672],[96.3,15755],[96.3,15838],[96.3,15922],[96.3,16004],[96.3,16088],[96.3,16173],[96.3,16254],[96.3,16338],[96.3,16422],[96.3,16505],[96.3,16588],[96.3,16673],[94.8,16755],[92.8,16838],[91.5,16922],[90.1,17005],[88.6,17088],[88,17172],[87.7,17255],[87.7,17340],[87.7,17422],[86.8,17505],[85.4,17590],[84.5,17673],[82.7,17756],[80.9,17838],[80.4,17923],[80.4,18005],[80.4,18088],[80.7,18173],[85.4,18255],[89.5,18340],[92.3,18423],[93.1,18506],[93.8,18590],[93.9,18673],[94,18755],[94.6,18840],[94.8,18923],[94.8,19006],[94.8,19090],[94.8,19173],[94.8,19256],[94.8,19340],[94.8,19423],[94.8,19505],[94.8,19590],[94.8,19673],[94.8,19756],[94.8,19840],[94.8,19923],[94.8,20006],[94.8,20090],[94.8,20173],[94.8,20256],[94.8,20340],[94.8,20423],[94.8,20506],[94.8,20591],[94.8,20673],[94.8,20756],[94.8,20841],[94.8,20923],[94.8,21007],[94.8,21091],[94.8,21173],[94.8,21256],[94.8,21340],[94.8,21423],[94.8,21507],[94.8,21591],[94.8,21673],[94.8,21756],[94.8,21841],[94.8,21923],[94.8,22007],[94.8,22091],[94.8,22173],[94.8,22257],[94.8,22341],[94.8,22424],[94.8,22507],[94.8,22591],[94.8,22673],[94.8,22757],[94.8,22841],[94.8,22924],[94.8,23007],[94.8,23091],[94.8,23173],[94.8,23257],[94.8,23341],[94.8,23424],[94.8,23507],[94.8,23591],[94.8,23674],[94.8,23757],[94.8,23841],[94.8,23924],[94.8,24007],[94.8,24091],[94.8,24174],[94.8,24259],[94.8,24341],[94.8,24424],[94.8,24509],[94.8,24591],[94.8,24674],[94.8,24759],[94.8,24841]]",1,0,976.055,978.556,100,0.889,"[{""rating"":100,""responseTime"":0.88900000000001}]",space,1.973,,978.556,Partially,50,978.559,,,[],,0,7,7,7,1,audio/Narrative7Situation7.wav,audio/Narrative8Situation7.wav,audio/Narrative5Situation7.wav,audio/Narrative6Situation7.wav,5,3,4,5,,,,,,,,,,,,,,,,,,,,,,,,,,,,,,,,,,,,,,,
,,,,,,58a5d6527cf56d0001f92567,2024-02-08_16h10.46.518,group3.1-3.2-social-tom,2023.2.2,Win32,60.0240096,65c5074098b851296ff0b7ed,65c54335959171a351c7c19e,,,,,,,,,,,,,,,,,,,,,,,,,,,,,978.56,2,audio/Narrative6Situation8.wav,983.574,,983.574,990.443,"[[999,0],[999,82],[999,167],[999,249],[999,332],[999,417],[999,500],[999,583],[999,665],[999,750],[999,833],[999,917],[999,1000],[999,1083],[63.3,1167],[62.3,1250],[59.5,1333],[58.6,1417],[57.7,1500],[55.8,1583],[53.6,1667],[50.8,1750],[47.3,1833],[42.3,1917],[39.4,2000],[38,2082],[36.2,2167],[34.1,2250],[32.3,2333],[31.3,2418],[30.8,2500],[30.3,2583],[29.2,2668],[25.5,2750],[19.6,2833],[14.6,2918],[11.2,3000],[9.9,3083],[9.8,3167],[9.5,3250],[9.5,3333],[9.5,3417],[9.5,3500],[8.6,3583],[7.6,3667],[7.1,3750],[6.3,3833],[6.3,3918],[6.3,4000],[6.3,4083],[6.3,4168],[6.3,4250],[6.3,4335],[6.3,4418],[6.3,4500],[6.3,4585],[6.3,4668],[6.3,4750],[6.3,4835],[6.3,4918],[6.3,5000],[6.3,5085],[6.3,5168],[6.3,5250],[6.3,5335],[6.3,5418],[6.3,5500],[6.3,5585],[6.3,5668],[6.3,5751],[6.3,5835],[6.3,5918],[6.3,6001],[6.3,6085],[6.3,6168],[6.3,6251],[6.3,6335],[6.3,6418],[6.3,6501],[6.3,6585],[6.3,6668],[6.3,6751],[6.3,6835]]",1,0,990.443,994.578,2.5,3.016,"[{""rating"":6.25,""responseTime"":0.8229999999999791},{""rating"":2.500000000000002,""responseTime"":3.0159999999999627}]",space,3.609,,994.578,Not at all,0,994.58,,,[],,0,8,8,8,1,audio/Narrative7Situation8.wav,audio/Narrative8Situation8.wav,audio/Narrative5Situation8.wav,audio/Narrative6Situation8.wav,2,3,3,5,,,,,,,,,,,,,,,,,,,,,,,,,,,,,,,,,,,,,,,
,,,,,,58a5d6527cf56d0001f92567,2024-02-08_16h10.46.518,group3.1-3.2-social-tom,2023.2.2,Win32,60.0240096,65c5074098b851296ff0b7ed,65c54335959171a351c7c19e,,,,,,,,,,,,,,,,,,,,,,,,,,,,,994.58,2,audio/Narrative6Situation9.wav,998.596,,998.597,1008.55,"[[999,0],[999,81],[999,164],[999,249],[999,331],[999,414],[999,499],[999,581],[999,664],[999,749],[999,832],[999,915],[999,1000],[999,1082],[999,1165],[999,1249],[2.6,1332],[2.5,1415],[2.5,1500],[2.5,1582],[2.5,1665],[2.5,1749],[2.5,1832],[2.5,1915],[2.5,1999],[2.5,2082],[2.5,2165],[2.5,2249],[2.5,2332],[2.5,2415],[2.5,2500],[2.5,2582],[2.5,2665],[2.9,2750],[3,2832],[3.6,2916],[3.7,3000],[3.7,3082],[3.7,3166],[3.7,3250],[3.7,3333],[3.7,3416],[3.7,3500],[3.7,3582],[3.7,3666],[3.7,3750],[3.7,3832],[3.7,3916],[3.7,4000],[3.7,4082],[3.7,4166],[3.7,4250],[3.7,4333],[3.8,4418],[6.4,4500],[9.7,4583],[11.6,4666],[11.9,4750],[11.9,4833],[11.9,4916],[11.9,5000],[11.9,5083],[11.9,5166],[11.9,5250],[11.9,5333],[11.9,5418],[11.9,5500],[10.9,5583],[9.7,5666],[8.9,5750],[8.8,5834],[8.7,5918],[8.7,6000],[8.7,6083],[8.7,6168],[8.5,6250],[6.3,6333],[5.9,6418],[5.5,6500],[4.8,6584],[4.3,6668],[4.2,6750],[4.2,6833],[4.2,6918],[4.2,7000],[4.2,7084],[4,7168],[3.8,7251],[3.4,7334],[2.7,7418],[2.2,7500],[2.2,7584],[2.2,7668],[2.2,7751],[2.2,7834],[2.2,7918],[2.2,8000],[2.2,8084],[2.2,8168],[2.2,8250],[2.2,8334],[2.2,8418],[2.2,8501],[2.2,8584],[2.2,8668],[2.2,8751],[2.2,8836],[2.2,8918],[2.3,9001],[2.3,9086],[2.3,9168],[2.3,9251],[2.3,9334],[2.3,9418],[2.3,9501],[2.3,9586],[2.3,9668],[1.7,9751],[1.7,9836],[1.7,9918]]",1,0,1008.55,1011.718,0.546875,1.425,"[{""rating"":0.5468750000000022,""responseTime"":1.4249999999999545}]",space,2.635,,1011.718,Not at all,0,1011.72,,,[],,0,9,9,9,1,audio/Narrative7Situation9.wav,audio/Narrative8Situation9.wav,audio/Narrative5Situation9.wav,audio/Narrative6Situation9.wav,2,3,3,4,,,,,,,,,,,,,,,,,,,,,,,,,,,,,,,,,,,,,,,
,,,,,,58a5d6527cf56d0001f92567,2024-02-08_16h10.46.518,group3.1-3.2-social-tom,2023.2.2,Win32,60.0240096,65c5074098b851296ff0b7ed,65c54335959171a351c7c19e,,,,,,,,,,,,,,,,,,,,,,,,,,,,,1011.721,2,audio/Narrative5Situation1.wav,1016.736,,1016.736,1030.024,"[[999,0],[999,82],[999,166],[999,250],[999,332],[999,415],[999,499],[999,582],[999,666],[999,750],[999,834],[999,916],[999,1000],[2.5,1084],[1.8,1166],[1.1,1250],[1.1,1334],[1.1,1415],[1.1,1500],[1.1,1582],[1.1,1665],[2.6,1750],[3.4,1834],[3.5,1916],[3.7,2000],[4,2083],[4.4,2166],[4.5,2250],[4.8,2333],[4.9,2416],[5.3,2500],[5.5,2583],[5.7,2666],[5.9,2750],[6.3,2833],[6.4,2917],[6.6,2999],[6.7,3083],[7,3167],[7.1,3249],[7.3,3333],[7.4,3416],[7.6,3500],[7.6,3583],[7.7,3667],[7.7,3750],[7.9,3833],[7.9,3917],[7.9,4000],[7.9,4083],[7.9,4167],[7.9,4250],[7.9,4333],[7.9,4417],[7.9,4500],[7.9,4584],[7.9,4667],[7.9,4750],[7.9,4834],[7.9,4917],[7.9,5000],[7.9,5084],[7.9,5167],[7.9,5251],[7.9,5334],[8.3,5417],[8.8,5500],[8.9,5584],[9.1,5667],[9.3,5751],[9.5,5834],[9.6,5917],[9.8,6001],[9.9,6084],[9.9,6167],[10.1,6251],[10.1,6334],[10.1,6418],[10.1,6501],[10.1,6584],[10.1,6668],[10.1,6751],[9.8,6835],[9.5,6918],[9.4,7001],[9.4,7084],[9.3,7167],[9.3,7251],[9.3,7334],[9.3,7418],[9.3,7501],[9.1,7584],[8.8,7668],[8.4,7751],[8.2,7834],[8.2,7918],[8.2,8001],[8.2,8084],[8.2,8168],[8.2,8252],[8.2,8335],[8.2,8418],[8.2,8502],[8.2,8585],[8.2,8669],[8.2,8751],[8.2,8835],[8.2,8919],[8.2,9001],[8.2,9085],[8.2,9168],[8.2,9252],[8.2,9335],[8.2,9418],[8.2,9502],[8.2,9585],[6.8,9669],[5.9,9752],[5.3,9836],[4.6,9919],[4.5,10002],[4.5,10086],[4.5,10169],[4.5,10252],[5.5,10335],[6.2,10419],[7.3,10503],[8.3,10585],[9.8,10669],[10.6,10753],[11.4,10835],[12.5,10919],[14.1,11002],[18.4,11086],[27.4,11170],[43.8,11253],[56.7,11336],[60.1,11419],[60.9,11503],[60.9,11586],[60.9,11669],[54.6,11753],[42,11836],[37.8,11919],[37.4,12003],[37.3,12086],[37.3,12170],[37.3,12253],[37.3,12336],[37.3,12420],[37.3,12503],[37.3,12586],[37.3,12670],[37.3,12753],[37.3,12837],[37.3,12920],[37.3,13003],[37,13087],[37,13170],[37,13254]]",1,0,1030.024,1033.308,34.140625,1.923,"[{""rating"":34.140625,""responseTime"":1.9230000000000018}]",space,2.756,,1033.308,Definitely yes,100,1033.313,,,[],,0,10,10,10,1,audio/Narrative8Situation1.wav,audio/Narrative7Situation1.wav,audio/Narrative6Situation1.wav,audio/Narrative5Situation1.wav,5,2,2,5,,,,,,,,,,,,,,,,,,,,,,,,,,,,,,,,,,,,,,,
,,,,,,58a5d6527cf56d0001f92567,2024-02-08_16h10.46.518,group3.1-3.2-social-tom,2023.2.2,Win32,60.0240096,65c5074098b851296ff0b7ed,65c54335959171a351c7c19e,,,,,,,,,,,,,,,,,,,,,,,,,,,,,1033.313,2,audio/Narrative5Situation2.wav,1036.326,,1036.326,1065.803,"[[999,0],[999,83],[999,165],[999,249],[999,333],[999,417],[999,500],[999,583],[999,667],[999,750],[999,834],[999,917],[999,1000],[999,1084],[999,1167],[999,1250],[999,1334],[999,1417],[22,1500],[18.1,1583],[16.7,1667],[15.7,1750],[14.6,1834],[13.7,1917],[13.6,2000],[13.6,2084],[13.6,2167],[13.6,2250],[13.6,2334],[13.6,2417],[13.6,2500],[13.6,2584],[13.6,2667],[13.6,2750],[13.6,2835],[13.6,2918],[13.6,3000],[13.6,3085],[13.6,3168],[13.6,3250],[13.6,3335],[13.6,3417],[13.6,3500],[14,3585],[14.5,3668],[14.8,3750],[14.8,3835],[11,3918],[8.6,4000],[7,4085],[6.7,4168],[5.3,4250],[4.3,4334],[3.9,4418],[3.6,4500],[3.6,4585],[3.6,4668],[3.6,4750],[3.6,4835],[3.6,4919],[3.6,5001],[3.6,5085],[3.7,5169],[4.4,5251],[5.5,5336],[6.5,5418],[7.4,5501],[7.6,5585],[7.6,5668],[7.6,5750],[7.6,5835],[7.6,5919],[6.4,6001],[4.4,6085],[2,6169],[1.5,6251],[1.5,6335],[1.5,6419],[1.5,6501],[1.5,6585],[1.5,6668],[1.5,6751],[1.5,6836],[1.5,6919],[1.8,7001],[2.2,7086],[2.6,7170],[2.9,7251],[3.2,7336],[3.6,7419],[4.1,7501],[4.3,7585],[4.8,7669],[5,7752],[5,7836],[5,7919],[5,8002],[5,8086],[5,8169],[5,8252],[5,8336],[5,8419],[5,8501],[5,8586],[5,8670],[5,8752],[5,8836],[5,8920],[5,9002],[5,9086],[5,9169],[4.7,9252],[4.1,9336],[3.7,9420],[3.4,9504],[3,9586],[3,9670],[3,9754],[3,9836],[3,9920],[3,10004],[3,10086],[3,10170],[3,10254],[3,10336],[3,10421],[3,10502],[3,10586],[3,10671],[3,10752],[3,10836],[3,10921],[3,11004],[3,11086],[3,11170],[2.4,11254],[2,11337],[2,11420],[2,11504],[3,11587],[3.8,11670],[3.8,11755],[3.8,11837],[3.8,11920],[3.8,12004],[3.8,12086],[3.8,12171],[3.8,12254],[3.8,12336],[3.8,12421],[3.8,12505],[3.8,12586],[3.8,12671],[3.8,12755],[3.8,12837],[3.8,12921],[3.8,13004],[3.8,13087],[3.8,13172],[4.1,13254],[4.2,13337],[4.2,13421],[4.2,13505],[4.1,13587],[4,13671],[4,13755],[4,13837],[4,13922],[4,14005],[4,14087],[4,14172],[4,14255],[4,14337],[4,14422],[4,14505],[4,14587],[4,14671],[4,14755],[4,14838],[4,14922],[4.1,15005],[4.1,15087],[4.1,15172],[4.1,15256],[4.1,15338],[4.1,15422],[4.1,15505],[4.1,15588],[4.1,15672],[4.1,15756],[4.1,15838],[3.8,15922],[3.2,16006],[3.1,16088],[3.1,16172],[3.1,16256],[3.1,16338],[3.1,16422],[3.1,16505],[3.1,16588],[3.1,16673],[3.1,16755],[3.1,16838],[3.1,16922],[3.1,17006],[3.1,17090],[3.1,17173],[3.1,17256],[3.1,17338],[3.1,17423],[3.1,17506],[3.1,17588],[3.1,17673],[3.1,17756],[3.1,17838],[3.1,17923],[3.1,18006],[3.1,18090],[3.1,18173],[3.1,18257],[3,18340],[2.7,18423],[2.7,18506],[2.7,18590],[2.7,18673],[2.7,18756],[2.7,18838],[2.4,18923],[1.9,19007],[1.8,19090],[1.8,19173],[1.8,19257],[1.8,19340],[1.8,19423],[1.8,19507],[1.8,19591],[1.8,19673],[1.8,19757],[1.8,19840],[1.8,19923],[1.8,20007],[1.8,20091],[1.8,20173],[1.8,20257],[1.8,20340],[1.8,20423],[1.8,20508],[1.8,20591],[1.8,20673],[1.8,20757],[1.8,20841],[1.8,20923],[1.8,21007],[1.8,21091],[1.8,21173],[1.8,21258],[1.8,21341],[1.8,21424],[1.8,21507],[1.8,21591],[1.8,21673],[1.8,21758],[1.8,21841],[1.8,21923],[1.8,22007],[1.8,22091],[1.8,22174],[1.8,22258],[1.8,22341],[1.8,22423],[1.8,22507],[1.8,22591],[1.8,22673],[1.8,22758],[1.8,22841],[1.8,22923],[1.8,23008],[1.8,23092],[1.8,23174],[1.8,23258],[1.8,23341],[1.8,23423],[1.8,23508],[1.8,23592],[1.8,23674],[1.8,23758],[1.8,23841],[1.8,23924],[1.8,24008],[2.4,24092],[2.6,24174],[2.6,24258],[2.6,24341],[2.6,24424],[2.6,24508],[2.6,24592],[2.6,24674],[2.6,24759],[2.6,24842],[2.6,24925],[2.6,25009],[2.6,25092],[2.6,25175],[2.6,25259],[2.6,25342],[2.6,25425],[2.6,25509],[2.6,25592],[2.6,25674],[2.6,25759],[2.6,25842],[2.6,25924],[2.6,26009],[2.6,26092],[2.6,26175],[2.6,26259],[2.6,26342],[2.6,26425],[2.6,26509],[2.6,26593],[2.6,26675],[2.6,26759],[2.6,26842],[2.6,26925],[2.6,27009],[2.6,27093],[2.6,27177],[2.6,27259],[2.6,27343],[2.6,27425],[2.6,27509],[2.6,27594],[2.6,27675],[2.6,27759],[2.6,27844],[2.6,27925],[2.6,28009],[2.6,28094],[2.6,28175],[2.6,28259],[3.4,28343],[3.7,28427],[3.7,28509],[3.7,28593],[3.7,28675],[3.7,28759],[3.7,28843],[3.7,28927],[3.7,29009],[3.7,29093],[3.7,29177],[3.7,29259],[3.7,29344],[3.7,29427]]",1,0,1065.803,1070.688,10.3125,3.973,"[{""rating"":4.6875,""responseTime"":0.7719999999999345},{""rating"":10.312500000000002,""responseTime"":3.9729999999999563}]",space,4.352,,1070.689,Not at all,0,1070.693,,,[],,0,11,11,11,1,audio/Narrative8Situation2.wav,audio/Narrative7Situation2.wav,audio/Narrative6Situation2.wav,audio/Narrative5Situation2.wav,3,3,3,3,,,,,,,,,,,,,,,,,,,,,,,,,,,,,,,,,,,,,,,
,,,,,,58a5d6527cf56d0001f92567,2024-02-08_16h10.46.518,group3.1-3.2-social-tom,2023.2.2,Win32,60.0240096,65c5074098b851296ff0b7ed,65c54335959171a351c7c19e,,,,,,,,,,,,,,,,,,,,,,,,,,,,,1070.693,2,audio/Narrative5Situation3.wav,1073.706,,1073.706,1087.628,"[[9.4,582],[8,666],[7.7,750],[7.1,833],[5.6,916],[4.5,1000],[4.1,1082],[3.8,1166],[3.8,1250],[3.8,1333],[3.8,1416],[3.8,1500],[3.8,1583],[3.8,1666],[3.8,1750],[3.8,1833],[3.8,1917],[3.8,2000],[3.8,2083],[3.8,2167],[3.8,2250],[3.8,2333],[3.8,2416],[3.8,2500],[3.8,2585],[3.8,2667],[3.8,2750],[3.8,2835],[3.8,2917],[3.8,3000],[4.8,3085],[8.2,3167],[15.9,3250],[28.2,3333],[39.4,3417],[43.8,3501],[46.3,3585],[46.5,3667],[46.5,3750],[46.5,3833],[46.5,3917],[46.5,4001],[46.5,4085],[46.3,4167],[43.9,4251],[40.2,4335],[36.5,4418],[34.9,4501],[34.9,4583],[34.6,4667],[34.3,4751],[34.3,4835],[34.1,4918],[33.9,5001],[33.9,5086],[33.9,5167],[33.9,5251],[36.6,5335],[44.5,5418],[56,5501],[74,5751],[76.6,5835],[78.8,5918],[79.3,6001],[79.3,6085],[79.3,6168],[79.3,6251],[79.3,6335],[79.3,6418],[79.3,6501],[79.3,6585],[79.3,6667],[79.3,6751],[79.3,6836],[79.3,6918],[79.3,7001],[79.3,7086],[79.3,7168],[79.3,7252],[80.1,7336],[83,7418],[86,7502],[87,7586],[87.7,7668],[87.9,7752],[87.9,7836],[87.9,7918],[87.9,8002],[87.9,8086],[87.8,8168],[87.7,8252],[87.2,8336],[87,8419],[87,8502],[86.9,8586],[86.9,8669],[86.9,8752],[86.9,8836],[86.9,8919],[86.9,9002],[86.9,9086],[86.9,9169],[86.9,9252],[86.9,9336],[86.9,9418],[86.9,9502],[86.9,9586],[86.9,9668],[86.9,9752],[86.9,9836],[86.9,9919],[86.9,10002],[86.9,10086],[86.9,10169],[86.9,10252],[86.9,10336],[86.9,10419],[86.9,10502],[86.9,10586],[86.9,10669],[86.9,10753],[86.9,10836],[86.9,10920],[86.9,11002],[86.9,11086],[86.9,11170],[86.9,11253],[86.9,11336],[86.9,11420],[86.9,11503],[86.9,11586],[86.4,11670],[85.9,11753],[84.9,11836],[83.4,11920],[82.9,12003],[82.9,12086],[82.9,12170],[81.9,12253],[81.5,12337],[80.5,12420],[78.5,12503],[76.8,12587],[75.8,12670],[75.2,12753],[75.2,12836],[75.2,12920],[75.2,13004],[75.2,13087],[75.2,13170],[75.2,13254],[75.2,13337],[75.2,13420],[75.2,13504],[75.2,13587],[75.2,13670],[75.2,13754],[75.2,13837],[75.2,13922]]",1,0,1087.628,1090.545,65.625,0.821,"[{""rating"":65.625,""responseTime"":0.8209999999999127}]",space,2.375,,1090.545,Partially,50,1090.548,,,[],,0,12,12,12,1,audio/Narrative8Situation3.wav,audio/Narrative7Situation3.wav,audio/Narrative6Situation3.wav,audio/Narrative5Situation3.wav,4,8,5,3,,,,,,,,,,,,,,,,,,,,,,,,,,,,,,,,,,,,,,,
,,,,,,58a5d6527cf56d0001f92567,2024-02-08_16h10.46.518,group3.1-3.2-social-tom,2023.2.2,Win32,60.0240096,65c5074098b851296ff0b7ed,65c54335959171a351c7c19e,,,,,,,,,,,,,,,,,,,,,,,,,,,,,1090.549,2,audio/Narrative5Situation4.wav,1091.563,,1091.563,1111.953,"[[65.4,250],[64.5,332],[64.3,415],[64.3,500],[63.3,582],[61.3,666],[55.5,749],[48.3,832],[41.7,916],[38.5,999],[37.3,1082],[34.6,1165],[32.2,1250],[30.1,1332],[28.2,1415],[26.9,1500],[26.3,1584],[26.1,1666],[25.4,1750],[23.9,1834],[22.7,1916],[20.8,2000],[18.6,2084],[17.7,2166],[17.7,2250],[17.7,2332],[17.7,2416],[17.7,2500],[17.7,2582],[17.7,2666],[17.7,2750],[20.2,2832],[27.8,2916],[38.4,3000],[44,3082],[44.9,3166],[44.9,3250],[44.9,3334],[44.9,3417],[44.1,3500],[40.6,3584],[33,3667],[15.5,4084],[13.4,4166],[11.9,4250],[10.9,4334],[10.7,4417],[10.5,4500],[10.5,4584],[10.5,4667],[10.5,4750],[10.5,4834],[10.5,4917],[10.5,5000],[10.5,5085],[10.5,5167],[10.5,5250],[10.5,5334],[10.5,5416],[10.5,5501],[10.5,5584],[10.5,5667],[10.5,5750],[10.5,5834],[10.5,5917],[10.5,6001],[10.5,6084],[10.5,6167],[10.5,6251],[10.5,6334],[10.5,6418],[10.5,6501],[10.5,6585],[9.8,6667],[9.3,6751],[9.3,6835],[8.8,6918],[8.2,7001],[8,7085],[7.6,7167],[7.3,7251],[6.7,7336],[5.6,7417],[5.5,7501],[5.4,7585],[5.4,7667],[5.4,7751],[5.4,7836],[5.4,7917],[5.4,8001],[5.4,8085],[5.4,8167],[5.4,8251],[5.4,8335],[5.4,8417],[5.4,8501],[5.4,8586],[5.4,8668],[5.4,8751],[5.4,8836],[5.4,8918],[5.4,9001],[5.4,9086],[5.4,9168],[5.4,9252],[5.4,9336],[5.4,9420],[5.4,9502],[5.4,9586],[5.4,9668],[5.4,9752],[5.4,9836],[5.4,9918],[5.4,10001],[7,10086],[11.8,10170],[17.3,10252],[22.8,10336],[27.2,10420],[30.5,10502],[35.2,10586],[40.3,10670],[44.8,10752],[47.3,10836],[48.3,10920],[48.4,11002],[48.4,11086],[48.4,11170],[48.4,11252],[48.4,11336],[48.4,11418],[48.4,11502],[48.4,11586],[48.7,11670],[48.9,11752],[48.9,11836],[48.9,11920],[48.9,12003],[48.9,12086],[48.9,12170],[48.9,12252],[48.9,12336],[48.9,12421],[48.9,12503],[48.9,12586],[48.9,12671],[48.9,12753],[48.9,12836],[48.9,12920],[48.9,13003],[48.9,13086],[48.9,13171],[49.5,13253],[50,13336],[50,13420],[50,13503],[50,13587],[50,13671],[50,13753],[50,13836],[50,13921],[50,14004],[50,14087],[50,14171],[50,14253],[49.9,14336],[49.9,14421],[49.9,14504],[49.9,14587],[49.9,14671],[50.2,14753],[51.2,14837],[52.1,14921],[52.3,15004],[52.7,15087],[53,15171],[53.4,15253],[53.8,15337],[54.5,15422],[55.5,15504],[56.7,15587],[58.8,15672],[61.8,15754],[65.9,15838],[68.9,15922],[71.3,16004],[72,16087],[72,16171],[73.3,16254],[76.5,16337],[79.5,16422],[80.8,16504],[81.8,16587],[83,16672],[84.7,16755],[86.2,16838],[87,16923],[87.3,17004],[87.3,17087],[87.3,17172],[87.3,17254],[87.3,17338],[87.3,17422],[87.3,17504],[87.3,17588],[87.3,17673],[87,17755],[86.5,17838],[85.8,17922],[85.3,18005],[85.1,18088],[85,18172],[85,18255],[85,18339],[85,18422],[85,18505],[85,18588],[85,18673],[85,18754],[85,18838],[85,18923],[85,19005],[85,19088],[85,19173],[85,19257],[85,19338],[85,19423],[85,19505],[85,19589],[85,19673],[85,19755],[85,19838],[85,19923],[85,20005],[85,20089],[85,20173],[85,20255],[85,20339]]",1,0,1111.953,1114.071,86.171875,0.606,"[{""rating"":86.171875,""responseTime"":0.6060000000002219}]",space,1.586,,1114.071,Not at all,0,1114.074,,,[],,0,13,13,13,1,audio/Narrative8Situation4.wav,audio/Narrative7Situation4.wav,audio/Narrative6Situation4.wav,audio/Narrative5Situation4.wav,3,3,2,1,,,,,,,,,,,,,,,,,,,,,,,,,,,,,,,,,,,,,,,
