exp_question,consent.started,consent.stopped,consentResponse.keys,consentResponse.rt,consentResponse.duration,participantID,date,expName,psychopyVersion,OS,frameRate,STUDY_ID,SESSION_ID,opening1.started,opening1.stopped,keyEndingOpening1.keys,keyEndingOpening1.rt,keyEndingOpening1.duration,volumeAdjust.started,volumeAdjust.stopped,endingAdjust.keys,endingAdjust.rt,endingAdjust.duration,opening2.started,opening2.stopped,keyEndingOpening.keys,keyEndingOpening.rt,keyEndingOpening.duration,mouse.x,mouse.y,mouse.leftButton,mouse.midButton,mouse.rightButton,mouse.time,instructionLoop.thisRepN,instructionLoop.thisTrialN,instructionLoop.thisN,instructionLoop.thisIndex,instructionLoop.ran,readyForAudio.started,readyForAudio.stopped,fixation.started,run,audio_played,fixation.stopped,endPractice.keys,audioPre.started,audioPre.stopped,continuousResponses_audio,continuousSlider.response,continuousSlider.rt,intRating.started,intRating.stopped,intQuestionSlider.response,intQuestionSlider.rt,intQuestionSlider.history,confirmResponse.keys,confirmResponse.rt,confirmResponse.duration,catchQuestion.started,catch_label,catch_value,catchQuestion.stopped,catchQuestionSlider.response,catchQuestionSlider.rt,catchQuestionSlider.history,confirmResponse_2.keys,audioRunLoop.thisRepN,audioRunLoop.thisTrialN,audioRunLoop.thisN,audioRunLoop.thisIndex,audioRunLoop.ran,conditions1_1,conditions2_1,conditions1_2,conditions2_2,dur1_1,dur2_1,dur1_2,dur2_2,endPractice.rt,endPractice.duration,confirmResponse_2.rt,confirmResponse_2.duration,runIntervalBreak.started,runIntervalBreak.stopped,endingBreakKey.keys,endingBreakKey.rt,endingBreakKey.duration,connection.started,connection.stopped,connectionEnding.keys,connectionEnding.rt,connectionEnding.duration,readyForText.started,readyForText.stopped,textPre.started,run_dup,textPre.stopped,continuousResponses_text,textRunLoop.thisRepN,textRunLoop.thisTrialN,textRunLoop.thisN,textRunLoop.thisIndex,textRunLoop.ran,text1_1,text1_2,text2_1,text2_2,runBreakText.started,runBreakText.stopped,endingBreakKey_2.keys,endingBreakKey_2.rt,endingBreakKey_2.duration,ending.started,ending.stopped,endingEnding.keys,endingEnding.rt,endingEnding.duration
tom,0.0002,127.6092,y,127.2967,,58c38ef58158840001b5c230,2024-05-13_11h33.20.833,group3.1-3.2-social-tom,2023.2.2,Win32,119.047619,65c5074098b851296ff0b7ed,664232aed1cad9e7129cc974,,,,,,,,,,,,,,,,,,,,,,,,,,,,,,,,,,,,,,,,,,,,,,,,,,,,,,,,,,,,,,,,,,,,,,,,,,,,,,,,,,,,,,,,,,,,,,,,,,,,,,,,,,
,,,,,,58c38ef58158840001b5c230,2024-05-13_11h33.20.833,group3.1-3.2-social-tom,2023.2.2,Win32,119.047619,65c5074098b851296ff0b7ed,664232aed1cad9e7129cc974,127.6093,240.5636,space,112.9456,,,,,,,,,,,,,,,,,,,,,,,,,,,,,,,,,,,,,,,,,,,,,,,,,,,,,,,,,,,,,,,,,,,,,,,,,,,,,,,,,,,,,,,,,,,,,,,,,,,,,,
,,,,,,58c38ef58158840001b5c230,2024-05-13_11h33.20.833,group3.1-3.2-social-tom,2023.2.2,Win32,119.047619,65c5074098b851296ff0b7ed,664232aed1cad9e7129cc974,,,,,,240.5638,248.9999,space,8.1316,,,,,,,,,,,,,,,,,,,,,,,,,,,,,,,,,,,,,,,,,,,,,,,,,,,,,,,,,,,,,,,,,,,,,,,,,,,,,,,,,,,,,,,,,,,,,,,,,
,,,,,,58c38ef58158840001b5c230,2024-05-13_11h33.20.833,group3.1-3.2-social-tom,2023.2.2,Win32,119.047619,65c5074098b851296ff0b7ed,664232aed1cad9e7129cc974,,,,,,,,,,,249.0078,255.2747,space,6.2574,,[],[],[],[],[],[],0,0,0,0,1,,,,,,,,,,,,,,,,,,,,,,,,,,,,,,,,,,,,,,,,,,,,,,,,,,,,,,,,,,,,,,,,,,,,,,,,,,,,,,,,
,,,,,,58c38ef58158840001b5c230,2024-05-13_11h33.20.833,group3.1-3.2-social-tom,2023.2.2,Win32,119.047619,65c5074098b851296ff0b7ed,664232aed1cad9e7129cc974,,,,,,,,,,,255.2797,470.8642,space,215.5256,,[],[],[],[],[],[],1,0,1,0,1,,,,,,,,,,,,,,,,,,,,,,,,,,,,,,,,,,,,,,,,,,,,,,,,,,,,,,,,,,,,,,,,,,,,,,,,,,,,,,,,
,,,,,,58c38ef58158840001b5c230,2024-05-13_11h33.20.833,group3.1-3.2-social-tom,2023.2.2,Win32,119.047619,65c5074098b851296ff0b7ed,664232aed1cad9e7129cc974,,,,,,,,,,,470.8644,607.5377,space,136.648,,"[-0.30760986066452306,-0.2357984994640943,0.2797427652733119,0.42443729903536975,0.2433011789924973]","[-0.7468619246861925,-0.7677824267782427,-0.7677824267782427,-0.7761506276150628,-0.7447698744769874]","[1,1,1,1,1]","[0,0,0,0,0]","[0,0,0,0,0]","[3.4220000000000255,4.4465000000000146,5.79660000002383,6.479900000035741,7.54660000002383]",2,0,2,0,1,,,,,,,,,,,,,,,,,,,,,,,,,,,,,,,,,,,,,,,,,,,,,,,,,,,,,,,,,,,,,,,,,,,,,,,,,,,,,,,,
,,,,,,58c38ef58158840001b5c230,2024-05-13_11h33.20.833,group3.1-3.2-social-tom,2023.2.2,Win32,119.047619,65c5074098b851296ff0b7ed,664232aed1cad9e7129cc974,,,,,,,,,,,607.543,928.235,space,320.6774,,[],[],[],[],[],[],3,0,3,0,1,,,,,,,,,,,,,,,,,,,,,,,,,,,,,,,,,,,,,,,,,,,,,,,,,,,,,,,,,,,,,,,,,,,,,,,,,,,,,,,,
,,,,,,58c38ef58158840001b5c230,2024-05-13_11h33.20.833,group3.1-3.2-social-tom,2023.2.2,Win32,119.047619,65c5074098b851296ff0b7ed,664232aed1cad9e7129cc974,,,,,,,,,,,928.2403,932.8183,space,4.5654,,[],[],[],[],[],[],4,0,4,0,1,,,,,,,,,,,,,,,,,,,,,,,,,,,,,,,,,,,,,,,,,,,,,,,,,,,,,,,,,,,,,,,,,,,,,,,,,,,,,,,,
,,,,,,58c38ef58158840001b5c230,2024-05-13_11h33.20.833,group3.1-3.2-social-tom,2023.2.2,Win32,119.047619,65c5074098b851296ff0b7ed,664232aed1cad9e7129cc974,,,,,,,,,,,,,,,,,,,,,,,,,,,932.8252,935.4025,935.4143,1,audio/Narrative13Situation2.wav,954.3291,,954.3293,984.0601,"[[999,8],[999,88],[999,172],[999,255],[999,338],[999,421],[999,505],[999,6563],[999,6652],[999,6730],[999,6813],[999,6896],[999,6980],[999,7063],[999,7146],[999,7230],[999,7313],[999,7396],[999,7480],[999,7563],[999,7646],[999,7729],[999,7813],[999,7896],[999,7979],[999,8063],[999,8146],[999,8229],[999,8313],[999,8396],[999,8480],[999,8563],[999,8646],[999,8729],[999,8813],[999,8896],[999,8980],[999,9063],[999,9146],[999,9229],[999,9313],[999,9396],[999,9479],[999,9563],[999,9646],[999,9729],[999,9813],[999,9896],[999,9979],[999,10063],[999,10146],[999,10230],[999,10313],[999,10396],[999,10479],[999,10563],[999,10646],[999,10729],[999,10813],[999,10896],[999,10980],[999,11063],[999,11146],[999,11229],[999,11313],[999,11396],[999,11480],[999,11563],[999,11646],[999,11729],[999,11813],[999,11896],[999,11979],[999,12063],[999,12146],[999,12230],[999,12313],[999,12396],[999,12480],[999,12563],[999,12646],[999,12729],[999,12813],[999,12896],[999,12980],[999,13063],[999,13146],[999,13229],[999,13313],[999,13396],[999,13479],[999,13563],[999,13646],[999,13729],[999,13813],[999,13896],[999,13979],[999,14063],[999,14146],[999,14229],[999,14313],[999,14396],[999,14479],[999,14563],[999,14646],[999,14729],[999,14813],[999,14896],[999,14980],[999,15063],[999,15146],[999,15229],[999,15313],[999,15396],[999,15479],[999,15563],[999,15646],[999,15729],[999,15813],[999,15896],[999,15979],[999,16063],[999,16146],[999,16229],[999,16313],[999,16396],[999,16479],[999,16563],[999,16646],[999,16729],[999,16813],[999,16896],[999,16979],[999,17063],[999,17146],[999,17229],[999,17313],[999,17396],[999,17479],[999,17563],[999,17646],[999,17729],[999,17813],[999,17896],[999,17979],[999,18063],[999,18146],[999,18230],[999,18313],[999,18396],[999,18480],[999,18563],[999,18646],[999,18730],[999,18813],[999,18896],[999,18980],[999,19063],[999,19146],[999,19238],[999,19329],[999,19413],[999,19496],[999,19579],[999,19663],[999,19749],[999,19829],[999,19913],[999,19996],[999,20080],[999,20163],[999,20246],[49.9,20330],[50.9,22164]]",1,0,984.0602,994.9261,48.49946409,10.3213,"[{""rating"":48.71382636655949,""responseTime"":3.909399999976131},{""rating"":48.4994640943194,""responseTime"":10.321300000011888}]",space,10.3467,,994.9263,Not at all,0,994.9289,,,[],,0,0,0,0,1,audio/Narrative13Situation2.wav,audio/Narrative13Situation2.wav,audio/Narrative13Situation2.wav,audio/Narrative13Situation2.wav,2,2,2,2,,,,,,,,,,,,,,,,,,,,,,,,,,,,,,,,,,,,,,,
,,,,,,58c38ef58158840001b5c230,2024-05-13_11h33.20.833,group3.1-3.2-social-tom,2023.2.2,Win32,119.047619,65c5074098b851296ff0b7ed,664232aed1cad9e7129cc974,,,,,,,,,,,,,,,,,,,,,,,,,,,,,994.929,1,audio/Narrative7Situation1.wav,1084.7416,space,1084.7416,1140.616,"[[49.6,416],[48.2,1000],[48.6,1083],[48.6,1166],[48.6,1249],[48.6,1333],[48.6,1416],[48.6,1499],[48.6,1583],[48.6,1666],[48.6,1749],[48.6,1833],[48.6,1916],[48.6,1999],[48.8,2083]]",1,0,1140.6161,1145.5493,48.39228296,4.7676,"[{""rating"":46.034297963558416,""responseTime"":2.185600000023669},{""rating"":48.39228295819936,""responseTime"":4.767600000023776}]",space,4.4161,,1145.5494,Half the time,50,1145.5514,,,[],,0,1,1,1,1,audio/Narrative7Situation1.wav,audio/Narrative8Situation1.wav,audio/Narrative5Situation1.wav,audio/Narrative6Situation1.wav,2,5,5,2,89.7995,,,,,,,,,,,,,,,,,,,,,,,,,,,,,,,,,,,,,,
,,,,,,58c38ef58158840001b5c230,2024-05-13_11h33.20.833,group3.1-3.2-social-tom,2023.2.2,Win32,119.047619,65c5074098b851296ff0b7ed,664232aed1cad9e7129cc974,,,,,,,,,,,,,,,,,,,,,,,,,,,,,1145.5515,1,audio/Narrative7Situation2.wav,1148.5577,,1148.5577,1156.0159,"[[999,0],[999,83],[50.4,167],[50.3,834],[56.4,1250],[57.6,1334],[57.9,1417],[58.1,1500],[59.2,1583]]",1,0,1156.016,1158.6241,100,2.4461,"[{""rating"":100,""responseTime"":2.44609999996419}]",space,2.0843,,1158.6242,All the time,100,1158.6263,,,[],,0,2,2,2,1,audio/Narrative7Situation2.wav,audio/Narrative8Situation2.wav,audio/Narrative5Situation2.wav,audio/Narrative6Situation2.wav,3,3,3,3,,,,,,,,,,,,,,,,,,,,,,,,,,,,,,,,,,,,,,,
,,,,,,58c38ef58158840001b5c230,2024-05-13_11h33.20.833,group3.1-3.2-social-tom,2023.2.2,Win32,119.047619,65c5074098b851296ff0b7ed,664232aed1cad9e7129cc974,,,,,,,,,,,,,,,,,,,,,,,,,,,,,1158.6265,1,audio/Narrative7Situation3.wav,1166.6325,,1166.6325,1175.874,"[[999,5],[999,83],[999,166],[999,249],[999,333],[999,416],[999,499],[999,583],[999,666],[999,749],[999,833],[999,916],[999,999],[999,1083],[999,1166],[999,1249],[999,1333],[999,1416],[999,1499],[999,1583],[999,1666],[999,1749],[999,1833],[999,1916],[999,2000],[999,2083],[999,2166],[999,2249],[999,2333],[999,2416],[999,2499],[999,2583],[999,2666],[999,2750],[999,2833],[999,2916],[999,3000],[999,3083],[999,3166],[999,3249],[999,3333],[999,3416],[999,3499],[999,3583],[999,3666],[999,3750],[999,3833],[999,3916],[999,4000],[999,4083],[999,4166],[999,4249],[999,4333],[999,4416],[999,4499],[999,4583],[999,4666],[999,4749],[999,4833],[999,4916],[999,4999],[999,5083],[999,5166],[999,5249],[999,5333],[999,5416],[999,5499],[999,5583],[999,5666],[999,5749],[999,5833],[999,5916],[999,6000],[999,6083],[999,6166],[999,6249],[999,6333],[999,6416],[999,6499],[999,6583],[999,6666],[999,6749],[999,6833],[999,6916],[999,6999],[999,7083],[999,7166],[999,7250],[999,7333],[999,7416],[999,7499],[999,7583],[999,7666],[999,7749],[999,7833],[999,7916],[999,7999],[999,8083],[999,8166],[999,8249],[999,8333],[999,8416],[999,8499],[999,8583],[999,8666],[999,8749],[999,8833],[999,8916],[999,8999],[999,9083],[999,9166]]",1,0,1175.8741,1178.1156,51.39335477,2.0437,"[{""rating"":51.39335476956056,""responseTime"":2.0436999999878935}]",space,1.7182,,1178.1157,All the time,100,1178.1167,,,[],,0,3,3,3,1,audio/Narrative7Situation3.wav,audio/Narrative8Situation3.wav,audio/Narrative5Situation3.wav,audio/Narrative6Situation3.wav,8,4,3,5,,,,,,,,,,,,,,,,,,,,,,,,,,,,,,,,,,,,,,,
,,,,,,58c38ef58158840001b5c230,2024-05-13_11h33.20.833,group3.1-3.2-social-tom,2023.2.2,Win32,119.047619,65c5074098b851296ff0b7ed,664232aed1cad9e7129cc974,,,,,,,,,,,,,,,,,,,,,,,,,,,,,1178.1168,1,audio/Narrative7Situation4.wav,1181.124,,1181.1241,1192.8405,"[[999,0],[999,83],[999,166],[999,249],[999,333],[999,416],[999,499],[999,583],[999,666],[999,749],[999,833],[999,916],[999,999],[999,1083],[999,1166],[999,1249],[999,1333],[999,1416],[999,1499],[999,1583],[999,1666],[999,1749],[999,1833],[999,1916],[999,2000],[999,2083],[999,2166],[999,2249],[999,2333],[999,2416],[999,2499],[999,2583],[999,2666],[999,2749],[999,2833],[999,2916],[999,2999],[999,3083],[999,3166],[999,3249],[999,3333],[999,3416],[999,3499],[999,3583],[999,3666],[999,3749],[999,3833],[999,3917],[999,3999],[999,4083],[999,4166],[999,4250],[999,4333],[999,4416],[999,4499],[999,4583],[999,4666],[999,4749],[999,4833],[999,4916],[999,4999],[999,5083],[999,5166],[999,5249],[999,5333],[999,5416],[999,5499],[999,5583],[999,5666],[999,5749],[999,5833],[999,5916],[999,5999],[999,6083],[999,6166],[999,6249],[999,6333],[999,6416],[999,6499],[999,6583],[999,6666],[999,6749],[999,6833],[999,6916],[999,6999],[999,7083],[999,7166],[999,7249],[999,7333],[999,7416],[999,7499],[999,7583],[999,7666],[999,7749],[999,7833],[999,7916],[999,7999],[999,8083],[999,8166],[999,8249],[999,8333],[999,8416],[999,8499],[999,8583],[999,8666],[999,8749],[999,8833],[999,8916],[999,8999],[999,9083],[999,9166],[999,9250],[999,9333],[999,9416],[999,9499],[999,9583],[999,9666],[999,9749],[999,9833],[999,9916],[999,9999],[999,10083],[999,10166],[999,10249],[999,10333],[999,10416],[999,10499],[999,10583],[999,10666],[999,10749],[999,10833],[999,10916],[999,10999],[999,11083],[999,11166],[999,11249],[999,11333],[999,11416],[999,11499],[999,11583],[999,11666]]",1,0,1192.8406,1199.4072,100,6.5551,"[{""rating"":100,""responseTime"":6.555100000023685}]",space,4.3655,,1199.4072,Not at all,0,1199.409,,,[],,0,4,4,4,1,audio/Narrative7Situation4.wav,audio/Narrative8Situation4.wav,audio/Narrative5Situation4.wav,audio/Narrative6Situation4.wav,3,3,1,2,,,,,,,,,,,,,,,,,,,,,,,,,,,,,,,,,,,,,,,
,,,,,,58c38ef58158840001b5c230,2024-05-13_11h33.20.833,group3.1-3.2-social-tom,2023.2.2,Win32,119.047619,65c5074098b851296ff0b7ed,664232aed1cad9e7129cc974,,,,,,,,,,,,,,,,,,,,,,,,,,,,,1199.4091,1,audio/Narrative7Situation5.wav,1204.4155,,1204.4155,1270.1404,"[[999,5],[999,83],[999,166],[999,249],[999,333],[999,416],[999,499]]",1,0,1270.1405,1272.6572,49.67845659,2.1509,"[{""rating"":49.67845659163987,""responseTime"":2.150899999976218}]",space,1.9905,,1272.6573,All the time,100,1272.6591,,,[],,0,5,5,5,1,audio/Narrative7Situation5.wav,audio/Narrative8Situation5.wav,audio/Narrative5Situation5.wav,audio/Narrative6Situation5.wav,5,2,5,2,,,,,,,,,,,,,,,,,,,,,,,,,,,,,,,,,,,,,,,
,,,,,,58c38ef58158840001b5c230,2024-05-13_11h33.20.833,group3.1-3.2-social-tom,2023.2.2,Win32,119.047619,65c5074098b851296ff0b7ed,664232aed1cad9e7129cc974,,,,,,,,,,,,,,,,,,,,,,,,,,,,,1272.6591,1,audio/Narrative7Situation6.wav,1275.6648,,1275.6648,1285.6239,"[[999,0],[999,83],[999,166],[999,249],[999,333],[999,416],[999,499],[999,583],[999,666],[999,750],[999,833],[999,916],[999,999],[999,1083],[999,1166],[999,1249],[999,1333],[999,1416],[999,1499],[999,1583],[999,1666],[999,1749],[999,1833],[999,1917],[999,1999],[999,2083],[999,2166],[999,2249],[999,2333],[999,2416],[999,2499],[999,2583],[999,2666],[999,2749],[999,2833],[999,2916],[999,2999],[999,3083],[999,3166],[999,3249],[999,3333],[999,3416],[999,3500],[999,3583],[999,3666],[999,3749],[999,3833],[999,3916],[999,3999],[999,4083],[999,4166],[999,4249],[999,4333],[999,4416],[999,4499],[999,4583],[999,4666],[999,4749],[999,4833],[999,4916],[999,4999],[999,5083],[999,5166],[999,5249],[999,5333],[999,5416],[999,5499],[999,5583],[999,5666],[999,5749],[999,5833],[999,5916],[999,5999],[999,6083],[999,6166],[999,6250],[999,6333],[999,6416],[999,6499],[999,6583],[999,6666],[999,6749],[999,6833],[999,6916],[999,6999],[999,7083],[999,7166],[999,7249],[999,7333],[999,7416],[999,7499],[999,7583],[999,7666],[999,7749],[999,7833],[999,7916],[999,8000],[999,8083],[999,8166],[999,8249],[999,8333],[999,8416],[999,8499],[999,8583],[999,8666],[999,8749],[999,8833],[999,8916],[999,8999],[999,9083],[999,9166],[999,9249],[999,9333],[999,9416],[999,9499],[999,9583],[999,9666],[999,9749],[999,9833],[999,9917]]",1,0,1285.624,1288.5229,98.44587353,2.6367,"[{""rating"":98.33869239013934,""responseTime"":1.864699999988261},{""rating"":98.44587352625938,""responseTime"":2.6366999999881955}]",space,2.376,,1288.523,Half the time,50,1288.5247,,,[],,0,6,6,6,1,audio/Narrative7Situation6.wav,audio/Narrative8Situation6.wav,audio/Narrative5Situation6.wav,audio/Narrative6Situation6.wav,3,2,3,2,,,,,,,,,,,,,,,,,,,,,,,,,,,,,,,,,,,,,,,
,,,,,,58c38ef58158840001b5c230,2024-05-13_11h33.20.833,group3.1-3.2-social-tom,2023.2.2,Win32,119.047619,65c5074098b851296ff0b7ed,664232aed1cad9e7129cc974,,,,,,,,,,,,,,,,,,,,,,,,,,,,,1288.5248,1,audio/Narrative7Situation7.wav,1293.5316,,1293.5316,1310.6896,[],1,0,1310.6897,1315.8734,49.67845659,5.0456,"[{""rating"":49.67845659163987,""responseTime"":5.0455999999642245}]",space,4.6517,,1315.8734,Not at all,0,1315.8751,,,[],,0,7,7,7,1,audio/Narrative7Situation7.wav,audio/Narrative8Situation7.wav,audio/Narrative5Situation7.wav,audio/Narrative6Situation7.wav,5,3,4,5,,,,,,,,,,,,,,,,,,,,,,,,,,,,,,,,,,,,,,,
,,,,,,58c38ef58158840001b5c230,2024-05-13_11h33.20.833,group3.1-3.2-social-tom,2023.2.2,Win32,119.047619,65c5074098b851296ff0b7ed,664232aed1cad9e7129cc974,,,,,,,,,,,,,,,,,,,,,,,,,,,,,1315.8753,1,audio/Narrative7Situation8.wav,1317.881,,1317.881,1327.8896,"[[999,0],[999,83],[999,166],[999,249],[999,333],[999,417],[999,500],[999,583],[999,666],[999,750],[999,833],[999,917],[999,1000],[999,1084],[999,1167],[999,1250],[999,1333],[999,1417],[999,1500],[999,1583],[999,1667],[999,1750],[999,1833],[999,1916],[999,2000],[999,2083],[999,2166],[999,2250],[999,2333],[999,2416],[999,2500],[999,2583],[999,2666],[999,2750],[999,2833],[999,2916],[999,3000],[999,3083],[999,3166],[999,3249],[999,3333],[999,3416],[999,3500],[999,3583],[999,3667],[999,3750],[999,3833],[999,3916],[999,4000],[999,4083],[999,4166],[999,4249],[999,4333],[999,4416],[999,4500],[999,4583],[999,4666],[999,4750],[999,4833],[999,4917],[999,5000],[999,5083],[999,5166],[999,5250],[999,5333],[999,5416],[999,5500],[999,5583],[999,5666],[999,6474],[999,6558],[999,6641],[999,6724],[999,6808],[999,6891],[999,6974],[999,7058],[999,7141],[999,7224],[999,7308],[999,7391],[999,7474],[999,7558],[999,7641],[999,7724],[999,7808],[999,7891],[999,7974],[999,8058],[999,8141],[999,8224],[999,8308],[999,8391],[999,8474],[999,8558],[999,8641],[999,8724],[999,8808],[999,8891],[999,8975],[999,9058],[999,9141],[999,9225],[999,9308],[999,9391],[999,9475],[999,9558],[999,9641],[999,9724],[999,9808],[999,9891],[999,9975]]",1,0,1327.8897,1331.0229,100,2.8707,"[{""rating"":100,""responseTime"":2.870699999988119}]",space,2.6102,,1331.023,Half the time,50,1331.0249,,,[],,0,8,8,8,1,audio/Narrative7Situation8.wav,audio/Narrative8Situation8.wav,audio/Narrative5Situation8.wav,audio/Narrative6Situation8.wav,2,3,3,5,,,,,,,,,,,,,,,,,,,,,,,,,,,,,,,,,,,,,,,
,,,,,,58c38ef58158840001b5c230,2024-05-13_11h33.20.833,group3.1-3.2-social-tom,2023.2.2,Win32,119.047619,65c5074098b851296ff0b7ed,664232aed1cad9e7129cc974,,,,,,,,,,,,,,,,,,,,,,,,,,,,,1331.025,1,audio/Narrative7Situation9.wav,1333.0309,,1333.0309,1341.6482,"[[999,0],[999,83],[999,166],[999,250],[999,333],[999,417],[999,500],[999,583],[999,666],[999,750],[999,833],[999,917],[999,1000],[999,1083],[999,1166],[999,1250],[999,1333],[999,1417],[999,1500],[999,1583],[999,1666],[999,1750],[999,1833],[999,1916],[999,2000],[62.6,2084],[63.1,2166],[63.2,2249],[63.2,2333],[63.3,2416],[63.3,2499],[63.3,2583],[63.3,2666],[63.2,2750],[62.9,2833],[62.9,2916],[63,3000],[63,3083],[63,3166],[63,3249],[63,3333],[63,3416],[63,3500],[63.2,3584],[63.2,3666],[63.2,3750],[63.2,3833],[63.2,3916],[63.2,4000],[63.2,4083],[63.2,4166],[63.1,4250],[63.1,4333],[63.1,4417],[62.2,4500],[51.1,8000],[51.2,8083],[52.7,8166],[53.2,8249]]",1,0,1341.6483,1342.4558,96.3022508,0.6765,"[{""rating"":96.30225080385853,""responseTime"":0.6765000000000327}]",space,0.2904,,1342.4559,Half the time,50,1358.0874,49.46409432,15.507,"[{""rating"":49.464094319399784,""responseTime"":15.506999999999834}]",space,0,9,9,9,1,audio/Narrative7Situation9.wav,audio/Narrative8Situation9.wav,audio/Narrative5Situation9.wav,audio/Narrative6Situation9.wav,2,3,3,4,,,15.1046,,,,,,,,,,,,,,,,,,,,,,,,,,,,,,,,,,,,
,,,,,,58c38ef58158840001b5c230,2024-05-13_11h33.20.833,group3.1-3.2-social-tom,2023.2.2,Win32,119.047619,65c5074098b851296ff0b7ed,664232aed1cad9e7129cc974,,,,,,,,,,,,,,,,,,,,,,,,,,,,,1358.088,1,audio/Narrative8Situation1.wav,1358.3396,space,1358.3397,1374.2475,"[[999,0],[999,82],[999,165],[999,249],[999,332],[999,416],[999,499],[999,582],[999,665],[999,749],[999,832],[999,916],[51,999],[50.5,1082],[50.5,1165],[48.6,1249],[93.8,1499],[48.2,3416],[51.7,3499],[51.7,3582],[51.2,3665],[50.8,3749],[50.3,3832],[49.8,3916],[49.7,3999],[50.1,4082],[50.3,4166],[50.3,4249],[50.5,4333],[50.9,4415],[51,4499],[51,4582],[51.2,4665],[100,6416],[54.2,15500],[49.2,15833]]",1,0,1374.2476,1375.6388,50.21436227,1.0963,"[{""rating"":50.21436227224009,""responseTime"":1.0963000000119791}]",space,0.8733,,1375.6388,Half the time,50,1375.64,,,[],,0,10,10,10,1,audio/Narrative8Situation1.wav,audio/Narrative7Situation1.wav,audio/Narrative6Situation1.wav,audio/Narrative5Situation1.wav,5,2,2,5,0.2385,,,,,,,,,,,,,,,,,,,,,,,,,,,,,,,,,,,,,,
,,,,,,58c38ef58158840001b5c230,2024-05-13_11h33.20.833,group3.1-3.2-social-tom,2023.2.2,Win32,119.047619,65c5074098b851296ff0b7ed,664232aed1cad9e7129cc974,,,,,,,,,,,,,,,,,,,,,,,,,,,,,1375.6402,1,audio/Narrative8Situation2.wav,1378.6474,,1378.6474,1390.0556,"[[999,5],[999,83],[999,166],[999,250],[999,333],[999,416],[999,500],[999,583],[999,666],[999,749],[999,833],[999,916],[999,999],[999,1083],[999,1166],[999,1249],[999,1333],[999,1416],[999,1499],[999,1583],[999,1666],[999,1749],[999,1832],[999,1916],[999,1999],[999,2083],[999,2166],[999,2249],[999,2333],[999,2416],[999,2499],[999,2583],[999,2666],[999,2749],[999,2833],[999,2916],[999,2999],[999,11324],[999,11408]]",1,0,1390.0557,1559.0038,46.89174705,168.5391,"[{""rating"":46.89174705251876,""responseTime"":168.53909999996404}]",space,168.4272,,1559.0039,All the time,100,1559.0057,,,[],,0,11,11,11,1,audio/Narrative8Situation2.wav,audio/Narrative7Situation2.wav,audio/Narrative6Situation2.wav,audio/Narrative5Situation2.wav,3,3,3,3,,,,,,,,,,,,,,,,,,,,,,,,,,,,,,,,,,,,,,,
,,,,,,58c38ef58158840001b5c230,2024-05-13_11h33.20.833,group3.1-3.2-social-tom,2023.2.2,Win32,119.047619,65c5074098b851296ff0b7ed,664232aed1cad9e7129cc974,,,,,,,,,,,,,,,,,,,,,,,,,,,,,1559.0058,1,audio/Narrative8Situation3.wav,1563.0122,,1563.0123,1585.3787,"[[47.6,83],[47.5,166],[47.5,249],[47.7,333],[47.6,416],[47.6,499],[47.6,583],[47.4,666],[47.4,749],[47.6,833],[47.6,916],[47.6,999],[47.6,1083],[47.5,1166],[47.5,1249],[47.6,1333],[47.6,1416],[47.6,1499],[48.2,1583],[47.7,1666],[47.1,1749],[45.6,1834],[45.4,1916],[45.4,1999],[45,2500],[44.6,2583],[44.9,2666],[45,2750],[45.3,2833],[45.3,2916],[45.3,2999],[45.5,3083],[45.7,3166],[45.7,3249],[45.7,3333],[45.6,3416],[45.5,3499],[45.5,3583],[45.5,3666],[45.5,3749],[45.5,3833],[45.5,3916],[45.5,3999],[45.5,4083],[45.5,4166],[45.5,4249],[45.4,4333],[45.2,4416],[44.7,4499],[44.7,4583],[44.9,4666],[44.7,4750],[44.7,4833],[45,4916],[45,4999],[45,5083],[45,5166],[44.7,5249],[44.5,5333],[45,5417],[45,5499],[44.9,5583],[44.9,5666],[44.9,5749],[44.9,5833],[45.1,5916],[45.2,6000],[45.3,6083],[45.4,6166],[45.5,6249],[45.4,6333],[45.4,6416],[45.2,6500],[45.2,6583],[45.3,6667],[45.3,6749],[45.3,6833],[45.3,6916],[45.3,6999],[45.3,7083],[45.3,7167],[45,7249],[45,7333],[45,7416],[45,7499],[45,7583],[45.2,7666],[45.3,7750],[45.2,7833],[45.2,7916],[45.2,7999],[45.1,8083],[45.1,8166],[45.1,8249],[45,8333],[45,8416],[45.1,8499],[45.1,8583],[45.1,8666],[45.3,8749],[45.3,8833],[45.3,8916],[45.7,8999],[45.7,9083],[45.7,9166],[45.7,9249],[45.5,9333],[45.4,9416],[45.4,9499],[45.2,9583],[45.1,9667],[45.1,9749],[45.1,9832],[45.1,9916],[45.2,9999],[45.3,10083],[45.3,10166],[45.7,10250],[45.9,10333],[45.9,10416],[45.9,10499],[46.1,10583],[46,10667],[46,10749],[46,10833],[45.9,10916],[45.8,10999],[45.8,11083],[45.7,11166],[45.7,11249],[45.7,11332],[45.6,11416],[45.6,11499],[45.6,11583],[45.6,11666],[45.6,11749],[46,11833],[46,11916],[46.1,11999],[46.5,12083],[46.6,12166],[46.6,12249],[46.6,12332],[46.6,12416],[46.6,12499],[46.6,12583],[46.5,12666],[46.5,12749],[46.5,12833],[46.5,12916],[46.5,12999],[46.7,13083],[46.8,13166],[46.8,13249],[46.9,13333],[46.9,13416],[46.8,13500],[46.8,13583],[46.7,13666],[46.5,13749],[46.5,13833],[46.4,13916],[46.1,14000],[46.1,14082],[46.1,14166],[46,14249],[46,14333],[46,14416],[46,14499],[46,14582],[46.1,14666],[46.1,14749],[46.1,14832],[46.1,14916],[46,14999],[46,15083],[46,15166],[45.8,15250],[45.8,15333],[45.8,15416],[45.7,15500],[45.9,15583],[46.2,15667],[46.9,17500],[46.8,17582],[46.8,17666],[46.8,17750],[46.7,17832],[46.7,17916],[46.7,18000],[46.5,18082],[46.5,18166],[46.5,18249],[45.9,18333],[45.8,18416],[45.8,18499],[45.8,18583],[45.8,18666],[45.9,18750],[45.9,18833],[45.9,18916],[46.1,19000],[46.1,19082],[46.1,19166],[46.5,19251],[46.5,19333],[46.5,19416],[46.6,19499],[46.5,19583],[46.4,19666],[46.4,19749],[46.2,19833],[46.1,19916],[46.1,19999],[46,20083],[46,20166],[46,20249],[46,20332],[46,20416],[46,20500],[46.1,20582],[46.1,20666],[46.2,20750],[46.4,20833],[46.4,20916],[46.4,20999],[46.6,21082],[46.4,21166],[46.2,21249],[46.2,21332],[45.9,21417],[45.9,21499],[45.9,21583],[45.6,21667],[45.6,21749],[45.6,21833],[45.5,21916]]",1,0,1585.3789,1586.8369,47.64201501,1.2973,"[{""rating"":47.534833869239016,""responseTime"":0.26519999998799904},{""rating"":47.642015005359056,""responseTime"":1.2973000000117736}]",space,0.9438,,1586.8369,All the time,100,1586.8378,,,[],,0,12,12,12,1,audio/Narrative8Situation3.wav,audio/Narrative7Situation3.wav,audio/Narrative6Situation3.wav,audio/Narrative5Situation3.wav,4,8,5,3,,,,,,,,,,,,,,,,,,,,,,,,,,,,,,,,,,,,,,,
,,,,,,58c38ef58158840001b5c230,2024-05-13_11h33.20.833,group3.1-3.2-social-tom,2023.2.2,Win32,119.047619,65c5074098b851296ff0b7ed,664232aed1cad9e7129cc974,,,,,,,,,,,,,,,,,,,,,,,,,,,,,1586.8379,1,audio/Narrative8Situation4.wav,1589.8452,,1589.8452,1604.6705,"[[999,0],[999,83],[999,166],[46.7,250],[46.7,333],[46.7,416],[46.4,500]]",1,0,1604.6706,1612.5451,93.83708467,7.7533,"[{""rating"":93.83708467309754,""responseTime"":7.753300000011905}]",space,7.3546,,1612.5452,Not at all,0,1612.5469,,,[],,0,13,13,13,1,audio/Narrative8Situation4.wav,audio/Narrative7Situation4.wav,audio/Narrative6Situation4.wav,audio/Narrative5Situation4.wav,3,3,2,1,,,,,,,,,,,,,,,,,,,,,,,,,,,,,,,,,,,,,,,
,,,,,,58c38ef58158840001b5c230,2024-05-13_11h33.20.833,group3.1-3.2-social-tom,2023.2.2,Win32,119.047619,65c5074098b851296ff0b7ed,664232aed1cad9e7129cc974,,,,,,,,,,,,,,,,,,,,,,,,,,,,,1612.547,1,audio/Narrative8Situation5.wav,1614.5533,,1614.5535,1622.7867,"[[999,0],[999,83],[999,167],[999,249],[999,333],[999,416],[999,499],[999,583],[999,666],[999,750],[999,833],[999,916],[999,999],[999,1083],[999,1166],[999,1250],[999,1333],[999,1416],[999,1499],[999,1583],[999,1666],[999,1749],[999,1833],[999,1916],[999,1999],[999,2083],[999,2166],[999,2249],[999,2333],[999,2416],[999,2499],[999,2583],[999,2666],[999,2749],[999,2833],[999,2916],[999,3000],[999,3083],[999,3166],[999,3249],[999,3333],[999,3416],[999,3499],[999,3583],[999,3666],[999,3749],[999,3833],[999,3916],[999,3999],[999,4083],[999,4166],[999,4249],[999,4333],[999,4416],[999,4500],[999,4583],[999,4666],[999,4749],[999,4833],[999,4916],[999,4999],[999,5083],[999,5166],[999,5250],[999,5333],[999,5416],[999,5499],[999,5583],[999,5666],[999,5749],[999,5833],[999,5916],[999,5999],[999,6083],[999,6166],[999,6249],[999,6333],[999,6416],[999,6499],[999,6583],[999,6666],[999,6749],[999,6833],[999,6916],[999,6999],[999,7083],[999,7166],[999,7249],[999,7333],[999,7416],[999,7499],[999,7583],[999,7666],[999,7749],[999,7833],[999,7916],[999,7999],[999,8083],[999,8166]]",1,0,1622.7868,1910.359,52.46516613,287.0826,"[{""rating"":52.465166130760984,""responseTime"":287.08260000002383}]",space,287.0545,,1910.359,Half the time,50,1910.3609,,,[],,0,14,14,14,1,audio/Narrative8Situation5.wav,audio/Narrative7Situation5.wav,audio/Narrative6Situation5.wav,audio/Narrative5Situation5.wav,2,5,2,5,,,,,,,,,,,,,,,,,,,,,,,,,,,,,,,,,,,,,,,
,,,,,,58c38ef58158840001b5c230,2024-05-13_11h33.20.833,group3.1-3.2-social-tom,2023.2.2,Win32,119.047619,65c5074098b851296ff0b7ed,664232aed1cad9e7129cc974,,,,,,,,,,,,,,,,,,,,,,,,,,,,,1910.3612,1,audio/Narrative8Situation6.wav,1912.3671,,1912.3671,1918.8255,"[[52.4,167],[52.1,250],[52.9,334],[53,416],[52.9,500],[52.9,583],[50.3,2417],[50.3,2500],[35.9,6250],[37.8,6334],[38.3,6416]]",1,0,1918.8256,1920.0675,98.87459807,0.9948,"[{""rating"":98.87459807073955,""responseTime"":0.9947999999521926}]",space,0.7135,,1920.0677,Not at all,0,1920.0693,,,[],,0,15,15,15,1,audio/Narrative8Situation6.wav,audio/Narrative7Situation6.wav,audio/Narrative6Situation6.wav,audio/Narrative5Situation6.wav,2,3,2,3,,,,,,,,,,,,,,,,,,,,,,,,,,,,,,,,,,,,,,,
,,,,,,58c38ef58158840001b5c230,2024-05-13_11h33.20.833,group3.1-3.2-social-tom,2023.2.2,Win32,119.047619,65c5074098b851296ff0b7ed,664232aed1cad9e7129cc974,,,,,,,,,,,,,,,,,,,,,,,,,,,,,1920.0694,1,audio/Narrative8Situation7.wav,1923.0754,,1923.0755,1935.1503,"[[999,0],[999,83],[999,166],[999,249],[999,333],[999,417],[999,499],[999,583],[999,666],[999,749],[999,833],[999,916],[999,999],[999,1083],[999,1166],[999,1249],[999,1333],[999,1416],[999,1499],[999,1583],[999,1666],[999,1749],[999,1833],[999,1917],[999,2000],[999,2083],[999,2166],[999,2249],[999,2333],[999,2416],[999,2499],[999,2583],[999,2666],[999,2749],[999,2833],[999,2916],[999,2999],[999,3083],[999,3167],[999,3250],[999,3333],[999,3416],[999,3499],[999,3583],[999,3666],[999,3750],[999,3833],[999,3916],[999,3999],[999,4083],[999,4166],[999,4249],[999,4333],[999,4416],[999,4499],[999,4583],[999,4666],[999,4749],[999,4833],[999,4917],[999,4999],[999,5083],[999,5166],[999,5249],[999,5333],[999,5416],[999,5499],[999,5583],[999,5666],[999,5749],[999,5832],[999,5916],[999,5999],[999,6083],[999,6166],[999,6249],[999,6333],[999,6416],[999,6499],[999,6583],[999,6666],[999,6749],[999,6833],[999,6916],[999,6999],[999,7083],[999,7168],[999,7249],[999,7333],[999,7416],[999,7499],[999,7583],[999,7666],[999,7750],[999,7833],[999,7916],[999,8000],[999,8082],[999,8166],[999,8250],[999,8333],[999,8416],[999,8499],[999,8583],[999,8666],[999,8749],[999,8833],[999,8916],[999,8999],[999,9083],[999,9166],[999,9249],[999,9332],[999,9416],[999,9499],[999,9583],[999,9666],[999,9749],[999,9833],[999,9916],[999,9999],[999,10082],[999,10166],[999,10250],[999,10332],[999,10417],[999,10500],[999,10582],[999,10666],[999,10749],[999,10833],[999,10916],[999,10999],[999,11083],[999,11166],[999,11249],[999,11333],[999,11416],[999,11500],[999,11583],[999,11667],[999,11750],[999,11833],[999,11916],[999,12000]]",1,0,1935.1504,1937.7252,95.9807074,2.4151,"[{""rating"":95.9807073954984,""responseTime"":2.4151000000238128}]",space,2.0558,,1937.7252,Half the time,50,1937.727,,,[],,0,16,16,16,1,audio/Narrative8Situation7.wav,audio/Narrative7Situation7.wav,audio/Narrative6Situation7.wav,audio/Narrative5Situation7.wav,3,5,5,4,,,,,,,,,,,,,,,,,,,,,,,,,,,,,,,,,,,,,,,
,,,,,,58c38ef58158840001b5c230,2024-05-13_11h33.20.833,group3.1-3.2-social-tom,2023.2.2,Win32,119.047619,65c5074098b851296ff0b7ed,664232aed1cad9e7129cc974,,,,,,,,,,,,,,,,,,,,,,,,,,,,,1937.7271,1,audio/Narrative8Situation8.wav,1940.7342,,1940.7342,1953.5751,"[[73.8,82],[56.8,166],[50.6,250],[45.1,750],[44.2,832],[44.2,915],[44.2,999],[44.2,1082],[44.2,1166],[44.2,1249],[44.2,1332],[44.2,1415],[44.2,1499],[44.2,1582],[44.2,1665],[44.2,1749],[44.6,2249],[44.6,2332],[44.6,2415],[44.5,2500],[44.5,2582],[44.7,2666],[44.9,2749],[44.9,2832],[44.9,2915],[44.9,2999],[44.9,3082],[44.9,3165],[44.9,3249],[44.9,3332],[44.9,3415],[44.9,3499],[44.9,3582],[44.9,3665],[44.9,3749],[44.9,3832],[44.9,3916],[44.9,3999],[44.9,4082],[44.9,4165],[44.9,4249],[44.9,4332],[44.9,4415],[44.9,4499],[44.9,4582],[44.9,4665],[44.9,4749],[44.9,4832],[44.9,4915],[44.9,4999],[44.9,5082],[44.9,5165],[44.9,5249],[44.9,5332],[44.9,5415],[44.9,5499],[44.9,5582],[44.9,5665],[44.9,5749],[44.9,5832],[44.9,5915],[44.9,5999],[44.9,6082],[44.9,6165],[44.9,6249],[44.9,6332],[44.9,6415],[44.9,6499],[44.9,6582],[44.9,6665],[44.9,6749],[44.9,6832],[44.9,6915],[44.9,6999],[44.9,7082],[44.9,7165],[44.9,7249],[44.9,7332],[44.9,7415],[44.9,7499],[44.9,7582],[44.9,7665],[44.9,7749],[44.9,7832],[44.9,7915],[44.9,7999],[44.9,8082],[44.9,8165],[44.9,8249],[44.9,8332],[44.9,8415],[44.9,8499],[44.9,8582],[44.9,8666],[44.9,8749],[44.9,8832],[44.9,8915],[44.9,8999],[44.9,9083],[44.7,9165],[44.7,9249],[44.7,9332],[44.7,9415],[44.7,9499],[45.3,9582],[45.2,9666],[44.6,9750],[44.6,9833],[44.6,9916],[45.1,9999],[45.1,10082],[44.9,10165],[44.9,10249],[44.9,10332],[44.9,10415],[44.9,10499],[44.7,10582],[44.6,10665],[44.6,10749],[44.6,10832],[44.6,10915],[44.4,10999],[44.4,11082],[44.4,11165],[44.4,11249],[44.1,11332],[44.1,11415],[44.1,11499],[44.1,11582],[44.1,11665],[44.1,11749],[44.1,11832],[44.1,11915],[44.1,11999],[44.1,12082],[44.1,12165],[44.1,12249]]",1,0,1953.5752,1954.5096,49.67845659,0.634,"[{""rating"":49.67845659163987,""responseTime"":0.6340000000000146}]",space,0.4211,,1954.5097,Not at all,0,1954.5126,,,[],,0,17,17,17,1,audio/Narrative8Situation8.wav,audio/Narrative7Situation8.wav,audio/Narrative6Situation8.wav,audio/Narrative5Situation8.wav,3,2,5,3,,,,,,,,,,,,,,,,,,,,,,,,,,,,,,,,,,,,,,,
,,,,,,58c38ef58158840001b5c230,2024-05-13_11h33.20.833,group3.1-3.2-social-tom,2023.2.2,Win32,119.047619,65c5074098b851296ff0b7ed,664232aed1cad9e7129cc974,,,,,,,,,,,,,,,,,,,,,,,,,,,,,1954.5128,1,audio/Narrative8Situation9.wav,2002.5382,,2002.5382,2013.8415,"[[999,6],[999,78],[999,161],[999,245],[999,334],[999,412],[999,494],[999,595],[999,687],[999,769],[999,853],[999,936],[999,1019],[999,1103],[999,1186],[999,1269],[999,1353],[999,1436],[50,1520],[49.8,1603],[49.7,1686],[49.2,1769],[49,1853],[48.8,1936],[48.3,2020],[48.3,2103],[48.3,2186],[48.3,2270],[48.2,2353],[48.1,2436],[48,2519],[47.7,2603],[47.7,2686],[47.7,2769],[47.5,2853],[47.5,2936],[47.5,3020],[47.3,3103],[47.3,3186],[47.5,3269],[47.4,3353],[47.4,3436],[47.4,3519],[47.2,3603],[47.2,3686],[47.2,3769],[46.7,3854],[46.6,3936],[46.5,4019],[46.1,4103],[46,4186],[46,4269],[46,4353],[45.8,4436],[45.8,4519],[45.9,4603],[46.1,4687],[46.5,4770],[47.2,4853],[47.3,4937],[47.3,5019],[47.4,5103]]",1,0,2013.8416,2014.8496,50.64308682,0.7735,"[{""rating"":50.64308681672026,""responseTime"":0.7735000000000127}]",space,0.4862,,2014.8496,Not at all,0,2014.8506,,,[],,0,18,18,18,1,audio/Narrative8Situation9.wav,audio/Narrative7Situation9.wav,audio/Narrative6Situation9.wav,audio/Narrative5Situation9.wav,3,2,4,3,,,,,,,,,,,,,,,,,,,,,,,,,,,,,,,,,,,,,,,
,,,,,,58c38ef58158840001b5c230,2024-05-13_11h33.20.833,group3.1-3.2-social-tom,2023.2.2,Win32,119.047619,65c5074098b851296ff0b7ed,664232aed1cad9e7129cc974,,,,,,,,,,,,,,,,,,,,,,,,,,,2020.5717,2023.1499,2023.1616,2,audio/Narrative13Situation2.wav,2023.1616,,2023.1616,2052.8916,"[[999,0],[999,71],[999,154],[999,237],[999,321],[999,404],[999,487],[999,571],[999,654],[999,737],[999,821],[999,904],[999,988],[999,1071],[999,1154],[999,1238],[45.1,1321],[45.1,1404],[45.1,1487],[45,1571],[45,1654],[45.1,2321],[45,2404],[45,2488],[44.9,2571],[44.9,2654],[44.9,2738],[44.9,2821],[44.9,2904],[45.8,3571],[45.7,3654],[45.7,3737],[45.7,3821],[45.5,3904],[45.5,3987],[45.5,4071],[45.4,4154],[45.4,4237],[45.5,4321],[45.5,4404],[45.6,4487],[45.7,4571],[45.7,4654],[45.8,4737],[45.8,4821],[45.8,4904],[45.8,4987],[45.8,5071],[45.6,5154],[45.5,5237],[45.5,5320],[45.5,5404],[45.5,5487],[45.5,5571],[45.5,5654],[45.6,5737],[45.8,5821],[45.9,5904],[46,5987],[46,6071],[46,6154],[46,6237],[46,6321],[46,6404],[45.7,6487],[45.6,6571],[45.6,6654],[45.4,6737],[45.4,6821],[45.4,6904],[45.4,6987],[45.4,7071],[45.7,7154],[45.7,7237],[45.7,7321],[45.7,7404],[45.7,7488],[45.7,7571],[45.7,7654],[45.6,7737],[45.5,7821],[45.5,7904],[45.4,7987],[45.4,8071],[45.3,8154],[45.3,8237],[45.3,8320],[45.3,8404],[45.3,8487],[45.3,8570],[45.3,8654],[45.3,8737],[45.3,8821],[45.3,8904],[45.3,8987],[45.3,9070],[45.3,9154],[45.3,9237],[45,9320],[44.9,9404],[44.9,9487],[44.6,9570],[44.6,9654],[44.7,9737],[44.7,9821],[44.9,9904],[45,9987],[45,10071],[45,10154],[45.1,10237],[45.2,10321],[45.2,10404],[45.2,10487],[45.2,10570],[45.2,10654],[45.2,10737],[45.2,10821],[45.2,10904],[45.2,10987],[45.2,11071],[45.2,11154],[45.2,11237],[45.2,11321],[45.2,11404],[45.2,11487],[45.2,11571],[45.1,11654],[45.1,11737],[45.1,11821],[44.9,11904],[44.9,11987],[44.9,12071],[44.6,12154],[44.6,12237],[44.6,12320],[44.3,12404],[44.2,12487],[44.2,12570],[44,12654],[44,12737],[44,12821],[44,12904],[44,12987],[44.1,13070],[44.2,13154],[44.6,13237],[44.6,13321],[44.6,13404],[44.6,13487],[44.6,13570],[44.5,13654],[44.5,13737],[44.5,13821],[44.2,13904],[44.2,13987],[44.2,14071],[44.2,14154],[44.2,14237],[44.2,14321],[44.2,14404],[44.3,14487],[44.4,14571],[44.5,14654],[44.5,14737],[44.5,14821],[44.5,14904],[44.5,14987],[44.4,15070],[44.3,15154],[44.2,15237],[44.2,15320],[44.2,15404],[44.2,15487],[44.2,15571],[44.2,15654],[44.3,15738],[44.4,15821],[44.6,15904],[44.6,15987],[44.6,16071],[44.7,16154],[44.7,16237],[44.7,16320],[44.9,16404],[44.9,16487],[44.9,16570],[44.9,16654],[44.9,16737],[44.9,16820],[44.9,16904],[44.9,16987],[44.9,17070],[45,17154],[45.1,17237],[45.1,17320],[45.1,17404],[45.2,17487],[45.2,17570],[45.2,17654],[45.2,17737],[45.2,17820],[45.2,17904],[45,17987],[44.9,18070],[44.7,18154],[44.7,18237],[44.7,18320],[44.7,18404],[44.7,18487],[44.7,18570],[44.9,18654],[45.1,18737],[45.2,18820],[45.2,18904],[45.2,18987],[45.2,19070],[45.2,19154],[45.2,19237],[45.2,19320],[45.2,19404],[45.2,19487],[45,19570],[45,19654],[45,19737],[45,19820],[45,19904],[45.2,19987],[45.2,20070],[45.3,20154],[45.3,20237],[45.3,20320],[45.4,20404],[45.4,20487],[45.4,20570],[45.4,20654],[45.4,20737],[45.4,20821],[45.3,20904],[45.3,20987],[45.3,21070],[45.3,21154],[45.3,21237],[45.3,21320],[45.3,21404],[45.3,21487],[45.5,21570],[45.5,21654],[45.6,21737],[45.6,21820],[45.6,21904],[45.6,21987],[45.6,22070],[45.6,22154],[45.6,22237],[45.6,22320],[45.6,22404],[45.6,22487],[45.6,22570],[45.7,22654],[45.8,22737],[45.8,22820],[45.9,22904],[45.9,22987],[45.9,23070],[45.9,23154],[45.9,23237],[45.9,23320],[45.9,23404],[45.9,23487],[45.9,23570],[45.9,23654],[45.9,23737],[45.9,23820],[45.9,23904],[45.9,23987],[45.9,24070],[45.9,24154],[45.9,24237],[45.9,24320],[45.9,24404],[45.9,24487],[45.9,24570],[45.9,24654],[45.9,24737],[45.9,24820],[45.9,24904],[45.9,24987],[45.8,25071],[45.8,25154],[45.8,25237],[45.8,25320],[45.8,25404],[45.8,25487],[45.8,25570],[45.8,25654],[45.8,25737],[45.8,25820],[45.8,25904],[45.9,25987],[45.9,26070],[45.9,26154],[45.9,26237],[45.9,26321],[45.9,26404],[45.9,26487],[45.9,26570],[45.9,26654],[45.9,26737],[45.9,26820],[45.9,26904],[46.2,26988],[46.2,27070],[46.2,27154],[46.2,27237],[46.4,27320],[46.4,27404],[46.4,27487],[46.4,27570],[46.4,27654],[46.4,27737],[46.1,27822],[46,27904],[46,27987],[46,28070],[45.9,28154],[45.9,28237],[45.9,28320],[46,28404],[46,28487],[46,28570],[46,28654],[46,28737],[46,28820],[46,28904],[46,28987],[46,29070],[46,29154],[46.1,29238],[42.2,29570]]",1,0,2052.8918,2052.8929,,,[],,,,2052.8929,Half the time,50,2052.894,,,[],,0,0,0,0,1,audio/Narrative13Situation2.wav,audio/Narrative13Situation2.wav,audio/Narrative13Situation2.wav,audio/Narrative13Situation2.wav,2,2,2,2,,,,,2014.851,2020.5667,space,5.2076,,,,,,,,,,,,,,,,,,,,,,,,,,,,,,,
,,,,,,58c38ef58158840001b5c230,2024-05-13_11h33.20.833,group3.1-3.2-social-tom,2023.2.2,Win32,119.047619,65c5074098b851296ff0b7ed,664232aed1cad9e7129cc974,,,,,,,,,,,,,,,,,,,,,,,,,,,,,2052.8941,2,audio/Narrative5Situation1.wav,2056.4328,space,2056.4328,2069.7074,"[[999,0],[999,83],[999,166],[999,249],[999,333],[999,416],[999,499],[999,583],[999,666],[999,749],[999,834],[999,916],[999,999],[999,1083],[999,1166],[999,1249],[999,1332],[999,1416],[999,1499],[999,1583],[999,1666],[999,1749],[999,1833],[999,1916],[999,1999],[999,2082],[999,2166],[999,2249],[999,2333],[999,2416],[999,2499],[999,2583],[999,2666],[999,2749],[999,2833],[999,2916],[999,2999],[999,3082],[999,3166],[999,3249],[999,3332],[999,3416],[999,3499],[999,3582],[999,3666],[999,3749],[999,3833],[999,3916],[999,3999],[999,4082],[999,4166],[999,4249],[999,4333],[999,4416],[999,4499],[999,4582],[999,4666],[999,4749],[999,4833],[999,4916],[999,4999],[999,5083],[999,5166],[999,5249],[999,5332],[999,5416],[999,5499],[999,5583],[999,5666],[999,5749],[999,5833],[999,5916],[999,5999],[999,6082],[999,6166],[999,6249],[999,6333],[999,6416],[999,6500],[999,6583],[999,6666],[999,6749],[999,6833],[999,6916],[999,6999],[999,7083],[999,7166],[999,7249],[999,7332],[999,7416],[999,7499],[999,7583],[999,7666],[999,7749],[999,7833],[999,7916],[999,7999],[999,8083],[999,8166],[999,8250],[999,8332],[999,8416],[999,8499],[999,8583],[999,8666],[999,8749],[999,8833],[999,8916],[999,8999],[999,9082],[999,9166],[999,9249],[999,9333],[999,9416],[999,9500],[999,9582],[999,9666],[999,9749],[999,9833],[999,9916],[999,9999],[999,10082],[999,10166],[999,10249],[999,10332],[999,10416],[999,10499],[999,10583],[999,10666],[999,10749],[999,10833],[999,10916],[999,10999],[999,11082],[999,11166],[999,11249],[999,11332],[999,11416],[999,11499],[999,11582],[999,11666],[999,11749],[999,11832],[999,11916],[999,11999],[999,12082],[999,12166],[999,12249],[999,12332],[999,12416],[999,12499],[999,12583],[999,12666],[999,12749],[999,12833],[999,12917],[999,12999],[999,13082],[999,13166],[999,13250]]",1,0,2069.7075,2071.2492,49.24973205,1.1852,"[{""rating"":49.249732047159696,""responseTime"":1.1851999999880718}]",space,1.0125,,2071.2493,Half the time,50,2071.2503,,,[],,0,1,1,1,1,audio/Narrative7Situation1.wav,audio/Narrative8Situation1.wav,audio/Narrative5Situation1.wav,audio/Narrative6Situation1.wav,2,5,5,2,3.5254,,,,,,,,,,,,,,,,,,,,,,,,,,,,,,,,,,,,,,
,,,,,,58c38ef58158840001b5c230,2024-05-13_11h33.20.833,group3.1-3.2-social-tom,2023.2.2,Win32,119.047619,65c5074098b851296ff0b7ed,664232aed1cad9e7129cc974,,,,,,,,,,,,,,,,,,,,,,,,,,,,,2071.2504,2,audio/Narrative5Situation2.wav,2074.2574,,2074.2575,2103.7071,"[[999,0],[999,83],[999,166],[999,250],[999,333],[999,416],[999,499],[999,583],[999,666],[999,749],[999,833],[999,916],[999,1000],[999,1083],[999,1166],[999,1250],[999,1333],[999,1416],[999,1499],[999,1583],[999,1666],[999,1749],[999,1833],[999,1916],[999,1999],[999,2083],[999,2166],[999,2249],[999,2333],[999,2416],[999,2499],[999,2583],[999,2666],[999,2750],[999,2833],[999,2916],[999,2999],[999,3083],[999,3166],[999,3249],[999,3333],[999,3416],[999,3499],[999,3583],[999,3666],[999,3749],[999,3833],[999,3916],[999,3999],[999,4083],[999,4166],[999,4249],[999,4333],[999,4416],[999,4499],[999,4583],[999,4666],[999,4749],[999,4833],[999,4916],[999,5000],[999,5083],[999,5166],[999,5249],[999,5333],[999,5416],[999,5499],[999,5583],[999,5666],[999,5749],[999,5833],[999,5916],[999,5999],[999,6083],[999,6166],[999,6249],[999,6333],[999,6416],[999,6499],[999,6583],[999,6666],[999,6749],[999,6833],[999,6916],[999,6999],[999,7083],[999,7166],[999,7249],[999,7333],[999,7416],[999,7499],[999,7583],[999,7666],[999,7749],[999,7833],[999,7916],[999,7999],[999,8083],[999,8166],[999,8249],[999,8333],[999,8416],[999,8499],[999,8583],[999,8666],[999,8749],[999,8833],[999,8916],[999,8999],[999,9083],[999,9166],[999,9249],[999,9333],[999,9416],[999,9499],[999,9583],[999,9666],[999,9750],[999,9833],[999,9916],[999,9999],[999,10083],[999,10166],[999,10250],[999,10333],[999,10416],[999,10499],[999,10583],[999,10666],[999,10749],[999,10833],[999,10916],[999,11000],[999,11083],[999,11166],[999,11249],[999,11333],[999,11416],[999,11499],[999,11583],[999,11666],[999,11749],[999,11833],[999,11916],[999,11999],[999,12083],[999,12166],[999,12249],[999,12333],[999,12416],[999,12499],[999,12583],[999,12666],[999,12750],[999,12833],[999,12916],[999,13000],[999,13083],[999,13166],[999,13249],[999,13333],[999,13416],[999,13499],[999,13582],[999,13666],[999,13749],[999,13832],[999,13916],[999,13999],[999,14083],[999,14166],[999,14249],[999,14333],[999,14416],[999,14499],[999,14583],[999,14666],[999,14749],[999,14833],[999,14916],[999,15000],[999,15083],[999,15166],[999,15249],[999,15332],[999,15416],[999,15500],[999,15583],[999,15666],[999,15749],[999,15833],[999,15916],[999,16000],[999,16083],[999,16166],[999,16249],[999,16333],[999,16416],[999,16499],[999,16582],[999,16666],[999,16749],[999,16833],[999,16916],[999,16999],[999,17082],[999,17166],[999,17249],[999,17332],[999,17416],[999,17499],[999,17582],[999,17666],[999,17749],[999,17833],[999,17916],[999,17999],[999,18082],[999,18166],[999,18250],[999,18332],[999,18416],[999,18499],[999,18582],[999,18666],[999,18749],[999,18833],[999,18916],[999,18999],[999,19082],[999,19166],[999,19249],[999,19332],[999,19416],[999,19499],[999,19583],[999,19666],[999,19749],[999,19832],[999,19916],[999,20000],[999,20083],[999,20166],[999,20249],[999,20332],[999,20416],[999,20500],[999,20582],[999,20666],[999,20749],[999,20833],[999,20917],[999,21000],[999,21083],[999,21166],[999,21249],[999,21333],[999,21416],[999,21500],[999,21583],[999,21666],[999,21749],[999,21832],[999,21916],[999,22000],[999,22082],[999,22166],[999,22250],[999,22333],[999,22416],[999,22499],[999,22582],[999,22666],[999,22749],[999,22832],[999,22916],[999,22999],[999,23082],[999,23166],[999,23250],[999,23332],[999,23416],[999,23499],[999,23583],[999,23666],[999,23749],[999,23832],[999,23916],[999,24000],[999,24082],[999,24166],[999,24249],[999,24332],[999,24416],[999,24499],[999,24583],[999,24666],[999,24749],[999,24833],[999,24916],[999,24999],[999,25083],[999,25166],[999,25249],[999,25333],[999,25416],[999,25499],[999,25582],[999,25666],[999,25749],[999,25833],[999,25916],[999,26000],[999,26082],[999,26166],[999,26249],[999,26333],[999,26416],[999,26499],[999,26582],[999,26666],[999,26750],[999,26832],[999,26916],[999,26999],[999,27082],[999,27166],[999,27249],[999,27332],[999,27416],[999,27499],[999,27582],[999,27666],[999,27749],[999,27832],[999,27916],[999,27999],[999,28082],[999,28166],[999,28249],[999,28333],[999,28416],[999,28499],[999,28583],[999,28666],[999,28749],[999,28832],[999,28916],[999,28999],[999,29082],[999,29166],[999,29249],[999,29332],[999,29416]]",1,0,2103.7072,2106.7823,97.90996785,2.8106,"[{""rating"":97.90996784565917,""responseTime"":2.8106000000238964}]",space,2.5511,,2106.7823,Half the time,50,2106.7832,,,[],,0,2,2,2,1,audio/Narrative7Situation2.wav,audio/Narrative8Situation2.wav,audio/Narrative5Situation2.wav,audio/Narrative6Situation2.wav,3,3,3,3,,,,,,,,,,,,,,,,,,,,,,,,,,,,,,,,,,,,,,,
,,,,,,58c38ef58158840001b5c230,2024-05-13_11h33.20.833,group3.1-3.2-social-tom,2023.2.2,Win32,119.047619,65c5074098b851296ff0b7ed,664232aed1cad9e7129cc974,,,,,,,,,,,,,,,,,,,,,,,,,,,,,2106.7834,2,audio/Narrative5Situation3.wav,2109.7908,,2109.7908,2123.6905,"[[999,5],[999,82],[999,166],[999,249],[999,332],[999,416],[999,499],[999,582],[999,666],[999,749],[999,832],[999,916],[999,999],[999,1082],[999,1166],[999,1249],[999,1333],[999,1416],[999,1499],[999,1583],[999,1666],[999,1749],[999,1833],[999,1917],[999,1999],[999,2082],[999,2166],[999,2249],[999,2332],[999,2416],[999,2500],[999,2583],[999,2666],[999,2749],[999,2832],[999,2916],[999,2999],[999,3082],[999,3166],[999,3250],[999,3333],[999,3416],[999,3499],[999,3582],[999,3666],[999,3749],[999,3833],[999,3916],[999,3999],[999,4083],[999,4166],[999,4249],[999,4332],[999,4416],[999,4499],[999,4583],[999,4666],[999,4749],[999,4833],[999,4916],[999,4999],[999,5082],[999,5166],[999,5249],[999,5333],[999,5416],[999,5499],[999,5582],[999,5666],[999,5749],[999,5832],[999,5916],[999,5999],[999,6082],[999,6166],[999,6249],[999,6332],[999,6416],[999,6499],[999,6582],[999,6666],[999,6749],[999,6832],[999,6916],[999,6999],[999,7082],[999,7166],[999,7249],[999,7332],[999,7416],[999,7499],[999,7582],[999,7666],[999,7749],[999,7832],[999,7916],[999,7999],[999,8082],[999,8166],[999,8249],[999,8332],[999,8416],[999,8499],[999,8583],[999,8666],[999,8749],[999,8832],[999,8916],[999,8999],[999,9082],[999,9166],[999,9249],[999,9332],[999,9416],[999,9499],[999,9582],[999,9666],[999,9749],[999,9833],[999,9916],[999,9999],[999,10082],[999,10166],[999,10249],[999,10332],[999,10416],[999,10499],[999,10582],[999,10666],[999,10749],[999,10832],[999,10916],[999,10999],[999,11082],[999,11166],[999,11249],[999,11332],[999,11416],[999,11499],[999,11582],[999,11666],[999,11749],[999,11832],[999,11916],[999,11999],[999,12082],[999,12166],[999,12249],[999,12332],[999,12416],[999,12499],[999,12582],[999,12666],[999,12749],[999,12832],[999,12916],[999,12999],[999,13082],[999,13166],[999,13249],[999,13332],[999,13416],[999,13499],[999,13582],[999,13667],[999,13749],[999,13832]]",1,0,2123.6906,2127.1825,52.14362272,3.4031,"[{""rating"":52.14362272240086,""responseTime"":3.4031000000240965}]",space,2.9724,,2127.1826,All the time,100,2127.1842,,,[],,0,3,3,3,1,audio/Narrative7Situation3.wav,audio/Narrative8Situation3.wav,audio/Narrative5Situation3.wav,audio/Narrative6Situation3.wav,8,4,3,5,,,,,,,,,,,,,,,,,,,,,,,,,,,,,,,,,,,,,,,
,,,,,,58c38ef58158840001b5c230,2024-05-13_11h33.20.833,group3.1-3.2-social-tom,2023.2.2,Win32,119.047619,65c5074098b851296ff0b7ed,664232aed1cad9e7129cc974,,,,,,,,,,,,,,,,,,,,,,,,,,,,,2127.1843,2,audio/Narrative5Situation4.wav,2128.1901,,2128.1901,2148.5571,"[[999,0],[999,83],[999,166],[999,250],[999,333],[52.7,416],[52.7,499],[52.7,583],[53,667],[53.1,750],[53.1,833],[53.1,916],[53.1,1000],[53.1,1083],[53.1,1166],[53.1,1250],[53.1,1333],[53.1,1416],[53.1,1500],[53.4,1583],[53.5,1666],[53.6,1750],[53.6,1833],[53.6,1916],[53.8,2000],[53.8,2083],[53.8,2166],[53.8,2249],[53.8,2333],[53.8,2416],[53.8,2500],[53.8,2583],[53.8,2666],[53.8,2750],[53.8,2833],[53.8,2916],[53.8,3000],[53.8,3083],[53.8,3166],[53.8,3249],[53.8,3333],[53.8,3416],[53.8,3499],[53.8,3583],[53.8,3666],[53.8,3750],[53.8,3833],[53.8,3916],[53.8,3999],[53.8,4083],[53.8,4166],[53.8,4249],[53.8,4333],[53.8,4416],[53.8,4500],[53.8,4583],[53.8,4666],[53.8,4749],[53.8,4833],[53.8,4916],[53.8,4999],[53.8,5083],[53.8,5166],[53.8,5249],[53.8,5333],[53.8,5416],[53.8,5499],[53.8,5583],[53.8,5666],[53.8,5749],[53.8,5833],[53.8,5916],[53.8,6000],[53.8,6083],[53.8,6166],[53.8,6249],[53.8,6334],[53.8,6416],[53.8,6499],[53.8,6583],[53.8,6666],[53.8,6749],[53.8,6833],[53.8,6916],[53.8,7000],[53.8,7083],[53.8,7166],[53.8,7249],[53.8,7333],[53.8,7416],[53.8,7500],[53.8,7583],[53.8,7666],[53.8,7749],[53.8,7833],[53.8,7916],[53.8,8000],[53.8,8083],[53.8,8166],[53.8,8250],[53.8,8333],[53.8,8416],[53.8,8500],[53.8,8583],[53.8,8666],[53.8,8749],[53.8,8833],[53.8,8916],[53.8,8999],[53.8,9083],[53.8,9166],[53.8,9249],[53.8,9333],[53.8,9416],[53.8,9499],[53.8,9583],[53.8,9666],[53.8,9749],[53.8,9833],[53.8,9916],[53.8,9999],[53.8,10083],[53.8,10166],[53.8,10249],[53.8,10333],[53.8,10416],[53.8,10499],[53.8,10583],[53.8,10666],[53.8,10749],[53.8,10833],[53.8,10916],[53.8,11000],[53.8,11083],[53.8,11166],[53.8,11249],[53.8,11333],[53.8,11416],[53.8,11499],[53.8,11583],[53.8,11666],[53.8,11749],[53.8,11833],[53.8,11916],[53.8,11999],[53.8,12083],[53.8,12166],[53.8,12249],[53.8,12333],[53.8,12416],[53.8,12499],[53.8,12583],[53.8,12666],[53.8,12749],[53.8,12833],[53.8,12916],[53.8,12999],[53.8,13083],[53.8,13166],[53.8,13249],[53.8,13333],[53.8,13416],[53.8,13499],[53.8,13583],[53.8,13666],[53.8,13749],[53.8,13833],[53.8,13916],[53.8,13999],[53.8,14083],[53.8,14166],[53.8,14249],[53.8,14333],[53.8,14416],[53.8,14499],[53.8,14583],[53.8,14666],[53.8,14749],[53.8,14833],[53.8,14916],[53.8,15000],[53.8,15083],[53.8,15166],[53.8,15250],[53.8,15333],[53.8,15416],[53.8,15499],[53.8,15583],[53.8,15666],[53.8,15749],[53.8,15833],[53.8,15916],[53.8,15999],[53.8,16083],[53.8,16166],[53.8,16249],[53.8,16333],[53.8,16416],[53.8,16499],[53.8,16583],[53.8,16666],[53.8,16750],[53.8,16833],[53.8,16916],[53.8,16999],[53.8,17083],[53.8,17166],[53.8,17249],[53.8,17333],[53.8,17416],[53.8,17500],[53.8,17583],[53.8,17666],[53.8,17749],[53.8,17833],[53.8,17916],[53.8,17999],[53.8,18083],[53.8,18166],[53.8,18249],[53.8,18333],[53.8,18416],[53.8,18499],[53.8,18583],[53.8,18666],[53.8,18749],[53.8,18833],[53.8,18916],[53.8,19000],[53.8,19083],[53.8,19166],[53.8,19249],[53.8,19333],[53.8,19416],[53.8,19499],[53.8,19583],[53.8,19666],[53.8,19750],[53.8,19833],[53.8,19916],[53.8,19999],[53.8,20083],[53.8,20166],[53.8,20249],[53.8,20333]]",1,0,2148.5573,2150.3816,51.50053591,1.6495,"[{""rating"":51.5005359056806,""responseTime"":1.649499999999989}]",space,1.2924,,2150.3816,Half the time,50,2150.3834,,,[],,0,4,4,4,1,audio/Narrative7Situation4.wav,audio/Narrative8Situation4.wav,audio/Narrative5Situation4.wav,audio/Narrative6Situation4.wav,3,3,1,2,,,,,,,,,,,,,,,,,,,,,,,,,,,,,,,,,,,,,,,
,,,,,,58c38ef58158840001b5c230,2024-05-13_11h33.20.833,group3.1-3.2-social-tom,2023.2.2,Win32,119.047619,65c5074098b851296ff0b7ed,664232aed1cad9e7129cc974,,,,,,,,,,,,,,,,,,,,,,,,,,,,,2150.3835,2,audio/Narrative5Situation5.wav,2155.3899,,2155.3899,2170.7898,"[[999,4],[999,83],[999,166],[999,250],[999,333],[999,416],[999,500],[999,583],[999,666],[999,750],[999,833],[999,916],[999,1000],[999,1083],[999,1166],[999,1249],[999,1333],[999,1416],[999,1500],[999,1583],[999,1666],[999,1749],[999,1833],[999,1916],[999,1999],[999,2083],[999,2166],[999,2249],[999,2333],[999,2416],[999,2500],[999,2583],[999,2666],[999,2749],[999,2833],[999,2917],[999,3000],[999,3083],[999,3166],[999,3250],[999,3333],[999,3416],[999,3500],[999,3583],[999,3666],[999,3749],[999,3833],[999,3916],[999,3999],[999,4083],[999,4166],[999,4249],[999,4333],[999,4416],[999,4499],[999,4583],[999,4666],[999,4750],[999,4833],[999,4916],[999,4999],[999,5083],[999,5166],[999,5249],[999,5333],[999,5416],[999,5499],[999,5583],[999,5666],[999,5750],[999,5833],[999,5917],[999,5999],[999,6083],[999,6166],[999,6249],[999,6333],[999,6416],[999,6499],[999,6583],[999,6666],[999,6749],[999,6833],[999,6916],[999,7000],[999,7083],[999,7166],[999,7250],[999,7333],[999,7416],[999,7499],[999,7583],[999,7666],[999,7750],[999,7833],[999,7916],[999,7999],[999,8083],[999,8166],[999,8249],[999,8333],[999,8416],[999,8500],[999,8584],[999,8666],[999,8750],[999,8833],[999,8916],[999,8999],[999,9083],[999,9166],[999,9250],[999,9333],[999,9416],[999,9499],[999,9583],[999,9666],[999,9749],[999,9833],[999,9916],[999,10000],[999,10083],[999,10166],[999,10249],[999,10333],[999,10416],[999,10499],[999,10583],[999,10666],[999,10749],[999,10833],[999,10916],[999,10999],[999,11083],[999,11166],[999,11249],[999,11333],[999,11416],[999,11499],[999,11583],[999,11666],[999,11749],[999,11833],[999,11916],[999,11999],[999,12083],[999,12166],[999,12249],[999,12333],[999,12416],[999,12499],[999,12583],[999,12666],[999,12749],[999,12833],[999,12916],[999,12999],[999,13083],[999,13166],[999,13249],[999,13333],[999,13416],[999,13499],[999,13583],[999,13666],[999,13749],[999,13833],[999,13916],[999,13999],[999,14083],[999,14166],[999,14249],[999,14333],[999,14416],[999,14499],[999,14583],[999,14666],[999,14749],[999,14832],[999,14916],[999,14999],[999,15083],[999,15167],[999,15249],[999,15333]]",1,0,2170.7898,2174.5819,53.00107181,3.6168,"[{""rating"":53.0010718113612,""responseTime"":3.616799999952491}]",space,3.2831,,2174.5819,Half the time,50,2174.5828,,,[],,0,5,5,5,1,audio/Narrative7Situation5.wav,audio/Narrative8Situation5.wav,audio/Narrative5Situation5.wav,audio/Narrative6Situation5.wav,5,2,5,2,,,,,,,,,,,,,,,,,,,,,,,,,,,,,,,,,,,,,,,
,,,,,,58c38ef58158840001b5c230,2024-05-13_11h33.20.833,group3.1-3.2-social-tom,2023.2.2,Win32,119.047619,65c5074098b851296ff0b7ed,664232aed1cad9e7129cc974,,,,,,,,,,,,,,,,,,,,,,,,,,,,,2174.5829,2,audio/Narrative5Situation6.wav,2177.5897,,2177.5897,2183.257,"[[999,5],[999,83],[999,166],[999,249],[999,333],[999,416],[999,499],[999,583],[999,666],[999,749],[999,833],[999,916],[999,999],[999,1083],[999,1166],[999,1249],[999,1333],[999,1416],[999,1499],[999,1583],[999,1666],[999,1749],[999,1833],[999,1916],[999,1999],[999,2083],[999,2166],[999,2249],[999,2333],[999,2416],[999,2499],[999,2583],[999,2666],[999,2749],[999,2833],[999,2916],[999,3000],[999,3083],[999,3166],[999,3249],[999,3333],[999,3416],[999,3499],[999,3583],[999,3666],[999,3749],[999,3833],[999,3916],[999,4000],[999,4083],[999,4166],[999,4249],[999,4333],[999,4416],[999,4499],[999,4583],[999,4666],[999,4749],[999,4833],[999,4916],[999,5000],[999,5083],[999,5166],[999,5249],[999,5333],[999,5416],[999,5499],[999,5583],[999,5667]]",1,0,2183.2571,2185.2646,97.90996785,1.8899,"[{""rating"":97.90996784565917,""responseTime"":1.8898999999760235}]",space,1.486,,2185.2647,All the time,100,2185.2664,,,[],,0,6,6,6,1,audio/Narrative7Situation6.wav,audio/Narrative8Situation6.wav,audio/Narrative5Situation6.wav,audio/Narrative6Situation6.wav,3,2,3,2,,,,,,,,,,,,,,,,,,,,,,,,,,,,,,,,,,,,,,,
,,,,,,58c38ef58158840001b5c230,2024-05-13_11h33.20.833,group3.1-3.2-social-tom,2023.2.2,Win32,119.047619,65c5074098b851296ff0b7ed,664232aed1cad9e7129cc974,,,,,,,,,,,,,,,,,,,,,,,,,,,,,2185.2664,2,audio/Narrative5Situation7.wav,2189.2729,,2189.2729,2210.2896,"[[999,5],[999,83],[999,166],[999,250],[999,333],[999,416],[999,499],[999,583],[999,666],[999,750],[999,833],[999,916],[999,999],[999,1083],[999,1166],[999,1250],[999,1333],[999,1416],[999,1499],[999,1583],[999,1666],[999,1750],[999,1833],[999,1916],[999,2000],[999,2083],[999,2166],[999,2249],[999,2333],[999,2416],[999,2500],[999,2583],[999,2666],[999,2749],[999,2833],[999,2916],[999,3000],[999,3083],[999,3166],[999,3250],[999,3333],[999,3416],[999,3499],[999,3583],[999,3666],[999,3750],[999,3833],[999,3916],[999,3999],[999,4083],[999,4166],[999,4250],[999,4333],[999,4417],[999,4499],[999,4583],[999,4666],[999,4750],[999,4833],[999,4916],[999,4999],[999,5083],[999,5166],[999,5250],[999,5333],[999,5416],[999,5500],[999,5583],[999,5666],[999,5749],[999,5833],[999,5916],[999,6000],[999,6083],[999,6166],[999,6249],[999,6333],[999,6416],[999,6499],[999,6583],[999,6666],[999,6749],[999,6833],[999,6916],[999,6999],[999,7083],[999,7166],[999,7249],[999,7333],[999,7416],[999,7499],[999,7583],[999,7666],[999,7749],[999,7833],[999,7916],[999,7999],[999,8083],[999,8166],[999,8249],[999,8333],[999,8416],[999,8499],[999,8583],[999,8666],[999,8749],[999,8833],[999,8916],[999,8999],[999,9083],[999,9166],[999,9249],[999,9333],[999,9416],[999,9500],[999,9583],[999,9666],[999,9749],[999,9833],[999,9916],[999,10000],[999,10083],[999,10166],[999,10249],[999,10333],[999,10416],[999,10499],[999,10583],[999,10666],[999,10749],[999,10833],[999,10916],[999,10999],[999,11083],[999,11166],[999,11249],[999,11333],[999,11416],[999,11500],[999,11583],[999,11666],[999,11749],[999,11833],[999,11916],[999,11999],[999,12083],[999,12166],[999,12249],[999,12333],[999,12416],[999,12499],[999,12583],[999,12666],[999,12749],[999,12833],[999,12916],[999,12999],[999,13083],[999,13166],[999,13249],[999,13333],[999,13416],[999,13499],[999,13583],[999,13666],[999,13749],[999,13833],[999,13916],[999,14000],[999,14083],[999,14166],[999,14249],[999,14333],[999,14416],[999,14499],[999,14583],[999,14666],[999,14750],[999,14833],[999,14916],[999,14999],[999,15083],[999,15166],[999,15249],[999,15333],[999,15416],[999,15499],[999,15583],[999,15666],[999,15749],[999,15833],[999,15916],[999,15999],[999,16083],[999,16166],[999,16249],[999,16333],[999,16416],[999,16499],[999,16583],[999,16666],[999,16749],[999,16833],[999,16916],[999,16999],[999,17083],[999,17166],[999,17249],[999,17333],[999,17416],[999,17499],[999,17583],[999,17666],[999,17749],[999,17833],[999,17916],[999,17999],[999,18083],[999,18166],[999,18249],[999,18333],[999,18416],[999,18499],[999,18583],[999,18666],[999,18749],[999,18833],[999,18916],[999,18999],[999,19083],[999,19166],[999,19249],[999,19333],[999,19416],[999,19499],[999,19583],[999,19666],[999,19749],[999,19833],[999,19916],[999,19999],[999,20083],[999,20166],[999,20249],[999,20333],[999,20416],[999,20499],[999,20583],[999,20666],[999,20749],[999,20833],[999,20917],[65.4,20999]]",1,0,2210.2896,2212.9227,52.46516613,2.5086,"[{""rating"":52.465166130760984,""responseTime"":2.5085999999646447}]",space,2.1149,,2212.9227,Not at all,0,2212.9242,,,[],,0,7,7,7,1,audio/Narrative7Situation7.wav,audio/Narrative8Situation7.wav,audio/Narrative5Situation7.wav,audio/Narrative6Situation7.wav,5,3,4,5,,,,,,,,,,,,,,,,,,,,,,,,,,,,,,,,,,,,,,,
,,,,,,58c38ef58158840001b5c230,2024-05-13_11h33.20.833,group3.1-3.2-social-tom,2023.2.2,Win32,119.047619,65c5074098b851296ff0b7ed,664232aed1cad9e7129cc974,,,,,,,,,,,,,,,,,,,,,,,,,,,,,2212.9243,2,audio/Narrative5Situation8.wav,2215.931,,2215.9311,2224.7393,"[[999,0],[999,83],[999,166],[999,249],[999,333],[999,416],[999,499],[999,583],[999,666],[999,749],[999,833],[999,916],[999,999],[999,1083],[999,1166],[999,1249],[999,1333],[999,1416],[999,1499],[999,1583],[999,1666],[999,1749],[999,1833],[999,1916],[999,2000],[999,2083],[999,2166],[999,2249],[999,2333],[999,2416],[999,2499],[999,2583],[999,2666],[999,2749],[999,2833],[999,2916],[999,2999],[999,3083],[999,3166],[999,3249],[999,3333],[999,3416],[999,3500],[999,3583],[999,3666],[999,3749],[999,3833],[999,3916],[999,3999],[999,4083],[999,4166],[999,4249],[999,4333],[999,4416],[999,4499],[999,4583],[999,4666],[999,4749],[999,4833],[999,4916],[999,5000],[999,5083],[999,5166],[999,5249],[999,5333],[999,5416],[999,5499],[999,5583],[999,5666],[999,5749],[999,5833],[999,5916],[999,5999],[999,6083],[999,6166],[999,6249],[999,6333],[999,6416],[999,6500],[999,6583],[999,6666],[999,6750],[999,6833],[999,6916],[999,7000],[999,7083],[999,7166],[999,7250],[999,7333],[999,7416],[999,7500],[999,7583],[999,7666],[999,7749],[999,7833],[999,7916],[999,8000],[999,8083],[999,8166],[999,8249],[999,8333],[999,8417],[999,8499],[999,8583],[999,8666],[999,8749]]",1,0,2224.7394,2226.0981,99.08896034,1.0893,"[{""rating"":99.08896034297963,""responseTime"":1.0893000000119173}]",space,0.8381,,2226.0981,Not at all,0,2226.0989,,,[],,0,8,8,8,1,audio/Narrative7Situation8.wav,audio/Narrative8Situation8.wav,audio/Narrative5Situation8.wav,audio/Narrative6Situation8.wav,2,3,3,5,,,,,,,,,,,,,,,,,,,,,,,,,,,,,,,,,,,,,,,
,,,,,,58c38ef58158840001b5c230,2024-05-13_11h33.20.833,group3.1-3.2-social-tom,2023.2.2,Win32,119.047619,65c5074098b851296ff0b7ed,664232aed1cad9e7129cc974,,,,,,,,,,,,,,,,,,,,,,,,,,,,,2226.0991,2,audio/Narrative5Situation9.wav,2229.1059,,2229.1059,2268.631,"[[999,5],[999,83],[999,166],[999,250],[999,333],[999,416],[999,499],[999,583],[999,666],[999,750],[999,833],[999,916],[999,999],[999,1083],[999,1166],[999,1250],[999,1333],[999,1416],[999,1500],[999,1583],[999,1666],[999,1749],[999,1833],[999,1916],[999,1999],[999,2083],[999,2166],[999,2249],[999,2333],[999,2416],[999,2499],[999,2583],[999,2666],[999,2749],[999,2833],[999,2916],[999,2999],[999,3083],[999,3166],[999,3249],[999,3333],[999,3416],[999,3499],[999,3583],[999,3666],[999,3749],[999,3833],[999,3916],[999,3999],[999,4083],[999,4166],[999,4250],[999,4333],[999,4416],[999,4499],[999,4583],[999,4666],[999,4749],[999,4833],[999,4917],[999,4999],[999,5083],[999,5166],[999,5249],[999,5333],[999,5417],[999,5499],[999,5583],[999,5666],[999,5749],[999,5833],[999,5916],[999,5999],[999,6083],[999,6166],[999,6250],[999,6333],[999,6416],[999,6499],[999,6583],[999,6666],[999,6749],[999,6833],[999,6916],[999,7000],[999,7084],[999,7167],[999,7249],[999,7333],[999,7416],[999,7500],[999,7583],[999,7666],[999,7749],[999,7833],[999,7916],[999,7999],[999,8083],[999,8166],[999,8249],[999,18633],[999,18716],[999,18799],[999,18883],[999,18966],[999,19049],[999,19133],[999,19216],[999,19299],[999,19383],[999,19466],[999,19549],[999,19633],[999,19716],[999,19799],[999,19883],[999,19966],[999,20049],[999,20133],[999,20216],[999,20299],[999,20383],[999,20466],[999,20550],[999,20633],[999,20716],[999,20799],[999,20883],[999,20966],[999,21049],[999,21133],[999,21216],[999,21300],[999,21383],[999,21466],[999,21549],[999,21633],[999,21716],[999,21799],[999,21883],[999,21966],[999,22050],[999,22133],[999,22217],[999,22299],[999,22383],[999,22466],[999,22549],[999,22633],[999,22716],[999,22799],[999,22883],[999,22966],[999,23050],[999,23150],[999,23233],[999,23317],[999,23401],[999,23483],[999,23567],[999,23650],[999,23733],[999,23817],[999,23900],[999,23983],[999,24067],[999,24150],[999,24233],[999,24316],[999,24400],[999,24483],[999,24567],[999,24650],[999,24733],[999,24816],[999,24900],[999,24983],[999,25066],[999,25150],[999,25233],[999,25316],[999,25401],[999,25483],[999,25567],[999,25650],[999,25733],[999,25816],[999,25900],[999,25983],[999,26066],[999,26150],[999,26233],[999,26317],[999,26400],[999,26483],[999,26566],[999,26650],[999,26733],[999,26816],[999,26900],[999,26983],[999,27067],[999,27150],[999,27234],[999,27317],[999,27400],[999,27483],[999,27567],[999,27650],[999,27733],[999,27816],[999,27900],[999,27983],[999,28066],[999,28150],[999,28233],[999,28316],[999,28400],[999,28483],[999,28566],[999,28650],[999,28733],[999,28816],[999,28900],[999,28983],[999,29066],[999,29150],[999,29233],[999,29317],[999,29400],[999,29483],[999,29566],[999,29650],[999,29733],[999,29816],[999,29900],[999,29983],[999,30066],[999,30150],[999,30233],[999,30317],[999,30400],[999,30483],[999,30566],[999,30650],[999,30733],[999,30816],[999,30900],[999,30983],[999,31066],[999,31150],[999,31233],[999,31316],[999,31400],[999,31483],[999,31567],[999,31650],[999,31733],[999,31816],[999,31900],[999,31983],[999,32066],[999,32150],[999,32233],[999,32316],[999,32401],[999,32483],[999,32566],[999,32650],[999,32733],[999,32816],[999,32900],[999,32983],[999,33066],[999,33150],[999,33233],[999,33316],[999,33400],[999,33483],[999,33566],[999,33650],[999,33733],[999,33816],[999,33900],[999,33983],[999,34066],[999,34150],[999,34233],[999,34316],[999,34400],[999,34483],[999,34566],[999,34650],[999,34733],[999,34816],[999,34900],[999,34983],[999,35066],[999,35150],[999,35233],[999,35316],[999,35400],[999,35483],[999,35566],[999,35650],[999,35733],[999,35816],[999,35900],[999,35983],[999,36066],[999,36150],[999,36233],[999,36316],[999,36400],[999,36483],[999,36566],[999,36650],[999,36733],[999,36816],[999,36900],[999,36983],[999,37066],[999,37150],[999,37233],[999,37317],[999,37400],[999,37483],[999,37566],[999,37650],[999,37733],[999,37816],[999,37899],[999,37983],[999,38066],[999,38150],[999,38233],[999,38316],[999,38400],[999,38483],[999,38567],[999,38650],[999,38733],[999,38816],[999,38900],[999,38983],[999,39066],[999,39150],[999,39233],[999,39316],[999,39400],[999,39483]]",1,0,2268.6311,2269.6976,98.6602358,0.9534,"[{""rating"":99.30332261521973,""responseTime"":0.3113999999764019},{""rating"":98.66023579849946,""responseTime"":0.9533999999762273}]",space,0.5418,,2269.6976,Not at all,0,2269.6985,,,[],,0,9,9,9,1,audio/Narrative7Situation9.wav,audio/Narrative8Situation9.wav,audio/Narrative5Situation9.wav,audio/Narrative6Situation9.wav,2,3,3,4,,,,,,,,,,,,,,,,,,,,,,,,,,,,,,,,,,,,,,,
,,,,,,58c38ef58158840001b5c230,2024-05-13_11h33.20.833,group3.1-3.2-social-tom,2023.2.2,Win32,119.047619,65c5074098b851296ff0b7ed,664232aed1cad9e7129cc974,,,,,,,,,,,,,,,,,,,,,,,,,,,,,2269.6986,2,audio/Narrative6Situation1.wav,2271.7063,,2271.7064,2298.2726,"[[999,0],[999,83],[999,166],[999,254],[999,332],[999,418],[999,499],[999,583],[999,666],[999,749],[999,833],[999,916],[999,999],[999,1082],[999,1166],[999,1249],[999,1332],[999,1416],[999,1499],[999,1582],[999,1666],[999,1749],[999,1832],[999,1916],[999,1999],[999,2082],[999,2165],[999,2249],[999,2332],[999,2416],[999,2499],[999,2582],[999,2665],[999,2749],[999,2832],[999,2916],[999,2999],[999,3082],[999,3166],[999,3249],[999,3332],[999,3416],[999,3499],[999,3582],[999,3666],[999,3749],[999,3833],[999,3916],[999,3999],[999,4087],[999,4166],[999,4249],[999,4333],[999,4421],[999,4499],[999,4582],[999,4666],[999,4749],[999,4833],[999,4916],[999,4999],[999,5083],[999,5166],[999,5250],[999,5333],[999,5416],[999,5500],[999,5583],[999,5666],[999,5750],[999,5833],[999,5917],[999,6000],[999,6083],[999,6167],[999,6250],[999,6333],[999,6416],[999,6499],[999,6583],[999,6666],[999,6749],[999,6833],[999,6916],[999,7000],[999,7083],[999,7166],[999,7249],[999,7334],[999,7416],[999,7499],[999,7583],[999,7666],[999,7750],[999,7833],[999,7916],[999,7999],[999,8083],[999,8166],[999,8249],[999,8333],[999,8416],[999,8500],[999,8583],[999,8666],[999,8749],[999,8833],[999,8916],[999,8999],[999,9083],[999,9166],[999,9249],[999,9333],[999,9416],[999,9499],[999,9583],[999,9666],[999,9749],[999,9833],[999,9916],[999,9999],[999,10083],[999,10166],[999,10249],[999,10332],[999,10416],[999,10499],[999,10582],[999,10665],[999,10749],[999,10832],[999,10915],[999,10999],[999,11083],[999,11166],[999,11249],[999,11332],[999,11415],[999,11499],[999,11582],[999,11665],[999,11749],[999,11833],[999,11915],[999,11999],[999,12082],[999,12165],[999,12249],[999,12332],[999,12415],[999,12499],[999,12582],[999,12665],[999,12749],[999,12832],[999,12915],[999,12999],[999,13083],[999,13165],[999,13249],[999,13332],[999,13416],[999,13499],[999,13582],[999,13665],[999,13749],[999,13832],[999,13915],[999,13999],[999,14082],[999,14165],[999,14249],[999,14332],[999,14416],[999,14499],[999,14582],[999,14665],[999,14749],[999,14832],[999,14916],[999,14999],[999,15082],[999,15165],[999,15249],[999,15332],[999,15415],[999,15499],[999,15582],[999,15666],[999,15749],[999,15833],[999,15916],[999,15999],[999,16082],[999,16165],[999,16249],[999,16332],[999,16415],[999,16499],[999,16582],[999,16666],[999,16749],[999,16832],[999,16915],[999,16999],[999,17082],[999,17165],[999,17249],[999,17332],[999,17415],[999,17499],[999,17582],[999,17666],[999,17749],[999,17833],[999,17916],[999,17999],[999,18083],[999,18166],[999,18249],[999,18332],[999,18415],[999,18499],[999,18582],[999,18665],[999,18749],[999,18832],[999,18916],[999,18999],[999,19083],[999,19165],[999,19249],[999,19332],[999,19415],[999,19499],[999,19582],[999,19666],[999,19749],[999,19833],[999,19915],[999,19999],[999,20082],[999,20166],[999,20249],[999,20332],[999,20415],[999,20499],[999,20582],[999,20665],[999,20749],[999,20832],[999,20915],[999,20999],[999,21082],[999,21165],[999,21249],[999,21332],[999,21416],[999,21499],[999,21582],[999,21666],[999,21749],[999,21832],[999,21916],[999,21999],[999,22082],[999,22166],[999,22249],[999,22332],[999,22416],[999,22499],[999,22582],[999,22665],[999,22748],[999,22832],[999,22915],[999,22999],[999,23082],[999,23165],[999,23249],[999,23332],[999,23416],[999,23499],[999,23582],[999,23666],[999,23749],[999,23833],[999,23916],[999,23999],[999,24082],[999,24165],[999,24249],[999,24332],[999,24415],[999,24499],[999,24582],[999,24666],[999,24749],[999,24833],[999,24916],[999,24999],[999,25082],[999,25165],[999,25249],[999,25332],[999,25415],[999,25499],[999,25582],[999,25666],[999,25749],[999,25832],[999,25915],[999,25999],[999,26082],[999,26166],[999,26249],[999,26333],[999,26416],[999,26499]]",1,0,2298.2728,2299.8392,96.62379421,1.3444,"[{""rating"":96.62379421221866,""responseTime"":1.344399999975849}]",space,1.042,,2299.8392,Half the time,50,2299.8409,,,[],,0,10,10,10,1,audio/Narrative8Situation1.wav,audio/Narrative7Situation1.wav,audio/Narrative6Situation1.wav,audio/Narrative5Situation1.wav,5,2,2,5,,,,,,,,,,,,,,,,,,,,,,,,,,,,,,,,,,,,,,,
,,,,,,58c38ef58158840001b5c230,2024-05-13_11h33.20.833,group3.1-3.2-social-tom,2023.2.2,Win32,119.047619,65c5074098b851296ff0b7ed,664232aed1cad9e7129cc974,,,,,,,,,,,,,,,,,,,,,,,,,,,,,2299.841,2,audio/Narrative6Situation2.wav,2313.5855,,2313.5855,2342.0723,"[[999,7],[999,86],[999,169],[999,253],[999,336],[999,419],[999,503],[999,586],[39.7,669],[46.6,753],[50.3,836],[51.4,920],[52,1169],[51.9,1253],[51.7,1336]]",1,0,2342.0723,2344.3298,100,1.9935,"[{""rating"":100,""responseTime"":1.99350000000004}]",space,1.7406,,2344.3298,All the time,100,2344.3313,,,[],,0,11,11,11,1,audio/Narrative8Situation2.wav,audio/Narrative7Situation2.wav,audio/Narrative6Situation2.wav,audio/Narrative5Situation2.wav,3,3,3,3,,,,,,,,,,,,,,,,,,,,,,,,,,,,,,,,,,,,,,,
,,,,,,58c38ef58158840001b5c230,2024-05-13_11h33.20.833,group3.1-3.2-social-tom,2023.2.2,Win32,119.047619,65c5074098b851296ff0b7ed,664232aed1cad9e7129cc974,,,,,,,,,,,,,,,,,,,,,,,,,,,,,2344.3315,2,audio/Narrative6Situation3.wav,2349.3385,,2349.3385,2387.313,"[[999,5],[999,82],[999,166],[999,249],[999,333],[999,416],[999,499],[999,582],[999,666],[999,750],[999,833],[999,916],[999,999],[999,1082],[999,1166],[999,1249],[999,1333],[999,1416],[999,1499],[999,1582],[999,1666],[999,1749],[999,1832],[999,1916],[999,1999],[999,2082],[999,37899]]",1,0,2387.313,2392.4795,99.30332262,4.8828,"[{""rating"":99.30332261521973,""responseTime"":4.882800000012139}]",space,4.6475,,2392.4796,Half the time,50,2395.6628,48.92818864,3.1339,"[{""rating"":48.92818863879957,""responseTime"":3.1338999999761654}]",space,0,12,12,12,1,audio/Narrative8Situation3.wav,audio/Narrative7Situation3.wav,audio/Narrative6Situation3.wav,audio/Narrative5Situation3.wav,4,8,5,3,,,2.6711,,,,,,,,,,,,,,,,,,,,,,,,,,,,,,,,,,,,
,,,,,,58c38ef58158840001b5c230,2024-05-13_11h33.20.833,group3.1-3.2-social-tom,2023.2.2,Win32,119.047619,65c5074098b851296ff0b7ed,664232aed1cad9e7129cc974,,,,,,,,,,,,,,,,,,,,,,,,,,,,,2395.663,2,audio/Narrative6Situation4.wav,2397.6634,,2397.6634,2410.2625,"[[999,0],[999,82],[999,166],[999,249],[999,332],[999,415],[999,499],[999,582],[999,666],[999,749],[999,832],[999,915],[999,999],[999,1082],[999,1165],[999,1249],[999,1332],[999,1416],[999,1499],[999,1582],[999,1666],[999,1749],[999,1832],[999,1916],[999,1999],[999,2082],[999,2165],[999,2249],[999,2332],[999,2415],[999,2499],[999,2582],[999,2665],[999,2749],[999,2832],[999,2915],[999,2999],[999,3082],[999,3165],[999,3249],[999,3332],[999,3415],[999,3499],[999,3582],[999,3665],[999,3749],[999,3832],[999,3915],[999,3999],[999,4082],[999,4165],[999,4249],[999,4332],[999,4415],[999,4499],[999,4582],[999,4665],[999,4749],[999,4832],[999,4915],[999,4999],[999,5082],[999,5165],[999,5249],[999,5332],[999,5415],[999,5499],[999,5582],[999,5665],[999,5749],[999,5832],[999,5915],[999,5999],[999,6082],[999,6165],[999,6249],[999,6332],[999,6415],[999,6499],[999,6582],[999,6665],[999,6749],[999,6832],[999,6915],[999,6999],[999,7082],[999,7165],[999,7249],[999,7332],[999,7415],[999,7499],[999,7582],[999,7665],[999,7749],[999,7832],[999,7915],[999,7998],[999,8082],[999,8165],[999,8249],[999,8332],[999,8415],[999,8499],[999,8582],[999,8665],[999,8748],[999,8832],[999,8915],[999,8999],[999,9082],[999,9165],[999,9248],[999,9332],[999,9416],[999,9499],[999,9582],[999,9665],[999,9749],[999,9832],[999,9915],[999,9999],[999,10082],[999,10165],[999,10249],[999,10332],[999,10415],[999,10498],[999,10582],[999,10665],[999,10749],[999,10832],[999,10915],[999,10998],[999,11082],[999,11165],[999,11248],[999,11332],[999,11415],[999,11498],[999,11582],[999,11665],[999,11748],[999,11832],[999,11915],[999,11999],[999,12082],[999,12165],[999,12248],[999,12332],[999,12415],[999,12498],[999,12582]]",1,0,2410.2626,2412.3125,97.15969989,1.8446,"[{""rating"":97.15969989281886,""responseTime"":1.844600000024002}]",space,1.5307,,2412.3126,Not at all,0,2412.3142,,,[],,0,13,13,13,1,audio/Narrative8Situation4.wav,audio/Narrative7Situation4.wav,audio/Narrative6Situation4.wav,audio/Narrative5Situation4.wav,3,3,2,1,,,,,,,,,,,,,,,,,,,,,,,,,,,,,,,,,,,,,,,
,,,,,,58c38ef58158840001b5c230,2024-05-13_11h33.20.833,group3.1-3.2-social-tom,2023.2.2,Win32,119.047619,65c5074098b851296ff0b7ed,664232aed1cad9e7129cc974,,,,,,,,,,,,,,,,,,,,,,,,,,,,,2412.3143,2,audio/Narrative6Situation5.wav,2414.321,,2414.321,2422.2624,"[[999,0],[999,83],[999,166],[999,249],[999,333],[999,416],[999,499],[999,583],[999,666],[999,749],[999,833],[999,916],[999,1000],[999,1083],[999,1166],[999,1249],[999,1333],[999,1416],[999,1499],[999,1583],[999,1666],[999,1749],[999,1833],[999,1916],[999,2000],[999,2083],[999,2166],[999,2249],[999,2333],[999,2416],[999,2499],[999,2583],[999,2675],[999,2759],[999,2842],[999,2925],[999,3016],[999,3099],[999,3183],[999,3266],[999,3350],[999,3433],[999,3516],[999,3599],[999,3683],[999,3766],[999,3849],[999,3932],[999,4016],[999,4099],[999,4183],[999,4266],[999,4349],[999,4432],[999,4516],[999,4599],[999,4683],[999,4766],[999,4849],[999,4932],[999,5016],[999,5099],[999,5183],[999,5266],[999,5349],[999,5433],[999,5516],[999,5599],[999,5682],[999,5766],[999,5849],[999,5933],[999,6016],[999,6099],[999,6182],[999,6266],[999,6349],[999,6433],[999,6516],[999,6599],[999,6683],[999,6766],[999,6849],[999,6933],[999,7016],[999,7099],[999,7183],[999,7266],[999,7349],[999,7433],[999,7516],[999,7600],[999,7683],[999,7766],[999,7850],[999,7933]]",1,0,2422.2625,2423.8462,49.78563773,1.4199,"[{""rating"":49.78563772775991,""responseTime"":1.4199000000357955}]",space,1.0662,,2423.8462,Not at all,0,2423.8472,,,[],,0,14,14,14,1,audio/Narrative8Situation5.wav,audio/Narrative7Situation5.wav,audio/Narrative6Situation5.wav,audio/Narrative5Situation5.wav,2,5,2,5,,,,,,,,,,,,,,,,,,,,,,,,,,,,,,,,,,,,,,,
,,,,,,58c38ef58158840001b5c230,2024-05-13_11h33.20.833,group3.1-3.2-social-tom,2023.2.2,Win32,119.047619,65c5074098b851296ff0b7ed,664232aed1cad9e7129cc974,,,,,,,,,,,,,,,,,,,,,,,,,,,,,2423.8473,2,audio/Narrative6Situation6.wav,2425.8541,,2425.8541,2436.9211,"[[999,0],[999,83],[999,166],[999,250],[999,333],[999,416],[999,499],[999,583],[999,666],[999,749],[999,833],[999,916],[999,999],[999,1083],[999,1166],[999,1249],[999,1333],[999,1416],[999,1499],[999,1583],[999,1666],[999,1749],[999,1833],[999,1916],[999,2000],[999,2083],[999,2166],[999,2249],[999,2333],[999,2416],[999,2500],[999,2583],[999,2666],[999,2749],[999,2833],[999,2916],[999,3000],[999,3083],[999,3166],[999,3250],[999,3333],[999,3416],[999,3500],[999,3583],[999,3666],[999,3749],[999,3833],[999,3916],[999,3999],[999,4083],[999,4166],[999,4250],[999,4333],[999,4416],[999,4499],[999,4583],[999,4666],[999,4749],[999,4833],[999,4916],[999,4999],[999,5083],[999,5166],[999,5249],[999,5333],[999,5416],[999,5499],[999,5583],[999,5666],[999,5749],[999,5833],[999,5916],[999,5999],[999,6083],[999,6166],[999,6249],[999,6333],[999,6416],[999,6499],[999,6583],[999,6666],[999,6749],[999,6833],[999,6916],[999,6999],[999,7083],[999,7166],[999,7249],[999,7333],[999,7416],[999,7499],[999,7583],[999,7666],[999,7749],[999,7833],[999,7916],[999,7999],[999,8083],[999,8166],[999,8249],[999,8333],[999,8416],[999,8500],[999,8583],[999,8666],[999,8752],[999,8833],[999,8916],[999,8999],[999,9083],[999,9166],[999,9249],[999,9332],[999,9416],[999,9500],[999,9583],[999,9666],[999,9749],[999,9833],[999,9916],[999,10000],[999,10083],[999,10166],[999,10249],[999,10333],[999,10417],[999,10500],[999,10583],[999,10666],[999,10750],[999,10833],[999,10916],[999,10999]]",1,0,2436.9211,2438.1456,98.23151125,1.0838,"[{""rating"":99.08896034297963,""responseTime"":0.15169999998806816},{""rating"":98.2315112540193,""responseTime"":1.083800000012161}]",space,0.7059,,2438.1456,Half the time,50,2438.1472,,,[],,0,15,15,15,1,audio/Narrative8Situation6.wav,audio/Narrative7Situation6.wav,audio/Narrative6Situation6.wav,audio/Narrative5Situation6.wav,2,3,2,3,,,,,,,,,,,,,,,,,,,,,,,,,,,,,,,,,,,,,,,
,,,,,,58c38ef58158840001b5c230,2024-05-13_11h33.20.833,group3.1-3.2-social-tom,2023.2.2,Win32,119.047619,65c5074098b851296ff0b7ed,664232aed1cad9e7129cc974,,,,,,,,,,,,,,,,,,,,,,,,,,,,,2438.1473,2,audio/Narrative6Situation7.wav,2443.1543,,2443.1544,2467.9871,"[[999,5],[999,83],[999,166],[999,250],[999,332],[999,416],[999,499],[999,582],[999,666],[999,749],[999,832],[999,916],[999,999],[999,1082],[999,1166],[999,1249],[999,1332],[999,1416],[999,1499],[999,1582],[999,1666],[999,1749],[999,1832],[999,1916],[999,1999],[999,2082],[999,2166],[999,2249],[999,2332],[999,2416],[999,2499],[999,2582],[999,2666],[999,2749],[999,2832],[999,2916],[999,2999],[999,3082],[999,3166],[999,3249],[999,3332],[999,3416],[999,3499],[999,3582],[999,3666],[999,3749],[999,3832],[999,3916],[999,3999],[999,4082],[999,4166],[999,4249],[999,4332],[999,4416],[999,4499],[999,4582],[999,4666],[999,4749],[999,4832],[999,4916],[999,4999],[999,5082],[999,5166],[999,5249],[999,5332],[999,5416],[999,5499],[999,5582],[999,5666],[999,5749],[999,5832],[999,5916],[999,5999],[999,6082],[999,6166],[999,6250],[999,6332],[999,6416],[999,6499],[999,6582],[999,6666],[999,6749],[999,6832],[999,6916],[999,6999],[999,7082],[999,7166],[999,7250],[999,7332],[999,7415],[999,7499],[999,7582],[999,7666],[999,7749],[999,7833],[999,7916],[999,7999],[999,8082],[999,8166],[999,8249],[999,8332],[999,8416],[999,8499],[999,8583],[999,8666],[999,8749],[999,8832],[999,8916],[999,8999],[999,9082],[999,9166],[999,9249],[999,9332],[999,9416],[999,9499],[999,9583],[999,9666],[999,9749],[999,9833],[999,9916],[999,9999],[999,10082],[999,10165],[999,10249],[999,10333],[999,10416],[999,10499],[999,10583],[999,10666],[999,10749],[999,10832],[999,10916],[999,10999],[999,11082],[999,11165],[999,11250],[999,11333],[999,11416],[999,11499],[999,11583],[999,11666],[999,11750],[999,11833],[999,11916],[999,11999],[999,12083],[999,12166],[999,12250],[999,12332],[999,12415],[999,12499],[999,12582],[999,12666],[999,12750],[999,12832],[999,12916],[999,12999],[999,13082],[999,13166],[999,13250],[999,13332],[999,13415],[999,13499],[999,13582],[999,13665],[999,13749],[999,13832],[999,13916],[999,13999],[999,14082],[999,14165],[999,14249],[999,14332],[999,14415],[999,14499],[999,14582],[999,14665],[999,14749],[999,14833],[999,14916],[999,14999],[999,15082],[999,15166],[999,15250],[999,15333],[999,15416],[999,15499],[999,15582],[999,15665],[999,15749],[999,15832],[999,15916],[999,15999],[999,16082],[999,16165],[999,16249],[999,16333],[999,16416],[999,16499],[999,16583],[999,16665],[999,16749],[999,16832],[999,16915],[999,16999],[999,17082],[999,17165],[999,17249],[999,17332],[999,17415],[999,17499],[999,17582],[999,17665],[999,17749],[999,17832],[999,17915],[999,17999],[999,18082],[999,18165],[999,18249],[999,18332],[999,18415],[999,18499],[999,18582],[999,18665],[999,18749],[999,18832],[999,18915],[999,18999],[999,19082],[999,19165],[999,19249],[999,19332],[999,19415],[999,19499],[999,19582],[999,19665],[999,19749],[999,19832],[999,19915],[999,19999],[999,20082],[999,20165],[999,20249],[999,20332],[999,20415],[999,20499],[999,20583],[999,20665],[999,20749],[999,20832],[999,20915],[999,20999],[999,21083],[999,21165],[999,21249],[999,21332],[999,21415],[999,21499],[999,21582],[999,21665],[999,21749],[999,21832],[999,21915],[999,21999],[999,22082],[999,22165],[999,22249],[999,22332],[999,22415],[999,22499],[999,22582],[999,22666],[999,22749],[999,22833],[999,22916],[999,22999],[999,23082],[999,23166],[999,23250],[999,23332],[999,23415],[999,23499],[999,23582],[999,23666],[999,23749],[999,23833],[999,23915],[999,23999],[999,24082],[999,24166],[999,24249],[999,24332],[999,24415],[999,24499],[999,24582],[999,24665],[999,24749],[999,24832]]",1,0,2467.9872,2470.1369,97.37406217,1.8754,"[{""rating"":97.37406216505894,""responseTime"":1.8754000000358246}]",space,1.6279,,2470.137,Half the time,50,2470.1378,,,[],,0,16,16,16,1,audio/Narrative8Situation7.wav,audio/Narrative7Situation7.wav,audio/Narrative6Situation7.wav,audio/Narrative5Situation7.wav,3,5,5,4,,,,,,,,,,,,,,,,,,,,,,,,,,,,,,,,,,,,,,,
,,,,,,58c38ef58158840001b5c230,2024-05-13_11h33.20.833,group3.1-3.2-social-tom,2023.2.2,Win32,119.047619,65c5074098b851296ff0b7ed,664232aed1cad9e7129cc974,,,,,,,,,,,,,,,,,,,,,,,,,,,,,2470.138,2,audio/Narrative6Situation8.wav,2475.1459,,2475.146,2481.987,"[[999,5],[999,82],[999,165],[999,249],[999,332],[999,415],[999,500],[999,583],[999,666],[999,749],[999,832],[999,915],[999,999],[999,1082],[999,1166],[999,1249],[999,1332],[999,1415],[999,1499],[999,1582],[999,1668],[999,1749],[999,1832],[999,1915],[999,1999],[999,2082],[999,2165],[999,2249],[999,2332],[999,2415],[999,2499],[999,2582],[999,2665],[999,2749],[999,2832],[999,2915],[999,2999],[999,3082],[999,3165],[999,3249],[999,3332],[999,3415],[999,3499],[999,3582],[999,3665],[999,3749],[999,3832],[999,3915],[999,3999],[999,4082],[999,4165],[999,4249],[999,4332],[999,4415],[999,4499],[999,4582],[999,4665],[999,4749],[999,4832],[999,4915],[999,4999],[999,5082],[999,5165],[999,5249],[999,5332],[999,5415],[999,5499],[999,5582],[999,5665],[999,5749],[999,5832],[999,5915],[999,5999],[999,6082],[999,6165],[999,6249],[999,6332],[999,6415],[999,6499],[999,6582],[999,6665],[999,6749],[999,6832]]",1,0,2481.9872,2484.137,46.78456592,1.9538,"[{""rating"":46.78456591639871,""responseTime"":1.9538000000115971}]",space,1.6206,,2484.137,Not at all,0,2484.1385,,,[],,0,17,17,17,1,audio/Narrative8Situation8.wav,audio/Narrative7Situation8.wav,audio/Narrative6Situation8.wav,audio/Narrative5Situation8.wav,3,2,5,3,,,,,,,,,,,,,,,,,,,,,,,,,,,,,,,,,,,,,,,
,,,,,,58c38ef58158840001b5c230,2024-05-13_11h33.20.833,group3.1-3.2-social-tom,2023.2.2,Win32,119.047619,65c5074098b851296ff0b7ed,664232aed1cad9e7129cc974,,,,,,,,,,,,,,,,,,,,,,,,,,,,,2484.1387,2,audio/Narrative6Situation9.wav,2565.1408,,2565.1409,2575.0696,"[[999,6],[999,78],[999,162],[27.6,245],[31.9,328],[44.5,412],[53.1,495],[52.8,578],[52,1828],[51.2,1912],[50.3,1995],[50.3,2078],[50.3,2161],[50.3,2245],[50.3,2328],[50.1,2411],[49.1,2495],[48.3,2578],[48.2,2661],[48,2745],[47.5,2828],[47.4,2911],[47.3,2995],[47.1,3078],[46.7,3161],[46.4,3245],[47,3328],[46.1,3411],[45.7,3495],[45.7,3578],[45.7,3661],[45.1,3745],[44.3,3828],[44.3,3912],[45.1,3995],[44.2,4078],[43.9,4161],[43.2,4245],[43.2,4328],[43.2,4411],[43.2,4495],[42.7,4911],[42.5,4995],[43.4,9245],[43.6,9328],[44.1,9578],[44,9662]]",1,0,2575.0697,2577.1692,46.67738478,1.8926,"[{""rating"":46.67738478027867,""responseTime"":1.8925999999642045}]",space,1.5799,,2577.1693,Half the time,50,2577.1708,,,[],,0,18,18,18,1,audio/Narrative8Situation9.wav,audio/Narrative7Situation9.wav,audio/Narrative6Situation9.wav,audio/Narrative5Situation9.wav,3,2,4,3,,,,,,,,,,,,,,,,,,,,,,,,,,,,,,,,,,,,,,,
,,,,,,58c38ef58158840001b5c230,2024-05-13_11h33.20.833,group3.1-3.2-social-tom,2023.2.2,Win32,119.047619,65c5074098b851296ff0b7ed,664232aed1cad9e7129cc974,,,,,,,,,,,,,,,,,,,,,,,,,,,,,,,,,,,,,,,,,,,,,,,,,,,,,,,,,,,,,,,,,,,,,,,,2577.171,2583.4359,space,5.7532,,2583.4363,2595.6114,space,11.8645,,,,,,,,,,,,,,,,,,,,,,,,,,
,,,,,,58c38ef58158840001b5c230,2024-05-13_11h33.20.833,group3.1-3.2-social-tom,2023.2.2,Win32,119.047619,65c5074098b851296ff0b7ed,664232aed1cad9e7129cc974,,,,,,,,,,,,,,,,,,,,,,,,,,,,,2598.2017,1,audio/Narrative8Situation9.wav,2600.2036,,,,,,,2632.0506,2634.7695,97.37406217,2.3657,"[{""rating"":97.37406216505894,""responseTime"":2.3656999999884647}]",space,2.1994,,2632.0445,Half the time,50,2632.0506,,,[],,,,,,,,,,,2,2,2,2,,,,,,,,,,,,,,,2595.6177,2598.1944,2600.2039,3,2632.0445,"[[999,0],[999,91],[58.8,173],[54.9,256],[54.9,340],[54.9,423],[54.9,506],[56.5,590],[57.4,673],[57.4,756],[57.4,840]]",0,0,0,0,1,"Larry had recently lost his family, job and home, and was now living on his own in the park. He had most of his belongings, including some clothes, a blanket, and his mother’s special necklace. His family had been very important to him and he felt as though he did not have much going for him. One of his first days in the park he came across a family that did not have much food and looked very cold. He decided to give them some of his food and his blanket.","Larry had recently lost his family, job and home, and was now living on his own in the park. He had most of his belongings, including some clothes, a blanket, and his mother’s special necklace. His family had been very important to him and he felt as though he did not have much going for him. One of his first days in the park he came across a family that did not have much food and looked very cold. He decided to give them some of his food and his blanket.","Larry had recently lost his family, job and home, and was now living on his own in the park. He had most of his belongings, including some clothes, a blanket, and his mother’s special necklace. His family had been very important to him and he felt as though he did not have much going for him. One of his first days in the park he came across a family that did not have much food and looked very cold. He decided to give them some of his food and his blanket.","Larry had recently lost his family, job and home, and was now living on his own in the park. He had most of his belongings, including some clothes, a blanket, and his mother’s special necklace. His family had been very important to him and he felt as though he did not have much going for him. One of his first days in the park he came across a family that did not have much food and looked very cold. He decided to give them some of his food and his blanket.",,,,,,,,,,
,,,,,,58c38ef58158840001b5c230,2024-05-13_11h33.20.833,group3.1-3.2-social-tom,2023.2.2,Win32,119.047619,65c5074098b851296ff0b7ed,664232aed1cad9e7129cc974,,,,,,,,,,,,,,,,,,,,,,,,,,,,,2634.7698,1,audio/Narrative8Situation9.wav,2637.0022,space,,,,,,2670.5168,2678.3686,99.41050375,7.7646,"[{""rating"":99.41050375133976,""responseTime"":7.764599999964048}]",space,7.3367,,2670.5105,Half the time,50,2670.5168,,,[],,,,,,,,,,,6,2,3,9,2.2211,,,,,,,,,,,,,,,,2637.0022,3,2670.5104,"[[999,0],[999,83],[999,166],[999,249],[999,333],[999,416],[999,500],[76.9,583],[77.3,666],[77.4,749],[77.7,833],[77.7,916],[77.4,999],[77.2,1083],[78.2,1167],[78.8,1249],[78.7,1333],[78.3,1417],[78.3,1499],[78.3,1583],[78.3,1666],[79.4,1750],[79.5,1833],[79.5,1916],[79.5,1999],[79.5,2083],[79.5,2166],[78.9,2250],[74.9,2333],[74.9,2417],[74.7,2500],[73.7,2583],[72.7,2666],[72.5,2750],[72.9,2833],[72.5,2916],[71.3,3000],[70.9,3084],[70.7,3166],[70.8,3250],[70.2,3750],[70.2,3833],[69.8,3916],[68.9,4666],[68.8,4749],[67.6,8666],[67.5,8749],[67.8,8833],[67.8,14333],[67.6,14416],[67.6,14499],[67.6,23583],[67.5,23666],[67.5,23749],[67.6,23833],[67.6,23916],[67.5,24000],[67.5,24082],[67.6,24166],[67.7,24249],[68.1,24333],[68.2,24416],[69,24500],[69.3,24582],[69.3,24666],[69.3,24749],[69.3,24832],[69.3,24916],[69.3,24999],[69.3,25082],[69.3,25166],[69.3,25249],[69.3,25332],[69.3,25416],[69.3,25499],[69.3,25582],[69.3,25666],[69.3,25750],[69.3,25832],[69.3,25916],[69.3,25999],[69.3,26083],[69.3,26166],[69.3,26249],[69.3,26332],[69.3,26416],[69.3,26499],[69.3,26583],[69.3,26666],[69.3,26749],[69.3,26832],[69.3,26916],[69.3,27000],[69.3,27082],[69.3,27166],[69.3,27249],[69.3,27332],[69.3,27416],[69.3,27499],[69.3,27583],[69.3,27666],[69.3,27749],[69.3,27833],[69.3,27916],[69.3,27999],[69.3,28082],[69.3,28166],[69.3,28250],[69.3,28332],[69.3,28416],[69.3,28499],[69.3,28582],[69.3,28666],[69.3,28749],[69.3,28832],[69.3,28916],[69.3,28999],[69.3,29082],[69.3,29166],[69.3,29249],[69.3,29332],[69.3,29416],[69.3,29499],[69.3,29582],[69.3,29666],[69.3,29749],[69.3,29832],[69.3,29916],[69.3,29999],[69.3,30082],[69.3,30166],[69.3,30249],[69.3,30332],[69.3,30416],[69.3,30499],[69.3,30583],[69.3,30666],[69.3,30750],[69.3,30832],[69.3,30916],[69.3,30999],[69.3,31082],[69.3,31166],[69.3,31249],[69.3,31332],[69.3,31416],[69.3,31499],[69.3,31582],[69.3,31666],[69.3,31749],[69.3,31832],[69.3,31916],[69.3,32000],[69.3,32082],[69.3,32166],[69.3,32250],[69.3,32332],[69.3,32416],[69.3,32499],[69.3,32583],[69.3,32666],[69.3,32750],[69.3,32832],[69.3,32916],[69.3,32999],[69.3,33082],[69.3,33166],[69.3,33249],[69.3,33332],[69.3,33416],[69.3,33499]]",0,1,1,1,1,"It was just another Sunday afternoon for Lucy, she was on her way to the farmer's market to pick up some produce. When she arrived at the old train depot that housed the market, she noticed two men fighting on the steps. Before she could call for help, one of the men crumpled to his knees. The other man dropped an object that appeared to be a knife and ran off. When Lucy approached the crime scene she realized that the man who had been murdered was the Mayor and that he had a gunshot wound.","One day at work, Margaret walked up to her partner, Al, to ask him to talk to the chief of staff at the local hospital where she worked as a nurse.","Luke always thought of himself as an honest man. That's why during his evening jog around the swamp, he pondered his recent affair with the receptionist at work. Luke looked up at the sky and asked God why he was so weak and unfaithful. He thought of the impact this would have on his family and told God of his conflicted feelings toward telling his wife Marta.","Linda and Amy had been best friends since kindergarten, they even found homes on the same street in the forest on the edge of town. Their biggest fight had been over who gets the bigger slice of cake, until Amy married Dan. Linda loathed Dan, she thought he was manipulative and had a violent temper. She only put up with him because Amy loved him. ",,,,,,,,,,
,,,,,,58c38ef58158840001b5c230,2024-05-13_11h33.20.833,group3.1-3.2-social-tom,2023.2.2,Win32,119.047619,65c5074098b851296ff0b7ed,664232aed1cad9e7129cc974,,,,,,,,,,,,,,,,,,,,,,,,,,,,,2678.3688,1,audio/Narrative8Situation9.wav,2682.3767,,,,,,,2700.8867,2702.6681,99.51768489,1.622,"[{""rating"":99.51768488745981,""responseTime"":1.6219999999998436}]",space,1.2589,,2700.8857,Half the time,50,2700.8867,,,[],,,,,,,,,,,4,5,2,2,,,,,,,,,,,,,,,,,2682.3768,3,2700.8856,"[[52.1,417],[50.9,500],[51.5,583],[51.3,666],[51.3,749],[51.3,833],[50.9,7750],[50.9,7833],[50.8,7916],[50.3,7999],[50.3,8083],[50.3,8166],[50.3,8249],[50.3,8333],[50.3,8416],[49.8,8499],[52.1,11499],[52.4,11583],[52.6,11666],[52.6,11749],[52.7,11833],[53.2,11916],[51.8,12000],[51.7,12083],[51.7,12166],[51.5,12249],[51.5,12333],[64.4,17917],[64.3,17999],[62.6,18249],[63,18333],[63,18416],[62.5,18499]]",0,2,2,2,1,On the ground beside him was a pen that she had mistaken for a knife. Lucy looked for the gunman and saw a suspicious man in black with distinct pointy features darting into an alley across the street. Cops who were nearby chased the man who had fled and arrested him.,"While waiting outside the chief of staff's office, Al heard nondescript shouting and yelling, there was a loud clatter in the room and then an eerie silence. An unfamiliar employee ran hastily out of the office with a terrified look on their face.","Suddenly, Luke heard a woman call out his name and when he turned around he saw Carly, his receptionist, across the road with a gun in her hand. Carly ran to him and explained how she had followed him here to confess her love. She exclaimed if Luke didn't love her back that she would kill him and his family. Carly explained that the only way they could be together is to kill Marta.","This feeling of hate between Amy and Dan was mutual, Dan didn't like how much time his wife spent with her and thought Amy was creating distance between their marriage. That's why Dan decided to try and tarnish Linda's reputation with his wife, in hopes it would get rid of her. He came home one afternoon and exclaimed that Linda had tried to kiss him. Amy was taken aback and immediately called Linda to confront her about these accusations. When Linda arrived she denied having made a move on Dan, but discovered Dan had enlisted the help of his friend Will who said he witnessed it all happen.",,,,,,,,,,
,,,,,,58c38ef58158840001b5c230,2024-05-13_11h33.20.833,group3.1-3.2-social-tom,2023.2.2,Win32,119.047619,65c5074098b851296ff0b7ed,664232aed1cad9e7129cc974,,,,,,,,,,,,,,,,,,,,,,,,,,,,,2702.6683,1,audio/Narrative8Situation9.wav,2704.6765,,,,,,,2716.5286,2718.3595,50,1.6008,"[{""rating"":51.17899249732047,""responseTime"":1.05880000001207},{""rating"":50,""responseTime"":1.6008000000119864}]",space,1.306,,2716.5188,Half the time,50,2716.5286,,,[],,,,,,,,,,,2,2,1,4,,,,,,,,,,,,,,,,,2704.6766,3,2716.5187,"[[999,0],[999,83],[999,166],[999,249],[999,333],[70,416],[69.9,499],[69.9,583],[69.9,666],[69.5,749],[69.1,833]]",0,3,3,3,1,"But Lucy knew the charged man was innocent, which meant the killer was free. Lucy vowed to find out who the real murderer was and to stop him at all costs.","Al explained to the chief of staff that Margaret wanted to be excused from her absences last week. The chief of staff, Susan, revealed that she wanted to fire Margaret and never see her again. Susan and Al had been having an affair and she wanted Margaret ""out of the picture"". Al was conflicted, but agreed it would be for the best.","Luke thought of his child and felt like this was his only option. He agreed to the plan and called his wife to meet him at the swamp to watch the sunset with him. When she arrived, Marta called out for her husband, but found Carly waiting for her. She immediately drew her gun and shot her in the chest, knocking her unconscious.","Since it was their word against her own, she decided to go home and admit defeat. She knew how much it would hurt Amy to know the truth.",,,,,,,,,,
,,,,,,58c38ef58158840001b5c230,2024-05-13_11h33.20.833,group3.1-3.2-social-tom,2023.2.2,Win32,119.047619,65c5074098b851296ff0b7ed,664232aed1cad9e7129cc974,,,,,,,,,,,,,,,,,,,,,,,,,,,,,2718.3598,1,audio/Narrative8Situation9.wav,2719.3679,,,,,,,2748.8822,2750.651,100,1.6344,"[{""rating"":100,""responseTime"":1.6343999999762673}]",space,1.2546,,2748.876,Half the time,50,2748.8822,,,[],,,,,,,,,,,1,1,3,3,,,,,,,,,,,,,,,,,2719.3679,3,2748.876,"[[999,0],[999,83],[999,166],[999,249],[999,334],[999,416],[999,500],[999,583],[999,666],[999,750],[999,833],[999,916],[999,1000],[999,1084],[999,1166],[48.6,1250],[46.6,2917],[46.1,3000],[44.9,3083],[45.5,3166],[45.2,3250],[45,3333],[45.2,3417],[45.6,3500],[45.9,3583],[45.9,3666],[45.9,3750],[45.9,3834],[45.9,3916],[45.1,4000],[45.2,4084],[44.2,4166],[44.4,4250],[48.2,4333]]",0,4,4,4,1,"The next day the mayors successor, Mr. Smith, a man who was very unpopular due to his strong ties to the oil companies, took office. After a long day of brainstorming about the mysterious killer, Lucy decided to attend his welcome ceremony in the city. During the mayor's speech, she noticed one of the security guards looked strangely familiar. It dawned on her that this new mayor had motive to kill and that the man in black could've been the guard working for him.","Weeks passed and nobody had seen Margaret. Coworkers and friends searched the nearby city looking for her. One day on patrol in a nearby town, a police officer heard someone crying for help in the basement of a house and went in to investigate. Margaret yelled that she was being held captive and needed help.","Luke ran to Marta, and filled with regret over his decision to go along with Carly's plan, picked her up and rushed her to the hospital. The doctors tried to help Marta by taking her into emergency surgery but failed to save her life. Once the doctor called the time of death, Luke fell to his knees and sobbed over his rash decision.","Months later Dan had taken up a mistress, he was growing bored with his marriage ever since he got rid of Linda and was only still with Amy for her family's money. In a hotel room in a nearby town, Dan and his mistress, Nicole, conspired to secretly kill Amy while still obtaining her fortune.",,,,,,,,,,
