exp_question,consent.started,consent.stopped,consentResponse.keys,consentResponse.rt,consentResponse.duration,participantID,date,expName,psychopyVersion,OS,frameRate,STUDY_ID,SESSION_ID,opening1.started,opening1.stopped,keyEndingOpening1.keys,keyEndingOpening1.rt,keyEndingOpening1.duration,volumeAdjust.started,volumeAdjust.stopped,endingAdjust.keys,endingAdjust.rt,endingAdjust.duration,opening2.started,opening2.stopped,keyEndingOpening.keys,keyEndingOpening.rt,keyEndingOpening.duration,mouse.x,mouse.y,mouse.leftButton,mouse.midButton,mouse.rightButton,mouse.time,instructionLoop.thisRepN,instructionLoop.thisTrialN,instructionLoop.thisN,instructionLoop.thisIndex,instructionLoop.ran,readyForAudio.started,readyForAudio.stopped,fixation.started,run,audio_played,fixation.stopped,endPractice.keys,audioPre.started,audioPre.stopped,continuousResponses_audio,continuousSlider.response,continuousSlider.rt,intRating.started,intRating.stopped,intQuestionSlider.response,intQuestionSlider.rt,intQuestionSlider.history,confirmResponse.keys,confirmResponse.rt,confirmResponse.duration,catchQuestion.started,catch_label,catch_value,catchQuestion.stopped,catchQuestionSlider.response,catchQuestionSlider.rt,catchQuestionSlider.history,confirmResponse_2.keys,audioRunLoop.thisRepN,audioRunLoop.thisTrialN,audioRunLoop.thisN,audioRunLoop.thisIndex,audioRunLoop.ran,conditions1_1,conditions2_1,conditions1_2,conditions2_2,dur1_1,dur2_1,dur1_2,dur2_2,endPractice.rt,endPractice.duration,confirmResponse_2.rt,confirmResponse_2.duration,runIntervalBreak.started,runIntervalBreak.stopped,endingBreakKey.keys,endingBreakKey.rt,endingBreakKey.duration,connection.started,connection.stopped,connectionEnding.keys,connectionEnding.rt,connectionEnding.duration,readyForText.started,readyForText.stopped,textPre.started,run_dup,textPre.stopped,continuousResponses_text,textRunLoop.thisRepN,textRunLoop.thisTrialN,textRunLoop.thisN,textRunLoop.thisIndex,textRunLoop.ran,text1_1,text1_2,text2_1,text2_2,runBreakText.started,runBreakText.stopped,endingBreakKey_2.keys,endingBreakKey_2.rt,endingBreakKey_2.duration,ending.started,ending.stopped,endingEnding.keys,endingEnding.rt,endingEnding.duration
social,0.0004,15.1915,y,14.86,,59598e604c20120001517c99,2024-02-08_13h12.12.610,group3.1-3.2-social-tom,2023.2.2,Win32,59.88023952,65c5074098b851296ff0b7ed,65c54158b61244608049b1e0,,,,,,,,,,,,,,,,,,,,,,,,,,,,,,,,,,,,,,,,,,,,,,,,,,,,,,,,,,,,,,,,,,,,,,,,,,,,,,,,,,,,,,,,,,,,,,,,,,,,,,,,,,
,,,,,,59598e604c20120001517c99,2024-02-08_13h12.12.610,group3.1-3.2-social-tom,2023.2.2,Win32,59.88023952,65c5074098b851296ff0b7ed,65c54158b61244608049b1e0,15.1929,71.5371,space,56.2585,,,,,,,,,,,,,,,,,,,,,,,,,,,,,,,,,,,,,,,,,,,,,,,,,,,,,,,,,,,,,,,,,,,,,,,,,,,,,,,,,,,,,,,,,,,,,,,,,,,,,,
,,,,,,59598e604c20120001517c99,2024-02-08_13h12.12.610,group3.1-3.2-social-tom,2023.2.2,Win32,59.88023952,65c5074098b851296ff0b7ed,65c54158b61244608049b1e0,,,,,,71.5376,111.3739,space,39.5067,,,,,,,,,,,,,,,,,,,,,,,,,,,,,,,,,,,,,,,,,,,,,,,,,,,,,,,,,,,,,,,,,,,,,,,,,,,,,,,,,,,,,,,,,,,,,,,,,
,,,,,,59598e604c20120001517c99,2024-02-08_13h12.12.610,group3.1-3.2-social-tom,2023.2.2,Win32,59.88023952,65c5074098b851296ff0b7ed,65c54158b61244608049b1e0,,,,,,,,,,,111.385,171.3034,space,59.891,,[],[],[],[],[],[],0,0,0,0,1,,,,,,,,,,,,,,,,,,,,,,,,,,,,,,,,,,,,,,,,,,,,,,,,,,,,,,,,,,,,,,,,,,,,,,,,,,,,,,,,
,,,,,,59598e604c20120001517c99,2024-02-08_13h12.12.610,group3.1-3.2-social-tom,2023.2.2,Win32,59.88023952,65c5074098b851296ff0b7ed,65c54158b61244608049b1e0,,,,,,,,,,,171.3324,199.2822,space,27.8521,,[],[],[],[],[],[],1,0,1,0,1,,,,,,,,,,,,,,,,,,,,,,,,,,,,,,,,,,,,,,,,,,,,,,,,,,,,,,,,,,,,,,,,,,,,,,,,,,,,,,,,
,,,,,,59598e604c20120001517c99,2024-02-08_13h12.12.610,group3.1-3.2-social-tom,2023.2.2,Win32,59.88023952,65c5074098b851296ff0b7ed,65c54158b61244608049b1e0,,,,,,,,,,,199.3108,212.5887,space,13.2395,,[],[],[],[],[],[],2,0,2,0,1,,,,,,,,,,,,,,,,,,,,,,,,,,,,,,,,,,,,,,,,,,,,,,,,,,,,,,,,,,,,,,,,,,,,,,,,,,,,,,,,
,,,,,,59598e604c20120001517c99,2024-02-08_13h12.12.610,group3.1-3.2-social-tom,2023.2.2,Win32,59.88023952,65c5074098b851296ff0b7ed,65c54158b61244608049b1e0,,,,,,,,,,,212.615,276.6876,space,64.0459,,[-0.15918000781045002],[-0.3110897855334278],[1],[0],[0],[63.21070000000299],3,0,3,0,1,,,,,,,,,,,,,,,,,,,,,,,,,,,,,,,,,,,,,,,,,,,,,,,,,,,,,,,,,,,,,,,,,,,,,,,,,,,,,,,,
,,,,,,59598e604c20120001517c99,2024-02-08_13h12.12.610,group3.1-3.2-social-tom,2023.2.2,Win32,59.88023952,65c5074098b851296ff0b7ed,65c54158b61244608049b1e0,,,,,,,,,,,276.6886,290.6119,space,13.8985,,[],[],[],[],[],[],4,0,4,0,1,,,,,,,,,,,,,,,,,,,,,,,,,,,,,,,,,,,,,,,,,,,,,,,,,,,,,,,,,,,,,,,,,,,,,,,,,,,,,,,,
,,,,,,59598e604c20120001517c99,2024-02-08_13h12.12.610,group3.1-3.2-social-tom,2023.2.2,Win32,59.88023952,65c5074098b851296ff0b7ed,65c54158b61244608049b1e0,,,,,,,,,,,,,,,,,,,,,,,,,,,290.6397,293.2124,293.2685,1,audio/Narrative13Situation2.wav,295.2803,,295.2812,325.0468,"[[33.9,4726],[29.9,4800],[26.6,4883],[14.4,5217],[11.7,5300],[8.9,5384],[9,5467],[8.7,5551],[2.2,5967],[1.3,6052],[1.3,6134],[1.3,6218],[1.3,6301],[1.3,6384],[1.3,6468],[1.3,6551],[1.2,6635],[0.6,6719],[0.4,6801],[0.4,6885],[0.4,6968],[0.4,7052],[0.4,7135],[0.4,7218],[0.4,7301],[0.4,7385],[0.4,7468],[0.4,7552],[0.4,7635],[0.4,7718],[0.4,7802],[0.1,7886],[4,8218],[9.7,8302],[14.4,8385],[21.2,8469],[32.1,8552],[53.2,8635],[95.4,9553],[99.6,9636],[100,9720],[100,9803],[100,9886],[100,9969],[100,10053],[100,10136],[100,10220],[100,10303],[100,10386],[100,10470],[100,10553],[100,10636],[100,10720],[100,10803],[100,10886],[100,10971],[100,11053],[100,11137],[99.7,11220],[99.7,11303],[99.7,11387],[99.7,11470],[100,11554],[100,11637],[100,11721],[100,11804],[100,11888],[100,11971],[100,12054],[99.8,12137],[99.8,12221],[99.8,12304],[99.8,12388],[99.8,12471],[99.8,12554],[99.8,12638],[99.8,12721],[99.8,12805],[99.8,12888],[100,12972],[100,13054],[100,13138],[100,13221],[100,13304],[100,13388],[100,13471],[100,13555],[100,13638],[100,13722],[100,13805],[100,13888],[100,13972],[100,14055],[100,14139],[100,14222],[100,14305],[100,14389],[100,14472],[100,14555],[100,14639],[100,14722],[100,14806],[100,14888],[100,14972],[100,15056],[100,15139],[100,15222],[100,15306],[100,15389],[100,15472],[100,15556],[100,15639],[100,15723],[100,15806],[100,15889],[100,15973],[100,16056],[100,16140],[100,16224],[96.5,16323],[93.6,16406],[90.7,16489],[85.4,16573],[81.1,16656],[77.3,16740],[70.2,16823],[68.3,16906],[67.2,16990],[66.4,17073],[65.3,17157],[65.1,17240],[64.7,17323],[61.9,17407],[61.8,17490],[61.8,17573],[61.6,17657],[60.6,17740],[60.3,17823],[60.3,17907],[60.1,17991],[57.7,18073],[56.9,18158],[54.9,18240],[49,18324],[47.7,18407],[45.2,18490],[39.2,18574],[15.5,19157],[15.5,19241],[15.5,19324],[17,19407],[17.5,19491],[16.8,19576],[12.8,19659],[8.8,19741],[7,19824],[5.4,19908],[3.1,19991],[3,20074],[3,20158],[3,20241],[2.2,20326],[0.4,20408],[0.4,20492],[0.4,20575],[0.4,20658],[0.4,20742],[0.4,20825],[0.4,20909],[0.4,20992],[0.4,21075],[0.4,21158],[0.4,21241],[0.4,21325],[0.4,21408],[0.4,21492],[0.4,21575],[0.4,21659],[0.4,21742],[0.4,21826],[0.4,21909],[0.4,21992],[0.4,22076],[0.4,22159],[0.4,22242],[0.4,22325],[0.4,22409],[0.4,22493],[0.4,22576],[0.4,22660],[0.4,22743],[0.4,22826],[0.4,22909],[0.4,22993],[0.4,23076],[0.4,23160],[0.4,23243],[0.4,23326],[0.9,23415],[2.3,23493],[3.6,23576],[3.6,23660],[3.6,23743],[3.6,23827],[3.6,23910],[3.6,23994],[3.6,24077],[3.6,24160],[3.6,24244],[3.6,24327],[3.6,24410],[3.6,24494],[3.7,24577],[3.7,24661],[3.7,24744],[3.7,24827],[3.7,24911],[3.7,24995],[3.7,25078],[3.7,25161],[3.7,25244],[3.7,25328],[3.7,25411],[3.7,25494],[5.4,25579],[24.9,25661],[28.3,25744],[33.4,25827],[33.9,25911],[33.9,25994],[33.9,26078],[33.9,26161],[33.9,26244],[40,26328],[44.3,26411],[48.4,26494],[49.1,26578],[49.1,26661],[49.1,26745],[49.1,26828],[49.1,26911],[49.1,26995],[49.1,27078],[49,27161],[48.1,27246],[47.6,27328],[47.6,27412],[47.6,27495],[47.6,27579],[47.6,27662],[47.6,27745],[47.6,27829],[47.6,27912],[47.6,27996],[47.6,28079],[47.6,28162],[47.6,28246],[47.6,28329],[47.6,28412],[47.6,28496],[47.6,28579],[47.6,28662],[47.4,28746],[45.2,28829],[43.7,28913],[42,28997],[41.6,29079],[41.6,29163],[41.4,29246],[41.4,29330],[41.4,29413],[41.4,29496],[41.4,29580],[41.4,29663],[41.4,29746]]",1,0,325.0474,334.9161,23.71212769,7.4133,"[{""rating"":23.712127694410285,""responseTime"":7.413300000004483}]",space,9.3216,,334.9212,Partially,50,334.9231,,,[],,0,0,0,0,1,audio/Narrative13Situation2.wav,audio/Narrative13Situation2.wav,audio/Narrative13Situation2.wav,audio/Narrative13Situation2.wav,2,2,2,2,,,,,,,,,,,,,,,,,,,,,,,,,,,,,,,,,,,,,,,
,,,,,,59598e604c20120001517c99,2024-02-08_13h12.12.610,group3.1-3.2-social-tom,2023.2.2,Win32,59.88023952,65c5074098b851296ff0b7ed,65c54158b61244608049b1e0,,,,,,,,,,,,,,,,,,,,,,,,,,,,,334.9232,1,audio/Narrative8Situation1.wav,341.0029,space,341.003,356.9442,"[[26.7,1516],[46.5,2518],[44,2601],[44.5,2684],[44.5,2767],[44.5,2850],[44.5,2934],[46.4,3017],[53.3,3100],[55.3,3184],[53.7,3268],[47.6,3350],[44.2,3434],[32.1,3517],[24.5,3600],[15.3,3684],[11.8,3767],[11.5,3851],[10.8,3935],[10.8,4017],[10.8,4101],[10.8,4184],[10.8,4267],[10.8,4351],[10.8,4434],[10.8,4517],[10.8,4601],[10.8,4684],[10.8,4768],[10.8,4851],[10.8,4935],[10.8,5018],[10.8,5101],[10.8,5185],[10.8,5268],[10.8,5352],[10.3,5435],[10,5519],[9.9,5601],[9.9,5685],[9.8,5769],[4.7,5851],[2.4,5935],[2.5,9270],[21.1,9353],[34.2,9437],[49,9520],[61.1,9603],[96.5,9687],[100,9770],[100,9853],[100,9937],[100,10021],[100,10105],[100,10187],[100,10270],[100,10354],[100,10437],[100,10521],[100,10604],[100,10687],[100,10771],[100,10854],[100,10938],[100,11021],[100,11104],[100,11188],[100,11271],[100,11355],[100,11438],[100,11521],[100,11605],[100,11688],[100,11771],[100,11855],[100,11938],[100,12021],[100,12105],[99.2,12189],[97.8,12272],[96.1,12356],[95.1,12439],[94.9,12522],[94.8,12605],[94.8,12689],[94.8,12773],[94.8,12855],[94.8,12939],[94.8,13022],[94.8,13105],[94.8,13188],[94.8,13272],[94.8,13356],[94.8,13439],[94.8,13522],[94.8,13606],[94.8,13689],[94.8,13773],[94.8,13856],[94.8,13939],[94.8,14023],[94.8,14106],[94.8,14189],[94.8,14273],[94.8,14356],[94.8,14440],[94.8,14523],[94.8,14606],[94.8,14690],[94.8,14773],[94.8,14856],[94.9,14940],[95.6,15023],[95.8,15106],[95.9,15190],[95.9,15273],[95.9,15357],[95.9,15440],[95.9,15523],[95.9,15607],[95.9,15690],[95.9,15774],[95.9,15857],[95.9,15940]]",1,0,356.9446,362.5468,97.42425539,4.5484,"[{""rating"":97.42425538882057,""responseTime"":4.548400000005984}]",space,5.0632,,362.5471,Partially,50,362.5511,,,[],,0,1,1,1,1,audio/Narrative7Situation1.wav,audio/Narrative8Situation1.wav,audio/Narrative5Situation1.wav,audio/Narrative6Situation1.wav,2,5,5,2,6.0685,,,,,,,,,,,,,,,,,,,,,,,,,,,,,,,,,,,,,,
,,,,,,59598e604c20120001517c99,2024-02-08_13h12.12.610,group3.1-3.2-social-tom,2023.2.2,Win32,59.88023952,65c5074098b851296ff0b7ed,65c54158b61244608049b1e0,,,,,,,,,,,,,,,,,,,,,,,,,,,,,362.5517,1,audio/Narrative8Situation2.wav,365.5649,,365.565,375.687,"[[999,23],[999,99],[999,182],[999,266],[999,349],[999,433],[999,516],[999,599],[999,682],[999,766],[999,849],[999,934],[999,1017],[999,1100],[57.9,1183],[41.9,1266],[38,1350],[19.8,1516],[19.2,1599],[22.6,1683],[38.2,1766],[39.8,1850],[40,1934],[40,2017],[39.4,2101],[39.1,2183],[39.1,2267],[39.1,2350],[39.1,2434],[39.1,2517],[39.1,2601],[39.1,2684],[39,2768],[36.3,2850],[34,2934],[29.1,3017],[28.9,3101],[27,3184],[24.3,3267],[24.3,3351],[24.3,3434],[24.3,3518],[24.3,3601],[22.5,3684],[13.3,3767],[8.7,3851],[8.7,3935],[8.7,4018],[8.7,4101],[8.7,4185],[8.7,4268],[8.7,4352],[8.7,4435],[4.1,4518],[3.6,4601],[3.6,4685],[3.6,4768],[0.8,4851]]",1,0,375.6873,379.105,0.078442192,1.4804,"[{""rating"":0.07844219221759263,""responseTime"":1.4803999999984967}]",space,2.8811,,379.1052,Not at all,0,379.113,,,[],,0,2,2,2,1,audio/Narrative7Situation2.wav,audio/Narrative8Situation2.wav,audio/Narrative5Situation2.wav,audio/Narrative6Situation2.wav,3,3,3,3,,,,,,,,,,,,,,,,,,,,,,,,,,,,,,,,,,,,,,,
,,,,,,59598e604c20120001517c99,2024-02-08_13h12.12.610,group3.1-3.2-social-tom,2023.2.2,Win32,59.88023952,65c5074098b851296ff0b7ed,65c54158b61244608049b1e0,,,,,,,,,,,,,,,,,,,,,,,,,,,,,379.1136,1,audio/Narrative8Situation3.wav,383.1232,,383.1233,405.5012,"[[37.2,83],[37.2,166],[37.4,250],[38.6,333],[38.7,416],[38.7,500],[38.7,583],[38.7,666],[38.7,750],[38.7,833],[38.7,916],[38.3,1000],[38.2,1083],[38.2,1166],[38.1,1250],[38.1,1333],[38.1,1416],[38.1,1500],[38.1,1583],[39,1667],[40.9,1751],[41.1,1834],[39,1917],[27,2000],[25.9,2084],[25.4,2167],[24.4,2251],[23.7,2334],[23.4,2417],[21.3,2501],[20.7,2584],[26.5,2667],[44.2,2751],[61.2,2834],[66.5,2917],[76.7,3001],[88.5,3084],[100,3168],[100,3251],[100,3334],[100,3418],[100,3501],[100,3585],[100,3668],[100,3751],[100,3834],[100,3918],[100,4001],[100,4085],[100,4168],[100,4252],[100,4335],[100,4418],[100,4502],[100,4585],[100,4668],[100,4752],[100,4835],[100,4918],[100,5002],[100,5085],[100,5168],[100,5252],[100,5335],[100,5419],[100,5502],[100,5585],[100,5669],[100,5752],[100,5836],[100,5919],[100,6002],[100,6086],[100,6169],[100,6252],[100,6336],[100,6419],[100,6503],[100,6586],[100,6669],[100,6753],[100,6836],[100,6919],[100,7003],[100,7086],[100,7170],[100,7253],[100,7336],[100,7420],[100,7503],[100,7586],[100,7670],[100,7753],[100,7836],[100,7920],[100,8003],[100,8086],[100,8170],[100,8253],[100,8337],[100,8420],[100,8503],[100,8587],[100,8670],[100,8754],[100,8837],[100,8920],[100,9004],[100,9087],[100,9170],[100,9254],[100,9337],[100,9421],[100,9504],[100,9587],[100,9671],[100,9754],[100,9837],[100,9921],[100,10004],[100,10088],[100,10171],[100,10254],[100,10338],[100,10421],[100,10504],[100,10588],[100,10671],[100,10755],[100,10838],[100,10921],[100,11005],[100,11088],[100,11171],[100,11255],[100,11339],[100,11422],[100,11505],[100,11588],[100,11672],[100,11755],[100,11838],[100,11922],[100,12005],[100,12089],[100,12172],[100,12255],[100,12339],[100,12422],[100,12505],[100,12589],[100,12672],[100,12756],[100,12839],[100,12922],[100,13006],[100,13089],[100,13173],[100,13256],[100,13339],[100,13423],[100,13506],[100,13589],[100,13673],[100,13756],[100,13840],[100,13923],[100,14006],[100,14089],[100,14173],[100,14256],[100,14340],[100,14423],[100,14506],[100,14590],[100,14673],[100,14757],[100,14840],[100,14923],[100,15007],[100,15090],[100,15173],[100,15257],[100,15340],[100,15424],[100,15507],[100,15590],[100,15674],[100,15757],[100,15841],[100,15924],[100,16007],[100,16091],[100,16174],[100,16257],[100,16341],[100,16424],[100,16507],[100,16591],[100,16674],[100,16758],[100,16841],[100,16924],[100,17008],[100,17091],[100,17175],[100,17258],[100,17341],[100,17425],[100,17508],[100,17592],[100,17675],[100,17758],[100,17842],[100,17925],[100,18008],[100,18092],[100,18175],[100,18258],[100,18342],[100,18425],[100,18509],[100,18592],[100,18675],[100,18759],[100,18842],[100,18925],[100,19009],[100,19092],[100,19175],[100,19259],[100,19342],[100,19426],[100,19509],[100,19592],[100,19676],[100,19759],[100,19843],[100,19926],[100,20009],[100,20093],[100,20176],[100,20259],[100,20343],[100,20426],[100,20509],[100,20593],[100,20676],[100,20760],[100,20843],[100,20927],[100,21010],[100,21093],[100,21176],[100,21260],[100,21343],[100,21426],[100,21510],[100,21593],[100,21677],[100,21760],[100,21844],[100,21928],[100,22010],[100,22093],[100,22178],[100,22262],[99.8,22344]]",1,0,405.5013,412.6545,95.60227744,4.9423,"[{""rating"":100,""responseTime"":1.5002000000029625},{""rating"":95.60227743698916,""responseTime"":4.942300000004479}]",space,6.6081,,412.6546,Definitely yes,100,412.6566,,,[],,0,3,3,3,1,audio/Narrative7Situation3.wav,audio/Narrative8Situation3.wav,audio/Narrative5Situation3.wav,audio/Narrative6Situation3.wav,8,4,3,5,,,,,,,,,,,,,,,,,,,,,,,,,,,,,,,,,,,,,,,
,,,,,,59598e604c20120001517c99,2024-02-08_13h12.12.610,group3.1-3.2-social-tom,2023.2.2,Win32,59.88023952,65c5074098b851296ff0b7ed,65c54158b61244608049b1e0,,,,,,,,,,,,,,,,,,,,,,,,,,,,,412.6568,1,audio/Narrative8Situation4.wav,415.6733,,415.6735,429.8631,"[[999,22],[999,82],[999,166],[999,249],[999,333],[999,416],[999,500],[999,582],[999,666],[999,750],[999,833],[999,916],[999,1000],[999,1083],[999,1166],[999,1250],[999,1333],[999,1417],[999,1500],[999,1583],[999,1667],[999,1750],[999,1833],[999,1917],[999,2000],[999,2084],[999,2167],[999,2250],[999,2334],[999,2417],[999,2500],[999,2584],[999,2667],[999,2751],[999,2834],[999,2918],[999,3001],[999,3084],[999,3167],[999,3251],[999,3334],[999,3418],[999,3501],[999,3585],[999,3668],[999,3751],[999,3834],[999,3918],[999,4002],[79.5,4084],[85.1,4167],[86.2,4251],[86.6,4334],[88.4,4418],[94.7,4501],[97,4584],[97,4668],[97,4751],[97,4834],[97,4918],[97,5001],[98.2,5085],[99.2,5168],[100,5251],[100,5335],[100,5418],[100,5501],[100,5585],[100,5668],[100,5752],[100,5835],[100,5918],[100,6002],[100,6085],[100,6168],[100,6252],[100,6335],[100,6418],[100,6502],[100,6585],[100,6669],[100,6752],[100,6835],[100,6919],[100,7002],[100,7086],[100,7169],[100,7252],[100,7336],[100,7419],[100,7502],[100,7586],[100,7669],[100,7752],[100,7836],[100,7919],[100,8002],[100,8086],[100,8169],[100,8253],[100,8336],[100,8420],[100,8503],[100,8586],[100,8670],[100,8753],[100,8836],[100,8920],[100,9003],[100,9086],[100,9170],[100,9253],[100,9337],[100,9420],[100,9503],[100,9587],[100,9670],[100,9753],[100,9837],[100,9920],[100,10004],[100,10087],[100,10170],[100,10254],[100,10337],[100,10420],[100,10504],[100,10587],[100,10670],[100,10754],[100,10837],[100,10921],[100,11004],[100,11088],[100,11171],[100,11254],[100,11338],[100,11421],[100,11504],[100,11588],[100,11671],[100,11754],[100,11838],[100,11921],[100,12005],[100,12088],[100,12171],[100,12255],[100,12338],[100,12421],[100,12505],[100,12588],[100,12672],[100,12755],[100,12838],[100,12922],[100,13005],[100,13088],[100,13172],[100,13255],[100,13339],[100,13422],[100,13505],[100,13589],[100,13672],[100,13755],[100,13839],[100,13922],[100,14006],[100,14089],[100,14172]]",1,0,429.8633,433.3656,100,2.0712,"[{""rating"":100,""responseTime"":2.071200000002989}]",space,2.9718,,433.3658,Definitely yes,100,433.3696,,,[],,0,4,4,4,1,audio/Narrative7Situation4.wav,audio/Narrative8Situation4.wav,audio/Narrative5Situation4.wav,audio/Narrative6Situation4.wav,3,3,1,2,,,,,,,,,,,,,,,,,,,,,,,,,,,,,,,,,,,,,,,
,,,,,,59598e604c20120001517c99,2024-02-08_13h12.12.610,group3.1-3.2-social-tom,2023.2.2,Win32,59.88023952,65c5074098b851296ff0b7ed,65c54158b61244608049b1e0,,,,,,,,,,,,,,,,,,,,,,,,,,,,,433.3702,1,audio/Narrative8Situation5.wav,435.3831,,435.3834,443.6377,"[[100,584],[100,667],[100,749],[92.2,1333],[96.3,1416],[98.2,1500],[99,1583],[99.1,1666],[98.9,1750],[98.9,1833],[100,1916],[100,2000],[100,2083],[100,2167],[100,2250],[100,2333],[100,2417],[100,2500],[100,2584],[100,2668],[100,2751],[100,2834],[100,2917],[100,3001],[100,3084],[100,3167],[100,3251],[100,3334],[100,3417],[100,3501],[100,3584],[100,3667],[100,3751],[100,3834],[100,3918],[100,4001],[100,4085],[100,4168],[100,4251],[100,4335],[100,4418],[100,4501],[100,4585],[100,4668],[100,4751],[100,4835],[100,4918],[100,5002],[100,5085],[100,5168],[100,5252],[100,5335],[100,5418],[100,5502],[100,5585],[100,5668],[100,5752],[100,5835],[100,5919],[100,6002],[100,6085],[100,6169],[100,6252],[100,6336],[100,6419],[100,6502],[100,6586],[100,6669],[100,6752],[100,6836],[100,6919],[100,7003],[100,7086],[100,7169],[100,7253],[100,7336],[100,7419],[100,7503],[100,7586],[100,7670],[100,7753],[100,7836],[100,7920],[100,8003],[100,8087],[100,8170],[100,8253]]",1,0,443.6379,446.7556,99.81887621,2.0758,"[{""rating"":99.81887621198591,""responseTime"":2.075800000004506}]",space,2.5793,,446.7558,Definitely yes,100,446.7593,,,[],,0,5,5,5,1,audio/Narrative7Situation5.wav,audio/Narrative8Situation5.wav,audio/Narrative5Situation5.wav,audio/Narrative6Situation5.wav,5,2,5,2,,,,,,,,,,,,,,,,,,,,,,,,,,,,,,,,,,,,,,,
,,,,,,59598e604c20120001517c99,2024-02-08_13h12.12.610,group3.1-3.2-social-tom,2023.2.2,Win32,59.88023952,65c5074098b851296ff0b7ed,65c54158b61244608049b1e0,,,,,,,,,,,,,,,,,,,,,,,,,,,,,446.7599,1,audio/Narrative8Situation6.wav,448.7732,,448.7732,455.2434,"[[98.7,1084],[98.7,1167],[98.7,1250],[99.1,1334],[99.3,1416],[99.3,1500],[99.3,1583],[99.3,1667],[99.3,1750],[99.5,1834],[100,1916],[100,2000],[100,2084],[100,2167],[100,2250],[100,2334],[100,2417],[100,2500],[100,2584],[100,2668],[100,2751],[100,2834],[100,2917],[100,3001],[100,3084],[100,3168],[100,3251],[100,3335],[100,3417],[100,3501],[100,3584],[100,3668],[100,3751],[100,3835],[100,3918],[100,4001],[100,4085],[100,4168],[100,4251],[100,4335],[100,4418],[100,4502],[100,4585],[100,4668],[100,4752],[100,4835],[100,4919],[100,5002],[100,5085],[100,5169],[100,5251],[100,5335],[100,5418],[100,5502],[100,5585],[100,5669],[100,5752],[100,5835],[100,5919],[100,6002],[100,6086],[100,6169],[100,6252],[100,6336],[100,6419]]",1,0,455.2436,459.0618,100,1.8686,"[{""rating"":100,""responseTime"":1.8686000000014928}]",space,3.2763,,459.062,Definitely yes,100,459.0658,,,[],,0,6,6,6,1,audio/Narrative7Situation6.wav,audio/Narrative8Situation6.wav,audio/Narrative5Situation6.wav,audio/Narrative6Situation6.wav,3,2,3,2,,,,,,,,,,,,,,,,,,,,,,,,,,,,,,,,,,,,,,,
,,,,,,59598e604c20120001517c99,2024-02-08_13h12.12.610,group3.1-3.2-social-tom,2023.2.2,Win32,59.88023952,65c5074098b851296ff0b7ed,65c54158b61244608049b1e0,,,,,,,,,,,,,,,,,,,,,,,,,,,,,459.0663,1,audio/Narrative8Situation7.wav,462.0792,,462.0792,474.1529,"[[100,1084],[100,1167],[94.2,1250],[36.2,1334],[7.5,1584],[1.9,2918],[5.9,3001],[9.1,3084],[12.8,3168],[14.5,3252],[16.2,3335],[16.6,3419],[17.3,3501],[17.3,3585],[17.3,3668],[17.3,3751],[17.3,3835],[17.3,3919],[17.3,4002],[17.3,4086],[17.3,4169],[17.3,4252],[17.3,4336],[17.3,4419],[17.3,4503],[17.3,4586],[17.3,4669],[17.3,4752],[17.3,4836],[17.3,4919],[17.3,5002],[17.3,5085],[17.3,5169],[17.3,5253],[17.3,5336],[17.8,5420],[19.3,5502],[20.8,5587],[22.1,5669],[23.4,5754],[23.9,5837],[24.8,5920],[25,6003],[25,6086],[25,6170],[25,6253],[25,6337],[25,6420],[25,6503],[25,6587],[25,6670],[25,6753],[25.3,6837],[25.6,6920],[25.6,7004],[25.7,7086],[25.7,7170],[25.7,7254],[25.7,7337],[25.7,7420],[25.7,7504],[25.7,7587],[25.7,7670],[25.7,7754],[25.7,7837],[25.7,7921],[25.7,8004],[25.7,8087],[25.7,8171],[26.2,8255],[26.3,8338],[26.3,8421],[26.3,8504],[26.3,8588],[26.3,8671],[26.3,8754],[26.5,8838],[29.2,8921],[29.7,9004],[32.5,9088],[38.4,9171],[40.7,9254],[54.1,9338],[69.5,10505],[82.4,10588],[84.1,10672],[84.1,10755],[84.1,10838],[84.1,10922],[84.1,11005],[84.1,11088],[84.1,11172],[84.1,11255],[84.1,11339],[84.1,11422],[84.1,11505],[84.1,11589],[84.1,11672],[84.1,11756],[84.1,11839],[84.1,11923],[84.1,12006]]",1,0,474.1532,476.3706,89.19932305,1.5106,"[{""rating"":89.19932305491822,""responseTime"":1.5106000000014888}]",space,1.6862,,476.3708,Not at all,0,476.3762,,,[],,0,7,7,7,1,audio/Narrative7Situation7.wav,audio/Narrative8Situation7.wav,audio/Narrative5Situation7.wav,audio/Narrative6Situation7.wav,5,3,4,5,,,,,,,,,,,,,,,,,,,,,,,,,,,,,,,,,,,,,,,
,,,,,,59598e604c20120001517c99,2024-02-08_13h12.12.610,group3.1-3.2-social-tom,2023.2.2,Win32,59.88023952,65c5074098b851296ff0b7ed,65c54158b61244608049b1e0,,,,,,,,,,,,,,,,,,,,,,,,,,,,,476.3767,1,audio/Narrative8Situation8.wav,479.3885,,479.3885,492.2281,"[[79.6,583],[75.6,667],[78.7,2167],[79.6,2250],[79.6,2334],[79.6,2417],[79,2500],[75.2,2584],[74.4,2667],[74.1,2751],[72.7,2834],[71.6,2917],[71.6,3001],[71.6,3084],[71.6,3168],[71.6,3251],[71.6,3334],[71.6,3418],[71.6,3501],[71.6,3585],[71.6,3668],[71.6,3751],[71.6,3834],[71.6,3918],[71.6,4001],[71.6,4085],[71.5,4168],[70.4,4251],[70.3,4335],[70.3,4418],[70.3,4502],[70.3,4585],[70.3,4668],[70.3,4752],[70.3,4835],[70.3,4918],[70.3,5002],[69,5085],[65.4,5168],[64.7,5252],[61.8,5335],[59.5,5420],[59.5,5502],[59.5,5586],[59.5,5669],[59.5,5752],[59.5,5836],[59.5,5919],[59.5,6002],[62.5,6085],[65.6,6170],[69.1,6252],[70.8,6336],[71.2,6420],[73.9,6502],[74.8,6586],[74.8,6669],[74.8,6753],[74.8,6836],[74.8,6919],[74.8,7003],[74.8,7086],[74.8,7170],[74.8,7252],[74.8,7336],[74.8,7420],[74.8,7503],[74.8,7586],[75,7670],[75,7753],[75,7837],[75.4,7921],[76.7,8004],[77.3,8087],[77.4,8170],[78.6,8253],[79.4,8337],[79.4,8420],[79.4,8504],[79.4,8587],[80.5,8672],[80.8,8754],[81.4,8838],[82.1,8920],[82.8,9004],[83.6,9088],[83.9,9171],[84.7,9255],[85.5,9337],[86,9421],[86.8,9504],[88,9587],[89.6,9671],[91.1,9754],[94.4,9838],[96.9,9921],[98.5,10004],[99.6,10087],[99.8,10171],[99.9,10255],[100,10337],[100,10421],[100,10504],[100,10588],[100,10671],[100,10754],[100,10838],[100,10921],[100,11005],[100,11088],[100,11172],[100,11255],[100,11338],[100,11422],[100,11505],[100,11588],[100,11672],[100,11755],[100,11838],[100,11921],[100,12005],[100,12089],[100,12172],[100,12255],[100,12338],[100,12422],[100,12505],[100,12589],[100,12672],[100,12756],[100,12839]]",1,0,492.2282,501.2155,99.66269972,8.9758,"[{""rating"":99.66269971882188,""responseTime"":8.975800000004483}]",space,0.7188,,501.2155,Partially,50,501.217,,,[],,0,8,8,8,1,audio/Narrative7Situation8.wav,audio/Narrative8Situation8.wav,audio/Narrative5Situation8.wav,audio/Narrative6Situation8.wav,2,3,3,5,,,,,,,,,,,,,,,,,,,,,,,,,,,,,,,,,,,,,,,
,,,,,,59598e604c20120001517c99,2024-02-08_13h12.12.610,group3.1-3.2-social-tom,2023.2.2,Win32,59.88023952,65c5074098b851296ff0b7ed,65c54158b61244608049b1e0,,,,,,,,,,,,,,,,,,,,,,,,,,,,,501.2172,1,audio/Narrative8Situation9.wav,504.2337,,504.2337,515.5397,"[[999,6],[999,83],[999,167],[999,250],[999,333],[999,417],[999,500],[999,583],[999,667],[999,751],[999,833],[999,916],[999,1000],[999,1084],[999,1167],[999,1251],[999,1334],[999,1417],[999,1501],[999,1584],[999,1667],[999,1751],[999,1834],[999,1918],[999,2001],[999,2084],[999,2168],[999,2251],[999,2334],[999,2418],[999,2501],[999,2585],[999,2668],[999,2751],[999,2835],[999,2918],[999,3001],[999,3085],[999,3168],[999,3252],[999,3335],[999,3418],[999,3502],[999,3585],[999,3668],[999,3752],[999,3835],[999,3918],[999,4002],[999,4085],[999,4169],[999,4252],[999,4335],[999,4419],[999,4503],[999,4585],[999,4668],[999,4752],[999,4835],[999,4919],[999,5002],[94,5085],[95.5,5169],[95.6,5252],[95.7,5335],[95.7,5419],[95.7,5502],[95.7,5585],[95.7,5669],[95.7,5752],[95.7,5836],[95.7,5919],[95.7,6002],[95.7,6086],[95.7,6169],[95.7,6252],[95.7,6336],[95.7,6419],[95.7,6503],[95.7,6586],[95.7,6670],[95.7,6753],[95.7,6836],[95.7,6920],[95.7,7003],[95.7,7086],[95.7,7170],[95.7,7253],[95.7,7336],[95.7,7420],[95.7,7503],[95.7,7586],[95.7,7670],[95.7,7753],[95.7,7837],[95.7,7920],[95.7,8003],[95.7,8087],[95.7,8170],[95.7,8254],[95.7,8337],[95.7,8420],[95.7,8504],[95.7,8587],[95.7,8670],[95.7,8754],[95.7,8837],[95.7,8921],[95.7,9004],[95.7,9087],[95.7,9171],[95.7,9254],[95.7,9337],[95.7,9421],[96.6,9504],[97.1,9588],[97.2,9672],[98.2,9754],[98.5,9838],[98.9,9921],[99.3,10004],[99.5,10089],[99.8,10171],[99.8,10254],[99.9,10338],[100,10421],[100,10505],[100,10588],[100,10671],[100,10755],[100,10838],[100,10922],[100,11005],[100,11089],[100,11172],[100,11255]]",1,0,515.54,517.2402,99.61063662,0.7625,"[{""rating"":99.61063661749971,""responseTime"":0.7625000000000455}]",space,1.1608,,517.2402,Partially,50,517.2412,,,[],,0,9,9,9,1,audio/Narrative7Situation9.wav,audio/Narrative8Situation9.wav,audio/Narrative5Situation9.wav,audio/Narrative6Situation9.wav,2,3,3,4,,,,,,,,,,,,,,,,,,,,,,,,,,,,,,,,,,,,,,,
,,,,,,59598e604c20120001517c99,2024-02-08_13h12.12.610,group3.1-3.2-social-tom,2023.2.2,Win32,59.88023952,65c5074098b851296ff0b7ed,65c54158b61244608049b1e0,,,,,,,,,,,,,,,,,,,,,,,,,,,,,517.2413,1,audio/Narrative7Situation1.wav,519.2579,,519.2579,575.1526,"[[99.2,2085],[98.2,2167],[98.1,2251],[96.2,2334],[85.3,2417],[38.2,3251],[45.7,3335],[49.4,3418],[49.8,3502],[50.3,3584],[49.6,3668],[49,3751],[48.9,3835],[48.8,3918],[48.4,4001],[44.4,4085],[38.5,4168],[36.1,4252],[35.8,4335],[35.4,4419],[34,4502],[33.4,4586],[32.9,4669],[31.7,4752],[29.2,4836],[28.3,4919],[27.5,5002],[25.9,5085],[20.1,5169],[15.9,5252],[14.6,5336],[13.4,5419],[12.1,5502],[11.9,5586],[11.9,5669],[11.9,5752],[11.7,5836],[11.7,5919],[11.4,6003],[10.4,6086],[10.1,6170],[9.6,6253],[9.1,6336],[9,6420],[9,6503],[9,6586],[9,6670],[8.2,6754],[7.7,6836],[7.5,6920],[7,7004],[6.4,7087],[6.3,7170],[6.3,7254],[6.3,7337],[6.3,7420],[6.3,7504],[6.3,7587],[6.3,7670],[7,7753],[7.8,7838],[13.9,7920],[24.9,8004],[27,8087],[27.7,8171],[28.7,8254],[28.9,8337],[28.9,8421],[28.9,8504],[28.9,8587],[28.9,8671],[28.9,8754],[30.6,8839],[34,8922],[38.2,9004],[41,9089],[42.9,9172],[43.2,9254],[43.2,9338],[43.2,9421],[43.2,9504],[43.2,9588],[43.2,9671],[43.2,9755],[40.5,9838],[35.4,9921],[28.6,10004],[25.6,10088],[25.2,10173],[25,10255],[24.9,10338],[24.9,10422],[24.9,10505],[24.9,10588],[24.9,10672],[24.9,10755],[24.9,10839],[24.9,10922],[24.9,11005],[24.9,11089],[24.9,11172],[24.9,11255],[24.9,11339],[24.9,11422],[24.9,11506],[24.9,11589],[24.9,11672],[24.9,11756],[24.9,11839],[24.9,11922],[24.9,12006],[24.9,12089],[24.9,12173],[24.9,12256],[26.1,12340],[26.1,12423],[26.1,12506],[26.1,12589],[30.1,12674],[39.6,12756],[42.7,12839],[44.5,12923],[45,13006],[46.3,13089],[47.8,13173],[47.9,13256],[47.9,13340],[47.9,13423],[47.9,13507],[47.9,13590],[47.9,13673],[49.3,13756],[51.1,13841],[51.2,13923],[51.2,14007],[51.2,14090],[51.2,14174],[51.2,14257],[51.2,14340],[51.2,14424],[51.2,14507],[51.2,14591],[51.2,14674],[51.2,14757],[51.2,14841],[51.2,14924],[51.2,15007],[50.8,15091],[49.5,15174],[49.2,15257],[49.2,15341],[49.2,15424],[49.2,15508],[49.2,15591],[49.2,15674],[49.2,15758],[49.2,15841],[49.2,15925],[49.2,16008],[49.2,16091],[49.2,16174],[49.2,16258],[49.2,16341],[49.2,16425],[49.2,16508],[49.2,16592],[49.2,16675],[49.2,16758],[49.2,16842],[49.2,16924],[48.9,17009],[47.7,17091],[46.6,17175],[45,17258],[41.8,17341],[39.3,17425],[39,17508],[39,17592],[39,17675],[39,17759],[39,17842],[39,17925],[39,18009],[31.9,18092],[23.4,18175],[16.3,18259],[12.5,18342],[10.2,18425],[5.9,18509],[4.9,18592],[4.8,18675],[4.8,18759],[4.8,18842],[4.8,18926],[4.8,19009],[4.8,19092],[4.8,19176],[4.8,19259],[4.8,19342],[3.8,19427],[3.1,19509],[3.1,19593],[3.1,19676],[3.1,19760],[3.1,19843],[3.1,19926],[3.1,20010],[3.1,20093],[3.1,20177],[3.1,20260],[3.1,20343],[3.1,20427],[3.1,20510],[8.4,20594],[10.9,20678],[12.4,20761],[12.5,20843],[12.5,20927],[12.5,21010],[12.5,21094],[12.5,21177],[12.5,21260],[12.5,21344],[12.5,21427],[12.5,21510],[12.5,21594],[12.5,21677],[17,21760],[20,21845],[32.8,21927],[48.5,22010],[56.9,22094],[59.6,22177],[64,22261],[66.2,22345],[68.6,22427],[70.3,22511],[70.7,22594],[71.8,22678],[73.1,22761],[73.2,22844],[73.2,22927],[73.3,23011],[73.9,23094],[75.6,23179],[77.6,23261],[78.2,23345],[79,23428],[80.3,23511],[83.7,23595],[85,23679],[85.5,23762],[85.6,23845],[85.9,23928],[86.6,24012],[86.7,24095],[86.8,24178],[86.8,24262],[86.8,24345],[87,24429],[87.5,24513],[87.9,24596],[88.3,24679],[88.5,24763],[88.5,24846],[88.5,24928],[88.7,25014],[91.2,25095],[93.7,25179],[95.4,25262],[96.1,25346],[96.6,25429],[97,25513],[97,25596],[97,25679],[97,25763],[97,25846],[97,25929],[97,26012],[97,26096],[97,26179],[97,26262],[97,26346],[97,26429],[97,26513],[97.7,26596],[98.8,26679],[99.3,26763],[99.3,26846],[99.3,26929],[99.3,27014],[96.7,27096],[93.7,27180],[91.6,27263],[87,27346],[79.5,27430],[72.6,27513],[70.4,27597],[70.3,27680],[70.3,27764],[70.3,27847],[70.3,27931],[70.3,28014],[74.7,28098],[82.8,28182],[89.2,28265],[92.1,28348],[95.8,28430],[98.1,28514],[100,28597],[100,28680],[100,28764],[100,28848],[100,28930],[100,29015],[100,29098],[100,29181],[100,29264],[100,29348],[100,29431],[100,29515],[100,29598],[100,29681],[100,29765],[100,29848],[100,29931],[100,30015],[100,30098],[100,30182],[100,30265],[100,30348],[100,30432],[100,30515],[100,30598],[100,30682],[100,30765],[100,30848],[100,30932],[100,31015],[100,31099],[100,31182],[100,31265],[100,31348],[100,31432],[100,31516],[100,31599],[100,31682],[100,31766],[100,31849],[100,31932],[100,32016],[100,32099],[100,32183],[100,32266],[100,32349],[100,32433],[100,32516],[100,32600],[100,32683],[100,32766],[100,32849],[100,32932],[100,33016],[100,33100],[100,33183],[100,33266],[100,33349],[100,33433],[100,33517],[100,33600],[100,33683],[100,33766],[100,33850],[100,33934],[100,34017],[100,34100],[100,34184],[100,34266],[100,34350],[100,34433],[100,34517],[100,34600],[100,34684],[100,34767],[100,34851],[100,34934],[100,35017],[100,35101],[100,35184],[100,35267],[100,35351],[100,35434],[100,35518],[100,35601],[100,35684],[100,35768],[100,35851],[100,35934],[100,36018],[100,36101],[100,36185],[100,36268],[100,36351],[100,36434],[100,36518],[100,36601],[100,36685],[100,36768],[100,36852],[100,36934],[100,37019],[100,37102],[100,37185],[100,37269],[100,37352],[100,37435],[100,37519],[100,37602],[100,37685],[100,37769],[100,37852],[100,37935],[100,38019],[100,38102],[100,38186],[100,38269],[100,38352],[100,38436],[100,38519],[100,38603],[100,38686],[100,38769],[100,38853],[100,38935],[100,39019],[100,39103],[100,39186],[100,39269],[100,39353],[100,39436],[100,39520],[100,39603],[100,39686],[100,39770],[100,39853],[100,39936],[100,40020],[100,40103],[100,40187],[100,40270],[100,40353],[100,40437],[100,40520],[100,40604],[100,40687],[100,40770],[100,40854],[100,40937],[100,41020],[100,41104],[100,41188],[100,41270],[100,41354],[100,41437],[100,41521],[100,41604],[100,41687],[100,41771],[100,41854],[100,41937],[100,42021],[100,42104],[100,42188],[100,42271],[100,42354],[100,42438],[100,42521],[100,42604],[100,42688],[100,42771],[100,42855],[100,42938],[100,43021],[100,43105],[100,43188],[100,43271],[100,43355],[100,43438],[100,43522],[100,43605],[100,43688],[100,43772],[100,43855],[100,43938],[100,44022],[100,44105],[100,44189],[100,44272],[100,44355],[100,44439],[100,44522],[100,44606],[100,44689],[100,44772],[100,44855],[100,44939],[100,45022],[100,45106],[100,45189],[100,45273],[100,45356],[100,45439],[100,45523],[100,45606],[100,45689],[100,45773],[100,45856],[100,45939],[100,46023],[100,46106],[100,46190],[100,46273],[100,46356],[100,46440],[100,46523],[100,46607],[100,46690],[100,46773],[100,46857],[100,46940],[100,47023],[100,47107],[100,47190],[100,47273],[100,47357],[100,47440],[100,47524],[100,47607],[100,47690],[100,47774],[100,47857],[100,47940],[100,48024],[100,48107],[100,48190],[100,48274],[100,48357],[100,48440],[100,48524],[100,48607],[100,48690],[100,48774],[100,48857],[100,48940],[100,49024],[100,49107],[100,49191],[100,49274],[100,49357],[100,49441],[100,49524],[100,49607],[100,49691],[100,49774],[100,49858],[100,49941],[100,50024],[100,50108],[100,50191],[100,50275],[100,50358],[100,50441],[100,50525],[100,50608],[100,50691],[100,50775],[100,50858],[100,50942],[100,51025],[100,51108],[100,51192],[100,51275],[100,51358],[100,51442],[100,51525],[100,51608],[100,51692],[100,51775],[100,51859],[100,51942],[100,52025],[100,52109],[100,52192],[100,52275],[100,52359],[100,52442],[100,52526],[100,52609],[100,52692],[100,52776],[100,52859],[100,52942],[100,53026],[100,53109],[100,53193],[100,53276],[100,53359],[100,53443],[100,53526],[100,53610],[100,53693],[100,53776],[100,53860],[100,53943],[100,54026],[100,54110],[100,54193],[100,54276],[100,54360],[100,54443],[100,54527],[100,54610],[100,54693],[100,54777],[100,54860],[100,54944],[100,55027],[100,55110],[100,55194],[100,55277],[100,55360],[100,55444],[100,55527],[100,55611],[100,55694],[100,55777],[100,55861]]",1,0,575.1528,578.9543,99.81887621,2.7345,"[{""rating"":99.81887621198591,""responseTime"":2.7345000000000255}]",space,3.2599,,578.9544,Definitely yes,100,578.9557,,,[],,0,10,10,10,1,audio/Narrative8Situation1.wav,audio/Narrative7Situation1.wav,audio/Narrative6Situation1.wav,audio/Narrative5Situation1.wav,5,2,2,5,,,,,,,,,,,,,,,,,,,,,,,,,,,,,,,,,,,,,,,
,,,,,,59598e604c20120001517c99,2024-02-08_13h12.12.610,group3.1-3.2-social-tom,2023.2.2,Win32,59.88023952,65c5074098b851296ff0b7ed,65c54158b61244608049b1e0,,,,,,,,,,,,,,,,,,,,,,,,,,,,,578.9559,1,audio/Narrative7Situation2.wav,581.9725,,581.9726,589.4603,"[[97.5,250],[97.4,333],[97.4,416],[97.4,500],[97.4,583],[97.4,666],[97.4,751],[97.4,834],[97.4,917],[97.4,1000],[97.4,1084],[97.4,1167],[97.4,1250],[97.4,1333],[97.4,1417],[97.4,1500],[97.4,1584],[97.4,1667],[97.4,1751],[99,1834],[99.5,1917],[99.5,2000],[99.5,2084],[99.5,2167],[99.5,2251],[99.5,2335],[100,2418],[100,2501],[100,2584],[100,2668],[100,2751],[100,2834],[100,2918],[100,3001],[100,3085],[100,3168],[100,3251],[100,3335],[100,3418],[100,3502],[100,3585],[100,3668],[100,3752],[100,3835],[100,3918],[100,4002],[100,4085],[100,4169],[100,4252],[100,4335],[100,4419],[100,4502],[100,4586],[100,4669],[100,4752],[100,4836],[100,4919],[100,5002],[100,5086],[100,5170],[100,5252],[100,5336],[100,5419],[100,5503],[100,5586],[100,5669],[100,5753],[100,5836],[100,5919],[100,6003],[100,6086],[100,6170],[100,6253],[100,6336],[100,6420],[100,6504],[100,6586],[100,6670],[100,6753],[100,6837],[100,6920],[100,7003],[100,7087],[100,7170],[100,7254],[100,7337],[100,7420]]",1,0,589.4605,592.2951,100,1.8662,"[{""rating"":99.14213275961255,""responseTime"":1.0188000000043758},{""rating"":100,""responseTime"":1.866200000002891}]",space,2.2855,,592.2953,Partially,50,592.3011,,,[],,0,11,11,11,1,audio/Narrative8Situation2.wav,audio/Narrative7Situation2.wav,audio/Narrative6Situation2.wav,audio/Narrative5Situation2.wav,3,3,3,3,,,,,,,,,,,,,,,,,,,,,,,,,,,,,,,,,,,,,,,
,,,,,,59598e604c20120001517c99,2024-02-08_13h12.12.610,group3.1-3.2-social-tom,2023.2.2,Win32,59.88023952,65c5074098b851296ff0b7ed,65c54158b61244608049b1e0,,,,,,,,,,,,,,,,,,,,,,,,,,,,,592.3016,1,audio/Narrative7Situation3.wav,600.3151,,600.3152,609.5865,"[[100,83],[100,167],[100,250],[100,333],[100,416],[100,500],[100,583],[100,667],[100,750],[100,833],[100,917],[100,1000],[100,1083],[100,1167],[100,1250],[100,1334],[100,1417],[100,1501],[100,1585],[100,1667],[99.9,1754],[99.9,1834],[99.9,1917],[99.9,2001],[99.9,2084],[99.9,2167],[99.9,2251],[99.9,2334],[99.9,2418],[99.9,2501],[99.9,2584],[99.9,2668],[99.9,2751],[99.9,2834],[99.9,2918],[99.9,3001],[99.9,3085],[99.9,3168],[99.9,3251],[99.9,3335],[99.9,3418],[99.9,3501],[99.9,3585],[99.9,3668],[99.9,3752],[99.9,3835],[99.9,3918],[99.9,4002],[99.9,4084],[99.9,4168],[99.9,4251],[99.9,4335],[99.9,4419],[99.9,4502],[99.9,4585],[99.9,4668],[99.9,4752],[99.9,4836],[99.9,4919],[99.9,5002],[99.9,5086],[99.9,5169],[99.9,5252],[99.9,5336],[99.9,5419],[99.9,5503],[99.9,5585],[99.9,5669],[99.9,5753],[99.9,5836],[99.9,5919],[99.9,6003],[99.9,6086],[99.9,6169],[99.9,6253],[99.9,6336],[99.9,6420],[99.9,6503],[99.9,6586],[99.9,6670],[99.8,6753],[99.3,6837],[99,6919],[97.8,7003],[95.8,7088],[94.3,7170],[93.4,7253],[91.5,7336],[87.8,7420],[86.1,7504],[85.8,7587],[85.6,7670],[84.7,7753],[81.5,7837],[78,7921],[76.3,8003],[74.8,8087],[74.1,8171],[73.5,8254],[73.2,8338],[72.9,8421],[71.8,8505],[69.3,8587],[65.6,8670],[62.4,8754],[58.7,8837],[56.2,8920],[54.3,9004],[52.8,9087],[51.2,9172],[50.4,9254]]",1,0,609.5866,612.4718,42.71278968,1.7413,"[{""rating"":42.712789678544354,""responseTime"":1.741299999997068}]",space,2.3522,,612.472,Partially,50,612.4758,,,[],,0,12,12,12,1,audio/Narrative8Situation3.wav,audio/Narrative7Situation3.wav,audio/Narrative6Situation3.wav,audio/Narrative5Situation3.wav,4,8,5,3,,,,,,,,,,,,,,,,,,,,,,,,,,,,,,,,,,,,,,,
,,,,,,59598e604c20120001517c99,2024-02-08_13h12.12.610,group3.1-3.2-social-tom,2023.2.2,Win32,59.88023952,65c5074098b851296ff0b7ed,65c54158b61244608049b1e0,,,,,,,,,,,,,,,,,,,,,,,,,,,,,612.4764,1,audio/Narrative7Situation4.wav,615.4898,,615.4899,627.2285,"[[999,26],[999,99],[999,183],[999,266],[999,349],[999,433],[999,516],[999,600],[999,683],[999,767],[999,850],[999,933],[999,1016],[999,1100],[999,1183],[999,1267],[999,1350],[46.1,1433],[25.1,1516],[0.2,6870],[0.3,6953],[0.3,7036],[0.3,7119],[0.3,7203],[0.3,7287],[0.3,7370],[0.3,7453],[0.3,7536],[0.3,7620],[0.3,7703],[0.3,7787],[0.3,7870],[0.3,7953],[0.3,8037],[0.3,8120],[0.3,8203],[0.3,8287],[0.3,8370],[0.3,8454],[0.3,8537],[0.3,8620],[0.3,8703],[0.3,8787],[0.3,8870],[0.3,8954],[0.3,9037],[0.3,9121],[0.3,9204],[0.3,9288],[0.3,9371],[0.3,9454],[0.3,9537],[0.3,9621],[0.3,9705],[0.3,9788],[0.3,9871],[0.3,9954],[0.3,10038],[0.3,10121],[0.3,10204],[0.3,10288],[0.3,10371],[0.3,10455],[0.3,10538],[0.3,10621],[0.3,10705],[0.3,10788],[0.3,10871],[0.3,10955],[0.3,11038],[0.3,11121],[0.3,11204],[0.3,11288],[0.3,11371],[0.3,11455],[0.3,11538],[0.3,11621],[0.3,11705]]",1,0,627.2285,628.946,0.286668976,0.9185,"[{""rating"":0.28666897590131635,""responseTime"":0.9184999999999945}]",space,1.1908,,628.946,Not at all,0,628.9474,,,[],,0,13,13,13,1,audio/Narrative8Situation4.wav,audio/Narrative7Situation4.wav,audio/Narrative6Situation4.wav,audio/Narrative5Situation4.wav,3,3,2,1,,,,,,,,,,,,,,,,,,,,,,,,,,,,,,,,,,,,,,,
,,,,,,59598e604c20120001517c99,2024-02-08_13h12.12.610,group3.1-3.2-social-tom,2023.2.2,Win32,59.88023952,65c5074098b851296ff0b7ed,65c54158b61244608049b1e0,,,,,,,,,,,,,,,,,,,,,,,,,,,,,628.9475,1,audio/Narrative7Situation5.wav,633.9491,,633.9492,642.4372,"[[0.2,933],[0.2,1016],[0.2,1100],[0.2,1183],[0.2,1266],[0.2,1350],[0.2,1433],[0.2,1517],[0.2,1600],[0.2,1683],[0.2,1767],[0.2,1850],[0.2,1934],[0.2,2017],[0.2,2100],[0.2,2184],[0.2,2267],[0.2,2350],[0.2,2434],[0.2,2517],[0.2,2601],[0.2,2684],[0.2,2767],[0.2,2851],[0.2,2934],[0.2,3018],[0.2,3101],[0.2,3184],[0.2,3268],[0.2,3351],[0.2,3434],[0.2,3518],[0.2,3601],[0.9,3701],[1.2,3768],[1.2,3851],[1.9,3934],[4.9,4018],[7.5,4101],[9.5,4185],[11.5,4269],[12,4352],[12.7,4434],[17.1,4518],[20.5,4601],[21.4,4686],[22.4,4768],[24.3,4851],[26.7,4935],[28.3,5018],[30.3,5102],[33.1,5185],[34.4,5270],[35.1,5353],[35.7,5436],[35.8,5518],[35.9,5602],[35.9,5685],[35.9,5769],[35.9,5852],[35.9,5936],[35.9,6019],[35.9,6102],[35.9,6186],[35.9,6269],[35.9,6353],[35.9,6436],[35.9,6519],[35.9,6603],[34.8,6686],[33.4,6769],[33.3,6852],[33.3,6936],[32.3,7019],[28.9,7103],[28.1,7187],[27.4,7269],[25.4,7353],[24.4,7436],[24.2,7520],[24.2,7603],[22.7,7686],[20.6,7770],[20.2,7854],[20.1,7936],[20,8020],[19.9,8103],[19.9,8187],[19.9,8270],[19.9,8353],[19.9,8437]]",1,0,642.4375,647.9892,15.64336545,4.8292,"[{""rating"":16.111875711559136,""responseTime"":1.3811000000015383},{""rating"":15.64336544827074,""responseTime"":4.82920000000297}]",space,5.0111,,647.9893,Definitely yes,100,647.9927,,,[],,0,14,14,14,1,audio/Narrative8Situation5.wav,audio/Narrative7Situation5.wav,audio/Narrative6Situation5.wav,audio/Narrative5Situation5.wav,2,5,2,5,,,,,,,,,,,,,,,,,,,,,,,,,,,,,,,,,,,,,,,
,,,,,,59598e604c20120001517c99,2024-02-08_13h12.12.610,group3.1-3.2-social-tom,2023.2.2,Win32,59.88023952,65c5074098b851296ff0b7ed,65c54158b61244608049b1e0,,,,,,,,,,,,,,,,,,,,,,,,,,,,,647.993,1,audio/Narrative7Situation6.wav,651.0079,,651.0079,660.9964,"[[15.7,1167],[15.7,1250],[15.7,1333],[15.7,1417],[15.7,1500],[15.7,1583],[15.7,1667],[15.7,1750],[15.7,1834],[15.7,1917],[16.2,2000],[16.4,2084],[16.4,2166],[16.5,2251],[20.5,2333],[31,2417],[41.4,2500],[100,3584],[100,3668],[100,3751],[100,3834],[100,7252],[100,7587],[100,7670],[100,7753],[99.5,7836],[99.4,7919],[99.4,8003],[99.4,8087],[99.4,8170],[99.4,8253],[99.4,8337],[99.4,8421],[99.4,8503],[99.5,8587],[100,8671],[100,8754],[100,8837],[100,8920],[100,9004],[100,9087],[100,9171],[100,9254],[100,9337],[100,9420],[100,9504],[100,9587],[100,9671],[100,9754],[100,9837],[100,9921]]",1,0,660.9966,663.5642,100,1.8418,"[{""rating"":99.61063661749971,""responseTime"":1.2397999999971034},{""rating"":100,""responseTime"":1.8417999999970789}]",space,2.0218,,663.5643,Not at all,0,663.5698,,,[],,0,15,15,15,1,audio/Narrative8Situation6.wav,audio/Narrative7Situation6.wav,audio/Narrative6Situation6.wav,audio/Narrative5Situation6.wav,2,3,2,3,,,,,,,,,,,,,,,,,,,,,,,,,,,,,,,,,,,,,,,
,,,,,,59598e604c20120001517c99,2024-02-08_13h12.12.610,group3.1-3.2-social-tom,2023.2.2,Win32,59.88023952,65c5074098b851296ff0b7ed,65c54158b61244608049b1e0,,,,,,,,,,,,,,,,,,,,,,,,,,,,,663.5702,1,audio/Narrative7Situation7.wav,668.5831,,668.5833,685.7588,"[[100,1167],[100,1249],[100,1334],[100,1417],[100,1500],[100,1583],[100,1667],[100,1750],[100,1834],[100,1918],[100,2001],[100,2084],[100,2167],[100,2250],[100,2334],[100,2418],[100,2500],[100,2584],[100,2667],[100,2751],[100,2834],[100,2917],[100,3001],[100,3085],[100,3168],[100,3251],[100,3334],[100,3418],[100,3501],[100,3584],[100,3668],[100,3751],[100,3835],[100,3918],[100,4001],[100,4085],[100,4168],[100,4251],[100,4335],[100,4418],[100,4501],[100,4584],[100,4668],[100,4751],[100,4834],[100,4918],[100,5001],[100,5084],[100,5168],[100,5251],[100,5335],[100,5418],[100,5501],[100,5585],[100,5668],[100,5751],[100,5835],[100,5918],[100,6002],[100,6085],[100,6168],[100,6252],[100,6335],[100,6418],[100,6502],[100,6585],[100,6669],[100,6752],[100,6835],[100,6919],[100,7002],[100,7086],[100,7169],[100,7252],[100,7336],[100,7419],[100,7503],[100,7586],[100,7669],[100,7753],[100,7836],[100,7919],[100,8003],[100,8086],[100,8170],[100,8253],[100,8336],[100,8420],[100,8505],[100,8587],[100,8670],[100,8753],[100,8837],[100,8920],[100,9004],[100,9087],[100,9170],[100,9254],[100,9337],[100,9421],[100,9504],[100,9587],[100,9671],[100,9754],[100,9837],[100,9921],[100,10004],[100,10088],[100,10171],[100,10254],[100,10338],[100,10421],[100,10505],[100,10588],[100,10671],[100,10755],[100,10838],[100,10921],[100,11005],[100,11088],[100,11171],[100,11255],[100,11338],[100,11422],[100,11505],[100,11588],[100,11672],[100,11755],[100,11838],[100,11922],[100,12005],[100,12088],[100,12173],[100,12255],[100,12339],[100,12422],[100,12508],[100,12589],[100,12672],[100,12756],[100,12839],[100,12922],[100,13006],[100,13089],[100,13173],[100,13256],[100,13339],[100,13423],[100,13505],[100,13589],[100,13673],[100,13756],[100,13839],[100,13923],[100,14006],[100,14089],[100,14173],[100,14256],[100,14340],[100,14423],[100,14506],[100,14590],[100,14673],[100,14757],[100,14840],[100,14923],[100,15006],[100,15090],[100,15173],[100,15257],[100,15340],[100,15424],[100,15507],[100,15590],[100,15674],[100,15757],[100,15841],[100,15924],[100,16007],[100,16091],[100,16174],[100,16257],[100,16341],[100,16424],[100,16508],[100,16591],[100,16674],[100,16758],[100,16841],[100,16925],[100,17008],[100,17091],[100,17175]]",1,0,685.7591,688.7431,100,2.0452,"[{""rating"":98.67362890172542,""responseTime"":1.4750000000000227},{""rating"":100,""responseTime"":2.0451999999955888}]",space,2.4407,,688.7433,Partially,50,688.7498,,,[],,0,16,16,16,1,audio/Narrative8Situation7.wav,audio/Narrative7Situation7.wav,audio/Narrative6Situation7.wav,audio/Narrative5Situation7.wav,3,5,5,4,,,,,,,,,,,,,,,,,,,,,,,,,,,,,,,,,,,,,,,
,,,,,,59598e604c20120001517c99,2024-02-08_13h12.12.610,group3.1-3.2-social-tom,2023.2.2,Win32,59.88023952,65c5074098b851296ff0b7ed,65c54158b61244608049b1e0,,,,,,,,,,,,,,,,,,,,,,,,,,,,,688.7505,1,audio/Narrative7Situation8.wav,690.7608,,690.7609,700.7826,"[[100,167],[100,250],[100,333],[100,416],[100,499],[100,584],[99.9,666],[99.9,750],[99.9,833],[99.9,918],[100,1000],[100,1083],[100,1167],[100,1250],[100,1333],[100,1416],[100,1501],[100,1583],[100,1667],[100,1750],[100,1834],[100,1917],[100,2000],[100,2084],[100,2167],[100,2251],[100,2334],[100,2417],[100,2501],[100,2584],[100,2667],[100,2751],[100,2834],[100,2917],[100,3001],[100,3084],[100,3168],[100,3251],[100,3334],[100,3418],[100,3501],[100,3585],[100,3668],[100,3751],[100,3835],[100,3918],[100,4001],[100,4085],[100,4168],[100,4252],[100,4335],[100,4418],[100,4502],[100,4585],[100,4668],[100,4752],[100,4835],[100,4918],[100,5002],[100,5085],[100,5168],[100,5252],[100,5335],[100,5419],[100,5502],[100,5586],[100,5669],[100,5752],[100,5836],[100,5919],[100,6002],[100,6086],[100,6169],[100,6253],[100,6336],[100,6419],[100,6503],[100,6586],[100,6669],[100,6753],[100,6836],[100,6919],[100,7003],[100,7086],[100,7170],[100,7253],[100,7336],[100,7420],[100,7503],[100,7586],[100,7670],[100,7753],[100,7837],[100,7920],[100,8003],[100,8087],[100,8170],[100,8253],[100,8337],[100,8420],[100,8504],[100,8587],[100,8670],[100,8754],[100,8837],[100,8920],[100,9004],[100,9087],[100,9171],[100,9254],[100,9337],[100,9421],[100,9504],[100,9587],[100,9671],[100,9754],[100,9838],[100,9921],[100,10004]]",1,0,700.7828,703.2335,100,1.5824,"[{""rating"":100,""responseTime"":1.582399999998529}]",space,1.9036,,703.2336,Definitely yes,100,703.2373,,,[],,0,17,17,17,1,audio/Narrative8Situation8.wav,audio/Narrative7Situation8.wav,audio/Narrative6Situation8.wav,audio/Narrative5Situation8.wav,3,2,5,3,,,,,,,,,,,,,,,,,,,,,,,,,,,,,,,,,,,,,,,
,,,,,,59598e604c20120001517c99,2024-02-08_13h12.12.610,group3.1-3.2-social-tom,2023.2.2,Win32,59.88023952,65c5074098b851296ff0b7ed,65c54158b61244608049b1e0,,,,,,,,,,,,,,,,,,,,,,,,,,,,,703.2378,1,audio/Narrative7Situation9.wav,705.2513,,705.2513,713.8893,"[[95.2,833],[95.5,917],[96.6,1000],[97.4,1083],[97.4,1167],[98.7,1250],[99,1333],[99.1,1417],[99.6,1501],[99.6,1584],[99.6,1667],[100,1751],[100,1833],[100,1917],[100,2001],[100,2084],[100,2167],[100,2251],[100,2334],[100,2417],[100,2501],[100,2584],[100,2667],[100,2751],[100,2834],[100,2918],[100,3001],[100,3085],[100,3168],[100,3251],[100,3335],[100,3418],[100,3501],[100,3585],[100,3668],[100,3751],[100,3835],[100,3918],[100,4001],[100,4085],[100,4168],[100,4251],[100,4335],[100,4418],[100,4502],[100,4585],[100,4668],[100,4752],[100,4835],[100,4919],[100,5002],[100,5085],[100,5169],[100,5252],[100,5335],[100,5419],[100,5502],[100,5586],[100,5669],[100,5752],[100,5836],[100,5919],[100,6002],[100,6086],[100,6169],[100,6252],[100,6336],[100,6419],[100,6503],[100,6586],[100,6669],[100,6753],[100,6836],[100,6919],[100,7003],[100,7086],[100,7170],[100,7253],[100,7336],[100,7420],[100,7503],[100,7586],[100,7670],[100,7753],[100,7837],[100,7920],[100,8003],[100,8087],[100,8170],[100,8253],[100,8337],[100,8420],[100,8504],[100,8587]]",1,0,713.8896,717.9078,100,2.4254,"[{""rating"":100,""responseTime"":2.42539999999849}]",space,3.4686,,717.9079,Not at all,0,723.3768,100,4.3942,"[{""rating"":100,""responseTime"":4.394200000002911}]",space,0,18,18,18,1,audio/Narrative8Situation9.wav,audio/Narrative7Situation9.wav,audio/Narrative6Situation9.wav,audio/Narrative5Situation9.wav,3,2,4,3,,,4.9448,,,,,,,,,,,,,,,,,,,,,,,,,,,,,,,,,,,,
,,,,,,59598e604c20120001517c99,2024-02-08_13h12.12.610,group3.1-3.2-social-tom,2023.2.2,Win32,59.88023952,65c5074098b851296ff0b7ed,65c54158b61244608049b1e0,,,,,,,,,,,,,,,,,,,,,,,,,,,727.5106,730.0807,730.1115,2,audio/Narrative13Situation2.wav,730.1115,,730.1115,759.8615,"[[100,5088],[92.8,5170],[1,5838],[0.4,5921],[0.1,6005],[0.1,6089],[0.1,6171],[0.1,6254],[0.1,6338],[0.1,6421],[0.1,6505],[0.1,6588],[0.1,6671],[0.1,6755],[0.1,6838],[0.1,6921],[0.1,7005],[0.1,7088],[0.1,7172],[0.1,7255],[0.1,7339],[0.1,7422],[0.1,7505],[0.1,7589],[0.1,7672],[0.1,7755],[0.1,7839],[4.4,7923],[28.3,8005],[53.9,8089],[75.7,8172],[97,8339],[99.8,8422],[100,8506],[100,8839],[100,8923],[100,9006],[100,9089],[100,9173],[100,9256],[100,9339],[100,9423],[100,9506],[100,9590],[100,9673],[100,9756],[100,9840],[100,9923],[100,10007],[100,10090],[100,10173],[100,10257],[100,10340],[100,10424],[100,10507],[100,10590],[100,10674],[100,10757],[100,10840],[100,10924],[100,11007],[100,11090],[100,11174],[100,11257],[100,11341],[100,11424],[100,11507],[100,11591],[100,11674],[100,11757],[100,11841],[100,11924],[100,12008],[100,12091],[100,12174],[100,12257],[100,12341],[100,12425],[100,12508],[100,12591],[100,12675],[100,12758],[100,12842],[100,12925],[100,13008],[100,13092],[100,13175],[100,13258],[100,13342],[100,13425],[100,13509],[100,13592],[100,13675],[100,13759],[100,13842],[100,13925],[100,14009],[100,14092],[100,14175],[100,14259],[100,14342],[100,14426],[100,14509],[100,14592],[100,14676],[100,14759],[100,14842],[100,14926],[100,15009],[100,15093],[100,15176],[100,15259],[100,15343],[100,15426],[100,15509],[100,15593],[100,15676],[100,15760],[100,15843],[100,15926],[100,16010],[100,16093],[100,16176],[100,16260],[100,16343],[100,16427],[100,16510],[100,16593],[100,16677],[100,16760],[100,16843],[100,16927],[100,17010],[100,17093],[100,17177],[100,17260],[100,17344],[100,17427],[100,17510],[100,17594],[100,17677],[100,17761],[100,17844],[100,17927],[100,18011],[100,18094],[100,18177],[100,18261],[100,18344],[100,18427],[100,18511],[100,18594],[100,18678],[100,18761],[100,18844],[100,18928],[100,19011],[100,19094],[100,19177],[100,19261],[100,19344],[100,19428],[100,19511],[100,19594],[100,19678],[100,19761],[100,19845],[100,19928],[100,20012],[100,20095],[100,20178],[100,20262],[100,20345],[100,20428],[100,20512],[100,20595],[100,20679],[100,20762],[100,20846],[100,20929],[100,21012],[100,21096],[100,21179],[100,21262],[100,21346],[100,21429],[100,21512],[100,21596],[100,21679],[100,21763],[100,21846],[100,21929],[100,22013],[100,22096],[100,22179],[100,22263],[100,22346],[100,22430],[100,22513],[100,22596],[100,22680],[100,22763],[100,22846],[100,22930],[100,23013],[100,23096],[100,23180],[100,23263],[100,23346],[100,23430],[100,23513],[100,23597],[100,23680],[100,23764],[100,23847],[100,23930],[100,24014],[100,24097],[100,24180],[100,24264],[100,24347],[100,24431],[100,24514],[100,24597],[100,24681],[100,24764],[100,24847],[100,24931],[100,25014],[100,25097],[100,25181],[100,25264],[100,25348],[100,25431],[100,25514],[100,25598],[100,25682],[100,25765],[100,25848],[100,25931],[96,26016],[81.4,26098],[74.2,26181],[73,26265],[72.9,26348],[68.2,26431],[63,26514],[62.4,26599],[62.4,26682],[62.4,26765],[62.4,26848],[62.4,26932],[62.4,27015],[62.4,27098],[62.4,27182],[62.4,27265],[62.4,27349],[62.4,27432],[62.4,27515],[62.4,27599],[62.4,27682],[62.7,27766],[63.5,27849],[64.2,27933],[64.6,28015],[64.6,28099],[64.6,28182],[64.6,28266],[64.6,28349],[64.6,28433],[64.6,28516],[64.6,28599],[64.6,28683],[64.6,28766],[64.6,28849],[64.6,28933],[64.6,29016],[64.6,29099],[64.6,29183],[64.6,29266],[64.6,29350],[64.6,29433],[64.6,29516],[66.5,29599],[67.8,29683]]",1,0,759.8616,759.8624,,,[],,,,759.8625,Partially,50,759.8634,,,[],,0,0,0,0,1,audio/Narrative13Situation2.wav,audio/Narrative13Situation2.wav,audio/Narrative13Situation2.wav,audio/Narrative13Situation2.wav,2,2,2,2,,,,,723.3778,727.4961,space,3.589,,,,,,,,,,,,,,,,,,,,,,,,,,,,,,,
,,,,,,59598e604c20120001517c99,2024-02-08_13h12.12.610,group3.1-3.2-social-tom,2023.2.2,Win32,59.88023952,65c5074098b851296ff0b7ed,65c54158b61244608049b1e0,,,,,,,,,,,,,,,,,,,,,,,,,,,,,759.8636,2,audio/Narrative6Situation1.wav,761.8797,,761.8798,788.4758,"[[999,1],[999,82],[999,166],[999,249],[999,333],[999,416],[999,499],[999,583],[999,666],[999,749],[999,833],[999,916],[999,1000],[999,1083],[66.5,1166],[82.4,1250],[87.5,1333],[89.1,1416],[96,1500],[99.4,1583],[99.5,1667],[99.5,1750],[99.5,1833],[99.5,1917],[99.5,2000],[99.5,2083],[99.5,2167],[99.5,2250],[99.5,2334],[99.5,2417],[99.5,2500],[98.3,2586],[77.3,2667],[35.3,3084],[33.9,3169],[33.7,3251],[33.7,3335],[33.7,3418],[33.7,3501],[33.7,3584],[33.7,3668],[33.7,3751],[33.7,3835],[33.7,3918],[33,4001],[17.5,4084],[9.4,4168],[9.2,4251],[9.2,4335],[7.1,4418],[4.2,4502],[4.2,4584],[4.2,4668],[2.3,4751],[1.2,4835],[1.2,4918],[1.2,5002],[1.2,5086],[8.5,5168],[30.5,5252],[60.7,5335],[77.6,5418],[100,6003],[100,6085],[100,6169],[97.8,6252],[97.3,6336],[97.3,6419],[98.8,6502],[100,6585],[100,6669],[100,6753],[100,6836],[100,6919],[100,7003],[100,7086],[100,7169],[100,7253],[100,7336],[100,7420],[100,7503],[100,7586],[100,7670],[100,7753],[100,7836],[100,7920],[100,8003],[100,8087],[100,8170],[100,8253],[100,8337],[100,8420],[100,8504],[100,8587],[100,8670],[100,8754],[100,8837],[100,8920],[100,9004],[100,9087],[100,9171],[100,9254],[100,9337],[100,9421],[100,9504],[100,9588],[100,9671],[100,9754],[100,9838],[100,9921],[100,10004],[100,10088],[100,10171],[100,10254],[100,10338],[100,10421],[100,10504],[100,10588],[100,10671],[100,10755],[100,10838],[100,10922],[100,11005],[100,11088],[97.8,11171],[92.4,11254],[91,11339],[87.2,11421],[52.7,11588],[42.8,11671],[39.8,11755],[38,11838],[34.3,11922],[31.7,12006],[30.2,12088],[28.3,12172],[24.7,12255],[21.7,12338],[17.4,12422],[13.8,12505],[13.1,12589],[12.5,12672],[11.9,12756],[11.8,12839],[11.8,12922],[11.8,13005],[9.7,13089],[6,13172],[5.7,13256],[5.3,13339],[4,13422],[3.3,13507],[2.3,13589],[1.7,13673],[1.7,13756],[1.7,13839],[1.7,13922],[1.7,14006],[1.6,14090],[1.2,14173],[1,14256],[0.9,14339],[0.3,14423],[0.1,14506],[3.4,22594],[4.6,22677],[7.5,22760],[9,22845],[10.7,22927],[14.2,23010],[16.8,23094],[17.8,23177],[18.7,23260],[20.4,23344],[20.8,23427],[20.8,23511],[20.8,23594],[20.9,23679],[22.8,23762],[24.1,23845],[25.3,23927],[27.3,24011],[29.8,24094],[33.9,24177],[38.7,24261],[41.9,24344],[49.5,24428],[65,24511],[81.6,24595],[95.9,24678],[100,24761],[100,24845],[100,24928],[100,25012],[100,25095],[100,25178],[100,25261],[100,25345],[100,25428],[100,25512]]",1,0,788.4759,793.9787,100,3.7259,"[{""rating"":100,""responseTime"":3.7258999999985463}]",space,4.9706,,793.9788,Partially,50,793.9808,,,[],,0,1,1,1,1,audio/Narrative7Situation1.wav,audio/Narrative8Situation1.wav,audio/Narrative5Situation1.wav,audio/Narrative6Situation1.wav,2,5,5,2,,,,,,,,,,,,,,,,,,,,,,,,,,,,,,,,,,,,,,,
,,,,,,59598e604c20120001517c99,2024-02-08_13h12.12.610,group3.1-3.2-social-tom,2023.2.2,Win32,59.88023952,65c5074098b851296ff0b7ed,65c54158b61244608049b1e0,,,,,,,,,,,,,,,,,,,,,,,,,,,,,793.9811,2,audio/Narrative6Situation2.wav,796.9973,,796.9974,825.5118,"[[999,13],[999,82],[999,165],[999,249],[999,332],[999,416],[999,499],[999,582],[999,666],[999,749],[999,832],[999,916],[999,999],[999,1083],[999,1166],[999,1250],[999,1333],[999,1416],[73.9,1500],[93.5,1583],[100,1916],[100,2000],[100,2083],[100,2166],[100,2250],[100,2333],[100,2417],[100,2500],[100,2583],[100,2667],[100,2750],[100,2833],[100,2917],[100,3000],[100,3084],[100,3167],[100,3251],[100,3334],[100,3417],[100,3501],[100,3584],[100,3667],[100,3751],[100,3834],[100,3917],[100,4001],[100,4084],[100,4167],[100,4251],[100,4334],[100,4418],[100,4501],[100,4584],[100,4668],[100,4751],[100,4835],[100,4918],[100,5001],[100,5085],[100,5168],[100,5251],[100,5335],[100,5418],[100,5501],[100,5585],[100,5668],[100,5752],[100,5835],[100,5918],[100,6002],[100,6085],[100,6168],[100,6252],[100,6335],[100,6419],[100,6502],[100,6585],[100,6669],[100,6752],[100,6835],[100,6919],[100,7002],[100,7086],[100,7169],[100,7252],[100,7336],[100,7419],[100,7502],[100,7586],[100,7669],[100,7753],[100,7836],[100,7919],[100,8003],[100,8086],[100,8169],[100,8253],[100,8336],[100,8420],[100,8503],[100,8586],[100,8670],[100,8753],[100,8836],[100,8920],[100,9003],[100,9087],[100,9170],[100,9253],[100,9337],[100,9420],[100,9503],[100,9587],[100,9670],[100,9754],[100,9837],[100,9920],[100,10004],[100,10087],[100,10170],[100,10254],[100,10337],[100,10420],[100,10504],[100,10587],[100,10672],[100,10754],[100,10837],[100,10921],[100,11004],[100,11088],[100,11171],[100,11254],[100,11338],[100,11421],[100,11505],[100,11588],[100,11671],[100,11755],[100,11838],[100,11921],[100,12005],[100,12088],[100,12171],[100,12255],[100,12338],[100,12422],[100,12505],[100,12588],[100,12672],[100,12755],[100,12838],[100,12922],[100,13006],[100,13089],[100,13172],[100,13255],[100,13339],[100,13422],[100,13506],[100,13589],[100,13672],[100,13756],[100,13839],[100,13923],[100,14006],[100,14090],[100,14173],[100,14256],[100,14340],[100,14423],[100,14506],[100,14590],[100,14673],[100,14757],[100,14840],[100,14923],[100,15007],[100,15090],[100,15173],[100,15257],[100,15340],[100,15423],[100,15507],[100,15590],[100,15674],[100,15757],[100,15840],[100,15924],[100,16007],[100,16091],[100,16174],[100,16257],[100,16341],[100,16424],[100,16507],[100,16591],[100,16674],[100,16758],[100,16841],[100,16924],[100,17008],[100,17091],[100,17174],[100,17257],[100,17341],[100,17424],[100,17507],[100,17591],[100,17674],[100,17757],[100,17841],[100,17924],[100,18008],[100,18091],[100,18175],[100,18258],[100,18341],[100,18425],[100,18508],[100,18591],[100,18675],[100,18758],[100,18842],[100,18925],[100,19009],[100,19092],[100,19175],[100,19259],[100,19342],[100,19426],[100,19509],[100,19592],[100,19676],[100,19759],[100,19842],[100,19926],[100,20009],[100,20092],[100,20175],[100,20259],[100,20343],[100,20426],[100,20509],[100,20593],[100,20676],[100,20759],[100,20843],[100,20926],[100,21010],[100,21093],[100,21176],[100,21260],[100,21343],[100,21427],[100,21510],[100,21593],[100,21677],[100,21760],[100,21843],[100,21927],[100,22010],[100,22094],[100,22176],[100,22260],[100,22344],[100,22427],[100,22510],[100,22594],[100,22677],[100,22761],[100,22844],[100,22927],[100,23011],[100,23094],[100,23177],[100,23261],[100,23344],[100,23428],[100,23511],[100,23594],[100,23678],[100,23761],[100,23844],[100,23928],[100,24011],[100,24095],[100,24178],[100,24261],[100,24345],[100,24428],[100,24511],[100,24595],[100,24678],[100,24762],[100,24845],[100,24928],[100,25012],[100,25095],[100,25178],[100,25262],[100,25345],[100,25429],[100,25512],[100,25595],[100,25679],[100,25762],[100,25846],[100,25929],[100,26012],[100,26096],[100,26178],[100,26262],[100,26346],[100,26429],[100,26512],[100,26596],[100,26679],[100,26762],[100,26846],[100,26929],[100,27013],[100,27096],[100,27180],[100,27263],[100,27346],[100,27430],[100,27513],[100,27596],[100,27680],[100,27763],[100,27846],[100,27930],[100,28013],[100,28097],[100,28179],[100,28263],[100,28347],[100,28430],[100,28513]]",1,0,825.5122,828.4629,99.97502708,1.0423,"[{""rating"":99.97502708354497,""responseTime"":1.0422999999969988}]",space,2.4091,,828.463,Not at all,0,828.4684,,,[],,0,2,2,2,1,audio/Narrative7Situation2.wav,audio/Narrative8Situation2.wav,audio/Narrative5Situation2.wav,audio/Narrative6Situation2.wav,3,3,3,3,,,,,,,,,,,,,,,,,,,,,,,,,,,,,,,,,,,,,,,
,,,,,,59598e604c20120001517c99,2024-02-08_13h12.12.610,group3.1-3.2-social-tom,2023.2.2,Win32,59.88023952,65c5074098b851296ff0b7ed,65c54158b61244608049b1e0,,,,,,,,,,,,,,,,,,,,,,,,,,,,,828.4689,2,audio/Narrative6Situation3.wav,833.4821,,833.4823,846.1054,"[[99.9,599],[99.9,683],[99.9,766],[99.9,850],[99.9,933],[99.9,1016],[99.9,1100],[99.9,1183],[99.9,1266],[99.9,1350],[99.9,1433],[99.9,1517],[99.9,1600],[99.9,1683],[99.9,1767],[99.9,1850],[99.9,1933],[99.9,2017],[99.9,2100],[99.9,2184],[99.8,2267],[99.8,2350],[99.8,2434],[99.8,2517],[99.8,2601],[99.8,2684],[99.8,2768],[99.1,2850],[90.7,2934],[5.9,3351],[1.5,5185],[100,7519],[100,9604],[100,9687],[100,9771],[100,9854],[100,9938],[100,10021],[100,10104],[100,10188],[100,10271],[100,10354],[100,10438],[100,10521],[100,10605],[100,10688],[100,10771],[100,10855],[100,10938],[100,11021],[100,11105],[100,11188],[100,11272],[100,11355],[100,11438],[100,11522],[100,11605],[100,11688],[100,11771],[100,11855],[100,11939],[100,12022],[100,12105],[100,12188],[100,12272],[100,12355],[100,12439],[100,12522],[100,12605]]",1,0,846.1057,850.8408,100,1.6395,"[{""rating"":99.09008246909286,""responseTime"":0.8957999999970525},{""rating"":100,""responseTime"":1.6394999999999982}]",space,4.1974,,850.8409,Definitely yes,100,850.8463,,,[],,0,3,3,3,1,audio/Narrative7Situation3.wav,audio/Narrative8Situation3.wav,audio/Narrative5Situation3.wav,audio/Narrative6Situation3.wav,8,4,3,5,,,,,,,,,,,,,,,,,,,,,,,,,,,,,,,,,,,,,,,
,,,,,,59598e604c20120001517c99,2024-02-08_13h12.12.610,group3.1-3.2-social-tom,2023.2.2,Win32,59.88023952,65c5074098b851296ff0b7ed,65c54158b61244608049b1e0,,,,,,,,,,,,,,,,,,,,,,,,,,,,,850.8468,2,audio/Narrative6Situation4.wav,852.8585,,852.8586,865.4809,"[[999,0],[999,82],[999,166],[999,250],[999,333],[999,416],[999,500],[999,583],[999,666],[999,750],[999,833],[999,917],[999,1000],[999,1083],[999,1167],[100,1250],[98.6,1333],[98.6,1416],[98.6,1500],[98.6,1583],[90.6,1667],[12,2250],[4.1,2333],[0.3,2417],[0.3,2500],[0.3,2583],[0.3,2667],[0.3,2750],[0.3,2834],[0.3,2917],[4.3,3000],[6.1,3084],[7.1,3167],[7.5,3250],[7.5,3334],[7.5,3417],[9.3,3501],[37.4,4168],[37.3,4251],[38.6,4334],[39.5,4418],[40,4501],[40.1,4584],[40.1,4668],[40.1,4751],[40.1,4835],[40.1,4918],[40.1,5001],[40.1,5085],[40.1,5168],[40.1,5251],[40.1,5335],[40.1,5418],[40.1,5502],[40.1,5585],[40.1,5668],[40.1,5752],[40.1,5835],[40.1,5918],[40.1,6002],[40.1,6085],[40.1,6168],[40.1,6252],[40.1,6335],[40.1,6419],[40.1,6502],[40.1,6585],[40.1,6669],[40.1,6752],[40.1,6836],[40.1,6919],[40.1,7002],[40.1,7086],[40.1,7169],[40.1,7252],[40.1,7336],[40.1,7419],[40.1,7503],[40.1,7586],[40.1,7669],[40.1,7753],[40.1,7836],[40.1,7919],[40.1,8003],[40.1,8086],[40.1,8170],[40.1,8253],[40.1,8336],[40.1,8420],[40.1,8503],[40.1,8586],[40.1,8670],[40.1,8753],[40.1,8836],[40.1,8920],[40.1,9003],[40.1,9087],[40.1,9170],[41,9254],[42.3,9337],[45.2,9420],[45.4,9504],[45.8,9587],[46,9670],[46.5,9754],[46.5,9837],[46.5,9920],[46.5,10004],[46.5,10087],[48.1,10171],[59.6,10254],[71.2,10337],[81.7,10421],[84.3,10504],[84.3,10587],[84.3,10671],[84.3,10754],[84.3,10838],[84.3,10921],[84.3,11004],[84.3,11088],[84.3,11171],[84.3,11254],[84.3,11338],[84.3,11421],[87.3,11505],[90,11588],[91.8,11672],[92.1,11755],[92.1,11838],[92.1,11922],[95.5,12005],[97.5,12088],[99.8,12172],[99.8,12255],[99.8,12338],[99.8,12422],[99.8,12505],[99.8,12588]]",1,0,865.481,869.116,92.322712,2.2836,"[{""rating"":92.32271199937165,""responseTime"":2.2836000000014565}]",space,3.1086,,869.1161,Partially,50,869.1173,,,[],,0,4,4,4,1,audio/Narrative7Situation4.wav,audio/Narrative8Situation4.wav,audio/Narrative5Situation4.wav,audio/Narrative6Situation4.wav,3,3,1,2,,,,,,,,,,,,,,,,,,,,,,,,,,,,,,,,,,,,,,,
,,,,,,59598e604c20120001517c99,2024-02-08_13h12.12.610,group3.1-3.2-social-tom,2023.2.2,Win32,59.88023952,65c5074098b851296ff0b7ed,65c54158b61244608049b1e0,,,,,,,,,,,,,,,,,,,,,,,,,,,,,869.1175,2,audio/Narrative6Situation5.wav,871.1337,,871.1338,879.0886,"[[999,8],[999,83],[999,166],[999,250],[999,333],[999,416],[999,500],[999,583],[999,667],[999,750],[999,833],[999,917],[999,1000],[999,1083],[999,1167],[999,1250],[999,1334],[999,1417],[999,1500],[999,1584],[999,1667],[999,1750],[999,1834],[999,1917],[999,2001],[999,2084],[999,2167],[999,2251],[999,2334],[999,2417],[999,2501],[999,2585],[999,2668],[999,2751],[999,2835],[999,2918],[999,3002],[999,3085],[999,3168],[999,3252],[999,3335],[999,3418],[999,3502],[999,3585],[999,3668],[999,3752],[999,3835],[999,3918],[999,4002],[999,4085],[999,4168],[999,4252],[999,4335],[999,4419],[999,4502],[999,4586],[999,4669],[999,4753],[999,4835],[999,4920],[95.9,5002],[96.2,5085],[96.1,5170],[96.8,5252]]",1,0,879.0889,881.8898,100,1.3783,"[{""rating"":100,""responseTime"":1.378300000004515}]",space,2.2511,,881.89,Not at all,0,881.8955,,,[],,0,5,5,5,1,audio/Narrative7Situation5.wav,audio/Narrative8Situation5.wav,audio/Narrative5Situation5.wav,audio/Narrative6Situation5.wav,5,2,5,2,,,,,,,,,,,,,,,,,,,,,,,,,,,,,,,,,,,,,,,
,,,,,,59598e604c20120001517c99,2024-02-08_13h12.12.610,group3.1-3.2-social-tom,2023.2.2,Win32,59.88023952,65c5074098b851296ff0b7ed,65c54158b61244608049b1e0,,,,,,,,,,,,,,,,,,,,,,,,,,,,,881.8961,2,audio/Narrative6Situation6.wav,883.9074,,883.9074,894.9967,"[[100,1250],[100,1333],[100,1417],[100,1500],[100,1583],[100,1667],[100,1751],[100,1834],[100,1917],[100,2001],[100,2083],[100,2167],[100,2250],[100,2334],[100,2417],[100,2501],[100,2584],[100,2667],[100,2750],[100,2835],[100,2918],[100,3001],[100,3084],[100,3168],[100,3251],[100,3334],[100,3419],[99.4,3501],[98.8,3584],[98.8,3668],[98.8,3751],[98.8,3834],[98.8,3918],[98.8,4001],[98.8,4085],[98.8,4168],[98.8,4251],[98.7,4335],[98.7,4418],[98.8,4502],[100,4585],[100,4668],[100,4751],[100,4835],[100,4919],[100,5002],[100,5085],[100,5168],[100,5252],[100,5335],[100,5419],[100,5502],[100,5585],[100,5669],[100,5751],[100,5836],[100,5919],[100,6002],[100,6085],[100,6169],[100,6252],[100,6336],[100,6419],[100,6503],[100,6586],[100,6669],[100,6753],[100,6836],[100,6919],[100,7003],[100,7086],[100,7170],[100,7253],[100,7336],[100,7420],[100,7503],[100,7586],[100,7670],[100,7753],[100,7837],[100,7920],[100,8003],[100,8087],[100,8170],[100,8253],[100,8337],[100,8420],[100,8504],[100,8587],[100,8670],[100,8754],[100,8837],[100,8920],[100,9004],[100,9087],[100,9171],[100,9253],[100,9337],[100,9421],[100,9504],[100,9587],[100,9671],[100,9754],[100,9838],[100,9921],[100,10004],[100,10088],[100,10171],[100,10254],[100,10338],[100,10421],[100,10504],[100,10588],[100,10671],[100,10754],[100,10838],[100,10921],[100,11004],[100,11088]]",1,0,894.997,899.1812,100,2.6754,"[{""rating"":100,""responseTime"":2.67539999999849}]",space,3.6413,,899.1812,Not at all,0,899.1821,,,[],,0,6,6,6,1,audio/Narrative7Situation6.wav,audio/Narrative8Situation6.wav,audio/Narrative5Situation6.wav,audio/Narrative6Situation6.wav,3,2,3,2,,,,,,,,,,,,,,,,,,,,,,,,,,,,,,,,,,,,,,,
,,,,,,59598e604c20120001517c99,2024-02-08_13h12.12.610,group3.1-3.2-social-tom,2023.2.2,Win32,59.88023952,65c5074098b851296ff0b7ed,65c54158b61244608049b1e0,,,,,,,,,,,,,,,,,,,,,,,,,,,,,899.1823,2,audio/Narrative6Situation7.wav,904.1835,,904.1836,929.0294,"[[999,8],[999,83],[999,166],[999,250],[999,333],[999,416],[999,500],[999,583],[999,667],[999,750],[999,833],[999,917],[999,1000],[999,1084],[999,1167],[98.6,1250],[98.8,1333],[98.8,1417],[98.8,1500],[98.8,1584],[98.8,1667],[98.8,1750],[98.8,1834],[100,1917],[100,2001],[100,2084],[100,2168],[100,2251],[100,2334],[100,2418],[100,2501],[100,2584],[100,2669],[100,2751],[100,2835],[100,2918],[100,3001],[100,3085],[100,3168],[100,3252],[100,3335],[95.4,3418],[70.4,3501],[61.1,3585],[56.6,3668],[27.3,3918],[20.1,4002],[18.2,4085],[8.8,4420],[8.4,4502],[7,4585],[3.7,4668],[2.9,4752],[1.1,4835],[0.3,4919],[0.3,5002],[0.3,5086],[0.3,5169],[0.3,5252],[0.3,5336],[0.3,5419],[0.3,5502],[0.3,5586],[0.3,5669],[0.3,5753],[1.3,5836],[2.9,5919],[2.9,6002],[3.1,6086],[5.3,6169],[6.7,6253],[6.8,6336],[6.8,6419],[6.8,6503],[6.8,6586],[6.8,6670],[6.8,6753],[7.2,6836],[33.5,6920],[100,7336],[97.3,7421],[97.2,7504],[98.2,7587],[99.5,7671],[100,7753],[100,7837],[100,7920],[100,8004],[100,8087],[100,8171],[100,8255],[100,8338],[100,8421],[100,8504],[100,8588],[100,8671],[100,8754],[100,8838],[100,8921],[100,9004],[100,9088],[100,9171],[100,9255],[100,9338],[100,9421],[100,9505],[100,9588],[100,9672],[100,9755],[100,9838],[100,9921],[100,10004],[100,10088],[100,10172],[100,10255],[100,10338],[100,10422],[100,10505],[100,10588],[100,10672],[100,10755],[100,10839],[100,10922],[100,11005],[100,11088],[100,11172],[100,11256],[100,11339],[100,11422],[100,11506],[100,11589],[100,11673],[100,11756],[100,11840],[100,11922],[100,12006],[100,12089],[100,12173],[100,12256],[100,12340],[100,12423],[100,12506],[100,12590],[100,12673],[100,12756],[100,12840],[100,12923],[100,13006],[100,13090],[100,13173],[100,13256],[100,13340],[100,13423],[100,13506],[100,13590],[100,13673],[100,13756],[100,13840],[100,13923],[100,14007],[100,14090],[100,14173],[100,14256],[100,14340],[100,14423],[100,14506],[100,14590],[100,14673],[100,14757],[100,14840],[100,14924],[100,15007],[100,15090],[100,15174],[100,15257],[100,15340],[100,15424],[100,15507],[100,15591],[100,15674],[100,15757],[100,15841],[100,15924],[100,16008],[100,16091],[100,16174],[100,16258],[100,16341],[100,16424],[100,16508],[100,16591],[100,16674],[100,16758],[100,16841],[100,16924],[100,17008],[100,17091],[100,17175],[100,17258],[100,17341],[100,17425],[100,17508],[100,17591],[100,17675],[100,17758],[100,17842],[100,17925],[100,18008],[100,18092],[100,18175],[100,18259],[100,18342],[100,18425],[100,18509],[100,18592],[100,18675],[100,18759],[100,18842],[100,18926],[100,19009],[100,19092],[100,19176],[100,19259],[100,19342],[100,19426],[100,19509],[100,19592],[100,19676],[100,19759],[100,19843],[100,19926],[100,20009],[100,20093],[100,20176],[100,20259],[100,20343],[100,20426],[100,20510],[100,20593],[100,20676],[100,20760],[100,20843],[100,20927],[100,21010],[100,21093],[100,21177],[100,21260],[100,21344],[100,21427],[100,21510],[100,21594],[100,21677],[100,21760],[100,21844],[100,21927],[100,22010],[100,22094],[100,22177],[100,22260],[100,22344],[100,22427],[100,22511],[100,22594],[100,22677],[100,22761],[100,22844],[100,22927],[100,23011],[100,23094],[100,23178],[100,23261],[100,23345],[100,23428],[100,23511],[100,23594],[100,23678],[100,23761],[100,23845],[100,23928],[100,24011],[100,24095],[100,24178],[100,24261],[100,24345],[100,24428],[100,24512],[100,24595],[100,24678],[100,24762],[100,24845]]",1,0,929.0295,932.1477,99.50653604,1.8528,"[{""rating"":99.50653603646033,""responseTime"":1.8528000000045495}]",space,2.584,,932.1478,Not at all,0,932.1493,,,[],,0,7,7,7,1,audio/Narrative7Situation7.wav,audio/Narrative8Situation7.wav,audio/Narrative5Situation7.wav,audio/Narrative6Situation7.wav,5,3,4,5,,,,,,,,,,,,,,,,,,,,,,,,,,,,,,,,,,,,,,,
,,,,,,59598e604c20120001517c99,2024-02-08_13h12.12.610,group3.1-3.2-social-tom,2023.2.2,Win32,59.88023952,65c5074098b851296ff0b7ed,65c54158b61244608049b1e0,,,,,,,,,,,,,,,,,,,,,,,,,,,,,932.1496,2,audio/Narrative6Situation8.wav,937.1508,,937.1508,944.0043,"[[999,24],[999,82],[999,166],[999,249],[999,332],[999,416],[999,500],[999,583],[999,668],[999,753],[999,833],[999,916],[89.5,1001],[91,1084],[92,1166],[93.2,1250],[94.6,1333],[42.1,1500],[39.8,1583],[39.8,1667],[39,1751],[28.1,1833],[10.9,1916],[9.3,2000],[1.3,2083]]",1,0,944.0045,946.2385,0,1.2705,"[{""rating"":0,""responseTime"":1.27049999999997}]",space,1.6931,,946.2386,Not at all,0,946.2421,,,[],,0,8,8,8,1,audio/Narrative7Situation8.wav,audio/Narrative8Situation8.wav,audio/Narrative5Situation8.wav,audio/Narrative6Situation8.wav,2,3,3,5,,,,,,,,,,,,,,,,,,,,,,,,,,,,,,,,,,,,,,,
,,,,,,59598e604c20120001517c99,2024-02-08_13h12.12.610,group3.1-3.2-social-tom,2023.2.2,Win32,59.88023952,65c5074098b851296ff0b7ed,65c54158b61244608049b1e0,,,,,,,,,,,,,,,,,,,,,,,,,,,,,946.2426,2,audio/Narrative6Situation9.wav,950.2572,,950.2573,960.2122,"[[1.5,432],[1.2,516]]",1,0,960.2125,963.7975,0,1.7511,"[{""rating"":0,""responseTime"":1.7511000000014292}]",space,3.0426,,963.7976,Partially,50,963.8036,,,[],,0,9,9,9,1,audio/Narrative7Situation9.wav,audio/Narrative8Situation9.wav,audio/Narrative5Situation9.wav,audio/Narrative6Situation9.wav,2,3,3,4,,,,,,,,,,,,,,,,,,,,,,,,,,,,,,,,,,,,,,,
,,,,,,59598e604c20120001517c99,2024-02-08_13h12.12.610,group3.1-3.2-social-tom,2023.2.2,Win32,59.88023952,65c5074098b851296ff0b7ed,65c54158b61244608049b1e0,,,,,,,,,,,,,,,,,,,,,,,,,,,,,963.8042,2,audio/Narrative5Situation1.wav,968.816,,968.8161,982.0892,"[[0.8,1501],[1.4,1585],[3.4,1667],[3.4,1751],[3.4,1834],[3.4,1917],[3.4,2001],[3.4,2084],[3.4,2168],[3.4,2251],[3.4,2334],[3.4,2418],[3.4,2501],[3.4,2584],[3.4,2668],[3.4,2751],[2.1,2835],[1.5,2918],[1.1,3002],[1,3085],[1,3168],[1,3251],[1,3334],[1,3418],[1,3502],[1,3585],[1,3668],[1,3752],[1,3835],[1,3918],[1,4002],[1,4085],[1,4169],[1,4252],[1,4335],[1,4419]]",1,0,982.0892,985.2076,0.286668976,1.9892,"[{""rating"":0.28666897590131635,""responseTime"":1.9892000000029384}]",space,2.5972,,985.2077,Not at all,0,985.2103,,,[],,0,10,10,10,1,audio/Narrative8Situation1.wav,audio/Narrative7Situation1.wav,audio/Narrative6Situation1.wav,audio/Narrative5Situation1.wav,5,2,2,5,,,,,,,,,,,,,,,,,,,,,,,,,,,,,,,,,,,,,,,
,,,,,,59598e604c20120001517c99,2024-02-08_13h12.12.610,group3.1-3.2-social-tom,2023.2.2,Win32,59.88023952,65c5074098b851296ff0b7ed,65c54158b61244608049b1e0,,,,,,,,,,,,,,,,,,,,,,,,,,,,,985.2106,2,audio/Narrative5Situation2.wav,988.2256,,988.2256,1017.6744,"[[999,0],[999,83],[999,166],[999,250],[999,334],[999,416],[999,500],[999,583],[999,667],[999,751],[999,834],[999,917],[999,1000],[999,1085],[0.3,1167],[0.1,1250],[0.1,1334],[0.1,1417],[0.1,1501],[0.1,1584],[0.1,1667],[0.1,1751],[0.1,1834],[0.1,1918],[0.1,2001],[1.3,5335],[1.9,5420],[1.9,5503],[2,5586],[8.1,5669],[25,5753],[39.8,6086],[39.9,6169],[39.9,6253],[39.9,6336],[39.9,6419],[39.9,6503],[39.9,6586],[39.9,6670],[40,6754],[35.2,7670],[35.1,7754],[34.9,7837],[36.3,7920],[37,8004],[37,8087],[37,8170],[37,8254],[37.4,8337],[41.8,8420],[56.8,8754],[64.3,8837],[64.5,8920],[64.5,9004],[64.5,9088],[64.5,9171],[64.5,9254],[64.5,9337],[64.6,9421],[69.9,9504],[74.6,9588],[74.8,9671],[74.8,9754],[74.8,9838],[74.8,9921],[74.8,10005],[74.8,10088],[74.8,10171],[74.8,10255],[74.8,10338],[74.8,10421],[74.8,10505],[74.8,10588],[74.8,10672],[74.8,10755],[75.5,10838],[75.5,10922],[75.5,11005],[75.5,11089],[75.5,11172],[75.3,11256],[75.3,11339],[76.3,11423],[77.6,11507],[78.2,11589],[78.2,11672],[78.2,11756],[78.2,11839],[81,11922],[86.2,12006],[90.9,12089],[94.9,12172],[97.9,12256],[100,12339],[100,12423],[100,12506],[100,12589],[100,12673],[100,12756],[100,12840],[100,12923],[100,13007],[100,13090],[100,13173],[100,13257],[100,13340],[100,13423],[100,13507],[100,13590],[100,13673],[100,13757],[100,13840],[100,13923],[100,14007],[100,14090],[100,14174],[100,14257],[100,14340],[100,14424],[100,14507],[100,14591],[100,14674],[100,14758],[100,14841],[100,14924],[100,15007],[100,15091],[100,15174],[100,15257],[100,15341],[100,15424],[100,15508],[100,15591],[100,15674],[100,15758],[100,15841],[100,15925],[100,16008],[100,16091],[100,16175],[100,16258],[100,16341],[100,16425],[100,16508],[100,16591],[100,16675],[100,16758],[100,16842],[100,16925],[100,17008],[100,17092],[100,17175],[100,17258],[100,17342],[100,17425],[100,17509],[100,17592],[100,17676],[100,17759],[100,17842],[100,17926],[100,18009],[100,18092],[100,18176],[100,18259],[100,18342],[100,18426],[100,18509],[100,18593],[100,18676],[100,18759],[100,18843],[100,18926],[100,19009],[100,19093],[100,19176],[100,19260],[100,19343],[100,19426],[100,19510],[100,19593],[100,19677],[100,19760],[100,19843],[100,19926],[100,20010],[100,20093],[100,20177],[100,20260],[100,20343],[100,20427],[100,20510],[100,20593],[100,20677],[100,20760],[100,20844],[100,20927],[100,21010],[100,21094],[100,21177],[100,21260],[100,21344],[100,21427],[100,21511],[100,21594],[100,21677],[100,21761],[100,21844],[100,21927],[100,22011],[100,22094],[100,22178],[100,22261],[100,22345],[100,22428],[100,22511],[100,22595],[100,22678],[100,22761],[100,22845],[100,22928],[100,23012],[100,23095],[100,23178],[100,23262],[100,23345],[100,23428],[100,23512],[100,23595],[100,23678],[100,23762],[100,23845],[100,23929],[100,24012],[100,24095],[100,24179],[100,24262],[100,24345],[100,24429],[100,24512],[100,24596],[100,24679],[100,24762],[100,24846],[100,24929],[100,25012],[100,25096],[100,25180],[100,25263],[100,25346],[100,25429],[100,25513],[100,25596],[100,25679],[100,25763],[100,25846],[100,25929],[100,26013],[100,26096],[100,26180],[100,26263],[100,26346],[100,26430],[100,26513],[100,26597],[100,26680],[100,26763],[100,26847],[100,26930],[100,27013],[100,27097],[100,27180],[100,27264],[100,27347],[100,27430],[100,27514],[100,27597],[100,27680],[100,27764],[100,27848],[100,27930],[100,28014],[100,28097],[100,28181],[100,28264],[100,28347],[100,28431],[100,28514],[100,28598],[100,28681],[100,28764],[100,28848],[100,28931],[100,29014],[100,29098],[100,29181],[100,29265],[100,29348],[100,29431]]",1,0,1017.6749,1024.2436,95.65434054,6.5277,"[{""rating"":95.65434053831135,""responseTime"":6.527700000002824}]",space,1.4307,,1024.2437,Not at all,0,1024.2446,,,[],,0,11,11,11,1,audio/Narrative8Situation2.wav,audio/Narrative7Situation2.wav,audio/Narrative6Situation2.wav,audio/Narrative5Situation2.wav,3,3,3,3,,,,,,,,,,,,,,,,,,,,,,,,,,,,,,,,,,,,,,,
,,,,,,59598e604c20120001517c99,2024-02-08_13h12.12.610,group3.1-3.2-social-tom,2023.2.2,Win32,59.88023952,65c5074098b851296ff0b7ed,65c54158b61244608049b1e0,,,,,,,,,,,,,,,,,,,,,,,,,,,,,1024.2448,2,audio/Narrative5Situation3.wav,1027.2456,,1027.2457,1041.1687,"[[95.8,1417],[95.8,1500],[95.8,1583],[95.8,1667],[96.5,1751],[96.5,1834],[96.5,1916],[96.5,2000],[96.5,2084],[97.1,2166],[97.1,2917],[97.7,3001],[97.8,3084],[97.8,3168],[97.8,3251],[97.8,3334],[95.4,3419],[77.7,3501],[77.4,3584],[77.4,3668],[77.6,3751],[85.1,3836],[96.1,3918],[100,4002],[100,4085],[100,4168],[100,4252],[100,4335],[100,4418],[100,4502],[100,4585],[100,4668],[100,4752],[100,4835],[100,4919],[100,5002],[100,5085],[100,5169],[100,5252],[100,5335],[100,5419],[100,5502],[100,5585],[100,5669],[100,5752],[100,5836],[100,5919],[100,6002],[100,6086],[100,6169],[100,6252],[100,6336],[100,6419],[100,6503],[100,6586],[100,6669],[100,6753],[100,6836],[100,6919],[100,7002],[100,7086],[100,7169],[100,7252],[100,7336],[100,7419],[100,7503],[100,7586],[100,7669],[100,7753],[100,7836],[100,7919],[100,8003],[100,8086],[100,8169],[100,8253],[100,8336],[100,8420],[100,8503],[100,8586],[100,8670],[100,8753],[100,8836],[100,8920],[100,9003],[100,9087],[100,9170],[100,9253],[100,9337],[100,9420],[100,9503],[100,9587],[100,9670],[100,9754],[100,9837],[100,9920],[100,10004],[100,10087],[100,10171],[100,10254],[100,10337],[100,10421],[100,10504],[100,10587],[100,10671],[100,10754],[100,10838],[100,10921],[100,11004],[100,11088],[100,11171],[100,11255],[100,11338],[100,11421],[100,11505],[100,11588],[100,11671],[100,11755],[100,11838],[100,11922],[100,12005],[100,12088],[100,12172],[100,12255],[100,12338],[100,12422],[100,12505],[100,12588],[100,12672],[100,12755],[100,12838],[100,12922],[100,13005],[100,13089],[100,13172],[100,13256],[100,13339],[100,13422],[100,13506],[100,13589],[100,13673],[100,13756],[100,13839],[100,13923]]",1,0,1041.1688,1044.3369,100,2.4623,"[{""rating"":100,""responseTime"":2.462299999996958}]",space,2.6366,,1044.3369,Definitely yes,100,1044.3382,,,[],,0,12,12,12,1,audio/Narrative8Situation3.wav,audio/Narrative7Situation3.wav,audio/Narrative6Situation3.wav,audio/Narrative5Situation3.wav,4,8,5,3,,,,,,,,,,,,,,,,,,,,,,,,,,,,,,,,,,,,,,,
,,,,,,59598e604c20120001517c99,2024-02-08_13h12.12.610,group3.1-3.2-social-tom,2023.2.2,Win32,59.88023952,65c5074098b851296ff0b7ed,65c54158b61244608049b1e0,,,,,,,,,,,,,,,,,,,,,,,,,,,,,1044.3383,2,audio/Narrative5Situation4.wav,1045.3542,,1045.3542,1065.7318,"[[100,5419],[30.6,6003],[26.5,6086],[25.7,6169],[20.6,6253],[8.3,6336],[1.8,10673],[1.8,10755],[1.8,10839],[1.8,10922],[13.2,11005],[39.5,11088],[43.9,11172],[43.9,11255],[43.9,11339],[51.2,11422],[55.1,11505],[55.1,11589],[55.1,11672],[55.1,11755],[55.1,11839],[55.1,11922],[55.1,12006],[57.4,12089],[65.5,12172],[65.9,12256],[65.9,12339],[65.9,12423],[66,12507],[66.5,12589],[66.5,12673],[66.5,12756],[65.9,12839],[55.8,12923],[69.3,15090]]",1,0,1065.7321,1071.0678,100,4.6826,"[{""rating"":99.14213275961255,""responseTime"":4.193700000002991},{""rating"":100,""responseTime"":4.682600000001457}]",space,4.7869,,1071.0679,Not at all,0,1075.7033,100,3.2144,"[{""rating"":100,""responseTime"":3.214399999998477}]",space,0,13,13,13,1,audio/Narrative8Situation4.wav,audio/Narrative7Situation4.wav,audio/Narrative6Situation4.wav,audio/Narrative5Situation4.wav,3,3,2,1,,,4.0858,,,,,,,,,,,,,,,,,,,,,,,,,,,,,,,,,,,,
,,,,,,59598e604c20120001517c99,2024-02-08_13h12.12.610,group3.1-3.2-social-tom,2023.2.2,Win32,59.88023952,65c5074098b851296ff0b7ed,65c54158b61244608049b1e0,,,,,,,,,,,,,,,,,,,,,,,,,,,,,1075.7042,2,audio/Narrative5Situation5.wav,1080.7058,,1080.7059,1096.1295,"[[100,5186],[100,5285],[99.5,5369],[98.3,5451],[94.6,5535],[86.6,5618],[84.2,5702],[83,5786],[74.1,5870],[59.7,5952],[35.4,6202],[25.7,6285],[25.1,6369],[25.2,6452],[25.4,6535],[25.4,6619],[25.4,6702],[25.1,6786],[19.5,6869],[14.3,6952],[12.1,7036],[7.8,7119],[3,7202],[2.5,7286],[2.5,7369],[2.5,7452],[2.5,7536],[2.5,7620],[0.3,7703],[0,12705],[0,12788],[0,12872],[0,12955],[0,13038],[0,13122],[0,13205],[0,13289],[0,13372],[0,13455],[0,13539],[0,13622],[0,13706],[0,13789],[0,13872],[0,13956],[0,14039],[0,14122],[0,14206],[0,14289],[0,14373],[0,14456],[0,14539],[0,14623],[0,14706],[0,14789],[0,14873],[0,14956],[0,15040],[0,15123],[0,15206],[0,15290],[0,15373]]",1,0,1096.1296,1097.5971,0.078442192,0.6962,"[{""rating"":0.07844219221759263,""responseTime"":0.6961999999955424}]",space,0.932,,1097.5971,Definitely yes,100,1097.5985,,,[],,0,14,14,14,1,audio/Narrative8Situation5.wav,audio/Narrative7Situation5.wav,audio/Narrative6Situation5.wav,audio/Narrative5Situation5.wav,2,5,2,5,,,,,,,,,,,,,,,,,,,,,,,,,,,,,,,,,,,,,,,
,,,,,,59598e604c20120001517c99,2024-02-08_13h12.12.610,group3.1-3.2-social-tom,2023.2.2,Win32,59.88023952,65c5074098b851296ff0b7ed,65c54158b61244608049b1e0,,,,,,,,,,,,,,,,,,,,,,,,,,,,,1097.5986,2,audio/Narrative5Situation6.wav,1100.6154,,1100.6156,1106.3021,"[[0.1,2084],[0.1,2167],[6.1,2250],[9,2335],[11.2,2417],[27.3,2500],[50.6,2584],[94,2667],[100,2750],[100,2834],[100,2917],[100,3001],[100,3084],[100,3168],[100,3251],[100,3335],[100,3418],[100,3502],[100,3584],[100,3667],[100,3752],[100,3835],[100,3918],[100,4001],[100,4085],[100,4168],[100,4252],[100,4335],[100,4418],[100,4502],[100,4586],[100,4669],[100,4752],[99.9,4836],[99.8,4919],[99.8,5002],[99.8,5085],[99.8,5169],[99.8,5252],[99.8,5336],[99.8,5419],[99.8,5502],[99.8,5586],[99.8,5669]]",1,0,1106.3024,1107.9695,99.81887621,1.3362,"[{""rating"":99.81887621198591,""responseTime"":1.3362000000029184}]",space,1.1206,,1107.9696,Definitely yes,100,1107.973,,,[],,0,15,15,15,1,audio/Narrative8Situation6.wav,audio/Narrative7Situation6.wav,audio/Narrative6Situation6.wav,audio/Narrative5Situation6.wav,2,3,2,3,,,,,,,,,,,,,,,,,,,,,,,,,,,,,,,,,,,,,,,
,,,,,,59598e604c20120001517c99,2024-02-08_13h12.12.610,group3.1-3.2-social-tom,2023.2.2,Win32,59.88023952,65c5074098b851296ff0b7ed,65c54158b61244608049b1e0,,,,,,,,,,,,,,,,,,,,,,,,,,,,,1107.9736,2,audio/Narrative5Situation7.wav,1111.9881,,1111.9882,1133.0322,"[[34.3,3017],[34.9,3101],[34.9,3184],[34.9,3268],[34.9,3351],[34.9,3434],[34.9,3518],[34.9,3601],[35,3685],[36.3,3768],[36.6,3851],[36.6,3934],[36.6,4018],[39.6,4101],[44.2,4184],[44.3,4268],[44.3,4351],[44.3,4435],[44.3,4518],[44.3,4601],[44.3,4685],[44.3,4768],[42.7,4851],[18.7,4936],[13.5,5018],[13.5,5102],[13.5,5185],[13.5,5268],[13.5,5352],[13.5,5435],[13.5,5519],[13.5,5602],[20.6,5685],[32.9,5768],[47.5,5852],[57.8,5935],[58,6019],[58,6102],[58,6185],[58,6269],[58,6352],[58,6436],[58,6519],[58,6603],[58,6686],[58,6769],[57.6,6854],[53.6,6936],[49.4,7019],[45.2,7102],[41.3,7186],[39.2,7269],[38.2,7352],[33.2,7436],[25.4,7519],[24.6,7603],[24.6,7686],[24.6,7769],[24.6,7853],[24.6,7936],[24.6,8020],[24.6,8103],[24.6,8187],[24.6,8270],[24.6,8353],[24.6,8437],[24.6,8520],[24.6,8604],[24.7,8687],[25.3,8771],[26.1,8854],[26.2,8937],[26.4,9021],[30.4,9104],[43.3,9188],[57.4,9270],[66.9,9354],[67.5,9437],[67.7,9520],[75.1,9604],[80.7,9688],[80.7,9771],[80.7,9854],[80.7,9937],[80.7,10021],[80.7,10104],[79.9,10189],[77.6,10271],[77.1,10354],[77.1,10438],[77.1,10521],[77.1,10605],[77.1,10688],[77.1,10771],[77.1,10855],[77.1,10938],[77.1,11021],[77.1,11105],[77.1,11188],[77.1,11272],[77.5,11355],[79.3,11439],[80.4,11522],[80.4,11605],[80.4,11688],[80.5,11772],[80.5,11855],[80.5,11939],[80.5,12022],[80.5,12105],[80.5,12189],[80.5,12272],[80.5,12355],[80.5,12439],[80.5,12522],[80.5,12605],[79.9,12690],[79.5,12773],[79.3,12856],[79.1,12939],[79.1,13022],[79.1,13106],[79.1,13189],[79.1,13272],[79.1,13356],[79.1,13439],[79.1,13523],[79.1,13606],[79.1,13690],[79.1,13773],[79.1,13856],[79.1,13940],[79.1,14023],[79.1,14106],[79.1,14190],[79.1,14273],[79.1,14356],[79.1,14440],[78.4,14524],[77,14607],[75.7,14690],[74,14773],[72.2,14858],[71.8,14940],[71,15024],[69.7,15107],[69.3,15190],[69.2,15273],[68,15357],[65.8,15440],[65.2,15523],[65.2,15607],[65.2,15690],[65.2,15774],[65.2,15857],[65.2,15940],[65.2,16024],[65.2,16107],[65.2,16191],[65.2,16274],[65.2,16357],[65.2,16441],[64.7,16524],[62.8,16608],[62.3,16691],[61.8,16775],[61.4,16858],[61.4,16941],[61.4,17024],[61.4,17108],[61.4,17191],[61.4,17274],[61.4,17358],[61.4,17441],[61.4,17525],[61.4,17608],[61.3,17692],[59.6,17774],[58.7,17859],[58.3,17942],[58.2,18025],[58.2,18108],[58.2,18192],[58.2,18275],[58.2,18358],[58.2,18442],[58.2,18525],[58.2,18609],[58.2,18692],[58.2,18775],[58.2,18859],[58.2,18942],[58.2,19025],[58.2,19109],[58.2,19192],[58.2,19275],[58.2,19359],[58.2,19442],[58.2,19526],[58.2,19609],[58,19693],[56.5,19775],[54.2,19859],[51.8,19942],[51,20027],[51,20109],[51,20193],[51,20276],[49.5,20359],[48.4,20443],[48.3,20526],[48.3,20610],[48.3,20693],[48.3,20776],[48.3,20860],[48.3,20943],[48.3,21027]]",1,0,1133.0326,1134.3827,49.06369377,1.2075,"[{""rating"":49.06369377009559,""responseTime"":1.2075000000002092}]",space,0.8069,,1134.3829,Not at all,0,1134.3887,,,[],,0,16,16,16,1,audio/Narrative8Situation7.wav,audio/Narrative7Situation7.wav,audio/Narrative6Situation7.wav,audio/Narrative5Situation7.wav,3,5,5,4,,,,,,,,,,,,,,,,,,,,,,,,,,,,,,,,,,,,,,,
,,,,,,59598e604c20120001517c99,2024-02-08_13h12.12.610,group3.1-3.2-social-tom,2023.2.2,Win32,59.88023952,65c5074098b851296ff0b7ed,65c54158b61244608049b1e0,,,,,,,,,,,,,,,,,,,,,,,,,,,,,1134.3893,2,audio/Narrative5Situation8.wav,1137.4008,,1137.4009,1146.2381,"[[49.1,2684],[49.1,2767],[49.1,2850],[49.1,2934],[49.1,3017],[49.1,3101],[49.1,3184],[49.1,3267],[49.1,3351],[49.1,3434],[49.1,3518],[49.1,3601],[49.1,3684],[49.1,3768],[49.1,3851],[49.1,3934],[49.4,4017],[50.2,4101],[50.2,4184],[50.2,4268],[50.2,4351],[50.2,4435],[50.2,4518],[50.2,4601],[51.1,4684],[52.1,4769],[52.4,4852],[52.4,4935],[52.4,5019],[52.4,5102],[52.4,5185],[52.4,5269],[52.4,5352],[52.4,5435],[52.4,5519],[52.4,5601],[52.4,5685],[52.4,5768],[52.7,5852],[53.7,5936],[54.6,6019],[55.1,6103],[55.3,6186],[55.3,6269],[55.3,6352],[55.3,6436],[55.3,6519],[55.3,6602],[55.3,6686],[55.3,6769],[55.3,6853],[55.3,6936],[55.3,7020],[55.3,7103],[55.3,7186],[55.3,7270],[55.3,7353],[55.3,7436],[55.3,7520],[55.3,7603],[55.3,7686],[55.3,7770],[55.3,7853],[55.3,7936],[55.3,8019],[55.3,8103],[55.3,8186],[55.3,8269],[55.3,8353],[55.3,8436],[55.3,8520],[55.3,8603],[55.3,8686],[55.3,8770]]",1,0,1146.2383,1147.6053,52.13502602,1.3321,"[{""rating"":52.13502601862812,""responseTime"":1.3321000000014465}]",space,0.8227,,1147.6053,Not at all,0,1147.6062,,,[],,0,17,17,17,1,audio/Narrative8Situation8.wav,audio/Narrative7Situation8.wav,audio/Narrative6Situation8.wav,audio/Narrative5Situation8.wav,3,2,5,3,,,,,,,,,,,,,,,,,,,,,,,,,,,,,,,,,,,,,,,
,,,,,,59598e604c20120001517c99,2024-02-08_13h12.12.610,group3.1-3.2-social-tom,2023.2.2,Win32,59.88023952,65c5074098b851296ff0b7ed,65c54158b61244608049b1e0,,,,,,,,,,,,,,,,,,,,,,,,,,,,,1147.6063,2,audio/Narrative5Situation9.wav,1150.6069,,1150.6069,1190.144,"[[52.2,1084],[52.2,1167],[52.2,1250],[52.2,1334],[52.2,1417],[52.2,1501],[52.2,1583],[52.2,1667],[52.2,1751],[52.2,1834],[52.2,1918],[50.8,2000],[48,2085],[47.3,2168],[47.3,2250],[47.3,2334],[47.3,2418],[47.3,2501],[47.3,2584],[47.3,2668],[47.3,2751],[47.3,2834],[47.3,2918],[47.3,3001],[47.3,3085],[48.1,3169],[49.4,3251],[49.4,3335],[49.4,3418],[49.8,3502],[50.3,3585],[50.4,3669],[50.7,3751],[51.9,3836],[52.9,3919],[53.5,4002],[53.7,4085],[53.8,4169],[54.7,4251],[56.6,4335],[58.1,4420],[59.2,4502],[60.8,4586],[62.2,4670],[62.7,4752],[62.7,4836],[62.7,4919],[62.7,5002],[62.7,5086],[63,5170],[65.4,5252],[66.8,5336],[67.2,5419],[67.2,5502],[67.2,5585],[71.4,5669],[72.3,5753],[73.9,5836],[75.4,5921],[76.3,6004],[76.8,6086],[76.8,6170],[76.8,6253],[76.9,6337],[76.9,6420],[76.9,6503],[77.1,6587],[77.6,6670],[77.8,6754],[78.5,6836],[79.7,6920],[80.7,7003],[81.5,7087],[82.2,7171],[82.8,7254],[83.1,7336],[83.5,7421],[83.9,7504],[84.2,7588],[84.4,7671],[84.5,7755],[85.9,7837],[86.8,7920],[88.4,8005],[91.1,8087],[94.2,8170],[95.8,8254],[96,8337],[96.1,8421],[96.9,8505],[97.3,8588],[97.4,8671],[97.4,8754],[97.4,8838],[97.4,8921],[97.4,9004],[98.5,9087],[99.7,9171],[100,9254],[100,9338],[100,9421],[100,9505],[100,9588],[100,9671],[100,9755],[100,9838],[100,9921],[100,10005],[100,10088],[100,10172],[100,10255],[100,10338],[100,10422],[100,10505],[100,10588],[100,10672],[100,10755],[100,10838],[100,10922],[100,11005],[100,11088],[100,11172],[100,11255],[100,11339],[100,11422],[100,11506],[100,11589],[100,11672],[100,11756],[100,11839],[98.5,11922],[96,12005],[94.3,12089],[91.7,12172],[88.9,12256],[88.1,12339],[88.1,12422],[88.1,12506],[88.1,12589],[88.1,12673],[88.1,12756],[88.1,12839],[88.1,12923],[88.1,13006],[88.1,13090],[88.1,13173],[88.1,13256],[88.1,13340],[88.1,13423],[88.1,13507],[88.1,13590],[88.1,13673],[88.1,13757],[90.4,13840],[91.1,13923],[91.1,14007],[91.2,14090],[91.2,14174],[95.3,14257],[100,14340],[100,14424],[100,14507],[100,14590],[100,14673],[100,14757],[100,14841],[100,14924],[100,15008],[100,15091],[100,15174],[100,15257],[100,15341],[100,15424],[100,15508],[100,15591],[100,15674],[100,15758],[100,15841],[100,15924],[100,16008],[100,16091],[100,16174],[100,16258],[100,16341],[100,16425],[100,16508],[100,16591],[100,16675],[100,16758],[100,16842],[100,16925],[100,17008],[100,17092],[100,17175],[100,17259],[100,17342],[100,17425],[100,17509],[100,17592],[100,17675],[100,17759],[100,17842],[100,17925],[100,18009],[100,18092],[100,18175],[100,18259],[100,18342],[100,18426],[100,18509],[100,18592],[100,18676],[100,18759],[100,18843],[100,18926],[100,19009],[100,19093],[100,19176],[100,19259],[100,19343],[100,19426],[100,19510],[100,19593],[100,19676],[100,19760],[100,19843],[100,19926],[100,20010],[100,20093],[100,20177],[100,20260],[100,20343],[100,20427],[100,20510],[100,20593],[100,20677],[100,20760],[100,20844],[100,20927],[100,21010],[100,21094],[100,21177],[100,21260],[100,21344],[100,21427],[100,21510],[100,21594],[100,21694],[100,21777],[100,21861],[100,21944],[100,22028],[100,22111],[100,22194],[100,22278],[100,22361],[100,22444],[100,22528],[100,22611],[100,22694],[100,22778],[100,22861],[100,22945],[100,23028],[100,23111],[100,23195],[100,23278],[100,23361],[100,23445],[100,23528],[100,23612],[100,23695],[100,23778],[100,23862],[100,23945],[100,24028],[100,24112],[100,24195],[100,24279],[100,24362],[100,24445],[100,24529],[100,24612],[100,24696],[100,24779],[100,24862],[100,24946],[100,25029],[100,25113],[100,25196],[100,25279],[100,25362],[100,25446],[100,25529],[100,25612],[100,25696],[100,25779],[100,25863],[100,25946],[100,26029],[100,26113],[100,26196],[100,26280],[100,26363],[100,26446],[100,26530],[100,26613],[100,26697],[100,26780],[100,26863],[100,26947],[100,27030],[100,27113],[100,27197],[100,27280],[100,27364],[100,27447],[100,27530],[100,27614],[100,27697],[100,27780],[100,27864],[100,27947],[100,28030],[100,28114],[100,28197],[100,28281],[100,28364],[100,28447],[100,28531],[100,28614],[100,28697],[100,28781],[100,28864],[100,28948],[100,29031],[100,29114],[100,29198],[100,29281],[100,29365],[100,29448],[100,29531],[100,29615],[100,29698],[100,29781],[100,29865],[100,29948],[100,30032],[100,30115],[100,30198],[100,30281],[100,30365],[100,30448],[100,30532],[100,30616],[100,30698],[100,30782],[100,30865],[100,30949],[100,31032],[100,31115],[100,31199],[100,31282],[100,31365],[100,31449],[100,31533],[100,31615],[100,31699],[100,31782],[100,31866],[100,31949],[100,32032],[100,32116],[100,32200],[100,32283],[100,32366],[100,32449],[100,32533],[100,32616],[100,32700],[100,32783],[100,32866],[100,32950],[100,33033],[100,33116],[100,33200],[100,33283],[100,33366],[100,33450],[100,33533],[100,33616],[100,33700],[100,33783],[100,33867],[100,33950],[100,34034],[100,34117],[100,34200],[100,34284],[100,34367],[100,34450],[100,34534],[100,34617],[100,34701],[100,34784],[100,34867],[100,34951],[100,35034],[100,35117],[100,35201],[100,35284],[100,35367],[100,35451],[100,35534],[100,35618],[100,35701],[100,35784],[100,35868],[100,35951],[100,36035],[100,36118],[100,36201],[100,36285],[100,36368],[100,36451],[100,36535],[100,36618],[100,36702],[100,36785],[100,36868],[100,36952],[100,37035],[100,37118],[100,37202],[100,37285],[100,37368],[100,37451],[100,37535],[100,37618],[100,37702],[100,37785],[100,37869],[100,37952],[100,38036],[100,38119],[100,38202],[100,38286],[100,38369],[100,38452],[100,38536],[100,38619],[100,38702],[98.3,38786],[97.8,38870],[97.7,38953],[97.7,39036],[97.2,39119],[91.5,39202],[84.7,39286],[82.9,39369],[82.8,39453],[82.8,39536]]",1,0,1190.1446,1191.6945,80.92232762,1.2674,"[{""rating"":80.92232761969373,""responseTime"":1.267400000005864}]",space,1.0022,,1191.6947,Definitely yes,100,1191.7003,,,[],,0,18,18,18,1,audio/Narrative8Situation9.wav,audio/Narrative7Situation9.wav,audio/Narrative6Situation9.wav,audio/Narrative5Situation9.wav,3,2,4,3,,,,,,,,,,,,,,,,,,,,,,,,,,,,,,,,,,,,,,,
,,,,,,59598e604c20120001517c99,2024-02-08_13h12.12.610,group3.1-3.2-social-tom,2023.2.2,Win32,59.88023952,65c5074098b851296ff0b7ed,65c54158b61244608049b1e0,,,,,,,,,,,,,,,,,,,,,,,,,,,,,,,,,,,,,,,,,,,,,,,,,,,,,,,,,,,,,,,,,,,,,,,,1191.7008,1194.8797,space,2.6515,,1194.8803,1204.7186,space,9.5065,,,,,,,,,,,,,,,,,,,,,,,,,,
