exp_question,consent.started,consent.stopped,consentResponse.keys,consentResponse.rt,consentResponse.duration,participantID,date,expName,psychopyVersion,OS,frameRate,STUDY_ID,SESSION_ID,opening1.started,opening1.stopped,keyEndingOpening1.keys,keyEndingOpening1.rt,keyEndingOpening1.duration,volumeAdjust.started,volumeAdjust.stopped,endingAdjust.keys,endingAdjust.rt,endingAdjust.duration,opening2.started,opening2.stopped,keyEndingOpening.keys,keyEndingOpening.rt,keyEndingOpening.duration,mouse.x,mouse.y,mouse.leftButton,mouse.midButton,mouse.rightButton,mouse.time,instructionLoop.thisRepN,instructionLoop.thisTrialN,instructionLoop.thisN,instructionLoop.thisIndex,instructionLoop.ran,readyForAudio.started,readyForAudio.stopped,fixation.started,run,audio_played,fixation.stopped,endPractice.keys,audioPre.started,audioPre.stopped,continuousResponses_audio,continuousSlider.response,continuousSlider.rt,intRating.started,intRating.stopped,intQuestionSlider.response,intQuestionSlider.rt,intQuestionSlider.history,confirmResponse.keys,confirmResponse.rt,confirmResponse.duration,catchQuestion.started,catch_label,catch_value,catchQuestion.stopped,catchQuestionSlider.response,catchQuestionSlider.rt,catchQuestionSlider.history,confirmResponse_2.keys,audioRunLoop.thisRepN,audioRunLoop.thisTrialN,audioRunLoop.thisN,audioRunLoop.thisIndex,audioRunLoop.ran,conditions1_1,conditions2_1,conditions1_2,conditions2_2,dur1_1,dur2_1,dur1_2,dur2_2,endPractice.rt,endPractice.duration,confirmResponse_2.rt,confirmResponse_2.duration,runIntervalBreak.started,runIntervalBreak.stopped,endingBreakKey.keys,endingBreakKey.rt,endingBreakKey.duration,connection.started,connection.stopped,connectionEnding.keys,connectionEnding.rt,connectionEnding.duration,readyForText.started,readyForText.stopped,textPre.started,run_dup,textPre.stopped,continuousResponses_text,textRunLoop.thisRepN,textRunLoop.thisTrialN,textRunLoop.thisN,textRunLoop.thisIndex,textRunLoop.ran,text1_1,text1_2,text2_1,text2_2,runBreakText.started,runBreakText.stopped,endingBreakKey_2.keys,ending.started,ending.stopped,endingEnding.keys,endingEnding.rt,endingEnding.duration
tom,0.0002,3.8668,y,3.5489,,5a6f57166923df0001ef8d02,2024-05-13_10h44.26.994,group3.1-3.2-social-tom,2023.2.2,Win32,40.16064257,65c5074098b851296ff0b7ed,664231f79e310b5127489d4b,,,,,,,,,,,,,,,,,,,,,,,,,,,,,,,,,,,,,,,,,,,,,,,,,,,,,,,,,,,,,,,,,,,,,,,,,,,,,,,,,,,,,,,,,,,,,,,,,,,,,,,,
,,,,,,5a6f57166923df0001ef8d02,2024-05-13_10h44.26.994,group3.1-3.2-social-tom,2023.2.2,Win32,40.16064257,65c5074098b851296ff0b7ed,664231f79e310b5127489d4b,3.8676,6.9447,space,3.035,,,,,,,,,,,,,,,,,,,,,,,,,,,,,,,,,,,,,,,,,,,,,,,,,,,,,,,,,,,,,,,,,,,,,,,,,,,,,,,,,,,,,,,,,,,,,,,,,,,,
,,,,,,5a6f57166923df0001ef8d02,2024-05-13_10h44.26.994,group3.1-3.2-social-tom,2023.2.2,Win32,40.16064257,65c5074098b851296ff0b7ed,664231f79e310b5127489d4b,,,,,,6.9448,13.5337,space,6.2447,,,,,,,,,,,,,,,,,,,,,,,,,,,,,,,,,,,,,,,,,,,,,,,,,,,,,,,,,,,,,,,,,,,,,,,,,,,,,,,,,,,,,,,,,,,,,,,
,,,,,,5a6f57166923df0001ef8d02,2024-05-13_10h44.26.994,group3.1-3.2-social-tom,2023.2.2,Win32,40.16064257,65c5074098b851296ff0b7ed,664231f79e310b5127489d4b,,,,,,,,,,,13.5419,19.1312,space,5.5664,,[],[],[],[],[],[],0,0,0,0,1,,,,,,,,,,,,,,,,,,,,,,,,,,,,,,,,,,,,,,,,,,,,,,,,,,,,,,,,,,,,,,,,,,,,,,,,,,,,,,
,,,,,,5a6f57166923df0001ef8d02,2024-05-13_10h44.26.994,group3.1-3.2-social-tom,2023.2.2,Win32,40.16064257,65c5074098b851296ff0b7ed,664231f79e310b5127489d4b,,,,,,,,,,,19.1375,33.588,space,14.3785,,[],[],[],[],[],[],1,0,1,0,1,,,,,,,,,,,,,,,,,,,,,,,,,,,,,,,,,,,,,,,,,,,,,,,,,,,,,,,,,,,,,,,,,,,,,,,,,,,,,,
,,,,,,5a6f57166923df0001ef8d02,2024-05-13_10h44.26.994,group3.1-3.2-social-tom,2023.2.2,Win32,40.16064257,65c5074098b851296ff0b7ed,664231f79e310b5127489d4b,,,,,,,,,,,33.5947,42.0052,space,8.368,,[],[],[],[],[],[],2,0,2,0,1,,,,,,,,,,,,,,,,,,,,,,,,,,,,,,,,,,,,,,,,,,,,,,,,,,,,,,,,,,,,,,,,,,,,,,,,,,,,,,
,,,,,,5a6f57166923df0001ef8d02,2024-05-13_10h44.26.994,group3.1-3.2-social-tom,2023.2.2,Win32,40.16064257,65c5074098b851296ff0b7ed,664231f79e310b5127489d4b,,,,,,,,,,,42.0113,53.0698,space,11.0355,,[],[],[],[],[],[],3,0,3,0,1,,,,,,,,,,,,,,,,,,,,,,,,,,,,,,,,,,,,,,,,,,,,,,,,,,,,,,,,,,,,,,,,,,,,,,,,,,,,,,
,,,,,,5a6f57166923df0001ef8d02,2024-05-13_10h44.26.994,group3.1-3.2-social-tom,2023.2.2,Win32,40.16064257,65c5074098b851296ff0b7ed,664231f79e310b5127489d4b,,,,,,,,,,,53.0768,59.0392,space,5.9503,,[],[],[],[],[],[],4,0,4,0,1,,,,,,,,,,,,,,,,,,,,,,,,,,,,,,,,,,,,,,,,,,,,,,,,,,,,,,,,,,,,,,,,,,,,,,,,,,,,,,
,,,,,,5a6f57166923df0001ef8d02,2024-05-13_10h44.26.994,group3.1-3.2-social-tom,2023.2.2,Win32,40.16064257,65c5074098b851296ff0b7ed,664231f79e310b5127489d4b,,,,,,,,,,,,,,,,,,,,,,,,,,,59.0464,61.612,61.6328,1,audio/Narrative13Situation2.wav,63.6353,,63.6358,93.4074,"[[25.6,2696],[23.2,2771],[21.6,2846],[17.8,2921],[10.4,2996],[8.6,3070],[7.2,3146],[7.2,3220],[7.2,3295],[7.2,3370],[7.2,3445],[7.2,3520],[6.3,3595],[4.9,3670],[4.2,3745],[3.6,3820],[3.3,3895],[3,3970],[2.8,4045],[2.7,4119],[2.7,4194],[2.7,4269],[2.7,4344],[2.7,4419],[2.7,4494],[2.7,4569],[2.7,4644],[2.7,4719],[2.7,4794],[2.7,4869],[2.7,4944],[2.7,5019],[2.7,5094],[2.7,5169],[2.7,5243],[4.6,5319],[6.9,5394],[8.5,5469],[9.4,5543],[9.4,5618],[9.4,5693],[9.4,5768],[9.4,5843],[9.5,5918],[9.5,5993],[9.5,6068],[9.5,6143],[9.5,6218],[9.5,6293],[9.5,6368],[9.5,6443],[9.5,6517],[9.5,6592],[9.5,6667],[9.5,6742],[9.5,6817],[9.5,6892],[9.5,6967],[9.5,7042],[9.5,7117],[9.5,7192],[9.5,7266],[9.5,7341],[9.5,7417],[9.5,7491],[9.5,7566],[12.2,7641],[35.7,7716],[47.6,8241],[49.3,8316],[49.9,8391],[49.9,8466],[49.9,8540],[49.9,8616],[49.9,8691],[49.9,8765],[48.8,8841],[48,8915],[47.6,8990],[47.3,9065],[47,9140],[46.7,9215],[46.5,9290],[46.3,9365],[46.3,9440],[46.3,9515],[46.3,9589],[46.3,9665],[46.3,9739],[46.3,9814],[46.3,9889],[46.3,9964],[46.3,10040],[46.3,10114],[46.3,10189],[46.3,10264],[46.3,10339],[46.3,10414],[46.3,10489],[46.3,10564],[46.3,10639],[46.3,10713],[46.3,10788],[46.3,10863],[46.3,10938],[46.3,11013],[46.3,11088],[46.3,11163],[46.3,11238],[46.3,11313],[46.3,11388],[46.3,11463],[46.3,11538],[46.3,11612],[46.3,11688],[46.3,11762],[46.3,11837],[46.3,11912],[46.3,11987],[46.3,12062],[46.3,12137],[46.3,12212],[46.3,12287],[46.3,12362],[46.3,12437],[46.3,12512],[46.3,12587],[46.3,12662],[46.3,12736],[46.3,12812],[46.3,12886],[46.3,12961],[46.3,13036],[46.3,13111],[46.3,13186],[46.3,13261],[46.3,13336],[46.3,13411],[46.3,13486],[46.3,13561],[46.3,13636],[46.6,13711],[47.7,13786],[48.6,13860],[49.9,13936],[52.3,14011],[52.8,14085],[52.8,14160],[52.8,14235],[52.8,14310],[52.8,14385],[52.8,14460],[52.8,14535],[52.8,14610],[52.8,14685],[52.8,14760],[52.8,14835],[52.8,14910],[52.8,14985],[52.8,15059],[52.8,15134],[52.8,15209],[52.8,15284],[52.8,15359],[52.8,15434],[52.8,15509],[52.8,15584],[52.8,15659],[52.8,15734],[52.8,15809],[52.8,15884],[52.8,15959],[52.8,16033],[52.8,16108],[52.8,16183],[52.8,16258],[52.8,16333],[52.8,16408],[52.8,16483],[52.8,16558],[52.8,16633],[52.8,16708],[52.8,16783],[52.8,16858],[52.8,16932],[52.8,17007],[52.8,17083],[52.8,17157],[52.8,17232],[52.8,17307],[52.8,17382],[52.8,17457],[52.8,17532],[52.8,17607],[52.8,17682],[52.7,17757],[52.7,17832],[52.7,17907],[52.7,17982],[52.7,18056],[52.7,18131],[52.7,18206],[52.7,18281],[52.7,18356],[52.7,18431],[52.7,18506],[52.7,18581],[52.7,18656],[52.6,18731],[52.6,18806],[52.6,18881],[52.6,18956],[52.6,19031],[52.3,19106],[52.3,19180],[52.3,19256],[52.3,19330],[52.3,19405],[52.3,19481],[52.3,19555],[52.3,19630],[52.3,19705],[52.3,19780],[52.3,19855],[52.3,19930],[52.3,20005],[52.3,20080],[52.3,20155],[52.3,20229],[52.3,20304],[52.3,20379],[52.3,20454],[52.3,20530],[52.3,20604],[52.3,20679],[52.3,20754],[52.3,20829],[52.3,20904],[52.3,20979],[52.3,21054],[52.3,21129],[52.3,21204],[52.3,21278],[52.3,21353],[52.3,21428],[52.3,21503],[52.3,21578],[52.3,21653],[52.3,21728],[52.3,21803],[52.3,21878],[52.3,21953],[52.3,22028],[52.3,22103],[52.3,22178],[52.3,22253],[52.3,22328],[52.3,22403],[52.3,22477],[52.3,22552],[52.3,22627],[52.3,22703],[52.3,22777],[52.3,22852],[50.9,22927],[48.9,23002],[47.4,23077],[46.7,23152],[46.1,23227],[45.7,23302],[45.4,23377],[44.8,23452],[44.8,23527],[44.8,23601],[44.8,23676],[44.8,23751],[44.8,23826],[44.8,23901],[44.8,23976],[44.8,24051],[44.8,24126],[44.8,24201],[44.8,24276],[44.8,24351],[44.8,24426],[44.8,24501],[44.8,24575],[44.8,24650],[44.8,24726],[44.8,24800],[44.8,24875],[44.8,24950],[44.8,25025],[44.8,25100],[44.8,25175],[44.8,25250],[44.8,25325],[44.8,25400],[44.8,25475],[44.8,25550],[50.5,25625],[55.3,25700],[56.9,25774],[56.9,25849],[56.9,25924],[56.9,25999],[56.9,26074],[56.9,26149],[56.9,26224],[56.9,26299],[56.9,26374],[56.9,26449],[56.9,26524],[56.9,26599],[56.9,26674],[56.9,26748],[56.9,26824],[56.9,26898],[56.9,26973],[56.9,27048],[56.9,27123],[56.9,27198],[56.9,27273],[56.9,27348],[56.9,27423],[56.9,27498],[56.9,27572],[56.9,27648],[56.9,27723],[56.9,27798],[56.9,27873],[56.9,27947],[56.9,28022],[56.9,28097],[56.9,28172],[56.9,28247],[56.9,28322],[56.9,28397],[56.9,28472],[56.9,28547],[56.9,28622],[56.9,28697],[56.9,28772],[56.9,28846],[56.9,28921],[56.9,28997],[56.9,29071],[56.9,29146],[56.9,29221],[56.9,29296],[56.9,29371],[56.9,29446],[56.9,29521],[56.9,29596],[56.9,29670],[56.9,29746]]",1,0,93.4078,100.2513,54.47916985,5.0238,"[{""rating"":54.479169845581055,""responseTime"":5.023800000190732}]",space,6.2793,,100.2516,Not at all,0,100.2558,,,[],,0,0,0,0,1,audio/Narrative13Situation2.wav,audio/Narrative13Situation2.wav,audio/Narrative13Situation2.wav,audio/Narrative13Situation2.wav,2,2,2,2,,,,,,,,,,,,,,,,,,,,,,,,,,,,,,,,,,,,,
,,,,,,5a6f57166923df0001ef8d02,2024-05-13_10h44.26.994,group3.1-3.2-social-tom,2023.2.2,Win32,40.16064257,65c5074098b851296ff0b7ed,664231f79e310b5127489d4b,,,,,,,,,,,,,,,,,,,,,,,,,,,,,100.2559,1,audio/Narrative7Situation1.wav,101.6995,space,101.6996,157.6225,"[[999,1],[999,74],[999,149],[999,224],[999,299],[999,374],[999,449],[999,524],[999,598],[999,673],[999,748],[999,823],[999,898],[999,973],[999,1048],[999,1123],[999,1198],[999,1273],[999,1348],[999,1422],[999,1498],[999,1572],[999,1647],[999,1722],[999,1797],[999,1872],[999,1947],[999,2022],[999,2097],[999,2172],[999,2247],[999,2322],[999,2397],[999,2472],[999,2547],[999,2621],[999,2696],[999,2771],[999,2847],[999,2921],[999,2996],[999,3071],[999,3146],[999,3221],[999,3297],[999,3371],[999,3446],[999,3521],[999,3596],[999,3671],[999,3746],[999,3820],[999,3895],[999,3970],[999,4045],[999,4120],[999,4195],[999,4270],[999,4345],[999,4420],[999,4495],[999,4570],[999,4645],[999,4719],[999,4794],[999,4870],[999,4944],[999,5020],[999,5094],[999,5169],[999,5244],[999,5319],[999,5394],[999,5469],[999,5544],[999,5619],[999,5694],[999,5769],[999,5843],[999,5918],[999,5993],[999,6068],[999,6143],[999,6218],[999,6294],[999,6368],[999,6443],[999,6518],[999,6593],[29.8,6668],[24,6743],[23.3,6818],[22.9,6893],[22.4,6968],[22,7043],[20.8,7117],[20.2,7192],[19.5,7267],[19.2,7342],[19.2,7417],[19.2,7492],[19.2,7567],[19.2,7642],[19.2,7717],[19.2,7792],[19.2,7867],[19.2,7942],[19.2,8016],[19.2,8091],[19.2,8166],[19.2,8241],[19.2,8316],[19.1,8391],[19.1,8466],[19.1,8541],[19.1,8616],[19.1,8691],[19.1,8766],[19.1,8841],[19.1,8916],[19.1,8991],[19.1,9066],[19.1,9140],[19.1,9216],[19.1,9291],[19.1,9365],[19.1,9440],[20.1,9515],[38.3,9590],[45.6,9665],[47.5,9740],[47.5,9815],[47.5,9890],[47.5,9965],[47.5,10039],[47.5,10115],[47.5,10190],[47.5,10265],[47.3,10340],[46.7,10414],[46.4,10489],[46.4,10564],[46.4,10639],[46.4,10714],[46.4,10789],[46.3,10864],[46.3,10939],[46.3,11014],[46.3,11089],[46.3,11164],[46.3,11238],[46.3,11313],[46.3,11388],[46.3,11463],[46.3,11538],[46.3,11613],[46.3,11688],[46.3,11763],[46.3,11838],[46.3,11913],[46.3,11988],[46.3,12063],[46.3,12138],[46.3,12213],[46.3,12287],[46.3,12363],[46.3,12437],[46.3,12512],[46.3,12587],[46.3,12662],[46.3,12737],[46.3,12812],[46.3,12887],[46.3,12962],[46.3,13037],[46.3,13112],[46.3,13187],[46.3,13261],[46.3,13336],[46.3,13412],[46.3,13486],[46.3,13561],[46.3,13636],[46.3,13711],[46.3,13786],[46.3,13861],[46.3,13936],[46.3,14011],[46.3,14086],[46.3,14161],[46.3,14236],[46.3,14311],[46.3,14385],[46.3,14460],[46.3,14535],[46.3,14610],[46.3,14685],[46.3,14760],[46.3,14835],[46.3,14910],[46.3,14985],[46.3,15061],[46.3,15135],[46.3,15210],[46.3,15285],[46.3,15360],[46.3,15435],[46.3,15510],[46.3,15584],[46.3,15659],[46.3,15735],[46.3,15809],[46.3,15884],[46.3,15959],[46.3,16034],[46.3,16109],[46.3,16184],[46.3,16259],[46.3,16334],[46.3,16409],[46.3,16483],[46.3,16558],[46.3,16634],[46.3,16708],[46.3,16783],[46.3,16858],[46.3,16933],[46.3,17008],[46.3,17083],[46.3,17158],[46.3,17233],[46.3,17308],[46.3,17383],[46.3,17458],[46.3,17533],[46.3,17608],[46.3,17683],[46.3,17757],[46.3,17832],[46.3,17907],[46.3,17982],[46.3,18057],[46.3,18132],[46.3,18207],[46.3,18282],[46.3,18359],[46.3,18432],[46.3,18507],[46.3,18582],[46.3,18657],[46.3,18732],[46.3,18806],[46.3,18881],[46.3,18957],[46.3,19031],[46.3,19107],[46.3,19181],[46.3,19256],[46.3,19331],[46.3,19406],[46.3,19481],[46.3,19556],[46.3,19631],[46.3,19706],[46.3,19781],[46.3,19855],[46.3,19930],[46.3,20005],[46.3,20080],[46.3,20155],[46.3,20230],[46.3,20306],[44.9,20381],[43,20455],[42.4,20530],[42.3,20605],[42.3,20680],[40.1,20755],[37.9,20830],[37.3,20904],[37,20980],[37,21054],[37,21129],[37,21204],[37,21279],[37,21354],[37,21429],[37,21504],[37,21579],[37,21654],[37,21729],[37,21803],[37,21879],[37,21954],[37,22029],[37,22103],[37,22178],[37,22253],[37,22328],[37,22403],[37,22478],[37,22553],[37,22628],[37,22703],[37,22778],[37,22853],[37,22928],[37,23003],[37,23077],[37,23152],[37,23227],[37,23302],[37,23377],[37,23452],[37,23527],[37,23602],[37,23677],[37,23752],[37,23827],[37,23902],[37,23977],[37,24052],[37,24127],[37,24202],[37,24276],[37,24351],[37,24427],[37,24501],[37,24576],[37,24651],[37,24726],[37,24801],[37,24876],[37,24951],[37,25026],[37,25101],[37,25175],[37,25250],[37,25325],[37,25400],[37,25475],[37,25550],[37,25625],[37,25700],[37,25775],[37,25850],[37,25925],[37,26000],[37,26075],[37,26149],[37,26224],[37,26299],[37,26374],[37,26449],[37,26525],[37,26599],[37,26674],[37,26749],[37,26824],[39.6,26899],[41.8,26974],[43.5,27049],[45.6,27124],[46.6,27199],[47.1,27274],[47.1,27349],[47.1,27423],[47.1,27498],[47.1,27573],[47.1,27648],[47.1,27723],[47.1,27798],[47.1,27873],[47.1,27948],[47.1,28023],[47.1,28098],[47.1,28173],[47.1,28248],[47.1,28322],[47.1,28398],[47.1,28472],[47.1,28547],[47.1,28622],[47.1,28697],[47.1,28772],[47.1,28847],[47.1,28922],[47.1,28997],[47.1,29072],[47.1,29147],[47.1,29222],[47.1,29297],[47.1,29372],[47.1,29446],[47.1,29521],[47.1,29596],[47.1,29671],[47.1,29746],[47.1,29821],[47.1,29896],[47.1,29971],[47.1,30046],[47.1,30121],[47.1,30196],[47.1,30271],[47.1,30347],[47.1,30421],[47.1,30495],[47.1,30570],[47.1,30645],[47.1,30721],[47.1,30795],[47.1,30870],[47.1,30945],[47.1,31020],[47.1,31095],[47.1,31170],[47.1,31245],[47.1,31320],[47.1,31395],[47.1,31470],[47.1,31545],[47.1,31620],[47.1,31694],[47.1,31769],[47.1,31844],[47.1,31919],[47.1,31994],[47.1,32069],[47.1,32144],[47.1,32219],[47.1,32294],[47.1,32369],[47.1,32444],[47.1,32519],[47.1,32594],[47.1,32668],[47.1,32744],[47.1,32818],[47.1,32893],[47.1,32968],[47.1,33043],[47.1,33118],[47.1,33193],[47.1,33268],[47.1,33343],[47.1,33418],[47.1,33493],[47.1,33568],[47.1,33642],[47.1,33717],[47.1,33792],[47.1,33867],[47.1,33942],[47.1,34017],[47.1,34092],[47.1,34167],[47.1,34242],[47.1,34317],[47.1,34392],[47.1,34467],[47.1,34542],[47.1,34617],[47.1,34692],[47.1,34767],[47.1,34841],[47.1,34917],[47.1,34991],[47.1,35066],[47.1,35141],[47.1,35216],[47.1,35291],[47.1,35366],[47.1,35441],[47.1,35516],[47.1,35591],[47.1,35666],[47.1,35741],[47.1,35815],[47.1,35890],[47.1,35966],[47.1,36041],[47.1,36115],[47.1,36190],[47.1,36265],[47.1,36340],[47.1,36415],[47.1,36490],[47.1,36565],[47.1,36640],[47.1,36715],[47.1,36790],[47.1,36865],[47.1,36940],[47.1,37014],[47.1,37089],[47.1,37164],[47.1,37239],[47.1,37314],[47.1,37389],[47.1,37464],[47.1,37539],[47.1,37614],[47.1,37689],[47.1,37764],[47.1,37839],[47.1,37914],[47.1,37989],[47.1,38064],[47.1,38138],[47.1,38213],[47.1,38288],[47.1,38363],[47.1,38438],[47.1,38513],[47.1,38588],[47.1,38663],[47.1,38738],[47.1,38813],[47.1,38888],[47.1,38963],[47.1,39038],[47.1,39113],[47.1,39187],[47.1,39262],[47.1,39337],[47.1,39412],[47.1,39487],[47.1,39562],[47.1,39637],[47.1,39712],[47.1,39787],[47.1,39862],[47.1,39937],[47.1,40012],[47.1,40087],[47.1,40162],[47.1,40236],[47.1,40311],[47.1,40387],[47.1,40461],[47.1,40536],[47.1,40611],[47.1,40686],[47.1,40761],[47.1,40836],[47.1,40911],[47.1,40986],[47.1,41061],[47.1,41136],[47.1,41211],[47.1,41285],[47.1,41360],[47.1,41435],[47.1,41510],[47.1,41585],[47.1,41660],[47.1,41735],[47.1,41810],[47.1,41885],[47.1,41960],[47.1,42035],[47.1,42110],[47.1,42184],[47.1,42260],[47.1,42334],[47.1,42409],[47.1,42484],[47.1,42559],[47.1,42634],[47.1,42709],[47.1,42784],[47.1,42859],[45.5,42934],[42.9,43009],[41.6,43084],[38.2,43159],[37,43234],[36.4,43309],[36.1,43384],[36.1,43458],[36.1,43533],[36.1,43608],[36.1,43683],[36.1,43758],[36.1,43833],[36.1,43908],[36.1,43983],[36.1,44058],[36.1,44133],[36.1,44208],[36.1,44283],[36.1,44358],[36.1,44432],[36.1,44507],[36.1,44582],[36.1,44657],[36.1,44732],[36.1,44807],[36.1,44882],[36.1,44957],[36.1,45032],[36.1,45107],[36.1,45182],[36.1,45256],[36.1,45332],[36.1,45406],[36.1,45482],[32.7,46306],[32.9,46381],[33.4,46456],[33.6,46531],[33.6,46605],[33.4,46680],[33.4,46755],[33.4,46830],[33.4,46905],[33.4,46980],[33.4,47055],[33.4,47130],[33.4,47205],[33.4,47280],[33.4,47354],[33.4,47430],[33.4,47505],[33.4,47580],[33.4,47655],[33.4,47729],[33.4,47804],[33.4,47879],[33.4,47954],[33.4,48029],[33.4,48104],[33.4,48179],[33.4,48254],[33.4,48329],[33.4,48404],[33.4,48479],[33.4,48554],[33.4,48629],[33.4,48704],[33.4,48779],[33.4,48853],[33.4,48928],[33.4,49003],[33.4,49078],[33.4,49153],[33.4,49228],[33.4,49303],[33.4,49378],[33.4,49453],[33.4,49528],[33.4,49603],[33.4,49678],[33.4,49753],[33.4,49827],[33.4,49902],[33.4,49977],[33.4,50052],[33.4,50127],[33.4,50202],[33.4,50277],[33.4,50352],[33.4,50427],[33.4,50502],[33.4,50577],[33.4,50652],[33.4,50727],[33.4,50802],[33.4,50877],[33.4,50951],[33.4,51027],[33.4,51101],[33.4,51177],[33.4,51252],[33.4,51326],[33.4,51401],[33.4,51476],[33.4,51551],[33.4,51626],[33.4,51701],[33.4,51776],[33.4,51851],[33.4,51926],[33.4,52000],[33.4,52075],[33.4,52150],[33.4,52225],[33.4,52300],[33.4,52375],[33.4,52450],[33.4,52525],[33.4,52600],[33.4,52675],[33.4,52750],[33.4,52825],[33.4,52900],[33.4,52974],[33.4,53049],[33.4,53124],[33.4,53199],[33.4,53274],[33.4,53349],[33.4,53424],[33.4,53499],[33.4,53574],[33.4,53649],[33.4,53724],[33.4,53799],[33.4,53874],[33.4,53949],[33.4,54023],[33.4,54098],[33.4,54173],[33.4,54248],[33.4,54323],[33.4,54398],[33.4,54473],[33.4,54548],[33.4,54623],[33.4,54698],[33.4,54773],[33.4,54848],[33.4,54923],[33.4,54998],[33.4,55072],[33.4,55147],[33.4,55222],[33.4,55297],[33.4,55372],[33.4,55447],[33.4,55522],[33.4,55597],[33.4,55672],[33.4,55747],[33.4,55822],[33.4,55897]]",1,0,157.6229,160.3946,31.35416985,1.6005,"[{""rating"":31.354169845581055,""responseTime"":1.600500000000011}]",space,2.1967,,160.3947,Half the time,50,160.3993,,,[],,0,1,1,1,1,audio/Narrative7Situation1.wav,audio/Narrative8Situation1.wav,audio/Narrative5Situation1.wav,audio/Narrative6Situation1.wav,2,5,5,2,1.4225,,,,,,,,,,,,,,,,,,,,,,,,,,,,,,,,,,,,
,,,,,,5a6f57166923df0001ef8d02,2024-05-13_10h44.26.994,group3.1-3.2-social-tom,2023.2.2,Win32,40.16064257,65c5074098b851296ff0b7ed,664231f79e310b5127489d4b,,,,,,,,,,,,,,,,,,,,,,,,,,,,,160.3994,1,audio/Narrative7Situation2.wav,163.4167,,163.4168,170.9349,"[[30.8,3596],[30.4,3671],[30.1,3746],[29.6,3821],[29.6,3895],[29.6,3971],[29.6,4045],[29.6,4120],[29.6,4195],[29.6,4270],[29.6,4345],[29.6,4420],[29.6,4495],[29.6,4570],[29.6,4646],[29.6,4720],[29.6,4795],[29.6,4870],[29.6,4945],[29.6,5020],[29.6,5094],[29.6,5169],[29.6,5244],[29.6,5319],[29.6,5394],[29.6,5469],[29.6,5544],[29.6,5619],[29.6,5694],[29.6,5769],[29.6,5844],[29.6,5919],[29.6,5994],[29.6,6069],[29.6,6143],[29.6,6218],[29.6,6293],[29.6,6368],[29.6,6443],[29.6,6518],[29.6,6593],[29.6,6668],[29.6,6743],[29.6,6818],[29.6,6893],[29.6,6968],[29.6,7043],[29.6,7118],[29.6,7192],[29.6,7267],[29.6,7342],[29.6,7417],[29.6,7492]]",1,0,170.9351,176.2552,24.89583492,4.0372,"[{""rating"":20.625,""responseTime"":3.053900000095325},{""rating"":24.895834922790527,""responseTime"":4.037199999809218}]",space,4.7625,,176.2553,Half the time,50,176.2584,,,[],,0,2,2,2,1,audio/Narrative7Situation2.wav,audio/Narrative8Situation2.wav,audio/Narrative5Situation2.wav,audio/Narrative6Situation2.wav,3,3,3,3,,,,,,,,,,,,,,,,,,,,,,,,,,,,,,,,,,,,,
,,,,,,5a6f57166923df0001ef8d02,2024-05-13_10h44.26.994,group3.1-3.2-social-tom,2023.2.2,Win32,40.16064257,65c5074098b851296ff0b7ed,664231f79e310b5127489d4b,,,,,,,,,,,,,,,,,,,,,,,,,,,,,176.2586,1,audio/Narrative7Situation3.wav,184.2722,,184.2724,193.5635,"[[24.8,2022],[24.8,2097],[24.8,2172],[24.9,2247],[25.3,2322],[25.5,2397],[25.5,2472],[25.9,2547],[26.9,2622],[27.2,2697],[27.2,2771],[27.2,2846],[27.2,2921],[27.2,2996],[27.2,3071],[27.2,3146],[27.2,3221],[27.2,3296],[27.2,3371],[27.2,3446],[27.2,3521],[27.2,3596],[27.3,3671],[27.3,3746],[27.3,3820],[27.3,3895],[27.3,3971],[27.3,4045],[27.3,4120],[27.3,4195],[27.3,4270],[27.3,4345],[27.3,4420],[27.3,4495],[27.3,4570],[27.3,4645],[27.3,4719],[27.3,4795],[27.3,4869],[27.3,4944],[27.3,5019],[27.3,5094],[27.3,5169],[27.3,5244],[27.3,5319],[27.3,5394],[27.3,5469],[27.3,5544],[27.3,5619],[27.3,5694],[27.3,5769],[27.3,5843],[27.3,5918],[27.3,5993],[27.3,6068],[27.3,6144],[27.3,6218],[27.3,6294],[27.3,6368],[27.3,6443],[27.3,6518],[27.3,6593],[27.3,6668],[27.3,6743],[27.3,6818],[27.3,6893],[27.3,6968],[27.3,7042],[27.3,7117],[27.3,7192],[27.3,7267],[27.3,7342],[27.3,7417],[27.3,7492],[27.3,7567],[27.3,7642],[27.3,7717],[27.3,7792],[27.3,7867],[27.3,7942],[27.3,8017],[27.3,8092],[27.3,8166],[27.3,8241],[27.3,8316],[27.3,8391],[27.3,8466],[27.3,8541],[27.3,8616],[27.3,8691],[27.3,8766],[27.3,8841],[27.3,8916],[27.3,8991],[27.3,9066],[27.3,9141],[27.3,9215],[27.3,9290]]",1,0,193.5637,196.8604,21.5625,2.5717,"[{""rating"":26.97916984558105,""responseTime"":1.4647999997138754},{""rating"":21.5625,""responseTime"":2.5716999998092547}]",space,2.7314,,196.8605,Half the time,50,196.8628,,,[],,0,3,3,3,1,audio/Narrative7Situation3.wav,audio/Narrative8Situation3.wav,audio/Narrative5Situation3.wav,audio/Narrative6Situation3.wav,8,4,3,5,,,,,,,,,,,,,,,,,,,,,,,,,,,,,,,,,,,,,
,,,,,,5a6f57166923df0001ef8d02,2024-05-13_10h44.26.994,group3.1-3.2-social-tom,2023.2.2,Win32,40.16064257,65c5074098b851296ff0b7ed,664231f79e310b5127489d4b,,,,,,,,,,,,,,,,,,,,,,,,,,,,,196.8638,1,audio/Narrative7Situation4.wav,199.8827,,199.8828,211.6469,"[[999,0],[999,74],[999,149],[999,224],[999,299],[999,374],[999,449],[999,524],[999,598],[999,673],[999,748],[999,823],[999,898],[999,973],[999,1048],[999,1123],[999,1198],[999,1273],[999,1348],[999,1423],[999,1498],[999,1573],[999,1648],[999,1723],[999,1798],[999,1872],[999,1948],[999,2022],[999,2097],[999,2172],[999,2247],[999,2322],[999,2397],[999,2472],[999,2547],[999,2622],[999,2697],[999,2771],[999,2847],[999,2923],[999,2997],[18.8,3446],[18.4,3521],[18.4,3596],[19,3671],[19.4,3745],[19.6,3821],[19.6,3896],[19.7,3970],[19.7,4045],[19.7,4120],[19.7,4195],[19.7,4270],[19.7,4345],[19.7,4420],[19.7,4495],[19.7,4570],[19.7,4645],[19.7,4720],[19.7,4795],[19.7,4870],[19.7,4945],[19.7,5019],[19.7,5094],[19.7,5169],[19.7,5244],[19.7,5319],[19.7,5394],[19.7,5469],[19.7,5544],[19.7,5619],[19.7,5694],[19.7,5769],[19.7,5844],[19.7,5919],[19.7,5993],[19.7,6068],[19.7,6144],[19.7,6218],[19.7,6293],[19.7,6368],[19.7,6443],[19.7,6518],[19.7,6593],[19.7,6668],[19.7,6743],[19.7,6818],[19.7,6893],[19.7,6968],[19.7,7043],[19.7,7118],[19.7,7192],[19.7,7267],[19.7,7342],[19.7,7417],[19.7,7492],[19.7,7567],[19.7,7642],[19.7,7717],[19.7,7792],[19.7,7867],[19.7,7942],[19.7,8017],[19.7,8092],[19.7,8167],[19.7,8241],[19.7,8316],[19.7,8391],[19.7,8466],[19.7,8541],[19.7,8616],[19.7,8691],[19.7,8766],[19.7,8841],[19.7,8916],[19.7,8991],[19.7,9066],[19.7,9141],[19.7,9216],[19.7,9290],[19.7,9365],[19.7,9440],[19.7,9516],[19.7,9590],[19.7,9665],[19.7,9740],[19.7,9815],[19.7,9890],[19.7,9965],[19.7,10040],[19.7,10115],[19.7,10190],[19.7,10264],[19.7,10340],[19.7,10414],[19.7,10489],[19.7,10564],[19.7,10639],[19.7,10714],[19.7,10789],[19.7,10864],[19.7,10939],[19.7,11014],[19.7,11089],[19.7,11164],[19.7,11239],[19.7,11314],[19.7,11389],[19.7,11463],[19.7,11538],[19.7,11613],[19.7,11688],[19.7,11763]]",1,0,211.6471,213.4949,19.6875,1.3554,"[{""rating"":19.687500000000004,""responseTime"":1.3553999996184984}]",space,1.281,,213.495,Half the time,50,213.4982,,,[],,0,4,4,4,1,audio/Narrative7Situation4.wav,audio/Narrative8Situation4.wav,audio/Narrative5Situation4.wav,audio/Narrative6Situation4.wav,3,3,1,2,,,,,,,,,,,,,,,,,,,,,,,,,,,,,,,,,,,,,
,,,,,,5a6f57166923df0001ef8d02,2024-05-13_10h44.26.994,group3.1-3.2-social-tom,2023.2.2,Win32,40.16064257,65c5074098b851296ff0b7ed,664231f79e310b5127489d4b,,,,,,,,,,,,,,,,,,,,,,,,,,,,,213.4985,1,audio/Narrative7Situation5.wav,218.5148,,218.5149,227.0072,"[[21.1,3522],[21.5,3596],[21.5,3671],[21.5,3746],[21.5,3821],[21.5,3896],[21.5,3971],[30.7,4046],[35.9,4121],[36.1,4196],[36.1,4271],[36.1,4346],[36.1,4421],[36.1,4495],[36.1,4570],[36.1,4645],[36.1,4720],[36.1,4795],[36.1,4871],[36.1,4945],[36.1,5020],[36.1,5095],[36.1,5170],[36.1,5245],[36.1,5320],[36.1,5395],[36.1,5470],[36.1,5545],[36.1,5619],[36.1,5695],[36.1,5769],[36.1,5844],[36.1,5919],[36.1,5994],[36.1,6069],[36.1,6144],[36.1,6219],[36.1,6294],[36.1,6369],[36.1,6443],[36.1,6519],[36.1,6594],[36.1,6668],[36.1,6743],[36.1,6818],[36.1,6893],[36.1,6968],[36.1,7043],[36.1,7118],[36.1,7193],[36.1,7268],[36.1,7343],[36.1,7417],[36.1,7493],[36.1,7567],[36.1,7642],[36.1,7717],[36.1,7793],[36.1,7867],[36.1,7942],[36.1,8018],[36.1,8092],[36.1,8167],[36.1,8242],[36.1,8317],[36.1,8392],[36.1,8467]]",1,0,227.0074,229.8544,31.04166985,2.105,"[{""rating"":31.041669845581055,""responseTime"":2.1049999999999613}]",space,2.2806,,229.8545,Half the time,50,229.8566,,,[],,0,5,5,5,1,audio/Narrative7Situation5.wav,audio/Narrative8Situation5.wav,audio/Narrative5Situation5.wav,audio/Narrative6Situation5.wav,5,2,5,2,,,,,,,,,,,,,,,,,,,,,,,,,,,,,,,,,,,,,
,,,,,,5a6f57166923df0001ef8d02,2024-05-13_10h44.26.994,group3.1-3.2-social-tom,2023.2.2,Win32,40.16064257,65c5074098b851296ff0b7ed,664231f79e310b5127489d4b,,,,,,,,,,,,,,,,,,,,,,,,,,,,,229.8577,1,audio/Narrative7Situation6.wav,232.8766,,232.8767,242.8676,"[[34.2,2098],[36.5,2173],[37.5,2247],[37.5,2322],[37.5,2397],[37.5,2472],[37.5,2547],[39,2622],[40.3,2698],[40.5,2772],[40.5,2847],[40.5,2923],[40.5,2996],[40.5,3072],[40.5,3147],[40.5,3221],[40.5,3296],[40.5,3371],[40.5,3446],[40.5,3521],[40.5,3596],[40.5,3671],[40.5,3746],[40.5,3821],[40.5,3896],[40.5,3971],[40.5,4045],[40.5,4121],[40.5,4195],[40.5,4270],[40.5,4346],[40.5,4420],[40.5,4495],[40.5,4570],[40.5,4645],[40.5,4720],[40.5,4795],[40.5,4870],[40.5,4945],[40.5,5019],[40.5,5095],[40.5,5169],[40.5,5245],[40.5,5319],[40.5,5394],[40.5,5469],[40.5,5544],[40.5,5619],[40.5,5694],[40.5,5770],[40.5,5844],[40.5,5919],[40.5,5994],[40.5,6069],[40.5,6144],[40.5,6219],[40.5,6293],[40.5,6369],[40.5,6443],[40.5,6519],[40.5,6593],[40.5,6668],[40.5,6743],[40.5,6818],[40.5,6893],[40.5,6968],[40.5,7043],[40.5,7117],[40.5,7193],[40.5,7267],[40.5,7342],[40.5,7418],[40.5,7492],[40.5,7567],[40.5,7642],[40.5,7717],[40.5,7792],[40.5,7867],[40.5,7942],[40.5,8017],[40.5,8092],[40.5,8167],[40.5,8242],[40.5,8317],[40.5,8392],[40.5,8466],[40.5,8542],[40.5,8616],[40.5,8691],[40.5,8766],[40.5,8841],[40.5,8916],[40.5,8991],[40.5,9066],[40.5,9141],[40.5,9216],[40.5,9291],[40.5,9365],[40.5,9441],[40.5,9516],[40.5,9590],[40.5,9665],[40.5,9740],[40.5,9815],[40.5,9890],[40.5,9965]]",1,0,242.8679,247.3631,29.47916985,3.7559,"[{""rating"":29.479169845581055,""responseTime"":3.7558999996185776}]",space,3.9351,,247.3632,All the time,100,247.3676,,,[],,0,6,6,6,1,audio/Narrative7Situation6.wav,audio/Narrative8Situation6.wav,audio/Narrative5Situation6.wav,audio/Narrative6Situation6.wav,3,2,3,2,,,,,,,,,,,,,,,,,,,,,,,,,,,,,,,,,,,,,
,,,,,,5a6f57166923df0001ef8d02,2024-05-13_10h44.26.994,group3.1-3.2-social-tom,2023.2.2,Win32,40.16064257,65c5074098b851296ff0b7ed,664231f79e310b5127489d4b,,,,,,,,,,,,,,,,,,,,,,,,,,,,,247.3678,1,audio/Narrative7Situation7.wav,252.3835,,252.3836,269.5925,"[[999,9],[999,74],[999,149],[999,224],[999,299],[999,374],[999,449],[999,524],[999,599],[999,674],[999,749],[999,824],[999,898],[999,973],[999,1048],[999,1123],[999,1198],[999,1273],[999,1348],[999,1423],[999,1498],[999,1573],[999,1648],[999,1723],[999,1798],[999,1872],[999,1947],[999,2023],[999,2097],[999,2172],[999,2247],[999,2322],[999,2397],[999,2472],[999,2547],[999,2622],[999,2697],[999,2772],[999,2847],[999,2922],[999,2996],[999,3072],[999,3146],[999,3221],[999,3296],[999,3371],[999,3446],[999,3521],[999,3596],[999,3671],[999,3746],[999,3821],[999,3896],[999,3971],[999,4045],[999,4120],[999,4195],[999,4270],[999,4345],[999,4420],[999,4495],[999,4570],[999,4645],[999,4720],[999,4795],[999,4870],[999,4945],[44.4,5020],[44.4,5095],[44.2,5170],[44.2,5244],[44.2,5319],[44.2,5394],[44.2,5469],[44.2,5544],[44.2,5619],[44.2,5694],[44.2,5769],[44.2,5844],[44.2,5919],[44.2,5994],[44.2,6069],[44.2,6144],[44.2,6218],[44.2,6293],[44.2,6368],[44.2,6443],[44.2,6518],[44.2,6593],[44.2,6668],[44.2,6743],[44.2,6818],[44.2,6893],[44.2,6968],[44.2,7043],[44.2,7118],[44.2,7192],[44.2,7268],[44.2,7342],[44.2,7417],[44.2,7492],[44.2,7567],[44.2,7642],[44.2,7717],[44.2,7792],[44.2,7867],[44.2,7942],[44.2,8017],[44.2,8092],[44.2,8167],[44.2,8241],[44.2,8317],[44.2,8391],[44.2,8466],[44.2,8541],[44.2,8616],[44.2,8691],[44.2,8766],[44.2,8841],[44.2,8916],[44.2,8991],[44.2,9066],[44.2,9141],[44.2,9216],[44.2,9291],[44.2,9366],[44.2,9441],[44.2,9515],[44.2,9590],[44.2,9665],[44.2,9740],[44.2,9815],[44.2,9890],[44.2,9965],[44.2,10040],[44.2,10115],[44.2,10190],[44.2,10265],[44.2,10339],[44.2,10415],[44.2,10489],[44.2,10564],[44.2,10640],[44.2,10714],[44.2,10789],[44.2,10864],[44.2,10939],[44.2,11014],[44.2,11089],[44.2,11164],[44.2,11239],[44.2,11314],[44.2,11389],[44.2,11463],[44.2,11538],[44.2,11613],[44.2,11688],[44.2,11763],[44.2,11838],[44.2,11914],[44.2,11988],[44.2,12063],[44.2,12139],[44.2,12213],[44.2,12288],[44.2,12363],[44.2,12438],[44.2,12512],[44.2,12587],[44.2,12662],[44.2,12738],[44.2,12812],[44.2,12887],[44.2,12962],[44.2,13037],[44.2,13112],[44.2,13187],[44.2,13262],[44.2,13337],[44.2,13412],[44.2,13487],[44.2,13562],[44.2,13637],[44.2,13712],[44.2,13786],[44.2,13861],[44.2,13936],[44.2,14011],[44.2,14086],[44.2,14161],[44.2,14236],[44.2,14311],[44.4,14386],[49.3,14461],[51.7,14536],[52.5,14611],[54.1,14686],[55.5,14761],[55.8,14836],[55.9,14910],[55.9,14985],[55.9,15060],[55.9,15135],[55.9,15210],[55.9,15285],[55.9,15360],[55.9,15435],[55.9,15510],[55.9,15585],[55.9,15660],[55.9,15735],[55.9,15810],[55.9,15885],[55.9,15959],[55.9,16034],[55.9,16109],[55.9,16184],[55.9,16259],[55.9,16334],[55.9,16409],[55.9,16484],[55.9,16559],[55.9,16634],[55.9,16709],[55.9,16784],[55.9,16858],[55.9,16934],[55.9,17009],[55.9,17083],[55.9,17158]]",1,0,269.5926,273.1639,49.27083969,3.2033,"[{""rating"":49.27083969116211,""responseTime"":3.2033000001907226}]",space,3.0111,,273.1639,Not at all,0,273.1679,,,[],,0,7,7,7,1,audio/Narrative7Situation7.wav,audio/Narrative8Situation7.wav,audio/Narrative5Situation7.wav,audio/Narrative6Situation7.wav,5,3,4,5,,,,,,,,,,,,,,,,,,,,,,,,,,,,,,,,,,,,,
,,,,,,5a6f57166923df0001ef8d02,2024-05-13_10h44.26.994,group3.1-3.2-social-tom,2023.2.2,Win32,40.16064257,65c5074098b851296ff0b7ed,664231f79e310b5127489d4b,,,,,,,,,,,,,,,,,,,,,,,,,,,,,273.1681,1,audio/Narrative7Situation8.wav,275.1871,,275.1872,285.2282,[],1,0,285.2283,288.375,42.08333969,2.9016,"[{""rating"":42.08333969116211,""responseTime"":2.901599999904647}]",space,2.5752,,288.375,All the time,100,288.3791,,,[],,0,8,8,8,1,audio/Narrative7Situation8.wav,audio/Narrative8Situation8.wav,audio/Narrative5Situation8.wav,audio/Narrative6Situation8.wav,2,3,3,5,,,,,,,,,,,,,,,,,,,,,,,,,,,,,,,,,,,,,
,,,,,,5a6f57166923df0001ef8d02,2024-05-13_10h44.26.994,group3.1-3.2-social-tom,2023.2.2,Win32,40.16064257,65c5074098b851296ff0b7ed,664231f79e310b5127489d4b,,,,,,,,,,,,,,,,,,,,,,,,,,,,,288.3793,1,audio/Narrative7Situation9.wav,290.3978,,290.3978,299.0649,"[[37.7,1498],[32,1573],[30.1,1648],[29.9,1723],[29.9,1798],[29.9,1873],[29.9,1948],[29.9,2023],[29.9,2098],[29.9,2173],[29.9,2248],[29.9,2323],[41.9,2398],[46.5,2472],[47.1,2547],[47.1,2622],[47.1,2697],[47.1,2772],[47.1,2847],[47.1,2922],[47.1,2997],[47.1,3072],[47.1,3146],[47.1,3222],[47.1,3297],[47.1,3372],[47.1,3446],[47.1,3521],[47.1,3596],[47.1,3671],[47.1,3746],[47.1,3821],[47.5,3896],[53.3,3971],[54.8,4046],[55.2,4121],[55.3,4195],[55.3,4271],[55.3,4346],[54.4,4421],[53.6,4495],[53.2,4570],[52.7,4646],[52.4,4720],[52.4,4795],[52.4,4870],[52.4,4945],[52.4,5020],[52.4,5095],[52.4,5170],[52.4,5245],[52.4,5320],[52.4,5395],[52.4,5469],[52.4,5544],[52.4,5619],[52.4,5694],[52.4,5769],[52.4,5844],[51.8,5919],[50.7,6819],[50.7,6894],[50.7,6968],[50.7,7043],[50.5,7118],[50.3,7193],[49.7,7268],[49.6,7343],[49.6,7418],[49.6,7492],[49.6,7567],[49.6,7642],[49.6,7718],[49.6,7792],[49.6,7868],[49.6,7942],[49.6,8017],[49.6,8092],[49.6,8167],[49.6,8242],[49.6,8317],[49.6,8392],[49.6,8467],[49.6,8542],[49.6,8617]]",1,0,299.065,302.037,50.72916985,2.9541,"[{""rating"":50.729169845581055,""responseTime"":2.9540999999045994}]",space,0.327,,302.0371,All the time,100,302.0395,,,[],,0,9,9,9,1,audio/Narrative7Situation9.wav,audio/Narrative8Situation9.wav,audio/Narrative5Situation9.wav,audio/Narrative6Situation9.wav,2,3,3,4,,,,,,,,,,,,,,,,,,,,,,,,,,,,,,,,,,,,,
,,,,,,5a6f57166923df0001ef8d02,2024-05-13_10h44.26.994,group3.1-3.2-social-tom,2023.2.2,Win32,40.16064257,65c5074098b851296ff0b7ed,664231f79e310b5127489d4b,,,,,,,,,,,,,,,,,,,,,,,,,,,,,302.0403,1,audio/Narrative8Situation1.wav,307.0574,,307.0574,323.0174,"[[30,2622],[12.5,2698],[11.4,2772],[11.4,2847],[11.4,2922],[12.4,2997],[14.6,3072],[15.5,3146],[15.9,3222],[16.1,3296],[16.1,3371],[16.1,3446],[16.1,3521],[16.1,3596],[16.1,3671],[16.1,3746],[16.1,3821],[16.1,3896],[16.1,3971],[16.1,4046],[16.1,4121],[16.1,4196],[16.1,4270],[16.1,4345],[16.1,4420],[16.1,4495],[16.1,4570],[16.1,4645],[16.1,4720],[16.1,4795],[16.1,4870],[16.1,4945],[16.1,5020],[16.1,5095],[16.1,5169],[16.1,5244],[16.1,5319],[16.1,5394],[16.1,5469],[16.1,5544],[16.1,5619],[16.1,5694],[16.1,5770],[16.1,5844],[16.1,5919],[16.1,5994],[16.1,6069],[16.1,6144],[16.1,6218],[16.1,6294],[16.1,6368],[16.1,6443],[16.1,6518],[16.1,6593],[16.1,6668],[16.1,6743],[16.1,6818],[16.1,6893],[16.1,6968],[16.1,7043],[16.1,7117],[16.1,7193],[16.1,7268],[16.1,7343],[16.1,7418],[16.1,7492],[16.1,7567],[16.1,7642],[16.1,7717],[16.1,7792],[16.1,7867],[16.1,7942],[16.1,8017],[16.1,8092],[16.1,8167],[16.1,8242],[16.1,8317],[16.1,8392],[16.1,8466],[16.1,8542],[16.1,8616],[16.1,8691],[16.1,8766],[16.1,8841],[16.1,8916],[16.1,8991],[16.1,9066],[16.1,9141],[16.1,9216],[16.1,9291],[16.1,9366],[16.1,9441],[16.1,9516],[16.1,9590],[16.1,9665],[16.1,9740],[16.1,9815],[16.1,9890],[16.1,9965],[16.1,10040],[16.1,10115],[16.1,10190],[16.1,10265],[16.1,10340],[16.1,10415],[16.1,10490],[16.1,10564],[16.1,10639],[16.1,10715],[16.1,10789],[16.1,10864],[16.1,10939],[16.1,11014],[16.1,11089],[16.1,11164],[16.1,11239],[16.1,11314],[16.1,11389],[16.1,11464],[16.1,11538],[16.1,11614],[16.1,11688],[16.1,11763],[16.1,11838],[16.1,11913],[16.1,11988],[16.8,12063],[20,12138],[21.9,12213],[23.4,12288],[24.9,12363],[25.3,12438],[25.9,12513],[26.6,12588],[26.9,12663],[27.1,12738],[27.1,12812],[27.1,12887],[27.1,12962],[27.1,13037],[27.1,13112],[27.1,13187],[27.1,13262],[27.1,13337],[27.1,13412],[27.1,13487],[27.1,13562],[27.1,13637],[27.1,13711],[27.1,13787],[27.1,13862],[27.1,13936],[27.1,14012],[27.1,14086],[27.1,14161],[27.1,14236],[27.1,14311],[27.1,14386],[27.1,14461],[27.1,14536],[27.1,14611],[27.1,14686],[27.1,14761],[27.1,14835],[27.1,14910],[27.1,14985],[27.1,15060],[27.1,15135],[27.1,15210],[27.1,15285],[27.1,15360],[27.1,15435],[27.1,15510],[27.1,15585],[27.1,15660],[29.4,15735]]",1,0,323.0175,326.4643,25,3.1041,"[{""rating"":25,""responseTime"":3.1040999999046335}]",space,2.885,,326.4644,All the time,100,326.4678,,,[],,0,10,10,10,1,audio/Narrative8Situation1.wav,audio/Narrative7Situation1.wav,audio/Narrative6Situation1.wav,audio/Narrative5Situation1.wav,5,2,2,5,,,,,,,,,,,,,,,,,,,,,,,,,,,,,,,,,,,,,
,,,,,,5a6f57166923df0001ef8d02,2024-05-13_10h44.26.994,group3.1-3.2-social-tom,2023.2.2,Win32,40.16064257,65c5074098b851296ff0b7ed,664231f79e310b5127489d4b,,,,,,,,,,,,,,,,,,,,,,,,,,,,,326.468,1,audio/Narrative8Situation2.wav,329.4867,,329.4867,339.6271,"[[24.1,974],[23.5,1049],[22.9,1123],[22.9,1198],[22.9,1273],[22.9,1348],[22.9,1423],[22.9,1498],[22.9,1572],[22.9,1648],[22.9,1722],[22.9,1798],[22.9,1873],[22.9,1947],[22.9,2022],[20.4,2097],[19,2172],[18.3,2247],[18.3,2322],[18.3,2397],[18.3,2472],[18.3,2547],[18.3,2622],[18.3,2699],[18.3,2772],[18.3,2847],[18.3,2922],[18.3,2996],[18.3,3071],[18.3,3146],[18.3,3221],[18.3,3296],[18.3,3371],[18.3,3446],[18.3,3521],[18.3,3596],[18.3,3670],[18.3,3746],[18.3,3821],[18.3,3895],[18.3,3971],[18.3,4045],[18.3,4120],[18.3,4195],[18.3,4270],[18.3,4345],[18.3,4420],[18.3,4495],[18.3,4570],[18.3,4645],[18.3,4720],[18.3,4795],[18.3,4870],[18.3,4944],[18.3,5020],[18.3,5095],[18.3,5169],[18.3,5244],[18.3,5319],[18.3,5394],[18.3,5469],[18.3,5544],[18.3,5619],[18.3,5694],[18.3,5769],[18.3,5844],[18.3,5919],[18.3,5994],[18.3,6068],[18.3,6143],[18.3,6218],[18.3,6294],[18.3,6368],[18.3,6443],[18.3,6518],[18.3,6593],[18.3,6668],[18.3,6743],[18.3,6818],[18.3,6893],[18.3,6968],[18.3,7043],[18.3,7118],[18.3,7193],[18.3,7267],[18.3,7342],[18.3,7417],[18.3,7492],[18.3,7567],[20.1,7642],[23.4,7717],[24.1,7792],[24.9,7867],[26.5,7942],[28,8017],[30.1,8092],[32.2,8166],[32.7,8242],[32.7,8316],[32.7,8391],[32.7,8466],[32.7,8541],[32.7,8616],[32.7,8692],[32.7,8766],[32.7,8841],[32.7,8916],[32.7,8991],[32.7,9066],[32.7,9141],[32.7,9216],[32.7,9291],[32.7,9366],[32.7,9440],[32.7,9515],[32.7,9590],[32.7,9665],[32.7,9740],[32.7,9815],[32.7,9890],[32.7,9965],[32.7,10040],[32.7,10115]]",1,0,339.6273,342.2994,32.70833969,2.286,"[{""rating"":32.70833969116211,""responseTime"":2.2860000000000014}]",space,2.1015,,342.2995,All the time,100,348.8934,99.47916985,5.6409,"[{""rating"":99.47916984558105,""responseTime"":5.640900000095371}]",space,0,11,11,11,1,audio/Narrative8Situation2.wav,audio/Narrative7Situation2.wav,audio/Narrative6Situation2.wav,audio/Narrative5Situation2.wav,3,3,3,3,,,6.0352,,,,,,,,,,,,,,,,,,,,,,,,,,,,,,,,,,
,,,,,,5a6f57166923df0001ef8d02,2024-05-13_10h44.26.994,group3.1-3.2-social-tom,2023.2.2,Win32,40.16064257,65c5074098b851296ff0b7ed,664231f79e310b5127489d4b,,,,,,,,,,,,,,,,,,,,,,,,,,,,,348.8939,1,audio/Narrative8Situation3.wav,352.9146,,352.9146,375.3189,"[[999,7],[999,74],[999,149],[999,224],[999,299],[999,374],[999,449],[999,524],[999,599],[999,674],[999,748],[999,824],[999,898],[999,974],[999,1049],[999,1123],[999,1198],[999,1273],[999,1348],[999,1423],[999,1498],[999,1573],[999,1648],[999,1723],[999,1798],[999,1873],[999,1948],[999,2023],[999,2097],[999,2172],[999,2247],[999,2322],[999,2397],[999,2472],[999,2547],[999,2622],[999,2697],[999,2772],[999,2847],[999,2922],[999,2997],[999,3071],[999,3146],[999,3221],[999,3296],[999,3371],[999,3446],[999,3521],[999,3596],[27.8,3671],[28.3,3746],[28.3,3821],[28.3,3896],[28.3,3971],[28.3,4046],[28.3,4121],[28.3,4195],[28.3,4270],[35.8,4345],[38.1,4420],[39.1,4495],[39.4,4570],[39.7,4645],[40.2,4720],[40.2,4795],[40.2,4870],[40.2,4945],[40.2,5020],[40.2,5095],[40.2,5169],[40.2,5245],[40.2,5319],[40.2,5394],[40.2,5469],[40.2,5544],[40.2,5619],[40.2,5694],[40.2,5769],[40.2,5844],[40.2,5919],[40.2,5994],[40.2,6068],[40.2,6144],[40.2,6218],[40.2,6294],[40.2,6368],[40.2,6443],[40.2,6518],[40.2,6593],[40.2,6668],[40.2,6743],[40.2,6818],[40.2,6893],[40.2,6968],[40.2,7043],[40.2,7118],[40.2,7193],[40.2,7267],[40.2,7343],[40.2,7418],[40.2,7492],[40.2,7567],[40.2,7642],[40.2,7717],[40.2,7792],[40.2,7867],[40.2,7942],[40.2,8017],[40.2,8092],[40.2,8167],[40.2,8241],[40.2,8317],[40.2,8391],[40.2,8466],[40.2,8541],[40.2,8616],[40.2,8691],[40.2,8766],[40.2,8841],[40.2,8916],[40.2,8991],[40.2,9066],[40.2,9141],[40.2,9216],[40.2,9291],[40.2,9366],[40.2,9441],[40.2,9515],[40.2,9591],[40.2,9665],[40.2,9740],[40.2,9815],[40.2,9890],[40.2,9965],[40.2,10040],[40.2,10115],[40.2,10190],[40.2,10265],[40.2,10340],[40.2,10415],[40.2,10490],[40.2,10564],[40.2,10640],[40.2,10714],[40.2,10789],[40.2,10864],[40.2,10939],[40.2,11014],[40.2,11089],[40.2,11164],[40.2,11239],[40.2,11314],[40.2,11389],[40.2,11464],[40.2,11538],[40.2,11614],[40.2,11688],[40.2,11763],[40.2,11838],[40.2,11913],[40.2,11988],[40.2,12063],[40.2,12138],[40.2,12213],[40.2,12288],[40.2,12363],[40.2,12437],[40.2,12513],[40.2,12587],[40.2,12663],[40.2,12738],[40.2,12812],[40.2,12887],[40.2,12962],[40.2,13037],[40.2,13112],[40.2,13187],[40.2,13262],[40.2,13337],[40.2,13414],[40.2,13487],[40.2,13562],[40.2,13637],[40.2,13711],[40.2,13787],[40.2,13861],[40.2,13936],[40.2,14011],[40.2,14086],[40.2,14161],[40.2,14236],[40.2,14311],[40.2,14386],[40.2,14461],[40.2,14536],[40.2,14611],[40.2,14686],[40.2,14760],[40.2,14835],[40.2,14911],[40.2,14985],[40.2,15060],[40.2,15135],[40.2,15210],[40.2,15285],[40.2,15360],[40.2,15435],[40.2,15510],[40.2,15585],[40.2,15660],[40.2,15734],[40.2,15809],[40.2,15885],[40.2,15959],[40.2,16034],[40.2,16109],[40.2,16184],[40.2,16259],[40.2,16334],[40.2,16409],[40.2,16484],[40.2,16559],[40.2,16634],[40.2,16709],[40.2,16784],[40.2,16859],[40.2,16933],[40.2,17008],[40.2,17083],[40.2,17158],[40.2,17233],[40.2,17308],[40.2,17383],[40.2,17458],[40.2,17533],[40.2,17608],[40.2,17683],[40.2,17758],[40.2,17833],[40.2,17908],[40.2,17983],[40.2,18057],[40.2,18132],[40.2,18207],[40.2,18282],[40.2,18357],[40.2,18432],[40.2,18507],[40.2,18582],[40.2,18657],[40.2,18732],[40.2,18807],[40.2,18882],[40.2,18956],[40.2,19031],[40.2,19107],[40.2,19181],[40.2,19257],[40.2,19331],[40.2,19406],[40.2,19481],[40.2,19556],[40.2,19631],[40.2,19706],[40.2,19781],[40.2,19856],[40.2,19931],[40.2,20006],[40.2,20081],[40.2,20156],[40.2,20230],[40.2,20305],[40.2,20380],[40.2,20455],[40.2,20530],[40.2,20605],[40.2,20680],[40.2,20755],[40.2,20830],[40.2,20905],[40.2,20980],[40.2,21055],[40.2,21130],[40.2,21204],[40.2,21279],[40.2,21354],[40.2,21429],[40.2,21504],[40.2,21579],[40.2,21654],[40.2,21729],[40.2,21804],[40.2,21879],[40.2,21954],[40.2,22029],[40.2,22103],[40.2,22178],[40.2,22253],[43.9,22329],[47.7,22404]]",1,0,375.3191,377.4916,39.375,1.9165,"[{""rating"":39.375,""responseTime"":1.916499999999985}]",space,1.5993,,377.4917,Half the time,50,377.4963,,,[],,0,12,12,12,1,audio/Narrative8Situation3.wav,audio/Narrative7Situation3.wav,audio/Narrative6Situation3.wav,audio/Narrative5Situation3.wav,4,8,5,3,,,,,,,,,,,,,,,,,,,,,,,,,,,,,,,,,,,,,
,,,,,,5a6f57166923df0001ef8d02,2024-05-13_10h44.26.994,group3.1-3.2-social-tom,2023.2.2,Win32,40.16064257,65c5074098b851296ff0b7ed,664231f79e310b5127489d4b,,,,,,,,,,,,,,,,,,,,,,,,,,,,,377.4964,1,audio/Narrative8Situation4.wav,380.5137,,380.5137,394.7255,"[[39.8,149],[40.3,224],[40.3,299],[40.3,374],[40.3,449],[40.3,524],[40.3,599],[41.4,674],[42.8,749],[43.1,824],[43.3,898],[46.6,974],[54.8,1049],[55.6,1123],[55.8,1198],[55.8,1273],[55.8,1348],[55.8,1423],[55.8,1498],[55.8,1573],[55.8,1648],[55.8,1723],[55.8,1798],[55.8,1873],[55.8,1948],[55.8,2022],[55.8,2098],[55.8,2173],[55.8,2247],[55.8,2322],[55.8,2397],[55.8,2472],[55.8,2547],[55.9,2622],[56.1,2697],[56.1,2772],[56.1,2847],[56.1,2921],[56.1,2997],[56.1,3072],[56.1,3147],[56.1,3222],[56.1,3296],[56.1,3371],[56.1,3446],[56.1,3521],[56.1,3596],[56.1,3671],[56.1,3746],[56.1,3821],[56.1,3896],[56.1,3971],[56.1,4045],[56.1,4120],[56.1,4195],[56.1,4270],[56.1,4345],[56.1,4420],[56.1,4495],[56.1,4570],[56.1,4645],[56.1,4720],[56.1,4795],[56.1,4870],[56.1,4945],[56.1,5020],[56.1,5094],[56.1,5169],[56.1,5245],[56.1,5319],[56.1,5395],[56.1,5469],[56.1,5544],[56.1,5619],[56.1,5694],[56.1,5769],[56.1,5844],[56.1,5919],[56.1,5994],[56.1,6069],[56.1,6144],[56.1,6219],[56.1,6294],[56.1,6369],[56.1,6443],[56.1,6518],[56.1,6593],[56.1,6668],[56.1,6743],[56.1,6818],[56.1,6893],[56.1,6968],[56.1,7043],[56.1,7118],[56.1,7193],[56.1,7268],[56.1,7343],[56.1,7417],[56.1,7492],[56.1,7567],[56.1,7642],[56.1,7717],[56.1,7792],[56.1,7867],[56.1,7942],[56.1,8017],[56.1,8092],[56.1,8167],[56.1,8242],[56.1,8317],[56.1,8392],[56.1,8467],[56.1,8542],[56.1,8616],[56.1,8692],[56.1,8766],[56.1,8841],[56.1,8916],[56.1,8991],[56.1,9066],[56.1,9141],[56.1,9216],[56.1,9291],[56.1,9366],[56.1,9441],[56.1,9516],[56.1,9591],[56.1,9665],[56.1,9741],[56.1,9815],[56.1,9890],[56.1,9965],[56.1,10040],[56.1,10115],[56.1,10190],[56.1,10265],[56.1,10340],[56.1,10415],[56.1,10490],[56.1,10565],[56.1,10639],[56.1,10715],[56.1,10789],[56.1,10864],[56.1,10939],[56.1,11014],[56.1,11089],[56.1,11164],[56.1,11239],[56.1,11314],[56.1,11389],[56.1,11464],[56.1,11539],[56.1,11614],[56.1,11689],[56.1,11763],[56.1,11838],[56.1,11913],[56.1,11988],[56.1,12063],[56.1,12138],[56.1,12213],[56.1,12288],[56.1,12363],[56.1,12438],[56.1,12512],[56.1,12587],[56.1,12662],[56.1,12738],[56.1,12813],[56.1,12888],[56.1,12962],[56.1,13037],[56.1,13112],[56.1,13187],[56.1,13262],[56.1,13337],[56.1,13412],[56.1,13487],[56.1,13562],[56.1,13637],[56.1,13712],[56.1,13786],[56.1,13861],[56.1,13936],[56.1,14011],[56.1,14086],[56.1,14161]]",1,0,394.7257,397.5727,52.08333969,2.4971,"[{""rating"":52.08333969116211,""responseTime"":2.4970999999046057}]",space,2.2871,,397.5727,All the time,100,397.5763,,,[],,0,13,13,13,1,audio/Narrative8Situation4.wav,audio/Narrative7Situation4.wav,audio/Narrative6Situation4.wav,audio/Narrative5Situation4.wav,3,3,2,1,,,,,,,,,,,,,,,,,,,,,,,,,,,,,,,,,,,,,
,,,,,,5a6f57166923df0001ef8d02,2024-05-13_10h44.26.994,group3.1-3.2-social-tom,2023.2.2,Win32,40.16064257,65c5074098b851296ff0b7ed,664231f79e310b5127489d4b,,,,,,,,,,,,,,,,,,,,,,,,,,,,,397.5765,1,audio/Narrative8Situation5.wav,399.596,,399.5961,407.8633,"[[50.8,3671],[47.5,3746],[46,3821],[45.5,3896],[45.5,3970],[45.5,4045],[45.5,4120],[45.5,4195],[45.5,4270],[45.5,4345],[45.5,4420],[45.5,4495],[45.5,4570],[45.5,4645],[45.5,4720],[45.5,4795],[45.5,4870],[45.5,4945],[45.5,5020],[45.5,5095],[45.5,5169],[45.5,5245]]",1,0,407.8634,410.2609,44.89583969,2.1247,"[{""rating"":44.89583969116211,""responseTime"":2.1247000002860545}]",space,1.82,,410.2609,All the time,100,410.263,,,[],,0,14,14,14,1,audio/Narrative8Situation5.wav,audio/Narrative7Situation5.wav,audio/Narrative6Situation5.wav,audio/Narrative5Situation5.wav,2,5,2,5,,,,,,,,,,,,,,,,,,,,,,,,,,,,,,,,,,,,,
,,,,,,5a6f57166923df0001ef8d02,2024-05-13_10h44.26.994,group3.1-3.2-social-tom,2023.2.2,Win32,40.16064257,65c5074098b851296ff0b7ed,664231f79e310b5127489d4b,,,,,,,,,,,,,,,,,,,,,,,,,,,,,410.2641,1,audio/Narrative8Situation6.wav,412.2838,,412.2839,418.7781,"[[44.9,3371],[44.9,3447],[44.9,3522],[44.9,3596],[44.9,3671],[44.9,3746],[44.9,3821],[44.9,3896],[44.9,3971],[44.9,4046],[44.9,4121],[44.9,4196],[44.9,4270],[44.9,4346],[44.9,4421],[44.9,4495],[44.9,4570],[44.9,4645],[44.9,4720],[44.9,4795],[44.9,4870],[44.9,4945],[44.9,5020],[44.9,5095],[44.9,5170],[44.9,5245],[44.9,5319],[44.9,5395],[44.9,5470],[44.9,5544],[44.9,5619],[44.9,5694],[44.9,5769],[44.9,5844],[44.9,5919],[44.9,5994],[44.9,6069],[44.9,6144],[44.9,6219],[44.9,6294],[44.9,6368],[44.9,6444]]",1,0,418.7782,424.8475,44.89583969,5.7684,"[{""rating"":44.89583969116211,""responseTime"":5.768400000095312}]",space,5.4974,,424.8475,Half the time,50,424.8517,,,[],,0,15,15,15,1,audio/Narrative8Situation6.wav,audio/Narrative7Situation6.wav,audio/Narrative6Situation6.wav,audio/Narrative5Situation6.wav,2,3,2,3,,,,,,,,,,,,,,,,,,,,,,,,,,,,,,,,,,,,,
,,,,,,5a6f57166923df0001ef8d02,2024-05-13_10h44.26.994,group3.1-3.2-social-tom,2023.2.2,Win32,40.16064257,65c5074098b851296ff0b7ed,664231f79e310b5127489d4b,,,,,,,,,,,,,,,,,,,,,,,,,,,,,424.8519,1,audio/Narrative8Situation7.wav,427.8696,,427.8697,439.9835,"[[43.4,1648],[42.9,1722],[42.7,1798],[43,1873],[43,1947],[43.1,2022],[43.3,2097],[44,2172],[44.4,2247],[44.9,2322],[44.9,2397],[44.9,2472],[44.9,2547],[44.9,2622],[44.9,2697],[44.9,2772],[44.9,2846],[44.9,2922],[44.9,2996],[44.9,3071],[44.9,3146],[44.9,3221],[44.9,3296],[44.9,3371],[44.9,3446],[44.9,3521],[44.9,3596],[44.9,3671],[44.9,3745],[44.9,3820],[44.9,3896],[44.9,3970],[44.9,4046],[44.9,4120],[44.9,4196],[44.9,4270],[44.9,4345],[44.9,4420],[44.9,4495],[44.9,4570],[44.9,4645],[44.9,4720],[44.9,4795],[44.9,4870],[44.9,4944],[44.9,5019],[44.9,5094],[44.9,5169],[44.9,5245],[44.9,5319],[44.9,5394],[44.9,5469],[44.9,5544],[44.9,5619],[44.9,5694],[44.9,5769],[44.9,5844],[44.9,5919],[44.9,5994],[44.9,6069],[44.9,6144],[44.9,6218],[44.9,6293],[44.9,6368],[44.9,6443],[44.9,6518],[44.9,6593],[44.9,6668],[44.9,6743],[44.9,6818],[44.9,6893],[44.9,6968],[44.9,7043],[44.9,7117],[44.9,7193],[44.9,7267],[44.9,7342],[44.9,7418],[44.9,7492],[44.9,7567],[44.9,7642],[44.9,7717],[44.9,7792],[44.9,7867],[44.9,7942],[44.9,8017],[44.9,8091],[44.9,8167],[44.9,8242],[44.9,8316],[44.9,8391],[44.9,8466],[44.9,8541],[44.9,8616],[44.9,8691],[44.9,8766],[44.9,8841],[44.9,8916],[44.9,8991],[44.9,9066],[44.9,9141],[44.9,9216],[44.9,9291],[44.9,9366],[44.9,9441],[44.9,9515],[44.9,9590],[44.9,9665],[44.9,9740],[44.9,9815],[44.9,9890],[44.9,9965],[44.9,10040],[44.9,10115],[44.9,10190],[44.9,10264],[44.9,10340],[44.9,10415],[44.9,10490],[44.9,10564],[44.9,10639],[44.9,10714],[44.9,10789],[44.9,10864],[44.9,10939],[44.9,11014],[44.9,11089],[44.9,11164],[44.9,11239],[44.9,11314],[44.9,11389],[44.9,11463],[44.9,11538],[44.9,11613],[44.9,11688],[44.9,11763],[44.9,11838],[44.9,11913],[44.9,11988],[44.9,12063]]",1,0,439.9838,442.0063,46.14583969,1.8223,"[{""rating"":46.14583969116211,""responseTime"":1.8222999997138913}]",space,1.4631,,442.0064,Half the time,50,442.0081,,,[],,0,16,16,16,1,audio/Narrative8Situation7.wav,audio/Narrative7Situation7.wav,audio/Narrative6Situation7.wav,audio/Narrative5Situation7.wav,3,5,5,4,,,,,,,,,,,,,,,,,,,,,,,,,,,,,,,,,,,,,
,,,,,,5a6f57166923df0001ef8d02,2024-05-13_10h44.26.994,group3.1-3.2-social-tom,2023.2.2,Win32,40.16064257,65c5074098b851296ff0b7ed,664231f79e310b5127489d4b,,,,,,,,,,,,,,,,,,,,,,,,,,,,,442.009,1,audio/Narrative8Situation8.wav,445.0287,,445.0288,457.9914,"[[50.9,1048],[52.2,1124],[52.7,1198],[55.9,1273],[57.2,1349],[57.4,1423],[57.4,1498],[57.5,1573],[58.1,1648],[58.8,1723],[58.8,1797],[58.8,1872],[58.8,1947],[58.9,2022],[58.9,2097],[58.9,2172],[58.9,2247],[58.9,2322],[58.9,2397],[58.9,2472],[58.9,2547],[58.9,2621],[58.9,2696],[58.9,2772],[58.9,2847],[58.9,2921],[58.9,2996]]",1,0,457.9916,459.9146,57.1875,1.5729,"[{""rating"":57.1875,""responseTime"":1.5729000000953874}]",space,1.35,,459.9146,Not at all,0,459.9182,,,[],,0,17,17,17,1,audio/Narrative8Situation8.wav,audio/Narrative7Situation8.wav,audio/Narrative6Situation8.wav,audio/Narrative5Situation8.wav,3,2,5,3,,,,,,,,,,,,,,,,,,,,,,,,,,,,,,,,,,,,,
,,,,,,5a6f57166923df0001ef8d02,2024-05-13_10h44.26.994,group3.1-3.2-social-tom,2023.2.2,Win32,40.16064257,65c5074098b851296ff0b7ed,664231f79e310b5127489d4b,,,,,,,,,,,,,,,,,,,,,,,,,,,,,459.9183,1,audio/Narrative8Situation9.wav,462.9366,,462.9367,474.3012,"[[55.2,10041],[53.5,10115],[52,10190],[51.4,10265],[50.2,10340],[49.9,10415],[49.8,10490],[49.8,10564],[49.8,10639],[49.8,10715],[49.8,10790],[49.8,10864],[49.8,10939],[49.8,11014],[49.8,11089],[49.8,11164],[49.8,11239],[49.8,11314]]",1,0,474.3013,476.7237,49.27083969,1.6306,"[{""rating"":49.27083969116211,""responseTime"":1.6306000003813779}]",space,1.849,,476.7238,Half the time,50,476.7279,,,[],,0,18,18,18,1,audio/Narrative8Situation9.wav,audio/Narrative7Situation9.wav,audio/Narrative6Situation9.wav,audio/Narrative5Situation9.wav,3,2,4,3,,,,,,,,,,,,,,,,,,,,,,,,,,,,,,,,,,,,,
,,,,,,5a6f57166923df0001ef8d02,2024-05-13_10h44.26.994,group3.1-3.2-social-tom,2023.2.2,Win32,40.16064257,65c5074098b851296ff0b7ed,664231f79e310b5127489d4b,,,,,,,,,,,,,,,,,,,,,,,,,,,489.2947,491.8598,491.8711,2,audio/Narrative13Situation2.wav,491.8711,,491.8711,521.6321,"[[40.4,1711],[27.8,1786],[24.5,1861],[23.2,1936],[20.9,2011],[17.1,2086],[16.1,2161],[15.9,2236],[15.7,2311],[15.4,2386],[15.3,2461],[15.3,2536],[15.3,2610],[15.3,2686],[15.3,2760],[15.3,2836],[15.3,2910],[15.3,2985],[15.3,3060],[15.3,3135],[15.3,3210],[15.3,3285],[15.3,3360],[15.3,3435],[15.3,3510],[15.3,3585],[15.3,3660],[15.3,3735],[15.3,3809],[15.3,3884],[23.4,21193],[23.8,21268],[24.6,21343],[24.9,21418],[25,21493],[25,21568],[25,21643],[25,21718],[25,21793],[25,21868],[25,21942],[25,22017],[25,22092],[25,22167],[25,22242],[25,22317],[25,22392],[25,22467],[25,22542],[25,22617],[25,22692],[25,22766],[25,22842],[25,22918],[25,22991],[25,23067],[25,23141],[25,23216],[25,23291],[25,23366],[25,23441],[25,23516],[25,23591],[25,23666],[25,23741],[25,23816],[25,23891],[25,23966],[25,24040],[25,24116],[25,24190],[25,24265],[25,24340],[25,24415],[25,24491],[25,24566],[25,24640],[25,24715],[25,24790],[25,24865],[25,24940],[25,25015],[25,25090],[25,25164],[25,25240],[25,25314],[25,25389],[25,25464],[25,25539],[25,25614],[25,25689],[25,25764],[25,25839],[25,25914],[25,25989],[25,26064],[25,26139],[25,26213],[25,26288],[25,26364],[25,26438],[25,26513],[25,26588],[25,26663],[25,26738],[25,26813],[25,26888],[25,26963],[25,27038],[25,27113],[25,27188],[25,27263],[25,27338],[25,27412],[25,27487],[26.9,27562],[30,27637],[30.9,27712],[31.3,27787],[31.3,27862],[31.3,27937],[31.3,28012],[31.3,28087],[31.3,28161],[31.3,28237],[31.3,28312],[31.4,28386],[31.4,28461],[31.4,28536],[31.4,28611],[31.4,28686],[31.4,28761],[31.4,28836],[31.4,28911],[31.4,28986],[31.4,29061],[31.4,29136],[31.4,29211],[31.4,29286],[31.4,29361],[31.4,29436],[31.4,29510],[31.4,29585],[31.4,29660],[31.4,29735]]",1,0,521.6325,521.636,,,[],,,,521.6361,All the time,100,521.6375,,,[],,0,0,0,0,1,audio/Narrative13Situation2.wav,audio/Narrative13Situation2.wav,audio/Narrative13Situation2.wav,audio/Narrative13Situation2.wav,2,2,2,2,,,,,476.7283,489.2876,space,12.0216,,,,,,,,,,,,,,,,,,,,,,,,,,,,,
,,,,,,5a6f57166923df0001ef8d02,2024-05-13_10h44.26.994,group3.1-3.2-social-tom,2023.2.2,Win32,40.16064257,65c5074098b851296ff0b7ed,664231f79e310b5127489d4b,,,,,,,,,,,,,,,,,,,,,,,,,,,,,521.6377,2,audio/Narrative5Situation1.wav,526.6525,,526.6527,539.9648,"[[30.5,1648],[26.8,1722],[25.1,1797],[23.9,1872],[23,1947],[22.9,2022],[22.9,2097],[22.7,2172],[22.7,2247],[22.7,2322],[22.7,2396],[22.7,2472],[22.6,2547],[20.1,2621],[18.9,2697],[18.5,2771],[18.2,2846],[18.2,2921],[18.2,2996],[18.2,3071],[18.2,3146],[18.2,3221],[18.2,3296],[18.2,3371],[18.2,3446],[18.2,3520],[18.2,3596],[18.1,3670],[18.1,3745],[18.1,3820],[18.1,3895],[18.1,3970],[18.1,4045],[18.1,4120],[18.1,4195],[18.1,4270],[18.1,4345],[18.1,4420],[18.1,4494],[18.1,4570],[18.1,4644],[18.1,4719],[18.1,4795],[18.1,4870],[18.1,4944],[18.1,5019],[18.1,5094],[18.1,5169],[18.1,5244],[18.1,5319],[18.1,5394],[18.1,5469],[18.1,5544],[18.1,5619],[18.1,5694],[18.1,5768],[18.1,5843],[18.1,5918],[18.1,5994],[18.1,6068],[18.1,6143],[18.1,6218],[18.1,6293],[18.1,6368],[18.1,6443],[18.1,6518],[18.1,6593],[18.1,6668],[18.1,6743],[18.1,6817],[18.1,6892],[18.1,6967],[18.1,7042],[18.1,7117],[18.1,7192],[18.1,7267],[18.1,7342],[18.1,7417],[18.1,7492],[18.1,7567],[18.1,7642],[18.1,7716],[18.1,7791],[18.1,7866],[18.1,7942],[18.1,8016],[18.1,8091],[18.1,8166],[18.1,8241],[18.1,8316],[18.1,8391],[18.1,8466],[18.1,8541],[18.1,8616],[18.1,8691],[18.1,8766],[18.1,8841],[18.1,8916],[18.1,8990],[18.1,9065],[18.1,9140],[18.1,9216],[18.1,9290],[18.1,9365],[18.1,9440],[18.1,9515],[18.1,9590],[18.1,9665],[18.1,9740],[18.1,9815],[18.1,9889],[18.1,9965],[18.1,10039],[18.1,10115],[18.1,10189],[18.1,10264],[18.1,10340],[18.1,10414],[18.1,10489],[18.1,10564],[18.1,10639],[18.1,10714],[18.1,10789],[18.1,10864],[18.1,10939],[18.1,11014],[18.1,11088],[18.1,11163],[18.1,11238],[18.1,11313],[18.1,11388],[18.1,11463],[18.1,11538],[18.1,11613],[18.1,11688],[18.1,11763],[18.1,11838],[18.1,11913],[18.1,11988],[18.1,12063],[18.1,12138],[18.1,12212],[18.1,12287],[18.1,12362],[18.1,12437],[18.1,12512],[18.1,12587],[18.1,12662],[18.1,12737],[18.1,12812],[18.1,12887],[18.1,12961],[18.1,13037],[18.1,13112],[18.1,13187],[18.1,13261]]",1,0,539.9649,542.0879,18.125,1.6343,"[{""rating"":18.125000000000004,""responseTime"":1.6342999997139032}]",space,1.5547,,542.0881,All the time,100,542.0911,,,[],,0,1,1,1,1,audio/Narrative7Situation1.wav,audio/Narrative8Situation1.wav,audio/Narrative5Situation1.wav,audio/Narrative6Situation1.wav,2,5,5,2,,,,,,,,,,,,,,,,,,,,,,,,,,,,,,,,,,,,,
,,,,,,5a6f57166923df0001ef8d02,2024-05-13_10h44.26.994,group3.1-3.2-social-tom,2023.2.2,Win32,40.16064257,65c5074098b851296ff0b7ed,664231f79e310b5127489d4b,,,,,,,,,,,,,,,,,,,,,,,,,,,,,542.0917,2,audio/Narrative5Situation2.wav,545.1098,,545.1099,574.5825,"[[23.3,374],[24.3,449],[24.3,524],[24.3,599],[24.3,674],[24.3,749],[24.7,825],[25,899],[25.6,973],[26.6,1049],[27.6,1124],[29.1,1198],[29.9,1274],[30.2,1348],[30.2,1423],[30.2,1498],[30.2,1573],[30.2,1648],[30.2,1723],[30.2,1798],[30.2,1873],[30.2,1948],[30.2,2023],[30.2,2098],[30.2,2172],[30.2,2247],[30.2,2323],[30.2,2397],[30.2,2472],[30.2,2547],[30.2,2622],[30.2,2697],[30.2,2772],[30.2,2847],[30.2,2922],[30.2,2997],[30.2,3072],[30.2,3147],[30.2,3222],[30.2,3297],[30.2,3371],[30.2,3446],[30.2,3521],[30.2,3596],[30.2,3671],[30.2,3746],[30.2,3821],[30.2,3896],[30.2,3971],[30.2,4046],[30.2,4121],[30.2,4196],[30.2,4271],[30.2,4345],[30.2,4420],[30.2,4495],[30.2,4570],[30.2,4645],[30.2,4720],[30.2,4795],[30.2,4870],[30.2,4945],[30.2,5020],[30.2,5095],[30.2,5170],[30.2,5245],[30.2,5320],[30.2,5394],[30.2,5470],[30.2,5544],[30.2,5619],[30.2,5694],[30.2,5769],[30.2,5844],[30.2,5919],[30.2,5994],[30.2,6069],[30.2,6144],[30.2,6219],[30.2,6294],[30.2,6369],[30.2,6443],[30.2,6519],[30.2,6593],[30.2,6668],[30.2,6743],[30.2,6818],[30.2,6893],[30.2,6968],[30.2,7043],[30.2,7118],[30.2,7193],[30.2,7268],[30.2,7342],[30.2,7418],[30.2,7493],[30.2,7568],[30.2,7642],[30.2,7717],[30.2,7793],[30.2,7867],[30.2,7942],[30.2,8017],[30.2,8092],[30.2,8167],[30.2,8242],[30.2,8317],[30.2,8392],[30.2,8467],[30.2,8542],[30.2,8617],[30.2,8691],[30.2,8766],[30.2,8842],[34,8916],[34.9,8991],[35,9066],[35,9141],[35,9216],[35,9291],[35,9366],[35,9441],[35,9516],[35.1,9591],[35.1,9665],[35.1,9740],[35.1,9815],[35.1,9890],[35.1,9965],[35.1,10040],[35.1,10115],[35.1,10190],[35.1,10265],[35.1,10340],[35.1,10415],[35.1,10490],[35.1,10565],[35.1,10640],[35.1,10715],[35.1,10790],[35.1,10864],[35.1,10939],[35.1,11014],[35.1,11089],[35.1,11164],[35.1,11239],[35.1,11314],[35.1,11389],[35.1,11464],[35.1,11539],[35.1,11614],[35.1,11689],[35.1,11764],[35.1,11838],[35.1,11913],[35.1,11988],[35.1,12063],[35.1,12138],[35.1,12213],[35.1,12288],[35.1,12363],[35.1,12438],[35.1,12513],[35.1,12588],[35.1,12663],[35.1,12738],[35.1,12812],[35.1,12888],[35.1,12962],[35.1,13037],[35.1,13112],[35.1,13187],[35.1,13262],[35.1,13337],[35.1,13412],[35.1,13487],[35.1,13562],[35.1,13637],[35.1,13712],[35.1,13787],[35.1,13862],[35.1,13936],[35.1,14011],[35.1,14086],[35.1,14161],[35.1,14236],[35.1,14311],[35.1,14386],[35.1,14461],[35.1,14536],[35.1,14611],[35.1,14686],[35.1,14761],[35.1,14836],[35.1,14911],[35.1,14985],[35.1,15060],[35.1,15135],[35.1,15210],[35.1,15285],[35.1,15360],[35.1,15435],[35.1,15510],[35.1,15585],[35.1,15660],[35.1,15735],[35.1,15810],[35.1,15885],[35.1,15960],[35.1,16034],[35.1,16109],[35.1,16184],[35.1,16259],[35.1,16334],[35.1,16409],[35.1,16484],[35.1,16559],[35.1,16634],[35.1,16709],[35.1,16784],[35.1,16859],[35.1,16934],[35.1,17009],[35.1,17084],[35.1,17158],[35.1,17234],[35.1,17308],[35.1,17383],[35.1,17458],[35.1,17533],[35.1,17608],[35.1,17683],[35.1,17759],[35.1,17833],[35.1,17908],[35.1,17983],[35.1,18058],[35.1,18132],[35.1,18208],[35.1,18282],[35.1,18357],[35.1,18432],[35.1,18507],[35.1,18582],[35.1,18657],[35.1,18732],[35.1,18807],[35.1,18882],[35.1,18957],[35.1,19032],[35.1,19107],[35.1,19182],[35.1,19257],[35.1,19332],[35.1,19406],[35.1,19481],[35.1,19556],[35.1,19631],[35.1,19706],[35.1,19781],[35.1,19856],[35.1,19931],[35.1,20006],[35.1,20081],[35.1,20156],[35.1,20230],[35.1,20306],[35.1,20381],[35.1,20456],[35.1,20530],[35.1,20605],[35.1,20680],[35.1,20755],[35.1,20830],[35.1,20905],[35.1,20980],[35.1,21055],[35.1,21130],[35.1,21205],[35.1,21280],[35.1,21354],[35.1,21430],[35.1,21504],[35.1,21579],[35.1,21654],[35.1,21729],[35.1,21804],[35.1,21879],[35.1,21954],[35.1,22029],[35.1,22104],[35.1,22179],[35.1,22254],[35.1,22329],[35.1,22404],[35.1,22479],[35.1,22553],[35.1,22628],[35.1,22703],[35.1,22778],[35.1,22853],[35.1,22928],[35.1,23003],[35.1,23078],[35.1,23153],[35.1,23228],[35.1,23303],[35.1,23378],[35.1,23453],[35.1,23528],[35.1,23602],[35.1,23677],[35.1,23752],[35.1,23827],[35.1,23903],[35.1,23977],[35.1,24053],[35.1,24127],[35.1,24202],[35.1,24277],[35.1,24352],[35.1,24427],[35.1,24502],[35.1,24577],[35.1,24652],[35.1,24727],[35.1,24802],[35.1,24876],[35.1,24951],[35.1,25026],[35.1,25101],[35.1,25176],[35.1,25251],[35.1,25326],[35.1,25401],[35.1,25476],[35.1,25551],[35.1,25626],[35.1,25700],[35.1,25776],[35.1,25850],[35.1,25925],[35.1,26000],[38.9,26075],[40.7,26150],[42.2,26225],[43.1,26300],[43.4,26375],[43.4,26450],[43.6,26525],[43.6,26600],[43.6,26675],[43.6,26749],[43.6,26824],[43.6,26899],[43.6,26974],[43.6,27049],[43.6,27125],[43.6,27199],[43.6,27274],[43.6,27349],[43.6,27424],[43.6,27499],[43.6,27574],[43.6,27649],[43.6,27724],[43.6,27798],[43.6,27874],[43.6,27948],[43.6,28023],[43.6,28098],[43.6,28173],[43.6,28248],[43.6,28323],[43.6,28398],[43.6,28473],[43.6,28548],[43.6,28623],[43.6,28698],[43.6,28773],[43.6,28848],[43.6,28922],[43.6,28998],[43.6,29072],[43.6,29147],[43.6,29222],[43.6,29297],[43.6,29372],[43.6,29447]]",1,0,574.5828,576.9552,43.64583969,1.7358,"[{""rating"":43.64583969116211,""responseTime"":1.7357999997138904}]",space,1.8031,,576.9552,Half the time,50,576.9586,,,[],,0,2,2,2,1,audio/Narrative7Situation2.wav,audio/Narrative8Situation2.wav,audio/Narrative5Situation2.wav,audio/Narrative6Situation2.wav,3,3,3,3,,,,,,,,,,,,,,,,,,,,,,,,,,,,,,,,,,,,,
,,,,,,5a6f57166923df0001ef8d02,2024-05-13_10h44.26.994,group3.1-3.2-social-tom,2023.2.2,Win32,40.16064257,65c5074098b851296ff0b7ed,664231f79e310b5127489d4b,,,,,,,,,,,,,,,,,,,,,,,,,,,,,576.9587,2,audio/Narrative5Situation3.wav,579.9776,,579.9776,593.9144,"[[43.6,6368],[43.6,6443],[43.6,6518],[43.6,6593],[43.6,6668],[43.6,6743],[43.6,6818],[43.6,6893],[43.6,6968],[43.6,7043],[43.6,7118],[43.6,7192],[43.6,7267],[43.6,7342],[43.6,7418],[43.6,7492],[43.6,7567],[43.6,7643],[43.6,7717],[43.6,7792],[43.6,7867],[43.6,7942],[43.6,8017],[43.6,8092],[43.6,8167],[43.6,8241],[43.6,8316],[43.6,8391],[43.6,8466],[43.6,8541],[43.6,8616],[43.6,8691],[43.6,8766],[43.6,8841],[43.6,8916],[43.6,8991],[43.6,9066],[43.6,9141],[43.6,9216],[43.6,9290],[43.6,9365],[43.6,9441],[43.6,9515],[43.6,9590],[43.6,9665],[43.6,9740],[43.6,9815],[43.6,9890],[43.6,9965],[43.6,10040],[43.6,10115],[43.6,10190],[43.6,10265],[43.6,10340],[43.6,10414],[43.6,10489],[43.6,10565],[43.6,10639],[43.6,10715],[43.6,10789],[43.6,10864],[43.6,10939],[43.6,11014],[43.6,11089],[43.6,11164],[43.6,11239],[43.6,11313],[43.6,11389],[43.6,11464],[43.6,11538],[43.6,11613],[43.6,11688],[43.6,11763],[43.6,11838],[43.6,11913],[43.6,11988],[43.6,12063],[43.6,12138],[43.6,12213],[43.6,12288],[43.6,12363],[43.6,12438],[43.6,12513],[43.6,12587],[43.6,12662],[43.6,12737],[43.6,12812],[43.6,12887],[43.6,12962],[43.6,13037],[43.6,13112],[43.6,13187],[43.6,13262],[43.6,13336],[43.6,13412],[43.6,13487],[43.6,13562],[43.6,13636],[43.6,13711],[43.6,13786],[43.6,13861],[43.6,13936]]",1,0,593.9145,596.9365,43.64583969,2.1413,"[{""rating"":43.64583969116211,""responseTime"":2.141300000190654}]",space,2.4626,,596.9366,Half the time,50,596.9379,,,[],,0,3,3,3,1,audio/Narrative7Situation3.wav,audio/Narrative8Situation3.wav,audio/Narrative5Situation3.wav,audio/Narrative6Situation3.wav,8,4,3,5,,,,,,,,,,,,,,,,,,,,,,,,,,,,,,,,,,,,,
,,,,,,5a6f57166923df0001ef8d02,2024-05-13_10h44.26.994,group3.1-3.2-social-tom,2023.2.2,Win32,40.16064257,65c5074098b851296ff0b7ed,664231f79e310b5127489d4b,,,,,,,,,,,,,,,,,,,,,,,,,,,,,596.9384,2,audio/Narrative5Situation4.wav,597.9604,,597.9605,618.3667,"[[45.3,2547],[48,2622],[49.3,2697],[50.3,2772],[50.9,2847],[52.1,2922],[52.4,2996],[52.4,3071],[52.4,3147],[52.4,3221],[52.4,3296],[52.4,3371],[52.4,3447],[52.4,3521],[52.4,3596],[52.4,3671],[52.4,3746],[52.4,3821],[52.4,3896],[52.4,3971],[52.4,4046],[52.4,4121],[52.4,4196],[52.4,4270],[52.4,4346],[52.4,4420],[55.5,15810],[55.5,15885],[55.5,15960],[55.5,16035],[55.5,16110],[55.5,16184],[55.4,16259],[55.2,16334],[55.2,16409],[55.2,16484],[55.2,16559],[55.2,16634],[55.7,16709],[56.7,16784],[56.9,16859],[56.8,16934],[56.8,17009],[56.8,17083],[56.8,17158],[56.8,17234],[56.8,17308],[56.8,17383],[56.8,17458],[56.8,17533],[56.8,17608],[56.8,17683],[56.8,17758],[56.8,17833],[56.8,17908],[56.8,17983],[56.8,18058],[56.8,18133],[56.8,18207],[56.8,18282],[56.8,18357],[56.8,18432],[56.8,18507],[56.8,18582],[56.8,18657],[56.8,18732],[56.8,18807],[56.8,18884],[56.8,18957],[56.8,19032],[56.8,19107],[56.8,19181],[56.8,19256],[56.8,19331],[56.8,19408],[56.8,19481],[56.8,19556],[56.8,19631],[56.8,19706],[56.8,19781],[56.8,19856],[56.8,19931],[56.8,20006],[56.8,20081],[56.8,20156],[56.8,20231],[56.8,20305],[56.8,20381]]",1,0,618.367,620.5646,56.14583969,1.7973,"[{""rating"":56.14583969116212,""responseTime"":1.797299999713914}]",space,1.6303,,620.5646,Half the time,50,620.5669,,,[],,0,4,4,4,1,audio/Narrative7Situation4.wav,audio/Narrative8Situation4.wav,audio/Narrative5Situation4.wav,audio/Narrative6Situation4.wav,3,3,1,2,,,,,,,,,,,,,,,,,,,,,,,,,,,,,,,,,,,,,
,,,,,,5a6f57166923df0001ef8d02,2024-05-13_10h44.26.994,group3.1-3.2-social-tom,2023.2.2,Win32,40.16064257,65c5074098b851296ff0b7ed,664231f79e310b5127489d4b,,,,,,,,,,,,,,,,,,,,,,,,,,,,,620.568,2,audio/Narrative5Situation5.wav,625.5853,,625.5853,641.0452,"[[56.1,9815],[56.1,9889],[56.1,9965],[56.1,10039],[56.1,10115],[56.1,10190],[56.1,10264],[56.1,10339],[56.1,10414],[56.1,10489],[56.1,10564],[56.1,10639],[56.1,10714],[56.1,10789],[56.1,10864],[56.1,10939],[56.1,11014],[56.1,11089],[56.1,11163],[56.1,11239],[56.1,11313],[56.1,11388],[56.1,11463],[56.1,11538],[56.1,11613],[56.1,11688],[56.1,11763],[56.1,11838],[56.1,11913],[56.1,11988],[56.1,12063],[56.1,12138],[56.1,12213],[56.1,12288],[56.1,12362],[56.1,12437],[56.1,12512],[56.1,12587],[56.1,12662],[56.1,12737],[56.1,12812],[56.1,12887],[56.1,12962],[56.1,13037],[56.1,13112],[56.1,13187],[56.1,13262],[56.1,13337],[56.1,13411],[56.1,13486],[56.1,13561],[56.1,13636],[56.1,13711],[56.1,13786],[56.1,13861],[56.1,13936],[56.1,14011],[56.1,14086],[56.1,14161],[56.1,14235],[56.1,14311],[56.1,14385],[56.1,14460],[56.1,14535],[56.1,14610],[56.1,14685],[56.1,14760],[56.1,14835],[56.1,14910],[56.1,14985],[56.1,15060],[56.1,15135],[56.1,15210],[56.1,15285],[56.1,15360],[56.1,15435]]",1,0,641.0453,642.4441,56.14583969,0.9764,"[{""rating"":56.14583969116212,""responseTime"":0.9764000000953956}]",space,0.8328,,642.4442,Not at all,0,642.4481,,,[],,0,5,5,5,1,audio/Narrative7Situation5.wav,audio/Narrative8Situation5.wav,audio/Narrative5Situation5.wav,audio/Narrative6Situation5.wav,5,2,5,2,,,,,,,,,,,,,,,,,,,,,,,,,,,,,,,,,,,,,
,,,,,,5a6f57166923df0001ef8d02,2024-05-13_10h44.26.994,group3.1-3.2-social-tom,2023.2.2,Win32,40.16064257,65c5074098b851296ff0b7ed,664231f79e310b5127489d4b,,,,,,,,,,,,,,,,,,,,,,,,,,,,,642.4482,2,audio/Narrative5Situation6.wav,645.4663,,645.4663,651.1607,"[[52.5,899],[52.5,974],[52.5,1048],[52.5,1123],[52.5,1198],[52.5,1273],[52.5,1348],[52.5,1423],[52.5,1498],[52.5,1573],[52.5,1648],[52.5,1723],[52.5,1798],[52.5,1873],[52.5,1947],[52.5,2022],[52.5,2097],[52.5,2172],[52.5,2247],[52.5,2322],[52.5,2397],[52.5,2472],[52.5,2547],[52.5,2622],[52.5,2697],[52.5,2772],[52.5,2847],[52.5,2922],[52.5,2996],[52.5,3071],[52.5,3146],[52.5,3221],[52.5,3296],[52.5,3371],[52.5,3446],[52.5,3521],[52.5,3596],[52.5,3671],[52.5,3746],[52.5,3821],[52.5,3896],[52.5,3971],[52.5,4046],[52.5,4121],[52.5,4195],[52.5,4270],[52.5,4346],[52.5,4420],[52.5,4495],[52.5,4570],[52.5,4645],[52.5,4720],[52.5,4795],[52.5,4870],[52.5,4945],[52.5,5020],[52.5,5094],[52.5,5170],[52.5,5244],[52.5,5320],[52.5,5394],[52.5,5469],[52.5,5544],[52.5,5619],[52.5,5694]]",1,0,651.1608,653.4586,52.5,1.7578,"[{""rating"":52.5,""responseTime"":1.7578000001907412}]",space,1.7372,,653.4586,Not at all,0,653.4602,,,[],,0,6,6,6,1,audio/Narrative7Situation6.wav,audio/Narrative8Situation6.wav,audio/Narrative5Situation6.wav,audio/Narrative6Situation6.wav,3,2,3,2,,,,,,,,,,,,,,,,,,,,,,,,,,,,,,,,,,,,,
,,,,,,5a6f57166923df0001ef8d02,2024-05-13_10h44.26.994,group3.1-3.2-social-tom,2023.2.2,Win32,40.16064257,65c5074098b851296ff0b7ed,664231f79e310b5127489d4b,,,,,,,,,,,,,,,,,,,,,,,,,,,,,653.4606,2,audio/Narrative5Situation7.wav,657.4801,,657.4801,678.5355,"[[45.7,4121],[44.8,4196],[44.5,4270],[44.5,4345],[44.5,4420],[44.5,4495],[44.5,4570],[44.5,4645],[44.5,4720],[44.4,4795],[44.4,4870],[44.4,4945],[44.4,5020],[44.4,5095],[44.4,5169],[44.4,5245],[44.4,5319],[44.4,5394],[44.4,5469],[44.4,5544],[44.4,5619],[44.4,5694],[44.4,5769],[44.4,5844],[44.4,5919],[44.4,5994],[44.4,6069],[44.4,6144],[44.4,6218],[44.4,6294],[44.4,6368],[44.4,6443],[44.4,6518],[44.4,6593],[44.4,6668],[44.4,6743],[44.4,6818],[44.4,6893],[44.4,6968],[44.4,7043],[44.4,7118],[44.4,7192],[44.4,7268],[44.4,7342],[44.4,7417],[44.4,7492],[44.4,7567],[44.4,7642],[44.4,7717],[44.4,7792],[44.4,7867],[44.4,7942],[44.4,8017],[44.4,8092],[44.4,8167],[44.4,8242],[44.4,8317],[44.4,8392],[44.4,8466],[44.4,8542],[44.4,8616],[44.4,8692],[44.4,8766],[44.4,8841],[44.4,8916],[44.4,8991],[44.4,9066],[44.4,9141],[44.4,9216],[44.4,9291],[44.4,9366],[44.4,9441],[44.4,9516],[44.4,9591],[44.4,9665],[44.4,9740],[44.4,9815],[44.4,9890],[44.4,9965],[44.4,10040],[44.4,10115],[44.4,10190],[44.4,10265],[44.4,10340],[44.4,10414],[44.4,10489],[44.4,10564],[44.4,10640],[44.4,10714],[44.4,10790],[44.4,10864],[44.4,10939],[44.4,11014],[44.4,11089],[44.4,11164],[44.4,11239],[44.4,11314],[44.4,11389],[44.4,11465],[44.4,11539],[44.4,11614],[44.4,11689],[44.4,11764],[44.4,11838],[44.4,11913],[44.4,11988],[44.4,12063],[44.4,12138],[44.4,12213],[44.4,12288],[44.4,12363],[44.4,12438],[44.4,12513],[44.4,12588],[44.4,12662],[44.4,12737],[44.4,12812],[44.4,12887],[44.4,12962],[44.4,13037],[44.4,13112],[44.4,13187],[44.4,13262],[44.4,13337],[44.4,13412],[44.4,13487],[44.4,13562],[44.4,13637],[44.4,13712],[44.4,13787],[44.4,13862],[44.4,13937],[44.4,14012],[44.4,14086],[44.4,14161],[44.4,14236],[44.4,14311],[44.4,14386],[44.4,14461],[44.4,14536],[44.4,14610],[44.4,14686],[44.4,14761],[44.4,14835],[44.4,14911],[44.4,14985],[44.4,15060],[44.4,15135],[44.4,15210],[44.4,15285],[44.4,15360],[44.4,15435],[44.4,15510],[44.4,15585],[44.4,15660],[44.4,15735],[44.4,15809],[44.4,15884],[44.4,15959],[44.4,16034],[44.4,16109],[44.4,16184],[44.4,16259],[44.4,16334],[44.4,16409],[44.4,16484],[44.4,16559],[44.4,16634],[44.4,16709],[44.4,16784],[44.4,16859],[44.4,16934],[44.4,17008],[44.4,17083],[44.4,17158],[44.4,17233],[44.4,17308],[44.4,17383],[44.4,17458],[44.4,17533],[44.4,17608],[44.4,17683],[44.4,17758],[44.4,17832],[44.4,17907],[44.4,17982],[44.4,18058],[44.4,18132],[44.4,18207],[44.4,18282],[44.4,18357],[44.4,18432],[44.4,18507],[44.4,18582],[44.4,18657],[44.4,18732],[44.4,18806],[44.4,18881],[44.4,18956],[44.4,19032],[44.4,19106],[44.4,19182],[44.4,19256],[44.4,19331],[44.4,19406],[47.7,19483],[48.8,19556],[49.4,19631],[50,19706],[50,19781],[50,19856],[50,19931],[50,20006],[50,20081],[50,20156],[50,20230],[50,20305],[50,20380],[50,20455],[50,20530],[50,20605],[50,20680],[50,20755],[50,20830],[50,20905],[50,20981],[50,21055]]",1,0,678.5357,679.8342,50,0.8558,"[{""rating"":50,""responseTime"":0.8558000001908113}]",space,0.7322,,679.8342,Half the time,50,679.8379,,,[],,0,7,7,7,1,audio/Narrative7Situation7.wav,audio/Narrative8Situation7.wav,audio/Narrative5Situation7.wav,audio/Narrative6Situation7.wav,5,3,4,5,,,,,,,,,,,,,,,,,,,,,,,,,,,,,,,,,,,,,
,,,,,,5a6f57166923df0001ef8d02,2024-05-13_10h44.26.994,group3.1-3.2-social-tom,2023.2.2,Win32,40.16064257,65c5074098b851296ff0b7ed,664231f79e310b5127489d4b,,,,,,,,,,,,,,,,,,,,,,,,,,,,,679.8382,2,audio/Narrative5Situation8.wav,682.8565,,682.8566,691.7229,"[[49.5,1423],[47.3,1498],[46.7,1573],[46,1648],[45.8,1723],[45.7,1797],[45.7,1872],[45.7,1947],[45.7,2022],[45.7,2097],[45.7,2172],[45.7,2247],[45.7,2322],[45.7,2397],[49.9,2472],[53.1,2547],[53.8,2622],[53.8,2696],[54.1,2772],[54.6,2846],[55.8,2921],[55.9,2996],[55.9,3071],[55.9,3146],[56,3221],[56,3296],[56,3371],[56,3446],[56,3521],[56,3596],[56,3670],[56,3745],[56,3821],[56,3896],[56,3970],[56,4045],[56,4120],[56,4195],[56,4271],[56,4345],[56,4420],[56,4495],[56,4570],[56,4645],[56,4720],[56,4795],[56,4870],[56,4945],[56,5019],[56,5094],[56,5169],[56,5244],[56,5319],[56,5394],[56,5469],[56,5544],[56,5619],[56,5694],[56,5769],[56,5844],[56,5919],[56,5994],[56,6068],[56,6143],[56,6218],[56,6293],[56,6368],[56,6443],[56,6518],[56,6593],[56,6668],[56,6743],[56,6818],[56,6893],[56,6968],[56,7043],[56,7117],[56,7192],[56,7267],[56,7342],[56,7417],[56,7492],[56,7567],[56,7642],[56,7717],[56,7792],[56,7867],[56,7942],[56,8017],[56,8091],[56,8167],[56,8241],[56,8316],[56,8391],[56,8466],[56,8541],[56,8616],[56,8691],[56,8766],[56,8841]]",1,0,691.723,693.4964,56.04166985,1.5004,"[{""rating"":56.041669845581055,""responseTime"":1.5004000000952828}]",space,1.2071,,693.4965,Half the time,50,693.498,,,[],,0,8,8,8,1,audio/Narrative7Situation8.wav,audio/Narrative8Situation8.wav,audio/Narrative5Situation8.wav,audio/Narrative6Situation8.wav,2,3,3,5,,,,,,,,,,,,,,,,,,,,,,,,,,,,,,,,,,,,,
,,,,,,5a6f57166923df0001ef8d02,2024-05-13_10h44.26.994,group3.1-3.2-social-tom,2023.2.2,Win32,40.16064257,65c5074098b851296ff0b7ed,664231f79e310b5127489d4b,,,,,,,,,,,,,,,,,,,,,,,,,,,,,693.4989,2,audio/Narrative5Situation9.wav,696.5183,,696.5184,736.0821,"[[57.4,749],[58.6,824],[60.2,899],[60.8,974],[60.9,1049],[60.9,1123],[60.9,1199],[60.9,1274],[60.9,1348],[60.9,1424],[60.9,1498],[60.9,1573],[60.9,1648],[60.9,1723],[60.9,1798],[60.9,1874],[60.9,1948],[60.9,2022],[60.9,2098],[60.9,2172],[60.9,2247],[60.9,2322],[60.9,2397],[60.9,2472],[60.9,2547],[60.9,2622],[60.9,2697],[60.9,2772],[60.9,2847],[60.9,2922],[60.9,2997],[60.9,3072],[60.9,3147],[60.9,3221],[60.9,3296],[60.9,3371],[60.9,3446],[60.9,3521],[60.9,3596],[60.9,3671],[60.9,3746],[60.9,3821],[60.9,3896],[60.9,3971],[60.9,4046],[60.9,4121],[60.9,4196],[60.9,4271],[60.9,4345],[60.9,4420],[60.9,4495],[60.9,4570],[60.9,4645],[60.9,4720],[60.9,4795],[60.9,4870],[60.9,4945],[60.9,5020],[60.9,5095],[60.9,5170],[60.9,5244],[60.9,5319],[60.9,5395],[60.9,5469],[60.9,5544],[60.9,5619],[60.9,5694],[60.9,5769],[60.9,5844],[60.9,5919],[60.9,5994],[60.9,6069],[60.9,6144],[60.9,6219],[60.9,6293],[60.9,6368],[60.9,6444],[60.9,6519],[60.9,6594],[60.9,6668],[60.9,6744],[60.9,6818],[60.9,6893],[60.9,6968],[60.9,7043],[60.9,7118],[60.9,7193],[60.9,7268],[60.9,7343],[60.9,7418],[60.9,7492],[60.9,7567],[60.9,7642],[60.9,7717],[60.9,7792],[60.9,7867],[60.9,7942],[60.9,8018],[60.9,8092],[60.9,8167],[60.9,8242],[60.9,8317],[60.9,8392],[60.9,8467],[60.9,8542],[60.9,8617],[60.9,8691],[60.9,8766],[60.9,8841],[60.9,8916],[60.9,8991],[60.9,9066],[60.9,9141],[60.9,9216],[60.9,9291],[60.9,9366],[60.9,9441],[60.9,9516],[60.9,9591],[60.9,9665],[60.9,9741],[60.9,9816],[60.9,9890],[60.9,9965],[60.9,10040],[60.9,10115],[60.9,10190],[60.9,10265],[60.9,10340],[60.9,10415],[60.9,10490],[60.9,10565],[60.9,10640],[60.9,10714],[60.9,10789],[60.9,10865],[60.9,10939],[60.9,11014],[60.9,11089],[60.9,11164],[60.9,11239],[60.9,11314],[60.9,11389],[60.9,11464],[60.9,11539],[60.9,11613],[60.9,11688],[60.9,11763],[60.9,11839],[60.9,11914],[60.9,11988],[60.9,12064],[60.9,12138],[60.9,12214],[60.9,12288],[60.9,12363],[60.9,12438],[60.9,12513],[60.9,12588],[60.9,12663],[60.9,12738],[60.9,12813],[60.9,12888],[60.9,12963],[60.9,13038],[60.9,13113],[60.9,13187],[60.9,13262],[60.9,13337],[60.9,13412],[60.9,13487],[60.9,13562],[60.9,13637],[60.9,13712],[60.9,13787],[60.9,13862],[60.9,13937],[60.9,14012],[60.9,14087],[60.9,14161],[60.9,14236],[60.9,14311],[60.9,14386],[60.9,14461],[60.9,14536],[60.9,14611],[60.9,14686],[60.9,14761],[60.9,14836],[60.9,14911],[60.9,14985],[60.9,15061],[60.9,15135],[60.9,15211],[60.9,15285],[60.9,15360],[60.9,15435],[60.9,15510],[60.9,15585],[60.9,15660],[60.9,15735],[60.9,15810],[60.9,15885],[60.9,15960],[60.9,16035],[60.9,16110],[60.9,16184],[60.9,16259],[60.9,16334],[60.9,16409],[60.9,16484],[60.9,16559],[60.9,16634],[60.9,16709],[60.9,16784],[60.9,16859],[60.9,16934],[60.9,17009],[60.9,17084],[60.9,17159],[60.9,17233],[60.9,17308],[60.9,17383],[60.9,17458],[60.9,17533],[60.9,17608],[60.9,17683],[60.9,17758],[60.9,17833],[60.9,17908],[60.9,17983],[60.9,18058],[60.9,18133],[60.9,18208],[60.9,18282],[60.9,18357],[60.9,18432],[60.9,18507],[60.9,18582],[60.9,18657],[60.9,18732],[60.9,18807],[60.9,18882],[60.9,18957],[60.9,19032],[60.9,19107],[60.9,19182],[60.9,19257],[60.9,19331],[60.9,19406],[60.9,19482],[60.9,19556],[60.9,19631],[60.9,19706],[60.9,19781],[60.9,19856],[60.9,19931],[60.9,20006],[60.9,20081],[60.9,20156],[60.9,20231],[60.9,20306],[60.9,20381],[60.9,20455],[60.9,20530],[60.9,20605],[60.9,20680],[60.9,20755],[60.9,20830],[60.9,20905],[60.9,20980],[60.9,21055],[60.9,21130],[60.9,21205],[60.9,21280],[60.9,21355],[60.9,21429],[60.9,21504],[60.9,21579],[60.9,21654],[60.9,21729],[60.9,21804],[60.9,21879],[60.9,21954],[60.9,22029],[60.9,22104],[60.9,22179],[60.9,22254],[60.9,22329],[60.9,22403],[60.9,22479],[60.9,22553],[60.9,22628],[60.9,22703],[60.9,22778],[60.9,22853],[63.9,22928],[66.8,23003],[66.8,23078],[66.5,23153],[66.4,23228],[66.4,23303],[66.8,23378],[66.9,23453],[66.9,23528],[66.9,23602],[66.9,23677],[66.9,23752],[66.9,23827],[66.9,23902],[66.9,23977],[66.9,24052],[66.9,24127],[66.9,24202],[66.9,24277],[66.9,24352],[66.9,24427],[66.9,24501],[66.9,24577],[66.9,24652],[66.9,24727],[66.9,24801],[66.9,24876],[66.9,24951],[66.9,25026],[66.9,25101],[66.9,25176],[66.9,25251],[66.9,25326],[66.9,25401],[66.9,25476],[66.9,25551],[66.9,25626],[66.9,25701],[66.9,25775],[66.9,25850],[66.9,25925],[66.9,26000],[66.9,26075],[66.9,26150],[66.9,26225],[66.9,26300],[66.9,26375],[66.9,26450],[66.9,26525],[66.9,26600],[66.9,26675],[66.9,26750],[66.9,26825],[66.9,26899],[66.9,26974],[66.9,27049],[66.9,27124],[66.9,27199],[66.9,27274],[66.9,27350],[66.9,27424],[66.9,27499],[66.9,27574],[66.9,27649],[66.9,27723],[66.9,27799],[66.9,27873],[66.9,27948],[66.9,28023],[66.9,28098],[66.9,28173],[66.9,28248],[66.9,28323],[66.9,28398],[66.9,28473],[66.9,28548],[66.9,28623],[66.9,28698],[66.9,28773],[66.9,28848],[66.9,28922],[66.9,28997],[66.9,29072],[66.9,29147],[66.9,29222],[66.9,29297],[66.9,29372],[66.9,29447],[66.9,29522],[66.9,29597],[66.9,29672],[66.9,29747],[66.9,29822],[66.9,29897],[66.9,29971],[66.9,30047],[66.9,30121],[66.9,30196],[66.9,30272],[66.9,30346],[66.9,30421],[66.9,30496],[66.9,30571],[66.9,30646],[66.9,30721],[66.9,30796],[66.9,30871],[66.9,30946],[66.9,31021],[66.9,31096],[66.9,31171],[66.9,31245],[66.9,31320],[66.9,31395],[66.9,31470],[66.9,31545],[66.9,31620],[66.9,31695],[66.9,31770],[66.9,31845],[66.9,31920],[66.9,31994],[66.9,32070],[66.9,32145],[66.9,32219],[66.9,32294],[66.9,32369],[66.9,32444],[66.9,32519],[66.9,32594],[66.9,32669],[66.9,32744],[66.9,32820],[66.9,32894],[66.9,32969],[66.9,33043],[66.9,33119],[66.9,33193],[66.9,33268],[66.9,33343],[66.9,33418],[66.9,33494],[66.9,33568],[66.9,33643],[66.9,33718],[66.9,33793],[66.9,33868],[66.9,33944],[66.9,34018],[66.9,34093],[66.9,34168],[66.9,34242],[66.9,34318],[66.9,34392],[66.9,34467],[66.9,34542],[66.9,34617],[66.9,34692],[66.9,34767],[66.9,34842],[66.9,34917],[66.9,34992],[66.9,35067],[66.9,35142],[66.9,35217],[66.9,35292],[66.9,35366],[66.9,35442],[66.9,35516],[66.9,35591],[66.9,35666],[66.9,35741],[66.9,35817],[66.9,35891],[66.9,35966],[66.9,36041],[66.9,36116],[66.9,36191],[66.9,36266],[66.9,36341],[66.9,36415],[66.9,36491],[66.9,36565],[66.9,36640],[66.9,36715],[66.9,36791],[66.9,36865],[66.9,36940],[66.9,37015],[66.9,37090],[66.9,37165],[66.9,37240],[66.9,37315],[66.9,37390],[66.9,37465],[66.9,37539],[66.9,37615],[66.9,37690],[66.9,37764],[66.9,37839],[66.9,37914],[66.9,37989],[66.9,38064],[66.9,38139],[66.9,38214],[66.9,38289],[66.9,38364],[66.9,38439],[66.9,38514],[66.9,38589],[66.9,38664],[66.9,38738],[66.9,38813],[66.9,38888],[66.9,38963],[66.9,39038],[66.9,39113],[66.9,39188],[66.9,39263],[66.9,39338],[66.9,39413],[66.9,39488],[66.9,39563]]",1,0,736.0825,740.0526,66.875,3.5698,"[{""rating"":66.875,""responseTime"":3.5698000001906394}]",space,3.409,,740.0526,Half the time,50,740.054,,,[],,0,9,9,9,1,audio/Narrative7Situation9.wav,audio/Narrative8Situation9.wav,audio/Narrative5Situation9.wav,audio/Narrative6Situation9.wav,2,3,3,4,,,,,,,,,,,,,,,,,,,,,,,,,,,,,,,,,,,,,
,,,,,,5a6f57166923df0001ef8d02,2024-05-13_10h44.26.994,group3.1-3.2-social-tom,2023.2.2,Win32,40.16064257,65c5074098b851296ff0b7ed,664231f79e310b5127489d4b,,,,,,,,,,,,,,,,,,,,,,,,,,,,,740.0548,2,audio/Narrative6Situation1.wav,742.076,,742.0761,768.6759,"[[56.4,1723],[51.4,1798],[50.5,1873],[49,1948],[35.9,2023],[25.1,2097],[21,2173],[21,2247],[21,2322],[21,2397],[21,2472],[19.3,2547],[17.9,2622],[16.8,2697],[15.4,2772],[13.8,2847],[13,2922],[13,2996],[13,3071],[13,3146],[13,3221],[13,3296],[13,3371],[13,3446],[13,3521],[13,3596],[13,3671],[13,3746],[13,3821],[13,3896],[28.6,3971],[30.6,4045],[30.9,4121],[31.8,4195],[33.3,4270],[33.8,4345],[34.1,4420],[34.1,4495],[34.1,4570],[34.1,4645],[34.1,4720],[34.1,4795],[34.1,4870],[34.1,4944],[34.1,5020],[34.1,5094],[34.1,5170],[34.1,5244],[34.1,5319],[34.1,5394],[34.1,5469],[34.1,5544],[34.1,5619],[34.1,5694],[34.1,5769],[34.1,5844],[34.1,5919],[34.1,5994],[34.1,6069],[34.1,6144],[34.1,6219],[34.1,6294],[34.1,6368],[34.1,6443],[34.1,6518],[34.1,6594],[34.1,6668],[34.1,6743],[34.1,6818],[34.1,6893],[34.1,6968],[34.1,7043],[34.1,7118],[34.1,7193],[34.1,7267],[34.1,7342],[34.1,7417],[34.1,7492],[34.1,7567],[34.1,7642],[34.1,7717],[34.1,7792],[34.1,7867],[34.1,7942],[34.1,8017],[34.1,8092],[34.1,8166],[34.1,8241],[34.1,8316],[34.1,8392],[34.1,8467],[34.1,8541],[34.4,8616],[35.3,8691],[36.8,8766],[38,8842],[38.8,8916],[39.7,8991],[40,9066],[40,9141],[40,9216],[40,9291],[40.1,9365],[40.1,9441],[40.1,9515],[40.1,9590],[40.1,9666],[40.1,9740],[40.1,9815],[40.1,9890],[40.1,9965],[40.1,10040],[40.1,10115],[40.1,10190],[40.1,10265],[40.1,10340],[40.1,10415],[40.1,10489],[40.1,10565],[40.1,10640],[40.1,10714],[40.1,10789],[40.1,10864],[40.1,10939],[40.1,11014],[40.1,11089],[40.1,11164],[40.1,11239],[40.1,11314],[40.1,11389],[40.1,11464],[40.1,11539],[40.1,11613],[40.1,11688],[40.1,11764],[40.1,11838],[40.1,11913],[41.8,11988],[43.6,12063],[44.1,12138],[44.4,12213],[44.4,12288],[44.6,12363],[44.6,12438],[44.6,12513],[44.6,12588],[44.6,12662],[44.6,12738],[44.6,12812],[44.6,12887],[44.6,12962],[44.6,13037],[44.6,13112],[44.6,13187],[44.6,13262],[44.6,13337],[44.6,13411],[44.6,13487],[44.6,13562],[44.6,13637],[44.6,13712],[44.6,13786],[44.6,13861],[44.6,13936],[44.6,14011],[44.6,14086],[44.6,14161],[44.6,14236],[44.6,14311],[44.6,14386],[44.6,14461],[44.6,14536],[44.6,14611],[44.6,14686],[44.6,14761],[44.6,14836],[44.6,14910],[44.6,14985],[44.6,15060],[44.6,15135],[44.6,15210],[44.6,15285],[44.6,15360],[44.6,15435],[44.6,15510],[44.6,15585],[44.6,15660],[44.6,15735],[44.6,15810],[44.6,15884],[44.6,15959],[44.6,16034],[44.6,16109],[44.6,16184],[44.6,16259],[44.6,16334],[44.6,16409],[44.6,16484],[44.6,16559],[44.6,16634],[44.6,16709],[44.6,16784],[44.6,16858],[44.6,16933],[44.6,17009],[44.6,17083],[44.6,17158],[44.6,17233],[44.6,17308],[44.6,17383],[44.6,17458],[44.6,17533],[44.6,17608],[44.6,17683],[44.6,17758],[44.6,17833],[44.6,17907],[44.6,17982],[44.6,18057],[44.6,18132],[44.6,18207],[44.6,18282],[44.6,18357],[44.6,18432],[44.6,18507],[44.6,18582],[44.6,18657],[44.6,18732],[44.6,18807],[44.6,18882],[44.6,18957],[44.6,19032],[44.6,19106],[44.6,19181],[44.6,19256],[44.6,19331],[44.6,19406],[44.6,19481],[44.6,19556],[44.6,19631],[44.6,19706],[44.6,19781],[44.6,19855],[44.6,19931],[44.6,20005],[44.6,20081],[44.6,20155],[44.6,20230],[44.6,20305],[44.6,20380],[44.6,20456],[44.6,20530],[44.6,20605],[45.7,20680],[46.6,20756],[48.8,20830],[50.8,20905],[52.1,20980],[52.4,21055],[52.5,21129],[52.5,21204],[52.5,21279],[52.5,21354],[52.5,21429],[52.6,21504],[52.6,21579],[52.6,21654],[52.6,21729],[52.6,21804],[52.6,21879],[52.6,21956],[52.6,22029],[52.6,22104],[52.6,22178],[52.6,22253],[52.6,22329],[52.6,22403],[52.6,22478],[52.6,22553],[52.6,22628],[52.6,22703],[52.6,22778],[52.6,22853],[52.6,22928],[52.6,23003],[52.6,23078],[52.6,23153],[52.6,23228],[52.6,23302],[52.6,23377],[52.6,23452],[52.6,23527],[52.6,23603],[52.6,23677],[52.6,23752],[52.6,23827],[52.6,23902],[52.6,23977],[52.6,24052],[52.6,24127],[52.6,24202],[52.6,24277],[52.6,24352],[52.6,24426],[52.6,24501],[52.6,24576],[52.6,24651],[52.6,24726],[52.6,24801],[52.6,24876],[52.6,24951],[52.6,25026],[52.6,25101],[52.6,25176],[52.6,25251],[52.6,25326],[52.6,25401],[52.6,25475],[52.6,25550],[52.6,25626],[52.6,25701],[52.6,25775],[52.6,25850],[52.6,25927],[52.6,26000],[52.6,26075],[52.6,26150],[52.6,26225],[52.6,26300],[52.6,26375],[52.6,26450],[52.6,26525],[52.6,26599]]",1,0,768.6761,772.1727,47.29166985,3.0529,"[{""rating"":52.60416984558105,""responseTime"":2.1042999997139304},{""rating"":47.291669845581055,""responseTime"":3.0529000000954056}]",space,2.9349,,772.1727,Not at all,0,775.4449,0,2.9181,"[{""rating"":0,""responseTime"":2.918099999904598}]",space,0,10,10,10,1,audio/Narrative8Situation1.wav,audio/Narrative7Situation1.wav,audio/Narrative6Situation1.wav,audio/Narrative5Situation1.wav,5,2,2,5,,,2.7036,,,,,,,,,,,,,,,,,,,,,,,,,,,,,,,,,,
,,,,,,5a6f57166923df0001ef8d02,2024-05-13_10h44.26.994,group3.1-3.2-social-tom,2023.2.2,Win32,40.16064257,65c5074098b851296ff0b7ed,664231f79e310b5127489d4b,,,,,,,,,,,,,,,,,,,,,,,,,,,,,775.4454,2,audio/Narrative6Situation2.wav,778.4669,,778.467,806.9904,"[[9.5,1573],[39.2,1648],[40.5,1723],[40.5,1798],[40.5,1873],[40.5,1947],[40.5,2023],[61.3,2098],[62.8,2172],[62.8,2247],[62.8,2322],[62.8,2397],[62.8,2472],[61.4,2547],[60.4,2622],[60.1,2697],[60.1,2772],[60.1,2847],[60.1,2922],[60,2996],[60,3072],[60,3147],[60,3221],[60,3297],[60,3371],[60,3446],[60,3521],[60,3596],[60,3671],[60,3746],[60,3821],[60,3896],[60,3971],[60,4046],[60,4121],[60,4195],[60,4270],[60,4345],[60,4420],[60,4495],[60,4570],[60,4645],[60,4720],[60,4795],[60,4870],[60,4945],[60,5020],[60,5095],[60,5169],[60,5245],[60,5320],[60,5395],[60,5469],[60,5544],[60,5620],[60,5694],[60,5769],[60,5844],[60,5919],[60,5994],[60,6069],[60,6143],[60,6219],[60,6293],[60,6368],[60,6443],[60,6518],[60,6593],[60,6669],[60,6743],[60,6818],[60,6893],[60,6968],[60,7043],[60,7117],[60,7193],[60,7268],[60,7342],[60,7417],[60,7492],[60,7567],[60,7642],[60,7717],[60,7792],[60,7867],[60,7942],[60,8017],[60,8092],[60,8167],[60,8242],[60,8317],[60,8392],[60,8466],[60,8542],[60,8616],[60,8691],[60,8766],[60,8841],[60,8916],[60,8991],[60,9066],[60,9141],[60,9216],[60,9291],[60,9366],[60,9441],[60,9515],[60,9591],[60,9665],[60,9740],[60,9815],[60,9890],[60,9965],[60,10040],[60,10115],[60,10190],[60,10265],[60,10340],[60,10415],[60,10490],[60,10565],[60,10639],[60,10715],[60,10789],[60,10865],[60,10939],[60,11014],[60,11089],[60,11164],[60,11239],[60,11314],[60,11389],[60,11463],[60,11539],[60,11614],[60,11689],[60,11764],[60,11838],[60,11913],[60,11988],[60,12063],[60,12138],[60,12213],[60,12288],[60,12363],[60,12438],[60,12513],[60,12588],[60,12663],[60,12737],[60,12812],[60,12887],[60,12962],[60,13037],[60,13112],[60,13187],[60,13262],[60,13337],[60,13412],[60,13487],[60,13562],[60,13637],[60,13711],[60,13787],[60,13861],[60,13936],[60,14011],[60,14086],[60,14161],[60,14236],[60,14311],[60,14386],[60,14461],[60,14536],[60,14611],[60,14686],[60,14760],[60,14835],[60,14911],[60,14985],[60,15060],[60,15135],[60,15210],[60,15285],[60,15360],[60,15435],[60,15510],[60,15585],[60,15660],[60,15735],[60,15810],[60,15884],[60,15960],[60,16035],[60,16109],[60,16185],[60,16259],[60,16334],[60,16409],[60,16484],[60,16559],[60,16634],[60,16709],[60,16783],[60,16859],[60,16933],[60,17009],[60,17083],[60,17158],[60,17233],[60,17308],[60,17383],[60,17458],[60,17533],[60,17608],[60,17683],[60,17758],[60,17832],[60,17908],[60,17983],[60,18057],[60,18132],[60,18207],[60,18282],[60,18357],[57.1,18433],[56.4,18507],[55.8,18582],[53.8,18657],[52.7,18732],[52.4,18807],[52.1,18882],[52.1,18957],[52.1,19032],[52.1,19106],[52.1,19182],[52.1,19256],[52.1,19331],[52.1,19406],[52.1,19481],[52.1,19556],[52.1,19631],[52.1,19706],[52.1,19781],[52.1,19856],[52.1,19931],[52.1,20006],[52.1,20081],[52.1,20155],[52.1,20231],[52.1,20305],[52.1,20380],[52.1,20455],[52.1,20530],[52.1,20605],[52.1,20680],[52.1,20755],[52.1,20830],[52.1,20905],[52.1,20980],[52.1,21055],[52.1,21130],[52.1,21205],[52.1,21280],[52.1,21354],[52.1,21430],[52.1,21505],[52.1,21579],[52.1,21655],[52.1,21729],[52.1,21804],[52.1,21879],[52.1,21954],[52.1,22029],[52.1,22104],[52.1,22179],[52.1,22254],[52.1,22328],[52.1,22403],[52.1,22478],[52.1,22553],[52.1,22628],[52.1,22703],[52.1,22778],[52.1,22853],[52.1,22928],[52.1,23003],[52.1,23078],[52.1,23153],[52.1,23227],[52.1,23303],[52.1,23378],[52.1,23453],[52.1,23527],[52.1,23603],[52.1,23677],[52.1,23752],[52.1,23827],[52.1,23902],[52.1,23977],[52.1,24052],[52.1,24127],[52.1,24202],[52.1,24277],[52.1,24351],[52.1,24427],[52.1,24502],[52.1,24577],[52.1,24651],[52.1,24726],[52.1,24801],[52.1,24876],[52.1,24951],[52.1,25026],[52.1,25101],[52.1,25176],[52.1,25251],[52.1,25326],[52.1,25401],[52.1,25475],[52.1,25550],[52.1,25625],[52.1,25700],[52.1,25775],[52.1,25850],[52.1,25925],[52.1,26000],[52.1,26075],[52.1,26150],[52.1,26225],[52.1,26300],[52.1,26375],[52.1,26450],[52.1,26525],[52.1,26599],[52.1,26675],[52.1,26749],[52.1,26825],[52.1,26899],[52.1,26974],[52.1,27049],[52.1,27124],[52.1,27199],[52.1,27274],[52.1,27349],[52.1,27424],[52.1,27499],[52.1,27573],[52.1,27649],[52.1,27724],[52.1,27798],[52.1,27873],[52.1,27948],[52.1,28023],[52.1,28098],[52.1,28173],[52.1,28248],[52.1,28323],[52.1,28398],[52.1,28473]]",1,0,806.9905,809.3883,52.08333969,2.127,"[{""rating"":52.08333969116211,""responseTime"":2.1270000000000664}]",space,1.8253,,809.3884,All the time,100,809.3934,,,[],,0,11,11,11,1,audio/Narrative8Situation2.wav,audio/Narrative7Situation2.wav,audio/Narrative6Situation2.wav,audio/Narrative5Situation2.wav,3,3,3,3,,,,,,,,,,,,,,,,,,,,,,,,,,,,,,,,,,,,,
,,,,,,5a6f57166923df0001ef8d02,2024-05-13_10h44.26.994,group3.1-3.2-social-tom,2023.2.2,Win32,40.16064257,65c5074098b851296ff0b7ed,664231f79e310b5127489d4b,,,,,,,,,,,,,,,,,,,,,,,,,,,,,809.3937,2,audio/Narrative6Situation3.wav,814.4085,,814.4085,827.0468,"[[53.5,4270],[55.3,4345],[55.8,4420],[55.9,4495],[55.9,4570],[55.9,4645],[55.9,4720],[55.9,4795],[55.9,4870],[55.9,4945],[55.9,5020],[55.9,5094],[55.9,5169],[55.9,5244],[55.9,5319],[55.9,5394],[55.9,5469],[55.9,5544],[55.9,5619],[55.9,5694],[55.9,5769],[55.9,5844],[55.9,5919],[55.9,5994],[55.9,6069],[55.9,6144],[55.9,6218],[55.9,6293],[55.9,6368],[55.9,6443],[55.9,6518],[55.9,6593],[55.9,6668],[55.9,6743],[55.9,6818],[55.9,6893],[55.9,6968],[55.9,7043],[55.9,7118],[55.9,7193],[55.9,7267],[55.9,7342],[55.9,7417],[55.9,7492],[55.9,7567],[55.9,7642],[55.9,7717],[55.9,7793],[55.9,7867],[55.9,7942],[55.9,8017],[55.9,8092],[55.9,8167],[55.9,8242],[55.9,8317],[55.9,8392],[55.9,8467],[55.9,8541],[55.9,8616],[55.9,8691],[55.9,8766],[55.9,8841],[55.9,8916],[55.9,8991],[55.9,9066],[55.9,9141],[55.9,9216],[55.9,9291],[55.9,9365],[55.9,9441],[55.9,9515],[55.9,9591],[55.9,9665],[55.9,9740],[55.9,9815],[55.9,9890],[55.9,9965],[55.9,10040],[55.9,10115],[55.9,10190],[55.9,10264],[55.9,10340],[55.9,10414],[55.9,10490],[55.9,10564],[55.9,10639],[55.9,10714],[55.9,10789],[55.9,10864],[55.9,10939],[55.9,11014],[55.9,11089],[55.9,11164],[55.9,11239],[55.9,11313],[55.9,11389],[55.9,11463],[55.9,11538],[55.9,11613],[55.9,11688],[55.9,11763],[55.9,11838],[55.9,11913],[55.9,11988],[55.9,12063],[55.9,12138],[55.9,12213],[55.9,12288],[55.9,12363],[55.9,12438],[55.9,12513],[55.9,12588]]",1,0,827.0468,828.8451,55.9375,1.6041,"[{""rating"":55.93749999999999,""responseTime"":1.6040999999046335}]",space,1.2217,,828.8452,Not at all,0,828.8496,,,[],,0,12,12,12,1,audio/Narrative8Situation3.wav,audio/Narrative7Situation3.wav,audio/Narrative6Situation3.wav,audio/Narrative5Situation3.wav,4,8,5,3,,,,,,,,,,,,,,,,,,,,,,,,,,,,,,,,,,,,,
,,,,,,5a6f57166923df0001ef8d02,2024-05-13_10h44.26.994,group3.1-3.2-social-tom,2023.2.2,Win32,40.16064257,65c5074098b851296ff0b7ed,664231f79e310b5127489d4b,,,,,,,,,,,,,,,,,,,,,,,,,,,,,828.8498,2,audio/Narrative6Situation4.wav,830.8683,,830.8683,843.5061,"[[56.3,1123],[56.3,1198],[56.3,1273],[56.3,1348],[56.3,1423],[56.3,1498],[56.3,1572],[59.5,1648],[61.3,1722],[61.6,1797],[61.6,1873],[61.6,1947],[61.6,2022],[61.6,2097],[61.7,2172],[61.7,2247],[61.7,2322],[61.7,2397],[61.7,2472],[61.7,2547],[61.7,2622],[61.7,2697],[61.7,2772],[61.7,2846],[61.7,2921],[61.7,2996],[61.7,3071],[61.7,3146],[61.7,3221],[61.7,3296],[61.7,3371],[61.7,3446],[61.7,3521],[61.7,3596],[61.7,3671],[61.7,3746],[61.7,3821],[61.7,3895],[61.7,3970],[61.7,4045],[61.7,4120],[61.7,4195],[61.7,4270],[61.7,4345],[61.7,4420],[61.7,4495],[61.7,4570],[61.7,4645],[61.7,4720],[61.7,4795],[61.7,4870],[61.7,4944],[61.7,5019],[61.7,5094],[61.7,5169],[61.7,5244],[61.7,5319],[61.7,5394],[61.7,5469],[61.7,5544],[61.7,5619],[61.7,5694],[61.7,5769],[61.7,5844],[61.7,5919],[61.7,5993],[61.7,6068],[61.7,6144],[61.7,6218],[61.7,6293],[61.7,6368],[61.7,6443],[61.7,6518],[61.7,6593],[61.7,6668],[61.7,6743],[61.7,6817],[61.7,6893],[61.7,6967],[61.7,7043],[61.7,7118],[61.7,7192],[61.7,7267],[61.7,7342],[61.7,7417],[61.7,7492],[61.7,7567],[61.7,7642],[61.7,7717],[61.7,7792],[61.7,7867],[61.7,7942],[61.7,8017],[61.7,8092],[61.7,8167],[61.7,8241],[61.7,8316],[61.7,8391],[61.7,8466],[61.7,8541],[61.7,8616],[61.7,8691],[61.7,8766],[61.7,8841],[61.7,8916],[61.7,8991],[61.7,9065],[61.7,9141],[61.7,9216],[61.7,9290],[61.7,9365],[61.7,9440],[61.7,9515],[61.7,9590],[61.7,9665],[61.7,9740],[61.7,9815],[61.7,9890],[61.7,9965],[61.7,10040],[61.7,10115],[61.7,10190],[61.7,10264],[61.7,10339],[61.7,10414],[61.7,10489],[61.7,10564],[61.7,10639],[61.7,10714],[61.7,10789],[61.7,10864],[61.7,10939],[61.7,11014],[61.7,11089],[61.7,11164],[61.7,11239],[61.7,11313],[61.7,11389],[61.7,11463],[61.7,11538],[61.7,11613],[61.7,11688],[61.7,11763],[61.7,11838],[61.7,11913],[61.7,11988],[61.7,12063],[61.7,12138],[61.7,12213],[61.7,12288],[61.7,12362],[61.7,12437],[61.7,12513],[61.7,12587]]",1,0,843.5062,846.2288,61.66666985,2.7005,"[{""rating"":61.666669845581055,""responseTime"":2.7005000000000337}]",space,0.3492,,846.2289,Half the time,50,846.2328,,,[],,0,13,13,13,1,audio/Narrative8Situation4.wav,audio/Narrative7Situation4.wav,audio/Narrative6Situation4.wav,audio/Narrative5Situation4.wav,3,3,2,1,,,,,,,,,,,,,,,,,,,,,,,,,,,,,,,,,,,,,
,,,,,,5a6f57166923df0001ef8d02,2024-05-13_10h44.26.994,group3.1-3.2-social-tom,2023.2.2,Win32,40.16064257,65c5074098b851296ff0b7ed,664231f79e310b5127489d4b,,,,,,,,,,,,,,,,,,,,,,,,,,,,,846.233,2,audio/Narrative6Situation5.wav,848.252,,848.252,856.2443,"[[61.7,4720],[61.7,4795],[61.7,4870],[61.7,4945],[61.7,5020],[61.7,5094],[61.7,5169],[61.7,5244],[61.7,5320],[61.7,5394],[61.7,5469],[61.7,5544],[61.7,5619],[61.7,5694],[61.7,5769],[61.7,5844],[61.7,5919],[61.7,5994],[61.7,6069],[61.7,6144],[61.7,6218],[61.7,6294],[61.7,6368],[61.7,6443],[61.7,6518],[61.7,6593],[61.7,6668],[61.7,6743],[61.7,6818],[61.7,6893],[61.7,6968],[61.7,7043],[61.7,7118],[61.7,7192],[61.7,7267],[61.7,7342],[61.7,7417],[61.7,7492],[61.7,7567],[61.7,7642],[61.7,7717],[61.7,7792],[61.7,7867],[61.7,7942]]",1,0,856.2445,858.1424,61.66666985,1.5284,"[{""rating"":61.666669845581055,""responseTime"":1.5284000000954165}]",space,1.3402,,858.1424,All the time,100,858.1468,,,[],,0,14,14,14,1,audio/Narrative8Situation5.wav,audio/Narrative7Situation5.wav,audio/Narrative6Situation5.wav,audio/Narrative5Situation5.wav,2,5,2,5,,,,,,,,,,,,,,,,,,,,,,,,,,,,,,,,,,,,,
,,,,,,5a6f57166923df0001ef8d02,2024-05-13_10h44.26.994,group3.1-3.2-social-tom,2023.2.2,Win32,40.16064257,65c5074098b851296ff0b7ed,664231f79e310b5127489d4b,,,,,,,,,,,,,,,,,,,,,,,,,,,,,858.147,2,audio/Narrative6Situation6.wav,860.1658,,860.1659,871.2803,"[[62.3,1273],[64.4,1349],[65.4,1423],[65.8,1497],[66.5,1573],[66.6,1648],[66.8,1723],[66.9,1798],[67.4,1872],[67.4,1947],[67.4,2022],[67.4,2097],[67.4,2172],[67.4,2247],[67.4,2322],[67.4,2397],[67.4,2472],[67.4,2547],[67.4,2622],[67.4,2697],[67.4,2771],[67.4,2846],[67.4,2922],[67.4,2996],[67.4,3072],[67.4,3146],[67.4,3221],[67.4,3296],[67.4,3371],[67.4,3446],[67.4,3521],[67.4,3596],[67.4,3671],[67.4,3746],[67.4,3821],[67.4,3896],[67.4,3970],[67.4,4045],[67.4,4120],[67.4,4195],[67.4,4270],[67.4,4345],[67.4,4420],[67.4,4495],[67.4,4570],[67.4,4645],[67.4,4720],[67.4,4794],[67.4,4870],[67.4,4945],[67.4,5019],[67.4,5095],[67.4,5169],[67.4,5244],[67.4,5319],[67.4,5394],[67.4,5469],[67.4,5544],[67.4,5619],[67.4,5694],[67.4,5769],[67.4,5844],[67.4,5919],[67.4,5994],[67.4,6068],[67.4,6144],[67.4,6218],[67.4,6293],[67.4,6368],[67.4,6443],[67.4,6518],[67.4,6593],[67.4,6668],[67.4,6743],[67.4,6818],[67.4,6893],[67.4,6967],[67.4,7042],[67.4,7118],[67.4,7192],[67.4,7267],[67.4,7342],[67.4,7417],[67.4,7492],[67.4,7567],[67.4,7642],[67.4,7717],[67.4,7792],[67.4,7867],[67.4,7942],[67.4,8017],[67.4,8091],[67.4,8166],[67.4,8241],[67.4,8316],[67.4,8391],[67.4,8466],[67.4,8541],[67.4,8616],[67.4,8691],[67.4,8766],[67.4,8841],[67.4,8916],[67.4,8991],[67.4,9066],[67.4,9140],[67.4,9216],[67.4,9290],[67.4,9366],[67.4,9440],[67.4,9515],[67.4,9590],[67.4,9665],[67.4,9740],[67.4,9815],[67.4,9890],[67.4,9965],[67.4,10040],[67.4,10115],[67.4,10190],[67.4,10264],[67.4,10340],[67.4,10414],[67.4,10489],[67.4,10564],[67.4,10639],[67.4,10714],[67.4,10789],[67.4,10864],[67.4,10939],[67.4,11014],[67.4,11089]]",1,0,871.2804,873.3783,69.0625,1.823,"[{""rating"":69.0625,""responseTime"":1.822999999999979}]",space,1.5381,,873.3784,Not at all,0,873.3822,,,[],,0,15,15,15,1,audio/Narrative8Situation6.wav,audio/Narrative7Situation6.wav,audio/Narrative6Situation6.wav,audio/Narrative5Situation6.wav,2,3,2,3,,,,,,,,,,,,,,,,,,,,,,,,,,,,,,,,,,,,,
