exp_question,consent.started,consent.stopped,consentResponse.keys,consentResponse.rt,consentResponse.duration,participantID,date,expName,psychopyVersion,OS,frameRate,STUDY_ID,SESSION_ID,opening1.started,opening1.stopped,keyEndingOpening1.keys,keyEndingOpening1.rt,keyEndingOpening1.duration,volumeAdjust.started,volumeAdjust.stopped,endingAdjust.keys,endingAdjust.rt,endingAdjust.duration,opening2.started,opening2.stopped,keyEndingOpening.keys,keyEndingOpening.rt,keyEndingOpening.duration,mouse.x,mouse.y,mouse.leftButton,mouse.midButton,mouse.rightButton,mouse.time,instructionLoop.thisRepN,instructionLoop.thisTrialN,instructionLoop.thisN,instructionLoop.thisIndex,instructionLoop.ran,readyForAudio.started,readyForAudio.stopped,fixation.started,run,audio_played,fixation.stopped,endPractice.keys,audioPre.started,audioPre.stopped,continuousResponses_audio,continuousSlider.response,continuousSlider.rt,intRating.started,intRating.stopped,intQuestionSlider.response,intQuestionSlider.rt,intQuestionSlider.history,confirmResponse.keys,confirmResponse.rt,confirmResponse.duration,catchQuestion.started,catch_label,catch_value,catchQuestion.stopped,catchQuestionSlider.response,catchQuestionSlider.rt,catchQuestionSlider.history,confirmResponse_2.keys,audioRunLoop.thisRepN,audioRunLoop.thisTrialN,audioRunLoop.thisN,audioRunLoop.thisIndex,audioRunLoop.ran,conditions1_1,conditions2_1,conditions1_2,conditions2_2,dur1_1,dur2_1,dur1_2,dur2_2,endPractice.rt,endPractice.duration,confirmResponse_2.rt,confirmResponse_2.duration,runIntervalBreak.started,runIntervalBreak.stopped,endingBreakKey.keys,endingBreakKey.rt,endingBreakKey.duration,connection.started,connection.stopped,connectionEnding.keys,connectionEnding.rt,connectionEnding.duration,readyForText.started,readyForText.stopped,textPre.started,run_dup,textPre.stopped,continuousResponses_text,textRunLoop.thisRepN,textRunLoop.thisTrialN,textRunLoop.thisN,textRunLoop.thisIndex,textRunLoop.ran,text1_1,text1_2,text2_1,text2_2,runBreakText.started,runBreakText.stopped,endingBreakKey_2.keys,endingBreakKey_2.rt,endingBreakKey_2.duration,ending.started,ending.stopped,endingEnding.keys,endingEnding.rt,endingEnding.duration
social,0.0003,3.7912,y,3.4657,,5ac16e870527ba0001c1f27e,2024-02-08_15h32.02.831,group3.1-3.2-social-tom,2023.2.2,Win32,59.17159763,65c5074098b851296ff0b7ed,65c5414bd2f8aa0fa8538463,,,,,,,,,,,,,,,,,,,,,,,,,,,,,,,,,,,,,,,,,,,,,,,,,,,,,,,,,,,,,,,,,,,,,,,,,,,,,,,,,,,,,,,,,,,,,,,,,,,,,,,,,,
,,,,,,5ac16e870527ba0001c1f27e,2024-02-08_15h32.02.831,group3.1-3.2-social-tom,2023.2.2,Win32,59.17159763,65c5074098b851296ff0b7ed,65c5414bd2f8aa0fa8538463,3.7914,10.6862,space,6.8618,,,,,,,,,,,,,,,,,,,,,,,,,,,,,,,,,,,,,,,,,,,,,,,,,,,,,,,,,,,,,,,,,,,,,,,,,,,,,,,,,,,,,,,,,,,,,,,,,,,,,,
,,,,,,5ac16e870527ba0001c1f27e,2024-02-08_15h32.02.831,group3.1-3.2-social-tom,2023.2.2,Win32,59.17159763,65c5074098b851296ff0b7ed,65c5414bd2f8aa0fa8538463,,,,,,10.6863,16.0868,space,5.0551,,,,,,,,,,,,,,,,,,,,,,,,,,,,,,,,,,,,,,,,,,,,,,,,,,,,,,,,,,,,,,,,,,,,,,,,,,,,,,,,,,,,,,,,,,,,,,,,,
,,,,,,5ac16e870527ba0001c1f27e,2024-02-08_15h32.02.831,group3.1-3.2-social-tom,2023.2.2,Win32,59.17159763,65c5074098b851296ff0b7ed,65c5414bd2f8aa0fa8538463,,,,,,,,,,,16.0932,27.7361,space,11.6174,,[],[],[],[],[],[],0,0,0,0,1,,,,,,,,,,,,,,,,,,,,,,,,,,,,,,,,,,,,,,,,,,,,,,,,,,,,,,,,,,,,,,,,,,,,,,,,,,,,,,,,
,,,,,,5ac16e870527ba0001c1f27e,2024-02-08_15h32.02.831,group3.1-3.2-social-tom,2023.2.2,Win32,59.17159763,65c5074098b851296ff0b7ed,65c5414bd2f8aa0fa8538463,,,,,,,,,,,27.7365,30.3356,space,2.5318,,[],[],[],[],[],[],1,0,1,0,1,,,,,,,,,,,,,,,,,,,,,,,,,,,,,,,,,,,,,,,,,,,,,,,,,,,,,,,,,,,,,,,,,,,,,,,,,,,,,,,,
,,,,,,5ac16e870527ba0001c1f27e,2024-02-08_15h32.02.831,group3.1-3.2-social-tom,2023.2.2,Win32,59.17159763,65c5074098b851296ff0b7ed,65c5414bd2f8aa0fa8538463,,,,,,,,,,,30.3358,46.5518,space,16.1782,,[],[],[],[],[],[],2,0,2,0,1,,,,,,,,,,,,,,,,,,,,,,,,,,,,,,,,,,,,,,,,,,,,,,,,,,,,,,,,,,,,,,,,,,,,,,,,,,,,,,,,
,,,,,,5ac16e870527ba0001c1f27e,2024-02-08_15h32.02.831,group3.1-3.2-social-tom,2023.2.2,Win32,59.17159763,65c5074098b851296ff0b7ed,65c5414bd2f8aa0fa8538463,,,,,,,,,,,46.5521,51.8187,space,5.2359,,[],[],[],[],[],[],3,0,3,0,1,,,,,,,,,,,,,,,,,,,,,,,,,,,,,,,,,,,,,,,,,,,,,,,,,,,,,,,,,,,,,,,,,,,,,,,,,,,,,,,,
,,,,,,5ac16e870527ba0001c1f27e,2024-02-08_15h32.02.831,group3.1-3.2-social-tom,2023.2.2,Win32,59.17159763,65c5074098b851296ff0b7ed,65c5414bd2f8aa0fa8538463,,,,,,,,,,,51.8241,74.3188,space,22.4708,,[],[],[],[],[],[],4,0,4,0,1,,,,,,,,,,,,,,,,,,,,,,,,,,,,,,,,,,,,,,,,,,,,,,,,,,,,,,,,,,,,,,,,,,,,,,,,,,,,,,,,
,,,,,,5ac16e870527ba0001c1f27e,2024-02-08_15h32.02.831,group3.1-3.2-social-tom,2023.2.2,Win32,59.17159763,65c5074098b851296ff0b7ed,65c5414bd2f8aa0fa8538463,,,,,,,,,,,,,,,,,,,,,,,,,,,74.3431,76.918,76.9303,1,audio/Narrative13Situation2.wav,78.9345,,78.9346,108.6843,"[[100,1000],[100,1083],[85.8,1166],[49.9,1750],[49.6,1833],[49,1917],[48.3,1999],[48.3,2083],[48.4,2166],[48.4,2249],[48.4,2333],[48.6,2416],[48.8,2499],[48.6,2583],[43.6,2666],[33.1,2749],[27.8,2833],[19.3,2916],[12.4,3000],[7.6,3083],[1.3,3166],[0.4,8333],[0.6,8416],[0.6,8499],[2,8583],[8.8,8666],[21.3,8749],[38.8,8834],[51.3,8917],[57.7,8999],[60.6,9083],[64.3,9166],[66.6,9249],[68.3,9334],[70.4,9417],[71.9,9499],[73.1,9583],[73.8,9666],[74.4,9749],[76.3,9833],[76.5,9916],[76.5,9999],[76.5,10082],[76.5,10166],[76.5,10249],[76.5,10332],[76.5,10416],[76.6,10499],[76.6,10583],[76.6,10666],[76.6,10749],[76.6,10832],[76.6,10916],[76.6,10999],[76.6,11082],[76.6,11166],[76.6,11249],[76.6,11333],[76.6,11416],[76.6,11499],[76.6,11583],[76.6,11666],[76.6,11749],[76.6,11832],[76.7,11916],[76.8,11999],[77,12082],[77.1,12166],[77.4,12249],[77.8,12332],[78.6,12416],[79.3,12500],[79.7,12582],[80.2,12666],[80.5,12749],[80.6,12833],[80.6,12916],[80.6,12999],[80.6,13082],[80.6,13166],[80.6,13249],[80.6,13332],[80.6,13416],[80.6,13499],[80.6,13583],[80.6,13666],[80.6,13749],[80.6,13832],[80.6,13916],[80.7,13999],[81,14082],[81.1,14166],[81.1,14249],[81.1,14333],[81.1,14416],[81.1,14499],[81.1,14582],[81.1,14666],[81.3,14749],[82,14833],[82.4,14916],[82.5,14999],[82.6,15082],[82.8,15166],[83.2,15249],[83.4,15332],[83.9,15416],[83.9,15499],[83.9,15582],[83.9,15666],[83.9,15749],[83.5,15833],[81.4,15916],[77.7,15999],[69.3,16083],[63.8,16166],[57.6,16249],[44.9,16332],[32.6,16416],[27.1,16500],[17,16583],[9.2,16666],[7,16749],[3.5,16833],[3,16916],[1.9,16999],[0.2,17083]]",1,0,108.6845,113.534,50,3.4203,"[{""rating"":50,""responseTime"":3.4203000000007364}]",space,4.2994,,113.5342,Not at all,0,113.5366,,,[],,0,0,0,0,1,audio/Narrative13Situation2.wav,audio/Narrative13Situation2.wav,audio/Narrative13Situation2.wav,audio/Narrative13Situation2.wav,2,2,2,2,,,,,,,,,,,,,,,,,,,,,,,,,,,,,,,,,,,,,,,
,,,,,,5ac16e870527ba0001c1f27e,2024-02-08_15h32.02.831,group3.1-3.2-social-tom,2023.2.2,Win32,59.17159763,65c5074098b851296ff0b7ed,65c5414bd2f8aa0fa8538463,,,,,,,,,,,,,,,,,,,,,,,,,,,,,113.5367,1,audio/Narrative8Situation1.wav,116.0676,space,116.068,132.0002,"[[47.3,915],[43.6,999],[31.9,1082],[21.6,1165],[15.3,1249],[8.9,1332],[5.5,1415],[5.3,1499],[4.9,1582],[3,1665],[1.4,1749],[1,1832],[1,1915],[0.7,1999],[2,5832],[5.6,5915],[5.8,5998],[5.2,6082],[4.2,6165],[1.1,6248],[0.4,6332],[6.7,10165],[12.4,10248],[13.4,10332],[15.3,10415],[19.8,10498],[31.5,10582],[36,10665],[37.4,10748],[40,10832],[42.1,10915],[42.2,10998],[43.5,11082],[47,11165],[47.5,11248],[48.8,11332],[50.5,11415],[50.5,11498],[50.5,11581],[50.5,11665],[50.5,11748],[50.5,11832],[50.5,11915],[50.5,11998],[50.5,12082],[50.5,12165],[50.5,12248],[50.5,12332],[50.4,12415],[50.3,12498],[50.3,12581],[50.3,12665],[50.3,12748],[50.3,12832],[50.3,12915],[50.3,12998],[50.3,13082],[50.3,13165],[50.3,13248],[50.3,13331],[50.3,13415],[50.3,13498],[50.3,13582],[50.3,13665],[50.3,13748],[50.3,13832],[50.3,13915],[50.3,13998],[50.3,14081],[50.3,14165],[50.3,14248],[50.3,14331],[50.3,14415],[50.3,14498],[50.3,14581],[50.3,14665],[50.3,14748],[50.3,14832],[50.2,14915],[50,14998],[49.6,15082],[47.4,15165],[45.6,15249],[42,15332],[34.9,15416],[27.2,15499],[21,15582],[14.9,15665],[14,15748],[10.2,15832],[5.9,15915]]",1,0,132.0004,136.1167,49.375,2.671,"[{""rating"":49.375,""responseTime"":2.6709999999999923}]",space,3.5934,,136.1167,Partially,50,136.1183,,,[],,0,1,1,1,1,audio/Narrative7Situation1.wav,audio/Narrative8Situation1.wav,audio/Narrative5Situation1.wav,audio/Narrative6Situation1.wav,2,5,5,2,2.521,,,,,,,,,,,,,,,,,,,,,,,,,,,,,,,,,,,,,,
,,,,,,5ac16e870527ba0001c1f27e,2024-02-08_15h32.02.831,group3.1-3.2-social-tom,2023.2.2,Win32,59.17159763,65c5074098b851296ff0b7ed,65c5414bd2f8aa0fa8538463,,,,,,,,,,,,,,,,,,,,,,,,,,,,,136.1184,1,audio/Narrative8Situation2.wav,139.1332,,139.1332,149.2497,"[[39,333],[30,416],[23.5,500],[12.8,583],[5.6,666],[5.1,750],[4.1,834]]",1,0,149.2498,152.1665,0.729166667,1.1212,"[{""rating"":0.7291666666666641,""responseTime"":1.1212000000029718}]",space,2.3927,,152.1665,Partially,50,152.1675,,,[],,0,2,2,2,1,audio/Narrative7Situation2.wav,audio/Narrative8Situation2.wav,audio/Narrative5Situation2.wav,audio/Narrative6Situation2.wav,3,3,3,3,,,,,,,,,,,,,,,,,,,,,,,,,,,,,,,,,,,,,,,
,,,,,,5ac16e870527ba0001c1f27e,2024-02-08_15h32.02.831,group3.1-3.2-social-tom,2023.2.2,Win32,59.17159763,65c5074098b851296ff0b7ed,65c5414bd2f8aa0fa8538463,,,,,,,,,,,,,,,,,,,,,,,,,,,,,152.1677,1,audio/Narrative8Situation3.wav,156.1891,,156.1891,178.5824,"[[1.9,166],[2,249],[2,326],[2,417],[2,493],[0.2,582],[3.5,5499],[5,5582],[5.5,5666],[5.5,5743],[5.5,5827],[5.5,5910],[4.3,5999],[1.1,6082],[0.7,8993],[6,9082],[13.5,9166],[20.7,9248],[26.6,9332],[30.7,9415],[33.3,9498],[36.5,9582],[40.8,9666],[43,9743],[45.5,9832],[47.7,9916],[48.8,9998],[50.1,10082],[50.2,10165],[50.2,10247],[50.2,10327],[50.2,10410],[50.2,10493],[50.2,10577],[50.2,10665],[50.2,10743],[50.2,10827],[50.2,10910],[50.2,10993],[50.2,11076],[50.2,11160],[50.2,11243],[50.2,11326],[50.2,11415],[50.2,11499],[50.2,11576],[50.2,11665],[50.2,11743],[50.2,11826],[50.2,11915],[50.2,11993],[50.2,12076],[50.2,12165],[50.2,12248],[50.2,12331],[50.2,12415],[50.2,12498],[50.2,12581],[50.2,12660],[50.2,12748],[50.2,12826],[50.2,12910],[50.2,12993],[50.2,13076],[50.2,13165],[50.4,13243],[50.5,13326],[51.8,13415],[52.4,13498],[52.8,13576],[53.9,13665],[55.4,13748],[57,13832],[59.2,13911],[61.5,13998],[62.9,14082],[64.4,14165],[65.6,14248],[66.7,14332],[68.4,14415],[69.4,14498],[70.3,14582],[71.1,14665],[72.1,14748],[75.1,14831],[77.5,14915],[77.6,14993],[77.6,15076],[77.6,15164],[77.4,15243],[77.1,15331],[76.4,15415],[75.7,15498],[75.5,15576],[75.3,15665],[75.1,15743],[75,15832],[74.9,15910],[74.8,15998],[74.8,16082],[74.8,16159],[74.8,16246],[74.8,16326],[74.8,16410],[74.8,16498],[74.8,16576],[74.8,16660],[74.8,16743],[74.8,16826],[74.8,16915],[74.8,16993],[74.8,17081],[74.8,17165],[74.6,17248],[74.4,17326],[74.3,17409],[74.3,17493],[74.2,17582],[74.2,17664],[74.2,17743],[74.2,17826],[75,17915],[76.7,17996],[77.5,18082],[77.7,18165],[78.2,18248],[78.6,18326],[79.4,18415],[80.3,18493],[81.4,18582],[83.6,18665],[84.8,18743],[85.8,18832],[86.4,18915],[86.5,18993],[86.5,19076],[86.7,19165],[86.7,19249],[87.6,19332],[89.2,19415],[89.2,19493],[89.2,19576],[89.2,19660],[89.1,19743],[88.2,19832],[86.7,19909],[84.9,19998],[82,20081],[79.6,20165],[77,20249],[75.8,20326],[75.8,20415],[75.8,20493],[75.8,20576],[75.8,20664],[75.8,20743],[75.8,20826],[75.8,20909],[75.8,20993],[75.8,21082],[75.8,21159],[75.8,21243],[75.8,21331],[75.6,21409],[75.4,21493],[75.4,21582],[75.4,21664],[75.4,21743],[75.4,21826],[75.4,21915],[75.4,21998],[75.4,22082],[75.4,22165],[75.4,22243],[75.4,22326]]",1,0,178.5824,181.4879,72.91666667,1.9057,"[{""rating"":72.91666666666666,""responseTime"":1.9056999999992286}]",space,2.3662,,181.4879,Partially,50,181.4887,,,[],,0,3,3,3,1,audio/Narrative7Situation3.wav,audio/Narrative8Situation3.wav,audio/Narrative5Situation3.wav,audio/Narrative6Situation3.wav,8,4,3,5,,,,,,,,,,,,,,,,,,,,,,,,,,,,,,,,,,,,,,,
,,,,,,5ac16e870527ba0001c1f27e,2024-02-08_15h32.02.831,group3.1-3.2-social-tom,2023.2.2,Win32,59.17159763,65c5074098b851296ff0b7ed,65c5414bd2f8aa0fa8538463,,,,,,,,,,,,,,,,,,,,,,,,,,,,,181.4888,1,audio/Narrative8Situation4.wav,184.4989,,184.4989,198.6653,"[[17.1,88],[10.2,172],[8.5,249],[8.5,338],[0.6,422],[8.5,3339],[14.3,3416],[17.3,3505],[25.6,3588],[34.3,3672],[38.3,3755],[40.9,3838],[41.9,3922],[43.8,4005],[46.4,4088],[47.5,4171],[47.9,4249],[48.6,4333],[49.6,4421],[49.7,4499],[49.7,4583],[49.7,4671],[49.7,4749],[49.7,4833],[75.4,4922],[85.1,5172],[81.1,5255],[78.6,5339],[78.2,5416],[78.2,5500],[78.2,5589],[78.2,5666],[78.2,5755],[78.2,5833],[78.2,5916],[78.1,6005],[77.5,6088],[76.1,6171],[75.8,6250],[75.8,6333],[78.2,6422],[82.4,6505],[84.3,6588],[88.1,6671],[92.5,6755],[94.6,6838],[96,6921],[96.5,7005],[96.5,7088],[97.7,7172],[100,7255],[100,7333],[100,7421],[100,7500],[100,7583],[100,7666],[100,7749],[100,7838],[100,7916],[100,8005],[100,8083],[100,8166],[100,8255],[100,8333],[100,8416],[100,8505],[100,8589],[100,8666],[100,8750],[100,8833],[100,8922],[100,8999],[100,9083],[100,9166],[100,9249],[100,9338],[100,9419],[100,9505],[100,9583],[100,9666],[100,9749],[100,9833],[100,9921],[100,10000],[100,10083],[100,10166],[100,10250],[100,10339],[100,10416],[100,10499],[100,10588],[100,10666],[100,10755],[100,10833],[100,10916],[100,11005],[100,11083],[100,11166],[100,11249],[100,11333],[100,11416],[100,11499],[100,11583],[100,11666],[100,11749],[100,11833],[100,11916],[100,12004],[100,12083],[100,12169],[100,12249],[100,12338],[100,12422],[100,12499],[100,12583],[100,12666],[100,12749],[100,12833],[100,12921],[100,13004],[100,13083],[100,13171],[100,13249],[100,13333],[100,13416],[100,13499],[100,13583],[100,13672],[100,13749],[100,13833],[100,13916],[100,13999],[100,14088],[100,14166]]",1,0,198.6653,201.8039,99.375,1.2493,"[{""rating"":99.375,""responseTime"":1.2493000000007441}]",space,2.6104,,201.804,Partially,50,201.8047,,,[],,0,4,4,4,1,audio/Narrative7Situation4.wav,audio/Narrative8Situation4.wav,audio/Narrative5Situation4.wav,audio/Narrative6Situation4.wav,3,3,1,2,,,,,,,,,,,,,,,,,,,,,,,,,,,,,,,,,,,,,,,
,,,,,,5ac16e870527ba0001c1f27e,2024-02-08_15h32.02.831,group3.1-3.2-social-tom,2023.2.2,Win32,59.17159763,65c5074098b851296ff0b7ed,65c5414bd2f8aa0fa8538463,,,,,,,,,,,,,,,,,,,,,,,,,,,,,201.8048,1,audio/Narrative8Situation5.wav,203.815,,203.8151,212.065,"[[48.5,589],[48.5,666],[48.5,749],[45.4,839],[29.6,916],[0.7,1422],[19.9,1505],[40.1,1588],[57.3,1675],[74.6,1756],[83.1,1838],[87.9,1922],[95.7,2006],[99.5,2090],[99.7,2171],[100,2258],[100,2339],[100,2422],[100,2506],[100,2588],[100,2671],[100,2755],[100,2833],[100,2916],[100,3005],[100,3089],[100,3171],[100,3249],[100,3333],[100,3424],[100,3499],[100,3583],[100,3666],[100,3755],[100,3833],[100,3921],[100,4000],[100,4089],[100,4166],[100,4255],[100,4338],[100,4417],[100,4505],[100,4588],[100,4666],[100,4755],[100,4833],[100,4916],[100,5005],[100,5083],[100,5166],[100,5249],[100,5333],[100,5416],[100,5500],[100,5583],[100,5666],[100,5749],[100,5833],[100,5916],[100,5999],[100,6088],[100,6166],[100,6250],[100,6338],[100,6422],[100,6500],[100,6588],[100,6667],[100,6749],[100,6833],[100,6916],[100,6999],[100,7083],[100,7166],[100,7250],[100,7338],[100,7416],[100,7499],[100,7583],[100,7666],[100,7754],[100,7838],[100,7921],[100,8000],[100,8083],[100,8171],[100,8249]]",1,0,212.0652,216.0367,99.375,2.7648,"[{""rating"":99.375,""responseTime"":2.764800000000747}]",space,3.4339,,216.0368,Definitely yes,100,216.0384,,,[],,0,5,5,5,1,audio/Narrative7Situation5.wav,audio/Narrative8Situation5.wav,audio/Narrative5Situation5.wav,audio/Narrative6Situation5.wav,5,2,5,2,,,,,,,,,,,,,,,,,,,,,,,,,,,,,,,,,,,,,,,
,,,,,,5ac16e870527ba0001c1f27e,2024-02-08_15h32.02.831,group3.1-3.2-social-tom,2023.2.2,Win32,59.17159763,65c5074098b851296ff0b7ed,65c5414bd2f8aa0fa8538463,,,,,,,,,,,,,,,,,,,,,,,,,,,,,216.0385,1,audio/Narrative8Situation6.wav,218.0483,,218.0483,224.5152,"[[54.6,83],[54.4,172],[54.1,255],[54,332],[54,417],[50.3,505],[49.5,583],[49.5,666],[51.3,755],[59.8,833],[72.1,921],[81.7,1005],[89.2,1088],[96.1,1171],[100,1255],[100,1338],[100,1421],[100,1500],[100,1583],[100,1666],[100,1749],[100,1833],[100,1922],[100,2000],[100,2088],[100,2166],[100,2255],[100,2333],[100,2421],[100,2500],[100,2583],[100,2671],[100,2749],[100,2838],[100,2921],[100,2999],[100,3088],[100,3166],[100,3249],[100,3333],[100,3416],[100,3499],[100,3582],[100,3666],[100,3749],[100,3832],[100,3921],[100,3999],[100,4082],[100,4166],[100,4249],[100,4333],[100,4421],[100,4499],[100,4588],[100,4666],[100,4749],[100,4832],[100,4921],[100,5004],[100,5082],[100,5166],[100,5254],[100,5332],[100,5416],[100,5500],[100,5583],[100,5666],[100,5749],[100,5832],[100,5916],[100,6004],[100,6082],[100,6166],[100,6249],[100,6332],[100,6416]]",1,0,224.5155,228.6207,98.75,2.2414,"[{""rating"":98.75,""responseTime"":2.2414000000022156}]",space,3.5503,,228.6207,Not at all,0,228.6219,,,[],,0,6,6,6,1,audio/Narrative7Situation6.wav,audio/Narrative8Situation6.wav,audio/Narrative5Situation6.wav,audio/Narrative6Situation6.wav,3,2,3,2,,,,,,,,,,,,,,,,,,,,,,,,,,,,,,,,,,,,,,,
,,,,,,5ac16e870527ba0001c1f27e,2024-02-08_15h32.02.831,group3.1-3.2-social-tom,2023.2.2,Win32,59.17159763,65c5074098b851296ff0b7ed,65c5414bd2f8aa0fa8538463,,,,,,,,,,,,,,,,,,,,,,,,,,,,,228.622,1,audio/Narrative8Situation7.wav,231.6314,,231.6314,243.7143,"[[29.2,83],[49.8,172],[54.4,255],[54.4,332],[60.9,421],[80,506],[90.3,591],[90.5,671],[91.6,754],[98.6,838],[100,916],[100,999],[100,1082],[100,1172],[100,1255],[100,1338],[100,1422],[100,1499],[100,1589],[100,1671],[100,1750],[100,1838],[100,1916],[100,2005],[100,2082],[100,2172],[100,2249],[100,2337],[100,2421],[100,2506],[100,2588],[85.7,2673],[72.3,2755],[62.2,2839],[59.5,2922],[57,3005],[54.3,3088],[54.3,3166],[54.3,3255],[53.3,3338],[52.6,3421],[52.1,3505],[51,3588],[49.9,3666],[49.4,3749],[49.4,3832],[49.4,3916],[49.4,3999],[49.4,4088],[49.6,4166],[49.6,4249],[49.6,4332],[49.6,4416],[49.6,4499],[49.6,4582],[49.6,4666],[49.6,4749],[49.6,4838],[49.6,4922],[49.6,4999],[49.6,5083],[49.6,5166],[49.6,5249],[49.6,5332],[49.6,5421],[49.6,5499],[49.6,5582],[49.6,5666],[49.6,5749],[49.6,5832],[49.7,5921],[49.7,5999],[49.7,6082],[49.7,6171],[49.7,6249],[49.7,6332],[49.7,6421],[49.7,6504],[49.7,6588],[49.7,6666],[49.7,6749],[49.7,6832],[49.7,6916],[49.7,7005],[49.7,7083],[49.7,7171],[49.7,7255],[49.7,7333],[49.7,7421],[49.7,7503],[49.7,7582],[49.7,7666],[49.8,7755],[50.6,7833],[55.8,7921],[62.2,8005],[65.2,8088],[66.8,8171],[67.9,8255],[70.6,8338],[71.4,8422],[71.6,8504],[71.6,8583],[71.7,8671],[72,8749],[72.2,8833],[72.2,8916],[72.3,9005],[72.3,9087],[72.3,9166],[72.3,9249],[72.3,9332],[72.3,9416],[72.3,9499],[72.4,9588],[72.5,9666],[72.7,9754],[72.7,9832],[72.8,9921],[72.8,10004],[72.8,10082],[72.8,10166],[72.8,10249],[72.8,10332],[72.8,10416],[72.8,10499],[72.9,10583],[72.9,10671],[72.9,10749],[72.9,10832],[72.9,10916],[72.9,10999],[72.9,11082],[72.9,11171],[72.9,11249],[72.9,11332],[72.9,11421],[72.9,11499],[72.9,11588],[72.9,11666],[72.9,11749],[72.9,11839],[72.9,11916],[72.9,12004],[72.9,12082]]",1,0,243.7144,246.6975,74.0625,1.7383,"[{""rating"":74.0625,""responseTime"":1.7383000000007485}]",space,2.4333,,246.6975,Definitely yes,100,246.6988,,,[],,0,7,7,7,1,audio/Narrative7Situation7.wav,audio/Narrative8Situation7.wav,audio/Narrative5Situation7.wav,audio/Narrative6Situation7.wav,5,3,4,5,,,,,,,,,,,,,,,,,,,,,,,,,,,,,,,,,,,,,,,
,,,,,,5ac16e870527ba0001c1f27e,2024-02-08_15h32.02.831,group3.1-3.2-social-tom,2023.2.2,Win32,59.17159763,65c5074098b851296ff0b7ed,65c5414bd2f8aa0fa8538463,,,,,,,,,,,,,,,,,,,,,,,,,,,,,246.699,1,audio/Narrative8Situation8.wav,249.7142,,249.7142,262.569,"[[55.2,416],[51.9,505],[48.9,583],[48.9,671],[48.9,755],[48.9,838],[48.9,921],[48.9,999],[48.9,1083],[48.9,1171],[48.9,1250],[48.9,1338],[47.1,1422],[47,1499],[47,1588],[47,1666],[44.6,1754],[39,1838],[27.1,1922],[15.7,2005],[8.8,2088],[5.9,2166],[2,2254],[4.8,6089],[7.7,6174],[8.2,6255],[13.1,6339],[24,6422],[35.6,6504],[41.7,6589],[44.6,6666],[46.4,6755],[48.1,6839],[48.4,6923],[48.9,7005],[49.6,7082],[50.4,7172],[50.5,7249],[50.5,7337],[50.5,7422],[50.5,7499],[50.5,7589],[50.5,7666],[50.4,7756],[50.3,7839],[50.1,7922],[49.8,8005],[49.7,8082],[49.7,8166],[49.6,8250],[49.6,8333],[49.6,8422],[49.6,8500],[49.6,8583],[49.6,8672],[49.6,8749],[49.6,8832],[49.6,8916],[49.6,9000],[49.6,9082],[49.6,9166],[49.6,9255],[49.6,9333],[49.6,9416],[49.6,9500],[49.6,9588],[49.6,9672],[49.6,9749],[49.6,9838],[49.6,9916],[49.6,10000],[49.6,10088],[49.6,10166],[49.6,10249],[49.6,10338],[49.6,10421],[49.7,10506],[49.7,10588],[49.7,10666],[49.7,10756],[49.7,10837],[49.7,10921],[49.7,11004],[49.7,11083],[49.7,11166],[49.7,11250],[49.7,11338],[49.7,11416],[49.7,11499],[49.8,11583],[49.8,11666],[49.8,11756],[49.8,11832],[49.8,11916],[49.8,11999],[49.8,12088],[49.8,12172],[49.8,12249],[49.8,12333],[49.8,12421],[49.8,12499],[49.8,12588],[49.8,12667],[49.8,12755],[49.8,12838]]",1,0,262.5691,264.986,49.79166667,1.1234,"[{""rating"":49.791666666666664,""responseTime"":1.1233999999985258}]",space,1.8738,,264.986,Partially,50,264.9871,,,[],,0,8,8,8,1,audio/Narrative7Situation8.wav,audio/Narrative8Situation8.wav,audio/Narrative5Situation8.wav,audio/Narrative6Situation8.wav,2,3,3,5,,,,,,,,,,,,,,,,,,,,,,,,,,,,,,,,,,,,,,,
,,,,,,5ac16e870527ba0001c1f27e,2024-02-08_15h32.02.831,group3.1-3.2-social-tom,2023.2.2,Win32,59.17159763,65c5074098b851296ff0b7ed,65c5414bd2f8aa0fa8538463,,,,,,,,,,,,,,,,,,,,,,,,,,,,,264.9873,1,audio/Narrative8Situation9.wav,267.9973,,267.9973,279.3359,"[[50.4,166],[50.4,250],[50.4,333],[50.8,422],[51.3,505],[51.3,588],[51.3,666],[51.3,750],[51.3,833],[51.3,921],[51.3,999],[51.3,1083],[51.3,1166],[51.3,1255],[51.3,1338],[51.5,1416],[52.4,1505],[53.2,1583],[53.3,1666],[53.3,1754],[53.3,1833],[53.3,1921],[53.3,1999],[53.3,2082],[53.1,2171],[52,2249],[50.3,2333],[50.3,2416],[50.3,2504],[50.3,2588],[50.3,2671],[50.2,2754],[50.1,2832],[50,2921],[50,3004],[50,3083],[50,3166],[50,3250],[50,3333],[50,3421],[50,3499],[50,3582],[50.1,3666],[50.5,3754],[51.3,3838],[52.4,3916],[52.5,3999],[52.6,4088],[52.9,4166],[53.1,4254],[53.3,4338],[53.3,4416],[53.3,4500],[54.2,4588],[54.9,4666],[56.9,4749],[58.2,4838],[58.2,4921],[58.2,5004],[58.3,5089],[58.3,5166],[58.4,5249],[58.3,5333],[55.9,5416],[52.8,5505],[49.3,5588],[45.2,5666],[35.9,5755],[25,5838],[11.5,5921],[10.4,5999],[5.2,6088],[2.5,6171],[2.3,6255],[1.1,6338],[0.5,6421],[0.2,6499],[1.1,8088],[5.1,8171],[11.9,8254],[23.2,8333],[36.7,8417],[45.3,8499],[51.4,8588],[55.2,8671],[57.6,8755],[59.5,8838],[61.1,8921],[61.3,8999],[62.8,9088],[63,9166],[63.1,9250],[63.1,9333],[63.1,9416],[63.2,9499],[63.2,9583],[63.2,9666],[58.8,9754],[55.5,9837],[55.5,9921],[55.5,10005],[55.5,10088],[55.5,10166],[55.5,10253],[55.5,10332],[55.5,10416],[55.5,10499],[55.9,10588],[56.4,10671],[56.5,10749],[56.5,10838],[56.5,10921],[56.5,11004],[56.5,11083],[56.5,11166],[56.5,11255],[56.5,11338]]",1,0,279.3359,282.0359,56.45833333,2.3327,"[{""rating"":56.458333333333336,""responseTime"":2.3326999999992495}]",space,2.1377,,282.036,Partially,50,282.0367,,,[],,0,9,9,9,1,audio/Narrative7Situation9.wav,audio/Narrative8Situation9.wav,audio/Narrative5Situation9.wav,audio/Narrative6Situation9.wav,2,3,3,4,,,,,,,,,,,,,,,,,,,,,,,,,,,,,,,,,,,,,,,
,,,,,,5ac16e870527ba0001c1f27e,2024-02-08_15h32.02.831,group3.1-3.2-social-tom,2023.2.2,Win32,59.17159763,65c5074098b851296ff0b7ed,65c5414bd2f8aa0fa8538463,,,,,,,,,,,,,,,,,,,,,,,,,,,,,282.0367,1,audio/Narrative7Situation1.wav,284.0469,,284.047,339.9456,"[[52.8,666],[47.4,749],[40.5,838],[27.8,921],[12.8,1005],[3.8,1088],[2.3,8837],[5.1,8921],[6.1,9004],[9.8,9088],[12.6,9171],[15.5,9255],[19,9332],[22.9,9416],[24.3,9505],[26.3,9588],[27,9666],[27.2,9749],[27.4,9838],[27.5,9916],[27.5,10000],[27.5,10082],[27.5,10171],[27.5,10249],[27.5,10333],[27.5,10416],[27.5,10499],[27.5,10588],[27.5,10666],[27.5,10749],[27.5,10838],[27.5,10921],[27.5,11003],[27.5,11082],[27.5,11166],[27.5,11255],[27.5,11332],[27.5,11421],[27.5,11499],[27.5,11588],[27.5,11666],[27.5,11749],[27.5,11838],[27.5,11915],[27.5,11999],[27.5,12082],[27.5,12165],[27.5,12255],[27.5,12338],[27.5,12416],[27.5,12505],[27.5,12588],[25.1,12671],[22.9,12755],[22.9,12838],[22.9,12920],[22.9,12999],[22.4,13088],[22.4,13166],[22.4,13249],[22.4,13338],[22.4,13416],[22.4,13505],[21.9,13587],[21.7,13666],[21.4,13754],[20.9,13832],[20.9,13920],[20.9,13999],[20.9,14082],[20.9,14166],[20.9,14249],[20.9,14338],[20.9,14416],[17.9,14505],[16.1,14587],[16.1,14666],[16.1,14754],[16.1,14832],[16.1,14915],[16.6,15005],[22.7,15082],[25.4,15171],[25.4,15249],[25.4,15332],[25.4,15415],[25.4,15499],[25.4,15587],[25.4,15666],[25.4,15749],[23,15838],[20.7,15921],[20.3,16004],[20.3,16087],[20.3,16165],[20.3,16249],[20.3,16332],[20.3,16421],[20.3,16499],[20.3,16582],[20.3,16665],[20.3,16749],[20.3,16838],[20.3,16916],[20.2,16999],[20.2,17082],[19.3,17171],[18.8,17255],[17.5,17337],[15.7,17421],[15.4,17504],[13.9,17588],[13.4,17670],[13.4,17755],[12.9,17838],[11.4,17921],[10,17999],[8.6,18088],[7.9,18171],[7.8,18255],[7.6,18338],[7.4,18416],[7.4,18505],[7,18582],[5.3,18666],[5,18755],[4.5,18838],[3.9,18919],[3.5,19005],[3.4,19082],[3.5,19166],[9.1,19256],[14.7,19332],[18.1,19421],[18.9,19503],[19.9,19588],[20.3,19665],[21.4,19754],[22.7,19838],[23,19915],[23,20005],[23,20087],[23,20171],[23,20249],[22.9,20332],[19.4,20422],[10,20500],[1.8,20589],[0.5,32665],[0.5,32754],[0.6,32837],[3.5,32921],[5.8,32999],[8.4,33087],[11.5,33165],[16.3,33254],[20.3,33337],[21.3,33420],[21.6,33505],[23.2,33588],[25,33671],[26.9,33754],[27.6,33838],[28.1,33921],[28.9,33999],[29.2,34087],[29.7,34171],[29.8,34249],[29.9,34337],[29.9,34415],[29.9,34503],[30,34582],[30.4,34671],[30.4,34754],[30.4,34832],[30.4,34916],[30.4,34998],[30.4,35082],[30.4,35170],[30.4,35254],[30.4,35332],[30.4,35421],[30.4,35504],[30.4,35582],[30.7,35670],[32.2,35754],[34.4,35832],[35.6,35920],[36.3,36004],[36.7,36087],[36.7,36170],[36.7,36254],[36.8,36337],[36.8,36422],[36.8,36498],[36.8,36582],[36.8,36666],[36.8,36749],[36.8,36832],[36.8,36915],[36.8,36999],[36.8,37082],[36.8,37170],[36.8,37248],[36.8,37332],[36.8,37415],[36.8,37505],[36.8,37582],[36.8,37671],[36.8,37749],[36.8,37832],[36.8,37915],[36.8,37998],[36.8,38088],[36.8,38171],[36.8,38248],[36.8,38332],[36.8,38415],[36.8,38503],[36.8,38587],[36.8,38665],[36.8,38753],[36.8,38832],[36.8,38915],[36.8,38998],[36.8,39082],[36.8,39165],[36.8,39248],[36.8,39332],[36.8,39416],[36.8,39498],[36.8,39587],[36.8,39665],[36.8,39753],[36.8,39832],[36.8,39915],[36.8,40004],[36.8,40082],[36.8,40170],[36.9,40259],[37,40337],[37,40415],[37.1,40504],[37.1,40587],[37.1,40665],[37.1,40754],[37.1,40832],[37.1,40915],[37.1,40998],[37.1,41082],[37.1,41165],[37.1,41253],[37.1,41337],[37.1,41420],[37.1,41498],[36.8,41588],[35.9,41671],[35.8,41754],[35.7,41837],[35.7,41915],[37.1,42004],[42.3,42088],[46.4,42170],[50.5,42254],[51.1,42331],[51.1,42420],[51.3,42498],[51.4,42582],[51.4,42665],[51.4,42748],[51.4,42832],[51.4,42915],[51.4,42998],[51.4,43086],[50.9,43170],[50.8,43248],[50.7,43332],[50.7,43420],[50.7,43499],[50.7,43582],[50.5,43665],[50.5,43748],[50.5,43831],[50.5,43920],[50.5,43998],[50.5,44082],[50.5,44170],[50.5,44249],[50.5,44332],[50.5,44415],[50.5,44503],[50.5,44587],[50.5,44665],[50.5,44753],[50.5,44832],[50.5,44915],[50.5,44998],[50.5,45081],[50.5,45170],[50.5,45253],[50.5,45332],[50.5,45415],[50.5,45498],[50.5,45581],[50.5,45670],[50.5,45754],[50.5,45831],[50.5,45920],[50.5,46004],[50.5,46089],[50.5,46171],[50.5,46254],[50.5,46332],[50.5,46421],[50.5,46498],[50.5,46581],[50.6,46665],[50.6,46748],[50.6,46831],[50.6,46923],[50.6,46998],[50.6,47086],[50.6,47171],[50.6,47254],[50.6,47338],[50.6,47415],[50.6,47498],[50.6,47588],[50.6,47665],[50.6,47754],[50.6,47848],[50.7,47932],[50.7,48015],[50.7,48098],[50.7,48181],[50.7,48265],[50.7,48348],[50.7,48432],[50.7,48515],[50.7,48598],[50.7,48682],[50.7,48765],[50.7,48848],[50.7,48932],[50.7,49015],[50.7,49098],[50.7,49182],[50.7,49265],[50.7,49348],[50.7,49432],[50.7,49515],[51.7,49598],[52.3,49681],[52.8,49765],[53.5,49848],[54.4,49932],[55.8,50016],[57.6,50098],[57.9,50182],[58.6,50265],[59.6,50348],[60.9,50432],[63,50515],[64.8,50598],[66.8,50682],[67.8,50765],[67.9,50848],[67.9,50932],[68,51015],[68,51098],[68,51181],[68,51265],[68.1,51348],[68.1,51431],[68.1,51515],[68.1,51598],[68.1,51681],[68.1,51765],[68.3,51848],[69.6,51932],[70.3,52016],[70.4,52099],[70.6,52182],[71,52265],[71.1,52348],[71.3,52431],[71.3,52515],[71.4,52598],[71.4,52681],[71.4,52765],[71.4,52848],[71.4,52931],[71.4,53015],[71.4,53098],[71.4,53182],[71.4,53265],[71.3,53348],[70.9,53432],[70.4,53515],[70.3,53598],[70.3,53682],[71.3,53765],[73.1,53848],[73.5,53931],[73.5,54015],[73.5,54098],[73.5,54182],[73.5,54265],[73.5,54348],[73.5,54432],[73.5,54515],[73.5,54598],[73.5,54682],[73.5,54765],[73.5,54848],[73.5,54931],[73.5,55015],[73.5,55098],[73.5,55181],[73.5,55265],[73.5,55348],[73.5,55431],[73.5,55515],[73.5,55598],[73.5,55681],[73.5,55765],[73.5,55848]]",1,0,339.9457,342.7622,91.04166667,1.9111,"[{""rating"":91.04166666666667,""responseTime"":1.911100000001511}]",space,2.2689,,342.7622,Not at all,0,342.7636,,,[],,0,10,10,10,1,audio/Narrative8Situation1.wav,audio/Narrative7Situation1.wav,audio/Narrative6Situation1.wav,audio/Narrative5Situation1.wav,5,2,2,5,,,,,,,,,,,,,,,,,,,,,,,,,,,,,,,,,,,,,,,
,,,,,,5ac16e870527ba0001c1f27e,2024-02-08_15h32.02.831,group3.1-3.2-social-tom,2023.2.2,Win32,59.17159763,65c5074098b851296ff0b7ed,65c5414bd2f8aa0fa8538463,,,,,,,,,,,,,,,,,,,,,,,,,,,,,342.7638,1,audio/Narrative7Situation2.wav,345.7788,,345.7788,353.246,"[[57.5,83],[57.6,166],[57.6,249],[57.6,333],[57.6,416],[57.5,499],[57.5,583],[57.5,666],[63.4,749],[65.1,833],[65.2,916],[65.2,1000],[64.4,1083],[63.6,1166],[62.9,1249],[59.1,1333],[56.4,1416],[57,1500],[65.1,1583],[70.8,1666],[72.7,1749],[75.7,1833],[76.4,1916],[76.4,1999],[76.4,2083],[76.5,2166],[76.5,2249],[76.5,2333],[76.5,2416],[76.5,2499],[76.5,2583],[76.5,2666],[76.5,2749],[76.5,2833],[76.5,2916],[76.7,2999],[76.8,3083],[76.9,3166],[76.9,3249],[76.9,3333],[77.1,3416],[77.1,3499],[77.1,3583],[77.1,3666],[77.1,3749],[77.1,3833],[77.1,3916],[77.1,3999],[77.1,4083],[77.1,4166],[77.1,4249],[77.1,4333],[77.1,4416],[77.1,4499],[77.1,4583],[77.1,4666],[77.1,4749],[77.1,4833],[77.1,4916],[77.1,4999],[77.1,5083],[77.2,5166],[83.1,5250],[89.1,5333],[89.1,5416],[89.1,5499],[89.1,5583],[89.1,5666],[89.2,5749],[89.4,5833],[89.6,5916],[89.6,5999],[89.6,6083],[89.6,6166],[89.6,6249],[89.7,6333],[89.7,6416],[89.8,6499],[89.9,6582],[90,6666],[90,6749],[90.1,6832],[90.1,6916],[90.1,6999],[90.1,7082],[90.1,7166],[90.1,7249],[90.1,7332],[90.1,7416]]",1,0,353.2461,356.8286,98.54166667,1.6901,"[{""rating"":98.54166666666666,""responseTime"":1.6901000000015074}]",space,3.0338,,356.8286,Partially,50,356.8297,,,[],,0,11,11,11,1,audio/Narrative8Situation2.wav,audio/Narrative7Situation2.wav,audio/Narrative6Situation2.wav,audio/Narrative5Situation2.wav,3,3,3,3,,,,,,,,,,,,,,,,,,,,,,,,,,,,,,,,,,,,,,,
,,,,,,5ac16e870527ba0001c1f27e,2024-02-08_15h32.02.831,group3.1-3.2-social-tom,2023.2.2,Win32,59.17159763,65c5074098b851296ff0b7ed,65c5414bd2f8aa0fa8538463,,,,,,,,,,,,,,,,,,,,,,,,,,,,,356.8299,1,audio/Narrative7Situation3.wav,364.845,,364.8451,374.1118,"[[77.1,833],[65,916],[49.2,999],[41.4,1083],[33.2,1166],[32.4,1249],[37.3,1333],[62.1,1416],[68.5,1499],[68.5,1583],[68.9,1666],[71.3,1750],[71.4,1833],[72.1,1916],[72.2,2000],[72.2,2083],[72.2,2166],[71.9,2249],[70.6,2333],[52.7,2416],[22.7,2500],[5.4,2583]]",1,0,374.1119,380.1279,5.520833333,5.3107,"[{""rating"":5.520833333333336,""responseTime"":5.310699999999258}]",space,5.4755,,380.128,Not at all,0,380.1295,,,[],,0,12,12,12,1,audio/Narrative8Situation3.wav,audio/Narrative7Situation3.wav,audio/Narrative6Situation3.wav,audio/Narrative5Situation3.wav,4,8,5,3,,,,,,,,,,,,,,,,,,,,,,,,,,,,,,,,,,,,,,,
,,,,,,5ac16e870527ba0001c1f27e,2024-02-08_15h32.02.831,group3.1-3.2-social-tom,2023.2.2,Win32,59.17159763,65c5074098b851296ff0b7ed,65c5414bd2f8aa0fa8538463,,,,,,,,,,,,,,,,,,,,,,,,,,,,,380.1297,1,audio/Narrative7Situation4.wav,383.1446,,383.1446,394.861,"[[21.7,500],[21.7,583],[21.7,666],[21.7,750],[21.7,833],[21.7,916],[21.7,1000],[21.7,1083],[21.7,1166],[21.7,1249],[20.5,1334],[12.4,1416],[11.3,1500],[11.1,1583]]",1,0,394.8611,398.0609,0.833333333,2.3703,"[{""rating"":0.8333333333333359,""responseTime"":2.3702999999970302}]",space,2.6786,,398.0609,Partially,50,398.0621,,,[],,0,13,13,13,1,audio/Narrative8Situation4.wav,audio/Narrative7Situation4.wav,audio/Narrative6Situation4.wav,audio/Narrative5Situation4.wav,3,3,2,1,,,,,,,,,,,,,,,,,,,,,,,,,,,,,,,,,,,,,,,
,,,,,,5ac16e870527ba0001c1f27e,2024-02-08_15h32.02.831,group3.1-3.2-social-tom,2023.2.2,Win32,59.17159763,65c5074098b851296ff0b7ed,65c5414bd2f8aa0fa8538463,,,,,,,,,,,,,,,,,,,,,,,,,,,,,398.0622,1,audio/Narrative7Situation5.wav,403.0776,,403.0776,411.5774,"[[1,2333],[2.1,2416],[2.2,2500],[2.2,2583],[2.5,2666],[2.5,2750],[1.7,2833]]",1,0,411.5775,414.6438,0.520833333,2.2359,"[{""rating"":0.5208333333333315,""responseTime"":2.235900000002232}]",space,2.5234,,414.6438,Definitely yes,100,414.6452,,,[],,0,14,14,14,1,audio/Narrative8Situation5.wav,audio/Narrative7Situation5.wav,audio/Narrative6Situation5.wav,audio/Narrative5Situation5.wav,2,5,2,5,,,,,,,,,,,,,,,,,,,,,,,,,,,,,,,,,,,,,,,
,,,,,,5ac16e870527ba0001c1f27e,2024-02-08_15h32.02.831,group3.1-3.2-social-tom,2023.2.2,Win32,59.17159763,65c5074098b851296ff0b7ed,65c5414bd2f8aa0fa8538463,,,,,,,,,,,,,,,,,,,,,,,,,,,,,414.6453,1,audio/Narrative7Situation6.wav,417.6605,,417.6605,427.6273,[],1,0,427.6275,431.2102,94.47916667,2.6619,"[{""rating"":94.47916666666667,""responseTime"":2.661899999998468}]",space,3.044,,431.2103,Not at all,0,431.2118,,,[],,0,15,15,15,1,audio/Narrative8Situation6.wav,audio/Narrative7Situation6.wav,audio/Narrative6Situation6.wav,audio/Narrative5Situation6.wav,2,3,2,3,,,,,,,,,,,,,,,,,,,,,,,,,,,,,,,,,,,,,,,
,,,,,,5ac16e870527ba0001c1f27e,2024-02-08_15h32.02.831,group3.1-3.2-social-tom,2023.2.2,Win32,59.17159763,65c5074098b851296ff0b7ed,65c5414bd2f8aa0fa8538463,,,,,,,,,,,,,,,,,,,,,,,,,,,,,431.212,1,audio/Narrative7Situation7.wav,436.2268,,436.2268,453.41,"[[31.5,500],[60.5,583],[75.9,667],[76.9,750],[76.9,833],[78.8,916],[88.2,1000],[88.2,1083],[87.9,1167],[87.6,1249],[87.6,1333],[87.6,1416],[87.5,1500],[87.5,1583],[87.5,1666],[86.8,1750],[86.1,1833],[85.5,1916],[85.2,2000],[85.1,2083],[84.3,2166],[83.3,2249],[82.5,2333],[82.2,2416],[82.1,2500],[82.1,2583],[82.1,2666],[82.1,2750],[82.1,2833],[82.1,2916],[82,3000],[82,3083],[82,3166],[81.7,3250],[81.7,3333],[81.7,3416],[81.7,3499],[81.7,3583],[81.7,3666],[81.7,3750],[81.7,3833],[81.7,3916],[81.7,3999],[81.7,4083],[81.7,4166],[81.7,4249],[81.7,4333],[81.7,4416],[81.7,4500],[81.7,4583],[83.2,4666],[87.4,4750],[89.1,4833],[91.4,4916],[91.9,5000],[97.5,5083],[99.5,5166],[99.7,5249],[99.8,5333],[99.8,5416],[99.9,5499],[100,5583],[100,5666],[100,5749],[100,5833],[100,5916],[100,5999],[100,6083],[100,6166],[100,6249],[100,6333],[100,6416],[100,6499],[100,6582],[100,6666],[100,6749],[100,6833],[100,6916],[100,6999],[100,7083],[100,7166],[100,7249],[100,7333],[100,7416],[100,7499],[100,7583],[100,7666],[100,7749],[100,7833],[100,7916],[100,7999],[100,8083],[100,8166],[100,8249],[100,8332],[100,8416],[100,8499],[100,8583],[100,8666],[100,8749],[100,8833],[100,8916],[100,8999],[100,9083],[100,9166],[100,9249],[100,9333],[100,9416],[100,9499],[100,9583],[100,9666],[100,9749],[100,9832],[100,9916],[100,9999],[100,10083],[100,10166],[100,10249],[100,10333],[100,10416],[100,10499],[100,10582],[100,10666],[100,10749],[100,10832],[100,10916],[100,10999],[100,11083],[100,11166],[100,11249],[100,11333],[100,11416],[100,11500],[99.9,11583],[99.9,11666],[99.9,11749],[99.9,11832],[99.9,11916],[99.9,11999],[99.9,12082],[99.9,12166],[99.9,12249],[99.9,12332],[99.9,12416],[99.9,12499],[99.9,12582],[99.9,12666],[99.9,12749],[99.9,12832],[99.9,12916],[99.9,12999],[99.9,13082],[99.9,13166],[99.9,13249],[99.9,13332],[99.9,13416],[99.9,13499],[99.9,13583],[99.9,13666],[99.9,13749],[99.9,13833],[99.9,13916],[99.9,13999],[99.9,14083],[99.9,14166],[99.9,14250],[99.9,14332],[99.9,14416],[99.9,14499],[99.9,14582],[99.9,14666],[99.9,14749],[99.9,14832],[99.9,14916],[99.9,14999],[99.9,15082],[99.9,15166],[99.9,15249],[100,15332],[100,15416],[100,15499],[100,15583],[100,15666],[100,15749],[100,15832],[100,15916],[100,15999],[100,16083],[100,16166],[100,16249],[100,16332],[100,16416],[100,16499],[100,16583],[100,16666],[100,16749],[100,16832],[100,16916],[100,16999],[100,17083],[100,17166]]",1,0,453.4101,459.2763,99.58333333,2.6551,"[{""rating"":99.58333333333333,""responseTime"":2.6550999999977876}]",space,5.3256,,459.2764,Definitely yes,100,459.2785,,,[],,0,16,16,16,1,audio/Narrative8Situation7.wav,audio/Narrative7Situation7.wav,audio/Narrative6Situation7.wav,audio/Narrative5Situation7.wav,3,5,5,4,,,,,,,,,,,,,,,,,,,,,,,,,,,,,,,,,,,,,,,
,,,,,,5ac16e870527ba0001c1f27e,2024-02-08_15h32.02.831,group3.1-3.2-social-tom,2023.2.2,Win32,59.17159763,65c5074098b851296ff0b7ed,65c5414bd2f8aa0fa8538463,,,,,,,,,,,,,,,,,,,,,,,,,,,,,459.2787,1,audio/Narrative7Situation8.wav,461.2931,,461.2931,471.3264,"[[98.3,333],[98.3,416],[98.4,500],[99,583],[99.3,666],[99.3,750],[99.5,833],[99.5,916],[99.5,999],[99.5,1083],[99.5,1166],[99.5,1249],[99.5,1332],[99.5,1416],[99.1,1501],[98.9,1583],[98.9,1666],[99,1750],[99.2,1834],[99.4,1916],[99.4,2000],[99.4,2083],[99.4,2166],[99.4,2249],[99.4,2332],[99.4,2416],[99.4,2499],[99.3,2583],[99.3,2666],[99.3,2749],[99.3,2833],[98.9,2916],[98.1,2999],[98.1,3083],[98,3166],[98,3249],[98,3333],[98,3416],[98,3499],[98,3583],[98,3666],[98,3749],[98,3833],[98,3916],[98,4000],[98,4083],[98,4166],[98,4249],[98,4332],[98,4416],[98,4499],[98,4582],[98,4666],[97.4,4750],[85.6,4833],[80.9,4917],[80.7,5000],[78.3,5083],[78,5166],[77.9,5249],[78.3,5333],[85.1,5416],[96.9,5499],[99.5,5582],[99.8,5666],[100,5750],[100,5833],[100,5917],[100,5999],[100,6082],[100,6166],[100,6249],[100,6332],[100,6416],[100,6499],[100,6582],[100,6666],[100,6749],[100,6832],[100,6916],[100,6999],[100,7083],[100,7166],[100,7249],[100,7332],[100,7416],[100,7499],[100,7582],[100,7666],[100,7749],[100,7832],[100,7916],[100,7999],[100,8082],[100,8166],[100,8249],[100,8332],[100,8416],[100,8500],[100,8582],[100,8666],[100,8749],[100,8832],[100,8916],[100,8999],[100,9082],[100,9166],[100,9249],[100,9332],[100,9416],[100,9499],[100,9583],[100,9666],[100,9749],[100,9833],[100,9916],[100,9999]]",1,0,471.3264,474.226,98.4375,2.3408,"[{""rating"":98.4375,""responseTime"":2.3408000000007974}]",space,2.3505,,474.226,Not at all,0,474.2276,,,[],,0,17,17,17,1,audio/Narrative8Situation8.wav,audio/Narrative7Situation8.wav,audio/Narrative6Situation8.wav,audio/Narrative5Situation8.wav,3,2,5,3,,,,,,,,,,,,,,,,,,,,,,,,,,,,,,,,,,,,,,,
,,,,,,5ac16e870527ba0001c1f27e,2024-02-08_15h32.02.831,group3.1-3.2-social-tom,2023.2.2,Win32,59.17159763,65c5074098b851296ff0b7ed,65c5414bd2f8aa0fa8538463,,,,,,,,,,,,,,,,,,,,,,,,,,,,,474.2277,1,audio/Narrative7Situation9.wav,476.2427,,476.2427,484.859,"[[100,666],[100,750],[100,833],[100,916],[100,1000],[100,1083],[100,1166],[100,1249],[100,1333],[100,1416],[100,1499],[100,1583],[100,1666],[100,1749],[100,1833],[100,1916],[100,2000],[100,2083],[100,2166],[100,2249],[100,2333],[100,2416],[100,2499],[100,2583],[100,2666],[100,2749],[100,2833],[100,2916],[100,2999],[100,3083],[100,3166],[100,3249],[100,3333],[100,3416],[100,3499],[100,3582],[100,3669],[100,3749],[100,3833],[100,3916],[100,3999],[100,4083],[100,4166],[100,4249],[100,4333],[100,4416],[100,4499],[100,4583],[100,4666],[100,4749],[100,4833],[100,4916],[100,4999],[100,5083],[100,5166],[100,5249],[100,5333],[100,5416],[100,5499],[100,5583],[100,5666],[100,5749],[100,5833],[100,5916],[100,5999],[100,6082],[100,6166],[100,6249],[100,6333],[100,6416],[100,6500],[100,6583],[100,6666],[100,6749],[100,6833],[100,6916],[100,6999],[100,7082],[100,7166],[100,7250],[100,7333],[100,7416],[100,7499],[100,7583],[100,7666],[100,7749],[100,7833],[100,7916],[100,7999],[100,8083],[100,8166],[100,8249],[100,8333],[100,8416],[100,8499],[100,8583]]",1,0,484.859,487.459,99.27083333,1.7649,"[{""rating"":99.27083333333333,""responseTime"":1.7649000000022284}]",space,2.0677,,487.4591,Definitely yes,100,495.5762,99.89583333,6.8706,"[{""rating"":99.89583333333334,""responseTime"":6.870599999997751}]",space,0,18,18,18,1,audio/Narrative8Situation9.wav,audio/Narrative7Situation9.wav,audio/Narrative6Situation9.wav,audio/Narrative5Situation9.wav,3,2,4,3,,,7.5814,,,,,,,,,,,,,,,,,,,,,,,,,,,,,,,,,,,,
,,,,,,5ac16e870527ba0001c1f27e,2024-02-08_15h32.02.831,group3.1-3.2-social-tom,2023.2.2,Win32,59.17159763,65c5074098b851296ff0b7ed,65c5414bd2f8aa0fa8538463,,,,,,,,,,,,,,,,,,,,,,,,,,,502.7147,505.2919,505.3038,2,audio/Narrative13Situation2.wav,505.3038,,505.3038,535.0415,"[[81.3,821],[49.9,904],[36.7,991],[23.6,1071],[23.2,1154],[22.8,1237],[22.8,1321],[20.7,1404],[9.3,1488],[5.5,1571],[2.2,1655],[2,8487],[12.2,8571],[19.5,8654],[24.2,8738],[30,8821],[33.4,8904],[39.1,8987],[45.5,9071],[47,9154],[49.2,9237],[50.3,9321],[50.4,9404],[50.4,9488],[50.4,9571],[50.4,9654],[50.4,9737],[50.4,9821],[50.4,9904],[50.4,9987],[50.4,10071],[50.4,10155],[50.4,10237],[50.4,10321],[50.4,10405],[50.4,10487],[50.4,10571],[50.4,10654],[50.4,10737],[50.4,10821],[50.4,10904],[50.4,10987],[50.4,11071],[50.4,11154],[50.4,11237],[50.4,11321],[50.4,11404],[50.4,11487],[50.4,11571],[50.4,11654],[50.4,11737],[50.4,11821],[50.4,11904],[50.4,11987],[50.4,12071],[50.4,12154],[50.4,12238],[50.4,12321],[50.4,12404],[50.4,12487],[50.4,12571],[50.4,12654],[50.4,12737],[50.4,12821],[50.4,12904],[50.4,12987],[50.4,13071],[50.4,13154],[50.4,13237],[50.4,13321],[50.4,13404],[50.4,13487],[50.4,13571],[50.4,13654],[50.4,13737],[50.4,13821],[50.4,13904],[50.4,13987],[50.9,14071],[52.8,14154],[53.2,14237],[54.1,14321],[57.8,14405],[62.9,14487],[64.6,14571],[64.7,14654],[65.9,14737],[69.5,14821],[71.5,14904],[71.9,14987],[72.9,15071],[73.8,15154],[74,15237],[74,15321],[74.1,15404],[74.1,15487],[74.1,15571],[74.1,15654],[74.1,15737],[69.8,15821],[65.2,15904],[63.9,15987],[62.7,16071],[61.7,16154],[59.2,16237],[57.4,16321],[56.9,16404],[56,16487],[54.8,16571],[54.1,16654],[53.5,16737],[52.8,16821],[52.3,16904],[51.9,16987],[51.4,17071],[50.9,17154],[50.7,17237],[50.6,17321],[50.5,17404],[50.5,17487],[50.5,17571],[50.4,17654],[47.7,17737],[46.8,17821],[46.1,17904],[44.7,17987],[43.2,18071],[42.5,18155],[40.4,18237],[37.6,18321],[36.3,18404],[35.5,18487],[34.7,18571],[33.9,18654],[32.9,18737],[31.7,18821],[30.6,18904],[29.9,18987],[29.2,19071],[29,19154],[28.9,19237],[28.8,19321],[28.5,19404],[28.4,19487],[28.1,19571],[27.9,19654],[27.7,19737],[27.7,19820],[27.7,19904],[27.5,19988],[27.3,20071],[27.1,20155],[27.1,20237],[26.9,20321],[26.9,20404],[26.8,20487],[26.8,20571],[26.8,20654],[26.7,20737],[26.7,20821],[26.7,20904],[26.7,20987],[26.7,21071],[26.7,21154],[26.7,21237],[26.7,21321],[26.7,21404],[26.7,21487],[26.7,21571],[26.4,21654],[24.8,21737],[24.5,21821],[24.5,21904],[24.5,21987],[24.5,22070],[24.5,22154],[24.5,22237],[24.5,22320],[23.3,22404],[23.1,22487],[23.1,22571],[23.1,22654],[23.1,22737],[23.2,22821],[23.2,22904],[23.2,22988],[23.2,23071],[23.2,23154],[23.2,23237],[23.2,23321],[23.2,23404],[23.2,23487],[23.2,23571],[23.2,23654],[23.2,23737],[23.2,23821],[23.2,23904],[23.2,23987],[23.2,24070],[23.2,24154],[23.2,24237],[23.2,24320],[22.4,24404],[22,24487],[22,24571],[22,24654],[21.7,24737],[20.9,24821],[20.8,24904],[20.8,24987],[20.8,25070],[20.7,25154],[20.7,25237],[20.7,25321],[20.7,25404],[20.7,25487],[20.7,25571],[20.7,25654],[20.7,25737],[20.7,25820],[20.7,25904],[20.7,25987],[20.7,26070],[20.7,26154],[20.7,26237],[20.7,26320],[20.7,26404],[20.7,26487],[20.7,26570],[20.7,26654],[20.7,26737],[20.7,26820],[20.7,26904],[20.7,26987],[20.7,27070],[20.7,27154],[20.7,27237],[20.7,27320],[20.7,27404],[20.7,27487],[20.7,27571],[20.7,27654],[20.7,27737],[20.7,27820],[20.7,27904],[20.7,27987],[20.7,28071],[20.7,28154],[20.7,28237],[20.7,28321],[20.7,28404],[20.7,28487],[20.7,28571],[20.7,28654],[20.7,28737],[20.7,28820],[20.5,28904],[20.5,28987],[20.5,29070],[20.5,29154],[20.5,29237],[20.5,29321],[20.5,29404],[20.5,29487],[20.5,29571],[20.5,29654],[20.5,29737]]",1,0,535.0417,535.0427,,,[],,,,535.0427,Partially,50,535.0438,,,[],,0,0,0,0,1,audio/Narrative13Situation2.wav,audio/Narrative13Situation2.wav,audio/Narrative13Situation2.wav,audio/Narrative13Situation2.wav,2,2,2,2,,,,,495.578,502.7089,space,6.5996,,,,,,,,,,,,,,,,,,,,,,,,,,,,,,,
,,,,,,5ac16e870527ba0001c1f27e,2024-02-08_15h32.02.831,group3.1-3.2-social-tom,2023.2.2,Win32,59.17159763,65c5074098b851296ff0b7ed,65c5414bd2f8aa0fa8538463,,,,,,,,,,,,,,,,,,,,,,,,,,,,,535.0438,2,audio/Narrative6Situation1.wav,537.058,,537.058,563.6406,"[[20.2,83],[20.2,166],[20.2,249],[20.2,333],[20.2,416],[20.2,500],[20.2,583],[20.2,666],[20.2,749],[20.2,833],[20.2,916],[20.1,999],[20,1083],[20,1166],[19.9,1249],[19.9,1333],[19.9,1416],[19.9,1499],[19.9,1583],[19.9,1666],[19.9,1749],[20,1833],[24,1916],[31.4,2000],[37,2083],[37.4,2167],[37.4,2249],[32.7,2333],[16.5,2416],[14,2499],[13.2,2583],[13.2,2666],[13.2,2749],[13.2,2833],[13.2,2916],[13.2,3000],[13.2,3083],[13.2,3166],[13.2,3250],[12.8,3333],[8.5,3416],[6.8,3499],[5,3583],[4,3666],[2.7,3749],[12.2,7583],[42.9,7666],[45.4,7749],[45.4,7833],[45.7,7916],[46.4,7999],[48.4,8083],[50.5,8166],[51.8,8249],[52.2,8333],[53,8416],[53.1,8499],[53.1,8582],[55,8666],[58.4,8749],[59.9,8833],[59.9,8916],[59.9,8999],[60.2,9083],[60.3,9166],[60.3,9249],[60.3,9332],[60.3,9416],[60.3,9499],[60.3,9582],[60.3,9666],[60.4,9749],[60.5,9832],[60.5,9916],[60.5,9999],[60.5,10082],[60.5,10166],[60.5,10249],[60.5,10332],[60.5,10416],[60.5,10499],[60.5,10583],[60.5,10666],[60.5,10749],[60.5,10833],[60.5,10916],[60.5,11000],[60.5,11083],[60.5,11166],[60.5,11249],[60.5,11333],[60.5,11416],[60.5,11499],[60.5,11582],[60.5,11666],[60.9,11749],[61,11832],[62.6,11916],[64.2,12000],[65.4,12082],[65.6,12166],[65.6,12249],[65.6,12332],[65.6,12416],[65.6,12499],[66.5,12582],[64.3,12666],[59.5,12749],[40.2,12833],[24.5,12916],[19.3,12999],[12.1,13082],[5.4,13166],[5.3,13249],[5.2,13333],[3.8,13416],[1.5,13499],[1.3,21582],[8.8,21666],[11.1,21749],[13.6,21832],[18.3,21916],[22.3,21999],[24.3,22082],[25,22166],[26.1,22249],[29.1,22332],[35,22416],[36.8,22499],[38.5,22582],[40.3,22666],[41.3,22750],[44.6,22832],[47,22916],[48.2,22999],[49.6,23083],[50.1,23166],[50.1,23250],[50.2,23333],[50.2,23415],[50.3,23499],[50.3,23582],[50.4,23665],[50.4,23749],[50.4,23832],[50.4,23915],[50.4,23999],[50.4,24082],[50.4,24166],[50.4,24249],[50.4,24332],[50.4,24415],[50.4,24499],[50.4,24582],[50.4,24665],[50.4,24749],[50.4,24833],[50.4,24916],[50.4,24999],[50.4,25082],[50.4,25166],[50.4,25249],[50.4,25332],[50.4,25415],[50.4,25499],[50.4,25582],[50.4,25665],[50.4,25749],[50.4,25832],[50.4,25916],[50.4,25999],[50.4,26082],[50.4,26166],[50.4,26249],[50.4,26332],[50.4,26416],[50.4,26499],[50.4,26582]]",1,0,563.6407,565.9408,49.47916667,1.5368,"[{""rating"":49.47916666666667,""responseTime"":1.5368000000007669}]",space,1.7673,,565.9408,Partially,50,565.9415,,,[],,0,1,1,1,1,audio/Narrative7Situation1.wav,audio/Narrative8Situation1.wav,audio/Narrative5Situation1.wav,audio/Narrative6Situation1.wav,2,5,5,2,,,,,,,,,,,,,,,,,,,,,,,,,,,,,,,,,,,,,,,
,,,,,,5ac16e870527ba0001c1f27e,2024-02-08_15h32.02.831,group3.1-3.2-social-tom,2023.2.2,Win32,59.17159763,65c5074098b851296ff0b7ed,65c5414bd2f8aa0fa8538463,,,,,,,,,,,,,,,,,,,,,,,,,,,,,565.9416,2,audio/Narrative6Situation2.wav,568.9572,,568.9572,597.4569,"[[49.3,500],[45.1,583],[34.7,667],[29.5,750],[25.9,833],[17.1,916],[11.8,1000],[6.8,1083],[4.5,1166],[3.8,1250],[10.8,11250],[19,11333],[19.4,11416],[22,11500],[30.7,11583],[49,11666],[57.2,11749],[57.3,11833],[60.8,11916],[65.2,11999],[65.9,12083],[66,12166],[67.9,12249],[72.1,12333],[72.9,12416],[72.9,12499],[72.9,12583],[72.9,12666],[72.9,12749],[73,12833],[73.2,12916],[73.4,12999],[73.4,13083],[73.5,13166],[73.5,13249],[73.5,13332],[73.5,13416],[73.5,13499],[73.5,13582],[73.2,13666],[73.2,13749],[73.2,13832],[73.2,13916],[73.2,13999],[73.2,14082],[73.2,14166],[73.2,14250],[73.2,14333],[73.1,14416],[73.1,14499],[73.1,14583],[73.1,14666],[72.8,14749],[71.6,14833],[71.1,14916],[70.7,14999],[70.7,15082],[70.7,15166],[70.6,15249],[70.6,15333],[70.6,15416],[70.6,15500],[70.6,15583],[70.6,15666],[70.6,15749],[70.3,15832],[69.6,15916],[68.9,15999],[68.3,16082],[68.1,16166],[67.8,16249],[67.7,16333],[68.3,16416],[69.9,16499],[70.9,16583],[71.8,16666],[71.8,16749],[71.9,16832],[71.9,16916],[72.7,16999],[73.5,17083],[73.6,17166],[73.8,17249],[73.8,17333],[73.9,17416],[74.1,17499],[74.1,17583],[74.2,17666],[74.3,17749],[74.4,17833],[74.4,17916],[74.4,17999],[74.4,18083],[74.4,18166],[74.4,18249],[74.4,18333],[74.4,18416],[74.4,18499],[74.4,18583],[74.4,18666],[74.4,18749],[74.4,18832],[74.4,18916],[74.5,18999],[74.9,19083],[74.9,19166],[74.9,19249],[74.9,19333],[74.9,19416],[74.9,19499],[74.9,19583],[74.9,19666],[74.9,19749],[74.9,19832],[74.9,19916],[74.9,19999],[74.9,20082],[75.2,20166],[75.6,20249],[75.6,20332],[75.7,20416],[75.8,20499],[75.8,20583],[75.9,20666],[76,20749],[76,20832],[76,20916],[76,20999],[76,21082],[76,21166],[76,21249],[76,21332],[76,21416],[76,21499],[76,21582],[76,21666],[76,21749],[76,21832],[76,21916],[76,21999],[76,22082],[76,22166],[76,22249],[76,22332],[76,22416],[75.9,22499],[75.9,22583],[75.9,22666],[75.9,22749],[75.9,22833],[75.9,22916],[75.9,22999],[75.9,23082],[75.9,23166],[75.9,23249],[75.9,23333],[75.9,23416],[75.7,23499],[75,23583],[74.7,23666],[74.5,23749],[74.6,23832],[77.2,23916],[81.3,24000],[87.7,24416],[88,24499],[88.3,24582],[88.4,24666],[88.5,24749],[88.8,24832],[89.3,24916],[89.7,24999],[89.8,25082],[89.8,25166],[89.8,25249],[89.8,25332],[89.8,25416],[89.8,25499],[90.2,25583],[90.2,25668],[90.3,25749],[90.3,25833],[90.4,25916],[90.4,25999],[90.4,26082],[90.4,26166],[90.4,26249],[90.4,26332],[90.4,26416],[90.4,26499],[90.4,26582],[90.4,26666],[90.4,26749],[90.4,26832],[90.4,26916],[90.4,26999],[90.4,27082],[90.4,27166],[90.4,27249],[90.4,27333],[90.4,27416],[90.9,27499],[91.1,27582],[91.3,27666],[91.3,27749],[91.3,27832],[91.3,27916],[91.3,27999],[91.3,28082],[91.3,28166],[91.3,28249],[91.3,28332],[91.3,28416],[91.3,28499]]",1,0,597.4569,601.2065,91.66666667,2.0069,"[{""rating"":91.66666666666667,""responseTime"":2.006900000002247}]",space,3.2002,,601.2065,Not at all,0,601.208,,,[],,0,2,2,2,1,audio/Narrative7Situation2.wav,audio/Narrative8Situation2.wav,audio/Narrative5Situation2.wav,audio/Narrative6Situation2.wav,3,3,3,3,,,,,,,,,,,,,,,,,,,,,,,,,,,,,,,,,,,,,,,
,,,,,,5ac16e870527ba0001c1f27e,2024-02-08_15h32.02.831,group3.1-3.2-social-tom,2023.2.2,Win32,59.17159763,65c5074098b851296ff0b7ed,65c5414bd2f8aa0fa8538463,,,,,,,,,,,,,,,,,,,,,,,,,,,,,601.208,2,audio/Narrative6Situation3.wav,606.2231,,606.2231,618.823,"[[999,5],[999,83],[999,166],[999,249],[999,333],[999,416],[999,499],[999,583],[999,666],[999,750],[999,833],[999,916],[999,999],[999,1083],[999,1166],[999,1249],[999,1333],[999,1416],[999,1499],[999,1583],[999,1667],[999,1752],[999,1833],[999,1916],[999,2000],[999,2083],[999,2166],[999,2250],[999,2333],[999,2417],[999,2499],[999,2584],[999,2666],[999,2750],[999,2833],[999,2917],[999,3000],[36.1,3083],[28.5,3167],[14.7,3250],[7.7,3333],[3.8,3416],[0.9,3500],[0.6,6916],[18.1,7000],[33.9,7083],[44,7166],[53.9,7249],[65.9,7333],[73.3,7416],[76.5,7499],[78.9,7583],[79.8,7666],[81.6,7750],[83.8,7833],[85.2,7916],[86.1,8000],[86.9,8083],[87.2,8166],[88.4,8249],[88.6,8333],[88.6,8416],[88.6,8500],[88.6,8583],[88.6,8666],[88.6,8749],[88.6,8833],[88.6,8916],[88.6,9000],[88.6,9083],[88.6,9166],[88.6,9249],[88.8,9333],[88.9,9416],[89,9499],[89,9583],[88.9,9666],[88.9,9749],[88.9,9833],[88.9,9916],[88.9,9999],[88.9,10083],[88.9,10166],[88.9,10249],[88.9,10333],[88.9,10416],[88.9,10499],[88.9,10583],[88.9,10666],[88.9,10749],[88.9,10833],[88.9,10916],[88.9,10999],[88.9,11083],[88.9,11166],[88.9,11249],[88.9,11332],[88.9,11416],[88.9,11499],[88.9,11583],[88.9,11666],[88.9,11749],[88.9,11833],[88.9,11916],[88.9,11999],[88.9,12083],[88.9,12166],[88.9,12249],[88.9,12333],[88.9,12416],[88.9,12500],[88.9,12583]]",1,0,618.8232,622.1563,94.16666667,1.4401,"[{""rating"":94.16666666666667,""responseTime"":1.4401000000015074}]",space,2.7836,,622.1563,Definitely yes,100,622.1576,,,[],,0,3,3,3,1,audio/Narrative7Situation3.wav,audio/Narrative8Situation3.wav,audio/Narrative5Situation3.wav,audio/Narrative6Situation3.wav,8,4,3,5,,,,,,,,,,,,,,,,,,,,,,,,,,,,,,,,,,,,,,,
,,,,,,5ac16e870527ba0001c1f27e,2024-02-08_15h32.02.831,group3.1-3.2-social-tom,2023.2.2,Win32,59.17159763,65c5074098b851296ff0b7ed,65c5414bd2f8aa0fa8538463,,,,,,,,,,,,,,,,,,,,,,,,,,,,,622.1578,2,audio/Narrative6Situation4.wav,624.1728,,624.1728,636.7894,"[[51.9,333],[51.9,416],[51.8,500],[51.6,583],[51.1,666],[50.4,750],[47.3,833],[38.6,916],[26.7,1000],[16.8,1083],[12.3,1166],[6.5,1250],[5.7,1333],[3.3,1416],[0.9,1500],[0.2,1583]]",1,0,636.7894,640.0557,0.729166667,1.2565,"[{""rating"":0.7291666666666641,""responseTime"":1.25649999999996}]",space,2.7342,,640.0557,Not at all,0,640.0574,,,[],,0,4,4,4,1,audio/Narrative7Situation4.wav,audio/Narrative8Situation4.wav,audio/Narrative5Situation4.wav,audio/Narrative6Situation4.wav,3,3,1,2,,,,,,,,,,,,,,,,,,,,,,,,,,,,,,,,,,,,,,,
,,,,,,5ac16e870527ba0001c1f27e,2024-02-08_15h32.02.831,group3.1-3.2-social-tom,2023.2.2,Win32,59.17159763,65c5074098b851296ff0b7ed,65c5414bd2f8aa0fa8538463,,,,,,,,,,,,,,,,,,,,,,,,,,,,,640.0576,2,audio/Narrative6Situation5.wav,642.0722,,642.0722,650.0224,"[[2,750],[0.5,833],[2.8,2833],[16.8,2917],[24.5,3001],[25.2,3083],[25.9,3166],[25.9,3250],[25.9,3333],[25.9,3417],[25.9,3500],[25.9,3583],[25.9,3666],[25.9,3749],[24.4,3833],[22.9,3916],[22.7,3999],[22.6,4083],[22.6,4166],[22.6,4250],[22.6,4333],[22.7,4416],[23.2,4500],[23.4,4583],[23.5,4666],[23.5,4749],[23.5,4833],[23.5,4917],[23.5,5000],[23.5,5083],[23.5,5166],[23.5,5250],[23.5,5333],[23.5,5416],[23.5,5500],[23.5,5583],[23.5,5666],[23.5,5750],[23.5,5833],[23.5,5916],[23.5,5999],[23.5,6083],[23.5,6166],[23.5,6249],[23.5,6333],[23.5,6416],[23.5,6500],[22.4,6583],[18.8,6666],[17.6,6749],[15.6,6833],[12.3,6916],[5.8,7000],[2.6,7083],[2.5,7166],[1.8,7250],[1,7333],[0.7,7416],[0.7,7499],[0.5,7583]]",1,0,650.0224,652.3887,5.729166667,1.1759,"[{""rating"":5.729166666666669,""responseTime"":1.175899999998478}]",space,1.8394,,652.3887,Definitely yes,100,652.39,,,[],,0,5,5,5,1,audio/Narrative7Situation5.wav,audio/Narrative8Situation5.wav,audio/Narrative5Situation5.wav,audio/Narrative6Situation5.wav,5,2,5,2,,,,,,,,,,,,,,,,,,,,,,,,,,,,,,,,,,,,,,,
,,,,,,5ac16e870527ba0001c1f27e,2024-02-08_15h32.02.831,group3.1-3.2-social-tom,2023.2.2,Win32,59.17159763,65c5074098b851296ff0b7ed,65c5414bd2f8aa0fa8538463,,,,,,,,,,,,,,,,,,,,,,,,,,,,,652.3901,2,audio/Narrative6Situation6.wav,654.4057,,654.4057,665.4887,"[[0.5,584],[0.4,667],[1.4,749],[2,833],[2,916],[1.7,999],[0.9,1083],[0.8,1166],[0.7,1249],[0.6,1332],[0.6,1416],[0.6,1499],[0.6,1583],[0.6,1666],[0.6,1749],[0.6,1832],[0.6,1916],[1.5,2000],[4.1,2082],[4.2,2166],[4.2,2249],[4.8,2333],[4.9,2416],[5.8,2499],[8.3,2583],[10.7,2666],[11.4,2749],[11.9,2832],[13,2916],[15.7,2999],[17.1,3083],[19.2,3166],[19.6,3249],[19.6,3332],[20.1,3416],[21.1,3499],[21.4,3582],[21.4,3666],[21.6,3749],[21.7,3832],[21.8,3916],[21.9,3999],[22,4082],[22,4166],[22.1,4249],[22.1,4333],[22.1,4416],[22.1,4500],[22.1,4582],[22.1,4666],[22.1,4749],[22.1,4832],[22.1,4916],[22.1,4999],[22.1,5083],[22.7,5166],[24.7,5249],[26.3,5332],[27.2,5416],[28.3,5499],[29.3,5582],[32.2,5666],[38.9,5749],[41.9,5832],[42.9,5916],[44.8,5999],[45.6,6082],[45.7,6166],[45.9,6249],[47.6,6333],[48.9,6416],[48.9,6499],[48.9,6583],[49,6666],[49,6749],[49.2,6832],[49.3,6917],[49.4,6999],[49.6,7082],[49.7,7166],[49.8,7249],[49.8,7332],[49.9,7416],[49.9,7499],[49.9,7582],[49.9,7666],[49.9,7749],[49.9,7832],[49.9,7916],[49.9,7999],[49.9,8082],[49.9,8166],[49.9,8249],[49.9,8332],[49.9,8416],[49.9,8499],[49.9,8582],[49.9,8666],[49.9,8749],[50,8832],[50,8916],[50,8999],[50,9082],[50,9166],[50,9249],[50,9332],[50.1,9416],[50.1,9499],[50.2,9582],[50.2,9665],[50.2,9749],[50.3,9832],[50.3,9916],[50.3,9999],[50.3,10082],[50.3,10166],[50.3,10249],[50.3,10332],[50.3,10416],[50.3,10499],[50.3,10582],[50.3,10665],[50.3,10749],[50.3,10832],[50.3,10916],[50.3,10999],[50.3,11082]]",1,0,665.4888,668.8727,70.3125,2.4536,"[{""rating"":70.3125,""responseTime"":2.4536000000015292}]",space,2.8373,,668.8727,Not at all,0,668.877,,,[],,0,6,6,6,1,audio/Narrative7Situation6.wav,audio/Narrative8Situation6.wav,audio/Narrative5Situation6.wav,audio/Narrative6Situation6.wav,3,2,3,2,,,,,,,,,,,,,,,,,,,,,,,,,,,,,,,,,,,,,,,
,,,,,,5ac16e870527ba0001c1f27e,2024-02-08_15h32.02.831,group3.1-3.2-social-tom,2023.2.2,Win32,59.17159763,65c5074098b851296ff0b7ed,65c5414bd2f8aa0fa8538463,,,,,,,,,,,,,,,,,,,,,,,,,,,,,668.8775,2,audio/Narrative6Situation7.wav,673.8883,,673.8883,698.7545,"[[17,833],[6.6,916],[6.6,999],[6.6,1083],[5.9,1166],[3.4,1250],[4.1,6333],[4.1,6416],[4.1,6499],[4.1,6583],[4.1,6666],[4.1,6749],[4.1,6833],[4.1,6916],[4.1,6999],[4.1,7083],[4.1,7166],[4.1,7249],[4.1,7333],[4.1,7416],[8.5,7499],[9.9,7583],[18,7666],[71.8,8166],[67.9,8249],[67.9,8333],[70.1,8416],[70.8,8499],[71.5,8583],[73.8,8666],[77.7,8749],[78.3,8833],[78.4,8916],[78.6,8999],[79.1,9083],[79.6,9167],[79.9,9249],[80.3,9333],[81,9416],[81.3,9500],[81.5,9583],[81.6,9666],[81.7,9749],[82,9833],[82.1,9916],[82.4,9999],[82.5,10083],[86.1,11499],[86.7,11583],[86.7,11666],[86.7,11749],[86.6,11833],[86.1,11916],[85.7,11999],[85.7,12083],[87.1,12166],[88.6,12249],[88.8,12332],[88.8,12416],[88.8,12499],[88.8,12582],[88.8,12666],[88.8,12749],[88.8,12833],[88.8,12916],[88.8,12999],[88.8,13083],[88.8,13166],[88.8,13249],[88.8,13332],[88.8,13416],[88.8,13499],[88.8,13583],[88.8,13666],[88.8,13749],[88.8,13833],[88.8,13916],[88.8,14000],[88.8,14082],[88.8,14166],[88.8,14249],[88.8,14332],[88.8,14416],[88.8,14499],[88.8,14583],[88.8,14666],[88.8,14749],[88.8,14833],[88.8,14916],[88.8,14999],[88.8,15082],[88.5,15166],[88.5,15249],[88.5,15333],[88.5,15416],[88.5,15499],[88.5,15582],[88.5,15666],[88.5,15749],[88.5,15833],[88.5,15916],[88.5,15999],[88.5,16082],[88.5,16166],[88.4,16249],[88.3,16333],[88.1,16416],[88,16499],[87.6,16582],[87.5,16666],[87.4,16749],[87.3,16832],[87.3,16916],[87.3,16999],[87.3,17083],[87.2,17166],[87.1,17249],[86.7,17333],[86.3,17416],[86.1,17499],[86.1,17582],[86.1,17666],[86.1,17749],[86,17833],[85.5,17916],[84.2,17999],[82.4,18083],[79.8,18166],[78.3,18249],[76.9,18332],[75.6,18416],[75.4,18499],[74.7,18582],[73.2,18666],[72.2,18749],[71.1,18832],[70.5,18916],[70.1,18999],[69.9,19082],[69.9,19166],[69.9,19249],[69.9,19332],[69.5,19416],[69.2,19499],[68.6,19582],[67.9,19666],[67.4,19749],[66.8,19832],[65.8,19916],[65.6,19999],[65.6,20082],[65.4,20166],[65.4,20249],[65.4,20332],[65.4,20416],[65.2,20499],[64.6,20582],[64.3,20666],[64.2,20749],[64.2,20832],[64.2,20916],[64.2,20999],[64.2,21083],[64.2,21166],[64.2,21249],[64.1,21332],[63.8,21416],[63.6,21499],[63.5,21582],[63.5,21666],[63.5,21749],[63.2,21832],[63.1,21916],[62.8,22000],[62.5,22083],[62.3,22166],[62.2,22249],[62.2,22332],[62.2,22416],[62,22499],[61.7,22582],[61.6,22666],[61.6,22749],[61.6,22833],[61.5,22916],[61.4,22999],[61.1,23082],[61.1,23166],[61.1,23249],[61.1,23332],[61.6,23416],[62.3,23499],[62.7,23582],[63.9,23666],[66.7,23749],[70.3,23832],[73.4,23916],[74.8,23999],[75.4,24082],[75.8,24166],[75.8,24249],[75.8,24333],[75.8,24415],[75.8,24499],[75.4,24582],[73.8,24666],[72.3,24749],[72.1,24832]]",1,0,698.7546,701.4044,75.20833333,1.3582,"[{""rating"":75.20833333333333,""responseTime"":1.358199999999215}]",space,2.1056,,701.4045,Not at all,0,701.4055,,,[],,0,7,7,7,1,audio/Narrative7Situation7.wav,audio/Narrative8Situation7.wav,audio/Narrative5Situation7.wav,audio/Narrative6Situation7.wav,5,3,4,5,,,,,,,,,,,,,,,,,,,,,,,,,,,,,,,,,,,,,,,
,,,,,,5ac16e870527ba0001c1f27e,2024-02-08_15h32.02.831,group3.1-3.2-social-tom,2023.2.2,Win32,59.17159763,65c5074098b851296ff0b7ed,65c5414bd2f8aa0fa8538463,,,,,,,,,,,,,,,,,,,,,,,,,,,,,701.4057,2,audio/Narrative6Situation8.wav,706.4208,,706.4209,713.2875,"[[46.7,166],[46.7,250],[46.7,333],[46.7,416],[46.7,499],[46.7,583],[46.7,666],[46.7,750],[46.7,833],[46.7,916],[44.4,1000],[41.5,1083],[41.5,1166],[40.4,1250],[36.1,1333],[35.2,1416],[33.8,1500],[22.9,1583],[11.3,1667],[7,1750],[1.4,1833]]",1,0,713.2875,716.0543,0.729166667,1.1895,"[{""rating"":0.7291666666666641,""responseTime"":1.1894999999999527}]",space,2.2331,,716.0543,Definitely yes,100,716.0567,,,[],,0,8,8,8,1,audio/Narrative7Situation8.wav,audio/Narrative8Situation8.wav,audio/Narrative5Situation8.wav,audio/Narrative6Situation8.wav,2,3,3,5,,,,,,,,,,,,,,,,,,,,,,,,,,,,,,,,,,,,,,,
,,,,,,5ac16e870527ba0001c1f27e,2024-02-08_15h32.02.831,group3.1-3.2-social-tom,2023.2.2,Win32,59.17159763,65c5074098b851296ff0b7ed,65c5414bd2f8aa0fa8538463,,,,,,,,,,,,,,,,,,,,,,,,,,,,,716.0569,2,audio/Narrative6Situation9.wav,720.0709,,720.0709,730.0205,"[[0.2,6249],[9.1,6332],[12.9,6416],[12.9,6500],[12.8,6582],[12.7,6666],[12.6,6749],[12.5,6832],[12.2,6916],[11.7,6999],[11.5,7082],[10.9,7166],[10.5,7249],[9.7,7333],[8.9,7416],[8.8,7500],[7.5,7582],[6.5,7667],[5.5,7749],[5.2,7833],[4.5,7916],[3.5,7999],[2.9,8082],[2.8,8166],[2.2,8249],[1.3,8332],[0.4,8416],[0.3,8499],[0.2,8582]]",1,0,730.0205,734.0597,0.3125,2.2817,"[{""rating"":0.3124999999999989,""responseTime"":2.281699999999205}]",space,3.5003,,734.0597,Partially,50,734.0608,,,[],,0,9,9,9,1,audio/Narrative7Situation9.wav,audio/Narrative8Situation9.wav,audio/Narrative5Situation9.wav,audio/Narrative6Situation9.wav,2,3,3,4,,,,,,,,,,,,,,,,,,,,,,,,,,,,,,,,,,,,,,,
,,,,,,5ac16e870527ba0001c1f27e,2024-02-08_15h32.02.831,group3.1-3.2-social-tom,2023.2.2,Win32,59.17159763,65c5074098b851296ff0b7ed,65c5414bd2f8aa0fa8538463,,,,,,,,,,,,,,,,,,,,,,,,,,,,,734.0608,2,audio/Narrative5Situation1.wav,739.0704,,739.0705,752.3866,"[[999,5],[999,83],[999,166],[999,249],[999,333],[999,416],[999,504],[999,583]]",1,0,752.3866,756.0249,9.6875,3.3258,"[{""rating"":0.6249999999999978,""responseTime"":1.1826000000014574},{""rating"":9.687499999999998,""responseTime"":3.3258000000006405}]",space,3.1082,,756.0249,Not at all,0,756.0259,,,[],,0,10,10,10,1,audio/Narrative8Situation1.wav,audio/Narrative7Situation1.wav,audio/Narrative6Situation1.wav,audio/Narrative5Situation1.wav,5,2,2,5,,,,,,,,,,,,,,,,,,,,,,,,,,,,,,,,,,,,,,,
,,,,,,5ac16e870527ba0001c1f27e,2024-02-08_15h32.02.831,group3.1-3.2-social-tom,2023.2.2,Win32,59.17159763,65c5074098b851296ff0b7ed,65c5414bd2f8aa0fa8538463,,,,,,,,,,,,,,,,,,,,,,,,,,,,,756.026,2,audio/Narrative5Situation2.wav,759.0426,,759.0426,788.5078,"[[2.6,916],[0.6,999],[0.4,1082],[0.3,4254],[3.1,4327],[4.4,4416],[4.4,4493],[4.4,4577],[4.6,4665],[5.7,4749],[7.2,4832],[7.8,4916],[7.9,4993],[8.1,5082],[8.4,5160],[8.8,5248],[9.3,5330],[10.6,5410],[13.8,5499],[14.9,5577],[14.9,5665],[15.5,5749],[24.2,5832],[26.8,5910],[26.8,5993],[26.8,6076],[26.8,6165],[26.8,6243],[26.8,6327],[26.8,6410],[26.1,6499],[25.4,6582],[25,6665],[24.8,6743],[24.5,6832],[24.2,6910],[24.2,6993],[24.2,7082],[24.1,7163],[24.1,7244],[24.1,7333],[24.1,7410],[24.1,7499],[24.1,7582],[24.1,7665],[24.1,7743],[23.8,7827],[21.5,7916],[21.4,7999],[20.7,8083],[19.6,8165],[17.3,8249],[14.5,8332],[11.3,8416],[7.9,8499],[4,8576],[0.1,16416],[0.7,16499],[1.7,16582],[2.3,16665],[2.8,16743],[3.3,16832],[4.9,16915],[7.2,16999],[7.5,17076],[7.5,17160],[7.5,17248],[7.5,17332],[7.4,17409],[6.5,17499],[5,17582],[4.4,17666],[3.5,17748],[2.6,17827],[2,17915],[1.4,17998],[0.6,18082],[0.4,23499],[0.9,23576],[1,23665],[1.7,23749],[1.9,23832],[2,23915],[2,23993],[2,24077],[2,24165],[2,24243],[2,24326],[2,24415],[2,24493],[1.9,24581],[1.5,24665],[0.6,24749],[0.4,29415]]",1,0,788.5079,791.1859,8.75,1.2166,"[{""rating"":8.750000000000002,""responseTime"":1.2166000000015629}]",space,2.1435,,791.186,Partially,50,791.1871,,,[],,0,11,11,11,1,audio/Narrative8Situation2.wav,audio/Narrative7Situation2.wav,audio/Narrative6Situation2.wav,audio/Narrative5Situation2.wav,3,3,3,3,,,,,,,,,,,,,,,,,,,,,,,,,,,,,,,,,,,,,,,
,,,,,,5ac16e870527ba0001c1f27e,2024-02-08_15h32.02.831,group3.1-3.2-social-tom,2023.2.2,Win32,59.17159763,65c5074098b851296ff0b7ed,65c5414bd2f8aa0fa8538463,,,,,,,,,,,,,,,,,,,,,,,,,,,,,791.1873,2,audio/Narrative5Situation3.wav,794.2075,,794.2075,808.1189,"[[0.1,2416],[0.4,2495],[3.8,2583],[12.6,2666],[21.8,2750],[22.1,2828],[22.3,2916],[32,3000],[41.6,3083],[43.2,3167],[47,3250],[47.4,3328],[47.9,3416],[49,3500],[49.2,3578],[49.2,3661],[49.2,3749],[49.2,3828],[49.2,3911],[49.2,3994],[49.3,4078],[49.3,4161],[49.3,4245],[49.4,4327],[49.4,4416],[49.4,4495],[49.4,4578],[49.4,4661],[49.4,4750],[49.4,4827],[49.4,4911],[49.4,4994],[49.2,5078],[47.5,5167],[47.5,5250],[47.5,5333],[47.8,5416],[48.8,5500],[49,5583],[49.5,5666],[50.3,5744],[50.7,5833],[51.8,5911],[53.5,6000],[54,6083],[55.2,6167],[56.5,6250],[56.7,6328],[56.9,6417],[56.9,6500],[57,6578],[61.3,8333],[61,8416],[60.9,8494],[60.9,8583],[60.9,8661],[60.9,8744],[60.9,8827],[60.9,8911],[61.3,9000],[61.4,9077],[61.4,9161],[61.4,9244],[61.4,9332],[61.4,9416],[62.4,9499],[64.6,9577],[64.6,9666],[64.6,9745],[64.6,9834],[64.6,9911],[64.6,9994],[64.7,10083],[64.9,10166],[64.9,10245],[64.9,10334],[64.9,10411],[65,10500],[65,10583],[65.1,10666],[65.5,10750],[65.7,10832],[65.9,10917],[66.1,11000],[66.3,11077],[66.4,11167],[66.4,11244],[66.4,11333],[66.5,11410],[66.7,11501],[66.7,11577],[66.7,11666],[66.7,11750],[66.9,11834],[67.4,11917],[67.4,12000],[67.4,12083],[67.4,12167],[67.4,12250],[66.4,12333],[64.3,12417],[62,12500],[61.3,12577],[61.3,12667],[61.3,12744],[61.3,12835],[61.3,12916],[61.3,13000],[61.3,13083],[61.3,13166],[61.3,13250],[61.3,13327],[61.3,13417],[61.3,13494],[61.3,13578],[61.3,13661],[61.3,13744],[61.3,13827],[61.3,13911]]",1,0,808.1191,811.1854,62.39583333,1.6127,"[{""rating"":62.39583333333334,""responseTime"":1.6126999999992222}]",space,2.5242,,811.1854,Partially,50,811.1862,,,[],,0,12,12,12,1,audio/Narrative8Situation3.wav,audio/Narrative7Situation3.wav,audio/Narrative6Situation3.wav,audio/Narrative5Situation3.wav,4,8,5,3,,,,,,,,,,,,,,,,,,,,,,,,,,,,,,,,,,,,,,,
,,,,,,5ac16e870527ba0001c1f27e,2024-02-08_15h32.02.831,group3.1-3.2-social-tom,2023.2.2,Win32,59.17159763,65c5074098b851296ff0b7ed,65c5414bd2f8aa0fa8538463,,,,,,,,,,,,,,,,,,,,,,,,,,,,,811.1863,2,audio/Narrative5Situation4.wav,812.2021,,812.2021,832.5849,"[[48.1,172],[48.1,255],[43.3,338],[2.1,1171],[0.8,1255],[0.3,1338],[1.3,13421],[5.9,13504],[7.9,13588],[10.9,13671],[12.3,13755],[12.7,13838],[13,13921],[13.2,14004],[13.5,14088],[13.6,14171],[13.9,14250],[13.9,14333],[13.9,14416],[13.9,14504],[14,14582],[14,14671],[14,14749],[14,14833],[14,14921],[14.2,14999],[14.3,15083],[14.4,15166],[14.4,15254],[14.4,15332],[14.4,15416],[14.5,15499],[14.6,15588],[14.7,15666],[14.7,15755],[14.7,15832],[14.7,15921],[14.7,16004],[14.7,16087],[14.8,16166],[14.8,16249],[14.8,16332],[14.8,16421],[14.8,16499],[14.9,16587],[15.6,16671],[19,16755],[19.5,16832],[19.5,16916],[20.4,17005],[21.3,17088],[22.8,17171],[24.1,17255],[24.2,17339],[24.3,17422],[25.1,17506],[25.4,17586],[25.9,17673],[26.6,17754],[26.7,17838],[26.7,17924],[26.7,17999],[26.7,18082],[26.7,18171],[26.7,18255],[26.7,18339],[26.7,18416],[26.7,18506],[26.7,18588],[26.7,18672],[27.9,18755],[29.4,18841],[29.7,18921],[31.6,19005],[35,19089],[38.5,19172],[40.3,19255],[42.2,19338],[45.1,19422],[54.5,19505],[58.5,19588],[61.4,19671],[68.5,19755],[74.8,19838],[75.1,19916],[75.3,20004],[75.3,20082],[75.3,20171],[75.3,20254],[75.6,20338]]",1,0,832.585,835.6566,88.33333333,1.4719,"[{""rating"":88.33333333333333,""responseTime"":1.4718999999984135}]",space,2.5322,,835.6567,Partially,50,835.6573,,,[],,0,13,13,13,1,audio/Narrative8Situation4.wav,audio/Narrative7Situation4.wav,audio/Narrative6Situation4.wav,audio/Narrative5Situation4.wav,3,3,2,1,,,,,,,,,,,,,,,,,,,,,,,,,,,,,,,,,,,,,,,
,,,,,,5ac16e870527ba0001c1f27e,2024-02-08_15h32.02.831,group3.1-3.2-social-tom,2023.2.2,Win32,59.17159763,65c5074098b851296ff0b7ed,65c5414bd2f8aa0fa8538463,,,,,,,,,,,,,,,,,,,,,,,,,,,,,835.6574,2,audio/Narrative5Situation5.wav,840.6683,,840.6683,856.1065,"[[8.6,505],[6.6,588],[4.9,671],[4.8,749],[4.8,832],[2.8,916],[2.2,999],[2.2,1088],[1.9,1171],[1.3,1254],[0.3,1338],[0.4,7921],[0.9,8004],[1,8087],[1,8166],[1,8249],[1.4,8338],[1.5,8416],[1.5,8505],[1.5,8583],[1.5,8666],[1.5,8753],[1.5,8838],[1.4,8917],[1.3,8999],[1.1,9082],[1.1,9166],[1.1,9249],[1.1,9332],[1.1,9416],[1.1,9499],[1.1,9582],[1.1,9666],[1.1,9753],[1.1,9837],[1.1,9916],[1.1,9999],[1.1,10082],[1.1,10166],[1.1,10249],[1.1,10332],[1.1,10421],[1.1,10499],[1.1,10587],[1.3,10670],[1.5,10755],[1.6,10838],[1.6,10916],[1.7,10999],[1.7,11082],[1.7,11166],[1.7,11254],[1.7,11338],[1.7,11416],[1.7,11499],[1.7,11582],[1.7,11670],[1.7,11749],[1.7,11832],[1.7,11916],[1.7,11999],[1.7,12082],[1.7,12166],[1.7,12254],[1.7,12332],[1.8,12416],[1.8,12504],[1.8,12582],[1.9,12665],[1.9,12750],[1.9,12832],[1.9,12921],[1.9,12999],[1.9,13082],[1.9,13166],[1.9,13249],[1.9,13332],[2,13416],[2,13504],[2,13582],[2,13666],[2,13754],[2,13839],[2,13923],[2.1,14004],[2.1,14089],[2.1,14166],[2.1,14249],[2.2,14338],[2.2,14415],[2.2,14499],[2.3,14588],[2.3,14671],[2.3,14756],[2.3,14832],[2.3,14921],[2.3,15005],[2.3,15088],[2.3,15165],[2.6,15249],[4.6,15332],[5.5,15421]]",1,0,856.1066,860.123,3.125,2.3742,"[{""rating"":3.125,""responseTime"":2.3741999999992913}]",space,3.4755,,860.123,Definitely yes,100,860.124,,,[],,0,14,14,14,1,audio/Narrative8Situation5.wav,audio/Narrative7Situation5.wav,audio/Narrative6Situation5.wav,audio/Narrative5Situation5.wav,2,5,2,5,,,,,,,,,,,,,,,,,,,,,,,,,,,,,,,,,,,,,,,
,,,,,,5ac16e870527ba0001c1f27e,2024-02-08_15h32.02.831,group3.1-3.2-social-tom,2023.2.2,Win32,59.17159763,65c5074098b851296ff0b7ed,65c5414bd2f8aa0fa8538463,,,,,,,,,,,,,,,,,,,,,,,,,,,,,860.1241,2,audio/Narrative5Situation6.wav,863.1342,,863.1342,868.8179,"[[4.9,422],[4.9,500],[4.9,583],[4.9,671],[4.9,754],[4.9,838],[4.9,921],[5.9,1005],[9.3,1083],[10.4,1166],[10.6,1255],[11.6,1333],[12.5,1416],[12.9,1500],[13.3,1583],[13.5,1666],[13.5,1755],[11.9,1839],[5.7,1922],[3.3,2005],[3.3,2088],[2.9,2172],[1.6,2255],[0.4,2338],[4.5,3166],[12.8,3255],[17.4,3338],[21.8,3422],[27.7,3505],[37,3588],[47.9,3672],[49.6,3755],[49.8,3839],[50.7,3922],[51,4005],[51.3,4083],[51.3,4171],[50.7,4255],[49.9,4333],[49.8,4416],[49.8,4504],[49.8,4588],[49.8,4666],[49.8,4750],[49.8,4838],[49.8,4921],[49.8,4999],[49.7,5088],[49.6,5166],[49.5,5249],[49.5,5338],[49.5,5421],[49.5,5500],[49.5,5588],[49.5,5666]]",1,0,868.8182,872.2728,79.47916667,3.1248,"[{""rating"":79.47916666666667,""responseTime"":3.1248000000007323}]",space,2.9001,,872.2728,Not at all,0,872.2739,,,[],,0,15,15,15,1,audio/Narrative8Situation6.wav,audio/Narrative7Situation6.wav,audio/Narrative6Situation6.wav,audio/Narrative5Situation6.wav,2,3,2,3,,,,,,,,,,,,,,,,,,,,,,,,,,,,,,,,,,,,,,,
,,,,,,5ac16e870527ba0001c1f27e,2024-02-08_15h32.02.831,group3.1-3.2-social-tom,2023.2.2,Win32,59.17159763,65c5074098b851296ff0b7ed,65c5414bd2f8aa0fa8538463,,,,,,,,,,,,,,,,,,,,,,,,,,,,,872.274,2,audio/Narrative5Situation7.wav,876.284,,876.284,897.3231,"[[999,5],[999,83],[999,166],[999,250],[999,333],[999,416],[999,499],[999,588],[999,666],[999,755],[999,838],[2.7,1255],[2.7,1338],[2.7,1416],[2.7,1499],[2.7,1588],[2.1,1672],[0.1,3588],[0.8,3672],[1,3750],[1.3,3840],[1.5,3922],[1.5,4005],[1.5,4087],[1.5,4174],[1.1,4255],[0.3,4338],[0.1,7172],[2,7255],[4.7,7339],[6.9,7422],[9,7505],[10.5,7589],[12.6,7672],[13.9,7755],[15.7,7839],[17.6,7921],[17.7,8005],[17.7,8088],[17.7,8171],[17.7,8249],[19.7,8338],[23.3,8421],[26.1,8499],[28.1,8588],[30.6,8666],[31.9,8754],[32.5,8832],[32.5,8916],[32.5,8999],[29.5,9088],[25.9,9172],[23,9249],[19.4,9338],[17.1,9422],[17.1,9505],[15.5,9582],[11.9,9666],[8.9,9755],[5.8,9838],[3.8,9921],[2.9,10005],[2.7,10087],[2.1,10171],[1.8,10255],[1,10338],[0.2,10421],[0.1,12838],[1.6,12921],[1.6,13005],[1.6,13088],[1.6,13166],[1.6,13249],[0.9,13338],[0.3,13422],[0.2,13505],[0.2,13582],[0.2,13666],[0.2,13749],[0.2,13838],[0.2,13922],[0.2,13999],[0.2,14083],[0.2,14166],[0.2,14254],[0.2,14332],[0.2,14421],[0.2,14499],[0.2,14587],[0.2,14671],[0.2,14749],[0.2,14838],[0.2,14916],[0.2,14999],[0.2,15088],[0.2,15166],[0.2,15253],[0.2,15332],[0.2,15416],[0.2,15504],[0.2,15582],[0.2,15666],[0.2,15755],[0.2,15832],[0.2,15921],[0.2,15999],[0.2,16082],[0.2,16171],[0.2,16249],[0.2,16338],[0.5,16416],[1,16505],[1.6,16582],[2.2,16672],[2.6,16755],[2.8,16838],[3.1,16916],[3.2,16999],[3.2,17088],[3.2,17171],[3.2,17249],[3,17333],[2.8,17421],[2.7,17499],[2.6,17582],[2.5,17671],[2.1,17754],[1.9,17838],[1.7,17921],[1.5,18006],[1.4,18083],[1.3,18166],[1,18254],[0.7,18332],[0.4,18421],[0.2,20338],[0.3,20416],[0.4,20499],[0.6,20588],[0.9,20666],[1.1,20749],[1.3,20832],[1.6,20921],[1.7,21004]]",1,0,897.3231,900.5222,3.4375,1.3731,"[{""rating"":3.437499999999999,""responseTime"":1.3730999999978621}]",space,2.6507,,900.5222,Definitely yes,100,900.5232,,,[],,0,16,16,16,1,audio/Narrative8Situation7.wav,audio/Narrative7Situation7.wav,audio/Narrative6Situation7.wav,audio/Narrative5Situation7.wav,3,5,5,4,,,,,,,,,,,,,,,,,,,,,,,,,,,,,,,,,,,,,,,
,,,,,,5ac16e870527ba0001c1f27e,2024-02-08_15h32.02.831,group3.1-3.2-social-tom,2023.2.2,Win32,59.17159763,65c5074098b851296ff0b7ed,65c5414bd2f8aa0fa8538463,,,,,,,,,,,,,,,,,,,,,,,,,,,,,900.5233,2,audio/Narrative5Situation8.wav,903.5335,,903.5335,912.3724,"[[2,589],[2,672],[2,749],[2,833],[2,921],[4,1005],[13.4,1089],[19.3,1172],[22,1255],[22.1,1341],[22.1,1422],[22.1,1505],[22.1,1583],[22.1,1673],[22.1,1749],[22.1,1833],[21.7,1922],[19.9,2007],[16.7,2088],[12.5,2172],[8,2255]]",1,0,912.3725,915.1165,0.520833333,1.5768,"[{""rating"":0.5208333333333315,""responseTime"":1.5768000000007305}]",space,2.2065,,915.1165,Partially,50,915.1179,,,[],,0,17,17,17,1,audio/Narrative8Situation8.wav,audio/Narrative7Situation8.wav,audio/Narrative6Situation8.wav,audio/Narrative5Situation8.wav,3,2,5,3,,,,,,,,,,,,,,,,,,,,,,,,,,,,,,,,,,,,,,,
,,,,,,5ac16e870527ba0001c1f27e,2024-02-08_15h32.02.831,group3.1-3.2-social-tom,2023.2.2,Win32,59.17159763,65c5074098b851296ff0b7ed,65c5414bd2f8aa0fa8538463,,,,,,,,,,,,,,,,,,,,,,,,,,,,,915.1181,2,audio/Narrative5Situation9.wav,918.1389,,918.1389,957.688,"[[7.1,916],[4.6,1000],[3.2,1083],[1,1166],[0.6,1249],[2.8,10504],[5.1,10577],[5.1,10665],[5.3,10749],[5.8,10833],[7.8,10915],[9.9,10999],[11.7,11082],[13.5,11165],[14.2,11244],[14.8,11332],[15.1,11416],[15.1,11493],[15.1,11582],[15.1,11665],[15.1,11747],[15.1,11835],[15.1,11916],[15.2,12001],[15.2,12076],[15.6,12166],[15.6,12249],[15.6,12326],[15.9,12410],[15.9,12499],[15.9,12582],[15.9,12666],[16,12748],[16.4,12826],[16.9,12916],[18.3,12999],[20,13083],[22.6,13165],[23.2,13249],[24,13332],[24.2,13416],[24.4,13493],[24.4,13582],[24.4,13666],[24.4,13748],[24.4,13827],[24.4,13914],[24.4,13993],[24.4,14076],[24.4,14165],[24.4,14243],[24.4,14326],[24.4,14416],[24.4,14494],[24.4,14576],[24.4,14660],[24.4,14749],[24.4,14832],[24.4,14916],[24.4,14994],[24.4,15077],[24.4,15160],[24.4,15243],[24.4,15332],[25,15416],[25.7,15499],[26.1,15577],[26.3,15660],[27.3,15749],[28.5,15833],[29.6,15916],[30.5,15999],[31.3,16083],[34,16166],[34.6,16249],[34.7,16333],[35.4,16415],[36.1,16499],[36.9,16583],[36.9,16660],[36.9,16743],[37.3,16832],[38.2,16915],[39.5,16999],[40.8,17082],[42.2,17166],[43.1,17249],[44.3,17332],[45.6,17410],[52.5,18415],[52.4,18493],[51.3,18582],[51.3,18660],[51.3,18744],[51.3,18826],[51.1,18915],[51.1,18994],[51.3,19082],[51.6,19165],[51.8,19243],[51.8,19327],[51.9,19410],[51.9,19499],[51.9,19577],[51.9,19660],[51.9,19743],[51.9,19831],[51.9,19910],[51.9,19998],[51.9,20076],[51.9,20160],[51.9,20243],[51.9,20327],[51.9,20410],[51.9,20493],[51.9,20576],[51.9,20660],[51.9,20748],[51.9,20827],[52.4,20915],[52.5,20993],[52.5,21081],[52.5,21165],[52.5,21243],[52.3,21327],[52.2,21415],[52.2,21493],[52.2,21582],[52.2,21660],[52.2,21743],[53.3,21832],[54,21915],[54.2,21998],[54.2,22076],[54.2,22160],[54.2,22243],[54.2,22331],[54.2,22415],[53.6,22499],[53.2,22583],[52.4,22665],[51.8,22748],[50.8,22832],[50.2,22915],[50,22998],[50,23081],[50,23160],[50,23248],[50,23327],[50,23410],[50,23498],[50,23577],[50,23660],[50,23748],[50.1,23832],[50.1,23910],[50.1,23998],[50.1,24076],[50.1,24160],[50.1,24249],[50.1,24326],[50.1,24410],[50.1,24498],[50.1,24576],[50.1,24660],[50.1,24743],[50.1,24830],[50.1,24915],[50.1,24998],[50.1,25076],[50.1,25165],[50.1,25248],[50.1,25332],[50.1,25409],[50.1,25493],[50.1,25582],[50.1,25660],[49.4,25748],[49.4,25827],[48.9,25916],[45.1,25998],[44,26076],[39.4,26166],[38.6,26243],[38.6,26326],[38.3,26415],[38.3,26493],[38.3,26582],[38.3,26665],[38.3,26743],[38.9,26832],[39.9,26910],[41.8,26999],[42.1,27076],[42.7,27160],[43.4,27249],[43.6,27332],[44.3,27415],[44.5,27493],[45.1,27576],[45.3,27666],[45.4,27749],[45.5,27832],[45.8,27915],[46.4,27999],[46.5,28076],[46.9,28166],[47,28249],[47.2,28332],[47.2,28409],[47.3,28498],[47.4,28581],[47.5,28663],[47.5,28748],[47.5,28831],[47.5,28915],[47.5,28993],[47.5,29082],[47.6,29159],[47.6,29243],[47.7,29326],[47.7,29410],[47.8,29498],[47.8,29576],[47.8,29660],[47.8,29748],[47.9,29826],[47.9,29915],[47.9,29993],[48,30082],[48,30165],[48.1,30243],[48.3,30332],[49.6,30415],[52.6,30499],[54.4,30581],[55.1,30665],[57,30748],[58.8,30831],[60.9,30916],[63.1,30998],[65.1,31082],[65.6,31165],[66.9,31243],[67.8,31332],[68.6,31415],[69.2,31493],[70.9,31582],[71.6,31665],[72,31748],[72,31826],[72.2,31915],[72.4,31998],[72.8,32082],[72.8,32160],[72.8,32243],[73.5,32326],[73.5,32409],[73.6,32493],[73.6,32576],[73.6,32659],[73.6,32748],[73.6,32826],[73.6,32909],[73.6,32993],[73.6,33081],[73.8,33160],[73.9,33243],[74,33332],[74,33409],[74.1,33498],[74.1,33581],[74.1,33665],[74.1,33743],[74.1,33831],[74.1,33910],[74.2,33998],[74.4,34076],[74.4,34159],[74.4,34243],[74.4,34326],[74.4,34409],[74.4,34493],[74.4,34583],[74.4,34665],[74.4,34748],[74.4,34826],[74.4,34915],[74.4,34993],[74.4,35082],[74.4,35165],[74.4,35248],[74.4,35333],[74.4,35409],[74.4,35493],[74.3,35582],[74.3,35665],[74.2,35750],[74.2,35826],[74.1,35915],[73.9,35993],[73.8,36081],[73.8,36159],[73.5,36243],[73.2,36332],[72.6,36415],[70.2,36501],[69.1,36576],[69.1,36665],[69,36748],[69,36832],[68.8,36916],[68.8,37000],[68.5,37082],[68.5,37165],[68.5,37247],[68.3,37332],[68,37415],[67.5,37498],[67.1,37576],[67,37666],[66.5,37748],[66.4,37826],[65.7,37915],[65.7,37998],[65.3,38082],[65.3,38165],[65.3,38243],[65.3,38333],[65.3,38415],[65.3,38498],[65.3,38576],[65.3,38659],[65.3,38748],[65.3,38832],[65.3,38909],[65.3,38999],[65.3,39083],[65.3,39159],[65.3,39249],[65.3,39332],[65.3,39417],[65.3,39499]]",1,0,957.6881,961.7216,73.125,3.5341,"[{""rating"":65.3125,""responseTime"":1.4996999999992795},{""rating"":73.125,""responseTime"":3.5340999999978067}]",space,3.4827,,961.7216,Definitely yes,100,981.255,100,17.8479,"[{""rating"":99.16666666666667,""responseTime"":16.747699999999327},{""rating"":100,""responseTime"":17.847899999998504}]",space,0,18,18,18,1,audio/Narrative8Situation9.wav,audio/Narrative7Situation9.wav,audio/Narrative6Situation9.wav,audio/Narrative5Situation9.wav,3,2,4,3,,,18.9994,,,,,,,,,,,,,,,,,,,,,,,,,,,,,,,,,,,,
,,,,,,5ac16e870527ba0001c1f27e,2024-02-08_15h32.02.831,group3.1-3.2-social-tom,2023.2.2,Win32,59.17159763,65c5074098b851296ff0b7ed,65c5414bd2f8aa0fa8538463,,,,,,,,,,,,,,,,,,,,,,,,,,,,,,,,,,,,,,,,,,,,,,,,,,,,,,,,,,,,,,,,,,,,,,,,981.2551,987.8536,space,6.0833,,987.854,1006.8982,space,18.7223,,,,,,,,,,,,,,,,,,,,,,,,,,
,,,,,,5ac16e870527ba0001c1f27e,2024-02-08_15h32.02.831,group3.1-3.2-social-tom,2023.2.2,Win32,59.17159763,65c5074098b851296ff0b7ed,65c5414bd2f8aa0fa8538463,,,,,,,,,,,,,,,,,,,,,,,,,,,,,1009.4885,1,audio/Narrative7Situation9.wav,1011.4979,,,,,,,1043.4152,1073.3129,35.52083333,2.1868,"[{""rating"":35.520833333333336,""responseTime"":2.186800000000858}]",space,29.3571,,1043.4139,Partially,50,1043.4152,,,[],,,,,,,,,,,2,2,2,2,,,,,,,,,,,,,,,1006.9044,1009.4813,1011.4981,3,1043.4139,"[[60,838],[60,916],[60,1003],[60,1082],[60,1166],[60,1254],[60,1338],[60,1416],[60,1499],[60,1582],[60,1671],[60,1749],[60,1837],[60,1916],[60,2004],[60,2087],[60,2171],[60,2249],[60,2332],[60,2421],[60,2499],[60,2583],[60,2666],[60,2749],[60,2832],[60,2916],[60,3004],[60,3082],[60,3171],[60,3255],[60,3338],[60,3421],[60.1,3499],[60.4,3582],[61.7,3671],[64.2,3754],[67.8,3837],[69.5,3916],[69.5,3999],[70.9,4088],[72.4,4171],[72.4,4255],[72.5,4333],[73.3,4421],[73.3,4504],[73.3,4587],[73.3,4666],[73.3,4749],[73.3,4837],[73.3,4916],[73.3,5005],[73.3,5083],[73.3,5166],[73.3,5255],[73.3,5337],[72.5,5421],[64.2,5504],[61.5,5588],[53,5671],[45.5,5755],[40.3,5837],[37.4,5921],[30.6,6004],[24.2,6087],[17.8,6171],[16,6254],[12.7,6337],[11.9,6416],[11.8,6499],[11.7,6587],[11.4,6666],[10.8,6754],[10.8,6832],[10.6,6915],[10.6,7004],[10.6,7082],[10.6,7166],[10.6,7252],[10.6,7338],[10.6,7416],[10.6,7499],[10.6,7582],[10.6,7671],[10.7,7754],[11.1,7837],[11.1,7916],[11.3,8004],[11.4,8082],[11.4,8166],[11.4,8249],[11.4,8332],[11.5,8416],[11.5,8499],[11.5,8587],[11.5,8666],[11.5,8749],[11.5,8832],[11.5,8915],[11.6,9004],[11.6,9082],[11.6,9171],[11.6,9249],[11.6,9332],[10.5,9421],[9.7,9504],[8.8,9588],[6.7,9671],[5,9749],[4.2,9837],[2.8,9922],[1.9,10005],[0.6,10088],[0.1,16420],[0.2,16499],[0.2,16582],[0.2,16665],[0.2,16753],[0.2,16837],[0.2,16921],[0.2,16999],[0.2,17082],[0.2,17165],[0.2,17249],[0.2,17332],[0.2,17420],[0.2,17504],[0.2,17582],[0.2,17665],[0.2,17754],[0.2,17838],[0.2,17920],[0.2,18006],[0.2,18082],[0.2,18165],[0.2,18249],[0.2,18339],[0.2,18421],[0.2,18505],[0.2,18588],[0.2,18671],[0.2,18754],[0.2,18838],[0.2,18921],[0.2,19004],[0.2,19088],[0.2,19171],[0.2,19254],[0.2,19338],[0.2,19421],[0.2,19499],[0.2,19589],[0.2,19665],[0.2,19756],[0.2,19832],[0.2,19921],[0.2,20004],[0.2,20087],[0.2,20165],[0.2,20254],[0.2,20337],[0.2,20420],[0.2,20499],[0.2,20582],[0.2,20670],[0.2,20756],[0.2,20832],[0.2,20915],[0.2,20998],[0.2,21082],[0.2,21172],[0.2,21249],[0.2,21332],[0.2,21421],[0.4,21509],[1,21588],[1.4,21665],[2.1,21754],[2.9,21838],[3,21921],[3,22004],[2.7,22088],[1.3,22171],[0.9,22249],[0.5,22338],[0.2,22415],[3.8,29249],[5.5,29337],[7.7,29420],[11.7,29503],[16,29587],[22.2,29670],[27,30170],[27.4,30254],[27.7,30332],[27.8,30415],[27.9,30502],[27.9,30582],[27.9,30665],[27.9,30749],[27.9,30836],[27.9,30921],[27.9,31004],[27.9,31082],[27.9,31166],[27.9,31249],[27.9,31338],[27.8,31415],[27.8,31499],[27.8,31587],[27.8,31670],[27.8,31749],[27.8,31832],[27.8,31915]]",0,0,0,0,1,"Larry had recently lost his family, job and home, and was now living on his own in the park. He had most of his belongings, including some clothes, a blanket, and his mother’s special necklace. His family had been very important to him and he felt as though he did not have much going for him. One of his first days in the park he came across a family that did not have much food and looked very cold. He decided to give them some of his food and his blanket.","Larry had recently lost his family, job and home, and was now living on his own in the park. He had most of his belongings, including some clothes, a blanket, and his mother’s special necklace. His family had been very important to him and he felt as though he did not have much going for him. One of his first days in the park he came across a family that did not have much food and looked very cold. He decided to give them some of his food and his blanket.","Larry had recently lost his family, job and home, and was now living on his own in the park. He had most of his belongings, including some clothes, a blanket, and his mother’s special necklace. His family had been very important to him and he felt as though he did not have much going for him. One of his first days in the park he came across a family that did not have much food and looked very cold. He decided to give them some of his food and his blanket.","Larry had recently lost his family, job and home, and was now living on his own in the park. He had most of his belongings, including some clothes, a blanket, and his mother’s special necklace. His family had been very important to him and he felt as though he did not have much going for him. One of his first days in the park he came across a family that did not have much food and looked very cold. He decided to give them some of his food and his blanket.",,,,,,,,,,
,,,,,,5ac16e870527ba0001c1f27e,2024-02-08_15h32.02.831,group3.1-3.2-social-tom,2023.2.2,Win32,59.17159763,65c5074098b851296ff0b7ed,65c5414bd2f8aa0fa8538463,,,,,,,,,,,,,,,,,,,,,,,,,,,,,1073.3134,1,audio/Narrative7Situation9.wav,1075.5797,space,,,,,,1099.4352,1104.9123,1.458333333,4.715,"[{""rating"":1.4583333333333337,""responseTime"":4.7150000000001455}]",space,4.9359,,1099.4292,Partially,50,1099.4352,,,[],,,,,,,,,,,6,2,3,9,2.2582,,,,,,,,,,,,,,,,1075.5798,3,1099.4291,"[[999,0],[999,83],[999,166],[999,249],[999,333],[999,416],[999,499],[999,583],[999,666],[999,749],[999,833],[999,916],[999,999],[999,1083],[999,1166],[999,1249],[999,1333],[999,1416],[999,1499],[999,1583],[999,1666],[999,1749],[999,1833],[999,1916],[999,1999],[999,2083],[999,2166],[999,2249],[999,2333],[26.3,2416],[25.2,2499],[24.1,2583],[23.6,2666],[23.6,2749],[23.6,2833],[23.4,2916],[23.2,2999],[23.2,3083],[23.2,3166],[23.2,3249],[22,3333],[4.1,3416],[0.8,8583],[2,8666],[3.3,8749],[4.1,8832],[4.9,8916],[5.6,8999],[5.6,9082],[5.1,9166],[3.5,9249],[2.9,9333],[2.4,9416],[1.3,9499],[0.1,9582],[0.2,18416],[4.4,18499],[5.6,18583],[5.6,18665],[5.6,18749],[5.6,18832],[5,18916],[1.7,18999]]",0,1,1,1,1,"It was just another Sunday afternoon for Lucy, she was on her way to the farmer's market to pick up some produce. When she arrived at the old train depot that housed the market, she noticed two men fighting on the steps. Before she could call for help, one of the men crumpled to his knees. The other man dropped an object that appeared to be a knife and ran off. When Lucy approached the crime scene she realized that the man who had been murdered was the Mayor and that he had a gunshot wound.","One day at work, Margaret walked up to her partner, Al, to ask him to talk to the chief of staff at the local hospital where she worked as a nurse.","Luke always thought of himself as an honest man. That's why during his evening jog around the swamp, he pondered his recent affair with the receptionist at work. Luke looked up at the sky and asked God why he was so weak and unfaithful. He thought of the impact this would have on his family and told God of his conflicted feelings toward telling his wife Marta.","Linda and Amy had been best friends since kindergarten, they even found homes on the same street in the forest on the edge of town. Their biggest fight had been over who gets the bigger slice of cake, until Amy married Dan. Linda loathed Dan, she thought he was manipulative and had a violent temper. She only put up with him because Amy loved him. ",,,,,,,,,,
,,,,,,5ac16e870527ba0001c1f27e,2024-02-08_15h32.02.831,group3.1-3.2-social-tom,2023.2.2,Win32,59.17159763,65c5074098b851296ff0b7ed,65c5414bd2f8aa0fa8538463,,,,,,,,,,,,,,,,,,,,,,,,,,,,,1104.9125,1,audio/Narrative7Situation9.wav,1109.9291,,,,,,,1136.1128,1139.8617,96.5625,2.1303,"[{""rating"":96.5625,""responseTime"":2.130300000000716}]",space,3.2002,,1136.1119,Partially,50,1136.1127,,,[],,,,,,,,,,,4,5,2,2,,,,,,,,,,,,,,,,,1109.9291,3,1136.1118,"[[5.5,2000],[14.1,2083],[19.9,2166],[21.1,2250],[59.6,3999],[58.3,4083],[56.5,4166],[55.4,4249],[55.4,4332],[55.4,4416],[56.4,4499],[60,4584],[63.3,4666],[64.2,4749],[64.2,4832],[64.2,4916],[64.3,4999],[64.3,5083],[64.3,5166],[64.3,5249],[64.4,5333],[64.4,5416],[64.2,5499],[64,5583],[64,5666],[64,5749],[64,5833],[64,5916],[64,5999],[63.9,6083],[63.9,6166],[63.9,6249],[63.9,6333],[63.9,6416],[63.9,6499],[63.9,6582],[63.9,6666],[63.9,6749],[63.9,6832],[63.9,6916],[63.9,6999],[63.9,7082],[63.9,7166],[63.9,7249],[63.9,7332],[63.9,7416],[63.9,7499],[63.9,7582],[63.9,7666],[63.9,7749],[63.9,7832],[63.9,7916],[63.9,8000],[63.9,8083],[63.9,8166],[63.9,8249],[63.9,8332],[63.9,8416],[63.9,8499],[64.6,8582],[65.9,8666],[66.4,8749],[68.1,8832],[69.2,8916],[70.1,9000],[70.7,9082],[71,9166],[71.1,9249],[71.3,9333],[71.3,9416],[71.3,9499],[71.3,9583],[71.3,9666],[71.3,9749],[71.3,9833],[71.3,9916],[71.3,9999],[71.3,10082],[71.4,10166],[71.5,10249],[71.5,10332],[71.6,10416],[71.7,10499],[71.8,10582],[71.8,10666],[71.8,10749],[71.8,10832],[71.8,10916],[71.8,10999],[71.8,11082],[71.8,11166],[71.8,11249],[71.8,11332],[71.8,11416],[71.8,11499],[71.8,11582],[71.8,11666],[71.8,11749],[71.8,11832],[71.8,11916],[71.8,11999],[71.8,12082],[71.8,12166],[71.8,12249],[71.8,12332],[71.8,12416],[71.8,12499],[71.8,12582],[71.8,12666],[71.8,12749],[71.8,12832],[71.8,12915],[71.9,12999],[72.1,13083],[72.5,13166],[72.5,13249],[72.5,13332],[72.5,13416],[72.5,13500],[72.3,13582],[71,13666],[70,13749],[69.3,13832],[69.2,13916],[69,13999],[69,14082],[69,14166],[69,14250],[69,14332],[69,14416],[69,14499],[69,14582],[69,14666],[69,14749],[69,14832],[69.1,14916],[69.1,14999],[69.1,15083],[69.1,15166],[69.1,15249],[69.1,15332],[69.1,15415],[69.1,15499],[69.1,15582],[69.1,15665],[69.1,15749],[69.1,15832],[69.2,15916],[69.2,15999],[69.2,16082],[69.2,16166],[69.3,16249],[69.3,16332],[69.3,16416],[69.4,16499],[69.4,16582],[69.4,16666],[69.4,16749],[69.4,16832],[69.4,16915],[69.4,16999],[69.4,17082],[69.4,17166],[69.4,17249],[69.4,17332],[69.4,17416],[69.4,17499],[69.4,17582],[69.4,17666],[69.4,17749],[69.4,17832],[69.4,17916],[69.4,17999],[69.4,18082],[69.4,18166],[69.4,18249],[69.4,18332],[69.4,18415],[69.4,18499],[69.4,18582],[69.4,18665],[69.4,18749],[69.4,18832],[69.4,18915],[69.4,18999],[69.4,19082],[69.4,19165],[69.4,19250],[69.9,19332],[70.5,19416],[70.7,19499],[70.7,19582],[71,19666],[71.1,19749],[71.1,19832],[71.1,19915],[71,19999],[71,20082],[71,20166],[71,20249],[71,20332],[71,20415],[71,20499],[71,20582],[71,20666],[71,20750],[71,20832],[71,20915],[71,20999],[71,21082],[71,21165],[71,21249],[71,21332],[71,21416],[71,21499],[71,21582],[71,21665],[71,21749],[71,21832],[71,21915],[71,21999],[71,22082],[71,22165],[71,22249],[71,22332],[71,22415],[71,22499],[71,22582],[71,22665],[71,22749],[70.8,22832],[70.6,22915],[70.5,22999],[70.5,23082],[70.5,23165],[70.5,23249],[70.6,23332],[71.1,23415],[71.8,23499],[71.9,23582],[71.9,23666],[71.9,23749],[71.9,23832],[71.9,23916],[71.9,23999],[71.9,24082],[71.9,24165],[71.9,24249],[71.9,24332],[71.9,24416],[71.9,24499],[72.2,24582],[72.5,24665],[72.8,24749],[73.2,24832],[73.5,24915],[74,24999],[74.4,25082],[75.1,25165],[75.6,25249],[76.3,25332],[77.2,25416],[78.1,25499],[79.2,25582],[79.7,25665],[79.9,25749],[80.8,25832],[81.3,25916],[81.3,25999],[81.3,26082],[81.5,26165]]",0,2,2,2,1,On the ground beside him was a pen that she had mistaken for a knife. Lucy looked for the gunman and saw a suspicious man in black with distinct pointy features darting into an alley across the street. Cops who were nearby chased the man who had fled and arrested him.,"While waiting outside the chief of staff's office, Al heard nondescript shouting and yelling, there was a loud clatter in the room and then an eerie silence. An unfamiliar employee ran hastily out of the office with a terrified look on their face.","Suddenly, Luke heard a woman call out his name and when he turned around he saw Carly, his receptionist, across the road with a gun in her hand. Carly ran to him and explained how she had followed him here to confess her love. She exclaimed if Luke didn't love her back that she would kill him and his family. Carly explained that the only way they could be together is to kill Marta.","This feeling of hate between Amy and Dan was mutual, Dan didn't like how much time his wife spent with her and thought Amy was creating distance between their marriage. That's why Dan decided to try and tarnish Linda's reputation with his wife, in hopes it would get rid of her. He came home one afternoon and exclaimed that Linda had tried to kiss him. Amy was taken aback and immediately called Linda to confront her about these accusations. When Linda arrived she denied having made a move on Dan, but discovered Dan had enlisted the help of his friend Will who said he witnessed it all happen.",,,,,,,,,,
,,,,,,5ac16e870527ba0001c1f27e,2024-02-08_15h32.02.831,group3.1-3.2-social-tom,2023.2.2,Win32,59.17159763,65c5074098b851296ff0b7ed,65c5414bd2f8aa0fa8538463,,,,,,,,,,,,,,,,,,,,,,,,,,,,,1139.862,1,audio/Narrative7Situation9.wav,1141.8785,,,,,,,1164.4125,1168.1287,89.6875,2.0237,"[{""rating"":89.6875,""responseTime"":2.0236999999992804}]",space,3.1696,,1164.4114,Partially,50,1164.4125,,,[],,,,,,,,,,,2,2,1,4,,,,,,,,,,,,,,,,,1141.8785,3,1164.4113,"[[59.7,583],[57.6,666],[53.3,750],[46.9,833],[46.7,916],[46.7,999],[46.7,1082],[46.7,1166],[46.7,1249],[46.7,1333],[46.7,1416],[46.7,1499],[46.7,1583],[46.3,1666],[38.4,1749],[30.7,1833],[28.4,1916],[28.4,1999],[27.3,2083],[24.8,2167],[24,2249],[23.8,2332],[22.5,2416],[21.6,2500],[20.1,2583],[18.4,2667],[17.4,2750],[17,2832],[16.8,2916],[16.4,2999],[15.9,3083],[15.6,3166],[15.5,3249],[15.4,3333],[15.1,3416],[14.9,3499],[14.1,3583],[13.3,3666],[12.2,3749],[11,3833],[9.8,3916],[9.1,3999],[8.1,4083],[6.7,4166],[5.7,4249],[5.2,4333],[4.8,4416],[4.7,4499],[4.6,4583],[4.6,4666],[4.6,4749],[4.6,4833],[4.6,4916],[4.6,4999],[4.6,5082],[4.6,5166],[4.6,5249],[4.6,5332],[4.6,5416],[4.6,5499],[4.6,5582],[4.6,5666],[4.6,5750],[4.6,5832],[4.6,5916],[4.6,5999],[4.6,6082],[4.6,6166],[4.6,6249],[4.6,6332],[4.6,6416],[9.3,6499],[11.4,6582],[11.4,6666],[11.9,6749],[13.4,6832],[18.8,6916],[23.8,6999],[24.3,7083],[25.8,7166],[26,7249],[26,7333],[26,7416],[26,7499],[26,7583],[26,7666],[25.9,7749],[25.9,7832],[25.9,7916],[25.9,7999],[25.8,8083],[25.8,8166],[25.8,8249],[25.8,8333],[25.8,8416],[25.8,8499],[25.8,8582],[25.8,8666],[25.8,8749],[25.8,8832],[25.8,8915],[25.8,8999],[25.8,9082],[25.8,9166],[25.8,9249],[25.8,9332],[25.8,9416],[25.8,9499],[25.8,9582],[25.8,9666],[25.8,9749],[25.8,9832],[25.8,9916],[25.8,9999],[25.8,10083],[25.8,10166],[25.8,10249],[25.8,10332],[25.8,10416],[25.8,10499],[25.8,10583],[25.8,10666],[25.8,10749],[25.8,10832],[25.8,10916],[26,11000],[27.6,11082],[28.4,11166],[29.2,11249],[29.3,11332],[29.3,11415],[29.3,11499],[29.3,11583],[29.3,11666],[29.3,11749],[29.3,11832],[29.3,11916],[29.3,11999],[29.3,12082],[29.3,12165],[29.3,12249],[29.3,12332],[29.3,12416],[29.3,12499],[29.3,12582],[29.3,12665],[28.9,12749],[28.1,12832],[27.4,12916],[26,12999],[24.5,13082],[24.4,13166],[24.4,13249],[29.6,13332],[39.7,13415],[46.6,13499],[50.9,13583],[53.3,13666],[56.3,13749],[59.6,13832],[61.3,13916],[61.9,13999],[62.6,14082],[63.1,14166],[64.1,14249],[64.8,14332],[65.7,14416],[66.3,14499],[66.4,14582],[66.4,14665],[66.7,14749],[67,14832],[67.3,14915],[67.3,14999],[67.3,15082],[67.3,15165],[67.3,15249],[67.3,15332],[67.3,15415],[67.3,15499],[67.3,15582],[67.3,15665],[67.3,15749],[67.3,15832],[67.3,15916],[67.4,15999],[67.4,16082],[67.4,16165],[67.4,16249],[67.4,16332],[67.4,16415],[67.4,16499],[67.6,16582],[67.7,16666],[68.1,16749],[69.4,16832],[70.9,16916],[72.2,16999],[73.9,17082],[74.8,17165],[76.3,17249],[77.7,17332],[79.1,17415],[79.5,17499],[80.4,17582],[80.5,17666],[80.5,17749],[80.5,17833],[80.5,17915],[80.5,17999],[80.5,18082],[80.7,18166],[80.7,18249],[80.7,18332],[80.7,18416],[80.7,18499],[80.9,18582],[80.9,18666],[81.4,18749],[81.5,18832],[81.9,18915],[82.4,18999],[82.9,19082],[83.1,19165],[83.3,19249],[83.3,19333],[83.4,19415],[83.5,19499],[83.5,19582],[83.8,19665],[83.9,19749],[83.9,19832],[83.9,19916],[83.8,19999],[83.5,20082],[83.5,20165],[83.4,20249],[83.2,20332],[82.8,20415],[82.6,20499],[82.3,20583],[82,20665],[81.9,20749],[81.8,20832],[81.7,20915],[81.6,21000],[81.6,21083],[81.6,21165],[81.5,21249],[81.5,21332],[81.5,21415],[81.5,21499],[81.5,21582],[81.5,21665],[81.5,21749],[81.5,21832],[81.5,21915],[81.6,21999],[81.8,22082],[81.8,22165],[81.8,22249],[81.8,22332],[81.7,22416],[81.7,22499]]",0,3,3,3,1,"But Lucy knew the charged man was innocent, which meant the killer was free. Lucy vowed to find out who the real murderer was and to stop him at all costs.","Al explained to the chief of staff that Margaret wanted to be excused from her absences last week. The chief of staff, Susan, revealed that she wanted to fire Margaret and never see her again. Susan and Al had been having an affair and she wanted Margaret ""out of the picture"". Al was conflicted, but agreed it would be for the best.","Luke thought of his child and felt like this was his only option. He agreed to the plan and called his wife to meet him at the swamp to watch the sunset with him. When she arrived, Marta called out for her husband, but found Carly waiting for her. She immediately drew her gun and shot her in the chest, knocking her unconscious.","Since it was their word against her own, she decided to go home and admit defeat. She knew how much it would hurt Amy to know the truth.",,,,,,,,,,
