exp_question,consent.started,consent.stopped,consentResponse.keys,consentResponse.rt,consentResponse.duration,participantID,date,expName,psychopyVersion,OS,frameRate,STUDY_ID,SESSION_ID,opening1.started,opening1.stopped,keyEndingOpening1.keys,keyEndingOpening1.rt,keyEndingOpening1.duration,volumeAdjust.started,volumeAdjust.stopped,endingAdjust.keys,endingAdjust.rt,endingAdjust.duration,opening2.started,opening2.stopped,keyEndingOpening.keys,keyEndingOpening.rt,keyEndingOpening.duration,mouse.x,mouse.y,mouse.leftButton,mouse.midButton,mouse.rightButton,mouse.time,instructionLoop.thisRepN,instructionLoop.thisTrialN,instructionLoop.thisN,instructionLoop.thisIndex,instructionLoop.ran,readyForAudio.started,readyForAudio.stopped,fixation.started,run,audio_played,fixation.stopped,endPractice.keys,audioPre.started,audioPre.stopped,continuousResponses_audio,continuousSlider.response,continuousSlider.rt,intRating.started,intRating.stopped,intQuestionSlider.response,intQuestionSlider.rt,intQuestionSlider.history,confirmResponse.keys,confirmResponse.rt,confirmResponse.duration,catchQuestion.started,catch_label,catch_value,catchQuestion.stopped,catchQuestionSlider.response,catchQuestionSlider.rt,catchQuestionSlider.history,confirmResponse_2.keys,audioRunLoop.thisRepN,audioRunLoop.thisTrialN,audioRunLoop.thisN,audioRunLoop.thisIndex,audioRunLoop.ran,conditions1_1,conditions2_1,conditions1_2,conditions2_2,dur1_1,dur2_1,dur1_2,dur2_2,endPractice.rt,endPractice.duration,confirmResponse_2.rt,confirmResponse_2.duration,runIntervalBreak.started,runIntervalBreak.stopped,endingBreakKey.keys,endingBreakKey.rt,endingBreakKey.duration,connection.started,connection.stopped,connectionEnding.keys,connectionEnding.rt,connectionEnding.duration,readyForText.started,readyForText.stopped,textPre.started,run_dup,textPre.stopped,continuousResponses_text,textRunLoop.thisRepN,textRunLoop.thisTrialN,textRunLoop.thisN,textRunLoop.thisIndex,textRunLoop.ran,text1_1,text1_2,text2_1,text2_2,runBreakText.started,runBreakText.stopped,endingBreakKey_2.keys,endingBreakKey_2.rt,endingBreakKey_2.duration,ending.started,ending.stopped,endingEnding.keys,endingEnding.rt,endingEnding.duration
social,0,11.173,y,10.851,,5b4f6da7bdd8af000144c7df,2024-05-13_09h34.21.742,group3.1-3.2-social-tom,2023.2.2,Win32,60.0240096,65c5074098b851296ff0b7ed,664232e9d4ba4118e594df6e,,,,,,,,,,,,,,,,,,,,,,,,,,,,,,,,,,,,,,,,,,,,,,,,,,,,,,,,,,,,,,,,,,,,,,,,,,,,,,,,,,,,,,,,,,,,,,,,,,,,,,,,,,
,,,,,,5b4f6da7bdd8af000144c7df,2024-05-13_09h34.21.742,group3.1-3.2-social-tom,2023.2.2,Win32,60.0240096,65c5074098b851296ff0b7ed,664232e9d4ba4118e594df6e,11.173,17.423,space,6.215,,,,,,,,,,,,,,,,,,,,,,,,,,,,,,,,,,,,,,,,,,,,,,,,,,,,,,,,,,,,,,,,,,,,,,,,,,,,,,,,,,,,,,,,,,,,,,,,,,,,,,
,,,,,,5b4f6da7bdd8af000144c7df,2024-05-13_09h34.21.742,group3.1-3.2-social-tom,2023.2.2,Win32,60.0240096,65c5074098b851296ff0b7ed,664232e9d4ba4118e594df6e,,,,,,17.423,31.139,space,13.405,,,,,,,,,,,,,,,,,,,,,,,,,,,,,,,,,,,,,,,,,,,,,,,,,,,,,,,,,,,,,,,,,,,,,,,,,,,,,,,,,,,,,,,,,,,,,,,,,
,,,,,,5b4f6da7bdd8af000144c7df,2024-05-13_09h34.21.742,group3.1-3.2-social-tom,2023.2.2,Win32,60.0240096,65c5074098b851296ff0b7ed,664232e9d4ba4118e594df6e,,,,,,,,,,,31.143,40.257,space,9.086,,[],[],[],[],[],[],0,0,0,0,1,,,,,,,,,,,,,,,,,,,,,,,,,,,,,,,,,,,,,,,,,,,,,,,,,,,,,,,,,,,,,,,,,,,,,,,,,,,,,,,,
,,,,,,5b4f6da7bdd8af000144c7df,2024-05-13_09h34.21.742,group3.1-3.2-social-tom,2023.2.2,Win32,60.0240096,65c5074098b851296ff0b7ed,664232e9d4ba4118e594df6e,,,,,,,,,,,40.259,68.973,space,28.645,,[],[],[],[],[],[],1,0,1,0,1,,,,,,,,,,,,,,,,,,,,,,,,,,,,,,,,,,,,,,,,,,,,,,,,,,,,,,,,,,,,,,,,,,,,,,,,,,,,,,,,
,,,,,,5b4f6da7bdd8af000144c7df,2024-05-13_09h34.21.742,group3.1-3.2-social-tom,2023.2.2,Win32,60.0240096,65c5074098b851296ff0b7ed,664232e9d4ba4118e594df6e,,,,,,,,,,,68.974,79.639,space,10.63,,[],[],[],[],[],[],2,0,2,0,1,,,,,,,,,,,,,,,,,,,,,,,,,,,,,,,,,,,,,,,,,,,,,,,,,,,,,,,,,,,,,,,,,,,,,,,,,,,,,,,,
,,,,,,5b4f6da7bdd8af000144c7df,2024-05-13_09h34.21.742,group3.1-3.2-social-tom,2023.2.2,Win32,60.0240096,65c5074098b851296ff0b7ed,664232e9d4ba4118e594df6e,,,,,,,,,,,79.64,102.006,space,22.341,,[],[],[],[],[],[],3,0,3,0,1,,,,,,,,,,,,,,,,,,,,,,,,,,,,,,,,,,,,,,,,,,,,,,,,,,,,,,,,,,,,,,,,,,,,,,,,,,,,,,,,
,,,,,,5b4f6da7bdd8af000144c7df,2024-05-13_09h34.21.742,group3.1-3.2-social-tom,2023.2.2,Win32,60.0240096,65c5074098b851296ff0b7ed,664232e9d4ba4118e594df6e,,,,,,,,,,,102.007,111.106,space,9.075,,[],[],[],[],[],[],4,0,4,0,1,,,,,,,,,,,,,,,,,,,,,,,,,,,,,,,,,,,,,,,,,,,,,,,,,,,,,,,,,,,,,,,,,,,,,,,,,,,,,,,,
,,,,,,5b4f6da7bdd8af000144c7df,2024-05-13_09h34.21.742,group3.1-3.2-social-tom,2023.2.2,Win32,60.0240096,65c5074098b851296ff0b7ed,664232e9d4ba4118e594df6e,,,,,,,,,,,,,,,,,,,,,,,,,,,111.108,113.689,113.701,1,audio/Narrative13Situation2.wav,115.706,,115.706,145.456,"[[999,1],[999,82],[999,167],[100,251],[100,332],[100,415],[100,500],[100,584],[100,667],[4.3,3667],[2.3,3750],[1.8,3832],[1.3,3917],[0.3,4000],[0.3,4082],[0.3,4167],[0.3,4250],[0.3,4332],[0.3,4417],[0.3,4500],[0.3,4584],[0.3,4667],[0.3,4750],[0.3,4832],[0.3,4917],[0.3,5000],[0.3,5084],[0.3,5167],[0.3,5250],[0.3,5332],[3.9,5417],[6.6,5500],[7.2,5583],[14.7,5667],[21.5,5750],[27.9,5834],[29.6,5917],[31.4,6000],[36.5,6083],[38.8,6167],[41.4,6251],[42.1,6333],[42.6,6417],[43.1,6500],[44.3,6583],[46.2,6666],[47.1,6750],[47.1,6834],[47.1,6917],[47.1,7000],[47.1,7083],[47.1,7167],[47.1,7250],[47.1,7333],[47.1,7417],[47.3,7501],[47.4,7583],[47.4,7666],[47.4,7750],[47.5,7834],[47.5,7917],[47.8,7999],[51.6,8084],[58.6,8167],[66.9,8250],[73.8,8333],[84.9,8418],[87.5,8499],[89.5,8583],[93.1,8667],[97.8,8750],[99.1,8834],[99.2,8917],[99.7,9000],[100,9083],[100,9167],[100,9250],[100,9333],[100,9417],[100,9500],[100,9583],[100,9667],[100,9750],[100,9833],[100,9916],[100,10000],[100,10083],[100,10167],[100,10250],[100,10334],[100,10417],[100,10500],[100,10584],[100,10666],[100,10750],[100,10834],[100,10916],[100,11000],[100,11083],[100,11167],[100,11250],[100,11334],[100,11418],[100,11500],[100,11583],[100,11667],[100,11750],[100,11833],[100,11917],[100,12000],[100,12084],[100,12168],[100,12250],[100,12333],[100,12417],[100,12500],[100,12583],[100,12667],[100,12750],[100,12833],[100,12916],[100,12999],[100,13083],[100,13167],[100,13249],[100,13333],[100,13417],[100,13500],[100,13583],[100,13667],[100,13750],[100,13833],[100,13917],[100,14000],[100,14084],[100,14167],[100,14250],[100,14334],[100,14417],[100,14500],[100,14583],[100,14667],[100,14750],[100,14833],[100,14917],[100,15000],[100,15084],[100,15166],[100,15250],[100,15333],[99.7,15417],[99.7,15500],[99.7,15584],[99.7,15667],[99.7,15750],[99.7,15833],[99.7,15918],[99.7,16000],[99,16083],[96.7,16167],[96.6,16250],[94.8,16333],[89.6,16417],[86.2,16500],[82,16584],[49,17333],[52.9,17418],[53.1,17500],[52.9,17584],[50.8,17668],[45.3,17750],[43.8,17834],[40.6,17916],[38.2,17999],[37.8,18083],[37.8,18166],[37.8,18250],[37.8,18333],[37.8,18417],[33.9,18500],[28.6,18584],[27.9,18667],[27.9,18750],[27.9,18833],[27.9,18916],[27.6,19001],[24.7,19083],[24.7,19166],[24.7,19249],[24.7,19333],[23.6,19417],[22.3,19499],[21.1,19583],[20.1,19668],[18.9,19750],[18.1,19833],[18.1,19916],[17.1,20000],[15.4,20084],[15.1,20166],[15.1,20250],[15.1,20333],[15.1,20417],[14.7,20500],[11.5,20584],[10,20667],[10,20750],[9.4,20833],[7.3,20917],[7,21000],[6.9,21082],[6.9,21166],[6.9,21249],[6.3,21334],[6.3,21416],[7.4,21499],[12.5,21584],[15.9,21667],[21,21749],[26.3,21834],[32.4,21917],[38,22000],[39.2,22083],[40.5,22166],[41.9,22250],[43.2,22333],[44.4,22417],[44.5,22500],[45.1,22583],[45.6,22667],[46.5,22750],[46.9,22833],[47.8,22917],[48,23000],[48,23083],[48.3,23168],[48.4,23249],[48.4,23333],[48.7,23417],[49.3,23501],[52.3,23583],[56,23666],[57.8,23750],[59.2,23833],[62.8,23917],[66.3,24000],[68.5,24083],[70.2,24166],[71.7,24250],[75,24333],[78.9,24416],[81.1,24499],[83.2,24583],[85.4,24667],[85.8,24750],[86.6,24833],[86.7,24917],[87.2,25000],[87.6,25083],[87.6,25166],[87.6,25250],[87.9,25333],[87.9,25417],[87.9,25499],[87.9,25583],[87.9,25667],[87.9,25750],[87.9,25833],[85.7,25917],[84.2,26000],[81.8,26083],[80.1,26166],[77,26250],[74.5,26333],[74.1,26417],[74.1,26500],[73.7,26583],[72.7,26667],[71.9,26750],[69,26833],[67.4,26917],[65.5,27000],[61.2,27083],[59.4,27167],[57.7,27250],[56.1,27333],[55.6,27418],[53.9,27500],[52.7,27583],[51.8,27667],[51,27750],[50.8,27833],[49.3,27917],[49.1,28000],[48.6,28083],[47.4,28167],[46.4,28252],[45.6,28333],[44.5,28417],[43.6,28499],[43,28584],[43,28667],[42.6,28750],[41.1,28833],[40.1,28917],[40.1,29000],[40.1,29083],[40.1,29167],[40.1,29250],[40.1,29333],[40.1,29417],[40.1,29500],[39.1,29583],[35.9,29667],[35.7,29750]]",1,0,145.457,160.506,46.484375,12.188,"[{""rating"":46.484375,""responseTime"":12.187999999999988}]",space,14.518,,160.506,Partially,50,160.512,,,[],,0,0,0,0,1,audio/Narrative13Situation2.wav,audio/Narrative13Situation2.wav,audio/Narrative13Situation2.wav,audio/Narrative13Situation2.wav,2,2,2,2,,,,,,,,,,,,,,,,,,,,,,,,,,,,,,,,,,,,,,,
,,,,,,5b4f6da7bdd8af000144c7df,2024-05-13_09h34.21.742,group3.1-3.2-social-tom,2023.2.2,Win32,60.0240096,65c5074098b851296ff0b7ed,664232e9d4ba4118e594df6e,,,,,,,,,,,,,,,,,,,,,,,,,,,,,160.512,1,audio/Narrative8Situation1.wav,162.573,space,162.573,178.49,"[[46.9,1418],[44,1500],[44,1583],[44,1667],[44,1750],[42.1,1833],[29.9,1916],[15.4,2002],[13.4,2083],[12.9,2166],[11.3,2250],[9.9,2332],[7.6,2416],[5.9,2499],[5.9,2583],[5.9,2666],[5.9,2750],[5.9,2833],[5.9,2916],[4.2,3000],[0.9,3666],[1,3750],[1.8,3833],[4.3,3916],[12.8,4000],[22.1,4083],[27.9,4166],[34,4252],[46.4,4333],[52.7,4417],[54,4500],[55.5,4584],[58.1,4666],[58.6,4751],[58.6,4833],[58.6,4916],[58.6,4999],[58.6,5083],[58.6,5166],[58.6,5249],[58.6,5334],[58.6,5416],[58.6,5499],[58.6,5584],[58.6,5667],[58.6,5750],[58.6,5833],[58.6,5916],[58.6,6001],[58.6,6082],[58.6,6166],[58.3,6251],[58.3,6332],[58.3,6416],[58.1,6499],[57,6584],[56.1,6667],[54.8,6749],[53.3,6832],[51.7,6916],[51.3,7000],[51.3,7082],[51.3,7166],[51.3,7249],[51.3,7332],[51.3,7416],[51.3,7500],[51.3,7583],[51.3,7666],[51.3,7749],[51.3,7832],[51.3,7916],[51.3,7999],[51.3,8082],[51.3,8166],[51.3,8250],[51.3,8332],[51.3,8416],[51.3,8499],[50.8,8582],[50.7,8666],[50.7,8750],[50.4,8834],[50.3,8916],[50.3,9000],[50.3,9083],[50.3,9166],[50.3,9250],[52.3,9333],[60.7,9417],[63.9,9499],[69.8,9583],[76.8,9666],[81.6,9750],[90.6,9833],[94.9,9916],[97.5,10000],[100,10083],[100,10166],[100,10249],[100,10333],[100,10416],[100,10500],[100,10582],[100,10667],[100,10750],[100,10833],[100,10917],[100,11000],[100,11083],[100,11166],[100,11250],[100,11333],[100,11416],[100,11500],[100,11583],[100,11667],[100,11750],[100,11833],[100,11916],[100,12000],[100,12083],[100,12166],[100,12249],[100,12333],[100,12416],[100,12500],[100,12583],[100,12667],[100,12750],[100,12833],[100,12916],[100,13000],[100,13083],[100,13166],[100,13250],[100,13332],[100,13416],[100,13500],[100,13583],[100,13667],[100,13750],[100,13833],[100,13917],[100,14000],[100,14083],[100,14166],[100,14249],[100,14333],[100,14416],[100,14500],[100,14583],[100,14666],[100,14750],[100,14833],[100,14916],[100,14999],[100,15083],[100,15166],[100,15249],[100,15333],[100,15416],[100,15500],[100,15583],[100,15667],[100,15750],[100,15833],[100,15917]]",1,0,178.49,183.389,98.56770833,3.494,"[{""rating"":98.56770833333333,""responseTime"":3.4939999999999998}]",space,4.367,,183.39,Not at all,0,183.394,,,[],,0,1,1,1,1,audio/Narrative7Situation1.wav,audio/Narrative8Situation1.wav,audio/Narrative5Situation1.wav,audio/Narrative6Situation1.wav,2,5,5,2,2.038,,,,,,,,,,,,,,,,,,,,,,,,,,,,,,,,,,,,,,
,,,,,,5b4f6da7bdd8af000144c7df,2024-05-13_09h34.21.742,group3.1-3.2-social-tom,2023.2.2,Win32,60.0240096,65c5074098b851296ff0b7ed,664232e9d4ba4118e594df6e,,,,,,,,,,,,,,,,,,,,,,,,,,,,,183.395,1,audio/Narrative8Situation2.wav,186.406,,186.407,196.54,"[[50.3,915],[50.3,998],[50.3,1082],[50.3,1165],[50.3,1249],[50.3,1332],[49.9,1415],[49.7,1499],[49.7,1582],[49.2,1665],[49.2,1749],[49.2,1832],[49.2,1915],[49.2,1999],[49.2,2082],[49.2,2165],[48.2,2249],[47.1,2332],[42.4,2415],[8.3,2917],[7.4,2999],[8.1,3082],[8.6,3165],[7.6,3249],[3.3,3332],[2.9,3415],[2.5,3498],[2.2,3582],[2.2,3665],[2,3748],[2,3832],[2,3915],[1.8,3999],[0.4,4082],[0.4,4165],[0.1,4249],[0.1,4332],[0.1,4415],[0.1,4499],[0.1,4582],[0.1,4665],[0.1,4749],[0.1,4832],[0.1,4915],[0.1,4998],[0.1,5082],[0.1,5165],[0.1,5249],[0.1,5332],[0.1,5415],[0.1,5499],[0.1,5582],[0.1,5665],[0.1,5749],[0.1,5832],[0.1,5915],[0.1,5999],[0.1,6082],[0.1,6165],[0.1,6249],[0.1,6332],[0.1,6415],[0.1,6499],[0.1,6582],[0.1,6665],[0.1,6748],[0.1,6832],[0.1,6915],[0.1,6998],[0.1,7082],[0.1,7165],[0.1,7249],[0.1,7332],[0.1,7415],[0.1,7499],[0.1,7582],[0.1,7665],[0.1,7749],[0.1,7832],[0.1,7915],[0.1,7998],[0.1,8082],[0.1,8165],[0.1,8249],[0.1,8332],[0.1,8415],[0.1,8499],[0.1,8582],[0.1,8665],[0.1,8749],[0.1,8832],[0.1,8915],[0.1,8999],[0.1,9082],[0.1,9165],[0.1,9249],[0.1,9332],[0.1,9415],[0.1,9499],[0.1,9582],[0.1,9665],[0.1,9749],[0.1,9832],[0.1,9915],[0.1,9999],[0.1,10082]]",1,0,196.54,203.824,5.989583333,2.44,"[{""rating"":5.989583333333331,""responseTime"":2.4399999999999977}]",space,6.735,,203.824,Not at all,0,203.831,,,[],,0,2,2,2,1,audio/Narrative7Situation2.wav,audio/Narrative8Situation2.wav,audio/Narrative5Situation2.wav,audio/Narrative6Situation2.wav,3,3,3,3,,,,,,,,,,,,,,,,,,,,,,,,,,,,,,,,,,,,,,,
,,,,,,5b4f6da7bdd8af000144c7df,2024-05-13_09h34.21.742,group3.1-3.2-social-tom,2023.2.2,Win32,60.0240096,65c5074098b851296ff0b7ed,664232e9d4ba4118e594df6e,,,,,,,,,,,,,,,,,,,,,,,,,,,,,203.831,1,audio/Narrative8Situation3.wav,207.839,,207.839,230.223,"[[999,1],[999,84],[999,167],[999,251],[999,334],[999,417],[999,500],[999,584],[999,667],[999,750],[999,832],[999,915],[999,1000],[999,1084],[999,1168],[999,1251],[999,1334],[999,1417],[999,1501],[999,1584],[999,1667],[999,1750],[5.5,1834],[4.4,1917],[3.1,2000],[1.8,2084],[0.9,2167],[3.5,2917],[8.5,3000],[11.6,3084],[20.1,3168],[29.3,3251],[33.9,3334],[39.8,3417],[45.8,3500],[54.4,3584],[66.8,3667],[75.7,3750],[79.9,3834],[81,3917],[84.2,4001],[100,4584],[100,4667],[100,4750],[100,4834],[100,4917],[100,5001],[100,5084],[100,5165],[100,5250],[100,5334],[100,5417],[100,5500],[100,5584],[100,5667],[100,5750],[100,5834],[100,5917],[100,6000],[100,6084],[100,6165],[100,6250],[100,6334],[100,6417],[100,6501],[100,6584],[100,6667],[100,6750],[99.2,6834],[97.3,6917],[94.3,7000],[91.9,7084],[91.9,7168],[91.9,7250],[91.9,7332],[91.9,7417],[91.9,7500],[88.8,7584],[83.1,7667],[80.5,7750],[79.2,7834],[75.3,7917],[69.4,8000],[63.7,8084],[63.3,8167],[63.5,8250],[72.1,8332],[88.3,8417],[94.1,8500],[96.9,8584],[99.7,8667],[100,8750],[100,8834],[100,8917],[100,9000],[100,9084],[100,9165],[100,9250],[100,9334],[100,9417],[100,9500],[100,9584],[100,9667],[100,9750],[100,9834],[100,9917],[100,10000],[100,10084],[100,10165],[100,10251],[100,10334],[100,10418],[100,10501],[100,10584],[100,10667],[100,10750],[100,10834],[100,10918],[100,11000],[100,11084],[100,11167],[100,11251],[100,11334],[100,11418],[100,11500],[100,11584],[100,11667],[100,11750],[100,11834],[100,11917],[100,12001],[100,12084],[100,12167],[100,12251],[100,12332],[100,12417],[100,12500],[100,12584],[100,12667],[100,12750],[100,12834],[100,12918],[100,13000],[100,13082],[100,13165],[100,13251],[100,13332],[100,13417],[100,13501],[100,13584],[100,13667],[100,13750],[100,13834],[100,13917],[100,14000],[100,14084],[100,14168],[100,14250],[100,14334],[100,14415],[100,14501],[100,14582],[100,14667],[100,14750],[100,14834],[100,14917],[100,15000],[100,15084],[100,15165],[100,15250],[100,15334],[100,15417],[100,15501],[100,15582],[100,15667],[100,15750],[100,15834],[100,15917],[100,16001],[100,16082],[100,16165],[100,16250],[100,16334],[100,16417],[100,16500],[100,16584],[100,16667],[100,16751],[100,16834],[100,16917],[100,17000],[100,17084],[100,17167],[100,17250],[100,17334],[100,17417],[100,17500],[100,17584],[100,17667],[100,17750],[100,17834],[100,17917],[100,18000],[100,18084],[100,18165],[100,18250],[100,18334],[100,18417],[100,18500],[100,18584],[100,18667],[100,18750],[100,18833],[100,18917],[100,19000],[100,19084],[100,19165],[100,19250],[100,19334],[100,19417],[100,19500],[100,19584],[97.5,19667],[89.8,19750],[84.2,19834],[77.1,19917],[71.7,20000],[46.6,20167],[46.1,20250],[38.4,20417],[37,20501],[34.4,20584],[33.3,20667],[25.5,20750],[15.2,20834],[13.8,20917],[10,21000],[5.6,21083],[3.4,21167],[1,21250]]",1,0,230.224,235.09,50,3.412,"[{""rating"":50,""responseTime"":3.412000000000006}]",space,4.319,,235.09,Partially,50,235.098,,,[],,0,3,3,3,1,audio/Narrative7Situation3.wav,audio/Narrative8Situation3.wav,audio/Narrative5Situation3.wav,audio/Narrative6Situation3.wav,8,4,3,5,,,,,,,,,,,,,,,,,,,,,,,,,,,,,,,,,,,,,,,
,,,,,,5b4f6da7bdd8af000144c7df,2024-05-13_09h34.21.742,group3.1-3.2-social-tom,2023.2.2,Win32,60.0240096,65c5074098b851296ff0b7ed,664232e9d4ba4118e594df6e,,,,,,,,,,,,,,,,,,,,,,,,,,,,,235.099,1,audio/Narrative8Situation4.wav,238.106,,238.106,252.274,"[[46.5,1250],[36.8,1332],[27,1415],[22.3,1498],[20.3,1582],[19.5,1665],[19.5,1750],[19.5,1832],[19,1917],[16.9,2000],[12.4,2082],[1,2167],[12.8,3582],[51.3,3750],[60.9,3832],[94.5,4334],[94.1,4417],[93.5,4500],[93.5,4582],[95.1,4667],[96.9,4750],[98.6,4834],[100,4915],[100,5000],[100,5082],[100,5167],[100,5250],[100,5332],[100,5417],[100,5500],[100,5582],[100,5667],[100,5750],[100,5832],[100,5917],[100,6001],[100,6082],[100,6165],[100,6250],[100,6332],[100,6415],[100,6498],[100,6584],[100,6667],[100,6750],[100,6832],[100,6917],[100,7000],[100,7082],[100,7165],[100,7250],[100,7332],[100,7417],[100,7500],[100,7582],[100,7667],[100,7751],[100,7834],[100,7917],[100,8001],[100,8082],[100,8167],[100,8250],[100,8332],[100,8417],[100,8499],[100,8583],[100,8666],[100,8748],[100,8833],[100,8917],[100,8998],[100,9082],[100,9167],[100,9249],[100,9332],[100,9417],[100,9498],[100,9582],[100,9666],[100,9749],[100,9832],[100,9917],[100,9999],[100,10083],[100,10167],[100,10249],[100,10332],[100,10416],[100,10498],[100,10582],[100,10667],[100,10749],[100,10833],[100,10917],[100,10999],[100,11082],[100,11166],[100,11249],[100,11333],[100,11415],[100,11499],[100,11582],[100,11667],[100,11749],[100,11832],[100,11916],[100,11999],[100,12082],[100,12165],[100,12249],[100,12332],[100,12415],[100,12498],[100,12582],[100,12665],[100,12749],[100,12833],[100,12916],[100,12998],[100,13082],[100,13166],[100,13249],[100,13333],[100,13415],[100,13499],[100,13582],[100,13665],[100,13749],[100,13833],[100,13916],[100,14000],[100,14082],[100,14166]]",1,0,252.276,256.906,99.08854167,3.559,"[{""rating"":99.08854166666667,""responseTime"":3.559000000000026}]",space,4.083,,256.906,Definitely yes,100,256.911,,,[],,0,4,4,4,1,audio/Narrative7Situation4.wav,audio/Narrative8Situation4.wav,audio/Narrative5Situation4.wav,audio/Narrative6Situation4.wav,3,3,1,2,,,,,,,,,,,,,,,,,,,,,,,,,,,,,,,,,,,,,,,
,,,,,,5b4f6da7bdd8af000144c7df,2024-05-13_09h34.21.742,group3.1-3.2-social-tom,2023.2.2,Win32,60.0240096,65c5074098b851296ff0b7ed,664232e9d4ba4118e594df6e,,,,,,,,,,,,,,,,,,,,,,,,,,,,,256.911,1,audio/Narrative8Situation5.wav,258.923,,258.923,267.173,"[[96.1,165],[79.4,249],[68.2,333],[53.4,1083],[44.7,1165],[43.6,1250],[43.5,1333],[43.5,1415],[43.5,1500],[47.5,1583],[65,1665],[75.8,1750],[81.1,1833],[88.4,1915],[97.8,1999],[99.6,2083],[99.6,2165],[99.6,2250],[99.6,2334],[99.6,2415],[99.6,2500],[99.6,2583],[99.6,2665],[99.6,2750],[99.6,2833],[99.6,2915],[99.6,2999],[99.6,3081],[99.6,3167],[99.6,3250],[99.6,3333],[99.6,3415],[99.6,3500],[99.6,3583],[99.6,3665],[99.6,3749],[99.6,3833],[99.6,3915],[99.6,3999],[99.6,4083],[99.6,4167],[99.6,4249],[99.6,4333],[99.6,4417],[99.6,4499],[99.6,4583],[99.6,4665],[99.6,4750],[99.6,4833],[99.6,4915],[99.6,5000],[99.6,5083],[99.6,5165],[99.6,5249],[99.6,5333],[99.6,5417],[99.6,5499],[99.6,5583],[99.6,5665],[99.6,5750],[99.6,5833],[99.6,5915],[99.6,6000],[99.6,6083],[99.6,6165],[99.6,6250],[99.6,6333],[99.6,6417],[99.6,6499],[99.6,6583],[99.6,6667],[99.6,6750],[99.6,6833],[99.6,6915],[99.6,7000],[99.6,7081],[99.6,7165],[99.6,7249],[99.6,7333],[99.6,7417],[99.6,7500],[99.6,7583],[99.6,7665],[99.6,7750],[99.6,7833],[99.6,7917],[99.6,7999],[99.6,8083],[99.6,8165],[99.6,8250]]",1,0,267.173,269.206,99.609375,1.439,"[{""rating"":99.609375,""responseTime"":1.4389999999999645}]",space,1.5,,269.206,Partially,50,269.215,,,[],,0,5,5,5,1,audio/Narrative7Situation5.wav,audio/Narrative8Situation5.wav,audio/Narrative5Situation5.wav,audio/Narrative6Situation5.wav,5,2,5,2,,,,,,,,,,,,,,,,,,,,,,,,,,,,,,,,,,,,,,,
,,,,,,5b4f6da7bdd8af000144c7df,2024-05-13_09h34.21.742,group3.1-3.2-social-tom,2023.2.2,Win32,60.0240096,65c5074098b851296ff0b7ed,664232e9d4ba4118e594df6e,,,,,,,,,,,,,,,,,,,,,,,,,,,,,269.215,1,audio/Narrative8Situation6.wav,271.223,,271.223,277.69,"[[97.9,917],[97.7,1000],[97.7,1083],[97.7,1167],[97.7,1250],[97.7,1333],[97.7,1415],[97.7,1499],[97.7,1583],[97.7,1665],[97.8,1750],[99.2,1833],[99.5,1917],[99.5,2000],[99.5,2083],[99.5,2167],[99.5,2249],[99.5,2333],[99.5,2417],[99.5,2499],[99.5,2581],[99.5,2665],[99.5,2750],[99.5,2833],[99.5,2917],[99.5,3000],[99.5,3083],[99.5,3165],[99.5,3250],[99.5,3333],[99.5,3415],[99.5,3499],[99.5,3583],[99.5,3665],[99.5,3750],[99.5,3833],[99.5,3917],[99.5,4000],[99.5,4083],[99.5,4167],[99.5,4249],[99.5,4333],[99.5,4415],[99.5,4500],[99.5,4583],[99.5,4665],[99.5,4750],[99.5,4833],[99.5,4917],[99.5,5000],[99.5,5083],[99.5,5165],[99.5,5251],[99.5,5333],[99.5,5415],[99.5,5500],[99.5,5583],[99.5,5665],[99.5,5749],[99.5,5831],[99.5,5917],[99.5,6000],[99.5,6081],[99.5,6165],[99.5,6250],[99.5,6333],[99.5,6415]]",1,0,277.69,284.323,99.609375,4.892,"[{""rating"":99.609375,""responseTime"":4.891999999999996}]",space,6.094,,284.323,Definitely yes,100,284.328,,,[],,0,6,6,6,1,audio/Narrative7Situation6.wav,audio/Narrative8Situation6.wav,audio/Narrative5Situation6.wav,audio/Narrative6Situation6.wav,3,2,3,2,,,,,,,,,,,,,,,,,,,,,,,,,,,,,,,,,,,,,,,
,,,,,,5b4f6da7bdd8af000144c7df,2024-05-13_09h34.21.742,group3.1-3.2-social-tom,2023.2.2,Win32,60.0240096,65c5074098b851296ff0b7ed,664232e9d4ba4118e594df6e,,,,,,,,,,,,,,,,,,,,,,,,,,,,,284.328,1,audio/Narrative8Situation7.wav,287.339,,287.339,299.423,"[[95.1,1415],[87.6,1501],[87.1,1585],[83.1,1668],[65,1750],[51.6,1834],[44.5,1917],[40.9,2000],[32,2085],[9.1,2167],[0.1,3251],[3.4,3333],[4.3,3415],[4.3,3501],[4.3,3584],[6.9,3667],[9.9,3750],[15.2,3834],[27.3,3917],[41.1,4000],[49.1,4084],[55.5,4167],[61.5,4250],[67.6,4333],[76.2,4418],[82,4500],[83.6,4584],[89.2,4667],[100,5251],[99.7,5334],[99.7,5415],[99.3,5501],[99.1,5584],[99.1,5667],[99.1,5750],[99.1,5834],[99.1,5917],[99.1,6000],[99.1,6083],[99.1,6167],[99.1,6249],[99.1,6334],[99.1,6417],[99.1,6500],[99.1,6584],[99.1,6667],[99.1,6751],[99.1,6834],[99.1,6915],[99.1,7001],[99.1,7084],[99.1,7165],[99.1,7250],[99.1,7333],[99.1,7418],[99.1,7500],[99.1,7583],[99.1,7667],[99.1,7751],[99.1,7834],[99.1,7917],[99.1,8000],[99.1,8083],[99.1,8167],[99.1,8250],[99.1,8333],[99.1,8417],[99.1,8500],[99.1,8583],[99.1,8667],[99.1,8751],[99.1,8833],[99.1,8917],[99.1,9001],[98.7,9084],[96.6,9165],[96.6,9250],[96.6,9334],[96.6,9415],[96.6,9501],[96.6,9584],[96.6,9667],[96.6,9750],[95.6,9834],[94.5,9917],[94.5,10000],[94.5,10084],[94.5,10167],[94.5,10250],[94.5,10333],[94.5,10418],[94.5,10500],[94.5,10584],[94.5,10667],[94.5,10750],[94,10834],[93.1,10917],[93.1,11000],[93.1,11083],[93.1,11167],[93.1,11250],[93.1,11334],[93.1,11417],[93.1,11500],[93.1,11584],[93.1,11665],[93.1,11750],[93.1,11835],[93.1,11917],[93.1,12001],[93.1,12083]]",1,0,299.423,302.506,92.44791667,2.54,"[{""rating"":92.44791666666667,""responseTime"":2.5399999999999636}]",space,2.553,,302.506,Definitely yes,100,302.511,,,[],,0,7,7,7,1,audio/Narrative7Situation7.wav,audio/Narrative8Situation7.wav,audio/Narrative5Situation7.wav,audio/Narrative6Situation7.wav,5,3,4,5,,,,,,,,,,,,,,,,,,,,,,,,,,,,,,,,,,,,,,,
,,,,,,5b4f6da7bdd8af000144c7df,2024-05-13_09h34.21.742,group3.1-3.2-social-tom,2023.2.2,Win32,60.0240096,65c5074098b851296ff0b7ed,664232e9d4ba4118e594df6e,,,,,,,,,,,,,,,,,,,,,,,,,,,,,302.512,1,audio/Narrative8Situation8.wav,305.523,,305.523,318.389,"[[999,2],[999,82],[999,165],[999,250],[999,332],[999,415],[999,499],[999,581],[999,666],[24.9,750],[24.7,832],[24.1,916],[22.3,999],[15.4,1084],[5.5,1165],[7.9,6665],[11.8,6749],[31.5,6832],[34.5,6915],[39.6,7000],[44.5,7084],[46.7,7165],[52.5,7250],[57.3,7332],[60.7,7415],[66.4,7499],[70.2,7582],[73.4,7665],[77.6,7750],[81.9,7832],[84.1,7915],[87.8,8000],[92.2,8082],[98.2,8165],[100,8249],[100,8334],[100,8415],[100,8500],[100,8582],[100,8665],[100,8750],[100,8832],[100,8916],[100,8999],[100,9082],[100,9166],[100,9250],[100,9332],[100,9415],[100,9499],[100,9582],[100,9666],[100,9749],[100,9832],[100,9915],[100,10000],[100,10082],[100,10165],[100,10250],[100,10332],[100,10415],[100,10500],[100,10582],[100,10666],[100,10750],[100,10831],[100,10915],[100,11000],[100,11082],[100,11168],[100,11250],[100,11332],[100,11415],[100,11499],[100,11582],[100,11666],[100,11749],[100,11831],[100,11915],[100,12000],[100,12082],[100,12166],[100,12250],[100,12332],[100,12415],[100,12500],[100,12582],[100,12665],[100,12750],[100,12831]]",1,0,318.389,320.623,63.02083333,1.449,"[{""rating"":63.020833333333336,""responseTime"":1.4490000000000123}]",space,1.701,,320.624,Not at all,0,320.63,,,[],,0,8,8,8,1,audio/Narrative7Situation8.wav,audio/Narrative8Situation8.wav,audio/Narrative5Situation8.wav,audio/Narrative6Situation8.wav,2,3,3,5,,,,,,,,,,,,,,,,,,,,,,,,,,,,,,,,,,,,,,,
,,,,,,5b4f6da7bdd8af000144c7df,2024-05-13_09h34.21.742,group3.1-3.2-social-tom,2023.2.2,Win32,60.0240096,65c5074098b851296ff0b7ed,664232e9d4ba4118e594df6e,,,,,,,,,,,,,,,,,,,,,,,,,,,,,320.63,1,audio/Narrative8Situation9.wav,323.639,,323.639,334.956,"[[999,1],[999,83],[999,165],[999,251],[999,334],[999,417],[999,500],[999,584],[999,667],[999,750],[999,834],[999,917],[999,1000],[29.6,1084],[26,1167],[25.9,1250],[20.7,1334],[7.9,1417],[3.9,1500],[2.5,1585],[0.7,1667],[0.5,1750],[0.1,1833],[0.1,1917],[10.9,6667],[16.4,6751],[16.4,6834],[16.4,6917],[21,7000],[32,7083],[38.4,7165],[43.2,7251],[46.7,7333],[50.4,7417],[52.3,7499],[52.5,7583],[52.5,7667],[52.3,7751],[52.2,7834],[51,7918],[50.3,8001],[50.3,8083],[50.3,8167],[49.7,8251],[49.6,8334],[49.6,8415],[49.6,8500],[49.6,8584],[49.6,8667],[49.6,8750],[49.6,8834],[49.6,8917],[49.6,9000],[49.6,9083],[49.6,9167],[49.6,9250],[49.6,9333],[49.6,9415],[49.6,9501],[49.6,9584],[49.6,9665],[49.6,9751],[49.6,9834],[49.6,9917],[49.6,10000],[49.6,10083],[49.6,10167],[49.6,10250],[49.6,10333],[49.6,10417],[49.6,10501],[49.6,10583],[49.6,10667],[49.6,10750],[49.6,10834],[49.6,10917],[49.6,11000],[49.6,11084],[49.6,11167],[49.6,11250]]",1,0,334.957,337.123,57.16145833,1.808,"[{""rating"":57.161458333333336,""responseTime"":1.8080000000000496}]",space,1.64,,337.124,Not at all,0,337.129,,,[],,0,9,9,9,1,audio/Narrative7Situation9.wav,audio/Narrative8Situation9.wav,audio/Narrative5Situation9.wav,audio/Narrative6Situation9.wav,2,3,3,4,,,,,,,,,,,,,,,,,,,,,,,,,,,,,,,,,,,,,,,
,,,,,,5b4f6da7bdd8af000144c7df,2024-05-13_09h34.21.742,group3.1-3.2-social-tom,2023.2.2,Win32,60.0240096,65c5074098b851296ff0b7ed,664232e9d4ba4118e594df6e,,,,,,,,,,,,,,,,,,,,,,,,,,,,,337.129,1,audio/Narrative7Situation1.wav,339.139,,339.139,395.023,"[[57,1000],[41.3,1084],[29.7,1167],[29.6,1250],[28.5,1334],[25.8,1417],[23.2,1500],[22.7,1583],[20.7,1667],[16,1750],[10.9,1833],[7.2,1917],[6,1999],[4.8,2083],[4,2165],[4,2250],[4,2334],[3.6,2417],[3.3,2500],[2.3,2584],[1.6,2667],[1.6,2750],[1.3,2833],[1.3,2915],[1.3,3000],[1.3,3083],[1.3,3168],[1.3,3250],[1.3,3334],[1.3,3417],[1.3,3500],[1.3,3584],[1.3,3667],[1.3,3750],[1.3,3835],[0.5,8917],[1.8,9001],[2.9,9084],[2.9,9168],[2.9,9250],[2.9,9335],[2.9,9417],[2.9,9500],[2.9,9583],[2.9,9667],[2.7,9751],[2.6,9834],[2.5,9915],[2.5,10000],[2.5,10083],[2.5,10167],[2.5,10250],[2.5,10334],[2.5,10417],[2.5,10500],[2.5,10584],[2.5,10667],[2.5,10751],[2.5,10833],[2.5,10917],[2.5,11000],[2.5,11083],[2.5,11167],[2.5,11250],[2.5,11333],[2.5,11417],[2.5,11501],[2.5,11584],[2.5,11667],[2.5,11750],[2.5,11834],[2.5,11915],[2.5,12000],[2.5,12083],[2.5,12167],[2.5,12250],[2.5,12334],[3,12417],[4.2,12502],[6.6,12584],[10.2,12667],[10.4,12750],[10.4,12833],[10.4,12917],[10.4,13000],[13.8,13083],[14.8,13167],[14.8,13250],[15.4,13334],[18,13417],[18.1,13500],[18.1,13584],[18.1,13667],[18.1,13750],[18.1,13834],[18.5,13918],[17.8,14000],[17.7,14083],[17.7,14165],[17.7,14250],[17.7,14334],[17.8,14417],[18.4,14501],[19.4,14584],[20.4,14667],[20.6,14750],[20.6,14833],[20.6,14915],[20.6,15000],[20.6,15083],[20.7,15167],[21.1,15251],[21.1,15334],[21.1,15417],[21.5,15500],[22.1,15584],[22.1,15667],[22.1,15750],[22.1,15833],[22.1,15917],[22.1,16000],[22.1,16083],[22.1,16167],[22.1,16250],[22.1,16333],[22.1,16415],[22.1,16501],[22.1,16584],[22.1,16667],[22.1,16750],[22.1,16834],[22.1,16917],[22.1,17000],[22.1,17084],[22.1,17165],[22.1,17250],[22.1,17333],[22.1,17417],[22.1,17499],[22.1,17583],[22.1,17667],[22.1,17750],[22.1,17834],[22.1,17915],[22.1,18000],[22.1,18083],[22.1,18165],[22.1,18250],[22.1,18334],[22.1,18417],[22.1,18501],[22.1,18583],[22.1,18665],[22.1,18750],[22.1,18833],[22.1,18917],[22.1,19000],[22.1,19083],[22.1,19167],[22.1,19250],[22.1,19334],[22.1,19415],[22.1,19501],[22.1,19584],[22.1,19667],[22.1,19750],[22.1,19834],[22.1,19917],[22.1,20000],[22.1,20083],[22.1,20165],[22.1,20251],[22.1,20334],[22.1,20415],[22.1,20500],[23.4,20584],[29.2,20667],[29.4,20750],[29.4,20833],[29.4,20917],[29.4,21000],[29.4,21083],[29.4,21167],[29.4,21250],[29.4,21334],[29.4,21415],[29.4,21500],[32.4,21583],[37.2,21667],[38.8,21750],[44.1,21834],[48.7,21917],[49.7,22000],[50.8,22084],[50.8,22168],[50.8,22250],[50.8,22333],[50.8,22415],[50.8,22500],[50.8,22584],[50.8,22667],[50.8,22750],[50.8,22834],[51.8,22917],[55.6,23000],[57.7,23083],[57.9,23167],[57.9,23250],[57.9,23333],[57.2,23415],[57,23500],[57,23584],[57,23665],[57,23750],[57,23833],[57,23915],[57,24000],[57,24084],[57,24167],[57,24250],[57,24333],[57,24417],[57,24500],[57,24584],[57,24667],[57,24750],[57,24834],[57,24917],[57,25000],[57,25083],[57,25167],[57,25250],[57,25333],[57,25415],[57,25500],[57,25584],[57,25667],[57,25750],[57,25834],[57,25917],[57,26000],[57,26084],[57,26167],[57,26250],[57,26334],[57,26417],[57,26500],[57,26584],[57,26667],[57,26751],[57,26834],[57,26917],[57,27000],[57,27083],[57,27167],[57,27251],[57,27334],[57,27415],[57,27500],[57,27584],[57,27667],[57,27750],[57,27834],[57,27917],[57,28000],[57,28084],[56.5,28167],[56.1,28251],[56.1,28333],[56.1,28417],[56.1,28500],[56.1,28584],[56.1,28667],[56.1,28750],[56.1,28834],[56.1,28917],[56.1,29000],[56.1,29083],[56.3,29167],[63.3,29251],[67.8,29333],[71,29417],[77.6,29501],[83.5,29584],[84.9,29667],[85.8,29750],[85.8,29834],[85.8,29917],[85.8,30000],[85.8,30084],[85.8,30167],[85.8,30250],[85.8,30333],[85.9,30417],[85.9,30500],[85.9,30584],[85.9,30665],[85.9,30750],[85.9,30834],[85.9,30917],[85.9,31000],[85.9,31084],[85.9,31165],[85.9,31251],[85.9,31333],[85.9,31417],[85.9,31501],[85.9,31584],[85.9,31667],[85.9,31751],[85.9,31834],[85.9,31915],[85.9,32000],[85.9,32084],[85.9,32165],[85.9,32250],[85.9,32333],[85.9,32417],[86.3,32501],[90.9,32584],[91.8,32668],[93.5,32750],[96,32834],[96.1,32917],[96.1,33000],[96.1,33083],[96.1,33167],[97.1,33250],[98.2,33333],[98.8,33417],[99.7,33501],[99.7,33583],[99.9,33667],[100,33751],[100,33834],[100,33917],[100,34001],[100,34083],[100,34167],[100,34250],[100,34333],[100,34416],[100,34500],[100,34583],[100,34667],[100,34750],[100,34834],[100,34917],[100,35000],[100,35084],[100,35167],[100,35250],[100,35333],[100,35417],[100,35500],[100,35583],[100,35667],[100,35750],[100,35834],[100,35917],[100,36000],[100,36084],[100,36167],[100,36250],[100,36334],[100,36417],[100,36501],[100,36583],[100,36667],[100,36750],[100,36835],[100,36917],[100,37000],[100,37083],[100,37167],[100,37250],[100,37334],[100,37416],[100,37500],[100,37584],[100,37666],[100,37750],[100,37834],[100,37916],[100,38000],[100,38083],[100,38167],[100,38250],[100,38333],[100,38416],[100,38500],[100,38583],[100,38667],[100,38750],[100,38833],[100,38917],[100,39000],[100,39084],[100,39167],[100,39250],[100,39333],[100,39417],[100,39500],[100,39583],[100,39667],[100,39749],[100,39833],[100,39916],[100,40000],[100,40083],[100,40166],[100,40250],[100,40333],[100,40416],[100,40500],[100,40584],[100,40666],[100,40750],[100,40834],[100,40917],[100,41000],[100,41084],[100,41167],[100,41250],[100,41333],[100,41417],[100,41500],[100,41583],[100,41667],[100,41750],[100,41834],[100,41917],[100,42000],[100,42083],[100,42167],[100,42250],[100,42333],[100,42417],[100,42500],[100,42583],[100,42666],[100,42750],[100,42834],[100,42917],[100,43000],[100,43083],[100,43167],[100,43250],[100,43333],[100,43417],[100,43500],[100,43583],[100,43666],[100,43750],[100,43834],[100,43917],[100,44000],[100,44084],[100,44167],[100,44250],[100,44333],[100,44417],[100,44500],[100,44583],[100,44666],[100,44750],[100,44833],[100,44917],[100,45002],[100,45084],[100,45166],[100,45250],[100,45334],[100,45416],[100,45500],[100,45584],[100,45667],[100,45750],[100,45833],[100,45917],[100,46000],[100,46084],[100,46167],[100,46250],[100,46333],[100,46417],[100,46500],[100,46584],[100,46667],[100,46751],[100,46834],[100,46917],[100,47000],[100,47084],[100,47167],[100,47250],[100,47334],[100,47417],[100,47500],[100,47584],[100,47667],[100,47750],[100,47834],[100,47917],[100,48001],[100,48083],[100,48167],[100,48250],[100,48333],[100,48417],[100,48500],[100,48584],[100,48667],[100,48750],[100,48834],[100,48917],[100,49000],[100,49083],[100,49167],[100,49250],[100,49334],[100,49417],[100,49500],[100,49583],[100,49667],[100,49750],[100,49834],[100,49917],[100,50000],[100,50084],[100,50167],[100,50250],[100,50334],[100,50417],[100,50500],[100,50583],[100,50666],[100,50750],[100,50833],[100,50917],[100,51000],[100,51084],[100,51166],[100,51250],[100,51334],[100,51417],[100,51500],[100,51583],[100,51667],[100,51750],[100,51833],[100,51916],[100,52000],[100,52083],[100,52167],[100,52250],[100,52334],[100,52416],[100,52500],[100,52583],[100,52666],[100,52750],[100,52833],[100,52917],[100,53000],[100,53084],[100,53167],[100,53251],[100,53334],[99.1,53417],[98.6,53500],[98.6,53583],[98.6,53666],[98.6,53750],[98.6,53834],[98.6,53917],[98.7,54000],[100,54083],[100,54166],[100,54250],[100,54334],[100,54417],[100,54500],[100,54583],[100,54667],[100,54750],[100,54834],[100,54917],[100,55000],[100,55083],[100,55167],[100,55250],[100,55334],[100,55417],[100,55501],[100,55584],[100,55667],[100,55750],[100,55834]]",1,0,395.023,397.673,99.73958333,1.977,"[{""rating"":99.73958333333333,""responseTime"":1.9770000000000323}]",space,2.103,,397.673,Definitely yes,100,397.68,,,[],,0,10,10,10,1,audio/Narrative8Situation1.wav,audio/Narrative7Situation1.wav,audio/Narrative6Situation1.wav,audio/Narrative5Situation1.wav,5,2,2,5,,,,,,,,,,,,,,,,,,,,,,,,,,,,,,,,,,,,,,,
,,,,,,5b4f6da7bdd8af000144c7df,2024-05-13_09h34.21.742,group3.1-3.2-social-tom,2023.2.2,Win32,60.0240096,65c5074098b851296ff0b7ed,664232e9d4ba4118e594df6e,,,,,,,,,,,,,,,,,,,,,,,,,,,,,397.68,1,audio/Narrative7Situation2.wav,400.689,,400.689,408.156,"[[93,1000],[77.7,1084],[68,1166],[65.4,1250],[47.5,1584],[46,1665],[45.1,1750],[45.1,1834],[44,1916],[40.9,2000],[39.8,2084],[39.5,2166],[39.5,2250],[39.5,2334],[39.5,2418],[40.9,2500],[42.4,2583],[44.5,2666],[46,2750],[46.7,2834],[48.2,2916],[48.6,3000],[50.3,3084],[56.5,3166],[62.9,3250],[71.1,3334],[100,3500],[100,3583],[100,3666],[100,3750],[100,3834],[100,3918],[100,4000],[100,4084],[100,4165],[100,4250],[100,4334],[100,4415],[100,4500],[100,4583],[100,4666],[100,4750],[100,4834],[100,4916],[100,5000],[100,5083],[100,5166],[100,5250],[100,5333],[100,5416],[100,5500],[100,5583],[100,5666],[100,5750],[100,5834],[100,5916],[100,6000],[100,6084],[100,6166],[100,6250],[100,6333],[100,6416],[100,6500],[100,6583],[100,6666],[100,6750],[100,6834],[100,6915],[100,7000],[100,7084],[100,7166],[100,7250],[100,7334],[100,7416]]",1,0,408.156,412.289,100,3.822,"[{""rating"":98.30729166666667,""responseTime"":2.520999999999958},{""rating"":100,""responseTime"":3.821999999999946}]",space,3.604,,412.29,Not at all,0,412.295,,,[],,0,11,11,11,1,audio/Narrative8Situation2.wav,audio/Narrative7Situation2.wav,audio/Narrative6Situation2.wav,audio/Narrative5Situation2.wav,3,3,3,3,,,,,,,,,,,,,,,,,,,,,,,,,,,,,,,,,,,,,,,
,,,,,,5b4f6da7bdd8af000144c7df,2024-05-13_09h34.21.742,group3.1-3.2-social-tom,2023.2.2,Win32,60.0240096,65c5074098b851296ff0b7ed,664232e9d4ba4118e594df6e,,,,,,,,,,,,,,,,,,,,,,,,,,,,,412.295,1,audio/Narrative7Situation3.wav,420.306,,420.306,429.574,"[[47.8,1750],[47.7,1834],[48,1916],[48,2000],[43.5,2082],[25.3,2166],[14.8,2250],[12,2334],[9.5,2415],[3.5,2500],[1.8,2582],[1.3,2666]]",1,0,429.574,434.656,0,2.679,"[{""rating"":1.171875,""responseTime"":1.127999999999986},{""rating"":0,""responseTime"":2.6790000000000305}]",space,4.533,,434.656,Definitely yes,100,434.661,,,[],,0,12,12,12,1,audio/Narrative8Situation3.wav,audio/Narrative7Situation3.wav,audio/Narrative6Situation3.wav,audio/Narrative5Situation3.wav,4,8,5,3,,,,,,,,,,,,,,,,,,,,,,,,,,,,,,,,,,,,,,,
,,,,,,5b4f6da7bdd8af000144c7df,2024-05-13_09h34.21.742,group3.1-3.2-social-tom,2023.2.2,Win32,60.0240096,65c5074098b851296ff0b7ed,664232e9d4ba4118e594df6e,,,,,,,,,,,,,,,,,,,,,,,,,,,,,434.661,1,audio/Narrative7Situation4.wav,437.674,,437.675,449.406,"[[0.3,1914],[0.3,1998],[0.3,2080],[0.3,2165],[0.3,2248],[0.3,2331],[0.3,2414],[0.3,2498],[0.3,2581],[0.3,2664],[0.3,2748],[0.3,2831],[0.3,2914],[0.3,2998],[0.3,3080],[0.3,3164],[0.3,3248],[0.3,3331],[0.3,3414],[0.3,3497],[0.3,3581],[0.3,3664],[0.3,3748],[0.3,3831],[0.3,3914],[0.3,3998],[0.3,4081],[0.3,4164],[0.3,4247],[0.3,4331],[0.3,4414],[0.3,4497],[0.3,4581],[0.3,4664],[0.3,4747],[0.3,4830],[0.3,4914],[0.3,4997],[0.3,5080],[0.3,5164],[0.3,5247],[0.3,5331],[0.3,5414],[0.3,5498],[0.3,5581],[0.3,5664],[0.3,5748],[0.3,5831],[0.3,5914],[0.3,5997],[0.3,6081],[0.3,6165],[0.3,6248],[0.4,6332],[2,6414],[7.6,6497],[14.2,6581],[15.1,6664],[15.1,6747],[15.1,6831],[15.1,6914],[15.1,6998],[15.1,7080],[15.1,7164],[15.1,7247],[15.1,7331],[15.1,7414],[14.6,7498],[13,7581],[6.5,7664],[1,7747],[1.8,8831],[2.1,8915],[2.1,8997],[2.1,9080],[2.1,9164],[1.4,9248],[0.1,9331],[0.1,9414],[0.1,9497],[0.1,9581],[0.1,9664],[0.1,9748],[0.1,9831],[0.1,9914],[0.1,9997],[0.1,10081],[0.1,10165],[0.1,10247],[0.1,10330],[0.1,10415],[0.1,10497],[0.1,10581],[0.1,10664],[0.1,10748],[0.1,10831],[0.1,10914],[0.1,10997],[0.1,11081],[0.1,11165],[0.1,11248],[0.1,11330],[0.1,11414],[0.1,11497],[0.1,11580],[0.1,11664]]",1,0,449.407,451.824,0.130208333,0.94,"[{""rating"":0.13020833333333148,""responseTime"":0.9399999999999977}]",space,1.866,,451.824,Not at all,0,451.829,,,[],,0,13,13,13,1,audio/Narrative8Situation4.wav,audio/Narrative7Situation4.wav,audio/Narrative6Situation4.wav,audio/Narrative5Situation4.wav,3,3,2,1,,,,,,,,,,,,,,,,,,,,,,,,,,,,,,,,,,,,,,,
,,,,,,5b4f6da7bdd8af000144c7df,2024-05-13_09h34.21.742,group3.1-3.2-social-tom,2023.2.2,Win32,60.0240096,65c5074098b851296ff0b7ed,664232e9d4ba4118e594df6e,,,,,,,,,,,,,,,,,,,,,,,,,,,,,451.829,1,audio/Narrative7Situation5.wav,456.839,,456.84,465.34,"[[0.3,998],[0.4,1082],[0.4,1165],[0.4,1248],[0.4,1332],[0.4,1414],[0.4,1500],[0.4,1582],[0.4,1665],[0.4,1748],[0.4,1831],[0.4,1914],[0.4,1998],[0.4,2081],[0.4,2165],[0.4,2248],[0.4,2331],[0.4,2415],[0.4,2498],[0.4,2582],[0.4,2665],[0.4,2748],[0.4,2832],[0.4,2915],[0.4,2998],[0.4,3082],[0.4,3165],[0.4,3248],[0.4,3332],[0.4,3415],[0.4,3498],[0.4,3581],[0.4,3665],[0.4,3748],[0.4,3831],[0.4,3915],[0.5,4000],[0.5,4081],[0.7,4165],[0.8,4248],[0.8,4332],[0.8,4415],[0.9,4497],[0.9,4582],[0.9,4665],[0.9,4748],[0.9,4831],[0.9,4915],[0.9,4998],[0.8,5082],[0.7,5164],[0.9,5250],[2.3,5332],[2.7,5415],[2.7,5498],[2.7,5582],[2.7,5665],[2.7,5748],[2.7,5831],[2.7,5915],[0.3,6748],[0.5,6832],[0.8,6914],[0.8,6998],[0.8,7082],[0.8,7165],[0.8,7248],[0.8,7331],[0.8,7415],[0.8,7498],[0.8,7582],[0.8,7665],[0.8,7750],[0.8,7832],[0.8,7915],[0.8,7998],[0.8,8082],[0.8,8164],[0.8,8248],[0.8,8332],[0.8,8415],[0.8,8500]]",1,0,465.34,466.739,0.78125,0.744,"[{""rating"":0.78125,""responseTime"":0.7440000000000282}]",space,0.854,,466.739,Partially,50,466.745,,,[],,0,14,14,14,1,audio/Narrative8Situation5.wav,audio/Narrative7Situation5.wav,audio/Narrative6Situation5.wav,audio/Narrative5Situation5.wav,2,5,2,5,,,,,,,,,,,,,,,,,,,,,,,,,,,,,,,,,,,,,,,
,,,,,,5b4f6da7bdd8af000144c7df,2024-05-13_09h34.21.742,group3.1-3.2-social-tom,2023.2.2,Win32,60.0240096,65c5074098b851296ff0b7ed,664232e9d4ba4118e594df6e,,,,,,,,,,,,,,,,,,,,,,,,,,,,,466.745,1,audio/Narrative7Situation6.wav,469.756,,469.756,479.724,"[[1.8,1168],[2,1248],[2,1332],[2,1415],[1.8,1500],[1.8,1582],[1.8,1665],[1.8,1750],[1.8,1832],[1.8,1916],[1.8,1998],[1.8,2082],[1.8,2165],[1.8,2248],[2.6,2332],[12.8,2415],[20.4,2500],[21.4,2582],[29.8,2666],[53.4,2750],[60.5,2832],[67.4,2915],[77.3,3000],[86.7,3082],[91.9,3166],[97.3,3250],[99.9,3332],[100,3418],[100,3498],[100,3582],[100,3666],[100,3750],[100,3832],[100,3916],[100,4000],[100,4082],[100,4165],[100,4248],[100,4332],[100,4415],[100,4498],[100,4582],[100,4665],[100,4748],[100,4832],[100,4916],[100,5000],[100,5082],[100,5166],[100,5248],[100,5332],[100,5415],[100,5498],[100,5584],[100,5665],[100,5748],[100,5832],[100,5916],[100,6000],[100,6082],[100,6166],[100,6250],[100,6332],[100,6416],[100,6498],[100,6582],[100,6666],[100,6748],[100,6834],[100,6916],[100,7000],[100,7082],[100,7166],[100,7250],[100,7332],[100,7416],[100,7498],[100,7582],[100,7665],[100,7750],[100,7834],[100,7916],[100,8000],[100,8082],[100,8165],[100,8250],[100,8332],[100,8415],[100,8498],[100,8581],[100,8665],[100,8750],[100,8832],[100,8916],[100,9000],[100,9082],[100,9166],[100,9248],[100,9332],[100,9415],[100,9500],[100,9582],[100,9665],[100,9750],[100,9832],[100,9916]]",1,0,479.724,481.639,98.56770833,1.287,"[{""rating"":98.56770833333333,""responseTime"":1.2870000000000346}]",space,1.364,,481.64,Partially,50,487.956,50.26041667,5.058,"[{""rating"":50.260416666666664,""responseTime"":5.057999999999993}]",space,0,15,15,15,1,audio/Narrative8Situation6.wav,audio/Narrative7Situation6.wav,audio/Narrative6Situation6.wav,audio/Narrative5Situation6.wav,2,3,2,3,,,5.786,,,,,,,,,,,,,,,,,,,,,,,,,,,,,,,,,,,,
,,,,,,5b4f6da7bdd8af000144c7df,2024-05-13_09h34.21.742,group3.1-3.2-social-tom,2023.2.2,Win32,60.0240096,65c5074098b851296ff0b7ed,664232e9d4ba4118e594df6e,,,,,,,,,,,,,,,,,,,,,,,,,,,,,487.957,1,audio/Narrative7Situation7.wav,492.973,,492.973,510.14,"[[50.4,1665],[56.6,1749],[56.6,1833],[56.6,1915],[56.6,1999],[56.6,2081],[56.6,2165],[56.6,2250],[56.6,2331],[57.9,2417],[64.6,2500],[66.4,2583],[72,2665],[82.8,2750],[89.3,2833],[90.5,2915],[93.5,2999],[95.3,3083],[96.7,3165],[98.3,3250],[99.6,3331],[99.6,3415],[99.6,3499],[99.6,3583],[99.6,3665],[99.6,3749],[99.6,3833],[99.6,3915],[99.6,3999],[99.6,4081],[99.6,4165],[99.6,4249],[99.6,4331],[99.6,4415],[99.6,4500],[99.6,4583],[99.6,4665],[99.6,4749],[99.6,4833],[99.6,4915],[99.6,4999],[99.6,5081],[99.6,5165],[99.6,5250],[99.6,5331],[99.6,5415],[99.6,5499],[99.6,5583],[99.6,5665],[99.6,5750],[99.6,5833],[99.6,5915],[99.6,6000],[99.6,6081],[99.6,6165],[99.6,6249],[99.6,6333],[99.6,6415],[99.6,6499],[99.6,6583],[99.6,6665],[99.6,6749],[99.6,6833],[99.6,6915],[99.6,6999],[99.6,7083],[99.6,7165],[99.6,7249],[99.6,7331],[99.6,7415],[99.6,7500],[99.6,7583],[99.6,7665],[99.6,7749],[99.6,7833],[99.6,7915],[99.6,7999],[99.6,8081],[99.6,8167],[99.6,8250],[99.6,8331],[99.6,8415],[99.6,8500],[99.6,8581],[99.6,8665],[99.6,8749],[99.6,8833],[99.6,8915],[99.6,9000],[99.6,9083],[99.6,9165],[99.6,9249],[99.6,9331],[99.6,9417],[99.6,9499],[99.1,9582],[96.6,9667],[96.6,9750],[96.6,9832],[96.6,9916],[96.1,10000],[96.1,10081],[96.1,10166],[96.1,10250],[96.1,10332],[96.2,10417],[97.5,10499],[97.5,10582],[97.5,10666],[97.5,10750],[97.5,10832],[97.5,10916],[97.5,11000],[97.5,11082],[97.5,11166],[97.5,11249],[97.7,11332],[98.8,11414],[99.3,11499],[99.7,11581],[99.7,11666],[99.7,11750],[99.7,11832],[99.7,11916],[99.7,12000],[99.7,12082],[99.7,12166],[99.7,12249],[99.7,12331],[99.7,12416],[99.7,12499],[99.7,12582],[99.7,12667],[99.7,12750],[99.7,12832],[99.7,12916],[99.7,13000],[99.7,13081],[99.7,13166],[99.7,13249],[99.7,13331],[99.7,13416],[99.7,13499],[99.7,13582],[99.7,13667],[99.7,13750],[99.7,13832],[99.7,13917],[99.7,13999],[99.7,14082],[99.7,14166],[99.7,14250],[99.7,14332],[99.7,14416],[99.7,14500],[99.7,14582],[99.7,14664],[99.7,14749],[99.7,14832],[99.7,14917],[99.7,15000],[99.7,15082],[99.7,15166],[99.7,15249],[99.7,15332],[99.7,15416],[99.7,15500],[99.7,15582],[99.7,15666],[99.7,15749],[99.7,15832],[99.7,15916],[99.7,16000],[99.7,16082],[99.7,16166],[99.7,16249],[99.7,16332],[99.7,16417],[99.7,16500],[99.7,16582],[99.7,16666],[99.7,16750],[99.7,16832],[99.7,16916],[99.7,17000],[99.7,17084],[99.7,17166]]",1,0,510.141,512.89,98.69791667,2.188,"[{""rating"":98.69791666666667,""responseTime"":2.188000000000102}]",space,2.2,,512.89,Partially,50,512.897,,,[],,0,16,16,16,1,audio/Narrative8Situation7.wav,audio/Narrative7Situation7.wav,audio/Narrative6Situation7.wav,audio/Narrative5Situation7.wav,3,5,5,4,,,,,,,,,,,,,,,,,,,,,,,,,,,,,,,,,,,,,,,
,,,,,,5b4f6da7bdd8af000144c7df,2024-05-13_09h34.21.742,group3.1-3.2-social-tom,2023.2.2,Win32,60.0240096,65c5074098b851296ff0b7ed,664232e9d4ba4118e594df6e,,,,,,,,,,,,,,,,,,,,,,,,,,,,,512.897,1,audio/Narrative7Situation8.wav,514.905,,514.906,524.939,"[[94.4,999],[90.2,1081],[90.1,1166],[90.1,1250],[90.1,1332],[90.1,1417],[90.1,1499],[90.1,1582],[90.1,1666],[90.1,1750],[90.1,1832],[90.1,1916],[90.1,1999],[90.1,2081],[90.1,2167],[90,2250],[87.1,2335],[86.3,2417],[85.7,2500],[83.3,2582],[79.3,2668],[73.3,2750],[67.2,2832],[63.8,2918],[62,2999],[60.9,3084],[59.2,3167],[57.8,3250],[56,3332],[50.4,3416],[43.4,3499],[39.3,3584],[31.4,3666],[25.9,3750],[20.4,3832],[14.6,3917],[8.1,4000],[4.4,4082],[3.4,4167],[2,4250],[1.8,4334],[1.3,4417],[1.3,4500],[1.2,4582],[0.8,4666],[0.3,4749],[0.3,5084],[3.5,5166],[9.8,5250],[19,5332],[26.4,5417],[37.8,5500],[47.4,5582],[49.5,5666],[54.8,5752],[55.2,5832],[56,5916],[57.7,5999],[59.2,6082],[60.8,6166],[61.2,6250],[66.1,6332],[73.6,6416],[77.3,6500],[81.6,6582],[88.8,6666],[93.5,6749],[95.1,6832],[97,6916],[97.1,7000],[97.7,7082],[97.8,7167],[97.8,7250],[97.8,7332],[97.8,7416],[97.8,7500],[98.2,7582],[98.8,7667],[99.2,7750],[99.2,7832],[99.2,7916],[99.2,7999],[99.2,8082],[99.2,8167],[99.2,8250],[99.2,8332],[99.2,8417],[99.2,8500],[99.2,8582],[99.2,8666],[99.2,8749],[99.2,8832],[99.2,8917],[99.2,8999],[99.2,9082],[99.2,9166],[99.2,9250],[99.2,9334],[99.2,9417],[99.2,9500],[99.2,9582],[99.2,9667],[99.2,9749],[99.2,9832],[99.2,9916],[99.2,10000]]",1,0,524.94,527.773,87.23958333,2.541,"[{""rating"":94.140625,""responseTime"":1.0310000000000628},{""rating"":87.23958333333333,""responseTime"":2.5410000000000537}]",space,2.302,,527.773,Definitely yes,100,527.778,,,[],,0,17,17,17,1,audio/Narrative8Situation8.wav,audio/Narrative7Situation8.wav,audio/Narrative6Situation8.wav,audio/Narrative5Situation8.wav,3,2,5,3,,,,,,,,,,,,,,,,,,,,,,,,,,,,,,,,,,,,,,,
,,,,,,5b4f6da7bdd8af000144c7df,2024-05-13_09h34.21.742,group3.1-3.2-social-tom,2023.2.2,Win32,60.0240096,65c5074098b851296ff0b7ed,664232e9d4ba4118e594df6e,,,,,,,,,,,,,,,,,,,,,,,,,,,,,527.778,1,audio/Narrative7Situation9.wav,529.79,,529.79,538.44,"[[84,999],[83.5,1081],[83.5,1166],[83.5,1249],[83.5,1332],[83.5,1416],[83.5,1500],[83.7,1581],[83.7,1666],[83.7,1749],[86.5,1832],[92.7,1916],[96.1,1999],[97.1,2082],[98.6,2166],[98.8,2249],[98.8,2331],[99,2416],[99,2499],[99,2582],[99,2666],[99,2749],[99.6,2832],[100,2914],[100,2999],[100,3081],[100,3164],[100,3249],[100,3332],[100,3416],[100,3498],[100,3582],[100,3666],[100,3749],[100,3831],[100,3914],[100,3999],[100,4081],[100,4166],[100,4249],[100,4331],[100,4414],[100,4498],[100,4582],[100,4666],[100,4749],[100,4832],[100,4916],[100,4999],[100,5082],[100,5164],[100,5250],[100,5331],[100,5416],[100,5500],[100,5582],[100,5664],[100,5749],[100,5832],[100,5916],[100,5999],[100,6081],[100,6167],[100,6249],[100,6331],[100,6416],[100,6499],[100,6582],[100,6664],[100,6750],[100,6831],[100,6916],[100,6999],[100,7082],[100,7164],[100,7249],[100,7331],[100,7416],[100,7499],[100,7581],[100,7666],[100,7749],[100,7831],[100,7914],[100,7999],[100,8082],[100,8164],[100,8249],[100,8332],[100,8416],[100,8499],[100,8582]]",1,0,538.441,540.473,99.21875,0.986,"[{""rating"":99.21875,""responseTime"":0.98599999999999}]",space,1.486,,540.473,Definitely yes,100,540.479,,,[],,0,18,18,18,1,audio/Narrative8Situation9.wav,audio/Narrative7Situation9.wav,audio/Narrative6Situation9.wav,audio/Narrative5Situation9.wav,3,2,4,3,,,,,,,,,,,,,,,,,,,,,,,,,,,,,,,,,,,,,,,
,,,,,,5b4f6da7bdd8af000144c7df,2024-05-13_09h34.21.742,group3.1-3.2-social-tom,2023.2.2,Win32,60.0240096,65c5074098b851296ff0b7ed,664232e9d4ba4118e594df6e,,,,,,,,,,,,,,,,,,,,,,,,,,,543.99,546.573,546.582,2,audio/Narrative13Situation2.wav,546.582,,546.582,576.323,"[[93.9,1656],[87.8,1740],[80.3,1823],[72.7,1906],[61.3,1990],[40.4,2072],[31,2156],[3.1,9573],[10.2,9656],[17.6,9740],[25.1,9823],[30.3,9906],[44,9990],[52.3,10073],[54.6,10156],[55.1,10240],[57.2,10323],[60.4,10406],[61.6,10490],[65.1,10573],[71.2,10656],[77.3,10740],[81.3,10823],[85.9,10906],[89.1,10990],[89.7,11073],[90.4,11156],[92.4,11240],[94,11322],[94,11405],[94,11490],[94,11573],[94.5,11658],[95.1,11740],[95.1,11823],[95.1,11906],[95.1,11990],[95.1,12073],[95.1,12156],[95.1,12240],[95.1,12322],[97.4,12406],[98.3,12490],[98.3,12573],[98.3,12658],[98.3,12740],[98.3,12823],[98.3,12908],[98.3,12990],[98.3,13073],[98.3,13156],[98.3,13240],[98.3,13322],[98.3,13405],[98.3,13490],[100,13574],[100,13656],[100,13740],[100,13823],[100,13906],[100,13990],[100,14072],[100,14156],[100,14240],[100,14323],[100,14408],[100,14490],[100,14573],[100,14656],[100,14740],[100,14823],[100,14908],[100,14990],[100,15073],[100,15156],[100,15240],[100,15322],[100,15406],[100,15490],[100,15573],[100,15656],[100,15740],[100,15823],[100,15908],[100,15990],[100,16072],[100,16156],[100,16240],[100,16322],[99.9,16406],[99.9,16490],[99.9,16573],[99.9,16655],[99.1,16740],[98.7,16823],[97,16906],[93.8,16990],[86.1,17073],[78,17156],[74.3,17240],[65.4,17322],[62.4,17408],[60.8,17490],[57.7,17573],[52.9,17658],[46.6,17740],[43,17823],[36.7,17906],[32.6,17990],[29.2,18072],[25.3,18156],[21.7,18240],[15.6,18322],[13.2,18406],[11.2,18490],[9.6,18572],[8.7,18658],[7.2,18740],[6,18823],[4.8,18906],[3.9,18990],[2.9,19073],[2.2,19158],[1.7,19240],[1.2,19323],[1.2,19406],[1.2,19490],[1.2,19572],[0.9,19658],[0.9,19740],[0.9,19823],[0.9,19906],[0.9,19990],[0.9,20073],[0.9,20156],[0.9,20240],[0.9,20323],[0.9,20406],[0.9,20490],[0.9,20572],[0.9,20656],[0.9,20740],[0.9,20823],[0.9,20906],[0.9,20990],[0.9,21073],[0.9,21156],[0.9,21240],[0.9,21322],[0.9,21406],[0.9,21490],[0.9,21572],[0.9,21656],[0.9,21740],[0.9,21823],[0.9,21906],[0.9,21990],[0.9,22073],[0.9,22156],[0.9,22240],[0.9,22323],[0.9,22406],[0.9,22490],[0.9,22572],[0.9,22656],[0.9,22740],[0.9,22823],[0.9,22906],[0.9,22990],[0.9,23072],[0.9,23156],[0.9,23240],[0.9,23323],[0.9,23406],[0.9,23490],[0.9,23572],[0.9,23656],[0.9,23740],[0.9,23823],[0.9,23906],[0.9,23990],[0.9,24073],[0.9,24156],[0.9,24240],[0.9,24323],[0.9,24408],[0.9,24490],[0.9,24573],[0.9,24656],[0.9,24740],[0.9,24823],[0.9,24906],[0.9,24990],[0.9,25073],[0.9,25156],[0.9,25240],[0.9,25323],[0.9,25408],[0.9,25490],[0.9,25572],[0.9,25656],[0.9,25740],[0.9,25823],[0.9,25906],[0.9,25990],[0.9,26073],[1.8,26156],[1.8,26240],[1.8,26323],[1.8,26406],[1.8,26490],[1.8,26573],[1.8,26656],[1.8,26740],[1.8,26823],[1.8,26906],[1.8,26990],[1.8,27073],[1.8,27156],[1.8,27240],[1.8,27323],[1.8,27406],[1.8,27490],[1.8,27573],[1.8,27658],[1.8,27740],[1.8,27823],[1.8,27906],[1.8,27990],[1.8,28073],[1.8,28156],[1.8,28240],[1.8,28323],[1.8,28406],[1.8,28490],[1.8,28573],[1.8,28656],[1.8,28740],[1.8,28823],[1.8,28906],[1.8,28990],[1.8,29073],[1.8,29156],[1.7,29240],[1.7,29323],[1.7,29406],[1.7,29490],[1.7,29572],[1.2,29655],[1,29740]]",1,0,576.324,576.33,,,[],,,,576.33,Not at all,0,576.334,,,[],,0,0,0,0,1,audio/Narrative13Situation2.wav,audio/Narrative13Situation2.wav,audio/Narrative13Situation2.wav,audio/Narrative13Situation2.wav,2,2,2,2,,,,,540.479,543.989,space,2.986,,,,,,,,,,,,,,,,,,,,,,,,,,,,,,,
,,,,,,5b4f6da7bdd8af000144c7df,2024-05-13_09h34.21.742,group3.1-3.2-social-tom,2023.2.2,Win32,60.0240096,65c5074098b851296ff0b7ed,664232e9d4ba4118e594df6e,,,,,,,,,,,,,,,,,,,,,,,,,,,,,576.335,2,audio/Narrative6Situation1.wav,578.339,,578.339,604.906,"[[4.8,1250],[5.1,1334],[5.1,1417],[4.7,1500],[4.7,1582],[4.7,1667],[4.7,1750],[4.7,1832],[4.7,1916],[4.7,2000],[4.4,2084],[4.4,2166],[4.4,2250],[4.4,2334],[4.4,2417],[4.4,2500],[3.9,2582],[2.5,2667],[2,2750],[2,2832],[2,2917],[1.8,3000],[1.8,3084],[1.7,3166],[1.7,3250],[1.7,3334],[1.7,3417],[1.7,3500],[1.7,3584],[1.7,3667],[1.7,3750],[1.7,3834],[1.7,3916],[1.7,4000],[1.7,4082],[1.7,4166],[1.7,4250],[1.7,4332],[1.7,4416],[1.7,4500],[1.7,4584],[1.7,4667],[1.7,4750],[1.7,4834],[1.7,4916],[1.7,5000],[1.7,5082],[1.7,5167],[1.7,5250],[1.7,5332],[1.7,5416],[1.7,5500],[1.7,5584],[1.7,5667],[1.7,5750],[1.7,5832],[1.7,5916],[1.7,6000],[1.7,6084],[1.7,6167],[1.7,6250],[1.7,6332],[1.7,6417],[1.7,6500],[2.2,6584],[15.9,6667],[48.7,6750],[60.3,6834],[65.8,6916],[77.9,7000],[86.1,7082],[86.5,7166],[88.8,7250],[94,7332],[97,7417],[97.1,7500],[97.8,7584],[98.3,7667],[98.3,7750],[98.4,7832],[98.6,7917],[98.7,8000],[98.7,8082],[98.7,8166],[98.7,8250],[98.7,8334],[98.7,8417],[98.7,8500],[98.7,8582],[98.7,8666],[98.7,8750],[98.7,8832],[98.8,8916],[98.8,9000],[99,9082],[99,9166],[99,9250],[99,9334],[99,9417],[99,9500],[99,9584],[99,9667],[99,9750],[99,9834],[99,9917],[99,10000],[99,10082],[99,10166],[99,10250],[99,10334],[99,10417],[99,10500],[99,10582],[99,10667],[99,10750],[99,10834],[99,10917],[99,11000],[99,11084],[99,11167],[99,11250],[99,11334],[99,11417],[99,11500],[99,11584],[99,11667],[99,11750],[99,11834],[97.1,11917],[95.6,12000],[87.9,12084],[78.1,12167],[74.2,12250],[72.8,12332],[67.2,12416],[54.8,12500],[46.4,12584],[44,12667],[43.2,12750],[43.1,12834],[40.9,12917],[38.8,13000],[33.1,13082],[26.8,13167],[24.9,13250],[24.7,13332],[21.2,13417],[16.8,13499],[11.8,13584],[6.6,13667],[0.9,13750],[0.4,13834],[0.4,13917],[0.4,14000],[0.4,14084],[0.4,14166],[0.4,14250],[0.4,14334],[0.4,14417],[0.4,14500],[0.4,14582],[0.4,14667],[0.4,14750],[0.4,14834],[0.4,14917],[0.4,15000],[0.4,15082],[0.4,15167],[0.4,15250],[0.4,15334],[0.4,15417],[0.4,15500],[0.4,15584],[0.4,15667],[0.4,15750],[0.4,15834],[0.4,15917],[0.4,16000],[0.4,16082],[0.4,16166],[0.4,16250],[0.4,16334],[0.4,16417],[0.4,16500],[0.4,16582],[0.4,16667],[0.4,16750],[0.4,16834],[0.4,16917],[0.4,17000],[0.4,17084],[0.4,17166],[0.4,17250],[0.4,17334],[0.4,17416],[0.4,17500],[0.4,17584],[0.4,17667],[0.4,17750],[0.4,17834],[0.4,17917],[0.4,18000],[0.4,18085],[0.4,18167],[0.4,18250],[0.4,18336],[0.4,18416],[0.4,18500],[0.4,18584],[0.4,18667],[0.4,18750],[0.4,18834],[0.4,18917],[0.4,19000],[0.4,19082],[0.4,19166],[0.4,19250],[0.4,19334],[0.4,19416],[0.4,19500],[0.4,19584],[0.4,19667],[0.4,19750],[0.4,19834],[0.4,19917],[0.4,20000],[0.4,20084],[0.4,20167],[0.4,20250],[0.4,20332],[0.4,20417],[0.4,20500],[0.4,20582],[0.4,20667],[0.4,20750],[0.4,20832],[0.4,20916],[0.4,21000],[0.4,21084],[0.4,21166],[0.4,21250],[0.4,21332],[0.4,21417],[0.4,21500],[0.4,21582],[0.4,21666],[0.4,21750],[0.4,21832],[0.4,21917],[0.4,22000],[0.4,22084],[0.4,22167],[0.4,22250],[0.4,22332],[0.4,22417],[0.4,22499],[0.9,22584],[3.3,22667],[9.2,22750],[18.9,22834],[28.6,22917],[34.1,23000],[69,23332],[74.5,23417],[74.7,23500],[66.4,23584],[66.1,23667],[68,23750],[70.3,23832],[76.3,23917],[82.2,24000],[88.8,24082],[91.4,24168],[94.4,24250],[98.8,24332],[100,24416],[100,24500],[100,24584],[100,24666],[100,24750],[100,24832],[100,24917],[100,25000],[100,25084],[100,25166],[100,25250],[100,25334],[100,25416],[100,25500],[100,25582],[100,25667],[100,25750],[100,25834],[100,25917],[100,26000],[100,26084],[100,26167],[100,26250],[100,26334],[93.2,26417],[93.1,26499]]",1,0,604.907,613.873,84.63541667,6.343,"[{""rating"":84.63541666666667,""responseTime"":6.343000000000075}]",space,8.423,,613.873,Not at all,0,613.88,,,[],,0,1,1,1,1,audio/Narrative7Situation1.wav,audio/Narrative8Situation1.wav,audio/Narrative5Situation1.wav,audio/Narrative6Situation1.wav,2,5,5,2,,,,,,,,,,,,,,,,,,,,,,,,,,,,,,,,,,,,,,,
,,,,,,5b4f6da7bdd8af000144c7df,2024-05-13_09h34.21.742,group3.1-3.2-social-tom,2023.2.2,Win32,60.0240096,65c5074098b851296ff0b7ed,664232e9d4ba4118e594df6e,,,,,,,,,,,,,,,,,,,,,,,,,,,,,613.88,2,audio/Narrative6Situation2.wav,616.89,,616.89,645.406,"[[999,0],[999,82],[999,165],[999,249],[999,332],[999,415],[999,499],[999,582],[999,665],[999,749],[999,831],[999,914],[999,1000],[999,1082],[999,1165],[999,1249],[999,1332],[43.1,1415],[27.3,1499],[15.9,1581],[11.8,1665],[1.4,1749],[29.9,5832],[60.3,5914],[83.1,5999],[96.9,6082],[100,6167],[100,6249],[100,6332],[100,6415],[100,6500],[100,6581],[100,6665],[100,6749],[100,6832],[100,6914],[100,7000],[100,7081],[100,7164],[100,7249],[100,7332],[100,7414],[88.9,7499],[88.8,7581],[88.8,7665],[88.8,7749],[88.8,7832],[88.8,7914],[88.8,7997],[88.8,8081],[88.8,8164],[88.8,8249],[88.8,8332],[88.8,8415],[88.8,8499],[88.8,8581],[88.8,8665],[88.8,8747],[88.8,8831],[88.8,8914],[88.8,8999],[88.8,9081],[88.8,9165],[88.8,9249],[88.8,9331],[88.8,9415],[88.8,9499],[88.8,9581],[88.8,9664],[88.8,9749],[87.2,9832],[86.6,9915],[86.2,9999],[81.9,10081],[72.5,10165],[71.2,10249],[71.2,10331],[71.2,10414],[71.2,10499],[71.1,10582],[70.6,10664],[69.3,10749],[68.1,10832],[68.1,10914],[68.1,10999],[68.1,11082],[68.1,11164],[68.1,11249],[66.4,11331],[62.8,11415],[60.5,11499],[57.6,11581],[57.6,11664],[57.6,11749],[57.6,11831],[57.6,11914],[57.6,11999],[54.9,12082],[54.7,12165],[54,12250],[50.7,12331],[48.7,12415],[47.1,12499],[46.9,12581],[46.9,12665],[46.9,12749],[46.9,12831],[46.9,12914],[46.9,12999],[47.4,13082],[48.6,13165],[49.7,13249],[50.8,13331],[53.4,13415],[57.7,13499],[60.8,13581],[62.8,13667],[64.3,13749],[67.6,13831],[73.2,13915],[76.8,13999],[78.4,14082],[79.9,14165],[82.3,14249],[85.7,14332],[86.1,14415],[86.2,14499],[88,14581],[88.5,14665],[88.5,14749],[88.5,14831],[87.9,14917],[84.9,14997],[84.6,15081],[84.6,15165],[81.5,15249],[79.4,15332],[78.5,15415],[78,15499],[78,15582],[78,15665],[78,15749],[78,15832],[78,15914],[78,15999],[78,16082],[78,16165],[78,16249],[78,16331],[78,16415],[78,16499],[78,16582],[78,16665],[78,16749],[78,16831],[78,16914],[78,16999],[78,17081],[78,17165],[78,17249],[78,17332],[78,17415],[78,17499],[78.1,17582],[84.5,17665],[85.5,17749],[87.4,17831],[90.8,17915],[91.1,17999],[89.6,18082],[89.6,18165],[89.6,18247],[89.6,18332],[100,18415],[100,18499],[100,18581],[100,18665],[100,18749],[100,18831],[100,18915],[100,18999],[100,19082],[100,19165],[100,19249],[100,19332],[100,19415],[100,19499],[100,19581],[100,19665],[100,19749],[100,19831],[100,19914],[100,19999],[100,20081],[100,20165],[100,20249],[100,20332],[100,20415],[100,20499],[100,20582],[100,20665],[100,20749],[100,20831],[100,20914],[100,20999],[100,21081],[100,21165],[100,21249],[100,21332],[100,21415],[100,21499],[100,21581],[100,21665],[100,21749],[100,21831],[100,21915],[100,22000],[100,22081],[100,22164],[100,22249],[100,22332],[100,22414],[100,22499],[100,22583],[100,22665],[100,22749],[99.9,22831],[99.9,22915],[99.9,22999],[99.9,23081],[99.9,23164],[99.9,23249],[99.9,23332],[99.9,23415],[99.9,23500],[99.9,23581],[99.7,23665],[99.2,23749],[99.2,23831],[99.2,23914],[99.2,23999],[99.2,24081],[99.2,24165],[99.2,24247],[99.2,24331],[99.2,24415],[99.2,24497],[99.2,24582],[99.2,24665],[99.2,24749],[99.2,24831],[99.2,24914],[99.2,24999],[99.2,25081],[99.2,25164],[99.2,25249],[99.2,25331],[99.2,25415],[99.2,25500],[99.2,25582],[99.2,25665],[99.2,25749],[99.2,25832],[99.2,25914],[99.2,25999],[99.2,26081],[99.2,26165],[99.2,26249],[99.2,26332],[99.2,26415],[99.2,26497],[99.2,26582],[99.2,26665],[99.2,26749],[99.2,26831],[99.2,26914],[99.2,26999],[99.2,27081],[99.2,27164],[99.2,27249],[99.2,27331],[99.2,27414],[99.2,27499],[99.2,27582],[99.2,27665],[99.2,27749],[99.2,27832],[99.2,27915],[99.2,27999],[99.2,28081],[99.2,28164],[99.2,28249],[99.2,28332],[99.2,28414],[99.2,28499]]",1,0,645.407,647.605,99.21875,1.307,"[{""rating"":99.21875,""responseTime"":1.3070000000000164}]",space,1.653,,647.606,Not at all,0,647.611,,,[],,0,2,2,2,1,audio/Narrative7Situation2.wav,audio/Narrative8Situation2.wav,audio/Narrative5Situation2.wav,audio/Narrative6Situation2.wav,3,3,3,3,,,,,,,,,,,,,,,,,,,,,,,,,,,,,,,,,,,,,,,
,,,,,,5b4f6da7bdd8af000144c7df,2024-05-13_09h34.21.742,group3.1-3.2-social-tom,2023.2.2,Win32,60.0240096,65c5074098b851296ff0b7ed,664232e9d4ba4118e594df6e,,,,,,,,,,,,,,,,,,,,,,,,,,,,,647.611,2,audio/Narrative6Situation3.wav,652.623,,652.623,665.223,"[[97,4833],[93.9,4917],[71.6,5000],[31.9,5083],[22.7,5166],[26.7,6917],[51.8,7000],[64.5,7083],[80.6,7167],[96.5,7250],[100,7331],[100,7417],[100,7500],[100,7581],[100,7666],[100,7750],[100,7833],[100,7916],[100,8000],[100,8083],[100,8166],[100,8250],[100,8333],[100,8416],[100,8500],[100,8581],[100,8667],[100,8750],[100,8833],[100,8916],[100,9000],[100,9081],[100,9166],[100,9249],[100,9331],[100,9416],[100,9500],[100,9583],[100,9666],[100,9750],[100,9831],[100,9915],[100,10000],[100,10081],[100,10167],[100,10249],[100,10331],[100,10416],[100,10500],[100,10583],[100,10666],[100,10749],[100,10833],[100,10915],[100,10999],[100,11081],[100,11165],[100,11249],[100,11333],[100,11416],[100,11500],[100,11583],[100,11666],[100,11750],[100,11831],[100,11916],[100,12000],[100,12081],[100,12165],[100,12250],[100,12333],[100,12416],[100,12500],[100,12581]]",1,0,665.224,667.673,99.21875,1.406,"[{""rating"":99.21875,""responseTime"":1.4060000000000628}]",space,1.901,,667.673,Not at all,0,667.677,,,[],,0,3,3,3,1,audio/Narrative7Situation3.wav,audio/Narrative8Situation3.wav,audio/Narrative5Situation3.wav,audio/Narrative6Situation3.wav,8,4,3,5,,,,,,,,,,,,,,,,,,,,,,,,,,,,,,,,,,,,,,,
,,,,,,5b4f6da7bdd8af000144c7df,2024-05-13_09h34.21.742,group3.1-3.2-social-tom,2023.2.2,Win32,60.0240096,65c5074098b851296ff0b7ed,664232e9d4ba4118e594df6e,,,,,,,,,,,,,,,,,,,,,,,,,,,,,667.677,2,audio/Narrative6Situation4.wav,669.689,,669.689,682.306,"[[999,1],[999,83],[999,167],[999,250],[999,333],[999,417],[999,500],[999,582],[999,666],[999,750],[999,832],[999,917],[999,1000],[59.1,1082],[40.4,1167],[25.3,1250],[9.2,1333],[2.7,1417],[2.7,1500],[2.7,1582],[2.7,1667],[2.7,1750],[2.7,1832],[1,5500],[1.7,5583],[1.7,5667],[0.8,5750],[0.3,5833],[0.3,5916],[0.3,6000],[0.3,6083],[0.3,6167],[0.3,6250],[0.3,6333],[0.3,6417],[0.3,6500],[0.3,6582],[0.3,6667],[0.3,6750],[0.3,6832],[0.3,6916],[0.3,7000],[0.3,7082],[0.3,7167],[0.3,7250],[0.3,7333],[0.3,7417],[0.3,7500],[0.3,7583],[0.3,7667],[0.3,7750],[0.3,7832],[0.3,7916],[0.3,8000],[0.3,8082],[0.3,8166],[0.3,8249],[0.3,8333],[0.3,8416],[0.3,8500],[0.3,8582],[0.3,8667],[0.3,8750],[0.3,8832],[0.3,8916],[0.3,9000],[0.3,9082],[0.3,9166],[0.3,9249],[0.3,9333],[0.3,9416],[0.3,9499],[0.3,9582],[0.3,9667],[0.3,9750],[0.3,9832],[0.3,9917],[0.3,10000],[0.3,10082],[0.3,10166],[0.3,10250],[0.3,10333],[0.3,10416],[0.3,10500],[0.3,10583],[0.3,10667],[0.3,10750],[0.3,10832],[0.3,10917],[0.3,11000],[0.3,11082],[0.3,11166],[0.3,11250],[0.3,11332],[0.3,11416],[0.3,11500],[0.3,11583],[0.3,11666],[0.3,11750],[0.3,11833],[0.3,11916],[0.3,12000],[0.3,12082],[0.3,12167],[0.3,12250],[0.8,12332],[0.8,12417],[0.8,12500],[0.8,12583]]",1,0,682.307,684.256,15.36458333,1.659,"[{""rating"":15.364583333333332,""responseTime"":1.6589999999999918}]",space,1.404,,684.256,Not at all,0,684.261,,,[],,0,4,4,4,1,audio/Narrative7Situation4.wav,audio/Narrative8Situation4.wav,audio/Narrative5Situation4.wav,audio/Narrative6Situation4.wav,3,3,1,2,,,,,,,,,,,,,,,,,,,,,,,,,,,,,,,,,,,,,,,
,,,,,,5b4f6da7bdd8af000144c7df,2024-05-13_09h34.21.742,group3.1-3.2-social-tom,2023.2.2,Win32,60.0240096,65c5074098b851296ff0b7ed,664232e9d4ba4118e594df6e,,,,,,,,,,,,,,,,,,,,,,,,,,,,,684.261,2,audio/Narrative6Situation5.wav,686.273,,686.273,694.223,"[[15.4,833],[15.4,916],[5.2,1000],[8.3,3416],[18.2,3500],[22.8,3583],[43.5,3666],[100,3833],[100,3917],[100,3999],[100,4083],[100,4166],[100,4250],[94.3,4333],[89.6,4416],[85.2,4499],[83.7,4582],[82.7,4667],[81.3,4750],[81.1,4832],[81.1,4915],[81.1,5000],[81.1,5083],[81.1,5166],[81.1,5250],[81.1,5333],[81.1,5417],[79.4,5500],[77.9,5584],[72,5666],[69.8,5749],[69.8,5832],[69.8,5916],[69.8,6000],[70.1,6083],[70.6,6166],[70.6,6250],[70.6,6333],[70.6,6416],[70.6,6500],[70.6,6583],[70.6,6666],[70.6,6749],[70.6,6832],[70.6,6916],[70.6,7000],[70.6,7083],[70.6,7166],[70.6,7250],[70.6,7333],[70.6,7416],[70.6,7500],[70.7,7583],[71.1,7666],[71.6,7749],[72.4,7832],[72.7,7916]]",1,0,694.223,696.273,77.86458333,1.541,"[{""rating"":77.86458333333333,""responseTime"":1.5410000000000537}]",space,1.518,,696.273,Not at all,0,696.277,,,[],,0,5,5,5,1,audio/Narrative7Situation5.wav,audio/Narrative8Situation5.wav,audio/Narrative5Situation5.wav,audio/Narrative6Situation5.wav,5,2,5,2,,,,,,,,,,,,,,,,,,,,,,,,,,,,,,,,,,,,,,,
,,,,,,5b4f6da7bdd8af000144c7df,2024-05-13_09h34.21.742,group3.1-3.2-social-tom,2023.2.2,Win32,60.0240096,65c5074098b851296ff0b7ed,664232e9d4ba4118e594df6e,,,,,,,,,,,,,,,,,,,,,,,,,,,,,696.277,2,audio/Narrative6Situation6.wav,698.289,,698.289,709.374,"[[75.7,833],[68,915],[61.1,1000],[47.5,1082],[37.6,1165],[37.6,1250],[37.6,1332],[37.6,1415],[37.6,1500],[33.7,1583],[30.1,1667],[29.9,1750],[29.9,1832],[29.9,1915],[29.9,2000],[28,2082],[25.7,2167],[25.3,2249],[25.3,2332],[25.3,2417],[24.3,2500],[24.2,2583],[24.2,2665],[24.2,2750],[24.2,2833],[24.2,2917],[24.2,3000],[24.2,3083],[24.2,3165],[31.3,3249],[39.5,3333],[41.4,3417],[46.1,3500],[49.1,3582],[50.8,3667],[53.6,3750],[64.5,4750],[63.3,4832],[62.2,4917],[62,5000],[62,5082],[62,5165],[62,5250],[62,5333],[62,5417],[62,5500],[62,5583],[62,5667],[62,5750],[62,5832],[62,5917],[62,6000],[62,6082],[62,6165],[62,6250],[62,6332],[62,6417],[62,6500],[62,6583],[62,6667],[62,6750],[62,6833],[62,6917],[62,7000],[62,7082],[62,7165],[62,7250],[62,7334],[62,7417],[62,7500],[62,7583],[62,7667],[62,7750],[62,7833],[62,7917],[62,8000],[62,8082],[62,8167],[62,8250],[62,8333],[62,8415],[62,8500],[62,8582],[62,8667],[62,8750],[62,8833],[62,8917],[62,9000],[62,9083],[62,9167],[62,9250],[62,9333],[62,9417],[62,9500],[62,9583],[62,9667],[62,9750],[62,9832],[62,9917],[62,10000],[62,10084],[62,10165],[62,10249],[62,10332],[62,10415],[62,10500],[62,10582],[62,10667],[62,10750],[62,10832],[61.7,10918],[61.3,11000],[61.3,11082]]",1,0,709.374,711.206,27.21354167,1.57,"[{""rating"":27.213541666666664,""responseTime"":1.57000000000005}]",space,1.293,,711.206,Not at all,0,711.211,,,[],,0,6,6,6,1,audio/Narrative7Situation6.wav,audio/Narrative8Situation6.wav,audio/Narrative5Situation6.wav,audio/Narrative6Situation6.wav,3,2,3,2,,,,,,,,,,,,,,,,,,,,,,,,,,,,,,,,,,,,,,,
,,,,,,5b4f6da7bdd8af000144c7df,2024-05-13_09h34.21.742,group3.1-3.2-social-tom,2023.2.2,Win32,60.0240096,65c5074098b851296ff0b7ed,664232e9d4ba4118e594df6e,,,,,,,,,,,,,,,,,,,,,,,,,,,,,711.211,2,audio/Narrative6Situation7.wav,716.223,,716.223,741.09,"[[41.4,832],[39.8,916],[39.8,999],[39.8,1082],[39.8,1166],[39.8,1250],[39.8,1332],[39.2,1416],[39.5,1500],[38.8,1582],[38.8,1666],[38.8,1749],[38.8,1831],[38.8,1917],[38.8,2000],[38.8,2082],[38.8,2166],[38.8,2250],[38.8,2331],[38.8,2416],[38.2,2500],[30.2,2581],[16.9,2666],[8.1,2750],[2.9,8916],[52.2,8999],[100,9416],[99.7,9500],[99.3,9581],[99.3,9664],[99.3,9749],[99.3,9831],[99.3,9917],[99.3,9999],[99.3,10082],[99.3,10166],[99.3,10250],[99.3,10332],[99.3,10416],[99.3,10500],[99.3,10581],[99.3,10666],[99.3,10749],[99.3,10832],[99.3,10916],[99.3,10999],[99.3,11082],[99.3,11166],[99.3,11250],[99.3,11332],[99.3,11417],[99.3,11499],[99.6,11581],[99.6,11666],[99.6,11750],[99.6,11831],[99.6,11916],[99.6,12000],[99.6,12082],[99.6,12166],[99.6,12250],[99.6,12332],[99.6,12416],[99.6,12499],[99.6,12581],[99.6,12666],[99.6,12749],[99.6,12831],[99.6,12917],[99.6,12999],[99.6,13082],[99.6,13166],[99.6,13249],[99.6,13332],[99.6,13416],[99.6,13500],[99.6,13582],[99.6,13666],[99.6,13749],[99.6,13831],[99.6,13916],[99.6,13999],[99.6,14081],[99.6,14166],[99.6,14250],[99.6,14332],[99.6,14416],[99.6,14500],[99.6,14582],[99.6,14666],[99.6,14749],[99.6,14831],[99.6,14917],[99.6,14999],[99.6,15081],[99.6,15166],[99.6,15250],[99.6,15332],[99.6,15416],[99.6,15499],[99.6,15582],[99.6,15666],[99.6,15749],[99.6,15831],[99.6,15916],[99.6,16000],[99.6,16081],[99.6,16167],[99.6,16249],[99.6,16332],[99.6,16416],[99.6,16500],[99.6,16581],[99.6,16666],[99.6,16749],[99.6,16832],[99.1,16916],[99,16999],[99,17081],[99,17166],[99,17249],[99,17332],[99,17416],[99,17500],[99,17581],[99,17666],[99,17750],[99,17831],[99,17916],[99,17999],[99,18081],[99,18166],[99,18250],[99,18332],[99,18416],[99,18500],[99,18582],[99,18666],[99,18750],[99,18831],[99,18916],[99,18999],[99,19081],[99,19166],[99,19250],[99,19332],[99,19416],[99,19500],[99,19582],[99,19666],[99,19749],[99,19832],[99,19917],[99,19999],[99,20082],[99,20166],[99,20250],[99,20332],[99,20416],[99,20499],[99,20582],[99,20666],[99,20750],[99,20832],[99,20917],[99,20999],[99,21081],[99,21166],[99,21250],[99,21332],[99,21416],[99,21500],[99,21582],[99,21666],[99,21750],[99,21832],[99,21916],[99,21999],[99,22082],[99,22166],[99,22250],[99,22332],[99,22416],[99,22499],[99,22582],[99,22666],[99,22750],[99,22832],[99,22916],[99,22999],[99,23081],[99,23167],[99,23250],[99,23332],[99,23416],[99,23499],[99,23581],[99,23666],[99,23749],[99,23831],[99,23916],[99,23999],[99,24082],[99,24166],[99,24250],[99,24332],[99,24416],[99,24499],[99,24582],[99,24666],[99,24750],[99,24832]]",1,0,741.091,744.939,100,3.12,"[{""rating"":95.96354166666667,""responseTime"":2.3910000000000764},{""rating"":100,""responseTime"":3.1200000000000045}]",space,3.302,,744.939,Not at all,0,744.945,,,[],,0,7,7,7,1,audio/Narrative7Situation7.wav,audio/Narrative8Situation7.wav,audio/Narrative5Situation7.wav,audio/Narrative6Situation7.wav,5,3,4,5,,,,,,,,,,,,,,,,,,,,,,,,,,,,,,,,,,,,,,,
,,,,,,5b4f6da7bdd8af000144c7df,2024-05-13_09h34.21.742,group3.1-3.2-social-tom,2023.2.2,Win32,60.0240096,65c5074098b851296ff0b7ed,664232e9d4ba4118e594df6e,,,,,,,,,,,,,,,,,,,,,,,,,,,,,744.945,2,audio/Narrative6Situation8.wav,749.956,,749.956,756.823,"[[100,500],[91.5,582],[84,665],[61.8,1332],[56,1416],[54.6,1500],[54.4,1582],[53.8,1666],[52.6,1750],[52.5,1831],[52.5,1915],[52.3,2000],[44.7,2082],[24.5,2166],[14.2,2250],[6.6,2332],[0.5,2416]]",1,0,756.823,759.356,0.260416667,1.327,"[{""rating"":0.2604166666666685,""responseTime"":1.3269999999999982}]",space,1.984,,759.356,Partially,50,759.362,,,[],,0,8,8,8,1,audio/Narrative7Situation8.wav,audio/Narrative8Situation8.wav,audio/Narrative5Situation8.wav,audio/Narrative6Situation8.wav,2,3,3,5,,,,,,,,,,,,,,,,,,,,,,,,,,,,,,,,,,,,,,,
,,,,,,5b4f6da7bdd8af000144c7df,2024-05-13_09h34.21.742,group3.1-3.2-social-tom,2023.2.2,Win32,60.0240096,65c5074098b851296ff0b7ed,664232e9d4ba4118e594df6e,,,,,,,,,,,,,,,,,,,,,,,,,,,,,759.362,2,audio/Narrative6Situation9.wav,763.372,,763.372,773.323,[],1,0,773.324,775.623,0.130208333,1.305,"[{""rating"":0.13020833333333148,""responseTime"":1.3050000000000637}]",space,1.755,,775.623,Partially,50,775.628,,,[],,0,9,9,9,1,audio/Narrative7Situation9.wav,audio/Narrative8Situation9.wav,audio/Narrative5Situation9.wav,audio/Narrative6Situation9.wav,2,3,3,4,,,,,,,,,,,,,,,,,,,,,,,,,,,,,,,,,,,,,,,
,,,,,,5b4f6da7bdd8af000144c7df,2024-05-13_09h34.21.742,group3.1-3.2-social-tom,2023.2.2,Win32,60.0240096,65c5074098b851296ff0b7ed,664232e9d4ba4118e594df6e,,,,,,,,,,,,,,,,,,,,,,,,,,,,,775.629,2,audio/Narrative5Situation1.wav,780.639,,780.639,793.923,"[[0.3,1418],[1.3,1500],[1.3,1582],[0.5,1666],[0.4,1750],[0.4,1833],[0.4,1915],[0.4,2000],[0.4,2082],[0.4,2166],[0.4,2248],[0.4,2332],[0.4,2416],[0.4,2500],[0.4,2582],[0.4,2665],[0.4,2750],[0.4,2832],[0.4,2915],[0.4,3000],[0.4,3082],[0.4,3165],[0.4,3250],[0.4,3333],[0.4,3416],[0.4,3500],[0.4,3583],[0.4,3665],[0.4,3750],[0.4,3833],[0.4,3916],[0.4,4000],[0.4,4083],[0.4,4166],[0.4,4250],[0.4,4332],[0.4,4415],[0.4,4500],[0.4,4583],[0.4,4665],[0.4,4750],[0.4,4833],[0.4,4916],[0.4,5000],[0.4,5082],[0.4,5165],[0.4,5250],[0.4,5332],[0.4,5416],[0.4,5500],[0.5,5583],[0.8,5665],[0.5,5750],[0.5,5833],[0.5,5916],[0.4,6000],[0.4,6082],[0.4,6165],[0.3,6250],[0.3,6332],[0.3,6415],[0.3,6500],[0.3,6583],[0.3,6665],[0.3,6750],[0.3,6832],[0.3,6916],[0.3,7000],[0.3,7083],[0.3,7166],[0.3,7250],[0.3,7333],[0.3,7415],[0.3,7500],[0.3,7582],[0.3,7665],[0.3,7750],[0.3,7833],[0.3,7916],[0.3,8000],[0.3,8083],[0.3,8166],[0.3,8250],[0.3,8333],[0.3,8415],[0.3,8500],[0.3,8582],[0.3,8665],[0.3,8750],[0.3,8833],[0.5,8915],[0.5,9000],[0.5,9083],[0.5,9165],[0.5,9250],[0.5,9332],[0.5,9416],[0.5,9500],[0.5,9582],[0.5,9666],[0.5,9750],[0.5,9833],[0.5,9915],[0.5,10000],[0.5,10083],[0.5,10165],[0.5,10250],[0.5,10332],[0.5,10415],[0.5,10500],[0.5,10583],[0.5,10666],[0.5,10750],[0.5,10832],[0.5,10916],[0.5,11000],[0.5,11082],[0.5,11165],[0.5,11250],[0.5,11332],[0.5,11415],[0.5,11500],[0.5,11583],[0.5,11665],[0.5,11750],[0.5,11833],[0.5,11916],[0.5,12000],[0.5,12082],[2.7,12165],[6.3,12250],[9.5,12333],[15.1,12416],[16.7,12500],[16.8,12583],[16.9,12665],[16.9,12750],[16.9,12833],[16.9,12916],[16.9,13000],[16.9,13083],[16.8,13166],[16.4,13250]]",1,0,793.924,797.039,28.77604167,1.507,"[{""rating"":28.776041666666664,""responseTime"":1.5069999999999482}]",space,2.57,,797.04,Definitely yes,100,797.046,,,[],,0,10,10,10,1,audio/Narrative8Situation1.wav,audio/Narrative7Situation1.wav,audio/Narrative6Situation1.wav,audio/Narrative5Situation1.wav,5,2,2,5,,,,,,,,,,,,,,,,,,,,,,,,,,,,,,,,,,,,,,,
,,,,,,5b4f6da7bdd8af000144c7df,2024-05-13_09h34.21.742,group3.1-3.2-social-tom,2023.2.2,Win32,60.0240096,65c5074098b851296ff0b7ed,664232e9d4ba4118e594df6e,,,,,,,,,,,,,,,,,,,,,,,,,,,,,797.047,2,audio/Narrative5Situation2.wav,800.056,,800.056,829.523,"[[21.2,1583],[13.5,2166],[13.5,2250],[11.5,2917],[9,3000],[4,3083],[2.3,3167],[0.3,10250],[1.4,10333],[1.4,10416],[1.4,10500],[1.4,10583],[1.4,10667],[1.4,10750],[1.4,10833],[1.4,10916],[1.4,11000],[4.2,11084],[25.3,11168],[39.5,11250],[39.7,11334],[41,11417],[45.6,11500],[50.8,11584],[53.4,11666],[55.6,11749],[58.3,11833],[62.8,11916],[62.8,12000],[62.8,12083],[62.8,12167],[62.8,12250],[62.4,12333],[63.8,12417],[64.8,12500],[66.5,12583],[68.6,12667],[71.9,12749],[77.6,12833],[80.5,12918],[81.1,13000],[81.1,13083],[81.1,13167],[81.1,13250],[81.1,13333],[81.1,13416],[81.1,13499],[81.1,13583],[81.1,13667],[81.1,13749],[81.1,13833],[80.1,13917],[79.9,14000],[79.9,14083],[79.9,14167],[79.9,14250],[79.9,14333],[79.9,14417],[79.9,14500],[79.9,14583],[79.9,14666],[79.9,14749],[79.7,14834],[79.7,14916],[79.7,15000],[79.7,15081],[79.7,15167],[78.9,15250],[76,15333],[75.5,15417],[75.5,15500],[75.5,15583],[75.5,15666],[75.5,15749],[75.5,15834],[75.5,15916],[75.5,16000],[75.5,16084],[75.5,16167],[75.5,16250],[75.5,16333],[75.5,16417],[75.5,16500],[75.5,16581],[75.5,16666],[75.5,16749],[75.5,16831],[75.5,16916],[75.5,16999],[75.5,17083],[75.5,17166],[75.5,17249],[75.5,17333],[75.5,17416],[75.5,17500],[75.5,17583],[75.5,17666],[75.5,17750],[75.5,17831],[75.5,17916],[75.5,18000],[75.5,18083],[75.5,18166],[72,18250],[57,18333],[45.2,18417],[32.7,18499],[23,18583],[20.7,18667],[20.7,18749],[20.7,18833],[18,18916],[15.6,19000],[15.4,19083],[14.2,19166],[12.9,19250],[12.8,19331],[12.8,19417],[12.8,19499],[12.8,19583],[12.8,19666],[12.8,19749],[12.8,19833],[12.8,19917],[12.8,20000],[12.8,20083],[12.8,20167],[12.8,20250],[12.8,20334],[12.8,20416],[12.8,20499],[12.8,20583],[12.8,20666],[12.8,20749],[12.8,20833],[12.8,20917],[12.8,21000],[12.8,21083],[12.8,21167],[12.8,21250],[12.8,21331],[12.8,21416],[12.8,21500],[12.8,21583],[12.8,21666],[12.8,21750],[12.8,21833],[12.8,21916],[12.8,21999],[12.8,22083],[12.8,22167],[12.8,22249],[12.8,22331],[12.8,22417],[12.8,22500],[12.8,22583],[12.8,22667],[12.8,22750],[12.8,22833],[12.8,22916],[12.8,22999],[12.8,23083],[12.8,23167],[12.8,23250],[12.8,23333],[12.8,23416],[12.8,23500],[15.4,23583],[31.9,23666],[51.6,23750],[58.6,23833],[64.1,23917],[71.6,23999],[72.1,24083],[72.1,24167],[72.7,24249],[74,24334],[75.1,24418],[75.8,24500],[76,24583],[76.7,24666],[77.2,24750],[77.6,24833],[77.9,24916],[77.9,25000],[78,25083],[78.4,25166],[78.4,25250],[78.4,25334],[78.4,25416],[78.8,25499],[78.8,25583],[78.8,25667],[78.8,25749],[78.8,25833],[78.8,25917],[78.8,25999],[78.8,26083],[78.8,26167],[78.8,26250],[78.8,26333],[78.8,26417],[78.8,26500],[78.8,26583],[78.8,26667],[78.8,26750],[78.8,26833],[78.8,26916],[78.8,26999],[78.8,27083],[78.8,27167],[78.8,27250],[78.8,27334],[78.8,27416],[78.8,27500],[78.8,27583],[78.3,27667],[77.2,27751],[75.8,27834],[74.7,27916],[73.8,28000],[68.4,28083],[62.8,28167],[57.9,28249],[53.9,28333],[49.1,28416],[43,28500],[33.9,28583],[28.3,28666],[25.4,28750],[24.5,28833],[24.5,28916],[24.5,28999],[24.5,29083],[24.5,29167],[24.5,29249],[24.5,29333],[24.5,29417]]",1,0,829.524,834.939,59.765625,3.223,"[{""rating"":59.765625,""responseTime"":3.2229999999999563}]",space,4.868,,834.94,Not at all,0,834.946,,,[],,0,11,11,11,1,audio/Narrative8Situation2.wav,audio/Narrative7Situation2.wav,audio/Narrative6Situation2.wav,audio/Narrative5Situation2.wav,3,3,3,3,,,,,,,,,,,,,,,,,,,,,,,,,,,,,,,,,,,,,,,
,,,,,,5b4f6da7bdd8af000144c7df,2024-05-13_09h34.21.742,group3.1-3.2-social-tom,2023.2.2,Win32,60.0240096,65c5074098b851296ff0b7ed,664232e9d4ba4118e594df6e,,,,,,,,,,,,,,,,,,,,,,,,,,,,,834.946,2,audio/Narrative5Situation3.wav,837.956,,837.957,851.873,"[[53.9,831],[46.4,915],[43.1,997],[42.4,1081],[42.4,1165],[42.4,1249],[42.3,1332],[32.7,1418],[24.9,1499],[23.2,1582],[16.4,1665],[9.8,1749],[4,1831],[0.4,1914],[2.1,2915],[27.9,2997],[51,3081],[57.9,3165],[65.4,3249],[73,3332],[79,3415],[82.4,3497],[90.1,4333],[88.8,4414],[87.9,4499],[86.6,4582],[84.4,4665],[84,4747],[84,4831],[84,4914],[84,4999],[84,5081],[84,5164],[84.8,5247],[91,5331],[98,5414]]",1,0,851.874,854.289,97.65625,1.122,"[{""rating"":97.65625,""responseTime"":1.1219999999999573}]",space,1.877,,854.289,Not at all,0,854.295,,,[],,0,12,12,12,1,audio/Narrative8Situation3.wav,audio/Narrative7Situation3.wav,audio/Narrative6Situation3.wav,audio/Narrative5Situation3.wav,4,8,5,3,,,,,,,,,,,,,,,,,,,,,,,,,,,,,,,,,,,,,,,
,,,,,,5b4f6da7bdd8af000144c7df,2024-05-13_09h34.21.742,group3.1-3.2-social-tom,2023.2.2,Win32,60.0240096,65c5074098b851296ff0b7ed,664232e9d4ba4118e594df6e,,,,,,,,,,,,,,,,,,,,,,,,,,,,,854.295,2,audio/Narrative5Situation4.wav,855.306,,855.306,875.691,"[[999,0],[999,83],[999,166],[999,249],[999,334],[999,417],[999,500],[999,583],[999,666],[999,750],[999,834],[70.1,916],[70.1,999],[70.1,1083],[66.5,1167],[58.1,1249],[47.1,1333],[41.3,1416],[38.7,1500],[35.2,1581],[1.8,3334],[8.3,3417],[15.4,3499],[15.4,3583],[15.4,3666],[15.4,3750],[15.4,3833],[15.4,3916],[15.4,4000],[15.4,4083],[15.4,4166],[15.4,4250],[15.4,4333],[15.4,4416],[8.1,4500],[3.8,4583],[3.8,4666],[1.3,4749],[1.2,10918],[3.1,11000],[7,11083],[18.9,11166],[28.9,11250],[36.8,11334],[45.6,11416],[51.8,11499],[57.8,11583],[64.3,11667],[68.1,11750],[68.1,11833],[68.2,11917],[69.7,12000],[71.1,12083],[72.1,12167],[72.3,12250],[72.3,12333],[72.3,12417],[72.3,12500],[72.3,12583],[72.3,12666],[72.3,12750],[72.3,12833],[72.3,12917],[72.3,13000],[72.3,13083],[73.2,13166],[73.2,13249],[73.2,13333],[73.2,13417],[73.2,13500],[73.2,13581],[73.2,13666],[73.2,13750],[73.2,13833],[73.2,13916],[73.2,14000],[73.2,14083],[73.2,14166],[73.2,14249],[73.2,14333],[73.2,14416],[73.2,14500],[73.2,14581],[73.2,14667],[73.2,14750],[73.2,14834],[73.2,14917],[73.2,15000],[73.2,15083],[73.2,15166],[73.2,15250],[73.2,15333],[73.2,15416],[73.2,15499],[73.2,15581],[73.2,15667],[73.2,15750],[73.2,15833],[73.2,15917],[73.2,16000],[73.2,16083],[73.2,16166],[73.2,16250],[73.2,16333],[73.2,16416],[73.2,16499],[73.2,16581],[73.2,16667],[73.2,16750],[73.2,16834],[73.2,16916],[73.2,17000],[73.2,17083],[73.2,17166],[73.2,17250],[73.2,17333],[73.2,17417],[73.2,17499],[73.2,17583],[73.2,17666],[73.2,17750],[73.2,17833],[73.2,17916],[73.2,18000],[73.2,18083],[73.2,18166],[73.2,18250],[73.2,18333],[74.7,18416],[81.4,18499],[83.1,18583],[87,18667],[93.5,18750],[99.2,18833],[100,18917],[100,19000],[100,19083],[100,19166],[100,19250],[100,19333],[100,19416],[100,19500],[100,19581],[100,19666],[100,19750],[100,19834],[100,19917],[100,20000],[100,20084],[100,20167],[100,20250],[100,20333]]",1,0,875.691,879.673,99.47916667,3.437,"[{""rating"":99.47916666666667,""responseTime"":3.437000000000012}]",space,3.439,,879.674,Not at all,0,879.678,,,[],,0,13,13,13,1,audio/Narrative8Situation4.wav,audio/Narrative7Situation4.wav,audio/Narrative6Situation4.wav,audio/Narrative5Situation4.wav,3,3,2,1,,,,,,,,,,,,,,,,,,,,,,,,,,,,,,,,,,,,,,,
,,,,,,5b4f6da7bdd8af000144c7df,2024-05-13_09h34.21.742,group3.1-3.2-social-tom,2023.2.2,Win32,60.0240096,65c5074098b851296ff0b7ed,664232e9d4ba4118e594df6e,,,,,,,,,,,,,,,,,,,,,,,,,,,,,879.679,2,audio/Narrative5Situation5.wav,884.689,,884.689,900.122,"[[96.7,166],[55.3,250],[35.5,332],[35.7,416],[36.1,500],[36.2,582],[36.3,667],[36.3,750],[36.3,832],[36.7,916],[36.7,1000],[36.7,1082],[36.7,1166],[36.2,1250],[27.5,1333],[21.6,1416],[21.4,1500],[21.4,1583],[21,1667],[17.4,1750],[16.1,1832],[12.4,1916],[3.1,1999],[0.8,2082],[1.6,9167],[5.7,9250],[12.1,9332],[15.4,9417],[15.8,9500],[15.8,9582],[15.8,9667],[15.8,9750],[15.8,9833],[15.8,9917],[16.4,10000],[18.5,10082],[47.1,10417],[51.8,10500],[51.8,10583],[51.8,10667],[51.8,10750],[51.8,10833],[51.8,10917],[51.8,11000],[51.8,11082],[51.8,11167],[51.8,11250],[51.8,11332],[51.8,11417],[51.8,11500],[51.8,11582],[51.8,11666],[51.8,11750],[51.8,11832],[51.8,11916],[51.8,12000],[51.8,12082],[51.8,12167],[51.8,12249],[51.8,12332],[51.8,12417],[51.8,12500],[51.8,12583],[51.8,12666],[51.8,12750],[51.8,12833],[51.8,12916],[51.8,13000],[51.8,13083],[51.8,13167],[51.8,13250],[51.8,13333],[51.8,13417],[51.8,13500],[51.8,13583],[51.8,13666],[51.8,13750],[51.8,13832],[51.8,13917],[51.8,14000],[51.8,14082],[51.8,14166],[51.8,14249],[51.8,14333],[51.8,14416],[51.8,14500],[51.8,14583],[51.8,14667],[51.8,14750],[51.8,14832],[51.8,14916],[51.8,15000],[51.8,15082],[51.8,15166],[51.8,15250],[51.8,15333],[51.8,15416]]",1,0,900.123,903.139,48.69791667,2.439,"[{""rating"":48.69791666666667,""responseTime"":2.439000000000078}]",space,2.489,,903.14,Not at all,0,903.144,,,[],,0,14,14,14,1,audio/Narrative8Situation5.wav,audio/Narrative7Situation5.wav,audio/Narrative6Situation5.wav,audio/Narrative5Situation5.wav,2,5,2,5,,,,,,,,,,,,,,,,,,,,,,,,,,,,,,,,,,,,,,,
,,,,,,5b4f6da7bdd8af000144c7df,2024-05-13_09h34.21.742,group3.1-3.2-social-tom,2023.2.2,Win32,60.0240096,65c5074098b851296ff0b7ed,664232e9d4ba4118e594df6e,,,,,,,,,,,,,,,,,,,,,,,,,,,,,903.145,2,audio/Narrative5Situation6.wav,906.156,,906.156,911.822,"[[48.3,916],[47.7,1000],[48.7,1416],[48.7,1500],[48.7,1581],[48.7,1667],[48.7,1750],[48.7,1832],[48.7,1917],[48.7,2000],[48.7,2082],[48.7,2166],[48.7,2249],[48.7,2332],[48.7,2417],[48.7,2500],[48.7,2582],[48.7,2666],[48.7,2750],[48.7,2832],[48.7,2917],[48.7,3000],[49.2,3082],[54.8,3166],[61.8,3249],[65.8,3332],[67.3,3416],[68.5,3499],[69.5,3582],[71,3666],[71,3750],[71,3831],[71,3917],[71,4000],[72,4082],[73.4,4167],[74.3,4249],[74.3,4332],[74.3,4417],[74.3,4499],[74.3,4581],[74.9,4666],[75.3,4750],[76.6,4831],[78.5,4917],[80.5,5000],[80.5,5082],[80.5,5166],[80.5,5249],[80.5,5332],[80.5,5416],[80.5,5499],[80.5,5584],[80.5,5666]]",1,0,911.822,916.306,85.67708333,2.372,"[{""rating"":80.59895833333333,""responseTime"":0.8290000000000646},{""rating"":85.67708333333333,""responseTime"":2.3719999999999573}]",space,3.949,,916.306,Definitely yes,100,916.312,,,[],,0,15,15,15,1,audio/Narrative8Situation6.wav,audio/Narrative7Situation6.wav,audio/Narrative6Situation6.wav,audio/Narrative5Situation6.wav,2,3,2,3,,,,,,,,,,,,,,,,,,,,,,,,,,,,,,,,,,,,,,,
,,,,,,5b4f6da7bdd8af000144c7df,2024-05-13_09h34.21.742,group3.1-3.2-social-tom,2023.2.2,Win32,60.0240096,65c5074098b851296ff0b7ed,664232e9d4ba4118e594df6e,,,,,,,,,,,,,,,,,,,,,,,,,,,,,916.312,2,audio/Narrative5Situation7.wav,920.323,,920.323,941.373,"[[78.9,1832],[61.1,1915],[54.4,1999],[52,2082],[39.8,2165],[27.9,2250],[25.1,2331],[25.1,2414],[24,2499],[18,2581],[16.3,2665],[12.1,2750],[5.2,2832],[1.6,2915]]",1,0,941.373,943.472,0.520833333,1.309,"[{""rating"":0.5208333333333315,""responseTime"":1.3090000000000828}]",space,1.551,,943.473,Definitely yes,100,943.479,,,[],,0,16,16,16,1,audio/Narrative8Situation7.wav,audio/Narrative7Situation7.wav,audio/Narrative6Situation7.wav,audio/Narrative5Situation7.wav,3,5,5,4,,,,,,,,,,,,,,,,,,,,,,,,,,,,,,,,,,,,,,,
,,,,,,5b4f6da7bdd8af000144c7df,2024-05-13_09h34.21.742,group3.1-3.2-social-tom,2023.2.2,Win32,60.0240096,65c5074098b851296ff0b7ed,664232e9d4ba4118e594df6e,,,,,,,,,,,,,,,,,,,,,,,,,,,,,943.479,2,audio/Narrative5Situation8.wav,946.489,,946.489,955.306,"[[1.2,1250],[2.3,1333],[2.3,1416],[2.3,1500],[1.4,1584]]",1,0,955.306,959.889,0,3.278,"[{""rating"":0,""responseTime"":3.27800000000002}]",space,4.054,,959.889,Partially,50,959.895,,,[],,0,17,17,17,1,audio/Narrative8Situation8.wav,audio/Narrative7Situation8.wav,audio/Narrative6Situation8.wav,audio/Narrative5Situation8.wav,3,2,5,3,,,,,,,,,,,,,,,,,,,,,,,,,,,,,,,,,,,,,,,
,,,,,,5b4f6da7bdd8af000144c7df,2024-05-13_09h34.21.742,group3.1-3.2-social-tom,2023.2.2,Win32,60.0240096,65c5074098b851296ff0b7ed,664232e9d4ba4118e594df6e,,,,,,,,,,,,,,,,,,,,,,,,,,,,,959.896,2,audio/Narrative5Situation9.wav,962.906,,962.906,1002.455,"[[0.8,4417],[0.8,4500],[0.8,4582],[0.8,4666],[0.8,4749],[0.8,4832],[0.8,4917],[0.8,5000],[2.1,5082],[9.1,5166],[14.8,5250],[19,5334],[24.6,5917],[26,6000],[26.6,6082],[26.7,6166],[26.7,6249],[26.7,6332],[26.7,6416],[26.7,6500],[26.7,6581],[26.7,6667],[26.7,6749],[26.7,6832],[26.7,6917],[26.7,7000],[26.7,7082],[26.7,7166],[26.7,7250],[26.7,7334],[26.7,7416],[26.7,7499],[26.7,7582],[26.7,7667],[26.7,7749],[26.7,7832],[26.7,7916],[27.9,8000],[65.9,8416],[71.7,8500],[74.1,8582],[74.1,8667],[75,8750],[78.8,8832],[79.7,8916],[79.7,9000],[79.7,9082],[79.9,9166],[79.9,9249],[79.9,9332],[79.9,9416],[79.9,9500],[79.9,9581],[79.9,9667],[79.9,9750],[79.9,9832],[79.9,9916],[79.9,10000],[79.9,10082],[79.9,10166],[79.9,10249],[80.5,10332],[83.2,10416],[89.5,10500],[96.4,10582],[97.1,10667],[98.7,10750],[100,10832],[100,10917],[100,11000],[100,11082],[100,11166],[100,11249],[100,11332],[100,11417],[100,11500],[100,11581],[100,11666],[100,11749],[100,11834],[100,11917],[100,12000],[100,12082],[100,12166],[100,12249],[100,12334],[100,12417],[100,12499],[100,12581],[100,12667],[100,12750],[100,12832],[100,12916],[100,13000],[100,13082],[100,13166],[100,13249],[100,13332],[100,13416],[100,13499],[100,13582],[100,13666],[100,13749],[100,13832],[100,13916],[100,13999],[100,14082],[100,14167],[100,14250],[100,14332],[100,14416],[100,14499],[100,14582],[100,14666],[100,14749],[100,14832],[100,14917],[100,14999],[100,15082],[100,15167],[100,15250],[100,15331],[100,15416],[100,15499],[100,15581],[100,15664],[100,15750],[100,15834],[100,15916],[100,15999],[100,16082],[100,16166],[100,16249],[100,16331],[100,16416],[100,16500],[100,16582],[100,16666],[100,16749],[100,16832],[100,16916],[100,16999],[100,17082],[100,17167],[100,17249],[100,17332],[100,17416],[100,17500],[100,17581],[100,17666],[100,17749],[100,17832],[100,17916],[100,18000],[100,18082],[100,18166],[100,18249],[100,18332],[100,18416],[100,18500],[100,18582],[100,18667],[100,18749],[100,18832],[100,18916],[100,19000],[100,19082],[100,19166],[100,19249],[100,19332],[100,19416],[100,19499],[100,19582],[100,19667],[100,19749],[100,19832],[100,19917],[100,20000],[100,20082],[100,20166],[100,20249],[100,20332],[100,20416],[100,20499],[100,20582],[100,20667],[100,20749],[100,20832],[100,20916],[96.6,21000],[82.6,21082],[69.5,21167],[60.7,21249],[53.5,21332],[50.3,21418],[46.4,21499],[44.8,21581],[40.5,21667],[35.2,21749],[34.2,21832],[33.5,21916],[32.2,22000],[32.2,22082],[32.2,22166],[30.3,22250],[26.4,22332],[22.1,22417],[16.9,22499],[16.1,22582],[16.1,22666],[16.1,22750],[16.1,22832],[16.1,22916],[16.1,22999],[16.1,23082],[16.1,23167],[16.1,23250],[15.9,23332],[16.1,23417],[16.5,23499],[16.5,23582],[16.5,23667],[16.5,23750],[17.1,23834],[17.8,23916],[37.9,24250],[39.3,24332],[40.9,24416],[42.3,24499],[43.9,24582],[45.4,24667],[46.7,24750],[47.5,24832],[47.5,24914],[47.5,25000],[47.7,25082],[47.7,25166],[47.7,25250],[47.7,25332],[47.7,25416],[47.7,25500],[47.7,25582],[47.7,25666],[47.7,25750],[47.7,25831],[47.7,25916],[47.7,26000],[47.7,26082],[47.7,26166],[47.7,26250],[47.7,26332],[47.7,26416],[47.7,26499],[47.7,26582],[47.7,26666],[47.7,26750],[47.7,26831],[47.7,26917],[47.7,27000],[47.7,27082],[47.7,27166],[47.7,27250],[47.7,27332],[47.7,27416],[47.7,27500],[47.7,27584],[47.7,27666],[47.7,27750],[47.7,27831],[47.7,27917],[47.7,28000],[47.7,28082],[47.7,28167],[47.7,28250],[47.7,28332],[44.8,28416],[39.8,28500],[39.5,28584],[39.5,28666],[39.5,28749],[39.5,28832],[39.5,28917],[39.8,28999],[44.8,29082],[48.8,29167],[54.7,29250],[59.1,29332],[60.2,29417],[61.6,29500],[62.9,29585],[64.3,29666],[65.2,29749],[65.4,29832],[65.9,29917],[66.8,30000],[66.9,30082],[67.1,30167],[71.1,30250],[76.3,30332],[79.9,30417],[81.1,30499],[85.9,30582],[92.8,30666],[93.6,30749],[94.5,30832],[96.6,30916],[97.9,31000],[98.4,31081],[98.4,31166],[98.4,31250],[98.4,31332],[98.4,31417],[98.4,31499],[98.4,31582],[98.4,31666],[98.4,31749],[98.4,31832],[98.4,31917],[98.4,32000],[98.4,32082],[98.4,32167],[98.4,32250],[98.4,32332],[98.4,32416],[98.4,32499],[98.6,32582],[98.6,32666],[98.6,32749],[98.6,32832],[98.6,32916],[98.6,33000],[98.6,33082],[98.6,33167],[98.6,33249],[98.6,33332],[98.6,33416],[98.6,33499],[98.6,33582],[98.6,33666],[98.6,33749],[98.6,33834],[98.6,33914],[98.6,33999],[98.6,34081],[98.6,34167],[98.6,34249],[98.6,34332],[98.6,34416],[98.6,34499],[98.6,34582],[98.6,34666],[98.6,34750],[98.6,34831],[98.6,34916],[98.6,34999],[98.6,35082],[98.6,35167],[98.6,35249],[98.6,35332],[98.6,35416],[98.6,35500],[98.3,35581],[86.7,35666],[78.5,35750],[76.3,35831],[74,35918],[67.4,35999],[63.3,36081],[62,36167],[60.4,36249],[59.5,36334],[57,36416],[54.6,36500],[52.7,36582],[52.7,36666],[52.3,36750],[50.8,36832],[49.6,36916],[48.7,37000],[48.3,37081],[48.3,37166],[48.3,37250],[48.3,37332],[48.3,37416],[48.3,37499],[48.3,37581],[48.3,37666],[48.3,37750],[48.3,37831],[48.3,37916],[48.3,38000],[48.3,38081],[48.3,38166],[48.3,38249],[48.3,38332],[48.3,38417],[48.3,38499],[48.3,38582],[48.3,38666],[48.3,38749],[48.3,38832],[48.3,38916],[48.3,38999],[48.3,39082],[48.3,39167],[48.3,39250],[48.3,39332],[48.3,39416],[48.3,39500]]",1,0,1002.456,1004.906,56.640625,1.159,"[{""rating"":56.640625,""responseTime"":1.1589999999999918}]",space,1.92,,1004.906,Definitely yes,100,1009.257,99.609375,3.206,"[{""rating"":99.609375,""responseTime"":3.2060000000000173}]",space,0,18,18,18,1,audio/Narrative8Situation9.wav,audio/Narrative7Situation9.wav,audio/Narrative6Situation9.wav,audio/Narrative5Situation9.wav,3,2,4,3,,,3.818,,,,,,,,,,,,,,,,,,,,,,,,,,,,,,,,,,,,
,,,,,,5b4f6da7bdd8af000144c7df,2024-05-13_09h34.21.742,group3.1-3.2-social-tom,2023.2.2,Win32,60.0240096,65c5074098b851296ff0b7ed,664232e9d4ba4118e594df6e,,,,,,,,,,,,,,,,,,,,,,,,,,,,,,,,,,,,,,,,,,,,,,,,,,,,,,,,,,,,,,,,,,,,,,,,1009.257,1069.257,,,,1069.257,1171.239,space,101.65,,,,,,,,,,,,,,,,,,,,,,,,,,
,,,,,,5b4f6da7bdd8af000144c7df,2024-05-13_09h34.21.742,group3.1-3.2-social-tom,2023.2.2,Win32,60.0240096,65c5074098b851296ff0b7ed,664232e9d4ba4118e594df6e,,,,,,,,,,,,,,,,,,,,,,,,,,,,,1173.834,1,audio/Narrative7Situation9.wav,1175.84,,,,,,,1207.712,1214.206,99.47916667,5.219,"[{""rating"":99.47916666666667,""responseTime"":5.219000000000051}]",space,5.951,,1207.706,Not at all,0,1207.712,,,[],,,,,,,,,,,2,2,2,2,,,,,,,,,,,,,,,1171.244,1173.823,1175.84,3,1207.706,"[[999,4],[999,82],[999,165],[999,249],[999,332],[999,414],[999,499],[999,582],[999,664],[66.9,749],[65.6,832],[65.6,915],[65.6,998],[65.6,1082],[65.6,1164],[65.6,1249],[65.6,1332],[65.6,1414],[65.6,1499],[65.6,1582],[61.1,1664],[55.7,1749],[55.5,1832],[55.5,1914],[55.5,1999],[55.5,2083],[55.5,2165],[53.9,2249],[53.6,2332],[53.1,2415],[52.6,2499],[52.6,2582],[52.3,2665],[51.3,2749],[47.7,2833],[46.6,2914],[46.6,2999],[45.3,3082],[42.8,3165],[34.1,3248],[25.9,3332],[18.5,3415],[10.9,3499],[4.2,3583],[0.9,3665],[3,23833],[7.2,23914],[11.1,23998],[13.4,24084],[14.8,24165],[15.8,24249],[15.8,24332],[15.8,24414],[15.9,24499],[15.9,24582],[15.9,24664],[15.9,24749],[15.9,24833],[19,24914],[23.8,24999],[30.1,25083],[38.8,26249],[38,26332],[37.5,26414],[36.1,26499],[31.3,26583],[26.8,26664],[26.6,26748],[26.6,26832],[26.6,26914],[26.6,26999],[26.6,27082],[26.6,27164],[26.6,27249],[26.6,27333],[26.6,27415],[26.6,27499],[26.6,27582],[26.6,27664],[26.6,27748],[26.6,27832],[26.6,27915],[26.6,27998],[25.9,28082],[25.3,28164],[25.3,28249],[25.3,28333],[25.9,28415],[33.7,28499],[43,28582],[52.6,28665],[60.2,28749],[68.2,28832],[75.5,28914],[89.3,28998],[97.1,29082],[97.4,29165],[98.8,29249],[99.7,29333],[99.7,29415],[100,29499],[100,29583],[100,29664],[100,29749],[100,29832],[100,29914],[100,29999],[100,30082],[100,30165],[100,30249],[100,30333],[100,30414],[100,30499],[100,30582],[100,30664],[100,30749],[100,30832],[100,30915],[100,30999],[100,31082],[100,31165],[100,31248],[100,31332],[100,31415],[100,31499],[100,31582],[100,31664],[100,31749],[100,31832]]",0,0,0,0,1,"Larry had recently lost his family, job and home, and was now living on his own in the park. He had most of his belongings, including some clothes, a blanket, and his mother’s special necklace. His family had been very important to him and he felt as though he did not have much going for him. One of his first days in the park he came across a family that did not have much food and looked very cold. He decided to give them some of his food and his blanket.","Larry had recently lost his family, job and home, and was now living on his own in the park. He had most of his belongings, including some clothes, a blanket, and his mother’s special necklace. His family had been very important to him and he felt as though he did not have much going for him. One of his first days in the park he came across a family that did not have much food and looked very cold. He decided to give them some of his food and his blanket.","Larry had recently lost his family, job and home, and was now living on his own in the park. He had most of his belongings, including some clothes, a blanket, and his mother’s special necklace. His family had been very important to him and he felt as though he did not have much going for him. One of his first days in the park he came across a family that did not have much food and looked very cold. He decided to give them some of his food and his blanket.","Larry had recently lost his family, job and home, and was now living on his own in the park. He had most of his belongings, including some clothes, a blanket, and his mother’s special necklace. His family had been very important to him and he felt as though he did not have much going for him. One of his first days in the park he came across a family that did not have much food and looked very cold. He decided to give them some of his food and his blanket.",,,,,,,,,,
,,,,,,5b4f6da7bdd8af000144c7df,2024-05-13_09h34.21.742,group3.1-3.2-social-tom,2023.2.2,Win32,60.0240096,65c5074098b851296ff0b7ed,664232e9d4ba4118e594df6e,,,,,,,,,,,,,,,,,,,,,,,,,,,,,1214.207,1,audio/Narrative7Situation9.wav,1216.322,space,,,,,,1240.178,1246.173,0,1.134,"[{""rating"":0,""responseTime"":1.1340000000000146}]",space,5.457,,1240.173,Definitely yes,100,1240.178,,,[],,,,,,,,,,,6,2,3,9,2.093,,,,,,,,,,,,,,,,1216.323,3,1240.173,"[[98.6,1082],[98.2,1166],[98.2,1249],[98.2,1333],[98.2,1416],[98.2,1500],[98.2,1583],[98.2,1665],[88.4,1750],[0.1,3333],[0.3,3416],[0.3,3499],[0.3,3583],[0.3,3665],[0.3,3750],[0.3,3832],[0.3,3916],[0.3,3999],[0.3,4082],[0.3,4166],[0.3,4249],[0.3,4332],[0.3,4416],[0.3,4499],[0.3,4583],[0.3,4666],[0.3,4750],[0.3,4833],[0.3,4916],[0.3,4999],[0.3,5082],[0.3,5166],[0.3,5249],[0.3,5332],[0.3,5415],[0.3,5499],[0.3,5583],[0.3,5665],[0.3,5749],[0.3,5833],[0.3,5916],[0.3,5999],[0.3,6082],[0.3,6166],[0.3,6249],[0.3,6332],[0.3,6416],[0.3,6499],[0.3,6583],[0.3,6665],[0.3,6749],[0.3,6833],[0.3,6916],[0.3,6999],[0.3,7083],[0.3,7166],[0.3,7249],[0.3,7332],[0.3,7415],[0.3,7499],[0.3,7582],[0.3,7665],[0.3,7749],[0.3,7832],[0.3,7916],[0.3,7999],[0.3,8083],[0.3,8166],[0.3,8249],[0.3,8332],[0.3,8415],[0.3,8499],[0.3,8582],[0.3,8666],[0.3,8749],[0.3,8832],[0.3,8916],[0.3,8999],[0.3,9082],[0.3,9166],[0.3,9249],[0.3,9332],[0.3,9416],[0.3,9498],[0.3,9582],[0.3,9665],[0.3,9750],[0.3,9832],[0.3,9916],[0.3,9999],[0.3,10082],[0.3,10166],[0.3,10249],[0.3,10332],[0.3,10415],[0.3,10499],[0.3,10582],[0.3,10666],[0.3,10749],[0.3,10832],[0.3,10916],[0.3,10999],[0.3,11083],[0.3,11166],[0.3,11249],[0.3,11333],[0.3,11416],[0.3,11499],[0.3,11582],[0.3,11666],[0.3,11749],[0.3,11833],[0.3,11916],[0.3,11999],[0.3,12082],[0.3,12166],[0.3,12250],[0.3,12332],[0.3,12415],[0.3,12499],[0.3,12582],[0.3,12666],[0.3,12749],[0.3,12833],[0.3,12916],[0.3,12999],[0.3,13083],[0.3,13166],[0.3,13249],[0.3,13332],[0.3,13416],[0.3,13499],[0.3,13582],[0.3,13666],[0.3,13749],[0.3,13833],[0.3,13916],[0.3,14000],[0.3,14083],[0.3,14166],[0.3,14249],[0.3,14333],[0.3,14416],[0.3,14499],[0.3,14582],[0.3,14666],[0.3,14750],[0.3,14833],[0.3,14915],[0.3,14999],[0.3,15083],[0.3,15166],[0.3,15249],[0.3,15333],[0.3,15416],[0.3,15499],[0.3,15582],[0.3,15666],[0.3,15749],[0.3,15833],[0.3,15915],[0.3,16000],[0.3,16083],[0.3,16166],[0.3,16249],[0.3,16332],[0.3,16416],[0.3,16499],[0.3,16583],[0.3,16665],[0.3,16749],[0.3,16833],[0.3,16916],[0.3,16999],[0.3,17083],[0.3,17166],[0.3,17250],[0.3,17333],[0.3,17417],[0.3,17499],[0.3,17582],[0.3,17666],[0.3,17749],[0.3,17833],[0.3,17916],[0.3,17999],[0.3,18083],[0.3,18166],[0.3,18250],[0.3,18333],[0.3,18416],[0.3,18499],[0.3,18582],[0.3,18666],[0.3,18749],[0.3,18833],[0.3,18916],[0.3,19000],[0.3,19083],[0.3,19166],[0.3,19249],[0.3,19332],[0.3,19416],[0.3,19499],[0.3,19582],[0.3,19666],[0.3,19749],[0.3,19833],[0.3,19916],[0.3,19999],[0.3,20083],[0.3,20165],[0.3,20249],[0.3,20333],[0.3,20416],[0.3,20499],[0.3,20582],[0.3,20666],[0.3,20750],[0.3,20832],[0.3,20916],[0.3,21000],[0.3,21083],[0.3,21165],[0.3,21249],[0.3,21333],[0.3,21416],[0.3,21499],[0.3,21582],[0.3,21666],[0.3,21749],[0.3,21832],[0.3,21916],[0.3,21999],[0.3,22083],[0.3,22165],[0.3,22249],[0.3,22333],[0.3,22416],[0.3,22499],[0.3,22582],[0.3,22666],[0.3,22749],[0.3,22832],[0.3,22915],[0.3,23000],[0.3,23083],[0.3,23165],[0.3,23249],[0.3,23333],[0.3,23416],[0.3,23499],[0.3,23583],[0.3,23665],[0.3,23749],[0.3,23832]]",0,1,1,1,1,"It was just another Sunday afternoon for Lucy, she was on her way to the farmer's market to pick up some produce. When she arrived at the old train depot that housed the market, she noticed two men fighting on the steps. Before she could call for help, one of the men crumpled to his knees. The other man dropped an object that appeared to be a knife and ran off. When Lucy approached the crime scene she realized that the man who had been murdered was the Mayor and that he had a gunshot wound.","One day at work, Margaret walked up to her partner, Al, to ask him to talk to the chief of staff at the local hospital where she worked as a nurse.","Luke always thought of himself as an honest man. That's why during his evening jog around the swamp, he pondered his recent affair with the receptionist at work. Luke looked up at the sky and asked God why he was so weak and unfaithful. He thought of the impact this would have on his family and told God of his conflicted feelings toward telling his wife Marta.","Linda and Amy had been best friends since kindergarten, they even found homes on the same street in the forest on the edge of town. Their biggest fight had been over who gets the bigger slice of cake, until Amy married Dan. Linda loathed Dan, she thought he was manipulative and had a violent temper. She only put up with him because Amy loved him. ",,,,,,,,,,
