exp_question,consent.started,consent.stopped,consentResponse.keys,consentResponse.rt,consentResponse.duration,participantID,date,expName,psychopyVersion,OS,frameRate,STUDY_ID,SESSION_ID,opening1.started,opening1.stopped,keyEndingOpening1.keys,keyEndingOpening1.rt,keyEndingOpening1.duration,volumeAdjust.started,volumeAdjust.stopped,endingAdjust.keys,endingAdjust.rt,endingAdjust.duration,opening2.started,opening2.stopped,keyEndingOpening.keys,keyEndingOpening.rt,keyEndingOpening.duration,mouse.x,mouse.y,mouse.leftButton,mouse.midButton,mouse.rightButton,mouse.time,instructionLoop.thisRepN,instructionLoop.thisTrialN,instructionLoop.thisN,instructionLoop.thisIndex,instructionLoop.ran,readyForAudio.started,readyForAudio.stopped,fixation.started,run,audio_played,fixation.stopped,endPractice.keys,audioPre.started,audioPre.stopped,continuousResponses_audio,continuousSlider.response,continuousSlider.rt,intRating.started,intRating.stopped,intQuestionSlider.response,intQuestionSlider.rt,intQuestionSlider.history,confirmResponse.keys,confirmResponse.rt,confirmResponse.duration,catchQuestion.started,catch_label,catch_value,catchQuestion.stopped,catchQuestionSlider.response,catchQuestionSlider.rt,catchQuestionSlider.history,confirmResponse_2.keys,confirmResponse_2.rt,confirmResponse_2.duration,audioRunLoop.thisRepN,audioRunLoop.thisTrialN,audioRunLoop.thisN,audioRunLoop.thisIndex,audioRunLoop.ran,conditions1_1,conditions2_1,conditions1_2,conditions2_2,dur1_1,dur2_1,dur1_2,dur2_2,endPractice.rt,endPractice.duration,runIntervalBreak.started,runIntervalBreak.stopped,endingBreakKey.keys,endingBreakKey.rt,endingBreakKey.duration,connection.started,connection.stopped,connectionEnding.keys,connectionEnding.rt,connectionEnding.duration,readyForText.started,readyForText.stopped,textPre.started,run_dup,textPre.stopped,continuousResponses_text,textRunLoop.thisRepN,textRunLoop.thisTrialN,textRunLoop.thisN,textRunLoop.thisIndex,textRunLoop.ran,text1_1,text1_2,text2_1,text2_2,runBreakText.started,runBreakText.stopped,endingBreakKey_2.keys,endingBreakKey_2.rt,endingBreakKey_2.duration,ending.started,ending.stopped,endingEnding.keys,endingEnding.rt,endingEnding.duration
tom,0.0004,14.6434,y,14.3069,,5ba288c63fd80800016308c4,2024-02-08_16h02.51.644,group3.1-3.2-social-tom,2023.2.2,Win32,60.60606061,65c5074098b851296ff0b7ed,65c5416290604e9c805907ba,,,,,,,,,,,,,,,,,,,,,,,,,,,,,,,,,,,,,,,,,,,,,,,,,,,,,,,,,,,,,,,,,,,,,,,,,,,,,,,,,,,,,,,,,,,,,,,,,,,,,,,,,,
,,,,,,5ba288c63fd80800016308c4,2024-02-08_16h02.51.644,group3.1-3.2-social-tom,2023.2.2,Win32,60.60606061,65c5074098b851296ff0b7ed,65c5416290604e9c805907ba,14.6436,22.2182,space,7.541,,,,,,,,,,,,,,,,,,,,,,,,,,,,,,,,,,,,,,,,,,,,,,,,,,,,,,,,,,,,,,,,,,,,,,,,,,,,,,,,,,,,,,,,,,,,,,,,,,,,,,
,,,,,,5ba288c63fd80800016308c4,2024-02-08_16h02.51.644,group3.1-3.2-social-tom,2023.2.2,Win32,60.60606061,65c5074098b851296ff0b7ed,65c5416290604e9c805907ba,,,,,,22.2183,34.5567,space,12.0317,,,,,,,,,,,,,,,,,,,,,,,,,,,,,,,,,,,,,,,,,,,,,,,,,,,,,,,,,,,,,,,,,,,,,,,,,,,,,,,,,,,,,,,,,,,,,,,,,
,,,,,,5ba288c63fd80800016308c4,2024-02-08_16h02.51.644,group3.1-3.2-social-tom,2023.2.2,Win32,60.60606061,65c5074098b851296ff0b7ed,65c5416290604e9c805907ba,,,,,,,,,,,34.5599,45.1635,space,10.5931,,[],[],[],[],[],[],0,0,0,0,1,,,,,,,,,,,,,,,,,,,,,,,,,,,,,,,,,,,,,,,,,,,,,,,,,,,,,,,,,,,,,,,,,,,,,,,,,,,,,,,,
,,,,,,5ba288c63fd80800016308c4,2024-02-08_16h02.51.644,group3.1-3.2-social-tom,2023.2.2,Win32,60.60606061,65c5074098b851296ff0b7ed,65c5416290604e9c805907ba,,,,,,,,,,,45.1639,69.0753,space,23.8475,,[],[],[],[],[],[],1,0,1,0,1,,,,,,,,,,,,,,,,,,,,,,,,,,,,,,,,,,,,,,,,,,,,,,,,,,,,,,,,,,,,,,,,,,,,,,,,,,,,,,,,
,,,,,,5ba288c63fd80800016308c4,2024-02-08_16h02.51.644,group3.1-3.2-social-tom,2023.2.2,Win32,60.60606061,65c5074098b851296ff0b7ed,65c5416290604e9c805907ba,,,,,,,,,,,69.0802,89.2232,space,20.1091,,[],[],[],[],[],[],2,0,2,0,1,,,,,,,,,,,,,,,,,,,,,,,,,,,,,,,,,,,,,,,,,,,,,,,,,,,,,,,,,,,,,,,,,,,,,,,,,,,,,,,,
,,,,,,5ba288c63fd80800016308c4,2024-02-08_16h02.51.644,group3.1-3.2-social-tom,2023.2.2,Win32,60.60606061,65c5074098b851296ff0b7ed,65c5416290604e9c805907ba,,,,,,,,,,,89.2281,105.6621,space,16.4176,,[],[],[],[],[],[],3,0,3,0,1,,,,,,,,,,,,,,,,,,,,,,,,,,,,,,,,,,,,,,,,,,,,,,,,,,,,,,,,,,,,,,,,,,,,,,,,,,,,,,,,
,,,,,,5ba288c63fd80800016308c4,2024-02-08_16h02.51.644,group3.1-3.2-social-tom,2023.2.2,Win32,60.60606061,65c5074098b851296ff0b7ed,65c5416290604e9c805907ba,,,,,,,,,,,105.6675,115.7811,space,10.0936,,[],[],[],[],[],[],4,0,4,0,1,,,,,,,,,,,,,,,,,,,,,,,,,,,,,,,,,,,,,,,,,,,,,,,,,,,,,,,,,,,,,,,,,,,,,,,,,,,,,,,,
,,,,,,5ba288c63fd80800016308c4,2024-02-08_16h02.51.644,group3.1-3.2-social-tom,2023.2.2,Win32,60.60606061,65c5074098b851296ff0b7ed,65c5416290604e9c805907ba,,,,,,,,,,,,,,,,,,,,,,,,,,,115.7875,118.3628,118.373,1,audio/Narrative13Situation2.wav,120.3778,,120.3779,150.1326,"[[999,0],[999,98],[999,182],[999,264],[999,347],[999,431],[999,514],[999,597],[999,680],[999,764],[999,847],[999,930],[999,1013],[999,1098],[999,1180],[999,1264],[999,1347],[999,1430],[999,1513],[999,1596],[999,1680],[999,1763],[999,1847],[999,1930],[999,2013],[999,2096],[999,2179],[999,2263],[999,2346],[999,2429],[999,2513],[999,2596],[999,2679],[999,2762],[48.8,2845],[44.2,3012],[44.5,3095],[48.1,3178],[49.4,3262],[50.1,3345],[50.1,3428],[50.1,3512],[50.1,3594],[50.1,3678],[50.1,3761],[50.1,3844],[50.1,3927],[50.1,4011],[50.1,4094],[50.1,4177],[50.1,4260],[50.1,4344],[50.1,4427],[50.1,4510],[50.1,4594],[50.1,4677],[50.1,4761],[50.1,4843],[50.1,4927],[50.1,5010],[50.1,5093],[50.1,5177],[50.1,5260],[50.1,5343],[50.1,5426],[49.6,5509],[48.5,5593],[44.1,5676],[37.1,5759],[25.7,5842],[24.8,5926],[21.6,6009],[19.2,6092],[16.1,6176],[14.3,6259],[13.9,6342],[11.9,6425],[10.9,6509],[10.2,6592],[10.1,6675],[9.5,6758],[9.5,6842],[9.5,6925],[9.5,7008],[9.5,7092],[9.5,7174],[9.5,7258],[9.5,7341],[9.5,7424],[9.5,7508],[9.5,7591],[9.5,7674],[9.5,7758],[9.5,7841],[9.5,7924],[9.5,8008],[9.5,8090],[9.5,8174],[9.5,8257],[9.5,8340],[9.5,8424],[9.5,8507],[9.5,8590],[9.5,8673],[9.5,8757],[9.5,8840],[9.5,8923],[9.5,9006],[9.5,9090],[9.5,9173],[9.5,9257],[9.5,9339],[9.5,9422],[9.5,9506],[9.5,9589],[9.5,9672],[9.5,9756],[9.5,9839],[9.5,9922],[9.5,10005],[9.5,10089],[9.5,10172],[9.5,10255],[9.5,10339],[9.5,10421],[9.5,10505],[9.5,10588],[9.5,10672],[9.5,10755],[9.2,10838],[8.8,10921],[8.6,11004],[8.6,11088],[8.6,11171],[8.6,11254],[8.6,11338],[8.6,11420],[8.6,11504],[8.8,11588],[9.6,11670],[9.6,11754],[10,11837],[11.1,11920],[11.4,12004],[11.4,12087],[11.4,12170],[13.4,12253],[19.4,12336],[21.4,12420],[22.3,12503],[25.1,12586],[26.8,12669],[31,12753],[31.9,12836],[31.9,12919],[31.9,13003],[31.9,13086],[31.9,13169],[31.9,13252],[31.9,13336],[31.9,13419],[31.9,13502],[31.5,13586],[30.3,13668],[29.9,13752],[28.7,13835],[27.1,13918],[26.9,14002],[25.9,14085],[23.8,14168],[22.8,14252],[21.6,14335],[20.6,14418],[19.6,14501],[19.6,14585],[19.4,14667],[19.2,14751],[19.2,14834],[18.9,14917],[18.1,15001],[18.1,15085],[17.8,15167],[17.3,15250],[16.6,15333],[15.5,15417],[13.8,15501],[13.8,15583],[13.8,15667],[13.8,15750],[13.8,15833],[13.8,15917],[13.8,16000],[13.8,16083],[13.8,16166],[13.8,16250],[13.8,16333],[13.8,16417],[13.8,16499],[13.8,16583],[13.8,16666],[13.8,16749],[13.8,16832],[13.8,16916],[13.8,16999],[13.8,17082],[13.8,17165],[13.8,17249],[13.8,17332],[13.8,17416],[13.8,17499],[13.8,17582],[13.8,17665],[13.8,17748],[13.8,17831],[13.8,17915],[13.8,17998],[13.8,18081],[13.8,18164],[13.8,18247],[13.8,18331],[13.8,18414],[13.8,18498],[13.8,18580],[13.8,18664],[13.8,18748],[13.8,18830],[13.8,18914],[13.8,18997],[13.8,19080],[13.8,19163],[13.8,19247],[13.8,19330],[13.8,19413],[13.8,19497],[13.8,19579],[13.8,19663],[13.8,19746],[13.8,19829],[15,19912],[17.2,19996],[20,20079],[20.9,20162],[24.4,20246],[30.1,20329],[34.8,20412],[40.7,20496],[44,20579],[45.7,20662],[47.1,20745],[51.3,21411],[51.3,21495],[49.3,21578],[49.3,21661],[54.9,21745],[55.3,21828],[55.3,21911],[55.3,21994],[55.3,22078],[55.3,22161],[55.3,22244],[55.3,22329],[55.7,22410],[55.7,22494],[55.7,22578],[56,22660],[58,22743],[58.8,22827],[59.3,22910],[61.4,22993],[61.6,23077],[61.6,23160],[61.6,23242],[61.6,23326],[61.6,23410],[61.6,23493],[61.6,23576],[61.6,23659],[61.6,23742],[60.6,23826],[59.1,23909],[58.3,23992],[58.3,24076],[57.9,24159],[57.9,24242],[57.9,24325],[57.9,24409],[57.9,24492],[57.9,24575],[57.9,24658],[57.9,24742],[57.9,24825],[57.9,24908],[57.9,24991],[57.9,25075],[57.9,25158],[57.9,25241],[57.9,25324],[57.9,25408],[57.9,25491],[57.9,25574],[57.9,25658],[57.9,25740],[57.9,25824],[57.9,25908],[57.9,25990],[57.9,26073],[57.9,26157],[57.9,26240],[57.9,26323],[57.9,26407],[57.9,26491],[57.9,26573],[57.9,26656],[57.9,26740],[57.9,26823],[57.9,26906],[57.9,26990],[56.9,27073],[56.9,27156],[55.4,27239],[54.2,27322],[52.7,27406],[52.4,27489],[52.3,27572],[51.4,27655],[51.4,27739],[51.4,27822],[51.3,27906],[51.3,27989],[50.9,28072],[50.6,28155],[50.3,28238],[49.9,28321],[49.9,28405],[49.9,28488],[49.9,28571],[49.9,28655],[49.9,28738],[49.9,28821],[49.9,28904],[49.9,28988],[49.9,29071],[49.9,29154],[49.9,29238],[49.9,29320],[49.9,29404],[49.9,29487],[49.9,29570],[49.9,29653],[49.9,29737]]",1,0,150.1328,161.8883,49.89583492,8.3488,"[{""rating"":49.89583492279053,""responseTime"":8.348799999999812}]",space,11.2087,,161.8938,Not at all,0,173.8602,0,7.2002,"[{""rating"":0,""responseTime"":7.200200000000166}]",space,11.4313,,0,0,0,0,1,audio/Narrative13Situation2.wav,audio/Narrative13Situation2.wav,audio/Narrative13Situation2.wav,audio/Narrative13Situation2.wav,2,2,2,2,,,,,,,,,,,,,,,,,,,,,,,,,,,,,,,,,,,,,
,,,,,,5ba288c63fd80800016308c4,2024-02-08_16h02.51.644,group3.1-3.2-social-tom,2023.2.2,Win32,60.60606061,65c5074098b851296ff0b7ed,65c5416290604e9c805907ba,,,,,,,,,,,,,,,,,,,,,,,,,,,,,173.8655,1,audio/Narrative7Situation1.wav,176.2738,space,176.2738,232.1719,"[[31.6,1998],[29.7,2082],[29.7,2164],[29.7,2248],[29.7,2332],[27.6,2414],[27.3,2498],[27.3,2581],[27.3,2664],[27.3,2748],[27.3,2830],[27.2,2914],[27.2,2997],[27.2,3080],[27.2,3164],[27.2,3247],[27.2,3330],[27.2,3414],[27.2,3497],[27.2,3580],[27.2,3663],[27.2,3747],[27.2,3830],[27.2,3913],[27.2,3997],[27.2,4079],[27.2,4162],[26.9,4246],[25.2,4329],[24.3,4412],[23,4496],[22.1,4579],[21,4662],[19.9,4745],[19.5,4828],[17.7,4912],[17.7,4995],[17.7,5079],[17.7,5161],[17.7,5245],[17.7,5328],[17.7,5412],[17.7,5495],[17.7,5578],[17.7,5662],[17.7,5744],[17.7,5828],[17.7,5911],[17.7,5994],[17.7,6078],[17.7,6161],[17.7,6244],[17.7,6327],[17.7,6411],[17.7,6494],[17.7,6577],[17.7,6661],[17.7,6744],[17.7,6827],[17.7,6910],[17.7,6994],[17.7,7077],[17.7,7160],[17.7,7243],[17.7,7326],[17.7,7410],[17.7,7493],[17.7,7576],[17.7,7659],[17.7,7742],[17.7,7826],[17.7,7909],[17.7,7992],[17.7,8076],[17.7,8159],[17.7,8242],[17.7,8325],[17.7,8408],[17.7,8492],[17.7,8575],[17.7,8658],[17.7,8742],[17.7,8825],[17.7,8908],[17.7,8992],[17.7,9075],[17.7,9158],[17.7,9242],[17.7,9324],[17.7,9408],[17.7,9491],[17.9,9575],[19.5,9657],[20.8,9740],[21.1,9824],[21.9,9908],[22.5,9990],[23.2,10074],[23.2,10157],[23.2,10240],[24,10324],[24,10407],[24,10490],[24,10573],[24,10657],[24,10740],[24,10823],[24,10906],[24,10989],[24,11073],[24,11156],[24,11239],[24,11323],[24,11406],[24,11489],[24,11573],[24,11656],[24,11739],[24,11822],[24,11905],[24,11988],[24,12072],[24,12155],[24,12238],[24,12322],[24.3,12405],[25.3,12488],[26.8,12571],[27.5,12654],[27.8,12738],[28.7,12821],[30.7,12904],[33.2,12988],[36.1,13071],[39.4,13154],[39.9,13237],[41.4,13320],[44.1,13404],[45.7,13487],[46.9,13570],[47.9,13653],[49,13737],[50,13820],[50,13903],[50,13987],[50,14070],[50,14154],[50,14237],[50,14320],[50,14403],[50,14486],[50,14569],[50,14653],[50,14736],[50,14819],[50,14903],[50,14985],[52.3,15069],[54.3,15152],[55.7,15235],[55.9,15319],[55.9,15402],[55.9,15485],[55.9,15568],[55.9,15652],[55.9,15735],[55.9,15818],[55.9,15901],[55.9,15985],[55.9,16068],[55.9,16151],[55.9,16235],[55.9,16318],[55.9,16401],[55.9,16484],[55.9,16568],[55.9,16651],[55.9,16735],[55.9,16818],[55.9,16901],[55.9,16984],[55.9,17067],[55.9,17150],[55.9,17234],[55.9,17317],[55.9,17400],[55.9,17483],[55.9,17567],[55.9,17650],[55.9,17734],[55.9,17817],[56.8,17899],[57.7,17983],[58.3,18066],[58.3,18150],[58.3,18233],[58.3,18316],[58.3,18399],[58.3,18482],[58.3,18566],[58.3,18649],[58.3,18732],[58.3,18815],[58.3,18899],[58.3,18982],[58.2,19065],[57.1,19149],[55.8,19232],[54.3,19315],[52.6,19398],[51.3,19482],[51.3,19565],[50.6,19648],[50.3,19732],[50.3,19815],[50.3,19898],[50.3,19981],[50.3,20064],[50.3,20148],[50.3,20232],[50.3,20314],[50.3,20397],[50.3,20481],[50.3,20564],[50.3,20647],[50.3,20731],[50.3,20814],[50.3,20897],[50.3,20980],[50.3,21063],[50.3,21146],[50.3,21230],[50.3,21313],[50.3,21396],[50.3,21480],[50.3,21563],[50.3,21646],[50.3,21729],[50.3,21813],[50.3,21896],[50.3,21979],[51.9,22062],[52.5,22146],[52.5,22229],[52.5,22312],[52.5,22395],[52.5,22479],[52.5,22562],[52.5,22645],[52.5,22729],[52.5,22812],[52.5,22895],[52.5,22978],[52.5,23062],[52.5,23145],[52.5,23228],[52.5,23312],[52.5,23394],[52.5,23478],[52.5,23562],[52.5,23644],[52.5,23727],[52.5,23811],[52.5,23894],[52.5,23977],[52.5,24061],[52.5,24143],[52.5,24228],[52.5,24311],[54.7,24393],[56,24477],[59.4,24560],[60,24643],[62.5,24726],[64,24810],[67,24893],[69.3,24976],[69.6,25060],[70.7,25143],[70.7,25226],[70.7,25309],[70.7,25393],[70.7,25476],[70.7,25559],[71.3,25642],[73.3,25726],[73.4,25809],[73.4,25892],[73.4,25976],[73.4,26059],[73.4,26142],[73.4,26226],[73.4,26309],[73.4,26391],[73.4,26475],[73.4,26558],[73.4,26642],[73.4,26725],[73.4,26808],[73.4,26892],[73.4,26975],[73.4,27058],[73.4,27141],[73.4,27224],[73.4,27308],[73.4,27391],[73.4,27474],[73.4,27558],[73.4,27641],[73.4,27724],[73.4,27807],[73.4,27891],[73.4,27974],[73.4,28057],[73.4,28140],[73.4,28223],[73.4,28307],[73.4,28390],[73.4,28474],[73.4,28556],[73.4,28640],[73.4,28723],[74.4,28806],[77.1,28889],[78.4,28972],[79.7,29056],[80.4,29141],[82.2,29222],[83.5,29305],[84.5,29389],[84.5,29473],[84.5,29556],[84.5,29639],[84.5,29722],[84.5,29805],[84.5,29889],[84.5,29971],[84.5,30055],[84.5,30138],[84.5,30222],[84.5,30304],[84.5,30388],[84.5,30471],[84.5,30555],[84.5,30638],[84.5,30721],[84.5,30805],[84.5,30887],[84.5,30971],[84.5,31054],[84.5,31137],[84.5,31221],[84.5,31304],[84.5,31387],[84.5,31471],[84.5,31554],[84.5,31637],[84.5,31721],[84.5,31803],[84.5,31887],[84.5,31970],[84.5,32054],[84.5,32136],[84.5,32220],[84.6,32303],[84.9,32387],[84.9,32470],[84.9,32553],[84.9,32636],[84.7,32720],[84.7,32803],[84.7,32886],[84.7,32969],[84.7,33052],[84.7,33135],[84.7,33219],[84.7,33302],[84.7,33385],[84.7,33468],[84.7,33552],[84.7,33635],[84.7,33719],[84.7,33801],[84.7,33885],[84.7,33968],[84.7,34052],[84.7,34134],[84.7,34218],[84.7,34301],[84.7,34384],[84.7,34468],[84.7,34550],[84.7,34634],[84.7,34717],[84.7,34801],[84.7,34884],[84.7,34967],[84.7,35050],[84.7,35134],[84.7,35217],[84.7,35301],[84.7,35384],[84.7,35467],[84.7,35549],[84.7,35633],[84.7,35716],[84.7,35800],[84.7,35883],[84.7,35967],[84.7,36049],[84.7,36133],[84.7,36216],[84.7,36300],[84.7,36383],[84.7,36466],[84.7,36549],[84.7,36633],[84.7,36715],[84.7,36799],[84.7,36882],[84.7,36965],[84.7,37049],[84.7,37132],[84.7,37215],[84.7,37298],[84.7,37382],[84.7,37465],[84.7,37548],[84.7,37632],[84.7,37714],[84.7,37798],[84.7,37882],[84.7,37964],[84.7,38048],[84.7,38131],[84.7,38214],[84.7,38298],[84.7,38380],[84.7,38464],[84.7,38547],[84.7,38630],[84.7,38714],[84.7,38797],[84.7,38880],[84.7,38964],[84.7,39047],[84.7,39130],[84.7,39213],[84.7,39297],[84.7,39380],[84.7,39463],[84.7,39547],[84.7,39630],[84.7,39713],[84.7,39796],[84.7,39879],[84.7,39962],[84.7,40045],[84.7,40129],[84.7,40212],[84.7,40295],[84.7,40379],[84.7,40462],[84.7,40545],[84.8,40628],[85.9,40711],[87.3,40795],[88,40878],[89.6,40961],[89.6,41044],[89.9,41128],[89.9,41211],[89.9,41294],[89.9,41377],[89.9,41461],[89.9,41545],[89.9,41627],[89.9,41711],[89.9,41794],[89.9,41877],[89.9,41961],[89.9,42044],[89.9,42127],[89.9,42211],[89.9,42294],[89.9,42377],[89.9,42460],[89.9,42543],[89.9,42627],[89.9,42710],[89.9,42793],[89.9,42876],[89.9,42960],[89.9,43043],[89.9,43126],[89.9,43209],[89.9,43293],[89.9,43376],[89.9,43460],[89.9,43543],[89.9,43626],[89.9,43709],[89.9,43792],[89.9,43875],[89.9,43959],[89.9,44042],[89.9,44125],[89.9,44209],[89.9,44292],[89.9,44375],[89.9,44458],[89.9,44542],[89.9,44625],[89.9,44708],[89.9,44791],[89.9,44875],[89.9,44958],[89.9,45042],[89.9,45124],[89.9,45208],[89.9,45291],[89.9,45374],[89.9,45458],[89.9,45540],[89.9,45624],[89.9,45707],[89.9,45790],[89.9,45874],[89.9,45957],[89.9,46041],[89.9,46124],[89.9,46207],[89.9,46290],[89.9,46373],[89.9,46456],[89.9,46539],[89.9,46623],[89.9,46706],[89.9,46789],[89.8,46873],[89.7,46956],[89.7,47040],[89.7,47123],[89.7,47206],[89.7,47289],[89.7,47372],[89.7,47456],[89.7,47539],[89.7,47622],[89.7,47705],[89.7,47789],[89.7,47872],[89.7,47955],[89.7,48038],[89.7,48122],[89.7,48204],[89.7,48288],[89.7,48372],[90,48454],[90.7,48538],[91.4,48621],[91.5,48705],[91.5,48787],[92.1,48870],[92.5,48954],[93.1,49037],[93.1,49121],[93.1,49204],[93.1,49287],[93.1,49371],[93.1,49453],[93.1,49537],[93.1,49620],[92.8,49704],[92.8,49787],[92.8,49870],[92.8,49953],[92.8,50037],[92.8,50120],[92.8,50203],[92.8,50286],[92.8,50369],[92.8,50453],[92.8,50536],[92.8,50619],[92.8,50702],[92.8,50785],[92.8,50869],[92.8,50952],[92.8,51035],[92.8,51119],[92.8,51202],[92.8,51285],[92.8,51368],[92.8,51452],[92.8,51535],[92.8,51618],[92.8,51702],[92.8,51785],[92.8,51868],[92.8,51952],[92.8,52035],[92.8,52118],[92.6,52202],[94.2,52284],[94.3,52367],[95.2,52450],[95.3,52533],[95.3,52617],[95.3,52700],[95.3,52784],[95.3,52867],[95.3,52950],[95.3,53033],[95.5,53117],[96.6,53201],[98,53283],[98.3,53367],[98.3,53450],[98.3,53533],[98.3,53616],[98.3,53700],[98.3,53783],[98.3,53866],[98.3,53950],[98.3,54033],[98.1,54116],[96.4,54199],[93.9,54282],[93.6,54365],[93.6,54449],[93.6,54532],[93.6,54615],[93.6,54699],[93.6,54782],[93.6,54865],[93.6,54948],[93.6,55032],[93.6,55115],[93.6,55198],[93.6,55282],[93.6,55364],[93.6,55448],[93.6,55531],[93.6,55615],[93.6,55698],[93.6,55782],[93.6,55864]]",1,0,232.1721,238.5488,76.66666508,4.4034,"[{""rating"":76.66666507720947,""responseTime"":4.403400000000374}]",space,5.8396,,238.5489,Not at all,0,243.9273,0.729167461,2.9289,"[{""rating"":0.7291674613952637,""responseTime"":2.928899999999885}]",space,4.8321,,0,1,1,1,1,audio/Narrative7Situation1.wav,audio/Narrative8Situation1.wav,audio/Narrative5Situation1.wav,audio/Narrative6Situation1.wav,2,5,5,2,2.3945,,,,,,,,,,,,,,,,,,,,,,,,,,,,,,,,,,,,
,,,,,,5ba288c63fd80800016308c4,2024-02-08_16h02.51.644,group3.1-3.2-social-tom,2023.2.2,Win32,60.60606061,65c5074098b851296ff0b7ed,65c5416290604e9c805907ba,,,,,,,,,,,,,,,,,,,,,,,,,,,,,243.9327,1,audio/Narrative7Situation2.wav,246.9417,,246.9417,254.4346,"[[999,0],[999,83],[999,166],[999,249],[999,332],[999,416],[999,499],[999,582],[999,665],[999,749],[999,832],[999,915],[999,998],[999,1081],[999,1164],[999,1248],[42.7,1331],[44.1,1414],[44.9,1498],[44.9,1581],[44.9,1664],[44.9,1747],[44.9,1831],[44.9,1914],[44.9,1997],[44.9,2080],[44.9,2164],[44.9,2247],[44.9,2330],[44.9,2413],[44.9,2497],[44.9,2580],[44.9,2663],[44.9,2747],[44.9,2830],[44.9,2914],[44.9,2996],[44.9,3079],[44.9,3163],[44.9,3246],[44.9,3329],[43.2,3412],[40.2,3496],[39.4,3579],[37,3662],[35,3745],[30.9,3829],[29.6,3912],[26.7,3995],[23.3,4078],[22,4162],[22,4246],[22,4329],[22,4412],[22,4495],[22,4578],[22,4662],[22,4745],[22,4828],[22,4911],[22,4994],[22,5078],[22,5161],[22,5244],[22,5327],[22,5411],[22,5494],[22,5577],[22,5661],[22,5744],[22,5827],[22,5910],[22,5994],[22,6077],[22,6160],[22,6243],[22,6326],[22,6410],[22,6494],[22,6577],[22,6660],[22,6743],[22,6826],[22,6910],[22,6993],[22,7076],[22,7159],[22,7243],[22,7326],[22,7409],[22,7492]]",1,0,254.4347,264.658,42.81249841,8.1085,"[{""rating"":42.8124984105428,""responseTime"":8.10850000000005}]",space,9.6755,,264.6581,Not at all,0,264.6593,,,[],,,,0,2,2,2,1,audio/Narrative7Situation2.wav,audio/Narrative8Situation2.wav,audio/Narrative5Situation2.wav,audio/Narrative6Situation2.wav,3,3,3,3,,,,,,,,,,,,,,,,,,,,,,,,,,,,,,,,,,,,,
,,,,,,5ba288c63fd80800016308c4,2024-02-08_16h02.51.644,group3.1-3.2-social-tom,2023.2.2,Win32,60.60606061,65c5074098b851296ff0b7ed,65c5416290604e9c805907ba,,,,,,,,,,,,,,,,,,,,,,,,,,,,,264.6594,1,audio/Narrative7Situation3.wav,272.6676,,272.6676,281.9254,"[[43.1,998],[44.7,1081],[44.7,1165],[44.8,1248],[44.8,1331],[44.8,1414],[44.8,1498],[44.8,1581],[44.8,1664],[44.6,1747],[43.9,1831],[43.9,1914],[43.9,1998],[43.9,2081],[43.9,2164],[43.9,2247],[43.9,2330],[43.9,2413],[43.9,2497],[43.9,2580],[43.9,2664],[43.9,2747],[43.9,2830],[43.9,2913],[43.9,2997],[43.9,3080],[43.9,3162],[43.9,3246],[43.9,3330],[43.9,3413],[43.9,3496],[45.7,3579],[47.1,3662],[47.8,3745],[48.2,3829],[48.4,3912],[49.2,3996],[49.2,4079],[49.2,4162],[49.5,4245],[49.5,4328],[49.5,4412],[49.5,4495],[49.5,4578],[49.5,4662],[49.5,4745],[49.5,4828],[49.5,4911],[49.5,4994],[49.5,5079],[49.5,5161],[49.5,5244],[50.2,5328],[52.5,5411],[53.6,5494],[54.8,5577],[56.5,5660],[56.7,5744],[56.8,5827],[58.9,5910],[62.3,5993],[62.5,6077],[63.2,6160],[63.2,6243],[63.2,6326],[63.2,6409],[63.2,6493],[63.2,6576],[63.2,6660],[63.2,6742],[63.2,6826],[63.2,6910],[63.2,6993],[63.2,7076],[63.2,7159],[63.2,7243],[63.2,7326],[63.2,7409],[63.2,7492],[63.2,7575],[63.2,7659],[63.2,7742],[63.2,7825],[63.2,7908],[63.2,7992],[63.2,8075],[63.2,8158],[63.2,8242],[63.2,8325],[63.2,8408],[63.2,8491],[63.2,8575],[63.2,8658],[63.2,8741],[63.2,8825],[63.2,8908],[63.2,8991],[63.2,9074],[63.2,9157],[65.3,9240]]",1,0,281.9254,287.1375,65.41666985,3.54,"[{""rating"":65.41666984558105,""responseTime"":3.5399999999999636}]",space,4.6631,,287.1375,All the time,100,287.141,,,[],,,,0,3,3,3,1,audio/Narrative7Situation3.wav,audio/Narrative8Situation3.wav,audio/Narrative5Situation3.wav,audio/Narrative6Situation3.wav,8,4,3,5,,,,,,,,,,,,,,,,,,,,,,,,,,,,,,,,,,,,,
,,,,,,5ba288c63fd80800016308c4,2024-02-08_16h02.51.644,group3.1-3.2-social-tom,2023.2.2,Win32,60.60606061,65c5074098b851296ff0b7ed,65c5416290604e9c805907ba,,,,,,,,,,,,,,,,,,,,,,,,,,,,,287.141,1,audio/Narrative7Situation4.wav,290.1506,,290.1506,301.8735,"[[999,5],[999,83],[999,166],[999,250],[999,333],[999,416],[999,499],[999,583],[999,666],[999,749],[999,832],[53.5,915],[52.4,999],[49.3,1082],[48.3,1166],[48.3,1249],[48.3,1332],[48.1,1416],[45.7,1498],[45.6,1582],[45.6,1664],[45.8,1748],[45.8,1831],[45.3,1914],[45,1998],[44.7,2081],[42.9,2165],[42.6,2247],[41.8,2331],[40.5,2415],[35.8,2497],[33,2581],[33,2664],[33,2747],[33,2831],[33,2914],[33,2997],[33,3080],[32.8,3164],[32.6,3247],[32.6,3330],[32.6,3413],[32.6,3497],[33,3580],[34.6,3663],[36.5,3746],[36.5,3829],[36.5,3913],[34.7,3996],[30.4,4079],[29.3,4163],[29.3,4246],[29.3,4329],[33.3,4412],[33.6,4496],[34.2,4579],[34.2,4662],[34.2,4745],[34.2,4828],[34.2,4912],[34.2,4995],[34.2,5078],[34.2,5162],[35.1,5245],[36,5328],[36,5411],[36,5495],[36,5578],[36,5662],[36,5744],[35,5827],[34.1,5912],[34.1,5995],[34.1,6077],[34.1,6161],[34.1,6244],[34.1,6327],[34.1,6410],[34.1,6494],[34.1,6577],[34.1,6660],[34.1,6744],[34.8,6827],[37,6910],[39.3,6993],[40.9,7076],[42.2,7159],[46,7243],[47.4,7326],[49.4,7409],[50.6,7492],[52,7576],[53.4,7659],[54.4,7742],[56.3,7826],[56.3,7909],[56.3,7992],[56.3,8076],[56.3,8159],[56.3,8242],[56.3,8326],[56.3,8409],[56.3,8492],[56.3,8575],[56.3,8658],[56.3,8742],[56.3,8825],[56.3,8908],[56.3,8992],[56.3,9075],[56.3,9158],[56.3,9242],[56.3,9325],[56.3,9408],[57.6,9491],[60,9574],[61.9,9657],[63,9740],[63.3,9824],[67.1,9907],[69,9990],[70.1,10073],[70.7,10157],[71.4,10241],[71.4,10324],[71.4,10407],[71.4,10490],[71.4,10574],[71.4,10657],[71.4,10740],[71.4,10823],[71.4,10906],[71.4,10989],[71.4,11073],[71.4,11156],[71.4,11239],[71.4,11323],[71.4,11406],[71.4,11489],[71.4,11573],[71.4,11656]]",1,0,301.8736,309.1664,68.22916667,5.7266,"[{""rating"":68.22916666666666,""responseTime"":5.726600000000076}]",space,6.7479,,309.1664,Half the time,50,309.1696,,,[],,,,0,4,4,4,1,audio/Narrative7Situation4.wav,audio/Narrative8Situation4.wav,audio/Narrative5Situation4.wav,audio/Narrative6Situation4.wav,3,3,1,2,,,,,,,,,,,,,,,,,,,,,,,,,,,,,,,,,,,,,
,,,,,,5ba288c63fd80800016308c4,2024-02-08_16h02.51.644,group3.1-3.2-social-tom,2023.2.2,Win32,60.60606061,65c5074098b851296ff0b7ed,65c5416290604e9c805907ba,,,,,,,,,,,,,,,,,,,,,,,,,,,,,309.1697,1,audio/Narrative7Situation5.wav,314.1782,,314.1783,322.6707,"[[999,5],[999,83],[999,166],[999,250],[999,332],[999,415],[999,499],[999,582],[48.2,832],[48.9,915],[49.3,998],[49.7,1082],[49.7,1165],[49.7,1249],[49.7,1332],[49.7,1415],[49.7,1498],[49.7,1581],[49.7,1665],[49.7,1748],[49.7,1831],[49.7,1915],[49.7,1997],[49.7,2080],[49.7,2164],[49.7,2247],[49.7,2331],[49.7,2414],[49.7,2497],[49.7,2581],[49.7,2664],[49.7,2747],[49.7,2830],[49.7,2913],[49.2,2996],[49.1,3080],[49.1,3164],[49.1,3247],[49.1,3330],[49.1,3413],[48,3496],[48,3580],[48,3663],[47,3746],[47,3829],[47,3913],[47,3996],[47.9,4079],[48.6,4162],[49.3,4246],[50.3,4329],[50.5,4413],[50.5,4495],[50.5,4579],[50.5,4662],[50.3,4745],[48.5,4828],[48.5,4912],[48.5,4995],[48.5,5078],[48.5,5161],[48.5,5245],[48.5,5328],[48.5,5411],[48.5,5494],[48.3,5577],[48.3,5661],[47,5744],[47,5828],[47,5910],[46.6,5994],[45.4,6077],[44.4,6160],[44.4,6244],[44.4,6327],[44.4,6410],[44.4,6494],[45.3,6577],[46.8,6660],[46.9,6743],[47.4,6826],[49.4,6909],[50.9,6993],[53,7076],[53.7,7159],[53.7,7243],[54.1,7326],[55.2,7409],[56.5,7492],[57,7576],[57.8,7659],[57.8,7742],[57.8,7826],[57.8,7909],[57.8,7992],[57.8,8075],[57.8,8159],[57.8,8242],[57.8,8325],[57.8,8408],[57.8,8492]]",1,0,322.6708,327.5327,49.37500159,3.1048,"[{""rating"":49.3750015894572,""responseTime"":3.104799999999784}]",space,4.314,,327.5328,Not at all,0,327.5355,,,[],,,,0,5,5,5,1,audio/Narrative7Situation5.wav,audio/Narrative8Situation5.wav,audio/Narrative5Situation5.wav,audio/Narrative6Situation5.wav,5,2,5,2,,,,,,,,,,,,,,,,,,,,,,,,,,,,,,,,,,,,,
,,,,,,5ba288c63fd80800016308c4,2024-02-08_16h02.51.644,group3.1-3.2-social-tom,2023.2.2,Win32,60.60606061,65c5074098b851296ff0b7ed,65c5416290604e9c805907ba,,,,,,,,,,,,,,,,,,,,,,,,,,,,,327.5359,1,audio/Narrative7Situation6.wav,330.5464,,330.5465,340.5205,"[[999,5],[999,83],[999,166],[999,250],[999,332],[999,415],[999,499],[999,582],[999,665],[999,749],[999,832],[999,916],[999,998],[999,1081],[50.6,1165],[50.6,1248],[50.1,1331],[49.9,1415],[49.9,1498],[49.9,1581],[49.9,1665],[49.9,1748],[49.9,1831],[49.9,1914],[49.9,1997],[49.9,2082],[49.9,2164],[49.9,2248],[49.9,2331],[49.9,2414],[49.9,2497],[49.9,2581],[49.9,2664],[49.9,2747],[49.9,2830],[49.9,2913],[49.9,2997],[49.9,3080],[49.9,3163],[49.9,3247],[49.9,3330],[49.9,3413],[50.3,3496],[52,3579],[53.2,3662],[54.9,3746],[55.6,3829],[58.2,3912],[59.1,3996],[59.7,4079],[59.9,4162],[59.9,4246],[59.9,4329],[59.9,4412],[59.9,4495],[59.9,4579],[59.9,4662],[59.9,4745],[59.9,4829],[59.9,4912],[59.9,4995],[59.9,5079],[59.9,5161],[59.9,5244],[59.9,5328],[59.9,5411],[59.9,5495],[60.6,5577],[63.5,5661],[63.8,5744],[65.8,5827],[67.8,5910],[70.1,5994],[70.3,6078],[73.1,6160],[75,6243],[78,6327],[82.3,6409],[82.3,6493],[82.3,6577],[82.3,6660],[82.3,6743],[82.3,6826],[82.3,6909],[82.3,6993],[82.3,7076],[82.3,7160],[82.3,7242],[82.8,7326],[86.5,7409],[90,7492],[90.7,7575],[92,7659],[92.7,7742],[92.7,7826],[92.7,7909],[93.4,7992],[94.5,8075],[94.8,8159],[95,8241],[95.1,8325],[95.1,8409],[95.1,8491],[95.1,8575],[95.1,8658],[95.1,8741],[95.1,8824],[95.1,8908],[95.1,8991],[95.1,9074],[95.1,9158],[95.1,9241],[95.1,9324],[95.1,9408],[95.1,9490],[95.1,9574],[95.1,9657],[95.1,9740],[95.1,9824],[95.1,9907]]",1,0,340.5206,344.1171,92.81250636,2.0213,"[{""rating"":92.81250635782878,""responseTime"":2.0213000000002808}]",space,3.0483,,344.1172,Not at all,0,344.1183,,,[],,,,0,6,6,6,1,audio/Narrative7Situation6.wav,audio/Narrative8Situation6.wav,audio/Narrative5Situation6.wav,audio/Narrative6Situation6.wav,3,2,3,2,,,,,,,,,,,,,,,,,,,,,,,,,,,,,,,,,,,,,
,,,,,,5ba288c63fd80800016308c4,2024-02-08_16h02.51.644,group3.1-3.2-social-tom,2023.2.2,Win32,60.60606061,65c5074098b851296ff0b7ed,65c5416290604e9c805907ba,,,,,,,,,,,,,,,,,,,,,,,,,,,,,344.1184,1,audio/Narrative7Situation7.wav,349.1292,,349.1292,366.3133,"[[999,5],[999,82],[999,166],[999,249],[999,332],[999,416],[999,499],[999,582],[999,665],[999,749],[56.9,832],[56,915],[51.3,998],[51,1082],[51,1165],[47.7,1248],[47.7,1332],[47.7,1415],[47.7,1498],[47.7,1582],[47.7,1665],[47.7,1748],[47.7,1831],[47.1,1914],[46.3,1998],[43.2,2081],[42.9,2164],[42.9,2247],[42.3,2330],[41.8,2414],[41.8,2497],[45,2580],[51.1,2663],[53.1,2746],[53.4,2830],[55.4,2913],[58.2,2996],[60.6,3079],[63.9,3163],[67.1,3246],[70.9,3329],[72.4,3413],[72.4,3496],[72.4,3579],[72.4,3663],[73.3,3746],[76.3,3829],[78.6,3912],[80.1,3995],[81.1,4079],[81.1,4162],[81.1,4246],[81.1,4328],[81.1,4412],[81.1,4495],[81.1,4578],[81.1,4662],[81.1,4745],[81.1,4829],[81.1,4911],[81.1,4995],[81.1,5078],[81.1,5161],[81.1,5245],[81.3,5328],[81.3,5411],[81.3,5494],[81.3,5578],[81.3,5661],[80.8,5744],[80.5,5827],[80.5,5911],[80.5,5994],[80.5,6078],[80.5,6161],[80.5,6244],[80.5,6327],[80.5,6410],[80.5,6493],[80.5,6576],[80.5,6660],[80.5,6743],[80.5,6826],[80.5,6910],[80.5,6993],[80.8,7077],[84.4,7159],[86.4,7242],[88.9,7326],[90.6,7409],[91.4,7492],[92.4,7575],[92.4,7659],[94,7742],[95.5,7826],[98.6,7908],[100,7992],[100,8075],[100,8158],[98.6,8241],[98.6,8325],[97.2,8408],[97.1,8492],[97.1,8575],[96.8,8658],[96,8741],[95.1,8824],[94.4,8907],[94.4,8991],[94.4,9074],[94.4,9158],[94.4,9241],[94.4,9324],[94.4,9408],[94.4,9490],[94.4,9574],[94.4,9657],[94.4,9740],[94.4,9824],[94.4,9907],[94.4,9990],[94.4,10073],[94.4,10157],[94.4,10240],[94.2,10323],[94.2,10406],[94.2,10490],[94.2,10573],[94.2,10656],[94.2,10740],[94.2,10823],[94.2,10906],[94.2,10989],[94.2,11072],[94.2,11156],[94.2,11240],[88.3,11322],[86.3,11405],[82.1,11488],[78.4,11572],[76.1,11655],[73.3,11738],[73.2,11822],[71.6,11905],[70.3,11988],[65.9,12071],[64.7,12155],[60.5,12238],[58.1,12321],[56.1,12404],[55.6,12488],[55.6,12571],[60.3,12654],[60.6,12737],[60.6,12821],[59.8,12904],[59.8,12987],[62.7,13070],[63.5,13153],[63.8,13237],[64.7,13320],[68,13403],[70.2,13487],[72.5,13570],[72.9,13653],[72.9,13737],[72.9,13820],[72.9,13903],[72.9,13987],[72.9,14070],[72.9,14153],[72.9,14236],[72.9,14319],[72.9,14403],[72.9,14486],[73.1,14569],[73.1,14652],[73.1,14736],[73.1,14819],[73.1,14903],[73.1,14986],[73.1,15069],[73.1,15152],[73.1,15235],[73.1,15318],[73.1,15402],[73.1,15485],[73.1,15569],[73.1,15651],[73.1,15735],[73.1,15818],[73.1,15902],[72.9,15984],[72.7,16067],[72.7,16151],[72.7,16234],[72.7,16317],[71.6,16401],[71.6,16484],[71.6,16567],[71.3,16651],[67.8,16733],[67.5,16817],[67.5,16900],[67.5,16983],[67.5,17067],[67.5,17150]]",1,0,366.3135,370.3922,71.45833174,2.0101,"[{""rating"":71.45833174387613,""responseTime"":2.0100999999996247}]",space,3.5293,,370.3923,Not at all,0,370.3933,,,[],,,,0,7,7,7,1,audio/Narrative7Situation7.wav,audio/Narrative8Situation7.wav,audio/Narrative5Situation7.wav,audio/Narrative6Situation7.wav,5,3,4,5,,,,,,,,,,,,,,,,,,,,,,,,,,,,,,,,,,,,,
,,,,,,5ba288c63fd80800016308c4,2024-02-08_16h02.51.644,group3.1-3.2-social-tom,2023.2.2,Win32,60.60606061,65c5074098b851296ff0b7ed,65c5416290604e9c805907ba,,,,,,,,,,,,,,,,,,,,,,,,,,,,,370.3937,1,audio/Narrative7Situation8.wav,372.4074,,372.4075,382.4316,"[[999,0],[999,83],[999,166],[999,249],[999,332],[999,416],[999,498],[999,582],[999,665],[999,748],[999,832],[999,915],[999,998],[59.7,1081],[58,1165],[54.8,1248],[54.4,1331],[52.5,1415],[51.6,1498],[49.6,1581],[46.4,1664],[42.8,1748],[42.8,1830],[42.5,1914],[42.7,1997],[45.4,2080],[46.9,2164],[48.3,2247],[48.9,2330],[49.2,2413],[49.2,2497],[49.2,2580],[49.2,2664],[49.2,2747],[49.2,2830],[49.2,2914],[49.2,2997],[49.2,3079],[49.2,3163],[49.2,3247],[49.2,3330],[49.2,3413],[49.2,3496],[49.2,3580],[49.2,3663],[49.2,3746],[49.2,3829],[49.2,3913],[49.2,3996],[49.2,4079],[49.2,4162],[49.2,4245],[49.2,4328],[49.2,4412],[49.2,4495],[49.2,4578],[49.2,4662],[49.2,4745],[49.2,4828],[49.2,4911],[49.2,4995],[49.2,5078],[49.2,5161],[49.2,5244],[49.2,5327],[49.2,5411],[49.2,5494],[49.2,5578],[49.2,5660],[49.2,5744],[49.2,5828],[49.2,5910],[49.2,5994],[49.2,6077],[49.2,6160],[49.2,6243],[49.2,6327],[49.2,6409],[49.2,6494],[49.2,6577],[49.2,6660],[49.2,6743],[49.2,6826],[49.2,6910],[49.2,6993],[49.2,7076],[49.2,7159],[49.2,7243],[49.2,7326],[52.7,7409],[54.6,7492],[56.3,7576],[57.5,7659],[58.2,7742],[61.1,7825],[66.6,7908],[69.3,7992],[69.3,8075],[69.6,8158],[69.6,8242],[69.6,8325],[69.6,8408],[69.6,8491],[69.6,8575],[69.6,8658],[69.6,8741],[69.6,8825],[69.6,8908],[69.6,8991],[69.6,9074],[69.6,9158],[69.6,9240],[69.6,9324],[69.6,9407],[69.6,9490],[69.6,9573],[69.6,9657],[69.6,9740],[69.6,9824],[69.6,9907],[69.6,9990]]",1,0,382.4317,385.5452,59.5833381,1.6194,"[{""rating"":59.58333810170492,""responseTime"":1.6193999999999278}]",space,2.5681,,385.5452,Half the time,50,385.5477,,,[],,,,0,8,8,8,1,audio/Narrative7Situation8.wav,audio/Narrative8Situation8.wav,audio/Narrative5Situation8.wav,audio/Narrative6Situation8.wav,2,3,3,5,,,,,,,,,,,,,,,,,,,,,,,,,,,,,,,,,,,,,
,,,,,,5ba288c63fd80800016308c4,2024-02-08_16h02.51.644,group3.1-3.2-social-tom,2023.2.2,Win32,60.60606061,65c5074098b851296ff0b7ed,65c5416290604e9c805907ba,,,,,,,,,,,,,,,,,,,,,,,,,,,,,385.548,1,audio/Narrative7Situation9.wav,387.5601,,387.5601,396.202,"[[999,0],[999,82],[999,166],[999,249],[999,332],[999,415],[999,499],[999,582],[999,665],[55,748],[54.1,832],[53.6,915],[52.5,998],[52,1081],[52,1165],[52,1248],[52,1331],[50.8,1414],[49.6,1498],[48.5,1581],[48.1,1664],[46.5,1747],[46.3,1831],[45.9,1914],[45.9,1998],[45.9,2081],[45.9,2164],[45.9,2247],[45.9,2331],[45.9,2414],[45.7,2497],[45.1,2580],[45.1,2663],[45.1,2747],[45.1,2830],[46.4,2913],[46.4,2997],[46.4,3079],[46.4,3163],[46.4,3246],[46.4,3330],[46.4,3413],[46.4,3496],[47.2,3579],[50.1,3662],[54.1,3745],[60.7,3829],[66.6,3912],[72.9,3995],[79.2,4079],[79.5,4162],[80.6,4245],[80.9,4328],[80.9,4412],[80.9,4495],[80.9,4578],[80.9,4661],[80.9,4745],[80.9,4828],[80.9,4911],[80.9,4995],[80.9,5078],[80.9,5161],[80.9,5244],[80.9,5327],[80.9,5410],[80.9,5494],[80.9,5578],[80.9,5660],[80.9,5744],[80.9,5827],[80.9,5911],[80.9,5994],[80.9,6077],[80.9,6160],[80.9,6244],[80.9,6326],[80.9,6410],[80.9,6493],[80.9,6576],[80.9,6660],[80.9,6743],[80.9,6826],[80.9,6910],[80.9,6992],[80.9,7076],[80.9,7159],[80.9,7242],[80.9,7325],[80.9,7409],[80.9,7492],[80.9,7576],[80.9,7659],[80.9,7742],[80.9,7825],[80.9,7908],[80.9,7992],[80.9,8075],[80.9,8158],[80.9,8242],[80.9,8325],[80.9,8408],[80.9,8491],[80.9,8575]]",1,0,396.202,398.15,80.93750477,0.6333,"[{""rating"":80.93750476837158,""responseTime"":0.6333000000002471}]",space,1.4078,,398.1501,All the time,100,398.1525,,,[],,,,0,9,9,9,1,audio/Narrative7Situation9.wav,audio/Narrative8Situation9.wav,audio/Narrative5Situation9.wav,audio/Narrative6Situation9.wav,2,3,3,4,,,,,,,,,,,,,,,,,,,,,,,,,,,,,,,,,,,,,
,,,,,,5ba288c63fd80800016308c4,2024-02-08_16h02.51.644,group3.1-3.2-social-tom,2023.2.2,Win32,60.60606061,65c5074098b851296ff0b7ed,65c5416290604e9c805907ba,,,,,,,,,,,,,,,,,,,,,,,,,,,,,398.153,1,audio/Narrative8Situation1.wav,403.1616,,403.1618,419.0804,"[[73.2,832],[71.3,915],[69.4,998],[68.6,1082],[66.9,1165],[62.4,1248],[51.9,1331],[44.9,1415],[40.9,1499],[40.9,1581],[40.9,1665],[40.9,1748],[40.9,1831],[40.9,1914],[40.9,1998],[40.9,2081],[40.9,2164],[40.9,2247],[40.9,2331],[40.9,2414],[40.9,2497],[40.9,2580],[40.5,2663],[40.5,2747],[40.5,2830],[40.5,2913],[40.5,2996],[40.5,3080],[40.5,3164],[41.1,3246],[41.1,3330],[40.5,3413],[37.1,3496],[36.1,3580],[35.2,3663],[32.2,3746],[27.9,3829],[23.4,3912],[20.2,3995],[12.8,4079],[12.8,4162],[12.8,4245],[8.8,4329],[8.4,4412],[5.6,4495],[5.3,4579],[5.3,4662],[5.3,4745],[5.4,4828],[5.5,4912],[5.5,4995],[5.5,5078],[5.5,5161],[5.5,5245],[5.5,5328],[5.5,5411],[5.5,5494],[5.5,5577],[5.5,5661],[5.5,5744],[5.5,5827],[5.5,5911],[5.5,5995],[5.5,6077],[5.5,6161],[5.5,6244],[5.5,6327],[5.5,6410],[5.5,6494],[5.5,6576],[5.5,6660],[5.5,6744],[5.5,6826],[5.5,6910],[5.5,6993],[5.5,7076],[5.5,7160],[5.5,7243],[5.5,7326],[5.5,7409],[5.5,7493],[5.5,7575],[5.5,7659],[5.5,7742],[5.5,7825],[5.5,7909],[5.5,7992],[5.5,8076],[5.5,8159],[5.5,8242],[5.5,8325],[5.5,8408],[5.5,8491],[5.5,8575],[5.5,8658],[5.5,8742],[5.5,8824],[5.5,8908],[5.5,8991],[5.5,9074],[5.5,9158],[5.5,9241],[5.5,9324],[5.5,9407],[5.5,9491],[5.5,9574],[5.5,9657],[5.5,9740],[5.5,9823],[5.5,9907],[5.5,9991],[5.5,10073],[5.5,10157],[5.5,10240],[5.5,10324],[5.5,10406],[5.5,10490],[5.5,10573],[5.5,10656],[5.5,10739],[5.5,10823],[5.5,10906],[5.5,10989],[5.5,11072],[5.5,11156],[5.5,11239],[5.5,11323],[5.5,11406],[5.5,11489],[5.5,11573],[5.5,11656],[5.5,11738],[5.5,11822],[5.5,11905],[5.5,11988],[5.5,12072],[5.5,12155],[5.5,12238],[7,12321],[7,12405],[7,12488],[7,12571],[7,12655],[7,12738],[8.2,12821],[10.2,12904],[14.1,12988],[15.9,13071],[16.4,13154],[18.5,13237],[23.2,13320],[25.8,13404],[28.6,13487],[31.5,13570],[33.8,13653],[35.7,13736],[38.8,13820],[40.8,13903],[44.9,13986],[46.9,14069],[48.4,14153],[49.9,14236],[52.7,14319],[54.7,14403],[61.4,14486],[65.4,14569],[67.5,14652],[69.8,14735],[70.7,14819],[71.8,14902],[71.7,14986],[71.6,15069],[71.4,15152],[70.2,15236],[70.2,15319],[70.2,15402],[70.2,15485],[70.2,15568],[70.2,15651],[70.2,15735],[70.2,15818],[70.2,15901]]",1,0,419.0806,424.1089,46.97916508,3.22,"[{""rating"":46.97916507720947,""responseTime"":3.2199999999999704}]",space,4.4809,,424.1089,Not at all,0,424.1121,,,[],,,,0,10,10,10,1,audio/Narrative8Situation1.wav,audio/Narrative7Situation1.wav,audio/Narrative6Situation1.wav,audio/Narrative5Situation1.wav,5,2,2,5,,,,,,,,,,,,,,,,,,,,,,,,,,,,,,,,,,,,,
,,,,,,5ba288c63fd80800016308c4,2024-02-08_16h02.51.644,group3.1-3.2-social-tom,2023.2.2,Win32,60.60606061,65c5074098b851296ff0b7ed,65c5416290604e9c805907ba,,,,,,,,,,,,,,,,,,,,,,,,,,,,,424.1123,1,audio/Narrative8Situation2.wav,427.1228,,427.1228,437.2468,"[[999,0],[999,83],[999,166],[999,249],[999,332],[999,416],[999,499],[999,582],[999,665],[999,749],[999,832],[999,915],[999,998],[999,1082],[999,1165],[999,1248],[999,1331],[999,1415],[45.7,1498],[45.1,1581],[44.4,1664],[44.3,1748],[44.3,1831],[44.3,1915],[44.3,1997],[44.3,2081],[44.3,2164],[44.3,2248],[44.3,2331],[44.3,2414],[44.5,2497],[44.9,2580],[44.9,2664],[44.9,2747],[45.2,2830],[45.6,2913],[45.7,2997],[45.7,3080],[46.4,3163],[47.8,3246],[48.8,3330],[48.8,3413],[49.2,3496],[49.2,3580],[49.2,3663],[49.2,3746],[49.2,3829],[50.8,3912],[52.4,3996],[53.6,4079],[54.6,4162],[55.9,4245],[56.5,4329],[56.5,4413],[56.5,4495],[54.8,4578],[53.7,4662],[53.7,4745],[53.7,4828],[49.4,4912],[48.9,4995],[48.1,5078],[48,5162],[45.5,5245],[42.8,5328],[39.4,5411],[36,5494],[30.1,5577],[30.1,5662],[28.2,5744],[26.3,5828],[21.9,5910],[21,5994],[21,6077],[20.4,6160],[20.4,6244],[20.4,6327],[20.4,6411],[20.4,6493],[20.4,6577],[20.4,6660],[20.4,6743],[20.4,6826],[20.4,6910],[20.4,6993],[20.4,7076],[20.4,7159],[20.4,7243],[20.4,7326],[20.4,7409],[20.4,7493],[20.9,7576],[21,7659],[21,7743],[21,7825],[23.8,7909],[29.6,7992],[34,8075],[34.6,8158],[34.6,8242],[34.6,8325],[34.6,8408],[34.6,8492],[34.6,8575],[36.6,8658],[38.5,8742],[38.5,8824],[38.5,8908],[38.5,8992],[38.5,9075],[38.5,9157],[38.5,9241],[38.5,9324],[38.5,9407],[38.5,9491],[38.5,9574],[38.5,9657],[38.5,9741],[38.5,9824],[38.5,9907],[38.5,9990],[38.5,10074]]",1,0,437.2469,440.0273,43.85416508,1.2443,"[{""rating"":43.85416507720947,""responseTime"":1.2442999999998392}]",space,2.2329,,440.0275,Not at all,0,440.0284,,,[],,,,0,11,11,11,1,audio/Narrative8Situation2.wav,audio/Narrative7Situation2.wav,audio/Narrative6Situation2.wav,audio/Narrative5Situation2.wav,3,3,3,3,,,,,,,,,,,,,,,,,,,,,,,,,,,,,,,,,,,,,
,,,,,,5ba288c63fd80800016308c4,2024-02-08_16h02.51.644,group3.1-3.2-social-tom,2023.2.2,Win32,60.60606061,65c5074098b851296ff0b7ed,65c5416290604e9c805907ba,,,,,,,,,,,,,,,,,,,,,,,,,,,,,440.0287,1,audio/Narrative8Situation3.wav,444.0403,,444.0403,466.4362,"[[999,5],[999,83],[999,166],[999,250],[999,333],[999,416],[999,499],[46.8,582],[46.8,665],[46.8,749],[45.1,832],[40.3,915],[39.5,998],[38.4,1082],[38.4,1165],[38.4,1249],[38.4,1332],[38.4,1415],[38.4,1498],[38.4,1581],[38.4,1665],[37.8,1747],[37.8,1831],[41.6,1914],[44.9,1997],[48.4,2081],[55.6,2164],[60.5,2247],[69.5,2330],[74.3,2414],[76.8,2497],[79,2580],[85.4,2663],[85.4,2746],[85.4,2830],[85.7,2913],[89.1,2996],[89.6,3080],[89.6,3164],[89.6,3247],[90.6,3329],[90.8,3413],[90.9,3496],[91.1,3579],[91.1,3663],[91.1,3746],[91.1,3829],[91.1,3913],[91.1,3996],[91.1,4079],[91.1,4162],[91.1,4246],[91.1,4329],[91.1,4412],[91.1,4495],[91.1,4578],[91.1,4662],[91.1,4745],[91.1,4828],[91.1,4912],[91.1,4995],[91.1,5078],[91.1,5161],[91.1,5245],[91.1,5328],[91.1,5411],[91.1,5495],[91.1,5578],[91.1,5661],[91.1,5744],[91.1,5827],[91.1,5911],[91.1,5994],[91.1,6077],[91.1,6161],[91.1,6244],[91.1,6327],[91.1,6410],[91.1,6494],[91.1,6577],[91.1,6660],[91.1,6743],[92.5,6826],[92.6,6910],[93.4,6992],[93.5,7077],[93.5,7160],[93.5,7243],[93.5,7326],[93.5,7409],[93.5,7492],[93.5,7576],[93.6,7659],[95.2,7742],[95.3,7825],[95.3,7909],[95.3,7992],[95.3,8075],[95.3,8159],[95.3,8242],[95.3,8325],[95.3,8409],[95.3,8492],[95.3,8575],[95.3,8658],[95.3,8741],[95.3,8825],[95.3,8907],[95.3,8991],[95.3,9074],[95.3,9158],[95.3,9241],[95.3,9324],[95.3,9407],[95.3,9491],[95.3,9574],[95.3,9657],[95.3,9741],[95.3,9824],[95.3,9907],[95.3,9990],[95.3,10074],[95.3,10157],[95.3,10240],[95.3,10323],[95.3,10407],[95.3,10490],[95.3,10573],[95.3,10656],[95.3,10739],[95.3,10823],[95.3,10906],[95.3,10989],[95.3,11073],[95.3,11156],[95.3,11239],[95.3,11322],[95.3,11406],[95.3,11489],[95.3,11572],[95.3,11656],[95.3,11738],[95.3,11822],[95.3,11905],[95.3,11988],[95.3,12072],[95.3,12155],[95.3,12238],[95.3,12321],[95.3,12405],[95.3,12488],[95.3,12571],[95.3,12655],[95.3,12738],[95.3,12821],[95.3,12904],[95.3,12987],[95.3,13071],[95.3,13154],[95.3,13237],[95.3,13320],[95.3,13404],[95.3,13487],[95.3,13570],[95.3,13654],[95.3,13737],[95.3,13820],[95.3,13903],[95.3,13986],[95.3,14070],[95.3,14153],[94.4,14236],[92.9,14319],[92.3,14403],[91.6,14486],[91.3,14569],[91,14652],[91,14736],[89.9,14818],[89.9,14902],[89.8,14985],[89.8,15069],[89.8,15152],[89.8,15235],[89.8,15319],[89.8,15402],[89.8,15485],[89.8,15568],[89.8,15651],[89.8,15735],[89.8,15818],[89.8,15901],[89.8,15985],[89.8,16068],[89.8,16151],[89.8,16235],[89.8,16317],[89.8,16401],[89.8,16484],[89.8,16567],[89.8,16651],[89.8,16734],[89.8,16817],[89.8,16900],[89.8,16984],[89.8,17067],[89.8,17150],[89.8,17233],[89.8,17317],[89.8,17400],[89.8,17483],[89.8,17566],[89.8,17650],[89.8,17733],[89.8,17816],[89.8,17900],[89.8,17983],[89.8,18066],[89.8,18149],[89.8,18232],[89.8,18316],[89.8,18399],[89.2,18482],[86.7,18565],[83.6,18648],[81.4,18732],[77.6,18815],[76.7,18898],[75,18981],[74.4,19065],[74.3,19148],[74.3,19231],[74.3,19315],[74.3,19398],[74.3,19481],[74.3,19565],[74.3,19648],[74.3,19732],[74.3,19815],[74.3,19897],[74.3,19980],[74.3,20064],[74.3,20147],[74.3,20230],[74.3,20314],[74.3,20397],[74.3,20480],[74.3,20564],[74.3,20647],[74.3,20730],[74.3,20814],[74.3,20896],[74.3,20980],[74.3,21063],[74.3,21146],[74.3,21229],[74.3,21313],[74.3,21396],[74.3,21480],[74.3,21563],[74.3,21646],[74.3,21729],[74.3,21812],[74.3,21896],[74.3,21978],[74.3,22062],[74.3,22145],[74.3,22229],[74.3,22312],[74.3,22395]]",1,0,466.4364,470.4661,82.70833492,1.8855,"[{""rating"":82.70833492279053,""responseTime"":1.885500000000036}]",space,3.4818,,470.4661,Not at all,0,470.4673,,,[],,,,0,12,12,12,1,audio/Narrative8Situation3.wav,audio/Narrative7Situation3.wav,audio/Narrative6Situation3.wav,audio/Narrative5Situation3.wav,4,8,5,3,,,,,,,,,,,,,,,,,,,,,,,,,,,,,,,,,,,,,
,,,,,,5ba288c63fd80800016308c4,2024-02-08_16h02.51.644,group3.1-3.2-social-tom,2023.2.2,Win32,60.60606061,65c5074098b851296ff0b7ed,65c5416290604e9c805907ba,,,,,,,,,,,,,,,,,,,,,,,,,,,,,470.4674,1,audio/Narrative8Situation4.wav,473.4793,,473.4793,487.6489,"[[999,0],[999,83],[999,166],[999,249],[999,333],[999,416],[999,499],[999,583],[999,666],[999,749],[999,832],[999,916],[999,999],[999,1082],[999,1165],[999,1248],[999,1331],[999,1415],[999,1498],[999,1581],[44.2,1664],[44.2,1748],[43.8,1831],[43.1,1914],[43.1,1998],[43.1,2082],[43.1,2165],[43.2,2247],[45.2,2330],[45.4,2414],[45.4,2498],[45.3,2580],[42.3,2663],[38,2747],[32.5,2830],[29,2913],[26.9,2997],[19.5,3080],[19.1,3163],[19.1,3247],[17.7,3330],[15.2,3413],[15.2,3496],[15.2,3579],[15.2,3662],[15.2,3746],[15.2,3829],[15.2,3913],[15.2,3996],[15.2,4079],[15.2,4162],[15.2,4245],[15.2,4329],[15.2,4412],[15.2,4496],[15.2,4578],[15.1,4662],[15.1,4746],[15.1,4828],[15.1,4912],[15.1,4995],[15.1,5078],[14.2,5161],[12.6,5244],[8.5,5328],[7.1,5411],[7.1,5494],[7,5579],[6.4,5661],[6,5744],[5.4,5828],[5.4,5911],[5.4,5994],[5.4,6077],[5.4,6161],[5.4,6244],[5.4,6327],[5.4,6410],[5.4,6493],[6.6,6576],[6.6,6660],[6.6,6743],[6.6,6826],[6.6,6910],[6.8,6993],[7,7076],[7,7159],[7,7243],[7,7326],[7,7409],[7,7493],[7,7576],[7,7659],[9.3,7742],[9.3,7826],[9.3,7909],[9.3,7992],[9.3,8076],[9.3,8158],[9.3,8242],[9.3,8326],[9.3,8408],[9.3,8492],[9.4,8575],[12.4,8658],[12.9,8741],[13.9,8824],[21,8908],[25.5,8991],[31.1,9074],[35.8,9157],[42.7,9241],[45.5,9324],[47.2,9407],[50.9,9490],[54.3,9574],[57.2,9657],[61.4,9740],[61.8,9824],[61.8,9907],[61.8,9990],[61.8,10073],[61.8,10157],[61.8,10240],[61.8,10323],[61.8,10407],[61.8,10490],[61.8,10573],[61.8,10656],[61.8,10739],[61.8,10823],[61.8,10906],[61.8,10989],[61.8,11073],[64,11156],[66.1,11239],[68.8,11322],[71.1,11405],[74.2,11488],[75.2,11572],[77.4,11655],[78,11738],[78,11822],[78.3,11905],[78.3,11988],[78.3,12072],[78.3,12155],[78.3,12238],[78.3,12322],[78.3,12405],[78.3,12488],[78.3,12571],[78.3,12654],[78.3,12738],[78.3,12821],[78.3,12904],[78.3,12988],[78.3,13071],[78.3,13154],[78.3,13237],[78.3,13320],[78.3,13404],[78.3,13487],[78.3,13570],[78.3,13654],[78.3,13737],[78.3,13820],[78.3,13903],[78.3,13986],[78.3,14070],[78.3,14153]]",1,0,487.6491,491.0794,49.79166985,1.8214,"[{""rating"":49.791669845581055,""responseTime"":1.8214000000003807}]",space,2.8881,,491.0794,All the time,100,491.0822,,,[],,,,0,13,13,13,1,audio/Narrative8Situation4.wav,audio/Narrative7Situation4.wav,audio/Narrative6Situation4.wav,audio/Narrative5Situation4.wav,3,3,2,1,,,,,,,,,,,,,,,,,,,,,,,,,,,,,,,,,,,,,
,,,,,,5ba288c63fd80800016308c4,2024-02-08_16h02.51.644,group3.1-3.2-social-tom,2023.2.2,Win32,60.60606061,65c5074098b851296ff0b7ed,65c5416290604e9c805907ba,,,,,,,,,,,,,,,,,,,,,,,,,,,,,491.0824,1,audio/Narrative8Situation5.wav,493.0941,,493.0941,501.3371,"[[999,0],[999,83],[999,166],[999,250],[999,332],[999,416],[999,500],[999,582],[999,666],[999,749],[999,832],[999,915],[999,998],[999,1082],[999,1165],[999,1248],[999,1331],[31.7,1415],[30.4,1498],[29.8,1582],[29.1,1665],[29.1,1748],[29.1,1831],[29.1,1915],[29.1,1998],[29.1,2081],[29.1,2164],[29.1,2248],[29.1,2331],[29.1,2414],[29.1,2498],[29.1,2581],[29.1,2664],[29.1,2747],[31.1,2830],[35.5,2913],[42.8,2997],[45.2,3080],[49.9,3164],[53.9,3246],[59.4,3330],[62.6,3413],[65.5,3496],[69.2,3579],[69.2,3663],[69.2,3746],[69.2,3830],[69.2,3913],[69.2,3996],[69.2,4079],[69.2,4162],[69.2,4246],[69.2,4329],[69.2,4412],[69.2,4495],[69.2,4579],[69.2,4662],[69.2,4746],[69.2,4829],[69.2,4912],[69.2,4995],[70,5078],[70.5,5162],[70.5,5244],[72.3,5328],[73.9,5411],[74.9,5495],[75.9,5578],[76.9,5661],[76.9,5744],[76.9,5828],[76.9,5911],[76.9,5994],[76.9,6077],[76.9,6161],[76.9,6244],[76.9,6327],[76.9,6411],[76.9,6494],[76.9,6577],[76.9,6660],[76.9,6743],[76.9,6827],[77,6910],[77,6994],[77,7077],[77,7159],[77,7243],[77,7326],[77,7410],[77,7494],[77,7576],[77,7659],[77,7743],[77,7826],[77,7909],[77,7992],[77,8075],[77.2,8158],[77.6,8242]]",1,0,501.3371,504.2342,79.37500477,1.3853,"[{""rating"":79.37500476837158,""responseTime"":1.3853000000003135}]",space,2.3498,,504.2342,All the time,100,504.2356,,,[],,,,0,14,14,14,1,audio/Narrative8Situation5.wav,audio/Narrative7Situation5.wav,audio/Narrative6Situation5.wav,audio/Narrative5Situation5.wav,2,5,2,5,,,,,,,,,,,,,,,,,,,,,,,,,,,,,,,,,,,,,
,,,,,,5ba288c63fd80800016308c4,2024-02-08_16h02.51.644,group3.1-3.2-social-tom,2023.2.2,Win32,60.60606061,65c5074098b851296ff0b7ed,65c5416290604e9c805907ba,,,,,,,,,,,,,,,,,,,,,,,,,,,,,504.2361,1,audio/Narrative8Situation6.wav,506.249,,506.249,512.7265,"[[999,0],[999,82],[999,166],[999,249],[999,332],[999,416],[999,499],[999,582],[999,665],[999,749],[999,831],[999,915],[999,998],[999,1082],[999,1165],[999,1248],[999,1331],[999,1414],[59.7,1498],[53.1,1581],[49.3,1664],[48.1,1748],[48,1831],[47.9,1914],[47.6,1998],[47.6,2081],[47.6,2163],[47.6,2247],[47.6,2331],[47.6,2414],[47.6,2497],[47.6,2580],[47.6,2664],[47.6,2747],[47.6,2830],[47.6,2913],[47.4,2996],[46.4,3079],[44.7,3163],[44.4,3246],[44.4,3330],[44.4,3413],[45,3496],[45.8,3580],[45.8,3662],[45.8,3746],[45.8,3829],[47.4,3912],[48.8,3996],[48.9,4079],[49.5,4161],[49.9,4245],[49.9,4328],[49.9,4412],[49.9,4495],[49.9,4578],[49.9,4662],[49.9,4745],[49.9,4828],[49.9,4912],[49.9,4995],[49.9,5078],[49.9,5161],[49.9,5245],[49.9,5328],[49.9,5411],[49.9,5494],[49.9,5577],[49.9,5661],[49.9,5744],[49.9,5827],[49.9,5910],[49.9,5994],[49.9,6077],[49.9,6160],[49.9,6243],[49.9,6326],[49.9,6410]]",1,0,512.7265,516.3561,47.81250159,1.9553,"[{""rating"":47.8125015894572,""responseTime"":1.9553000000003067}]",space,3.0925,,516.3562,Half the time,50,516.3586,,,[],,,,0,15,15,15,1,audio/Narrative8Situation6.wav,audio/Narrative7Situation6.wav,audio/Narrative6Situation6.wav,audio/Narrative5Situation6.wav,2,3,2,3,,,,,,,,,,,,,,,,,,,,,,,,,,,,,,,,,,,,,
,,,,,,5ba288c63fd80800016308c4,2024-02-08_16h02.51.644,group3.1-3.2-social-tom,2023.2.2,Win32,60.60606061,65c5074098b851296ff0b7ed,65c5416290604e9c805907ba,,,,,,,,,,,,,,,,,,,,,,,,,,,,,516.3588,1,audio/Narrative8Situation7.wav,519.3701,,519.3701,531.4584,"[[999,0],[999,82],[999,166],[999,249],[999,332],[999,415],[999,499],[999,582],[999,665],[999,749],[999,831],[999,915],[999,998],[999,1081],[999,1165],[999,1248],[999,1331],[999,1414],[999,1498],[999,1581],[999,1664],[999,1747],[45.8,1831],[45.7,1914],[47.3,1997],[47.7,2080],[47.8,2164],[47.8,2248],[47.8,2330],[47.8,2414],[48.4,2497],[48.6,2580],[48.6,2663],[45.6,2746],[40.3,2830],[34.7,2913],[34.6,2997],[31.1,3079],[27.7,3163],[26.4,3246],[26.4,3329],[26.4,3413],[26.4,3496],[26.4,3579],[26.4,3662],[25.7,3745],[25.6,3829],[25.6,3912],[25.6,3995],[25.6,4079],[25.6,4162],[25.6,4245],[25.6,4328],[25.6,4412],[25.6,4495],[25.6,4578],[25.6,4662],[25.6,4745],[25.6,4828],[25.6,4911],[25.6,4995],[25.6,5078],[25.6,5161],[25.6,5244],[25.6,5327],[25.6,5411],[25.6,5494],[25.6,5578],[25.6,5661],[25.6,5744],[25.6,5827],[25.6,5910],[25.6,5994],[25.6,6077],[25.6,6160],[25.6,6243],[25.6,6326],[25.6,6410],[25.6,6493],[25.6,6576],[25.6,6660],[25.6,6743],[25.6,6826],[25.6,6909],[25.6,6993],[25.6,7076],[25.6,7159],[25.6,7243],[24.6,7325],[20,7409],[18.6,7492],[12.8,7575],[10.7,7658],[7.6,7742],[7.2,7826],[6.7,7908],[6.7,7992],[6.7,8076],[6.7,8158],[6.7,8242],[6.7,8325],[6.7,8408],[6.7,8491],[6.7,8575],[6.7,8658],[6.7,8740],[6.7,8824],[6.7,8907],[6.7,8991],[6.7,9074],[6.6,9157],[6.6,9240],[6.6,9324],[6.6,9407],[6.6,9490],[6.6,9574],[6.6,9657],[6.6,9740],[6.6,9823],[6.6,9907],[6.6,9990],[7,10074],[15,10156],[26.6,10239],[43.9,10323],[53,10406],[55.9,10489],[59.2,10572],[59.7,10655],[61,10739],[64.6,10822],[65.6,10906],[66.1,10989],[66.2,11072],[66.5,11155],[68.4,11238],[69.2,11322],[69.8,11406],[69.8,11488],[69.8,11572],[69.8,11655],[69.8,11738],[69.8,11822],[69.8,11905],[69.8,11988],[69.8,12071]]",1,0,531.4585,536.2377,40.93750318,3.4673,"[{""rating"":40.93750317891438,""responseTime"":3.4672999999997955}]",space,4.2306,,536.2377,Not at all,0,536.2393,,,[],,,,0,16,16,16,1,audio/Narrative8Situation7.wav,audio/Narrative7Situation7.wav,audio/Narrative6Situation7.wav,audio/Narrative5Situation7.wav,3,5,5,4,,,,,,,,,,,,,,,,,,,,,,,,,,,,,,,,,,,,,
,,,,,,5ba288c63fd80800016308c4,2024-02-08_16h02.51.644,group3.1-3.2-social-tom,2023.2.2,Win32,60.60606061,65c5074098b851296ff0b7ed,65c5416290604e9c805907ba,,,,,,,,,,,,,,,,,,,,,,,,,,,,,536.2395,1,audio/Narrative8Situation8.wav,539.2512,,539.2512,552.1052,"[[999,0],[999,83],[999,166],[999,249],[999,333],[999,416],[999,499],[999,583],[999,665],[999,749],[999,832],[999,916],[999,999],[999,1082],[999,1165],[999,1248],[999,1332],[999,1415],[999,1498],[999,1582],[999,1665],[999,1748],[999,1831],[999,1914],[999,1998],[999,2081],[999,2164],[999,2247],[999,2331],[999,2414],[999,2497],[999,2580],[999,2664],[999,2747],[999,2830],[999,2913],[999,2997],[999,3080],[999,3163],[999,3247],[999,3330],[999,3413],[999,3496],[999,3580],[999,3663],[48.2,3746],[48.2,3829],[46.9,3912],[43.9,3995],[41.4,4079],[41.2,4162],[39.3,4245],[36.5,4329],[34,4412],[32.6,4495],[32.5,4579],[32.5,4662],[32.5,4745],[32.5,4828],[32.5,4912],[32.5,4995],[32.3,5078],[33.3,5161],[35.3,5244],[35.7,5328],[35.7,5412],[35.7,5494],[35.7,5578],[36.1,5661],[38.1,5744],[42.8,5827],[45.9,5910],[51.9,5994],[53,6077],[56.9,6160],[65.4,6243],[70.3,6327],[70.9,6410],[71.7,6493],[72.3,6576],[72.3,6660],[73.1,6743],[73.5,6826],[75.1,6909],[76.8,6993],[76.8,7076],[77.8,7159],[78.5,7242],[78.5,7326],[78.5,7409],[78.5,7493],[78.5,7576],[78.5,7659],[78.5,7742],[78.5,7826],[78.5,7909],[78.5,7992],[78.5,8075],[78.5,8159],[78.5,8242],[78.5,8325],[78.5,8408],[78.5,8492],[78.5,8575],[78.5,8658],[78.5,8741],[78.5,8825],[78.5,8908],[78.5,8991],[78.5,9074],[78.5,9157],[78.5,9241],[78.5,9324],[78.5,9407],[78.5,9491],[78.5,9574],[78.5,9657],[78.5,9741],[78.5,9824],[78.5,9907],[78.5,9990],[78.5,10074],[80,10157],[80.5,10240],[82.2,10323],[83.1,10407],[83.9,10489],[85.9,10573],[86.4,10656],[88.7,10739],[89,10823],[90,10906],[90.1,10989],[90.1,11072],[90.1,11156],[90.1,11239],[90.1,11322],[90.1,11406],[90.1,11489],[90.1,11572],[90.1,11655],[90.1,11738],[90.1,11822],[90.1,11905],[90.1,11989],[90.1,12072],[90.1,12155],[90.1,12238],[90.1,12321],[90.1,12404],[90.1,12488],[90.1,12571],[90.1,12655],[90.1,12737],[90.1,12821]]",1,0,552.1053,555.1697,81.14583492,1.4081,"[{""rating"":81.14583492279053,""responseTime"":1.408100000000104}]",space,2.5328,,555.1698,Not at all,0,555.171,,,[],,,,0,17,17,17,1,audio/Narrative8Situation8.wav,audio/Narrative7Situation8.wav,audio/Narrative6Situation8.wav,audio/Narrative5Situation8.wav,3,2,5,3,,,,,,,,,,,,,,,,,,,,,,,,,,,,,,,,,,,,,
,,,,,,5ba288c63fd80800016308c4,2024-02-08_16h02.51.644,group3.1-3.2-social-tom,2023.2.2,Win32,60.60606061,65c5074098b851296ff0b7ed,65c5416290604e9c805907ba,,,,,,,,,,,,,,,,,,,,,,,,,,,,,555.1712,1,audio/Narrative8Situation9.wav,558.1834,,558.1834,569.5234,"[[999,6],[999,83],[999,166],[999,249],[999,332],[999,415],[999,499],[999,582],[999,665],[999,749],[999,832],[999,915],[999,998],[999,1082],[999,1165],[51.6,1248],[51.1,1331],[51,1415],[50.9,1498],[50.7,1582],[50.7,1665],[50.6,1748],[47.9,1831],[45.9,1914],[45.9,1998],[45.2,2081],[44.1,2164],[43.2,2247],[43.2,2330],[43.2,2414],[43.2,2497],[43.2,2580],[43.2,2664],[43.2,2747],[43.2,2830],[43.2,2914],[43.2,2997],[44.3,3080],[45.1,3163],[46.1,3247],[47.4,3330],[47.7,3413],[47.9,3497],[47.9,3579],[47.9,3662],[45.2,3746],[40.4,3829],[34.4,3912],[30.3,3996],[29.1,4079],[28.5,4163],[28.5,4246],[28.9,4329],[32.4,4413],[35.1,4495],[39.6,4578],[46.6,4662],[53.2,4745],[57,4828],[57.2,4912],[57.3,4995],[59,5078],[60.4,5161],[62,5245],[62.3,5328],[64.2,5412],[66.1,5494],[66.5,5578],[68.4,5661],[71.7,5744],[74.2,5827],[74.2,5911],[74.2,5994],[74.2,6077],[74.2,6162],[74.2,6244],[74.2,6327],[74.2,6410],[74.2,6494],[74.2,6578],[74.2,6661],[74.2,6745],[74.2,6827],[74.2,6909],[74.2,6993],[74.2,7076],[76.1,7159],[78.6,7243],[82.6,7326],[85.6,7409],[89.5,7492],[89.5,7577],[89.5,7659],[89.5,7743],[89.5,7825],[89.5,7908],[89.5,7992],[89.5,8076],[89.5,8160],[89.5,8242],[89.5,8325],[89.5,8408],[89.5,8492],[89.5,8575],[89.5,8659],[89.5,8741],[89.7,8824],[90.1,8908],[90.1,8992],[90.1,9074],[90.1,9157],[90.1,9242],[90.1,9324],[90.1,9408],[90.1,9492],[90.1,9575],[90.1,9657],[90.1,9740],[90.1,9825],[90.1,9907],[90.1,9990],[90.1,10073],[90.1,10158],[90.1,10241],[90.1,10324],[90.1,10406],[90.1,10491],[90.1,10574],[90.1,10657],[90.1,10740],[90.1,10824],[90.1,10907],[90.1,10990],[90.1,11072],[90.1,11156],[90.1,11240],[90.1,11322]]",1,0,569.5235,573.9184,73.22916985,1.8598,"[{""rating"":73.22916984558105,""responseTime"":1.8598000000002912}]",space,3.8586,,573.9184,All the time,100,573.9214,,,[],,,,0,18,18,18,1,audio/Narrative8Situation9.wav,audio/Narrative7Situation9.wav,audio/Narrative6Situation9.wav,audio/Narrative5Situation9.wav,3,2,4,3,,,,,,,,,,,,,,,,,,,,,,,,,,,,,,,,,,,,,
,,,,,,5ba288c63fd80800016308c4,2024-02-08_16h02.51.644,group3.1-3.2-social-tom,2023.2.2,Win32,60.60606061,65c5074098b851296ff0b7ed,65c5416290604e9c805907ba,,,,,,,,,,,,,,,,,,,,,,,,,,,583.5493,586.1241,586.1351,2,audio/Narrative13Situation2.wav,586.1351,,586.1352,615.8793,"[[999,0],[999,72],[999,155],[999,238],[999,321],[999,405],[999,488],[999,571],[999,655],[999,738],[999,821],[999,904],[999,987],[999,1071],[999,1154],[999,1237],[999,1320],[999,1403],[999,1486],[34.9,1570],[34.6,1653],[35,1736],[35.3,1820],[35.3,1903],[35.4,1987],[35.4,2069],[35.4,2153],[36.7,2236],[37,2319],[37,2402],[37,2486],[29.6,2569],[27.6,2652],[19.6,2735],[17.9,2819],[14.6,2902],[8.5,2985],[8.5,3069],[8.2,3152],[8.2,3235],[8.2,3319],[8.2,3402],[8.2,3485],[8.2,3568],[8.2,3652],[8.2,3735],[8.2,3817],[8.2,3901],[8.2,3985],[8.2,4068],[8.2,4151],[8.2,4234],[8.2,4318],[8.2,4401],[8.2,4484],[8.2,4568],[8.2,4651],[8.2,4734],[8.2,4817],[8.2,4900],[8.2,4984],[8.2,5067],[8.2,5150],[8.2,5233],[8.2,5317],[8.2,5400],[8.2,5483],[8.2,5566],[8.2,5650],[8.2,5733],[8.2,5816],[8.2,5899],[8.2,5983],[8.2,6066],[8.2,6149],[8.2,6233],[8.2,6316],[8.2,6399],[8.2,6482],[8.2,6566],[8.2,6649],[8.1,6732],[8.1,6816],[8.1,6899],[9.1,6981],[14.5,7065],[17.7,7148],[21.4,7231],[21.9,7315],[21.9,7398],[23.2,7481],[26.4,7564],[30.2,7647],[30.3,7731],[30.3,7814],[30.3,7898],[30.3,7981],[30.3,8064],[30.3,8147],[30.3,8231],[30.3,8314],[30.3,8397],[30.3,8480],[30.3,8563],[30.3,8647],[30.3,8730],[30.3,8814],[30.3,8897],[30.3,8980],[30.3,9063],[30.3,9146],[29,9229],[27.1,9313],[24.4,9396],[24.4,9479],[24.4,9563],[24.4,9646],[24.4,9729],[24.4,9812],[24.4,9896],[24.4,9979],[24.4,10062],[25.1,10145],[29.2,10228],[33.9,10312],[37.7,10396],[37.7,10479],[37.7,10562],[37.7,10645],[37.7,10729],[37.7,10812],[37.7,10895],[37.7,10978],[37.7,11061],[37.7,11145],[38.4,11228],[39.9,11311],[41.5,11394],[45.9,11477],[47.3,11560],[49.7,11644],[51,11727],[51,11811],[51,11894],[50.6,11977],[50.4,12060],[49.4,12143],[49.4,12227],[49.4,12310],[47.9,12393],[47.9,12477],[47.9,12560],[47.9,12643],[47.9,12727],[47.9,12810],[45.7,12893],[44.9,12976],[44.1,13059],[43.9,13142],[43,13226],[43,13309],[43,13392],[43,13475],[43,13559],[43,13642],[43,13726],[43,13809],[43,13892],[43,13975],[43,14059],[43,14142],[43,14225],[43,14308],[43,14392],[43,14475],[43,14558],[43,14641],[43,14724],[43,14808],[43,14891],[43,14975],[43,15057],[43,15141],[43,15224],[43,15307],[43,15390],[43,15474],[43,15557],[43,15640],[43,15724],[43,15806],[43,15890],[43,15973],[43,16057],[43,16140],[43,16223],[43,16306],[43,16390],[43,16472],[43,16556],[43,16640],[43,16723],[43,16806],[43,16889],[43,16973],[43,17056],[43,17139],[43,17223],[43,17305],[43,17389],[43,17472],[43,17556],[43,17638],[43,17722],[43,17805],[43,17889],[43,17971],[43,18055],[43,18138],[43,18221],[43,18305],[43,18388],[43,18471],[43,18554],[43,18638],[43,18721],[43,18804],[43,18887],[43,18971],[43,19053],[43,19137],[43,19220],[43,19304],[43,19387],[43,19470],[43.1,19553],[44.1,19636],[44.2,19720],[44.2,19803],[44.2,19886],[44.2,19970],[44.2,20053],[44.2,20136],[44.2,20220],[44.2,20302],[44.2,20386],[44.2,20469],[44.2,20552],[44.2,20636],[43.9,20719],[43.9,20802],[43.9,20886],[45.1,20969],[47,21052],[48.3,21135],[57.5,21218],[61.1,21301],[66.1,21385],[70,21468],[71.8,21551],[73.2,21634],[73.2,21718],[73.2,21801],[72,21884],[70.9,21968],[69.5,22051],[69.5,22134],[69.5,22217],[69.5,22300],[69.5,22383],[69.5,22467],[69.5,22550],[69.5,22634],[69.2,22717],[68.9,22800],[68.9,22883],[68.9,22967],[68.9,23050],[68.9,23133],[68.9,23217],[68.9,23300],[68.9,23383],[68.9,23466],[68.9,23550],[68.9,23633],[68.9,23716],[68.9,23800],[68.9,23882],[68.9,23966],[68.9,24049],[68.9,24132],[68.9,24216],[68.9,24299],[68.9,24382],[68.9,24465],[68.9,24549],[68.9,24632],[68.9,24715],[68.9,24799],[68.9,24882],[68.9,24965],[68.9,25048],[68.9,25132],[68.9,25215],[68.9,25298],[68.9,25382],[68.9,25465],[68.9,25548],[68.9,25631],[68.9,25714],[68.2,25798],[68.2,25881],[68.2,25964],[68.2,26047],[68.2,26130],[68.2,26214],[68.2,26297],[68.2,26380],[68.2,26464],[68.2,26547],[68.2,26630],[68.2,26713],[68.2,26797],[68.2,26880],[68.2,26963],[68.2,27046],[68.2,27130],[68.2,27213],[68.2,27296],[68.2,27380],[68.2,27463],[68.2,27546],[68.2,27629],[68.2,27712],[68.1,27795],[68.1,27879],[68.1,27962],[68.6,28045],[70.1,28128],[70.2,28212],[71.1,28295],[71.1,28378],[71.1,28462],[71.1,28545],[71.1,28628],[71.1,28712],[71.1,28795],[71.1,28878],[71.1,28961],[71.1,29044],[71.1,29127],[71.1,29211],[71.1,29294],[71.1,29377],[71.1,29461],[71.1,29544],[71.1,29627],[71.1,29710]]",1,0,615.8794,615.8805,,,[],,,,615.8805,Not at all,0,615.8829,,,[],,,,0,0,0,0,1,audio/Narrative13Situation2.wav,audio/Narrative13Situation2.wav,audio/Narrative13Situation2.wav,audio/Narrative13Situation2.wav,2,2,2,2,,,573.9219,583.5437,space,9.093,,,,,,,,,,,,,,,,,,,,,,,,,,,,,,,
,,,,,,5ba288c63fd80800016308c4,2024-02-08_16h02.51.644,group3.1-3.2-social-tom,2023.2.2,Win32,60.60606061,65c5074098b851296ff0b7ed,65c5416290604e9c805907ba,,,,,,,,,,,,,,,,,,,,,,,,,,,,,615.8829,2,audio/Narrative5Situation1.wav,620.8916,,620.8916,634.1787,"[[65.1,1331],[62.5,1414],[61.4,1498],[58.8,1581],[58.8,1664],[58.8,1748],[58.8,1831],[58.6,1914],[58.6,1998],[58.6,2081],[58.6,2164],[58.6,2247],[57.7,2330],[54.1,2413],[49.9,2497],[42.7,2580],[28,2663],[13.2,2746],[6.5,2830],[3.8,2913],[1.3,2996],[1.3,3079],[1.9,3163],[1.9,3246],[1.9,3330],[1.9,3413],[1.9,3496],[1.9,3579],[1.9,3663],[1.9,3746],[1.9,3829],[1.9,3913],[1.9,3996],[1.9,4079],[1.9,4163],[1.9,4245],[1.9,4328],[1.9,4412],[1.9,4495],[1.9,4578],[1.9,4662],[1.9,4745],[1.9,4828],[1.9,4911],[1.9,4995],[1.9,5078],[1.9,5161],[1.9,5244],[1.9,5328],[1.9,5411],[1.9,5494],[1.9,5577],[1.9,5661],[1.9,5744],[1.9,5827],[1.9,5911],[1.9,5994],[1.9,6076],[1.9,6160],[2.3,6243],[5.5,6326],[10,6410],[19.4,6493],[27.6,6576],[32.7,6659],[40.6,6743],[45.8,6826],[48.5,6909],[50.2,6993],[52.6,7076],[54.3,7159],[56.3,7242],[57,7326],[60.6,7409],[62.8,7492],[63.8,7575],[65.3,7659],[65.6,7742],[65.8,7825],[65.8,7908],[65.8,7992],[65.8,8075],[65.8,8158],[65.8,8241],[65.8,8325],[65.8,8408],[65.8,8491],[66.1,8574],[67.8,8658],[71.9,8741],[71.9,8824],[71.9,8908],[71.9,8991],[71.9,9074],[71.9,9158],[71.9,9241],[71.9,9324],[71.9,9407],[71.9,9490],[71.9,9574],[71.9,9657],[71.9,9740],[71.9,9823],[71.9,9907],[71.9,9990],[71.9,10074],[71.9,10157],[71.9,10240],[71.9,10324],[72.2,10406],[72.2,10490],[72.2,10573],[74.1,10656],[77.4,10739],[78,10822],[79.9,10906],[80.6,10989],[83.1,11072],[86.6,11155],[86.7,11239],[88.5,11322],[89.8,11405],[90.5,11488],[90.5,11572],[90.5,11655],[90.5,11738],[90.5,11822],[90.5,11905],[90.5,11988],[90.5,12072],[90.5,12155],[90.5,12238],[90.6,12321],[90.6,12404],[90.6,12488],[90.6,12571],[90.6,12654],[90.6,12737],[90.6,12821],[90.6,12904],[90.6,12987],[90.6,13070],[90.6,13154],[90.6,13237]]",1,0,634.1787,637.0096,90.625,0.8652,"[{""rating"":90.625,""responseTime"":0.8652000000001863}]",space,2.2813,,637.0096,Half the time,50,637.0124,,,[],,,,0,1,1,1,1,audio/Narrative7Situation1.wav,audio/Narrative8Situation1.wav,audio/Narrative5Situation1.wav,audio/Narrative6Situation1.wav,2,5,5,2,,,,,,,,,,,,,,,,,,,,,,,,,,,,,,,,,,,,,
,,,,,,5ba288c63fd80800016308c4,2024-02-08_16h02.51.644,group3.1-3.2-social-tom,2023.2.2,Win32,60.60606061,65c5074098b851296ff0b7ed,65c5416290604e9c805907ba,,,,,,,,,,,,,,,,,,,,,,,,,,,,,637.0126,2,audio/Narrative5Situation2.wav,640.0236,,640.0236,669.4963,"[[999,0],[999,83],[999,166],[999,249],[999,332],[999,416],[999,499],[999,582],[999,665],[999,749],[999,832],[52.5,915],[52.5,999],[52.5,1081],[52.5,1165],[52.5,1249],[52.5,1331],[51.8,1415],[51.1,1498],[49.9,1582],[49.6,1664],[49.1,1748],[47.9,1831],[47.9,1915],[47.9,1998],[47.9,2081],[47.9,2163],[50.2,2247],[50.3,2331],[50.3,2413],[50.3,2498],[50.3,2581],[50.3,2664],[50.3,2747],[50.3,2831],[50.3,2913],[50.3,2997],[50,3080],[47.3,3163],[47,3246],[45.5,3329],[41.1,3413],[40.2,3496],[40.2,3580],[40.2,3663],[40.2,3746],[40.2,3829],[40.5,3912],[40.6,3995],[40.6,4079],[40.6,4162],[40.6,4245],[40.6,4329],[40.2,4412],[40.2,4495],[40.2,4579],[40.2,4662],[40.2,4745],[41.4,4828],[44.1,4911],[45.4,4994],[49.4,5078],[49.8,5161],[50.2,5244],[51.1,5328],[51.1,5411],[51.1,5494],[50.6,5578],[50.6,5660],[50.6,5744],[49.6,5827],[49.3,5911],[49.3,5993],[49.3,6077],[49.3,6160],[49.3,6243],[49.3,6327],[49.3,6410],[49.3,6493],[49.3,6577],[49.3,6660],[49.3,6743],[49.3,6826],[49.3,6910],[49.3,6993],[49.3,7076],[49.3,7160],[49.3,7242],[49.3,7326],[49.3,7409],[49.3,7492],[49.3,7576],[49.3,7659],[49.3,7742],[49.3,7825],[49.3,7909],[49.5,7992],[49.5,8075],[49.5,8158],[49.5,8241],[49.5,8325],[49.5,8408],[49.5,8491],[49.5,8575],[49.5,8658],[49.5,8742],[49.5,8824],[49.7,8908],[49.7,8992],[49.7,9074],[49.7,9158],[49.7,9241],[48.3,9324],[47.5,9407],[47.5,9491],[47.5,9574],[45.7,9657],[43.5,9740],[43.5,9824],[43.3,9907],[41.5,9990],[41.5,10074],[41.5,10157],[41.5,10239],[41.5,10323],[41.5,10407],[41.5,10490],[41.5,10573],[41.5,10656],[41.6,10739],[41.7,10822],[41.7,10906],[42,10989],[42.2,11072],[42.6,11155],[42.6,11239],[42.6,11322],[42.6,11405],[42.6,11489],[43.5,11572],[46.6,11655],[47.7,11738],[50.8,11821],[52.2,11905],[52.2,11988],[54.7,12071],[55.6,12154],[55.6,12238],[56,12321],[56.8,12404],[56.8,12488],[56.8,12571],[56.8,12654],[57.9,12737],[59.1,12820],[61.5,12904],[64,12988],[64.4,13071],[64.4,13154],[65.6,13237],[65.6,13320],[65.6,13404],[65.6,13487],[65.6,13570],[65.6,13653],[65.6,13737],[65.6,13820],[66.5,13903],[67,13987],[67.1,14070],[67.7,14152],[68.2,14237],[68.4,14320],[68.4,14402],[68.4,14486],[68.4,14569],[68.4,14652],[68.4,14736],[68.4,14819],[68.4,14902],[68.4,14986],[68.4,15069],[68.4,15152],[68.4,15235],[68.4,15318],[68.4,15402],[68.4,15485],[68.4,15569],[68.4,15652],[68.4,15734],[68.4,15819],[68.4,15902],[68.4,15984],[68.4,16068],[68.4,16151],[68.4,16234],[68.5,16317],[70.4,16400],[71.3,16484],[72.5,16567],[73.6,16650],[76.1,16734],[77.1,16817],[77.1,16901],[76.5,16983],[75.6,17067],[73.5,17150],[73.3,17233],[73.3,17317],[73.3,17400],[71.6,17483],[70.7,17566],[70.7,17650],[70.7,17733],[70.7,17816],[70.7,17899],[70.7,17982],[70.7,18066],[70.7,18149],[70.7,18233],[70.7,18316],[70.7,18398],[70.7,18482],[70.7,18565],[70.7,18649],[70.7,18732],[70.7,18815],[70.7,18899],[70.7,18982],[70.7,19065],[70.7,19148],[70.7,19231],[70.7,19315],[71.3,19398],[74.3,19481],[77.1,19564],[77.1,19647],[77.3,19731],[79,19814],[79,19897],[79,19981],[78.9,20063],[78.9,20148],[78.7,20231],[78.7,20314],[78.7,20397],[78.7,20481],[78.7,20563],[78.7,20647],[78.7,20731],[78.7,20813],[78.7,20897],[78.7,20980],[78.7,21063],[78.7,21147],[78.7,21230],[78.7,21312],[78.7,21396],[78.7,21480],[78.7,21563],[78.7,21646],[78.7,21729],[78.7,21812],[78.7,21895],[78.7,21979],[78.7,22062],[78.7,22145],[78.7,22229],[78.7,22312],[78.7,22395],[78.7,22479],[78.7,22562],[78.7,22645],[78.7,22728],[78.5,22811],[78.5,22894],[78.5,22978],[78.4,23061],[78.4,23145],[78.4,23227],[78.4,23311],[78.4,23394],[78.4,23478],[78.4,23561],[78.4,23644],[78.4,23727],[78.4,23811],[78.4,23894],[78.4,23977],[78.4,24060],[78.4,24144],[78.4,24227],[78.4,24310],[78.4,24394],[78.4,24477],[78.4,24560],[78.4,24644],[78.4,24727],[78.4,24810],[78.4,24893],[78.4,24976],[78.4,25059],[78.4,25142],[78.4,25226],[78.4,25309],[78.4,25392],[78.4,25476],[78.4,25559],[78.4,25642],[78.4,25725],[78.4,25809],[78.4,25892],[78.4,25975],[78.4,26058],[78.4,26141],[78.4,26225],[78.4,26308],[78.4,26392],[78.4,26475],[78.4,26557],[78.4,26642],[78.4,26724],[78.4,26808],[78.4,26891],[78.4,26974],[78.4,27057],[78.4,27141],[78.4,27224],[78.4,27307],[78.4,27390],[78.4,27474],[78.4,27557],[78.4,27640],[78.4,27724],[78.2,27807],[77.4,27890],[77.2,27973],[76.8,28056],[75.7,28139],[75.3,28223],[75.3,28306],[75.3,28390],[75.3,28473],[75.3,28556],[75.3,28640],[75.3,28723],[75.3,28806],[75.3,28890],[75.3,28973],[75.3,29056],[75.3,29139],[75.3,29222],[75.3,29306],[75.3,29389],[75.3,29472]]",1,0,669.4965,673.2426,60.52083174,1.8845,"[{""rating"":60.52083174387614,""responseTime"":1.8845000000000027}]",space,3.2016,,673.2427,Half the time,50,673.2436,,,[],,,,0,2,2,2,1,audio/Narrative7Situation2.wav,audio/Narrative8Situation2.wav,audio/Narrative5Situation2.wav,audio/Narrative6Situation2.wav,3,3,3,3,,,,,,,,,,,,,,,,,,,,,,,,,,,,,,,,,,,,,
,,,,,,5ba288c63fd80800016308c4,2024-02-08_16h02.51.644,group3.1-3.2-social-tom,2023.2.2,Win32,60.60606061,65c5074098b851296ff0b7ed,65c5416290604e9c805907ba,,,,,,,,,,,,,,,,,,,,,,,,,,,,,673.2438,2,audio/Narrative5Situation3.wav,676.2568,,676.2568,690.1763,"[[999,5],[999,82],[999,165],[999,249],[999,332],[999,415],[999,499],[999,582],[999,665],[999,748],[999,831],[999,914],[999,998],[999,1081],[51.7,1164],[51.7,1248],[50.6,1331],[50.3,1414],[50.2,1497],[50.2,1580],[49.7,1664],[49.7,1747],[49.7,1830],[49.7,1914],[49.7,1997],[49.7,2080],[49.7,2164],[49.7,2247],[49.7,2329],[49.7,2413],[49.7,2497],[49.7,2580],[49.7,2663],[49.7,2746],[49.7,2829],[49.7,2913],[49.7,2995],[49.7,3079],[49.7,3163],[49.7,3247],[48.2,3329],[48.2,3412],[48.1,3496],[46.9,3579],[45.8,3662],[45.8,3746],[45.8,3829],[45.8,3912],[45.8,3995],[45.8,4079],[45.8,4161],[45.8,4245],[45.5,4328],[43.6,4411],[43.6,4495],[43.6,4578],[43.6,4661],[43.6,4745],[43.6,4828],[45.8,4911],[45.9,4995],[45.9,5078],[45.9,5161],[45.9,5245],[45.9,5327],[47.2,5410],[47.8,5494],[48.2,5577],[48.2,5661],[48.2,5743],[48.2,5827],[48.2,5910],[48.2,5993],[48.2,6077],[45.6,6160],[44.9,6243],[44.9,6326],[44.9,6410],[45.3,6493],[45.3,6576],[45.3,6659],[45.3,6743],[45.3,6826],[47.6,6909],[47.9,6992],[47.9,7076],[47.9,7159],[47.9,7242],[47.9,7326],[48.1,7408],[48.6,7492],[48.6,7575],[49.4,7658],[49.4,7741],[49.4,7825],[49.4,7908],[49.4,7991],[49.4,8075],[49.4,8159],[49.4,8241],[49.4,8324],[49.4,8408],[49.4,8491],[49.4,8575],[49.4,8658],[49.4,8740],[49.4,8824],[49.4,8907],[49.4,8990],[49.5,9074],[49.5,9157],[49.5,9240],[49.5,9324],[49.5,9407],[49.5,9491],[49.5,9573],[49.5,9657],[49.5,9740],[49.5,9823],[49.5,9907],[49.5,9990],[49.5,10073],[52.5,10156],[52.9,10239],[53.2,10322],[54.3,10405],[56.8,10489],[57,10572],[57,10656],[58.4,10739],[58.9,10822],[58.9,10906],[58.9,10988],[58.9,11072],[58.9,11155],[58.9,11238],[58.9,11322],[58.9,11405],[58.9,11488],[58.9,11572],[58.9,11655],[58.9,11738],[58.9,11821],[58.9,11904],[58.9,11988],[58.9,12071],[58.9,12155],[58.9,12238],[58.9,12321],[58.9,12404],[58.9,12487],[58.9,12570],[58.9,12654],[58.9,12738],[58.9,12821],[58.9,12904],[58.9,12987],[58.9,13071],[58.9,13153],[58.9,13237],[58.9,13320],[58.9,13403],[58.9,13487],[58.9,13569],[58.9,13653],[58.9,13736],[58.9,13819],[58.9,13903]]",1,0,690.1764,693.3565,49.68750477,1.8356,"[{""rating"":49.68750476837158,""responseTime"":1.8356000000001131}]",space,2.6413,,693.3565,All the time,100,693.3593,,,[],,,,0,3,3,3,1,audio/Narrative7Situation3.wav,audio/Narrative8Situation3.wav,audio/Narrative5Situation3.wav,audio/Narrative6Situation3.wav,8,4,3,5,,,,,,,,,,,,,,,,,,,,,,,,,,,,,,,,,,,,,
,,,,,,5ba288c63fd80800016308c4,2024-02-08_16h02.51.644,group3.1-3.2-social-tom,2023.2.2,Win32,60.60606061,65c5074098b851296ff0b7ed,65c5416290604e9c805907ba,,,,,,,,,,,,,,,,,,,,,,,,,,,,,693.3594,2,audio/Narrative5Situation4.wav,694.3732,,694.3732,714.7705,"[[999,0],[999,82],[999,165],[999,249],[999,332],[999,415],[999,498],[999,581],[999,665],[999,748],[999,831],[999,914],[999,998],[49.9,1081],[49.6,1164],[49.2,1247],[49.2,1331],[49.2,1414],[49.2,1498],[49.2,1581],[49.2,1664],[49.2,1747],[49.2,1831],[49.2,1914],[49.2,1997],[49.2,2081],[49.2,2164],[49.2,2247],[49.2,2330],[49.2,2413],[49.2,2497],[49.2,2580],[49.2,2663],[49.2,2746],[49.2,2830],[49.2,2913],[49.2,2996],[49.2,3079],[49.2,3163],[49.2,3246],[49.2,3330],[49.2,3412],[49.2,3495],[49.2,3579],[49.2,3662],[49.2,3745],[49.2,3829],[49.2,3912],[49.2,3995],[49.2,4078],[49.2,4162],[49.2,4245],[49.2,4328],[49.2,4412],[49.2,4494],[49.9,4578],[50.2,4661],[51.1,4744],[54.2,4827],[55.7,4910],[55.7,4994],[55.7,5077],[55.7,5161],[55.7,5244],[55.7,5327],[55.7,5410],[55.7,5494],[55.7,5577],[55.7,5661],[55.7,5744],[55.7,5827],[55.7,5910],[55.7,5994],[55.7,6077],[55.7,6160],[55.7,6243],[55.7,6326],[55.7,6410],[55.7,6493],[57.6,6576],[61.1,6659],[62.1,6742],[63.3,6826],[63.5,6909],[66.4,6992],[66.6,7076],[66.6,7159],[67.6,7242],[68.6,7325],[69.5,7409],[69.5,7492],[70.4,7575],[71.8,7658],[72,7742],[72,7825],[72,7909],[72,7992],[72,8075],[72,8157],[72,8242],[72,8325],[72,8407],[72,8491],[72,8574],[72,8657],[72,8741],[72,8824],[72,8907],[72,8991],[72,9074],[72,9157],[72,9240],[72,9324],[72,9407],[72,9490],[72,9573],[72,9657],[72,9740],[72,9823],[72,9906],[72,9990],[72,10073],[72,10156],[72,10240],[72,10323],[72,10406],[72,10489],[72,10573],[72,10656],[72,10739],[72,10822],[72,10905],[72,10989],[72,11072],[72,11155],[72,11238],[72,11322],[68,11405],[64.8,11488],[61.6,11572],[61.6,11655],[61.6,11738],[61.6,11822],[61.6,11904],[61.6,11988],[61.6,12071],[61.3,12154],[60,12238],[57.1,12321],[56.5,12404],[53.2,12487],[52.4,12570],[51.3,12654],[50.4,12737],[50.4,12820],[50.4,12903],[50.4,12987],[50.4,13071],[50.4,13153],[50.4,13237],[50.4,13320],[50.4,13403],[50.4,13487],[50.4,13570],[50.4,13653],[50.4,13736],[50.4,13819],[50.4,13902],[50.4,13985],[50.4,14068],[50.4,14153],[50.4,14235],[50.4,14319],[50.4,14402],[50.4,14485],[50.4,14569],[50.4,14652],[50.4,14735],[50.4,14818],[50.4,14902],[50.9,14985],[51.1,15068],[51.1,15152],[51.1,15235],[51.6,15318],[54.3,15401],[57.8,15484],[60,15567],[64.4,15651],[65.9,15734],[67.1,15817],[68.6,15900],[69.7,15984],[69.8,16067],[69.8,16151],[69.8,16234],[69.8,16317],[69.8,16400],[69.8,16484],[69.8,16567],[69.8,16651],[69.8,16734],[69.8,16817],[69.8,16900],[69.8,16983],[69.8,17066],[69.8,17150],[69.8,17233],[69.8,17316],[69.8,17400],[69.8,17483],[69.8,17566],[69.8,17650],[69.8,17733],[69.8,17816],[69.8,17899],[69.8,17982],[69.8,18065],[69.8,18149],[69.8,18232],[69.8,18315],[69.8,18398],[69.8,18482],[69.8,18565],[69.8,18648],[69.8,18732],[69.8,18814],[69.8,18898],[69.8,18981],[69.8,19064],[69.8,19148],[69.8,19231],[69.8,19314],[69.8,19398],[69.8,19481],[69.8,19564],[69.8,19647],[69.8,19731],[69.8,19814],[69.8,19897],[69.8,19980],[69.8,20064],[69.8,20147],[69.8,20230],[69.8,20313],[69.8,20397]]",1,0,714.7706,717.5841,65.72916508,1.0709,"[{""rating"":65.72916507720947,""responseTime"":1.0708999999999378}]",space,2.2757,,717.5842,Half the time,50,717.5872,,,[],,,,0,4,4,4,1,audio/Narrative7Situation4.wav,audio/Narrative8Situation4.wav,audio/Narrative5Situation4.wav,audio/Narrative6Situation4.wav,3,3,1,2,,,,,,,,,,,,,,,,,,,,,,,,,,,,,,,,,,,,,
,,,,,,5ba288c63fd80800016308c4,2024-02-08_16h02.51.644,group3.1-3.2-social-tom,2023.2.2,Win32,60.60606061,65c5074098b851296ff0b7ed,65c5416290604e9c805907ba,,,,,,,,,,,,,,,,,,,,,,,,,,,,,717.5873,2,audio/Narrative5Situation5.wav,722.596,,722.596,738.015,"[[999,5],[999,83],[999,166],[999,250],[999,332],[999,416],[999,499],[999,582],[999,665],[999,750],[999,832],[999,915],[44.4,999],[44.4,1082],[44.6,1166],[44.8,1248],[47,1331],[48.3,1415],[48.3,1499],[48.3,1581],[48.3,1665],[48.3,1748],[49.1,1831],[49.2,1915],[49.2,1998],[49.2,2081],[49.2,2165],[49.2,2248],[49.2,2331],[42.9,2414],[39.7,2497],[35.7,2580],[32,2664],[30.9,2747],[30.9,2831],[30.9,2914],[30.9,2998],[30.9,3080],[30.9,3163],[30.9,3247],[30.9,3330],[30.9,3413],[31.4,3496],[31.8,3580],[31.8,3663],[31.8,3746],[31.8,3830],[31.8,3913],[31.8,3996],[35.4,4079],[42.6,4162],[49.9,4245],[53.7,4329],[54.2,4412],[59.2,4495],[61.5,4579],[62.8,4662],[66.1,4745],[70.2,4828],[70.5,4912],[70.6,4995],[70.6,5079],[70.6,5161],[70.8,5245],[70.8,5328],[70.8,5411],[70.8,5495],[70.8,5578],[70.8,5661],[70.8,5744],[70.8,5827],[70.8,5911],[70.8,5994],[70.8,6077],[70.8,6160],[70.8,6245],[70.8,6327],[70.8,6410],[70.8,6494],[70.8,6577],[70.8,6660],[70.8,6743],[70.8,6827],[70.8,6910],[70.8,6993],[70.8,7076],[70.8,7160],[70.8,7243],[70.8,7326],[70.8,7409],[70.8,7493],[70.8,7576],[72.1,7659],[72.8,7742],[73.8,7826],[75.8,7909],[76,7992],[76.6,8075],[79.2,8159],[79.2,8242],[79.6,8326],[79.6,8409],[79.6,8492],[79.6,8575],[79.6,8658],[79.6,8741],[79.6,8825],[79.6,8908],[79.6,8991],[79.6,9075],[79.6,9158],[79.6,9241],[79.6,9325],[79.6,9408],[79.6,9491],[79.6,9574],[79.6,9658],[79.6,9741],[79.6,9824],[79.6,9908],[79.6,9990],[79.6,10073],[82.7,10157],[86.3,10240],[86.3,10323],[86.3,10407],[86.3,10490],[89.4,10573],[90.5,10656],[90.8,10739],[91.1,10823],[91.3,10906],[91.3,10989],[91.3,11072],[91.3,11156],[91.3,11240],[91.3,11322],[91.3,11406],[91.3,11489],[91.3,11572],[91.3,11655],[91.3,11739],[91.3,11822],[91.3,11905],[90.9,11989],[90.9,12072],[90.9,12155],[90.9,12239],[90.9,12321],[90.9,12405],[90.9,12488],[90.9,12571],[90.9,12655],[90.9,12738],[90.9,12821],[90.9,12905],[90.9,12988],[90.9,13071],[90.9,13154],[90.9,13237],[90.9,13321],[90.9,13404],[90.9,13487],[90.9,13570],[90.9,13654],[90.9,13737],[90.9,13820],[90.9,13903],[90.9,13987],[90.9,14070],[90.9,14153],[90.9,14236],[90.9,14320],[90.9,14403],[90.9,14486],[90.9,14570],[90.9,14653],[90.9,14736],[90.9,14819],[90.9,14902],[90.9,14986],[90.9,15070],[90.9,15153],[90.9,15236],[90.9,15319],[90.9,15402]]",1,0,738.0151,740.4963,83.75000954,1.354,"[{""rating"":83.75000953674316,""responseTime"":1.3540000000000418}]",space,1.9354,,740.4964,Half the time,50,740.498,,,[],,,,0,5,5,5,1,audio/Narrative7Situation5.wav,audio/Narrative8Situation5.wav,audio/Narrative5Situation5.wav,audio/Narrative6Situation5.wav,5,2,5,2,,,,,,,,,,,,,,,,,,,,,,,,,,,,,,,,,,,,,
,,,,,,5ba288c63fd80800016308c4,2024-02-08_16h02.51.644,group3.1-3.2-social-tom,2023.2.2,Win32,60.60606061,65c5074098b851296ff0b7ed,65c5416290604e9c805907ba,,,,,,,,,,,,,,,,,,,,,,,,,,,,,740.4985,2,audio/Narrative5Situation6.wav,743.51,,743.51,749.188,"[[999,0],[999,83],[999,166],[999,249],[999,333],[999,416],[999,499],[999,583],[999,665],[999,748],[999,832],[999,915],[999,998],[999,1081],[31.1,1165],[30.1,1248],[28.5,1331],[25.7,1415],[25.4,1498],[25.4,1582],[25.4,1665],[25.4,1747],[25.4,1831],[25.4,1915],[25.4,1998],[25.4,2081],[25.4,2164],[25.4,2247],[25.4,2331],[25.4,2414],[25.4,2497],[25.4,2581],[25.4,2664],[25.4,2747],[25.4,2830],[25.4,2913],[25.4,2997],[25.4,3080],[25.4,3163],[25.4,3247],[25.4,3329],[25.4,3413],[25.4,3497],[25.4,3579],[25.4,3663],[25.4,3745],[25.4,3829],[25.4,3913],[25.4,3995],[25.4,4079],[25.4,4162],[25.4,4245],[25.4,4329],[25.4,4412],[25.4,4495],[25.4,4579],[28.5,4662],[30.6,4745],[36,4828],[45.6,4911],[48.1,4995],[53.3,5078],[55,5161],[56.4,5245],[57.7,5328],[57.7,5411],[57.7,5495],[57.7,5578],[57.7,5661]]",1,0,749.1881,752.086,59.06250477,1.5211,"[{""rating"":59.06250476837158,""responseTime"":1.5211000000001604}]",space,2.3513,,752.086,All the time,100,758.3628,99.79166985,4.5993,"[{""rating"":99.79166984558105,""responseTime"":4.599300000000312}]",space,5.7304,,0,6,6,6,1,audio/Narrative7Situation6.wav,audio/Narrative8Situation6.wav,audio/Narrative5Situation6.wav,audio/Narrative6Situation6.wav,3,2,3,2,,,,,,,,,,,,,,,,,,,,,,,,,,,,,,,,,,,,,
,,,,,,5ba288c63fd80800016308c4,2024-02-08_16h02.51.644,group3.1-3.2-social-tom,2023.2.2,Win32,60.60606061,65c5074098b851296ff0b7ed,65c5416290604e9c805907ba,,,,,,,,,,,,,,,,,,,,,,,,,,,,,758.363,2,audio/Narrative5Situation7.wav,762.3754,,762.3756,783.4055,"[[999,5],[999,83],[999,166],[999,250],[999,333],[999,416],[999,500],[999,582],[999,666],[999,750],[999,832],[999,916],[999,999],[999,1081],[999,1165],[999,1248],[999,1331],[55.9,1415],[51,1498],[49.5,1581],[48.5,1665],[48.3,1748],[48.3,1831],[48.3,1915],[48.3,1998],[48.3,2081],[48.3,2164],[48.3,2248],[48.3,2331],[49.1,2414],[49.5,2498],[49.5,2580],[49.5,2663],[49.5,2748],[49.5,2830],[49.9,2913],[50.2,2996],[50.2,3080],[50.2,3163],[50.3,3247],[50.3,3330],[50.5,3413],[50.5,3496],[50.5,3580],[50.5,3663],[49.4,3746],[42.3,3829],[35.8,3912],[26.1,3995],[26.1,4079],[26.1,4163],[26.1,4246],[26.1,4330],[26.1,4412],[26.1,4496],[26.1,4578],[26.1,4662],[26.1,4746],[26.1,4829],[26.1,4912],[26.1,4995],[26.1,5078],[25.8,5162],[25.7,5245],[25.7,5328],[25.7,5411],[25.7,5495],[25.7,5578],[25.7,5661],[25.7,5745],[25.7,5828],[25.7,5911],[25.7,5994],[25.7,6076],[25.7,6161],[25.7,6243],[25.7,6327],[25.7,6410],[25.7,6494],[25.7,6576],[25.7,6660],[25.7,6743],[25.7,6827],[25.7,6910],[25.7,6993],[25.7,7076],[25.7,7160],[25.7,7243],[25.7,7326],[25.7,7410],[25.7,7492],[25.7,7576],[25.7,7660],[25.7,7742],[25.7,7825],[25.7,7909],[25.7,7992],[25.7,8075],[25.7,8159],[25.7,8242],[25.7,8326],[25.7,8409],[25.7,8492],[25.7,8575],[25.7,8658],[25.7,8741],[25.7,8825],[25.7,8909],[25.7,8991],[25.7,9074],[25.7,9158],[25.7,9241],[25.7,9324],[27.1,9407],[28.4,9491],[29.5,9574],[32.3,9657],[34.6,9740],[35.3,9824],[35.6,9906],[38.1,9990],[39.9,10073],[42.6,10156],[44.6,10240],[46.7,10323],[48.9,10406],[49.2,10489],[49.2,10572],[49.2,10656],[49.2,10740],[49.2,10823],[49.2,10906],[49.2,10990],[49.2,11072],[49.2,11156],[49.2,11240],[49.2,11322],[49.2,11406],[49.2,11489],[49.2,11573],[49.5,11655],[50.8,11738],[54.7,11822],[55.2,11905],[55.2,11989],[59.2,12071],[59.2,12155],[59.2,12238],[60.8,12321],[62.5,12405],[62.5,12488],[62.5,12571],[62.5,12655],[62.5,12738],[62.5,12821],[62.5,12904],[62.5,12988],[62.5,13071],[62.5,13154],[62.5,13237],[62.5,13320],[62.5,13404],[62.5,13487],[62.5,13570],[62.5,13654],[62.5,13737],[62.5,13820],[62.5,13903],[62.5,13987],[62.5,14070],[62.5,14153],[62.5,14236],[62.5,14320],[62.5,14403],[62.5,14486],[62.5,14569],[62.5,14653],[62.5,14736],[62.5,14819],[62.5,14903],[62.5,14985],[62.5,15069],[62.5,15152],[62.5,15235],[62.5,15319],[62.5,15402],[62.5,15485],[62.5,15569],[62.5,15651],[62.5,15735],[62.5,15818],[62.5,15901],[62.5,15985],[62.5,16068],[62.5,16151],[62.5,16234],[62.5,16318],[62.5,16401],[62.5,16484],[62.5,16567],[62.5,16651],[62.5,16734],[62.5,16817],[62.5,16901],[64.1,16983],[65.2,17067],[69.7,17150],[71.3,17233],[73.3,17316],[73.6,17400],[73.6,17483],[74.4,17566],[76.3,17650],[76.5,17733],[76.5,17816],[76.5,17900],[76.5,17983],[76.5,18066],[76.5,18150],[76.5,18232],[76.5,18316],[76.5,18400],[76.5,18482],[76.5,18566],[76.5,18649],[76.5,18732],[76.5,18815],[76.5,18899],[76.5,18982],[76.5,19065],[76.5,19148],[76.5,19232],[76.5,19315],[76.5,19398],[76.5,19481],[76.5,19564],[76.5,19647],[76.5,19732],[76.5,19814],[76.5,19898],[76.5,19981],[76.5,20064],[76.5,20147],[76.5,20230],[76.5,20314],[76.5,20398],[76.5,20480],[76.5,20564],[76.5,20647],[76.5,20730],[76.5,20814],[76.5,20897],[76.5,20980]]",1,0,783.4056,787.4355,59.89583333,3.4142,"[{""rating"":67.91667143503824,""responseTime"":1.3170000000000073},{""rating"":59.895833333333336,""responseTime"":3.4141999999997097}]",space,3.5045,,787.4355,Not at all,0,787.4382,,,[],,,,0,7,7,7,1,audio/Narrative7Situation7.wav,audio/Narrative8Situation7.wav,audio/Narrative5Situation7.wav,audio/Narrative6Situation7.wav,5,3,4,5,,,,,,,,,,,,,,,,,,,,,,,,,,,,,,,,,,,,,
,,,,,,5ba288c63fd80800016308c4,2024-02-08_16h02.51.644,group3.1-3.2-social-tom,2023.2.2,Win32,60.60606061,65c5074098b851296ff0b7ed,65c5416290604e9c805907ba,,,,,,,,,,,,,,,,,,,,,,,,,,,,,787.4386,2,audio/Narrative5Situation8.wav,790.4494,,790.4494,799.2746,"[[49.8,1831],[54.6,1914],[54.9,1997],[55.6,2081],[55.6,2164],[54.8,2247],[51.9,2330],[51.4,2414],[51,2498],[49.4,2580],[49.4,2664],[49.4,2747],[49.4,2830],[49.4,2914],[49.2,2996],[47.3,3080],[42.5,3163],[41.5,3246],[36.9,3330],[36.7,3413],[36.5,3496],[35.7,3579],[35.6,3663],[33.1,3746],[33.1,3829],[33.1,3913],[33.1,3996],[33.1,4079],[33.1,4162],[33.1,4246],[33.1,4328],[33.1,4412],[33.1,4496],[33.1,4578],[33.1,4662],[33.1,4745],[33.1,4828],[33.1,4911],[33.1,4995],[33.1,5078],[33.1,5161],[33.1,5245],[33.1,5328],[33.1,5411],[33.1,5495],[33.1,5577],[33.1,5661],[33.1,5744],[33.1,5828],[40,5910],[45.5,5994],[50.3,6077],[50.4,6160],[50.4,6244],[51.3,6326],[51.6,6410],[52.3,6493],[53.5,6576],[57.7,6660],[58.4,6743],[59.5,6826],[61.5,6909],[66.9,6993],[71.5,7076],[72.2,7160],[74.2,7242],[74.5,7326],[74.5,7409],[74.5,7492],[74.5,7576],[74.5,7659],[74.5,7742],[74.5,7826],[74.5,7909],[74.5,7991],[74.5,8075],[74.5,8158],[74.5,8242],[74.5,8326],[74.5,8409],[74.5,8491],[74.5,8575],[74.5,8658],[74.5,8741],[74.5,8824]]",1,0,799.2746,802.3552,56.04166985,1.8715,"[{""rating"":56.041669845581055,""responseTime"":1.8715000000000828}]",space,2.5362,,802.3552,Not at all,0,802.3563,,,[],,,,0,8,8,8,1,audio/Narrative7Situation8.wav,audio/Narrative8Situation8.wav,audio/Narrative5Situation8.wav,audio/Narrative6Situation8.wav,2,3,3,5,,,,,,,,,,,,,,,,,,,,,,,,,,,,,,,,,,,,,
,,,,,,5ba288c63fd80800016308c4,2024-02-08_16h02.51.644,group3.1-3.2-social-tom,2023.2.2,Win32,60.60606061,65c5074098b851296ff0b7ed,65c5416290604e9c805907ba,,,,,,,,,,,,,,,,,,,,,,,,,,,,,802.3565,2,audio/Narrative5Situation9.wav,805.3687,,805.3687,844.9156,"[[999,0],[999,83],[999,167],[999,249],[999,332],[999,416],[999,499],[999,582],[999,665],[999,749],[999,832],[999,915],[52.9,999],[52.9,1082],[50.5,1165],[50.3,1249],[50.3,1331],[50.3,1415],[50.1,1498],[50.1,1581],[50.1,1665],[50.1,1748],[50.1,1831],[50.1,1914],[50.1,1998],[48.4,2081],[47.6,2165],[47.6,2247],[47.6,2331],[47.2,2414],[45.3,2497],[44.4,2580],[43.6,2664],[43.6,2747],[43.6,2831],[45,2913],[45.3,2997],[45.3,3080],[45.1,3163],[44.9,3247],[44.9,3330],[44.9,3413],[44.9,3496],[44.9,3580],[44.9,3663],[44.9,3747],[44.9,3829],[44.9,3913],[44.9,3996],[44.9,4079],[44.9,4162],[44.9,4246],[44.6,4329],[43.1,4412],[43.1,4495],[42.8,4578],[42.8,4662],[42.8,4746],[42.8,4829],[42.8,4912],[42.8,4995],[42.8,5078],[42.8,5161],[42.8,5245],[42.8,5328],[45.7,5411],[49.3,5494],[57.2,5577],[59.6,5661],[63.5,5744],[69.5,5827],[71.6,5910],[75.5,5994],[78.4,6077],[79.3,6160],[80.4,6243],[81.6,6327],[81.8,6410],[81.8,6493],[81.8,6577],[81.8,6659],[81.8,6744],[82.5,6827],[82.6,6910],[82.6,6993],[82.6,7076],[82.6,7159],[82.6,7243],[82.6,7326],[82.6,7409],[82.6,7492],[82.6,7576],[82.6,7659],[82.6,7742],[82.6,7826],[82.6,7909],[82.6,7992],[82.6,8075],[82.8,8158],[82.8,8242],[82.8,8325],[82.8,8408],[82.8,8491],[82.8,8576],[82.9,8658],[84.5,8741],[85.1,8825],[87.4,8908],[88,8991],[88.3,9074],[88.3,9158],[88.3,9241],[88.3,9324],[88.3,9407],[88.3,9491],[88.3,9574],[88.3,9657],[88.3,9741],[88.3,9824],[88.3,9907],[88.3,9990],[88.3,10073],[88.2,10157],[88.1,10240],[87.2,10323],[87.1,10407],[87.1,10490],[87.1,10573],[87.1,10657],[87.1,10739],[87.1,10823],[87.1,10906],[87.1,10989],[87.1,11072],[87.1,11156],[87.1,11239],[87.1,11322],[87.1,11406],[87.1,11489],[87.1,11572],[87.1,11655],[87.1,11739],[87.1,11822],[87.1,11905],[87.1,11989],[87.1,12072],[87.1,12155],[87.1,12238],[87.1,12321],[87.1,12404],[87.1,12488],[87.1,12571],[87.1,12654],[87.1,12738],[87.1,12821],[87.1,12904],[87.1,12987],[87.1,13071],[87.1,13154],[87.1,13237],[87.1,13320],[87.1,13404],[87.1,13487],[87.1,13570],[87.1,13654],[87.1,13737],[87.1,13820],[87.1,13903],[87.1,13987],[87.1,14070],[87.1,14153],[87.1,14237],[87.1,14320],[87.1,14403],[87.1,14486],[87.1,14569],[87.1,14652],[87.1,14736],[87.1,14818],[87.1,14902],[87.1,14986],[86.5,15068],[86.3,15152],[86.3,15236],[86.3,15318],[83.9,15402],[83.1,15486],[82.8,15568],[80.7,15651],[78.5,15734],[78.2,15818],[78.2,15901],[78.2,15985],[78.2,16068],[78.2,16151],[78.2,16235],[78.2,16318],[78.2,16401],[78.2,16484],[78.2,16567],[79.7,16650],[81.6,16734],[83.4,16817],[83.9,16900],[83.9,16984],[83.9,17067],[83.9,17150],[83.9,17234],[83.9,17317],[83.9,17400],[83.9,17483],[83.9,17567],[83.9,17650],[83.9,17733],[83.9,17816],[83.9,17900],[83.9,17983],[83.9,18066],[81.4,18149],[80.6,18232],[80.6,18316],[80.1,18399],[79.3,18482],[78.7,18566],[78.7,18649],[78.7,18732],[78.7,18815],[81.6,18899],[83.6,18982],[83.6,19065],[85.9,19148],[87.2,19232],[87.2,19315],[87.2,19398],[87.2,19481],[87.2,19565],[87.2,19648],[87.2,19731],[87.2,19815],[87.2,19898],[87.2,19981],[87.2,20064],[87.2,20148],[87.2,20231],[87.2,20314],[87.2,20397],[87.2,20481],[87.2,20564],[87.2,20647],[87.2,20730],[87.2,20813],[87.2,20897],[87.2,20980],[87.2,21063],[87.2,21146],[86.9,21229],[86.9,21313],[86.9,21397],[86.9,21479],[86.9,21562],[86.9,21646],[86.9,21729],[86.9,21813],[86.9,21896],[86.9,21979],[86.9,22062],[86.9,22145],[86.9,22229],[86.9,22312],[86.9,22395],[86.9,22479],[86.9,22562],[86.9,22645],[86.9,22729],[86.9,22812],[86.9,22894],[86.9,22978],[86.9,23061],[86.9,23144],[86.9,23228],[86.9,23311],[86.9,23395],[86.9,23478],[86.9,23561],[86.9,23644],[86.9,23727],[86.9,23810],[86.9,23894],[86.9,23977],[86.9,24061],[86.9,24144],[86.9,24227],[86.9,24310],[86.9,24394],[86.9,24476],[86.9,24560],[86.9,24643],[86.9,24727],[86.9,24810],[86.9,24893],[86.9,24977],[86.9,25060],[86.9,25143],[86.9,25226],[86.9,25309],[86.9,25393],[86.9,25476],[86.9,25559],[86.9,25642],[86.9,25726],[86.9,25809],[86.9,25892],[86.9,25975],[86.9,26059],[86.9,26142],[86.9,26226],[86.9,26308],[86.9,26392],[86.9,26475],[86.9,26558],[86.9,26641],[86.9,26725],[86.9,26808],[86.9,26890],[86.9,26975],[86.9,27057],[86.9,27141],[86.9,27224],[86.9,27307],[86.9,27391],[86.9,27474],[86.9,27557],[86.9,27640],[86.9,27724],[86.9,27807],[86.9,27889],[86.9,27973],[86.9,28057],[86.9,28139],[86.9,28223],[86.9,28307],[86.9,28390],[86.9,28473],[86.8,28556],[86.8,28640],[86.8,28723],[86.8,28806],[86.8,28889],[86.8,28973],[86.8,29056],[86.8,29139],[86.8,29222],[86.8,29306],[86.8,29389],[86.8,29472],[86.8,29555],[86.8,29639],[86.8,29722],[86.8,29805],[85.1,29889],[84.6,29972],[83.4,30054],[81.9,30138],[80.5,30221],[80.1,30304],[80.1,30388],[79.1,30471],[78.7,30554],[80.6,30637],[87.4,30720],[91.5,30804],[94.4,30887],[94.4,30971],[94.5,31054],[95.8,31137],[95.8,31220],[95.8,31303],[95.8,31387],[95.8,31470],[95.8,31553],[95.8,31637],[95.8,31720],[95.8,31803],[95.8,31886],[95.8,31970],[95.8,32053],[95.8,32136],[95.8,32219],[95.8,32303],[95.8,32387],[95.8,32469],[95.8,32553],[95.8,32636],[95.8,32719],[95.8,32802],[95.8,32885],[95.8,32969],[95.8,33052],[95.8,33135],[96.1,33218],[96.1,33302],[98.1,33385],[98.4,33468],[98.4,33551],[98.4,33635],[98.1,33718],[98.1,33801],[98,33885],[97.8,33968],[97.8,34051],[97.8,34134],[97.8,34218],[97.8,34301],[95,34384],[94.4,34467],[94.4,34551],[94.4,34634],[94.4,34717],[94.4,34801],[94.4,34884],[97.4,34967],[97.8,35050],[100,35134],[100,35216],[100,35300],[100,35383],[100,35466],[98.8,35550],[98.8,35633],[98.8,35717],[94.7,35799],[94.7,35883],[94.7,35966],[93.1,36049],[93,36132],[93,36216],[93,36299],[93,36382],[93,36465],[93,36549],[93,36632],[93,36715],[93,36798],[93,36882],[93,36965],[93,37048],[93,37131],[93,37215],[93,37298],[93,37381],[93,37465],[93,37548],[93,37631],[93,37714],[93,37798],[93,37881],[93,37964],[93,38047],[93,38130],[93,38214],[93,38297],[93,38380],[93,38464],[93,38547],[93,38630],[93,38713],[93,38796],[93,38880],[93,38963],[93,39046],[93,39130],[93,39213],[93,39296],[93,39379],[93,39463],[93,39546]]",1,0,844.9157,847.496,89.4791762,1.1165,"[{""rating"":89.47917620340984,""responseTime"":1.1164999999999736}]",space,2.0319,,847.4961,Half the time,50,847.4975,,,[],,,,0,9,9,9,1,audio/Narrative7Situation9.wav,audio/Narrative8Situation9.wav,audio/Narrative5Situation9.wav,audio/Narrative6Situation9.wav,2,3,3,4,,,,,,,,,,,,,,,,,,,,,,,,,,,,,,,,,,,,,
,,,,,,5ba288c63fd80800016308c4,2024-02-08_16h02.51.644,group3.1-3.2-social-tom,2023.2.2,Win32,60.60606061,65c5074098b851296ff0b7ed,65c5416290604e9c805907ba,,,,,,,,,,,,,,,,,,,,,,,,,,,,,847.4978,2,audio/Narrative6Situation1.wav,849.5111,,849.5112,876.1026,"[[999,0],[999,83],[999,166],[999,249],[999,332],[999,416],[999,499],[999,582],[999,665],[999,748],[999,832],[999,915],[999,998],[999,1081],[999,1165],[999,1248],[999,1331],[999,1414],[999,1497],[999,1581],[999,1664],[999,1747],[999,1831],[61.7,1914],[59.7,1997],[59.7,2081],[59.7,2164],[60,2247],[60.3,2330],[60.3,2414],[60.3,2497],[60.3,2580],[60.5,2664],[60.5,2746],[60.5,2830],[60.5,2913],[60.5,2996],[60.5,3080],[60.5,3163],[60.3,3246],[60.3,3329],[60.3,3412],[60.3,3496],[60.3,3579],[60.3,3663],[60.1,3745],[60.1,3829],[60.1,3912],[60,3996],[59.4,4078],[59.4,4162],[59.4,4245],[59.4,4329],[59.4,4412],[60.5,4495],[62.5,4578],[62.5,4661],[62.5,4744],[62.5,4828],[62.5,4911],[60.6,4994],[58.2,5077],[56,5161],[53.6,5244],[52.3,5327],[52.3,5411],[52.3,5494],[53,5577],[54.7,5661],[54.7,5743],[54.3,5827],[52.3,5910],[50.8,5993],[50.3,6077],[50.3,6160],[50.3,6244],[50.3,6326],[50.3,6410],[50.3,6493],[50.3,6576],[50.3,6660],[50.3,6742],[50.3,6826],[50.3,6909],[50.3,6993],[50.3,7076],[50.3,7159],[50.2,7243],[50.2,7326],[50.2,7409],[50.2,7492],[50.2,7575],[50.2,7659],[50.2,7741],[50.2,7825],[50.2,7909],[50.2,7991],[50.2,8075],[50.2,8158],[50.2,8241],[50.2,8325],[50.2,8408],[50.2,8491],[50.2,8574],[50.2,8658],[50.2,8741],[50.2,8824],[50.2,8908],[50.2,8990],[50.2,9074],[50.2,9157],[50.2,9241],[50.2,9323],[50.2,9407],[50.2,9490],[50.2,9573],[50.2,9657],[50.2,9740],[50.2,9824],[50.2,9907],[50.2,9990],[50.2,10073],[50.2,10156],[50.2,10240],[50.2,10323],[50.2,10406],[50.2,10489],[50.2,10572],[50.2,10656],[50.2,10739],[50.2,10823],[50.2,10905],[50.2,10989],[50.2,11072],[50.2,11156],[50.2,11239],[50.2,11322],[50.2,11405],[50.2,11488],[50.2,11572],[50.2,11655],[50.2,11738],[50.2,11821],[52.3,11904],[52.6,11987],[53.4,12071],[57.2,12154],[60.4,12237],[61.3,12321],[62.4,12404],[62.4,12488],[62.4,12570],[62.4,12654],[62.4,12737],[62.4,12820],[62.4,12904],[62.4,12987],[62.4,13070],[62.4,13153],[62.4,13236],[62.4,13319],[62.4,13403],[62.4,13486],[62.4,13570],[62.4,13653],[62.4,13736],[62.4,13819],[62.4,13903],[62.4,13986],[62.4,14070],[62.4,14152],[62.4,14236],[62.4,14319],[62.4,14403],[62.4,14485],[62.4,14569],[62.4,14652],[62.4,14736],[62.4,14819],[62.4,14901],[63.2,14985],[64.1,15068],[66.2,15151],[69,15234],[72.1,15318],[72.9,15401],[72.9,15484],[72.9,15568],[72.9,15651],[72.9,15734],[72.9,15818],[72.9,15901],[72.9,15984],[72.9,16067],[72.9,16151],[72.9,16234],[72.9,16317],[72.9,16400],[72.9,16484],[72.9,16567],[72.9,16650],[72.9,16734],[72.9,16817],[72.9,16900],[72.9,16983],[72.9,17066],[72.9,17150],[72.9,17233],[72.9,17316],[72.9,17399],[72.9,17482],[72.9,17566],[72.9,17649],[72.9,17732],[72.9,17816],[72.9,17899],[72.9,17983],[72.9,18066],[72.9,18149],[72.9,18232],[72.9,18315],[72.9,18399],[72.9,18482],[72.9,18565],[73.1,18648],[73.1,18732],[73.1,18815],[73.1,18898],[73.1,18982],[73.1,19065],[73.1,19148],[73.1,19231],[73.1,19314],[73.1,19398],[73.1,19481],[73.1,19564],[73.1,19647],[73.1,19730],[73.1,19814],[73.1,19897],[73.1,19980],[73.1,20064],[73.1,20147],[73.1,20230],[73.1,20314],[73.1,20396],[73.1,20480],[73.1,20564],[73.1,20647],[73.1,20730],[73.1,20813],[73.1,20897],[73.1,20979],[73.1,21063],[73.1,21146],[73.1,21229],[73.1,21312],[73.1,21396],[73.1,21479],[73.1,21562],[73.1,21646],[73.1,21729],[73.1,21812],[73.1,21895],[73.1,21978],[73.1,22062],[73.1,22145],[73.1,22228],[73.1,22311],[73.1,22395],[73.1,22478],[73.1,22561],[73.1,22644],[73.1,22728],[73.1,22811],[73.1,22895],[73.1,22977],[73.1,23061],[73.1,23144],[73.1,23227],[73.1,23311],[73.1,23394],[73.1,23477],[73.1,23560],[73.1,23644],[73.1,23727],[73.1,23810],[73.1,23894],[73.1,23977],[73.1,24059],[73,24144],[72.7,24226],[72.6,24310],[72.6,24393],[72.6,24476],[72.6,24559],[72.6,24642],[72.6,24726],[72.6,24809],[72.6,24892],[73.8,24976],[75.3,25059],[80.7,25142],[81.7,25226],[81.7,25308],[81.7,25392],[81.7,25476],[81.7,25559],[81.7,25642],[81.7,25725],[81.7,25808],[81.7,25892],[81.7,25975],[81.7,26058],[81.7,26141],[81.7,26225],[81.7,26308],[81.7,26391],[81.7,26474],[81.7,26558]]",1,0,876.1028,878.8666,69.47917144,1.3218,"[{""rating"":69.47917143503824,""responseTime"":1.3217999999998256}]",space,2.2178,,878.8667,Not at all,0,878.8693,,,[],,,,0,10,10,10,1,audio/Narrative8Situation1.wav,audio/Narrative7Situation1.wav,audio/Narrative6Situation1.wav,audio/Narrative5Situation1.wav,5,2,2,5,,,,,,,,,,,,,,,,,,,,,,,,,,,,,,,,,,,,,
