exp_question,consent.started,consent.stopped,consentResponse.keys,consentResponse.rt,consentResponse.duration,participantID,date,expName,psychopyVersion,OS,frameRate,STUDY_ID,SESSION_ID,opening1.started,opening1.stopped,keyEndingOpening1.keys,keyEndingOpening1.rt,keyEndingOpening1.duration,volumeAdjust.started,volumeAdjust.stopped,endingAdjust.keys,endingAdjust.rt,endingAdjust.duration,opening2.started,opening2.stopped,keyEndingOpening.keys,keyEndingOpening.rt,keyEndingOpening.duration,mouse.x,mouse.y,mouse.leftButton,mouse.midButton,mouse.rightButton,mouse.time,instructionLoop.thisRepN,instructionLoop.thisTrialN,instructionLoop.thisN,instructionLoop.thisIndex,instructionLoop.ran,readyForAudio.started,readyForAudio.stopped,fixation.started,run,audio_played,fixation.stopped,endPractice.keys,audioPre.started,audioPre.stopped,continuousResponses_audio,continuousSlider.response,continuousSlider.rt,intRating.started,intRating.stopped,intQuestionSlider.response,intQuestionSlider.rt,intQuestionSlider.history,confirmResponse.keys,confirmResponse.rt,confirmResponse.duration,catchQuestion.started,catch_label,catch_value,catchQuestion.stopped,catchQuestionSlider.response,catchQuestionSlider.rt,catchQuestionSlider.history,confirmResponse_2.keys,audioRunLoop.thisRepN,audioRunLoop.thisTrialN,audioRunLoop.thisN,audioRunLoop.thisIndex,audioRunLoop.ran,conditions1_1,conditions2_1,conditions1_2,conditions2_2,dur1_1,dur2_1,dur1_2,dur2_2,endPractice.rt,endPractice.duration,confirmResponse_2.rt,confirmResponse_2.duration,runIntervalBreak.started,runIntervalBreak.stopped,endingBreakKey.keys,endingBreakKey.rt,endingBreakKey.duration,connection.started,connection.stopped,connectionEnding.keys,connectionEnding.rt,connectionEnding.duration,readyForText.started,readyForText.stopped,textPre.started,run_dup,textPre.stopped,continuousResponses_text,textRunLoop.thisRepN,textRunLoop.thisTrialN,textRunLoop.thisN,textRunLoop.thisIndex,textRunLoop.ran,text1_1,text1_2,text2_1,text2_2,runBreakText.started,runBreakText.stopped,endingBreakKey_2.keys,endingBreakKey_2.rt,endingBreakKey_2.duration,ending.started,ending.stopped,endingEnding.keys,endingEnding.rt,endingEnding.duration
tom,0.0002,13.608,y,13.2843,,5be4ad0aff68b30001975464,2024-02-08_16h07.14.248,group3.1-3.2-social-tom,2023.2.2,Win32,59.88023952,65c5074098b851296ff0b7ed,65c542593d48c4665308acf9,,,,,,,,,,,,,,,,,,,,,,,,,,,,,,,,,,,,,,,,,,,,,,,,,,,,,,,,,,,,,,,,,,,,,,,,,,,,,,,,,,,,,,,,,,,,,,,,,,,,,,,,,,
,,,,,,5be4ad0aff68b30001975464,2024-02-08_16h07.14.248,group3.1-3.2-social-tom,2023.2.2,Win32,59.88023952,65c5074098b851296ff0b7ed,65c542593d48c4665308acf9,13.6081,19.3081,space,5.6713,,,,,,,,,,,,,,,,,,,,,,,,,,,,,,,,,,,,,,,,,,,,,,,,,,,,,,,,,,,,,,,,,,,,,,,,,,,,,,,,,,,,,,,,,,,,,,,,,,,,,,
,,,,,,5be4ad0aff68b30001975464,2024-02-08_16h07.14.248,group3.1-3.2-social-tom,2023.2.2,Win32,59.88023952,65c5074098b851296ff0b7ed,65c542593d48c4665308acf9,,,,,,19.3082,33.1581,space,13.5114,,,,,,,,,,,,,,,,,,,,,,,,,,,,,,,,,,,,,,,,,,,,,,,,,,,,,,,,,,,,,,,,,,,,,,,,,,,,,,,,,,,,,,,,,,,,,,,,,
,,,,,,5be4ad0aff68b30001975464,2024-02-08_16h07.14.248,group3.1-3.2-social-tom,2023.2.2,Win32,59.88023952,65c5074098b851296ff0b7ed,65c542593d48c4665308acf9,,,,,,,,,,,33.1612,47.9599,space,14.7834,,[],[],[],[],[],[],0,0,0,0,1,,,,,,,,,,,,,,,,,,,,,,,,,,,,,,,,,,,,,,,,,,,,,,,,,,,,,,,,,,,,,,,,,,,,,,,,,,,,,,,,
,,,,,,5be4ad0aff68b30001975464,2024-02-08_16h07.14.248,group3.1-3.2-social-tom,2023.2.2,Win32,59.88023952,65c5074098b851296ff0b7ed,65c542593d48c4665308acf9,,,,,,,,,,,47.9601,77.075,space,29.0389,,[],[],[],[],[],[],1,0,1,0,1,,,,,,,,,,,,,,,,,,,,,,,,,,,,,,,,,,,,,,,,,,,,,,,,,,,,,,,,,,,,,,,,,,,,,,,,,,,,,,,,
,,,,,,5be4ad0aff68b30001975464,2024-02-08_16h07.14.248,group3.1-3.2-social-tom,2023.2.2,Win32,59.88023952,65c5074098b851296ff0b7ed,65c542593d48c4665308acf9,,,,,,,,,,,77.0806,101.4584,space,24.3423,,[],[],[],[],[],[],2,0,2,0,1,,,,,,,,,,,,,,,,,,,,,,,,,,,,,,,,,,,,,,,,,,,,,,,,,,,,,,,,,,,,,,,,,,,,,,,,,,,,,,,,
,,,,,,5be4ad0aff68b30001975464,2024-02-08_16h07.14.248,group3.1-3.2-social-tom,2023.2.2,Win32,59.88023952,65c5074098b851296ff0b7ed,65c542593d48c4665308acf9,,,,,,,,,,,101.4638,127.9419,space,26.4624,,[],[],[],[],[],[],3,0,3,0,1,,,,,,,,,,,,,,,,,,,,,,,,,,,,,,,,,,,,,,,,,,,,,,,,,,,,,,,,,,,,,,,,,,,,,,,,,,,,,,,,
,,,,,,5be4ad0aff68b30001975464,2024-02-08_16h07.14.248,group3.1-3.2-social-tom,2023.2.2,Win32,59.88023952,65c5074098b851296ff0b7ed,65c542593d48c4665308acf9,,,,,,,,,,,127.9474,155.2253,space,27.2626,,[],[],[],[],[],[],4,0,4,0,1,,,,,,,,,,,,,,,,,,,,,,,,,,,,,,,,,,,,,,,,,,,,,,,,,,,,,,,,,,,,,,,,,,,,,,,,,,,,,,,,
,,,,,,5be4ad0aff68b30001975464,2024-02-08_16h07.14.248,group3.1-3.2-social-tom,2023.2.2,Win32,59.88023952,65c5074098b851296ff0b7ed,65c542593d48c4665308acf9,,,,,,,,,,,,,,,,,,,,,,,,,,,155.2317,157.8087,157.8216,1,audio/Narrative13Situation2.wav,159.8254,,159.8254,189.5758,"[[999,0],[999,83],[999,166],[999,249],[999,333],[999,416],[999,499],[999,583],[999,666],[999,749],[999,833],[999,916],[999,999],[999,1083],[999,1166],[999,1249],[999,1333],[999,1416],[999,1500],[999,1583],[999,1666],[999,1750],[999,1833],[999,1916],[999,1999],[999,2083],[999,2166],[999,2249],[999,2333],[999,2416],[999,2499],[999,2583],[999,2666],[999,2749],[999,2833],[999,2916],[999,2999],[999,3083],[999,3166],[999,3249],[999,3333],[999,3416],[999,3499],[999,3583],[999,3666],[999,3749],[999,3833],[999,3916],[999,3999],[999,4083],[999,4166],[999,4250],[999,4333],[49.2,4416],[49.7,4500],[50.1,4583],[50.1,4666],[50.1,4749],[50.2,4833],[50.3,4916],[50.3,4999],[50.3,5083],[50.3,5166],[48.2,5250],[48.1,5333],[48.1,5416],[48.1,5499],[48.1,5583],[48.1,5666],[48.1,5749],[48.1,5833],[48.1,5916],[48.1,5999],[48.1,6083],[48.1,6166],[48.1,6249],[48.1,6333],[48.1,6416],[48.1,6499],[48.1,6583],[48.1,6666],[48.1,6749],[48.1,6833],[48.1,6916],[48.1,6999],[48.1,7083],[48.1,7166],[48.1,7249],[48.1,7333],[48.1,7416],[48.1,7499],[48.1,7583],[48.1,7666],[48.1,7749],[48.1,7833],[48.1,7916],[48.1,7999],[48.1,8083],[48.1,8166],[48.1,8249],[48.1,8333],[48.1,8416],[48.1,8499],[48.1,8583],[48.1,8666],[48.1,8749],[48.1,8833],[48.1,8916],[48.1,8999],[48.1,9083],[48.1,9166],[48.1,9249],[48.1,9333],[48.1,9416],[48.1,9499],[48.1,9583],[48.1,9666],[48.1,9749],[48.1,9833],[48.1,9916],[47.5,10000],[46.7,10083],[45.6,10166],[44.3,10250],[42.6,10333],[41.8,10416],[40.3,10500],[37.4,10583],[33.6,10666],[29.7,10750],[26.4,10833],[23.9,10916],[22.2,11000],[20.7,11083],[20.6,11166],[20.6,11249],[20.6,11333],[20.6,11416],[20.6,11499],[20.6,11583],[20.6,11666],[20.6,11749],[19.9,11833],[19,11916],[18.8,12000],[18.4,12083],[17.9,12166],[16.3,12250],[15.2,12333],[13.5,12416],[13,12500],[13,12583],[13,12666],[13,12749],[13,12833],[13,12916],[13,12999],[13,13083],[13,13166],[13,13250],[13,13333],[13,13416],[13,13499],[13,13583],[13,13666],[13,13749],[13,13833],[13,13916],[13,13999],[13,14083],[13,14166],[13,14249],[13,14333],[13,14416],[13,14499],[13,14583],[13,14666],[12.9,14749],[12.9,14833],[12.9,14916],[12.9,14999],[12.9,15083],[12.9,15166],[12.9,15250],[12.9,15333],[12.9,15416],[12.7,15500],[12.3,15583],[12.1,15666],[11.6,15750],[11,15833],[10.9,15916],[10.9,15999],[10.9,16083],[10.9,16166],[10.9,16249],[10.9,16333],[10.9,16416],[10.9,16499],[10.9,16583],[10.9,16666],[10.9,16749],[10.9,16833],[10.9,16916],[10.9,17000],[10.9,17083],[10.9,17166],[10.9,17249],[10.9,17333],[10.9,17416],[10.9,17499],[10.9,17583],[10.9,17666],[10.9,17750],[10.9,17833],[11,17916],[11.9,18000],[11.9,18083],[11.9,18166],[11.9,18250],[11.9,18333],[12,18416],[12,18499],[12.6,18583],[12.7,18666],[12.7,18749],[13,18833],[13.4,18916],[13.4,18999],[13.4,19083],[13.4,19166],[13.9,19250],[14.1,19333],[14.4,19416],[14.5,19499],[14.6,19583],[15.1,19666],[15.7,19750],[16,19833],[16.3,19916],[16.5,20000],[17,20083],[17.6,20166],[18.4,20250],[19.3,20333],[20.1,20416],[20.3,20500],[20.3,20583],[20.3,20666],[20.3,20749],[20.3,20833],[20.3,20916],[20.3,21000],[20.3,21083],[20.3,21166],[20.3,21249],[20.3,21333],[20.3,21416],[20.3,21500],[20.3,21583],[20.3,21666],[20.3,21750],[20.3,21833],[20.3,21916],[20.3,22000],[20.3,22083],[20.3,22166],[20.3,22250],[20.4,22333],[21.3,22416],[21.8,22500],[22.6,22583],[23.1,22667],[23.8,22750],[24.6,22833],[24.6,22916],[24.6,22999],[25.8,23083],[27.2,23166],[27.9,23250],[28.8,23333],[29.8,23416],[31.5,23500],[33.9,23583],[35,23666],[36,23750],[37.7,23833],[38.9,23916],[40,24000],[40.9,24083],[42.7,24166],[45,24250],[46.7,24333],[47.7,24416],[48.6,24500],[49.5,24583],[49.7,24666],[49.9,24750],[50.1,24833],[50.1,24916],[50.1,24999],[50.3,25083],[50.5,25166],[50.5,25249],[50.5,25333],[50.5,25416],[50.5,25499],[50.5,25583],[50.5,25666],[50.5,25749],[50.5,25833],[50.5,25916],[50.5,25999],[50.5,26083],[50.5,26166],[50.5,26250],[50.5,26333],[50.5,26416],[50.5,26500],[50.5,26583],[50.5,26666],[50.5,26750],[50.5,26833],[50.5,26916],[50.5,27000],[50.5,27083],[50.5,27166],[50.5,27250],[50.5,27333],[50.5,27416],[50.5,27500],[50.5,27583],[51.6,27666],[51.8,27750],[52,27833],[52.8,27916],[53.6,28000],[53.6,28083],[54.4,28166],[54.7,28250],[54.7,28333],[54.9,28416],[55.1,28500],[55.3,28583],[55.4,28666],[55.4,28750],[55.4,28833],[55.4,28916],[55.4,29000],[55.4,29083],[55.4,29166],[55.4,29250],[55.4,29333],[55.4,29416],[55.4,29500],[55.4,29583],[55.4,29666],[55.4,29749]]",1,0,189.5761,199.8092,69.47916667,7.3853,"[{""rating"":65.20833333333333,""responseTime"":6.096599999904612},{""rating"":69.47916666666667,""responseTime"":7.3853000001907105}]",space,9.6846,,199.8143,Half the time,50,199.8169,,,[],,0,0,0,0,1,audio/Narrative13Situation2.wav,audio/Narrative13Situation2.wav,audio/Narrative13Situation2.wav,audio/Narrative13Situation2.wav,2,2,2,2,,,,,,,,,,,,,,,,,,,,,,,,,,,,,,,,,,,,,,,
,,,,,,5be4ad0aff68b30001975464,2024-02-08_16h07.14.248,group3.1-3.2-social-tom,2023.2.2,Win32,59.88023952,65c5074098b851296ff0b7ed,65c542593d48c4665308acf9,,,,,,,,,,,,,,,,,,,,,,,,,,,,,199.8171,1,audio/Narrative7Situation1.wav,223.7092,space,223.7092,279.6094,"[[999,5],[999,83],[999,166],[999,249],[999,333],[999,416],[999,499],[999,582],[999,666],[999,749],[999,833],[999,916],[999,999],[999,1082],[999,1166],[999,1249],[999,1333],[999,1416],[999,1499],[999,1583],[999,1666],[999,1750],[2.1,1833],[3.6,1916],[3.9,1999],[3.9,2082],[3.9,2166],[4,2249],[4,2333],[4,2416],[4,2499],[4,2582],[4,2666],[4,2750],[4,2833],[4,2916],[4,2999],[4,3083],[4,3166],[4,3249],[4,3332],[4,3416],[4,3499],[4,3582],[4,3666],[4,3749],[4,3833],[4,3916],[4,3999],[4,4083],[4.6,4166],[5.3,4249],[6.6,4333],[7.6,4416],[9.7,4500],[10.7,4583],[11.4,4666],[11.6,4749],[12.1,4833],[12.8,4916],[12.8,4999],[12.8,5082],[12.8,5166],[12.8,5249],[12.8,5332],[12.8,5416],[12.8,5499],[12.8,5583],[12.8,5666],[12.8,5749],[12.8,5833],[12.8,5916],[12.8,5999],[12.8,6083],[12.8,6166],[12.8,6249],[13.9,6333],[15.4,6416],[16.6,6499],[18.2,6583],[18.5,6666],[18.5,6749],[18.5,6833],[18.5,6916],[18.5,6999],[18.5,7083],[18.5,7166],[18.5,7249],[18.5,7333],[18.5,7416],[18.5,7499],[18.5,7583],[18.5,7666],[18.5,7749],[18.5,7833],[18.5,7916],[18.5,7999],[18.5,8083],[18.5,8166],[18.5,8249],[18.5,8333],[18.5,8416],[18.5,8499],[18.5,8583],[18.5,8666],[18.5,8750],[18.5,8834],[18.5,8916],[18.5,8999],[18.5,9083],[18.5,9166],[18.5,9249],[18.5,9333],[18.5,9416],[18.5,9499],[18.5,9583],[18.5,9666],[18.5,9749],[18.5,9832],[18.5,9916],[18.5,9999],[18.5,10083],[18.5,10166],[18.5,10249],[18.5,10333],[18.5,10416],[18.5,10499],[18.5,10583],[18.5,10666],[18.5,10750],[18.5,10833],[18.5,10916],[18.5,10999],[18.5,11083],[18.5,11166],[18.5,11249],[18.5,11333],[18.5,11416],[18.5,11499],[18.5,11583],[18.5,11666],[18.3,11750],[18.3,11833],[18.3,11916],[18.3,11999],[18.3,12083],[18.3,12166],[18.3,12249],[18.3,12333],[18.3,12416],[18.3,12499],[18.3,12583],[18.3,12666],[18.3,12749],[18.3,12833],[18.3,12916],[18.3,12999],[18.3,13083],[18.3,13166],[18.3,13249],[18.3,13333],[18.3,13416],[18.3,13499],[18.3,13583],[18.3,13666],[18.3,13749],[18.3,13833],[18.3,13916],[18.3,13999],[18.3,14083],[18.3,14166],[18.3,14249],[18.3,14333],[18.3,14416],[18.3,14499],[18.3,14583],[18.3,14666],[18.3,14749],[18.3,14833],[18.3,14916],[18.3,14999],[18.3,15083],[18.3,15166],[17.8,15250],[16.9,15333],[15.6,15416],[14.6,15500],[14,15583],[13.8,15666],[13.8,15749],[13.8,15833],[13.8,15916],[13.8,15999],[13.8,16083],[13.8,16166],[13.8,16249],[13.8,16333],[13.8,16416],[13.8,16499],[13.8,16583],[13.8,16666],[13.8,16750],[13.8,16833],[13.8,16916],[13.8,16999],[13.8,17083],[13.8,17166],[13.8,17249],[13.8,17333],[13.8,17416],[13.8,17499],[13.8,17583],[13.8,17666],[13.8,17749],[13.8,17833],[13.8,17916],[13.8,17999],[13.8,18083],[13.8,18166],[13.8,18249],[17,18333],[20,18416],[20.9,18499],[21.5,18583],[21.5,18666],[21.5,18750],[21.5,18833],[21.5,18916],[21.5,18999],[21.5,19083],[21.5,19166],[21.5,19249],[21.5,19333],[21.5,19416],[21.5,19499],[21.5,19583],[21.5,19666],[21.5,19749],[21.5,19833],[21.5,19916],[21.5,19999],[21.5,20083],[21.5,20166],[21.5,20249],[21.5,20333],[21.5,20416],[21.5,20499],[21.5,20583],[21.5,20666],[21.5,20750],[21.5,20833],[21.5,20916],[21.5,20999],[21.5,21083],[21.5,21166],[21.5,21249],[21.5,21333],[21.5,21416],[21.5,21499],[21.5,21583],[21.5,21666],[21.5,21749],[21.5,21833],[21.5,21916],[21.5,21999],[21.5,22083],[21.5,22166],[21.5,22249],[21.5,22333],[21.5,22416],[21.5,22499],[21.5,22583],[21.5,22666],[21.5,22749],[21.5,22833],[21.5,22916],[21.5,22999],[21.5,23083],[21.5,23166],[21.5,23249],[21.5,23333],[21.5,23416],[21.5,23499],[21.5,23583],[21.5,23666],[21.5,23749],[21.5,23833],[21.5,23916],[21.5,23999],[21.5,24083],[21.5,24166],[21.5,24249],[21.5,24333],[21.5,24416],[21.5,24499],[21.5,24583],[21.5,24666],[21.5,24750],[21.5,24833],[21.5,24916],[21.5,24999],[21.5,25083],[21.5,25166],[21.5,25249],[21.5,25333],[21.5,25416],[21.5,25499],[21.5,25583],[21.5,25666],[21.5,25749],[21.5,25833],[21.5,25916],[21.5,25999],[21.5,26083],[21.5,26166],[21.5,26249],[21.5,26333],[21.5,26416],[21.5,26499],[21.5,26583],[21.5,26666],[21.5,26750],[21.5,26833],[21.5,26916],[21.5,26999],[21.5,27083],[21.5,27166],[21.5,27249],[21.5,27333],[21.5,27416],[21.5,27499],[21.5,27583],[21.5,27666],[21.5,27749],[21.5,27833],[21.5,27916],[21.5,27999],[21.5,28083],[21.5,28166],[21.5,28249],[21.5,28333],[21.5,28416],[21.5,28499],[21.5,28583],[21.5,28666],[21.5,28750],[21.5,28833],[21.5,28916],[21.5,28999],[21.5,29083],[21.5,29166],[21.5,29249],[21.5,29333],[21.5,29416],[21.5,29499],[21.5,29583],[21.5,29666],[21.5,29749],[21.5,29833],[22.2,29916],[23.3,29999],[23.4,30083],[23.4,30166],[23.4,30249],[24.3,30333],[24.7,30416],[24.7,30499],[24.7,30583],[24.7,30666],[24.7,30750],[24.7,30833],[24.7,30916],[24.7,30999],[24.7,31083],[24.7,31166],[24.7,31249],[24.7,31333],[24.7,31416],[24.7,31499],[24.7,31583],[24.7,31666],[24.7,31749],[24.7,31833],[24.7,31916],[24.7,31999],[24.7,32083],[24.7,32166],[24.7,32249],[24.7,32333],[24.7,32416],[24.7,32499],[24.7,32583],[24.7,32666],[24.7,32749],[24.7,32833],[24.7,32916],[24.7,32999],[24.7,33083],[24.7,33166],[24.7,33249],[24.7,33333],[24.7,33416],[24.7,33499],[24.7,33583],[24.7,33666],[24.7,33749],[24.7,33833],[24.7,33916],[24.7,33999],[24.7,34083],[24.7,34166],[24.7,34249],[24.7,34333],[24.7,34416],[24.7,34499],[24.7,34583],[24.7,34666],[24.7,34750],[24.7,34833],[24.7,34916],[24.7,34999],[24.7,35083],[24.7,35166],[24.7,35250],[24.7,35333],[24.7,35416],[24.7,35499],[24.7,35583],[24.7,35666],[24.7,35749],[24.7,35833],[24.7,35916],[24.7,35999],[24.7,36083],[24.7,36166],[24.7,36249],[24.7,36333],[24.7,36416],[24.7,36499],[24.7,36583],[24.7,36666],[24.7,36750],[24.7,36833],[24.7,36916],[24.7,36999],[24.7,37083],[24.7,37166],[24.7,37249],[24.7,37333],[24.7,37416],[24.7,37499],[24.7,37583],[24.7,37666],[24.7,37749],[24.7,37833],[24.7,37916],[24.7,37999],[24.7,38083],[24.7,38166],[24.7,38249],[24.7,38333],[24.7,38416],[24.7,38500],[24.7,38583],[24.7,38666],[24.7,38750],[24.7,38833],[24.7,38916],[24.7,38999],[24.7,39083],[24.7,39166],[24.7,39249],[24.7,39333],[24.7,39416],[24.7,39499],[24.7,39583],[24.7,39666],[24.7,39749],[25.7,39833],[25.7,39916],[25.8,40000],[26.5,40083],[26.5,40166],[26.5,40249],[26.5,40333],[26.5,40416],[26.5,40499],[26.5,40583],[26.5,40666],[26.5,40750],[26.5,40833],[26.5,40916],[26.5,41000],[26.5,41083],[26.5,41166],[26.5,41249],[26.5,41333],[26.5,41416],[26.5,41499],[26.5,41583],[26.5,41666],[26.5,41749],[26.5,41833],[26.5,41916],[26.5,42000],[26.5,42083],[26.5,42166],[26.5,42249],[26.5,42333],[26.5,42416],[26.5,42499],[26.5,42583],[26.5,42666],[26.5,42750],[26.5,42833],[26.5,42916],[26.5,42999],[26.5,43083],[26.5,43166],[26.5,43249],[26.5,43333],[26.5,43416],[26.5,43499],[26.5,43583],[26.5,43666],[26.5,43749],[26.5,43833],[26.5,43916],[26.5,44000],[26.5,44083],[26.5,44166],[26.5,44250],[26.5,44333],[26.5,44416],[26.5,44500],[26.5,44583],[26.5,44666],[26.5,44750],[26.5,44833],[26.5,44916],[26.5,44999],[26.5,45083],[26.5,45166],[26.5,45249],[26.5,45333],[26.5,45416],[26.5,45499],[26.5,45583],[26.5,45666],[26.5,45750],[26.5,45833],[26.5,45916],[26.5,45999],[26.5,46083],[26.5,46166],[26.5,46250],[26.5,46333],[26.5,46416],[26.5,46500],[26.5,46583],[26.5,46666],[26.5,46750],[26.5,46833],[26.5,46916],[26.5,47000],[26.5,47083],[26.5,47166],[26.5,47250],[26.5,47333],[26.5,47416],[26.5,47500],[26.5,47583],[26.5,47666],[26.5,47749],[26.5,47833],[26.5,47916],[26.5,48000],[26.5,48083],[26.5,48166],[26.5,48249],[26.5,48333],[26.5,48416],[26.5,48499],[26.5,48583],[26.5,48666],[26.5,48750],[26.5,48833],[26.5,48916],[26.5,49000],[28.6,49083],[29,49166],[29,49250],[29.3,49333],[31.6,49416],[33.2,49500],[33.2,49583],[33.2,49666],[33.2,49750],[33.2,49833],[33.2,49916],[34.1,50000],[34.4,50083],[36.1,50166],[38,50250],[38.3,50333],[38.3,50416],[38.3,50500],[38.3,50583],[38.3,50666],[38.3,50750],[38.3,50833],[38.3,50916],[38.3,51000],[38.3,51083],[38.3,51166],[38.3,51250],[38.3,51333],[38.3,51416],[38.3,51500],[38.3,51583],[38.3,51666],[38.3,51750],[38.3,51833],[38.3,51916],[38.3,52000],[38.3,52083],[38.3,52166],[38.3,52250],[38.3,52333],[38.3,52416],[38.3,52500],[38.3,52583],[38.3,52666],[38.3,52750],[38.3,52833],[38.3,52916],[38.3,53000],[38.3,53083],[38.3,53166],[38.3,53250],[38.3,53333],[38.3,53416],[38.3,53500],[38.3,53583],[38.3,53666],[38.3,53750],[38.3,53833],[38.3,53916],[38.3,54000],[38.3,54083],[38.3,54166],[38.3,54250],[38.3,54333],[38.3,54416],[38.3,54500],[38.3,54583],[38.3,54666],[38.3,54750],[38.3,54833],[38.3,54916],[38.3,55000],[38.3,55083],[38.3,55166],[38.3,55250],[38.3,55333],[38.3,55416],[38.3,55500],[38.3,55583],[38.3,55666],[38.3,55750],[38.3,55833]]",1,0,279.6095,286.6593,33.95833333,4.3229,"[{""rating"":33.958333333333336,""responseTime"":4.322900000095387}]",space,6.5032,,286.6594,Half the time,50,286.6604,,,[],,0,1,1,1,1,audio/Narrative7Situation1.wav,audio/Narrative8Situation1.wav,audio/Narrative5Situation1.wav,audio/Narrative6Situation1.wav,2,5,5,2,23.8702,,,,,,,,,,,,,,,,,,,,,,,,,,,,,,,,,,,,,,
,,,,,,5be4ad0aff68b30001975464,2024-02-08_16h07.14.248,group3.1-3.2-social-tom,2023.2.2,Win32,59.88023952,65c5074098b851296ff0b7ed,65c542593d48c4665308acf9,,,,,,,,,,,,,,,,,,,,,,,,,,,,,286.6606,1,audio/Narrative7Situation2.wav,289.676,,289.676,297.1427,"[[999,5],[999,83],[999,166],[999,250],[999,333],[999,416],[999,500],[999,583],[999,667],[999,750],[999,834],[999,916],[999,1000],[999,1083],[999,1166],[999,1250],[999,1333],[999,1417],[999,1500],[999,1583],[2.4,1666],[2.3,1750],[2.2,1833],[2.2,1916],[2.2,1999],[2.2,2083],[2.2,2166],[2.2,2249],[2.2,2333],[2.2,2416],[2.2,2499],[2.2,2583],[2.2,2666],[2.2,2750],[2.2,2833],[2.2,2916],[2.2,3000],[2.2,3083],[2.2,3166],[2.2,3250],[2.2,3333],[2.2,3416],[2.2,3499],[2.2,3583],[2.2,3666],[2.2,3750],[2.2,3833],[2.2,3916],[2.2,4000],[2.2,4083],[2.2,4166],[2.2,4250],[7.4,4333],[10.2,4416],[10.5,4500],[11,4583],[11,4666],[11,4749],[11,4833],[11,4916],[11,5000],[11,5083],[11,5166],[11,5250],[11,5333],[11,5416],[11,5500],[11,5583],[11,5666],[11,5750],[11,5833],[11,5916],[11,6000],[11,6083],[11,6166],[11,6250],[11,6333],[11,6416],[11,6500],[11,6583],[11,6666],[11,6750],[11,6833],[11,6916],[11,7000],[11,7083],[11,7166],[11,7250],[11,7333],[11,7416]]",1,0,297.1428,301.4594,4.270833333,3.0215,"[{""rating"":4.270833333333335,""responseTime"":3.021500000000003}]",space,3.7679,,301.4594,Not at all,0,301.4615,,,[],,0,2,2,2,1,audio/Narrative7Situation2.wav,audio/Narrative8Situation2.wav,audio/Narrative5Situation2.wav,audio/Narrative6Situation2.wav,3,3,3,3,,,,,,,,,,,,,,,,,,,,,,,,,,,,,,,,,,,,,,,
,,,,,,5be4ad0aff68b30001975464,2024-02-08_16h07.14.248,group3.1-3.2-social-tom,2023.2.2,Win32,59.88023952,65c5074098b851296ff0b7ed,65c542593d48c4665308acf9,,,,,,,,,,,,,,,,,,,,,,,,,,,,,301.4615,1,audio/Narrative7Situation3.wav,309.4762,,309.4762,318.743,"[[999,5],[999,83],[999,166],[999,249],[999,333],[999,416],[999,499],[999,583],[999,666],[999,749],[999,833],[999,916],[999,1000],[999,1083],[999,1166],[999,1249],[999,1333],[999,1416],[999,1500],[999,1583],[999,1666],[999,1750],[6,1833],[6.1,1916],[6.4,2000],[6.4,2083],[6.4,2166],[6.4,2249],[6.4,2333],[6.4,2416],[6.4,2499],[6.4,2583],[6.4,2666],[6.4,2749],[6.4,2833],[6.4,2916],[6.4,3000],[6.6,3083],[6.7,3166],[6.7,3249],[6.8,3333],[7.3,3416],[7.6,3499],[7.9,3583],[8.3,3666],[8.6,3750],[8.6,3833],[7.6,3916],[7.6,3999],[7.6,4083],[7.6,4166],[7.6,4249],[7.6,4333],[7.6,4416],[7.6,4499],[7.6,4583],[7.6,4666],[7.6,4749],[7.7,4833],[7.7,4916],[7.7,5000],[8,5083],[8.6,5166],[9.7,5250],[11.3,5333],[12.7,5416],[13.4,5500],[13.6,5583],[13.8,5666],[13.8,5749],[13.8,5833],[13.8,5916],[13.8,5999],[13.8,6083],[13.8,6166],[13.8,6249],[13.8,6333],[13.8,6416],[13.8,6499],[13.8,6583],[13.8,6666],[13.8,6750],[13.8,6833],[13.8,6916],[13.8,7000],[13.8,7083],[13.8,7166],[13.8,7249],[13.8,7333],[13.8,7416],[13.8,7499],[13.8,7583],[13.8,7666],[13.8,7749],[13.8,7833],[13.8,7916],[13.8,7999],[13.8,8083],[13.8,8166],[13.8,8249],[13.8,8333],[13.8,8416],[14.6,8500],[15.1,8583],[15.2,8666],[15.2,8749],[15.2,8833],[15.2,8916],[15.2,9000],[15.2,9083],[15.2,9166],[15.2,9249]]",1,0,318.7432,321.5429,6.145833333,1.4452,"[{""rating"":6.145833333333334,""responseTime"":1.4452000002861496}]",space,2.2518,,321.543,All the time,100,321.5447,,,[],,0,3,3,3,1,audio/Narrative7Situation3.wav,audio/Narrative8Situation3.wav,audio/Narrative5Situation3.wav,audio/Narrative6Situation3.wav,8,4,3,5,,,,,,,,,,,,,,,,,,,,,,,,,,,,,,,,,,,,,,,
,,,,,,5be4ad0aff68b30001975464,2024-02-08_16h07.14.248,group3.1-3.2-social-tom,2023.2.2,Win32,59.88023952,65c5074098b851296ff0b7ed,65c542593d48c4665308acf9,,,,,,,,,,,,,,,,,,,,,,,,,,,,,321.5448,1,audio/Narrative7Situation4.wav,324.5597,,324.5597,336.293,"[[999,5],[999,83],[999,166],[999,249],[999,333],[999,416],[999,499],[999,583],[999,666],[999,749],[999,833],[999,916],[999,999],[999,1083],[999,1166],[999,1250],[999,1333],[999,1416],[999,1500],[4.4,1583],[2.6,1666],[2,1749],[2,1833],[2,1916],[2,1999],[2,2083],[3.2,2166],[3.4,2249],[3.4,2333],[3.5,2416],[3.8,2499],[4.1,2583],[4.2,2666],[4.2,2749],[4.2,2833],[4.2,2916],[4.3,2999],[4.3,3083],[4.3,3166],[4.3,3249],[4.3,3333],[4.3,3416],[4.3,3499],[4.3,3583],[4.3,3666],[4.3,3749],[4.3,3833],[4.3,3916],[4.3,3999],[4.3,4083],[4.3,4166],[4.3,4249],[4.3,4333],[4.3,4416],[4.3,4499],[4.3,4583],[4.3,4666],[4.3,4749],[4.3,4833],[4.3,4916],[4.3,4999],[4.3,5083],[4.3,5166],[4.3,5249],[4.3,5333],[4.3,5416],[4.3,5499],[4.3,5583],[4.3,5666],[4.3,5749],[4.3,5833],[4.3,5916],[4.3,5999],[4.3,6083],[4.3,6166],[4.6,6250],[5.4,6333],[6,6416],[6.5,6499],[6.5,6583],[6.5,6666],[6.5,6749],[6.5,6833],[6.5,6916],[6.5,6999],[6.5,7083],[6.5,7166],[6.5,7249],[6.5,7333],[6.5,7416],[6.5,7499],[6.5,7583],[6.5,7666],[6.5,7749],[7,7833],[7.4,7916],[8.1,8000],[9,8083],[10.2,8166],[12,8250],[12.6,8333],[12.6,8416],[12.6,8499],[12.6,8583],[12.6,8666],[12.6,8749],[12.6,8833],[12.6,8916],[12.6,8999],[12.6,9083],[12.6,9167],[12.6,9249],[12.6,9333],[12.6,9416],[12.6,9499],[12.6,9583],[12.6,9666],[12.6,9749],[12.8,9833],[14.1,9917],[15.9,10000],[17,10083],[18.1,10166],[18.4,10249],[18.8,10333],[20.6,10416],[21.4,10500],[23.9,10583],[24.1,10666],[24.1,10749],[24.1,10833],[24.1,10916],[24.1,10999],[24.1,11083],[24.1,11166],[24.1,11249],[24.1,11333],[24.1,11416],[24.1,11499],[24.1,11583],[24.1,11666]]",1,0,336.2931,339.6429,15.83333333,2.6345,"[{""rating"":16.979166666666668,""responseTime"":1.7743000001906921},{""rating"":15.833333333333332,""responseTime"":2.6345000000000027}]",space,2.8077,,339.643,All the time,100,339.644,,,[],,0,4,4,4,1,audio/Narrative7Situation4.wav,audio/Narrative8Situation4.wav,audio/Narrative5Situation4.wav,audio/Narrative6Situation4.wav,3,3,1,2,,,,,,,,,,,,,,,,,,,,,,,,,,,,,,,,,,,,,,,
,,,,,,5be4ad0aff68b30001975464,2024-02-08_16h07.14.248,group3.1-3.2-social-tom,2023.2.2,Win32,59.88023952,65c5074098b851296ff0b7ed,65c542593d48c4665308acf9,,,,,,,,,,,,,,,,,,,,,,,,,,,,,339.6441,1,audio/Narrative7Situation5.wav,344.6597,,344.6597,353.1597,"[[999,5],[999,83],[999,166],[999,249],[999,333],[999,416],[999,499],[999,583],[999,666],[999,750],[999,833],[999,916],[999,1000],[999,1083],[999,1166],[999,1250],[0.3,1416],[0.4,1499],[0.4,1583],[0.4,1666],[0.4,1749],[0.4,1833],[0.4,1916],[0.4,1999],[0.4,2083],[0.4,2166],[0.4,2249],[0.4,2333],[0.4,2416],[0.4,2499],[1,2583],[1.4,2666],[1.7,2750],[1.7,2833],[1.8,2916],[1.8,2999],[1.9,3083],[4.5,3166],[5,3249],[5,3333],[5.1,3416],[7.4,3500],[10,3583],[11,3666],[11,3749],[11,3833],[11,3916],[11,3999],[11,4083],[11,4166],[11,4249],[11,4333],[11,4416],[11,4499],[11,4583],[11,4666],[11,4750],[11,4833],[11,4916],[11,4999],[11,5083],[11,5166],[11,5250],[11,5333],[11,5416],[11,5499],[11,5583],[11,5666],[11,5749],[11,5833],[11,5916],[11,6000],[11,6083],[11,6166],[11,6249],[11,6333],[11,6416],[11,6499],[11,6583],[11,6666],[11,6749],[11,6833],[11,6916],[11,6999],[11,7083],[11,7166],[11,7249],[11,7333],[11,7416],[11,7500],[11,7583],[11,7666],[11,7750],[11,7833],[11,7916],[11,8000],[11,8083],[11.8,8166],[12.6,8250],[14.1,8333],[14.9,8416],[14.9,8499]]",1,0,353.1598,356.2098,8.854166667,1.3496,"[{""rating"":8.854166666666668,""responseTime"":1.3495999999046262}]",space,2.529,,356.2098,Not at all,0,356.2114,,,[],,0,5,5,5,1,audio/Narrative7Situation5.wav,audio/Narrative8Situation5.wav,audio/Narrative5Situation5.wav,audio/Narrative6Situation5.wav,5,2,5,2,,,,,,,,,,,,,,,,,,,,,,,,,,,,,,,,,,,,,,,
,,,,,,5be4ad0aff68b30001975464,2024-02-08_16h07.14.248,group3.1-3.2-social-tom,2023.2.2,Win32,59.88023952,65c5074098b851296ff0b7ed,65c542593d48c4665308acf9,,,,,,,,,,,,,,,,,,,,,,,,,,,,,356.2115,1,audio/Narrative7Situation6.wav,359.2266,,359.2266,369.1932,"[[999,0],[999,83],[999,166],[999,250],[999,333],[999,416],[999,499],[999,583],[999,666],[999,750],[6.8,833],[4.4,916],[4.3,999],[4.1,1083],[4.1,1166],[4.1,1249],[4.1,1333],[4.1,1416],[4.1,1499],[4.1,1583],[4.1,1666],[4.1,1749],[4.1,1833],[4.1,1916],[4.1,1999],[4.1,2083],[4.1,2166],[4.2,2250],[4.4,2333],[4.9,2416],[6.3,2500],[7.7,2583],[9.3,2666],[11,2749],[12.2,2833],[13.1,2916],[14.4,2999],[14.8,3083],[15,3166],[15.2,3250],[15.2,3333],[15.2,3416],[15.2,3499],[15.2,3583],[15.3,3666],[16,3749],[17.6,3833],[18.4,3916],[19.6,3999],[20.7,4083],[21.8,4166],[23,4249],[24.2,4333],[24.6,4416],[24.8,4499],[25,4583],[25.1,4666],[25.1,4750],[25.1,4833],[25.1,4916],[25.1,4999],[25.1,5083],[25.1,5166],[25.1,5249],[25.1,5333],[25.1,5416],[25.1,5499],[25.1,5583],[25.1,5666],[25.1,5749],[25.1,5833],[25.1,5916],[25.1,5999],[25.1,6083],[25.1,6166],[25.1,6249],[25.1,6333],[25.1,6416],[25.1,6499],[25.1,6583],[25.1,6666],[25.1,6749],[25.1,6833],[25.1,6916],[25.1,6999],[25.2,7083],[25.4,7166],[25.4,7249],[25.4,7333],[25.4,7416],[25.4,7499],[25.4,7583],[25.4,7666],[25.4,7749],[25.4,7833],[25.4,7916],[25.4,7999],[25.4,8083],[25.4,8166],[25.4,8249],[25.4,8333],[25.4,8416],[25.4,8499],[25.4,8583],[25.4,8666],[25.4,8749],[25.4,8833],[25.4,8916],[25.4,8999],[25.4,9083],[25.4,9166],[25.4,9250],[25.4,9333],[25.4,9416],[25.4,9499],[25.4,9583],[25.4,9666],[25.4,9749],[25.4,9833],[25.4,9916]]",1,0,369.1933,373.4598,20.625,3.0311,"[{""rating"":13.333333333333336,""responseTime"":2.3950000000000387},{""rating"":20.625,""responseTime"":3.031100000381514}]",space,3.7409,,373.4598,Not at all,0,373.4608,,,[],,0,6,6,6,1,audio/Narrative7Situation6.wav,audio/Narrative8Situation6.wav,audio/Narrative5Situation6.wav,audio/Narrative6Situation6.wav,3,2,3,2,,,,,,,,,,,,,,,,,,,,,,,,,,,,,,,,,,,,,,,
,,,,,,5be4ad0aff68b30001975464,2024-02-08_16h07.14.248,group3.1-3.2-social-tom,2023.2.2,Win32,59.88023952,65c5074098b851296ff0b7ed,65c542593d48c4665308acf9,,,,,,,,,,,,,,,,,,,,,,,,,,,,,373.4611,1,audio/Narrative7Situation7.wav,378.4768,,378.4769,395.6599,"[[999,6],[999,82],[999,166],[999,249],[999,332],[999,416],[999,499],[999,583],[999,666],[999,749],[999,833],[999,916],[999,999],[999,1083],[999,1166],[8.8,1249],[10.2,1333],[10.4,1416],[10.4,1499],[10.5,1583],[11.9,1666],[16.7,1749],[18.4,1833],[18.9,1916],[19.5,1999],[20.6,2083],[21.1,2166],[21.1,2249],[21.1,2332],[21.1,2416],[21.1,2499],[21,2582],[21,2666],[21,2749],[20.9,2833],[20.9,2916],[20.9,2999],[20.9,3082],[20.9,3166],[20.9,3249],[20.9,3333],[20.9,3416],[20.9,3499],[18.2,3583],[14.1,3666],[11.9,3749],[11.6,3832],[11.5,3916],[11.1,3999],[11.1,4082],[11.1,4166],[11.1,4249],[11.1,4332],[11.1,4416],[11.1,4499],[11.1,4582],[11.1,4666],[11.1,4749],[11.1,4832],[11.1,4916],[11.1,4999],[11.1,5082],[10.8,5166],[10.6,5249],[10.4,5332],[10.1,5416],[9.6,5499],[8.6,5583],[7.7,5666],[7.4,5749],[7.4,5832],[7.4,5916],[7.4,5999],[7.4,6083],[7.4,6166],[7.4,6249],[7.4,6332],[7.4,6416],[7.4,6499],[7.4,6583],[7.4,6666],[7.4,6749],[7.4,6832],[7.4,6916],[7.4,6999],[7.4,7082],[7.4,7166],[7.4,7249],[7.4,7332],[7.4,7416],[7.4,7499],[7.4,7583],[7.4,7666],[7.4,7749],[7.4,7832],[7.4,7916],[7.4,7999],[7.4,8082],[7.9,8166],[8.1,8249],[8.1,8333],[8.1,8416],[8.1,8499],[8.1,8583],[8.2,8666],[9.4,8749],[13.9,8833],[18.4,8916],[20.6,8999],[22.9,9083],[24.5,9166],[25.6,9249],[26.7,9333],[27.9,9416],[29.2,9499],[30,9583],[30.9,9666],[31.8,9749],[31.9,9832],[31.9,9916],[31.9,9999],[31.9,10082],[31.9,10166],[31.9,10249],[31.9,10332],[31.9,10416],[33.4,10499],[35.1,10583],[35.5,10666],[35.6,10749],[35.7,10833],[35.7,10916],[35.7,10999],[35.7,11083],[35.7,11166],[35.7,11249],[35.7,11333],[35.7,11416],[35.7,11499],[35.7,11583],[35.7,11666],[35.7,11749],[35.7,11833],[35.7,11916],[35.7,11999],[35.7,12083],[35.8,12166],[35.8,12249],[35.8,12332],[35.8,12416],[35.8,12499],[35.8,12583],[35.8,12666],[35.8,12749],[35.8,12832],[36.6,12916],[38.3,12999],[39.4,13083],[40.4,13166],[40.4,13249],[40.4,13333],[40.4,13416],[40.4,13499],[40.4,13583],[40.4,13666],[40.4,13749],[40.4,13833],[40.4,13916],[40.4,13999],[40.4,14083],[40.4,14166],[40.4,14249],[40.4,14333],[40.4,14416],[40.4,14499],[40.4,14583],[40.4,14666],[40.4,14749],[40.4,14832],[40.4,14916],[40.4,14999],[40.4,15083],[40.4,15166],[40.4,15249],[40.4,15333],[40.4,15416],[40.4,15499],[40.4,15583],[40.4,15666],[40.4,15749],[40.4,15833],[40.4,15916],[40.4,15999],[40.4,16083],[40.4,16166],[40.4,16249],[40.4,16332],[40.4,16416],[40.4,16499],[40.4,16583],[40.4,16666],[40.4,16749],[40.4,16832],[40.4,16916],[40.4,16999],[40.4,17083],[40.4,17166]]",1,0,395.6601,399.0267,29.6875,2.7342,"[{""rating"":29.6875,""responseTime"":2.73420000028608}]",space,2.8187,,399.0268,Not at all,0,399.0277,,,[],,0,7,7,7,1,audio/Narrative7Situation7.wav,audio/Narrative8Situation7.wav,audio/Narrative5Situation7.wav,audio/Narrative6Situation7.wav,5,3,4,5,,,,,,,,,,,,,,,,,,,,,,,,,,,,,,,,,,,,,,,
,,,,,,5be4ad0aff68b30001975464,2024-02-08_16h07.14.248,group3.1-3.2-social-tom,2023.2.2,Win32,59.88023952,65c5074098b851296ff0b7ed,65c542593d48c4665308acf9,,,,,,,,,,,,,,,,,,,,,,,,,,,,,399.0278,1,audio/Narrative7Situation8.wav,401.0432,,401.0433,411.0602,"[[999,0],[999,83],[999,166],[999,249],[999,333],[999,416],[999,500],[999,583],[999,666],[999,750],[999,833],[999,916],[999,1000],[999,1083],[31.7,1166],[29.8,1250],[27.8,1333],[25.8,1416],[24.2,1500],[23.9,1583],[23.9,1666],[24.1,1750],[27.2,1833],[29.8,1916],[30.4,2000],[30.4,2083],[30.5,2166],[30.5,2250],[30.5,2333],[30.5,2416],[30.5,2499],[30.5,2583],[30.5,2666],[30.5,2750],[30.5,2833],[30.5,2916],[30.5,3000],[30.5,3083],[30.5,3166],[30.5,3250],[30.5,3333],[30.5,3416],[30.5,3500],[30.5,3583],[30.5,3666],[30.5,3750],[30.5,3833],[30.5,3916],[30.5,4000],[30.5,4083],[30.5,4166],[30.5,4250],[30.5,4333],[30.5,4416],[30.5,4500],[30.5,4583],[30.5,4666],[30.5,4750],[30.5,4833],[30.5,4916],[30.5,5000],[30.5,5083],[30.5,5166],[30.5,5250],[30.5,5333],[30.5,5416],[30.5,5500],[30.5,5583],[30.5,5666],[30.5,5750],[30.5,5833],[29.5,5916],[29.2,6000],[29.2,6083],[29.2,6166],[29.2,6250],[30.6,6333],[32,6416],[33.9,6500],[34.7,6583],[36.1,6666],[37.4,6750],[38.2,6833],[38.8,6916],[40.6,7000],[40.9,7083],[40.9,7166],[40.9,7250],[40.9,7333],[40.9,7416],[40.9,7500],[40.9,7583],[40.9,7666],[40.9,7750],[40.9,7833],[40.9,7916],[40.9,8000],[40.9,8083],[40.9,8166],[40.9,8250],[40.9,8333],[40.9,8416],[40.9,8500],[40.9,8583],[40.9,8666],[41.9,8750],[46.1,8833],[47.9,8916],[51.4,9000],[52.9,9083],[53.8,9166],[55,9250],[55.2,9333],[55.2,9416],[55.2,9500],[55.5,9583],[57.5,9666],[58.2,9750],[58.2,9833],[58.2,9916],[58.5,10000]]",1,0,411.0604,415.2435,50.41666667,3.0779,"[{""rating"":50.416666666666664,""responseTime"":3.0778999996185803}]",space,3.6476,,415.2435,Not at all,0,415.2444,,,[],,0,8,8,8,1,audio/Narrative7Situation8.wav,audio/Narrative8Situation8.wav,audio/Narrative5Situation8.wav,audio/Narrative6Situation8.wav,2,3,3,5,,,,,,,,,,,,,,,,,,,,,,,,,,,,,,,,,,,,,,,
,,,,,,5be4ad0aff68b30001975464,2024-02-08_16h07.14.248,group3.1-3.2-social-tom,2023.2.2,Win32,59.88023952,65c5074098b851296ff0b7ed,65c542593d48c4665308acf9,,,,,,,,,,,,,,,,,,,,,,,,,,,,,415.2447,1,audio/Narrative7Situation9.wav,417.2601,,417.2601,425.877,"[[999,0],[999,83],[999,166],[999,249],[999,333],[999,416],[999,499],[999,583],[999,666],[999,750],[999,833],[999,916],[999,999],[999,1083],[999,1166],[999,1250],[999,1333],[999,1416],[999,1500],[999,1583],[999,1666],[999,1750],[999,1833],[48.9,1916],[48.2,2000],[47.8,2083],[47.8,2166],[48,2250],[48,2333],[48,2416],[48,2499],[45.1,2583],[42,2666],[40.4,2750],[38,2833],[32.8,2916],[25.7,3000],[21,3083],[20.5,3166],[20.5,3250],[20.5,3333],[20.5,3416],[20.9,3500],[22.1,3583],[22.3,3666],[22.3,3749],[22.3,3833],[22.3,3916],[22.3,3999],[22.3,4083],[22.3,4166],[22.3,4250],[22.3,4333],[22.3,4416],[22.3,4500],[22.3,4583],[22.4,4666],[28.2,4750],[33,4833],[34.5,4916],[36.4,5000],[37.8,5083],[39.4,5166],[40.1,5250],[40.4,5333],[40.4,5416],[40.4,5499],[40.4,5583],[40.4,5666],[40.4,5750],[40.4,5833],[40.4,5916],[40.4,5999],[40.4,6083],[40.4,6166],[40.4,6250],[40.4,6333],[40.4,6416],[40.4,6499],[40.4,6583],[40.4,6666],[40.4,6749],[40.4,6833],[40.4,6916],[40.4,6999],[40.4,7083],[40.4,7166],[40.4,7250],[40.5,7333],[40.5,7416],[40.5,7500],[40.5,7583],[40.5,7666],[40.5,7750],[40.5,7833],[40.5,7916],[40.5,8000],[40.5,8083],[40.5,8166],[40.5,8249],[40.5,8333],[40.5,8416],[40.7,8500],[42.2,8583]]",1,0,425.8771,429.7601,37.70833333,2.4102,"[{""rating"":37.708333333333336,""responseTime"":2.410199999809265}]",space,3.339,,429.7602,All the time,100,429.7616,,,[],,0,9,9,9,1,audio/Narrative7Situation9.wav,audio/Narrative8Situation9.wav,audio/Narrative5Situation9.wav,audio/Narrative6Situation9.wav,2,3,3,4,,,,,,,,,,,,,,,,,,,,,,,,,,,,,,,,,,,,,,,
,,,,,,5be4ad0aff68b30001975464,2024-02-08_16h07.14.248,group3.1-3.2-social-tom,2023.2.2,Win32,59.88023952,65c5074098b851296ff0b7ed,65c542593d48c4665308acf9,,,,,,,,,,,,,,,,,,,,,,,,,,,,,429.7617,1,audio/Narrative8Situation1.wav,434.7768,,434.7768,450.6938,"[[999,5],[999,83],[999,166],[999,249],[999,333],[999,416],[999,499],[999,583],[999,666],[999,750],[999,833],[999,916],[999,1000],[999,1083],[999,1166],[999,1250],[999,1333],[999,1416],[999,1500],[999,1583],[999,1666],[999,1750],[1.9,13750],[3.6,13833],[5.3,13916],[6.6,14000],[7.6,14083],[10,14167],[15.2,14250],[19.5,14333],[20.1,14416],[20.1,14500],[20.1,14583],[20.1,14666],[20.1,14750],[20.1,14833],[20.1,14916],[20.1,15000],[20.1,15083],[20.1,15166],[20.1,15250],[20.1,15333],[20.1,15416],[20.1,15500],[20.1,15583],[20.1,15666],[20.1,15750],[20.1,15833],[20.1,15916]]",1,0,450.6939,453.7769,19.47916667,1.5453,"[{""rating"":19.479166666666664,""responseTime"":1.5452999997139045}]",space,2.5469,,453.777,Not at all,0,453.7784,,,[],,0,10,10,10,1,audio/Narrative8Situation1.wav,audio/Narrative7Situation1.wav,audio/Narrative6Situation1.wav,audio/Narrative5Situation1.wav,5,2,2,5,,,,,,,,,,,,,,,,,,,,,,,,,,,,,,,,,,,,,,,
,,,,,,5be4ad0aff68b30001975464,2024-02-08_16h07.14.248,group3.1-3.2-social-tom,2023.2.2,Win32,59.88023952,65c5074098b851296ff0b7ed,65c542593d48c4665308acf9,,,,,,,,,,,,,,,,,,,,,,,,,,,,,453.7785,1,audio/Narrative8Situation2.wav,456.7936,,456.7936,466.9103,"[[999,5],[999,83],[999,166],[999,250],[999,333],[999,416],[999,500],[999,583],[1.3,666],[0.6,750],[0.5,833],[0.5,916],[0.5,999],[0.5,1083],[0.6,1166],[0.6,1249],[0.7,1333],[0.8,1416],[0.8,1500],[0.8,1583],[0.8,1666],[0.8,1750],[0.8,1833],[0.8,1916],[0.8,2000],[0.9,2083],[1.1,2166],[1.1,2250],[1.1,2333],[1.3,2416],[1.8,2500],[2.6,2583],[5.2,2666],[6.4,2750],[8.1,2833],[9.8,2916],[10.1,3000],[10.6,3083],[11.3,3166],[12.7,3250],[13.8,3333],[14,3416],[14.2,3500],[14.2,3583],[14.2,3666],[14.2,3750],[14.2,3833],[14.2,3916],[14.2,4000],[14.2,4083],[14.2,4166],[14.2,4250],[14.4,4333],[15.3,4416],[16.1,4500],[17.7,4583],[19.4,4666],[19.8,4750],[20.7,4833],[21.5,4916],[21.5,5000],[21.5,5083],[21.5,5166],[21.5,5250],[21.5,5333],[21.5,5416],[21.5,5500],[21.5,5583],[21.5,5666],[21.5,5750],[21.5,5833],[21.5,5916],[21.5,6000],[21.5,6083],[21.5,6166],[22.2,6250],[22.7,6333],[23.6,6416],[24.3,6500],[25,6583],[25.7,6666],[27.3,6750],[29,6833],[30.8,6916],[33.3,7000],[34,7083],[36,7166],[40.5,7250],[44.6,7333],[47.3,7416],[48.4,7500],[48.6,7583],[49.4,7667],[49.4,7750],[49.4,7833],[49.5,7916],[49.7,8000],[49.7,8083],[49.7,8166],[50.1,8250],[50.2,8333],[50.2,8416],[50.2,8500],[50.2,8583],[50.2,8666],[50.2,8750],[50.2,8833],[50.2,8916],[50.2,9000],[50.2,9083],[50.2,9166],[50.2,9250],[50.2,9333],[50.2,9416],[50.2,9500],[50.2,9583],[50.2,9666],[50.2,9750],[50.2,9833],[50.2,9916],[50.2,10000],[50.2,10083]]",1,0,466.9104,470.7272,30.10416667,3.144,"[{""rating"":30.104166666666664,""responseTime"":3.1440000000000055}]",space,3.2735,,470.7273,Not at all,0,470.7285,,,[],,0,11,11,11,1,audio/Narrative8Situation2.wav,audio/Narrative7Situation2.wav,audio/Narrative6Situation2.wav,audio/Narrative5Situation2.wav,3,3,3,3,,,,,,,,,,,,,,,,,,,,,,,,,,,,,,,,,,,,,,,
,,,,,,5be4ad0aff68b30001975464,2024-02-08_16h07.14.248,group3.1-3.2-social-tom,2023.2.2,Win32,59.88023952,65c5074098b851296ff0b7ed,65c542593d48c4665308acf9,,,,,,,,,,,,,,,,,,,,,,,,,,,,,470.7287,1,audio/Narrative8Situation3.wav,474.7437,,474.7437,497.1107,"[[999,5],[999,83],[999,166],[999,250],[999,333],[999,416],[999,500],[999,583],[999,666],[999,750],[999,833],[999,916],[999,1000],[29,1083],[31,1166],[32.2,1249],[32.2,1333],[32.2,1416],[32.2,1500],[32.2,1583],[32.2,1666],[32.2,1750],[32.2,1833],[32.2,1916],[32.2,2000],[32.3,2083],[32.3,2166],[32.8,2250],[36.4,2333],[39.2,2417],[42.3,2500],[45.2,2583],[47.8,2666],[48.9,2750],[49.3,2833],[49.3,2916],[49.3,3000],[49.3,3083],[49.3,3166],[49.3,3250],[49.4,3333],[49.5,3416],[49.6,3500],[49.6,3583],[49.6,3666],[49.6,3750],[49.6,3833],[49.6,3916],[49.6,4000],[49.6,4083],[49.6,4166],[49.6,4250],[49.6,4333],[49.6,4416],[49.6,4500],[49.6,4583],[49.6,4666],[49.6,4750],[49.6,4833],[49.6,4916],[49.6,5000],[49.6,5083],[49.6,5166],[49.6,5250],[49.6,5333],[49.6,5416],[49.6,5500],[49.6,5583],[49.6,5666],[49.6,5750],[49.6,5833],[49.6,5917],[49.6,6000],[49.6,6083],[49.6,6166],[49.6,6250],[49.6,6333],[49.6,6416],[49.6,6500],[49.6,6583],[49.6,6666],[49.6,6750],[49.6,6833],[49.6,6916],[49.6,7000],[49.6,7083],[49.6,7166],[49.6,7250],[49.6,7333],[49.6,7416],[49.6,7500],[49.6,7583],[49.6,7666],[49.6,7750],[49.6,7833],[49.6,7916],[49.6,8000],[49.6,8083],[49.6,8166],[49.6,8250],[49.6,8333],[49.6,8416],[49.6,8500],[49.6,8583],[49.6,8666],[49.6,8750],[49.6,8833],[49.6,8916],[49.2,9000],[47.8,9083],[46.9,9166],[45.2,9250],[44.3,9333],[42.4,9416],[40.3,9500],[39.6,9583],[39,9666],[39,9750],[39,9833],[39,9916],[39,10000],[39,10083],[39,10166],[39,10250],[39,10333],[39,10416],[39,10500],[39,10583],[39,10666],[39,10750],[39,10833],[39,10916],[39,11000],[39,11083],[39,11166],[39,11250],[39,11333],[39,11416],[39.2,11500],[39.6,11583],[40,11666],[40,11750],[40,11833],[40,11916],[40,12000],[40,12083],[40,12166],[40,12250],[40,12333],[40.1,12416],[45,12500],[47,12583],[47,12666],[47,12750],[47,12833],[47,12916],[47,13000],[47,13083],[47,13166],[47,13250],[47,13333],[47,13416],[47,13500],[47,13583],[47,13666],[47,13750],[47,13833],[47,13916],[47,14000],[47,14083],[47,14166],[47,14250],[47,14333],[47,14416],[47,14500],[47,14583],[47,14666],[47,14750],[47,14833],[47,14916],[47,15000],[47,15083],[47,15166],[47,15250],[47,15333],[47,15416],[47,15500],[47,15583],[47,15666],[47,15750],[47,15833],[47,15916],[47,16000],[47,16083],[47,16166],[47,16250],[47,16333],[47,16416],[47,16500],[47,16583],[47,16666],[47,16750],[47,16833],[47,16916],[47,17000],[47,17083],[47,17166],[47,17250],[47,17333],[47,17416],[47,17500],[47,17583],[45.9,17666],[45.4,17750],[43,17833],[39.8,17916],[37,18000],[36.5,18083],[33.2,18166],[31.4,18250],[29.7,18333],[28.5,18416],[27.2,18500],[26,18583],[25.6,18666],[24.4,18750],[24.4,18833],[24.4,18916],[24.4,19000],[24.4,19083],[24.4,19166],[24.4,19250],[24.4,19333],[24.4,19416],[24.4,19500],[24.4,19583],[24.4,19666],[24.4,19750],[24.4,19833],[24.4,19916],[24.4,20000],[24.4,20083],[24.4,20166],[24.4,20250],[24.4,20333],[24.4,20416],[24.4,20500],[24.4,20583],[24.4,20666],[24.4,20750],[24.4,20833],[24.4,20916],[24.4,21000],[24.4,21083],[24.4,21166],[24.4,21250],[24.4,21333],[24.4,21416],[24.4,21500],[24.4,21583],[24.4,21666],[24.4,21750],[24.4,21833],[24.4,21916],[24.4,22000],[24.4,22083],[24.4,22166],[24.4,22250],[24.4,22333]]",1,0,497.1107,500.7272,26.66666667,3.2715,"[{""rating"":23.958333333333332,""responseTime"":1.5703999996185303},{""rating"":26.666666666666668,""responseTime"":3.271500000000003}]",space,3.08,,500.7273,Not at all,0,510.2107,0,7.5221,"[{""rating"":0,""responseTime"":4.875999999999976},{""rating"":0,""responseTime"":6.987000000000023},{""rating"":0,""responseTime"":7.522100000381499}]",space,0,12,12,12,1,audio/Narrative8Situation3.wav,audio/Narrative7Situation3.wav,audio/Narrative6Situation3.wav,audio/Narrative5Situation3.wav,4,8,5,3,,,8.9523,,,,,,,,,,,,,,,,,,,,,,,,,,,,,,,,,,,,
,,,,,,5be4ad0aff68b30001975464,2024-02-08_16h07.14.248,group3.1-3.2-social-tom,2023.2.2,Win32,59.88023952,65c5074098b851296ff0b7ed,65c542593d48c4665308acf9,,,,,,,,,,,,,,,,,,,,,,,,,,,,,510.2108,1,audio/Narrative8Situation4.wav,513.2273,,513.2273,527.4107,"[[999,5],[999,83],[999,166],[999,250],[999,333],[999,416],[999,499],[999,583],[999,666],[999,749],[999,833],[999,916],[999,1000],[999,1083],[999,1166],[999,1250],[999,1333],[999,1416],[999,1500],[999,1583],[1,1666],[3.5,1750],[5.3,1833],[5.4,1916],[5.4,1999],[3.6,2083],[0.3,2166],[0.3,2250],[0.3,2333],[0.3,2416],[0.3,2500],[0.3,2583],[0.3,2666],[0.3,2749],[0.3,2833],[0.3,2916],[0.3,3000],[0.3,3083],[0.3,3166],[0.3,3249],[1.5,3333],[2.7,3416],[3.6,3500],[4.2,3583],[4.2,3666],[4.2,3750],[4.2,3833],[4.2,3916],[4,4000],[4,4083],[4,4166],[4,4250],[4,4333],[4,4416],[4,4499],[4,4583],[4,4666],[4,4750],[4,4833],[4,4916],[4,5000],[4,5083],[4,5166],[4,5250],[4,5333],[4,5416],[4,5499],[4,5583],[4,5666],[4,5750],[4,5833],[4,5916],[4,6000],[4,6083],[4,6166],[4,6250],[4,6333],[4,6416],[4,6500],[4,6583],[4,6666],[4,6750],[4,6833],[4,6916],[4.1,7000],[4.2,7083],[4.3,7166],[4.5,7250],[5.4,7333],[6.9,7416],[8.1,7500],[9.1,7583],[10.1,7666],[11.1,7750],[11.6,7833],[11.6,7916],[11.6,8000],[12.1,8083],[12.3,8166],[12.3,8249],[12.3,8333],[12.3,8416],[12.3,8500],[12.3,8583],[12.3,8666],[12.3,8750],[12.3,8833],[12.3,8917],[12.3,9000],[12.3,9083],[12.3,9166],[12.3,9250],[12.3,9333],[12.3,9416],[13.1,9500],[16,9583],[16.6,9666],[16.6,9750],[16.6,9833],[16.6,9916],[16.6,10000],[16.6,10083],[16.6,10166],[16.6,10250],[16.6,10333],[16.6,10416],[16.6,10499],[16.6,10583],[16.6,10666],[16.6,10750],[16.6,10833],[16.6,10916],[16.6,10999],[16.6,11083],[16.6,11166],[16.6,11250],[16.6,11333],[16.6,11416],[16.6,11499],[16.6,11583],[16.6,11666],[16.6,11750],[16.6,11833],[16.6,11916],[16.6,12000],[16.6,12083],[16.6,12166],[17.1,12250],[18,12333],[19.4,12416],[20.6,12500],[21.6,12583],[22.4,12666],[22.4,12750],[22.4,12833],[22.4,12916],[22.4,13000],[22.4,13083],[22.4,13166],[22.4,13250],[22.4,13333],[22.4,13416],[22.4,13500],[22.4,13583],[22.4,13666],[22.4,13750],[22.4,13833],[22.4,13916],[22.4,14000],[22.4,14083],[22.4,14166]]",1,0,527.4108,530.1107,15.625,1.5734,"[{""rating"":15.625,""responseTime"":1.5733999996184593}]",space,2.151,,530.1107,Half the time,50,530.1123,,,[],,0,13,13,13,1,audio/Narrative8Situation4.wav,audio/Narrative7Situation4.wav,audio/Narrative6Situation4.wav,audio/Narrative5Situation4.wav,3,3,2,1,,,,,,,,,,,,,,,,,,,,,,,,,,,,,,,,,,,,,,,
,,,,,,5be4ad0aff68b30001975464,2024-02-08_16h07.14.248,group3.1-3.2-social-tom,2023.2.2,Win32,59.88023952,65c5074098b851296ff0b7ed,65c542593d48c4665308acf9,,,,,,,,,,,,,,,,,,,,,,,,,,,,,530.1125,1,audio/Narrative8Situation5.wav,532.1274,,532.1275,540.3775,"[[999,0],[999,83],[999,166],[999,250],[999,333],[999,416],[999,499],[999,583],[999,666],[999,749],[999,833],[999,916],[999,1000],[999,1083],[999,1166],[999,1250],[999,1333],[999,1416],[999,1500],[999,1583],[999,1666],[999,1750],[999,1833],[0.3,1916],[1.5,2000],[3.9,2083],[4.1,2166],[4.1,2249],[4.1,2333],[4.1,2416],[4.1,2499],[4.1,2583],[4.1,2666],[4.1,2749],[4.1,2833],[4.1,2916],[4.1,2999],[5,3083],[5.9,3166],[5.9,3249],[6.3,3333],[6.4,3416],[6.4,3499],[6.4,3583],[6.4,3666],[7.1,3750],[9.4,3833],[10.8,3916],[11.6,3999],[11.8,4083],[11.8,4166],[12.1,4250],[12.8,4333],[13.2,4416],[14.8,4500],[16.5,4583],[17.3,4666],[17.4,4749],[17.4,4833],[17.4,4916],[17.4,4999],[17.4,5083],[17.4,5166],[17.4,5249],[17.4,5333],[17.4,5416],[17.4,5499],[17.4,5583],[17.4,5666],[17.4,5749],[17.4,5833],[17.4,5916],[17.4,5999],[17.4,6083],[17.4,6166],[17.4,6249],[17.4,6333],[17.4,6416],[17.4,6499],[17.4,6583],[17.4,6666],[17.6,6750],[18.1,6833],[19.1,6916],[19.9,7000],[20.3,7083],[20.6,7166],[21,7249],[21,7333],[21,7416],[21,7499],[21,7583],[21,7666],[21,7749],[21,7833],[21,7916],[21,7999],[21,8083],[21,8166],[21,8249]]",1,0,540.3776,542.211,15.83333333,1.4841,"[{""rating"":15.833333333333332,""responseTime"":1.484099999904629}]",space,1.3132,,542.2111,Not at all,0,542.2126,,,[],,0,14,14,14,1,audio/Narrative8Situation5.wav,audio/Narrative7Situation5.wav,audio/Narrative6Situation5.wav,audio/Narrative5Situation5.wav,2,5,2,5,,,,,,,,,,,,,,,,,,,,,,,,,,,,,,,,,,,,,,,
,,,,,,5be4ad0aff68b30001975464,2024-02-08_16h07.14.248,group3.1-3.2-social-tom,2023.2.2,Win32,59.88023952,65c5074098b851296ff0b7ed,65c542593d48c4665308acf9,,,,,,,,,,,,,,,,,,,,,,,,,,,,,542.2128,1,audio/Narrative8Situation6.wav,544.2274,,544.2274,550.7109,"[[999,0],[999,83],[999,166],[999,249],[999,333],[999,416],[999,500],[999,583],[999,666],[999,750],[999,833],[999,916],[999,1000],[999,1083],[999,1166],[0.9,1250],[0.7,1333],[0.7,1416],[0.8,1500],[0.8,1583],[0.8,1666],[0.8,1750],[2.1,1833],[3.1,1916],[3.3,2000],[4,2083],[5.1,2166],[5.8,2250],[6.5,2333],[6.9,2416],[9.4,2500],[10.4,2583],[10.4,2666],[10.6,2750],[11,2833],[12.3,2916],[13,3000],[13,3083],[13,3166],[13,3250],[13,3333],[13,3416],[13,3500],[13,3583],[13,3666],[13,3750],[13,3833],[13,3916],[13,4000],[13,4083],[13,4166],[13,4250],[13,4333],[13,4416],[13,4500],[13,4583],[13,4666],[13,4750],[13,4833],[13,4916],[13,5000],[13,5083],[13,5166],[13,5250],[13,5333],[13,5416],[13,5500],[13,5583],[13,5666],[13,5750],[13,5833],[13,5916],[13,6000],[13,6083],[13,6166],[13,6250],[13,6333],[13,6416]]",1,0,550.711,552.5944,10.3125,1.1904,"[{""rating"":10.312500000000002,""responseTime"":1.190400000095451}]",space,1.3361,,552.5945,Half the time,50,552.596,,,[],,0,15,15,15,1,audio/Narrative8Situation6.wav,audio/Narrative7Situation6.wav,audio/Narrative6Situation6.wav,audio/Narrative5Situation6.wav,2,3,2,3,,,,,,,,,,,,,,,,,,,,,,,,,,,,,,,,,,,,,,,
,,,,,,5be4ad0aff68b30001975464,2024-02-08_16h07.14.248,group3.1-3.2-social-tom,2023.2.2,Win32,59.88023952,65c5074098b851296ff0b7ed,65c542593d48c4665308acf9,,,,,,,,,,,,,,,,,,,,,,,,,,,,,552.5961,1,audio/Narrative8Situation7.wav,555.6108,,555.6108,567.7109,"[[999,0],[999,83],[999,166],[999,249],[999,333],[999,416],[999,500],[999,583],[999,666],[999,750],[999,833],[999,916],[999,1000],[999,1083],[999,1166],[3.1,1250],[2,1333],[1,1416],[0.2,2416],[1.1,2500],[1.1,2583],[1.1,2666],[1.1,2750],[1.1,2833],[1.1,2916],[1.1,3000],[1.1,3083],[1.1,3166],[1.1,3250],[1.1,3333],[1.1,3416],[1.1,3500],[1.1,3583],[1.1,3666],[1.1,3750],[1.1,3833],[1.1,3916],[1.1,4000],[1.1,4083],[1.1,4166],[1.1,4250],[1.1,4333],[1.1,4416],[1.1,4500],[1.1,4583],[1.1,4666],[1.1,4750],[1.1,4833],[1.1,4916],[1.1,5000],[1.1,5083],[1.1,5166],[1.1,5250],[1.1,5333],[1.1,5416],[1.1,5500],[1.1,5583],[1.1,5666],[1.1,5750],[1.1,5833],[1.1,5916],[1.1,6000],[1.1,6083],[1.1,6166],[1.1,6250],[1.1,6333],[1.1,6416],[1.1,6500],[1.1,6584],[1.1,6666],[1.1,6750],[1.1,6833],[1.1,6916],[1.1,7000],[1.1,7083],[1.1,7166],[1.1,7250],[1.1,7333],[1.1,7416],[1.1,7500],[1.1,7583],[1.1,7666],[1.1,7750],[1.1,7833],[1.1,7916],[1.1,8000],[1.1,8083],[1.1,8166],[1.1,8250],[1.1,8333],[1.1,8416],[1.1,8500],[1.1,8583],[1.1,8666],[1.1,8750],[1.1,8833],[1.1,8916],[1.1,9000],[1.1,9083],[1.1,9166],[1.1,9250],[1.1,9333],[1.1,9416],[1.1,9500],[1.1,9583],[1.1,9666],[1.1,9750],[1.1,9833],[1.1,9916],[1.1,10000],[1.1,10083],[1.1,10166],[1.1,10250],[1.1,10333],[1.1,10416],[1.1,10500],[1.1,10583],[1.8,10666],[2.6,10750],[6,10833],[10.1,10916],[14.9,11000],[19.9,11083],[25.9,11166],[32.5,11250],[38.5,11333],[42.9,11416],[46.7,11500],[48.8,11583],[48.9,11666],[48.9,11750],[48.9,11833],[48.9,11916],[48.9,12000],[48.9,12083]]",1,0,567.711,571.1276,5.104166667,2.7723,"[{""rating"":2.812500000000001,""responseTime"":2.1322999997139505},{""rating"":5.104166666666665,""responseTime"":2.772299999713937}]",space,2.8778,,571.1277,Not at all,0,571.1288,,,[],,0,16,16,16,1,audio/Narrative8Situation7.wav,audio/Narrative7Situation7.wav,audio/Narrative6Situation7.wav,audio/Narrative5Situation7.wav,3,5,5,4,,,,,,,,,,,,,,,,,,,,,,,,,,,,,,,,,,,,,,,
,,,,,,5be4ad0aff68b30001975464,2024-02-08_16h07.14.248,group3.1-3.2-social-tom,2023.2.2,Win32,59.88023952,65c5074098b851296ff0b7ed,65c542593d48c4665308acf9,,,,,,,,,,,,,,,,,,,,,,,,,,,,,571.129,1,audio/Narrative8Situation8.wav,574.1443,,574.1443,586.9944,"[[999,0],[999,83],[999,166],[999,250],[999,333],[999,416],[999,499],[999,583],[999,666],[999,750],[999,833],[999,916],[999,1000],[999,1083],[999,1167],[999,1250],[999,1333],[999,1416],[1.5,1500],[0.5,1583],[0.3,1666],[0.3,1750],[0.3,1833],[0.3,1916],[0.1,2000],[0.1,4083],[0.2,4166],[0.2,4249],[0.2,4333],[0.2,4416],[0.2,4500],[0.2,4583],[0.2,4666],[0.2,4750],[0.2,4833],[0.2,4916],[0.2,4999],[0.2,5083],[0.2,5166],[0.2,5250],[0.2,5333],[1.8,5417],[3.8,5500],[5,5583],[5.2,5666],[5.6,5750],[6,5833],[6.3,5916],[6.3,5999],[6.3,6083],[6.3,6166],[6.3,6250],[6.3,6333],[6.3,6416],[6.3,6500],[6.3,6583],[6.3,6666],[6.3,6749],[6.3,6833],[6.3,6916],[6.3,7000],[6.3,7083],[6.3,7166],[6.3,7250],[6.3,7333],[6.3,7416],[6.3,7500],[6.3,7583],[6.3,7666],[6.3,7749],[6.3,7833],[6.3,7916],[6.3,8000],[6.3,8083],[6.3,8166],[6.3,8249],[6.3,8333],[6.3,8416],[6.3,8500],[6.3,8583],[6.3,8666],[6.3,8749],[6.3,8833],[6.3,8916],[6.3,9000],[6.3,9083],[6.3,9166],[6.3,9250],[6.3,9333],[6.3,9416],[6.3,9500],[6.3,9583],[6.3,9666],[6.3,9749],[6.3,9833],[6.3,9916],[6.3,10000],[6.3,10083],[6.3,10166],[6.3,10249],[6.3,10333],[6.3,10416],[6.3,10500],[6.3,10583],[6.3,10666],[6.3,10750],[6.3,10833],[6.3,10916],[6.3,11000],[6.3,11083],[6.3,11166],[6.3,11250],[6.3,11333],[6.3,11416],[6.3,11500],[6.3,11583],[6.3,11666],[6.3,11750],[6.3,11833],[9.6,11916],[12.6,12000],[14.3,12083],[14.9,12166],[14.9,12250],[15.1,12333],[15.9,12416],[16.8,12500],[17.3,12583],[18.1,12666],[18.8,12750],[18.8,12833]]",1,0,586.9944,591.9611,13.33333333,1.568,"[{""rating"":13.333333333333336,""responseTime"":1.5679999999999836}]",space,4.4356,,591.9611,Not at all,0,591.9619,,,[],,0,17,17,17,1,audio/Narrative8Situation8.wav,audio/Narrative7Situation8.wav,audio/Narrative6Situation8.wav,audio/Narrative5Situation8.wav,3,2,5,3,,,,,,,,,,,,,,,,,,,,,,,,,,,,,,,,,,,,,,,
,,,,,,5be4ad0aff68b30001975464,2024-02-08_16h07.14.248,group3.1-3.2-social-tom,2023.2.2,Win32,59.88023952,65c5074098b851296ff0b7ed,65c542593d48c4665308acf9,,,,,,,,,,,,,,,,,,,,,,,,,,,,,591.9621,1,audio/Narrative8Situation9.wav,594.9777,,594.9778,606.3112,"[[999,5],[999,83],[999,166],[999,249],[999,333],[999,416],[999,499],[999,583],[999,666],[999,749],[999,833],[999,916],[999,1000],[999,1083],[999,1166],[999,1250],[999,1333],[0.2,1416],[0.3,2250],[0.6,2333],[1,2416],[1.7,2500],[2.1,2583],[2.3,2666],[2.4,2749],[2.5,2833],[2.5,2916],[2.8,3000],[3,3083],[3,3166],[3,3249],[3,3333],[3.1,3416],[3.1,3499],[3.1,3583],[3.1,3666],[3.1,3749],[3.1,3833],[3.1,3916],[3.1,3999],[3.1,4083],[3.1,4166],[3.1,4249],[3.1,4333],[3.1,4416],[3.1,4500],[3.1,4583],[3.1,4666],[3.1,4749],[3.1,4833],[3.1,4916],[3.1,4999],[3.1,5083],[3.1,5166],[3.1,5249],[3.1,5333],[3.1,5416],[3.1,5500],[3.1,5583],[3.8,5666],[4.2,5750],[4.7,5833],[5,5916],[5.6,6000],[6,6083],[6.4,6166],[6.7,6250],[7,6333],[7,6416],[7,6500],[7,6583],[7,6666],[7,6749],[7,6833],[7,6916],[7,6999],[7,7083],[7,7166],[7,7250],[7,7333],[7,7416],[7,7499],[7,7583],[7,7666],[7,7749],[7,7833],[7,7916],[7,7999],[8.3,8083],[14.2,8166],[17.9,8250],[18,8333],[18,8416],[18,8500],[18,8583],[18,8666],[18,8750],[20.2,8833],[27.4,8916],[30.1,9000],[30.3,9083],[30.3,9166],[30.3,9249],[30.3,9333],[30.3,9416],[30.3,9499],[30.3,9583],[30.3,9666],[30.3,9750],[30.3,9833],[30.3,9916],[30.3,10000],[30.3,10083],[30.3,10166],[32.1,10250],[36.5,10333],[42.8,10416],[47.5,10500],[47.6,10583],[47.6,10666],[47.6,10749],[47.6,10833],[47.6,10916],[47.6,10999],[47.6,11083],[47.6,11166],[47.6,11249],[47.6,11333]]",1,0,606.3113,608.0612,38.75,1.0769,"[{""rating"":38.75,""responseTime"":1.0769000000954065}]",space,1.2308,,608.0612,Half the time,50,608.0627,,,[],,0,18,18,18,1,audio/Narrative8Situation9.wav,audio/Narrative7Situation9.wav,audio/Narrative6Situation9.wav,audio/Narrative5Situation9.wav,3,2,4,3,,,,,,,,,,,,,,,,,,,,,,,,,,,,,,,,,,,,,,,
,,,,,,5be4ad0aff68b30001975464,2024-02-08_16h07.14.248,group3.1-3.2-social-tom,2023.2.2,Win32,59.88023952,65c5074098b851296ff0b7ed,65c542593d48c4665308acf9,,,,,,,,,,,,,,,,,,,,,,,,,,,613.4503,616.0278,616.0355,2,audio/Narrative13Situation2.wav,616.0355,,616.0356,645.7781,"[[999,0],[999,75],[999,159],[999,242],[999,325],[999,409],[999,492],[999,575],[999,659],[999,742],[999,825],[999,909],[999,992],[999,1076],[999,1159],[999,1242],[999,1325],[999,1409],[999,1492],[0.1,2659],[0.3,2742],[0.3,2825],[0.3,2908],[0.3,2992],[0.5,3075],[0.6,3158],[1.3,3242],[2.5,3325],[3.3,3409],[4.3,3492],[5.3,3575],[6.1,3659],[7.7,3742],[9,3825],[9.4,3908],[9.7,3992],[9.8,4075],[9.8,4158],[9.8,4242],[9.8,4325],[9.8,4409],[9.8,4492],[9.8,4575],[9.8,4659],[9.8,4742],[9.8,4825],[9.8,4909],[9.8,4992],[9.8,5075],[9.8,5159],[9.8,5242],[9.8,5325],[9.8,5409],[9.8,5492],[9.8,5575],[9.8,5659],[9.8,5742],[9.8,5825],[9.8,5909],[9.8,5992],[9.8,6075],[9.8,6159],[9.8,6242],[9.8,6325],[9.8,6409],[9.8,6492],[9.8,6575],[9.8,6659],[9.8,6742],[9.8,6825],[9.8,6909],[9.8,6992],[9.8,7075],[9.8,7159],[9.8,7242],[10.8,7325],[11.6,7409],[11.8,7492],[12.5,7576],[13.9,7659],[15.2,7742],[15.5,7825],[17,7909],[17.3,7992],[17.8,8075],[18.6,8159],[19,8242],[19.4,8325],[19.8,8409],[20,8492],[20,8575],[20,8659],[20,8742],[20,8825],[20,8909],[20,8992],[20,9075],[20,9159],[20,9242],[20,9325],[20,9409],[20,9492],[20,9575],[20,9659],[20,9742],[20,9825],[20,9909],[20,9992],[20,10075],[20,10159],[20,10242],[20,10325],[20,10409],[20,10492],[20,10575],[20,10659],[20,10742],[20,10825],[20,10909],[20,10992],[20,11075],[20,11159],[20,11242],[20,11325],[20,11409],[20,11492],[20,11575],[20,11659],[20,11742],[20,11825],[20,11909],[20,11992],[20,12075],[20,12159],[19.6,12242],[19.5,12325],[19.5,12409],[19.5,12492],[19.5,12575],[19.5,12659],[19.5,12742],[19.5,12825],[19.5,12909],[19.5,12992],[19.5,13075],[19.5,13159],[19.5,13242],[19.5,13325],[19.5,13409],[19.5,13492],[19.5,13575],[19.5,13659],[19.5,13742],[19.5,13825],[19.5,13909],[19.5,13992],[19.1,14075],[18.8,14159],[18.6,14242],[18.5,14325],[17.8,14409],[17.5,14492],[17,14575],[16.3,14659],[15.9,14742],[15.6,14825],[15.6,14909],[15.6,14992],[15.6,15075],[15.6,15159],[15.6,15242],[15.6,15325],[15.6,15409],[15.6,15492],[15.6,15575],[15.6,15659],[15.6,15742],[15.6,15825],[15.6,15909],[15.6,15992],[15.6,16075],[15.6,16159],[15.6,16242],[15.6,16325],[15.6,16409],[15.6,16492],[15.6,16575],[15.6,16659],[15.6,16742],[15.6,16825],[15.6,16909],[15.6,16992],[15.6,17075],[15.6,17159],[15.6,17242],[15.6,17325],[15.6,17409],[15.6,17492],[15.6,17575],[15.6,17659],[15.6,17742],[15.6,17825],[15.6,17909],[15.6,17992],[15.6,18075],[15.6,18159],[15.6,18242],[15.6,18325],[15.6,18409],[15.6,18492],[15.6,18575],[15.6,18659],[15.6,18742],[15.6,18825],[15.6,18909],[15.6,18992],[15.6,19075],[15.6,19159],[15.6,19242],[15.6,19325],[15.6,19409],[15.6,19492],[15.6,19575],[15.6,19659],[15.6,19742],[15.6,19825],[15.6,19909],[15.6,19992],[15.6,20075],[15.6,20159],[15.6,20242],[15.6,20325],[15.6,20409],[15.6,20492],[15.6,20575],[15.6,20659],[15.6,20742],[15.6,20825],[15.6,20909],[15.6,20992],[15.6,21075],[15.6,21159],[15.6,21242],[15.6,21325],[15.6,21409],[15.6,21492],[16,21576],[17.8,21659],[18.5,21742],[19.8,21825],[21.8,21909],[22.1,21992],[23.1,22076],[25.2,22159],[26.6,22242],[27.6,22326],[28.8,22409],[30,22492],[31.5,22575],[32.9,22659],[33.8,22742],[34.1,22825],[34.6,22909],[35.6,22992],[36.8,23076],[37.7,23159],[38.6,23242],[39.4,23326],[39.9,23409],[40.2,23492],[41.6,23575],[42.3,23659],[42.3,23742],[42.2,23825],[42.2,23909],[42.2,23992],[42.2,24075],[42.2,24159],[42.2,24242],[42.2,24325],[42.2,24409],[42.2,24492],[42.2,24575],[42.2,24659],[42.2,24742],[42.2,24825],[42.2,24909],[42.2,24992],[42.2,25075],[42.2,25159],[42.2,25242],[42.2,25325],[42.2,25409],[42.2,25492],[42.2,25575],[42.2,25659],[42.7,25742],[43.3,25825],[44.7,25909],[46,25992],[47.4,26075],[48.2,26159],[48.6,26242],[49,26326],[49.3,26409],[49.7,26492],[50.3,26575],[50.5,26659],[50.5,26742],[50.5,26825],[50.4,26909],[50.4,26992],[50.4,27075],[50.4,27159],[50.4,27242],[50.4,27325],[50.4,27409],[50.4,27492],[50.4,27575],[50.4,27659],[50.4,27742],[50.4,27825],[50.4,27909],[50.4,27992],[50.4,28075],[50.4,28159],[50.4,28242],[50.4,28325],[50.4,28409],[50.4,28492],[50.4,28575],[50.4,28659],[50.4,28742],[50.4,28825],[50.4,28909],[50.4,28992],[50.4,29075],[50.4,29159],[50.4,29242],[50.4,29325],[50.4,29409],[50.4,29492],[50.4,29575],[50.4,29659],[50.4,29742]]",1,0,645.7783,645.7794,,,[],,,,645.7794,Half the time,50,645.78,,,[],,0,0,0,0,1,audio/Narrative13Situation2.wav,audio/Narrative13Situation2.wav,audio/Narrative13Situation2.wav,audio/Narrative13Situation2.wav,2,2,2,2,,,,,608.0631,613.4451,space,4.8656,,,,,,,,,,,,,,,,,,,,,,,,,,,,,,,
,,,,,,5be4ad0aff68b30001975464,2024-02-08_16h07.14.248,group3.1-3.2-social-tom,2023.2.2,Win32,59.88023952,65c5074098b851296ff0b7ed,65c542593d48c4665308acf9,,,,,,,,,,,,,,,,,,,,,,,,,,,,,645.7801,2,audio/Narrative5Situation1.wav,650.7947,,650.7947,664.0949,"[[999,5],[999,83],[999,166],[999,250],[999,333],[999,416],[999,500],[999,583],[999,666],[999,750],[999,833],[999,916],[999,1000],[999,1083],[999,1166],[999,1250],[0.2,1916],[0.2,2000],[1.6,7750],[3.5,7833],[5.1,7916],[6.6,8000],[7.7,8083],[7.7,8166],[8.1,8250],[8.1,8333],[8.6,8416],[9,8500],[9,8583],[9,8666],[9.4,8750],[10.7,8833],[11.5,8916],[11.5,9000],[11.5,9083],[11.5,9166],[11.5,9250],[11.5,9333],[11.5,9416],[11.5,9500],[11.5,9583],[11.5,9666],[11.5,9750],[11.5,9833],[11.5,9916],[11.5,10000],[11.5,10083],[11.5,10166],[11.5,10250],[11.5,10333],[11.5,10416],[11.5,10500],[11.5,10583],[11.5,10666],[11.5,10750],[11.5,10833],[11.5,10916],[11.5,11000],[11.5,11083],[11.5,11166],[11.5,11250],[11.5,11333],[11.5,11416],[11.5,11500],[11.5,11583],[11.5,11666],[11.5,11750],[11.5,11833],[11.5,11916],[11.5,12000],[11.5,12083],[11.5,12166],[11.5,12250],[11.5,12333],[11.5,12416],[11.5,12500],[11.5,12583],[11.5,12666],[11.5,12750],[11.5,12833],[11.5,12916],[11.5,13000],[11.5,13083],[11.5,13166],[11.5,13250]]",1,0,664.095,667.445,6.5625,2.1511,"[{""rating"":6.562499999999999,""responseTime"":2.151099999904659}]",space,2.8144,,667.445,Half the time,50,667.4459,,,[],,0,1,1,1,1,audio/Narrative7Situation1.wav,audio/Narrative8Situation1.wav,audio/Narrative5Situation1.wav,audio/Narrative6Situation1.wav,2,5,5,2,,,,,,,,,,,,,,,,,,,,,,,,,,,,,,,,,,,,,,,
,,,,,,5be4ad0aff68b30001975464,2024-02-08_16h07.14.248,group3.1-3.2-social-tom,2023.2.2,Win32,59.88023952,65c5074098b851296ff0b7ed,65c542593d48c4665308acf9,,,,,,,,,,,,,,,,,,,,,,,,,,,,,667.4461,2,audio/Narrative5Situation2.wav,670.4615,,670.4615,699.9117,"[[999,0],[999,83],[999,166],[999,250],[999,333],[999,416],[999,500],[999,583],[999,666],[999,750],[999,833],[999,916],[999,1000],[999,1083],[1,1166],[0.2,1250],[0.3,1666],[0.3,1750],[0.3,1833],[0.3,1916],[0.3,2000],[0.4,2083],[0.5,2166],[0.5,2250],[0.5,2333],[0.5,2416],[0.5,2500],[0.5,2583],[0.5,2666],[0.9,2750],[2.7,2833],[3.6,2916],[4.4,3000],[4.4,3083],[4.4,3166],[4.4,3250],[4.4,3333],[4.4,3416],[4.4,3499],[4.4,3583],[4.4,3666],[4.4,3750],[4.4,3833],[4.4,3916],[4.4,3999],[4.4,4083],[4.4,4166],[4.4,4249],[4.4,4333],[4.4,4416],[4.4,4500],[4.4,4583],[4.4,4666],[4.4,4750],[4.7,4833],[5.1,4916],[5.1,5000],[5.1,5083],[5.1,5166],[5.1,5250],[5.1,5333],[5.1,5416],[5.1,5500],[5.1,5583],[5.1,5666],[5.1,5749],[5.1,5833],[5.1,5916],[5.1,6000],[5.1,6083],[5.1,6166],[5.1,6250],[5.1,6333],[5.1,6416],[5.1,6500],[5.1,6583],[5.1,6666],[5.1,6750],[5.1,6833],[5.1,6916],[5.1,7000],[5.1,7083],[5.1,7166],[5.1,7250],[5.1,7333],[5.1,7416],[5.1,7500],[5.1,7583],[5.1,7666],[5.1,7750],[5.1,7833],[5.1,7916],[5.1,7999],[5.1,8083],[5.1,8166],[5.1,8250],[5.1,8333],[5.1,8416],[5.1,8500],[5.1,8583],[5.1,8666],[5.1,8750],[5.1,8833],[5.1,8916],[5.1,9000],[5.1,9083],[5.1,9166],[5.1,9249],[5.1,9333],[5.1,9416],[5.1,9500],[5.1,9583],[5.1,9666],[5.1,9750],[5.1,9833],[5.1,9916],[5.1,10000],[5.1,10083],[5.1,10166],[5.1,10250],[5.8,10333],[6.7,10416],[7,10500],[7.1,10583],[7.6,10666],[8.1,10750],[8.8,10833],[9.2,10917],[9.2,11000],[9.2,11083],[9.9,11166],[10.6,11250],[11.5,11333],[12.5,11416],[12.5,11500],[12.5,11583],[12.5,11666],[12.5,11750],[12.5,11833],[12.5,11916],[12.5,12000],[12.5,12083],[12.5,12166],[12.5,12250],[12.5,12333],[12.5,12416],[12.5,12500],[12.5,12583],[12.5,12666],[12.5,12750],[12.5,12833],[12.5,12916],[12.5,13000],[12.5,13083],[12.5,13166],[12.5,13250],[12.5,13333],[12.5,13416],[12.5,13500],[12.5,13583],[12.6,13666],[13.3,13750],[13.6,13833],[14.5,13916],[14.7,14000],[15.1,14083],[15.2,14166],[15.2,14250],[15.2,14333],[15.2,14416],[15.2,14500],[15.2,14583],[15.2,14666],[15.2,14750],[15.2,14833],[15.2,14916],[15.2,15000],[15.2,15083],[15.2,15166],[15.2,15250],[15.2,15333],[15.2,15416],[15.2,15500],[15.2,15583],[15.2,15666],[15.2,15750],[15.2,15833],[15.2,15916],[15.2,16000],[15.2,16083],[15.2,16166],[15.2,16250],[15.2,16333],[15.2,16416],[15.2,16500],[15.2,16583],[15.2,16666],[15.2,16750],[15.2,16833],[15.2,16916],[15.2,17000],[15.2,17083],[15.2,17166],[15.2,17250],[15.2,17333],[15.2,17416],[15.2,17500],[15.2,17583],[15.2,17666],[15.2,17750],[15.2,17833],[15.2,17916],[15.2,18000],[15.2,18083],[15.2,18166],[15.2,18250],[15.2,18333],[15.2,18416],[15.2,18500],[15.2,18583],[15.1,18666],[14.9,18750],[15.3,18833],[17.8,18916],[18.3,19000],[19,19083],[19.5,19166],[19.7,19250],[19.9,19333],[19.9,19416],[20,19500],[20.3,19583],[20.8,19666],[21.4,19750],[21.8,19833],[22.6,19916],[22.9,20000],[23.2,20083],[23.8,20166],[24,20250],[24,20333],[24,20416],[24.2,20500],[24.2,20583],[24.2,20666],[24.2,20750],[24.2,20833],[24.2,20916],[24.2,21000],[24.2,21083],[24.2,21166],[24.2,21250],[24.2,21333],[24.2,21416],[24.2,21500],[24.2,21583],[24.2,21666],[24.2,21750],[24.2,21833],[24.2,21916],[24.2,22000],[24.2,22083],[24.2,22166],[24.2,22250],[24.2,22333],[24.2,22416],[24.2,22500],[24.2,22583],[24.2,22666],[24.2,22750],[24.2,22833],[24.2,22916],[24.2,23000],[24.2,23083],[24.2,23166],[24.2,23250],[24.2,23333],[24.2,23416],[24.2,23500],[24.2,23583],[24.2,23666],[24.2,23750],[24.2,23833],[24.2,23916],[24.2,24000],[24.2,24083],[24.2,24166],[24.2,24250],[24.2,24333],[24.2,24416],[24.2,24500],[24.2,24583],[24.2,24666],[24.2,24750],[24.2,24833],[24.2,24916],[24.2,25000],[24.2,25083],[24.2,25166],[24.2,25250],[24.2,25333],[24.2,25416],[24.2,25500],[24.2,25583],[24.3,25666],[25.1,25750],[25.9,25833],[26.7,25916],[26.7,26000],[27.7,26083],[29.2,26166],[30,26250],[31.6,26333],[32.8,26417],[33.6,26500],[33.6,26583],[33.6,26666],[33.6,26750],[33.6,26833],[33.6,26916],[33.6,27000],[33.6,27083],[33.6,27166],[33.6,27250],[33.6,27333],[33.6,27416],[33.6,27500],[33.6,27583],[33.6,27666],[33.6,27750],[33.6,27833],[33.6,27916],[33.6,28000],[33.6,28083],[33.6,28166],[33.6,28250],[33.6,28333],[33.6,28416],[33.6,28500],[33.6,28583],[33.6,28666],[33.6,28750],[33.6,28833],[33.6,28916],[33.6,29000],[33.6,29083],[33.6,29166],[33.6,29250],[33.6,29333],[33.6,29416]]",1,0,699.9119,702.1285,22.5,1.0185,"[{""rating"":22.499999999999996,""responseTime"":1.0185000000000173}]",space,1.6815,,702.1286,All the time,100,702.1299,,,[],,0,2,2,2,1,audio/Narrative7Situation2.wav,audio/Narrative8Situation2.wav,audio/Narrative5Situation2.wav,audio/Narrative6Situation2.wav,3,3,3,3,,,,,,,,,,,,,,,,,,,,,,,,,,,,,,,,,,,,,,,
,,,,,,5be4ad0aff68b30001975464,2024-02-08_16h07.14.248,group3.1-3.2-social-tom,2023.2.2,Win32,59.88023952,65c5074098b851296ff0b7ed,65c542593d48c4665308acf9,,,,,,,,,,,,,,,,,,,,,,,,,,,,,702.13,2,audio/Narrative5Situation3.wav,705.145,,705.145,719.0453,"[[999,5],[999,83],[999,166],[999,249],[999,333],[999,416],[999,500],[999,583],[999,666],[999,750],[999,833],[999,916],[999,1000],[0.2,4916],[0.3,5000],[0.4,5083],[0.6,5166],[0.7,5250],[1,5333],[1.4,5416],[1.9,5500],[2.4,5583],[2.4,5666],[2.4,5750],[2.4,5833],[2.4,5916],[2.4,6000],[2.4,6083],[2.4,6166],[2.4,6250],[2.4,6333],[2.4,6416],[2.4,6500],[2.4,6583],[2.4,6666],[2.4,6750],[2.4,6833],[2.4,6916],[2.4,7000],[2.4,7083],[2.4,7166],[2.4,7250],[2.4,7333],[2.4,7416],[2.4,7500],[2.4,7583],[2.4,7666],[2.4,7750],[2.4,7833],[2.4,7916],[2.4,8000],[2.4,8083],[2.4,8166],[2.4,8250],[2.4,8333],[2.4,8416],[2.4,8500],[2.4,8583],[2.4,8666],[2.4,8750],[2.4,8833],[2.4,8916],[2.4,9000],[2.4,9083],[2.4,9166],[2.4,9250],[2.4,9333],[2.4,9416],[2.4,9500],[2.4,9583],[2.4,9666],[2.4,9750],[2.4,9833],[2.4,9916],[2.4,10000],[2.4,10083],[2.4,10166],[2.4,10250],[2.4,10333],[2.4,10416],[2.4,10500],[2.4,10583],[2.4,10666],[2.4,10750],[2.4,10833],[2.4,10916],[2.4,11000],[2.4,11083],[2.4,11166],[2.4,11250],[2.4,11333],[2.4,11416],[2.4,11500],[2.4,11583],[2.4,11666],[2.4,11750],[2.4,11833],[2.4,11916],[2.4,12000],[2.4,12083],[2.4,12166],[2.4,12250],[2.4,12333],[2.4,12416],[2.4,12500],[2.4,12583],[2.4,12666],[2.4,12750],[2.4,12833],[2.4,12916],[2.4,13000],[2.4,13083],[2.4,13166],[2.4,13250],[2.4,13333],[2.4,13416],[3.1,13500],[6.3,13583],[7.5,13666],[8.9,13750],[9.5,13833]]",1,0,719.0454,722.1119,9.0625,1.6179,"[{""rating"":9.062500000000002,""responseTime"":1.6179000000953465}]",space,2.5414,,722.1119,All the time,100,722.113,,,[],,0,3,3,3,1,audio/Narrative7Situation3.wav,audio/Narrative8Situation3.wav,audio/Narrative5Situation3.wav,audio/Narrative6Situation3.wav,8,4,3,5,,,,,,,,,,,,,,,,,,,,,,,,,,,,,,,,,,,,,,,
,,,,,,5be4ad0aff68b30001975464,2024-02-08_16h07.14.248,group3.1-3.2-social-tom,2023.2.2,Win32,59.88023952,65c5074098b851296ff0b7ed,65c542593d48c4665308acf9,,,,,,,,,,,,,,,,,,,,,,,,,,,,,722.1132,2,audio/Narrative5Situation4.wav,723.1285,,723.1285,743.5288,"[[999,0],[999,83],[999,166],[999,249],[999,333],[999,416],[999,499],[999,583],[999,666],[999,750],[999,833],[0.8,916],[0.1,1000],[0.1,1083],[0.1,1166],[0.1,1249],[0.1,1333],[0.1,1416],[0.1,1499],[0.1,1583],[0.1,1666],[0.1,1750],[0.1,1833],[0.1,1916],[0.1,1999],[0.1,2083],[0.1,2166],[0.1,2249],[0.1,2333],[1.4,2416],[2.1,2499],[2.1,2583],[2.1,2666],[2.1,2749],[2.1,2833],[2.1,2916],[2.1,2999],[2.1,3083],[2.1,3166],[2.1,3250],[2.1,3333],[2.1,3416],[2.1,3499],[2.1,3583],[2.1,3666],[2.1,3750],[2.1,3833],[2.1,3916],[2.1,3999],[2.1,4083],[2.1,4166],[2.1,4250],[2.1,4333],[2.1,4416],[2.1,4499],[2.1,4583],[2.1,4666],[2.1,4749],[2.1,4833],[2.1,4916],[2.1,4999],[2.1,5083],[2.1,5166],[2.1,5249],[2.1,5333],[2.4,5416],[2.5,5499],[2.7,5583],[3,5666],[3.2,5750],[3.8,5833],[4.6,5916],[5.7,6000],[6.9,6083],[7.9,6166],[8.6,6250],[9.6,6333],[11.1,6417],[13,6500],[15.4,6583],[17.8,6666],[19.7,6750],[20.6,6833],[21.7,6916],[23,7000],[23.5,7083],[24.2,7166],[24.9,7250],[25.6,7333],[25.9,7416],[25.9,7500],[25.9,7583],[26,7666],[26.1,7750],[26.1,7833],[26.1,7916],[26.1,8000],[26.1,8083],[26.1,8166],[26.1,8250],[26.1,8333],[26.1,8416],[26.1,8500],[26.1,8583],[26.1,8666],[26.1,8749],[26.1,8833],[26.1,8916],[26.1,9000],[26.1,9083],[26.1,9166],[26.1,9250],[26.1,9333],[26.1,9416],[26.1,9499],[26.1,9583],[26.1,9666],[26.1,9750],[26.1,9833],[26.1,9916],[26.1,10000],[26.1,10083],[26.1,10166],[26.1,10250],[26.1,10333],[26.1,10416],[26.1,10500],[26.1,10583],[26.1,10666],[26.1,10749],[26.1,10833],[26.1,10916],[26.1,11000],[26.1,11083],[26.3,11166],[26.3,11250],[26.5,11333],[26.8,11416],[26.9,11500],[26.9,11583],[27,11666],[27.3,11750],[28.6,11833],[30.3,11916],[32.3,12000],[34,12083],[35.7,12166],[36.3,12250],[36.4,12333],[36.9,12416],[37.9,12500],[39.3,12583],[40.6,12666],[41.3,12750],[41.4,12833],[41.4,12916],[41.4,12999],[41.4,13083],[41.4,13166],[41.4,13250],[41.4,13333],[41.4,13416],[41.4,13500],[41.4,13583],[41.4,13666],[41.4,13750],[41.4,13833],[41.4,13916],[41.4,14000],[41.4,14083],[41.4,14166],[41.4,14250],[41.4,14333],[41.4,14416],[41.4,14500],[41.4,14583],[41.4,14666],[41.4,14749],[41.4,14833],[41.4,14916],[41.4,15000],[41.4,15083],[41.4,15166],[41.4,15250],[41.4,15333],[41.4,15416],[41.4,15499],[41.4,15583],[41.4,15666],[41.4,15750],[41.4,15833],[41.4,15916],[41.4,16000],[41.4,16083],[41.4,16166],[41.4,16250],[41.4,16333],[41.4,16416],[41.4,16499],[41.4,16583],[41.6,16666],[42.1,16750],[42.1,16833],[42.1,16916],[42.1,17000],[42.1,17083],[42.1,17166],[42.1,17250],[42.1,17333],[42.1,17416],[42.1,17500],[42.3,17583],[43.4,17666],[44.3,17750],[45,17833],[46.7,17916],[47.6,18000],[48.5,18083],[49.4,18166],[49.7,18250],[50,18333],[50.1,18416],[50.1,18500],[50.1,18583],[50.1,18666],[50.1,18749],[50.1,18833],[50,18916],[50,19000],[50,19083],[50,19166],[50,19250],[50,19333],[50,19416],[50,19500],[50,19583],[50,19666],[50,19750],[50,19833],[50,19916],[50,20000],[50,20083],[50,20166],[50,20250],[50,20333]]",1,0,743.5288,747.0289,48.54166667,3.0614,"[{""rating"":31.25,""responseTime"":1.781500000000051},{""rating"":48.541666666666664,""responseTime"":3.0613999996185157}]",space,2.9514,,747.0289,Not at all,0,747.0306,,,[],,0,4,4,4,1,audio/Narrative7Situation4.wav,audio/Narrative8Situation4.wav,audio/Narrative5Situation4.wav,audio/Narrative6Situation4.wav,3,3,1,2,,,,,,,,,,,,,,,,,,,,,,,,,,,,,,,,,,,,,,,
,,,,,,5be4ad0aff68b30001975464,2024-02-08_16h07.14.248,group3.1-3.2-social-tom,2023.2.2,Win32,59.88023952,65c5074098b851296ff0b7ed,65c542593d48c4665308acf9,,,,,,,,,,,,,,,,,,,,,,,,,,,,,747.0307,2,audio/Narrative5Situation5.wav,752.0455,,752.0455,767.4788,"[[999,6],[999,83],[999,166],[999,249],[999,333],[999,416],[999,500],[999,583],[999,666],[999,750],[0.4,833],[0.1,2416],[0.3,2499],[0.4,2583],[0.4,2666],[0.4,2749],[0.4,2833],[0.4,2916],[0.5,2999],[0.7,3083],[0.8,3166],[0.8,3249],[0.8,3333],[0.8,3416],[0.8,3499],[0.8,3583],[0.8,3666],[0.8,3749],[0.8,3833],[0.8,3916],[0.8,3999],[0.9,4083],[1.8,4166],[2.2,4249],[2.7,4333],[3.6,4416],[4.5,4499],[4.9,4583],[5.5,4666],[6.5,4749],[8,4833],[10.1,4916],[12.3,5000],[14.9,5083],[18.1,5166],[20.8,5249],[23.1,5333],[24.4,5416],[25,5500],[25.8,5583],[26.3,5666],[27.2,5750],[27.7,5833],[27.9,5916],[28.4,5999],[28.6,6083],[28.6,6166],[28.6,6249],[28.6,6333],[28.6,6416],[28.6,6499],[28.6,6583],[28.6,6666],[28.6,6749],[28.6,6833],[28.6,6916],[28.6,6999],[28.6,7083],[28.6,7166],[28.6,7249],[28.6,7333],[28.6,7416],[28.6,7499],[28.6,7583],[28.6,7666],[28.6,7749],[28.6,7833],[28.6,7916],[28.6,7999],[29.1,8083],[29.9,8166],[31,8249],[31.8,8333],[32.3,8416],[32.6,8499],[33.1,8583],[33.4,8666],[33.8,8749],[34.3,8833],[34.5,8916],[34.6,8999],[34.6,9083],[34.6,9166],[34.6,9249],[34.6,9333],[34.7,9416],[35.4,9499],[35.5,9583],[35.5,9666],[35.5,9749],[35.5,9833],[36.6,9916],[37.1,9999],[37.8,10083],[38.8,10166],[40.4,10250],[42.4,10333],[44.2,10416],[45.9,10500],[47.1,10583],[48,10666],[48.5,10750],[49.2,10833],[49.5,10916],[49.6,10999],[49.6,11083],[49.6,11166],[49.6,11249],[49.6,11333],[49.6,11416],[49.6,11500],[49.6,11583],[49.6,11666],[49.6,11749],[49.6,11833],[49.6,11916],[49.6,11999],[49.6,12083],[49.6,12166],[49.6,12249],[49.6,12333],[49.6,12416],[49.6,12499],[49.6,12583],[49.6,12666],[49.6,12749],[49.6,12833],[49.6,12916],[49.6,12999],[49.6,13083],[49.6,13166],[49.6,13249],[49.6,13333],[49.6,13416],[49.6,13499],[49.6,13583],[49.6,13666],[49.6,13749],[49.6,13833],[49.6,13916],[49.6,13999],[49.6,14083],[49.6,14166],[49.6,14249],[49.6,14333],[49.6,14416],[49.6,14499],[49.6,14583],[49.6,14666],[49.6,14749],[49.6,14833],[49.6,14916],[49.6,14999],[49.6,15083],[49.6,15166],[49.6,15249],[49.6,15333],[49.6,15416]]",1,0,767.4789,769.4288,49.16666667,0.9129,"[{""rating"":49.166666666666664,""responseTime"":0.912899999618503}]",space,1.4239,,769.4288,Not at all,0,769.4296,,,[],,0,5,5,5,1,audio/Narrative7Situation5.wav,audio/Narrative8Situation5.wav,audio/Narrative5Situation5.wav,audio/Narrative6Situation5.wav,5,2,5,2,,,,,,,,,,,,,,,,,,,,,,,,,,,,,,,,,,,,,,,
,,,,,,5be4ad0aff68b30001975464,2024-02-08_16h07.14.248,group3.1-3.2-social-tom,2023.2.2,Win32,59.88023952,65c5074098b851296ff0b7ed,65c542593d48c4665308acf9,,,,,,,,,,,,,,,,,,,,,,,,,,,,,769.4299,2,audio/Narrative5Situation6.wav,772.4454,,772.4455,778.1122,"[[999,0],[999,83],[999,166],[999,249],[999,333],[5,416],[5.2,500],[3.4,583],[1.4,666],[0.1,750],[0.2,2250],[0.2,2333],[0.4,2416],[0.5,2499],[0.5,2583],[0.5,2666],[0.5,2749],[0.5,2833],[0.5,2916],[0.7,3000],[1.4,3083],[2.3,3166],[3,3250],[3.4,3333],[4,3416],[4.7,3500],[5.4,3583],[6.1,3666],[7.5,3750],[8,3833],[8.2,3916],[8.5,4000],[8.8,4083],[8.9,4166],[8.9,4249],[8.9,4333],[8.9,4416],[8.9,4499],[8.9,4583],[8.9,4666],[8.9,4749],[8.9,4833],[8.9,4916],[8.9,5000],[8.9,5083],[8.9,5166],[9.7,5250],[11.1,5333],[14.2,5416],[17.5,5500],[18,5583],[18,5666]]",1,0,778.1122,781.9621,12.08333333,1.8345,"[{""rating"":12.083333333333336,""responseTime"":1.8345000000000482}]",space,3.3085,,781.9621,Half the time,50,781.9633,,,[],,0,6,6,6,1,audio/Narrative7Situation6.wav,audio/Narrative8Situation6.wav,audio/Narrative5Situation6.wav,audio/Narrative6Situation6.wav,3,2,3,2,,,,,,,,,,,,,,,,,,,,,,,,,,,,,,,,,,,,,,,
,,,,,,5be4ad0aff68b30001975464,2024-02-08_16h07.14.248,group3.1-3.2-social-tom,2023.2.2,Win32,59.88023952,65c5074098b851296ff0b7ed,65c542593d48c4665308acf9,,,,,,,,,,,,,,,,,,,,,,,,,,,,,781.9634,2,audio/Narrative5Situation7.wav,785.9788,,785.9788,807.0123,"[[999,5],[999,83],[999,166],[999,249],[999,333],[999,416],[999,500],[999,583],[999,666],[0.1,2500],[0.5,2583],[0.8,2666],[0.8,2750],[0.8,2833],[0.8,2916],[0.8,3000],[0.8,3083],[1.1,3166],[1.6,3250],[1.9,3333],[2,3416],[2.1,3500],[2.4,3583],[2.6,3666],[2.7,3750],[2.8,3833],[2.9,3916],[2.9,3999],[2.9,4083],[2.9,4166],[2.9,4249],[2.9,4333],[2.9,4416],[2.9,4500],[2.9,4583],[2.9,4666],[2.9,4750],[2.9,4833],[2.9,4916],[2.9,5000],[2.9,5083],[2.9,5166],[2.9,5250],[2.9,5333],[2.9,5416],[2.9,5500],[2.9,5583],[2.9,5666],[2.9,5750],[2.9,5833],[2.9,5916],[2.9,6000],[2.9,6083],[2.9,6166],[2.9,6250],[2.9,6333],[2.9,6416],[2.9,6500],[2.9,6583],[2.9,6666],[2.9,6750],[2.9,6833],[2.9,6916],[2.9,7000],[2.9,7083],[2.9,7166],[2.9,7250],[2.9,7333],[2.9,7416],[2.9,7500],[2.9,7583],[2.9,7666],[2.9,7750],[2.9,7833],[2.9,7916],[2.9,8000],[2.9,8083],[2.9,8166],[2.9,8250],[2.9,8333],[2.9,8416],[2.9,8500],[2.9,8583],[2.9,8666],[2.9,8750],[2.9,8833],[2.9,8916],[2.9,9000],[2.9,9083],[2.9,9166],[2.9,9250],[2.9,9333],[2.9,9416],[2.9,9500],[2.9,9583],[3.3,9666],[4.2,9750],[5.2,9833],[5.6,9916],[5.9,10000],[5.9,10083],[6.3,10166],[7,10250],[7.5,10333],[7.7,10416],[7.9,10500],[8,10583],[8,10666],[8,10750],[8,10833],[8,10916],[8,11000],[8,11083],[8,11166],[8,11250],[8,11333],[8,11416],[8,11500],[8,11583],[8,11666],[8,11750],[8,11833],[8,11916],[8,12000],[8,12083],[8,12166],[8,12250],[8,12333],[8,12416],[8,12500],[8,12583],[8,12666],[8,12750],[8,12833],[8,12916],[8,13000],[8,13083],[8,13166],[8,13250],[8,13333],[8,13416],[8,13500],[8,13583],[8,13666],[8,13750],[8,13833],[8,13916],[8,14000],[8,14083],[8,14166],[8,14250],[8,14333],[8,14416],[8,14500],[8,14583],[8,14666],[8,14750],[8,14833],[8,14916],[8,15000],[8,15083],[8,15166],[8,15250],[8,15333],[8,15416],[8,15500],[8,15583],[8,15666],[8,15750],[8,15833],[8,15916],[8,16000],[8,16083],[8,16166],[8,16250],[8,16333],[8,16416],[8,16500],[8,16583],[8,16666],[8,16750],[8,16833],[8,16916],[8,17000],[8,17083],[8,17166],[8,17250],[8,17333],[8,17416],[8,17500],[8,17583],[8,17666],[8,17750],[8,17833],[8,17916],[8,18000],[8,18083],[8,18166],[8,18250],[8,18333],[8,18416],[8,18500],[8,18583],[8,18666],[8,18750],[8,18833],[8,18916],[8,19000],[8,19083],[8,19166],[8,19250],[8,19333],[8,19416],[8,19500],[8,19583],[8,19666],[10.5,19750],[12.9,19833],[14.6,19916],[14.9,20000],[14.9,20083],[15.3,20166],[16.1,20250],[16.5,20333],[16.5,20416],[16.5,20500],[17,20583],[17,20666],[17,20750],[16.9,20833],[16.9,20916],[16.9,21000]]",1,0,807.0124,810.079,12.70833333,1.9068,"[{""rating"":12.708333333333332,""responseTime"":1.9067999997139395}]",space,2.5385,,810.079,Half the time,50,810.0798,,,[],,0,7,7,7,1,audio/Narrative7Situation7.wav,audio/Narrative8Situation7.wav,audio/Narrative5Situation7.wav,audio/Narrative6Situation7.wav,5,3,4,5,,,,,,,,,,,,,,,,,,,,,,,,,,,,,,,,,,,,,,,
,,,,,,5be4ad0aff68b30001975464,2024-02-08_16h07.14.248,group3.1-3.2-social-tom,2023.2.2,Win32,59.88023952,65c5074098b851296ff0b7ed,65c542593d48c4665308acf9,,,,,,,,,,,,,,,,,,,,,,,,,,,,,810.0801,2,audio/Narrative5Situation8.wav,813.0956,,813.0956,821.9124,"[[999,0],[999,83],[999,166],[999,250],[999,333],[999,416],[999,500],[999,583],[5.7,666],[4.4,750],[4.2,833],[4.2,916],[4.2,1000],[4.2,1083],[3.5,1166],[0.8,1250],[0.7,4166],[1.6,4250],[2.6,4333],[2.7,4416],[2.9,4500],[3.6,4583],[3.9,4666],[4.1,4750],[5,4833],[6.3,4916],[6.6,5000],[6.7,5083],[6.7,5166],[6.7,5250],[6.7,5333],[6.7,5416],[6.7,5500],[6.7,5583],[6.7,5666],[6.7,5750],[6.7,5833],[6.7,5916],[6.7,6000],[6.7,6083],[6.7,6166],[6.7,6250],[6.7,6333],[6.7,6416],[6.7,6500],[7.6,6583],[8.5,6666],[9,6750],[9.9,6833],[10.9,6916],[12.2,7000],[13.1,7083],[14.5,7166],[15.8,7250],[16.7,7333],[16.9,7416],[17.3,7500],[17.5,7583],[17.8,7666],[18.1,7750],[18.8,7833],[19.1,7916],[19.2,8000],[19.6,8083],[20,8166],[21.7,8250],[24.4,8333],[25.5,8417],[25.6,8500],[25.6,8583],[25.6,8666],[25.6,8750]]",1,0,821.9124,827.0291,25.625,1.7598,"[{""rating"":25.624999999999996,""responseTime"":1.7597999997138913}]",space,4.5773,,827.0291,Half the time,50,827.035,,,[],,0,8,8,8,1,audio/Narrative7Situation8.wav,audio/Narrative8Situation8.wav,audio/Narrative5Situation8.wav,audio/Narrative6Situation8.wav,2,3,3,5,,,,,,,,,,,,,,,,,,,,,,,,,,,,,,,,,,,,,,,
,,,,,,5be4ad0aff68b30001975464,2024-02-08_16h07.14.248,group3.1-3.2-social-tom,2023.2.2,Win32,59.88023952,65c5074098b851296ff0b7ed,65c542593d48c4665308acf9,,,,,,,,,,,,,,,,,,,,,,,,,,,,,827.0352,2,audio/Narrative5Situation9.wav,830.0458,,830.0458,869.5794,"[[999,5],[999,83],[999,166],[999,250],[999,333],[999,416],[999,500],[999,583],[999,666],[999,749],[999,833],[999,916],[999,1000],[999,1083],[999,1166],[999,1250],[999,1333],[0.4,1916],[0.7,1999],[0.9,2083],[1.1,2166],[1.4,2249],[1.4,2333],[1.4,2416],[1.5,2499],[1.5,2583],[1.5,2666],[1.5,2749],[1.5,2833],[1.5,2916],[1.5,2999],[1.5,3083],[1.5,3166],[1.5,3250],[1.5,3333],[1.5,3416],[1.5,3499],[1.5,3583],[1.5,3666],[1.5,3749],[1.5,3833],[1.5,3916],[1.5,3999],[1.5,4083],[1.5,4166],[1.5,4249],[1.5,4333],[1.5,4416],[1.5,4499],[1.5,4583],[1.5,4666],[1.5,4750],[1.5,4833],[1.5,4916],[1.5,4999],[1.5,5083],[1.8,5166],[1.9,5249],[2,5333],[2.1,5416],[2.3,5500],[2.7,5583],[3,5666],[3.1,5750],[3.2,5833],[3.2,5916],[3.4,5999],[3.5,6083],[3.5,6166],[3.5,6249],[3.5,6333],[3.5,6416],[3.5,6499],[3.5,6583],[3.5,6666],[3.6,6749],[3.8,6833],[3.8,6916],[3.8,7000],[3.8,7083],[3.8,7166],[3.8,7250],[3.8,7333],[3.9,7416],[4.1,7500],[4.3,7583],[4.7,7666],[5.4,7750],[6.1,7833],[6.9,7916],[7.5,8000],[8.4,8083],[9.2,8166],[9.5,8249],[9.5,8333],[9.5,8416],[10.2,8500],[11.1,8583],[12,8666],[12.5,8750],[12.6,8833],[13.2,8916],[13.9,9000],[14.6,9083],[16.8,9166],[18.9,9250],[20.6,9333],[20.9,9416],[20.9,9500],[20.9,9583],[20.9,9666],[20.9,9750],[20.9,9833],[20.9,9916],[20.9,10000],[20.9,10083],[20.9,10166],[20.9,10250],[20.9,10333],[20.9,10416],[20.9,10499],[20.9,10583],[20.9,10666],[20.9,10749],[20.9,10833],[20.9,10916],[20.9,11000],[20.9,11083],[20.9,11166],[21.1,11250],[21.3,11333],[21.5,11416],[21.5,11500],[21.5,11583],[21.5,11666],[21.5,11750],[21.5,11833],[21.5,11916],[21.5,11999],[21.5,12083],[21.5,12166],[21.5,12249],[21.5,12333],[21.5,12416],[21.5,12499],[21.5,12583],[21.5,12666],[21.5,12750],[21.5,12833],[21.5,12916],[21.5,12999],[21.5,13083],[21.5,13166],[21.5,13249],[21.7,13333],[21.7,13416],[21.7,13500],[21.7,13583],[21.7,13666],[21.7,13750],[21.7,13833],[21.7,13916],[21.7,14000],[21.7,14083],[21.7,14166],[21.7,14249],[21.7,14333],[21.7,14416],[21.7,14499],[21.7,14583],[21.7,14666],[21.7,14750],[21.7,14833],[21.7,14916],[21.7,15000],[21.8,15083],[21.8,15166],[21.9,15250],[22,15333],[22,15416],[22,15500],[22,15583],[22,15666],[22.1,15749],[22.1,15833],[22.1,15916],[22.2,15999],[22.2,16083],[22.2,16166],[22.2,16249],[22.2,16333],[22.2,16416],[22.2,16500],[22.2,16583],[22.2,16666],[22.2,16750],[22.2,16833],[22.2,16916],[22.2,16999],[22.2,17083],[22.2,17166],[22.2,17250],[22.2,17333],[22.2,17416],[22.2,17500],[22.2,17583],[22.2,17666],[22.2,17750],[22.2,17833],[22.2,17916],[22.2,18000],[22.2,18083],[22.2,18166],[22.2,18250],[22.2,18333],[22.2,18416],[22.2,18500],[22.2,18583],[22.2,18666],[22.2,18750],[22.2,18833],[22.2,18916],[22.2,19000],[22.2,19083],[22.2,19166],[22.2,19250],[22.2,19333],[22.2,19416],[22.2,19500],[22.2,19583],[22.2,19666],[22.2,19750],[22.2,19833],[22.2,19916],[22.2,20000],[22.2,20083],[22.2,20166],[22.2,20250],[22.2,20333],[22.2,20416],[22.2,20500],[22.2,20583],[22.2,20666],[22.2,20750],[22.2,20833],[22.2,20916],[22.2,20999],[22.2,21083],[22.2,21166],[22.2,21250],[22.2,21333],[22.2,21416],[22.2,21500],[22.2,21583],[22.2,21666],[22.2,21750],[22.6,21833],[25,21916],[27.9,22000],[29.4,22083],[30.5,22166],[31.5,22250],[32,22333],[32.6,22416],[34.4,22500],[36.3,22583],[37.4,22666],[38.8,22750],[40.3,22833],[40.3,22916],[40.3,23000],[40.3,23083],[40.3,23166],[40.3,23250],[40.3,23333],[40.3,23416],[40.3,23500],[40.3,23583],[40.3,23666],[40.3,23750],[40.3,23833],[40.3,23916],[40.3,24000],[40.3,24083],[40.3,24166],[40.3,24250],[40.3,24333],[40.3,24416],[40.3,24500],[40.3,24583],[40.8,24666],[41.6,24750],[42.5,24833],[43.1,24916],[43.9,25000],[44.8,25083],[45.5,25166],[46.3,25250],[46.7,25333],[46.8,25416],[47.1,25500],[47.4,25583],[47.5,25666],[47.9,25750],[48.2,25833],[48.5,25916],[48.9,26000],[49.2,26083],[49.6,26166],[49.8,26250],[49.9,26333],[50,26416],[50.2,26500],[50.2,26583],[50.2,26666],[50.2,26750],[50.2,26833],[50.2,26916],[50.2,27000],[50.2,27083],[50.2,27166],[50.2,27250],[50.2,27333],[50.2,27416],[50.2,27500],[50.2,27583],[50.2,27666],[50.2,27750],[50.2,27833],[50.2,27916],[50.2,28000],[50.2,28083],[50.2,28166],[50.2,28250],[50.2,28333],[50.2,28416],[50.2,28500],[50.2,28583],[50.2,28666],[50.2,28750],[50.2,28833],[50.2,28916],[50.2,29000],[50.2,29083],[50.2,29166],[50.2,29250],[50.2,29333],[50.2,29416],[50.2,29500],[50.2,29583],[50.2,29666],[50.2,29750],[50.2,29833],[50.2,29916],[50.2,30000],[50.2,30083],[50.2,30166],[50.2,30250],[50.2,30333],[50.2,30416],[50.2,30500],[50.2,30583],[50.2,30666],[50.2,30750],[50.2,30833],[50.2,30916],[50.2,31000],[50.2,31083],[50.2,31166],[50.2,31250],[50.7,31333],[50.8,31416],[50.9,31500],[50.9,31583],[51,31666],[51.1,31750],[51.3,31833],[51.3,31916],[51.3,32000],[51.4,32083],[51.4,32166],[51.4,32250],[51.4,32333],[51.4,32416],[51.4,32500],[51.4,32583],[51.4,32666],[51.4,32750],[51.4,32833],[51.4,32916],[51.4,33000],[51.4,33083],[51.4,33166],[51.4,33250],[51.4,33333],[51.4,33416],[51.4,33500],[51.4,33583],[51.4,33666],[51.4,33750],[51.4,33833],[52.2,33916],[52.9,34000],[53.4,34083],[53.6,34166],[53.8,34250],[53.8,34333],[53.8,34416],[53.8,34500],[53.8,34583],[53.8,34666],[53.8,34750],[53.8,34833],[53.8,34916],[53.8,35000],[53.8,35083],[53.8,35166],[53.8,35250],[53.8,35333],[53.8,35416],[53.8,35500],[53.8,35583],[53.8,35666],[53.8,35750],[53.8,35833],[53.8,35916],[53.8,36000],[53.8,36083],[53.8,36166],[53.8,36250],[53.8,36333],[53.8,36416],[53.8,36500],[53.8,36583],[53.8,36666],[55.2,36750],[56,36833],[56.4,36916],[56.6,37000],[56.6,37083],[56.6,37166],[56.6,37250],[56.7,37333],[56.9,37416],[57.1,37500],[57.3,37583],[57.6,37666],[57.6,37750],[57.7,37833],[57.7,37916],[57.7,38000],[57.7,38083],[57.7,38166],[57.7,38250],[57.7,38333],[57.7,38416],[57.7,38500],[57.7,38583],[57.7,38666],[57.7,38750],[57.7,38833],[57.7,38916],[57.7,39000],[57.7,39083],[57.7,39166],[57.7,39250],[57.7,39333],[57.7,39416],[57.7,39500]]",1,0,869.5795,874.6962,50.3125,4.0648,"[{""rating"":57.604166666666664,""responseTime"":1.1597999997138686},{""rating"":50.31250000000001,""responseTime"":4.064799999713955}]",space,4.5723,,874.6963,All the time,100,874.6976,,,[],,0,9,9,9,1,audio/Narrative7Situation9.wav,audio/Narrative8Situation9.wav,audio/Narrative5Situation9.wav,audio/Narrative6Situation9.wav,2,3,3,4,,,,,,,,,,,,,,,,,,,,,,,,,,,,,,,,,,,,,,,
,,,,,,5be4ad0aff68b30001975464,2024-02-08_16h07.14.248,group3.1-3.2-social-tom,2023.2.2,Win32,59.88023952,65c5074098b851296ff0b7ed,65c542593d48c4665308acf9,,,,,,,,,,,,,,,,,,,,,,,,,,,,,874.6977,2,audio/Narrative6Situation1.wav,876.7127,,876.7127,903.2962,"[[999,0],[999,83],[999,166],[999,249],[999,333],[999,416],[999,500],[999,583],[999,666],[999,750],[0.3,833],[0.2,916],[0.2,999],[0.2,1083],[0.2,1166],[0.3,3750],[1.7,3833],[3.4,3916],[4.8,4000],[6,4083],[6.6,4166],[7.2,4250],[7.8,4333],[8.2,4416],[8.9,4500],[9.5,4583],[10.2,4666],[11.1,4750],[11.8,4833],[12.1,4916],[13.3,5000],[14.4,5083],[14.6,5166],[14.6,5249],[14.6,5333],[14.6,5416],[14.6,5499],[14.6,5583],[15.2,5666],[15.8,5750],[15.8,5833],[15.8,5916],[15.8,6000],[15.8,6083],[15.8,6166],[15.8,6249],[15.8,6333],[15.8,6416],[15.8,6500],[15.8,6583],[15.8,6666],[15.8,6750],[15.8,6833],[15.8,6916],[16,7000],[16.3,7083],[16.3,7166],[16.3,7249],[16.3,7333],[16.3,7416],[16.3,7500],[16.3,7583],[16.3,7666],[16.4,7750],[16.8,7833],[17.4,7916],[18,8000],[18.4,8083],[18.8,8166],[18.8,8250],[18.9,8333],[18.9,8416],[18.9,8499],[18.9,8583],[18.9,8666],[18.9,8750],[18.9,8833],[18.9,8916],[18.9,8999],[18.9,9083],[18.9,9166],[18.9,9250],[18.9,9333],[18.9,9416],[18.9,9500],[18.9,9583],[19.1,9666],[19.2,9749],[19.2,9833],[19.2,9916],[19.2,10000],[19.2,10083],[19.2,10166],[19.2,10249],[19.2,10333],[19.2,10416],[19.2,10499],[19.2,10583],[19.2,10666],[19.2,10750],[19.2,10833],[19.2,10916],[19.2,10999],[19.2,11083],[19.2,11166],[19.2,11250],[19.2,11333],[19.2,11416],[19.2,11499],[19.2,11583],[19.2,11666],[19.2,11750],[19.2,11833],[19.2,11916],[19.2,12000],[19.2,12083],[19.2,12166],[19.2,12250],[19.2,12333],[19.2,12416],[19.2,12500],[19.2,12583],[19.2,12666],[20,12750],[20.3,12833],[21,12916],[22.1,13000],[23.3,13083],[24,13166],[24.5,13250],[24.9,13333],[25.5,13416],[25.7,13500],[25.7,13583],[25.7,13666],[25.7,13750],[25.7,13833],[25.7,13916],[25.7,14000],[25.7,14083],[25.7,14166],[25.7,14250],[25.7,14333],[25.7,14416],[25.7,14500],[25.7,14583],[25.7,14666],[25.7,14750],[25.7,14833],[25.7,14916],[25.7,15000],[25.7,15083],[25.7,15166],[25.7,15250],[25.7,15333],[25.7,15416],[25.7,15500],[25.7,15583],[25.7,15666],[25.7,15750],[25.7,15833],[25.7,15916],[25.7,16000],[25.7,16083],[25.7,16166],[25.7,16250],[25.7,16333],[25.7,16416],[25.7,16500],[25.7,16583],[25.7,16666],[25.7,16750],[25.7,16833],[25.7,16916],[25.7,17000],[25.7,17083],[25.7,17166],[25.7,17250],[25.7,17333],[25.7,17416],[25.7,17500],[25.7,17583],[25.7,17666],[25.7,17750],[25.7,17833],[25.7,17916],[25.7,18000],[25.7,18083],[25.7,18166],[25.7,18250],[25.7,18333],[25.7,18416],[25.7,18500],[25.7,18583],[25.7,18666],[25.7,18750],[25.7,18833],[25.7,18916],[25.7,19000],[25.7,19083],[25.7,19166],[25.7,19250],[25.7,19333],[25.7,19416],[25.7,19500],[25.7,19583],[25.7,19666],[25.7,19750],[25.7,19833],[25.7,19916],[25.7,20000],[25.7,20083],[25.7,20166],[25.7,20250],[25.7,20333],[25.7,20416],[25.7,20500],[25.7,20583],[25.7,20666],[25.7,20750],[26.3,20833],[27.1,20916],[27.6,21000],[28.6,21083],[29.9,21166],[30.9,21250],[31.9,21333],[33.1,21416],[34.2,21500],[35.1,21583],[36.4,21666],[38.1,21750],[39.8,21833],[39.8,21916],[39.8,22000],[39.8,22083],[39.8,22166],[39.8,22250],[39.8,22333],[39.8,22416],[39.8,22500],[39.8,22583],[39.8,22666],[39.8,22750],[39.8,22833],[39.8,22916],[39.8,23000],[39.8,23083],[39.8,23166],[39.8,23250],[39.8,23333],[39.8,23416],[39.8,23500],[39.8,23583],[39.8,23666],[39.8,23750],[39.8,23833],[39.8,23916],[39.8,24000],[39.8,24083],[39.8,24166],[39.8,24250],[39.8,24333],[39.8,24416],[39.8,24500],[39.8,24583],[39.8,24666],[39.8,24750],[39.8,24833],[39.8,24916],[39.8,25000],[39.8,25083],[39.8,25166],[39.8,25250],[39.8,25333],[39.8,25416],[39.8,25500],[39.8,25583],[39.8,25666],[39.8,25750],[39.8,25833],[39.8,25916],[39.8,26000],[39.8,26083],[39.8,26166],[39.8,26250],[39.8,26333],[39.8,26416],[39.8,26500],[39.8,26583]]",1,0,903.2963,906.3295,40.72916667,1.93,"[{""rating"":40.729166666666664,""responseTime"":1.9300000000000637}]",space,2.4935,,906.3295,All the time,100,906.3304,,,[],,0,10,10,10,1,audio/Narrative8Situation1.wav,audio/Narrative7Situation1.wav,audio/Narrative6Situation1.wav,audio/Narrative5Situation1.wav,5,2,2,5,,,,,,,,,,,,,,,,,,,,,,,,,,,,,,,,,,,,,,,
,,,,,,5be4ad0aff68b30001975464,2024-02-08_16h07.14.248,group3.1-3.2-social-tom,2023.2.2,Win32,59.88023952,65c5074098b851296ff0b7ed,65c542593d48c4665308acf9,,,,,,,,,,,,,,,,,,,,,,,,,,,,,906.3305,2,audio/Narrative6Situation2.wav,909.3462,,909.3462,937.8464,"[[999,0],[999,83],[999,166],[999,250],[999,333],[999,416],[999,500],[0.9,583],[0.5,666],[1.6,2000],[2.9,2083],[3.3,2167],[4.2,2250],[4.8,2333],[5,2416],[5,2499],[5,2583],[5.3,2666],[5.3,2749],[5.3,2833],[5.3,2916],[5.3,3000],[5.3,3083],[5.3,3166],[5.3,3249],[5.3,3333],[5.3,3416],[5.3,3499],[5.3,3583],[5.3,3666],[5.3,3750],[5.3,3833],[5.3,3916],[5.5,4000],[6,4083],[6.4,4166],[6.9,4250],[7.1,4333],[7.4,4416],[7.6,4500],[7.9,4583],[8,4666],[8.1,4750],[8.3,4833],[8.4,4916],[8.4,4999],[8.4,5083],[8.4,5166],[8.4,5250],[8.6,5333],[8.9,5416],[9,5499],[9.4,5583],[10,5666],[10.4,5750],[10.5,5833],[10.5,5916],[10.7,6000],[12,6083],[13.3,6166],[13.3,6250],[13.4,6333],[16.6,6416],[17.9,6499],[17.9,6583],[18,6666],[19,6750],[19.6,6833],[20.4,6916],[21.8,7000],[23.5,7083],[23.9,7166],[24.4,7250],[25,7333],[25.3,7416],[25.3,7499],[25.3,7583],[25.3,7666],[25.3,7750],[25.3,7833],[25.3,7916],[25.3,8000],[25.3,8083],[25.3,8166],[25.3,8250],[25.3,8333],[25.3,8416],[25.3,8500],[25.3,8583],[25.3,8666],[25.3,8750],[25.3,8833],[25.3,8916],[25.3,8999],[25.3,9083],[25.6,9166],[25.6,9250],[25.7,9333],[26.1,9416],[26.5,9500],[27.2,9583],[27.9,9666],[28.1,9750],[28.2,9833],[29.2,9916],[30.2,10000],[31.5,10083],[31.9,10166],[31.9,10250],[31.9,10333],[32,10416],[32.2,10500],[32.5,10583],[32.7,10666],[33,10749],[33.1,10833],[33.1,10916],[33.1,11000],[33.1,11083],[33.1,11166],[33.2,11250],[33.2,11333],[33.3,11416],[33.5,11500],[33.6,11583],[33.6,11666],[33.9,11750],[34,11833],[34,11916],[34,12000],[34,12083],[34,12166],[34,12250],[34,12333],[34,12416],[34,12500],[34,12583],[34,12666],[34,12750],[34,12833],[34,12916],[34,13000],[34,13083],[34,13166],[34,13250],[34,13333],[34,13416],[34,13500],[34,13583],[34,13666],[34,13750],[34,13833],[34,13916],[34.1,14000],[34.3,14083],[34.4,14166],[34.6,14250],[35.1,14333],[35.7,14416],[35.9,14500],[36,14583],[36.3,14666],[36.5,14750],[36.7,14833],[36.7,14916],[36.7,15000],[36.7,15083],[36.7,15166],[36.7,15250],[37.2,15333],[38,15416],[38.3,15500],[39,15583],[39.6,15666],[39.7,15750],[40,15833],[40.7,15916],[41.3,16000],[41.7,16083],[42.3,16166],[43.9,16250],[44.1,16333],[44.1,16416],[44.1,16500],[44.1,16583],[44.1,16666],[44.1,16750],[44.1,16833],[44.1,16916],[44.1,17000],[44.1,17083],[44.1,17166],[44.2,17250],[44.7,17333],[45.1,17416],[45.2,17500],[45.2,17583],[45.5,17666],[45.7,17750],[45.7,17833],[45.7,17916],[45.7,18000],[45.7,18083],[45.7,18166],[45.7,18250],[45.7,18333],[45.7,18416],[45.7,18500],[45.7,18583],[45.7,18666],[45.7,18750],[45.7,18833],[45.7,18916],[45.7,19000],[45.7,19083],[45.7,19166],[45.7,19250],[46.7,19333],[47.6,19416],[48.2,19500],[48.2,19583],[48.2,19666],[48.2,19750],[48.3,19833],[48.6,19916],[49.3,20000],[49.8,20083],[50.3,20167],[50.3,20250],[50.3,20333],[50.3,20416],[50.3,20500],[50.3,20583],[50.3,20666],[50.3,20750],[50.3,20833],[50.3,20916],[50.3,21000],[50.3,21083],[50.3,21166],[50.3,21250],[50.3,21333],[50.3,21416],[50.3,21500],[50.3,21583],[50.3,21666],[50.3,21750],[50.3,21833],[50.3,21916],[50.3,22000],[50.3,22083],[50.3,22166],[50.3,22250],[50.3,22333],[50.3,22416],[50.3,22500],[50.3,22583],[50.3,22666],[50.3,22750],[50.3,22833],[50.3,22916],[50.3,23000],[50.3,23083],[50.8,23167],[52.1,23250],[52.2,23333],[52.2,23416],[52.2,23500],[52.2,23583],[52.2,23666],[52.2,23750],[52.2,23833],[52.2,23916],[52.2,24000],[52.2,24083],[52.2,24166],[52.2,24250],[52.2,24333],[52.2,24416],[52.2,24500],[52.2,24583],[52.2,24666],[52.2,24750],[52.2,24833],[52.2,24916],[52.2,25000],[52.2,25083],[52.2,25166],[52.2,25250],[52.2,25333],[52.2,25416],[52.2,25500],[52.2,25583],[52.2,25666],[52.7,25750],[53.2,25833],[53.2,25916],[53.2,26000],[53.2,26083],[53.2,26166],[53.2,26250],[53.2,26333],[53.2,26416],[53.2,26500],[53.2,26583],[53.2,26666],[53.2,26750],[53.2,26833],[53.2,26916],[53.2,27000],[53.2,27083],[53.2,27166],[53.2,27250],[53.2,27333],[53.2,27416],[53.2,27500],[53.2,27583],[53.2,27666],[53.2,27750],[53.2,27833],[53.2,27916],[53.2,28000],[53.2,28083],[53.2,28166],[53.2,28250],[53.2,28333],[53.2,28416],[53.2,28500]]",1,0,937.8465,940.663,50.41666667,1.4128,"[{""rating"":50.416666666666664,""responseTime"":1.4127999997137977}]",space,2.2782,,940.663,All the time,100,940.6639,,,[],,0,11,11,11,1,audio/Narrative8Situation2.wav,audio/Narrative7Situation2.wav,audio/Narrative6Situation2.wav,audio/Narrative5Situation2.wav,3,3,3,3,,,,,,,,,,,,,,,,,,,,,,,,,,,,,,,,,,,,,,,
,,,,,,5be4ad0aff68b30001975464,2024-02-08_16h07.14.248,group3.1-3.2-social-tom,2023.2.2,Win32,59.88023952,65c5074098b851296ff0b7ed,65c542593d48c4665308acf9,,,,,,,,,,,,,,,,,,,,,,,,,,,,,940.664,2,audio/Narrative6Situation3.wav,945.6797,,945.6797,958.2798,"[[999,5],[999,83],[999,166],[999,249],[999,333],[999,416],[999,500],[999,583],[2.5,666],[2.8,750],[2.1,833],[1,916],[1,2333],[5,2416],[8.4,2500],[12.1,2583],[14.5,2666],[15.8,2750],[16.5,2833],[16.6,2916],[16.7,3000],[16.7,3083],[16.7,3166],[16.7,3250],[16.7,3333],[16.7,3416],[16.7,3500],[16.7,3583],[16.7,3666],[16.7,3750],[16.7,3833],[16.7,3916],[16.7,4000],[16.7,4083],[16.7,4166],[16.7,4250],[18.1,4333],[19.9,4416],[20.6,4500],[21.6,4583],[22,4666],[22,4749],[22,4833],[22,4916],[22,5000],[22,5083],[22,5166],[22,5250],[22,5333],[22,5416],[22,5500],[22,5583],[22,5666],[22,5750],[22,5833],[22,5916],[22,6000],[22,6083],[22,6166],[22,6250],[22,6333],[22,6416],[22,6500],[22,6583],[22,6666],[22,6750],[22,6833],[22,6916],[22,7000],[22,7083],[22,7166],[22,7250],[22,7333],[22,7416],[22,7500],[22,7583],[22,7666],[22,7750],[22,7833],[22,7916],[22,8000],[22,8083],[22,8166],[22,8250],[22,8333],[22,8416],[22,8500],[22,8583],[22,8666],[22,8750],[22,8833],[22,8916],[22,9000],[22,9083],[22,9166],[22,9250],[22,9333],[22,9416],[22,9500],[22,9583],[22,9666],[22,9750],[22,9833],[22,9916],[22.7,10000],[24.1,10083],[25.8,10166],[26.6,10250],[27.5,10333],[28.6,10416],[29.6,10500],[30.8,10583],[31.7,10666],[32.5,10750],[32.9,10833],[33.3,10916],[34.3,11000],[35.7,11083],[36,11166],[36.1,11250],[36.3,11333],[36.6,11416],[36.9,11500],[37.1,11583],[37.1,11666],[37.1,11750],[37.2,11833],[37.2,11916],[37.2,12000],[37.2,12083],[37.2,12166],[37.2,12250],[37.2,12333],[37.2,12416],[37.2,12500],[37.2,12583]]",1,0,958.2799,959.8797,37.1875,0.6534,"[{""rating"":37.1875,""responseTime"":0.653399999618614}]",space,1.0573,,959.8798,All the time,100,959.8806,,,[],,0,12,12,12,1,audio/Narrative8Situation3.wav,audio/Narrative7Situation3.wav,audio/Narrative6Situation3.wav,audio/Narrative5Situation3.wav,4,8,5,3,,,,,,,,,,,,,,,,,,,,,,,,,,,,,,,,,,,,,,,
,,,,,,5be4ad0aff68b30001975464,2024-02-08_16h07.14.248,group3.1-3.2-social-tom,2023.2.2,Win32,59.88023952,65c5074098b851296ff0b7ed,65c542593d48c4665308acf9,,,,,,,,,,,,,,,,,,,,,,,,,,,,,959.8808,2,audio/Narrative6Situation4.wav,961.8965,,961.8965,974.5133,"[[999,0],[999,83],[999,166],[999,249],[999,333],[999,416],[999,500],[999,583],[999,666],[2.3,750],[1,833],[0.4,916],[0.3,999],[0.3,1083],[0.3,1166],[0.3,1249],[0.3,1333],[0.3,1416],[0.3,1499],[0.3,1583],[0.3,1666],[0.3,1749],[0.3,1833],[0.3,1916],[0.3,1999],[0.3,2083],[0.3,2166],[0.6,2250],[2.5,2333],[2.6,2416],[2.6,2499],[2.6,2583],[2.6,2666],[2.6,2749],[2.6,2833],[2.6,2916],[2.6,2999],[2.6,3083],[2.6,3166],[2.6,3249],[2.6,3333],[2.6,3416],[2.6,3500],[2.6,3583],[2.6,3666],[2.6,3749],[2.6,3833],[2.6,3916],[2.6,4000],[2.6,4083],[2.6,4166],[2.6,4250],[2.6,4333],[2.6,4416],[2.6,4500],[2.6,4583],[2.6,4666],[2.6,4750],[2.6,4833],[2.6,4916],[2.6,4999],[2.6,5083],[2.6,5166],[2.6,5249],[2.6,5333],[2.6,5416],[2.6,5499],[2.6,5583],[2.6,5666],[2.6,5749],[2.6,5833],[2.6,5916],[2.8,6000],[4.5,6083],[5.9,6166],[6.9,6250],[7.7,6333],[9.2,6416],[10.9,6500],[11.8,6583],[12.5,6666],[12.8,6749],[12.8,6833],[13,6916],[13.8,7000],[14.5,7083],[15.8,7166],[17.8,7250],[19.8,7333],[22,7416],[23.8,7500],[24.6,7583],[25.3,7666],[25.4,7750],[25.6,7833],[25.9,7916],[25.9,7999],[25.9,8083],[26,8166],[26,8250],[26,8333],[26,8416],[26,8500],[26,8583],[26,8666],[26,8750],[26,8833],[26,8916],[26,8999],[26,9083],[26,9166],[26,9250],[26,9333],[26,9416],[26,9500],[26,9583],[26,9666],[26,9750],[26,9833],[26,9916],[26,9999],[26,10083],[26,10166],[26,10250],[26,10333],[26,10416],[26,10500],[26,10583],[26,10666],[26,10750],[27.6,10833],[28.9,10916],[29.7,11000],[30.6,11083],[31.1,11166],[32.5,11250],[37.5,11333],[44,11416],[47,11500],[47.9,11583],[48.2,11666],[48.2,11750],[48.3,11833],[48.9,11916],[49.3,12000],[49.3,12083],[49.3,12166],[49.3,12250],[49.3,12333],[49.3,12416],[49.3,12500],[49.3,12583]]",1,0,974.5134,977.4966,47.70833333,1.4239,"[{""rating"":47.708333333333336,""responseTime"":1.4239000000953865}]",space,2.4503,,977.4967,All the time,100,977.4975,,,[],,0,13,13,13,1,audio/Narrative8Situation4.wav,audio/Narrative7Situation4.wav,audio/Narrative6Situation4.wav,audio/Narrative5Situation4.wav,3,3,2,1,,,,,,,,,,,,,,,,,,,,,,,,,,,,,,,,,,,,,,,
