exp_question,consent.started,consent.stopped,consentResponse.keys,consentResponse.rt,consentResponse.duration,participantID,date,expName,psychopyVersion,OS,frameRate,STUDY_ID,SESSION_ID,opening1.started,opening1.stopped,keyEndingOpening1.keys,keyEndingOpening1.rt,keyEndingOpening1.duration,volumeAdjust.started,volumeAdjust.stopped,endingAdjust.keys,endingAdjust.rt,endingAdjust.duration,opening2.started,opening2.stopped,keyEndingOpening.keys,keyEndingOpening.rt,keyEndingOpening.duration,mouse.x,mouse.y,mouse.leftButton,mouse.midButton,mouse.rightButton,mouse.time,instructionLoop.thisRepN,instructionLoop.thisTrialN,instructionLoop.thisN,instructionLoop.thisIndex,instructionLoop.ran,readyForAudio.started,readyForAudio.stopped,fixation.started,run,audio_played,fixation.stopped,endPractice.keys,audioPre.started,audioPre.stopped,continuousResponses_audio,continuousSlider.response,continuousSlider.rt,intRating.started,intRating.stopped,intQuestionSlider.response,intQuestionSlider.rt,intQuestionSlider.history,confirmResponse.keys,confirmResponse.rt,confirmResponse.duration,catchQuestion.started,catch_label,catch_value,catchQuestion.stopped,catchQuestionSlider.response,catchQuestionSlider.rt,catchQuestionSlider.history,confirmResponse_2.keys,confirmResponse_2.rt,confirmResponse_2.duration,audioRunLoop.thisRepN,audioRunLoop.thisTrialN,audioRunLoop.thisN,audioRunLoop.thisIndex,audioRunLoop.ran,conditions1_1,conditions2_1,conditions1_2,conditions2_2,dur1_1,dur2_1,dur1_2,dur2_2,endPractice.rt,endPractice.duration,runIntervalBreak.started,runIntervalBreak.stopped,endingBreakKey.keys,endingBreakKey.rt,endingBreakKey.duration,connection.started,connection.stopped,connectionEnding.keys,connectionEnding.rt,connectionEnding.duration,readyForText.started,readyForText.stopped,textPre.started,run_dup,textPre.stopped,continuousResponses_text,textRunLoop.thisRepN,textRunLoop.thisTrialN,textRunLoop.thisN,textRunLoop.thisIndex,textRunLoop.ran,text1_1,text1_2,text2_1,text2_2,runBreakText.started,runBreakText.stopped,endingBreakKey_2.keys,endingBreakKey_2.rt,endingBreakKey_2.duration,ending.started,ending.stopped,endingEnding.keys,endingEnding.rt,endingEnding.duration
social,0.0002,4.6977,y,4.3579,,5be94f66a169160001dafb9d,2024-02-08_13h22.01.547,group3.1-3.2-social-tom,2023.2.2,Win32,60.60606061,65c5074098b851296ff0b7ed,65c51602e9486207c648d17f,,,,,,,,,,,,,,,,,,,,,,,,,,,,,,,,,,,,,,,,,,,,,,,,,,,,,,,,,,,,,,,,,,,,,,,,,,,,,,,,,,,,,,,,,,,,,,,,,,,,,,,,,,
,,,,,,5be94f66a169160001dafb9d,2024-02-08_13h22.01.547,group3.1-3.2-social-tom,2023.2.2,Win32,60.60606061,65c5074098b851296ff0b7ed,65c51602e9486207c648d17f,4.698,12.1518,space,7.4189,,,,,,,,,,,,,,,,,,,,,,,,,,,,,,,,,,,,,,,,,,,,,,,,,,,,,,,,,,,,,,,,,,,,,,,,,,,,,,,,,,,,,,,,,,,,,,,,,,,,,,
,,,,,,5be94f66a169160001dafb9d,2024-02-08_13h22.01.547,group3.1-3.2-social-tom,2023.2.2,Win32,60.60606061,65c5074098b851296ff0b7ed,65c51602e9486207c648d17f,,,,,,12.152,31.0823,space,18.6055,,,,,,,,,,,,,,,,,,,,,,,,,,,,,,,,,,,,,,,,,,,,,,,,,,,,,,,,,,,,,,,,,,,,,,,,,,,,,,,,,,,,,,,,,,,,,,,,,
,,,,,,5be94f66a169160001dafb9d,2024-02-08_13h22.01.547,group3.1-3.2-social-tom,2023.2.2,Win32,60.60606061,65c5074098b851296ff0b7ed,65c51602e9486207c648d17f,,,,,,,,,,,31.0927,39.6989,space,8.5879,,[],[],[],[],[],[],0,0,0,0,1,,,,,,,,,,,,,,,,,,,,,,,,,,,,,,,,,,,,,,,,,,,,,,,,,,,,,,,,,,,,,,,,,,,,,,,,,,,,,,,,
,,,,,,5be94f66a169160001dafb9d,2024-02-08_13h22.01.547,group3.1-3.2-social-tom,2023.2.2,Win32,60.60606061,65c5074098b851296ff0b7ed,65c51602e9486207c648d17f,,,,,,,,,,,39.706,56.3655,space,16.5915,,[],[],[],[],[],[],1,0,1,0,1,,,,,,,,,,,,,,,,,,,,,,,,,,,,,,,,,,,,,,,,,,,,,,,,,,,,,,,,,,,,,,,,,,,,,,,,,,,,,,,,
,,,,,,5be94f66a169160001dafb9d,2024-02-08_13h22.01.547,group3.1-3.2-social-tom,2023.2.2,Win32,60.60606061,65c5074098b851296ff0b7ed,65c51602e9486207c648d17f,,,,,,,,,,,56.3729,77.3495,space,20.9441,,[],[],[],[],[],[],2,0,2,0,1,,,,,,,,,,,,,,,,,,,,,,,,,,,,,,,,,,,,,,,,,,,,,,,,,,,,,,,,,,,,,,,,,,,,,,,,,,,,,,,,
,,,,,,5be94f66a169160001dafb9d,2024-02-08_13h22.01.547,group3.1-3.2-social-tom,2023.2.2,Win32,60.60606061,65c5074098b851296ff0b7ed,65c51602e9486207c648d17f,,,,,,,,,,,77.3574,98.5167,space,21.1378,,[],[],[],[],[],[],3,0,3,0,1,,,,,,,,,,,,,,,,,,,,,,,,,,,,,,,,,,,,,,,,,,,,,,,,,,,,,,,,,,,,,,,,,,,,,,,,,,,,,,,,
,,,,,,5be94f66a169160001dafb9d,2024-02-08_13h22.01.547,group3.1-3.2-social-tom,2023.2.2,Win32,60.60606061,65c5074098b851296ff0b7ed,65c51602e9486207c648d17f,,,,,,,,,,,98.5236,108.0336,p,9.4929,,[],[],[],[],[],[],4,0,4,0,1,,,,,,,,,,,,,,,,,,,,,,,,,,,,,,,,,,,,,,,,,,,,,,,,,,,,,,,,,,,,,,,,,,,,,,,,,,,,,,,,
,,,,,,5be94f66a169160001dafb9d,2024-02-08_13h22.01.547,group3.1-3.2-social-tom,2023.2.2,Win32,60.60606061,65c5074098b851296ff0b7ed,65c51602e9486207c648d17f,,,,,,,,,,,108.0412,116.4676,space,8.3994,,[],[],[],[],[],[],5,0,5,0,1,,,,,,,,,,,,,,,,,,,,,,,,,,,,,,,,,,,,,,,,,,,,,,,,,,,,,,,,,,,,,,,,,,,,,,,,,,,,,,,,
,,,,,,5be94f66a169160001dafb9d,2024-02-08_13h22.01.547,group3.1-3.2-social-tom,2023.2.2,Win32,60.60606061,65c5074098b851296ff0b7ed,65c51602e9486207c648d17f,,,,,,,,,,,116.4752,117.284,space,0.7971,,[],[],[],[],[],[],6,0,6,0,1,,,,,,,,,,,,,,,,,,,,,,,,,,,,,,,,,,,,,,,,,,,,,,,,,,,,,,,,,,,,,,,,,,,,,,,,,,,,,,,,
,,,,,,5be94f66a169160001dafb9d,2024-02-08_13h22.01.547,group3.1-3.2-social-tom,2023.2.2,Win32,60.60606061,65c5074098b851296ff0b7ed,65c51602e9486207c648d17f,,,,,,,,,,,,,,,,,,,,,,,,,,,117.2863,119.8676,119.8875,1,audio/Narrative13Situation2.wav,121.9008,,121.901,151.6523,"[[999,0],[999,99],[999,183],[999,266],[999,349],[999,433],[999,516],[999,599],[999,683],[999,766],[999,849],[999,933],[999,1016],[999,1100],[999,1183],[999,1266],[999,1349],[999,1432],[999,1516],[999,1599],[999,1682],[999,1766],[999,1849],[999,1933],[999,2016],[999,2099],[999,2183],[999,2266],[999,2349],[999,2433],[999,2517],[999,2599],[999,2682],[999,2766],[999,2849],[999,2932],[999,3016],[999,3099],[999,3182],[999,3266],[999,3349],[999,3433],[999,3516],[999,3599],[999,3683],[999,3766],[999,3849],[999,3932],[999,4016],[999,4099],[999,4183],[999,4266],[999,4349],[999,4433],[999,4516],[999,4600],[999,4683],[999,4766],[999,4849],[32,4933],[31.7,5016],[30.9,5099],[30.4,5183],[30.4,5266],[30.4,5349],[30.4,5433],[30.4,5516],[29.9,5600],[29.3,5683],[29.2,5766],[29.2,5849],[29.2,5933],[28.7,6016],[28.4,6100],[27.8,6183],[25.9,6266],[22,6349],[20.4,6433],[20.1,6516],[20.1,6599],[20.1,6683],[20.1,6766],[20.1,6849],[20.1,6933],[20.1,7016],[20.1,7099],[20.1,7183],[20.1,7266],[20.1,7349],[20.1,7433],[20.1,7516],[20.1,7599],[20.1,7683],[20.1,7766],[20.1,7849],[20.1,7933],[20.1,8016],[20.1,8099],[20.1,8183],[20.1,8266],[20.1,8349],[20.1,8433],[20.1,8516],[20.1,8599],[20.1,8683],[20.1,8766],[20.1,8849],[20.1,8933],[20.1,9016],[21.5,9100],[28.2,9183],[40.3,9266],[54.2,9358],[63.9,9433],[77.8,9516],[86,10100],[85.6,10184],[85.1,10266],[85.1,10350],[85.1,10433],[85.1,10516],[84.9,10600],[84.9,10683],[84.9,10766],[84.9,10850],[84.9,10933],[84.9,11016],[84.9,11099],[84.9,11183],[84.9,11266],[84.9,11349],[84.9,11433],[85.1,11516],[85.1,11600],[85.1,11683],[85.1,11766],[85.1,11849],[85.1,11933],[85.1,12016],[85.1,12100],[85.1,12183],[85.1,12266],[85.1,12349],[85.1,12433],[85.1,12516],[85.1,12600],[85.1,12683],[85.1,12766],[85.1,12849],[85.1,12933],[85.1,13016],[85.1,13100],[85.1,13183],[85.1,13267],[85.1,13350],[84.9,13433],[84.9,13516],[84.9,13600],[84.9,13683],[84.9,13766],[84.9,13850],[84.9,13933],[84.9,14016],[84.9,14100],[84.9,14183],[84.9,14266],[84.9,14350],[84.9,14433],[84.9,14516],[84.9,14600],[84.9,14683],[84.9,14766],[84.9,14850],[84.9,14933],[84.9,15016],[84.9,15100],[84.9,15183],[84.9,15266],[84.9,15350],[84.9,15433],[84.9,15516],[84.9,15600],[84.9,15683],[84.9,15766],[84.9,15850],[84.9,15933],[84.9,16016],[84.9,16100],[84.9,16183],[84.9,16266],[84.9,16350],[84.9,16433],[84.9,16516],[81.2,16600],[79.6,16683],[77.3,16767],[74.8,16851],[72.1,16933],[71,17017],[70.4,17100],[68.5,17183],[66.8,17267],[66.5,17350],[66.4,17433],[65.9,17516],[65.6,17600],[65.1,17683],[64.5,17766],[63.4,17850],[61.5,17933],[59,18016],[56.4,18100],[54.3,18183],[53.4,18267],[52.4,18350],[51.8,18433],[51.5,18516],[50.7,18600],[49.9,18683],[49.2,18767],[47.8,18850],[43.7,18933],[40.7,19017],[36.8,19100],[33.2,19183],[30.1,19267],[26,19350],[24.3,19433],[23.9,19516],[23.2,19600],[22,19683],[21.8,19767],[21.7,19850],[21.7,19933],[21.7,20016],[21.7,20100],[21.7,20183],[23.5,20267],[33.5,20350],[38.4,20433],[40.1,20517],[42.9,20600],[45.9,20683],[46.8,20766],[46.8,20850],[46.8,20933],[46.8,21017],[46.8,21100],[46.8,21183],[46.8,21266],[46.8,21350],[46.8,21433],[46.8,21516],[47.3,21600],[48.1,21683],[48.1,21766],[48.1,21850],[48.1,21933],[48.1,22017],[48.1,22100],[48.1,22183],[48.1,22267],[48.1,22350],[48.1,22433],[48.1,22517],[48.1,22600],[48.1,22683],[48.1,22767],[48.1,22850],[48.1,22933],[48.1,23017],[48.1,23100],[48.1,23183],[48.1,23267],[48.1,23350],[48.1,23433],[48.1,23517],[48.1,23600],[48.1,23683],[48.1,23767],[48.1,23850],[48.1,23933],[48.1,24017],[48.1,24100],[48.1,24183],[48.1,24267],[48.1,24350],[48.1,24433],[48.1,24517],[48.1,24600],[48.1,24683],[48.1,24767],[48.1,24850],[48.1,24933],[48.1,25017],[48.1,25100],[48.1,25183],[48.1,25267],[48.1,25350],[48.1,25433],[48.1,25517],[48.1,25600],[48.1,25683],[48.1,25767],[48.1,25850],[48.1,25933],[48.1,26017],[48.1,26100],[48.1,26183],[48.1,26267],[48.1,26350],[45.3,26433],[43.7,26517],[43.4,26600],[43.2,26683],[43.2,26767],[43.2,26851],[43.2,26933],[43.2,27017],[43.2,27100],[43.2,27183],[43.2,27267],[43.2,27350],[43.2,27433],[43.2,27517],[43.2,27600],[43.2,27683],[43.2,27767],[43.2,27850],[43.2,27933],[43.2,28017],[43.2,28100],[43.1,28183],[41.7,28267],[38.5,28350],[30.4,28434],[26.4,28517],[24.3,28600],[24.2,28683],[23.7,28767],[22.6,28850],[21.7,28933],[21.5,29017],[21.5,29100],[21.5,29183],[21.5,29267],[21.5,29350],[21.5,29433],[21.5,29517],[21.5,29600],[21.5,29683]]",1,0,151.6525,158.4691,50.26041985,4.0182,"[{""rating"":50.26041984558105,""responseTime"":4.018200000047727}]",space,6.2731,,158.4694,Definitely yes,100,169.5362,99.94791985,7.4824,"[{""rating"":99.94791984558105,""responseTime"":7.482399999975996}]",space,10.5169,,0,0,0,0,1,audio/Narrative13Situation2.wav,audio/Narrative13Situation2.wav,audio/Narrative13Situation2.wav,audio/Narrative13Situation2.wav,2,2,2,2,,,,,,,,,,,,,,,,,,,,,,,,,,,,,,,,,,,,,
,,,,,,5be94f66a169160001dafb9d,2024-02-08_13h22.01.547,group3.1-3.2-social-tom,2023.2.2,Win32,60.60606061,65c5074098b851296ff0b7ed,65c51602e9486207c648d17f,,,,,,,,,,,,,,,,,,,,,,,,,,,,,169.5432,1,audio/Narrative8Situation1.wav,171.6692,space,171.6693,187.603,"[[999,1],[999,83],[999,166],[999,249],[999,332],[999,416],[999,499],[999,582],[999,666],[999,750],[999,832],[999,916],[999,999],[999,1083],[999,1166],[999,1249],[999,1333],[999,1416],[999,1499],[999,1583],[999,1666],[999,1749],[999,1833],[999,1916],[999,1999],[999,2083],[999,2166],[999,2249],[999,2332],[999,2416],[999,2499],[999,2583],[999,2666],[999,2750],[999,2833],[999,2916],[999,2999],[999,3083],[999,3166],[999,3249],[999,3333],[999,3416],[999,3499],[999,3583],[999,3666],[999,3749],[999,3833],[999,3916],[999,3999],[999,4083],[999,4166],[999,4249],[999,4333],[999,4416],[999,4499],[999,4583],[999,4666],[999,4749],[999,4833],[999,4916],[999,4999],[999,5083],[999,5166],[12.1,5249],[11.8,5332],[11.8,5416],[11.8,5499],[11.8,5583],[11.8,5666],[11.8,5749],[11.8,5833],[11.8,5916],[11.8,5999],[11.8,6083],[11.8,6166],[11.8,6249],[11.8,6332],[11.8,6416],[11.8,6499],[11.8,6583],[11.8,6666],[11.8,6749],[11.8,6833],[11.8,6916],[11.8,6999],[11.8,7083],[11.8,7166],[11.8,7249],[11.8,7333],[11.8,7416],[11.8,7500],[11.8,7583],[11.8,7666],[11.8,7749],[11.8,7833],[11.8,7916],[11.8,7999],[11.8,8083],[11.8,8166],[11.8,8249],[11.8,8333],[11.8,8416],[11.8,8500],[11.8,8583],[11.8,8666],[11.8,8749],[11.8,8833],[11.8,8916],[11.8,8999],[11.8,9083],[11.8,9166],[11.8,9249],[11.8,9333],[11.8,9416],[11.8,9499],[11.8,9583],[15.3,9666],[24.3,9750],[33.5,9834],[44.6,9916],[54.5,10000],[59.8,10083],[65.6,10166],[74.2,10250],[76.8,10333],[76.8,10416],[78.9,10500],[79.8,10583],[81.5,10666],[82.8,10750],[84.8,10833],[85.1,10916],[85.1,10999],[85.1,11083],[85.1,11166],[85.9,11250],[86.8,11333],[88.4,11416],[89.2,11499],[89.3,11583],[90.3,11666],[90.3,11750],[90.9,11833],[91.7,11916],[91.7,11999],[91.7,12083],[91.7,12166],[91.7,12250],[91.7,12333],[91.7,12416],[91.7,12499],[91.7,12583],[91.7,12666],[91.7,12750],[91.7,12833],[91.7,12916],[91.7,12999],[91.7,13083],[91.7,13166],[91.7,13249],[91.7,13333],[91.7,13416],[91.7,13500],[91.7,13583],[91.7,13666],[91.7,13750],[91.7,13833],[91.7,13916],[91.7,14000],[91.7,14083],[91.7,14166],[91.7,14249],[91.7,14333],[91.7,14416],[91.7,14500],[91.7,14583],[91.7,14666],[91.7,14750],[91.7,14833],[91.7,14916],[91.7,15000],[91.7,15083],[91.7,15166],[91.7,15250],[91.7,15333],[91.7,15416],[91.7,15500],[91.7,15583],[91.7,15666],[91.7,15750],[91.7,15833],[91.7,15916]]",1,0,187.6032,192.9029,81.04166985,4.521,"[{""rating"":68.85416984558105,""responseTime"":3.196999999999889},{""rating"":81.04166984558105,""responseTime"":4.520999999999958}]",space,4.7622,,192.903,Definitely yes,100,192.9045,,,[],,,,0,1,1,1,1,audio/Narrative7Situation1.wav,audio/Narrative8Situation1.wav,audio/Narrative5Situation1.wav,audio/Narrative6Situation1.wav,2,5,5,2,2.1019,,,,,,,,,,,,,,,,,,,,,,,,,,,,,,,,,,,,
,,,,,,5be94f66a169160001dafb9d,2024-02-08_13h22.01.547,group3.1-3.2-social-tom,2023.2.2,Win32,60.60606061,65c5074098b851296ff0b7ed,65c51602e9486207c648d17f,,,,,,,,,,,,,,,,,,,,,,,,,,,,,192.9046,1,audio/Narrative8Situation2.wav,195.9201,,195.9201,206.0536,"[[999,0],[999,82],[999,166],[999,249],[999,333],[999,416],[999,499],[999,582],[999,666],[999,749],[999,833],[999,916],[999,999],[999,1083],[999,1166],[999,1249],[999,1332],[999,1416],[999,1499],[999,1582],[999,1666],[999,1749],[999,1832],[999,1916],[999,1999],[999,2082],[999,2166],[999,2249],[999,2332],[999,2416],[999,2499],[999,2582],[999,2666],[100,2749],[100,2834],[72,2916],[72,2999],[72,3083],[72,3166],[72,3251],[76,3333],[66.4,3416],[11.5,3750],[13.4,3833],[14.6,3916],[13.2,4000],[13.1,4083],[13.4,4166],[13.7,4249],[13.7,4333],[13.7,4416],[13.7,4499],[13.7,4583],[13.7,4666],[13.7,4749],[13.7,4833],[13.7,4918],[13.7,4999],[13.7,5083],[13.7,5166],[13.7,5249],[13.7,5333],[13.4,5416],[13.4,5499],[13.4,5583],[13.4,5666],[13.4,5750],[13.4,5833],[13.5,5916],[13.5,5999],[13.5,6083],[13.5,6166],[13.5,6249],[13.5,6333],[13.5,6416],[13.5,6499],[13.5,6583],[13.5,6666],[13.5,6749],[13.5,6833],[13.5,6916],[13.5,6999],[13.5,7083],[13.5,7166],[13.5,7249],[13.5,7333],[13.5,7416],[13.5,7500],[13.5,7583],[13.5,7666],[13.5,7749],[13.5,7833],[13.5,7916],[13.5,7999],[13.5,8083],[13.5,8166],[13.5,8249],[13.5,8333],[13.5,8416],[13.5,8499],[13.5,8583],[13.5,8666],[13.5,8749],[13.5,8833],[13.5,8916],[13.5,8999],[13.5,9083],[13.5,9166],[13.5,9249],[13.5,9333],[13.5,9416],[13.5,9499],[13.5,9583],[13.5,9666],[13.5,9749],[13.5,9833],[13.5,9916],[13.5,9999],[13.5,10083]]",1,0,206.0538,209.9701,0,1.706,"[{""rating"":0,""responseTime"":1.706000000000131}]",space,3.3815,,209.9702,Not at all,0,209.9729,,,[],,,,0,2,2,2,1,audio/Narrative7Situation2.wav,audio/Narrative8Situation2.wav,audio/Narrative5Situation2.wav,audio/Narrative6Situation2.wav,3,3,3,3,,,,,,,,,,,,,,,,,,,,,,,,,,,,,,,,,,,,,
,,,,,,5be94f66a169160001dafb9d,2024-02-08_13h22.01.547,group3.1-3.2-social-tom,2023.2.2,Win32,60.60606061,65c5074098b851296ff0b7ed,65c51602e9486207c648d17f,,,,,,,,,,,,,,,,,,,,,,,,,,,,,209.9731,1,audio/Narrative8Situation3.wav,213.9871,,213.9871,236.3715,"[[999,5],[999,83],[999,167],[999,249],[999,333],[999,416],[999,499],[999,583],[999,666],[999,750],[999,833],[999,916],[999,999],[999,1083],[999,1166],[999,1249],[999,1333],[999,1416],[999,1499],[999,1583],[999,1666],[999,1749],[999,1833],[999,1916],[999,2000],[999,2083],[999,2166],[999,2249],[999,2333],[999,2417],[999,2499],[999,2583],[999,2666],[999,2749],[999,2833],[999,2917],[999,2999],[999,3083],[999,3166],[999,3249],[999,3333],[999,3416],[999,3499],[999,3583],[42.3,3666],[43.4,3749],[43.4,3833],[46,3916],[51.4,5917],[51.5,5999],[50.1,6083],[49.2,6166],[48.4,6250],[47.4,6333],[43.5,6416],[38.1,6500],[34.3,6583],[32.8,6666],[32,6750],[31.8,6833],[31.8,6916],[31.8,7000],[31.8,7083],[31.7,7166],[31.4,7250],[31.4,7333],[31.4,7416],[31.4,7500],[31.4,7583],[31.4,7666],[31.4,7750],[31.4,7833],[31.4,7916],[31.4,8000],[31.4,8083],[31.4,8166],[31.4,8250],[31.4,8333],[31.4,8416],[31.4,8500],[31.4,8583],[31.4,8666],[31.4,8750],[31.4,8833],[31.4,8916],[31.4,9000],[31.4,9083],[31.4,9166],[31.4,9250],[31.4,9333],[31.4,9416],[31.4,9500],[31.4,9583],[31.4,9666],[31.4,9750],[31.4,9833],[31.4,9916],[31.4,10000],[31.4,10083],[31.4,10167],[31.4,10250],[31.4,10333],[31.4,10416],[31.4,10500],[31.4,10583],[31.4,10666],[31.4,10750],[31.4,10833],[31.4,10916],[37.4,11000],[44.9,11083],[47.3,11166],[49.2,11250],[49.2,11333],[49.2,11416],[49.2,11500],[49.2,11583],[49.2,11666],[49.2,11750],[49.2,11833],[49.2,11916],[49,12000],[48.9,12083],[48.2,12166],[47.9,12250],[47.6,12333],[47,12417],[46.8,12500],[46.5,12583],[46.4,12666],[46.4,12750],[46.4,12833],[45.9,12916],[44,13000],[41.5,13083],[37.6,13167],[34,13250],[30.9,13333],[27.9,13417],[27,13500],[26.7,13583],[26.7,13666],[26.7,13750],[26.7,13833],[26.7,13916],[26.7,14000],[26.8,14083],[27.1,14167],[27.3,14250],[27.3,14333],[27.3,14416],[27.3,14500],[27.3,14583],[27.3,14666],[27.3,14750],[27.3,14833],[27.3,14916],[27.1,15000],[27.1,15083],[26.8,15166],[26.7,15250],[26.7,15333],[26.7,15416],[26.5,15500],[26.5,15583],[26.4,15667],[26.4,15750],[26.4,15833],[25.9,15917],[24.8,16000],[24,16083],[23.1,16166],[23.1,16250],[22.4,16333],[21.8,16416],[20.6,16500],[19.9,16583],[19.6,16666],[19.6,16750],[19.5,16833],[19.5,16916],[19.5,17000],[19.5,17083],[19.5,17167],[19.5,17250],[19.5,17333],[19.5,17416],[19.5,17500],[19.5,17583],[19.5,17666],[19.5,17750],[19.5,17833],[19.5,17916],[19.5,18000],[19.5,18084],[19.5,18166],[19.5,18250],[19.6,18334],[19.8,18416],[19.8,18500],[19.8,18583],[19.9,18666],[20.1,18750],[20.1,18833],[20.1,18917],[20.1,19000],[20.1,19083],[20.3,19166],[20.3,19250],[20.4,19333],[20.6,19417],[20.7,19500],[20.7,19583],[20.9,19667],[21,19750],[21.2,19834],[21.5,19917],[21.7,20000],[21.8,20083],[22,20166],[22.1,20250],[22.1,20333],[22.3,20416],[22.3,20500],[22.9,20584],[27.8,20667],[29.6,20750],[31.2,20834],[34.5,20917],[38.5,21000],[43.7,21084],[49.2,21167],[51.7,21250],[53.5,21334],[56.4,21417],[58.4,21500],[60.7,21583],[61.8,21667],[65.3,21750],[67.9,21833],[68.5,21917],[68.7,22000],[65.3,22083],[59.8,22167],[56.5,22250],[55.1,22333]]",1,0,236.3716,242.0712,46.66666985,3.9983,"[{""rating"":46.666669845581055,""responseTime"":3.998299999952451}]",space,5.1646,,242.0712,Partially,50,242.0737,,,[],,,,0,3,3,3,1,audio/Narrative7Situation3.wav,audio/Narrative8Situation3.wav,audio/Narrative5Situation3.wav,audio/Narrative6Situation3.wav,8,4,3,5,,,,,,,,,,,,,,,,,,,,,,,,,,,,,,,,,,,,,
,,,,,,5be94f66a169160001dafb9d,2024-02-08_13h22.01.547,group3.1-3.2-social-tom,2023.2.2,Win32,60.60606061,65c5074098b851296ff0b7ed,65c51602e9486207c648d17f,,,,,,,,,,,,,,,,,,,,,,,,,,,,,242.0739,1,audio/Narrative8Situation4.wav,245.088,,245.088,259.2718,"[[999,6],[999,83],[999,166],[999,250],[999,333],[999,416],[999,499],[999,583],[999,666],[999,749],[999,833],[999,916],[999,999],[999,1083],[999,1166],[999,1249],[999,1333],[999,1416],[999,1500],[999,1583],[999,1666],[999,1749],[999,1833],[999,1916],[999,1999],[999,2083],[999,2166],[999,2250],[999,2333],[999,2416],[999,2499],[999,2583],[999,2666],[999,2750],[999,2833],[999,2916],[999,3000],[999,3083],[999,3166],[999,3250],[999,3333],[999,3416],[999,3500],[999,3583],[999,3666],[999,3750],[999,3833],[999,3916],[999,4000],[999,4083],[999,4166],[999,4250],[999,4333],[999,4416],[999,4500],[999,4583],[999,4666],[999,4750],[999,4833],[999,4916],[999,5000],[999,5083],[999,5166],[999,5250],[999,5333],[999,5416],[999,5500],[999,5583],[999,5666],[999,5750],[999,5833],[999,5916],[999,6000],[999,6083],[999,6166],[999,6250],[54,6333],[55.1,6416],[57.3,6500],[59.6,6583],[61.4,6666],[64.2,6750],[68.9,6833],[72,6916],[76.2,7000],[77.1,7083],[78.4,7166],[79.3,7250],[79.9,7333],[82.4,7416],[85.1,7500],[86.8,7584],[87.3,7666],[87.3,7750],[87.3,7834],[88.5,7917],[88.7,8000],[88.7,8083],[88.7,8166],[88.4,8250],[88.4,8333],[88.4,8416],[88.4,8500],[88.4,8583],[88.4,8666],[88.4,8750],[88.4,8833],[88.4,8916],[88.4,9000],[88.4,9083],[88.4,9166],[88.4,9250],[88.4,9333],[88.4,9416],[88.4,9500],[88.4,9583],[88.4,9666],[88.4,9750],[88.4,9833],[88.4,9917],[88.4,10000],[88.4,10083],[88.4,10166],[88.4,10250],[88.4,10333],[88.4,10416],[88.4,10500],[88.4,10583],[88.4,10666],[88.4,10750],[88.4,10833],[88.4,10916],[88.4,11000],[88.4,11083],[88.4,11166],[88.4,11250],[88.4,11333],[88.4,11416],[88.4,11500],[88.4,11583],[88.4,11666],[88.4,11750],[88.4,11833],[88.4,11916],[88.4,12000],[88.4,12083],[88.4,12166],[88.4,12250],[88.4,12333],[88.4,12416],[88.4,12500],[88.4,12583],[88.4,12666],[88.4,12750],[88.4,12833],[88.4,12916],[88.4,13000],[88.4,13083],[88.4,13166],[88.4,13250],[88.4,13333],[88.4,13416],[88.4,13500],[88.4,13583],[88.4,13667],[88.4,13750],[88.4,13833],[88.4,13917],[88.4,14000],[88.4,14083],[88.4,14166]]",1,0,259.2719,262.7385,99.32291985,1.9364,"[{""rating"":99.32291984558105,""responseTime"":1.9364000000955457}]",space,2.9376,,262.7385,Not at all,0,262.7404,,,[],,,,0,4,4,4,1,audio/Narrative7Situation4.wav,audio/Narrative8Situation4.wav,audio/Narrative5Situation4.wav,audio/Narrative6Situation4.wav,3,3,1,2,,,,,,,,,,,,,,,,,,,,,,,,,,,,,,,,,,,,,
,,,,,,5be94f66a169160001dafb9d,2024-02-08_13h22.01.547,group3.1-3.2-social-tom,2023.2.2,Win32,60.60606061,65c5074098b851296ff0b7ed,65c51602e9486207c648d17f,,,,,,,,,,,,,,,,,,,,,,,,,,,,,262.7406,1,audio/Narrative8Situation5.wav,264.7553,,264.7554,273.006,"[[999,0],[999,83],[999,166],[999,249],[999,333],[999,416],[999,499],[999,583],[999,666],[999,749],[999,833],[999,916],[999,999],[999,1084],[999,1166],[999,1250],[999,1333],[999,1416],[999,1499],[999,1584],[999,1666],[999,1750],[999,1833],[999,1916],[999,1999],[999,2083],[999,2166],[999,2249],[999,2333],[999,2416],[999,2499],[999,2583],[999,2666],[999,2749],[999,2833],[999,2916],[999,2999],[999,3083],[999,3166],[999,3249],[999,3333],[999,3416],[999,3499],[999,3583],[999,3666],[999,3749],[999,3833],[999,3916],[999,3999],[999,4083],[999,4166],[999,4249],[999,4334],[999,4416],[999,4500],[999,4583],[999,4666],[999,4749],[999,4837],[999,4916],[999,5000],[999,5083],[999,5166],[999,5249],[999,5333],[999,5416],[999,5499],[999,5583],[999,5667],[999,5749],[999,5833],[999,5916],[999,6000],[999,6083],[999,6167],[999,6250],[999,6333],[999,6416],[999,6499],[999,6583],[999,6666],[999,6750],[999,6833],[999,6916],[999,7000],[999,7083],[999,7166],[999,7250],[999,7333],[999,7416],[999,7500],[999,7583],[999,7666],[999,7750],[999,7833],[999,7916],[999,8000],[999,8083],[999,8167],[999,8250]]",1,0,273.0061,275.6726,100,1.7761,"[{""rating"":100,""responseTime"":1.7761000000239164}]",space,2.1386,,275.6728,Not at all,0,275.6746,,,[],,,,0,5,5,5,1,audio/Narrative7Situation5.wav,audio/Narrative8Situation5.wav,audio/Narrative5Situation5.wav,audio/Narrative6Situation5.wav,5,2,5,2,,,,,,,,,,,,,,,,,,,,,,,,,,,,,,,,,,,,,
,,,,,,5be94f66a169160001dafb9d,2024-02-08_13h22.01.547,group3.1-3.2-social-tom,2023.2.2,Win32,60.60606061,65c5074098b851296ff0b7ed,65c51602e9486207c648d17f,,,,,,,,,,,,,,,,,,,,,,,,,,,,,275.6747,1,audio/Narrative8Situation6.wav,277.689,,277.6891,284.156,"[[999,0],[999,83],[999,166],[999,250],[999,333],[999,416],[999,499],[999,583],[999,666],[999,750],[999,833],[999,916],[999,999],[999,1083],[999,1166],[47.8,1250],[47.8,1333],[47.8,1416],[47.8,1499],[48.2,1583],[48.5,1666],[48.7,1749],[48.7,1833],[48.7,1916],[55.3,2000],[63.2,2083],[69,2166],[73.7,2250],[73.7,2333],[73.7,2416],[73.5,2500],[73.4,2583],[73.4,2666],[73.4,2750],[73.4,2833],[73.4,2916],[73.4,2999],[73.4,3083],[73.4,3166],[73.4,3249],[73.4,3333],[73.4,3416],[73.4,3500],[73.4,3583],[73.4,3666],[73.5,3749],[74.6,3833],[78.2,3916],[79.6,4000],[80.7,4083],[82,4166],[84.5,4250],[86,4333],[87.1,4416],[89.8,4500],[91.5,4583],[93.9,4666],[93.9,4750],[93.9,4833],[93.9,4916],[93.9,5000],[93.9,5083],[93.9,5166],[93.9,5250],[93.7,5333],[92.9,5416],[92.3,5500],[91.4,5583],[90.7,5666],[90.6,5750],[90.6,5833],[90.6,5916],[90.6,6000],[90.9,6083],[91,6166],[91.5,6250],[91.8,6333],[93.2,6416]]",1,0,284.1561,287.2229,100,1.712,"[{""rating"":100,""responseTime"":1.711999999999989}]",space,2.531,,287.2229,Definitely yes,100,287.225,,,[],,,,0,6,6,6,1,audio/Narrative7Situation6.wav,audio/Narrative8Situation6.wav,audio/Narrative5Situation6.wav,audio/Narrative6Situation6.wav,3,2,3,2,,,,,,,,,,,,,,,,,,,,,,,,,,,,,,,,,,,,,
,,,,,,5be94f66a169160001dafb9d,2024-02-08_13h22.01.547,group3.1-3.2-social-tom,2023.2.2,Win32,60.60606061,65c5074098b851296ff0b7ed,65c51602e9486207c648d17f,,,,,,,,,,,,,,,,,,,,,,,,,,,,,287.2253,1,audio/Narrative8Situation7.wav,290.2395,,290.2395,302.3567,"[[999,0],[999,83],[999,166],[999,249],[999,333],[999,416],[999,500],[999,583],[999,666],[999,749],[999,833],[999,916],[999,999],[999,1083],[999,1166],[999,1250],[999,1333],[999,1416],[999,1499],[999,1585],[999,1667],[999,1749],[999,1833],[999,1916],[999,2000],[999,2083],[999,2166],[42.3,2250],[42.1,2333],[42,2416],[42,2499],[42.3,2583],[44.6,2666],[47.6,2750],[49.5,2833],[51.2,2916],[51.2,2999],[51.2,3083],[50.6,3166],[50.1,3250],[50.1,3333],[49.9,3416],[49.9,3500],[49.9,3583],[49.8,3666],[48.7,3750],[43.2,3833],[39,3916],[34.5,4000],[30.3,4083],[24.6,4166],[16.5,4250],[10.9,4333],[9.5,4417],[7.8,4500],[4.9,4583],[3.4,4666],[3.4,4750],[5.6,4833],[10.7,4916],[11,5000],[13.2,5083],[14.5,5167],[15.4,5250],[15.4,5333],[15.4,5416],[15.4,5500],[15.1,5583],[15.1,5666],[15.1,5749],[15.1,5833],[15.1,5916],[15.1,6000],[15.1,6083],[15.1,6166],[15.1,6250],[15.1,6333],[15.1,6416],[15.1,6500],[15.1,6583],[15.1,6666],[15.1,6750],[15.1,6833],[15.1,6916],[15.1,7000],[15.1,7083],[15.1,7166],[15.1,7250],[15.1,7333],[15.6,7416],[16.8,7500],[17,7583],[17,7666],[17.4,7750],[17.4,7833],[17.4,7916],[17.4,8000],[17.4,8083],[17.4,8166],[17.4,8250],[17.4,8333],[17.4,8416],[17.4,8500],[17.4,8583],[17.4,8666],[17.4,8750],[17.4,8833],[17.4,8916],[17.4,9000],[17.9,9083],[19.2,9166],[19.9,9250],[21.2,9334],[22.3,9417],[22.6,9500],[22.9,9583],[22.9,9666],[22.9,9750],[22.9,9833],[22.9,9916],[22.9,10000],[22.9,10083],[23.5,10166],[24,10250],[24.9,10333],[25.6,10416],[26.4,10500],[26.8,10583],[27.3,10666],[28.2,10750],[28.2,10833],[28.2,10916],[28.2,11000],[28.2,11083],[28.2,11166],[28.2,11250],[29.2,11333],[30.3,11416],[33.4,11500],[37,11583],[40.7,11667],[41.4,11750],[41.4,11833],[41.4,11916],[41.4,12002],[41.4,12083]]",1,0,302.3568,307.5903,24.01041985,4.1087,"[{""rating"":21.979169845581055,""responseTime"":2.3433999999761},{""rating"":26.822919845581055,""responseTime"":3.047600000023749},{""rating"":24.010419845581055,""responseTime"":4.10870000004752}]",space,4.7103,,307.5904,Definitely yes,100,307.5919,,,[],,,,0,7,7,7,1,audio/Narrative7Situation7.wav,audio/Narrative8Situation7.wav,audio/Narrative5Situation7.wav,audio/Narrative6Situation7.wav,5,3,4,5,,,,,,,,,,,,,,,,,,,,,,,,,,,,,,,,,,,,,
,,,,,,5be94f66a169160001dafb9d,2024-02-08_13h22.01.547,group3.1-3.2-social-tom,2023.2.2,Win32,60.60606061,65c5074098b851296ff0b7ed,65c51602e9486207c648d17f,,,,,,,,,,,,,,,,,,,,,,,,,,,,,307.592,1,audio/Narrative8Situation8.wav,310.6068,,310.6068,323.4738,"[[999,0],[999,83],[999,166],[999,249],[999,333],[999,416],[999,499],[999,583],[999,666],[999,750],[999,833],[999,916],[999,1000],[999,1083],[999,1166],[999,1249],[999,1333],[999,1416],[999,1499],[999,1583],[999,1666],[999,1750],[999,1833],[999,1916],[999,1999],[999,2083],[999,2166],[999,2250],[999,2333],[999,2416],[999,2499],[999,2583],[999,2666],[999,2750],[999,2833],[999,2916],[999,3000],[999,3083],[999,3166],[999,3249],[999,3333],[999,3416],[999,3500],[999,3583],[999,3666],[999,3750],[999,3833],[999,3916],[999,4000],[999,4083],[999,4166],[999,4249],[999,4333],[999,4416],[999,4500],[999,4583],[999,4666],[999,4750],[999,4833],[999,4916],[999,5000],[999,5083],[999,5166],[999,5250],[999,5333],[9.9,5416],[9.9,5500],[9.9,5583],[9.9,5666],[9.9,5750],[9.9,5833],[9.9,5916],[9.9,6000],[9.9,6083],[9.9,6166],[9.9,6250],[9.9,6333],[9.9,6416],[9.9,6500],[9.9,6583],[9.9,6666],[10.1,6750],[10.1,6833],[10.4,6916],[10.6,7000],[10.6,7083],[11,7166],[11,7250],[11.2,7333],[11.2,7417],[11.7,7500],[12.3,7583],[12.3,7666],[12.3,7750],[12.3,7833],[12.3,7917],[12.3,8000],[12.3,8083],[12.3,8166],[12.3,8250],[12.3,8333],[12.3,8417],[12.3,8500],[12.3,8583],[12.3,8666],[12.3,8750],[12.3,8833],[12.3,8917],[12.3,9000],[12.3,9083],[12.3,9166],[12.3,9250],[12.3,9333],[12.3,9417],[12.3,9500],[12.3,9583],[12.3,9666],[12.3,9750],[12.3,9833],[12.3,9916],[12.3,10000],[12.3,10083],[12.3,10167],[12.3,10250],[12.3,10333],[12.3,10416],[12.3,10500],[12.3,10583],[12.3,10667],[12.3,10750],[12.3,10833],[12.3,10916],[12.3,11000],[12.3,11083],[12.3,11167],[12.3,11250],[12.3,11333],[12.3,11416],[12.3,11500],[12.3,11583],[12.3,11667],[12.3,11750],[12.3,11833],[12.3,11916],[12.3,12000],[12.3,12083],[12.3,12166],[12.6,12250],[12.8,12333],[13.1,12416],[13.2,12500],[13.2,12583],[13.2,12666],[13.2,12750],[13.2,12833]]",1,0,323.474,331.324,48.38541985,6.331,"[{""rating"":48.385419845581055,""responseTime"":6.331000000000131}]",space,7.3286,,331.3241,Definitely yes,100,331.3255,,,[],,,,0,8,8,8,1,audio/Narrative7Situation8.wav,audio/Narrative8Situation8.wav,audio/Narrative5Situation8.wav,audio/Narrative6Situation8.wav,2,3,3,5,,,,,,,,,,,,,,,,,,,,,,,,,,,,,,,,,,,,,
,,,,,,5be94f66a169160001dafb9d,2024-02-08_13h22.01.547,group3.1-3.2-social-tom,2023.2.2,Win32,60.60606061,65c5074098b851296ff0b7ed,65c51602e9486207c648d17f,,,,,,,,,,,,,,,,,,,,,,,,,,,,,331.3257,1,audio/Narrative8Situation9.wav,334.3408,,334.3408,345.6748,"[[999,0],[999,83],[999,166],[999,249],[999,333],[999,416],[999,500],[999,583],[999,666],[999,749],[999,833],[999,916],[999,1000],[999,1083],[999,1166],[999,1250],[999,1333],[999,1416],[999,1500],[999,1583],[999,1666],[999,1750],[999,1833],[999,1916],[999,2000],[999,2083],[999,2166],[999,2250],[999,2333],[999,2416],[999,2500],[999,2583],[999,2666],[999,2750],[999,2833],[999,2916],[999,3000],[999,3083],[999,3166],[999,3250],[999,3333],[999,3416],[999,3500],[999,3583],[999,3666],[57.4,4416],[56.4,4500],[54.8,4583],[53.5,4666],[52.4,4750],[52.4,4833],[52.4,4916],[52.6,5000],[53.2,5083],[53.2,5166],[53.2,5250],[53.2,5333],[53.2,5416],[53.2,5500],[53.2,5583],[54.5,5666],[57.1,5750],[57.1,5833],[57.1,5916],[57.1,6000],[57.1,6083],[57.1,6166],[57.8,6250],[58.4,6333],[59.9,6416],[61.5,6500],[63.9,6583],[64.2,6666],[64.2,6750],[64.2,6833],[64,6916],[64,7000],[64,7083],[64,7169],[64,7250],[64,7333],[64,7416],[64,7500],[64,7583],[64,7666],[64,7750],[64,7833],[64,7916],[64,8000],[64.2,8084],[64.2,8166],[64.2,8250],[65.6,8333],[66.7,8416],[67.8,8500],[69,8583],[71.5,8666],[76.2,8750],[77.6,8833],[77.6,8916],[77.8,9000],[77.8,9083],[77.8,9166],[77.6,9250],[77.6,9333],[77.6,9416],[77.6,9500],[77.6,9583],[77.6,9666],[77.6,9750],[77.6,9833],[77.6,9916],[77.6,10000],[77.6,10083],[77.6,10166],[77.6,10250],[77.6,10333],[77.6,10416],[77.6,10500],[77.6,10583],[77.6,10667],[77.6,10750],[77.6,10833],[77.6,10916],[77.6,11000],[77.6,11083],[77.6,11166],[77.4,11250]]",1,0,345.6749,357.1583,52.44791985,10.4072,"[{""rating"":68.22916984558105,""responseTime"":2.4104999999999563},{""rating"":52.44791984558106,""responseTime"":10.40719999992848}]",space,10.9347,,357.1584,Definitely yes,100,357.1602,,,[],,,,0,9,9,9,1,audio/Narrative7Situation9.wav,audio/Narrative8Situation9.wav,audio/Narrative5Situation9.wav,audio/Narrative6Situation9.wav,2,3,3,4,,,,,,,,,,,,,,,,,,,,,,,,,,,,,,,,,,,,,
,,,,,,5be94f66a169160001dafb9d,2024-02-08_13h22.01.547,group3.1-3.2-social-tom,2023.2.2,Win32,60.60606061,65c5074098b851296ff0b7ed,65c51602e9486207c648d17f,,,,,,,,,,,,,,,,,,,,,,,,,,,,,357.1604,1,audio/Narrative7Situation1.wav,359.1749,,359.1749,415.0601,"[[999,0],[999,83],[999,167],[999,250],[999,333],[999,416],[999,499],[999,583],[999,666],[999,750],[999,835],[999,916],[999,1000],[999,1083],[999,1166],[999,1250],[999,1333],[999,1416],[999,1500],[999,1583],[999,1666],[999,1750],[999,1833],[999,1916],[999,2000],[999,2083],[999,2166],[999,2250],[999,2333],[999,2416],[999,2500],[999,2583],[999,2666],[999,2750],[999,2833],[999,2916],[999,3000],[999,3083],[999,3166],[999,3250],[999,3333],[999,3416],[999,3500],[999,3583],[999,3666],[999,3750],[999,3833],[999,3916],[999,4000],[999,4083],[999,4166],[999,4250],[999,4333],[999,4416],[999,4500],[999,4583],[999,4666],[999,4750],[999,4833],[999,4916],[999,5000],[999,5083],[999,5166],[999,5250],[999,5333],[999,5416],[999,5500],[999,5583],[999,5666],[999,5750],[999,5833],[999,5916],[999,6000],[999,6083],[999,6166],[999,6250],[999,6333],[999,6417],[999,6500],[999,6583],[999,6666],[999,6750],[999,6833],[999,6917],[999,7000],[999,7083],[999,7166],[999,7250],[999,7333],[999,7416],[999,7500],[999,7583],[999,7666],[999,7750],[999,7833],[51.8,7917],[51.8,8000],[51.8,8083],[51.8,8166],[51.7,8250],[49.3,8333],[41.7,8416],[30.9,8500],[27.1,8583],[20.9,8667],[16.5,8750],[15.1,8833],[15.1,8917],[15.1,9000],[15.1,9083],[15.1,9167],[15.1,9250],[15.1,9333],[15.1,9416],[15.1,9500],[15.1,9583],[15.1,9666],[15.1,9750],[15.1,9833],[15.1,9916],[15.1,10000],[15.1,10083],[15.1,10167],[15.1,10250],[15.1,10333],[15.1,10416],[15.1,10500],[15.1,10583],[15.1,10667],[15.1,10750],[15.1,10834],[15.1,10916],[15.1,11000],[15.1,11083],[15.1,11167],[15.1,11250],[15.1,11334],[15.1,11416],[15.1,11500],[15.1,11583],[15.1,11666],[15.1,11750],[15.1,11834],[15.1,11917],[15.1,12000],[15.1,12083],[15.1,12167],[15.1,12250],[15.1,12334],[15.1,12416],[15.1,12500],[15.1,12583],[15.1,12667],[15.1,12750],[15.1,12833],[15.1,12917],[15.1,13000],[15.1,13083],[15.1,13166],[15.1,13250],[15.1,13333],[15.1,13417],[15.1,13500],[15.1,13584],[15.1,13667],[15.1,13750],[15.1,13833],[15.1,13917],[15.1,14000],[15.1,14084],[15.1,14167],[15.1,14250],[15.1,14333],[15.1,14416],[15.1,14500],[15.1,14584],[15.1,14667],[15.1,14750],[15.1,14833],[15.1,14917],[15.1,15000],[15.1,15084],[15.1,15167],[15.1,15250],[15.1,15333],[15.1,15417],[15.1,15500],[14.6,15583],[14,15667],[13.7,15750],[12.1,15833],[12.1,15917],[12.1,16000],[12.1,16083],[12.1,16167],[12.1,16250],[12,16333],[11.7,16417],[11.7,16500],[11.7,16583],[11.7,16667],[11.7,16750],[11.7,16833],[11.7,16917],[11.7,17000],[11.7,17083],[11.7,17167],[11.7,17250],[11.7,17333],[11.7,17417],[11.5,17500],[10.4,17583],[10.1,17667],[9.3,17750],[9.2,17833],[9.2,17917],[9.2,18000],[9.2,18083],[9.2,18167],[9.2,18250],[9.2,18333],[9.2,18417],[9.2,18500],[9.2,18583],[9,18667],[9,18750],[9,18834],[9,18917],[9,19000],[9,19083],[9,19167],[9,19250],[9,19333],[9,19417],[9,19500],[9,19583],[9,19667],[9,19750],[9,19833],[9,19917],[9,20000],[9,20083],[9,20167],[9,20250],[9,20333],[9,20417],[9,20500],[9,20584],[9,20667],[9,20750],[9,20834],[9,20917],[9,21000],[9,21083],[9,21167],[9,21250],[9,21334],[9,21417],[9,21500],[9.2,21583],[9,21667],[9,21750],[9,21834],[9,21917],[9,22000],[9,22083],[9,22167],[9,22250],[9,22334],[9,22417],[9,22500],[9,22584],[9,22667],[9,22750],[9,22834],[9,22917],[30.3,23501],[13.3,23584],[41.2,24167],[61.3,24834],[27.1,24917],[22,32334],[24.5,32417],[26.1,32501],[25,32584],[22.5,32667],[20.6,32751],[18.4,32834],[17.7,32918],[15,33001],[13.8,33084],[13.4,33167],[12.3,33251],[12.3,33334],[12.3,33417],[12.3,33501],[12.3,33584],[13.8,33667],[16.4,33751],[16.4,33834],[16.4,33917],[16.4,34000],[15.3,34084],[15.2,34168],[15.3,34251],[15.5,34334],[15.8,34417],[15.9,34501],[16.1,34584],[16.1,34667],[15.8,34751],[15,34834],[15,34917],[16.4,35001],[17.2,35084],[18.6,35167],[18.8,35251],[18.8,35334],[18.8,35417],[18.8,35501],[18.8,35584],[18.8,35667],[18.8,35751],[18.8,35834],[18.8,35917],[18.8,36001],[18.8,36084],[18.8,36167],[18.8,36251],[18.8,36334],[18.8,36417],[18.8,36501],[18.8,36584],[18.8,36667],[18.8,36751],[18.8,36834],[18.8,36917],[18.8,37001],[18.8,37084],[18.8,37167],[18.8,37251],[18.8,37334],[18.8,37417],[18.8,37501],[18.8,37584],[18.8,37667],[18.8,37751],[18.8,37834],[18.8,37917],[18.8,38001],[18.8,38084],[18.8,38167],[18.8,38251],[18.8,38334],[18.8,38417],[18.8,38501],[18.8,38584],[18.8,38667],[18.8,38751],[18.8,38834],[18.6,38917],[18.6,39001],[18.6,39084],[18.6,39168],[18.6,39251],[18.6,39334],[18.6,39417],[18.6,39501],[18.6,39584],[18.6,39667],[18.6,39751],[18.6,39834],[18.6,39917],[18.6,40001],[18.6,40084],[18.6,40167],[18.6,40251],[18.6,40334],[18.6,40417],[18.6,40501],[18.6,40584],[18.6,40667],[18.6,40751],[18.6,40834],[18.6,40918],[18.6,41001],[18.6,41084],[18.6,41167],[18.6,41251],[18.6,41334],[18.6,41417],[18.6,41501],[18.6,41584],[18.6,41668],[18.6,41751],[18.6,41834],[18.6,41917],[18.6,42001],[18.6,42084],[18.6,42168],[18.6,42251],[18.6,42334],[18.6,42418],[18.6,42501],[18.6,42584],[18.6,42667],[18.6,42751],[18.6,42834],[18.6,42917],[18.6,43001],[18.6,43084],[18.6,43168],[18.6,43251],[18.6,43334],[18.6,43417],[18.6,43501],[18.6,43584],[18.6,43667],[18.6,43751],[18.6,43834],[18.6,43917],[18.6,44001],[18.6,44084],[18.6,44167],[18.4,44251],[18,44334],[17.7,44418],[17.7,44501],[17.3,44584],[17.2,44668],[17.2,44751],[17.2,44834],[17.2,44918],[17.2,45001],[17.2,45084],[17.2,45168],[17.2,45251],[17.2,45334],[17.2,45418],[17.2,45501],[17.2,45584],[17.2,45668],[17.2,45751],[17.2,45834],[17.2,45918],[17.2,46001],[17.2,46084],[17.2,46168],[17.2,46251],[17.2,46334],[17.2,46418],[17.2,46501],[17.2,46584],[17.2,46668],[17.2,46751],[17.2,46834],[17.2,46918],[17.2,47001],[17.2,47084],[17.2,47168],[17.2,47251],[17.2,47334],[17.2,47418],[17.2,47501],[17.2,47584],[17.2,47668],[17.2,47751],[17.2,47835],[17.2,47918],[17.2,48001],[17.2,48084],[17.2,48168],[17.2,48251],[17.2,48334],[17.2,48418],[17.2,48501],[17.2,48585],[17.2,48668],[17.2,48751],[17.2,48836],[17.2,48918],[17.2,49001],[17.2,49084],[17.2,49168],[17.2,49251],[17.2,49334],[17.2,49418],[17.2,49501],[17.3,49584],[18.1,49668],[18.4,49751],[19.7,49835],[19.8,49918],[19.8,50001],[21.6,50085],[27,50168],[30.5,50252],[36.7,50335],[42.5,50418],[50,50501],[56.4,50585],[59.2,50668],[60.5,50751],[62.3,50835],[62.8,50918],[63.9,51001],[64.2,51084],[64.7,51168],[65.2,51251],[65.2,51334],[65.3,51418],[65.6,51501],[65.8,51585],[65.8,51668],[65.8,51751],[65.8,51834],[65.8,51918],[65.8,52001],[65.8,52085],[65.8,52168],[65.8,52251],[65.8,52334],[65.8,52418],[65.8,52501],[65.8,52584],[65.8,52668],[65.8,52751],[65.8,52834],[65.8,52918],[65.8,53001],[65.9,53085],[66.6,53168],[67.3,53251],[67.5,53335],[68.1,53418],[69.4,53501],[69.8,53584],[69.8,53668],[70,53751],[73.3,53835],[75.5,53918],[76.4,54001],[76.4,54084],[76.7,54168],[76.9,54251],[77.2,54335],[77.8,54418],[78.1,54501],[78.8,54585],[79.5,54668],[79.5,54751],[79.5,54834],[79.5,54918],[79.5,55001],[79.5,55085],[79.5,55168],[79.5,55251],[79.5,55335],[79.5,55418],[79.5,55501],[79.5,55585],[79.5,55668],[79.5,55751],[79.5,55834]]",1,0,415.0603,420.4937,81.25,3.819,"[{""rating"":81.25,""responseTime"":3.81899999999996}]",space,4.909,,420.4937,Not at all,0,420.4958,,,[],,,,0,10,10,10,1,audio/Narrative8Situation1.wav,audio/Narrative7Situation1.wav,audio/Narrative6Situation1.wav,audio/Narrative5Situation1.wav,5,2,2,5,,,,,,,,,,,,,,,,,,,,,,,,,,,,,,,,,,,,,
,,,,,,5be94f66a169160001dafb9d,2024-02-08_13h22.01.547,group3.1-3.2-social-tom,2023.2.2,Win32,60.60606061,65c5074098b851296ff0b7ed,65c51602e9486207c648d17f,,,,,,,,,,,,,,,,,,,,,,,,,,,,,420.496,1,audio/Narrative7Situation2.wav,423.5104,,423.5105,430.9939,"[[999,7],[999,83],[999,166],[999,250],[999,333],[999,416],[999,499],[999,583],[999,666],[999,750],[999,834],[999,916],[999,1000],[999,1083],[999,1167],[999,1250],[999,1334],[999,1416],[999,1500],[51.7,1583],[50.6,1666],[49.4,1750],[50.5,1834],[50.5,1916],[50.5,1999],[50.5,2083],[50.5,2166],[50.5,2249],[50.5,2333],[50.5,2416],[50.5,2500],[50.5,2583],[50.5,2666],[49.4,2750],[48.8,2833],[47.8,2916],[47.8,3000],[47.8,3083],[47.8,3166],[47.8,3250],[47.8,3333],[47.8,3416],[47.8,3500],[47.8,3583],[46.6,3666],[46.3,3750],[45.9,3833],[45.5,3916],[44.7,4000],[42.7,4083],[41.1,4166],[47.7,4833],[48.9,4916],[50.2,5000],[51.1,5083],[54.4,5166],[56.1,5250],[61.3,5333],[64.7,5416],[65.2,5500],[67.5,5583],[70.8,5666],[73.8,5750],[78.3,5833],[80.5,5917],[80.8,6000],[80.8,6083],[80.8,6166],[80.8,6250],[80.8,6333],[80.8,6416],[80.8,6500],[80.8,6583],[80.8,6666],[80.8,6750],[80.8,6833],[80.8,6916],[80.8,7000],[80.8,7083],[80.8,7166],[80.8,7250],[80.8,7333],[80.8,7416]]",1,0,430.994,435.044,83.59375,2.7921,"[{""rating"":83.59375,""responseTime"":2.792100000023993}]",space,3.5207,,435.044,Not at all,0,435.0451,,,[],,,,0,11,11,11,1,audio/Narrative8Situation2.wav,audio/Narrative7Situation2.wav,audio/Narrative6Situation2.wav,audio/Narrative5Situation2.wav,3,3,3,3,,,,,,,,,,,,,,,,,,,,,,,,,,,,,,,,,,,,,
,,,,,,5be94f66a169160001dafb9d,2024-02-08_13h22.01.547,group3.1-3.2-social-tom,2023.2.2,Win32,60.60606061,65c5074098b851296ff0b7ed,65c51602e9486207c648d17f,,,,,,,,,,,,,,,,,,,,,,,,,,,,,435.0452,1,audio/Narrative7Situation3.wav,443.0611,,443.0612,452.3287,"[[999,7],[999,83],[999,166],[999,250],[999,332],[999,416],[999,499],[999,583],[999,666],[999,749],[999,833],[999,916],[999,999],[999,1083],[999,1166],[999,1249],[999,1333],[999,1416],[999,1499],[999,1583],[999,1666],[999,1749],[999,1833],[999,1916],[999,2000],[999,2083],[999,2167],[999,2249],[999,2333],[999,2416],[999,2499],[999,2583],[999,2666],[39.2,2749],[42.2,2833],[42.2,2917],[42.2,2999],[41.6,3083],[43.3,3166],[47.5,3250],[48.9,3333],[49.2,3416],[49.2,3499],[49.2,3583],[47.2,3666],[38.1,3750],[31.7,3833],[28.8,3916],[26.3,4000],[25.2,4083],[25,4166],[25,4249],[24.8,4333],[24.8,4416],[24.8,4499],[24.8,4583],[24.8,4666],[24.8,4749],[24.8,4833],[24.8,4916],[24.8,5000],[24.8,5083],[24.8,5166],[24.8,5250],[24.8,5333],[24.8,5416],[24.8,5499],[24.8,5583],[24.8,5666],[24.7,5749],[24.7,5833],[24.7,5916],[24.7,6000],[24.7,6083],[24.7,6166],[24.7,6250],[24.7,6333],[24.7,6416],[24.7,6499],[24.7,6583],[23.9,6666],[23.8,6750],[23.6,6833],[23.4,6916],[23.4,6999],[23.1,7083],[22.7,7166],[22.5,7249],[22.5,7333],[22.3,7416],[22.2,7500],[22,7583],[22,7666],[22,7750],[22,7833],[22,7916],[22,8000],[22,8083],[22,8166],[22,8250],[22,8333],[22,8416],[22,8500],[22,8583],[22,8666],[22,8750],[22,8833],[22,8916],[22,9000],[21.9,9083],[21.3,9167],[19.4,9250]]",1,0,452.3287,454.4779,13.28125,1.3124,"[{""rating"":13.437500000000002,""responseTime"":0.9636000000236891},{""rating"":13.28125,""responseTime"":1.3123999999761509}]",space,1.6128,,454.478,Partially,50,454.4799,,,[],,,,0,12,12,12,1,audio/Narrative8Situation3.wav,audio/Narrative7Situation3.wav,audio/Narrative6Situation3.wav,audio/Narrative5Situation3.wav,4,8,5,3,,,,,,,,,,,,,,,,,,,,,,,,,,,,,,,,,,,,,
,,,,,,5be94f66a169160001dafb9d,2024-02-08_13h22.01.547,group3.1-3.2-social-tom,2023.2.2,Win32,60.60606061,65c5074098b851296ff0b7ed,65c51602e9486207c648d17f,,,,,,,,,,,,,,,,,,,,,,,,,,,,,454.48,1,audio/Narrative7Situation4.wav,457.4947,,457.4949,469.2287,"[[999,6],[999,83],[999,166],[999,249],[999,333],[999,416],[999,499],[999,583],[999,666],[999,750],[999,833],[999,916],[999,1000],[999,1083],[999,1166],[999,1249],[999,1333],[999,1416],[999,1499],[999,1583],[999,1666],[999,1749],[999,1833],[999,1916],[999,2000],[999,2083],[999,2166],[999,2249],[999,2333],[999,2416],[999,2499],[999,2583],[999,2666],[999,2749],[999,2833],[999,2916],[20.9,3000],[27.2,3500],[31.3,3583],[31.3,3666],[29.2,3750],[27.7,3833],[24.7,3916],[19.4,4000],[16.6,4083],[15.9,4166],[15.9,4249],[15.9,4333],[15.9,4416],[16.7,4833],[17.3,4916],[17.3,5000],[17.3,5083],[17.3,5166],[17.3,5250],[17.3,5333],[17.3,5416],[17.3,5499],[17.3,5583],[17.2,5666],[17.2,5750],[17.2,5833],[17.2,5916],[17,6000],[17,6083],[17,6166],[16.9,6250],[16.9,6333],[16.9,6416],[17.2,6500],[20,6583],[27.5,6667],[36.3,6750],[37.7,6833],[37.7,6916],[38.1,7000],[38.4,7083],[38.4,7166],[38.4,7250],[38.4,7333],[38.4,7416],[38.4,7500],[38.3,7583],[37.7,7667],[34.1,7750],[30.2,7833],[28,7916],[26.9,8000],[26.6,8083],[26.3,8166],[26.3,8250],[26.3,8333],[26.3,8416],[26.3,8500],[25.6,8583],[25.3,8666],[23.8,8750],[22,8833],[21.7,8916],[21.7,9000],[21.7,9083],[21.7,9166],[21.7,9250],[21.7,9333],[21.7,9416],[21.7,9500],[21.7,9583],[21.7,9666],[21.7,9750],[21.7,9833],[21.7,9916],[21.7,10000],[21.7,10084],[21.7,10166],[21.7,10250],[21.7,10333],[21.7,10416],[21.7,10500],[21.7,10583],[21.7,10666],[21.7,10750],[21.7,10833],[21.7,10916],[21.7,11000],[21.7,11083],[21.7,11166],[21.7,11250],[21.7,11333],[21.7,11416],[21.1,11500],[21.1,11583],[21.1,11666]]",1,0,469.2288,473.6453,3.75,3.479,"[{""rating"":16.875,""responseTime"":1.1369999999999436},{""rating"":8.437499999999998,""responseTime"":1.841899999976249},{""rating"":3.437499999999999,""responseTime"":3.2640000000001237},{""rating"":3.749999999999998,""responseTime"":3.479000000000042}]",space,3.8677,,473.6453,Partially,50,485.1291,49.6875,10.4021,"[{""rating"":49.375,""responseTime"":4.927299999952311},{""rating"":50.31250000000001,""responseTime"":6.095000000000027},{""rating"":48.90625,""responseTime"":6.453399999976227},{""rating"":49.6875,""responseTime"":8.919499999999971},{""rating"":49.6875,""responseTime"":10.049699999928407},{""rating"":49.6875,""responseTime"":10.402099999904522}]",space,10.9334,,0,13,13,13,1,audio/Narrative8Situation4.wav,audio/Narrative7Situation4.wav,audio/Narrative6Situation4.wav,audio/Narrative5Situation4.wav,3,3,2,1,,,,,,,,,,,,,,,,,,,,,,,,,,,,,,,,,,,,,
,,,,,,5be94f66a169160001dafb9d,2024-02-08_13h22.01.547,group3.1-3.2-social-tom,2023.2.2,Win32,60.60606061,65c5074098b851296ff0b7ed,65c51602e9486207c648d17f,,,,,,,,,,,,,,,,,,,,,,,,,,,,,485.1295,1,audio/Narrative7Situation5.wav,490.146,,490.146,498.6297,"[[999,6],[999,83],[999,166],[999,250],[999,333],[999,416],[999,499],[999,583],[999,666],[999,749],[999,833],[999,916],[999,999],[999,1083],[999,1166],[999,1249],[999,1333],[999,1416],[999,1499],[999,1583],[999,1666],[999,1749],[999,1833],[999,1916],[999,1999],[999,2083],[999,2166],[999,2249],[999,2333],[999,2416],[999,2499],[999,2583],[999,2666],[999,2749],[999,2833],[999,2916],[999,2999],[999,3083],[999,3166],[999,3249],[999,3333],[999,3416],[999,3499],[999,3583],[999,3666],[999,3749],[999,3833],[999,3917],[999,3999],[999,4083],[999,4166],[999,4249],[999,4333],[999,4416],[999,4500],[999,4583],[999,4666],[999,4749],[999,4833],[999,4916],[999,4999],[999,5083],[999,5166],[999,5250],[66.7,5333],[30.3,5583],[20.8,5666],[16.4,5750],[15.9,5833],[15.8,5916],[15.8,6000],[15.8,6083],[15.8,6166],[15.8,6250],[15.8,6333],[15.8,6416],[15.8,6499],[15.8,6583],[15.8,6666],[15.8,6750],[15.8,6833],[15.8,6916],[15.8,7000],[15.8,7083],[15.8,7166],[15.8,7249],[15.8,7333],[15.8,7416],[15.8,7500],[15.8,7583],[15.8,7666],[15.8,7750],[15.8,7833],[15.8,7916],[15.8,8000],[15.8,8083],[15.8,8166],[15.8,8250],[15.8,8333],[15.8,8416]]",1,0,498.6298,501.3462,7.5,0.9626,"[{""rating"":7.500000000000001,""responseTime"":0.9626000000237127}]",space,2.1757,,501.3463,Not at all,0,501.3487,,,[],,,,0,14,14,14,1,audio/Narrative8Situation5.wav,audio/Narrative7Situation5.wav,audio/Narrative6Situation5.wav,audio/Narrative5Situation5.wav,2,5,2,5,,,,,,,,,,,,,,,,,,,,,,,,,,,,,,,,,,,,,
,,,,,,5be94f66a169160001dafb9d,2024-02-08_13h22.01.547,group3.1-3.2-social-tom,2023.2.2,Win32,60.60606061,65c5074098b851296ff0b7ed,65c51602e9486207c648d17f,,,,,,,,,,,,,,,,,,,,,,,,,,,,,501.3488,1,audio/Narrative7Situation6.wav,504.3629,,504.3629,514.3465,"[[999,0],[999,83],[999,166],[999,250],[999,333],[999,416],[999,500],[999,583],[999,666],[999,750],[999,833],[999,916],[999,1000],[999,1083],[999,1166],[999,1250],[999,1333],[999,1416],[999,1500],[999,1583],[999,1666],[999,1750],[999,1833],[999,1916],[999,1999],[999,2083],[999,2166],[999,2249],[999,2333],[999,2416],[999,2500],[999,2583],[999,2666],[999,2750],[999,2833],[999,2916],[999,3000],[999,3083],[999,3166],[999,3250],[999,3333],[999,3416],[999,3500],[999,3583],[999,3666],[999,3750],[999,3833],[999,3916],[999,4000],[999,4083],[999,4166],[999,4250],[999,4333],[999,4416],[999,4500],[999,4583],[999,4666],[999,4750],[999,4833],[999,4916],[999,5000],[999,5083],[999,5166],[999,5250],[999,5333],[999,5416],[999,5500],[999,5583],[999,5666],[999,5750],[999,5833],[999,5917],[999,6000],[999,6083],[999,6166],[999,6250],[999,6333],[999,6416],[999,6500],[999,6583],[999,6666],[999,6750],[999,6833],[999,6917],[999,7000],[999,7083],[999,7166],[999,7250],[999,7333],[999,7416],[999,7500],[999,7583],[999,7667],[999,7750],[999,7833],[999,7916],[999,8000],[999,8083],[999,8166],[999,8250],[999,8333],[999,8417],[999,8500],[999,8583],[999,8666],[999,8750],[999,8833],[999,8916],[999,9000],[999,9083],[999,9167],[999,9250],[999,9333],[999,9417],[999,9500],[999,9583],[999,9666],[55.8,9750],[65,9833],[76.9,9917]]",1,0,514.3467,517.43,79.84375,1.2734,"[{""rating"":79.84375,""responseTime"":1.2733999999761636}]",space,2.5632,,517.4301,Definitely yes,100,517.432,,,[],,,,0,15,15,15,1,audio/Narrative8Situation6.wav,audio/Narrative7Situation6.wav,audio/Narrative6Situation6.wav,audio/Narrative5Situation6.wav,2,3,2,3,,,,,,,,,,,,,,,,,,,,,,,,,,,,,,,,,,,,,
,,,,,,5be94f66a169160001dafb9d,2024-02-08_13h22.01.547,group3.1-3.2-social-tom,2023.2.2,Win32,60.60606061,65c5074098b851296ff0b7ed,65c51602e9486207c648d17f,,,,,,,,,,,,,,,,,,,,,,,,,,,,,517.4321,1,audio/Narrative7Situation7.wav,522.4469,,522.4469,539.6311,"[[999,6],[999,83],[999,166],[999,249],[999,333],[999,416],[999,500],[999,583],[999,666],[999,750],[999,833],[999,916],[999,1000],[999,1083],[999,1166],[999,1250],[999,1333],[999,1416],[999,1499],[999,1583],[999,1666],[999,1749],[999,1833],[999,1916],[999,2000],[999,2083],[999,2166],[999,2249],[999,2333],[999,2416],[999,2499],[999,2583],[999,2666],[999,2749],[999,2833],[999,2916],[999,2999],[999,3083],[999,3166],[999,3249],[999,3333],[38.4,3417],[28,3500],[17.8,3917],[17.7,4000],[26.9,4417],[26.4,4500],[25.6,4583],[25,4666],[24.2,4750],[22.7,4833],[21.9,4917],[21.7,5000],[21.3,5083],[21.3,5172],[21.3,5250],[21.3,5333],[21.1,5416],[20.9,5500],[20.9,5583],[20.6,5666],[20.6,5750],[20.6,5833],[20.6,5916],[20.6,6000],[20.6,6083],[20.6,6166],[20.6,6250],[20.6,6333],[20.6,6416],[20.6,6500],[20.6,6583],[20.6,6667],[20.6,6750],[20.6,6833],[20.5,6916],[20.2,7000],[20.2,7083],[20.2,7167],[20.2,7250],[20.2,7333],[20.2,7416],[20.2,7500],[20.2,7583],[20.2,7667],[20.2,7750],[20.2,7833],[20.2,7916],[20.2,8000],[20.2,8084],[20.2,8167],[20.2,8250],[20.2,8333],[20.2,8416],[20.2,8500],[20.2,8583],[20.2,8666],[20.2,8750],[20.2,8833],[20.2,8916],[20.2,9000],[20.2,9083],[20.2,9166],[20.2,9250],[20.2,9333],[20.2,9416],[20.2,9500],[20.2,9583],[20.2,9670],[20.2,9750],[20.2,9833],[20.2,9916],[20.2,10000],[20.2,10083],[20.2,10166],[20.2,10250],[20.2,10333],[20.2,10416],[20.2,10500],[20.2,10583],[20.2,10666],[20.2,10750],[20.2,10833],[20.2,10916],[20.2,11000],[20.2,11083],[20.2,11166],[20.2,11250],[20.2,11333],[20.2,11416],[20.2,11500],[20.2,11583],[20.2,11666],[20.2,11750],[20.2,11833],[20.2,11916],[20.2,12000],[20.2,12084],[20.2,12167],[20.2,12250],[20.2,12333],[20.2,12416],[20.2,12500],[20.2,12583],[20.2,12666],[20.2,12750],[20.2,12834],[20.2,12916],[20.2,13000],[20.2,13084],[20.2,13166],[20.2,13250],[20.2,13333],[20.2,13416],[20.2,13500],[20.2,13583],[20.2,13666],[20.2,13750],[20.2,13833],[20.2,13916],[20.2,14000],[20.2,14083],[20,14167],[19.7,14250],[19.7,14333],[19.7,14416],[19.7,14500],[19.7,14583],[19.7,14666],[19.7,14750],[19.7,14833],[19.7,14916],[19.7,15000],[19.5,15083],[19.4,15166],[19.4,15250],[19.4,15333],[19.4,15416],[19.4,15500],[19.4,15583],[19.4,15666],[19.4,15750],[19.4,15833],[19.4,15916],[19.4,16000],[19.4,16084],[19.4,16168],[19.4,16250],[19.4,16333],[19.4,16417],[19.4,16500],[19.4,16584],[19.4,16666],[19.4,16750],[19.4,16833],[19.4,16917],[19.2,17000],[18.3,17083],[18.1,17166]]",1,0,539.6313,550.1144,61.25,9.3463,"[{""rating"":62.81250000000001,""responseTime"":5.465199999928473},{""rating"":62.81250000000001,""responseTime"":5.846199999928331},{""rating"":61.25000000000001,""responseTime"":9.34629999995218}]",space,9.9397,,550.1145,Partially,50,550.1163,,,[],,,,0,16,16,16,1,audio/Narrative8Situation7.wav,audio/Narrative7Situation7.wav,audio/Narrative6Situation7.wav,audio/Narrative5Situation7.wav,3,5,5,4,,,,,,,,,,,,,,,,,,,,,,,,,,,,,,,,,,,,,
,,,,,,5be94f66a169160001dafb9d,2024-02-08_13h22.01.547,group3.1-3.2-social-tom,2023.2.2,Win32,60.60606061,65c5074098b851296ff0b7ed,65c51602e9486207c648d17f,,,,,,,,,,,,,,,,,,,,,,,,,,,,,550.1164,1,audio/Narrative7Situation8.wav,552.1311,,552.1312,562.165,"[[999,0],[999,83],[999,166],[999,249],[999,333],[999,416],[999,499],[999,583],[999,666],[999,750],[999,833],[999,916],[999,999],[999,1083],[999,1166],[999,1250],[999,1333],[999,1416],[999,1499],[999,1583],[999,1666],[999,1749],[999,1833],[999,1916],[999,1999],[999,2083],[999,2166],[999,2250],[999,2333],[999,2416],[999,2500],[999,2583],[999,2666],[999,2750],[999,2833],[999,2916],[999,3000],[999,3083],[999,3166],[999,3250],[999,3333],[999,3416],[999,3500],[999,3583],[999,3666],[999,3750],[999,3833],[999,3916],[999,4000],[999,4083],[999,4166],[999,4250],[999,4333],[999,4416],[999,4499],[999,4583],[999,4666],[999,4749],[999,4833],[999,4916],[999,5000],[999,5083],[999,5166],[999,5250],[999,5333],[999,5416],[999,5500],[999,5583],[999,5666],[999,5750],[999,5833],[999,5916],[999,6000],[999,6083],[999,6166],[999,6250],[999,6333],[999,6416],[999,6500],[999,6583],[23.9,6667],[22.2,6750],[22.2,6833],[22.2,6916],[22.2,7000],[22.2,7083],[22.2,7166],[22.2,7250],[22.2,7333],[22.2,7416],[22.2,7500],[22.2,7583],[22.2,7666],[22.2,7750],[22.2,7833],[22.2,7916],[22.2,8000],[36.6,8083],[68.1,8166],[72.5,8250],[79.7,8333],[81.9,8416],[81.9,8500],[81.9,8583],[81.9,8666],[81.9,8750],[81.9,8833],[81.9,8916],[81.9,9000],[81.9,9083],[81.6,9166],[81.1,9250],[81.1,9333],[81.1,9416],[81.1,9500],[81.1,9583],[81.1,9666],[81.1,9750],[81.1,9833],[81.1,9916],[81.1,10000]]",1,0,562.1651,564.9816,89.375,1.8891,"[{""rating"":88.125,""responseTime"":1.4393999999761036},{""rating"":89.375,""responseTime"":1.8891000000239728}]",space,2.2679,,564.9816,Partially,50,564.9833,,,[],,,,0,17,17,17,1,audio/Narrative8Situation8.wav,audio/Narrative7Situation8.wav,audio/Narrative6Situation8.wav,audio/Narrative5Situation8.wav,3,2,5,3,,,,,,,,,,,,,,,,,,,,,,,,,,,,,,,,,,,,,
,,,,,,5be94f66a169160001dafb9d,2024-02-08_13h22.01.547,group3.1-3.2-social-tom,2023.2.2,Win32,60.60606061,65c5074098b851296ff0b7ed,65c51602e9486207c648d17f,,,,,,,,,,,,,,,,,,,,,,,,,,,,,564.9835,1,audio/Narrative7Situation9.wav,566.9983,,566.9983,575.6325,"[[999,0],[999,83],[999,166],[999,249],[999,333],[999,416],[999,499],[999,583],[999,666],[999,750],[999,833],[999,916],[999,999],[999,1083],[999,1166],[999,1250],[999,1333],[999,1416],[999,1499],[999,1583],[999,1666],[999,1750],[999,1833],[999,1916],[999,2000],[999,2085],[999,2166],[999,2250],[999,2333],[999,2416],[999,2500],[999,2583],[999,2666],[999,2750],[999,2833],[999,2916],[999,3000],[999,3083],[999,3166],[999,3250],[999,3333],[999,3416],[999,3500],[999,3583],[999,3666],[999,3750],[999,3833],[999,3916],[999,4000],[999,4083],[999,4166],[999,4250],[999,4334],[999,4416],[999,4500],[999,4583],[999,4666],[999,4750],[999,4833],[999,4916],[999,5000],[999,5083],[48.9,5167],[46.7,5250],[45.6,5333],[45.6,5416],[45.6,5500],[46.1,5583],[48.9,5666],[49.7,5750],[49.8,5833],[49.8,5916],[49.8,6000],[49.8,6083],[49.7,6166],[49.5,6250],[49.5,6333],[49.5,6416],[49.4,6500],[49.4,6583],[49.4,6666],[49.4,6750],[49.4,6833],[49.4,6916],[49.4,7000],[49.4,7083],[49.4,7166],[49.4,7250],[49.4,7333],[49.4,7416],[49.4,7500],[49.4,7583],[49.4,7666],[49.4,7750],[49.4,7833],[50.2,7916],[64.1,8000],[75.3,8083],[83.8,8166],[87.5,8250],[88.9,8333],[89.4,8417],[91.3,8500],[93.4,8583]]",1,0,575.6326,577.8153,92.96875,1.028,"[{""rating"":94.53125,""responseTime"":0.5469000000955475},{""rating"":92.96875,""responseTime"":1.02800000000002}]",space,1.6433,,577.8153,Not at all,0,577.8173,,,[],,,,0,18,18,18,1,audio/Narrative8Situation9.wav,audio/Narrative7Situation9.wav,audio/Narrative6Situation9.wav,audio/Narrative5Situation9.wav,3,2,4,3,,,,,,,,,,,,,,,,,,,,,,,,,,,,,,,,,,,,,
,,,,,,5be94f66a169160001dafb9d,2024-02-08_13h22.01.547,group3.1-3.2-social-tom,2023.2.2,Win32,60.60606061,65c5074098b851296ff0b7ed,65c51602e9486207c648d17f,,,,,,,,,,,,,,,,,,,,,,,,,,,637.8249,640.4014,640.4093,2,audio/Narrative13Situation2.wav,640.4095,,640.4095,670.1687,"[[999,0],[999,74],[999,157],[999,242],[999,324],[999,407],[999,492],[999,574],[999,657],[999,741],[999,824],[999,908],[999,991],[999,1075],[999,1158],[999,1241],[999,1324],[999,1407],[999,1491],[999,1574],[999,1657],[999,1741],[999,1824],[999,1907],[999,1992],[999,2074],[999,2157],[999,2242],[999,2325],[999,2407],[999,2492],[999,2575],[999,2659],[999,2741],[999,2825],[999,2909],[999,2991],[999,3074],[999,3157],[999,3241],[999,3324],[999,3407],[999,3491],[999,3575],[999,3659],[999,3741],[999,3824],[999,3907],[999,3991],[999,4075],[999,4157],[999,4241],[999,4324],[999,4409],[999,4491],[999,4574],[999,4657],[999,4742],[999,4824],[999,4909],[999,4991],[999,5074],[999,5159],[999,5241],[999,5325],[999,5407],[999,5491],[999,5575],[999,5657],[999,5741],[999,5824],[999,5907],[999,5991],[999,6074],[999,6158],[999,6242],[62.5,6332],[20.5,6909],[20.2,6991],[20.2,7074],[20.8,7159],[21.4,7241],[21.4,7326],[21.4,7409],[21.4,7491],[21.4,7574],[21.4,7659],[21.4,7741],[21.4,7825],[21.9,7908],[83.6,9158],[83.6,9242],[84.5,9326],[86.3,9409],[86.3,9491],[87.3,9574],[90,9659],[90.3,9742],[90.5,9824],[90.6,9908],[91.9,9992],[92.3,10074],[93.3,10159],[94.8,10242],[96.1,10325],[96.1,10409],[96.1,10491],[95.3,10576],[91.6,10659],[90.8,10743],[90.8,10824],[90.8,10908],[90.8,10992],[90.8,11074],[90.8,11158],[90.8,11241],[90.8,11325],[90.8,11408],[90.8,11491],[90.8,11574],[90.8,11658],[90.8,11742],[90.8,11825],[90.8,11908],[90.8,11991],[90.8,12076],[90.8,12158],[90.8,12242],[90.8,12325],[90.8,12408],[90.8,12491],[90.8,12575],[90.8,12658],[90.8,12741],[90.8,12824],[90.8,12909],[90.8,12992],[90.8,13074],[90.8,13158],[90.8,13241],[90.8,13325],[90.8,13409],[90.8,13492],[90.8,13576],[90.8,13658],[90.8,13741],[90.8,13824],[90.8,13909],[90.8,13992],[90.8,14074],[90.8,14159],[90.8,14242],[90.8,14324],[90.8,14409],[90.8,14491],[90.8,14574],[90.8,14659],[90.8,14742],[90.8,14824],[90.8,14909],[90.8,14991],[90.8,15075],[90.8,15158],[90.8,15241],[90.8,15326],[90.8,15409],[90.8,15491],[90.6,15576],[90.3,15658],[90.2,15741],[89.5,15826],[88.6,15909],[88.4,15991],[88.1,16076],[88,16158],[87.8,16241],[87.8,16326],[87.8,16408],[87.8,16491],[87.3,16576],[86.1,16660],[84.7,16742],[83.3,16825],[82.2,16909],[80.9,16992],[80.2,17076],[79.7,17159],[78.3,17243],[74.4,17326],[69.2,17409],[66.3,17493],[62.7,17576],[58.8,17659],[58,17742],[57.8,17824],[56.6,17909],[55.6,17993],[55,18076],[54.4,18158],[54.2,18241],[53.6,18324],[52.8,18409],[52.3,18492],[51.7,18576],[51.6,18659],[51.1,18742],[50.9,18826],[50.9,18908],[50.8,18991],[50.8,19074],[50.8,19159],[50.8,19241],[50.8,19326],[50.8,19408],[50.8,19491],[50.6,19575],[50.6,19658],[50.6,19742],[50.6,19826],[50.6,19908],[50.6,19993],[50.6,20074],[50.6,20158],[50.6,20241],[50.6,20325],[50.6,20408],[50.6,20491],[50.6,20576],[50.6,20658],[50.6,20742],[50.6,20826],[50.6,20909],[50.6,20991],[50.6,21075],[50.6,21159],[50.6,21242],[50.6,21326],[50.6,21408],[50.6,21491],[50.6,21575],[50.6,21658],[50.6,21741],[50.6,21826],[50.6,21909],[50.6,21991],[50.6,22076],[50.6,22158],[50.6,22242],[50.6,22325],[50.6,22408],[50.6,22493],[50.6,22576],[50.6,22658],[50.6,22741],[50.6,22826],[50.6,22908],[50.6,22991],[50.6,23075],[50.6,23159],[50.6,23241],[50.6,23326],[50.6,23408],[50.6,23491],[50.6,23575],[50.6,23658],[50.6,23741],[50.6,23826],[50.6,23908],[50.6,23992],[50.6,24075],[50.6,24159],[50.6,24242],[50.6,24325],[50.6,24409],[50.6,24493],[50.6,24575],[50.6,24658],[50.6,24741],[50.6,24825],[50.6,24908],[50.6,24992],[50.6,25075],[50.6,25158],[50.6,25241],[50.6,25325],[50.6,25408],[50.6,25491],[50.6,25576],[50.6,25658],[50.6,25741],[50,25826],[49.5,25909],[49.4,25992],[49.4,26075],[49.1,26158],[48.8,26243],[48.6,26326],[48.4,26408],[48.4,26492],[48.4,26575],[48.4,26658],[48.4,26743],[48.4,26825],[48.4,26908],[48.4,26992],[48.4,27075],[48.4,27158],[48.4,27243],[48.4,27325],[48.4,27408],[48.4,27493],[48,27576],[47.7,27659],[47.5,27741],[47.5,27826],[47.2,27909],[46.7,27993],[46.7,28075],[46.4,28158],[46.1,28243],[45.9,28326],[45.9,28409],[45.9,28491],[45.9,28576],[45.9,28659],[45.6,28741],[45.6,28825],[45.6,28908],[45.6,28991],[45.6,29076],[45.6,29158],[45.6,29242],[45.6,29326],[45.6,29409],[45.6,29491],[45.6,29576],[45.6,29658],[45.6,29741]]",1,0,670.1689,670.1703,,,[],,,,670.1703,Not at all,0,670.1711,,,[],,,,0,0,0,0,1,audio/Narrative13Situation2.wav,audio/Narrative13Situation2.wav,audio/Narrative13Situation2.wav,audio/Narrative13Situation2.wav,2,2,2,2,,,577.8179,637.818,,,,,,,,,,,,,,,,,,,,,,,,,,,,,,,,,
,,,,,,5be94f66a169160001dafb9d,2024-02-08_13h22.01.547,group3.1-3.2-social-tom,2023.2.2,Win32,60.60606061,65c5074098b851296ff0b7ed,65c51602e9486207c648d17f,,,,,,,,,,,,,,,,,,,,,,,,,,,,,670.1712,2,audio/Narrative6Situation1.wav,672.1851,,672.1853,698.7706,"[[50.2,917],[50,999],[50,1083],[50,1167],[50,1249],[50,1333],[50,1416],[50,1501],[50,1584],[50,1666],[50,1749],[50,1833],[50,1916],[50,1999],[50,2083],[50,2167],[50,2251],[50,2333],[50,2416],[50,2500],[50,2583],[50,2666],[50,2749],[50,2833],[50,2916],[50,3000],[50,3083],[50,3166],[50,3249],[50,3333],[50,3416],[50,3501],[50,3583],[47,3668],[43.3,3751],[38,3834],[30,3918],[23.6,4001],[22.8,4083],[20.3,4168],[17,4251],[15.3,4334],[14.5,4417],[14.4,4501],[14.4,4583],[14.4,4666],[14.4,4750],[14.2,4834],[14.2,4916],[14.2,5001],[14.2,5083],[14.2,5167],[14.2,5249],[28,5334],[39.2,5418],[75,5668],[76.9,5749],[76.9,5833],[76.3,5918],[75.9,6001],[75.8,6083],[75.6,6166],[75.6,6249],[75.5,6333],[75.5,6416],[75.5,6499],[75.5,6583],[75.5,6666],[75.5,6749],[83.6,11335],[73.4,11918],[71.7,12000],[69.7,12085],[68.4,12167],[67.7,12251],[65.6,12335],[62.2,12418],[61.9,12500],[60.6,12585],[59.1,12668],[57.8,12751],[57.7,12833],[57.3,12917],[56.7,13000],[56.7,13085],[56.7,13167],[56.7,13251],[56.7,13334],[56.7,13416],[56.7,13499],[56.1,13585],[55.8,13666],[55.8,13750],[55.5,13834],[54.7,13916],[54.5,14000],[54.5,14083],[54.1,14168],[53.3,14250],[53.1,14333],[52.5,14416],[52.2,14501],[51.7,14583],[51.4,14667],[51.3,14750],[51.3,14833],[51.3,14916],[50.8,15001],[50.6,15083],[50.6,15167],[50.6,15250],[50.6,15333],[50.6,15416],[50.2,15501],[50.2,15584],[50.2,15666],[50.2,15751],[50.2,15833],[50.2,15916],[50.2,16000],[50.2,16083],[50.2,16166],[50.2,16251],[50.2,16334],[48.1,16418],[47.8,16500],[47.8,16583],[47.8,16666],[47.8,16750],[48.1,16834],[48.3,16917],[48.6,17000],[49.1,17083],[49.1,17166],[49.4,17250],[49.4,17333],[49.4,17416],[49.4,17500],[49.4,17583],[49.4,17666],[49.4,17751],[49.4,17833],[49.4,17916],[49.4,18001],[49.4,18083],[49.4,18166],[49.4,18250],[49.4,18334],[49.4,18417],[49.4,18501],[49.4,18584],[49.4,18666],[49.4,18750],[49.4,18833],[49.4,18918],[49.4,19000],[49.4,19083],[49.4,19166],[49.4,19251],[49.4,19334],[49.2,19418],[49.1,19500],[48.8,19583],[48.4,19668],[48.4,19750],[48.4,19834],[48.4,19918],[48.4,20001],[48.4,20084],[48.4,20168],[48.4,20251],[48.4,20333],[48.4,20416],[48.4,20500],[48.4,20584],[48.4,20666],[48.4,20750],[48.4,20833],[48.4,20916],[48.4,21000],[48.4,21083],[48.4,21168],[48.4,21250],[48.1,21335],[48.1,21416],[48.1,21500],[48.1,21583],[49.4,21668],[51.4,21751],[52.2,21835],[52.8,21916],[52.8,22001],[53,22085],[53.1,22168],[53.1,22250],[53.1,22335],[53.1,22418],[53.1,22501],[53.1,22585],[53.1,22668],[53.1,22750],[53.1,22833],[53.1,22917],[53,23000],[52.7,23083],[52.7,23167],[52.5,23250],[52.5,23333],[52.5,23417],[52.5,23500],[53.8,23585],[54.4,23668],[55.9,23751],[57.7,23835],[58.3,23917],[58.9,24000],[59.5,24083],[60.8,24168],[61.1,24250],[61.1,24333],[61.1,24418],[61.1,24500],[61.6,24584],[62.8,24668],[62.8,24750],[64.8,24835],[66.3,24918],[66.3,25001],[66.3,25083],[66.3,25167],[66.3,25251],[66.3,25333],[66.3,25417],[66.3,25500],[66.3,25583],[66.3,25667],[66.3,25751],[66.3,25835],[66.3,25917],[66.3,26000],[66.3,26083],[66.3,26167],[67,26252],[68.1,26333],[68.1,26417],[68.3,26501],[68.9,26585]]",1,0,698.7707,706.6374,75.15625,6.8561,"[{""rating"":66.40625,""responseTime"":4.749600000023747},{""rating"":75.15625,""responseTime"":6.856100000023616}]",space,7.3301,,706.6375,Not at all,0,706.6386,,,[],,,,0,1,1,1,1,audio/Narrative7Situation1.wav,audio/Narrative8Situation1.wav,audio/Narrative5Situation1.wav,audio/Narrative6Situation1.wav,2,5,5,2,,,,,,,,,,,,,,,,,,,,,,,,,,,,,,,,,,,,,
,,,,,,5be94f66a169160001dafb9d,2024-02-08_13h22.01.547,group3.1-3.2-social-tom,2023.2.2,Win32,60.60606061,65c5074098b851296ff0b7ed,65c51602e9486207c648d17f,,,,,,,,,,,,,,,,,,,,,,,,,,,,,706.6388,2,audio/Narrative6Situation2.wav,709.6527,,709.6528,738.1548,"[[999,0],[999,84],[999,166],[999,250],[999,333],[999,417],[999,500],[999,584],[999,667],[999,750],[999,833],[999,916],[999,1000],[999,1084],[999,1166],[999,1252],[999,1334],[999,1417],[999,1500],[999,1584],[999,1667],[999,1750],[999,1835],[999,1916],[999,2000],[999,2084],[999,2166],[999,2250],[999,2333],[999,2416],[999,2501],[999,2583],[999,2666],[999,2750],[999,2834],[999,2917],[999,3000],[999,3083],[999,3167],[999,3250],[999,3333],[999,3417],[999,3500],[999,3583],[999,3666],[999,3750],[999,3833],[999,3916],[999,4000],[999,4083],[999,4166],[999,4250],[999,4333],[999,4416],[999,4500],[999,4583],[999,4666],[999,4751],[999,4834],[999,4916],[999,5000],[999,5083],[999,5166],[999,5250],[999,5333],[999,5418],[999,5500],[999,5583],[999,5666],[999,5750],[999,5833],[999,5916],[999,6000],[999,6083],[999,6166],[999,6251],[999,6333],[999,6416],[999,6501],[999,6583],[999,6667],[999,6750],[999,6833],[999,6916],[999,7001],[999,7083],[999,7167],[999,7250],[999,7333],[999,7416],[999,7501],[999,7583],[999,7668],[999,7751],[999,7834],[70,7924],[68.6,8001],[69.1,8084],[69.5,8168],[69.5,8251],[69.5,8333],[69.5,8417],[70,8501],[70.5,8585],[70.8,8666],[71.3,8751],[72,8833],[74.3,8918],[74.7,9001],[75.1,9083],[75.2,9166],[75.4,9250],[75.4,9333],[75.4,9417],[75.4,9500],[75.4,9583],[75.4,9666],[75.4,9752],[75.4,9834],[75.4,9916],[75.4,10000],[75.4,10084],[75.4,10168],[75.4,10250],[75.4,10334],[75.4,10416],[75.4,10501],[75.4,10584],[75.4,10667],[75.4,10750],[75.4,10834],[75.4,10916],[75.4,11000],[75.4,11083],[75.4,11166],[75.4,11250],[72.9,11335],[68.9,11418],[66.5,11500],[66.5,11583],[66.5,11667],[66.5,11751],[48,11835],[27.2,12668],[26.5,12751],[23.1,12835],[21.6,12918],[21.6,13000],[21.6,13083],[21.6,13168],[21.6,13250],[21.6,13334],[21.6,13417],[21.6,13501],[21.6,13584],[21.6,13667],[21.6,13751],[21.6,13833],[21.6,13916],[21.6,14001],[21.6,14083],[21.6,14167],[21.6,14251],[21.6,14333],[21.6,14417],[21.6,14500],[21.6,14583],[21.6,14667],[21.6,14750],[21.6,14834],[21.6,14918],[21.6,15001],[21.6,15083],[21.6,15168],[21.6,15250],[21.6,15333],[21.6,15417],[21.6,15500],[21.6,15583],[21.6,15667],[21.6,15750],[21.6,15833],[21.6,15917],[21.6,16000],[21.6,16083],[21.6,16167],[21.6,16251],[21.6,16333],[21.6,16418],[21.6,16500],[21.6,16583],[21.6,16668],[21.6,16751],[21.6,16833],[21.6,16917],[21.6,17001],[21.6,17083],[21.6,17167],[21.6,17251],[21.6,17335],[21.6,17417],[21.6,17500],[21.6,17583],[21.6,17667],[21.6,17751],[21.6,17833],[21.6,17918],[21.6,18001],[21.6,18083],[34.5,18168],[63.5,19251],[63.5,19334],[62.4,19418],[61.8,19500],[62.5,19584],[63.2,19668],[63.2,19751],[63.4,19835],[63.6,19918],[64,20002],[64.1,20085],[64.1,20167],[64.1,20250],[64.1,20333],[64.1,20417],[65.8,20501],[66.6,20585],[66.8,20668],[66.9,20751],[67.5,20835],[68,20917],[68.1,21000],[68.3,21085],[68.5,21167],[68.6,21251],[69,21335],[69.2,21418],[69.4,21500],[69.6,21585],[70,21668],[70.2,21752],[70.6,21835],[71.1,21918],[71.1,22001],[71.3,22083],[71.3,22167],[71.3,22251],[71.3,22334],[71.3,22417],[71.3,22501],[71.3,22585],[71.3,22668],[71.3,22751],[71.3,22833],[71.3,22918],[71.3,23000],[71.3,23085],[71.3,23168],[71.3,23250],[71.3,23335],[71.3,23417],[71.3,23500],[71.3,23584],[71.3,23668],[71.3,23750],[71.3,23835],[71.3,23917],[71.3,24001],[71.3,24085],[71.3,24167],[71.3,24252],[71.3,24334],[71.3,24417],[71.3,24501],[71.3,24583],[71.3,24668],[71.3,24751],[71.3,24834],[71.3,24918],[71.3,25000],[71.3,25084],[71.3,25167],[71.3,25251],[71.3,25334],[71.3,25418],[71.5,25507],[71.6,25584],[71.6,25668],[71.6,25751],[71.6,25834],[71.8,25917],[71.8,26000],[71.8,26084],[71.8,26168],[71.9,26252],[72.1,26334],[72.1,26418],[72.1,26500],[72.1,26584],[72.1,26668],[72.1,26751],[72.1,26834],[72.1,26917],[72.2,27002],[72.2,27084],[72.2,27167],[72.2,27250],[72.3,27335],[72.3,27418],[72.7,27503],[72.8,27585],[72.8,27667],[73,27750],[73.2,27835],[73.4,27918],[73.6,28001],[73.6,28084],[73.8,28168],[73.8,28250],[73.8,28334],[73.8,28418],[73.8,28501]]",1,0,738.155,744.8885,50.78125,5.7832,"[{""rating"":50.78125,""responseTime"":4.673999999999978},{""rating"":50.78125,""responseTime"":5.7832000000476}]",space,6.1834,,744.8886,Not at all,0,744.8896,,,[],,,,0,2,2,2,1,audio/Narrative7Situation2.wav,audio/Narrative8Situation2.wav,audio/Narrative5Situation2.wav,audio/Narrative6Situation2.wav,3,3,3,3,,,,,,,,,,,,,,,,,,,,,,,,,,,,,,,,,,,,,
,,,,,,5be94f66a169160001dafb9d,2024-02-08_13h22.01.547,group3.1-3.2-social-tom,2023.2.2,Win32,60.60606061,65c5074098b851296ff0b7ed,65c51602e9486207c648d17f,,,,,,,,,,,,,,,,,,,,,,,,,,,,,744.8897,2,audio/Narrative6Situation3.wav,749.9055,,749.9055,762.5227,"[[999,6],[999,81],[999,165],[999,248],[999,331],[999,415],[999,498],[999,581],[999,665],[999,748],[999,831],[999,916],[999,998],[999,1081],[999,1165],[999,1249],[999,1332],[999,1415],[999,1498],[999,1581],[999,1665],[999,1748],[999,1832],[999,1915],[999,1998],[999,2081],[999,2165],[999,2248],[999,2331],[999,2416],[999,2498],[999,2583],[999,2665],[999,2749],[999,2831],[999,2915],[999,2999],[999,3082],[999,3165],[999,3248],[999,3333],[999,3415],[999,3498],[999,3581],[999,3665],[999,3748],[999,3832],[999,3915],[999,3998],[999,4081],[999,4166],[999,4248],[999,4331],[999,4415],[999,4498],[999,4583],[999,4665],[999,4750],[999,4832],[999,4916],[999,4998],[999,5081],[999,5166],[999,5248],[999,5331],[999,5415],[999,5499],[999,5582],[999,5665],[999,5748],[999,5831],[999,5916],[999,5998],[999,6082],[999,6165],[999,6250],[999,6332],[999,6415],[999,6498],[999,6583],[999,6666],[999,6750],[999,6833],[62.4,6917],[56.7,7500],[58.6,7583],[61,7666],[62.9,7750],[67.9,7833],[71.7,7917],[73.1,8000],[73.6,8082],[73.6,8165],[73.6,8249],[73.6,8333],[73.6,8415],[73.6,8498],[73.6,8582],[73.6,8665],[74.2,8750],[74.6,8833],[74.8,8915],[75.3,8999],[75.7,9083],[75.9,9167],[76.1,9250],[76.4,9332],[76.4,9415],[76.6,9498],[76.8,9582],[76.8,9665],[76.8,9748],[76.8,9833],[76.8,9915],[77.3,9999],[77.5,10083],[77.5,10165],[77.5,10250],[77.5,10332],[77.5,10417],[77.5,10498],[77.5,10582],[77.5,10665],[77.5,10750],[77.5,10833],[77.5,10915],[77.5,10998],[77.5,11082],[77.5,11165],[77.5,11248],[77.5,11332],[77.5,11415],[77.5,11499],[77.5,11583],[77.5,11665],[77.5,11748],[77.5,11832],[77.5,11916],[77.5,12000],[77.5,12082],[77.5,12166],[77.5,12250],[77.5,12333],[77.5,12415],[77.5,12499],[78,12582]]",1,0,762.5228,766.1551,92.8125,3.3482,"[{""rating"":79.6875,""responseTime"":1.7328999999763255},{""rating"":92.8125,""responseTime"":3.3482000000476546}]",space,3.0893,,766.1551,Not at all,0,766.1565,,,[],,,,0,3,3,3,1,audio/Narrative7Situation3.wav,audio/Narrative8Situation3.wav,audio/Narrative5Situation3.wav,audio/Narrative6Situation3.wav,8,4,3,5,,,,,,,,,,,,,,,,,,,,,,,,,,,,,,,,,,,,,
,,,,,,5be94f66a169160001dafb9d,2024-02-08_13h22.01.547,group3.1-3.2-social-tom,2023.2.2,Win32,60.60606061,65c5074098b851296ff0b7ed,65c51602e9486207c648d17f,,,,,,,,,,,,,,,,,,,,,,,,,,,,,766.1568,2,audio/Narrative6Situation4.wav,768.1714,,768.1714,780.7897,"[[91.4,2335],[64.2,4168],[62.8,4251],[61.9,4334],[61.8,4416],[61.8,4501],[61.9,4584],[61.8,4668],[55.5,4751],[53.5,4834],[52.2,4918],[52,5001],[52,5084],[52,5166],[52,5251],[44.5,5335],[40.3,5417],[37.4,5501],[35.9,5584],[33.8,5668],[30.2,5751],[29.2,5834],[27,5918],[24.5,6001],[22.2,6085],[20.6,6168],[20.2,6250],[20,6333],[20,6418],[20,6500],[20,6583],[20,6666],[20,6751],[20,6833],[20,6916],[20,7000],[20,7083],[20,7166],[20,7251],[20,7333],[20,7416],[20,7500],[20,7583],[20,7666],[20,7750],[20,7834],[20,7917],[20,8001],[20,8084],[20,8167],[20,8250],[20,8334],[20,8418],[20,8500],[20,8583],[20,8666],[20,8751],[20,8834],[20,8917],[20,9000],[20,9083],[20,9166],[20,9250],[20,9333],[20,9417],[20,9500],[20,9584],[20,9666],[20,9750],[20,9834],[20,9917],[20,10000],[20,10083],[20,10166],[20,10250],[20,10333],[20,10416],[20,10500],[20,10583],[20,10666],[20,10750],[20,10833],[20,10916],[20,11001],[20,11083],[20,11167],[20,11251],[20,11333],[20,11417],[20,11501],[20,11583],[20.5,11668],[21.1,11751],[21.4,11835],[21.8,11917],[22,12001],[22.2,12084],[22.2,12166],[22.2,12250],[22.2,12333],[22.2,12416],[22.2,12500],[22.2,12584]]",1,0,780.7898,783.7553,9.375,2.8335,"[{""rating"":16.510419845581055,""responseTime"":1.4383999999763546},{""rating"":9.375,""responseTime"":2.8335000000001855}]",space,2.4204,,783.7554,Not at all,0,783.7567,,,[],,,,0,4,4,4,1,audio/Narrative7Situation4.wav,audio/Narrative8Situation4.wav,audio/Narrative5Situation4.wav,audio/Narrative6Situation4.wav,3,3,1,2,,,,,,,,,,,,,,,,,,,,,,,,,,,,,,,,,,,,,
,,,,,,5be94f66a169160001dafb9d,2024-02-08_13h22.01.547,group3.1-3.2-social-tom,2023.2.2,Win32,60.60606061,65c5074098b851296ff0b7ed,65c51602e9486207c648d17f,,,,,,,,,,,,,,,,,,,,,,,,,,,,,783.7569,2,audio/Narrative6Situation5.wav,785.7718,,785.7718,793.7389,"[[10.1,2085],[10.7,2168],[11.3,2251],[11.8,2334],[12.2,2418],[12.5,2500],[13,2584],[13.1,2666],[13.4,2751],[13.9,2834],[13.9,2916],[13.9,3001],[14.1,3083],[14.4,3167],[14.5,3251],[14.8,3333],[15,3416],[15.6,3501],[16.4,3584],[16.9,3668],[17.1,3750],[17.1,3833],[17.2,3918],[17.3,4000],[17.7,4084],[18,4168],[18.1,4251],[18.8,4334],[19.4,4418],[19.7,4501],[20.2,4585],[21.7,4669],[25.1,4751],[26.5,4835],[26.9,4918],[27.8,5001],[29.4,5085],[30.9,5168],[32.1,5251],[33.7,5335],[35.8,5418],[36.3,5500],[36.7,5585],[37,5668],[37.1,5751],[37.3,5833],[37.5,5918],[37.5,6000],[37.9,6083],[38,6166],[38,6251],[38.1,6335],[38.1,6418],[38.1,6500],[38.1,6584],[38.3,6667],[38.3,6750],[38.3,6833],[38.3,6918],[38.3,7000],[38.3,7085],[38.3,7166],[38.3,7250],[38.3,7333],[38.3,7417],[38.3,7500],[38.3,7583],[38.3,7666],[38.3,7751],[38.3,7834],[38.3,7916]]",1,0,793.7391,799.7069,15.10416985,5.3773,"[{""rating"":15.104169845581056,""responseTime"":5.3773000000715}]",space,5.401,,799.7069,Definitely yes,100,799.7084,,,[],,,,0,5,5,5,1,audio/Narrative7Situation5.wav,audio/Narrative8Situation5.wav,audio/Narrative5Situation5.wav,audio/Narrative6Situation5.wav,5,2,5,2,,,,,,,,,,,,,,,,,,,,,,,,,,,,,,,,,,,,,
,,,,,,5be94f66a169160001dafb9d,2024-02-08_13h22.01.547,group3.1-3.2-social-tom,2023.2.2,Win32,60.60606061,65c5074098b851296ff0b7ed,65c51602e9486207c648d17f,,,,,,,,,,,,,,,,,,,,,,,,,,,,,799.7085,2,audio/Narrative6Situation6.wav,801.7225,,801.7225,812.823,"[[999,0],[999,83],[999,166],[999,249],[999,334],[999,417],[999,501],[999,583],[999,666],[999,749],[999,833],[999,916],[999,1000],[999,1083],[999,1166],[999,1250],[999,1333],[999,1416],[999,1501],[999,1584],[999,1667],[999,1751],[999,1834],[999,1917],[999,1999],[999,2084],[999,2167],[999,2251],[999,2333],[999,2416],[999,2499],[999,2583],[999,2666],[999,2750],[999,2833],[999,2917],[999,3000],[24.9,3084],[21.9,3167],[21.6,3250],[21.2,3333],[20.7,3417],[19.6,3501],[18.9,3584],[18,3666],[17.1,3751],[16.3,3835],[15.9,3917],[15.9,4000],[15.4,4084],[14.8,4167],[14.3,4251],[13.5,4334],[12.9,4418],[12.7,4500],[12.6,4584],[12.6,4666],[12.6,4750],[12.6,4833],[12.6,4916],[12.6,5000],[12.6,5083],[12.6,5166],[12.6,5250],[12.6,5333],[12.6,5416],[12.6,5501],[12.6,5583],[12.6,5667],[12.6,5750],[12.4,5834],[12.4,5917],[12.3,6001],[12.3,6083],[12.3,6167],[12,6250],[12,6333],[11.7,6417],[11.7,6500],[11.7,6583],[11.6,6667],[11.5,6751],[11.5,6833],[11.4,6917],[11.2,7000],[10.8,7084],[10.7,7167],[10.7,7251],[10.6,7334],[10.4,7416],[10.4,7500],[10.4,7583],[10.4,7668],[10.4,7753],[10.4,7833],[10.4,7916],[10.4,8001],[10.4,8083],[10.4,8166],[10.4,8251],[10.4,8333],[10.4,8416],[11,8501],[11.4,8584],[11.9,8667],[12.1,8750],[12.1,8833],[12.1,8918],[12.1,9000],[12.1,9083],[12.1,9166],[12.1,9250],[12.1,9333],[12.1,9416],[12.1,9501],[12.1,9584],[12.1,9666],[12.1,9750],[12.1,9833],[12.1,9917],[12.1,10000],[12.1,10083],[12.1,10167],[12.1,10250],[12.1,10334],[12.1,10416],[12.1,10500],[12.1,10583],[12.1,10666],[12.1,10751],[12.1,10835],[12.1,10916],[12.1,11000],[12.1,11083]]",1,0,812.8231,819.7743,46.875,6.8507,"[{""rating"":37.70833969116211,""responseTime"":3.9540000000001783},{""rating"":46.875,""responseTime"":6.408100000023751},{""rating"":46.875,""responseTime"":6.850700000047709}]",space,6.403,,819.7743,Not at all,0,819.7759,,,[],,,,0,6,6,6,1,audio/Narrative7Situation6.wav,audio/Narrative8Situation6.wav,audio/Narrative5Situation6.wav,audio/Narrative6Situation6.wav,3,2,3,2,,,,,,,,,,,,,,,,,,,,,,,,,,,,,,,,,,,,,
,,,,,,5be94f66a169160001dafb9d,2024-02-08_13h22.01.547,group3.1-3.2-social-tom,2023.2.2,Win32,60.60606061,65c5074098b851296ff0b7ed,65c51602e9486207c648d17f,,,,,,,,,,,,,,,,,,,,,,,,,,,,,819.776,2,audio/Narrative6Situation7.wav,824.7899,,824.7899,849.642,"[[48.3,6001],[48.6,6084],[48.8,6167],[48.8,6250],[48.8,6334],[48.8,6416],[48.8,6501],[48.5,6585],[48.2,6668],[47.8,6751],[47.1,6833],[46.8,6918],[46.5,7001],[46.1,7084],[46,7166],[46,7251],[46,7333],[46,7417],[46,7500],[46,7583],[46,7666],[46,7750],[46,7833],[46,7916],[46,8001],[46,8083],[46,8167],[46,8251],[46,8333],[46,8416],[46,8500],[46,8583],[46,8666],[46,8750],[46,8833],[46,8917],[46,9001],[46,9083],[46,9166],[46,9250],[46,9334],[46,9416],[46,9501],[45.9,9584],[45.7,9666],[45.4,9751],[45.1,9833],[44.8,9918],[44.6,10001],[44.3,10085],[44.3,10167],[44.3,10250],[44.3,10333],[44.3,10416],[44.3,10501],[44.3,10583],[44.3,10666],[44.2,10751],[44,10834],[44,10916],[44,11001],[44,11084],[44,11168],[44,11251],[44,11334],[43.9,11418],[44.8,11501],[49.5,11585],[51.7,11668],[56.5,11751],[60.7,11835],[62.5,11918],[62.8,12001],[63.2,12085],[64.8,12168],[66.6,12251],[67.4,12335],[67.9,12418],[68.4,12501],[69.4,12585],[70,12668],[71,12751],[71.7,12834],[71.9,12916],[71.9,13001],[71.9,13085],[71.9,13166],[71.9,13250],[71.9,13335],[71.9,13416],[71.9,13500],[71.9,13584],[71.9,13667],[71.9,13750],[71.9,13833],[71.9,13918],[72.3,14001],[73,14086],[73.4,14168],[73.8,14250],[74.1,14334],[74.3,14418],[74.4,14500],[74.4,14584],[74.4,14668],[74.6,14750],[74.6,14835],[74.6,14916],[74.7,15000],[74.8,15084],[74.8,15166],[74.8,15251],[74.8,15333],[74.8,15418],[74.8,15500],[74.9,15585],[74.9,15667],[74.9,15750],[75.1,15833],[75.1,15918],[75.1,16000],[75.1,16083],[75.1,16168],[75.1,16250],[75.1,16336],[75.1,16417],[75.1,16501],[75.1,16583],[75.1,16668],[75.1,16750],[75.1,16835],[75.1,16918],[75.1,17000],[75.1,17084],[75.1,17167],[75.1,17250],[75.1,17334],[75.1,17417],[75.1,17501],[75.1,17584],[75.1,17668],[75.1,17751],[75.1,17835],[75.2,17918],[75.2,18001],[75.2,18085],[75.5,18167],[75.8,18251],[76.6,18335],[77.5,18418],[77.9,18501],[78,18585],[78.2,18668],[78.2,18751],[78.2,18833],[78.2,18917],[78.2,19001],[78.2,19085],[78.2,19167],[78.2,19250],[78.2,19333],[78.2,19417],[78.2,19501],[78.2,19583],[78.2,19668],[78.2,19750],[78.2,19834],[78.2,19917],[78.2,20001],[78.2,20083],[78.2,20168],[78.2,20251],[78.2,20335],[78.2,20418],[78.2,20501],[78.2,20583],[78.2,20668],[78.2,20751],[79.1,20835],[82.8,20918],[84.1,21002],[84.4,21084],[85,21168],[87.5,21252],[88.8,21335],[89.6,21418],[91.3,21502],[93.3,21585],[94.3,21668],[94.6,21750],[94.8,21835],[94.9,21917],[94.9,22002],[94.9,22085],[94.9,22168],[94.9,22250],[94.9,22335],[94.9,22417],[94.9,22500],[94.9,22585],[94.9,22668],[94.9,22751],[94.9,22835],[94.9,22917],[94.9,23001],[94.9,23084],[94.9,23168],[94.9,23251],[94.9,23334],[94.9,23417],[94.9,23501],[94.9,23584],[94.9,23668],[94.9,23751],[94.9,23834],[94.9,23917],[94.9,24002],[94.9,24084],[94.9,24167],[94.9,24251],[94.9,24334],[94.9,24417],[94.9,24500],[94.9,24583],[94.9,24668],[94.9,24751],[94.9,24835]]",1,0,849.6421,851.1582,98.07291985,1.2479,"[{""rating"":98.07291984558105,""responseTime"":1.2478999999761982}]",space,0.9772,,851.1583,Definitely yes,100,851.1595,,,[],,,,0,7,7,7,1,audio/Narrative7Situation7.wav,audio/Narrative8Situation7.wav,audio/Narrative5Situation7.wav,audio/Narrative6Situation7.wav,5,3,4,5,,,,,,,,,,,,,,,,,,,,,,,,,,,,,,,,,,,,,
,,,,,,5be94f66a169160001dafb9d,2024-02-08_13h22.01.547,group3.1-3.2-social-tom,2023.2.2,Win32,60.60606061,65c5074098b851296ff0b7ed,65c51602e9486207c648d17f,,,,,,,,,,,,,,,,,,,,,,,,,,,,,851.1595,2,audio/Narrative6Situation8.wav,856.1742,,856.1743,863.0579,"[[6.1,5084],[20.5,5751],[20.5,5834],[20.5,5917],[20.3,6001],[20.3,6084],[20.3,6167],[20.3,6249],[20.3,6333],[20.3,6416],[20.3,6500],[20.3,6583],[20.3,6667],[20.3,6751],[20.3,6834]]",1,0,863.0584,866.5079,1.979169846,3.084,"[{""rating"":9.583334922790526,""responseTime"":1.8316000000236272},{""rating"":1.9791698455810525,""responseTime"":3.0839999999998327}]",space,2.9127,,866.5079,Partially,50,866.5097,,,[],,,,0,8,8,8,1,audio/Narrative7Situation8.wav,audio/Narrative8Situation8.wav,audio/Narrative5Situation8.wav,audio/Narrative6Situation8.wav,2,3,3,5,,,,,,,,,,,,,,,,,,,,,,,,,,,,,,,,,,,,,
,,,,,,5be94f66a169160001dafb9d,2024-02-08_13h22.01.547,group3.1-3.2-social-tom,2023.2.2,Win32,60.60606061,65c5074098b851296ff0b7ed,65c51602e9486207c648d17f,,,,,,,,,,,,,,,,,,,,,,,,,,,,,866.5099,2,audio/Narrative6Situation9.wav,870.5246,,870.5246,880.4589,"[[2.4,1668],[3.3,1751],[3.9,1834],[4.1,1916],[4.4,2000],[6.4,2084],[14.8,3168],[15.2,3251],[15.5,3334],[14.9,3418],[13.6,3501],[11.7,3585],[8.1,3668],[5.8,3751],[4.8,3833],[4.3,3918],[4.3,4000],[4.7,4084],[6.3,4168],[6.6,4250],[6.7,4333],[6.7,4416],[6.7,4500],[6.7,4583],[6.7,4666],[6.7,4751],[6.7,4834],[6.7,4916],[6.7,5001],[6.7,5083],[6.7,5166],[6.7,5250],[6.7,5333],[6.7,5416],[6.7,5500],[6.7,5585],[6.7,5667],[6.7,5751],[6.7,5833],[6.7,5918],[6.7,6000],[6.7,6084],[6.7,6166],[6.7,6251],[6.7,6333],[6.7,6416],[6.7,6500],[6.7,6583],[6.7,6668],[6.7,6751],[6.7,6833],[6.7,6918],[6.7,7001],[6.5,7084],[6.5,7166],[6.3,7250],[6,7333],[6,7416],[6,7501],[6,7583],[5.9,7668],[5.9,7751],[5.7,7834],[5.7,7918],[5.4,8000],[5.2,8085],[4.9,8168],[4.8,8251],[4.2,8335],[3.5,8416],[3.1,8501],[3.1,8583],[3.1,8667],[3.1,8750],[3.1,8833],[3.1,8916],[3.1,9001],[3.1,9083],[3.1,9168],[3.1,9250],[3.1,9333],[3.1,9416],[3.1,9500],[3.1,9584],[3.1,9667],[3.1,9751],[3.1,9834],[3.1,9916]]",1,0,880.459,884.8417,0.989584923,4.3679,"[{""rating"":0.9895849227905262,""responseTime"":4.367900000095688}]",space,1.7439,,884.8417,Partially,50,890.9434,49.89583969,5.3372,"[{""rating"":49.89583969116211,""responseTime"":5.337200000047687}]",space,5.5665,,0,9,9,9,1,audio/Narrative7Situation9.wav,audio/Narrative8Situation9.wav,audio/Narrative5Situation9.wav,audio/Narrative6Situation9.wav,2,3,3,4,,,,,,,,,,,,,,,,,,,,,,,,,,,,,,,,,,,,,
,,,,,,5be94f66a169160001dafb9d,2024-02-08_13h22.01.547,group3.1-3.2-social-tom,2023.2.2,Win32,60.60606061,65c5074098b851296ff0b7ed,65c51602e9486207c648d17f,,,,,,,,,,,,,,,,,,,,,,,,,,,,,890.9437,2,audio/Narrative5Situation1.wav,895.959,,895.959,909.2592,"[[999,7],[999,84],[999,168],[999,249],[999,332],[999,416],[999,500],[999,583],[999,666],[999,750],[999,833],[999,916],[999,999],[999,1083],[999,1166],[999,1249],[999,1334],[999,1416],[999,1499],[999,1583],[999,1666],[999,1750],[999,1834],[999,1916],[999,1999],[999,2083],[999,2166],[999,2249],[999,2333],[999,2416],[999,2499],[999,2583],[999,2666],[999,2749],[999,2834],[999,2916],[999,3000],[999,3084],[999,3166],[999,3249],[999,3333],[999,3416],[999,3500],[999,3585],[999,3667],[999,3749],[999,3833],[999,3916],[999,4001],[999,4083],[999,4166],[999,4251],[999,4333],[999,4416],[999,4499],[999,4583],[999,4666],[999,4751],[999,4834],[999,4916],[999,5000],[999,5083],[999,5168],[999,5249],[999,5333],[999,5417],[999,5499],[999,5584],[999,5666],[999,5749],[999,5833],[999,5917],[999,6000],[999,6084],[999,6167],[16.5,6251],[5.1,6751],[8,7418],[8,7501],[8,7584],[8,7666],[8,7750],[8,7834],[8,7916],[8,8000],[8,8084],[8,8168],[8,8251],[8,8333],[8,8416],[8,8501],[8,8583],[8,8666],[8,8750],[8,8834],[8,8917],[8,9001],[8,9084],[8,9168],[8,9249],[8,9333],[8,9416],[8,9500],[8,9584],[8,9666],[8,9751],[8,9833],[8,9916],[8,10000],[8,10084],[8,10166],[8,10250],[8,10335],[8,10416],[8,10500],[8,10583],[8,10666],[8,10750],[8,10834],[8,10916],[8,11000],[8,11083],[8,11166],[8,11250],[8,11334],[8,11417],[8,11500],[8,11584],[8,11667],[8,11750],[8,11834],[8,11916],[8,12000],[8,12083],[8,12166],[8,12251],[8,12333],[8,12416],[8,12501],[8,12583],[8,12666],[7.8,12751],[6.6,12834],[5.9,12918],[5.7,13000],[5.5,13084],[5.4,13167],[4.9,13251]]",1,0,909.2592,911.1443,0.729169846,1.8845,"[{""rating"":0.7291698455810569,""responseTime"":1.8845000000001164}]",space,1.342,,911.1443,Not at all,0,911.1458,,,[],,,,0,10,10,10,1,audio/Narrative8Situation1.wav,audio/Narrative7Situation1.wav,audio/Narrative6Situation1.wav,audio/Narrative5Situation1.wav,5,2,2,5,,,,,,,,,,,,,,,,,,,,,,,,,,,,,,,,,,,,,
,,,,,,5be94f66a169160001dafb9d,2024-02-08_13h22.01.547,group3.1-3.2-social-tom,2023.2.2,Win32,60.60606061,65c5074098b851296ff0b7ed,65c51602e9486207c648d17f,,,,,,,,,,,,,,,,,,,,,,,,,,,,,911.146,2,audio/Narrative5Situation2.wav,914.1593,,914.1593,943.611,"[[1.1,5674],[3.3,5751],[4.2,5834],[4.9,5918],[5.2,6001],[5.8,6085],[6.4,6168],[6.8,6251],[6.9,6334],[6.9,6418],[6.9,6500],[6.9,6584],[6.9,6666],[6.9,6750],[6.9,6833],[6.9,6916],[6.9,7000],[6.9,7083],[6.9,7166],[6.9,7250],[6.9,7333],[6.9,7416],[6.9,7500],[6.9,7583],[6.9,7666],[6.9,7750],[6.9,7833],[6.9,7916],[6.9,8001],[6.9,8083],[6.9,8168],[6.9,8251],[6.9,8333],[6.9,8416],[6.9,8500],[6.9,8583],[6.9,8666],[6.9,8750],[6.9,8834],[6.9,8916],[6.9,9001],[6.9,9084],[6.9,9166],[6.9,9250],[6.9,9334],[6.9,9416],[6.9,9501],[6.9,9584],[6.9,9666],[6.9,9750],[6.9,9833],[6.9,9917],[6.9,10000],[6.9,10083],[6.9,10167],[6.9,10250],[6.9,10333],[6.9,10418],[6.9,10501],[6.9,10584],[6.9,10667],[6.9,10751],[6.9,10833],[6.9,10917],[6.9,11000],[6.9,11085],[6.9,11167],[6.9,11250],[6.9,11333],[6.9,11416],[6.9,11500],[6.9,11583],[6.9,11669],[6.9,11750],[6.9,11833],[6.9,11918],[6.9,12000],[6.9,12083],[6.9,12168],[6.9,12250],[6.9,12335],[6.9,12418],[6.9,12501],[6.9,12585],[6.9,12668],[6.9,12750],[6.9,12834],[6.9,12917],[6.9,13001],[6.9,13085],[6.9,13167],[6.9,13250],[6.9,13333],[6.9,13417],[6.9,13501],[6.9,13583],[6.9,13667],[6.9,13751],[6.9,13834],[6.9,13918],[6.9,14000],[6.9,14083],[6.9,14167],[6.9,14250],[6.9,14335],[6.9,14418],[6.9,14501],[6.9,14583],[6.9,14668],[6.9,14750],[6.9,14833],[6.9,14918],[6.9,15000],[6.9,15085],[6.9,15167],[6.9,15251],[6.9,15333],[6.9,15417],[6.9,15500],[6.9,15583],[6.9,15667],[6.9,15751],[6.9,15833],[6.9,15917],[6.9,16001],[6.9,16083],[6.9,16167],[6.9,16251],[6.9,16335],[6.9,16417],[6.9,16500],[6.9,16584],[6.9,16668],[6.9,16750],[6.9,16834],[6.9,16917],[6.9,17000],[6.9,17083],[6.9,17168],[6.9,17250],[6.9,17335],[6.9,17418],[6.7,17500],[6.4,17585],[6.2,17668],[6.2,17751],[6,17834],[5.7,17917],[5.6,18000],[5.6,18085],[5.6,18167],[5.6,18251],[5.6,18333],[5.6,18417],[5.6,18501],[5.6,18584],[5.6,18667],[5.6,18751],[5.6,18833],[5.6,18917],[5.5,19000],[5.5,19084],[5.5,19168],[5.5,19251],[5.5,19335],[5.5,19417],[5.5,19501],[5.5,19583],[5.5,19668],[5.5,19750],[5.5,19835],[5.5,19918],[5.5,20001],[5.5,20083],[5.5,20167],[5.5,20250],[5.5,20334],[5.5,20417],[5.5,20501],[5.5,20583],[5.5,20667],[5.5,20750],[5.5,20835],[5.5,20919],[5.5,21000],[5.5,21084],[5.5,21168],[5.5,21250],[5.5,21335],[5.5,21417],[5.5,21501],[5.5,21585],[5.5,21667],[5.5,21750],[5.5,21834],[5.5,21917],[5.5,22000],[5.5,22086],[5.5,22167],[5.5,22250],[5.5,22335],[5.5,22417],[5.5,22501],[5.5,22584],[5.5,22668],[5.5,22751],[5.5,22834],[5.5,22917],[5.5,23001],[5.5,23084],[5.5,23168],[5.5,23251],[5.5,23334],[5.5,23417],[5.5,23500],[5.5,23585],[5.5,23667],[5.5,23750],[5.5,23835],[5.5,23918],[5.5,24000],[5.5,24083],[5.5,24168],[5.5,24250],[5.5,24334],[5.5,24418],[5.5,24501],[5.5,24583],[5.5,24667],[5.5,24750],[5.5,24834],[5.5,24917],[5.5,25002],[5.5,25084],[5.5,25168],[5.5,25250],[5.5,25335],[5.5,25418],[5.5,25500],[5.5,25585],[5.5,25668],[5.5,25751],[5.5,25834],[5.5,25918],[5.5,26000],[5.5,26084],[5.5,26168],[5.5,26250],[5.5,26335],[5.5,26417],[5.5,26500],[5.5,26585],[5.5,26667],[5.5,26751],[5.5,26834],[5.5,26917],[5.5,27000],[5.5,27085],[5.5,27168],[5.5,27251],[5.5,27334],[5.5,27418],[5.5,27500],[5.5,27584],[5.5,27668],[5.5,27752],[5.5,27835],[5.5,27917],[5.5,28001],[5.5,28084],[5.5,28167],[5.5,28251],[5.5,28334],[5.5,28418],[5.5,28500],[5.5,28585],[5.5,28668],[5.5,28750],[5.5,28835],[5.5,28918],[5.5,29001],[5.5,29084],[5.5,29167],[5.5,29250],[5.5,29335],[5.5,29417]]",1,0,943.6111,949.7614,2.916669846,5.7519,"[{""rating"":2.9166698455810547,""responseTime"":5.751899999976104}]",space,5.6067,,949.7615,Not at all,0,949.7625,,,[],,,,0,11,11,11,1,audio/Narrative8Situation2.wav,audio/Narrative7Situation2.wav,audio/Narrative6Situation2.wav,audio/Narrative5Situation2.wav,3,3,3,3,,,,,,,,,,,,,,,,,,,,,,,,,,,,,,,,,,,,,
,,,,,,5be94f66a169160001dafb9d,2024-02-08_13h22.01.547,group3.1-3.2-social-tom,2023.2.2,Win32,60.60606061,65c5074098b851296ff0b7ed,65c51602e9486207c648d17f,,,,,,,,,,,,,,,,,,,,,,,,,,,,,949.7626,2,audio/Narrative5Situation3.wav,952.7785,,952.7785,966.6945,"[[10.1,2583],[11.8,2666],[11.8,2748],[11.8,2832],[11.4,2915],[11.4,2998],[11.4,3083],[11.4,3165],[11.4,3248],[11.4,3333],[11.4,3415],[11.4,3499],[11.4,3582],[11.4,3665],[11.4,3748],[11.4,3832],[11.4,3916],[11.4,3998],[11.4,4082],[11.4,4165],[11.4,4248],[11.4,4333],[11.4,4415],[11.4,4500],[11.4,4582],[11.4,4665],[11.4,4749],[11.4,4832],[11.4,4915],[11.4,4998],[11.4,5083],[11.4,5165],[11.4,5250],[11.4,5333],[11.4,5415],[11.4,5498],[11.4,5582],[11.4,5665],[11.4,5749],[11.4,5833],[11.4,5915],[11.4,5998],[11.4,6083],[11.4,6165],[11.4,6248],[11.4,6333],[11.4,6416],[11.4,6498],[11.4,6582],[11.4,6666],[11.4,6749],[11.4,6832],[11.4,6915],[11.4,6999],[11.4,7082],[11.4,7165],[11.4,7248],[11.4,7332],[9.1,7416],[6.5,7500],[2.1,7585],[2.8,7833],[4.7,7917],[6.6,8000],[6.9,8082],[7.1,8166],[7.4,8249],[7.7,8333],[7.8,8416],[7.8,8498],[7.8,8582],[8,8665],[8,8750],[8,8832],[8,8915],[8,8999],[8,9083],[8,9167],[8,9249],[8,9333],[8,9415],[8,9499],[8,9582],[8,9665],[8,9748],[8,9832],[8,9918],[8,10000],[8,10082],[8,10165],[8,10250],[8,10333],[8,10416],[8,10499],[8.1,10583],[8.3,10667],[8.3,10750],[8.3,10832],[8.3,10917],[8.3,10999],[8.4,11082],[8.4,11165],[8.4,11249],[8.8,11332],[9.5,11417],[12.7,11500],[38.2,11583],[55.9,11667],[55.9,11749],[55.9,11832],[55.9,11915],[55.9,12000],[55.9,12082],[55.5,12166],[55.4,12250],[55.1,12333],[54.7,12416],[52.8,12500],[51.8,12583],[51.8,12665],[51.7,12750],[51.5,12832],[51.3,12917],[51,12999],[50.9,13082],[50.8,13167],[50.7,13250],[50.6,13332],[50.6,13415],[50.6,13499],[50.4,13582],[50.4,13665],[50.4,13749],[50.4,13833],[50.4,13915]]",1,0,966.6946,968.2123,50.41666985,0.9138,"[{""rating"":50.416669845581055,""responseTime"":0.9138000000716602}]",space,0.9831,,968.2123,Definitely yes,100,968.2138,,,[],,,,0,12,12,12,1,audio/Narrative8Situation3.wav,audio/Narrative7Situation3.wav,audio/Narrative6Situation3.wav,audio/Narrative5Situation3.wav,4,8,5,3,,,,,,,,,,,,,,,,,,,,,,,,,,,,,,,,,,,,,
,,,,,,5be94f66a169160001dafb9d,2024-02-08_13h22.01.547,group3.1-3.2-social-tom,2023.2.2,Win32,60.60606061,65c5074098b851296ff0b7ed,65c51602e9486207c648d17f,,,,,,,,,,,,,,,,,,,,,,,,,,,,,968.214,2,audio/Narrative5Situation4.wav,969.2278,,969.2278,989.6284,"[[50.4,5667],[50.4,5751],[50.4,5834],[45.8,5918],[40.3,6001],[37.3,6084],[33.6,6168],[29.5,6251],[25.8,6334],[23.4,6418],[22.9,6500],[21.9,6585],[19.5,6668],[17.1,6751],[16.9,6834],[16.8,6918],[16.4,7001],[16.4,7083],[16.4,7166],[16.4,7250],[16.4,7333],[16.4,7416],[16.4,7500],[16.4,7583],[16.4,7666],[16.4,7750],[16.4,7833],[16.4,7916],[16.4,8001],[16.4,8083],[16.4,8168],[16.4,8250],[16.4,8334],[16.4,8418],[16.4,8500],[16.4,8583],[16.4,8666],[16.4,8750],[16.4,8835],[16.4,8918],[16.4,9001],[16.4,9083],[16.4,9166],[16.4,9251],[16.4,9334],[16.4,9416],[16.4,9501],[16.4,9583],[16.4,9666],[16.4,9750],[16.4,9833],[16.4,9918],[16.4,10000],[16.4,10083],[16.4,10166],[16.4,10250],[16.4,10334],[16.4,10418],[16.4,10501],[16.4,10583],[16.4,10668],[16.4,10750],[16.4,10834],[16.4,10916],[16.4,11000],[16.4,11083],[16.4,11168],[16.4,11251],[16.4,11333],[16.4,11416],[16.4,11500],[16.4,11584],[16.4,11666],[16.4,11750],[16.4,11833],[16.4,11917],[16.4,12001],[16.4,12083],[16.4,12168],[16.4,12250],[16.4,12333],[16.4,12417],[16.4,12500],[16.4,12583],[16.4,12667],[16.4,12750],[16.4,12833],[16.4,12916],[16.4,13000],[16.4,13084],[16.4,13168],[16.4,13251],[16.4,13334],[16.4,13418],[16.4,13501],[16.4,13583],[16.4,13668],[16.4,13750],[16.4,13833],[16.4,13917],[16.4,14001],[16.4,14083],[16.4,14166],[16.4,14250],[16.4,14333],[16.4,14417],[16.4,14501],[16.4,14583],[16.4,14666],[16.4,14750],[16.4,14833],[16.4,14918],[16.4,15000],[16.4,15083],[16.4,15167],[16.4,15251],[16.4,15334],[16.4,15418],[16.4,15500],[16.4,15583],[16.4,15668],[16.4,15750],[16.4,15834],[16.4,15916],[16.4,16000],[16.4,16084],[16.4,16168],[16.4,16250],[16.4,16334],[16.4,16416],[16.4,16500],[17,16590],[17.3,16668],[17.4,16751],[17.4,16835],[17.6,16917],[17.6,17000],[17.6,17083],[17.6,17167],[17.6,17250],[17.6,17334],[17.6,17418],[17.7,17502],[17.9,17585],[17.9,17668],[17.9,17751],[17.9,17833],[17.9,17917],[17.9,18000],[17.9,18083],[18,18167],[18,18250],[18,18333],[18.1,18418],[18.1,18501],[18.1,18583],[18.1,18667],[18.1,18750],[18.1,18834],[18.1,18916],[18.1,19000],[18.1,19084],[18.1,19167],[18.1,19250],[18.1,19333],[18.3,19418],[19.7,19501],[22.6,19586],[23.7,19668],[26.8,19752],[30.2,19833]]",1,0,989.6285,993.1965,49.47916985,2.0925,"[{""rating"":49.479169845581055,""responseTime"":2.0925000000002}]",space,3.0385,,993.1966,Definitely yes,100,993.1975,,,[],,,,0,13,13,13,1,audio/Narrative8Situation4.wav,audio/Narrative7Situation4.wav,audio/Narrative6Situation4.wav,audio/Narrative5Situation4.wav,3,3,2,1,,,,,,,,,,,,,,,,,,,,,,,,,,,,,,,,,,,,,
,,,,,,5be94f66a169160001dafb9d,2024-02-08_13h22.01.547,group3.1-3.2-social-tom,2023.2.2,Win32,60.60606061,65c5074098b851296ff0b7ed,65c51602e9486207c648d17f,,,,,,,,,,,,,,,,,,,,,,,,,,,,,993.1976,2,audio/Narrative5Situation5.wav,998.213,,998.213,1013.6305,"[[54.2,1750],[53.5,1832],[52.6,1917],[52.2,2000],[52.1,2082],[52.1,2170],[52.1,2248],[52.1,2332],[52,2415],[51.5,2499],[51.2,2583],[50.5,2666],[50.4,2750],[50.3,2832],[50,2916],[49.9,2998],[49.6,3083],[49.6,3165],[49.6,3249],[49.5,3333],[49.5,3415],[49.5,3499],[49.3,3583],[49,3667],[43.1,3750],[37,3833],[34.6,3917],[31.4,4000],[30.1,4084],[27.7,4167],[26.7,4250],[26.4,4332],[26.2,4417],[25.7,4500],[24.5,4582],[20.7,4667],[19.6,4750],[19.3,4834],[18.8,4917],[18.2,5000],[17.8,5083],[17.3,5165],[16.5,5250],[16,5333],[15.7,5417],[15.7,5499],[15.7,5582],[15.7,5669],[15.7,5750],[15.7,5833],[15.7,5916],[15.7,6000],[15.7,6082],[15.7,6165],[15.7,6250],[15.7,6332],[15.7,6415],[15.7,6499],[15.7,6582],[15.7,6665],[15.7,6749],[15.7,6833],[15.7,6915],[15.7,6999],[15.7,7089],[15.7,7166],[15.7,7249],[15.7,7332],[15.7,7415],[15.7,7499],[15.7,7582],[15.7,7665],[15.7,7749],[15.7,7832],[15.7,7915],[15.7,8000],[15.7,8083],[15.7,8165],[15.7,8249],[15.7,8332],[15.7,8415],[15.7,8499],[15.7,8583],[15.7,8665],[15.7,8750],[15.7,8832],[15.7,8915],[15.7,9000],[15.7,9082],[15.7,9165],[15.7,9250],[15.7,9332],[15.7,9415],[15.7,9499],[15.7,9583],[15.7,9665],[15.7,9750],[15.7,9832],[15.7,9915],[15.7,9999],[15.7,10083],[15.7,10165],[15.7,10250],[15.7,10332],[15.7,10417],[15.7,10499],[15.7,10582],[15.7,10665],[15.7,10749],[15.7,10832],[15.7,10917],[15.7,10999],[15.7,11082],[15.7,11168],[15.7,11250],[15.7,11332],[15.7,11415],[15.7,11499],[15.7,11583],[15.7,11666],[15.7,11750],[15.7,11834],[15.7,11915],[15.7,11999],[15.7,12082],[14.6,12167],[13.4,12250],[12.9,12334],[12.7,12416],[12.6,12499],[12.6,12582],[12.5,12665],[12.5,12749],[12.5,12832],[12.5,12917],[12.5,13000],[12.5,13082],[12.5,13167],[12.5,13249],[12.5,13333],[12.5,13416],[12.4,13499],[12.2,13582],[12.2,13665],[12.2,13750],[12,13832],[12,13915],[12,14001],[12,14083],[12,14166],[12,14249],[12,14332],[12,14417],[12,14499],[12,14582],[12,14667],[12,14749],[12,14833],[12,14917],[11.8,14999],[11.6,15083],[11.3,15167],[11,15249],[10.9,15332],[10.7,15417]]",1,0,1013.6306,1016.646,2.552084923,2.1162,"[{""rating"":2.5520849227905265,""responseTime"":2.1162000000476837}]",space,2.4763,,1016.646,Definitely yes,100,1016.647,,,[],,,,0,14,14,14,1,audio/Narrative8Situation5.wav,audio/Narrative7Situation5.wav,audio/Narrative6Situation5.wav,audio/Narrative5Situation5.wav,2,5,2,5,,,,,,,,,,,,,,,,,,,,,,,,,,,,,,,,,,,,,
,,,,,,5be94f66a169160001dafb9d,2024-02-08_13h22.01.547,group3.1-3.2-social-tom,2023.2.2,Win32,60.60606061,65c5074098b851296ff0b7ed,65c51602e9486207c648d17f,,,,,,,,,,,,,,,,,,,,,,,,,,,,,1016.6472,2,audio/Narrative5Situation6.wav,1019.6628,,1019.6628,1025.3641,[],1,0,1025.3642,1028.3982,0.208334923,2.8264,"[{""rating"":0.20833492279052623,""responseTime"":2.8263999999762746}]",space,2.5155,,1028.3982,Not at all,0,1028.4022,,,[],,,,0,15,15,15,1,audio/Narrative8Situation6.wav,audio/Narrative7Situation6.wav,audio/Narrative6Situation6.wav,audio/Narrative5Situation6.wav,2,3,2,3,,,,,,,,,,,,,,,,,,,,,,,,,,,,,,,,,,,,,
,,,,,,5be94f66a169160001dafb9d,2024-02-08_13h22.01.547,group3.1-3.2-social-tom,2023.2.2,Win32,60.60606061,65c5074098b851296ff0b7ed,65c51602e9486207c648d17f,,,,,,,,,,,,,,,,,,,,,,,,,,,,,1028.4025,2,audio/Narrative5Situation7.wav,1032.4136,,1032.4137,1053.4641,"[[1,3500],[5.7,3583],[5.9,3667],[6.3,3750],[6.1,3833],[6.1,3916],[6.1,3999],[6.1,4082],[6.1,4167],[6.1,4249],[6.1,4332],[6.1,4416],[6.1,4500],[6.1,4582],[6.1,4666],[6.1,4750],[6.1,4834],[6.1,4916],[6.1,4999],[6.1,5082],[6.1,5166],[6.1,5249],[6.1,5333],[6.1,5417],[6.1,5500],[6.1,5582],[6.1,5666],[6.1,5749],[6.1,5833],[6.1,5917],[6.1,5999],[6.1,6082],[6.1,6166],[6.1,6249],[6.1,6334],[6.1,6416],[6.1,6500],[6.1,6583],[6.1,6666],[6.1,6749],[6.1,6833],[6.1,6916],[6.1,7000],[6.1,7084],[6.1,7166],[6.1,7249],[6.1,7332],[6.1,7416],[6.1,7499],[6.1,7582],[6.1,7667],[6.1,7750],[6.5,7839],[6.6,7916],[6.8,8000],[6.8,8083],[7,8167],[7,8250],[7.2,8334],[7.4,8417],[7.4,8499],[7.6,8583],[7.7,8667],[7.7,8749],[7.8,8834],[7.8,8916],[8,9000],[8.3,9084],[8.4,9167],[8.8,9250],[9.2,9333],[9.5,9417],[9.7,9500],[10.2,9584],[10.4,9667],[10.4,9750],[10.4,9833],[10.4,9916],[10.4,9999],[10.4,10083],[10.4,10166],[10.4,10249],[10.4,10333],[10.4,10416],[10.4,10499],[10.4,10584],[10.4,10666],[10.4,10749],[10.4,10834],[10.4,10916],[10.4,10999],[10.4,11083],[10.4,11167],[10.4,11250],[10.4,11333],[10.4,11416],[10.4,11499],[10.4,11584],[10.4,11666],[10.4,11751],[10.4,11833],[10.4,11916],[10.4,11999],[10.4,12084],[10.4,12166],[10.4,12249],[10.4,12333],[10.4,12416],[10.4,12499],[10.4,12584],[10.4,12666],[10.4,12749],[10.4,12833],[10.4,12917],[10.4,12999],[10.4,13084],[10.4,13167],[10.4,13249],[10.4,13333],[10.4,13416],[10.4,13499],[10.4,13583],[10.4,13666],[10.4,13749],[10.4,13833],[10.4,13916],[10.4,13999],[10.4,14084],[10.4,14166],[10.4,14250],[10.4,14334],[10.6,14416],[10.6,14500],[10.6,14584],[10.8,14667],[11,14751],[11,14833],[11,14916],[11,15001],[11,15085],[11,15166],[11,15250],[11,15334],[11,15416],[11,15500],[11,15583],[11,15666],[11,15750],[11,15833],[11,15916],[11,16000],[11,16083],[10.8,16168],[10.8,16249],[10.7,16333],[10.5,16416],[10.5,16500],[10.5,16583],[10.5,16667],[10.4,16750],[10.4,16833],[10.4,16917],[10.4,16999],[10.4,17083],[10.4,17166],[10.4,17251],[10.4,17333],[10.4,17416],[10.4,17500],[10.4,17584],[10.4,17666],[10.4,17750],[10.4,17833],[10.4,17916],[10.4,18000],[10.4,18083],[10.4,18166],[10.4,18251],[10.4,18333],[10.4,18416],[10.4,18501],[10.4,18583],[10.4,18666],[10.4,18751],[10.4,18833],[10.4,18916],[10.4,18999],[10.4,19083],[10.4,19166],[10.4,19251],[10.4,19333],[10.4,19416],[10.4,19500],[10.4,19584],[10.4,19668],[10.4,19750],[10.4,19833],[10.4,19916],[10.4,20000],[10.4,20083],[10.4,20166],[10.4,20251],[10.4,20333],[10.4,20416],[10.4,20500],[10.4,20583],[10.4,20666],[10.4,20750],[10.4,20833],[10.4,20916],[10.4,21000]]",1,0,1053.4644,1059.1307,0,4.8054,"[{""rating"":0,""responseTime"":4.805399999976089}]",space,5.116,,1059.1308,Partially,50,1059.1326,,,[],,,,0,16,16,16,1,audio/Narrative8Situation7.wav,audio/Narrative7Situation7.wav,audio/Narrative6Situation7.wav,audio/Narrative5Situation7.wav,3,5,5,4,,,,,,,,,,,,,,,,,,,,,,,,,,,,,,,,,,,,,
