exp_question,consent.started,consent.stopped,consentResponse.keys,consentResponse.rt,consentResponse.duration,participantID,date,expName,psychopyVersion,OS,frameRate,STUDY_ID,SESSION_ID,opening1.started,opening1.stopped,keyEndingOpening1.keys,keyEndingOpening1.rt,keyEndingOpening1.duration,volumeAdjust.started,volumeAdjust.stopped,endingAdjust.keys,endingAdjust.rt,endingAdjust.duration,opening2.started,opening2.stopped,keyEndingOpening.keys,keyEndingOpening.rt,keyEndingOpening.duration,mouse.x,mouse.y,mouse.leftButton,mouse.midButton,mouse.rightButton,mouse.time,instructionLoop.thisRepN,instructionLoop.thisTrialN,instructionLoop.thisN,instructionLoop.thisIndex,instructionLoop.ran,readyForAudio.started,readyForAudio.stopped,fixation.started,run,audio_played,fixation.stopped,endPractice.keys,audioPre.started,audioPre.stopped,continuousResponses_audio,continuousSlider.response,continuousSlider.rt,intRating.started,intRating.stopped,intQuestionSlider.response,intQuestionSlider.rt,intQuestionSlider.history,confirmResponse.keys,confirmResponse.rt,confirmResponse.duration,catchQuestion.started,catch_label,catch_value,catchQuestion.stopped,catchQuestionSlider.response,catchQuestionSlider.rt,catchQuestionSlider.history,confirmResponse_2.keys,audioRunLoop.thisRepN,audioRunLoop.thisTrialN,audioRunLoop.thisN,audioRunLoop.thisIndex,audioRunLoop.ran,conditions1_1,conditions2_1,conditions1_2,conditions2_2,dur1_1,dur2_1,dur1_2,dur2_2,endPractice.rt,endPractice.duration,confirmResponse_2.rt,confirmResponse_2.duration,runIntervalBreak.started,runIntervalBreak.stopped,endingBreakKey.keys,endingBreakKey.rt,endingBreakKey.duration,connection.started,connection.stopped,connectionEnding.keys,connectionEnding.rt,connectionEnding.duration,readyForText.started,readyForText.stopped,textPre.started,run_dup,textPre.stopped,continuousResponses_text,textRunLoop.thisRepN,textRunLoop.thisTrialN,textRunLoop.thisN,textRunLoop.thisIndex,textRunLoop.ran,text1_1,text1_2,text2_1,text2_2,runBreakText.started,runBreakText.stopped,endingBreakKey_2.keys,endingBreakKey_2.rt,endingBreakKey_2.duration,ending.started,ending.stopped,endingEnding.keys,endingEnding.rt,endingEnding.duration
social,0.0002,4.6302,y,4.3255,,5c1053202b16ba0001c86317,2024-05-13_10h22.52.759,group3.1-3.2-social-tom,2023.2.2,Win32,144.9275362,65c5074098b851296ff0b7ed,6642300c2a47e00465306638,,,,,,,,,,,,,,,,,,,,,,,,,,,,,,,,,,,,,,,,,,,,,,,,,,,,,,,,,,,,,,,,,,,,,,,,,,,,,,,,,,,,,,,,,,,,,,,,,,,,,,,,,,
,,,,,,5c1053202b16ba0001c86317,2024-05-13_10h22.52.759,group3.1-3.2-social-tom,2023.2.2,Win32,144.9275362,65c5074098b851296ff0b7ed,6642300c2a47e00465306638,4.6304,14.4215,space,9.7685,,,,,,,,,,,,,,,,,,,,,,,,,,,,,,,,,,,,,,,,,,,,,,,,,,,,,,,,,,,,,,,,,,,,,,,,,,,,,,,,,,,,,,,,,,,,,,,,,,,,,,
,,,,,,5c1053202b16ba0001c86317,2024-05-13_10h22.52.759,group3.1-3.2-social-tom,2023.2.2,Win32,144.9275362,65c5074098b851296ff0b7ed,6642300c2a47e00465306638,,,,,,14.4216,57.0422,space,42.3084,,,,,,,,,,,,,,,,,,,,,,,,,,,,,,,,,,,,,,,,,,,,,,,,,,,,,,,,,,,,,,,,,,,,,,,,,,,,,,,,,,,,,,,,,,,,,,,,,
,,,,,,5c1053202b16ba0001c86317,2024-05-13_10h22.52.759,group3.1-3.2-social-tom,2023.2.2,Win32,144.9275362,65c5074098b851296ff0b7ed,6642300c2a47e00465306638,,,,,,,,,,,57.0445,70.1139,space,13.0539,,[],[],[],[],[],[],0,0,0,0,1,,,,,,,,,,,,,,,,,,,,,,,,,,,,,,,,,,,,,,,,,,,,,,,,,,,,,,,,,,,,,,,,,,,,,,,,,,,,,,,,
,,,,,,5c1053202b16ba0001c86317,2024-05-13_10h22.52.759,group3.1-3.2-social-tom,2023.2.2,Win32,144.9275362,65c5074098b851296ff0b7ed,6642300c2a47e00465306638,,,,,,,,,,,70.1188,102.6217,space,32.4345,,[],[],[],[],[],[],1,0,1,0,1,,,,,,,,,,,,,,,,,,,,,,,,,,,,,,,,,,,,,,,,,,,,,,,,,,,,,,,,,,,,,,,,,,,,,,,,,,,,,,,,
,,,,,,5c1053202b16ba0001c86317,2024-05-13_10h22.52.759,group3.1-3.2-social-tom,2023.2.2,Win32,144.9275362,65c5074098b851296ff0b7ed,6642300c2a47e00465306638,,,,,,,,,,,102.622,118.379,space,15.7271,,[],[],[],[],[],[],2,0,2,0,1,,,,,,,,,,,,,,,,,,,,,,,,,,,,,,,,,,,,,,,,,,,,,,,,,,,,,,,,,,,,,,,,,,,,,,,,,,,,,,,,
,,,,,,5c1053202b16ba0001c86317,2024-05-13_10h22.52.759,group3.1-3.2-social-tom,2023.2.2,Win32,144.9275362,65c5074098b851296ff0b7ed,6642300c2a47e00465306638,,,,,,,,,,,118.3839,156.3318,space,37.9369,,[],[],[],[],[],[],3,0,3,0,1,,,,,,,,,,,,,,,,,,,,,,,,,,,,,,,,,,,,,,,,,,,,,,,,,,,,,,,,,,,,,,,,,,,,,,,,,,,,,,,,
,,,,,,5c1053202b16ba0001c86317,2024-05-13_10h22.52.759,group3.1-3.2-social-tom,2023.2.2,Win32,144.9275362,65c5074098b851296ff0b7ed,6642300c2a47e00465306638,,,,,,,,,,,156.3363,176.9934,space,20.6396,,[],[],[],[],[],[],4,0,4,0,1,,,,,,,,,,,,,,,,,,,,,,,,,,,,,,,,,,,,,,,,,,,,,,,,,,,,,,,,,,,,,,,,,,,,,,,,,,,,,,,,
,,,,,,5c1053202b16ba0001c86317,2024-05-13_10h22.52.759,group3.1-3.2-social-tom,2023.2.2,Win32,144.9275362,65c5074098b851296ff0b7ed,6642300c2a47e00465306638,,,,,,,,,,,,,,,,,,,,,,,,,,,176.9993,179.5788,179.5901,1,audio/Narrative13Situation2.wav,181.5917,,181.5919,211.3283,"[[49.1,982],[43.6,1070],[39.4,1162],[35.7,1694],[35.7,1787],[36.5,1867],[40,1951],[42.8,2041],[44.3,2125],[45.1,2210],[45.6,2295],[47,2384],[48.7,2468],[49.4,2558],[49.9,2639],[50.7,2734],[51.4,2819],[52,2902],[52.9,2993],[53.7,3086],[54.5,3176],[55.7,3266],[56.8,3354],[57.5,3440],[58.1,3531],[58.5,3611],[59.2,3701],[59.7,3784],[59.7,3871],[60,3953],[61.1,4059],[62.3,4148],[63.1,4238],[63.3,4319],[63.7,4416],[64.3,4507],[65.4,4599],[66.2,4688],[67,4788],[67.7,4875],[68.3,4958],[69.1,5050],[70.1,5132],[70.5,5215],[71.2,5302],[72,5396],[72.5,5486],[72.5,5569],[72.5,5655],[72.5,5736],[72.5,5820],[72.5,5918],[72.5,6000],[72.5,6083],[72.5,6167],[72.5,6251],[72.5,6333],[72.5,6426],[70.1,6521],[68.6,6604],[67.4,6695],[67,6778],[65.7,6865],[64.6,6954],[63.4,7050],[63.3,7132],[63.3,7223],[63.6,7314],[66.2,7412],[68.4,7509],[69.7,7597],[69.7,7681],[69.7,7771],[69.7,7861],[69.7,7945],[69.7,8035],[69.7,8118],[69.7,8209],[71.8,8299],[71.8,8385],[71.8,8484],[71.8,8565],[71.8,8646],[71.8,8743],[71.8,8834],[71.8,8917],[71.8,9008],[71.9,9101],[72.1,9189],[70.2,9280],[69.7,9379],[68.3,9469],[68.2,9552],[72.2,9650],[72.9,9737],[73.4,9830],[73.5,9911],[73.5,9994],[73.5,10087],[74,10170],[75.6,10254],[77.3,10344],[78.3,10446],[79.6,10532],[79.8,10619],[79.8,10709],[79.8,10795],[79.8,10883],[79.8,10983],[79.8,11070],[79.8,11167],[79.8,11258],[79.8,11341],[79.8,11425],[79.8,11517],[79.8,11605],[79.8,11695],[79.8,11788],[79.8,11876],[79.8,11975],[79.8,12057],[79.8,12142],[79.8,12223],[79.8,12315],[79.7,12397],[79.7,12480],[79.7,12564],[79.7,12647],[79.7,12738],[79.8,12821],[79.9,12904],[80.1,12994],[80.2,13085],[80.2,13175],[80.2,13258],[80.2,13349],[80.2,13432],[80.2,13522],[80.2,13605],[79.6,13691],[79.6,13779],[79.6,13862],[79.6,13953],[79.6,14036],[79.6,14128],[79.6,14219],[79.6,14302],[79.6,14392],[79.6,14482],[79.6,14571],[79.5,14671],[79.5,14752],[79.5,14835],[79.5,14927],[79.5,15009],[79.5,15099],[79.5,15183],[79.5,15272],[79.5,15356],[79.5,15439],[79.5,15522],[79.5,15606],[79.5,15696],[79.5,15779],[79.5,15863],[79.5,15949],[80,16030],[80.7,16120],[81.3,16210],[82.4,16294],[82.5,16377],[82.5,16470],[82.6,16559],[83.1,16643],[83.3,16732],[83.3,16814],[83.3,16899],[83.3,16981],[83.3,17071],[83.3,17155],[83.3,17240],[83.3,17321],[83.3,17405],[83.3,17495],[83.3,17586],[83.3,17670],[83.3,17752],[83.3,17835],[83.3,17919],[83.3,18002],[83.3,18085],[83.3,18169],[83.3,18255],[83.3,18345],[83.3,18426],[83.3,18518],[83.3,18599],[83.3,18683],[83.3,18766],[83.3,18849],[83.3,18933],[83.3,19018],[83.3,19100],[83.3,19190],[83,19290],[82.6,19372],[82.2,19456],[82.2,19537],[82.2,19620],[82.2,19704],[82.1,19790],[81.8,19871],[81.8,19954],[81.5,20037],[81,20130],[80.1,20218],[80.1,20310],[80.1,20391],[80.1,20475],[79.9,20565],[79.9,20655],[79.9,20739],[79.9,20829],[79.5,20919],[79.5,21005],[79.5,21095],[79.1,21193],[79,21273],[79,21357],[79,21442],[79,21532],[79,21616],[78.5,21697],[78.5,21780],[78.5,21866],[78.5,21961],[77.9,22045],[77.9,22128],[77.9,22213],[77.9,22296],[77.9,22378],[77.9,22461],[77.9,22551],[77.9,22635],[77.9,22718],[77.9,22810],[78.5,22899],[79.5,22991],[79.5,23073],[79.5,23163],[79.5,23246],[79.5,23336],[79.5,23421],[79.5,23512],[79.5,23593],[79.5,23684],[79.5,23767],[79.5,23850],[79.5,23948],[78.9,24040],[77.7,24131],[77.7,24212],[77.7,24295],[77.7,24387],[77.7,24484],[77.7,24566],[77.7,24658],[77.7,24753],[77.7,24837],[77.7,24927],[77.7,25017],[77.7,25101],[77.7,25191],[77.7,25274],[77.7,25358],[77.7,25448],[77.7,25531],[77.7,25623],[77.7,25712],[77.8,25803],[78.2,25893],[78.2,25978],[78.2,26059],[78.2,26142],[78.2,26226],[78.2,26318],[78.2,26406],[77.7,26497],[77.4,26587],[76.4,26687],[76.1,26768],[75.6,26860],[75.1,26942],[75.1,27040],[74.4,27122],[74.2,27212],[73.2,27304],[72.8,27386],[72.7,27471],[72.5,27566],[71.9,27650],[71.9,27733],[71.9,27823],[71.9,27906],[71.4,27997],[71.4,28080],[70.9,28171],[70.7,28261],[70.7,28351],[70.7,28441],[70.7,28525],[70.5,28608],[70.5,28691],[70.5,28775],[70.5,28865],[70.5,28948],[70.5,29039],[70.5,29130],[70.5,29226],[70.4,29318],[70.1,29407],[70,29497],[70,29580],[70,29664]]",1,0,211.3285,218.3367,72.77070064,3.3027,"[{""rating"":72.77070063694268,""responseTime"":3.302699999809249}]",space,6.4904,,218.3412,Not at all,0,218.3447,,,[],,0,0,0,0,1,audio/Narrative13Situation2.wav,audio/Narrative13Situation2.wav,audio/Narrative13Situation2.wav,audio/Narrative13Situation2.wav,2,2,2,2,,,,,,,,,,,,,,,,,,,,,,,,,,,,,,,,,,,,,,,
,,,,,,5c1053202b16ba0001c86317,2024-05-13_10h22.52.759,group3.1-3.2-social-tom,2023.2.2,Win32,144.9275362,65c5074098b851296ff0b7ed,6642300c2a47e00465306638,,,,,,,,,,,,,,,,,,,,,,,,,,,,,218.3449,1,audio/Narrative8Situation1.wav,221.2374,space,221.2375,237.1498,"[[69.3,552],[70.1,633],[70.1,724],[70.4,805],[70.4,897],[70.6,983],[70.6,1064],[70.6,1152],[70.6,1237],[70.6,1328],[70.6,1418],[70.6,1506],[70.6,1599],[70.6,1682],[70.6,1770],[70.6,1854],[70.5,1953],[70.5,2035],[70.5,2125],[70.5,2215],[70.5,2298],[70.5,2389],[70.5,2474],[70.5,2555],[70.5,2647],[70.4,2731],[65.6,2819],[60.4,2904],[53,2987],[51.9,3069],[50.2,3169],[49,3264],[48.6,3360],[48.6,3441],[48,3527],[47.2,3613],[46.3,3695],[44.6,3778],[43.7,3868],[42.8,3959],[40.3,4051],[39,4141],[36.7,4230],[35.2,4314],[33.9,4396],[33.8,4486],[33.8,4569],[33.8,4653],[33.8,4743],[34.8,4829],[35.3,4913],[35.3,5002],[35.3,5085],[35.7,5167],[35.7,5257],[37.3,5340],[38.2,5426],[38.7,5515],[39.8,5600],[40,5681],[41.2,5764],[41.9,5858],[41.9,5945],[42.8,6030],[42.9,6112],[43.3,6195],[43.6,6285],[43.9,6382],[44.3,6475],[44.6,6556],[45.1,6639],[45.1,6724],[45.9,6809],[46.7,6896],[47.1,6994],[47.1,7077],[47.3,7161],[47.3,7244],[47.3,7334],[47.3,7417],[47.3,7500],[47.5,7591],[47.7,7684],[47.9,7771],[47.9,7862],[47.9,7952],[47.9,8036],[47.9,8119],[47.9,8211],[47.9,8294],[48,8376],[48,8461],[48,8551],[48,8639],[48,8739],[48,8820],[48,8904],[48,8996],[48,9084],[48,9168],[48.2,9258],[50.1,9343],[54.9,9428],[57.2,9517],[59.9,9608],[62.7,9691],[68.6,9782],[72.5,9869],[75.4,9968],[77.9,10053],[79,10136],[80,10218],[81.8,10310],[82.2,10390],[82.2,10475],[82.7,10563],[83.2,10656],[83.2,10737],[83.2,10829],[83.2,10918],[83.2,11015],[83.2,11100],[83.2,11197],[83.2,11279],[83.4,11369],[83.4,11459],[83.4,11543],[83.4,11633],[83.4,11723],[83.4,11814],[83.4,11913],[83.4,11996],[83.4,12091],[83.4,12175],[83.4,12258],[83.4,12342],[83.4,12432],[83.4,12522],[83.4,12613],[83.4,12696],[83.4,12788],[83.4,12869],[83.4,12960],[83.4,13043],[83.4,13134],[83.4,13224],[83.4,13310],[83.4,13406],[83.4,13497],[83.4,13585],[83.4,13668],[83.4,13759],[83.4,13845],[83.4,13925],[83.4,14009],[83.4,14092],[83.4,14183],[83.4,14272],[83.4,14358],[83.4,14446],[83.3,14546],[83.3,14627],[83.3,14712],[83.3,14800],[83.3,14891],[83.3,14976],[83.3,15064],[83.3,15156],[83.3,15238],[83.3,15321],[83.3,15412],[83.3,15495],[83.3,15581],[83.3,15668],[83.3,15754],[83.3,15835]]",1,0,237.15,240.4857,76.03503185,1.483,"[{""rating"":76.03503184713377,""responseTime"":1.483000000000004}]",space,2.8126,,240.4857,Definitely yes,100,240.488,,,[],,0,1,1,1,1,audio/Narrative7Situation1.wav,audio/Narrative8Situation1.wav,audio/Narrative5Situation1.wav,audio/Narrative6Situation1.wav,2,5,5,2,2.8802,,,,,,,,,,,,,,,,,,,,,,,,,,,,,,,,,,,,,,
,,,,,,5c1053202b16ba0001c86317,2024-05-13_10h22.52.759,group3.1-3.2-social-tom,2023.2.2,Win32,144.9275362,65c5074098b851296ff0b7ed,6642300c2a47e00465306638,,,,,,,,,,,,,,,,,,,,,,,,,,,,,240.4881,1,audio/Narrative8Situation2.wav,243.4913,,243.4913,253.5902,"[[70.3,618],[69.7,724],[67,814],[66.3,895],[62.1,988],[60.6,1069],[57.7,1163],[55.9,1252],[54.7,1340],[54.4,1426],[53.8,1513],[52.2,1607],[52,1694],[51.3,1777],[51.3,1863],[50.8,1960],[50.8,2041],[50.6,2125],[49.2,2215],[48.1,2298],[46.8,2396],[45.6,2480],[44.9,2569],[42,2653],[40,2746],[38.5,2826],[36.3,2919],[34.9,3001],[34.2,3090],[33.4,3174],[33.4,3257],[31.1,3358],[30.3,3455],[30.3,3535],[30.3,3625],[29.5,3717],[29,3798],[27.3,3885],[26,3981],[25.2,4072],[24.8,4160],[23.7,4243],[23,4326],[23,4410],[22,4494],[21.9,4576],[21.3,4677],[20.9,4764],[20.1,4857],[19.9,4953],[18.9,5042],[17.8,5134],[17.8,5222],[17.8,5313],[17.8,5403],[17.8,5487],[17.8,5578],[17.8,5667],[17.8,5750],[17.8,5834],[17.8,5924],[17.8,6016],[17.8,6113],[17.8,6202],[17.8,6285],[17.8,6368],[17.8,6459],[17.8,6542],[17.8,6627],[17.8,6723],[17.8,6808],[17.8,6889],[17.8,6973],[17.8,7058],[17.8,7139],[17.8,7230],[17.8,7320],[17,7410],[17,7500],[17,7586],[17,7674],[17,7758],[17,7843],[17,7925],[17,8008],[17,8092],[17,8188],[17,8279],[17,8362],[16.2,8455],[16.2,8538],[15.3,8633],[15.3,8718],[15.2,8799],[14.5,8892],[14.2,8976],[13.7,9064],[13.7,9161],[13.7,9251],[13.7,9341],[13.7,9431],[13.1,9525],[13,9612],[13,9695],[13,9779],[13,9862],[13,9945],[13,10029]]",1,0,253.5903,257.2713,7.404458599,2.0448,"[{""rating"":7.404458598726116,""responseTime"":2.044800000190719}]",space,3.166,,257.2714,Not at all,0,257.2736,,,[],,0,2,2,2,1,audio/Narrative7Situation2.wav,audio/Narrative8Situation2.wav,audio/Narrative5Situation2.wav,audio/Narrative6Situation2.wav,3,3,3,3,,,,,,,,,,,,,,,,,,,,,,,,,,,,,,,,,,,,,,,
,,,,,,5c1053202b16ba0001c86317,2024-05-13_10h22.52.759,group3.1-3.2-social-tom,2023.2.2,Win32,144.9275362,65c5074098b851296ff0b7ed,6642300c2a47e00465306638,,,,,,,,,,,,,,,,,,,,,,,,,,,,,257.2738,1,audio/Narrative8Situation3.wav,261.279,,261.2791,283.6511,"[[54.8,347],[53.3,437],[53.3,520],[52.5,612],[51.8,694],[51.8,784],[51,878],[50.8,958],[50.8,1041],[50.8,1138],[50.8,1222],[50.3,1305],[50.3,1395],[50.3,1493],[50.3,1576],[50.3,1659],[50.2,1746],[49.8,1829],[49.5,1909],[49.5,2000],[49.5,2084],[49.5,2169],[49,2266],[46.7,2349],[46.7,2430],[46.3,2514],[45.7,2604],[45.7,2687],[45.7,2771],[45.7,2861],[45,2944],[43.7,3034],[43.5,3118],[43.2,3201],[42.3,3301],[43.1,3389],[43.1,3479],[43.1,3562],[43.9,3655],[45.5,3744],[46.2,3829],[46.2,3917],[46.3,4003],[46.8,4090],[46.8,4187],[46.8,4278],[46.9,4362],[46.9,4444],[46.9,4535],[46.9,4618],[46.9,4708],[46.9,4792],[46.9,4875],[46.9,4959],[46.9,5045],[46.9,5132],[46.9,5216],[46.9,5299],[47.3,5390],[47.3,5473],[47.3,5556],[47,5641],[46.6,5723],[46.2,5806],[46.2,5896],[46.2,5982],[45.5,6072],[45.4,6153],[45.4,6238],[45,6320],[45,6410],[45,6493],[45,6577],[45,6667],[44.7,6766],[44.7,6848],[44.7,6938],[44.7,7031],[44.7,7112],[44.7,7202],[44.5,7298],[44.3,7390],[44.3,7483],[44.1,7570],[44.1,7653],[44.1,7744],[44.1,7829],[44.1,7926],[44.1,8008],[43.7,8091],[43.7,8175],[43.7,8258],[43.7,8341],[43.7,8424],[45.1,8525],[45.2,8612],[45.2,8695],[45.2,8779],[45.3,8862],[46.5,8953],[47.3,9043],[47.5,9126],[49.4,9223],[51.1,9309],[52.1,9399],[52.1,9487],[52.1,9571],[52.1,9654],[52.1,9740],[52.1,9821],[52.1,9904],[52.1,9990],[52.1,10077],[51.7,10161],[51.7,10244],[51.8,10335],[52.6,10418],[52.7,10510],[53.3,10592],[55.3,10687],[55.3,10765],[55.3,10851],[55.3,10932],[55.3,11015],[55.3,11101],[55.3,11184],[55.3,11275],[55.3,11358],[55.3,11447],[55.3,11531],[55.3,11620],[55.3,11703],[55.7,11803],[56.7,11890],[57.2,11978],[57.3,12064],[57.4,12147],[57.4,12238],[57.6,12322],[58,12405],[58.7,12498],[58.8,12578],[59.5,12669],[60.2,12754],[61.4,12844],[63.8,12933],[66.4,13023],[69,13115],[69.6,13197],[71.3,13283],[72.3,13377],[74.4,13464],[76.3,13553],[76.8,13641],[78,13732],[79.8,13824],[81.3,13918],[82.4,14002],[83.8,14087],[85.2,14169],[86.6,14255],[87.7,14340],[88.1,14419],[88.1,14502],[88.1,14585],[88.5,14669],[89.4,14759],[91.1,14842],[92.4,14934],[93.6,15017],[94,15099],[94.7,15183],[95,15278],[95.7,15363],[96.3,15449],[96.7,15537],[96.7,15622],[96.7,15711],[96.7,15794],[96.7,15879],[96.7,15961],[96.7,16044],[96.7,16129],[96.7,16217],[96.7,16301],[96.7,16393],[96.8,16476],[96.8,16558],[96.8,16641],[96.8,16724],[96.8,16808],[96.8,16891],[96.8,16975],[96.8,17067],[96.8,17156],[96.8,17245],[96.8,17323],[96.8,17407],[96.8,17497],[96.8,17579],[96.8,17662],[96.8,17752],[96.8,17836],[96.8,17926],[96.8,18012],[96.8,18100],[96.8,18183],[96.8,18266],[96.8,18350],[96.8,18435],[96.8,18517],[96.8,18607],[96.8,18690],[96.8,18773],[96.8,18857],[96.8,18949],[96.8,19039],[96.8,19128],[96.8,19214],[96.8,19303],[95.4,19395],[95.1,19484],[94.7,19574],[94.5,19662],[94.4,19746],[94.4,19829],[94.4,19923],[94.4,20010],[94.4,20100],[94.4,20200],[94.4,20284],[94.8,20371],[94.9,20456],[94.9,20547],[95.1,20628],[95.1,20713],[95.1,20802],[95.1,20887],[95.1,20975],[95.1,21058],[95.1,21157],[95.1,21246],[95.1,21329],[95.1,21420],[95.1,21503],[95.1,21601],[95.1,21684],[95.1,21769],[95.1,21865],[95.1,21955],[95.1,22038],[95.1,22135],[94.6,22226],[93.6,22316]]",1,0,283.6513,285.3757,93.55095541,0.7319,"[{""rating"":93.55095541401273,""responseTime"":0.7319000000953793}]",space,1.2053,,285.3757,Not at all,0,285.3767,,,[],,0,3,3,3,1,audio/Narrative7Situation3.wav,audio/Narrative8Situation3.wav,audio/Narrative5Situation3.wav,audio/Narrative6Situation3.wav,8,4,3,5,,,,,,,,,,,,,,,,,,,,,,,,,,,,,,,,,,,,,,,
,,,,,,5c1053202b16ba0001c86317,2024-05-13_10h22.52.759,group3.1-3.2-social-tom,2023.2.2,Win32,144.9275362,65c5074098b851296ff0b7ed,6642300c2a47e00465306638,,,,,,,,,,,,,,,,,,,,,,,,,,,,,285.3769,1,audio/Narrative8Situation4.wav,288.3834,,288.3835,302.5447,"[[999,0],[999,90],[999,180],[999,270],[999,360],[53.5,451],[53,541],[52.9,630],[52.8,715],[52.1,805],[51.6,895],[51.4,976],[51.4,1067],[51.4,1164],[50.2,1250],[49.7,1330],[49.7,1414],[49.7,1497],[49.7,1589],[49.7,1679],[49.7,1768],[49.7,1851],[49.4,1937],[49.4,2020],[49.4,2109],[49.4,2192],[49.4,2277],[49.4,2368],[49.4,2449],[49.4,2532],[49.4,2617],[49.4,2706],[49.4,2789],[49.4,2872],[49.4,2958],[49.4,3040],[49.4,3136],[49.4,3227],[49.4,3317],[49.4,3408],[49.4,3491],[49.4,3574],[49.4,3657],[49.4,3741],[49.4,3833],[49.4,3916],[49.4,4000],[49.4,4081],[49.4,4164],[49.4,4255],[49.1,4345],[48.9,4428],[48.2,4519],[48.3,4604],[54.7,4700],[58,4793],[58.8,4903],[60.1,4994],[61.9,5081],[62.6,5171],[64,5257],[65.2,5346],[65.5,5436],[66.5,5529],[68,5610],[68.9,5700],[69.2,5790],[69.7,5880],[70.1,5963],[70.1,6054],[70.1,6137],[70.9,6233],[71.7,6318],[74.2,6409],[75.4,6491],[76.3,6578],[78.8,6662],[81.5,6742],[83.7,6834],[86.1,6922],[87.7,7009],[89.8,7092],[90.9,7179],[92.2,7269],[92.8,7352],[94.6,7444],[95.1,7534],[96.4,7626],[96.4,7706],[96.9,7792],[96.9,7880],[100,7974],[100,8054],[100,8137],[100,8221],[100,8311],[100,8394],[100,8479],[100,8561],[100,8651],[100,8735],[100,8820],[100,8910],[100,8994],[100,9076],[100,9172],[100,9262],[100,9347],[100,9429],[100,9512],[100,9603],[100,9686],[100,9776],[100,9860],[100,9952],[100,10040],[100,10124],[100,10207],[100,10290],[100,10381],[100,10471],[100,10561],[100,10658],[100,10742],[100,10826],[100,10908],[100,11000],[100,11082],[100,11166],[100,11256],[100,11347],[100,11436],[100,11527],[100,11610],[100,11696],[100,11791],[100,11881],[100,11964],[100,12048],[100,12131],[100,12230],[100,12313],[100,12404],[100,12487],[100,12569],[100,12652],[100,12735],[100,12818],[100,12902],[100,12985],[100,13071],[100,13161],[100,13242],[100,13333],[100,13416],[100,13499],[100,13597],[100,13680],[100,13763],[100,13847],[100,13930],[100,14014],[100,14097]]",1,0,302.5448,304.3634,99.68152866,0.7636,"[{""rating"":99.68152866242038,""responseTime"":0.7635999999046135}]",space,1.2941,,304.3634,Definitely yes,100,304.3656,,,[],,0,4,4,4,1,audio/Narrative7Situation4.wav,audio/Narrative8Situation4.wav,audio/Narrative5Situation4.wav,audio/Narrative6Situation4.wav,3,3,1,2,,,,,,,,,,,,,,,,,,,,,,,,,,,,,,,,,,,,,,,
,,,,,,5c1053202b16ba0001c86317,2024-05-13_10h22.52.759,group3.1-3.2-social-tom,2023.2.2,Win32,144.9275362,65c5074098b851296ff0b7ed,6642300c2a47e00465306638,,,,,,,,,,,,,,,,,,,,,,,,,,,,,304.3658,1,audio/Narrative8Situation5.wav,306.3703,,306.3703,314.6013,"[[999,0],[999,90],[999,173],[70.4,264],[59.9,360],[50.2,451],[47.9,812],[47.9,898],[47.8,979],[48.2,1062],[48.2,1146],[49.3,1230],[49.3,1312],[49.4,1402],[49.4,1486],[49.4,1579],[49.4,1659],[50,1746],[51.6,1834],[52.2,1919],[54.6,2007],[55.5,2099],[55.5,2180],[56.1,2279],[57,2361],[58.5,2454],[60.4,2545],[62.3,2637],[64.1,2724],[64.9,2807],[66.2,2898],[68.2,2986],[70.9,3072],[73.2,3153],[74.3,3250],[75.8,3336],[77,3419],[77,3500],[77,3586],[77,3675],[77,3757],[77,3849],[77,3931],[77,4014],[77,4100],[77,4181],[77,4264],[77,4361],[77,4445],[77,4528],[77,4611],[77,4703],[77,4794],[77,4875],[77,4967],[77,5050],[77,5132],[77,5218],[77,5315],[77,5396],[77,5481],[77,5563],[77,5653],[77,5738],[77,5822],[77,5904],[77,6002],[77,6084],[77,6169],[77,6257],[77,6341],[77,6424],[77,6507],[77,6607],[77,6688],[77,6771],[77,6855],[77,6938],[77,7028],[77,7114],[77,7195],[77,7278],[77,7362],[77,7452],[77,7536],[77,7619],[77,7702],[77,7785],[77,7876],[77,7968],[77,8049],[78.1,8140],[78.6,8223]]",1,0,314.6014,317.6593,88.93312102,1.7034,"[{""rating"":88.93312101910828,""responseTime"":1.703400000095371}]",space,2.5425,,317.6593,Definitely yes,100,317.6607,,,[],,0,5,5,5,1,audio/Narrative7Situation5.wav,audio/Narrative8Situation5.wav,audio/Narrative5Situation5.wav,audio/Narrative6Situation5.wav,5,2,5,2,,,,,,,,,,,,,,,,,,,,,,,,,,,,,,,,,,,,,,,
,,,,,,5c1053202b16ba0001c86317,2024-05-13_10h22.52.759,group3.1-3.2-social-tom,2023.2.2,Win32,144.9275362,65c5074098b851296ff0b7ed,6642300c2a47e00465306638,,,,,,,,,,,,,,,,,,,,,,,,,,,,,317.6609,1,audio/Narrative8Situation6.wav,319.6648,,319.6648,326.1262,"[[999,0],[999,91],[999,173],[999,256],[999,348],[999,430],[999,522],[999,603],[999,687],[999,770],[999,860],[999,945],[999,1040],[51.7,1124],[50.8,1216],[50.6,1305],[50.6,1402],[50.5,1485],[50.5,1569],[50.5,1659],[50.5,1751],[50.7,1836],[54.7,1918],[59.2,2017],[61.4,2104],[61.4,2194],[62.4,2286],[62.7,2368],[62.9,2453],[62.9,2534],[62.9,2619],[62.9,2701],[62.9,2784],[62.9,2867],[62.9,2951],[62.7,3036],[62.3,3127],[62.3,3215],[62.3,3305],[62.3,3388],[61.9,3480],[61.9,3562],[61.9,3645],[60.7,3736],[60.5,3812],[60.5,3896],[59.6,3979],[59.6,4069],[59.6,4155],[59.6,4243],[59.6,4333],[59.6,4423],[59.6,4507],[60.5,4597],[61.3,4689],[61.5,4771],[61.5,4861],[61.5,4946],[61.5,5028],[61.5,5111],[61.5,5201],[61.5,5291],[61.5,5375],[61.5,5472],[59.2,5563],[55.1,5646],[55.1,5736],[53.7,5833],[53.2,5917],[53.2,6000],[53.2,6083],[53.2,6169],[51.9,6250],[51.7,6341],[49.2,6427]]",1,0,326.1263,328.2232,19.10828025,0.8756,"[{""rating"":19.10828025477707,""responseTime"":0.8755999999046367}]",space,1.5813,,328.2233,Not at all,0,328.2248,,,[],,0,6,6,6,1,audio/Narrative7Situation6.wav,audio/Narrative8Situation6.wav,audio/Narrative5Situation6.wav,audio/Narrative6Situation6.wav,3,2,3,2,,,,,,,,,,,,,,,,,,,,,,,,,,,,,,,,,,,,,,,
,,,,,,5c1053202b16ba0001c86317,2024-05-13_10h22.52.759,group3.1-3.2-social-tom,2023.2.2,Win32,144.9275362,65c5074098b851296ff0b7ed,6642300c2a47e00465306638,,,,,,,,,,,,,,,,,,,,,,,,,,,,,328.2249,1,audio/Narrative8Situation7.wav,331.2289,,331.229,343.3005,"[[999,0],[999,85],[999,166],[999,258],[53.6,347],[53.3,437],[52.7,531],[51.8,620],[51.8,701],[50.2,784],[50,875],[49.8,967],[49.8,1049],[49.8,1140],[49.8,1229],[49.8,1312],[49.8,1404],[49.8,1499],[49.8,1592],[49.8,1680],[49.8,1763],[49.8,1847],[49.8,1937],[49.3,2027],[49.3,2112],[49.1,2201],[48.7,2298],[48.7,2382],[48.7,2467],[48.7,2555],[48.7,2641],[48.7,2731],[48.7,2813],[48.7,2898],[48.7,2993],[48.7,3083],[48.7,3173],[48.7,3264],[48.7,3347],[48.7,3433],[48.7,3521],[50.6,3611],[53,3704],[55.3,3792],[56.6,3875],[57.3,3975],[59.4,4064],[60.7,4148],[61.1,4236],[61.1,4320],[61.1,4405],[63.6,4496],[65.6,4577],[65.8,4660],[67.3,4753],[77.1,4836],[78,4917],[79.5,5000],[79.6,5093],[79.6,5188],[79.6,5278],[79.6,5368],[79.6,5454],[79.6,5535],[79.6,5619],[79.6,5702],[79.4,5792],[79.4,5875],[79.4,5968],[79.4,6052],[79.4,6141],[79.4,6237],[79.4,6320],[79.4,6405],[79.4,6493],[79.4,6584],[79.4,6669],[79.4,6752],[79.4,6843],[79.4,6924],[79.4,7010],[79.4,7091],[79.4,7174],[79.4,7258],[79.4,7341],[79.4,7425],[79.4,7514],[79.4,7612],[79.4,7695],[79.4,7779],[79.4,7864],[79.4,7952],[79.4,8035],[79.4,8119],[79.4,8202],[79.4,8288],[79.4,8383],[81.1,8473],[86.1,8567],[87.2,8653],[87.2,8739],[87.2,8820],[87.2,8906],[87.2,8987],[87.2,9077],[87.7,9170],[87.7,9251],[87.7,9337],[87.7,9425],[87.7,9508],[87.7,9601],[87.7,9682],[87.7,9779],[87.7,9869],[87.7,9962],[87.7,10050],[87.7,10133],[87.7,10224],[87.7,10321],[87.7,10404],[87.7,10487],[87.7,10571],[87.7,10661],[87.7,10744],[87.7,10828],[87.9,10918],[87.9,11004],[87.9,11092],[87.9,11182],[88.2,11272],[88.9,11378],[88.9,11460],[90.7,11543],[92.6,11627],[94,11734],[94.1,11814],[94.5,11897],[94.7,11990]]",1,0,343.3006,344.8425,94.6656051,0.6143,"[{""rating"":94.66560509554141,""responseTime"":0.614300000190724}]",space,1.0235,,344.8427,Definitely yes,100,344.8448,,,[],,0,7,7,7,1,audio/Narrative7Situation7.wav,audio/Narrative8Situation7.wav,audio/Narrative5Situation7.wav,audio/Narrative6Situation7.wav,5,3,4,5,,,,,,,,,,,,,,,,,,,,,,,,,,,,,,,,,,,,,,,
,,,,,,5c1053202b16ba0001c86317,2024-05-13_10h22.52.759,group3.1-3.2-social-tom,2023.2.2,Win32,144.9275362,65c5074098b851296ff0b7ed,6642300c2a47e00465306638,,,,,,,,,,,,,,,,,,,,,,,,,,,,,344.8448,1,audio/Narrative8Situation8.wav,347.8498,,347.8498,360.6854,"[[999,4],[999,90],[999,180],[999,277],[999,368],[999,458],[999,548],[51,632],[50.6,729],[50.4,812],[50.4,895],[50.4,981],[50.4,1062],[50.4,1146],[50.3,1236],[50.3,1319],[50.3,1404],[50.3,1488],[50.3,1578],[50.1,1662],[50.1,1743],[50.1,1829],[50.1,1912],[50.1,1993],[49.8,2086],[49.6,2167],[49.6,2251],[48.5,2343],[48.5,2446],[48.5,2530],[48.5,2618],[48.5,2708],[48.5,2800],[48.5,2884],[48.5,2968],[48.5,3064],[48.5,3146],[48.5,3229],[48.5,3313],[48.5,3398],[48.5,3479],[48.5,3571],[48.5,3653],[48.5,3738],[48.5,3827],[48.5,3917],[48.5,4007],[47.9,4094],[47.7,4176],[47.7,4271],[47.5,4357],[47.5,4438],[47,4521],[47,4611],[47,4695],[47,4780],[47,4861],[47,4954],[47,5035],[47,5120],[46,5211],[45.9,5292],[45.9,5375],[45.9,5459],[45.9,5542],[45.9,5627],[45.9,5717],[45.9,5799],[45.9,5882],[45.9,5966],[44.7,6051],[44.7,6141],[46,6223],[47.4,6313],[48.2,6417],[50.4,6503],[50.6,6591],[51.6,6681],[51.6,6767],[51.6,6855],[51.6,6947],[51.6,7028],[52.1,7115],[52.1,7201],[52.1,7292],[52.1,7376],[52.1,7461],[52.1,7551],[52.1,7661],[52.1,7744],[52.1,7835],[52.1,7924],[52.1,8015],[52.1,8098],[52.1,8181],[52.1,8265],[52.1,8348],[52.1,8431],[52.1,8515],[52.6,8605],[52.6,8695],[52.6,8779],[52.6,8862],[52.6,8953],[52.6,9043],[52.6,9126],[52.6,9209],[52.6,9293],[53.7,9383],[54.9,9470],[56.4,9564],[56.4,9647],[57.5,9752],[58.2,9835],[58.4,9918],[59.5,10015],[60.4,10105],[62,10196],[64.3,10286],[65.5,10376],[67.6,10467],[68.2,10559],[68.4,10644],[68.9,10738],[69.4,10828],[71.3,10915],[72.6,10995],[73.3,11081],[73.8,11162],[73.8,11258],[73.8,11350],[75.6,11442],[80.7,11524],[80.7,11613],[80.7,11697],[80.7,11780],[80.7,11863],[80.7,11946],[80.7,12029],[81.6,12120],[82.3,12210],[82.3,12293],[82.3,12377],[82.8,12467],[82.8,12550],[82.8,12641],[82.8,12724],[82.8,12807]]",1,0,360.6855,362.3479,82.48407643,0.5118,"[{""rating"":82.48407643312102,""responseTime"":0.5118000001907035}]",space,1.1465,,362.348,Definitely yes,100,362.3492,,,[],,0,8,8,8,1,audio/Narrative7Situation8.wav,audio/Narrative8Situation8.wav,audio/Narrative5Situation8.wav,audio/Narrative6Situation8.wav,2,3,3,5,,,,,,,,,,,,,,,,,,,,,,,,,,,,,,,,,,,,,,,
,,,,,,5c1053202b16ba0001c86317,2024-05-13_10h22.52.759,group3.1-3.2-social-tom,2023.2.2,Win32,144.9275362,65c5074098b851296ff0b7ed,6642300c2a47e00465306638,,,,,,,,,,,,,,,,,,,,,,,,,,,,,362.3493,1,audio/Narrative8Situation9.wav,365.3527,,365.3528,376.6605,"[[999,0],[999,83],[999,166],[999,258],[999,347],[999,431],[999,520],[50.7,611],[50.7,694],[50.7,778],[50.5,871],[50.4,959],[50.4,1050],[50.4,1139],[50.4,1223],[50.4,1305],[50.4,1390],[50.4,1472],[50.4,1555],[50.4,1639],[50.4,1731],[50.4,1812],[50.4,1896],[50.4,1979],[50.4,2069],[50.4,2153],[50.4,2236],[50.4,2321],[50.4,2417],[50.4,2500],[50.4,2591],[50.4,2674],[50.4,2757],[50.4,2840],[50.4,2931],[50.4,3021],[50.4,3104],[50.4,3188],[50.4,3278],[50.5,3361],[50.6,3451],[50.6,3535],[50.6,3625],[50.6,3709],[50.6,3792],[50.6,3882],[50.6,3973],[50.6,4063],[50.9,4148],[50.9,4236],[50.9,4320],[52.9,4407],[53.4,4494],[53.4,4584],[54.1,4668],[57.6,4760],[61.2,4841],[66.3,4925],[71.2,5015],[76.3,5112],[80.5,5198],[83.1,5287],[88.6,5373],[89.5,5455],[91.7,5549],[92.7,5642],[93,5725],[93,5813],[93,5896],[93,5980],[93,6071],[93,6168],[93.4,6252],[93.4,6334],[93.4,6417],[93.4,6503],[93.5,6600],[93.5,6684],[93.5,6772],[93.5,6855],[93.5,6938],[93.5,7024],[93.5,7105],[93.5,7190],[93.5,7279],[93.5,7363],[93.5,7455],[93.5,7545],[93.5,7626],[93.5,7716],[93.5,7807],[93.5,7890],[93.5,7980],[93.5,8064],[93.5,8154],[93.5,8240],[93.5,8320],[93.5,8404],[93.5,8494],[93.5,8579],[93.5,8661],[93.5,8751],[94.3,8834],[94.5,8918],[96,9001],[96.5,9092],[97.5,9175],[98.9,9269],[99.3,9353],[99.6,9434],[99.8,9515],[99.8,9599],[99.8,9684],[99.8,9774],[99.8,9855],[99.8,9939],[99.8,10030],[99.8,10113],[98.8,10199],[98.6,10286],[98.3,10383],[98.3,10467],[98.3,10550],[98.3,10640],[98.3,10724],[98.3,10821],[99,10908],[99.2,10988],[99.2,11071],[99.2,11155],[99.2,11254]]",1,0,376.6606,377.4111,99.44267516,0.5234,"[{""rating"":99.44267515923566,""responseTime"":0.5234000000953642}]",space,0.2246,,377.4112,Partially,50,377.4134,,,[],,0,9,9,9,1,audio/Narrative7Situation9.wav,audio/Narrative8Situation9.wav,audio/Narrative5Situation9.wav,audio/Narrative6Situation9.wav,2,3,3,4,,,,,,,,,,,,,,,,,,,,,,,,,,,,,,,,,,,,,,,
,,,,,,5c1053202b16ba0001c86317,2024-05-13_10h22.52.759,group3.1-3.2-social-tom,2023.2.2,Win32,144.9275362,65c5074098b851296ff0b7ed,6642300c2a47e00465306638,,,,,,,,,,,,,,,,,,,,,,,,,,,,,377.4136,1,audio/Narrative7Situation1.wav,379.4192,,379.4192,435.2896,"[[999,0],[999,82],[999,172],[999,255],[999,345],[999,431],[999,512],[50.3,610],[47.5,708],[47.5,797],[47.5,889],[47.9,973],[49,1061],[49,1158],[49,1242],[49.3,1332],[49.3,1416],[49.3,1498],[49.3,1589],[49.3,1674],[49.3,1762],[49.3,1846],[49.3,1929],[49.3,2012],[49.3,2096],[49.3,2188],[49.3,2269],[49.3,2353],[49.3,2436],[49.3,2529],[51.6,2612],[51.8,2693],[51.8,2778],[53.1,2874],[54.4,2957],[54.9,3040],[54.9,3131],[54.9,3216],[54.9,3297],[54.9,3390],[52.4,3481],[48.3,3570],[47.7,3666],[46,3751],[46,3835],[46,3918],[46,3999],[46,4085],[46,4175],[46,4263],[46,4353],[46,4436],[46,4522],[47.6,4612],[47.6,4700],[50.6,4786],[55.9,4874],[56,4964],[56,5048],[56,5131],[56,5214],[56,5300],[56,5382],[56,5471],[56,5562],[56,5653],[56,5742],[56,5826],[56.7,5912],[58.5,6010],[58.5,6096],[58.5,6180],[59.5,6273],[59.5,6356],[59.5,6444],[59.5,6534],[59.5,6617],[59.5,6701],[59.5,6793],[59.5,6882],[59.5,6966],[59.4,7056],[56.8,7149],[56.8,7232],[56.8,7322],[56.8,7409],[56.8,7501],[56.8,7583],[56.8,7681],[56.8,7763],[56.8,7847],[56.8,7932],[56.8,8014],[58.9,8097],[61.4,8183],[64.3,8274],[65.8,8361],[67,8453],[67.8,8557],[67.8,8639],[67.8,8724],[67.8,8812],[67.7,8903],[67.4,8990],[65.4,9069],[65.2,9159],[62.9,9246],[61.7,9326],[61.7,9410],[61.7,9502],[61.7,9583],[61.7,9673],[61.7,9757],[61.7,9847],[61.7,9932],[61.7,10014],[61.7,10099],[61.7,10180],[61.7,10280],[61.7,10361],[61.7,10446],[63.8,10542],[65.6,10632],[67.4,10724],[69,10813],[71,10899],[73.2,10989],[74.2,11070],[74.2,11153],[74.2,11237],[74.2,11327],[74.2,11417],[74.2,11500],[74.2,11583],[74.2,11667],[74.2,11750],[74.6,11841],[74.6,11924],[74.6,12008],[74.6,12091],[74.6,12183],[74.6,12265],[74.6,12354],[74.6,12438],[74.6,12521],[74.6,12612],[74.6,12702],[74.6,12785],[74.6,12871],[74.6,12952],[74.6,13042],[74.6,13125],[74.6,13209],[74.6,13301],[74.6,13389],[74.6,13480],[74.6,13563],[74.6,13662],[74.6,13751],[74.6,13836],[74.6,13917],[74.6,14002],[74.6,14091],[74.6,14183],[74.6,14265],[74.6,14348],[74.6,14439],[74.6,14528],[74.6,14619],[74.6,14704],[74.6,14795],[74.6,14883],[74.6,14968],[74.6,15057],[74.6,15140],[74.6,15232],[74.6,15313],[74.6,15403],[74.6,15487],[74.6,15573],[74.6,15668],[74.6,15751],[74.6,15849],[74.6,15934],[74.6,16015],[74.6,16098],[74.6,16182],[74.6,16265],[74.6,16348],[74.6,16432],[74.6,16515],[74.6,16608],[74.6,16689],[74.6,16772],[74.6,16864],[74.6,16946],[74.6,17029],[74.6,17119],[74.6,17203],[74.6,17286],[74.6,17371],[74.6,17455],[74.6,17544],[74.8,17640],[75.2,17725],[75.6,17809],[75.9,17893],[76.4,17973],[76.4,18064],[76.8,18154],[76.8,18238],[77.1,18330],[77.5,18411],[77.5,18501],[77.5,18585],[77.5,18677],[77.5,18758],[77.5,18849],[77.5,18932],[77.5,19018],[77.5,19099],[77.5,19182],[77.5,19273],[77.5,19356],[77.5,19446],[77.5,19536],[77.5,19620],[77.5,19710],[77.5,19793],[77.5,19878],[77.5,19967],[77.5,20064],[77.5,20148],[77.5,20240],[78,20324],[78.5,20407],[78.5,20497],[80.5,20588],[89.5,20669],[91.1,20752],[91.1,20835],[91.1,20926],[91.1,21009],[91.1,21092],[91.1,21176],[91.1,21261],[91.1,21352],[91.1,21440],[91.1,21524],[91.1,21606],[91.1,21698],[91.1,21780],[91.1,21865],[91.1,21947],[91.1,22039],[91.1,22120],[91.1,22205],[91.1,22295],[91.1,22384],[91.1,22474],[91.1,22558],[91,22648],[87.8,22740],[86.1,22828],[86.1,22926],[86.1,23009],[86.1,23092],[86.1,23176],[86.1,23259],[86.1,23343],[86.1,23434],[86.1,23516],[86.1,23602],[86.1,23683],[86.1,23766],[86.1,23857],[86.1,23947],[84.6,24037],[79,24144],[79,24227],[79,24317],[79,24398],[78.7,24482],[76.8,24573],[76.3,24655],[76.3,24746],[76.3,24836],[76.3,24919],[76.3,25003],[76.3,25093],[76.3,25176],[76.3,25266],[76.3,25359],[76.3,25447],[76.3,25530],[76.3,25614],[76.3,25697],[76.3,25780],[76.3,25866],[76.3,25947],[76.3,26031],[76.3,26123],[76.3,26211],[76.3,26294],[76.3,26378],[76.3,26461],[76.3,26552],[76.3,26635],[76.3,26718],[76.3,26808],[74.7,26901],[66.2,26982],[66.2,27065],[66.2,27151],[66.2,27235],[66.2,27318],[60.8,27401],[59.3,27483],[59.3,27579],[56.8,27673],[56.3,27763],[53.9,27850],[53.9,27936],[53.9,28027],[53.9,28107],[53.9,28191],[53.2,28277],[53.1,28364],[53.1,28455],[53.1,28538],[53.1,28633],[53.1,28712],[53.1,28802],[53.1,28892],[52.5,28979],[52.3,29066],[52.3,29151],[51.2,29242],[50.7,29323],[50.7,29408],[50.7,29503],[50.7,29587],[50.7,29670],[50.7,29753],[50.7,29844],[50.7,29928],[50.7,30026],[50.7,30107],[50.7,30198],[50.7,30288],[50.7,30379],[50.7,30462],[50.7,30545],[50.7,30630],[50.7,30726],[50.7,30818],[50.7,30913],[50.7,30997],[50.7,31089],[50.7,31177],[50.7,31274],[50.7,31360],[50.7,31443],[50.7,31526],[50.7,31615],[50.7,31698],[50.7,31782],[50.7,31865],[50.7,31948],[50.7,32047],[50.7,32136],[50.7,32219],[50.7,32302],[50.7,32393],[50.7,32483],[50.7,32567],[50.7,32657],[50.7,32754],[50.7,32846],[50.5,32937],[50.4,33019],[50.4,33103],[50.4,33207],[50.4,33305],[50.4,33386],[50.4,33477],[50.4,33560],[50.4,33650],[52.9,33734],[58.4,33824],[58.8,33907],[60.3,33998],[60.6,34088],[64.7,34178],[64.8,34261],[65.4,34346],[65.4,34428],[65.4,34520],[66.2,34605],[66.2,34693],[66.2,34777],[66.2,34866],[66.2,34949],[66.2,35041],[66.2,35122],[66.2,35213],[66.2,35303],[66.6,35396],[66.6,35477],[66.6,35567],[66.6,35658],[66.6,35747],[66.8,35831],[67,35914],[68.6,36004],[69.9,36095],[73.3,36187],[76.8,36283],[78.9,36366],[80.3,36449],[81.1,36540],[81.3,36623],[81.5,36706],[81.5,36789],[81.5,36882],[81.5,36966],[81.5,37053],[81.5,37153],[81.5,37234],[81.5,37319],[81.5,37401],[81.5,37484],[82.2,37570],[82.2,37652],[82.2,37743],[82.2,37824],[82.2,37908],[82.2,37998],[82,38081],[81.8,38165],[81.8,38248],[81.8,38331],[81.8,38415],[81.8,38498],[81.8,38590],[81.8,38672],[81.8,38762],[81.8,38845],[81.8,38936],[81.8,39019],[81.8,39110],[81.7,39201],[81.6,39292],[81.6,39375],[81.6,39456],[81.6,39540],[81.6,39625],[81.6,39715],[81.6,39804],[81.6,39890],[81.6,39977],[81.6,40063],[81.6,40145],[81.6,40241],[81.6,40325],[81.5,40408],[81.5,40505],[81.4,40596],[81.4,40681],[81.4,40762],[81.4,40846],[81.4,40931],[81.4,41012],[81.4,41103],[81.4,41186],[81.4,41276],[81.4,41360],[81.4,41450],[81.4,41533],[81.4,41624],[81.4,41707],[81.4,41790],[81.4,41881],[81.4,41964],[81.4,42047],[81.4,42138],[81.4,42230],[81.4,42311],[81.4,42394],[81.4,42478],[81.4,42561],[81.4,42652],[81.4,42744],[81.4,42825],[81.4,42908],[81.4,42999],[81.4,43082],[81.4,43165],[81.4,43256],[81.1,43340],[80.9,43431],[80.9,43520],[80.9,43603],[80.9,43686],[80.9,43779],[80.9,43860],[80.9,43943],[80.9,44027],[80.9,44110],[80.9,44193],[80.9,44286],[80.9,44374],[80.9,44458],[80.9,44545],[80.9,44631],[80.9,44721],[80.9,44812],[80.9,44902],[80.9,44985],[80.9,45078],[80.9,45159],[80.9,45242],[80.9,45327],[80.9,45416],[80.9,45499],[80.9,45585],[80.9,45673],[80.9,45758],[80.9,45846],[80.9,45937],[80.9,46027],[80.9,46110],[80.9,46194],[80.9,46280],[80.9,46370],[80.9,46458],[80.9,46555],[80.9,46638],[80.9,46729],[80.9,46812],[80.9,46902],[80.9,46992],[80.9,47085],[80.9,47180],[80.9,47263],[80.9,47347],[80.9,47437],[80.9,47523],[80.9,47604],[80.9,47687],[80.9,47778],[80.9,47870],[80.9,47958],[80.9,48050],[80.9,48139],[80.9,48224],[80.9,48312],[80.9,48398],[80.9,48479],[80.9,48562],[80.9,48648],[80.9,48743],[80.9,48826],[80.9,48912],[80.9,48993],[80.9,49083],[80.9,49167],[80.9,49257],[80.9,49340],[80.9,49432],[80.9,49521],[80.9,49611],[80.9,49702],[80.9,49792],[80.9,49882],[80.9,49972],[80.9,50056],[80.9,50146],[80.9,50243],[80.9,50327],[80.9,50411],[80.9,50500],[80.9,50590],[80.9,50682],[80.9,50771],[80.9,50861],[80.9,50945],[80.9,51028],[80.9,51111],[80.9,51195],[80.9,51278],[80.9,51368],[80.9,51452],[80.9,51535],[80.9,51618],[80.9,51702],[80.9,51785],[80.9,51870],[80.9,51966],[80.9,52049],[80.9,52132],[80.9,52218],[80.9,52299],[80.9,52391],[80.9,52480],[80.9,52563],[80.9,52653],[80.9,52737],[80.9,52827],[80.9,52910],[80.9,52994],[80.9,53091],[80.9,53183],[80.9,53265],[80.9,53350],[80.9,53431],[80.9,53515],[80.9,53605],[80.9,53688],[80.9,53779],[80.9,53869],[80.9,53952],[80.9,54035],[80.9,54133],[80.9,54223],[80.9,54313],[80.9,54399],[80.9,54480],[80.9,54563],[80.9,54652],[80.9,54737],[80.9,54821],[80.9,54904],[80.9,54987],[80.9,55070],[80.9,55163],[80.9,55244],[80.9,55329],[80.9,55427],[80.9,55508],[81.3,55602],[81.8,55683],[81.8,55767],[81.8,55851]]",1,0,435.2898,437.2337,81.84713376,0.7308,"[{""rating"":81.84713375796177,""responseTime"":0.7308000001907544}]",space,1.4256,,437.2337,Not at all,0,437.2356,,,[],,0,10,10,10,1,audio/Narrative8Situation1.wav,audio/Narrative7Situation1.wav,audio/Narrative6Situation1.wav,audio/Narrative5Situation1.wav,5,2,2,5,,,,,,,,,,,,,,,,,,,,,,,,,,,,,,,,,,,,,,,
,,,,,,5c1053202b16ba0001c86317,2024-05-13_10h22.52.759,group3.1-3.2-social-tom,2023.2.2,Win32,144.9275362,65c5074098b851296ff0b7ed,6642300c2a47e00465306638,,,,,,,,,,,,,,,,,,,,,,,,,,,,,437.2358,1,audio/Narrative7Situation2.wav,440.2411,,440.2412,447.7107,"[[61.9,1114],[60.3,1194],[57.2,1285],[55.7,1371],[54.4,1461],[52.8,1550],[52.2,1641],[51.4,1729],[51.4,1812],[51.4,1897],[51.4,1986],[51.2,2071],[50.6,2159],[50.4,2243],[50.4,2333],[50.4,2419],[49,2510],[48.6,2591],[48.6,2680],[46,2774],[45.8,2868],[44,2958],[43.8,3049],[42,3140],[41.6,3231],[40.9,3319],[40.9,3410],[40.9,3493],[40.9,3576],[40.4,3669],[40,3757],[39.7,3840],[39.7,3924],[38,4015],[36.5,4107],[36.5,4188],[36.5,4278],[37.3,4370],[43.9,4460],[48.4,4545],[54.7,4632],[59.9,4718],[66.5,4802],[68.5,4882],[72.7,4975],[75.7,5063],[79.6,5168],[80.5,5257],[81.1,5348],[81.6,5431],[82.1,5515],[83.5,5599],[83.8,5683],[84.5,5764],[84.5,5848],[84.5,5933],[84.5,6031],[84.5,6119],[84.5,6202],[84.5,6287],[84.5,6369],[84.5,6452],[84.5,6542],[84.5,6626],[84.5,6709],[84.5,6801],[84.5,6889],[84.5,6973],[85.7,7060],[85.7,7140],[85.7,7225],[85.7,7309],[85.7,7392]]",1,0,447.7108,449.1038,88.93312102,0.5276,"[{""rating"":88.93312101910828,""responseTime"":0.5275999999046235}]",space,0.8764,,449.1038,Not at all,0,449.1051,,,[],,0,11,11,11,1,audio/Narrative8Situation2.wav,audio/Narrative7Situation2.wav,audio/Narrative6Situation2.wav,audio/Narrative5Situation2.wav,3,3,3,3,,,,,,,,,,,,,,,,,,,,,,,,,,,,,,,,,,,,,,,
,,,,,,5c1053202b16ba0001c86317,2024-05-13_10h22.52.759,group3.1-3.2-social-tom,2023.2.2,Win32,144.9275362,65c5074098b851296ff0b7ed,6642300c2a47e00465306638,,,,,,,,,,,,,,,,,,,,,,,,,,,,,449.1053,1,audio/Narrative7Situation3.wav,457.1122,,457.1123,466.3506,"[[52.5,868],[52.4,951],[50.7,1044],[50.7,1134],[50.4,1215],[50.4,1298],[50.4,1382],[50.4,1465],[50.4,1556],[50.4,1639],[50.4,1722],[50.4,1805],[50.4,1891],[50.4,1979],[50.4,2062],[50.4,2146],[50.4,2229],[50.4,2319],[50.4,2403],[50.4,2493],[50.4,2584],[50.4,2673],[50.4,2757],[50.4,2842],[50.4,2925],[50.4,3007],[50.4,3090],[50.4,3174],[50.4,3257],[50.4,3343],[50.4,3425],[50.4,3507],[50.4,3597],[50.4,3681],[50.4,3764],[50.4,3854],[50.4,3939],[50.4,4028],[50.4,4111],[50.4,4197],[50.4,4285],[50.4,4383],[50.4,4474],[50.4,4570],[50.4,4653],[50.4,4745],[50.4,4829],[50.4,4910],[49.8,5001],[48.8,5093],[48.6,5181],[48.6,5264],[48.6,5361],[48.6,5445],[48.6,5528],[48.6,5614],[48.6,5702],[48.9,5785],[49.1,5885],[49.1,5968],[49.1,6056],[49.1,6149],[49.1,6230],[49.1,6315],[49.1,6403],[49.1,6494],[49.1,6579],[49.1,6667],[49.1,6759],[49.1,6842],[49.1,6924],[49.1,7007],[49.1,7093],[49.1,7183],[49.1,7271],[49.1,7362],[49.1,7445],[50.2,7529],[50.2,7614],[51.4,7698],[52.4,7779],[52.4,7869],[52.4,7952],[58.1,8044],[61.8,8133],[63.9,8230],[63.9,8308],[63.9,8392],[63.9,8482],[64.3,8572],[65.4,8654],[65.4,8744],[65.4,8827],[65.4,8912],[65.4,8994],[66.2,9086],[68.1,9172]]",1,0,466.3507,468.0655,69.02866242,0.5185,"[{""rating"":69.02866242038218,""responseTime"":0.5185000000000173}]",space,1.1951,,468.0655,Partially,50,468.0675,,,[],,0,12,12,12,1,audio/Narrative8Situation3.wav,audio/Narrative7Situation3.wav,audio/Narrative6Situation3.wav,audio/Narrative5Situation3.wav,4,8,5,3,,,,,,,,,,,,,,,,,,,,,,,,,,,,,,,,,,,,,,,
,,,,,,5c1053202b16ba0001c86317,2024-05-13_10h22.52.759,group3.1-3.2-social-tom,2023.2.2,Win32,144.9275362,65c5074098b851296ff0b7ed,6642300c2a47e00465306638,,,,,,,,,,,,,,,,,,,,,,,,,,,,,468.0677,1,audio/Narrative7Situation4.wav,471.0729,,471.0729,482.7926,"[[64.1,430],[60.5,516],[57.9,598],[55.3,687],[52.5,778],[51,870],[50.1,952],[49.8,1041],[49.8,1127],[49.6,1208],[49.6,1298],[49.6,1382],[49.6,1465],[49.6,1548],[49.6,1632],[49.6,1722],[49.6,1814],[49.6,1896],[49.6,1988],[49.6,2069],[49.6,2154],[49.6,2243],[49.6,2326],[49.6,2415],[49.6,2500],[49.6,2584],[49.6,2675],[49.6,2759],[49.6,2847],[49.6,2931],[49.6,3014],[49.6,3097],[49.6,3181],[49.6,3264],[49.6,3347],[49.6,3437],[49.6,3521],[49.6,3614],[49.6,3695],[49.6,3785],[49.6,3868],[49.6,3954],[49.6,4042],[49.6,4125],[49.6,4215],[49.6,4299],[49.6,4382],[49.6,4466],[49.6,4549],[49.6,4639],[49.6,4729],[49.6,4815],[49.6,4899],[49.6,4980],[49.6,5070],[49.6,5153],[49.6,5236],[49.6,5322],[49.6,5413],[49.6,5500],[49.6,5584],[49.6,5682],[51.1,5772],[52.6,5862],[52.6,5954],[52.6,6043],[53,6139],[56.8,6230],[57,6313],[57,6406],[53.4,6490],[46.4,6578],[45.8,6663],[44.3,6746],[42.8,6828],[41.1,6928],[40.1,7017],[38.9,7098],[37.8,7189],[36.6,7279],[36.5,7362],[36.5,7448],[36.5,7529],[36.5,7633],[36.5,7717],[36.5,7800],[36.5,7883],[34.9,7983],[33.3,8070],[33.3,8161],[32.5,8247],[29.5,8336],[27.2,8425],[26.1,8515],[26.1,8598],[26.1,8690],[24.4,8779],[24,8864],[23.6,8946],[23.2,9029],[21.1,9128],[19.8,9223],[19.8,9307],[19.8,9390],[19.8,9473],[19.8,9557],[19.8,9648],[18.9,9733],[18.9,9821],[18.9,9911],[17.8,9996],[15.8,10085],[15.8,10169],[15.8,10258],[15.8,10342],[15.8,10425],[15.8,10511],[15.8,10594],[15.8,10690],[14.8,10779],[13.8,10872],[11.6,10955],[11.6,11036],[10,11120],[9.2,11210],[7.4,11302],[7.4,11385],[7.4,11469],[7.4,11552],[7.4,11640]]",1,0,482.7926,485.1608,4.060509554,0.9868,"[{""rating"":4.060509554140129,""responseTime"":0.9867999997139805}]",space,1.8498,,485.1608,Partially,50,485.1616,,,[],,0,13,13,13,1,audio/Narrative8Situation4.wav,audio/Narrative7Situation4.wav,audio/Narrative6Situation4.wav,audio/Narrative5Situation4.wav,3,3,2,1,,,,,,,,,,,,,,,,,,,,,,,,,,,,,,,,,,,,,,,
,,,,,,5c1053202b16ba0001c86317,2024-05-13_10h22.52.759,group3.1-3.2-social-tom,2023.2.2,Win32,144.9275362,65c5074098b851296ff0b7ed,6642300c2a47e00465306638,,,,,,,,,,,,,,,,,,,,,,,,,,,,,485.1617,1,audio/Narrative7Situation5.wav,490.162,,490.1621,498.6341,"[[999,4],[999,90],[999,180],[999,268],[999,351],[999,443],[999,535],[999,617],[999,714],[999,810],[999,910],[999,993],[51.6,1083],[50.8,1174],[50.8,1254],[50.8,1351],[50.8,1444],[50.8,1525],[50.8,1623],[50.8,1708],[50.8,1789],[50.8,1872],[50.8,1956],[50.8,2054],[50.8,2143],[50.8,2233],[50.8,2317],[50.8,2400],[50.8,2485],[50.8,2567],[50.8,2657],[50.8,2749],[50.8,2838],[50.8,2921],[50.8,3004],[50.8,3090],[50.6,3171],[50.6,3255],[50.6,3338],[50.6,3428],[50.6,3520],[50.6,3617],[50.6,3702],[50.5,3789],[50.5,3873],[50.5,3972],[50.5,4053],[50.5,4138],[50.5,4222],[50.5,4312],[50.5,4396],[50.5,4484],[50.5,4576],[50.5,4666],[50.5,4755],[50.5,4838],[50.5,4922],[50.5,5005],[50.5,5095],[50.5,5178],[50.5,5271],[50.5,5352],[50.5,5438],[50.5,5533],[50.5,5616],[50.5,5699],[50.5,5792],[50.5,5880],[50.5,5970],[50.5,6063],[50.5,6144],[50.5,6227],[50.5,6317],[50.5,6401],[50.5,6484],[50.5,6575],[50.5,6658],[50.5,6741],[50.5,6832],[50.5,6915],[50.5,7014],[50.5,7098],[50.5,7179],[50.5,7269],[50.5,7361],[50.5,7458],[50.5,7540],[50.5,7630],[50.5,7713],[50.5,7797],[50.5,7880],[50.5,7964],[50.5,8049],[50.5,8130],[50.5,8221],[50.5,8304],[50.5,8390]]",1,0,498.6342,503.7129,54.14012739,3.449,"[{""rating"":54.14012738853503,""responseTime"":3.4489999999999554}]",space,4.5528,,503.7129,Definitely yes,100,503.7147,,,[],,0,14,14,14,1,audio/Narrative8Situation5.wav,audio/Narrative7Situation5.wav,audio/Narrative6Situation5.wav,audio/Narrative5Situation5.wav,2,5,2,5,,,,,,,,,,,,,,,,,,,,,,,,,,,,,,,,,,,,,,,
,,,,,,5c1053202b16ba0001c86317,2024-05-13_10h22.52.759,group3.1-3.2-social-tom,2023.2.2,Win32,144.9275362,65c5074098b851296ff0b7ed,6642300c2a47e00465306638,,,,,,,,,,,,,,,,,,,,,,,,,,,,,503.715,1,audio/Narrative7Situation6.wav,506.7181,,506.7181,516.6853,"[[999,0],[999,85],[999,173],[999,263],[999,347],[999,430],[999,513],[999,597],[999,680],[999,764],[999,847],[999,930],[999,1014],[999,1097],[999,1180],[999,1264],[999,1347],[999,1437],[999,1521],[999,1604],[999,1687],[999,1771],[999,1856],[999,1946],[999,2028],[999,2111],[999,2194],[999,2278],[999,2368],[999,2461],[999,2542],[999,2641],[999,2722],[999,2812],[999,2896],[999,2986],[999,3070],[999,3153],[999,3239],[999,3320],[52.6,3413],[55,3500],[54.1,3585],[56.8,3667],[60.4,3751],[61,3837],[68.6,3924],[68.6,4007],[68.4,4099],[68.4,4181],[68.4,4273],[69.3,4362],[70.8,4460],[70.8,4542],[70.8,4632],[70.8,4725],[70.8,4813],[71.6,4899],[72.2,4981],[74.4,5072],[74.4,5153],[74.4,5239],[74.4,5336],[74.4,5417],[74.4,5500],[74.4,5584],[74.4,5669],[74.4,5752],[74.4,5841],[74.4,5931],[74.4,6014],[74.4,6100],[74.4,6187],[74,6264],[74,6348],[74,6438],[74,6530],[74,6612],[74,6702],[74,6795],[74,6883],[74,6968],[74,7049],[74,7133],[74,7216],[74,7299],[74,7385],[74,7473],[74,7557],[74,7651],[74,7730],[74,7820],[74,7904],[74,7987],[74,8071],[74,8154],[74,8237],[74.6,8328],[75.2,8421],[75.8,8503],[76.9,8591],[78.3,8677],[79.6,8767],[80.3,8855],[81.2,8949],[81.9,9036],[81.9,9126],[82.9,9219],[82.9,9300],[82.9,9386],[82.9,9466],[83,9552],[83,9635],[83,9724],[83,9820],[83,9904]]",1,0,516.6853,518.6175,83.43949045,0.6205,"[{""rating"":83.43949044585987,""responseTime"":0.6204999999999927}]",space,1.4154,,518.6175,Partially,50,518.6195,,,[],,0,15,15,15,1,audio/Narrative8Situation6.wav,audio/Narrative7Situation6.wav,audio/Narrative6Situation6.wav,audio/Narrative5Situation6.wav,2,3,2,3,,,,,,,,,,,,,,,,,,,,,,,,,,,,,,,,,,,,,,,
,,,,,,5c1053202b16ba0001c86317,2024-05-13_10h22.52.759,group3.1-3.2-social-tom,2023.2.2,Win32,144.9275362,65c5074098b851296ff0b7ed,6642300c2a47e00465306638,,,,,,,,,,,,,,,,,,,,,,,,,,,,,518.6196,1,audio/Narrative7Situation7.wav,523.6239,,523.6239,540.7858,"[[999,5],[999,97],[999,182],[999,264],[999,354],[999,447],[999,537],[48.3,633],[48.3,724],[48.6,809],[48.8,895],[48.9,986],[49.3,1071],[49.8,1153],[50.3,1243],[50.3,1335],[50.3,1416],[50.3,1507],[50,1597],[50,1687],[50,1784],[50,1877],[50,1965],[50,2069],[50,2153],[50,2236],[50,2320],[50,2411],[50,2493],[50,2578],[50,2667],[50,2750],[50,2842],[50,2926],[50,3009],[50,3090],[50,3189],[50,3271],[50,3354],[50,3437],[50,3530],[50,3618],[50,3701],[50,3787],[50,3877],[45.4,3974],[38,4065],[34.6,4153],[34.1,4247],[31.9,4334],[31.1,4417],[27.9,4516],[26.8,4598],[24.8,4688],[24,4771],[24,4864],[24,4945],[24,5037],[24,5119],[24,5208],[24,5299],[24,5382],[24,5466],[24,5551],[22.5,5634],[22.4,5725],[21,5813],[21,5896],[21,5980],[21,6079],[21,6167],[21,6258],[21,6348],[21,6438],[21,6531],[21,6625],[21,6711],[21,6801],[21,6891],[21,6973],[21,7056],[21,7140],[21,7239],[21,7322],[21,7403],[21,7494],[21,7577],[21,7663],[21,7746],[21,7843],[21,7924],[21,8008],[21,8091],[21,8176],[21,8265],[21,8348],[21,8432],[16.4,8522],[13.1,8615],[11.4,8702],[11,8801],[9.3,8883],[9.3,8966],[9.3,9051],[9.3,9133],[9.3,9218],[9.3,9307],[9.3,9390],[9.3,9480],[9.3,9566],[9.3,9647],[9.3,9730],[9.3,9814],[9.3,9904],[9.3,9987],[9.3,10071],[9.3,10154],[9.3,10246],[9.3,10328],[9.3,10413],[9.3,10497],[9.3,10585],[9.3,10668],[9.3,10760],[9.3,10842],[9.3,10926],[9.3,11008],[9.3,11092],[9.3,11182],[9.3,11272],[9.3,11362],[9.3,11446],[9.3,11529],[9.3,11614],[9.3,11704],[8.8,11786],[8.8,11872],[7.3,11969],[7.3,12057],[7.3,12147],[7.3,12231],[7.3,12314],[7.3,12398],[7.3,12490],[7.3,12571],[7.3,12654],[7.3,12740],[7.3,12822],[7.3,12913],[7.3,13002],[7.3,13094],[7.3,13175],[7.3,13268],[7.3,13349],[7.3,13433],[7.3,13516],[10,13602],[13.8,13698],[17.5,13787],[18.3,13870],[20.2,13960],[22.2,14050],[23,14137],[23.6,14219],[23.6,14304],[23.6,14392],[23.7,14481],[23.7,14571],[23.7,14662],[24.4,14754],[24.4,14843],[24.4,14926],[24.4,15009],[24.4,15093],[24.4,15176],[24.4,15261],[24.4,15351],[24.4,15433],[24.4,15523],[24.4,15609],[24.4,15690],[24.4,15773],[24.4,15856],[24.4,15942],[24.4,16023],[24.4,16106],[24.4,16190],[24.4,16280],[24.4,16363],[24.9,16447],[25.6,16530],[25.6,16614],[25.6,16701],[25.6,16780],[25.2,16864],[18.9,16961],[18.1,17044],[18.1,17128]]",1,0,540.7858,543.1627,18.78980892,0.8839,"[{""rating"":18.789808917197455,""responseTime"":0.8839000000954229}]",space,1.8545,,543.1628,Definitely yes,100,543.1646,,,[],,0,16,16,16,1,audio/Narrative8Situation7.wav,audio/Narrative7Situation7.wav,audio/Narrative6Situation7.wav,audio/Narrative5Situation7.wav,3,5,5,4,,,,,,,,,,,,,,,,,,,,,,,,,,,,,,,,,,,,,,,
,,,,,,5c1053202b16ba0001c86317,2024-05-13_10h22.52.759,group3.1-3.2-social-tom,2023.2.2,Win32,144.9275362,65c5074098b851296ff0b7ed,6642300c2a47e00465306638,,,,,,,,,,,,,,,,,,,,,,,,,,,,,543.1647,1,audio/Narrative7Situation8.wav,545.1694,,545.1695,555.1729,"[[12.5,2431],[12.5,2514],[12.5,2604],[12.5,2688],[12.6,2773],[13,2862],[13.4,2947],[16.3,3036],[18.4,3125],[32.6,3215],[43,3299],[43.1,3382],[44.1,3482],[47.5,3572],[48,3653],[49,3750],[49.1,3840],[49,3934],[49,4016],[49,4097],[49,4181],[49,4264],[49,4347],[49,4437],[49,4521],[49,4611],[49,4694],[49,4778],[49,4861],[49,4945],[49,5036],[49,5125],[49,5211],[49.6,5307],[52.4,5399],[54.1,5487],[56.4,5571],[57.4,5655],[57.4,5743],[57.4,5827],[57.4,5910],[57.4,6000],[57.4,6086],[57.4,6168],[57.4,6250],[58,6338],[62,6424],[62.7,6514],[62.7,6598],[62.7,6683],[62.7,6771],[62.7,6861],[62.7,6945],[62.7,7028],[62.7,7112],[62.7,7202],[62.7,7287],[62.7,7369],[62.7,7466],[62.7,7556],[63.5,7649],[65.4,7737],[65.7,7827],[65.9,7910],[65.9,8001],[65.9,8084],[65.9,8168],[65.9,8258],[65.9,8348],[65.9,8438],[65.9,8522],[65.9,8614],[65.9,8702],[65.9,8785],[66.3,8869],[66.3,8954],[66.3,9036],[66.3,9135],[66.6,9225],[66.6,9313],[66.7,9398],[66.9,9480],[66.9,9564],[66.9,9647],[66.9,9730],[66.9,9815],[66.8,9899],[66.5,9987]]",1,0,555.1729,556.9864,66.95859873,0.5148,"[{""rating"":66.95859872611464,""responseTime"":0.5148000001906894}]",space,1.2733,,556.9865,Definitely yes,100,556.9875,,,[],,0,17,17,17,1,audio/Narrative8Situation8.wav,audio/Narrative7Situation8.wav,audio/Narrative6Situation8.wav,audio/Narrative5Situation8.wav,3,2,5,3,,,,,,,,,,,,,,,,,,,,,,,,,,,,,,,,,,,,,,,
,,,,,,5c1053202b16ba0001c86317,2024-05-13_10h22.52.759,group3.1-3.2-social-tom,2023.2.2,Win32,144.9275362,65c5074098b851296ff0b7ed,6642300c2a47e00465306638,,,,,,,,,,,,,,,,,,,,,,,,,,,,,556.9877,1,audio/Narrative7Situation9.wav,558.9912,,558.9912,567.6039,"[[999,0],[999,90],[999,173],[999,256],[999,344],[999,425],[999,514],[999,597],[49,694],[49.3,786],[49.4,875],[49.6,961],[49.6,1041],[49.6,1134],[49.6,1215],[49.6,1299],[49.6,1382],[50.1,1472],[51.8,1563],[52.5,1653],[52.6,1743],[54.1,1834],[59,1917],[62.3,2001],[66.3,2098],[72.5,2183],[79.9,2280],[82.9,2370],[85.5,2459],[88.4,2552],[91.6,2639],[93.6,2731],[95.9,2821],[97.1,2909],[97.3,2993],[97.5,3085],[97.5,3174],[97.5,3264],[97.9,3357],[97.9,3445],[97.9,3528],[97.9,3614],[98.5,3704],[98.5,3792],[98.5,3875],[98.9,3958],[99,4051],[99.1,4132],[99.1,4216],[99.1,4299],[99.1,4383],[99.1,4467],[99.1,4556],[99.1,4641],[99.1,4723],[99.1,4806],[99.1,4890],[99.1,4972],[99.1,5058],[99.1,5139],[99.1,5225],[99.1,5320],[99.1,5410],[99.1,5493],[99.1,5584],[99.1,5681],[99.1,5764],[99.1,5848],[99.1,5938],[99.1,6024],[99.1,6112],[99.1,6209],[99.1,6299],[99.1,6390],[99.1,6475],[99.1,6558],[99.1,6646],[99.1,6730],[99.1,6820],[99.1,6903],[99.1,6987],[99.1,7070],[99.1,7156],[99.1,7246],[99.1,7327],[99.1,7413],[99.1,7496],[99.1,7584],[99.1,7668],[99.1,7754],[99.1,7834],[99.1,7918],[99.1,8015],[99.1,8105],[99.1,8195],[99.1,8281],[99.1,8362],[99.1,8445],[99.1,8530],[99.1,8612]]",1,0,567.6039,569.4237,99.12420382,0.6263,"[{""rating"":99.12420382165605,""responseTime"":0.626299999713865}]",space,1.3073,,569.4238,Definitely yes,100,590.0954,99.84076433,11.5327,"[{""rating"":99.84076433121018,""responseTime"":11.532699999809324}]",space,0,18,18,18,1,audio/Narrative8Situation9.wav,audio/Narrative7Situation9.wav,audio/Narrative6Situation9.wav,audio/Narrative5Situation9.wav,3,2,4,3,,,20.1443,,,,,,,,,,,,,,,,,,,,,,,,,,,,,,,,,,,,
,,,,,,5c1053202b16ba0001c86317,2024-05-13_10h22.52.759,group3.1-3.2-social-tom,2023.2.2,Win32,144.9275362,65c5074098b851296ff0b7ed,6642300c2a47e00465306638,,,,,,,,,,,,,,,,,,,,,,,,,,,650.1057,652.6766,652.6833,2,audio/Narrative13Situation2.wav,652.6833,,652.6833,682.4168,"[[999,0],[999,88],[999,178],[999,261],[999,347],[999,435],[999,532],[999,616],[999,699],[999,791],[999,875],[999,972],[999,1060],[999,1144],[999,1227],[999,1310],[999,1400],[999,1491],[999,1574],[999,1658],[999,1741],[999,1824],[999,1910],[999,1998],[999,2084],[999,2173],[999,2255],[999,2338],[999,2422],[999,2505],[999,2588],[999,2672],[999,2755],[999,2838],[999,2929],[999,3012],[999,3095],[999,3179],[999,3262],[999,3346],[999,3436],[47.5,3527],[49.4,3619],[45.7,3709],[39.6,3797],[37.1,3884],[34,3965],[29.8,4056],[26.6,4231],[26,4311],[25.5,4402],[24.2,4486],[23.9,4577],[23.9,4667],[23.9,4757],[23.9,4841],[23.9,4922],[23.9,5005],[23.5,5091],[23.3,5172],[22.6,5255],[20.4,5353],[19.8,5445],[19.8,5526],[19.7,5624],[19.2,5711],[19,5790],[19,5874],[19.2,5957],[19.4,6049],[19.4,6138],[19.4,6228],[19.4,6311],[19.4,6394],[19.4,6478],[19.4,6571],[19.4,6652],[19.4,6751],[19.4,6834],[19.4,6915],[19.4,7006],[19.4,7097],[19.4,7186],[19.4,7277],[19.4,7367],[19.4,7452],[19.4,7534],[19.4,7624],[19.4,7714],[19.4,7799],[19.4,7881],[19.4,7964],[19.4,8048],[19.4,8140],[19.4,8221],[19.4,8306],[19.4,8390],[19.4,8471],[19.4,8562],[19.4,8647],[19.4,8728],[19.4,8812],[19.4,8902],[19.4,8985],[20,9070],[72.1,9437],[75.6,9520],[79.9,9614],[82,9695],[85.1,9777],[85.1,9860],[86.5,9945],[86.6,10029],[87.3,10121],[89.6,10208],[89.6,10305],[89.6,10395],[89.6,10478],[87.3,10572],[80.8,10659],[80.8,10743],[80.8,10833],[80.8,10916],[80.8,10999],[80.8,11083],[80.8,11166],[80.8,11249],[80.8,11340],[80.8,11423],[80.8,11513],[80.8,11605],[80.8,11689],[80.8,11770],[80.8,11855],[80.8,11945],[80.8,12034],[80.8,12119],[80.8,12208],[80.8,12291],[80.8,12375],[80.8,12458],[80.8,12542],[80.8,12634],[80.8,12717],[80.8,12805],[80.8,12889],[80.8,12988],[80.8,13078],[80.8,13170],[80.8,13250],[80.8,13336],[80.8,13423],[80.8,13507],[80.8,13590],[80.8,13673],[80.8,13758],[80.8,13849],[80.8,13937],[80.8,14030],[80.8,14113],[80.8,14201],[80.8,14285],[80.8,14375],[80.8,14468],[80.8,14556],[80.8,14646],[80.8,14736],[80.8,14820],[80.8,14905],[80.8,14986],[80.8,15070],[80.8,15153],[80.8,15236],[80.8,15320],[80.8,15403],[80.8,15493],[80.8,15577],[80.8,15662],[80.8,15750],[80.8,15836],[80.8,15924],[80.8,16016],[80.8,16099],[80.8,16188],[80.8,16278],[80.8,16364],[80.8,16445],[80.8,16528],[80.8,16611],[80.8,16698],[80.8,16779],[80.8,16875],[80.8,16961],[80.8,17057],[80.8,17139],[80.8,17223],[80.8,17306],[80.8,17389],[80.8,17473],[80.8,17556],[80.8,17642],[80.8,17731],[80.8,17814],[80.8,17905],[80.8,17989],[80.8,18072],[80.8,18160],[80.8,18244],[80.8,18329],[80.8,18410],[80.8,18494],[80.8,18577],[80.8,18660],[80.8,18745],[80.8,18834],[80.8,18919],[80.8,19018],[80.8,19106],[80.8,19195],[80.8,19280],[80.8,19369],[80.8,19452],[80.8,19536],[80.8,19619],[80.8,19702],[80.8,19786],[80.8,19869],[80.8,19954],[80.8,20038],[80.8,20122],[80.8,20211],[80.8,20300],[80.8,20383],[80.8,20469],[80.8,20552],[80.8,20633],[80.8,20716],[80.8,20807],[80.8,20899],[80.8,20987],[80.8,21071],[80.8,21163],[80.8,21244],[80.8,21335],[80.8,21418],[80.8,21504],[80.8,21594],[80.8,21675],[80.8,21759],[80.8,21848],[80.8,21939],[80.8,22032],[80.8,22112],[80.8,22196],[80.8,22286],[86.5,23529],[86.7,23628],[86.9,23719],[87,23800],[87.2,23884],[87.2,23970],[87.2,24053],[87.2,24141],[87.2,24224],[87.2,24307],[87.2,24398],[87.2,24483],[87.2,24578],[87.2,24662],[87.2,24745],[87.2,24835],[87.2,24928],[87.2,25016],[87.2,25114],[87.2,25197],[87.2,25282],[87.2,25370],[87.2,25453],[87.2,25537],[87.2,25627],[87.2,25717],[87.2,25810],[87.2,25891],[87.2,25975],[87.2,26058],[87.2,26141],[87.2,26231],[87.2,26317],[87.2,26398],[87.2,26481],[87.2,26564],[87.2,26648],[87.2,26738],[87.2,26822],[87.2,26912],[87.2,26995],[87.2,27079],[87.2,27169],[87.2,27259],[87.2,27343],[87.2,27426],[87.2,27516],[87.2,27606],[87.2,27692],[87.2,27773],[88.5,27864],[88.5,27947],[88.5,28030],[88.5,28120],[88.5,28205],[88.5,28287],[88.5,28371],[88.5,28454],[88.5,28539],[88.5,28627],[88.5,28718],[88.8,28803],[88.8,28887],[88.6,28968],[88.6,29060],[88.6,29148],[88.6,29233],[88.6,29323],[87.7,29409],[87.4,29489],[87.7,29579],[87.5,29664]]",1,0,682.417,682.4183,,,[],,,,682.4184,Partially,50,682.4197,,,[],,0,0,0,0,1,audio/Narrative13Situation2.wav,audio/Narrative13Situation2.wav,audio/Narrative13Situation2.wav,audio/Narrative13Situation2.wav,2,2,2,2,,,,,590.1004,650.1007,,,,,,,,,,,,,,,,,,,,,,,,,,,,,,,,,
,,,,,,5c1053202b16ba0001c86317,2024-05-13_10h22.52.759,group3.1-3.2-social-tom,2023.2.2,Win32,144.9275362,65c5074098b851296ff0b7ed,6642300c2a47e00465306638,,,,,,,,,,,,,,,,,,,,,,,,,,,,,682.4198,2,audio/Narrative6Situation1.wav,684.424,,684.4241,710.9973,"[[87.3,348],[87.3,436],[87.3,519],[87.3,603],[87.3,686],[87.3,769],[87.3,853],[87.3,945],[87.3,1038],[87.3,1124],[87.3,1208],[87.3,1292],[87.3,1374],[87.3,1457],[87.3,1542],[87.3,1631],[87.3,1714],[87.3,1804],[87.3,1888],[87.3,1971],[87.3,2069],[87.3,2152],[87.3,2242],[86.7,2325],[85.7,2409],[85.7,2499],[83.1,2585],[79.5,2682],[77,2764],[73.7,2857],[71.1,2938],[70,3029],[67,3119],[61.9,3210],[60,3298],[58.1,3382],[56.5,3465],[54.1,3558],[52.1,3647],[49.7,3728],[46.2,3821],[45.5,3902],[42.7,3986],[40.1,4083],[37.8,4166],[37.4,4257],[36.4,4349],[36.1,4439],[36.1,4520],[36.1,4603],[36.1,4696],[35.7,4784],[34.1,4877],[34.1,4965],[34.2,5050],[51.8,5141],[63.3,5239],[65.8,5321],[66.8,5404],[75.2,5494],[77.1,5591],[77.8,5673],[79.1,5772],[79.1,5854],[79.1,5937],[79.1,6023],[79.1,6106],[79.1,6187],[79.1,6270],[79.1,6361],[79.1,6446],[79.7,6534],[80.1,6620],[80.1,6704],[80.1,6805],[80.1,6902],[80.1,7000],[80.1,7090],[81.5,7174],[82.1,7264],[82.1,7347],[82.1,7431],[82.1,7516],[82.1,7604],[82.1,7696],[82.1,7778],[82.1,7861],[82.1,7944],[82.1,8028],[82.1,8111],[82.3,8203],[82.6,8299],[85,8385],[85.6,8466],[87.2,8555],[87.2,8639],[87.2,8722],[88.4,8806],[93.6,8899],[94.7,8990],[95.3,9069],[95.3,9162],[95.3,9257],[95.3,9340],[95.6,9433],[95.6,9514],[95.6,9604],[95.6,9688],[95.6,9785],[95.6,9875],[95.6,9958],[95.6,10042],[95.6,10125],[95.6,10209],[95.6,10292],[95.6,10375],[95.6,10459],[95.6,10542],[95.6,10626],[95.6,10709],[95.6,10792],[95.6,10883],[95.6,10973],[95.6,11063],[95.6,11149],[95.6,11237],[95.6,11320],[95.6,11405],[95.5,11494],[94.9,11577],[94.8,11667],[94.8,11751],[93.6,11835],[91.2,11926],[89.4,12011],[86.1,12099],[85.4,12188],[84.5,12274],[84.5,12364],[84.5,12447],[84.5,12535],[83.8,12625],[83.8,12709],[83,12793],[83,12876],[83,12959],[82.2,13042],[82.2,13133],[82.2,13218],[82.2,13306],[81.3,13392],[81.3,13482],[80.7,13563],[80.1,13655],[80.1,13751],[79.5,13835],[79.5,13918],[79.5,14008],[79.5,14099],[80,14189],[80,14272],[83.9,14356],[84,14439],[84,14529],[84,14612],[80.5,14698],[77.9,14779],[77.9,14869],[76.3,14962],[75.6,15050],[75.6,15142],[75.2,15224],[74.4,15310],[74.2,15397],[73.9,15498],[72.6,15577],[72.4,15664],[72.2,15744],[71.7,15835],[71.7,15925],[71.7,16008],[71.7,16091],[71.7,16175],[71.7,16258],[71.7,16351],[71.7,16439],[71.7,16524],[71.7,16608],[71.7,16696],[71.7,16788],[71.7,16876],[71.7,16969],[71.7,17051],[71.7,17133],[71.7,17217],[71.7,17302],[71.7,17385],[71.7,17475],[71.7,17557],[71.7,17640],[71.7,17740],[71.7,17821],[71.7,17907],[71.7,17988],[71.7,18078],[71.7,18164],[71.7,18265],[71.7,18356],[71.7,18439],[71.7,18523],[71.7,18606],[71.7,18689],[71.7,18773],[71.7,18865],[71.7,18946],[71.7,19032],[71.7,19115],[71.7,19196],[71.7,19280],[71.7,19363],[71.7,19453],[71.7,19543],[71.7,19628],[71.7,19717],[71.7,19807],[71.7,19891],[71.7,19981],[71.7,20064],[71.7,20148],[71.7,20231],[71.7,20316],[71.7,20398],[72.1,20484],[75.6,20565],[76.5,20648],[80.9,20734],[82.7,20836],[84.7,20922],[88.7,21010],[90.3,21095],[91.5,21179],[92.4,21273],[93.2,21358],[93.2,21447],[94.3,21537],[94.3,21621],[94.3,21711],[94.3,21794],[94.3,21879],[94.3,21966],[94.3,22051],[94.3,22141],[94.3,22233],[94.3,22315],[94.3,22398],[94.3,22489],[94.3,22579],[94.3,22662],[94.3,22746],[94.3,22836],[94.2,22919],[94.2,23002],[94.2,23086],[93.6,23173],[93.4,23259],[93.4,23350],[93.4,23433],[93.3,23517],[93.3,23608],[93.3,23697],[93.3,23780],[93.3,23864],[93.3,23947],[93.3,24031],[93.3,24122],[93.2,24211],[92.8,24294],[92.8,24385],[92.8,24477],[92.8,24558],[92.8,24649],[92.8,24732],[92.8,24815],[92.8,24899],[92.8,24982],[92.8,25072],[92.9,25160],[93,25253],[93,25336],[93,25427],[93,25517],[93,25600],[93,25684],[93,25781],[93,25864],[93,25948],[93,26031],[93,26121],[93,26205],[93,26288],[93,26382],[93,26463],[93,26547]]",1,0,710.9974,713.1455,92.99363057,0.6296,"[{""rating"":92.99363057324841,""responseTime"":0.6296000003815152}]",space,1.6286,,713.1455,Partially,50,713.1466,,,[],,0,1,1,1,1,audio/Narrative7Situation1.wav,audio/Narrative8Situation1.wav,audio/Narrative5Situation1.wav,audio/Narrative6Situation1.wav,2,5,5,2,,,,,,,,,,,,,,,,,,,,,,,,,,,,,,,,,,,,,,,
,,,,,,5c1053202b16ba0001c86317,2024-05-13_10h22.52.759,group3.1-3.2-social-tom,2023.2.2,Win32,144.9275362,65c5074098b851296ff0b7ed,6642300c2a47e00465306638,,,,,,,,,,,,,,,,,,,,,,,,,,,,,713.1467,2,audio/Narrative6Situation2.wav,716.151,,716.151,744.6492,"[[50.3,419],[50.3,507],[50.3,590],[50.3,673],[50.3,756],[50.3,840],[50.3,947],[50.3,1027],[51.5,1111],[52,1201],[52.5,1291],[52.5,1381],[52.5,1472],[52.5,1556],[52.5,1647],[52.5,1729],[52.5,1819],[52.5,1909],[52.5,2001],[52.5,2083],[51.3,2168],[51.2,2257],[51.2,2347],[50.6,2430],[50.6,2514],[50.6,2598],[50.6,2687],[50.6,2771],[50.6,2854],[50.6,2937],[50.6,3021],[50.6,3111],[48.5,3201],[46.9,3292],[45.6,3382],[44.8,3466],[43,3559],[41.6,3640],[39.7,3729],[38.8,3829],[37,3924],[36.8,4009],[35.3,4092],[35.2,4174],[35,4264],[33.9,4347],[33,4447],[32.2,4535],[30.1,4620],[29.1,4709],[28.2,4801],[28.2,4882],[28.2,4974],[27.7,5056],[27.7,5139],[27.7,5222],[27.7,5307],[27.7,5396],[27.7,5480],[27.7,5563],[27.7,5653],[27.7,5736],[27.2,5820],[27.2,5905],[27.2,5986],[27.2,6070],[26.4,6153],[26.4,6239],[26.4,6334],[26.4,6420],[25.4,6505],[25.4,6594],[24.7,6690],[23.8,6772],[19.8,6865],[18.2,6952],[14.8,7042],[14.1,7126],[12.3,7216],[11.6,7309],[10,7398],[9.7,7482],[9.7,7563],[9.7,7653],[9.7,7744],[9.7,7827],[9.7,7917],[9.7,8001],[9.7,8085],[9.7,8174],[9.7,8258],[9.7,8348],[9.7,8431],[9.7,8515],[9.7,8612],[9.7,8695],[9.7,8786],[8.5,8878],[8.5,8975],[8.5,9057],[7.6,9140],[7.6,9230],[7.6,9313],[7.6,9413],[7.1,9495],[6.9,9577],[6.3,9663],[5.3,9758],[5.3,9836],[5.3,9925],[5.3,10015],[5.3,10099],[5.3,10182],[5.3,10265],[5.3,10357],[5.3,10439],[5.3,10523],[5.3,10605],[5.3,10689],[5.3,10772],[5.3,10865],[5.3,10953],[5.3,11043],[5.3,11126],[5.3,11224],[5.3,11307],[5.3,11397],[5.3,11482],[5.3,11578],[5.3,11670],[5.3,11754],[5.3,11851],[5.3,11934],[5.3,12017],[5.3,12122],[5.3,12203],[5.3,12296],[5.3,12384],[5.3,12469],[5.3,12550],[5.3,12634],[5.3,12724],[5.3,12814],[5.3,12904],[5.3,12990],[5.3,13071],[5.3,13154],[5.3,13238],[5.3,13321],[5.3,13412],[5.8,13497],[6.1,13586],[7.2,13670],[7.2,13752],[7.8,13835],[8.8,13928],[8.9,14009],[9.5,14099],[10.1,14189],[10.3,14273],[10.5,14356],[10.7,14442],[10.7,14523],[10.7,14606],[10.7,14696],[10.7,14780],[10.7,14863],[10.7,14947],[10.7,15039],[10.7,15134],[10.7,15219],[10.7,15308],[10.7,15391],[10.7,15474],[10.7,15558],[10.7,15641],[10.7,15731],[10.7,15816],[10.7,15905],[10.7,15988],[10.7,16072],[10.7,16155],[10.7,16240],[10.7,16328],[10.7,16414],[10.7,16504],[10.7,16586],[10.7,16669],[10.7,16766],[10.7,16859],[10.7,16940],[10.7,17023],[10.7,17106],[10.7,17190],[10.7,17273],[10.7,17357],[10.7,17440],[10.7,17523],[10.7,17623],[11.1,17706],[11.5,17787],[11.5,17877],[13.5,17962],[17.8,18054],[20.6,18158],[24.8,18239],[28,18324],[28,18405],[29.5,18496],[32.6,18586],[36.5,18687],[40.6,18776],[45.1,18864],[47.7,18957],[50.2,19041],[53,19130],[55.8,19218],[57.4,19309],[59.2,19402],[61.9,19489],[63.8,19576],[65,19663],[65,19746],[65,19836],[65,19919],[65,20010],[65,20100],[65,20185],[64.8,20278],[64.6,20357],[64.6,20441],[64.6,20524],[64.6,20607],[64.6,20690],[64.6,20781],[64.6,20864],[64.6,20950],[64.6,21045],[64.6,21130],[64.6,21219],[64.6,21302],[63.9,21392],[62.7,21484],[61.4,21574],[60.6,21664],[59.2,21749],[58.3,21838],[58.3,21920],[57.2,22010],[57.2,22093],[57.2,22184],[57.2,22274],[57.2,22364],[57.2,22455],[57.2,22538],[57.2,22624],[57.2,22705],[57.2,22795],[57.2,22878],[57.2,22962],[57.2,23045],[57.2,23129],[57.2,23219],[57.2,23304],[57.2,23385],[57.2,23469],[57.2,23552],[57.2,23635],[60.5,23719],[64.5,23803],[68.3,23893],[74.4,23993],[77.3,24080],[78.2,24168],[79,24255],[79,24337],[79,24422],[79,24504],[79,24587],[79,24670],[79,24756],[79,24851],[79,24941],[79,25033],[79,25117],[79,25198],[79,25297],[79,25380],[79,25469],[79,25552],[79,25638],[79,25728],[79,25809],[79,25895],[79,25983],[79,26076],[79,26164],[79,26247],[79,26330],[79.1,26428],[79.1,26513],[79.1,26594],[79.1,26685],[79.1,26775],[79.1,26858],[79.1,26949],[79.1,27041],[79.1,27136],[79.1,27221],[79.1,27305],[79.1,27400],[79.1,27483],[79.1,27574],[79.1,27657],[79.1,27747],[79.1,27831],[79.1,27916],[79.1,28004],[79.1,28095],[79.1,28179],[79.1,28269],[79.1,28354],[79.1,28444]]",1,0,744.6494,746.2831,79.14012739,0.4883,"[{""rating"":79.14012738853503,""responseTime"":0.4883000001907476}]",space,1.115,,746.2832,Definitely yes,100,746.2851,,,[],,0,2,2,2,1,audio/Narrative7Situation2.wav,audio/Narrative8Situation2.wav,audio/Narrative5Situation2.wav,audio/Narrative6Situation2.wav,3,3,3,3,,,,,,,,,,,,,,,,,,,,,,,,,,,,,,,,,,,,,,,
,,,,,,5c1053202b16ba0001c86317,2024-05-13_10h22.52.759,group3.1-3.2-social-tom,2023.2.2,Win32,144.9275362,65c5074098b851296ff0b7ed,6642300c2a47e00465306638,,,,,,,,,,,,,,,,,,,,,,,,,,,,,746.2852,2,audio/Narrative6Situation3.wav,751.2891,,751.2891,763.8821,"[[77.8,461],[77.1,548],[76.4,648],[67.8,739],[63.2,826],[58.5,918],[57.2,1000],[54.3,1083],[51.2,1166],[51.2,1252],[51.2,1349],[50.6,1437],[49.8,1524],[49.8,1606],[49.8,1689],[49.8,1771],[49.8,1861],[49.8,1951],[49.8,2035],[49.8,2118],[49.8,2201],[49.8,2291],[49.8,2391],[49.8,2479],[49.8,2562],[49.8,2648],[49.8,2736],[49.8,2819],[49.8,2910],[49.8,3002],[49.8,3083],[49.8,3168],[49.8,3265],[49.8,3347],[49.8,3440],[49.8,3528],[49.8,3611],[47.9,3706],[47.6,3792],[46.5,3882],[45.9,3966],[44.4,4056],[43.9,4139],[41.6,4229],[40.3,4321],[38.4,4412],[36.9,4506],[35.7,4585],[34.2,4682],[33.4,4768],[33.3,4857],[32.8,4955],[32,5035],[32,5124],[31.4,5215],[31.3,5299],[30.5,5395],[30.5,5479],[30.3,5563],[29.5,5646],[29.5,5739],[29.5,5830],[29.2,5919],[28.7,6015],[28.7,6098],[28.7,6183],[28.7,6271],[28.1,6355],[26.8,6441],[26.8,6535],[26.8,6625],[26.8,6709],[26.8,6792],[26.8,6876],[26.8,6959],[26.8,7043],[26.8,7133],[29.5,7218],[40.8,7307],[47.1,7397],[47.9,7487],[50.6,7572],[56.3,7664],[58,7759],[58,7848],[58.3,7932],[60,8015],[60,8100],[60,8183],[60,8272],[60,8357],[60,8441],[60,8529],[60,8612],[60,8695],[60,8786],[60,8869],[60,8955],[60,9036],[60,9121],[60,9211],[60,9293],[60,9379],[60,9469],[60,9552],[60,9642],[60,9723],[60,9809],[60,9897],[60,9980],[60,10073],[60,10157],[60,10244],[60,10336],[60.4,10418],[60.7,10503],[60.7,10587],[60.7,10668],[60.7,10754],[60.7,10835],[60.7,10925],[60.7,11015],[60.7,11099],[60.7,11191],[60.7,11279],[60.7,11378],[60.7,11462],[60.7,11550],[60.7,11633],[60.7,11733],[60.7,11815],[60.7,11904],[60.7,11988],[61.2,12073],[63.5,12175],[65.1,12258],[65.9,12345],[67.6,12435],[68,12523]]",1,0,763.8822,766.4722,80.49363057,1.5095,"[{""rating"":80.49363057324841,""responseTime"":1.5095000000000027}]",space,2.0715,,766.4723,Definitely yes,100,766.4738,,,[],,0,3,3,3,1,audio/Narrative7Situation3.wav,audio/Narrative8Situation3.wav,audio/Narrative5Situation3.wav,audio/Narrative6Situation3.wav,8,4,3,5,,,,,,,,,,,,,,,,,,,,,,,,,,,,,,,,,,,,,,,
,,,,,,5c1053202b16ba0001c86317,2024-05-13_10h22.52.759,group3.1-3.2-social-tom,2023.2.2,Win32,144.9275362,65c5074098b851296ff0b7ed,6642300c2a47e00465306638,,,,,,,,,,,,,,,,,,,,,,,,,,,,,766.474,2,audio/Narrative6Situation4.wav,768.4796,,768.4796,781.082,"[[999,0],[999,85],[999,166],[999,251],[999,333],[999,423],[999,506],[999,597],[999,689],[999,779],[999,875],[999,960],[999,1048],[999,1147],[999,1229],[999,1312],[999,1395],[999,1486],[999,1576],[999,1667],[999,1757],[999,1841],[52,1934],[51.9,2014],[51.1,2097],[51.1,2187],[51.1,2271],[50.6,2354],[50.6,2437],[50.2,2523],[50.2,2604],[50.2,2687],[50.2,2771],[50.2,2861],[50.2,2951],[47.8,3042],[46.9,3127],[46.8,3216],[46.8,3312],[45.9,3399],[44.6,3486],[44.6,3569],[43.6,3660],[41.9,3743],[39.6,3836],[38.1,3925],[37.5,4014],[36.8,4097],[35.5,4188],[35,4271],[35,4356],[35,4445],[34.9,4530],[34.2,4611],[33.7,4709],[32.8,4793],[31.7,4883],[31.1,4976],[30.3,5065],[30.3,5149],[30.3,5229],[29.9,5320],[29.9,5405],[29.4,5504],[29.4,5584],[29.1,5674],[28.3,5761],[28.3,5848],[27.7,5933],[27.7,6014],[27.4,6098],[27.4,6181],[26.6,6267],[25.6,6364],[25.2,6445],[24.6,6528],[24,6614],[23.9,6702],[22.9,6786],[22.9,6878],[22.9,6961],[22.9,7042],[22.8,7126],[22.2,7209],[22.2,7292],[21.7,7376],[20.8,7459],[20.8,7542],[20.8,7633],[20.8,7716],[20.8,7799],[20.5,7891],[20.5,7987],[19.8,8079],[19.6,8168],[19.6,8258],[19.6,8343],[19.6,8424],[19.6,8508],[19.3,8591],[19.3,8684],[19.3,8767],[19.3,8850],[19.3,8946],[19.3,9029],[18.9,9121],[17.8,9216],[16.5,9300],[16.5,9383],[15.3,9473],[14.7,9563],[13.5,9654],[12.9,9747],[12.2,9834],[12.2,9918],[12.2,10010],[12.2,10091],[12.2,10175],[11.8,10259],[11.8,10341],[11.8,10425],[11.8,10508],[11.8,10599],[11.5,10682],[11.5,10774],[11.5,10862],[11.1,10946],[11.1,11029],[11.1,11112],[10.4,11203],[10.4,11293],[9.4,11377],[9.4,11475],[9.4,11557],[9.4,11640],[9.4,11726],[9.4,11807],[8.9,11894],[8.7,11974],[8.7,12057],[7.8,12143],[7.7,12224],[6.5,12309],[6.2,12399],[6.2,12488],[6.2,12578]]",1,0,781.0821,784.0807,1.035031847,1.8402,"[{""rating"":4.697452229299365,""responseTime"":0.551699999809216},{""rating"":1.0350318471337605,""responseTime"":1.8401999998092151}]",space,2.4808,,784.0808,Partially,50,784.0831,,,[],,0,4,4,4,1,audio/Narrative7Situation4.wav,audio/Narrative8Situation4.wav,audio/Narrative5Situation4.wav,audio/Narrative6Situation4.wav,3,3,1,2,,,,,,,,,,,,,,,,,,,,,,,,,,,,,,,,,,,,,,,
,,,,,,5c1053202b16ba0001c86317,2024-05-13_10h22.52.759,group3.1-3.2-social-tom,2023.2.2,Win32,144.9275362,65c5074098b851296ff0b7ed,6642300c2a47e00465306638,,,,,,,,,,,,,,,,,,,,,,,,,,,,,784.0831,2,audio/Narrative6Situation5.wav,786.0937,,786.0937,794.0328,"[[999,0],[999,83],[999,166],[999,250],[999,340],[999,438],[999,527],[999,618],[999,715],[50.1,808],[49.8,891],[49.6,973],[49.6,1062],[49.6,1153],[49.6,1245],[49.6,1330],[49.6,1412],[49.6,1507],[49.6,1599],[49.6,1694],[49.6,1787],[49.6,1868],[49.6,1951],[49.6,2035],[49.6,2118],[49.6,2201],[49.4,2292],[47.9,2384],[46.6,2476],[43.9,2563],[42,2649],[42,2738],[40.6,2820],[37.5,2912],[35.7,2993],[31.6,3085],[29.9,3177],[29.1,3258],[28,3348],[26,3440],[24.7,3528],[23.6,3625],[22.9,3708],[22.7,3794],[21.9,3891],[21.5,3979],[21.1,4079],[21.1,4167],[20.5,4264],[20.5,4347],[20.5,4431],[19.6,4521],[19.4,4605],[19.3,4695],[19.3,4778],[19.3,4869],[19.3,4952],[19.3,5035],[18.7,5119],[18.7,5211],[18.7,5299],[18.7,5383],[18.3,5482],[18.2,5564],[17.9,5653],[17.4,5740],[16.5,5823],[16.3,5905],[15.5,5987],[15.5,6070],[15.5,6153],[14.6,6245],[14,6334],[14,6425],[14,6508],[14,6591],[14,6675],[14,6758],[14,6841],[14,6924],[14,7015],[13.8,7098],[13.8,7182],[13.8,7265],[13.8,7355],[13.8,7447],[13.8,7544],[13.8,7640],[13.8,7724],[13.4,7816],[12.7,7906]]",1,0,794.0328,796.2288,4.458598726,1.114,"[{""rating"":4.458598726114649,""responseTime"":1.1140000000000327}]",space,1.68,,796.2288,Definitely yes,100,796.2307,,,[],,0,5,5,5,1,audio/Narrative7Situation5.wav,audio/Narrative8Situation5.wav,audio/Narrative5Situation5.wav,audio/Narrative6Situation5.wav,5,2,5,2,,,,,,,,,,,,,,,,,,,,,,,,,,,,,,,,,,,,,,,
,,,,,,5c1053202b16ba0001c86317,2024-05-13_10h22.52.759,group3.1-3.2-social-tom,2023.2.2,Win32,144.9275362,65c5074098b851296ff0b7ed,6642300c2a47e00465306638,,,,,,,,,,,,,,,,,,,,,,,,,,,,,796.2308,2,audio/Narrative6Situation6.wav,798.2371,,798.2371,809.2997,"[[999,0],[999,81],[999,174],[999,268],[999,354],[999,435],[999,518],[999,602],[999,685],[999,775],[999,860],[999,945],[999,1036],[999,1118],[999,1206],[999,1296],[999,1386],[999,1470],[999,1553],[999,1643],[999,1735],[999,1834],[999,1929],[999,2019],[999,2109],[999,2192],[999,2276],[999,2376],[999,2456],[999,2539],[999,2630],[999,2713],[999,2796],[999,2887],[999,2984],[999,3067],[999,3151],[999,3241],[999,3324],[999,3408],[999,3491],[999,3574],[999,3668],[999,3748],[999,3842],[999,3932],[999,4027],[999,4125],[51.5,4210],[51.3,4304],[51.3,4394],[51.3,4484],[51.3,4575],[51.3,4665],[51.3,4755],[51,4846],[50.3,4949],[50.3,5033],[50.3,5116],[50.3,5202],[49.6,5293],[48.8,5380],[48.8,5471],[48.8,5554],[48.4,5639],[48.4,5720],[49.5,5814],[51.4,5895],[51.4,5984],[49.6,6075],[44.2,6165],[38,6257],[38,6346],[38,6431],[38,6526],[38,6616],[38,6700],[38,6783],[38,6873],[38,6959],[38,7047],[38,7130],[38,7214],[38,7297],[38,7387],[38,7471],[38,7555],[38,7640],[38,7728],[38,7811],[38,7901],[38,7986],[38,8077],[38,8168],[38,8249],[36.1,8343],[36,8424],[36,8507],[36,8589],[36,8674],[36,8763],[36,8853],[36,8936],[36,9022],[36,9117],[36,9200],[36,9286],[36,9374],[47.1,9464],[47.9,9550],[49,9631],[49.3,9721],[49.3,9804],[49.3,9888],[49.3,9978],[49.3,10064],[49.3,10152],[49.3,10235],[48.6,10322],[47.9,10402],[47.9,10492],[44.2,10592]]",1,0,809.2998,816.9951,35.35031847,1.1533,"[{""rating"":35.35031847133758,""responseTime"":1.1533000001907112}]",space,7.1752,,816.9951,Partially,50,817.0019,,,[],,0,6,6,6,1,audio/Narrative7Situation6.wav,audio/Narrative8Situation6.wav,audio/Narrative5Situation6.wav,audio/Narrative6Situation6.wav,3,2,3,2,,,,,,,,,,,,,,,,,,,,,,,,,,,,,,,,,,,,,,,
,,,,,,5c1053202b16ba0001c86317,2024-05-13_10h22.52.759,group3.1-3.2-social-tom,2023.2.2,Win32,144.9275362,65c5074098b851296ff0b7ed,6642300c2a47e00465306638,,,,,,,,,,,,,,,,,,,,,,,,,,,,,817.0021,2,audio/Narrative6Situation7.wav,822.0029,,822.003,846.8422,"[[34.5,604],[42,696],[42.4,787],[42.4,868],[45.9,958],[47.5,1041],[47.5,1132],[47.5,1215],[48.2,1300],[48.2,1382],[48.2,1472],[48.2,1562],[48.7,1646],[49.2,1729],[49.2,1812],[49.2,1898],[49.2,1986],[49.2,2069],[49.2,2159],[49.2,2258],[49.2,2342],[49.2,2430],[49.2,2514],[49.2,2605],[49.2,2694],[49.2,2778],[49.2,2875],[49.2,2960],[49.2,3048],[49.2,3132],[49.2,3215],[49.2,3298],[49.2,3389],[49.2,3472],[49.2,3563],[49.2,3646],[49.2,3729],[49.2,3812],[49.2,3903],[49.2,3993],[49.2,4076],[49.2,4160],[49.2,4243],[49,4334],[48.7,4417],[47.8,4500],[46,4591],[45.3,4674],[45.3,4757],[44.8,4843],[44.3,4924],[43.2,5014],[43.2,5098],[42.8,5181],[42.8,5271],[42.8,5354],[42.8,5440],[42.8,5530],[42.8,5621],[42.8,5704],[42.8,5787],[42.8,5868],[42.8,5954],[42.8,6035],[42.8,6123],[42.8,6211],[42.8,6292],[42.8,6378],[42.8,6466],[42.8,6549],[42.8,6633],[42.8,6723],[42.8,6808],[42.8,6892],[42.8,6980],[42.8,7065],[42.8,7149],[42.8,7230],[42.8,7320],[42.8,7403],[44.7,7488],[51.7,7580],[55.8,7662],[60.4,7746],[66.2,7834],[72.6,7927],[74.4,8015],[82.9,8101],[83.9,8190],[85.8,8273],[86.2,8355],[86.2,8441],[86.2,8528],[86.2,8612],[86.2,8702],[86.2,8795],[86.2,8883],[86.1,8966],[86.1,9050],[86.1,9134],[86.1,9230],[86.1,9313],[86.1,9397],[86.1,9481],[86.1,9564],[86.1,9647],[86.1,9731],[86.1,9821],[86.1,9904],[86.1,9996],[86.1,10077],[86.1,10161],[86.1,10266],[86.1,10356],[86.1,10439],[86.1,10522],[86.1,10612],[86.1,10703],[85.9,10786],[85.9,10876],[85.9,10960],[85.9,11043],[85.9,11140],[85.9,11224],[85.9,11307],[85.9,11391],[85.8,11474],[85.8,11566],[85.8,11647],[85.8,11731],[85.8,11816],[85.8,11904],[85.8,11988],[85.8,12071],[85.7,12161],[85.7,12245],[85.7,12328],[85.7,12411],[85.7,12495],[85.7,12585],[85.7,12668],[85.7,12764],[85.7,12845],[85.7,12939],[85.7,13031],[85.7,13113],[85.7,13196],[85.7,13282],[85.7,13363],[85.7,13455],[85.7,13536],[85.7,13620],[85.7,13705],[85.7,13788],[85.6,13877],[85.6,13974],[85.6,14059],[85.6,14148],[85.6,14231],[86.1,14315],[86.9,14405],[88.9,14498],[89.3,14585],[89.3,14671],[89.3,14766],[89.6,14858],[90.1,14947],[90.5,15037],[90.5,15121],[90.5,15210],[90.5,15294],[90.5,15377],[90.5,15467],[90.5,15558],[90.5,15641],[90.5,15724],[90.5,15808],[90.5,15891],[90.5,15976],[90.5,16060],[90.5,16148],[90.5,16238],[90.5,16322],[90.5,16407],[90.4,16490],[90.4,16572],[90.4,16655],[90.4,16739],[90.4,16829],[90.4,16912],[90.4,16995],[90.4,17086],[90,17176],[88.7,17269],[88.1,17350],[87.1,17436],[86.3,17516],[86.2,17602],[86.2,17683],[86.2,17769],[86.2,17852],[86.2,17942],[86.2,18030],[86.2,18114],[86.2,18206],[87.6,18290],[87.6,18371],[87.6,18461],[87.6,18544],[87.6,18637],[87.6,18718],[87.6,18801],[87.6,18892],[87.6,18975],[87.6,19058],[87.6,19163],[87.6,19253],[87.6,19350],[87.6,19433],[87.6,19517],[87.6,19602],[87.6,19699],[87.3,19781],[87.3,19873],[87.3,19957],[87.3,20052],[87.3,20135],[87.3,20218],[87.3,20310],[87.3,20399],[87.3,20491],[87.3,20572],[87.3,20656],[87.3,20739],[87.3,20822],[87.3,20906],[87.3,20991],[87.3,21073],[87.3,21158],[87.3,21239],[87.3,21325],[87.3,21422],[87.3,21503],[87.3,21594],[87.3,21684],[87.3,21776],[87.3,21857],[87.3,21941],[87.3,22024],[87.3,22114],[87.3,22198],[87.3,22288],[87.3,22371],[87.3,22457],[87.3,22548],[87.3,22637],[87.3,22719],[87.3,22804],[87.3,22899],[87.3,22985],[87.3,23066],[87.3,23156],[87.3,23249],[87.3,23332],[87.3,23413],[87.3,23504],[87.7,23608],[87.7,23705],[87.9,23804],[88,23888],[88.4,23983],[88.4,24066],[88.4,24151],[88.5,24240],[88.8,24332],[89,24420],[89.1,24504],[89.1,24588],[89.1,24684],[89.1,24777]]",1,0,846.8423,849.0039,89.01273885,1.9758,"[{""rating"":89.01273885350318,""responseTime"":1.9758000001907021}]",space,1.636,,849.004,Definitely yes,100,849.0058,,,[],,0,7,7,7,1,audio/Narrative7Situation7.wav,audio/Narrative8Situation7.wav,audio/Narrative5Situation7.wav,audio/Narrative6Situation7.wav,5,3,4,5,,,,,,,,,,,,,,,,,,,,,,,,,,,,,,,,,,,,,,,
,,,,,,5c1053202b16ba0001c86317,2024-05-13_10h22.52.759,group3.1-3.2-social-tom,2023.2.2,Win32,144.9275362,65c5074098b851296ff0b7ed,6642300c2a47e00465306638,,,,,,,,,,,,,,,,,,,,,,,,,,,,,849.0058,2,audio/Narrative6Situation8.wav,854.0085,,854.0086,860.8456,"[[83.9,979],[73.1,1072],[66.2,1155],[63.2,1236],[61,1319],[58.5,1409],[53.9,1500],[53.1,1583],[52.9,1676],[52.3,1764],[52.1,1849],[51.6,1945],[51.5,2034],[51.3,2125],[50.8,2221],[50.6,2305],[50.4,2389],[50.2,2486],[50.2,2569],[50.2,2653],[50.2,2736],[50.2,2819],[50.2,2910],[50.2,2993],[50.2,3076],[50.2,3160],[50.2,3250],[50.2,3340],[50.2,3424],[50,3515],[49.6,3605],[49.1,3688],[49.1,3778],[49.1,3861],[48.6,3948],[48.6,4028],[48.6,4111],[48.6,4195],[48.6,4279],[48,4377],[47.7,4467],[46.3,4556],[44.9,4643],[42.4,4740],[40.3,4830],[40.3,4910],[38.7,4997],[36.8,5084],[35.3,5181],[33.4,5274],[32.3,5356],[31,5446],[30,5539],[28.6,5622],[27.5,5702],[26.8,5785],[25.5,5871],[24,5959],[22.7,6052],[22.7,6135],[22.6,6218],[22.5,6308],[22.5,6396],[21.4,6487],[20.9,6570],[19.1,6654],[17.2,6740],[15,6836]]",1,0,860.8457,863.4221,8.359872611,0.6001,"[{""rating"":8.359872611464969,""responseTime"":0.6000999999046144}]",space,2.0571,,863.4222,Definitely yes,100,863.4233,,,[],,0,8,8,8,1,audio/Narrative7Situation8.wav,audio/Narrative8Situation8.wav,audio/Narrative5Situation8.wav,audio/Narrative6Situation8.wav,2,3,3,5,,,,,,,,,,,,,,,,,,,,,,,,,,,,,,,,,,,,,,,
,,,,,,5c1053202b16ba0001c86317,2024-05-13_10h22.52.759,group3.1-3.2-social-tom,2023.2.2,Win32,144.9275362,65c5074098b851296ff0b7ed,6642300c2a47e00465306638,,,,,,,,,,,,,,,,,,,,,,,,,,,,,863.4235,2,audio/Narrative6Situation9.wav,867.4276,,867.4276,877.3669,"[[999,4],[999,90],[999,173],[999,256],[999,340],[999,423],[999,507],[999,591],[47.1,683],[48.1,766],[48.6,848],[49.1,933],[49.4,1016],[49.4,1104],[49.4,1194],[49.4,1277],[48.7,1377],[47.3,1466],[45.1,1548],[42.2,1639],[39.2,1732],[36.1,1822],[33.8,1910],[33.2,2003],[23.4,2891],[22.6,2975],[22.1,3058],[21.5,3148],[18.9,3236],[17.3,3327],[15.8,3410],[14.9,3500],[13.9,3593],[13.5,3688],[12.5,3771],[11.5,3865],[11.1,3947],[11.1,4036],[11.1,4118],[11.1,4201],[11.1,4285],[11.1,4382],[11.1,4472],[10.1,4556],[9.4,4653],[9.4,4739],[8,4827],[8,4910],[6.7,5002],[6.4,5091],[4.7,5181],[4.6,5264],[3.8,5355],[3.8,5445],[3.8,5535],[3.8,5620],[3.8,5702],[3.8,5785],[3.8,5875],[3.8,5959],[3.8,6042],[3.8,6132],[3.8,6223],[3.8,6313],[3.8,6396],[3.8,6482],[3.8,6563],[3.8,6649],[3.8,6744],[3.8,6834],[3.8,6926],[3.8,7008],[3.8,7091],[3.3,7177],[3.3,7265],[3.3,7348],[3.3,7431],[3.3,7523],[3.1,7607],[3.1,7690],[3,7772],[3,7862],[2.9,7946],[2.8,8042],[2.6,8135],[2.2,8223],[1.9,8314],[1.6,8398],[0.9,8490],[0.8,8577],[0.8,8668],[0.8,8751],[0.8,8839],[0.8,8920],[0.3,9001],[0.3,9085],[0.3,9175],[0.3,9265],[0.3,9348],[0.3,9432],[0.3,9522],[0.3,9605],[0.3,9698],[0.3,9786],[0.3,9876]]",1,0,877.367,879.1519,0.318471338,0.5292,"[{""rating"":0.31847133757961776,""responseTime"":0.5291999998092933}]",space,1.2655,,879.152,Definitely yes,100,879.1532,,,[],,0,9,9,9,1,audio/Narrative7Situation9.wav,audio/Narrative8Situation9.wav,audio/Narrative5Situation9.wav,audio/Narrative6Situation9.wav,2,3,3,4,,,,,,,,,,,,,,,,,,,,,,,,,,,,,,,,,,,,,,,
,,,,,,5c1053202b16ba0001c86317,2024-05-13_10h22.52.759,group3.1-3.2-social-tom,2023.2.2,Win32,144.9275362,65c5074098b851296ff0b7ed,6642300c2a47e00465306638,,,,,,,,,,,,,,,,,,,,,,,,,,,,,879.1533,2,audio/Narrative5Situation1.wav,884.1597,,884.1597,897.4349,"[[18.3,590],[26.1,673],[32.6,760],[37.1,840],[38.9,926],[41.7,1024],[43.7,1113],[45.4,1201],[46.5,1286],[47.1,1370],[47.6,1451],[48.1,1542],[48.6,1625],[48.6,1715],[48.6,1798],[48.6,1889],[48.6,1974],[48.9,2056],[48.9,2139],[48.9,2229],[48.9,2314],[48.9,2396],[48.9,2479],[48.9,2563],[48.8,2646],[48.8,2729],[48.8,2812],[48.8,2903],[48.8,2986],[48.8,3069],[48.8,3153],[48.8,3238],[48.8,3319],[48.7,3410],[48.7,3502],[48.7,3583],[48.7,3667],[48.7,3752],[48.7,3841],[48.7,3924],[48.7,4014],[48.7,4100],[48.6,4190],[48.6,4274],[48.6,4355],[48.6,4445],[48.6,4535],[48,4618],[48,4709],[46.8,4795],[45.2,4878],[44.9,4959],[43.2,5050],[43.1,5132],[42,5224],[42,5313],[42,5398],[42,5480],[42,5563],[42,5653],[41.6,5743],[39.4,5837],[36.9,5931],[35.3,6014],[35.2,6098],[35.2,6183],[35,6268],[33.4,6355],[33.4,6440],[33.4,6528],[33.1,6622],[33.1,6718],[33.1,6802],[33.1,6891],[32.9,6976],[30.7,7068],[30.7,7147],[29.9,7230],[27.9,7314],[26,7403],[23.2,7503],[23.2,7585],[23.2,7668],[23.2,7751],[20.8,7841],[19.8,7932],[19.2,8015],[19.2,8105],[17.6,8188],[17.6,8279],[17.6,8369],[16.3,8459],[16.3,8545],[16.3,8627],[15,8713],[13.5,8803],[12.6,8883],[11.3,8974],[11.1,9057],[10.1,9154],[9.9,9244],[8.8,9334],[8.8,9418],[8.8,9508],[8.2,9601],[7.5,9696],[7.5,9779],[7.5,9864],[6.9,9953],[6.9,10043],[6.8,10127],[6.7,10220],[6.7,10300],[6,10386],[5.2,10481],[3.7,10578],[3,10661],[3,10751],[3,10835],[3,10918],[3,11001],[3,11085],[3,11168],[3,11251],[3,11342],[3,11425],[3,11515],[5.5,11599],[7.3,11692],[9.9,11779],[9.9,11865],[9.9,11946],[9.9,12029],[9.9,12120],[9.9,12210],[9.9,12293],[9.9,12379],[9.9,12460],[9.9,12543],[9.9,12636],[9.9,12724],[9.9,12807],[9.9,12898],[9.9,12981],[9.9,13064],[9.9,13148],[9.9,13233]]",1,0,897.4349,899.3257,9.872611465,0.4349,"[{""rating"":9.87261146496815,""responseTime"":0.4348999996185512}]",space,1.3675,,899.3257,Partially,50,899.3272,,,[],,0,10,10,10,1,audio/Narrative8Situation1.wav,audio/Narrative7Situation1.wav,audio/Narrative6Situation1.wav,audio/Narrative5Situation1.wav,5,2,2,5,,,,,,,,,,,,,,,,,,,,,,,,,,,,,,,,,,,,,,,
,,,,,,5c1053202b16ba0001c86317,2024-05-13_10h22.52.759,group3.1-3.2-social-tom,2023.2.2,Win32,144.9275362,65c5074098b851296ff0b7ed,6642300c2a47e00465306638,,,,,,,,,,,,,,,,,,,,,,,,,,,,,899.3274,2,audio/Narrative5Situation2.wav,902.3296,,902.3296,931.7811,"[[45.8,356],[46.4,441],[47,523],[47,607],[48.2,694],[49,805],[49,889],[49,972],[49,1062],[49,1146],[49,1236],[49,1321],[49,1416],[49,1500],[48.9,1590],[48.9,1675],[48.3,1771],[48.3,1854],[48.3,1944],[48.3,2028],[48.3,2113],[48.3,2208],[48.3,2299],[48.3,2391],[48.3,2472],[48.3,2565],[48.3,2646],[48.3,2729],[48.3,2812],[48.3,2896],[48.3,2981],[48.3,3065],[48,3162],[47.7,3243],[46.2,3337],[45.5,3424],[45.1,3516],[44.2,3600],[43.6,3681],[43.3,3773],[43.1,3854],[42.7,3946],[42.3,4038],[42.1,4121],[41.2,4216],[40,4308],[39.4,4389],[39.4,4472],[38.8,4557],[38.8,4639],[38.2,4722],[36.5,4816],[35.6,4904],[35.1,5000],[35.1,5084],[35.1,5174],[35.1,5271],[35.1,5355],[35.1,5446],[35.1,5543],[35.1,5632],[35.1,5716],[35.1,5806],[34.2,5900],[33.1,5983],[31.4,6064],[27.9,6154],[26.2,6253],[24.4,6344],[23.1,6431],[21.5,6514],[20.6,6599],[19.6,6682],[17.8,6765],[17.6,6858],[17.1,6945],[17.1,7028],[17.1,7113],[16.9,7195],[15.9,7278],[15.8,7362],[15.8,7452],[15.8,7545],[15.8,7635],[15.8,7737],[15.8,7820],[15.8,7904],[15.8,7996],[15.8,8077],[15.8,8161],[15.8,8246],[15.8,8327],[15.8,8418],[15.8,8501],[15.8,8584],[15.8,8677],[15.8,8765],[15.8,8857],[15.8,8949],[15.8,9029],[15.8,9112],[15.8,9203],[15.8,9286],[15.8,9369],[15.8,9452],[15.8,9536],[15.8,9619],[15.8,9711],[15.8,9793],[15.8,9876],[15.8,9967],[15.8,10050],[15.8,10133],[15.8,10225],[15.8,10316],[15.8,10404],[15.8,10488],[15.7,10573],[14.5,10654],[13.5,10738],[11.9,10835],[11.6,10927],[11,11015],[10.1,11112],[9.3,11199],[8.8,11281],[8,11365],[7.3,11447],[6.1,11540],[5.7,11635],[5.7,11724],[5.7,11807],[5.7,11891],[5,11981],[4.9,12071],[4.9,12154],[4.9,12245],[4.9,12328],[4.9,12413],[4.9,12502],[4.9,12585],[4.9,12676],[4.9,12767],[4.9,12856],[4.9,12942],[4.9,13025],[4.9,13109],[4.9,13198],[4.9,13280],[4.9,13363],[4.9,13455],[4.9,13537],[4.9,13620],[4.9,13710],[4.8,13802],[4.8,13884],[4.5,13973],[4.5,14058],[4.1,14149],[3.6,14244],[3.6,14321],[3.5,14412],[3.4,14495],[3.3,14586],[3.2,14670],[3,14761],[2.8,14849],[2.8,14933],[2.8,15025],[2.8,15109],[2.8,15190],[2.8,15273],[2.8,15363],[2.8,15447],[2.8,15537],[2.8,15620],[2.8,15711],[2.8,15796],[2.8,15877],[2.8,15968],[2.8,16051],[2.8,16136],[2.8,16225],[2.8,16308],[2.8,16391],[2.8,16475],[2.8,16560],[2.8,16641],[2.8,16725],[2.8,16809],[2.8,16898],[2.8,16989],[2.8,17079],[2.8,17162],[2.8,17245],[2.8,17336],[2.8,17426],[2.8,17509],[2.8,17593],[2.8,17678],[2.8,17767],[2.8,17857],[2.8,17940],[2.8,18030],[2.8,18121],[2.8,18204],[2.8,18287],[2.8,18372],[2.8,18461],[2.8,18553],[2.8,18635],[2.8,18718],[2.8,18803],[2.8,18899],[2.8,18982],[2.8,19068],[2.8,19156],[2.8,19240],[2.8,19323],[2.8,19427],[2.8,19510],[2.8,19594],[2.8,19685],[2.8,19774],[2.8,19857],[2.8,19942],[2.8,20031],[2.8,20116],[2.8,20207],[2.8,20288],[2.8,20371],[2.8,20461],[2.8,20552],[2.8,20636],[2.8,20718],[2.8,20802],[2.8,20885],[2.8,20975],[2.8,21073],[2.8,21156],[2.5,21246],[2.4,21337],[2.3,21427],[2.3,21510],[2.3,21601],[2.3,21684],[2.3,21768],[2.3,21864],[2.3,21955],[2.3,22045],[3.7,22143],[5,22235],[6.7,22323],[7.2,22414],[7.2,22504],[9.1,22597],[11.3,22687],[15.1,22777],[16.6,22865],[17.1,22955],[17.1,23038],[18.6,23125],[18.6,23212],[20.8,23305],[22.1,23388],[23.1,23485],[23.2,23573],[23.2,23656],[23.2,23749],[23.2,23832],[23.2,23920],[23.2,24006],[19.6,24104],[16,24188],[12.3,24275],[12.3,24360],[12.3,24441],[11.9,24527],[11,24609],[11,24698],[11,24784],[11,24866],[11,24955],[11,25041],[11,25122],[11,25206],[11,25296],[11,25381],[11,25462],[11,25555],[11,25636],[11,25728],[11,25811],[11,25893],[11,25978],[11,26060],[11,26143],[11,26226],[11,26317],[11,26401],[11,26483],[11,26567],[11,26657],[11,26742],[11,26824],[11,26914],[11,26999],[11,27081],[11,27164],[11,27254],[11,27338],[11,27430],[11,27514],[11,27595],[11,27685],[11,27776],[11,27859],[11,27942],[11,28032],[11,28116],[11,28199],[11,28283],[11,28373],[11,28456],[11,28548],[11,28629],[11,28713],[11,28810],[11,28900],[11,28991],[11,29074],[11,29158],[11,29243],[11,29327],[11,29410]]",1,0,931.7811,932.8419,10.98726115,0.4101,"[{""rating"":10.987261146496813,""responseTime"":0.4100999999046735}]",space,0.5462,,932.842,Definitely yes,100,939.1694,99.7611465,5.3981,"[{""rating"":99.76114649681529,""responseTime"":5.398099999904616}]",space,0,11,11,11,1,audio/Narrative8Situation2.wav,audio/Narrative7Situation2.wav,audio/Narrative6Situation2.wav,audio/Narrative5Situation2.wav,3,3,3,3,,,5.8066,,,,,,,,,,,,,,,,,,,,,,,,,,,,,,,,,,,,
,,,,,,5c1053202b16ba0001c86317,2024-05-13_10h22.52.759,group3.1-3.2-social-tom,2023.2.2,Win32,144.9275362,65c5074098b851296ff0b7ed,6642300c2a47e00465306638,,,,,,,,,,,,,,,,,,,,,,,,,,,,,939.1697,2,audio/Narrative5Situation3.wav,942.172,,942.1721,956.0683,"[[46,783],[47.5,866],[48.2,956],[49,1043],[50,1137],[50.1,1227],[50.1,1317],[49.5,1408],[49.1,1500],[49.1,1581],[49.1,1664],[49.1,1748],[49.1,1838],[49.1,1930],[48.6,2022],[48.6,2102],[48.6,2185],[48.6,2269],[48.6,2354],[48.1,2437],[48.1,2521],[48.1,2609],[48.1,2692],[48.1,2782],[48.1,2866],[48.1,2957],[48.1,3046],[48.1,3132],[47.9,3223],[47.6,3319],[47.6,3401],[47.6,3484],[47.6,3567],[47.3,3665],[47.2,3748],[47.2,3831],[47.2,3920],[47.9,4012],[48.6,4105],[49,4188],[49.5,4278],[50.6,4373],[51.4,4457],[52.1,4547],[53.5,4639],[53.6,4722],[53.6,4804],[54.3,4897],[54.9,4987],[55.4,5070],[55.4,5151],[56.8,5234],[64.4,5320],[66,5408],[69.4,5492],[71.7,5582],[72.2,5668],[74.4,5755],[80,5848],[83.3,5932],[85.7,6020],[87.7,6102],[88,6193],[88.6,6276],[90.2,6362],[91.5,6464],[92.6,6554],[92.6,6644],[92.6,6730],[92.6,6818],[92.6,6901],[92.6,6993],[92.6,7082],[92.6,7168],[92.5,7249],[92.5,7332],[92.5,7425],[92.5,7520],[92.5,7603],[92.5,7688],[92.5,7772],[92.5,7854],[92.5,7936],[92.5,8027],[92.5,8117],[92.5,8202],[92.5,8291],[92.5,8374],[92.4,8464],[92.4,8557],[92.4,8640],[92.4,8728],[92.4,8811],[92.4,8897],[92.4,8987],[92.4,9082],[92.4,9165],[92.3,9249],[92.2,9339],[92.1,9429],[92.1,9513],[92.1,9596],[92,9683],[92,9763],[92,9846],[92,9930],[92,10014],[92,10097],[92,10187],[92,10270],[92,10360],[92,10446],[92,10527],[92,10610],[92,10696],[91.9,10785],[91.9,10867],[91.9,10953],[91.9,11034],[91.9,11117],[91.9,11201],[91.9,11291],[91.9,11376],[91.9,11472],[91.9,11562],[91.9,11647],[91.9,11728],[91.9,11812],[91.9,11897],[91.9,11981],[91.9,12062],[91.9,12147],[91.9,12231],[91.9,12319],[91.9,12402],[91.9,12488],[91.9,12576],[91.9,12661],[91.9,12745],[92.1,12826],[94.3,12919],[95.1,13009],[95.7,13090],[95.7,13173],[95.9,13256],[96.3,13340],[96.3,13423],[96.4,13507],[96.8,13592],[97.1,13682],[97.2,13764],[97.2,13848]]",1,0,956.0684,957.2699,93.39171975,0.8454,"[{""rating"":93.39171974522293,""responseTime"":0.8453999996185075}]",space,0.6921,,957.2699,Not at all,0,957.2724,,,[],,0,12,12,12,1,audio/Narrative8Situation3.wav,audio/Narrative7Situation3.wav,audio/Narrative6Situation3.wav,audio/Narrative5Situation3.wav,4,8,5,3,,,,,,,,,,,,,,,,,,,,,,,,,,,,,,,,,,,,,,,
,,,,,,5c1053202b16ba0001c86317,2024-05-13_10h22.52.759,group3.1-3.2-social-tom,2023.2.2,Win32,144.9275362,65c5074098b851296ff0b7ed,6642300c2a47e00465306638,,,,,,,,,,,,,,,,,,,,,,,,,,,,,957.2725,2,audio/Narrative5Situation4.wav,958.2733,,958.2734,978.6451,"[[92.8,618],[92.7,705],[92.2,788],[87.3,871],[81.5,961],[52,1608],[51,1698],[50.2,1785],[49.6,1864],[49.6,1948],[49.6,2031],[49.6,2114],[49.6,2198],[49.8,2288],[49.9,2372],[49.9,2464],[50.1,2545],[50.1,2628],[50.1,2714],[50.1,2795],[50.1,2879],[50.1,2963],[50.1,3047],[50.1,3138],[49.9,3221],[49.9,3302],[49.9,3388],[49.9,3469],[49.9,3568],[49.9,3649],[49.9,3733],[49.7,3816],[49.7,3906],[48.6,3992],[48.6,4080],[48.6,4166],[48.6,4247],[47.9,4337],[47.8,4423],[47.6,4520],[46.9,4601],[46.8,4684],[46.8,4768],[46.8,4851],[46.1,4943],[45.9,5042],[45,5123],[44.3,5208],[42.2,5291],[39.9,5372],[39.4,5455],[39.4,5539],[38,5631],[37.2,5712],[36.1,5806],[35,5893],[34.1,5984],[33.4,6069],[31.8,6151],[30.8,6245],[29.1,6340],[27.3,6431],[26,6512],[24,6610],[22.6,6701],[22,6783],[20.9,6867],[19.5,6965],[18.2,7048],[17.7,7129],[17.2,7233],[17.2,7312],[17.2,7394],[17.2,7479],[16.7,7569],[16.7,7657],[16,7756],[16,7838],[15.3,7923],[14.8,8014],[14.3,8097],[13.5,8192],[13.5,8275],[13.3,8365],[13.3,8456],[13.3,8539],[13.3,8623],[13.3,8706],[13.3,8798],[13.3,8880],[13.3,8972],[13.3,9060],[14.2,9144],[14.2,9227],[14.6,9325],[14.7,9408],[14.7,9500],[14.7,9591],[15.8,9689],[15.8,9776],[16.7,9873],[16.7,9957],[16.7,10046],[16.7,10131],[18.2,10221],[20.5,10307],[21.5,10395],[21.6,10483],[21.7,10570],[22.5,10658],[22.5,10748],[22.5,10833],[22.5,10917],[22.5,11007],[22.5,11088],[22.5,11172],[22.5,11255],[22.5,11341],[22.5,11423],[22.5,11514],[22.5,11603],[22.5,11687],[22.5,11776],[22.5,11859],[22.5,11942],[22.5,12026],[22.5,12116],[22.5,12216],[22.5,12299],[22.5,12380],[22.5,12466],[22.5,12549],[22.5,12630],[22.5,12716],[22.5,12797],[22.5,12880],[22.5,12964],[22.5,13068],[22.5,13151],[22.5,13235],[22.5,13318],[22.5,13408],[22.5,13491],[22.5,13575],[22.5,13667],[22.5,13748],[22.5,13832],[22.5,13915],[22.5,14000],[22.5,14082],[22.5,14169],[22.5,14249],[22.5,14346],[22.5,14429],[22.5,14515],[22.5,14603],[22.5,14700],[22.5,14790],[22.5,14882],[22.5,14973],[22.5,15063],[22.5,15145],[22.5,15237],[22.5,15325],[22.5,15409],[22.5,15494],[22.5,15582],[22.5,15682],[22.5,15772],[22.5,15853],[22.5,15936],[22.5,16027],[22.5,16112],[22.5,16201],[22.5,16284],[22.5,16367],[22.5,16450],[22.5,16541],[22.5,16627],[22.5,16716],[22.5,16805],[22.5,16888],[22.5,16978],[22.5,17062],[22.5,17145],[22.5,17230],[22.5,17312],[22.5,17395],[22.5,17485],[22.5,17569],[22.5,17652],[22.5,17735],[22.5,17819],[22.5,17902],[22.5,17989],[22.5,18083],[22.5,18169],[22.5,18257],[22.5,18346],[23.9,18433],[33,18527],[43,18625],[46.8,18711],[48.2,18791],[48.3,18882],[48.3,18965],[49.1,19055],[50,19152],[50.4,19242],[50.6,19328],[51.2,19425],[51.8,19510],[52.6,19597],[53.3,19680],[53.4,19771],[53.4,19854],[53.4,19937],[53.4,20027],[55.2,20119],[57,20203],[60.9,20293]]",1,0,978.6453,980.1935,66.79936306,0.603,"[{""rating"":66.79936305732484,""responseTime"":0.6030000000000655}]",space,1.0311,,980.1936,Not at all,0,980.1945,,,[],,0,13,13,13,1,audio/Narrative8Situation4.wav,audio/Narrative7Situation4.wav,audio/Narrative6Situation4.wav,audio/Narrative5Situation4.wav,3,3,2,1,,,,,,,,,,,,,,,,,,,,,,,,,,,,,,,,,,,,,,,
,,,,,,5c1053202b16ba0001c86317,2024-05-13_10h22.52.759,group3.1-3.2-social-tom,2023.2.2,Win32,144.9275362,65c5074098b851296ff0b7ed,6642300c2a47e00465306638,,,,,,,,,,,,,,,,,,,,,,,,,,,,,980.1946,2,audio/Narrative5Situation5.wav,985.1983,,985.1983,1000.599,"[[48.5,683],[49,773],[49,861],[49,944],[49,1037],[49,1118],[49,1215],[49,1302],[49,1391],[49,1481],[49,1562],[49,1662],[49,1750],[49,1840],[49,1932],[49,2028],[49,2111],[49,2201],[49,2286],[49,2369],[49,2459],[49,2541],[49,2634],[49,2716],[49,2799],[49.2,2896],[49.2,2979],[49.2,3063],[49.2,3161],[49.2,3243],[49.2,3333],[49.4,3419],[49.6,3500],[49.6,3585],[49.9,3674],[50,3764],[50.6,3848],[50.6,3933],[50.6,4023],[50.6,4113],[52,4209],[52.4,4299],[52.4,4389],[52.6,4479],[52.6,4570],[52.6,4660],[52.6,4750],[52.6,4834],[52.6,4917],[52.1,5011],[51.6,5094],[50.6,5174],[49.3,5281],[48.9,5363],[48,5446],[47.1,5531],[46.2,5633],[45.9,5723],[45.5,5806],[45,5896],[44.3,5981],[43.1,6067],[42,6153],[41.3,6245],[40.8,6328],[40.1,6418],[39.8,6507],[39.4,6600],[38.5,6683],[37.8,6767],[37,6864],[36.6,6945],[36.1,7039],[35.9,7119],[35.6,7209],[35.4,7294],[35,7376],[34.5,7460],[34.5,7543],[33.7,7635],[33.4,7716],[33.1,7807],[33.1,7897],[33.1,7980],[33.1,8064],[33.1,8147],[33.1,8237],[33.1,8320],[33.1,8411],[33.1,8501],[33.1,8598],[33.1,8695],[33.1,8781],[33.1,8869],[33.1,8953],[33.1,9043],[33.1,9126],[33.1,9216],[33.1,9301],[33.1,9390],[33.1,9480],[33.1,9564],[33.1,9647],[33.1,9730],[32.4,9823],[32.4,9904],[32.1,9988],[32.1,10073],[32.1,10175],[32.1,10271],[32.1,10363],[32.1,10455],[32.1,10536],[32.1,10622],[32.1,10703],[32.1,10800],[31.8,10885],[31.3,10967],[30.8,11050],[30.2,11142],[28.9,11224],[27.9,11311],[26.4,11400],[24.9,11483],[23.6,11573],[22.3,11662],[21.3,11752],[20.4,11856],[20.2,11949],[20.1,12031],[20.1,12127],[20.1,12219],[20,12303],[19.7,12384],[19.7,12475],[19.1,12564],[18.8,12651],[18.3,12738],[18.2,12823],[18.2,12918],[18.2,13002],[18.2,13085],[18.2,13175],[18.2,13273],[18.2,13356],[18.2,13439],[18.2,13530],[18.2,13615],[18.2,13696],[18.2,13782],[18.2,13870],[18.2,13961],[18.2,14051],[18.2,14136],[18.2,14226],[18.2,14307],[18.2,14391],[18.2,14484],[17.4,14571],[17.4,14657],[17.4,14747],[17.4,14830],[17.4,14919],[17.4,15004],[16.5,15101],[16.4,15185],[15.7,15266],[12.8,15363]]",1,0,1000.5991,1002.257,3.503184713,0.9582,"[{""rating"":3.5031847133757954,""responseTime"":0.958199999809267}]",space,1.1399,,1002.257,Not at all,0,1002.2585,,,[],,0,14,14,14,1,audio/Narrative8Situation5.wav,audio/Narrative7Situation5.wav,audio/Narrative6Situation5.wav,audio/Narrative5Situation5.wav,2,5,2,5,,,,,,,,,,,,,,,,,,,,,,,,,,,,,,,,,,,,,,,
,,,,,,5c1053202b16ba0001c86317,2024-05-13_10h22.52.759,group3.1-3.2-social-tom,2023.2.2,Win32,144.9275362,65c5074098b851296ff0b7ed,6642300c2a47e00465306638,,,,,,,,,,,,,,,,,,,,,,,,,,,,,1002.2587,2,audio/Narrative5Situation6.wav,1005.2645,,1005.2645,1010.9281,"[[999,4],[999,93],[999,180],[999,270],[999,363],[48.1,451],[49,543],[49,632],[49,715],[49,800],[49.1,895],[49.2,979],[49.2,1064],[49.2,1145],[49.2,1229],[49.2,1320],[49.2,1416],[49.2,1507],[49.2,1596],[49.2,1680],[49,1767],[49,1847],[48.3,1930],[48.3,2014],[48.3,2104],[48.3,2201],[48.3,2284],[48.3,2368],[48.3,2451],[48.1,2548],[48.1,2632],[48.1,2722],[48.1,2806],[48.1,2889],[48.1,2972],[47.7,3058],[47.3,3139],[47.1,3229],[46.5,3313],[45.7,3396],[44.8,3483],[43.9,3569],[43.9,3662],[43.9,3750],[43.7,3833],[43.7,3918],[43.7,4007],[43.6,4100],[43.3,4181],[43.3,4264],[43.3,4349],[43.3,4438],[44.4,4528],[68.2,4973],[69.3,5063],[72.5,5154],[75.7,5245],[78.6,5330],[82,5417],[84.1,5500],[86.6,5591]]",1,0,1010.9282,1012.6999,93.23248408,0.8667,"[{""rating"":93.23248407643312,""responseTime"":0.8666999998092706}]",space,1.2501,,1012.6999,Not at all,0,1012.7008,,,[],,0,15,15,15,1,audio/Narrative8Situation6.wav,audio/Narrative7Situation6.wav,audio/Narrative6Situation6.wav,audio/Narrative5Situation6.wav,2,3,2,3,,,,,,,,,,,,,,,,,,,,,,,,,,,,,,,,,,,,,,,
