exp_question,consent.started,consent.stopped,consentResponse.keys,consentResponse.rt,consentResponse.duration,participantID,date,expName,psychopyVersion,OS,frameRate,STUDY_ID,SESSION_ID,opening1.started,opening1.stopped,keyEndingOpening1.keys,keyEndingOpening1.rt,keyEndingOpening1.duration,volumeAdjust.started,volumeAdjust.stopped,endingAdjust.keys,endingAdjust.rt,endingAdjust.duration,opening2.started,opening2.stopped,keyEndingOpening.keys,keyEndingOpening.rt,keyEndingOpening.duration,mouse.x,mouse.y,mouse.leftButton,mouse.midButton,mouse.rightButton,mouse.time,instructionLoop.thisRepN,instructionLoop.thisTrialN,instructionLoop.thisN,instructionLoop.thisIndex,instructionLoop.ran,readyForAudio.started,readyForAudio.stopped,fixation.started,run,audio_played,fixation.stopped,endPractice.keys,audioPre.started,audioPre.stopped,continuousResponses_audio,continuousSlider.response,continuousSlider.rt,intRating.started,intRating.stopped,intQuestionSlider.response,intQuestionSlider.rt,intQuestionSlider.history,confirmResponse.keys,confirmResponse.rt,confirmResponse.duration,catchQuestion.started,catch_label,catch_value,catchQuestion.stopped,catchQuestionSlider.response,catchQuestionSlider.rt,catchQuestionSlider.history,confirmResponse_2.keys,audioRunLoop.thisRepN,audioRunLoop.thisTrialN,audioRunLoop.thisN,audioRunLoop.thisIndex,audioRunLoop.ran,conditions1_1,conditions2_1,conditions1_2,conditions2_2,dur1_1,dur2_1,dur1_2,dur2_2,endPractice.rt,endPractice.duration,confirmResponse_2.rt,confirmResponse_2.duration,runIntervalBreak.started,runIntervalBreak.stopped,endingBreakKey.keys,endingBreakKey.rt,endingBreakKey.duration,connection.started,connection.stopped,connectionEnding.keys,connectionEnding.rt,connectionEnding.duration,readyForText.started,readyForText.stopped,textPre.started,run_dup,textPre.stopped,continuousResponses_text,textRunLoop.thisRepN,textRunLoop.thisTrialN,textRunLoop.thisN,textRunLoop.thisIndex,textRunLoop.ran,text1_1,text1_2,text2_1,text2_2,runBreakText.started,runBreakText.stopped,endingBreakKey_2.keys,endingBreakKey_2.rt,endingBreakKey_2.duration,ending.started,ending.stopped,endingEnding.keys,endingEnding.rt,endingEnding.duration
social,0.001,9.33,y,8.997,,5d453e8723a5bb0001492546,2024-02-08_16h50.25.518,group3.1-3.2-social-tom,2023.2.2,Linux x86_64,62.11180124,65c5074098b851296ff0b7ed,65c5415a88725f80ea4397b0,,,,,,,,,,,,,,,,,,,,,,,,,,,,,,,,,,,,,,,,,,,,,,,,,,,,,,,,,,,,,,,,,,,,,,,,,,,,,,,,,,,,,,,,,,,,,,,,,,,,,,,,,,
,,,,,,5d453e8723a5bb0001492546,2024-02-08_16h50.25.518,group3.1-3.2-social-tom,2023.2.2,Linux x86_64,62.11180124,65c5074098b851296ff0b7ed,65c5415a88725f80ea4397b0,9.33,16.429,space,7.048,,,,,,,,,,,,,,,,,,,,,,,,,,,,,,,,,,,,,,,,,,,,,,,,,,,,,,,,,,,,,,,,,,,,,,,,,,,,,,,,,,,,,,,,,,,,,,,,,,,,,,
,,,,,,5d453e8723a5bb0001492546,2024-02-08_16h50.25.518,group3.1-3.2-social-tom,2023.2.2,Linux x86_64,62.11180124,65c5074098b851296ff0b7ed,65c5415a88725f80ea4397b0,,,,,,16.43,27.612,space,10.85,,,,,,,,,,,,,,,,,,,,,,,,,,,,,,,,,,,,,,,,,,,,,,,,,,,,,,,,,,,,,,,,,,,,,,,,,,,,,,,,,,,,,,,,,,,,,,,,,
,,,,,,5d453e8723a5bb0001492546,2024-02-08_16h50.25.518,group3.1-3.2-social-tom,2023.2.2,Linux x86_64,62.11180124,65c5074098b851296ff0b7ed,65c5415a88725f80ea4397b0,,,,,,,,,,,27.618,40.298,space,12.648,,[],[],[],[],[],[],0,0,0,0,1,,,,,,,,,,,,,,,,,,,,,,,,,,,,,,,,,,,,,,,,,,,,,,,,,,,,,,,,,,,,,,,,,,,,,,,,,,,,,,,,
,,,,,,5d453e8723a5bb0001492546,2024-02-08_16h50.25.518,group3.1-3.2-social-tom,2023.2.2,Linux x86_64,62.11180124,65c5074098b851296ff0b7ed,65c5415a88725f80ea4397b0,,,,,,,,,,,40.304,67.98,space,27.591,,[],[],[],[],[],[],1,0,1,0,1,,,,,,,,,,,,,,,,,,,,,,,,,,,,,,,,,,,,,,,,,,,,,,,,,,,,,,,,,,,,,,,,,,,,,,,,,,,,,,,,
,,,,,,5d453e8723a5bb0001492546,2024-02-08_16h50.25.518,group3.1-3.2-social-tom,2023.2.2,Linux x86_64,62.11180124,65c5074098b851296ff0b7ed,65c5415a88725f80ea4397b0,,,,,,,,,,,67.982,86.848,space,18.811,,[],[],[],[],[],[],2,0,2,0,1,,,,,,,,,,,,,,,,,,,,,,,,,,,,,,,,,,,,,,,,,,,,,,,,,,,,,,,,,,,,,,,,,,,,,,,,,,,,,,,,
,,,,,,5d453e8723a5bb0001492546,2024-02-08_16h50.25.518,group3.1-3.2-social-tom,2023.2.2,Linux x86_64,62.11180124,65c5074098b851296ff0b7ed,65c5415a88725f80ea4397b0,,,,,,,,,,,86.855,124.23,space,37.345,,[],[],[],[],[],[],3,0,3,0,1,,,,,,,,,,,,,,,,,,,,,,,,,,,,,,,,,,,,,,,,,,,,,,,,,,,,,,,,,,,,,,,,,,,,,,,,,,,,,,,,
,,,,,,5d453e8723a5bb0001492546,2024-02-08_16h50.25.518,group3.1-3.2-social-tom,2023.2.2,Linux x86_64,62.11180124,65c5074098b851296ff0b7ed,65c5415a88725f80ea4397b0,,,,,,,,,,,124.232,147.815,space,23.553,,[],[],[],[],[],[],4,0,4,0,1,,,,,,,,,,,,,,,,,,,,,,,,,,,,,,,,,,,,,,,,,,,,,,,,,,,,,,,,,,,,,,,,,,,,,,,,,,,,,,,,
,,,,,,5d453e8723a5bb0001492546,2024-02-08_16h50.25.518,group3.1-3.2-social-tom,2023.2.2,Linux x86_64,62.11180124,65c5074098b851296ff0b7ed,65c5415a88725f80ea4397b0,,,,,,,,,,,,,,,,,,,,,,,,,,,147.819,150.396,150.416,1,audio/Narrative13Situation2.wav,152.43,,152.43,182.181,"[[999,3],[999,81],[999,163],[999,249],[999,331],[999,414],[999,499],[999,581],[999,664],[999,749],[999,831],[999,914],[999,999],[999,1081],[999,1166],[999,1248],[999,1331],[999,1414],[999,1500],[999,1582],[999,1664],[999,1748],[999,1831],[999,1916],[999,1998],[999,2081],[999,2166],[999,2248],[999,2332],[999,2414],[999,2499],[999,2581],[999,2664],[999,2749],[999,2831],[999,2913],[999,2999],[999,3081],[999,3167],[999,3250],[999,3331],[999,3414],[999,3498],[999,3581],[999,3664],[999,3749],[999,3831],[999,3914],[2.7,4000],[2.5,4081],[2.5,4164],[2.5,4248],[2.5,4331],[2.5,4414],[2.5,4500],[2.4,4581],[1.8,4664],[1.8,4749],[1.8,4831],[1.8,4916],[1.8,4999],[1.1,5081],[0.6,5164],[0.6,5248],[0.6,5331],[0.6,5416],[0.6,5498],[0.6,5581],[0.6,5664],[0.6,5748],[0.6,5831],[0.6,5916],[0.6,5998],[0.6,6081],[0.6,6166],[0.6,6249],[0.6,6331],[0.6,6414],[0.6,6498],[0.6,6582],[0.6,6666],[0.6,6748],[0.6,6831],[0.6,6914],[0.6,6999],[0.6,7081],[0.6,7164],[0.6,7248],[0.6,7331],[0.6,7416],[0.7,7499],[0.8,7581],[0.8,7664],[0.8,7748],[0.8,7832],[1.2,7916],[1.8,7999],[4.2,8081],[6.7,8164],[8.2,8249],[13.3,8332],[14.2,8416],[14.6,8500],[22.5,8581],[23.3,8664],[23.3,8749],[27.9,8831],[28.2,8914],[28.5,9000],[29.6,9082],[30.4,9166],[33.8,9249],[40.4,9332],[43.8,9414],[47.5,9499],[52.5,9581],[53.3,9664],[60,9749],[61,9831],[61,9914],[61,9998],[61.7,10082],[65.1,10167],[67,10248],[68.2,10331],[82.5,10414],[100,10500],[100,10582],[99.6,10666],[98.7,10749],[97.9,10831],[97.9,10914],[94.9,10999],[91.9,11081],[91.9,11164],[91.9,11249],[91.9,11331],[91.9,11414],[91.9,11499],[91.9,11582],[91.9,11666],[92.6,11750],[92.6,11831],[92.6,11914],[92.6,12000],[92.6,12082],[92.6,12182],[92.6,12264],[92.6,12349],[92.6,12432],[92.6,12514],[92.5,12601],[91.5,12682],[83.7,12764],[78.9,12849],[70,12931],[67.3,13014],[66.2,13099],[66.2,13182],[66.2,13264],[66.2,13349],[66.4,13432],[67.3,13515],[69,13599],[69,13682],[69,13765],[69,13847],[69,13932],[69,14015],[69,14100],[69.2,14182],[69.2,14264],[69.6,14347],[69.6,14431],[69.6,14514],[72.9,14599],[80.2,14682],[91.7,14770],[91.7,14849],[95,14932],[95.6,15017],[96.3,15099],[97.5,15182],[97.5,15264],[97.5,15347],[96.8,15432],[93.6,15515],[85.7,15600],[84.3,15682],[70.4,15764],[62.4,15849],[58,15932],[56.9,16014],[53.7,16097],[52.4,16182],[49.8,16265],[49.5,16349],[48.1,16432],[48.1,16514],[47.6,16600],[46.8,16681],[46.8,16765],[46.8,16850],[44.4,16932],[41.2,17014],[37.7,17100],[35.1,17182],[33.3,17265],[32,17347],[31.5,17431],[30.6,17514],[29.2,17600],[27.4,17682],[26.2,17765],[24.3,17849],[22.7,17932],[20.6,18015],[18.5,18097],[16,18181],[13.6,18264],[11.5,18347],[9.6,18432],[8.7,18514],[6.4,18599],[6.2,18682],[4.3,18764],[4.3,18849],[4.3,18931],[4.3,19014],[4.3,19097],[4.3,19182],[4.3,19264],[4.3,19347],[3.8,19432],[3.8,19515],[3.8,19599],[3.8,19682],[3.8,19765],[3.8,19847],[3.8,19931],[3.8,20014],[3.8,20097],[3.8,20182],[3.8,20265],[3.8,20349],[3.8,20432],[3.8,20515],[3.8,20599],[3.8,20682],[3.9,20764],[4.8,20847],[5.2,20932],[5.2,21015],[5.2,21099],[8.2,21182],[10.1,21264],[18.3,21347],[20.6,21432],[20.6,21514],[20.6,21599],[20.2,21682],[20.2,21765],[19.6,21847],[18.1,21931],[14.6,22014],[10.5,22100],[9.8,22182],[9.4,22265],[9.4,22347],[10.5,22432],[13.3,22514],[23,22599],[40.6,22682],[50.4,22765],[53.3,22850],[58.7,22932],[61.9,23017],[61.9,23099],[61.9,23182],[61.9,23265],[61.7,23347],[61.7,23432],[61.7,23514],[61.7,23599],[61.7,23682],[61.7,23765],[59.9,23849],[58.2,23932],[55.2,24015],[55.2,24100],[55.2,24182],[55.2,24264],[55,24349],[53.2,24432],[52.4,24514],[52.4,24600],[52.4,24681],[52.4,24764],[52.4,24849],[52,24932],[51.9,25015],[51.9,25099],[53.8,25182],[54.3,25264],[51.9,25349],[48.3,25432],[45,25514],[43.8,25599],[40.2,25682],[37.7,25765],[36.1,25850],[31.7,25932],[26.2,26014],[20.7,26097],[8.5,26182],[0.1,26931],[0.1,27014],[0.1,27097],[0.1,27182],[0.1,27264],[0.1,27347],[0.1,27432],[0.1,27514],[0.1,27597],[0.1,27682],[0.1,27765],[0.1,27847],[0.1,27931],[0.1,28015],[0.1,28099],[0.4,28182],[0.7,28264],[1.2,28347],[1.9,28432],[2,28515],[2,28597],[2,28682],[2,28765],[2,28847],[2,28932],[2,29015],[2,29097],[2,29181],[2,29264],[2,29347],[2,29432],[2,29514],[2,29597],[2,29682]]",1,0,182.183,212.596,99.64285714,26.519,"[{""rating"":99.64285714285714,""responseTime"":26.519000000000005}]",space,29.87,,212.596,Not at all,0,212.608,,,[],,0,0,0,0,1,audio/Narrative13Situation2.wav,audio/Narrative13Situation2.wav,audio/Narrative13Situation2.wav,audio/Narrative13Situation2.wav,2,2,2,2,,,,,,,,,,,,,,,,,,,,,,,,,,,,,,,,,,,,,,,
,,,,,,5d453e8723a5bb0001492546,2024-02-08_16h50.25.518,group3.1-3.2-social-tom,2023.2.2,Linux x86_64,62.11180124,65c5074098b851296ff0b7ed,65c5415a88725f80ea4397b0,,,,,,,,,,,,,,,,,,,,,,,,,,,,,212.608,1,audio/Narrative7Situation1.wav,217.08,space,217.08,272.962,"[[62.5,1581],[61.9,1665],[61.9,1749],[61.9,1831],[61.9,1916],[61.3,1998],[57.7,2081],[56.7,2165],[53.3,2249],[52.3,2331],[52.3,2415],[52.1,2498],[51.1,2581],[50.8,2665],[50.1,2749],[49.9,2833],[49.8,2915],[49.8,2999],[49.8,3081],[49.6,3166],[48.6,3249],[47.7,3331],[47.7,3415],[47.7,3498],[44.3,3583],[43.7,3666],[30.1,3749],[5.1,3831],[0.1,7250],[0.1,7331],[0.1,7415],[0.1,7505],[0.5,7599],[4,7682],[4.2,7764],[9,7848],[22,7932],[27.5,8016],[36,8098],[41.1,8181],[45.8,8266],[46.7,8348],[49.4,8432],[50.7,8516],[53.8,8599],[53.8,8682],[53.8,8766],[53.8,8848],[53.1,8932],[52.5,9014],[51.9,9099],[51.7,9182],[51.3,9266],[50.5,9348],[50.5,9431],[50.4,9516],[50.4,9599],[50.4,9682],[50.5,9766],[50.5,9848],[51.4,9932],[51.4,10014],[52.1,10099],[52.5,10182],[52.5,10266],[52.5,10348],[52.5,10432],[52.5,10514],[52.5,10599],[52.5,10682],[52.5,10766],[52.4,10848],[52.4,10932],[52.4,11014],[52.4,11099],[52.1,11182],[51.9,11266],[51.9,11349],[51.9,11431],[51.9,11514],[51.9,11598],[51.2,11682],[50.4,11767],[49.8,11850],[49.3,11931],[49.3,12018],[49.3,12099],[49.3,12181],[49.3,12264],[51.5,12350],[62.6,12432],[63.7,12516],[68.6,12601],[79.8,12682],[85.7,12766],[91.3,12849],[100,12932],[100,13014],[100,13099],[94.4,13182],[93.1,13264],[93.1,13348],[93.1,13432],[93.1,13516],[93.5,13600],[94,13684],[94.2,13766],[94.2,13848],[94.2,13932],[94.2,14014],[94.2,14098],[93.2,14182],[92,14264],[91,14348],[90.8,14432],[90.7,14516],[90.7,14598],[90.7,14682],[90.7,14764],[90.7,14848],[90.7,14932],[90.7,15014],[90.7,15099],[90.7,15182],[90.7,15264],[90.7,15348],[90.7,15432],[90.7,15514],[90.7,15599],[90.7,15682],[90.7,15766],[90.7,15849],[90.7,15931],[90.7,16014],[90.7,16100],[89.2,16181],[87.5,16264],[86.3,16348],[86.3,16432],[84.8,16514],[84.3,16600],[83.2,16682],[67,16766],[64.4,16849],[59.5,16932],[58.6,17016],[58.6,17099],[58.6,17182],[58.6,17264],[56.5,17349],[52.6,17432],[52.5,17516],[51.2,17599],[50.4,17682],[43.6,17766],[41.2,17850],[32.4,17931],[29.8,18014],[29,18098],[23.5,18182],[19.2,18264],[18.7,18348],[18.7,18432],[18.7,18514],[18.7,18598],[18.6,18682],[16.1,18766],[15.5,18848],[15.5,18931],[15,19014],[14.5,19099],[13.9,19182],[13.9,19264],[13.9,19349],[13.8,19432],[13.2,19516],[12.5,19599],[12.5,19682],[12.5,19766],[12.5,19848],[12.5,19931],[12.5,20014],[13.5,20099],[15.6,20182],[21.1,20264],[42.7,20349],[52.3,20432],[52.3,20516],[52.3,20599],[52.1,20681],[51.4,20764],[51.3,20849],[51.3,20932],[51.3,21016],[51.3,21098],[51.3,21182],[51.3,21264],[53.3,21349],[53.3,21432],[53.3,21514],[53.3,21598],[53.3,21682],[53.3,21766],[52.6,21849],[42.3,21931],[37.7,22014],[33.5,22098],[33.2,22182],[23.9,22266],[20.1,22349],[18.6,22432],[18,22517],[18,22599],[18,22681],[18,22764],[18,22849],[18,22932],[18,23014],[18,23098],[18.3,23182],[18.3,23266],[18.7,23348],[18.8,23432],[18.8,23514],[18.8,23599],[18.8,23682],[18.8,23764],[18.8,23849],[18.8,23931],[18.8,24014],[19.8,24099],[20.1,24182],[20.5,24268],[21.5,24349],[21.7,24432],[21.7,24517],[21.7,24598],[21.8,24682],[22,24766],[22,24849],[22,24932],[22,25014],[22,25098],[22,25181],[22,25264],[22.1,25350],[22.4,25432],[22.4,25514],[23.3,25598],[23.5,25682],[24.4,25766],[28.3,25848],[34.5,25932],[37.9,26014],[40.2,26098],[45,26182],[50.6,26266],[52.7,26348],[52.7,26432],[52.7,26516],[52.7,26599],[53.8,26682],[55.5,26766],[56.8,26848],[57.1,26931],[57.5,27014],[58.7,27099],[59.9,27182],[61.2,27266],[61.5,27348],[61.5,27431],[61.5,27514],[61.7,27599],[61.7,27682],[61.7,27764],[61.7,27848],[61.7,27932],[61.7,28014],[61.7,28099],[61.7,28182],[61.7,28264],[61.7,28349],[61.4,28432],[61.4,28516],[61.2,28600],[61.1,28682],[61.1,28766],[61.1,28850],[61.1,28932],[61.1,29014],[61.1,29099],[61.1,29182],[61.1,29264],[61.1,29348],[61.1,29432],[63.1,29516],[64.5,29599],[66,29682],[67.5,29766],[68.7,29849],[70.4,29932],[72.4,30014],[73.3,30098],[73.3,30182],[73.3,30266],[73.3,30349],[73.3,30432],[73.3,30514],[73.3,30598],[73.3,30682],[73.3,30766],[73.3,30848],[73.3,30932],[73.3,31014],[73.3,31099],[73.3,31182],[73.3,31264],[73.3,31349],[73.3,31432],[73.3,31516],[73.3,31596],[73.3,31681],[73.6,31764],[73.9,31849],[74.2,31932],[74.6,32014],[76.1,32098],[79.5,32182],[81.2,32266],[82,32349],[83.9,32432],[86.2,32514],[87.6,32600],[89.2,32682],[89.5,32766],[90.6,32849],[92.4,32932],[92.4,33016],[92.4,33098],[93.6,33181],[93.7,33264],[93.9,33348],[94,33432],[94.2,33514],[94.3,33599],[94.3,33681],[94.3,33764],[94.3,33850],[94.3,33931],[94.3,34014],[94.3,34098],[94.3,34182],[94.3,34266],[94.3,34349],[94.3,34431],[94.3,34514],[94.3,34598],[94.3,34682],[94.3,34764],[94.3,34848],[94.3,34932],[94.3,35016],[94.5,35098],[94.8,35182],[94.8,35264],[94.8,35348],[94.8,35432],[94.8,35516],[94.8,35598],[94.8,35682],[94.8,35764],[94.8,35849],[94.8,35932],[95,36017],[96.5,36099],[99.3,36182],[99.5,36264],[99.5,36348],[99.5,36431],[99.5,36514],[99.5,36599],[99.5,36682],[99.5,36764],[99.5,36849],[99.5,36932],[99.5,37014],[99.5,37099],[99.5,37182],[99.5,37264],[99.5,37348],[99.5,37432],[99.5,37516],[99.5,37600],[99.5,37682],[99.5,37764],[99.5,37855],[99.5,37932],[99.5,38017],[99.5,38100],[99.5,38182],[99.5,38264],[99.5,38350],[99.5,38432],[99.5,38516],[99.5,38598],[99.5,38682],[99.5,38766],[99.5,38848],[99.5,38931],[99.5,39014],[99.5,39099],[99.5,39182],[99.4,39266],[99.2,39349],[98.2,39432],[97,39514],[96.2,39598],[95.2,39682],[95.2,39766],[95.2,39848],[95.2,39931],[95.6,40014],[95.8,40099],[95.8,40182],[95.8,40264],[96,40348],[96,40432],[96,40516],[96,40599],[96,40682],[96,40764],[96,40848],[96,40932],[96,41014],[96,41098],[96,41181],[96,41264],[96,41349],[96,41432],[96,41514],[96,41598],[96,41682],[96,41764],[96,41849],[96,41932],[96.3,42014],[96.3,42098],[96.3,42181],[96.3,42266],[96.3,42350],[96.3,42432],[96.3,42514],[96.3,42599],[96.3,42682],[96.3,42764],[96.3,42848],[96.3,42931],[96.3,43014],[96.3,43098],[96.9,43182],[97,43264],[97.3,43348],[97.3,43432],[97.3,43516],[97.3,43599],[97.3,43682],[97.3,43764],[97.3,43848],[97.3,43932],[97.3,44014],[97.3,44098],[97.3,44182],[97.3,44264],[97.3,44349],[97.3,44432],[97.4,44516],[97.5,44599],[97.5,44682],[97.5,44766],[97.5,44850],[97.5,44931],[97.5,45014],[97.5,45098],[97.5,45182],[97.5,45264],[97.5,45349],[97.5,45431],[97.5,45514],[97.5,45598],[97.5,45682],[97.5,45766],[97.5,45848],[97.5,45932],[97.5,46016],[97.5,46098],[97.5,46181],[97.5,46266],[97.5,46348],[97.5,46431],[97.5,46514],[97.5,46599],[97.5,46681],[97.5,46764],[97.5,46849],[97.5,46932],[97.5,47014],[97.5,47099],[97.5,47182],[97.5,47264],[97.5,47348],[97.5,47432],[97.5,47514],[97.5,47600],[97.5,47682],[97.5,47766],[97.5,47849],[97.5,47932],[97.5,48014],[97.5,48099],[97.5,48182],[97.5,48266],[97.5,48348],[97.5,48432],[97.5,48514],[97.5,48600],[97.5,48681],[97.5,48764],[97.5,48849],[97.5,48932],[97.5,49014],[97.5,49098],[97.5,49181],[97.5,49264],[97.5,49348],[97.5,49432],[97.5,49516],[97.5,49598],[97.5,49682],[97.5,49766],[97.5,49850],[97.5,49932],[97.5,50014],[97.5,50098],[95.7,50182],[75,50266],[67.5,50349],[69.5,50432],[69.8,50516],[69.8,50599],[71.3,50682],[74.3,50766],[77.1,50850],[81.8,50932],[87.6,51014],[88.1,51099],[88.7,51182],[89.5,51264],[89.5,51348],[88.6,51432],[86.7,51516],[85.5,51599],[84.5,51682],[81.4,51766],[81,51849],[81,51931],[80,52014],[78.1,52099],[72.3,52182],[68.8,52264],[65.1,52348],[60.6,52432],[57.7,52517],[57.1,52601],[57.1,52682],[57.1,52766],[57.1,52848],[57.1,52932],[56.9,53014],[56.4,53099],[56.4,53182],[56.4,53266],[56.4,53349],[56.9,53432],[63.8,53516],[81.2,53599],[90.1,53682],[92.3,53764],[93,53849],[94.3,53932],[95.5,54014],[96.1,54098],[97,54182],[98.1,54267],[98.5,54348],[98.5,54431],[98.5,54516],[98.5,54600],[98.5,54682],[98.5,54764],[98.5,54848],[98.5,54932],[98.5,55016],[98.5,55099],[98.5,55182],[98.5,55266],[98.5,55348],[98.5,55432],[98.5,55516],[98.5,55598],[98.5,55681],[98.5,55764],[98.5,55849]]",1,0,272.963,292.531,99.04761905,15.892,"[{""rating"":99.04761904761905,""responseTime"":15.891999999999939}]",space,19.017,,292.533,Partially,50,292.548,,,[],,0,1,1,1,1,audio/Narrative7Situation1.wav,audio/Narrative8Situation1.wav,audio/Narrative5Situation1.wav,audio/Narrative6Situation1.wav,2,5,5,2,4.45,,,,,,,,,,,,,,,,,,,,,,,,,,,,,,,,,,,,,,
,,,,,,5d453e8723a5bb0001492546,2024-02-08_16h50.25.518,group3.1-3.2-social-tom,2023.2.2,Linux x86_64,62.11180124,65c5074098b851296ff0b7ed,65c5415a88725f80ea4397b0,,,,,,,,,,,,,,,,,,,,,,,,,,,,,292.548,1,audio/Narrative7Situation2.wav,295.563,,295.563,303.046,"[[97.5,582],[97.5,665],[97.5,748],[96.1,831],[91.9,915],[89.2,998],[89,1081],[89,1164],[89,1248],[89,1331],[89,1414],[89,1498],[89,1582],[89,1664],[89.8,1748],[92.9,1831],[95.8,1916],[97,1998],[90.5,2082],[82.3,2165],[51.4,2250],[46.2,2331],[46.2,2413],[46.2,2498],[47.4,2582],[47.5,2666],[47.5,2747],[48.7,2831],[52.1,2916],[59,3000],[62.1,3082],[76.2,3165],[84.5,3247],[87.7,3331],[91,3415],[94.5,3498],[95,3582],[95.5,3664],[96.2,3748],[97.9,3831],[97.9,3915],[97.9,4000],[97.9,4082],[97.9,4164],[97.9,4247],[97.9,4331],[97.9,4414],[97.9,4498],[97.9,4581],[97.9,4664],[97.9,4748],[97.7,4833],[97.7,4914],[97.4,4998],[97.4,5081],[97.4,5164],[97.4,5248],[97.4,5331],[97.4,5414],[97.4,5498],[97.4,5582],[97.6,5665],[97.6,5748],[97.9,5831],[97.9,5914],[97.9,6000],[97.9,6081],[97.9,6165],[97.9,6247],[97.9,6331],[97.9,6416],[97.9,6500],[97.9,6581],[97.9,6665],[97.9,6748],[97.9,6832],[97.9,6918],[97.9,6998],[97.9,7081],[97.9,7166],[92.1,7248],[60.1,7332],[59.9,7414]]",1,0,303.046,323.746,99.64285714,16.847,"[{""rating"":99.64285714285714,""responseTime"":16.847000000000094}]",space,20.17,,323.746,Not at all,0,323.761,,,[],,0,2,2,2,1,audio/Narrative7Situation2.wav,audio/Narrative8Situation2.wav,audio/Narrative5Situation2.wav,audio/Narrative6Situation2.wav,3,3,3,3,,,,,,,,,,,,,,,,,,,,,,,,,,,,,,,,,,,,,,,
,,,,,,5d453e8723a5bb0001492546,2024-02-08_16h50.25.518,group3.1-3.2-social-tom,2023.2.2,Linux x86_64,62.11180124,65c5074098b851296ff0b7ed,65c5415a88725f80ea4397b0,,,,,,,,,,,,,,,,,,,,,,,,,,,,,323.762,1,audio/Narrative7Situation3.wav,331.763,,331.763,341.03,"[[98.1,833],[97.9,917],[97.9,999],[97.4,1081],[97.4,1165],[97.4,1249],[97.4,1331],[97.4,1416],[97.4,1498],[97.4,1583],[97.4,1666],[97.4,1749],[91.7,1834],[91.7,1917],[91.7,1998],[91.7,2081],[91.7,2166],[90.4,2249],[53.8,2331],[36.3,2416],[28.7,2499],[1.1,3333],[1.5,3415],[2.9,3499],[2.9,3583],[2.5,3665],[2,3749],[2,3831],[2,3916],[1.9,3999],[1.9,4083],[1.9,4165],[1.9,4249],[1.9,4333],[1.9,4415],[1.5,4499],[1.4,4581],[1.4,4667],[1.4,4749],[1.4,4833],[1.4,4916],[1.4,4999],[1.4,5083],[1.4,5165],[1.4,5248],[1.4,5331],[1.4,5415],[1.4,5499],[1.4,5581],[1.4,5665],[1.4,5749],[1.4,5833],[1.4,5915],[1.9,5999],[2.9,6083],[2.9,6165],[2.9,6250],[2.9,6331],[2.9,6415],[2.9,6499],[2.9,6581],[2.9,6666],[2.9,6749],[2.7,6833],[2.7,6915],[2.7,6999],[2.7,7083],[2.7,7166],[2.7,7250],[2.7,7331],[2.7,7415],[2.7,7500],[2.7,7583],[2.4,7666],[1.8,7749],[1.7,7831],[1.7,7916],[1.7,7999],[1.7,8081],[1.7,8166],[1.7,8249],[1.7,8333],[1.7,8415],[1.7,8499],[1.7,8581],[1.7,8667],[1.7,8749],[1.7,8831],[1.8,8916],[2.3,8999],[2.3,9081],[2.3,9166],[2.3,9249]]",1,0,341.031,349.262,1.30952381,6.772,"[{""rating"":1.3095238095238104,""responseTime"":6.772000000000048}]",space,7.687,,349.262,Partially,50,349.272,,,[],,0,3,3,3,1,audio/Narrative7Situation3.wav,audio/Narrative8Situation3.wav,audio/Narrative5Situation3.wav,audio/Narrative6Situation3.wav,8,4,3,5,,,,,,,,,,,,,,,,,,,,,,,,,,,,,,,,,,,,,,,
,,,,,,5d453e8723a5bb0001492546,2024-02-08_16h50.25.518,group3.1-3.2-social-tom,2023.2.2,Linux x86_64,62.11180124,65c5074098b851296ff0b7ed,65c5415a88725f80ea4397b0,,,,,,,,,,,,,,,,,,,,,,,,,,,,,349.273,1,audio/Narrative7Situation4.wav,352.282,,352.283,364.012,"[[1.9,1330],[2,1413],[2,1497],[2,1580],[2,1662],[2,1747],[1.9,1830],[1.9,1913],[1.9,1995],[1.9,2079],[1.9,2162],[1.9,2247],[1.9,2330],[1.9,2413],[1.9,2497],[1.9,2579],[1.9,2663],[1.9,2745],[1.9,2829],[1.9,2913],[1.9,2997],[1.9,3079],[1.9,3163],[1.9,3247],[1.9,3330],[1.9,3413],[1.9,3497],[1.9,3579],[1.9,3663],[1.9,3745],[1.9,3830],[1.9,3913],[1.9,3995],[1.9,4079],[1.9,4163],[1.9,4248],[1.9,4329],[1.9,4413],[1.9,4495],[1.9,4580],[1.9,4663],[1.9,4747],[1.9,4830],[1.9,4912],[1.9,4997],[1.9,5081],[1.9,5163],[1.9,5245],[1.9,5329],[1.9,5413],[1.9,5497],[1.9,5581],[1.9,5663],[1.9,5745],[1.9,5830],[1.9,5915],[1.9,5995],[1.9,6081],[1.9,6163],[1.9,6247],[1.9,6330],[1.9,6413],[1.9,6495],[1.9,6579],[1.9,6663],[1.9,6747],[1.9,6829],[1.9,6913],[1.9,6997],[1.9,7080],[1.9,7162],[1.9,7245],[1.9,7330],[1.9,7413],[1.9,7495],[1.9,7580],[1.9,7663],[1.9,7747],[1.9,7831],[1.9,7913],[1.9,7995],[1.9,8080],[1.9,8163],[1.9,8247],[1.9,8330],[1.9,8413],[1.9,8495],[1.9,8580],[1.9,8663],[1.9,8747],[1.9,8831],[1.9,8913],[1.9,8995],[1.9,9079],[1.9,9162],[1.9,9247],[1.9,9330],[1.9,9413],[1.9,9495],[1.9,9579],[1.9,9663],[1.9,9748],[1.9,9830],[1.9,9913],[1.9,9997],[1.9,10081],[1.9,10163],[1.9,10245],[1.9,10329],[1.9,10413],[1.9,10497],[1.9,10580],[1.9,10663],[1.9,10745],[1.9,10829],[1.9,10913],[1.9,10995],[1.9,11079],[1.9,11162],[1.9,11245],[1.9,11330],[1.9,11413],[1.9,11495],[1.9,11579],[1.9,11663]]",1,0,364.012,369.512,0.714285714,3.364,"[{""rating"":0.7142857142857117,""responseTime"":3.3640000000000327}]",space,4.962,,369.513,Partially,50,369.514,,,[],,0,4,4,4,1,audio/Narrative7Situation4.wav,audio/Narrative8Situation4.wav,audio/Narrative5Situation4.wav,audio/Narrative6Situation4.wav,3,3,1,2,,,,,,,,,,,,,,,,,,,,,,,,,,,,,,,,,,,,,,,
,,,,,,5d453e8723a5bb0001492546,2024-02-08_16h50.25.518,group3.1-3.2-social-tom,2023.2.2,Linux x86_64,62.11180124,65c5074098b851296ff0b7ed,65c5415a88725f80ea4397b0,,,,,,,,,,,,,,,,,,,,,,,,,,,,,369.515,1,audio/Narrative7Situation5.wav,374.528,,374.528,383.013,"[[1,3500],[1,3584],[1,3666],[1,3750],[1,3834],[1,3918],[1,4001],[1,4083],[1,4167],[1,4251],[1,4335],[1,4417],[1,4500],[1,4584],[1,4668],[1,4752],[1,4833],[1,4917],[1,5000],[1,5085],[1,5167],[1,5251],[1,5334],[1,5417],[1,5501],[1,5584],[1,5667],[1,5751],[1,5833],[1,5917],[1,6000],[1,6085],[1,6168],[1,6250],[1,6334],[1,6417],[1,6500],[1,6584],[1,6666],[1,6750],[1,6834],[1,6917],[1,7001],[1,7085],[1,7168],[1,7250],[1,7334],[1,7417],[1,7500],[1,7584],[1,7666],[1,7750],[1,7835],[1,7917],[1,8000],[1,8084],[1,8167],[1,8251],[1,8334],[1,8417]]",1,0,383.013,389.978,8.571428571,5.15,"[{""rating"":8.57142857142857,""responseTime"":5.150000000000091}]",space,6.408,,389.978,Partially,50,389.989,,,[],,0,5,5,5,1,audio/Narrative7Situation5.wav,audio/Narrative8Situation5.wav,audio/Narrative5Situation5.wav,audio/Narrative6Situation5.wav,5,2,5,2,,,,,,,,,,,,,,,,,,,,,,,,,,,,,,,,,,,,,,,
,,,,,,5d453e8723a5bb0001492546,2024-02-08_16h50.25.518,group3.1-3.2-social-tom,2023.2.2,Linux x86_64,62.11180124,65c5074098b851296ff0b7ed,65c5415a88725f80ea4397b0,,,,,,,,,,,,,,,,,,,,,,,,,,,,,389.99,1,audio/Narrative7Situation6.wav,392.995,,392.995,402.979,"[[7.9,500],[8.9,583],[9.3,668],[1,750],[1,833],[1,916],[1,1000],[1,1083],[1,1165],[1,1250],[1,1332],[1.4,1750],[1.9,1833],[2,1916],[2.3,2000],[2.3,2083],[2.3,2166],[2.3,2250],[2.3,2333],[2.4,2416],[3.5,2500],[5.8,2583],[17,2668],[18.1,2750],[19.6,2832],[31.2,2916],[45.2,3000],[49.6,3084],[53.2,3166],[53.2,3250],[53.2,3332],[53.2,3416],[54.9,3500],[57.4,3582],[63.5,3668],[64,3750],[64.5,3832],[64.5,3916],[64.5,4000],[66.8,4082],[69.6,4168],[74.2,4250],[74.6,4332],[74.6,4416],[75,4500],[75.4,4583],[78,4666],[80.5,4750],[84.2,4834],[84.3,4918],[84.3,5000],[85.5,5083],[87.1,5166],[87.1,5251],[87.1,5334],[87.1,5415],[87.3,5500],[89.6,5583],[90.4,5666],[91,5751],[91.1,5832],[91.1,5915],[91.1,6000],[91.1,6084],[91.1,6166],[91.9,6250],[93.2,6333],[94.8,6416],[96,6500],[96,6583],[96,6666],[96.5,6750],[96.5,6833],[96.5,6916],[97.3,7000],[97.5,7083],[97.5,7166],[97.5,7250],[97.5,7333],[97.5,7416],[97.5,7500],[97.5,7582],[97.5,7666],[97.5,7750],[97.5,7834],[97.5,7916],[97.5,8000],[97.5,8082],[97.5,8168],[97.5,8250],[97.5,8332],[97.5,8416],[97.5,8500],[97.5,8583],[97.5,8666],[97.5,8750],[97.5,8832],[97.5,8915],[97.5,9000],[97.5,9083],[97.5,9166],[97.5,9248],[97.5,9332],[97.5,9416],[97.5,9500],[97.5,9582],[97.5,9666],[97.5,9750],[97.5,9833],[97.5,9916]]",1,0,402.98,412.996,84.52380952,7.398,"[{""rating"":84.52380952380952,""responseTime"":7.398000000000025}]",space,9.467,,412.996,Not at all,0,413.001,,,[],,0,6,6,6,1,audio/Narrative7Situation6.wav,audio/Narrative8Situation6.wav,audio/Narrative5Situation6.wav,audio/Narrative6Situation6.wav,3,2,3,2,,,,,,,,,,,,,,,,,,,,,,,,,,,,,,,,,,,,,,,
,,,,,,5d453e8723a5bb0001492546,2024-02-08_16h50.25.518,group3.1-3.2-social-tom,2023.2.2,Linux x86_64,62.11180124,65c5074098b851296ff0b7ed,65c5415a88725f80ea4397b0,,,,,,,,,,,,,,,,,,,,,,,,,,,,,413.001,1,audio/Narrative7Situation7.wav,418.013,,418.013,435.195,"[[83.8,3432],[83.8,3514],[83.5,3599],[83.5,3682],[83.5,3764],[83.5,3849],[83.5,3932],[83.5,4016],[83.5,4099],[83.5,4182],[83.5,4266],[83.5,4349],[83.3,4432],[82.9,4516],[82.7,4599],[82.6,4682],[82.1,4764],[79.6,4850],[74.9,4934],[70.6,5014],[64,5098],[55.6,5182],[53.7,5264],[53,5350],[50,5432],[47.3,5516],[38.6,5600],[37.9,5682],[37.9,5764],[37.9,5848],[37.9,5932],[37.1,6016],[33.9,6100],[30.1,6182],[28.6,6266],[25.8,6350],[24.3,6432],[22.6,6516],[20.6,6600],[19.8,6681],[18.9,6764],[18.8,6850],[18,6932],[18,7016],[18,7098],[18,7182],[18.9,7267],[30.5,7350],[47.5,7432],[56.4,7514],[65.7,7598],[69,7682],[69,7764],[69,7848],[69,7932],[69.3,8016],[69.3,8098],[69.4,8182],[69.5,8267],[70.5,8349],[70.5,8431],[71.8,8514],[71.8,8599],[71.8,8682],[71.8,8764],[71.8,8849],[71.8,8932],[71.8,9014],[71.8,9099],[71.8,9182],[71.8,9264],[71.8,9348],[71.8,9432],[71.8,9514],[71.8,9598],[72.1,9682],[73,9764],[73.1,9849],[73.1,9932],[73.1,10016],[73.1,10099],[73.1,10182],[73.9,10264],[73.9,10350],[73.9,10432],[73.9,10516],[73.9,10599],[73.9,10682],[73.9,10764],[73.9,10849],[73.9,10932],[73.9,11016],[73.9,11099],[73.9,11182],[73.9,11264],[73.9,11349],[73.9,11432],[73.9,11516],[73.9,11599],[73.9,11682],[73.9,11764],[73.9,11850],[73.9,11932],[73.9,12014],[73.9,12100],[73.9,12182],[73.9,12266],[74.2,12350],[74.2,12432],[75.1,12514],[75.5,12598],[75.8,12682],[75.8,12764],[76.2,12849],[76.3,12932],[76.4,13014],[76.4,13099],[76.4,13182],[76.4,13264],[76.4,13350],[76.4,13431],[76.4,13516],[76.4,13599],[76.4,13682],[76.4,13764],[76.4,13849],[76.4,13932],[76.4,14017],[76.4,14100],[76.4,14182],[76.4,14264],[76.4,14349],[76.4,14432],[76.4,14516],[76.4,14599],[76.4,14714],[76.4,14798],[76.4,14881],[76.4,14966],[76.4,15048],[76.4,15134],[76.5,15216],[76.8,15298],[76.8,15382],[76.8,15466],[76.8,15550],[76.8,15633],[76.8,15716],[76.8,15798],[76.8,15882],[76.8,15966],[76.8,16050],[76.8,16132],[76.8,16215],[76.8,16298],[76.8,16383],[78.9,16466],[79.9,16548],[80.5,16632],[80.5,16716],[80.7,16798],[80.7,16882],[81,16966],[82.3,17048],[82.9,17133]]",1,0,435.196,445.296,99.4047619,3.781,"[{""rating"":99.40476190476191,""responseTime"":3.780999999999949}]",space,9.544,,445.296,Partially,50,445.307,,,[],,0,7,7,7,1,audio/Narrative7Situation7.wav,audio/Narrative8Situation7.wav,audio/Narrative5Situation7.wav,audio/Narrative6Situation7.wav,5,3,4,5,,,,,,,,,,,,,,,,,,,,,,,,,,,,,,,,,,,,,,,
,,,,,,5d453e8723a5bb0001492546,2024-02-08_16h50.25.518,group3.1-3.2-social-tom,2023.2.2,Linux x86_64,62.11180124,65c5074098b851296ff0b7ed,65c5415a88725f80ea4397b0,,,,,,,,,,,,,,,,,,,,,,,,,,,,,445.308,1,audio/Narrative7Situation8.wav,447.312,,447.312,457.329,"[[96.4,2251],[91.5,2334],[91,2418],[90.5,2500],[89,2583],[86.7,2666],[86.7,2750],[86.7,2833],[86.4,2916],[83,3000],[80.4,3084],[75.8,3167],[68,3249],[65.7,3334],[64.4,3417],[64,3500],[64,3583],[63.5,3666],[61.3,3750],[59.6,3833],[59.4,3917],[59.4,4000],[59.4,4083],[58.5,4166],[56.8,4249],[56.3,4333],[55,4417],[55,4500],[54,4583],[53.7,4666],[53.7,4749],[53.7,4834],[53.7,4917],[53.7,5000],[53.7,5083],[53.7,5167],[53.7,5251],[54,5333],[55.8,5416],[58.8,5500],[61.1,5584],[61.3,5667],[61.7,5749],[61.7,5833],[61.7,5916],[63.7,6000],[64.2,6084],[64.5,6167],[64.5,6249],[64.5,6333],[64.5,6417],[64.5,6500],[64.5,6584],[64.5,6666],[64.5,6750],[59.3,6833],[57.9,6917],[57.9,7000],[52,7083],[49.6,7166],[49.6,7250],[49.6,7333],[49.6,7417],[49.6,7501],[49.6,7583],[48.8,7666],[48.1,7750],[47,7834],[46.4,7917],[46.4,8000],[46.1,8082],[45.2,8166],[45.2,8249],[45.2,8333],[45.2,8418],[45.2,8500],[45.2,8582],[45.2,8667],[45.2,8750],[45.2,8834],[45.2,8917],[45.2,8999],[46.3,9083],[48.1,9167],[49.6,9251],[50.1,9334],[50.1,9417],[50.1,9500],[50.1,9583],[50.1,9667],[50.1,9750],[50.1,9834],[50.1,9916],[50.1,10000]]",1,0,457.33,470.779,50,10.032,"[{""rating"":50,""responseTime"":10.032000000000039}]",space,12.9,,470.779,Definitely yes,100,470.789,,,[],,0,8,8,8,1,audio/Narrative7Situation8.wav,audio/Narrative8Situation8.wav,audio/Narrative5Situation8.wav,audio/Narrative6Situation8.wav,2,3,3,5,,,,,,,,,,,,,,,,,,,,,,,,,,,,,,,,,,,,,,,
,,,,,,5d453e8723a5bb0001492546,2024-02-08_16h50.25.518,group3.1-3.2-social-tom,2023.2.2,Linux x86_64,62.11180124,65c5074098b851296ff0b7ed,65c5415a88725f80ea4397b0,,,,,,,,,,,,,,,,,,,,,,,,,,,,,470.79,1,audio/Narrative7Situation9.wav,472.794,,472.794,481.412,"[[49.8,1250],[49.8,1334],[49.8,1416],[48.8,1501],[48.8,1583],[48.8,1668],[48.8,1750],[48.8,1834],[48.5,1918],[48.1,2000],[50,2083],[53.1,2168],[56.2,2251],[63.5,2334],[64.8,2418],[68.7,2500],[69.8,2586],[79.6,2668],[80,2751],[80.2,2834],[81.3,2918],[81.8,3000],[81.9,3084],[82.6,3168],[86.7,3251],[87.3,3333],[87.3,3418],[87.3,3500],[87.7,3584],[87.7,3668],[87.7,3751],[87.7,3833],[87.7,3918],[87.7,4000],[87.7,4086],[87.7,4168],[87.7,4250],[91.9,4334],[96.5,4418],[96.5,4500],[96.5,4584],[96.5,4666],[96.5,4750],[96.5,4834],[96.2,4918],[96.2,5002],[96.2,5084],[96.1,5166],[96.1,5250],[96.1,5334],[96.1,5418],[96.1,5501],[96.1,5583],[96.1,5666],[96.1,5750],[96.1,5834],[96.1,5918],[96.1,6000],[96.1,6086],[96.1,6166],[96.1,6250],[96.1,6334],[96.1,6418],[96.1,6501],[96.1,6584],[96.2,6668],[96.4,6750],[97.5,6833],[97.6,6918],[97.6,7001],[97.6,7084],[97.6,7168],[97.6,7250],[97.6,7333],[97.6,7418],[97.6,7502],[97.6,7582],[97.6,7666],[97.6,7750],[97.6,7833],[97.6,7918],[97.6,8000],[97.6,8084],[98.6,8166],[98.8,8250],[98.8,8333],[98.8,8418],[98.8,8501],[98.8,8583]]",1,0,481.412,486.797,99.04761905,1.525,"[{""rating"":99.04761904761905,""responseTime"":1.5249999999999773}]",space,4.833,,486.797,Not at all,0,486.808,,,[],,0,9,9,9,1,audio/Narrative7Situation9.wav,audio/Narrative8Situation9.wav,audio/Narrative5Situation9.wav,audio/Narrative6Situation9.wav,2,3,3,4,,,,,,,,,,,,,,,,,,,,,,,,,,,,,,,,,,,,,,,
,,,,,,5d453e8723a5bb0001492546,2024-02-08_16h50.25.518,group3.1-3.2-social-tom,2023.2.2,Linux x86_64,62.11180124,65c5074098b851296ff0b7ed,65c5415a88725f80ea4397b0,,,,,,,,,,,,,,,,,,,,,,,,,,,,,486.808,1,audio/Narrative8Situation1.wav,491.812,,491.812,507.732,"[[94.9,834],[94.6,917],[86,1000],[74.4,1083],[73.3,1167],[73.2,1250],[61.5,1335],[52.4,1417],[50.1,1500],[49.8,1584],[47.4,1668],[42.3,1750],[31.7,1833],[25.5,1916],[17,2000],[13.3,2084],[10.2,2167],[2.7,2249],[1.5,2334],[0.5,8251],[0.6,8334],[0.6,8417],[0.6,8499],[0.6,8583],[0.6,8667],[0.6,8751],[0.6,8834],[0.6,8917],[0.6,9000],[0.6,9082],[0.6,9167],[11,9251],[30.8,9334],[58.5,9418],[64.6,9499],[64.6,9584],[64.6,9666],[63.6,9751],[58.1,9834],[56.2,9917],[56.2,9999],[56.2,10083],[56.2,10166],[56.2,10250],[56.7,10334],[56.9,10417],[59.9,10500],[66,10584],[66.1,10666],[66.3,10750],[73.1,10834],[80.2,10917],[86.8,11000],[86.9,11083],[88.2,11167],[90,11252],[90,11333],[90,11417],[90,11499],[90.6,11583],[90.6,11667],[90.6,11750],[91.5,11834],[93.5,11917],[94.8,12000],[95,12083],[96.3,12167],[96.8,12251],[96.8,12333],[96.8,12417],[96.8,12499],[96.8,12584],[96.8,12666],[96.8,12750],[96.8,12835],[96.8,12917],[96.8,12999],[96.8,13083],[96.8,13166],[96.8,13251],[97.1,13334],[97.7,13416],[97.7,13500],[97.7,13582],[97.7,13666],[97.7,13750],[98,13834],[98.3,13916],[98.6,14000],[98.8,14083],[98.8,14167],[98.8,14250],[98.8,14334],[98.8,14416],[98.8,14500],[98.8,14584],[98.8,14666],[98.8,14750],[98.8,14833],[98.8,14917],[98.8,15000],[98.8,15084],[98.8,15168],[98.8,15250],[98.8,15333],[98.8,15416],[98.8,15500],[98.8,15583],[98.8,15666],[98.8,15750],[98.8,15834],[98.8,15918]]",1,0,507.734,518.595,98.45238095,9.474,"[{""rating"":98.45238095238096,""responseTime"":9.473999999999933}]",space,10.309,,518.595,Definitely yes,100,518.607,,,[],,0,10,10,10,1,audio/Narrative8Situation1.wav,audio/Narrative7Situation1.wav,audio/Narrative6Situation1.wav,audio/Narrative5Situation1.wav,5,2,2,5,,,,,,,,,,,,,,,,,,,,,,,,,,,,,,,,,,,,,,,
,,,,,,5d453e8723a5bb0001492546,2024-02-08_16h50.25.518,group3.1-3.2-social-tom,2023.2.2,Linux x86_64,62.11180124,65c5074098b851296ff0b7ed,65c5415a88725f80ea4397b0,,,,,,,,,,,,,,,,,,,,,,,,,,,,,518.607,1,audio/Narrative8Situation2.wav,521.612,,521.612,531.746,"[[97,1250],[72.5,1667],[71.9,1749],[71.9,1831],[71.9,1917],[68.3,2000],[67.6,2083],[66.3,2167],[65.2,2250],[63.3,2332],[63.3,2415],[63.3,2500],[63.3,2583],[63.3,2667],[63.3,2749],[63.3,2832],[63.3,2915],[63.3,3000],[63.5,3083],[63.6,3168],[66.1,3268],[66.9,3350],[66.8,3432],[62.7,3516],[58.9,3600],[57.7,3684],[55.4,3768],[53.1,3850],[52.5,3932],[51,4015],[50.7,4100],[50.4,4184],[50.4,4268],[50.4,4350],[50.4,4432],[50.4,4516],[50.4,4600],[50.4,4684],[50.4,4766],[50.4,4848],[49.3,4932],[48.9,5015],[48.8,5100],[47.5,5182],[46.3,5265],[44.8,5350],[41.9,5433],[38,5516],[34.3,5600],[31.9,5682],[30.1,5766],[28,5850],[25.4,5932],[20,6016],[13,6101],[9.3,6182],[7.4,6266],[7.4,6350],[6,6432],[5.2,6516],[4,6600],[3.5,6682],[3.2,6765],[2.5,6850],[2.4,6932],[1.9,7015],[1.9,7100],[1.9,7182],[1.9,7266],[1.7,7350],[1.5,7432],[1.2,7515],[1,7600],[0.8,7683],[0.8,7765],[0.7,7850],[0.7,7933],[0.7,8016],[0.7,8100],[0.7,8182],[0.7,8266],[0.7,8350],[0.7,8434],[0.7,8515],[0.7,8598],[0.7,8682],[0.7,8766],[0.7,8851],[0.7,8932],[0.7,9015],[0.7,9098],[0.7,9182],[0.7,9268],[0.7,9348],[0.7,9432],[0.7,9515],[0.7,9600],[0.7,9683],[0.7,9765],[0.7,9848],[0.7,9932],[0.7,10015],[0.7,10100]]",1,0,531.746,540.695,4.761904762,7.989,"[{""rating"":4.761904761904762,""responseTime"":7.988999999999919}]",space,8.396,,540.695,Definitely yes,100,540.706,,,[],,0,11,11,11,1,audio/Narrative8Situation2.wav,audio/Narrative7Situation2.wav,audio/Narrative6Situation2.wav,audio/Narrative5Situation2.wav,3,3,3,3,,,,,,,,,,,,,,,,,,,,,,,,,,,,,,,,,,,,,,,
,,,,,,5d453e8723a5bb0001492546,2024-02-08_16h50.25.518,group3.1-3.2-social-tom,2023.2.2,Linux x86_64,62.11180124,65c5074098b851296ff0b7ed,65c5415a88725f80ea4397b0,,,,,,,,,,,,,,,,,,,,,,,,,,,,,540.707,1,audio/Narrative8Situation3.wav,544.712,,544.712,567.095,"[[11,833],[11,915],[11.1,1000],[12.5,1083],[12.7,1166],[12.7,1250],[12.7,1332],[12.7,1415],[12.7,1498],[12.7,1582],[12.7,1668],[12.7,1750],[12.7,1831],[12.7,1915],[12.7,1998],[12.7,2083],[12.7,2166],[12.7,2250],[12.7,2332],[10.7,2416],[8.3,2500],[6.9,2582],[5.6,2666],[4.5,2750],[4.5,2832],[4.5,2916],[4.5,3000],[6.3,3082],[9.3,3166],[12,3250],[16.1,3333],[16.1,3416],[16.1,3498],[16.1,3582],[16.1,3668],[16.1,3750],[16.1,3833],[16.1,3915],[16.1,4000],[16.1,4082],[16.1,4166],[16.1,4250],[16.1,4333],[16.3,4416],[17.5,4498],[18.9,4582],[19.4,4666],[19.4,4750],[19.4,4832],[19.4,4916],[19.2,5000],[17.6,5083],[16.8,5168],[16.5,5250],[16.5,5333],[16.3,5416],[16.3,5500],[16.3,5582],[16.3,5666],[16.3,5750],[16.3,5832],[16.3,5915],[15.6,6000],[15.2,6082],[15.2,6165],[15.2,6250],[15.2,6332],[15.2,6415],[15.2,6499],[15.2,6582],[15.2,6665],[15.2,6750],[15.2,6834],[15.2,6915],[15.2,7000],[15.2,7084],[15.2,7165],[14.6,7250],[14.6,7332],[13.9,7416],[13.3,7500],[13.2,7584],[13.2,7665],[13.2,7749],[13.2,7832],[13.2,7916],[13.2,8000],[13.2,8082],[13.3,8166],[13.6,8250],[13.6,8334],[13.6,8415],[13.6,8500],[13.6,8582],[13.6,8667],[13.6,8750],[13.6,8834],[13.6,8915],[13.6,8999],[13.6,9082],[13.6,9166],[13.6,9250],[13.6,9332],[13.9,9415],[14.2,9499],[14.6,9582],[14.6,9666],[14.6,9751],[14.6,9831],[14.6,9916],[14.6,9999],[14.6,10082],[14.6,10166],[14.6,10250],[14.6,10332],[14.6,10417],[14.6,10500],[14.6,10582],[14.6,10666],[14.6,10750],[14.6,10832],[14.6,10917],[14.6,11000],[14.6,11084],[14.6,11166],[14.6,11250],[14.6,11332],[14.4,11417],[14,11500],[13.7,11582],[13.5,11666],[13.5,11750],[13.5,11834],[14.2,11916],[14.3,11999],[14.3,12082],[14.3,12167],[16.3,12251],[19.8,12334],[23.2,12418],[30,12500],[30.6,12582],[30.6,12666],[30.6,12750],[30.6,12834],[29.2,12918],[26.4,13000],[26.4,13082],[26.1,13167],[25.7,13249],[24.6,13334],[23,13417],[22.7,13500],[22.7,13582],[24.2,13666],[28.8,13750],[39.9,13834],[41.5,13916],[41.5,14000],[41.5,14084],[41.4,14166],[41.4,14249],[41.4,14332],[41.4,14416],[41.4,14500],[41.4,14582],[41.4,14667],[41.4,14750],[41.4,14832],[41.4,14917],[41.4,15001],[41.4,15081],[41.4,15166],[41.4,15250],[41.4,15332],[41.4,15416],[41.2,15501],[41.2,15582],[41.2,15666],[41.2,15750],[41.2,15832],[41.2,15917],[41.2,16000],[41.2,16087],[41.2,16167],[41.2,16250],[41.2,16332],[41.2,16417],[41.2,16500],[41.2,16582],[41.2,16667],[41.2,16750],[41.2,16832],[43.2,16917],[43.7,16999],[43.7,17082],[43.7,17166],[42.6,17250],[39.8,17332],[39.8,17417],[38.6,17500],[38.3,17582],[38.3,17666],[38.7,17750],[39.5,17835],[40.1,17918],[44.6,18000],[48.5,18084],[50.1,18167],[52.5,18251],[52.6,18334],[54,18417],[54,18499],[53.8,18584],[53.8,18667],[53.8,18750],[53.8,18832],[53.8,18917],[53.7,19001],[53.6,19082],[53.6,19167],[53.6,19250],[53.6,19332],[53.6,19416],[53.6,19500],[55.1,19582],[55.1,19667],[55.1,19751],[55.1,19832],[55.1,19916],[55,20000],[54.8,20082],[54.8,20166],[54.8,20251],[54.8,20332],[54.8,20416],[54.8,20500],[54.8,20582],[54.8,20666],[54.6,20750],[54.6,20832],[54.6,20916],[54.6,21000],[54.6,21082],[54.6,21166],[54.6,21250],[54.2,21334],[54.2,21417],[53.7,21499],[53.7,21581],[53.7,21666],[52.3,21750],[52,21834],[50.2,21917],[49.2,22000],[48,22084],[47.9,22167],[41.7,22251],[31.7,22334]]",1,0,567.095,590.345,19.64285714,22.408,"[{""rating"":10.595238095238097,""responseTime"":17.598999999999933},{""rating"":19.642857142857146,""responseTime"":22.4079999999999}]",space,22.717,,590.345,Not at all,0,590.353,,,[],,0,12,12,12,1,audio/Narrative8Situation3.wav,audio/Narrative7Situation3.wav,audio/Narrative6Situation3.wav,audio/Narrative5Situation3.wav,4,8,5,3,,,,,,,,,,,,,,,,,,,,,,,,,,,,,,,,,,,,,,,
,,,,,,5d453e8723a5bb0001492546,2024-02-08_16h50.25.518,group3.1-3.2-social-tom,2023.2.2,Linux x86_64,62.11180124,65c5074098b851296ff0b7ed,65c5415a88725f80ea4397b0,,,,,,,,,,,,,,,,,,,,,,,,,,,,,590.353,1,audio/Narrative8Situation4.wav,593.363,,593.363,607.548,"[[19.5,1514],[19.4,1598],[19.4,1682],[19.3,1765],[19.3,1848],[19.3,1931],[19.3,2014],[19.3,2097],[19.4,2182],[19.5,2265],[19.9,2348],[19.9,2431],[19.9,2515],[20,2598],[20,2682],[20.1,2764],[20.1,2847],[20.1,2931],[20.1,3014],[20.5,3099],[20.7,3182],[21.2,3265],[21.8,3347],[23.8,3431],[26.8,3515],[30.2,3599],[31.7,3682],[37.1,3766],[39.8,3848],[43.2,3932],[45.2,4015],[46.8,4099],[52.5,4181],[52.6,4265],[52.6,4349],[52.6,4431],[60,4515],[64.4,4598],[66.2,4689],[73.3,4782],[77.9,4865],[77.9,4949],[77.9,5032],[77.9,5116],[77.7,5200],[77.7,5280],[77.7,5365],[77.7,5447],[77.7,5532],[77.7,5615],[77.7,5697],[77.7,5782],[77.9,5865],[78.3,5949],[78.9,6032],[79,6115],[79,6197],[79.4,6282],[80.2,6366],[80.2,6449],[80.2,6531],[80.2,6615],[80.6,6698],[80.6,6781],[80.6,6865],[80.6,6948],[80.6,7032],[80.6,7115],[80.6,7198],[80.6,7281],[80.6,7365],[80.6,7448],[80.5,7531],[80.2,7616],[79.9,7698],[79.6,7781],[79.6,7865],[79.6,7949],[79.6,8030],[79.6,8115],[79.6,8198],[79.6,8281],[79.6,8365],[79.6,8447],[80,8530],[80.6,8615],[81,8698],[81.2,8782],[81.2,8866],[81.5,8947],[81.5,9030],[81.8,9115],[82.5,9199],[82.9,9282],[83.3,9365],[83.5,9447],[83.7,9531],[83.9,9615],[84,9698],[84,9781],[84,9865],[84,9948],[84,10032],[84,10115],[84,10198],[84,10281],[84,10365],[84,10447],[84,10531],[84,10615],[84,10697],[84,10781],[84.4,10865],[84.5,10947],[84.5,11032],[84.6,11115],[85,11197],[85,11281],[85,11365],[85,11448],[85.8,11532],[86,11616],[87.6,11698],[92.6,11782],[92.9,11865],[92.9,11948],[92.9,12032],[93.6,12115],[94.9,12197],[95.4,12282],[96,12365],[96,12448],[96,12530],[96,12615],[96,12699],[96,12782],[96,12865],[96,12947],[96,13030],[96,13115],[96,13199],[96.1,13282],[96.1,13365],[96.1,13447],[96.1,13531],[96.1,13615],[96.1,13698],[96.1,13781],[96.1,13865],[96.1,13948],[96.1,14032],[96.1,14115]]",1,0,607.55,621.312,92.73809524,12.456,"[{""rating"":92.73809523809524,""responseTime"":12.237999999999829},{""rating"":92.73809523809524,""responseTime"":12.455999999999904}]",space,13.214,,621.312,Not at all,0,621.321,,,[],,0,13,13,13,1,audio/Narrative8Situation4.wav,audio/Narrative7Situation4.wav,audio/Narrative6Situation4.wav,audio/Narrative5Situation4.wav,3,3,2,1,,,,,,,,,,,,,,,,,,,,,,,,,,,,,,,,,,,,,,,
,,,,,,5d453e8723a5bb0001492546,2024-02-08_16h50.25.518,group3.1-3.2-social-tom,2023.2.2,Linux x86_64,62.11180124,65c5074098b851296ff0b7ed,65c5415a88725f80ea4397b0,,,,,,,,,,,,,,,,,,,,,,,,,,,,,621.322,1,audio/Narrative8Situation5.wav,623.329,,623.329,631.579,"[[69.9,83],[53.9,833],[51.2,916],[51.1,1000],[51.1,1082],[51.1,1165],[51.1,1250],[51.1,1333],[50,1416],[50,1500],[50,1583],[53.3,1665],[58.7,1750],[62,1833],[66.5,1916],[70,2000],[71.9,2083],[74.9,2165],[76.3,2249],[76.7,2333],[76.7,2416],[76.7,2500],[76.8,2583],[78.6,2665],[79.8,2749],[81,2834],[81,2915],[81,3000],[81,3082],[81,3165],[82.7,3250],[84.2,3333],[85.2,3417],[85.2,3499],[85.2,3583],[85.2,3666],[85.2,3750],[85.2,3833],[85.2,3916],[85.2,4000],[85.2,4083],[85.2,4164],[85.2,4249],[85.2,4332],[85.2,4416],[85.6,4500],[86.7,4583],[86.7,4666],[86.7,4750],[86.7,4834],[86.9,4915],[87,5000],[87,5083],[87,5166],[87,5250],[87,5333],[87,5415],[87,5500],[87,5583],[87,5666],[87,5750],[87,5833],[87,5915],[87,6000],[87,6082],[87,6165],[87,6249],[87,6333],[87,6414],[87,6500],[87,6584],[87.4,6669],[87.5,6755],[87.5,6848],[87.5,6932],[87.5,7017],[87.5,7098],[87.5,7182],[87.5,7266],[87.5,7348],[87.5,7432],[87.5,7515],[87.5,7598],[87.5,7683],[87.5,7767],[87.5,7848],[87.5,7932],[87.5,8017],[87.5,8098],[87.5,8183]]",1,0,631.579,638.779,99.16666667,5.777,"[{""rating"":99.16666666666667,""responseTime"":5.776999999999816}]",space,6.669,,638.779,Not at all,0,638.782,,,[],,0,14,14,14,1,audio/Narrative8Situation5.wav,audio/Narrative7Situation5.wav,audio/Narrative6Situation5.wav,audio/Narrative5Situation5.wav,2,5,2,5,,,,,,,,,,,,,,,,,,,,,,,,,,,,,,,,,,,,,,,
,,,,,,5d453e8723a5bb0001492546,2024-02-08_16h50.25.518,group3.1-3.2-social-tom,2023.2.2,Linux x86_64,62.11180124,65c5074098b851296ff0b7ed,65c5415a88725f80ea4397b0,,,,,,,,,,,,,,,,,,,,,,,,,,,,,638.782,1,audio/Narrative8Situation6.wav,640.796,,640.796,647.296,"[[94.3,165],[94.2,247],[94.2,331],[94.2,415],[94.2,498],[85.4,583],[72.5,666],[61.3,748],[56.4,832],[54.3,916],[52.7,1000],[49.5,1083],[49.3,1164],[48.9,1250],[48.9,1332],[48.9,1415],[48.9,1500],[48.9,1581],[48.9,1666],[46.4,1750],[44.2,1832],[43.9,1916],[43.9,2000],[43.7,2081],[42.9,2165],[41.3,2247],[39.8,2332],[38.9,2416],[37.7,2498],[37.4,2582],[37.4,2664],[37.3,2748],[37.1,2832],[37.1,2914],[36.5,2998],[36.4,3082],[36.4,3165],[36.4,3250],[36.4,3332],[36.4,3415],[56.2,3498],[64.9,3581],[66.2,3665],[81.1,3748],[81.7,3832],[83.1,3915],[83.2,3998],[83.7,4082],[84.4,4170],[84.4,4265],[84.4,4348],[84.4,4432],[84.4,4514],[84.4,4598],[84.4,4682],[84.4,4765],[84.4,4850],[84.4,4932],[84.4,5016],[84.4,5098],[84.4,5182],[84.4,5264],[84.4,5348],[84.4,5432],[84.4,5516],[84.4,5598],[84.4,5682],[84.4,5764],[84.4,5849],[84.4,5933],[84.4,6014],[84.4,6098],[84.4,6182],[84.4,6265],[84.4,6348],[85.1,6432]]",1,0,647.296,655.08,95.23809524,6.798,"[{""rating"":95.23809523809523,""responseTime"":6.798000000000002}]",space,7.251,,655.08,Definitely yes,100,655.09,,,[],,0,15,15,15,1,audio/Narrative8Situation6.wav,audio/Narrative7Situation6.wav,audio/Narrative6Situation6.wav,audio/Narrative5Situation6.wav,2,3,2,3,,,,,,,,,,,,,,,,,,,,,,,,,,,,,,,,,,,,,,,
,,,,,,5d453e8723a5bb0001492546,2024-02-08_16h50.25.518,group3.1-3.2-social-tom,2023.2.2,Linux x86_64,62.11180124,65c5074098b851296ff0b7ed,65c5415a88725f80ea4397b0,,,,,,,,,,,,,,,,,,,,,,,,,,,,,655.091,1,audio/Narrative8Situation7.wav,658.096,,658.096,670.213,"[[93.3,81],[93.3,165],[93.3,249],[93.3,332],[93.3,416],[93.3,500],[93.3,582],[93.3,664],[93.3,748],[93.3,831],[93.3,915],[93.3,999],[93.3,1082],[93.3,1165],[93,1250],[88.5,1332],[76.1,1416],[73.2,1500],[71.8,1582],[59.8,1665],[48.2,1749],[46.4,1836],[36.4,1915],[24.8,2000],[21.7,2084],[14.8,2165],[14,2250],[8.1,2332],[4.9,2415],[1.8,2500],[1.5,2582],[1.5,2666],[1.5,2748],[1.5,2831],[1.5,2915],[1.5,3000],[1.5,3084],[1.5,3165],[1.5,3250],[1.5,3332],[1.5,3415],[1.5,3498],[1.5,3581],[1.5,3665],[1.5,3749],[1.5,3834],[1.5,3916],[1.5,3999],[1.5,4081],[1.5,4165],[1.5,4249],[1.5,4334],[1.5,4414],[1.5,4498],[1.5,4582],[1.3,4666],[1,4750],[0.6,4831],[0.4,4915],[0.2,4998],[0.1,5084],[0.1,5165],[0.1,5250],[1.3,5332],[1.4,5415],[1.4,5499],[1.4,5582],[4,5664],[6.2,5749],[13,5834],[32,5915],[37,6000],[36.9,6084],[36.5,6164],[23.3,6250],[22.1,6332],[22.1,6415],[22.1,6500],[22.1,6584],[22.1,6664],[21.8,6749],[21.1,6832],[21,6914],[21,6999],[23.2,7082],[28.1,7166],[36,7249],[36,7332],[36,7415],[36,7499],[36,7581],[37.9,7667],[39.9,7749],[39.9,7832],[39.3,7915],[39.2,7999],[39.4,8081],[40.1,8165],[40.1,8250],[40.1,8332],[58.3,8415],[65.6,8750],[59.4,8831],[59.4,8915],[59.8,8999],[59.5,9084],[59.4,9165],[59.9,9250],[60.2,9331],[60.2,9414],[60.4,9499],[60.4,9581],[60.2,9666],[59.4,9750],[56.5,9834],[55.2,9915],[54.9,9999],[54.9,10081],[54.9,10164],[54.9,10249],[55.4,10332],[56.4,10415],[58.1,10500],[60.7,10582],[69,10665],[72.1,10749],[72.1,10831],[72.1,10916],[72.1,10999],[72.1,11082],[72.1,11165],[72.1,11249],[69.5,11334],[63,11416],[56.2,11500],[56.2,11581],[56.2,11666],[56.3,11749],[56.9,11831],[57,11916],[57,12000],[57,12082]]",1,0,670.214,678.713,60.11904762,7.408,"[{""rating"":60.11904761904761,""responseTime"":7.408000000000129}]",space,7.95,,678.713,Definitely yes,100,713.379,99.28571429,28.415,"[{""rating"":99.28571428571429,""responseTime"":28.414999999999964}]",space,0,16,16,16,1,audio/Narrative8Situation7.wav,audio/Narrative7Situation7.wav,audio/Narrative6Situation7.wav,audio/Narrative5Situation7.wav,3,5,5,4,,,34.119,,,,,,,,,,,,,,,,,,,,,,,,,,,,,,,,,,,,
,,,,,,5d453e8723a5bb0001492546,2024-02-08_16h50.25.518,group3.1-3.2-social-tom,2023.2.2,Linux x86_64,62.11180124,65c5074098b851296ff0b7ed,65c5415a88725f80ea4397b0,,,,,,,,,,,,,,,,,,,,,,,,,,,,,713.38,1,audio/Narrative8Situation8.wav,716.396,,716.397,729.262,"[[95.7,832],[69.3,915],[49.4,1000],[49,1081],[48.2,1163],[48.2,1249],[49.9,1333],[49.9,1414],[49.9,1498],[49.9,1581],[49.6,1664],[49.2,1747],[49.3,1831],[49.4,1914],[50.1,1999],[50.2,2082],[50.2,2164],[50.5,2248],[50.5,2331],[50.5,2414],[50.5,2498],[50.5,2581],[50.5,2663],[50.5,2748],[50.5,2831],[50.5,2914],[50.5,2998],[47.7,3082],[40.4,3164],[13.6,3247],[8.2,3331],[6.3,3414],[2.6,3498],[2.3,3583],[2.3,3664],[2.3,3748],[2.3,3831],[2.3,3914],[2.3,3998],[2.3,4081],[1.8,4164],[1.7,4249],[1.7,4332],[1.7,4413],[1.5,4499],[1.5,4582],[1.5,4663],[1.5,4749],[1.5,4831],[1.5,4915],[1.5,4999],[1.5,5082],[1.5,5164],[1.5,5247],[1.5,5331],[1.5,5414],[1.5,5500],[1.5,5581],[1.5,5663],[1.5,5748],[1.5,5833],[1.5,5914],[1.5,5998],[1.9,6081],[3,6164],[3,6248],[3,6332],[4.3,6414],[6.2,6498],[9.4,6581],[9.4,6664],[10,6748],[10,6832],[10.5,6915],[11.1,6999],[11.1,7082],[11.1,7164],[11.1,7249],[11.1,7332],[11.1,7414],[11.1,7498],[11.1,7582],[11.1,7664],[11.1,7748],[11.1,7832],[11.1,7914],[11.1,7999],[11.1,8082],[11.1,8163],[11.1,8247],[11.1,8332],[11.1,8414],[11.2,8499],[11.4,8582],[11.7,8663],[11.7,8748],[11.7,8833],[11.7,8913],[11.7,8998],[11.7,9081],[11.7,9164],[11.7,9249],[11.7,9331],[11.7,9414],[11.7,9498],[11.7,9582],[11.7,9664],[11.7,9749],[11.7,9833],[11.7,9913],[11.7,9998],[11.7,10081],[11.7,10164],[11.7,10248],[11.7,10329],[12.9,10415],[14.3,10499],[14.5,10581],[14.5,10664],[14.5,10747],[14.5,10831],[14.5,10914],[14.5,10998],[14.5,11083],[14.5,11165],[14.5,11249],[14.5,11332],[14.5,11415],[14.5,11498],[14.5,11581],[14.5,11663],[14.5,11748],[14.5,11831],[14.5,11915],[14.5,11997],[14.5,12081],[14.5,12163],[14.5,12249],[14,12333],[11.9,12414],[9.6,12498],[8.5,12582],[8.5,12663],[8.5,12749],[8.5,12832]]",1,0,729.263,737.379,7.619047619,6.326,"[{""rating"":7.6190476190476195,""responseTime"":6.326000000000022}]",space,7.572,,737.38,Definitely yes,100,737.388,,,[],,0,17,17,17,1,audio/Narrative8Situation8.wav,audio/Narrative7Situation8.wav,audio/Narrative6Situation8.wav,audio/Narrative5Situation8.wav,3,2,5,3,,,,,,,,,,,,,,,,,,,,,,,,,,,,,,,,,,,,,,,
,,,,,,5d453e8723a5bb0001492546,2024-02-08_16h50.25.518,group3.1-3.2-social-tom,2023.2.2,Linux x86_64,62.11180124,65c5074098b851296ff0b7ed,65c5415a88725f80ea4397b0,,,,,,,,,,,,,,,,,,,,,,,,,,,,,737.389,1,audio/Narrative8Situation9.wav,740.395,,740.395,751.714,"[[10.5,583],[10.6,666],[10.6,750],[10.6,833],[10.6,916],[10.6,1000],[10.5,1086],[10.1,1166],[7.7,1250],[0.7,1334],[0.4,1417],[22,1500],[22,1583],[22,1666],[22,1750],[22,1835],[22,1915],[3,7500],[3.1,7583],[3.1,7666],[3,7750],[3,7833],[3,7916],[3,8000],[3,8084],[3.1,8167],[4.4,8250],[7.4,8333],[8.1,8415],[12.1,8500],[14.2,8584],[14.2,8666],[14.2,8750],[14,8834],[14,8916],[14,9000],[12,9084],[11.7,9167],[11.2,9250],[11.2,9334],[11.2,9417],[11.2,9499],[11.2,9583],[10.4,9674],[10.2,9767],[10.2,9850],[10.2,9934],[10.2,10016],[10.2,10099],[10.2,10184],[9.9,10267],[9.3,10349],[4.3,10432],[3.8,10517],[3.8,10599],[3.8,10684],[3.9,10767],[3.9,10849],[3.9,10933],[4,11017],[4,11100],[4.2,11182],[4.4,11269]]",1,0,751.714,760.846,20.95238095,7.045,"[{""rating"":16.07142857142857,""responseTime"":5.428000000000111},{""rating"":20.95238095238095,""responseTime"":7.045000000000073}]",space,8.582,,760.846,Not at all,0,760.858,,,[],,0,18,18,18,1,audio/Narrative8Situation9.wav,audio/Narrative7Situation9.wav,audio/Narrative6Situation9.wav,audio/Narrative5Situation9.wav,3,2,4,3,,,,,,,,,,,,,,,,,,,,,,,,,,,,,,,,,,,,,,,
,,,,,,5d453e8723a5bb0001492546,2024-02-08_16h50.25.518,group3.1-3.2-social-tom,2023.2.2,Linux x86_64,62.11180124,65c5074098b851296ff0b7ed,65c5415a88725f80ea4397b0,,,,,,,,,,,,,,,,,,,,,,,,,,,764.18,766.762,766.777,2,audio/Narrative13Situation2.wav,766.778,,766.778,796.529,"[[17.5,567],[23.3,732],[21.5,817],[20.2,900],[17.9,983],[11.2,1067],[1.5,1149],[0.2,7483],[2.4,7567],[3.7,7650],[3.8,7733],[3.8,7817],[3.8,7900],[3.8,7982],[5.2,8067],[12.4,8150],[21,8233],[24,8317],[24.3,8399],[24.3,8483],[24.3,8567],[24.3,8649],[33,8733],[33,8817],[33,8899],[33,8983],[33,9067],[33.3,9150],[36.7,9234],[39,9317],[54.3,9402],[56.1,9484],[56.3,9567],[56.3,9650],[56.3,9733],[56.1,9817],[55.8,9899],[55.8,9982],[55.7,10067],[55.7,10150],[55.7,10234],[55.7,10317],[55.7,10399],[55.7,10483],[55.7,10568],[55.7,10650],[55.7,10733],[56.3,10817],[56.3,10900],[56.3,10984],[56.3,11067],[56.3,11150],[56.3,11233],[56.3,11317],[56.3,11399],[56.3,11483],[56.3,11567],[56.3,11652],[56.3,11733],[56.3,11816],[56.5,11900],[59.2,11983],[60.6,12067],[61.9,12150],[64.3,12232],[69.3,12317],[71.9,12400],[75.8,12483],[77.5,12568],[78.8,12650],[78.8,12732],[78.8,12817],[78.7,12899],[78.7,12984],[86.9,13067],[87.5,13149],[87.5,13233],[89.4,13317],[91.1,13399],[91.1,13483],[91.1,13567],[91.1,13652],[90.6,13733],[88.9,13816],[85.7,13899],[84.8,13983],[84.8,14067],[84.8,14150],[84.8,14233],[84.8,14316],[85.6,14399],[88.6,14483],[89.5,14567],[89.5,14649],[89.5,14733],[89.5,14818],[89.5,14903],[89.8,14984],[90.6,15067],[90.8,15150],[90.8,15232],[90.8,15317],[90.8,15399],[90.8,15482],[91.9,15567],[92.5,15650],[93.5,15733],[96.1,15817],[96.9,15902],[97.9,15983],[98.1,16067],[98.1,16150],[98.1,16233],[98.1,16316],[98.1,16399],[98.2,16483],[98.5,16567],[98.5,16649],[98.5,16732],[98.5,16817],[98.5,16903],[98.5,16982],[98.5,17067],[98.3,17149],[98.3,17233],[98.2,17317],[94.4,17399],[86.4,17482],[79.8,17567],[51.7,17650],[36.8,17734],[34.9,17817],[30.7,17900],[30.7,17983],[26.8,18067],[19.8,18152],[16.5,18233],[9.9,18316],[5.8,18399],[3.8,18483],[3.8,18567],[2.3,18650],[2.1,18732],[2.1,18817],[2.1,18903],[2.1,18983],[2.1,19067],[2.1,19150],[2.1,19233],[2.1,19317],[2.1,19400],[2.1,19483],[2.1,19567],[2.1,19650],[2.1,19733],[1.7,19817],[1.4,19902],[1.3,19983],[1.3,20067],[1.3,20150],[1.3,20233],[1.3,20317],[1.3,20400],[1.3,20483],[1.3,20566],[1.3,20649],[1.3,20733],[1.3,20817],[1.3,20900],[1.3,20982],[1.3,21067],[1.3,21149],[1.3,21234],[1.3,21317],[1.3,21399],[1.3,21482],[1.3,21567],[1.5,21649],[1.5,21732],[1.5,21817],[1.8,21899],[1.8,21984],[1.8,22067],[2.1,22150],[2.1,22233],[2.1,22317],[2.4,22400],[2.6,22484],[2.7,22567],[6.7,22650],[21.9,22733],[48.1,22817],[65.8,22902],[66.8,22984],[68.3,23067],[69.4,23150],[71.5,23233],[71.5,23317],[71.5,23400],[71.5,23482],[71.5,23567],[71.5,23649],[71.5,23734],[71.5,23816],[72.6,23899],[73.5,23983],[74.4,24067],[74.4,24150],[74.6,24232],[75,24317],[75,24400],[75,24482],[75,24567],[75,24650],[75,24732],[75,24817],[74.9,24900],[74.9,24983],[74.9,25067],[74.9,25150],[74.9,25232],[74.9,25317],[74.9,25399],[74.9,25483],[75.1,25567],[76,25650],[76.4,25734],[76.4,25817],[76.4,25899],[76.4,25983],[76.4,26067],[76.4,26149],[76.4,26233],[76.4,26317],[76.4,26400],[76.4,26483],[76.4,26567],[76.4,26649],[76.4,26733],[76.4,26817],[76.4,26899],[76.4,26984],[76.4,27067],[76.4,27149],[76.4,27233],[76.4,27317],[76.4,27402],[76.4,27483],[76.4,27567],[76.4,27649],[76.4,27733],[76.7,27817],[77.1,27902],[77.3,27983],[77.5,28067],[78.6,28150],[79.3,28233],[81,28318],[83.6,28417],[85,28500],[85.2,28583],[85.2,28666],[85.2,28751],[85.2,28833],[85.2,28915],[84.9,29000],[81.4,29085],[70,29166],[56.7,29250],[55.8,29335],[49.2,29416],[38.9,29500],[38.8,29582],[38.8,29666],[38.8,29750]]",1,0,796.53,796.54,,,[],,,,796.541,Not at all,0,796.543,,,[],,0,0,0,0,1,audio/Narrative13Situation2.wav,audio/Narrative13Situation2.wav,audio/Narrative13Situation2.wav,audio/Narrative13Situation2.wav,2,2,2,2,,,,,760.859,764.179,space,2.801,,,,,,,,,,,,,,,,,,,,,,,,,,,,,,,
,,,,,,5d453e8723a5bb0001492546,2024-02-08_16h50.25.518,group3.1-3.2-social-tom,2023.2.2,Linux x86_64,62.11180124,65c5074098b851296ff0b7ed,65c5415a88725f80ea4397b0,,,,,,,,,,,,,,,,,,,,,,,,,,,,,796.545,2,audio/Narrative5Situation1.wav,801.546,,801.546,814.845,"[[16.9,582],[16.1,665],[11.3,750],[8,832],[6.4,916],[4.8,998],[3.3,1081],[3.3,1164],[2.1,1248],[0.7,1332],[0.7,1415],[0.7,1500],[0.7,1581],[0.7,1664],[0.7,1748],[0.7,1832],[0.7,1915],[0.7,2000],[0.7,2081],[0.7,2165],[0.7,2248],[0.7,2333],[0.7,2416],[0.7,2498],[0.7,2582],[0.7,2665],[0.7,2750],[1.5,2832],[2.6,2915],[2.6,2998],[2.6,3082],[2.6,3165],[2.6,3248],[2.6,3331],[2.6,3415],[2.6,3498],[2.6,3581],[2.5,3665],[2.1,3750],[2.1,3831],[2.1,3914],[2.1,4000],[2.1,4082],[2.1,4166],[2.1,4248],[2.1,4332],[2.1,4414],[2.1,4498],[2.1,4582],[2.1,4665],[2.1,4748],[2.1,4831],[2.1,4915],[2.1,4998],[2.1,5081],[2.1,5165],[2.1,5247],[2.1,5332],[2.1,5415],[2.1,5500],[2.1,5582],[2.1,5664],[2.1,5747],[2.1,5831],[2.1,5915],[2.1,6000],[2.1,6081],[2.1,6164],[2.1,6248],[2.1,6332],[2.1,6416],[2.1,6500],[2,6582],[2,6664],[2,6748],[2,6831],[2,6915],[2,6998],[2,7081],[2,7164],[2,7248],[2,7333],[2,7415],[2,7500],[2,7583],[2,7664],[2,7748],[2,7832],[2,7915],[2,7997],[2,8081],[2,8164],[2,8248],[2,8333],[2,8414],[2,8500],[2,8581],[2,8665],[2,8748],[2,8831],[2,8914],[2,9000],[2,9082],[2,9165],[2,9247],[2,9331],[2,9416],[2,9500],[2,9582],[2,9665],[2,9748],[2,9831],[2,9915],[2,9998],[2,10082],[2,10165],[2,10248],[2,10331],[2,10415],[2,10501],[2,10581],[2,10665],[2,10750],[2,10832],[3.8,10916],[8.7,10998],[8.7,11081],[8.7,11166],[11.1,11248],[18.8,11331],[20,11416],[20,11498],[20,11583],[20.6,11666],[26,11748],[26.9,11832],[26.9,11915],[26.9,12000],[26.9,12081],[26.9,12165],[27.1,12248],[27.5,12333],[31.9,12416],[35.8,12500],[36.4,12582],[36.4,12665],[36.4,12750],[35.5,12833],[34.6,12915],[34.6,12998],[34.6,13081],[34.6,13165],[34.6,13250]]",1,0,814.846,833.346,36.54761905,17.876,"[{""rating"":36.54761904761905,""responseTime"":17.875999999999976}]",space,17.949,,833.346,Definitely yes,100,833.352,,,[],,0,1,1,1,1,audio/Narrative7Situation1.wav,audio/Narrative8Situation1.wav,audio/Narrative5Situation1.wav,audio/Narrative6Situation1.wav,2,5,5,2,,,,,,,,,,,,,,,,,,,,,,,,,,,,,,,,,,,,,,,
,,,,,,5d453e8723a5bb0001492546,2024-02-08_16h50.25.518,group3.1-3.2-social-tom,2023.2.2,Linux x86_64,62.11180124,65c5074098b851296ff0b7ed,65c5415a88725f80ea4397b0,,,,,,,,,,,,,,,,,,,,,,,,,,,,,833.352,2,audio/Narrative5Situation2.wav,836.362,,836.362,865.829,"[[30.2,1251],[26.7,1334],[26.4,1416],[25.7,1500],[23.3,1585],[21.9,1668],[13.3,1751],[10.5,1834],[4.5,1917],[4.4,2001],[4.4,2085],[4.4,2166],[3.8,2250],[1.5,2334],[1.3,2417],[1.3,2499],[1.3,2583],[1.3,2667],[1.3,2750],[1.3,2834],[1.3,2916],[1.3,3000],[1.3,3083],[1.3,3166],[1.3,3250],[1.3,3334],[1.3,3416],[1.3,3499],[1.3,3583],[1.3,3668],[1.3,3752],[1.3,3834],[1.3,3917],[1.3,4000],[1.3,4083],[1.3,4166],[1.3,4250],[1.3,4333],[1.3,4417],[1.3,4502],[1.3,4584],[1.3,4666],[1.3,4751],[1.3,4833],[1.3,4918],[1.3,5000],[1.3,5083],[1.3,5166],[1.3,5250],[1.3,5333],[1.5,5417],[1.5,5500],[1.5,5583],[1.8,5667],[1.9,5751],[1.9,5833],[1.9,5916],[1.9,6000],[1.9,6084],[1.9,6167],[1.9,6249],[1.9,6332],[1.9,6416],[1.9,6500],[1.9,6582],[1.9,6666],[1.9,6749],[1.9,6833],[1.9,6917],[1.9,7000],[1.9,7082],[1.9,7167],[1.9,7252],[1.9,7334],[1.9,7417],[1.9,7501],[1.9,7582],[2,7666],[2.3,7750],[2.6,7834],[2.6,7917],[2.6,8000],[3.1,8083],[3.8,8167],[3.8,8250],[3.8,8332],[4,8416],[5.6,8500],[11.3,8584],[11.3,8667],[11.7,8750],[11.8,8834],[11.8,8917],[13.1,9000],[14.6,9084],[15.4,9168],[15.4,9250],[15.4,9332],[15.5,9417],[15.6,9500],[17.9,9584],[21.2,9667],[26.1,9749],[26.9,9833],[26.9,9918],[26.9,10000],[31.2,10084],[35.7,10167],[44.8,10250],[45.6,10333],[45.6,10418],[45.6,10499],[45.6,10583],[45.7,10667],[46.7,10751],[47.6,10833],[48.9,10917],[48.9,11000],[51.1,11084],[51.3,11167],[51.3,11249],[51.5,11333],[52.6,11417],[52.6,11500],[52.6,11584],[52.7,11667],[53.5,11750],[54.4,11833],[56,11917],[57.3,12001],[58.5,12084],[61.1,12166],[64,12250],[64.6,12333],[64.6,12417],[69.2,12501],[76.1,12583],[80,12666],[81.1,12750],[82.9,12833],[82.9,12918],[83.6,13000],[84.6,13083],[85.1,13167],[85.1,13250],[85.7,13332],[87.5,13416],[88.7,13500],[88.9,13584],[88.9,13666],[88.9,13751],[88.9,13833],[88.9,13916],[88.9,14000],[88.9,14083],[88.8,14168],[88.3,14250],[88.3,14333],[88.3,14418],[88.3,14500],[88.3,14583],[88.3,14666],[88.3,14749],[88.3,14833],[88.3,14918],[88.3,15001],[88.3,15083],[88.3,15166],[88.3,15249],[88.3,15333],[88.3,15417],[88.3,15500],[88.5,15585],[88.8,15666],[88.8,15750],[88.8,15833],[88.8,15916],[88.8,16000],[88.8,16083],[88.8,16166],[88.8,16250],[88.8,16333],[88.8,16417],[88.8,16500],[88.8,16584],[88.8,16667],[88.8,16749],[88.8,16835],[88.8,16917],[88.8,17001],[88.8,17084],[88.8,17167],[88.8,17249],[86.4,17333],[79.9,17418],[79.2,17501],[79.2,17583],[79.2,17667],[75.5,17750],[50.8,17833],[40.7,17916],[24.2,18001],[17.5,18084],[17.3,18167],[11,18250],[11,18333],[11,18416],[10.8,18500],[9.6,18583],[7.1,18666],[5.4,18751],[5.4,18832],[5.4,18917],[5.4,19000],[5.4,19083],[5.4,19166],[5.6,19249],[5.6,19332],[5.5,19417],[4.6,19500],[4.6,19583],[2.7,19668],[2.7,19750],[2.7,19833],[2.7,19917],[2.7,20001],[4.2,20083],[4.2,20167],[4.3,20250],[4.3,20334],[4.3,20418],[4.3,20499],[4.3,20582],[4.6,20666],[4.6,20750],[4.6,20835],[4.6,20917],[4.6,21000],[4.6,21082],[4.6,21167],[3.7,21250],[3.6,21334],[2.4,21416],[4.4,21501],[6.5,21584],[10.2,21667],[10.2,21749],[14.6,21833],[32.6,21917],[43.5,22001],[44,22084],[51.2,22167],[57.3,22250],[63.3,22333],[67,22417],[70.5,22501],[77.1,22584],[78.9,22666],[85.2,22750],[86.5,22834],[87.3,22918],[87.3,23001],[87.3,23083],[87.3,23167],[86.9,23250],[86.9,23334],[86.9,23417],[85.5,23500],[78.1,23584],[78,23667],[75.7,23751],[74.6,23833],[74.4,23917],[73.7,24001],[72.4,24084],[69.6,24167],[69.5,24249],[69.5,24334],[69.6,24417],[70.1,24500],[70.5,24583],[70.5,24667],[70.5,24750],[70.5,24834],[64.9,24916],[60.8,24999],[56.7,25083],[47.4,25167],[43.6,25250],[43.1,25335],[40.1,25416],[32.6,25500],[32.6,25583],[32.6,25666],[32.6,25751],[32.6,25835],[31.7,25917],[23.1,26001],[22.1,26084],[19.9,26166],[18.7,26250],[16.9,26334],[15.8,26417],[14.2,26499],[14.2,26584],[13.8,26667],[12.3,26750],[10.5,26834],[10.4,26916],[9.5,27000],[9.5,27084],[9.2,27167],[9.2,27249],[9.2,27333],[9.2,27417],[9.2,27500],[9.2,27584],[9,27666],[7,27750],[4.8,27833],[3,27917],[3,28000],[0.7,28083],[0.7,28167],[0.7,28249],[0.7,28334],[1,28416],[1.3,28500],[1.3,28583],[1.3,28667],[1.3,28750],[1.3,28833],[1.3,28917],[1.3,29001],[1.3,29084],[1.3,29167],[1.3,29250],[1.3,29333],[1.3,29416]]",1,0,865.829,871.211,49.64285714,3.959,"[{""rating"":49.642857142857146,""responseTime"":3.9589999999998327}]",space,4.853,,871.212,Partially,50,871.223,,,[],,0,2,2,2,1,audio/Narrative7Situation2.wav,audio/Narrative8Situation2.wav,audio/Narrative5Situation2.wav,audio/Narrative6Situation2.wav,3,3,3,3,,,,,,,,,,,,,,,,,,,,,,,,,,,,,,,,,,,,,,,
,,,,,,5d453e8723a5bb0001492546,2024-02-08_16h50.25.518,group3.1-3.2-social-tom,2023.2.2,Linux x86_64,62.11180124,65c5074098b851296ff0b7ed,65c5415a88725f80ea4397b0,,,,,,,,,,,,,,,,,,,,,,,,,,,,,871.224,2,audio/Narrative5Situation3.wav,874.229,,874.229,888.146,"[[47,1167],[45.1,1250],[45.1,1332],[44.8,1414],[41.3,1500],[31.7,1581],[24.4,1666],[23.6,1749],[23.6,1832],[21.3,1915],[17.5,2000],[4.3,2416],[3.3,2500],[3.2,2581],[3.2,2666],[3.2,2749],[3.2,2832],[3.2,2915],[4.4,2999],[8,3082],[22.9,3166],[58.2,3250],[67.3,3333],[71.3,3415],[73.7,3500],[73.7,3582],[73.7,3666],[74.3,3750],[76.7,3832],[79,3915],[80,4000],[80.4,4082],[80.4,4165],[80.4,4250],[81.5,4332],[84.3,4416],[86.4,4500],[88.5,4582],[91.7,4666],[92.9,4750],[94.3,4833],[94.5,4916],[94.5,4999],[94.5,5082],[94.5,5166],[95,5250],[95.2,5333],[95.2,5415],[95.7,5499],[96,5582],[96,5665],[96,5750],[95.8,5833],[95.4,5915],[95.4,5999],[94.9,6081],[94.9,6165],[92,6250],[88.8,6332],[90,6416],[91.5,6500],[91.5,6582],[91.5,6666],[92.3,6749],[93,6832],[93,6915],[93.2,7000],[94.8,7082],[94.9,7165],[96.5,7250],[96.8,7333],[96.8,7416],[97.1,7499],[97.1,7582],[97.1,7665],[97.1,7750],[97.1,7832],[97.4,7915],[97.5,7999],[97.5,8082],[97.5,8166],[97.5,8250],[97.5,8332],[97.5,8415],[97.5,8500],[97.5,8582],[97.5,8666],[97.5,8750],[97.5,8832],[97.5,8916],[97.5,8999],[97.5,9081],[96.7,9166],[95.7,9250],[95.7,9332],[95.7,9415],[95.7,9500],[95.7,9582],[95.7,9666],[95.7,9749],[93.9,9832],[93.9,9916],[93.9,10000],[93.9,10081],[93.9,10166],[94.4,10250],[95.5,10332],[96,10416],[96.3,10500],[96.3,10581],[96.3,10665],[96.3,10750],[96.3,10832],[96.5,10917],[96.8,11009],[96.9,11098],[97,11182],[97,11266],[97,11348],[97,11432],[97,11514],[97,11598],[96.9,11683],[96.9,11766],[96.5,11849],[96.3,11933],[96.3,12015],[96.3,12099],[96.1,12183],[96.1,12266],[96.1,12349],[96.1,12432],[96.1,12515],[95.8,12599],[95.8,12682],[95,12766],[95,12848],[95,12932],[95,13015],[95,13099],[95,13182],[95,13264],[95,13348],[95,13432],[95,13515],[95,13600],[95,13683],[95,13765],[95,13849]]",1,0,888.146,898.178,60.71428571,8.847,"[{""rating"":60.71428571428571,""responseTime"":8.84699999999998}]",space,9.492,,898.178,Definitely yes,100,898.184,,,[],,0,3,3,3,1,audio/Narrative7Situation3.wav,audio/Narrative8Situation3.wav,audio/Narrative5Situation3.wav,audio/Narrative6Situation3.wav,8,4,3,5,,,,,,,,,,,,,,,,,,,,,,,,,,,,,,,,,,,,,,,
,,,,,,5d453e8723a5bb0001492546,2024-02-08_16h50.25.518,group3.1-3.2-social-tom,2023.2.2,Linux x86_64,62.11180124,65c5074098b851296ff0b7ed,65c5415a88725f80ea4397b0,,,,,,,,,,,,,,,,,,,,,,,,,,,,,898.184,2,audio/Narrative5Situation4.wav,899.195,,899.195,919.595,"[[58.5,166],[55.1,250],[54.5,335],[53.3,418],[44.4,1002],[40,1084],[32.6,1166],[31.9,1250],[27,1334],[23.6,1418],[26,1500],[40.1,1584],[39.3,1668],[38.2,1750],[37.4,1834],[37.4,1916],[37.4,2000],[36.3,2085],[27.9,2165],[20.1,2250],[16.4,2333],[14.2,2416],[13,2500],[12,2584],[12.1,2666],[12.1,2750],[12.1,2834],[12.5,2916],[28.8,3000],[45.8,3084],[51.7,3168],[52.6,3250],[52.6,3334],[47.4,3415],[27.5,3501],[17.7,3583],[11.4,3666],[11.4,3750],[10.5,3834],[8.7,3916],[6.2,4000],[6.1,4083],[6.1,4168],[2.9,4250],[1.8,4335],[1.8,4418],[1.8,4500],[1.8,4583],[1.8,4666],[1.9,4750],[1.9,4834],[1.9,4916],[1.9,5000],[1.9,5083],[1.9,5166],[1.9,5250],[1.9,5334],[1.9,5416],[1.9,5500],[1.9,5584],[1.9,5665],[1.9,5750],[1.9,5834],[1.9,5916],[1.9,5999],[1.9,6084],[1.9,6166],[1.9,6250],[1.9,6335],[1.9,6418],[1.9,6500],[1.9,6584],[1.9,6666],[1.9,6750],[1.9,6833],[1.9,6916],[1.9,7000],[1.9,7084],[1.9,7166],[1.9,7250],[1.9,7333],[1.9,7416],[1.9,7500],[1.9,7584],[1.9,7665],[1.9,7750],[1.9,7834],[1.9,7916],[1.9,8000],[1.9,8083],[1.9,8166],[1.9,8250],[1.9,8334],[1.9,8415],[1.9,8500],[1.9,8583],[1.9,8666],[1.9,8750],[1.9,8833],[1.9,8915],[1.9,9000],[1.9,9083],[1.9,9166],[1.9,9250],[1.9,9334],[1.9,9416],[1.9,9500],[1.9,9584],[1.9,9666],[1.9,9750],[2.5,9835],[14.4,9918],[30.7,10000],[31.8,10083],[33,10168],[36.4,10250],[40.6,10334],[41.8,10415],[42.7,10500],[45.8,10584],[48.1,10666],[50.1,10750],[50.2,10834],[50.4,10915],[50.8,11000],[53.3,11085],[54.9,11168],[56.4,11250],[57.7,11335],[58.7,11416],[59,11500],[60.2,11583],[60.8,11666],[60.8,11750],[60.8,11835],[61,11916],[61.2,12000],[61.3,12084],[64.3,12166],[65.1,12249],[65.8,12334],[66.3,12415],[66.3,12500],[66.3,12583],[66.3,12665],[66.3,12750],[66.3,12833],[66.3,12916],[66.3,13000],[66.3,13083],[66.4,13165],[66.8,13250],[68.3,13333],[69,13416],[69,13500],[69,13583],[69,13666],[69,13750],[69,13834],[69,13918],[69,14000],[69,14083],[69,14168],[67.4,14250],[66.7,14333],[66.7,14415],[58,14500],[45.1,14583],[40.2,14668],[36.2,14750],[28,14833],[29.3,14915],[30.7,15000],[30.7,15084],[23.1,15166],[23.1,15250],[38.7,15334],[61.5,15418],[67,15500],[68.6,15583],[68.6,15665],[68.6,15750],[68.6,15834],[68.6,15918],[71.2,16003],[72.4,16085],[72.6,16165],[72.7,16250],[72.7,16333],[73.2,16416],[74.2,16499],[75.4,16584],[76.5,16666],[76.5,16750],[76.5,16833],[76.5,16915],[76.5,17000],[77.3,17084],[78,17168],[78.8,17250],[80,17333],[80.1,17415],[80.7,17500],[81.9,17584],[83.7,17666],[84.9,17750],[86.3,17834],[89.4,17916],[93.1,18000],[95.4,18084],[100,18166],[100,18249],[100,18333],[100,18416],[100,18500],[100,18585],[100,18666],[100,18750],[99.4,18834],[98.9,18918],[98.9,19000],[98.9,19084],[98.9,19166],[98.9,19250],[98.9,19333],[88,19416],[74,19500],[57.1,19585],[53.5,19666],[44,19750],[16.9,19835],[13.7,19916],[11.5,20000],[11.5,20085],[11.5,20168],[11.5,20250],[11.5,20333]]",1,0,919.596,926.695,55.95238095,4.136,"[{""rating"":55.952380952380956,""responseTime"":4.135999999999967}]",space,6.557,,926.695,Not at all,0,926.707,,,[],,0,4,4,4,1,audio/Narrative7Situation4.wav,audio/Narrative8Situation4.wav,audio/Narrative5Situation4.wav,audio/Narrative6Situation4.wav,3,3,1,2,,,,,,,,,,,,,,,,,,,,,,,,,,,,,,,,,,,,,,,
,,,,,,5d453e8723a5bb0001492546,2024-02-08_16h50.25.518,group3.1-3.2-social-tom,2023.2.2,Linux x86_64,62.11180124,65c5074098b851296ff0b7ed,65c5415a88725f80ea4397b0,,,,,,,,,,,,,,,,,,,,,,,,,,,,,926.708,2,audio/Narrative5Situation5.wav,931.712,,931.712,947.129,"[[52.7,750],[53.1,832],[53.9,916],[54.9,1000],[51.4,1084],[43.9,1166],[43,1250],[43,1332],[43,1416],[43,1500],[43,1582],[24.8,1665],[13.3,1749],[5.6,1832],[0.5,1916],[0.5,2000],[1,2081],[1.3,2167],[3.2,2250],[3.2,2334],[3.2,2417],[3.1,2500],[3.1,2582],[2.4,2665],[1.9,2750],[1.5,2832],[1.4,2915],[1.3,3000],[1.3,3082],[1.3,3166],[1.3,3252],[1.3,3332],[1.3,3416],[1.3,3500],[1.3,3582],[1.3,3665],[1.3,3750],[1.3,3832],[1.3,3915],[1.2,4000],[1.2,4081],[1.2,4167],[1.2,4250],[1.2,4334],[1.2,4415],[1.2,4500],[1.2,4584],[1.3,4666],[1.4,4750],[1.4,4832],[1.7,4915],[1.7,5000],[1.7,5082],[1.7,5165],[1.7,5250],[1.7,5331],[1.7,5417],[1.7,5499],[1.7,5584],[1.7,5666],[1.7,5749],[1.7,5832],[1.7,5916],[1.7,5999],[1.7,6082],[1.7,6166],[1.7,6249],[1.7,6334],[1.7,6417],[1.7,6500],[1.7,6582],[1.7,6666],[1.7,6750],[1.7,6834],[1.7,6915],[1.7,7000],[1.7,7082],[1.7,7166],[1.7,7250],[1.7,7332],[1.7,7415],[1.7,7499],[1.7,7581],[1.7,7667],[1.7,7750],[1.7,7834],[1.7,7915],[1.7,8000],[1.7,8081],[1.7,8166],[1.7,8250],[1.7,8334],[1.7,8415],[1.7,8499],[1.7,8581],[1.7,8666],[1.7,8750],[1.7,8834],[1.7,8915],[1.7,8999],[1.7,9082],[1.7,9165],[1.7,9250],[1.7,9334],[1.7,9415],[1.7,9500],[1.7,9584],[1.7,9666],[1.7,9750],[1.7,9832],[1.7,9916],[1.7,10000],[1.7,10084],[1.7,10165],[1.7,10250],[1.7,10334],[1.7,10416],[1.7,10500],[1.7,10581],[1.7,10665],[1.7,10750],[1.7,10832],[1.7,10916],[1.7,11000],[1.7,11084],[1.7,11165],[1.7,11250],[1.7,11332],[1.7,11416],[1.7,11500],[1.7,11584],[1.7,11665],[1.7,11750],[1.7,11834],[1.7,11915],[1.7,12000],[1.7,12082],[1.7,12166],[1.7,12249],[1.7,12332],[1.7,12416],[1.7,12500],[1.7,12582],[1.7,12666],[1.7,12750],[1.7,12832],[1.7,12916],[1.7,13000],[1.7,13082],[1.7,13166],[1.7,13250],[1.7,13334],[1.7,13416],[1.7,13500],[1.7,13586],[1.7,13682],[1.7,13766],[1.7,13849],[1.7,13932],[1.7,14017],[1.7,14099],[1.7,14182],[1.7,14266],[1.7,14348],[1.7,14432],[1.7,14517],[1.7,14599],[1.7,14682],[1.7,14766],[1.7,14849],[1.7,14932],[1.7,15017],[1.7,15100],[1.7,15183],[1.7,15266],[1.7,15348]]",1,0,947.129,960.579,2.261904762,3.407,"[{""rating"":2.261904761904759,""responseTime"":3.4069999999999254}]",space,12.896,,960.579,Not at all,0,960.588,,,[],,0,5,5,5,1,audio/Narrative7Situation5.wav,audio/Narrative8Situation5.wav,audio/Narrative5Situation5.wav,audio/Narrative6Situation5.wav,5,2,5,2,,,,,,,,,,,,,,,,,,,,,,,,,,,,,,,,,,,,,,,
,,,,,,5d453e8723a5bb0001492546,2024-02-08_16h50.25.518,group3.1-3.2-social-tom,2023.2.2,Linux x86_64,62.11180124,65c5074098b851296ff0b7ed,65c5415a88725f80ea4397b0,,,,,,,,,,,,,,,,,,,,,,,,,,,,,960.589,2,audio/Narrative5Situation6.wav,963.595,,963.596,969.282,"[[3.5,834],[3.9,914],[3.9,1000],[3.9,1081],[4,1164],[5.8,1250],[8.1,1332],[8.1,1416],[8.1,1498],[8.1,1581],[8.1,1666],[8.1,1749],[8.6,1832],[18.9,1915],[21.2,2000],[40.8,2087],[44.5,2165],[44.8,2249],[45.1,2332],[46.1,2416],[46.3,2500],[46.5,2581],[46.5,2665],[46.4,2749],[45.5,2834],[42.9,2915],[42.9,2999],[43.5,3082],[45.7,3166],[48.9,3249],[51.7,3331],[53.9,3415],[54.4,3499],[56,3582],[56.3,3665],[56.3,3749],[56.3,3831],[56.3,3915],[56.3,3999],[56.3,4082],[56.3,4165],[56.2,4250],[56.2,4331],[56.2,4415],[56.2,4500],[56.2,4584],[56.2,4665],[56.2,4749],[56.2,4832],[56.2,4915],[56.2,5000],[56.2,5082],[56.2,5164],[56.2,5248],[56.2,5331],[56.2,5416],[56.2,5500],[56.2,5582],[56.2,5665]]",1,0,969.283,979.361,51.66666667,8.823,"[{""rating"":51.66666666666667,""responseTime"":8.822999999999865}]",space,9.543,,979.362,Definitely yes,100,979.368,,,[],,0,6,6,6,1,audio/Narrative7Situation6.wav,audio/Narrative8Situation6.wav,audio/Narrative5Situation6.wav,audio/Narrative6Situation6.wav,3,2,3,2,,,,,,,,,,,,,,,,,,,,,,,,,,,,,,,,,,,,,,,
,,,,,,5d453e8723a5bb0001492546,2024-02-08_16h50.25.518,group3.1-3.2-social-tom,2023.2.2,Linux x86_64,62.11180124,65c5074098b851296ff0b7ed,65c5415a88725f80ea4397b0,,,,,,,,,,,,,,,,,,,,,,,,,,,,,979.368,2,audio/Narrative5Situation7.wav,983.379,,983.379,1004.429,"[[49.4,914],[36.4,1000],[30.2,1084],[29.4,1165],[29.4,1249],[29.4,1333],[24.2,1417],[16.2,1499],[12,1584],[7.1,1668],[4.3,1750],[6.9,1833],[6.9,1915],[6.9,2000],[6.8,2084],[4.6,2167],[3.8,2249],[3.6,2334],[3.6,2417],[3.6,2500],[3.6,2582],[3.6,2664],[2.9,2750],[2.5,2833],[1.5,2917],[1.4,2999],[1.4,3083],[1.8,3165],[2.3,3250],[2.7,3334],[2.7,3415],[2.7,3499],[2.7,3582],[2.7,3665],[2.7,3750],[2.7,3834],[2.7,3914],[2.7,3999],[2.7,4082],[2.7,4167],[2.7,4250],[2.7,4332],[2.5,4417],[2.5,4500],[2.5,4583],[2.5,4665],[2.5,4750],[2.5,4833],[2.5,4918],[2.5,4999],[2.5,5084],[2.5,5167],[2.5,5249],[2.5,5333],[2.5,5415],[2.5,5500],[2.5,5583],[2.5,5664],[2.5,5749],[2.5,5833],[2.5,5917],[2.5,5999],[2.5,6082],[2.5,6167],[2.5,6250],[2.5,6333],[2.5,6415],[2.5,6499],[2.5,6583],[2.5,6665],[2.5,6749],[2.5,6833],[2.5,6919],[2.5,7000],[2.5,7084],[2.5,7165],[2.5,7250],[2.5,7334],[2.5,7417],[2.5,7500],[2.5,7583],[2.5,7665],[2.5,7749],[2.5,7833],[7.7,7917],[25.7,8000],[35.1,8083],[46.3,8165],[47.9,8250],[51,8333],[51,8414],[51,8499],[51,8583],[51,8667],[51.8,8750],[52.1,8832],[52.1,8915],[52.3,8999],[52.3,9084],[52.3,9167],[51.9,9250],[45.4,9333],[30.7,9417],[6.9,9499],[1.4,9584],[1.4,9667],[1.4,9750],[1.4,9832],[1.7,9917],[2.7,9999],[2.7,10083],[2.7,10165],[2.7,10250],[2.5,10333],[2.5,10417],[2.5,10500],[2.4,10583],[2.4,10667],[2.4,10749],[2.4,10833],[2.4,10919],[2.1,11000],[2.1,11084],[2.1,11165],[2.1,11249],[2.1,11333],[2.1,11417],[2.5,11500],[2.6,11583],[2.6,11665],[2.6,11750],[2.6,11833],[2.9,11918],[3,11999],[3,12083],[3,12165],[3,12250],[3,12333],[3,12414],[3,12499],[3,12582],[3,12665],[3,12749],[3.2,12833],[7.5,12928],[8.1,13016],[8.1,13099],[8.1,13182],[6.7,13267],[6.5,13350],[6.5,13432],[6.5,13515],[6.5,13599],[6.5,13682],[6.1,13766],[6.1,13850],[6.1,13933],[6.1,14016],[6.7,14099],[10.1,14183],[11.3,14267],[11.7,14349],[11.7,14432],[11.7,14517],[10.5,14601],[6.4,14683],[2.4,14766],[2.4,14849],[2.4,14932],[2.4,15017],[3,15100],[5.1,15182],[6.5,15265],[7,15349],[7.3,15432],[8.9,15516],[8.9,15599],[12.1,15682],[12.3,15766],[12.3,15849],[11.8,15933],[9.5,16017],[8.3,16100],[6.9,16182],[6.4,16266],[4.8,16350],[4.3,16433],[3.9,16516],[3.6,16600],[3.6,16682],[3.5,16766],[2.7,16849],[2.5,16933],[2.5,17017],[2.5,17100],[2.5,17182],[2.5,17265],[2.6,17350],[2.6,17432],[2.6,17517],[2.6,17599],[2.6,17682],[2.6,17766],[2.6,17850],[2.6,17933],[2.6,18017],[2.6,18099],[2.6,18182],[3,18266],[3,18349],[3,18433],[3,18517],[3,18599],[3,18682],[3,18766],[3,18849],[3,18932],[3,19016],[3,19099],[3,19182],[3.1,19266],[3.1,19349],[3.1,19432],[3.1,19517],[3.1,19600],[3.1,19682],[3.1,19766],[3.1,19850],[3.1,19932],[3.3,20017],[3.6,20100],[3.9,20182],[3.9,20267],[3.9,20350],[3.9,20432],[3.9,20516],[3.9,20599],[3.9,20682],[3.9,20766],[3.9,20849],[3.9,20932],[3.9,21017]]",1,0,1004.43,1009.029,8.571428571,3.16,"[{""rating"":8.57142857142857,""responseTime"":3.160000000000082}]",space,4.044,,1009.029,Definitely yes,100,1009.038,,,[],,0,7,7,7,1,audio/Narrative7Situation7.wav,audio/Narrative8Situation7.wav,audio/Narrative5Situation7.wav,audio/Narrative6Situation7.wav,5,3,4,5,,,,,,,,,,,,,,,,,,,,,,,,,,,,,,,,,,,,,,,
,,,,,,5d453e8723a5bb0001492546,2024-02-08_16h50.25.518,group3.1-3.2-social-tom,2023.2.2,Linux x86_64,62.11180124,65c5074098b851296ff0b7ed,65c5415a88725f80ea4397b0,,,,,,,,,,,,,,,,,,,,,,,,,,,,,1009.038,2,audio/Narrative5Situation8.wav,1012.046,,1012.046,1020.879,"[[8,1248],[6.8,1332],[6.4,1414],[6.4,1498],[6.4,1581],[6.4,1665],[6.4,1748],[3,1832],[2.5,1915],[2.5,2000],[2.5,2082],[2.5,2164],[2.5,2248],[2.5,2332],[2.5,2415],[2.5,2498],[2.5,2582],[2.5,2665],[2.5,2748],[2.5,2831],[2.5,2915],[2.5,2998],[2.5,3081],[2.5,3165],[2.5,3250],[2.5,3332],[2.5,3415],[2.5,3498],[2.5,3581],[2.5,3664],[2.5,3750],[2.5,3832],[2.5,3915],[2.5,4000],[2.5,4081],[2.5,4165],[2.5,4250],[2.5,4331],[2.5,4415],[2.5,4500],[2.5,4582],[2.5,4665],[2.5,4750],[2.5,4832],[2.5,4915],[2.5,4997],[2.5,5081],[2.5,5165],[2.5,5248],[2.5,5333],[2.4,5415],[2.4,5497],[2.4,5581],[2.4,5664],[2.3,5750],[2.3,5832],[2.3,5915],[2.3,5997],[2.3,6082],[2.3,6165],[2.3,6250],[2.3,6332],[2.3,6415],[2.3,6498],[2.3,6582],[2.3,6665],[2.3,6750],[2.3,6831],[2.3,6914],[2.3,6998],[2.3,7082],[2.3,7166],[2.3,7250],[2.3,7331],[2.3,7414],[2.3,7498],[2.3,7582],[2.3,7666],[2.3,7748],[2.3,7832],[2.3,7915],[2.3,7998],[2.3,8082],[2.3,8165],[2.3,8248],[2.3,8332],[2.3,8414],[2.3,8497],[2.3,8582],[2.3,8665],[2.3,8750],[2.3,8832]]",1,0,1020.88,1024.295,2.261904762,2.371,"[{""rating"":2.261904761904759,""responseTime"":2.3710000000000946}]",space,2.868,,1024.295,Definitely yes,100,1036.279,99.52380952,6.681,"[{""rating"":99.52380952380952,""responseTime"":6.680999999999813}]",space,0,8,8,8,1,audio/Narrative7Situation8.wav,audio/Narrative8Situation8.wav,audio/Narrative5Situation8.wav,audio/Narrative6Situation8.wav,2,3,3,5,,,11.451,,,,,,,,,,,,,,,,,,,,,,,,,,,,,,,,,,,,
,,,,,,5d453e8723a5bb0001492546,2024-02-08_16h50.25.518,group3.1-3.2-social-tom,2023.2.2,Linux x86_64,62.11180124,65c5074098b851296ff0b7ed,65c5415a88725f80ea4397b0,,,,,,,,,,,,,,,,,,,,,,,,,,,,,1036.283,2,audio/Narrative5Situation9.wav,1039.3,,1039.301,1078.845,"[[98.3,344],[82.9,429],[49.2,519],[32.1,612],[31.9,694],[24.6,778],[12.7,862],[9.9,943],[9.9,1028],[8.9,1110],[5.6,1194],[5.6,1278],[2.6,1362],[2.6,1443],[2.6,1528],[2.6,1611],[2.1,1697],[2.1,1796],[2.1,1895],[2.1,1978],[2.1,2060],[2.1,2144],[2.1,2228],[2.1,2312],[5.4,2394],[6.9,2478],[6.9,2562],[6.9,2644],[6.9,2728],[7.5,2812],[16.4,2895],[25.8,2977],[25.8,3060],[25.8,3144],[28,3229],[44.5,3312],[47.3,3394],[47.3,3478],[47.3,3560],[47.3,3644],[47.3,3727],[47.6,3810],[46.5,3895],[31,3978],[31,4062],[30.7,4144],[12.4,4228],[12.1,4310],[11.3,4394],[8.3,4478],[7.5,4560],[4.5,4644],[3.9,4728],[3.7,4812],[3.7,4894],[2.7,4977],[2.1,5060],[2.1,5144],[2.1,5228],[2.1,5309],[2.1,5394],[2.1,5478],[2.1,5560],[2.1,5644],[2.1,5727],[2.1,5810],[2.1,5894],[2.1,5978],[2.1,6060],[2.1,6144],[2.1,6227],[2.1,6310],[2.1,6394],[2.1,6478],[2.1,6559],[2.1,6644],[2.1,6727],[2.1,6812],[2.1,6894],[2.1,6978],[2.1,7059],[6,7144],[32.4,7228],[53.2,7312],[59.8,7394],[65.1,7479],[65.2,7559],[59.8,7644],[53.8,7728],[55.1,7810],[60,7894],[60.7,7978],[62.9,8060],[63,8144],[63.6,8228],[63.8,8312],[63.9,8394],[64.2,8477],[64.5,8563],[64.6,8645],[64.8,8728],[64.8,8810],[64.8,8894],[64.8,8979],[64.8,9060],[64.8,9144],[64.8,9229],[64.8,9310],[64.8,9394],[64.8,9479],[64.3,9562],[64.3,9644],[64,9729],[63.9,9812],[63.9,9894],[63.6,9977],[62.7,10062],[61.4,10144],[60.2,10227],[60.2,10310],[59.8,10394],[59.5,10478],[59.4,10562],[59,10644],[59,10727],[59,10809],[59,10894],[59,10979],[59,11059],[58.5,11144],[58.3,11229],[58.3,11310],[58.3,11394],[58.3,11478],[58.3,11560],[58.9,11645],[60,11728],[61.5,11810],[64,11894],[65.1,11977],[65.2,12060],[66.8,12144],[68.1,12228],[71.2,12309],[71.2,12394],[71.2,12477],[69,12562],[66,12644],[61.7,12728],[60,12813],[58.5,12894],[56.4,12979],[52.6,13062],[50.7,13144],[50.7,13227],[50.7,13310],[50.7,13395],[49.4,13477],[48.6,13562],[48.1,13644],[46.2,13727],[44.4,13810],[43.1,13895],[36.8,13977],[36.8,14059],[36.8,14144],[36.8,14228],[35.8,14312],[34.9,14393],[35.7,14478],[36.3,14560],[40.8,14644],[46.8,14728],[48.3,14810],[52,14894],[51.1,14977],[45.5,15060],[37.4,15144],[34.2,15228],[27,15310],[27,15394],[25.5,15478],[24,15562],[21.7,15644],[19.9,15728],[18.8,15809],[16.3,15895],[15.4,15979],[15.4,16060],[15.4,16144],[15.5,16230],[25.6,16310],[34.8,16394],[69.8,16727],[69.9,16809],[69.9,16894],[69.9,16979],[70.8,17062],[71,17144],[71.4,17227],[71.5,17312],[71.5,17394],[72,17478],[73.5,17560],[73.5,17644],[73.7,17727],[73.7,17810],[73.7,17894],[73.7,17978],[73.7,18059],[73.7,18144],[73.7,18228],[73.7,18310],[73.7,18394],[73.7,18480],[73.7,18562],[73.7,18644],[73.7,18728],[73.7,18810],[73.7,18894],[73.7,18978],[73.7,19060],[73.7,19144],[73.2,19228],[73.2,19312],[73.2,19394],[73.2,19478],[73.2,19560],[73.2,19644],[73.2,19727],[73.7,19810],[73.7,19894],[73.5,19978],[72.4,20060],[72.4,20144],[72.5,20394],[74.2,20478],[77.3,20560],[77.3,20644],[77.3,20728],[77.3,20810],[77.3,20893],[77.3,20977],[77.3,21060],[77.3,21144],[77.3,21229],[77.3,21309],[77.3,21394],[77.3,21478],[74.8,21559],[66.9,21644],[57.9,21729],[53.6,21809],[53.6,21894],[51.8,21977],[30,22060],[29.9,22145],[29.9,22227],[29.9,22310],[29.8,22394],[20.7,22478],[20.2,22560],[20.2,22644],[19,22728],[19,22810],[18,22894],[16,22978],[15.1,23060],[14.3,23144],[11.8,23228],[10.5,23310],[8.1,23394],[8.1,23477],[5.6,23562],[5.5,23644],[5.5,23727],[5.5,23810],[4.8,23894],[3.9,23978],[3.9,24062],[3.8,24144],[3.8,24227],[3.7,24310],[3.6,24394],[3.6,24478],[3.7,24562],[4,24644],[5.4,24728],[7,24810],[7.9,24894],[7.9,24978],[7.9,25059],[10.6,25144],[21.7,25228],[27.3,25310],[28,25394],[25.4,25477],[23.3,25560],[23.3,25644],[23.3,25728],[21.2,25812],[16.2,25894],[15.7,25978],[15.4,26077],[14,26162],[12.5,26246],[9.6,26327],[7.9,26411],[7.5,26495],[7.5,26577],[7.1,26660],[6.2,26743],[5.2,26827],[5.1,26911],[5.1,26995],[5.1,27077],[4.5,27160],[4.5,27243],[4.5,27327],[4.5,27412],[4.5,27492],[3.9,27577],[3.9,27660],[3.7,27743],[3.7,27827],[3.7,27911],[4.5,27995],[6.2,28077],[18.6,28160],[44.8,28243],[74.9,28327],[78.3,28412],[78.2,28492],[78.2,28577],[80.2,28661],[83.3,28743],[83.3,28827],[83.7,28911],[83.7,28993],[83.7,29077],[83.9,29161],[85.1,29243],[86.2,29327],[86.2,29411],[86.7,29495],[87.3,29577],[87.3,29662],[87.3,29743],[87.3,29827],[87.3,29911],[88.2,29993],[89.5,30077],[89.6,30161],[89.9,30245],[90,30327],[90,30410],[90,30493],[90,30577],[90,30662],[90,30746],[90.4,30827],[91.7,30911],[92.9,30995],[93.5,31077],[94.5,31161],[94.9,31243],[95.1,31327],[95.1,31411],[95.5,31493],[95.6,31577],[95.6,31661],[95.6,31745],[95.6,31827],[95.6,31910],[95.6,31993],[95.6,32077],[95.6,32162],[95.6,32245],[95.6,32327],[95.6,32411],[95.6,32493],[95.6,32577],[95.6,32661],[97,32743],[97,32827],[97,32911],[97,32993],[97,33077],[97,33161],[97,33245],[97,33328],[97,33412],[97,33493],[97,33577],[97,33661],[97,33745],[97,33828],[97,33911],[97,33993],[97,34077],[97,34161],[97,34245],[97,34327],[97,34411],[97,34493],[97,34577],[97,34661],[97,34743],[96.9,34827],[96.9,34911],[96.9,34995],[96.9,35077],[92.9,35161],[69.9,35245],[60.7,35328],[58.8,35412],[52.9,35493],[51.7,35577],[49.2,35661],[46.5,35745],[46.3,35827],[46.3,35911],[45.5,35993],[39.3,36078],[34.8,36161],[30.5,36993],[31.8,37077],[32.5,37160],[32.5,37243],[32.6,37327],[34.3,37412],[34.4,37493],[34.4,37577],[35.6,37662],[39.8,37745],[38.8,37827],[32.6,37912],[30,37995],[25.2,38077],[24.2,38161],[21.7,38243],[21.3,38327],[18.2,38410],[16.1,38493],[10,38578],[10,38661],[7.3,38743],[6.1,38827],[6,38912],[6,38995],[6,39076],[6,39160],[6,39242],[6,39327],[6,39411],[5.8,39495]]",1,0,1078.846,1086.162,76.19047619,2.378,"[{""rating"":76.19047619047619,""responseTime"":2.3780000000001564}]",space,6.775,,1086.162,Definitely yes,100,1086.172,,,[],,0,9,9,9,1,audio/Narrative7Situation9.wav,audio/Narrative8Situation9.wav,audio/Narrative5Situation9.wav,audio/Narrative6Situation9.wav,2,3,3,4,,,,,,,,,,,,,,,,,,,,,,,,,,,,,,,,,,,,,,,
,,,,,,5d453e8723a5bb0001492546,2024-02-08_16h50.25.518,group3.1-3.2-social-tom,2023.2.2,Linux x86_64,62.11180124,65c5074098b851296ff0b7ed,65c5415a88725f80ea4397b0,,,,,,,,,,,,,,,,,,,,,,,,,,,,,1086.172,2,audio/Narrative6Situation1.wav,1088.178,,1088.179,1114.763,"[[70.7,83],[70.7,167],[70.7,249],[70.5,333],[69.8,415],[68.8,500],[68.2,583],[68.2,666],[55.7,749],[41.8,833],[36.8,917],[9.6,1167],[6.8,1252],[8.1,1334],[8.1,1418],[5,1500],[0.8,1584],[0.8,1665],[0.8,1749],[0.8,1833],[1.2,1916],[1.2,2000],[1.2,2083],[1.4,2166],[1.5,2250],[1.5,2333],[1.5,2416],[1.5,2501],[1.5,2582],[1.7,2667],[1.7,2750],[1.7,2834],[1.7,2917],[1.7,3000],[1.7,3084],[1.7,3165],[1.7,3250],[1.7,3333],[1.7,3416],[1.7,3499],[1.7,3583],[1.7,3666],[1.7,3750],[1.7,3832],[1.7,3915],[1.7,4000],[1.7,4083],[1.7,4166],[1.7,4249],[1.7,4332],[1.7,4415],[1.7,4500],[1.7,4583],[1.7,4666],[1.7,4750],[1.7,4833],[1.7,4916],[1.7,5001],[3.6,5085],[3.7,5166],[30,5249],[64.9,5333],[71.7,5417],[70,5500],[66.5,5583],[63.6,5667],[58.2,5750],[55.6,5834],[54.6,5917],[42.7,6000],[41.7,6083],[43.6,6167],[46.2,6250],[47.1,6334],[47.1,6416],[45.6,6500],[45.1,6584],[50.6,6667],[49.2,6749],[37.4,6833],[23.3,6916],[22.3,7000],[23,7083],[41.1,7168],[52.9,7259],[54.3,7349],[56.4,7432],[57.5,7516],[57.5,7599],[57.5,7682],[57.5,7767],[57.5,7850],[57.5,7932],[59.4,8018],[60.2,8099],[60.7,8184],[61.7,8267],[62.5,8351],[62.6,8432],[62.6,8515],[62.6,8599],[62.6,8682],[62.6,8767],[58.3,8849],[58,8932],[29.4,9016],[7.6,9100],[2.3,9184],[2.3,9267],[2.3,9350],[2.3,9432],[2.3,9516],[2.3,9600],[2.3,9682],[2.3,9766],[2.3,9850],[2.3,9932],[2.3,10016],[2.3,10101],[2.7,10182],[2.7,10266],[2.7,10349],[2.6,10432],[2.4,10516],[2.1,10600],[2,10682],[2,10766],[2,10850],[2,10932],[2,11017],[2,11099],[1.9,11182],[1.9,11267],[1.9,11349],[1.9,11432],[1.9,11516],[1.9,11601],[1.9,11684],[1.9,11765],[1.9,11849],[1.9,11934],[1.9,12017],[1.9,12099],[1.9,12182],[1.9,12266],[1.9,12350],[1.9,12432],[1.9,12516],[1.9,12600],[1.9,12682],[1.9,12766],[1.9,12849],[2,12932],[2,13016],[2,13100],[2,13182],[2,13266],[2,13350],[2,13432],[2,13517],[2,13599],[2,13682],[2,13766],[2,13851],[2,13932],[2.1,14016],[2.1,14099],[2.1,14182],[2.1,14267],[2.1,14351],[2.1,14434],[2.1,14516],[2.1,14600],[2.1,14682],[2.1,14765],[2.1,14850],[2.1,14932],[2.1,15017],[2.1,15100],[2.1,15182],[2.1,15265],[2.1,15349],[2.1,15432],[2.1,15517],[2.1,15600],[2.1,15682],[2.1,15766],[2.1,15849],[2.1,15932],[2.1,16017],[2.1,16099],[2.1,16182],[2.1,16267],[2.1,16350],[2.1,16432],[2.1,16516],[2.1,16600],[2.1,16682],[2.1,16765],[2.1,16849],[2.1,16932],[2.1,17016],[2.1,17101],[2.1,17182],[2.1,17265],[2.1,17350],[2.1,17432],[2.1,17517],[2.1,17601],[2.1,17682],[2.1,17766],[2.1,17850],[2.1,17932],[2.1,18017],[2.1,18100],[2.1,18182],[2.1,18266],[2.1,18350],[2.1,18434],[2.1,18516],[2.1,18599],[2.4,18682],[2.5,18767],[2.5,18851],[2.5,18934],[3.8,19016],[6.3,19099],[6.8,19184],[6.8,19267],[6.8,19351],[6.8,19432],[6.8,19517],[6.8,19600],[6.8,19682],[6.8,19766],[6.5,19850],[5.6,19932],[5.5,20015],[4.9,20099],[4.9,20182],[4.9,20266],[4.9,20350],[4.9,20432],[4.9,20516],[5.2,20600],[5.4,20682],[16,20767],[16.5,20849],[16.5,20932],[18.3,21017],[28.7,21100],[37.9,21182],[39.8,21266],[47.6,21350],[51.9,21434],[52.3,21517],[52.3,21601],[52.3,21682],[52.3,21766],[52.3,21851],[52.4,21932],[52.4,22017],[52.4,22100],[52.4,22182],[52.4,22267],[52.4,22350],[52.5,22432],[52.9,22517],[53,22599],[53,22682],[53.2,22766],[53.2,22849],[53.2,22934],[53.2,23016],[53.2,23099],[53.2,23182],[53.2,23266],[53.2,23349],[53.3,23434],[53.6,23515],[53.9,23599],[53.9,23684],[53.9,23767],[54,23850],[55.1,23932],[58.5,24017],[60.6,24099],[62.4,24184],[65.5,24266],[66.8,24350],[67,24432],[68.1,24516],[69,24600],[69.2,24682],[69.8,24766],[70.4,24850],[71,24932],[71.3,25017],[71.3,25099],[71.3,25182],[71.3,25267],[71.3,25350],[71.3,25432],[71.3,25516],[71.3,25600],[71.3,25682],[71.3,25766],[71.3,25849],[71.3,25932],[71.3,26016],[71.3,26100],[71.3,26182],[71.3,26265],[71.3,26349],[73.8,26432],[76.2,26517]]",1,0,1114.765,1122.365,45.47619048,5.597,"[{""rating"":45.476190476190474,""responseTime"":5.59699999999998}]",space,7.054,,1122.366,Definitely yes,100,1122.377,,,[],,0,10,10,10,1,audio/Narrative8Situation1.wav,audio/Narrative7Situation1.wav,audio/Narrative6Situation1.wav,audio/Narrative5Situation1.wav,5,2,2,5,,,,,,,,,,,,,,,,,,,,,,,,,,,,,,,,,,,,,,,
,,,,,,5d453e8723a5bb0001492546,2024-02-08_16h50.25.518,group3.1-3.2-social-tom,2023.2.2,Linux x86_64,62.11180124,65c5074098b851296ff0b7ed,65c5415a88725f80ea4397b0,,,,,,,,,,,,,,,,,,,,,,,,,,,,,1122.378,2,audio/Narrative6Situation2.wav,1125.388,,1125.388,1153.896,"[[44.9,674],[41.3,758],[35,841],[34.6,924],[34.6,1007],[34.6,1090],[26.3,1174],[14.4,1258],[4.6,1507],[3.1,1591],[1.7,1673],[1.1,1757],[1.1,1840],[1.2,1923],[3.3,2007],[3.3,2092],[3.3,2173],[3.2,2256],[3,2341],[2,2423],[2,2507],[2,2590],[2,2673],[2,2757],[2,2841],[2.4,2923],[2.9,3007],[2.9,3090],[2.9,3173],[2.9,3258],[2.9,3342],[2.9,3423],[2.9,3507],[2.9,3590],[3,3673],[3.9,3757],[4.3,3841],[4.3,3923],[4.3,4007],[4.3,4090],[3.7,4173],[3.2,4258],[3.5,4342],[4.5,4423],[4.5,4507],[4.5,4590],[4.5,4673],[4.5,4758],[4.5,4840],[4.5,4923],[4.9,5008],[5.1,5091],[5.2,5173],[5.2,5257],[5.2,5340],[5.2,5424],[5.2,5507],[5.5,5591],[6.5,5673],[9.8,5757],[10,5841],[10,5923],[11.9,6008],[13.7,6091],[13.7,6173],[13.7,6257],[13.7,6342],[13.7,6423],[13.7,6507],[13.7,6590],[13.7,6673],[13.7,6757],[13.6,6840],[13.6,6923],[13.6,7007],[13.7,7091],[15.6,7173],[16.4,7257],[16.5,7341],[16.8,7423],[18,7508],[18.9,7592],[19.4,7673],[19.4,7756],[20.8,7840],[21.9,7923],[21.9,8007],[21.9,8091],[21.9,8173],[21.9,8256],[21.9,8340],[21.9,8423],[21.9,8508],[21.9,8590],[21.9,8673],[21.9,8758],[23.2,8841],[23.2,8923],[23.2,9007],[23.2,9090],[23.2,9173],[23.2,9258],[23.2,9341],[23.2,9423],[23.2,9508],[23.2,9591],[23.2,9673],[23.2,9758],[23.2,9841],[23.2,9923],[20.8,10007],[20.7,10090],[20,10174],[19.6,10258],[19.6,10340],[19.6,10423],[19.6,10507],[19.6,10591],[19.6,10673],[20.6,10757],[20.6,10840],[21.7,10924],[23.6,11007],[25.6,11091],[27.7,11173],[33,11257],[40.4,11341],[42.1,11423],[43.9,11507],[43.9,11591],[43.9,11673],[43.9,11758],[43.9,11841],[43.9,11923],[41.9,12007],[33.8,12091],[31.1,12173],[25.4,12257],[24.6,12341],[24.6,12423],[24.6,12507],[24.6,12592],[24.6,12673],[24.6,12757],[24.6,12842],[24.6,12923],[24.6,13006],[24.6,13090],[24.5,13173],[24.5,13258],[24.5,13343],[24.5,13423],[24.5,13506],[24.5,13590],[24.5,13673],[24.5,13757],[24.5,13841],[24.5,13923],[24.5,14007],[24.5,14091],[24.5,14174],[24.5,14258],[24.5,14342],[31.2,14423],[47.9,14507],[54.4,14591],[54.4,14673],[54.4,14758],[54.4,14840],[53.9,14923],[53.9,15008],[53.9,15092],[53.9,15173],[53.9,15257],[53.9,15340],[53.9,15423],[54.4,15507],[54.5,15590],[54.5,15673],[54.5,15757],[54.5,15842],[54.5,15923],[54.5,16008],[54.5,16091],[54.5,16173],[54.5,16257],[54.5,16340],[54.5,16424],[55.1,16509],[55.5,16592],[55.5,16673],[55.5,16757],[55.4,16841],[55.2,16924],[51.3,17009],[43.2,17091],[41.5,17175],[41.5,17257],[41.5,17340],[42.6,17424],[47.6,17507],[52.4,17591],[54.9,17673],[56.9,17758],[56.9,17841],[57.4,17923],[59,18007],[60.1,18091],[60.7,18174],[61,18258],[61,18341],[61,18423],[61,18508],[61,18591],[61,18673],[61.3,18757],[61.3,18840],[61.4,18923],[61.4,19007],[61.4,19090],[61.4,19173],[62,19257],[62,19341],[62,19424],[61.9,19508],[61.5,19591],[58.7,19675],[51.5,19758],[45.2,19840],[43.2,19923],[43.2,20006],[43.2,20091],[41.8,20173],[40.1,20258],[38.3,20341],[36.4,20423],[36.4,20508],[36.4,20591],[36.4,20673],[36.4,20757],[36.4,20841],[36.4,20924],[33.6,21007],[32.3,21091],[33.5,21173],[35.6,21258],[36.4,21341],[36.3,21424],[34.9,21507],[32.1,21592],[31.7,21673],[31.7,21757],[32.7,21840],[44.5,21923],[48.5,22007],[49.9,22092],[50,22174],[50,22257],[50,22342],[49.9,22423],[49.9,22507],[49.9,22595],[49.9,22673],[49.8,22757],[48.1,22840],[48,22923],[48,23007],[48,23090],[48,23173],[48,23257],[48,23340],[48,23423],[48.3,23507],[48.6,23591],[49.6,23673],[53.3,23758],[59,23840],[62.4,23924],[67.9,24008],[70.4,24091],[71.2,24173],[71.7,24257],[72,24341],[72.3,24424],[72.5,24507],[73.6,24591],[73.6,24673],[73.6,24757],[73.8,24841],[74.6,24923],[75.2,25007],[75.5,25090],[75.6,25173],[75.7,25258],[75.8,25342],[76.5,25423],[76.7,25507],[76.7,25591],[76.7,25673],[76.8,25758],[76.8,25840],[76.8,25923],[76.8,26008],[76.8,26090],[76.8,26173],[76.8,26257],[76.8,26341],[76.8,26423],[76.8,26507],[76.8,26590],[76.8,26673],[76.8,26757],[76.8,26840],[76.8,26923],[76.9,27007],[76.9,27091],[76.9,27173],[76.9,27256],[76.9,27340],[78.2,27423],[78.2,27507],[78.2,27591],[78.2,27673],[78.2,27756],[78.2,27840],[78.2,27923],[78.2,28009],[78.2,28091],[78.2,28173],[78.2,28257],[78.2,28341],[78.2,28423],[78.2,28508]]",1,0,1153.897,1159.379,85.71428571,3.873,"[{""rating"":85.71428571428572,""responseTime"":3.87299999999982}]",space,4.941,,1159.38,Not at all,0,1159.39,,,[],,0,11,11,11,1,audio/Narrative8Situation2.wav,audio/Narrative7Situation2.wav,audio/Narrative6Situation2.wav,audio/Narrative5Situation2.wav,3,3,3,3,,,,,,,,,,,,,,,,,,,,,,,,,,,,,,,,,,,,,,,
,,,,,,5d453e8723a5bb0001492546,2024-02-08_16h50.25.518,group3.1-3.2-social-tom,2023.2.2,Linux x86_64,62.11180124,65c5074098b851296ff0b7ed,65c5415a88725f80ea4397b0,,,,,,,,,,,,,,,,,,,,,,,,,,,,,1159.391,2,audio/Narrative6Situation3.wav,1164.396,,1164.396,1177.013,"[[82.3,667],[59.4,749],[54.2,833],[7.6,1582],[5.6,1665],[3.3,1749],[3.3,1834],[3.3,1914],[3.3,1998],[3.3,2083],[3.3,2167],[3.3,2250],[3.3,2332],[3.3,2415],[3.3,2499],[3.3,2584],[3.3,2664],[3.3,2750],[3.3,2833],[3.7,2914],[4.2,2999],[4.6,3083],[4.6,3165],[4.6,3249],[4.3,3333],[3.7,3416],[3.3,3500],[3.3,3584],[3.3,3666],[3.3,3750],[3.3,3832],[3.3,3916],[3.3,4000],[3.3,4082],[3.3,4165],[3.3,4250],[3.3,4334],[3.3,4416],[3.3,4499],[3.3,4584],[3.3,4665],[3.3,4750],[3.3,4832],[3.3,4915],[3.3,4999],[3.3,5083],[3.3,5165],[3.3,5249],[3.3,5332],[3.3,5415],[3.3,5499],[3.3,5583],[3.3,5665],[3.3,5750],[3.3,5830],[3.3,5915],[3.3,6000],[3.3,6102],[3.3,6199],[3.3,6282],[3.3,6365],[3.3,6449],[3.3,6532],[3.3,6616],[3.3,6700],[3.3,6782],[3.3,6865],[3.3,6950],[3.3,7031],[3.2,7116],[3.2,7200],[3.2,7282],[3.6,7365],[27.6,7449],[53.1,7532],[60.6,7615],[62.9,7699],[63.6,7782],[63.5,7865],[60.5,7949],[60.4,8032],[60.4,8116],[60.5,8199],[63,8282],[63.3,8365],[63.3,8449],[63.3,8532],[63.3,8615],[63.3,8699],[63.3,8781],[63.3,8865],[63.3,8949],[63.3,9031],[63.3,9115],[63.3,9199],[63.3,9285],[63.3,9365],[63.3,9449],[63.3,9534],[63.3,9616],[63.3,9698],[63.3,9781],[63.3,9865],[68.5,9950],[69,10032],[69.9,10115],[69.9,10198],[69.9,10282],[63.5,10366],[45.4,10449],[41.5,10531],[42.4,10615],[44.2,10699],[44.2,10782],[46.7,10865],[48.9,10949],[54.2,11032],[54.4,11115],[54.4,11199],[54.4,11282],[51.4,11365],[51.3,11449],[51.1,11531],[48.8,11615],[48.6,11698],[48.6,11781],[48.6,11865],[48.7,11949],[48.7,12032],[48.7,12115],[48.7,12199],[48.7,12281],[48.7,12365],[49.8,12449],[50,12532],[50,12615]]",1,0,1177.013,1184.779,57.61904762,5.842,"[{""rating"":57.61904761904761,""responseTime"":5.842000000000098}]",space,7.219,,1184.779,Partially,50,1184.792,,,[],,0,12,12,12,1,audio/Narrative8Situation3.wav,audio/Narrative7Situation3.wav,audio/Narrative6Situation3.wav,audio/Narrative5Situation3.wav,4,8,5,3,,,,,,,,,,,,,,,,,,,,,,,,,,,,,,,,,,,,,,,
,,,,,,5d453e8723a5bb0001492546,2024-02-08_16h50.25.518,group3.1-3.2-social-tom,2023.2.2,Linux x86_64,62.11180124,65c5074098b851296ff0b7ed,65c5415a88725f80ea4397b0,,,,,,,,,,,,,,,,,,,,,,,,,,,,,1184.792,2,audio/Narrative6Situation4.wav,1186.794,,1186.794,1199.396,"[[51.3,1500],[44.9,1585],[44.8,1668],[44.6,1750],[44.6,1834],[44.6,1919],[44.6,2002],[44.6,2084],[44.6,2167],[44.6,2250],[34.5,2335],[29.9,2418],[29.6,2502],[29.6,2584],[8,2668],[1.5,2752],[1.2,2834],[1,2919],[0.2,3002],[0.2,3085],[0.2,3169],[0.2,3252],[0.2,3335],[0.2,3418],[0.2,3500],[0.2,3585],[0.2,3668],[0.2,3750],[0.1,3834],[0.1,3918],[0.1,4000],[0.1,4084],[0.1,4168],[0.1,4250],[0.1,4334],[0.1,4418],[0.1,4502],[0.1,4584],[0.1,4667],[0.1,4750],[0.1,4835],[0.1,4918],[0.1,5002],[0.1,5084],[0.1,5167],[0.1,5250],[0.1,5334],[0.1,5417],[0.1,5502],[0.1,5585],[0.1,5668],[0.1,5750],[0.1,5834],[0.1,5918],[0.1,6000],[0.1,6085],[0.1,6168],[0.1,6250],[0.1,6335],[0.1,6418],[0.1,6500],[0.1,6585],[0.1,6668],[0.1,6750],[0.1,6834],[0.1,6919],[0.1,7002],[0.1,7085],[0.1,7169],[0.1,7250],[0.1,7334],[0.1,7418],[0.1,7500],[0.1,7585],[0.1,7668],[0.1,7750],[0.1,7834],[0.1,7918],[0.1,8000],[0.1,8084],[0.1,8168],[0.1,8252],[0.1,8334],[0.1,8419],[0.1,8503],[0.1,8585],[0.1,8667],[0.1,8750],[0.1,8835],[0.1,8918],[0.1,9000],[0.1,9084],[0.1,9167],[0.1,9250],[0.1,9334],[0.1,9418],[0.1,9502],[0.1,9585],[0.1,9667],[0.1,9750],[0.1,9834],[0.1,9918],[0.1,10002],[0.1,10085],[0.1,10167],[0.1,10250],[0.1,10334],[0.1,10419],[0.1,10503],[0.1,10584],[0.1,10668],[0.1,10752],[0.1,10835],[0.1,10919],[0.1,11000],[0.1,11084],[0.1,11168],[0.1,11252],[0.1,11335],[0.1,11418],[0.1,11502],[0.1,11585],[0.1,11668],[0.1,11750],[0.1,11834],[0.1,11918],[0.1,12000],[0.1,12084],[0.1,12168],[0.1,12252],[0.1,12335],[0.1,12419],[0.1,12500],[0.1,12584]]",1,0,1199.396,1209.363,8.095238095,9.297,"[{""rating"":2.1428571428571406,""responseTime"":4.115000000000009},{""rating"":8.095238095238095,""responseTime"":9.297000000000025}]",space,9.42,,1209.363,Partially,50,1209.371,,,[],,0,13,13,13,1,audio/Narrative8Situation4.wav,audio/Narrative7Situation4.wav,audio/Narrative6Situation4.wav,audio/Narrative5Situation4.wav,3,3,2,1,,,,,,,,,,,,,,,,,,,,,,,,,,,,,,,,,,,,,,,
,,,,,,5d453e8723a5bb0001492546,2024-02-08_16h50.25.518,group3.1-3.2-social-tom,2023.2.2,Linux x86_64,62.11180124,65c5074098b851296ff0b7ed,65c5415a88725f80ea4397b0,,,,,,,,,,,,,,,,,,,,,,,,,,,,,1209.372,2,audio/Narrative6Situation5.wav,1211.379,,1211.379,1219.347,"[[8.5,750],[10.4,832],[10.4,915],[10.4,1000],[9,1083],[6.4,1167],[5.7,1250],[5.2,1333],[6.3,1415],[8.6,1498],[8.6,1582],[8.5,1665],[8.5,1750],[7.7,1834],[6.2,1919],[6.2,2000],[6.2,2083],[6.2,2165],[6.2,2249],[6.2,2334],[6.2,2415],[6.2,2499],[6.2,2583],[6.2,2665],[6.2,2749],[6.2,2833],[6.2,2915],[6.2,3000],[6.2,3083],[6.2,3165],[6.2,3249],[6.4,3333],[17.5,3415],[25.4,3500],[30.7,3584],[30.7,3665],[30.7,3749],[30.6,3832],[30.6,3915],[30.6,4000],[30.6,4084],[30.6,4164],[30.6,4250],[30.6,4333],[30.6,4415],[30.6,4498],[30.6,4583],[30.6,4667],[30.6,4750],[30.6,4833],[30.6,4917],[30.6,4999],[30.6,5083],[30.6,5165],[30.6,5250],[30.6,5333],[30.6,5415],[30.6,5499],[30.6,5583],[30.6,5664],[30.6,5749],[30.6,5833],[30.6,5915],[30.6,6000],[30.6,6082],[30.6,6165],[30.6,6250],[30.6,6332],[30.6,6417],[30.6,6500],[30.6,6582],[30.6,6667],[29.6,6750],[28.7,6833],[28.5,6915],[28.5,7000],[28.5,7083],[28.5,7167],[28.5,7249],[28.5,7333],[28.5,7417],[28.5,7500],[28.5,7582],[28.5,7665],[28.5,7749],[28.5,7834],[28.5,7917]]",1,0,1219.348,1225.628,21.30952381,3.708,"[{""rating"":21.30952380952381,""responseTime"":3.7080000000000837}]",space,5.734,,1225.628,Definitely yes,100,1225.64,,,[],,0,14,14,14,1,audio/Narrative8Situation5.wav,audio/Narrative7Situation5.wav,audio/Narrative6Situation5.wav,audio/Narrative5Situation5.wav,2,5,2,5,,,,,,,,,,,,,,,,,,,,,,,,,,,,,,,,,,,,,,,
