exp_question,consent.started,consent.stopped,consentResponse.keys,consentResponse.rt,consentResponse.duration,participantID,date,expName,psychopyVersion,OS,frameRate,STUDY_ID,SESSION_ID,opening1.started,opening1.stopped,keyEndingOpening1.keys,keyEndingOpening1.rt,keyEndingOpening1.duration,volumeAdjust.started,volumeAdjust.stopped,endingAdjust.keys,endingAdjust.rt,endingAdjust.duration,opening2.started,opening2.stopped,keyEndingOpening.keys,keyEndingOpening.rt,keyEndingOpening.duration,mouse.x,mouse.y,mouse.leftButton,mouse.midButton,mouse.rightButton,mouse.time,instructionLoop.thisRepN,instructionLoop.thisTrialN,instructionLoop.thisN,instructionLoop.thisIndex,instructionLoop.ran,readyForAudio.started,readyForAudio.stopped,fixation.started,run,audio_played,fixation.stopped,endPractice.keys,audioPre.started,audioPre.stopped,continuousResponses_audio,continuousSlider.response,continuousSlider.rt,intRating.started,intRating.stopped,intQuestionSlider.response,intQuestionSlider.rt,intQuestionSlider.history,confirmResponse.keys,confirmResponse.rt,confirmResponse.duration,catchQuestion.started,catch_label,catch_value,catchQuestion.stopped,catchQuestionSlider.response,catchQuestionSlider.rt,catchQuestionSlider.history,confirmResponse_2.keys,audioRunLoop.thisRepN,audioRunLoop.thisTrialN,audioRunLoop.thisN,audioRunLoop.thisIndex,audioRunLoop.ran,conditions1_1,conditions2_1,conditions1_2,conditions2_2,dur1_1,dur2_1,dur1_2,dur2_2,endPractice.rt,endPractice.duration,confirmResponse_2.rt,confirmResponse_2.duration,runIntervalBreak.started,runIntervalBreak.stopped,endingBreakKey.keys,endingBreakKey.rt,endingBreakKey.duration,connection.started,connection.stopped,connectionEnding.keys,connectionEnding.rt,connectionEnding.duration,readyForText.started,readyForText.stopped,textPre.started,run_dup,textPre.stopped,continuousResponses_text,textRunLoop.thisRepN,textRunLoop.thisTrialN,textRunLoop.thisN,textRunLoop.thisIndex,textRunLoop.ran,text1_1,text1_2,text2_1,text2_2,runBreakText.started,runBreakText.stopped,endingBreakKey_2.keys,ending.started,ending.stopped,endingEnding.keys,endingEnding.rt,endingEnding.duration
tom,0.0001,2.8463,y,2.5247,,5d74001d391b6600175f433b,2024-02-08_13h30.49.074,group3.1-3.2-social-tom,2023.2.2,MacIntel,59.88023952,65c5074098b851296ff0b7ed,65c547f5200212ad4b520164,,,,,,,,,,,,,,,,,,,,,,,,,,,,,,,,,,,,,,,,,,,,,,,,,,,,,,,,,,,,,,,,,,,,,,,,,,,,,,,,,,,,,,,,,,,,,,,,,,,,,,,,
,,,,,,5d74001d391b6600175f433b,2024-02-08_13h30.49.074,group3.1-3.2-social-tom,2023.2.2,MacIntel,59.88023952,65c5074098b851296ff0b7ed,65c547f5200212ad4b520164,2.8465,10.2298,space,7.3678,,,,,,,,,,,,,,,,,,,,,,,,,,,,,,,,,,,,,,,,,,,,,,,,,,,,,,,,,,,,,,,,,,,,,,,,,,,,,,,,,,,,,,,,,,,,,,,,,,,,
,,,,,,5d74001d391b6600175f433b,2024-02-08_13h30.49.074,group3.1-3.2-social-tom,2023.2.2,MacIntel,59.88023952,65c5074098b851296ff0b7ed,65c547f5200212ad4b520164,,,,,,10.23,15.9296,space,5.3782,,,,,,,,,,,,,,,,,,,,,,,,,,,,,,,,,,,,,,,,,,,,,,,,,,,,,,,,,,,,,,,,,,,,,,,,,,,,,,,,,,,,,,,,,,,,,,,
,,,,,,5d74001d391b6600175f433b,2024-02-08_13h30.49.074,group3.1-3.2-social-tom,2023.2.2,MacIntel,59.88023952,65c5074098b851296ff0b7ed,65c547f5200212ad4b520164,,,,,,,,,,,15.9341,22.4465,space,6.4921,,[],[],[],[],[],[],0,0,0,0,1,,,,,,,,,,,,,,,,,,,,,,,,,,,,,,,,,,,,,,,,,,,,,,,,,,,,,,,,,,,,,,,,,,,,,,,,,,,,,,
,,,,,,5d74001d391b6600175f433b,2024-02-08_13h30.49.074,group3.1-3.2-social-tom,2023.2.2,MacIntel,59.88023952,65c5074098b851296ff0b7ed,65c547f5200212ad4b520164,,,,,,,,,,,22.447,33.7459,space,11.2499,,[],[],[],[],[],[],1,0,1,0,1,,,,,,,,,,,,,,,,,,,,,,,,,,,,,,,,,,,,,,,,,,,,,,,,,,,,,,,,,,,,,,,,,,,,,,,,,,,,,,
,,,,,,5d74001d391b6600175f433b,2024-02-08_13h30.49.074,group3.1-3.2-social-tom,2023.2.2,MacIntel,59.88023952,65c5074098b851296ff0b7ed,65c547f5200212ad4b520164,,,,,,,,,,,33.7462,44.529,space,10.7653,,[],[],[],[],[],[],2,0,2,0,1,,,,,,,,,,,,,,,,,,,,,,,,,,,,,,,,,,,,,,,,,,,,,,,,,,,,,,,,,,,,,,,,,,,,,,,,,,,,,,
,,,,,,5d74001d391b6600175f433b,2024-02-08_13h30.49.074,group3.1-3.2-social-tom,2023.2.2,MacIntel,59.88023952,65c5074098b851296ff0b7ed,65c547f5200212ad4b520164,,,,,,,,,,,44.5293,57.2955,space,12.754,,[],[],[],[],[],[],3,0,3,0,1,,,,,,,,,,,,,,,,,,,,,,,,,,,,,,,,,,,,,,,,,,,,,,,,,,,,,,,,,,,,,,,,,,,,,,,,,,,,,,
,,,,,,5d74001d391b6600175f433b,2024-02-08_13h30.49.074,group3.1-3.2-social-tom,2023.2.2,MacIntel,59.88023952,65c5074098b851296ff0b7ed,65c547f5200212ad4b520164,,,,,,,,,,,57.3028,71.0454,space,13.7266,,[],[],[],[],[],[],4,0,4,0,1,,,,,,,,,,,,,,,,,,,,,,,,,,,,,,,,,,,,,,,,,,,,,,,,,,,,,,,,,,,,,,,,,,,,,,,,,,,,,,
,,,,,,5d74001d391b6600175f433b,2024-02-08_13h30.49.074,group3.1-3.2-social-tom,2023.2.2,MacIntel,59.88023952,65c5074098b851296ff0b7ed,65c547f5200212ad4b520164,,,,,,,,,,,,,,,,,,,,,,,,,,,71.0535,73.6282,73.641,1,audio/Narrative13Situation2.wav,75.6446,,75.6449,105.3783,"[[999,2],[999,83],[999,166],[999,250],[999,333],[999,416],[999,499],[999,583],[999,666],[999,749],[999,833],[999,916],[999,1000],[999,1083],[999,1166],[999,1250],[999,1333],[999,1417],[999,1500],[999,1583],[999,1667],[21.5,1750],[1.4,2167],[1.1,2250],[1.6,2333],[2.9,2416],[2.8,2500],[2.1,2583],[1.4,2667],[1.3,2750],[1.2,2833],[1.2,2916],[1.2,2999],[1.2,3083],[1.2,3166],[1.2,3249],[1.2,3333],[1.2,3416],[1.2,3500],[1.2,3583],[1.2,3666],[1.2,3750],[1.2,3833],[1.2,3916],[1.2,3999],[1.2,4082],[1.3,4166],[1.3,4250],[1.3,4333],[1.3,4416],[1.3,4500],[1.3,4583],[1.3,4666],[1.3,4750],[1.3,4833],[1.3,4916],[1.3,5000],[1.3,5083],[1.3,5166],[1.3,5250],[1.3,5333],[1.3,5417],[1.3,5500],[1.3,5583],[1.3,5666],[1.3,5749],[1.3,5833],[1.3,5916],[1.3,6000],[1.3,6083],[1.3,6165],[1.3,6250],[1.3,6333],[1.3,6417],[1.5,6499],[3.5,6583],[6.3,6666],[8,6750],[9.8,6833],[13.4,6917],[22.5,7000],[29.8,7083],[32.7,7166],[33.6,7250],[35.9,7333],[37.4,7417],[37.5,7500],[37.5,7582],[37.5,7666],[37.5,7750],[37.5,7833],[37.5,7916],[37.5,8000],[37.5,8083],[37.5,8166],[37.5,8250],[37.5,8333],[37.5,8416],[37.5,8500],[37.5,8583],[37.5,8666],[37.5,8750],[37.5,8833],[37.5,8916],[37.5,9000],[37.5,9082],[37.5,9166],[37.5,9250],[37.5,9333],[37.5,9416],[37.5,9500],[37.5,9582],[37.5,9666],[37.5,9750],[37.5,9833],[37.5,9916],[37.5,10000],[37.5,10083],[37.5,10166],[37.5,10250],[37.5,10333],[37.5,10416],[37.5,10500],[37.5,10583],[37.5,10666],[37.5,10750],[37.5,10833],[37.5,10916],[37.3,11000],[29.3,11083],[18,11167],[13,11250],[12.4,11333],[12.4,11416],[12.4,11500],[12.4,11583],[12.4,11665],[9.6,11750],[7.1,11833],[7,11916],[7,12000],[7,12083],[7,12166],[7,12249],[7,12333],[7,12416],[7,12500],[7,12583],[7,12666],[7,12750],[7,12833],[6.7,12917],[5.2,13000],[4.2,13083],[3.7,13166],[3.1,13250],[2.7,13332],[2.7,13416],[2.7,13500],[2.7,13583],[2.7,13666],[2.7,13750],[2.7,13833],[2.7,13915],[2.7,14000],[2.7,14082],[2.7,14166],[2.7,14250],[2.7,14333],[2.6,14416],[1.7,20916],[2,21000],[0.7,21083]]",1,0,105.3787,111.0457,1.075845593,4.4953,"[{""rating"":1.0758455930772515,""responseTime"":4.4952999999998156}]",space,5.1206,,111.0461,Half the time,50,111.0494,,,[],,0,0,0,0,1,audio/Narrative13Situation2.wav,audio/Narrative13Situation2.wav,audio/Narrative13Situation2.wav,audio/Narrative13Situation2.wav,2,2,2,2,,,,,,,,,,,,,,,,,,,,,,,,,,,,,,,,,,,,,
,,,,,,5d74001d391b6600175f433b,2024-02-08_13h30.49.074,group3.1-3.2-social-tom,2023.2.2,MacIntel,59.88023952,65c5074098b851296ff0b7ed,65c547f5200212ad4b520164,,,,,,,,,,,,,,,,,,,,,,,,,,,,,111.0496,1,audio/Narrative8Situation1.wav,112.5617,space,112.5618,128.4947,"[[1.2,1166],[1.3,1249],[1.2,1333],[0.7,1416],[0.7,1499],[0.7,1582],[0.7,1666],[0.7,1749],[0.7,1832],[0.7,1916],[0.7,1999],[0.7,2082],[0.7,2166],[0.7,2249],[0.7,2332],[0.7,2416],[0.7,2499],[0.7,2582],[0.7,2665],[0.7,2749],[0.7,2832],[0.7,2916],[0.7,2999],[0.7,3082],[0.7,3165],[0.7,3249],[0.7,3332],[0.7,3416],[0.7,3499],[0.7,3582],[0.7,3666],[0.7,3749],[0.7,3832],[0.7,3916],[0.7,3999],[0.7,4082],[0.7,4166],[0.7,4249],[0.7,4332],[0.7,4416],[0.7,4499],[0.7,4582],[0.7,4665],[0.7,4749],[0.7,4832],[0.7,4916],[0.7,4999],[0.7,5082],[0.7,5166],[0.7,5249],[0.7,5333],[0.7,5416],[0.7,5499],[0.7,5581],[0.7,5666],[0.7,5749],[0.7,5832],[0.7,5916],[0.7,5999],[0.7,6082],[0.7,6166],[0.7,6249],[0.7,6332],[0.7,6415],[0.7,6499],[0.7,6582],[0.7,6666],[0.7,6749],[0.7,6832],[0.7,6915],[0.7,6998],[0.7,7082],[0.7,7166],[0.7,7249],[0.7,7332],[0.7,7416],[0.7,7499],[0.7,7582],[0.7,7665],[0.7,7749],[0.7,7832],[0.7,7916],[0.7,7999],[0.7,8082],[0.7,8166],[0.7,8249],[0.7,8332],[0.7,8416],[0.7,8499],[0.7,8582],[0.7,8666],[0.7,8749],[0.7,8832],[0.7,8916],[0.7,8999],[0.7,9082],[0.7,9166],[0.7,9249],[0.7,9332],[0.7,9416],[0.7,9499],[0.7,9582],[0.7,9666],[0.7,9749],[0.7,9832],[0.7,9916],[0.7,9999],[0.7,10082],[0.7,10165],[0.7,10249],[0.7,10332],[0.7,10416],[0.7,10499],[0.7,10582],[0.7,10666],[0.7,10749],[1.2,10832],[2.5,10916],[3.3,10999],[3.9,11083],[5.4,11166],[6.5,11249],[7.4,11332],[7.8,11416],[8,11498],[8,11581],[8,11666],[7.8,11749],[7.8,11832],[7.8,11915],[7.8,11999],[7.8,12082],[7.8,12166],[7.8,12249],[7.8,12332],[7.8,12416],[7.8,12499],[7.8,12582],[7.8,12665],[7.8,12749],[7.8,12832],[7.8,12915],[7.8,12999],[7.8,13082],[7.8,13165],[7.8,13249],[7.8,13331],[7.8,13416],[7.8,13499],[7.8,13582],[7.8,13665],[7.8,13749],[7.8,13832],[7.8,13916],[7.8,13999],[7.8,14082],[7.8,14165],[7.8,14248],[7.8,14332],[7.8,14416],[7.8,14499],[7.9,14583],[8.4,14666],[9.4,14748],[10.9,14832],[13.9,14916],[20.3,14999],[32.8,15082],[42.3,15166],[47.3,15249],[52.9,15332],[59.5,15416],[62.3,15499],[62.9,15582],[65,15665],[65.3,15748],[65.3,15832],[65.3,15916]]",1,0,128.4951,132.2779,36.13443882,3.3455,"[{""rating"":36.134438820663505,""responseTime"":3.3455000000000155}]",space,3.245,,132.278,All the time,100,141.2444,99.44986756,5.7945,"[{""rating"":99.4498675646901,""responseTime"":5.794499999999999}]",space,0,1,1,1,1,audio/Narrative7Situation1.wav,audio/Narrative8Situation1.wav,audio/Narrative5Situation1.wav,audio/Narrative6Situation1.wav,2,5,5,2,1.4928,,8.4183,,,,,,,,,,,,,,,,,,,,,,,,,,,,,,,,,,
,,,,,,5d74001d391b6600175f433b,2024-02-08_13h30.49.074,group3.1-3.2-social-tom,2023.2.2,MacIntel,59.88023952,65c5074098b851296ff0b7ed,65c547f5200212ad4b520164,,,,,,,,,,,,,,,,,,,,,,,,,,,,,141.2449,1,audio/Narrative8Situation2.wav,144.2611,,144.2611,154.3778,"[[999,8],[999,83],[999,166],[999,249],[999,333],[999,416],[999,499],[999,583],[999,665],[999,749],[999,832],[999,916],[999,999],[999,1083],[999,1166],[999,1250],[13.4,1333],[11.4,1416],[7.5,1500],[3.8,1583],[1.5,1666],[0.3,1749],[0.2,1833],[0.2,1916],[0.2,1999],[0.2,2083],[0.2,2165],[0.2,2249],[0.2,2333],[0.2,2416],[0.2,2499],[0.2,2583],[0.2,2666],[0.2,2749],[0.2,2833],[0.2,2916],[0.2,2999],[0.2,3083],[0.2,3166],[0.2,3249],[0.2,3333],[0.2,3416],[0.2,3499],[0.2,3582],[0.2,3666],[0.2,3749],[0.2,3832],[0.2,3916],[0.2,3999],[0.2,4083],[0.2,4166],[0.2,4249],[0.2,4333],[0.2,4416],[0.2,4499],[0.2,4583],[0.2,4666],[0.2,4749],[0.2,4833],[0.2,4916],[0.2,4999],[0.3,5083],[0.4,5166],[0.7,5250],[1,5333],[1.2,5416],[1.3,5500],[1.5,5583],[1.9,5666],[2.6,5750],[4,5833],[6.1,5915],[9,5999],[12.4,6083],[15.9,6166],[17.3,6250],[17.6,6333],[19.6,6416],[21.5,6500],[21.8,6583],[21.8,6666],[21.8,6749],[21.8,6832],[21.8,6916],[21.8,6999],[21.8,7083],[21.8,7166],[21.8,7249],[21.8,7333],[21.8,7416],[21.8,7499],[21.8,7583],[21.8,7666],[21.8,7749],[21.8,7833],[21.8,7916],[21.8,7999],[21.8,8082],[21.8,8166],[21.8,8249],[21.8,8333],[21.8,8416],[22.2,8500],[27,8583],[39.4,8666],[43.3,8750],[43.3,8833],[43.3,8916],[43.3,8999],[43.3,9083],[43.3,9166],[44.7,9250],[47.2,9333],[47.7,9417],[47.7,9499],[47.7,9583],[47.7,9665],[47.7,9748],[47.7,9833],[47.7,9916],[47.7,9999],[47.7,10083]]",1,0,154.378,157.5609,36.4263225,2.412,"[{""rating"":36.42632249686966,""responseTime"":2.412000000000006}]",space,2.6346,,157.5611,Not at all,0,157.5642,,,[],,0,2,2,2,1,audio/Narrative7Situation2.wav,audio/Narrative8Situation2.wav,audio/Narrative5Situation2.wav,audio/Narrative6Situation2.wav,3,3,3,3,,,,,,,,,,,,,,,,,,,,,,,,,,,,,,,,,,,,,
,,,,,,5d74001d391b6600175f433b,2024-02-08_13h30.49.074,group3.1-3.2-social-tom,2023.2.2,MacIntel,59.88023952,65c5074098b851296ff0b7ed,65c547f5200212ad4b520164,,,,,,,,,,,,,,,,,,,,,,,,,,,,,157.5645,1,audio/Narrative8Situation3.wav,161.5777,,161.5777,183.9603,"[[35.4,83],[35.4,166],[35.4,249],[35.4,332],[35.4,416],[35.4,499],[35.4,582],[35.4,666],[34.9,749],[20.8,833],[9,916],[7.3,999],[6.2,1083],[4.7,1166],[4.3,1249],[3.9,1333],[3.8,1416],[3.8,1499],[3.8,1582],[3.8,1666],[3.8,1749],[3.8,1832],[3.8,1916],[3.8,1999],[3.8,2082],[3.8,2166],[3.8,2249],[3.8,2332],[3.8,2416],[3.8,2499],[3.8,2582],[3.8,2665],[3.8,2749],[3.8,2833],[3.8,2916],[3.8,2999],[3.8,3082],[3.8,3166],[3.8,3249],[3.8,3333],[3.8,3415],[3.8,3499],[3.8,3582],[3.8,3666],[3.8,3749],[3.8,3832],[3.8,3916],[3.8,3999],[3.8,4083],[3.8,4166],[2.6,4249],[2,4333],[1.9,4416],[1.8,4499],[1.8,4582],[1.8,4666],[1.8,4749],[1.8,4832],[1.8,4916],[1.8,4999],[1.8,5082],[1.8,5166],[1.8,5249],[1.8,5332],[1.8,5416],[1.8,5499],[1.8,5582],[1.8,5666],[1.8,5749],[1.9,5832],[2.6,5916],[4.1,5999],[6.8,6083],[9.1,6166],[11.2,6249],[14.5,6332],[20.4,6416],[26.1,6499],[29.3,6583],[29.8,6666],[29.8,6748],[29.8,6832],[29.8,6916],[29.8,6999],[29.8,7082],[29.8,7166],[29.8,7248],[29.8,7332],[29.8,7416],[29.8,7499],[29.8,7582],[29.8,7666],[30.4,7749],[30.7,7832],[30.9,7916],[31,7999],[31.1,8082],[31.4,8166],[33.2,8249],[34.5,8333],[34.6,8416],[34.7,8499],[34.8,8583],[35.2,8666],[35.7,8749],[35.7,8832],[35.7,8916],[35.7,8999],[36.4,9083],[37.3,9166],[37.5,9248],[37.5,9332],[37.5,9416],[37.5,9498],[37.5,9582],[37.5,9666],[37.5,9749],[37.5,9832],[37.5,9916],[37.5,9999],[37.5,10082],[37.5,10166],[37.5,10249],[37.5,10332],[37.5,10416],[37.5,10499],[37.5,10582],[37.5,10665],[37.5,10749],[37.5,10832],[37.5,10915],[37.5,10999],[37.5,11082],[37.5,11166],[37.5,11249],[37.5,11332],[37.5,11416],[37.5,11499],[37.5,11582],[37.5,11666],[37.5,11749],[37.5,11832],[37.5,11916],[37.5,11999],[37.5,12082],[37.5,12166],[37.5,12249],[37.5,12332],[37.5,12416],[37.5,12498],[37.5,12582],[37.5,12666],[37.5,12749],[37.5,12832],[36.2,12916],[34.5,12999],[33.5,13083],[31.7,13166],[28.3,13249],[26,13333],[25.8,13416],[25.8,13499],[25.8,13582],[25.8,13665],[25.8,13748],[25.8,13832],[25.8,13916],[25.8,13999],[25.8,14082],[25.8,14166],[25.8,14249],[25.2,14332],[23,14416],[21.5,14499],[21,14583],[20,14666],[17.5,14749],[15.8,14833],[15.1,14915],[15.1,14999],[15.1,15082],[15.1,15166],[15.1,15249],[15.1,15332],[15.1,15416],[15.1,15499],[15.1,15582],[15.1,15666],[15.1,15749],[15.1,15832],[15.1,15916],[15.1,15999],[15.1,16082],[15.1,16165],[14.9,16249],[14.8,16332],[14.7,16416],[14.4,16499],[14.1,16583],[14,16666],[13.8,16749],[13.5,16833],[13.2,16916],[13,16999],[12.9,17082],[12.9,17165],[12.9,17249],[12.9,17332],[12.9,17416],[12.9,17499],[12.9,17582],[12.9,17665],[12.9,17749],[12.9,17832],[12.9,17916],[12.9,17999],[12.9,18082],[12.9,18166],[12.9,18249],[12.9,18332],[12.9,18415],[12.9,18498],[12.9,18582],[12.9,18666],[12.9,18749],[12.9,18832],[12.9,18916],[12.9,18999],[12.9,19082],[12.9,19166],[12.9,19248],[12.9,19333],[12.9,19415],[12.9,19500],[12.9,19582],[12.9,19666],[12.9,19749],[12.9,19832],[12.7,19916],[12.4,19999],[11.9,20083],[11.6,20166],[11.1,20249],[10.6,20333],[10.3,20416],[10.1,20499],[10.1,20582],[10.1,20665],[10.1,20749],[10.1,20832],[10.1,20916],[10.1,20999],[10.1,21082],[10.1,21166],[10.1,21249],[10.1,21332],[10.1,21415],[10.1,21499],[10.1,21582],[10.1,21666],[10.1,21749],[10.1,21831],[10.1,21916],[10.1,21999],[10.1,22082],[10.1,22165],[10.1,22249],[10.1,22332]]",1,0,183.9605,186.593,12.62803726,1.8789,"[{""rating"":12.628037261213965,""responseTime"":1.878899999999902}]",space,2.0957,,186.5932,Not at all,0,186.5956,,,[],,0,3,3,3,1,audio/Narrative7Situation3.wav,audio/Narrative8Situation3.wav,audio/Narrative5Situation3.wav,audio/Narrative6Situation3.wav,8,4,3,5,,,,,,,,,,,,,,,,,,,,,,,,,,,,,,,,,,,,,
,,,,,,5d74001d391b6600175f433b,2024-02-08_13h30.49.074,group3.1-3.2-social-tom,2023.2.2,MacIntel,59.88023952,65c5074098b851296ff0b7ed,65c547f5200212ad4b520164,,,,,,,,,,,,,,,,,,,,,,,,,,,,,186.5959,1,audio/Narrative8Situation4.wav,189.6104,,189.6104,203.7772,"[[11,667],[7.9,750],[2.4,832],[1.1,917],[1.1,1000],[1.1,1083],[1.1,1166],[1.1,1250],[1.1,1332],[1.1,1416],[1.1,1500],[1.1,1582],[1.1,1666],[1.1,1750],[1.1,1833],[1.1,1915],[1.1,1999],[1.1,2083],[1.1,2166],[1.1,2250],[1.1,2333],[1.1,2416],[1.1,2498],[1.1,2583],[1.1,2666],[1.1,2750],[1.1,2833],[1.1,2916],[1.1,3000],[1.1,3083],[1.1,3166],[1.1,3250],[1.1,3333],[1.1,3416],[1.1,3499],[1.1,3583],[1.1,3666],[1.1,3750],[1.1,3832],[1.1,3916],[1.1,3999],[1.1,4083],[1.1,4166],[1.1,4250],[1.1,4333],[1.1,4416],[1.1,4500],[1.1,4583],[1.1,4666],[1.1,4750],[1.1,4832],[1.1,4916],[1.1,5000],[1.1,5083],[1.1,5166],[1.1,5250],[1.1,5333],[1.1,5416],[1.1,5499],[1.1,5583],[1.1,5666],[1.1,5750],[1.1,5833],[1.1,5915],[1.1,6000],[1.1,6083],[1.1,6166],[1.1,6250],[1.1,6333],[1.1,6416],[1.1,6500],[1.1,6582],[1.1,6665],[1.1,6749],[1.1,6833],[1.1,6916],[1.1,6999],[1.1,7083],[1.1,7166],[1.1,7249],[1.1,7333],[1.1,7416],[1.1,7499],[1.1,7583],[1.1,7666],[1.1,7749],[1.1,7833],[1.1,7916],[1.1,7999],[1.1,8083],[1.1,8166],[1.1,8250],[1.1,8333],[1.1,8416],[1.1,8499],[1.1,8583],[1.1,8666],[1.1,8749],[1.1,8833],[1.1,8916],[1.1,8999],[1.1,9083],[1.1,9166],[1.1,9249],[1.1,9333],[1.1,9416],[1.1,9500],[1.1,9583],[1.1,9666],[1.1,9750],[1.1,9833],[1.1,9916],[1.1,9999],[1.1,10083],[1.1,10166],[1.1,10249],[1.1,10333],[1.1,10416],[1.1,10499],[1.1,10583],[1.1,10666],[1.1,10749],[1.1,10833],[1.1,10916],[1.1,10999],[1.1,11083],[1.1,11166],[1.1,11249],[1.1,11333],[1.1,11416],[1.1,11499],[1.1,11582],[1.1,11666],[1.1,11749],[1.1,11833],[1.1,11916],[1.1,11999],[1.1,12083],[1.1,12166],[1.1,12249],[1.1,12333],[1.1,12416],[1.1,12499],[1.1,12582],[1.1,12666],[1.1,12749],[1.1,12833],[1.1,12916],[1.1,12999],[1.1,13083],[1.1,13166],[1.1,13249],[1.1,13332],[1.1,13416],[1.1,13499],[1.1,13583],[1.1,13665],[1.1,13749],[1.1,13833],[1.1,13916],[1.1,13999],[1.1,14083],[1.1,14166]]",1,0,203.7774,205.827,0.675454974,1.4203,"[{""rating"":0.6754549740435378,""responseTime"":1.4203000000002817}]",space,1.5088,,205.8271,All the time,100,205.8299,,,[],,0,4,4,4,1,audio/Narrative7Situation4.wav,audio/Narrative8Situation4.wav,audio/Narrative5Situation4.wav,audio/Narrative6Situation4.wav,3,3,1,2,,,,,,,,,,,,,,,,,,,,,,,,,,,,,,,,,,,,,
,,,,,,5d74001d391b6600175f433b,2024-02-08_13h30.49.074,group3.1-3.2-social-tom,2023.2.2,MacIntel,59.88023952,65c5074098b851296ff0b7ed,65c547f5200212ad4b520164,,,,,,,,,,,,,,,,,,,,,,,,,,,,,205.8301,1,audio/Narrative8Situation5.wav,207.8437,,207.8437,216.0937,"[[0.6,1083],[0.8,1166],[1.6,1250],[2.1,1333],[2.2,1416],[2.1,1500],[1.6,1583],[1.3,1666],[1.3,1749],[1.3,1833],[1.3,1916],[1.3,1999],[1.3,2083],[1.3,2166],[1.3,2249],[1.3,2332],[1.4,2416],[1.8,2500],[2.4,2583],[3.3,2666],[4.5,2750],[5.4,2833],[6.2,2916],[7.7,3000],[9,3083],[9.9,3166],[10.7,3250],[11.6,3333],[12.3,3416],[12.8,3500],[13.3,3583],[14,3666],[15.3,3749],[16,3833],[16.3,3916],[16.3,3999],[16.3,4083],[16.3,4166],[16.3,4249],[16.3,4333],[16.3,4416],[16.3,4499],[16.3,4582],[16.3,4666],[16.8,4750],[17.1,4832],[17.2,4916],[17.4,4999],[17.6,5083],[17.7,5166],[17.7,5249],[17.7,5333],[17.7,5416],[17.7,5499],[17.8,5583],[18,5666],[18,5749],[18.1,5832],[18.1,5916],[18.1,5999],[18.1,6083],[18.1,6166],[18.1,6249],[18.1,6333],[18.1,6416],[18.1,6499],[18.1,6582],[18.1,6666],[18.1,6749],[18.1,6833],[18.1,6916],[17.8,7000],[17.2,7083],[16.8,7166],[16.1,7249],[15.6,7333],[15.3,7416],[14.8,7499],[14.3,7582],[14.2,7666],[14.1,7749],[13.9,7833],[13.9,7915],[13.9,7999],[13.9,8083],[13.9,8166],[13.9,8249]]",1,0,216.0939,217.9602,8.256835069,1.2624,"[{""rating"":8.256835069405511,""responseTime"":1.2623999999999}]",space,1.3175,,217.9603,Not at all,0,217.9627,,,[],,0,5,5,5,1,audio/Narrative7Situation5.wav,audio/Narrative8Situation5.wav,audio/Narrative5Situation5.wav,audio/Narrative6Situation5.wav,5,2,5,2,,,,,,,,,,,,,,,,,,,,,,,,,,,,,,,,,,,,,
,,,,,,5d74001d391b6600175f433b,2024-02-08_13h30.49.074,group3.1-3.2-social-tom,2023.2.2,MacIntel,59.88023952,65c5074098b851296ff0b7ed,65c547f5200212ad4b520164,,,,,,,,,,,,,,,,,,,,,,,,,,,,,217.963,1,audio/Narrative8Situation6.wav,219.9769,,219.9769,226.4603,"[[5.7,582],[2.5,666],[1.6,750],[1.4,833],[1.1,916],[1.1,999],[1.1,1083],[1.1,1166],[1.1,1249],[1.1,1333],[1.1,1416],[1.1,1499],[1.1,1582],[1.1,1665],[1.1,1749],[1.1,1833],[1.1,1916],[1.1,1999],[1.1,2083],[1.1,2166],[1.1,2249],[1.1,2333],[1.1,2416],[1.1,2499],[1.1,2583],[1.1,2666],[1.1,2748],[1.1,2833],[1.1,2916],[1.1,2999],[1.1,3082],[1.1,3166],[1.1,3249],[1.1,3332],[1.1,3415],[1.1,3499],[1.1,3583],[1.1,3666],[1.1,3749],[1.1,3833],[1.1,3916],[1.1,3999],[1.1,4082],[1.1,4166],[1.1,4249],[1.1,4333],[1.1,4416],[1.1,4499],[1.1,4582],[1.1,4666],[1.1,4749],[1.1,4833],[1.1,4916],[1.1,4999],[1.1,5082],[1.1,5166],[1.1,5249],[1.1,5333],[1.1,5416],[1.1,5499],[1.1,5583],[1.1,5666],[1.1,5749],[1.1,5833],[1.1,5916],[1.1,5999],[1.1,6082],[1.1,6166],[1.1,6249],[1.1,6333],[1.1,6416]]",1,0,226.4604,227.8928,1.078015732,1.0376,"[{""rating"":1.0780157319338068,""responseTime"":1.0376000000001113}]",space,0.8923,,227.8929,Not at all,0,227.8947,,,[],,0,6,6,6,1,audio/Narrative7Situation6.wav,audio/Narrative8Situation6.wav,audio/Narrative5Situation6.wav,audio/Narrative6Situation6.wav,3,2,3,2,,,,,,,,,,,,,,,,,,,,,,,,,,,,,,,,,,,,,
,,,,,,5d74001d391b6600175f433b,2024-02-08_13h30.49.074,group3.1-3.2-social-tom,2023.2.2,MacIntel,59.88023952,65c5074098b851296ff0b7ed,65c547f5200212ad4b520164,,,,,,,,,,,,,,,,,,,,,,,,,,,,,227.8949,1,audio/Narrative8Situation7.wav,230.9096,,230.9097,242.9923,"[[1,1166],[0.8,1250],[0.5,1333],[0.5,1416],[0.5,1499],[0.5,1583],[0.5,1666],[0.5,1750],[0.5,1833],[0.5,1916],[0.5,2000],[0.5,2083],[0.5,2166],[0.5,2250],[0.5,2333],[0.5,2416],[0.5,2500],[0.5,2583],[0.5,2666],[0.5,2750],[0.5,2832],[0.5,2916],[0.5,3000],[0.5,3083],[0.5,3166],[0.5,3250],[0.5,3333],[0.5,3416],[0.5,3500],[0.5,3583],[0.5,3666],[0.5,3750],[0.5,3833],[0.5,3917],[0.5,4000],[0.5,4083],[0.5,4166],[0.5,4250],[0.5,4333],[0.5,4417],[0.5,4500],[0.5,4583],[0.5,4666],[0.5,4749],[0.5,4833],[0.5,4916],[0.5,4999],[0.5,5083],[0.5,5166],[0.5,5249],[0.5,5333],[0.5,5416],[0.5,5500],[0.5,5583],[0.5,5666],[0.5,5750],[0.5,5833],[0.5,5916],[0.5,6000],[0.5,6083],[0.5,6166],[0.5,6249],[0.5,6333],[0.5,6416],[0.5,6500],[0.5,6583],[0.5,6666],[0.5,6750],[0.5,6833],[0.5,6916],[0.5,7000],[0.5,7083],[0.5,7166],[0.5,7250],[0.5,7333],[0.5,7416],[0.5,7500],[0.5,7583],[0.5,7666],[0.5,7750],[0.5,7833],[0.5,7916],[0.5,8000],[0.5,8083],[0.5,8166],[0.5,8250],[0.5,8333],[0.5,8416],[0.5,8500],[0.5,8583],[0.5,8666],[0.5,8749],[0.5,8833],[0.5,8916],[0.5,8999],[0.5,9083],[0.5,9166],[0.5,9250],[0.5,9333],[0.5,9416],[0.5,9499],[0.5,9582],[0.5,9666],[0.5,9750],[0.5,9833],[0.5,9916],[0.5,10000],[0.5,10083],[0.5,10166],[0.5,10249],[0.9,10333],[4,10416],[4.8,10500],[4.9,10583],[4.9,10666],[4.9,10750],[4.7,10833],[4.6,10916],[4.6,11000],[4.6,11083],[4.6,11166],[4.6,11250],[4.6,11332],[4.6,11416],[4.6,11500],[4.6,11583],[4.6,11666],[4.6,11749],[4.6,11833],[4.6,11916],[4.6,12000],[4.6,12082]]",1,0,242.9925,244.7765,1.705185861,1.1461,"[{""rating"":1.705185861477132,""responseTime"":1.1461000000001036}]",space,1.2517,,244.7766,All the time,100,244.7796,,,[],,0,7,7,7,1,audio/Narrative7Situation7.wav,audio/Narrative8Situation7.wav,audio/Narrative5Situation7.wav,audio/Narrative6Situation7.wav,5,3,4,5,,,,,,,,,,,,,,,,,,,,,,,,,,,,,,,,,,,,,
,,,,,,5d74001d391b6600175f433b,2024-02-08_13h30.49.074,group3.1-3.2-social-tom,2023.2.2,MacIntel,59.88023952,65c5074098b851296ff0b7ed,65c547f5200212ad4b520164,,,,,,,,,,,,,,,,,,,,,,,,,,,,,244.7799,1,audio/Narrative8Situation8.wav,247.793,,247.793,260.6425,"[[1,833],[0.1,916],[0.1,1000],[0.1,1083],[0.1,1166],[0.1,1250],[0.1,1333],[0.1,1415],[0.1,1500],[0.1,1583],[0.1,1665],[0.1,1750],[0.1,1832],[0.1,1916],[0.1,2000],[0.1,2083],[0.1,2166],[0.1,2250],[0.1,2333],[0.1,2416],[0.1,2500],[0.1,2583],[0.1,2666],[0.1,2749],[0.1,2833],[0.1,2916],[0.1,3000],[0.1,3083],[0.1,3166],[0.1,3249],[0.1,3333],[0.1,3416],[0.1,3499],[0.1,3582],[0.1,3666],[0.1,3749],[0.1,3833],[0.1,3916],[0.1,4000],[0.1,4083],[0.1,4166],[0.1,4248],[0.1,4333],[0.1,4416],[0.1,4500],[0.1,4583],[0.1,4666],[0.1,4750],[0.1,4833],[0.1,4916],[0.1,5000],[0.1,5083],[0.1,5166],[0.1,5249],[0.1,5332],[0.1,5416],[0.1,5499],[0.1,5583],[0.1,5666],[0.1,5749],[0.1,5833],[0.1,5916],[0.1,6000],[0.1,6083],[0.1,6166],[0.1,6249],[0.1,6333],[0.1,6416],[0.1,6500],[0.1,6583],[0.1,6666],[0.1,6750],[0.1,6833],[0.1,6916],[0.1,7000],[0.1,7083],[0.1,7166],[0.1,7249],[0.1,7333],[0.1,7416],[0.1,7499],[0.1,7583],[0.1,7665],[0.1,7750],[0.1,7833],[0.1,7916],[0.1,7999],[0.1,8082],[0.1,8166],[0.1,8249],[0.1,8333],[0.1,8416],[0.1,8500],[0.1,8583],[0.1,8666],[0.1,8749],[0.1,8833],[0.1,8916],[0.1,9000],[0.1,9083],[0.1,9166],[0.1,9250],[0.1,9333],[0.1,9416],[0.1,9500],[0.1,9583],[0.1,9666],[0.1,9749],[0.1,9832],[0.1,9916],[0.1,10000],[0.1,10083],[0.1,10165],[0.1,10249],[0.1,10333],[0.1,10416],[0.1,10499],[0.1,10583],[0.1,10666],[0.1,10749],[0.1,10833],[0.1,10916],[0.1,10999],[0.1,11082],[0.1,11166],[0.1,11249],[0.1,11333],[0.1,11416],[0.1,11499],[0.1,11583],[0.1,11666],[0.1,11749],[0.1,11832],[0.1,11916],[0.1,11999],[0.1,12083],[0.1,12166],[0.1,12249],[0.1,12333],[0.1,12416],[0.1,12499],[0.1,12582],[0.1,12666],[0.1,12749],[0.1,12833]]",1,0,260.6425,261.9763,0.068901164,0.9888,"[{""rating"":0.06890116363745258,""responseTime"":0.9888000000003103}]",space,0.8096,,261.9764,Half the time,50,261.9795,,,[],,0,8,8,8,1,audio/Narrative7Situation8.wav,audio/Narrative8Situation8.wav,audio/Narrative5Situation8.wav,audio/Narrative6Situation8.wav,2,3,3,5,,,,,,,,,,,,,,,,,,,,,,,,,,,,,,,,,,,,,
,,,,,,5d74001d391b6600175f433b,2024-02-08_13h30.49.074,group3.1-3.2-social-tom,2023.2.2,MacIntel,59.88023952,65c5074098b851296ff0b7ed,65c547f5200212ad4b520164,,,,,,,,,,,,,,,,,,,,,,,,,,,,,261.9798,1,audio/Narrative8Situation9.wav,264.9928,,264.9928,276.3096,"[[0.5,1000],[0.7,1083],[0.8,1166],[0.9,1250],[0.9,1333],[0.9,1416],[0.9,1499],[0.9,1582],[0.9,1666],[0.9,1749],[0.9,1832],[0.9,1916],[0.9,1999],[0.9,2083],[0.9,2166],[0.9,2250],[0.9,2333],[0.9,2416],[0.9,2499],[0.9,2583],[0.9,2666],[0.9,2749],[0.9,2833],[0.9,2916],[0.9,3000],[0.9,3083],[0.9,3166],[0.9,3249],[0.9,3333],[0.9,3416],[0.9,3499],[0.9,3583],[0.9,3666],[0.9,3750],[0.9,3833],[0.9,3916],[0.9,3999],[0.9,4083],[0.9,4166],[0.9,4250],[0.9,4333],[0.9,4416],[0.9,4499],[0.9,4583],[0.9,4666],[0.9,4750],[0.9,4833],[0.9,4916],[0.9,4999],[0.9,5083],[0.9,5166],[0.9,5249],[0.9,5332],[0.9,5416],[0.9,5500],[0.9,5583],[0.9,5666],[0.9,5749],[0.9,5833],[0.9,5916],[0.9,5999],[0.9,6082],[0.9,6165],[0.9,6250],[0.9,6332],[0.9,6416],[1.2,6500],[2.9,6583],[10.5,6666],[16.6,6749],[19.8,6833],[27.8,6916],[37.8,7000],[40.6,7083],[41,7166],[41,7250],[41,7333],[41,7416],[41,7499],[41,7583],[41,7666],[41,7750],[41,7833],[41,7916],[41,7999],[41,8083],[41,8166],[41,8249],[41,8333],[41,8416],[41,8499],[41,8583],[41,8666],[41,8749],[41,8833],[41,8916],[41,8999],[41,9083],[41,9166],[41,9249],[41,9333],[41,9416],[41,9499],[42.6,9583],[44.6,9666],[45,9749],[45,9833],[45,9915],[45,9999],[45,10083],[45,10166],[45,10249],[45,10332],[45,10416],[45,10499],[45,10583],[45,10666],[45,10749],[45,10833],[45,10916],[45,10999],[45,11083],[45,11166],[45,11250]]",1,0,276.3098,279.0428,30.12857954,1.5959,"[{""rating"":30.128579535157783,""responseTime"":1.5959000000003698}]",space,2.1847,,279.0429,Not at all,0,279.0455,,,[],,0,9,9,9,1,audio/Narrative7Situation9.wav,audio/Narrative8Situation9.wav,audio/Narrative5Situation9.wav,audio/Narrative6Situation9.wav,2,3,3,4,,,,,,,,,,,,,,,,,,,,,,,,,,,,,,,,,,,,,
,,,,,,5d74001d391b6600175f433b,2024-02-08_13h30.49.074,group3.1-3.2-social-tom,2023.2.2,MacIntel,59.88023952,65c5074098b851296ff0b7ed,65c547f5200212ad4b520164,,,,,,,,,,,,,,,,,,,,,,,,,,,,,279.0458,1,audio/Narrative7Situation1.wav,281.0592,,281.0592,336.9588,"[[999,0],[999,83],[999,165],[999,250],[999,333],[999,416],[999,500],[999,583],[999,666],[999,750],[999,833],[3.6,916],[2.9,1000],[1.8,1083],[1.6,1167],[1.6,1250],[1.6,1333],[1.6,1416],[1.6,1500],[1.6,1582],[1.6,1666],[1.6,1750],[1.6,1833],[1.6,1916],[1.6,1999],[1.6,2083],[1.6,2166],[1.6,2250],[1.6,2333],[1.6,2416],[1.6,2500],[1.6,2583],[1.6,2666],[1.6,2750],[1.6,2833],[1.6,2916],[1.6,3000],[1.6,3083],[1.6,3166],[1.6,3250],[1.6,3333],[1.6,3416],[1.6,3500],[1.6,3583],[1.6,3666],[1.6,3749],[1.6,3833],[1.6,3916],[1.6,4000],[1.6,4083],[1.6,4166],[1.6,4250],[1.6,4332],[1.6,4416],[1.6,4499],[1.6,4583],[1.6,4666],[1.6,4750],[1.6,4833],[1.9,4916],[4.8,5000],[15.1,5083],[31.8,5166],[42.1,5250],[44.6,5333],[44.7,5416],[44.7,5500],[44.7,5583],[44.7,5666],[44.7,5750],[44.7,5833],[44.7,5916],[44.7,6000],[44.7,6083],[44.7,6166],[44.7,6249],[44.7,6332],[44.7,6416],[44.7,6500],[44.7,6583],[44.7,6666],[44.7,6750],[44.7,6833],[44.7,6916],[44.7,7000],[44.7,7082],[44.7,7166],[44.7,7249],[44.7,7333],[44.7,7416],[44.7,7500],[44.7,7583],[44.7,7666],[44.7,7750],[44.7,7833],[44.7,7916],[44.7,8000],[44.1,8083],[41.8,8166],[38.8,8250],[34.5,8333],[31.8,8416],[30.9,8500],[30.1,8583],[29.7,8666],[29.7,8750],[29.7,8832],[29.7,8916],[29.7,9000],[29.7,9083],[29.7,9166],[29.7,9250],[29.7,9333],[29.7,9416],[29.7,9499],[29.7,9583],[29.7,9666],[29.7,9750],[29.7,9833],[29.7,9916],[29.7,10000],[29.7,10082],[29.7,10166],[29.7,10249],[29.7,10333],[29.7,10416],[29.7,10500],[29.7,10583],[29.7,10666],[29.7,10750],[29.7,10833],[29.7,10916],[29.7,10999],[29.7,11083],[29.7,11166],[29.7,11249],[29.7,11333],[29.7,11416],[29.7,11499],[29.7,11583],[29.7,11666],[29.7,11749],[29.7,11832],[29.7,11916],[29,12000],[27.1,12083],[24.9,12166],[23.6,12250],[22.5,12333],[21.6,12416],[21.5,12499],[21.5,12583],[21.5,12666],[21.5,12749],[21.5,12833],[21.5,12916],[21.5,12999],[21.5,13083],[21.5,13166],[21.5,13249],[21.5,13333],[21.5,13416],[21.5,13499],[21.5,13583],[21.5,13666],[21.5,13749],[21.5,13833],[21.5,13916],[21.5,13999],[21.5,14083],[21.5,14166],[21.5,14249],[21.5,14333],[21.5,14416],[21.5,14499],[21.5,14583],[21.5,14665],[21.5,14749],[21.5,14833],[21.5,14916],[21.5,14999],[21.5,15083],[21.5,15166],[21.5,15249],[18.4,15333],[13.2,15416],[10.7,15500],[8.5,15582],[6.5,15666],[5.9,15749],[5.9,15832],[5.9,15915],[5.9,15999],[5.9,16083],[5.9,16166],[5.9,16249],[5.9,16333],[5.9,16416],[5.9,16499],[5.9,16583],[5.9,16666],[5.9,16749],[5.9,16832],[5.9,16916],[5.9,16999],[5.9,17083],[5.9,17166],[5.9,17249],[5.9,17333],[5.9,17416],[5.9,17500],[5.9,17583],[5.9,17666],[5.9,17749],[5.9,17833],[5.9,17916],[5.9,17999],[5.9,18083],[5.9,18166],[5.9,18249],[5.9,18333],[5.9,18416],[5.9,18499],[5.9,18583],[5.9,18665],[5.9,18750],[5.9,18832],[5.9,18916],[5.9,18999],[5.9,19083],[5.9,19166],[5.9,19249],[5.9,19333],[5.9,19416],[5.9,19499],[5.9,19583],[5.9,19666],[5.9,19749],[5.9,19833],[5.9,19916],[5.9,19999],[5.9,20083],[5.9,20166],[5.9,20249],[5.9,20333],[5.9,20416],[5.9,20499],[5.9,20583],[5.9,20666],[5.9,20749],[5.9,20833],[5.9,20916],[5.9,20999],[5.9,21083],[5.9,21166],[5.9,21249],[5.9,21333],[5.9,21416],[5.9,21499],[5.9,21583],[5.9,21666],[5.9,21749],[5.9,21833],[5.9,21916],[5.9,21999],[5.2,22083],[5,22166],[5,22249],[5,22333],[5,22416],[4.5,22500],[3.1,22583],[2.6,22666],[2.5,22749],[2.5,22833],[2.5,22915],[2.5,22999],[2.5,23082],[2.5,23166],[2.5,23249],[2.5,23333],[2.5,23416],[2.5,23499],[2.5,23583],[2.5,23666],[2.5,23749],[2.5,23833],[2.5,23916],[2.5,24000],[2.5,24083],[2.5,24166],[2.5,24249],[2.5,24333],[2.5,24416],[2.5,24499],[2.5,24582],[2.5,24666],[2.5,24749],[2.5,24832],[2.5,24916],[2.5,24999],[2.5,25083],[2.5,25166],[2.5,25249],[2.5,25333],[2.5,25416],[2.5,25499],[2.5,25582],[2.5,25665],[2.5,25749],[2.5,25832],[2.5,25916],[2.5,25999],[2.5,26083],[2.5,26166],[2.5,26249],[2.5,26333],[2.5,26416],[2.5,26499],[2.5,26582],[2.5,26666],[2.5,26749],[2.5,26832],[2.5,26916],[2.6,26999],[2.9,27083],[3.4,27166],[4.7,27249],[7.3,27332],[10.3,27416],[12.5,27499],[16,27583],[20.5,27666],[23,27749],[26,27833],[30.2,27916],[31.3,27999],[31.3,28082],[31.3,28166],[31.3,28249],[31.3,28332],[31.3,28416],[31.3,28498],[31.3,28583],[31.3,28666],[31.3,28749],[31.3,28833],[31.3,28916],[31.3,28999],[31.3,29083],[31.3,29166],[31.3,29249],[31.4,29332],[31.4,29416],[31.5,29499],[31.6,29583],[31.8,29666],[32.2,29749],[32.6,29833],[32.6,29916],[32.6,29999],[32.7,30083],[33,30166],[34.8,30249],[36.8,30333],[37.3,30415],[37.3,30499],[37.3,30582],[37.5,30666],[38.5,30749],[39.1,30833],[39.1,30916],[39.1,30999],[39.1,31082],[39.1,31166],[39.1,31249],[39.1,31332],[39.1,31416],[39.1,31499],[39.1,31583],[39.1,31666],[39.1,31749],[39.1,31832],[39.1,31916],[39.1,31999],[39.1,32082],[39.1,32165],[39.1,32249],[39.1,32332],[39.1,32416],[39.1,32499],[39.1,32582],[39.1,32666],[39.2,32749],[39.3,32833],[39.4,32915],[39.4,32999],[39.4,33083],[39.4,33166],[39.4,33249],[39.4,33332],[39.4,33416],[39.4,33499],[39.4,33582],[39.4,33666],[39.4,33749],[39.4,33832],[39.4,33916],[39.4,33999],[39.4,34082],[39.4,34166],[39.4,34249],[39.4,34332],[39.5,34416],[39.7,34499],[40,34583],[40.2,34666],[40.6,34749],[41.2,34832],[42.4,34916],[44.1,34999],[45.3,35083],[46.3,35166],[47.7,35250],[49,35333],[49.8,35416],[50,35499],[49.9,35583],[49.9,35665],[49.9,35749],[49.9,35832],[49.9,35916],[49.9,35999],[49.9,36082],[49.9,36166],[49.9,36249],[49.9,36332],[49.9,36416],[49.9,36499],[49.9,36582],[49.9,36666],[49.9,36749],[49.9,36832],[49.9,36915],[49.9,36999],[49.9,37082],[49.9,37166],[49.9,37249],[49.9,37332],[49.9,37415],[49.9,37499],[49.9,37582],[49.9,37666],[49.9,37749],[49.9,37832],[49.9,37916],[49.9,37998],[49.9,38082],[49.9,38166],[49.9,38249],[49.9,38332],[49.9,38416],[49.9,38499],[49.9,38582],[49.9,38666],[49.9,38749],[49.9,38832],[49.9,38916],[49.9,38999],[49.9,39082],[49.9,39166],[49.9,39249],[49.9,39332],[49.9,39415],[49.9,39499],[49.9,39582],[49.9,39666],[49.9,39749],[49.9,39832],[49.9,39916],[49.9,39999],[49.9,40082],[49.9,40166],[49.8,40249],[49.7,40333],[49.5,40416],[49.2,40499],[48.9,40582],[48.6,40665],[47.9,40750],[47.1,40832],[46.1,40916],[45,40999],[44.7,41082],[44.4,41166],[44.4,41249],[44.4,41332],[44.4,41416],[44.4,41499],[44.4,41582],[44.4,41666],[44.4,41749],[44.4,41832],[44.4,41915],[44.4,41999],[44.4,42082],[44.4,42166],[44.4,42249],[44.4,42332],[44.4,42416],[44.4,42499],[44.4,42582],[44.4,42666],[44.4,42748],[44.4,42832],[44.4,42916],[44.4,42999],[44.4,43082],[44.4,43166],[44.4,43249],[44.4,43332],[44.4,43416],[44.4,43498],[44.4,43582],[44.4,43666],[44.4,43749],[44.4,43832],[44.4,43916],[44.4,43998],[44.4,44082],[44.4,44165],[44.4,44249],[44.4,44332],[44.4,44416],[44.4,44499],[44.4,44582],[44.4,44666],[44.4,44749],[44.4,44832],[44.4,44916],[44.4,44999],[44.4,45082],[44.4,45166],[44.4,45249],[44.4,45332],[44.4,45416],[44.4,45498],[44.3,45582],[44.3,45666],[44.3,45749],[44.3,45832],[44.3,45916],[44.4,45999],[44.4,46082],[44.4,46166],[44.4,46249],[44.4,46332],[44.4,46416],[44.4,46499],[44.5,46583],[45.2,46666],[45.6,46749],[45.9,46833],[46.1,46916],[46.5,46999],[46.7,47082],[46.8,47166],[47,47249],[47.4,47332],[48.4,47415],[49.3,47499],[50.1,47583],[51.2,47666],[52.2,47749],[53.1,47832],[53.6,47916],[53.9,47998],[54.2,48083],[54.9,48166],[55.2,48249],[55.3,48332],[55.4,48416],[55.4,48499],[55.4,48582],[55.4,48666],[55.4,48749],[55.4,48832],[55.4,48916],[55.4,48999],[55.4,49082],[55.4,49166],[55.4,49249],[55.4,49332],[55.4,49416],[55.4,49499],[55.4,49582],[55.4,49666],[55.4,49749],[55.4,49832],[55.4,49916],[55.4,49999],[55.4,50082],[55.4,50166],[55.4,50249],[55.4,50332],[55.4,50416],[55.4,50499],[55.4,50582],[55.4,50666],[55.4,50749],[55.4,50832],[55.4,50916],[55.4,50999],[55.4,51082],[55.4,51166],[55.4,51249],[55.4,51332],[55.4,51416],[55.4,51499],[55.4,51582],[55.6,51666],[55.8,51749],[55.9,51832],[55.9,51916],[55.9,51999],[55.9,52082],[55.9,52165],[55.9,52249],[55.9,52332],[55.9,52416],[55.9,52499],[55.9,52582],[55.9,52666],[55.7,52749],[55.3,52833],[54.1,52915],[52.4,52999],[51,53082],[49.1,53166],[46.1,53249],[42.6,53332],[39.7,53416],[37.3,53498],[34.9,53582],[33.7,53666],[33.7,53749],[33.7,53833],[33.7,53916],[33.7,53999],[33.7,54082],[31.9,54166],[31.1,54249],[30.8,54332],[30.1,54416],[29.4,54499],[28.4,54582],[27.3,54666],[26.8,54749],[26.5,54832],[26.5,54916],[26.5,54998],[26.5,55082],[26.5,55166],[26.5,55249],[26.5,55332],[26.5,55416],[26.5,55499],[26.5,55582],[26.5,55666],[26.5,55749],[26.5,55832]]",1,0,336.9593,339.3919,48.39192562,1.7285,"[{""rating"":48.39192561717938,""responseTime"":1.7284999999999968}]",space,1.8861,,339.3919,All the time,100,339.3941,,,[],,0,10,10,10,1,audio/Narrative8Situation1.wav,audio/Narrative7Situation1.wav,audio/Narrative6Situation1.wav,audio/Narrative5Situation1.wav,5,2,2,5,,,,,,,,,,,,,,,,,,,,,,,,,,,,,,,,,,,,,
,,,,,,5d74001d391b6600175f433b,2024-02-08_13h30.49.074,group3.1-3.2-social-tom,2023.2.2,MacIntel,59.88023952,65c5074098b851296ff0b7ed,65c547f5200212ad4b520164,,,,,,,,,,,,,,,,,,,,,,,,,,,,,339.3943,1,audio/Narrative7Situation2.wav,342.4086,,342.4086,349.892,"[[35,1000],[10.3,1083],[3.9,1165],[3.6,1249],[3.8,1333],[7.2,1416],[12.6,1500],[16.9,1583],[17.5,1666],[17.3,1750],[17.3,1833],[17.3,1916],[17.3,1999],[17.3,2083],[17.3,2166],[17.3,2249],[17.3,2332],[17.3,2416],[17.3,2499],[17.3,2583],[17.3,2666],[17.3,2748],[17.3,2833],[17.3,2916],[17.3,2999],[17.3,3083],[17.3,3166],[17.3,3249],[17.3,3333],[17.3,3415],[17.3,3499],[17.3,3583],[17.3,3666],[17.3,3749],[17.3,3833],[17.3,3916],[17.3,3999],[17.3,4082],[17.3,4165],[17.3,4249],[17.3,4333],[17.3,4416],[17.3,4499],[17.3,4583],[17.3,4666],[17.3,4749],[17.3,4833],[17.3,4916],[17.3,4999],[17.3,5083],[17.3,5166],[17.3,5249],[17.3,5333],[17.3,5416],[17.3,5499],[17.3,5582],[17.3,5666],[17.3,5749],[17.3,5833],[17.3,5916],[17.3,5999],[17.3,6083],[17.3,6166],[17.3,6249],[17.3,6333],[17.3,6416],[17.3,6499],[17.3,6582],[17.3,6666],[17.3,6749],[17.3,6833],[17.3,6916],[17,6999],[16.3,7083],[15.7,7166],[15.5,7250],[14.7,7333],[13.3,7415]]",1,0,349.8921,351.9917,9.327798595,1.446,"[{""rating"":9.327798595113574,""responseTime"":1.4460000000000264}]",space,1.5607,,351.9918,Not at all,0,351.9949,,,[],,0,11,11,11,1,audio/Narrative8Situation2.wav,audio/Narrative7Situation2.wav,audio/Narrative6Situation2.wav,audio/Narrative5Situation2.wav,3,3,3,3,,,,,,,,,,,,,,,,,,,,,,,,,,,,,,,,,,,,,
,,,,,,5d74001d391b6600175f433b,2024-02-08_13h30.49.074,group3.1-3.2-social-tom,2023.2.2,MacIntel,59.88023952,65c5074098b851296ff0b7ed,65c547f5200212ad4b520164,,,,,,,,,,,,,,,,,,,,,,,,,,,,,351.9952,1,audio/Narrative7Situation3.wav,360.0084,,360.0085,369.275,"[[999,9],[999,83],[999,165],[999,249],[999,332],[999,416],[999,499],[999,582],[999,665],[999,749],[999,832],[999,916],[999,999],[999,1083],[999,1166],[999,1249],[999,1333],[999,1418],[5.5,1499],[4.1,1583],[3.5,1666],[3.5,1749],[3.6,1832],[3.7,1916],[4.3,1999],[4.4,2082],[4.4,2166],[4.4,2249],[4.4,2333],[4.4,2416],[4.4,2499],[4.4,2582],[4.4,2666],[4.4,2749],[4.3,2833],[3.4,2916],[3,2999],[3,3082],[3,3166],[2.7,3249],[2.7,3333],[2.7,3416],[2.7,3499],[2.7,3582],[2.7,3666],[2.7,3749],[2.7,3832],[2.7,3915],[2.6,3999],[1.7,4083],[0.4,4166]]",1,0,369.2752,372.0249,1.240233611,2.2369,"[{""rating"":1.2402336114610168,""responseTime"":2.2369000000003894}]",space,2.2048,,372.025,All the time,100,372.0276,,,[],,0,12,12,12,1,audio/Narrative8Situation3.wav,audio/Narrative7Situation3.wav,audio/Narrative6Situation3.wav,audio/Narrative5Situation3.wav,4,8,5,3,,,,,,,,,,,,,,,,,,,,,,,,,,,,,,,,,,,,,
,,,,,,5d74001d391b6600175f433b,2024-02-08_13h30.49.074,group3.1-3.2-social-tom,2023.2.2,MacIntel,59.88023952,65c5074098b851296ff0b7ed,65c547f5200212ad4b520164,,,,,,,,,,,,,,,,,,,,,,,,,,,,,372.0279,1,audio/Narrative7Situation4.wav,375.0415,,375.0415,386.7748,"[[1.6,1083],[2,1166],[2.1,1250],[2.1,1333],[2.1,1416],[2.1,1499],[2.1,1583],[2.1,1666],[2.1,1748],[2.1,1833],[2.1,1916],[2.1,1999],[2.1,2083],[2.1,2166],[2.1,2249],[2.1,2333],[2.1,2416],[2.1,2499],[2.1,2583],[2.1,2666],[2.1,2749],[2.1,2833],[2.1,2916],[2.1,2999],[2.1,3083],[2.3,3166],[2.9,3250],[4,3333],[7,3416],[15.5,3500],[27.8,3583],[36.9,3666],[43.5,3749],[48.3,3833],[50.4,3916],[50.5,4000],[50.5,4082],[50.5,4165],[50.5,4249],[50.5,4333],[50.5,4416],[50.5,4499],[50.6,4582],[51.3,4666],[51.4,4749],[51.4,4833],[51.4,4916],[52,4999],[52.8,5083],[54.5,5166],[55.8,5250],[56.4,5333],[57.1,5416],[57.1,5499],[57.1,5582],[57.1,5666],[57.1,5749],[57.1,5833],[57.1,5916],[57.1,5999],[57.1,6083],[57.1,6165],[57.1,6249],[57.1,6333],[57.1,6416],[57.1,6499],[57.1,6582],[57.1,6666],[57.1,6749],[57.1,6833],[57.1,6916],[57.1,7000],[57.1,7082],[57.1,7166],[57.1,7249],[57.1,7333],[57.1,7416],[57.1,7499],[57.1,7583],[57.1,7666],[57.6,7749],[57.9,7833],[58.1,7916],[58.4,7999],[59,8083],[59.5,8166],[59.7,8249],[59.7,8332],[59.7,8416],[59.7,8499],[59.7,8582],[59.7,8666],[59.7,8749],[59.7,8832],[59.7,8916],[59.7,8999],[59.7,9082],[59.7,9166],[59.7,9249],[59.7,9332],[59.7,9416],[59.7,9499],[60.4,9583],[61.1,9666],[61.9,9750],[63.2,9833],[64.1,9916],[64.7,10000],[65,10083],[65.1,10166],[65.1,10249],[65.1,10333],[65.1,10416],[65.1,10499],[65.1,10583],[65.1,10666],[65.1,10749],[65.1,10833],[65.1,10916],[65.1,10999],[65.1,11083],[65.1,11166],[65.1,11249],[65.1,11333],[65.1,11416],[65.1,11499],[65.1,11582],[65.1,11665]]",1,0,386.7751,388.9413,56.66178226,1.4786,"[{""rating"":56.661782264782246,""responseTime"":1.4785999999996307}]",space,1.6181,,388.9414,All the time,100,388.9436,,,[],,0,13,13,13,1,audio/Narrative8Situation4.wav,audio/Narrative7Situation4.wav,audio/Narrative6Situation4.wav,audio/Narrative5Situation4.wav,3,3,2,1,,,,,,,,,,,,,,,,,,,,,,,,,,,,,,,,,,,,,
,,,,,,5d74001d391b6600175f433b,2024-02-08_13h30.49.074,group3.1-3.2-social-tom,2023.2.2,MacIntel,59.88023952,65c5074098b851296ff0b7ed,65c547f5200212ad4b520164,,,,,,,,,,,,,,,,,,,,,,,,,,,,,388.944,1,audio/Narrative7Situation5.wav,393.9581,,393.9582,402.4579,"[[56.3,999],[55.7,1083],[55.7,1166],[55.7,1249],[55.7,1332],[55.6,1416],[45,1500],[27.3,1583],[22.7,1666],[22.5,1748],[22.5,1832],[22.5,1916],[22.5,1999],[22.5,2082],[22.5,2166],[22.6,2249],[22.6,2332],[22.7,2415],[22.7,2499],[22.8,2582],[22.8,2666],[22.8,2749],[22.8,2832],[22.8,2916],[22.8,2999],[22.8,3082],[22.8,3166],[22.8,3249],[22.8,3332],[22.8,3416],[23,3499],[23.1,3582],[23.1,3666],[23.1,3749],[23.1,3832],[23.1,3916],[23.1,3999],[23.1,4082],[23.1,4166],[23.1,4249],[23,4333],[22.2,4415],[22.1,4500],[21.9,4583],[21.4,4666],[21.2,4749],[21.2,4832],[21.2,4916],[21.2,4999],[21.2,5082],[21.2,5166],[21.2,5249],[21.2,5332],[21.2,5415],[21.2,5498],[21.2,5582],[21.2,5666],[21.2,5749],[21.2,5832],[21.2,5916],[21.2,5999],[21.2,6082],[21.2,6166],[21,6249],[20.7,6333],[20.5,6416],[20.4,6500],[20,6583],[19.6,6665],[19,6749],[18.2,6833],[16.6,6916],[14.8,6999],[13.9,7083],[13.6,7166],[13.6,7249],[13.6,7332],[13.6,7416],[13.6,7499],[13.6,7582],[13.6,7666],[13.6,7749],[13.6,7832],[13.6,7915],[13.6,7999],[13.6,8082],[13.6,8166],[13.6,8249],[13.6,8332],[13.6,8415],[13.6,8499]]",1,0,402.4581,404.7906,23.37076714,1.8777,"[{""rating"":23.370767135857033,""responseTime"":1.8776999999997201}]",space,1.7874,,404.7906,Not at all,0,404.7929,,,[],,0,14,14,14,1,audio/Narrative8Situation5.wav,audio/Narrative7Situation5.wav,audio/Narrative6Situation5.wav,audio/Narrative5Situation5.wav,2,5,2,5,,,,,,,,,,,,,,,,,,,,,,,,,,,,,,,,,,,,,
,,,,,,5d74001d391b6600175f433b,2024-02-08_13h30.49.074,group3.1-3.2-social-tom,2023.2.2,MacIntel,59.88023952,65c5074098b851296ff0b7ed,65c547f5200212ad4b520164,,,,,,,,,,,,,,,,,,,,,,,,,,,,,404.7932,1,audio/Narrative7Situation6.wav,407.8067,,407.8068,417.7734,"[[23.5,1667],[24.6,1751],[25.9,1834],[26.7,1917],[28.2,2000],[35.6,2083],[41,2167],[41.7,2250],[41.7,2334],[41.7,2416],[41.7,2500],[41.7,2584],[41.7,2667],[41.7,2749],[41.7,2832],[41.7,2917],[41.7,3000],[41.7,3083],[41.7,3167],[41.7,3250],[41.7,3332],[41.7,3416],[41.7,3500],[41.7,3584],[41.7,3667],[41.6,3750],[41.6,3833],[41.6,3917],[41.6,4000],[41.6,4084],[41.6,4167],[41.6,4249],[41.6,4333],[41.6,4417],[41.6,4499],[41.6,4584],[41.6,4666],[41.6,4750],[41.5,4834],[41.5,4917],[41.4,4999],[41.3,5084],[41.2,5167],[41.1,5250],[41,5334],[40.9,5417],[40.1,5500],[39.5,5584],[39.2,5667],[39.2,5750],[39.1,5834],[39.1,5916],[39.1,6000],[39.1,6084],[39.1,6166],[39.1,6249],[39.1,6333],[39.1,6417],[39.1,6499],[39.1,6583],[39.1,6667],[39.1,6749],[39.1,6834],[39.1,6916],[39.1,7000],[39.1,7084],[39.1,7167],[39.1,7249],[39.1,7334],[39.1,7417],[39.1,7500],[39.1,7583],[39.1,7666],[39.1,7750],[39.1,7833],[39.1,7916],[38.6,8000],[34.7,8084],[29.3,8167],[26.2,8250],[26.1,8334],[26.1,8417],[26.1,8500],[26.1,8584],[26.1,8667],[26.1,8750],[26.1,8834],[26.1,8916],[26.1,8999],[26.1,9083],[26.1,9166],[26.1,9249],[26.1,9333],[26.1,9417],[25.6,9500],[24.7,9584],[23.9,9667],[23.6,9750],[23.6,9832],[23.6,9916]]",1,0,417.7735,420.2408,38.72829729,2.1625,"[{""rating"":38.72829728895644,""responseTime"":2.1625000000000227}]",space,1.9195,,420.2409,Half the time,50,420.2429,,,[],,0,15,15,15,1,audio/Narrative8Situation6.wav,audio/Narrative7Situation6.wav,audio/Narrative6Situation6.wav,audio/Narrative5Situation6.wav,2,3,2,3,,,,,,,,,,,,,,,,,,,,,,,,,,,,,,,,,,,,,
,,,,,,5d74001d391b6600175f433b,2024-02-08_13h30.49.074,group3.1-3.2-social-tom,2023.2.2,MacIntel,59.88023952,65c5074098b851296ff0b7ed,65c547f5200212ad4b520164,,,,,,,,,,,,,,,,,,,,,,,,,,,,,420.2429,1,audio/Narrative7Situation7.wav,425.2574,,425.2575,442.4409,"[[38.1,665],[33.5,750],[29.1,833],[26.6,2333],[26.4,2415],[26.3,2500],[26.3,2583],[26.3,2666],[26.3,2748],[26.3,2833],[26.3,2916],[26.3,2999],[26.3,3082],[26.3,3166],[26.3,3249],[26.3,3332],[26.3,3416],[26.3,3499],[26.3,3583],[26.3,3665],[26.3,3749],[26.3,3833],[26.3,3916],[26.3,3999],[26.3,4082],[26.3,4166],[26.3,4248],[26.3,4333],[26.3,4416],[26.3,4499],[26.3,4583],[26.3,4666],[26.3,4749],[26.3,4832],[26.3,4915],[26.3,4999],[26.3,5083],[26.3,5166],[26.3,5249],[26.3,5332],[26.3,5416],[26.3,5498],[26.3,5582],[26.3,5665],[26.3,5748],[26.3,5833],[26.3,5916],[26.3,5999],[26.3,6083],[26.3,6166],[26.3,6248],[26.3,6333],[26.3,6416],[26.3,6499],[26.3,6583],[26.3,6666],[26.3,6749],[26.3,6832],[26.3,6916],[26.3,6998],[26.5,7083],[29.1,7166],[33.9,7249],[37.4,7333],[38,7416],[38,7499],[38,7583],[38,7665],[38,7749],[38,7832],[38,7916],[38,7999],[38,8083],[38,8166],[38,8249],[38,8332],[38,8416],[38,8498],[38,8583],[38,8665],[38,8749],[38,8833],[38,8916],[38,8999],[38,9083],[38,9166],[38,9249],[38,9332],[38,9416],[38,9499],[38,9583],[38,9666],[38,9748],[38,9833],[38,9916],[38,9999],[38,10083],[38,10165],[38,10248],[38,10332],[38,10415],[38,10499],[38,10582],[38,10666],[38,10749],[38,10833],[38,10916],[38,10998],[38,11083],[38,11165],[38,11248],[38,11332],[38,11415],[38,11499],[38,11582],[38,11665],[38,11748],[38,11833],[38,11916],[38,11999],[38,12083],[38,12166],[38,12249],[38,12332],[38,12415],[38,12499],[38,12583],[38,12665],[38,12749],[38,12832],[38,12916],[38,12999],[38,13083],[38,13166],[38,13249],[38,13332],[32.7,13416],[26.4,13499],[24.8,13583],[24.4,13665],[24.4,13748],[24.4,13833],[22.6,13916],[14.9,13999],[10.5,14083],[7.6,14166],[6,14249],[5.8,14332],[5.8,14416],[5.8,14498],[5.8,14582],[5.8,14666],[5.8,14748],[5.8,14833],[5.8,14916],[5.8,14998],[5.8,15082],[5.8,15166],[5.8,15248],[5.8,15332],[5.8,15416],[5.8,15499],[5.8,15582],[5.8,15666],[5.8,15748],[5.8,15833],[5.8,15916],[5.8,15999],[5.8,16082],[5.8,16166],[5.8,16249],[5.8,16332],[5.8,16416],[5.8,16498],[5.8,16582],[5.8,16665],[5.8,16749],[5.8,16831],[5.8,16916],[5.8,16998],[5.8,17082],[7.3,17166]]",1,0,442.4413,444.9072,26.88476448,1.9461,"[{""rating"":26.88476447932773,""responseTime"":1.946100000000115}]",space,1.9307,,444.9073,Half the time,50,444.9093,,,[],,0,16,16,16,1,audio/Narrative8Situation7.wav,audio/Narrative7Situation7.wav,audio/Narrative6Situation7.wav,audio/Narrative5Situation7.wav,3,5,5,4,,,,,,,,,,,,,,,,,,,,,,,,,,,,,,,,,,,,,
,,,,,,5d74001d391b6600175f433b,2024-02-08_13h30.49.074,group3.1-3.2-social-tom,2023.2.2,MacIntel,59.88023952,65c5074098b851296ff0b7ed,65c547f5200212ad4b520164,,,,,,,,,,,,,,,,,,,,,,,,,,,,,444.9096,1,audio/Narrative7Situation8.wav,446.9238,,446.9239,456.9563,"[[26.1,665],[14.2,750],[7.9,833],[6.6,915],[6.6,999],[6.6,1082],[6.6,1165],[6.6,1248],[4.3,1333],[3.4,1416],[3.3,1499],[3.2,1582],[3.2,1666],[3.2,1748],[3.2,1833],[3.2,1916],[3.2,1998],[3.2,2082],[3.2,2165],[3.2,2251],[3.2,2332],[3.2,2415],[3.2,2498],[3.2,2583],[3.2,2666],[3.2,2748],[4.4,2832],[5.7,2916],[6.6,2998],[7.4,3083],[7.9,3166],[8.1,3249],[8.1,3333],[8.1,3415],[8.1,3499],[8.1,3582],[8.1,3666],[8.1,3749],[8.1,3832],[8.1,3916],[8.1,3999],[8.1,4083],[8.1,4166],[8.1,4248],[8.1,4333],[8.1,4416],[8.1,4499],[8.1,4583],[8.1,4665],[8.1,4748],[8.1,4833],[8.1,4916],[8.1,4999],[8.1,5082],[8.1,5165],[8.1,5248],[8.1,5332],[8.1,5415],[8.1,5499],[8.1,5583],[8.1,5666],[8.1,5748],[8.1,5832],[8.1,5916],[8.1,5999],[8.1,6083],[8.1,6166],[8.1,6249],[8.1,6333],[8.1,6415],[8.1,6499],[8.1,6583],[8.1,6666],[8.1,6749],[8.1,6833],[8.1,6915],[8.1,6999],[8.1,7082],[8.1,7166],[8.1,7248],[8.1,7333],[8.1,7415],[8.1,7499],[8.1,7582],[8.1,7666],[8.1,7749],[8.1,7833],[8.1,7916],[8.1,7998],[8.1,8083],[8.1,8165],[8.1,8249],[8.1,8333],[8.1,8416],[8.1,8498],[8.1,8582],[7.9,8665],[7.4,8748],[7.1,8833],[6.7,8916],[6.6,8998],[6.3,9082],[6,9166],[5.5,9249],[5.3,9333],[5.2,9416],[5.1,9499],[5,9583],[5,9666],[4.9,9749],[4.9,9832],[4.9,9915],[4.9,9999]]",1,0,456.9564,459.7393,10.47688712,1.7459,"[{""rating"":10.47688711965749,""responseTime"":1.7458999999998923}]",space,2.243,,459.7393,All the time,100,459.7411,,,[],,0,17,17,17,1,audio/Narrative8Situation8.wav,audio/Narrative7Situation8.wav,audio/Narrative6Situation8.wav,audio/Narrative5Situation8.wav,3,2,5,3,,,,,,,,,,,,,,,,,,,,,,,,,,,,,,,,,,,,,
,,,,,,5d74001d391b6600175f433b,2024-02-08_13h30.49.074,group3.1-3.2-social-tom,2023.2.2,MacIntel,59.88023952,65c5074098b851296ff0b7ed,65c547f5200212ad4b520164,,,,,,,,,,,,,,,,,,,,,,,,,,,,,459.7413,1,audio/Narrative7Situation9.wav,461.7569,,461.757,470.3894,"[[9.8,999],[9.4,1083],[9.4,1166],[9.4,1249],[9.4,1333],[9.2,1416],[7.8,1500],[7.4,1583],[7.4,1666],[7.4,1750],[7.4,1833],[7.4,1916],[7.4,1999],[7.4,2083],[7.3,2166],[7.3,2248],[7.3,2333],[7.3,2416],[7.3,2499],[7.3,2583],[7.2,2666],[7.2,2748],[7.2,2833],[7.2,2916],[7.2,2999],[7,3082],[6.7,3166],[6.5,3250],[6.4,3333],[6.4,3416],[6.4,3500],[6.4,3582],[6.4,3666],[6.4,3749],[6.4,3832],[6.4,3915],[6.4,3999],[6.4,4083],[6.4,4166],[6.4,4249],[6.4,4333],[6.4,4416],[6.4,4498],[6.4,4583],[6.4,4665],[6.4,4749],[6.4,4832],[6.4,4915],[6.4,4999],[6.4,5083],[6.4,5166],[6.4,5249],[6.4,5333],[6.4,5416],[6.4,5498],[6.4,5582],[6.4,5665],[6.4,5749],[6.4,5833],[6.4,5916],[6.4,5998],[6.4,6083],[6.4,6165],[5.8,6250],[5.7,6332],[5.5,6416],[5.2,6499],[4.8,6582],[4.5,6665],[4.5,6748],[4.5,6833],[4.5,6916],[4.5,6999],[4.5,7083],[4.5,7166],[4.5,7248],[4.5,7332],[4.5,7416],[4.5,7499],[4.5,7583],[4.5,7665],[4.5,7748],[4.5,7833],[4.5,7916],[4.5,7999],[4.5,8082],[4.5,8165],[4.5,8249],[4.5,8333],[4.5,8415],[4.5,8499],[4.5,8582]]",1,0,470.3896,471.5569,4.531791722,0.6963,"[{""rating"":4.531791722135203,""responseTime"":0.6962999999998374}]",space,0.6359,,471.5572,All the time,100,471.5593,,,[],,0,18,18,18,1,audio/Narrative8Situation9.wav,audio/Narrative7Situation9.wav,audio/Narrative6Situation9.wav,audio/Narrative5Situation9.wav,3,2,4,3,,,,,,,,,,,,,,,,,,,,,,,,,,,,,,,,,,,,,
,,,,,,5d74001d391b6600175f433b,2024-02-08_13h30.49.074,group3.1-3.2-social-tom,2023.2.2,MacIntel,59.88023952,65c5074098b851296ff0b7ed,65c547f5200212ad4b520164,,,,,,,,,,,,,,,,,,,,,,,,,,,474.1077,476.6901,476.7013,2,audio/Narrative13Situation2.wav,476.7013,,476.7013,506.4397,"[[4.6,572],[4.6,654],[4.6,737],[4.6,821],[4.6,905],[4.6,988],[4.6,1072],[3.9,1154],[2.7,1238],[1.9,1322],[1.9,1404],[1.8,1488],[1.8,1571],[1.8,1655],[1.8,1737],[0.4,1822],[0.1,13572],[0.4,13655],[0.4,13738],[0.4,13821],[0.9,13905],[1.1,13988],[0.4,14072]]",1,0,506.44,506.4495,,,[],,,,506.4495,Not at all,0,506.4501,,,[],,0,0,0,0,1,audio/Narrative13Situation2.wav,audio/Narrative13Situation2.wav,audio/Narrative13Situation2.wav,audio/Narrative13Situation2.wav,2,2,2,2,,,,,471.5602,474.1072,space,2.0199,,,,,,,,,,,,,,,,,,,,,,,,,,,,,
,,,,,,5d74001d391b6600175f433b,2024-02-08_13h30.49.074,group3.1-3.2-social-tom,2023.2.2,MacIntel,59.88023952,65c5074098b851296ff0b7ed,65c547f5200212ad4b520164,,,,,,,,,,,,,,,,,,,,,,,,,,,,,506.4502,2,audio/Narrative6Situation1.wav,508.4563,,508.4564,535.0394,"[[999,0],[999,82],[999,166],[999,249],[999,333],[999,416],[999,499],[999,583],[999,666],[999,749],[999,833],[999,916],[999,999],[5,1083],[3.2,1166],[2.2,1249],[2,1332],[2,1416],[2,1499],[2,1583],[2,1666],[2,1749],[2,1833],[2,1916],[2,1999],[2,2083],[2,2166],[2,2249],[2,2333],[2,2416],[2,2499],[2,2582],[2,2665],[2,2749],[2,2833],[2,2915],[2,2999],[2,3083],[2,3166],[2,3249],[2,3332],[2,3416],[2,3499],[5.6,3583],[13.6,3666],[20.4,3749],[25.7,3833],[36.4,3916],[42.9,3999],[44,4083],[44,4165],[44,4249],[46.6,4333],[56.2,4416],[57,4499],[57,4583],[57,4666],[60.8,4750],[69,4832],[69.3,4916],[69.3,4999],[69.3,5082],[69.3,5166],[69.3,5249],[69.3,5332],[69.3,5416],[69.3,5499],[69.3,5582],[69.3,5666],[69.3,5749],[69.3,5833],[69.3,5916],[69.3,5999],[69.3,6082],[69.3,6166],[69.3,6249],[69.3,6333],[69.3,6416],[69.3,6499],[69.3,6582],[69.3,6666],[69.3,6749],[69.3,6833],[69.3,6916],[69.3,6999],[69.3,7082],[69.3,7166],[69.3,7249],[69.3,7332],[69.3,7415],[69.3,7499],[69.3,7582],[68.4,7666],[68.1,7748],[67.9,7833],[67.7,7916],[67.3,7999],[67,8083],[66.5,8166],[65.9,8249],[65.3,8333],[65.1,8416],[65.1,8499],[65.1,8582],[65.1,8666],[65.1,8749],[65.1,8832],[65.1,8916],[65.1,8999],[65.1,9082],[65.1,9166],[65.1,9249],[65.1,9332],[65.1,9416],[65.1,9499],[65.1,9582],[65.1,9666],[65.1,9749],[65.1,9832],[65.1,9916],[65.1,9999],[65.1,10082],[65.1,10165],[65.1,10249],[65.1,10332],[65.1,10416],[65.1,10499],[65.1,10582],[65.1,10666],[65.1,10749],[65.1,10832],[65.1,10916],[65.1,10999],[65.1,11082],[65.1,11166],[65.1,11248],[65.1,11332],[65.1,11416],[65.1,11499],[65.1,11582],[65.1,11666],[65.1,11749],[65.1,11833],[65.1,11916],[65.1,11998],[65.1,12082],[65.1,12166],[65.1,12249],[65.1,12332],[65.1,12416],[65.1,12499],[65.1,12582],[65.1,12665],[65.9,12749],[68,12833],[69.3,12916],[71.9,12999],[75.7,13082],[77.7,13166],[79.1,13249],[80.7,13333],[82.3,13416],[83.2,13499],[83.3,13582],[83.3,13666],[83.3,13749],[83.3,13832],[83.3,13916],[83.3,13999],[83.3,14082],[83.3,14165],[83.3,14249],[83.3,14332],[83.3,14416],[83.3,14498],[83.3,14582],[83.3,14666],[83.3,14749],[83.3,14832],[83.3,14916],[83.3,14999],[83.3,15082],[83.3,15165],[83.3,15249],[83.3,15332],[83.3,15415],[83.3,15499],[83.3,15582],[83.3,15666],[83.3,15749],[83.3,15832],[83.3,15916],[83.4,15999],[83.8,16083],[84.2,16166],[84.5,16249],[84.7,16333],[85,16416],[85.5,16499],[86.2,16583],[86.9,16666],[88.3,16749],[90.1,16833],[91,16916],[91.6,16999],[93.1,17082],[94.5,17166],[95.4,17249],[95.5,17332],[95.5,17416],[95.4,17499],[95.3,17582],[95.1,17666],[95.1,17749],[95,17831],[95,17916],[95,17999],[95,18082],[95,18166],[95,18249],[95,18332],[95,18416],[95,18499],[95,18582],[95,18665],[95,18749],[95,18832],[95,18916],[95,18999],[95,19082],[95,19165],[95,19249],[95,19332],[95,19416],[95,19499],[95,19582],[95,19666],[95,19748],[95,19831],[95,19916],[95,19998],[95,20082],[95,20165],[95,20249],[95,20332],[95,20416],[95,20499],[95,20582],[95,20666],[95,20749],[95,20831],[94.9,20915],[94.9,20999],[94.9,21082],[94.9,21165],[94.9,21249],[94.8,21332],[94.5,21416],[94.4,21499],[94.4,21582],[94.3,21666],[94.3,21749],[94.2,21832],[94.2,21916],[94.2,21999],[94.1,22082],[94,22165],[93.6,22249],[92.7,22333],[91.7,22415],[90.5,22499],[89.5,22582],[88.2,22666],[86.7,22749],[85.7,22833],[84.6,22916],[83.2,22999],[80.7,23082],[78.5,23166],[76.5,23249],[74.9,23333],[74.5,23416],[74.5,23499],[74.5,23582],[74.5,23665],[74.5,23749],[74.5,23832],[74.5,23915],[74.5,23999],[74.5,24082],[74.5,24166],[74.5,24249],[74.5,24332],[74.3,24416],[74,24499],[73.9,24582],[73.7,24666],[73.4,24749],[73.2,24832],[72.7,24915],[72.2,24999],[71.3,25082],[70.1,25165],[69,25249],[67.2,25332],[65.6,25416],[64.5,25499],[64.1,25582],[64.1,25666],[64.1,25749],[64.1,25832],[64.1,25916],[64.1,25999],[64.1,26082],[64.1,26165],[64.1,26249],[64.1,26332],[64.1,26416],[64.1,26499],[64.1,26582]]",1,0,535.0396,537.6723,85.14593983,1.8788,"[{""rating"":85.14593982644634,""responseTime"":1.878799999999842}]",space,2.0888,,537.6723,Half the time,50,537.6754,,,[],,0,1,1,1,1,audio/Narrative7Situation1.wav,audio/Narrative8Situation1.wav,audio/Narrative5Situation1.wav,audio/Narrative6Situation1.wav,2,5,5,2,,,,,,,,,,,,,,,,,,,,,,,,,,,,,,,,,,,,,
,,,,,,5d74001d391b6600175f433b,2024-02-08_13h30.49.074,group3.1-3.2-social-tom,2023.2.2,MacIntel,59.88023952,65c5074098b851296ff0b7ed,65c547f5200212ad4b520164,,,,,,,,,,,,,,,,,,,,,,,,,,,,,537.6758,2,audio/Narrative6Situation2.wav,540.6892,,540.6892,569.2055,"[[999,9],[999,83],[999,166],[999,249],[999,333],[999,416],[999,499],[999,582],[999,666],[999,749],[999,833],[999,916],[999,999],[999,1083],[999,1166],[999,1249],[999,1333],[999,1416],[999,1499],[999,1583],[999,1666],[999,1750],[999,1833],[999,1916],[999,1999],[999,2083],[999,2166],[999,2249],[999,2332],[999,2415],[999,2499],[999,2583],[999,2666],[999,2749],[999,2833],[999,2916],[999,2999],[999,3083],[999,3166],[999,3249],[999,3332],[999,3416],[999,3499],[999,3583],[999,3666],[999,3749],[999,3833],[999,3916],[58.7,3999],[59.5,4083],[62.2,4166],[68,4250],[70,4333],[69.6,4416],[69.6,4499],[69.6,4583],[69.6,4666],[69.6,4749],[69.6,4833],[69.6,4916],[69.6,4999],[69.6,5083],[70.6,5166],[70.6,5249],[70.6,5333],[70.6,5415],[70.6,5499],[71,5583],[75.1,5666],[78.6,5749],[80.5,5833],[81.9,5916],[82.4,6000],[82.4,6083],[82.4,6166],[82.4,6249],[82.4,6333],[82.4,6416],[82.4,6499],[82.4,6582],[82.4,6666],[82.4,6749],[82.1,6833],[81.4,6916],[81.2,6999],[81.2,7082],[81.2,7166],[81.2,7249],[81.2,7333],[81.2,7415],[81.2,7499],[81.2,7582],[81.2,7666],[81.2,7749],[81.2,7832],[81.2,7916],[81.2,7999],[81.2,8083],[81.2,8165],[81.2,8249],[81.2,8333],[81.2,8416],[81.2,8499],[81.2,8583],[81.2,8665],[81.2,8749],[81.2,8832],[81.2,8916],[81.2,8999],[81.2,9083],[81.2,9166],[81.2,9249],[80.7,9333],[79.7,9416],[78.8,9499],[78.2,9583],[77.6,9666],[77.5,9749],[77.5,9832],[77.5,9916],[77.5,9999],[77.5,10082],[77.5,10165],[77.5,10249],[73.3,10333],[68.1,10416],[66.9,10499],[66.5,10582],[66.5,10666],[66.5,10749],[66.5,10832],[66.5,10916],[64.6,11000],[61.8,11083],[59.4,11166],[58.4,11249],[58.2,11332],[57.9,11416],[57.9,11499],[57.9,11583],[57.9,11666],[57.9,11749],[56.9,11833],[54.1,11916],[52.8,11999],[52.3,12083],[52.2,12166],[52.2,12249],[52.2,12333],[52.2,12416],[52.2,12498],[52.2,12582],[52.2,12666],[52.2,12749],[52.2,12832],[52.2,12916],[52.2,12999],[52.2,13082],[51.9,13166],[51.3,13249],[50,13333],[46,13416],[37.2,13499],[21.4,13582],[15.2,13666],[14.9,13749],[14.9,13832],[14.9,13916],[12.8,14000],[11.2,14082],[11.2,14166],[11.2,14249],[11.2,14332],[11.2,14416],[11.2,14499],[11.2,14582],[11.2,14666],[11.2,14749],[11.2,14832],[11.2,14915],[11.2,14998],[11.2,15082],[11.2,15166],[11.2,15249],[11.2,15332],[11.2,15416],[11.2,15499],[11.2,15582],[11.2,15666],[11.2,15749],[11.2,15832],[11.2,15916],[11.2,15999],[11.2,16082],[11.2,16166],[11.2,16249],[11.2,16332],[11.2,16416],[11.2,16499],[11.2,16582],[11.2,16665],[11.2,16749],[11.2,16832],[11.2,16916],[11.3,16999],[11.3,17082],[11.4,17166],[11.4,17249],[11.4,17332],[11.4,17416],[11.4,17499],[11.4,17582],[11.4,17666],[11.4,17749],[11.4,17832],[11.4,17916],[11.4,17999],[11.4,18082],[11.4,18166],[11.5,18249],[11.7,18333],[11.9,18416],[12.7,18499],[13.6,18583],[14.6,18666],[16.1,18749],[18.1,18832],[18.8,18916],[18.9,18999],[18.9,19082],[18.9,19165],[18.9,19249],[18.9,19332],[18.9,19416],[18.9,19499],[18.9,19582],[18.9,19666],[18.9,19749],[18.9,19832],[18.9,19915],[18.9,19999],[18.9,20082],[18.9,20166],[19.4,20249],[20.9,20333],[22,20416],[22.5,20499],[23.1,20582],[23.5,20666],[23.8,20749],[24.1,20832],[24.5,20916],[24.9,20999],[24.9,21082],[24.9,21165],[24.9,21249],[24.9,21332],[24.9,21415],[24.9,21499],[24.9,21581],[24.9,21665],[24.9,21749],[24.9,21832],[24.9,21915],[24.9,21999],[24.9,22082],[24.9,22166],[24.9,22249],[24.9,22332],[24.9,22415],[24.9,22499],[24.9,22582],[24.9,22666],[24.9,22749],[24.9,22832],[24.9,22916],[24.9,22999],[24.9,23082],[24.9,23165],[24.9,23249],[24.8,23332],[24.8,23415],[24.8,23498],[24.8,23582],[24.8,23666],[25.1,23749],[25.1,23832],[25.1,23916],[25.1,23999],[25.1,24082],[25.1,24166],[25.1,24249],[25.1,24332],[25.1,24416],[25.1,24498],[25.1,24582],[25.1,24666],[25.1,24749],[25.1,24832],[25.1,24916],[25.1,24999],[25.1,25081],[24.9,25166],[23.9,25249],[20.1,25333],[15.1,25416],[12,25499],[11.4,25582],[11.4,25666],[11.4,25749],[11.4,25832],[11.4,25916],[11.4,25999],[11.4,26081],[11.4,26166],[11.4,26249],[11.4,26332],[11.4,26416],[11.4,26499],[11.4,26582],[11.4,26666],[11.3,26749],[10.8,26833],[10.1,26916],[9.2,26999],[8.2,27082],[7,27166],[6.2,27249],[5.8,27332],[5.7,27416],[5.7,27499],[5.7,27582],[5.7,27666],[5.7,27749],[5.7,27832],[5.7,27916],[5.7,27999],[5.7,28082],[5.7,28165],[5.7,28249],[5.7,28332],[5.7,28416],[5.7,28499]]",1,0,569.2057,571.7387,51.16970335,1.9625,"[{""rating"":51.16970335356504,""responseTime"":1.962500000000091}]",space,1.9928,,571.7388,Not at all,0,571.7414,,,[],,0,2,2,2,1,audio/Narrative7Situation2.wav,audio/Narrative8Situation2.wav,audio/Narrative5Situation2.wav,audio/Narrative6Situation2.wav,3,3,3,3,,,,,,,,,,,,,,,,,,,,,,,,,,,,,,,,,,,,,
,,,,,,5d74001d391b6600175f433b,2024-02-08_13h30.49.074,group3.1-3.2-social-tom,2023.2.2,MacIntel,59.88023952,65c5074098b851296ff0b7ed,65c547f5200212ad4b520164,,,,,,,,,,,,,,,,,,,,,,,,,,,,,571.7416,2,audio/Narrative6Situation3.wav,576.7553,,576.7553,589.3719,"[[44.6,1333],[21.4,1416],[11.3,1499],[9.3,1583],[9.2,1666],[9.2,1749],[9.2,1833],[9.2,1916],[9.2,1999],[9,2083],[9,2165],[9,2249],[9.1,2333],[9.2,2416],[9.2,2499],[9.2,2583],[9.2,2666],[9.4,2750],[9.6,2833],[9.9,2916],[10.3,2999],[10.7,3083],[11.1,3166],[11.4,3248],[11.5,3333],[11.5,3416],[11.5,3499],[11.5,3583],[11.5,3666],[11.5,3749],[11.5,3833],[11.5,3915],[11.5,3999],[12,4083],[12.4,4166],[12.6,4250],[12.9,4333],[15.3,4416],[20.9,4500],[28.8,4583],[32.2,4666],[32.4,4749],[32.4,4832],[32.4,4916],[33.7,5000],[39.3,5083],[41,5166],[41.8,5250],[43.9,5333],[44.5,5416],[44.4,5499],[44.4,5583],[44.4,5666],[44.4,5749],[44.4,5833],[44.4,5915],[44.4,5999],[44.4,6083],[44.4,6166],[44.4,6249],[44.4,6333],[44.4,6416],[44.4,6499],[44.4,6583],[44.4,6666],[44.4,6749],[44.4,6833],[44.4,6916],[44.4,6999],[44.4,7082],[44.4,7166],[44.4,7249],[44.4,7333],[44.8,7416],[48.2,7499],[49.7,7583],[50.2,7666],[50.4,7749],[50.3,7833],[50.3,7916],[50.3,7999],[50.3,8083],[50.3,8166],[50.3,8249],[50.3,8332],[50.3,8415],[50.3,8499],[50.3,8583],[50.3,8666],[50.3,8749],[50.3,8833],[50.3,8916],[50.3,8999],[50.3,9083],[50.3,9166],[50.3,9249],[51.1,9333],[52.3,9416],[53.4,9500],[54.7,9583],[55.6,9666],[55.9,9749],[55.9,9833],[55.9,9916],[55.9,9999],[55.9,10083],[55.9,10165],[55.9,10249],[55.9,10332],[58.5,10415],[61.2,10499],[61.6,10583],[61.7,10666],[61.7,10749],[61.7,10833],[61.7,10916],[61.7,10999],[61.7,11083],[61.7,11166],[61.7,11249],[61.7,11332],[61.7,11416],[61.7,11499],[61.7,11582],[61.7,11666],[61.7,11749],[61.7,11832],[62.7,11916],[65.9,11999],[67.7,12082],[67.9,12166],[67.9,12249],[67.9,12333],[67.9,12415],[67.9,12499],[67.9,12583]]",1,0,589.3721,591.3376,50.00542386,1.4618,"[{""rating"":50.005423857025264,""responseTime"":1.461799999999812}]",space,1.4273,,591.3376,Half the time,50,591.3403,,,[],,0,3,3,3,1,audio/Narrative7Situation3.wav,audio/Narrative8Situation3.wav,audio/Narrative5Situation3.wav,audio/Narrative6Situation3.wav,8,4,3,5,,,,,,,,,,,,,,,,,,,,,,,,,,,,,,,,,,,,,
,,,,,,5d74001d391b6600175f433b,2024-02-08_13h30.49.074,group3.1-3.2-social-tom,2023.2.2,MacIntel,59.88023952,65c5074098b851296ff0b7ed,65c547f5200212ad4b520164,,,,,,,,,,,,,,,,,,,,,,,,,,,,,591.3406,2,audio/Narrative6Situation4.wav,593.3549,,593.3549,605.955,"[[50.1,1166],[49.8,1249],[49.5,1333],[47.9,1416],[46.9,1500],[46.6,1583],[46.3,1666],[46.3,1750],[46.3,1832],[46.3,1915],[46.3,2000],[46.3,2083],[46.3,2165],[46.3,2249],[46.3,2333],[46.3,2416],[46.3,2500],[46.3,2583],[46.3,2666],[46.1,2749],[46.5,2833],[47.1,2916],[47.2,3000],[47.2,3083],[47.2,3166],[47.2,3250],[50.1,3333],[55.6,3416],[57.1,3500],[57.2,3583],[57.2,3666],[57.2,3750],[57.2,3833],[57.2,3916],[57.2,3999],[57.2,4083],[57.2,4166],[57.2,4249],[57.3,4333],[59.5,4416],[64.3,4500],[67.4,4583],[70.4,4666],[71.9,4750],[71.5,4833],[71.5,4916],[71.9,5000],[78,5083],[82.4,5166],[84.3,5250],[85.5,5333],[85.8,5416],[85.8,5499],[85.8,5583],[85.8,5666],[85.8,5750],[85.8,5833],[85.8,5916],[85.8,6000],[85.8,6083],[85.8,6166],[85.8,6249],[85.8,6333],[85.8,6416],[85.8,6499],[85.8,6583],[85.8,6666],[85.8,6749],[85.8,6833],[85.6,6916],[84.9,7000],[84.5,7083],[84.3,7166],[83.9,7250],[83.4,7332],[83.1,7415],[83.1,7500],[83.1,7583],[83.1,7666],[83.1,7749],[83.1,7833],[82.9,7916],[80.9,8000],[79.5,8083],[79.4,8166],[79.3,8249],[79.3,8333],[79.3,8416],[79.3,8499],[79.3,8583],[79.3,8666],[79.3,8749],[79.3,8833],[79.3,8916],[79.1,9000],[78.3,9083],[74.5,9166],[59,9250],[37.5,9332],[32.2,9416],[32.2,9500],[32.2,9583],[32.2,9666],[32.2,9749],[32.2,9833],[32.2,9916],[32.2,9999],[32.2,10083],[32.2,10166],[32.1,10250],[32.1,10333],[32.1,10416],[32.1,10499],[32.1,10583],[32.1,10666],[32.7,10750],[35.9,10833],[43.6,10916],[50,11000],[50.9,11082],[53.1,11166],[57.6,11250],[58.9,11333],[59,11416],[62.1,11500],[67,11583],[67.3,11666],[67.2,11749],[67.2,11833],[67.2,11916],[67.2,11999],[67.2,12083],[67.2,12166],[67.2,12249],[67.2,12333],[67.2,12416],[67.2,12499],[67.2,12583]]",1,0,605.9552,608.3213,52.08061914,1.6783,"[{""rating"":52.080619138602444,""responseTime"":1.6782999999998083}]",space,1.828,,608.3213,All the time,100,613.1715,99.96419047,3.3285,"[{""rating"":99.96419047369275,""responseTime"":3.3284999999999627}]",space,0,4,4,4,1,audio/Narrative7Situation4.wav,audio/Narrative8Situation4.wav,audio/Narrative5Situation4.wav,audio/Narrative6Situation4.wav,3,3,1,2,,,4.3049,,,,,,,,,,,,,,,,,,,,,,,,,,,,,,,,,,
,,,,,,5d74001d391b6600175f433b,2024-02-08_13h30.49.074,group3.1-3.2-social-tom,2023.2.2,MacIntel,59.88023952,65c5074098b851296ff0b7ed,65c547f5200212ad4b520164,,,,,,,,,,,,,,,,,,,,,,,,,,,,,613.1719,2,audio/Narrative6Situation5.wav,615.188,,615.1881,623.1545,"[[72.7,500],[28.4,1083],[26.6,1166],[26.1,1250],[26.4,1333],[26.7,1416],[26.7,1499],[26.7,1583],[26.7,1666],[26.7,1749],[26.7,1833],[26.7,1916],[26.7,1999],[26.7,2083],[26.7,2166],[26.7,2249],[26.7,2332],[27.2,2416],[28.7,2500],[29.9,2583],[31.7,2666],[33.4,2750],[35,2833],[36.2,2915],[37.7,2999],[39.5,3083],[40.9,3166],[41.6,3250],[41.8,3333],[41.8,3416],[41.8,3499],[41.8,3583],[41.8,3666],[41.8,3749],[41.8,3832],[41.8,3916],[41.8,3999],[41.8,4083],[41.8,4166],[41.8,4249],[41.8,4332],[41.8,4416],[41.8,4499],[41.8,4583],[41.8,4666],[41.8,4749],[41.8,4833],[41.8,4916],[41.8,5000],[41.8,5082],[41.8,5166],[41.8,5249],[41.8,5333],[41.8,5416],[41.8,5499],[41.8,5583],[41.7,5666],[41.5,5750],[41.2,5833],[40.7,5916],[40.4,5999],[40.2,6082],[39.7,6166],[38.8,6250],[38,6332],[37.3,6416],[36.3,6499],[35.3,6582],[34.6,6666],[34.3,6749],[34.3,6833],[34.3,6916],[34.3,6999],[34.3,7082],[34.3,7165],[34.3,7249],[34.3,7332],[34.3,7416],[34.3,7499],[34.3,7583],[34.3,7666],[34.3,7749],[34.3,7832],[34.3,7916]]",1,0,623.1546,625.4213,36.89344489,1.662,"[{""rating"":36.89344488574232,""responseTime"":1.6619999999999209}]",space,1.7303,,625.4213,All the time,100,625.4234,,,[],,0,5,5,5,1,audio/Narrative7Situation5.wav,audio/Narrative8Situation5.wav,audio/Narrative5Situation5.wav,audio/Narrative6Situation5.wav,5,2,5,2,,,,,,,,,,,,,,,,,,,,,,,,,,,,,,,,,,,,,
,,,,,,5d74001d391b6600175f433b,2024-02-08_13h30.49.074,group3.1-3.2-social-tom,2023.2.2,MacIntel,59.88023952,65c5074098b851296ff0b7ed,65c547f5200212ad4b520164,,,,,,,,,,,,,,,,,,,,,,,,,,,,,625.4237,2,audio/Narrative6Situation6.wav,627.4378,,627.4378,638.5212,"[[35.7,750],[24.4,833],[16.2,916],[14,1000],[14,1083],[14,1166],[14,1250],[14,1333],[14,1416],[14,1499],[14.1,1583],[14.2,1666],[14.3,1750],[14.7,1833],[15.9,1916],[17,2000],[17.3,2082],[17.4,2166],[17.4,2250],[17.4,2332],[17.4,2415],[17.4,2499],[17.4,2583],[17.4,2666],[17.4,2750],[17.4,2833],[17.4,2916],[17.4,3000],[17.4,3082],[17.3,3166],[17.1,3250],[17,3333],[16.6,3416],[16.2,3500],[16.1,3583],[15.6,3666],[15.3,3750],[15.3,3833],[15.3,3916],[15.3,3999],[15.3,4082],[15.3,4166],[15.3,4249],[15.3,4333],[15.3,4416],[15.3,4499],[15.3,4583],[15.3,4666],[15.3,4750],[15.3,4833],[15.3,4916],[15.3,4999],[15.3,5083],[15.3,5166],[15.3,5250],[15.3,5332],[15.3,5416],[15.3,5499],[15.3,5583],[15.3,5666],[15.3,5749],[15.3,5833],[15.3,5916],[15.3,5999],[15.3,6083],[15,6166],[14.6,6250],[14.1,6333],[13.9,6416],[13.6,6499],[13.5,6582],[13.4,6666],[13.4,6749],[13.3,6833],[13.2,6916],[12.9,6999],[12.5,7083],[11.9,7166],[10.5,7250],[9.5,7333],[9.2,7416],[9.2,7499],[9.2,7583],[9.2,7666],[9.2,7749],[9.2,7833],[9.2,7916],[9.2,7999],[9.2,8083],[9.2,8166],[9.2,8249],[9.2,8333],[9.2,8416],[9.2,8499],[9.2,8582],[9.2,8666],[9.2,8749],[9.2,8833],[9.2,8916],[9.2,8999],[9.2,9083],[9.2,9166],[9.2,9249],[9.2,9333],[9.2,9416],[9.2,9499],[9.2,9583],[9.2,9666],[9.2,9749],[9.5,9833],[10.8,9916],[13.7,10000],[19.5,10083],[25.2,10166],[28.9,10250],[32.5,10333],[37.7,10416],[43,10500],[44.9,10583],[45,10666],[45,10749],[45,10833],[45,10916],[45,10999],[45,11083]]",1,0,638.5214,641.2043,30.43348404,2.2452,"[{""rating"":30.43348404450324,""responseTime"":2.2452000000001817}]",space,2.1436,,641.2043,Not at all,0,641.2068,,,[],,0,6,6,6,1,audio/Narrative7Situation6.wav,audio/Narrative8Situation6.wav,audio/Narrative5Situation6.wav,audio/Narrative6Situation6.wav,3,2,3,2,,,,,,,,,,,,,,,,,,,,,,,,,,,,,,,,,,,,,
,,,,,,5d74001d391b6600175f433b,2024-02-08_13h30.49.074,group3.1-3.2-social-tom,2023.2.2,MacIntel,59.88023952,65c5074098b851296ff0b7ed,65c547f5200212ad4b520164,,,,,,,,,,,,,,,,,,,,,,,,,,,,,641.2069,2,audio/Narrative6Situation7.wav,646.2209,,646.221,671.0869,"[[29.7,1833],[21.2,1916],[15.1,1999],[14.5,2083],[14.5,2165],[14.5,2249],[13.7,2333],[10.9,2416],[10.3,2499],[9.9,2583],[9.7,2666],[9.6,2749],[9.6,2832],[9.6,2916],[9.6,2999],[9.6,3083],[9.6,3166],[9.6,3249],[9.6,3333],[11.3,3416],[13.6,3499],[16.5,3583],[20.2,3666],[24.1,3749],[28.9,3833],[30.4,3916],[30.4,3999],[30.4,4082],[30.4,4166],[30.4,4249],[30.4,4332],[30.4,4416],[32.9,4500],[36.3,4583],[38.2,4665],[38.8,4749],[38.8,4832],[38.8,4916],[38.8,4999],[38.8,5083],[40.5,5166],[52.1,5249],[55.8,5333],[60.1,5416],[63.5,5500],[64.5,5583],[65.3,5666],[67.1,5749],[74.5,5833],[77.3,5916],[77.6,6000],[77.6,6082],[77.6,6166],[77.6,6249],[77.6,6332],[77.6,6416],[77.6,6500],[77.6,6583],[77.6,6666],[77.6,6749],[77.6,6832],[77.6,6916],[77.6,6999],[77.6,7083],[77.6,7166],[77.6,7249],[77.6,7332],[77.5,7416],[77.3,7499],[77.3,7582],[77.3,7666],[79.9,7749],[84.5,7833],[85.8,7916],[88.1,7999],[90.4,8082],[91.9,8166],[92.1,8250],[92.9,8333],[93.5,8416],[93.5,8499],[93.5,8583],[93.5,8666],[93.5,8749],[93.5,8833],[93.5,8916],[93.5,8999],[93.5,9082],[93.5,9166],[93.5,9249],[93.5,9332],[93.5,9416],[93.5,9499],[93.5,9583],[93.5,9665],[93.5,9748],[93.5,9832],[93.5,9916],[93.5,9999],[93.5,10082],[93.5,10166],[93.5,10249],[93.5,10332],[93.5,10416],[93.5,10499],[93.5,10582],[93.5,10666],[93.5,10749],[93.5,10832],[93.5,10916],[93.5,10999],[93.5,11082],[93.5,11166],[93.5,11249],[93.5,11332],[93.5,11415],[93.4,11499],[93.3,11583],[93.2,11666],[93.1,11749],[93.1,11832],[93,11916],[92.8,11999],[92.7,12083],[92.4,12166],[92.2,12249],[92,12333],[91.7,12416],[91.4,12499],[91,12582],[90.6,12666],[90.3,12748],[90,12833],[89.8,12916],[89.6,12999],[88.9,13083],[88.2,13166],[88.1,13249],[88,13333],[87.8,13416],[87.6,13499],[87.5,13582],[87.5,13666],[87.5,13749],[87.5,13832],[87.5,13916],[87.2,13999],[87.1,14082],[87.1,14166],[87.1,14249],[87.1,14333],[87.1,14415],[87.1,14498],[87.1,14582],[87.1,14666],[87.1,14749],[87.1,14832],[87.2,14916],[87.4,14999],[87.7,15082],[88,15166],[88.1,15249],[88.2,15333],[88.3,15415],[88.6,15499],[88.7,15583],[88.8,15666],[89,15749],[89.2,15833],[89.5,15916],[89.7,16000],[89.8,16082],[89.8,16166],[89.8,16249],[89.8,16332],[89.8,16415],[89.8,16499],[89.8,16582],[89.8,16666],[89.8,16749],[89.8,16832],[89.8,16916],[89.8,16999],[89.8,17082],[89.8,17166],[89.8,17248],[89.8,17333],[89.8,17416],[89.8,17499],[89.8,17582],[89.8,17666],[93.5,17749],[95.6,17832],[96.1,17916],[97.3,17999],[97.5,18083],[97.5,18166],[97.5,18249],[97.7,18332],[98.2,18416],[98.7,18499],[98.8,18582],[98.8,18666],[98.8,18749],[98.8,18832],[98.8,18916],[98.8,18999],[98.7,19083],[98.6,19166],[98.6,19248],[98.6,19332],[98.5,19415],[98.3,19499],[98.1,19582],[98,19666],[97.8,19749],[97.3,19832],[96.9,19916],[96.7,19999],[96.5,20082],[96.5,20166],[96.5,20249],[96.5,20332],[96.5,20416],[96.5,20499],[96.5,20582],[96.8,20666],[96.9,20749],[97.2,20832],[97.4,20916],[97.4,20999],[97.4,21082],[97.4,21166],[97.4,21248],[97.4,21332],[97.4,21415],[97.4,21499],[97.4,21582],[97.4,21666],[97.4,21749],[97.4,21832],[97.4,21916],[97.4,21998],[97.4,22082],[97.4,22166],[97.4,22249],[97.4,22331],[97.4,22416],[97.4,22499],[97.4,22581],[97.4,22666],[97.4,22749],[97.4,22832],[97.4,22915],[97.4,22998],[97.4,23082],[97.4,23165],[97.4,23249],[97.4,23332],[97.4,23416],[97.4,23499],[97.4,23582],[97.4,23666],[97.4,23749],[97.4,23832],[97.3,23916],[97.3,23999],[97.3,24082],[97.3,24166],[97.3,24248],[97.3,24331],[97.3,24416],[97.3,24498],[97.3,24582],[97.3,24666],[97.3,24749],[97.3,24832]]",1,0,671.0873,673.0864,91.83159511,1.4792,"[{""rating"":91.83159510876675,""responseTime"":1.4791999999997643}]",space,1.4605,,673.0865,Half the time,50,673.0895,,,[],,0,7,7,7,1,audio/Narrative7Situation7.wav,audio/Narrative8Situation7.wav,audio/Narrative5Situation7.wav,audio/Narrative6Situation7.wav,5,3,4,5,,,,,,,,,,,,,,,,,,,,,,,,,,,,,,,,,,,,,
,,,,,,5d74001d391b6600175f433b,2024-02-08_13h30.49.074,group3.1-3.2-social-tom,2023.2.2,MacIntel,59.88023952,65c5074098b851296ff0b7ed,65c547f5200212ad4b520164,,,,,,,,,,,,,,,,,,,,,,,,,,,,,673.0898,2,audio/Narrative6Situation8.wav,678.1036,,678.1037,684.9541,"[[999,8],[999,83],[999,166],[999,249],[999,333],[999,416],[999,500],[999,583],[999,666],[999,750],[999,833],[999,916],[999,1000],[999,1082],[47.8,1166],[48.7,1250],[48.7,1333],[48.7,1416],[50.3,1500],[55.4,1583],[56.5,1666],[56.5,1749],[56.5,1833],[56.5,1916],[63.4,2000],[70.2,2082],[70.7,2166],[70.7,2250],[70.7,2333],[70.7,2416],[70.7,2499],[70.7,2583],[70.7,2666],[70.7,2749],[70.7,2832],[70.7,2916],[70.7,2999],[70.7,3083],[70.7,3166],[70.7,3249],[70.7,3333],[70.7,3416],[70.7,3500],[70.7,3583],[70.7,3666],[70.5,3750],[70.2,3832],[70.1,3916],[70,3999],[69.8,4083],[69.7,4166],[69.6,4249],[69.6,4333],[70.2,4416],[70.4,4499],[70.4,4582],[70.3,4666],[70.2,4750],[70.1,4833],[70,4916],[69.9,5000],[69.9,5083],[69.9,5166],[71.1,5250],[72.2,5333],[73.7,5416],[74.8,5500],[75.2,5582],[75.3,5666],[75,5749],[75,5832],[75,5916],[75,5999],[77.7,6083],[82,6166],[84.1,6250],[85.9,6333],[86.4,6416],[86.4,6499],[86.4,6583],[86.4,6666],[86.4,6749],[86.2,6832]]",1,0,684.9543,686.4535,78.76790173,1.0119,"[{""rating"":78.76790172704207,""responseTime"":1.0118999999999687}]",space,0.9577,,686.4536,Half the time,50,686.4553,,,[],,0,8,8,8,1,audio/Narrative7Situation8.wav,audio/Narrative8Situation8.wav,audio/Narrative5Situation8.wav,audio/Narrative6Situation8.wav,2,3,3,5,,,,,,,,,,,,,,,,,,,,,,,,,,,,,,,,,,,,,
,,,,,,5d74001d391b6600175f433b,2024-02-08_13h30.49.074,group3.1-3.2-social-tom,2023.2.2,MacIntel,59.88023952,65c5074098b851296ff0b7ed,65c547f5200212ad4b520164,,,,,,,,,,,,,,,,,,,,,,,,,,,,,686.4556,2,audio/Narrative6Situation9.wav,690.4702,,690.4703,700.4193,"[[78.6,833],[78,916],[77.6,1000],[77.6,1082],[77.6,1165],[77.6,1249],[77.6,1333],[77.6,1415],[77.6,1498],[77.6,1582],[77.5,1666],[77.4,1750],[77.4,1833],[77.4,1915],[77.4,1999],[77.4,2083],[77.4,2166],[77.3,2249],[77.3,2333],[77.2,2416],[77,2500],[76.8,2583],[76.2,2666],[75.7,2750],[75.1,2833],[74.9,2915],[74.7,3000],[74.6,3083],[74.6,3166],[74.6,3249],[74.6,3333],[74.6,3416],[74.6,3499],[74.6,3583],[74.6,3666],[74.6,3748],[74.6,3833],[74.6,3916],[74.6,3999],[74.6,4082],[74.6,4166],[74.6,4249],[74.6,4333],[73.9,4416],[72.6,4498],[72.2,4583],[72.2,4666],[72.2,4749],[72.2,4833],[72.2,4916],[72.4,4999],[73.2,5083],[74.6,5166],[75.9,5249],[77,5333],[77.7,5416],[78.4,5499],[82.3,5583],[90.8,5666],[92.8,5749],[92.8,5833],[92.8,5916],[92.8,5999],[92.8,6083],[92.8,6166],[92.8,6249],[92.8,6332],[92.8,6416],[92.8,6499],[92.8,6583],[92.8,6666],[92.8,6749],[92.8,6833],[92.8,6916],[92.8,7000],[92.9,7083],[92.9,7166],[92.9,7249],[92.9,7333],[92.9,7416],[92.9,7499],[93.2,7583],[93.5,7666],[93.8,7749],[94.1,7833],[94.5,7916],[94.8,7999],[95.1,8083],[95.3,8166],[95.4,8249],[95.4,8332],[95.4,8416],[95.4,8499],[95.4,8582],[95.4,8666],[95.4,8749],[95.4,8832],[95.4,8916],[95.4,8999],[95.4,9083],[95.4,9165],[95.4,9249],[95.4,9333],[95.4,9416],[95.4,9499],[95.4,9582],[95.4,9666],[95.4,9749],[95.4,9833],[95.4,9916]]",1,0,700.4195,702.7201,88.93011946,1.747,"[{""rating"":93.67241539383639,""responseTime"":1.1627999999998337},{""rating"":88.93011945755767,""responseTime"":1.7469999999999573}]",space,1.7681,,702.7202,Half the time,50,702.7226,,,[],,0,9,9,9,1,audio/Narrative7Situation9.wav,audio/Narrative8Situation9.wav,audio/Narrative5Situation9.wav,audio/Narrative6Situation9.wav,2,3,3,4,,,,,,,,,,,,,,,,,,,,,,,,,,,,,,,,,,,,,
,,,,,,5d74001d391b6600175f433b,2024-02-08_13h30.49.074,group3.1-3.2-social-tom,2023.2.2,MacIntel,59.88023952,65c5074098b851296ff0b7ed,65c547f5200212ad4b520164,,,,,,,,,,,,,,,,,,,,,,,,,,,,,702.723,2,audio/Narrative5Situation1.wav,707.7367,,707.7367,721.0363,"[[5.3,1500],[4.7,1583],[3.4,1666],[1.4,1749],[0.9,1833],[0.8,1916],[0.8,1999],[0.8,2082],[0.8,2166],[0.8,2249],[0.8,2333],[0.8,2416],[0.8,2499],[0.8,2583],[0.8,2666],[0.8,2749],[0.8,2833],[0.8,2916],[0.8,2999],[0.8,3083],[0.8,3166],[0.8,3249],[0.8,3333],[0.8,3415],[0.8,3499],[0.8,3582],[0.8,3666],[0.8,3749],[0.8,3833],[0.8,3916],[0.8,3999],[0.8,4083],[0.8,4165],[0.8,4249],[0.8,4333],[0.8,4416],[0.8,4499],[0.8,4583],[0.8,4666],[0.8,4749],[0.8,4833],[0.8,4916],[0.8,4999],[0.8,5082],[0.8,5166],[0.8,5249],[0.8,5332],[0.8,5416],[0.8,5499],[0.8,5583],[0.8,5665],[0.8,5749],[0.8,5832],[0.8,5916],[0.8,5999],[0.8,6083],[0.8,6166],[0.8,6249],[0.8,6333],[0.8,6416],[0.8,6499],[0.8,6583],[0.8,6666],[0.8,6749],[1.1,6832],[4.2,6916],[8.1,7000],[14.8,7083],[21.7,7166],[27.4,7250],[31.3,7333],[34.1,7416],[38.4,7499],[41,7582],[41.2,7666],[41.2,7749],[41.2,7832],[41.2,7916],[41.2,7999],[41.2,8083],[41.2,8166],[41.2,8249],[46.8,8333],[58.8,8416],[61.4,8499],[61.5,8582],[61.5,8666],[61.5,8749],[61.4,8833],[61.4,8916],[61.4,8999],[61.4,9082],[61.4,9166],[61.4,9249],[61.4,9332],[61.4,9416],[61.4,9499],[61.4,9583],[61.4,9666],[61.4,9749],[61.4,9832],[61.4,9915],[61.4,9999],[61.4,10082],[61.4,10166],[61.4,10249],[61.4,10332],[61.4,10416],[61.4,10499],[61.1,10583],[56.9,10666],[52.5,10749],[48.2,10833],[44.7,10916],[41.3,11000],[39.4,11083],[38.1,11166],[37.4,11249],[37.3,11332],[37.3,11416],[37.3,11499],[37.3,11582],[37.3,11666],[37.3,11749],[37.3,11832],[37.3,11916],[37.3,11999],[37.3,12082],[37.3,12165],[37.3,12249],[37.3,12332],[37.3,12416],[37.3,12499],[37.3,12582],[37.3,12666],[37.3,12749],[37.3,12832],[37.3,12916],[37.3,12999],[37.3,13083],[37.3,13166],[37.3,13249]]",1,0,721.0365,723.3694,31.42469497,1.6458,"[{""rating"":31.424694967233048,""responseTime"":1.6457999999998947}]",space,1.7923,,723.3695,Not at all,0,723.3716,,,[],,0,10,10,10,1,audio/Narrative8Situation1.wav,audio/Narrative7Situation1.wav,audio/Narrative6Situation1.wav,audio/Narrative5Situation1.wav,5,2,2,5,,,,,,,,,,,,,,,,,,,,,,,,,,,,,,,,,,,,,
,,,,,,5d74001d391b6600175f433b,2024-02-08_13h30.49.074,group3.1-3.2-social-tom,2023.2.2,MacIntel,59.88023952,65c5074098b851296ff0b7ed,65c547f5200212ad4b520164,,,,,,,,,,,,,,,,,,,,,,,,,,,,,723.3718,2,audio/Narrative5Situation2.wav,726.3862,,726.3863,755.8528,"[[999,0],[999,82],[999,166],[999,249],[999,333],[999,416],[999,499],[999,583],[999,666],[11.8,750],[8.2,833],[5.8,916],[4,1000],[3.1,1083],[2.8,1166],[2.8,1249],[2.9,1333],[3.4,1416],[3.5,1500],[3.6,1583],[3.7,1666],[4.2,1750],[5.6,1833],[6.8,1916],[7.8,2000],[8.3,2083],[8.4,2166],[8.4,2250],[8.5,2333],[8.7,2416],[8.7,2499],[8.7,2583],[8.9,2666],[8.9,2750],[8.9,2833],[8.9,2916],[9,3000],[9.2,3083],[9.9,3166],[14.7,3250],[42,3415],[48.8,3500],[49.8,3583],[49.5,3666],[49.5,3749],[49.5,3833],[48.7,3916],[45.7,4000],[44.8,4083],[44.7,4166],[44.7,4249],[44.7,4333],[44.9,4416],[45.3,4500],[45.5,4583],[45.7,4666],[46,4750],[46.2,4833],[46.2,4916],[46.2,4999],[46.2,5082],[46.2,5166],[46.2,5249],[46.2,5333],[46.2,5416],[46.2,5499],[46.2,5583],[46.2,5666],[46.2,5749],[46.2,5833],[46.2,5916],[46.2,5999],[46.2,6083],[46.2,6166],[46.2,6249],[46.2,6333],[46.2,6416],[46.2,6499],[46.2,6583],[46.2,6666],[46.2,6749],[46.2,6832],[45.6,6916],[44,7000],[42.9,7083],[42.8,7165],[42.8,7249],[42.8,7333],[42.8,7416],[38.4,7500],[24.8,8082],[22.6,8166],[21.5,8250],[21.1,8332],[20.3,8416],[18.3,8500],[17.1,8582],[16.4,8665],[16.4,8749],[16.4,8833],[16.4,8916],[16.4,9000],[16.4,9083],[16.4,9165],[16.4,9249],[16.4,9333],[16.4,9416],[16.4,9499],[16.4,9583],[16.4,9666],[16.3,9750],[15.6,9832],[15.1,9916],[14.7,10000],[14.2,10083],[13.7,10167],[13.6,10249],[13.6,10333],[13.6,10416],[13.6,10499],[13.6,10583],[13.6,10666],[13.6,10749],[13.6,10832],[13.6,10916],[13.6,10999],[13.6,11083],[13.6,11166],[13.6,11249],[13.3,11333],[10.9,11416],[10.5,11499],[10.5,11583],[10.5,11666],[10.5,11748],[10.5,11833],[10.5,11916],[9.8,12000],[7.5,12083],[7.1,12166],[7,12249],[7,12332],[7,12416],[7,12499],[6.9,12583],[6.4,12666],[6.1,12749],[5.8,12832],[5.7,12916],[5.7,12999],[5.5,13082],[5.1,13166],[4.6,13250],[4.3,13333],[4.2,13416],[4.2,13499],[4.2,13583],[4.2,13666],[4.2,13749],[4.2,13833],[4.2,13916],[4.2,13999],[4.2,14082],[4.2,14165],[4.2,14249],[4.2,14333],[4.2,14416],[4.2,14498],[4.2,14583],[4.2,14666],[4.2,14749],[4.2,14833],[4.4,14916],[6.4,14999],[10.1,15083],[12.3,15166],[15.6,15249],[19.1,15333],[21.4,15416],[24.4,15499],[27.1,15583],[27.9,15666],[27.9,15749],[27.9,15832],[27.9,15916],[27.9,15999],[27.9,16082],[27.9,16165],[27.9,16249],[27.9,16332],[27.9,16416],[27.9,16499],[27.9,16582],[27.9,16666],[27.9,16749],[28,16833],[28.3,16916],[29.2,16999],[30.3,17082],[31.5,17165],[33.6,17249],[38.8,17332],[46.4,17416],[52.5,17500],[56.7,17583],[60.5,17666],[64,17749],[68,17833],[71.1,17916],[73.1,17999],[74.7,18083],[76.6,18166],[78.7,18249],[80.8,18333],[81.6,18416],[81.9,18499],[82.2,18583],[82.2,18666],[82.2,18749],[82.2,18832],[82.2,18916],[82.2,18999],[82.2,19082],[82.2,19166],[82.2,19249],[82.2,19332],[82.2,19416],[82.2,19499],[83.1,19583],[83.5,19666],[83.8,19749],[84,19833],[84.8,19915],[85.5,19999],[86,20083],[86.4,20166],[86.7,20249],[86.7,20332],[86.8,20416],[86.8,20499],[86.8,20582],[86.8,20666],[86.8,20749],[86.8,20832],[86.8,20916],[86.8,20999],[86.8,21082],[86.8,21166],[86.8,21249],[86.8,21332],[86.8,21416],[86.8,21499],[86.8,21582],[86.8,21666],[86.8,21749],[86.8,21832],[86.8,21915],[86.8,21999],[86.8,22082],[86.8,22166],[86.8,22249],[86.8,22332],[86.8,22415],[86.8,22499],[86.7,22582],[86.7,22666],[86.5,22749],[86.4,22833],[86.3,22916],[86.2,22999],[86.2,23083],[86.1,23166],[86.1,23249],[86,23332],[85.7,23416],[85.3,23499],[84.7,23583],[83.4,23666],[80,23749],[70.6,23832],[32,24166],[32,24249],[32,24332],[32,24416],[31.6,24499],[30.3,24583],[29.6,24666],[29.1,24749],[28.6,24832],[28.3,24915],[27.3,24999],[25.5,25083],[24,25166],[23.3,25249],[22.5,25333],[21.9,25416],[21.8,25499],[21.8,25582],[21.8,25665],[21.8,25749],[21.8,25832],[21.8,25916],[21.8,25999],[21.8,26082],[21.8,26165],[21.8,26249],[21.8,26332],[21.8,26416],[21.8,26499],[21.8,26582],[21.5,26666],[20.8,26749],[20.3,26832],[19.9,26916],[19.7,26999],[19.6,27083],[19.4,27166],[19.3,27249],[19.2,27333],[18.7,27416],[17.6,27499],[16.6,27583],[16.2,27666],[15.9,27749],[15.7,27832],[15.7,27916],[15.7,27999],[15.7,28082],[15.7,28166],[15.7,28249],[15.7,28332],[15.7,28416],[15.7,28498],[15.7,28582],[15.7,28666],[15.7,28749],[15.7,28832],[15.7,28916],[15.7,28999],[15.7,29082],[15.7,29166],[15.7,29249],[15.7,29332],[15.7,29416]]",1,0,755.853,758.8859,65.39930384,2.3117,"[{""rating"":65.39930383597192,""responseTime"":2.311700000000201}]",space,2.4942,,758.886,All the time,100,758.8888,,,[],,0,11,11,11,1,audio/Narrative8Situation2.wav,audio/Narrative7Situation2.wav,audio/Narrative6Situation2.wav,audio/Narrative5Situation2.wav,3,3,3,3,,,,,,,,,,,,,,,,,,,,,,,,,,,,,,,,,,,,,
,,,,,,5d74001d391b6600175f433b,2024-02-08_13h30.49.074,group3.1-3.2-social-tom,2023.2.2,MacIntel,59.88023952,65c5074098b851296ff0b7ed,65c547f5200212ad4b520164,,,,,,,,,,,,,,,,,,,,,,,,,,,,,758.8891,2,audio/Narrative5Situation3.wav,761.9024,,761.9024,775.819,"[[999,0],[999,83],[999,166],[999,249],[999,333],[999,416],[999,500],[999,583],[999,665],[999,749],[999,833],[999,916],[999,1000],[999,1083],[36.1,1166],[37.5,1250],[37.6,1333],[37.6,1416],[37.6,1499],[37.6,1583],[37.6,1665],[38.4,1750],[38.8,1833],[38.8,1915],[38.8,1999],[38.8,2083],[38.8,2165],[45.6,2250],[54.7,2333],[59.1,2416],[62.2,2500],[64.6,2583],[67.2,2666],[72.2,2750],[74.3,2832],[74.6,2916],[74.6,2999],[74.6,3083],[77,3166],[83.6,3250],[87,3333],[87.8,3416],[87.4,3499],[87.4,3583],[87.4,3666],[87.4,3749],[87.4,3833],[87.4,3915],[87.4,3999],[87.4,4083],[87.4,4166],[87.4,4250],[87.4,4333],[87.4,4416],[87.4,4499],[87.4,4583],[87.4,4666],[87.4,4749],[87.4,4833],[87.4,4916],[87.4,4999],[87.4,5083],[87.4,5166],[87.4,5250],[87.4,5333],[87.4,5416],[87.4,5499],[87.4,5583],[87.4,5666],[87.4,5750],[87.4,5833],[87.4,5916],[87.4,5999],[87.4,6083],[87.4,6166],[87.4,6249],[87.4,6333],[87.4,6415],[87.4,6499],[87.4,6583],[87,6666],[86.2,6750],[85.4,6833],[84.5,6916],[83.1,6999],[81.3,7083],[80,7166],[79.1,7250],[78.2,7333],[77.7,7416],[77.6,7500],[77.6,7583],[77.6,7666],[77.5,7749],[77.3,7833],[76.6,7916],[75.5,8000],[74.4,8083],[73.6,8166],[73.1,8250],[72.7,8333],[72.7,8416],[72.7,8499],[72.7,8583],[72.7,8666],[72.7,8749],[72.7,8833],[72.7,8916],[72.7,8999],[72.7,9083],[72.7,9165],[72.7,9249],[72.7,9333],[72.7,9416],[72.7,9499],[72.7,9583],[72.7,9665],[72.7,9749],[72.7,9833],[72.7,9916],[72.7,9999],[72.7,10082],[72.7,10165],[72.7,10249],[72.7,10333],[72.7,10416],[72.7,10499],[72.7,10582],[72.7,10665],[72.7,10749],[72.7,10833],[72.7,10916],[72.7,10999],[72.7,11083],[72.7,11166],[72.7,11249],[72.7,11333],[72.7,11416],[72.7,11499],[72.7,11582],[72.7,11666],[72.7,11749],[72.7,11833],[72.7,11916],[72.7,11999],[72.7,12082],[72.7,12166],[72.7,12249],[72.7,12332],[72.7,12416],[72.7,12499],[72.7,12583],[72.7,12666],[72.7,12749],[72.7,12833],[72.7,12916],[72.7,12999],[72.7,13083],[72.7,13165],[73.9,13249],[74.8,13333],[76.3,13416],[77.8,13499],[78.8,13583],[79.8,13666],[80,13749],[80,13832],[80,13916]]",1,0,775.8193,777.5856,76.45616131,1.3627,"[{""rating"":76.4561613101008,""responseTime"":1.362699999999677}]",space,1.221,,777.5857,Half the time,50,777.589,,,[],,0,12,12,12,1,audio/Narrative8Situation3.wav,audio/Narrative7Situation3.wav,audio/Narrative6Situation3.wav,audio/Narrative5Situation3.wav,4,8,5,3,,,,,,,,,,,,,,,,,,,,,,,,,,,,,,,,,,,,,
,,,,,,5d74001d391b6600175f433b,2024-02-08_13h30.49.074,group3.1-3.2-social-tom,2023.2.2,MacIntel,59.88023952,65c5074098b851296ff0b7ed,65c547f5200212ad4b520164,,,,,,,,,,,,,,,,,,,,,,,,,,,,,777.5892,2,audio/Narrative5Situation4.wav,778.6019,,778.6019,798.9844,"[[76.7,833],[73.9,916],[50.3,1000],[35.7,1082],[34.4,1166],[34.6,1250],[34.8,1332],[34.8,1416],[35,1500],[35.7,1582],[36.2,1666],[36.5,1750],[37,1833],[40.8,1917],[49.3,2000],[54.3,2082],[56.5,2165],[56.9,2249],[56.7,2333],[56.7,2416],[56.7,2500],[56.7,2582],[56.7,2666],[56.7,2750],[56.7,2832],[56.7,2916],[56.7,3000],[56.7,3082],[56.7,3166],[56.7,3249],[56.7,3333],[56.7,3415],[56.7,3499],[56.7,3583],[56.7,3666],[56.7,3749],[56.7,3833],[56.7,3916],[56.7,4000],[57.1,4083],[57.2,4165],[57.3,4250],[57.3,4332],[57.3,4416],[57.3,4500],[57.3,4583],[57.3,4666],[57.3,4750],[57.3,4833],[57.3,4915],[57.3,4999],[57.3,5083],[57.3,5166],[57.3,5250],[57.3,5333],[57.3,5416],[57.3,5499],[57.3,5583],[57.3,5666],[57.3,5749],[57.3,5833],[57.3,5915],[57.3,5999],[57.3,6083],[57.3,6165],[57.3,6249],[57.3,6333],[57.3,6415],[57.3,6500],[57.3,6582],[57.3,6666],[57.3,6749],[57.3,6832],[57.3,6916],[57.3,7000],[57.3,7083],[57.3,7165],[57.3,7249],[57.3,7333],[57.3,7416],[57.3,7500],[57.3,7583],[57.3,7666],[57.3,7750],[57.3,7833],[57.3,7916],[57.3,8000],[57.3,8083],[57.3,8165],[57.6,8250],[57.9,8333],[58.2,8417],[58.4,8499],[58.5,8583],[58.6,8666],[59,8749],[59.7,8833],[60.5,8915],[61.5,9000],[62,9082],[62.2,9166],[62.2,9250],[62.2,9333],[62.2,9415],[62.2,9499],[61,9582],[55.2,9666],[48.8,9750],[45.2,9832],[41.8,9917],[39.1,10000],[37.6,10082],[36.3,10167],[34.9,10249],[34.4,10333],[34.4,10416],[34.4,10500],[34.4,10582],[34.4,10666],[34.4,10750],[34.4,10833],[34.4,10916],[34.4,11000],[34.4,11083],[34.4,11166],[34.4,11250],[34.4,11333],[34.4,11415],[34.4,11499],[34.4,11583],[34.4,11666],[34.4,11749],[34.4,11833],[34.4,11916],[34.4,12000],[34.4,12083],[34.4,12166],[34.4,12249],[34.4,12332],[34.4,12416],[34.4,12499],[34.4,12583],[34.4,12666],[34.4,12749],[34.4,12832],[34.4,12915],[34.4,12998],[34.4,13082],[34.4,13166],[34.4,13249],[34.4,13333],[34.4,13416],[34.7,13500],[35.1,13583],[35.9,13666],[36.8,13750],[37.5,13832],[38.1,13916],[39.6,13999],[41.9,14083],[43,14166],[43.5,14249],[44.1,14333],[44.5,14416],[44.8,14499],[44.8,14582],[44.7,14665],[44.7,14750],[44.7,14833],[44.7,14916],[44.7,15000],[44.7,15083],[44.7,15166],[44.7,15250],[44.7,15333],[44.7,15416],[44.7,15499],[44.7,15583],[44.7,15666],[44.7,15750],[44.7,15832],[44.7,15916],[44.7,15999],[44.6,16082],[44.2,16166],[43.4,16250],[42.6,16332],[41.8,16416],[40.9,16500],[40.3,16583],[39.6,16666],[38.8,16750],[37.8,16832],[36.4,16916],[35.1,16999],[33.7,17083],[32.7,17166],[32.2,17249],[32.1,17332],[32.1,17416],[32.1,17499],[32.1,17582],[32.1,17666],[32.1,17749],[32.1,17832],[32.1,17916],[32.1,17999],[32.1,18083],[32.1,18165],[32.1,18250],[32.1,18332],[32.1,18416],[32.1,18498],[32.1,18582],[32.1,18666],[32.1,18750],[32.1,18833],[32.1,18916],[32.1,18999],[32.1,19082],[32.1,19166],[32.1,19249],[32.1,19333],[32.1,19415],[32.1,19499],[32.1,19583],[32.1,19666],[32.1,19749],[32.1,19833],[32.1,19916],[32.1,19999],[32.1,20083],[32.1,20166],[32.1,20250],[32.1,20332]]",1,0,798.9847,801.9851,50.73025024,2.4221,"[{""rating"":50.7302502351134,""responseTime"":2.422100000000114}]",space,2.4693,,801.9852,Half the time,50,801.9867,,,[],,0,13,13,13,1,audio/Narrative8Situation4.wav,audio/Narrative7Situation4.wav,audio/Narrative6Situation4.wav,audio/Narrative5Situation4.wav,3,3,2,1,,,,,,,,,,,,,,,,,,,,,,,,,,,,,,,,,,,,,
,,,,,,5d74001d391b6600175f433b,2024-02-08_13h30.49.074,group3.1-3.2-social-tom,2023.2.2,MacIntel,59.88023952,65c5074098b851296ff0b7ed,65c547f5200212ad4b520164,,,,,,,,,,,,,,,,,,,,,,,,,,,,,801.9869,2,audio/Narrative5Situation5.wav,807.0018,,807.0018,822.4341,"[[50.5,916],[44.4,1749],[46.3,1832],[46.9,1916],[46.9,1999],[43.4,2082],[39.2,2166],[38.4,2248],[38.4,2333],[38.4,2416],[38.4,2499],[38.4,2582],[38.4,2666],[38.4,2749],[38.4,2833],[38.4,2916],[38.4,2999],[38.4,3082],[38.4,3166],[38.4,3249],[38.4,3333],[38.4,3416],[38.4,3499],[38.4,3582],[38.4,3665],[38.4,3749],[38.4,3833],[38.4,3916],[38.4,3999],[38.4,4083],[38.4,4166],[38.4,4249],[39,4333],[40.4,4416],[43.9,4500],[49.3,4583],[54.6,4666],[57,4748],[59.2,4832],[61.4,4915],[63,4999],[64.4,5082],[64.7,5165],[64.6,5248],[64.6,5332],[64.6,5415],[64.6,5499],[64.6,5582],[64.6,5665],[64.6,5749],[64.6,5832],[64.6,5916],[64.6,5999],[64.6,6082],[64.6,6165],[64.6,6249],[64.6,6333],[64.6,6415],[64.6,6499],[64.6,6582],[64.6,6666],[64.6,6749],[64.6,6832],[64.6,6915],[64.6,6999],[64.6,7082],[64.6,7166],[64.6,7248],[64.6,7333],[64.6,7416],[64.6,7499],[64.6,7582],[64.6,7666],[64.6,7749],[64.6,7832],[64.6,7915],[64.6,7999],[64.6,8082],[64.6,8165],[64.6,8248],[64.6,8332],[64.6,8416],[64.6,8498],[64.6,8582],[64.6,8665],[64.6,8748],[64.6,8833],[64.6,8916],[64.6,8998],[64.6,9082],[64.6,9166],[64.6,9249],[64.6,9332],[64.6,9416],[64.6,9499],[64.6,9582],[64.6,9665],[64.6,9749],[64.6,9833],[64.6,9916],[64.6,9999],[64.6,10082],[64.6,10166],[64.6,10248],[64.1,10332],[62.6,10416],[62,10498],[61.8,10583],[61.5,10666],[61,10749],[60.8,10832],[60.6,10915],[60.6,10999],[60.6,11082],[60.6,11165],[60.6,11249],[60.6,11332],[60.6,11416],[60.6,11498],[60.6,11583],[60.6,11665],[60.6,11749],[60.6,11831],[60.6,11915],[60.6,11998],[60.6,12083],[60.6,12165],[60.6,12249],[60.6,12332],[60.6,12416],[60.6,12499],[60.6,12583],[60.6,12665],[60.6,12748],[60.6,12831],[60.6,12915],[60.4,12999],[60.3,13083],[60.1,13166],[60,13248],[60,13333],[59.9,13416],[59.9,13499],[59.9,13582],[59.9,13665],[59.9,13749],[59.9,13832],[59.9,13916],[59.9,13998],[59.9,14082],[59.9,14166],[59.9,14249],[59.9,14332],[59.9,14416],[59.9,14499],[59.9,14582],[59.9,14666],[59.9,14749],[59.9,14832],[59.9,14915],[59.9,14999],[60,15083],[60.5,15166],[61,15249],[61.4,15332],[62.5,15415]]",1,0,822.4342,824.568,60.7085487,1.6471,"[{""rating"":60.708548697536294,""responseTime"":1.6471000000001368}]",space,1.602,,824.568,All the time,100,824.5701,,,[],,0,14,14,14,1,audio/Narrative8Situation5.wav,audio/Narrative7Situation5.wav,audio/Narrative6Situation5.wav,audio/Narrative5Situation5.wav,2,5,2,5,,,,,,,,,,,,,,,,,,,,,,,,,,,,,,,,,,,,,
,,,,,,5d74001d391b6600175f433b,2024-02-08_13h30.49.074,group3.1-3.2-social-tom,2023.2.2,MacIntel,59.88023952,65c5074098b851296ff0b7ed,65c547f5200212ad4b520164,,,,,,,,,,,,,,,,,,,,,,,,,,,,,824.5704,2,audio/Narrative5Situation6.wav,827.5847,,827.5847,833.2513,"[[59.6,916],[57.8,1000],[57.5,1083],[56.9,1166],[55.4,1249],[54.3,1333],[53.9,1416],[53.9,1500],[53.9,1582],[53.9,1666],[53.9,1749],[53.9,1832],[53.9,1915],[53.9,1999],[53.9,2082],[53.9,2166],[53.9,2250],[53.9,2333],[53.9,2416],[54.2,2499],[54.2,2583],[54.2,2666],[54.2,2749],[54.2,2833],[54.2,2916],[54.2,3000],[54.2,3083],[54.2,3165],[54.2,3250],[54.2,3333],[54.2,3416],[54.3,3499],[54.7,3583],[54.8,3666],[54.9,3750],[54.9,3832],[54.9,3915],[54.9,3999],[54.9,4083],[54.9,4166],[54.9,4250],[54.8,4332],[54.7,4416],[54.4,4499],[53.7,4583],[53,4666],[51.9,4750],[50.5,4833],[48.1,4916],[44.4,5000],[39.8,5083],[36.7,5165],[36.2,5249],[36.2,5332],[36.2,5415],[36.2,5500],[36.2,5583],[35.8,5666]]",1,0,833.2515,835.1841,38.04578862,1.5456,"[{""rating"":38.04578861857106,""responseTime"":1.5456000000001495}]",space,1.3852,,835.1842,Not at all,0,835.187,,,[],,0,15,15,15,1,audio/Narrative8Situation6.wav,audio/Narrative7Situation6.wav,audio/Narrative6Situation6.wav,audio/Narrative5Situation6.wav,2,3,2,3,,,,,,,,,,,,,,,,,,,,,,,,,,,,,,,,,,,,,
,,,,,,5d74001d391b6600175f433b,2024-02-08_13h30.49.074,group3.1-3.2-social-tom,2023.2.2,MacIntel,59.88023952,65c5074098b851296ff0b7ed,65c547f5200212ad4b520164,,,,,,,,,,,,,,,,,,,,,,,,,,,,,835.1873,2,audio/Narrative5Situation7.wav,839.2013,,839.2013,860.2507,"[[38.1,1416],[37.8,1500],[37.7,1582],[37.7,1666],[37.7,1749],[37.5,1833],[35.6,1916],[32.2,2000],[29.8,2083],[27.6,2166],[27.3,2249],[27.3,2333],[27.3,2416],[27.3,2499],[27.3,2583],[27.3,2666],[27.3,2749],[27.3,2833],[27.3,2915],[27.3,2999],[27.3,3082],[27.3,3166],[27.3,3249],[27.3,3333],[27.3,3416],[27.3,3498],[26.8,3583],[26.3,3665],[25.3,3749],[24.3,3833],[23.3,3916],[21.7,4000],[19.2,4083],[13.6,4165],[10.5,4249],[9.8,4333],[9.5,4416],[9.4,4499],[9.3,4582],[9.3,4666],[9.3,4749],[9.3,4833],[9.3,4916],[9.3,4999],[9.3,5083],[9.3,5165],[9.1,5250],[8.6,5333],[8.2,5416],[7.9,5500],[7.6,5583],[7.3,5666],[7.2,5750],[7.2,5833],[7.2,5916],[7.2,5999],[7.2,6082],[7.2,6166],[7.2,6249],[7.2,6332],[7.2,6415],[7.2,6499],[7.2,6583],[7.2,6666],[7.2,6748],[7.2,6832],[7.2,6916],[7.2,6999],[7.2,7083],[7,7166],[6.3,7249],[5.9,7333],[5.5,7416],[5.3,7500],[5.1,7583],[5.1,7665],[5,7749],[4.3,7832],[4.1,7916],[4.1,7998],[4.1,8083],[4.1,8166],[4.1,8249],[4.1,8333],[4.1,8416],[4.1,8499],[4.1,8582],[4.1,8665],[4.1,8749],[4.1,8832],[4.1,8916],[4.1,8999],[4.1,9083],[4.1,9165],[4.1,9249],[4.1,9333],[4.1,9416],[4.1,9499],[4.1,9583],[4.1,9666],[4.1,9748],[4.1,9833],[4.1,9916],[4.1,9998],[4.1,10082],[4.1,10166],[4.1,10248],[4.1,10333],[3.7,10416],[2.7,10499],[1.6,10582],[0.3,10666],[0.1,17415],[0.4,17499],[1.3,17583],[3.2,17665],[6.6,17749],[9.7,17833],[12.2,17916],[13.5,17999],[14.9,18082],[15.4,18165],[16.2,18249],[17.7,18333],[18.8,18416],[19.3,18499],[19.4,18583],[19.4,18666],[19.4,18749],[19.4,18832],[19.4,18915],[19.4,18999],[19.4,19082],[19.4,19166],[19.4,19249],[19.8,19332],[20.5,19416],[21.3,19499],[21.9,19582],[22.2,19666],[22.3,19748],[22.4,19832],[22.4,19916],[22.4,19999],[22.4,20082],[22.4,20165],[22.4,20249],[22.4,20332],[22.4,20415],[22.4,20499],[22.4,20582],[22.4,20666],[22.4,20748],[22.4,20832],[22.4,20916],[22.6,20999]]",1,0,860.2508,862.3175,12.27104942,1.5625,"[{""rating"":12.271049419311275,""responseTime"":1.5625}]",space,1.5276,,862.3175,Half the time,50,862.3199,,,[],,0,16,16,16,1,audio/Narrative8Situation7.wav,audio/Narrative7Situation7.wav,audio/Narrative6Situation7.wav,audio/Narrative5Situation7.wav,3,5,5,4,,,,,,,,,,,,,,,,,,,,,,,,,,,,,,,,,,,,,
,,,,,,5d74001d391b6600175f433b,2024-02-08_13h30.49.074,group3.1-3.2-social-tom,2023.2.2,MacIntel,59.88023952,65c5074098b851296ff0b7ed,65c547f5200212ad4b520164,,,,,,,,,,,,,,,,,,,,,,,,,,,,,862.3201,2,audio/Narrative5Situation8.wav,865.3342,,865.3342,874.1665,"[[12.6,749],[12.7,833],[12.7,915],[12.7,999],[12.5,1083],[9.3,1166],[6.1,1250],[4.3,1333],[3.3,1417],[3,1498],[3,1583],[3,1665],[3,1749],[3,1832],[3,1916],[3,1999],[3,2083],[2.7,2166],[2.2,2250],[2.1,2333],[2.1,2417],[2.1,2499],[2.1,2582],[2.1,2665],[2.1,2749],[2.1,2832],[2.1,2916],[2.1,2998],[2.1,3082],[2.1,3165],[2.1,3248],[2.1,3333],[2.1,3416],[2.1,3499],[2.1,3582],[2.1,3665],[2.1,3749],[2.1,3832],[2.1,3916],[2.1,3999],[2.1,4083],[2.1,4166],[2.1,4249],[2.1,4332],[2.1,4416],[2.1,4499],[2.1,4583],[2.1,4665],[2.1,4749],[2.1,4833],[2.3,4916],[3.1,4999],[5,5083],[7.5,5166],[8.6,5249],[10.3,5333],[10.5,5416],[10.5,5499],[10.5,5582],[10.5,5665],[10.5,5748],[10.5,5833],[10.5,5916],[10.5,5999],[10.5,6082],[10.5,6166],[10.5,6248],[10.5,6332],[10.5,6416],[10.5,6499],[10.5,6582],[10.5,6665],[10.5,6749],[10.5,6833],[10.5,6915],[10.8,6999],[12.2,7083],[17.7,7165],[32.8,7249],[49.9,7333],[60.4,7416],[66.6,7500],[69.8,7583],[72.3,7666],[72.5,7749],[72.5,7833],[72.5,7915],[72.5,7999],[72.5,8083],[72.5,8165],[72.5,8248],[72.5,8332],[72.5,8416],[72.5,8499],[72.5,8583],[72.5,8666],[72.5,8748],[72.5,8832]]",1,0,874.1667,876.3007,54.36414775,1.6474,"[{""rating"":54.364147750408556,""responseTime"":1.6473999999999478}]",space,1.6017,,876.3007,All the time,100,876.3038,,,[],,0,17,17,17,1,audio/Narrative8Situation8.wav,audio/Narrative7Situation8.wav,audio/Narrative6Situation8.wav,audio/Narrative5Situation8.wav,3,2,5,3,,,,,,,,,,,,,,,,,,,,,,,,,,,,,,,,,,,,,
