exp_question,consent.started,consent.stopped,consentResponse.keys,consentResponse.rt,consentResponse.duration,participantID,date,expName,psychopyVersion,OS,frameRate,STUDY_ID,SESSION_ID,opening1.started,opening1.stopped,keyEndingOpening1.keys,keyEndingOpening1.rt,keyEndingOpening1.duration,volumeAdjust.started,volumeAdjust.stopped,endingAdjust.keys,endingAdjust.rt,endingAdjust.duration,opening2.started,opening2.stopped,keyEndingOpening.keys,keyEndingOpening.rt,keyEndingOpening.duration,mouse.x,mouse.y,mouse.leftButton,mouse.midButton,mouse.rightButton,mouse.time,instructionLoop.thisRepN,instructionLoop.thisTrialN,instructionLoop.thisN,instructionLoop.thisIndex,instructionLoop.ran,readyForAudio.started,readyForAudio.stopped,fixation.started,run,audio_played,fixation.stopped,endPractice.keys,audioPre.started,audioPre.stopped,continuousResponses_audio,continuousSlider.response,continuousSlider.rt,intRating.started,intRating.stopped,intQuestionSlider.response,intQuestionSlider.rt,intQuestionSlider.history,confirmResponse.keys,confirmResponse.rt,confirmResponse.duration,catchQuestion.started,catch_label,catch_value,catchQuestion.stopped,catchQuestionSlider.response,catchQuestionSlider.rt,catchQuestionSlider.history,confirmResponse_2.keys,audioRunLoop.thisRepN,audioRunLoop.thisTrialN,audioRunLoop.thisN,audioRunLoop.thisIndex,audioRunLoop.ran,conditions1_1,conditions2_1,conditions1_2,conditions2_2,dur1_1,dur2_1,dur1_2,dur2_2,endPractice.rt,endPractice.duration,confirmResponse_2.rt,confirmResponse_2.duration,runIntervalBreak.started,runIntervalBreak.stopped,endingBreakKey.keys,endingBreakKey.rt,endingBreakKey.duration,connection.started,connection.stopped,connectionEnding.keys,connectionEnding.rt,connectionEnding.duration,readyForText.started,readyForText.stopped,textPre.started,run_dup,textPre.stopped,continuousResponses_text,textRunLoop.thisRepN,textRunLoop.thisTrialN,textRunLoop.thisN,textRunLoop.thisIndex,textRunLoop.ran,text1_1,text1_2,text2_1,text2_2,runBreakText.started,runBreakText.stopped,endingBreakKey_2.keys,endingBreakKey_2.rt,endingBreakKey_2.duration,ending.started,ending.stopped,endingEnding.keys,endingEnding.rt,endingEnding.duration
social,0,4.267,y,3.94,,5d94d2ab9ac1cb001775fac2,2024-02-08_12h42.17.040,group3.1-3.2-social-tom,2023.2.2,Win32,72.04610951,65c5074098b851296ff0b7ed,65c512683e09a7c7763785a9,,,,,,,,,,,,,,,,,,,,,,,,,,,,,,,,,,,,,,,,,,,,,,,,,,,,,,,,,,,,,,,,,,,,,,,,,,,,,,,,,,,,,,,,,,,,,,,,,,,,,,,,,,
,,,,,,5d94d2ab9ac1cb001775fac2,2024-02-08_12h42.17.040,group3.1-3.2-social-tom,2023.2.2,Win32,72.04610951,65c5074098b851296ff0b7ed,65c512683e09a7c7763785a9,4.267,6.801,space,2.471,,,,,,,,,,,,,,,,,,,,,,,,,,,,,,,,,,,,,,,,,,,,,,,,,,,,,,,,,,,,,,,,,,,,,,,,,,,,,,,,,,,,,,,,,,,,,,,,,,,,,,
,,,,,,5d94d2ab9ac1cb001775fac2,2024-02-08_12h42.17.040,group3.1-3.2-social-tom,2023.2.2,Win32,72.04610951,65c5074098b851296ff0b7ed,65c512683e09a7c7763785a9,,,,,,6.801,35.159,space,28.036,,,,,,,,,,,,,,,,,,,,,,,,,,,,,,,,,,,,,,,,,,,,,,,,,,,,,,,,,,,,,,,,,,,,,,,,,,,,,,,,,,,,,,,,,,,,,,,,,
,,,,,,5d94d2ab9ac1cb001775fac2,2024-02-08_12h42.17.040,group3.1-3.2-social-tom,2023.2.2,Win32,72.04610951,65c5074098b851296ff0b7ed,65c512683e09a7c7763785a9,,,,,,,,,,,35.181,41.21,space,5.979,,[],[],[],[],[],[],0,0,0,0,1,,,,,,,,,,,,,,,,,,,,,,,,,,,,,,,,,,,,,,,,,,,,,,,,,,,,,,,,,,,,,,,,,,,,,,,,,,,,,,,,
,,,,,,5d94d2ab9ac1cb001775fac2,2024-02-08_12h42.17.040,group3.1-3.2-social-tom,2023.2.2,Win32,72.04610951,65c5074098b851296ff0b7ed,65c512683e09a7c7763785a9,,,,,,,,,,,41.212,52.572,space,11.146,,[],[],[],[],[],[],1,0,1,0,1,,,,,,,,,,,,,,,,,,,,,,,,,,,,,,,,,,,,,,,,,,,,,,,,,,,,,,,,,,,,,,,,,,,,,,,,,,,,,,,,
,,,,,,5d94d2ab9ac1cb001775fac2,2024-02-08_12h42.17.040,group3.1-3.2-social-tom,2023.2.2,Win32,72.04610951,65c5074098b851296ff0b7ed,65c512683e09a7c7763785a9,,,,,,,,,,,52.573,63.64,space,10.926,,[],[],[],[],[],[],2,0,2,0,1,,,,,,,,,,,,,,,,,,,,,,,,,,,,,,,,,,,,,,,,,,,,,,,,,,,,,,,,,,,,,,,,,,,,,,,,,,,,,,,,
,,,,,,5d94d2ab9ac1cb001775fac2,2024-02-08_12h42.17.040,group3.1-3.2-social-tom,2023.2.2,Win32,72.04610951,65c5074098b851296ff0b7ed,65c512683e09a7c7763785a9,,,,,,,,,,,63.641,73.387,p,9.678,,[],[],[],[],[],[],3,0,3,0,1,,,,,,,,,,,,,,,,,,,,,,,,,,,,,,,,,,,,,,,,,,,,,,,,,,,,,,,,,,,,,,,,,,,,,,,,,,,,,,,,
,,,,,,5d94d2ab9ac1cb001775fac2,2024-02-08_12h42.17.040,group3.1-3.2-social-tom,2023.2.2,Win32,72.04610951,65c5074098b851296ff0b7ed,65c512683e09a7c7763785a9,,,,,,,,,,,73.393,74.397,p,0.907,,[],[],[],[],[],[],4,0,4,0,1,,,,,,,,,,,,,,,,,,,,,,,,,,,,,,,,,,,,,,,,,,,,,,,,,,,,,,,,,,,,,,,,,,,,,,,,,,,,,,,,
,,,,,,5d94d2ab9ac1cb001775fac2,2024-02-08_12h42.17.040,group3.1-3.2-social-tom,2023.2.2,Win32,72.04610951,65c5074098b851296ff0b7ed,65c512683e09a7c7763785a9,,,,,,,,,,,74.398,85.258,space,10.774,,[],[],[],[],[],[],5,0,5,0,1,,,,,,,,,,,,,,,,,,,,,,,,,,,,,,,,,,,,,,,,,,,,,,,,,,,,,,,,,,,,,,,,,,,,,,,,,,,,,,,,
,,,,,,5d94d2ab9ac1cb001775fac2,2024-02-08_12h42.17.040,group3.1-3.2-social-tom,2023.2.2,Win32,72.04610951,65c5074098b851296ff0b7ed,65c512683e09a7c7763785a9,,,,,,,,,,,85.26,96.89,space,11.541,,[],[],[],[],[],[],6,0,6,0,1,,,,,,,,,,,,,,,,,,,,,,,,,,,,,,,,,,,,,,,,,,,,,,,,,,,,,,,,,,,,,,,,,,,,,,,,,,,,,,,,
,,,,,,5d94d2ab9ac1cb001775fac2,2024-02-08_12h42.17.040,group3.1-3.2-social-tom,2023.2.2,Win32,72.04610951,65c5074098b851296ff0b7ed,65c512683e09a7c7763785a9,,,,,,,,,,,96.891,108.585,space,11.64,,[],[],[],[],[],[],7,0,7,0,1,,,,,,,,,,,,,,,,,,,,,,,,,,,,,,,,,,,,,,,,,,,,,,,,,,,,,,,,,,,,,,,,,,,,,,,,,,,,,,,,
,,,,,,5d94d2ab9ac1cb001775fac2,2024-02-08_12h42.17.040,group3.1-3.2-social-tom,2023.2.2,Win32,72.04610951,65c5074098b851296ff0b7ed,65c512683e09a7c7763785a9,,,,,,,,,,,108.591,112.482,space,3.838,,[],[],[],[],[],[],8,0,8,0,1,,,,,,,,,,,,,,,,,,,,,,,,,,,,,,,,,,,,,,,,,,,,,,,,,,,,,,,,,,,,,,,,,,,,,,,,,,,,,,,,
,,,,,,5d94d2ab9ac1cb001775fac2,2024-02-08_12h42.17.040,group3.1-3.2-social-tom,2023.2.2,Win32,72.04610951,65c5074098b851296ff0b7ed,65c512683e09a7c7763785a9,,,,,,,,,,,,,,,,,,,,,,,,,,,112.491,115.067,115.126,1,audio/Narrative13Situation2.wav,117.13,,117.13,146.898,"[[999,3],[999,150],[999,228],[999,313],[999,397],[999,481],[21.6,576],[9.6,661],[4.2,745],[0.1,3381],[0.3,3472],[0.5,3555],[0.8,3637],[0.8,3728],[1,3817],[1,3894],[1.2,3983],[1.2,4062],[1.2,4144],[1.2,4230],[1.2,4311],[1.2,4393],[1.2,4478],[1.2,4569],[1.2,4651],[1.2,4737],[1.2,4819],[1.2,4901],[1.3,4988],[3.3,5072],[6.9,5154],[9.4,5239],[12.9,5322],[16.3,5405],[17.7,5486],[18,5568],[18,5653],[18,5738],[17.4,5820],[13.5,5904],[9.1,5987],[8.1,6070],[7.8,6154],[7.8,6236],[7.8,6317],[7.8,6402],[7.8,6485],[7.8,6568],[7.8,6652],[7.8,6736],[7.9,6818],[8.1,6904],[8.2,6985],[8.2,7073],[8.3,7151],[8.5,7235],[8.6,7320],[8.6,7402],[8.6,7492],[8.6,7570],[8.7,7651],[8.7,7735],[8.7,7824],[8.7,7901],[8.7,7984],[8.7,8070],[8.7,8151],[8.9,8234],[11.2,8323],[12.8,8407],[13.5,8487],[14.3,8571],[15,8653],[15.8,8737],[16.3,8821],[16.9,8903],[18,8987],[18.9,9073],[19.5,9157],[19.9,9235],[20.4,9320],[20.7,9403],[21.5,9486],[22.1,9570],[22.3,9651],[22.5,9733],[22.7,9818],[22.9,9906],[23,9985],[23.3,10074],[23.7,10160],[24,10243],[24.2,10329],[25,10415],[25.7,10493],[25.8,10579],[26.2,10664],[26.4,10742],[26.8,10825],[27,10908],[27.2,10994],[27.3,11077],[27.5,11158],[27.7,11241],[27.9,11326],[27.9,11410],[27.9,11492],[27.9,11575],[27.9,11661],[27.9,11743],[27.9,11832],[27.9,11920],[27.9,11998],[27.9,12108],[27.9,12186],[27.9,12270],[27.9,12356],[27.9,12441],[27.9,12526],[27.9,12609],[27.9,12698],[27.9,12776],[27.9,12859],[27.9,12944],[27.9,13026],[28,13111],[28.8,13195],[29.4,13278],[29.7,13362],[29.9,13442],[29.9,13527],[29.9,13611],[29.9,13694],[29.9,13776],[30.1,13863],[30.2,13943],[30.2,14025],[30.2,14112],[30.2,14194],[30.2,14276],[30.2,14360],[30.2,14445],[30.2,14526],[30.2,14612],[30.2,14697],[30.3,14777],[30.5,14860],[30.9,14945],[31.4,15027],[31.8,15110],[32,15192],[32.3,15277],[32.6,15360],[32.8,15443],[32.9,15525],[33.1,15609],[33.3,15695],[33.6,15778],[34.1,15862],[34.5,15945],[34.6,16030],[34.6,16109],[34.8,16194],[34.8,16276],[34.8,16370],[34.8,16450],[34.8,16532],[34.8,16616],[34.8,16707],[34.8,16790],[34.8,16874],[34.8,16964],[34.8,17047],[34.8,17132],[34.8,17216],[34.8,17296],[34.8,17381],[34.8,17477],[34.8,17559],[34.8,17639],[34.8,17724],[34.8,17804],[34.8,17889],[34.8,17970],[34.8,18054],[34.8,18141],[34.8,18220],[34.8,18304],[34.8,18387],[34.8,18471],[34.8,18554],[34.8,18641],[34.8,18721],[34.8,18805],[34.8,18885],[34.8,18970],[34.8,19054],[34.8,19139],[34.8,19221],[34.8,19304],[34.8,19387],[34.8,19469],[34.8,19555],[34.8,19639],[34.8,19723],[34.8,19804],[34.8,19887],[34.8,19973],[34.8,20053],[34.8,20138],[34.8,20222],[34.8,20304],[34.8,20387],[34.8,20458],[34.8,20541],[34.8,20602],[34.8,20660],[34.8,20733],[34.8,20792],[34.8,20873],[34.8,20956],[34.8,21039],[34.8,21122],[34.8,21206],[34.8,21290],[34.8,21373],[34.8,21457],[34.8,21543],[34.8,21622],[34.8,21708],[34.8,21794],[34.8,21873],[34.8,21955],[34.8,22041],[34.8,22124],[34.8,22206],[34.9,22292],[35,22379],[35.2,22457],[35.4,22542],[35.7,22625],[35.7,22707],[35.9,22790],[35.9,22878],[36.1,22957],[36.2,23040],[36.2,23125],[36.2,23207],[36.3,23290],[36.5,23377],[36.5,23457],[36.5,23540],[36.5,23624],[36.7,23708],[36.7,23791],[36.7,23877],[36.7,23958],[36.7,24040],[36.7,24125],[36.7,24207],[36.7,24291],[36.7,24373],[36.7,24457],[36.7,24539],[36.7,24626],[36.8,24709],[37,24790],[37,24876],[37.2,24957],[37.2,25040],[37.5,25125],[37.8,25208],[37.8,25290],[37.8,25401],[37.8,25489],[37.8,25568],[37.8,25663],[37.8,25742],[37.8,25826],[37.8,25914],[37.8,26000],[37.8,26082],[37.8,26167],[37.8,26248],[37.8,26336],[37.8,26415],[37.8,26521],[37.8,26602],[37.8,26687],[37.8,26771],[37.8,26851],[37.8,26945],[37.8,27026],[37.8,27109],[37.8,27192],[37.8,27276],[37.8,27359],[37.8,27443],[37.8,27526],[37.8,27609],[37.8,27693],[37.8,27778],[37.8,27861],[37.8,27943],[37.8,28029],[37.8,28111],[37.8,28191],[37.8,28278],[37.8,28359],[37.8,28441],[37.8,28528],[37.8,28610],[37.8,28692],[37.8,28777],[37.8,28860],[37.8,28942],[37.8,29027],[37.8,29110],[37.8,29190],[37.8,29280],[37.8,29358],[37.8,29443],[37.8,29530],[37.8,29609],[37.8,29692]]",1,0,146.899,158.775,65.36458333,10.883,"[{""rating"":65.36458333333334,""responseTime"":10.882999999999981}]",space,11.341,,158.776,Definitely yes,100,158.792,,,[],,0,0,0,0,1,audio/Narrative13Situation2.wav,audio/Narrative13Situation2.wav,audio/Narrative13Situation2.wav,audio/Narrative13Situation2.wav,2,2,2,2,,,,,,,,,,,,,,,,,,,,,,,,,,,,,,,,,,,,,,,
,,,,,,5d94d2ab9ac1cb001775fac2,2024-02-08_12h42.17.040,group3.1-3.2-social-tom,2023.2.2,Win32,72.04610951,65c5074098b851296ff0b7ed,65c512683e09a7c7763785a9,,,,,,,,,,,,,,,,,,,,,,,,,,,,,158.794,1,audio/Narrative7Situation1.wav,160.674,space,160.674,216.568,"[[64.5,1434],[62.2,1520],[61.7,1601],[61.3,1685],[60.8,1768],[10.5,2277],[7.6,2358],[5.2,2441],[4.2,2526],[4,2605],[3.8,2691],[2.9,2775],[2.6,2861],[2.3,2940],[2.2,3026],[2.1,3107],[2.1,3195],[2.1,3283],[2.1,3364],[1.8,3472],[0.1,10158],[1,10240],[3.4,10323],[5.3,10406],[6.5,10490],[7.2,10574],[7.8,10656],[8.1,10739],[8.2,10822],[8.2,10905],[8.2,10988],[8.2,11073],[8.2,11155],[8.2,11236],[8.2,11326],[8.2,11406],[8.2,11491],[8.2,11574],[8.2,11656],[8.2,11742],[8.2,11821],[8.2,11904],[8.2,11994],[8.2,12071],[8.2,12156],[8.2,12239],[8.2,12319],[8.2,12406],[8.2,12488],[8.2,12572],[8.2,12655],[8.2,12738],[8.2,12820],[8.2,12906],[8.2,12986],[8.2,13072],[8.3,13155],[8.7,13241],[10.2,13324],[11.3,13406],[12.2,13490],[13.4,13572],[14.3,13658],[15,13740],[16.3,13823],[17.4,13908],[17.8,13995],[18.6,14081],[19.3,14166],[19.4,14254],[19.4,14336],[19.4,14423],[19.4,14502],[19.4,14583],[19.4,14669],[19.4,14753],[19.4,14837],[19.4,14924],[19.4,15004],[19.4,15085],[19.4,15169],[19.4,15253],[19.8,15338],[20.3,15419],[20.7,15502],[21.1,15586],[21.5,15670],[21.9,15754],[22.1,15842],[22.1,15926],[22.3,16008],[22.5,16109],[22.7,16185],[22.7,16266],[22.7,16352],[22.7,16453],[22.7,16540],[22.7,16621],[22.7,16704],[22.7,16788],[22.7,16869],[22.7,16959],[22.7,17046],[22.7,17128],[22.7,17211],[22.7,17295],[22.7,17378],[22.7,17461],[22.7,17544],[22.7,17627],[22.7,17711],[22.7,17795],[22.7,17877],[22.7,17961],[22.7,18043],[22.7,18127],[22.7,18212],[22.7,18293],[22.7,18377],[22.7,18461],[22.7,18544],[22.7,18629],[22.7,18712],[22.7,18795],[22.7,18881],[22.7,18961],[22.7,19044],[22.7,19131],[22.7,19210],[22.7,19295],[22.7,19378],[22.7,19460],[22.7,19545],[22.7,19628],[22.7,19710],[22.7,19792],[22.7,19881],[22.7,19961],[22.7,20043],[22.7,20129],[22.7,20209],[22.7,20294],[22.7,20378],[22.7,20461],[22.7,20543],[22.7,20631],[22.7,20738],[22.7,20827],[22.7,20912],[22.7,21006],[22.7,21086],[22.7,21169],[22.7,21258],[22.7,21342],[22.7,21425],[22.7,21512],[22.7,21592],[22.7,21676],[22.7,21770],[22.7,21849],[22.7,21932],[22.7,22014],[22.7,22121],[22.7,22208],[22.7,22288],[22.7,22370],[22.7,22458],[22.7,22543],[22.7,22627],[22.7,22711],[22.7,22792],[22.7,22879],[22.7,22960],[22.7,23044],[22.7,23133],[22.7,23211],[22.7,23294],[22.7,23378],[22.7,23461],[22.7,23544],[22.7,23626],[22.7,23710],[22.7,23793],[22.7,23877],[22.7,23964],[22.7,24044],[22.7,24127],[22.7,24210],[22.7,24293],[22.7,24378],[22.7,24458],[22.7,24544],[22.7,24627],[22.7,24709],[22.7,24794],[22.7,24877],[22.7,24961],[22.7,25042],[22.7,25128],[22.7,25211],[22.7,25293],[22.7,25376],[22.7,25460],[22.7,25543],[22.7,25627],[22.7,25711],[22.7,25794],[22.7,25876],[22.7,25961],[22.7,26044],[22.7,26128],[22.7,26211],[22.7,26294],[22.7,26378],[22.7,26460],[22.7,26544],[22.7,26626],[22.7,26712],[22.7,26794],[22.7,26878],[22.7,26962],[22.7,27043],[22.7,27131],[22.7,27210],[22.7,27295],[22.7,27377],[22.7,27460],[22.7,27545],[22.7,27627],[22.7,27710],[22.7,27798],[22.7,27877],[22.7,27959],[22.7,28046],[22.7,28127],[22.7,28211],[22.7,28295],[22.7,28376],[22.7,28460],[22.7,28545],[22.7,28626],[22.7,28708],[22.7,28795],[22.7,28878],[22.7,28959],[22.7,29051],[22.7,29133],[22.7,29217],[22.7,29320],[22.7,29405],[22.7,29489],[22.7,29574],[22.7,29654],[22.7,29738],[22.7,29827],[22.7,29905],[22.7,29986],[22.7,30071],[22.7,30155],[22.7,30238],[22.7,30321],[22.7,30404],[22.7,30488],[22.7,30571],[22.7,30656],[22.7,30738],[22.7,30820],[22.7,30905],[22.7,30989],[22.7,31071],[22.7,31155],[22.7,31238],[22.7,31321],[22.7,31405],[22.7,31486],[22.7,31570],[22.7,31655],[22.7,31738],[22.7,31820],[22.7,31906],[22.7,31988],[22.7,32073],[22.7,32156],[22.7,32238],[22.7,32322],[22.7,32405],[22.7,32488],[22.7,32573],[22.7,32654],[22.7,32738],[22.7,32821],[22.7,32904],[22.7,32988],[22.7,33069],[22.7,33154],[22.7,33239],[22.7,33323],[22.7,33405],[22.7,33488],[22.7,33583],[22.7,33661],[22.7,33745],[22.7,33829],[22.7,33920],[22.7,34001],[22.7,34087],[22.7,34174],[22.7,34259],[22.7,34345],[22.7,34428],[22.7,34509],[22.7,34595],[22.7,34675],[22.7,34766],[22.7,34851],[22.7,34932],[22.7,35016],[22.7,35101],[22.7,35181],[22.7,35264],[22.7,35351],[22.7,35432],[22.7,35514],[22.7,35601],[22.7,35681],[22.7,35766],[22.7,35851],[22.7,35932],[22.7,36015],[22.7,36097],[22.7,36182],[22.7,36266],[22.7,36348],[22.7,36434],[22.7,36515],[22.7,36598],[22.7,36684],[22.7,36765],[22.7,36849],[22.7,36934],[22.7,37018],[22.7,37098],[22.8,37197],[22.8,37275],[22.9,37357],[23,37440],[23.2,37522],[23.3,37607],[23.3,37692],[23.3,37779],[23.3,37863],[23.3,37947],[23.3,38029],[23.3,38120],[23.3,38205],[23.3,38285],[23.3,38372],[23.3,38454],[23.3,38535],[23.3,38623],[23.3,38704],[23.3,38788],[23.3,38871],[23.3,38953],[23.3,39037],[23.3,39119],[23.3,39205],[23.3,39286],[23.3,39377],[23.3,39452],[23.3,39536],[23.3,39619],[23.3,39708],[23.3,39786],[23.3,39870],[23.3,39953],[23.3,40036],[23.3,40120],[23.3,40204],[23.3,40287],[23.3,40370],[23.3,40453],[23.3,40537],[23.3,40619],[23.3,40703],[23.3,40785],[23.3,40870],[23.3,40955],[23.3,41036],[23.3,41119],[23.3,41204],[23.3,41285],[23.3,41370],[23.3,41452],[23.3,41536],[23.3,41620],[23.4,41704],[23.7,41786],[23.7,41870],[24.2,41955],[24.9,42047],[25.3,42127],[25.4,42212],[25.8,42321],[25.8,42402],[25.8,42482],[25.9,42566],[25.9,42649],[25.9,42730],[25.9,42815],[25.9,42900],[25.9,42979],[25.9,43065],[25.9,43149],[25.9,43230],[25.9,43315],[25.9,43399],[25.9,43482],[25.9,43563],[25.9,43646],[25.9,43730],[25.9,43815],[25.9,43897],[25.9,43982],[25.9,44065],[25.9,44149],[25.9,44230],[25.9,44313],[25.9,44399],[25.9,44482],[25.9,44563],[25.9,44649],[25.9,44730],[25.9,44815],[25.9,44899],[25.9,44982],[25.9,45065],[25.9,45149],[25.9,45235],[26.8,45317],[27.7,45400],[27.9,45482],[28.3,45563],[28.5,45647],[28.9,45732],[29.3,45821],[29.7,45899],[29.9,45982],[30.1,46065],[30.3,46146],[30.5,46230],[30.5,46316],[30.5,46397],[30.5,46480],[30.5,46575],[30.5,46654],[30.5,46738],[30.5,46821],[30.5,46902],[30.5,46986],[30.5,47071],[30.5,47161],[30.5,47247],[30.5,47327],[30.5,47411],[30.7,47495],[31,47579],[31.5,47672],[31.9,47753],[32.6,47837],[32.9,47919],[33.1,48001],[33.1,48084],[33.1,48170],[33.1,48253],[33.1,48339],[33.1,48417],[33.1,48500],[33.1,48585],[33.1,48667],[33.1,48753],[33.1,48835],[33.1,48918],[33.1,49002],[33.1,49086],[33.1,49167],[33.1,49251],[33.1,49337],[33.1,49417],[33.1,49500],[33.1,49586],[33.1,49669],[33.1,49752],[33.1,49837],[33.1,49919],[33.1,50000],[33.1,50085],[33.1,50168],[33.1,50251],[33.1,50337],[33.1,50423],[33.1,50500],[33.1,50586],[33.1,50668],[33.1,50751],[33.1,50833],[33.1,50919],[33.1,51000],[33.1,51085],[33.1,51168],[33.1,51251],[33.1,51334],[33.1,51418],[33.1,51501],[33.1,51585],[33.1,51668],[33.1,51752],[33.1,51836],[33.1,51917],[33.1,52001],[33.1,52085],[34.4,52170],[35.3,52251],[35.7,52337],[36.2,52420],[36.6,52502],[36.8,52584],[37.2,52669],[37.5,52751],[37.8,52836],[37.8,52919],[37.9,53002],[37.9,53086],[37.9,53168],[37.9,53253],[38,53334],[38,53419],[38,53502],[38,53584],[38,53670],[38,53753],[38,53834],[38,53916],[38,54006],[38,54085],[38,54169],[38,54251],[38,54336],[38,54418],[38,54503],[38,54589],[38,54668],[38,54752],[38,54835],[38,54925],[38,55008],[38,55093],[38,55202],[38,55277],[38,55365],[38.2,55448],[38.3,55529],[38.4,55613],[38.7,55698],[38.8,55779],[39.2,55863]]",1,0,216.57,224.388,39.58333333,4.79,"[{""rating"":39.58333333333333,""responseTime"":4.789999999999992}]",space,7.285,,224.389,Definitely yes,100,224.407,,,[],,0,1,1,1,1,audio/Narrative7Situation1.wav,audio/Narrative8Situation1.wav,audio/Narrative5Situation1.wav,audio/Narrative6Situation1.wav,2,5,5,2,1.848,,,,,,,,,,,,,,,,,,,,,,,,,,,,,,,,,,,,,,
,,,,,,5d94d2ab9ac1cb001775fac2,2024-02-08_12h42.17.040,group3.1-3.2-social-tom,2023.2.2,Win32,72.04610951,65c5074098b851296ff0b7ed,65c512683e09a7c7763785a9,,,,,,,,,,,,,,,,,,,,,,,,,,,,,224.408,1,audio/Narrative7Situation2.wav,227.418,,227.419,234.913,"[[38.3,1281],[31.1,1395],[21.4,1485],[2.5,1822],[10.3,2177],[15.9,2261],[16.7,2340],[16.9,2425],[17.8,2513],[21.1,2597],[21.9,2682],[22,2763],[22,2848],[22,2932],[22,3012],[22.5,3099],[27.5,3185],[29.7,3266],[29.9,3346],[29.9,3431],[29.9,3515],[29.8,3598],[29.8,3680],[29.8,3766],[29.8,3847],[29.8,3930],[29.8,4015],[29.8,4098],[29.8,4180],[29.8,4266],[29.8,4347],[29.8,4429],[29.8,4515],[29.8,4597],[29.8,4679],[29.8,4766],[29.8,4847],[29.8,4931],[32,5017],[52.6,5100],[67.2,5181],[72.5,5266],[72.8,5347],[72.8,5430],[72.8,5513],[72.7,5606],[72.7,5688],[72.7,5770],[72.7,5865],[72.7,5945],[72.7,6028],[72.7,6111],[72.7,6194],[72.7,6278],[72.7,6363],[72.7,6450],[72.7,6536],[72.7,6619],[72.7,6701],[72.7,6784],[72.7,6868],[72.7,6965],[72.7,7049],[72.7,7131],[72.7,7215],[72.7,7298],[72.7,7386],[72.7,7467]]",1,0,234.914,246.123,99.86979167,8.974,"[{""rating"":99.86979166666667,""responseTime"":8.97399999999999}]",space,10.673,,246.123,Partially,50,246.136,,,[],,0,2,2,2,1,audio/Narrative7Situation2.wav,audio/Narrative8Situation2.wav,audio/Narrative5Situation2.wav,audio/Narrative6Situation2.wav,3,3,3,3,,,,,,,,,,,,,,,,,,,,,,,,,,,,,,,,,,,,,,,
,,,,,,5d94d2ab9ac1cb001775fac2,2024-02-08_12h42.17.040,group3.1-3.2-social-tom,2023.2.2,Win32,72.04610951,65c5074098b851296ff0b7ed,65c512683e09a7c7763785a9,,,,,,,,,,,,,,,,,,,,,,,,,,,,,246.137,1,audio/Narrative7Situation3.wav,254.148,,254.148,263.408,"[[1.4,682],[4,1800],[4.4,1880],[4.6,1964],[4.6,2050],[4.6,2129],[4.4,2216],[2.2,2302]]",1,0,263.409,270.038,0,3.916,"[{""rating"":0,""responseTime"":3.915999999999997}]",space,6.098,,270.039,Partially,50,270.049,,,[],,0,3,3,3,1,audio/Narrative7Situation3.wav,audio/Narrative8Situation3.wav,audio/Narrative5Situation3.wav,audio/Narrative6Situation3.wav,8,4,3,5,,,,,,,,,,,,,,,,,,,,,,,,,,,,,,,,,,,,,,,
,,,,,,5d94d2ab9ac1cb001775fac2,2024-02-08_12h42.17.040,group3.1-3.2-social-tom,2023.2.2,Win32,72.04610951,65c5074098b851296ff0b7ed,65c512683e09a7c7763785a9,,,,,,,,,,,,,,,,,,,,,,,,,,,,,270.052,1,audio/Narrative7Situation4.wav,273.061,,273.062,284.793,"[[0.1,1350],[0.3,1432],[0.5,1516],[0.7,1603],[0.7,1689],[0.7,1771],[0.5,1857],[0.4,1941],[0.1,2021],[1.7,6774],[4.9,6841],[7.9,6911],[9.6,6968],[12.2,7031],[14.3,7103],[15.2,7163],[16.4,7259],[18.1,7350],[19.1,7432],[20.1,7519],[20.6,7619],[20.8,7706],[21,7786],[21.2,7870],[22,7961],[22.1,8043],[22.4,8134],[23.2,8218],[23.7,8302],[24.1,8382],[24.1,8466],[24.1,8550],[24.1,8634],[24.1,8716],[24.1,8799],[24.1,8883],[24.1,8966],[24.1,9050],[24.1,9133],[24.1,9221],[24.1,9300],[24.1,9383],[24.1,9472],[24.1,9549],[24.1,9634],[24.1,9716],[24.1,9800],[24.1,9884],[24.1,9968],[24.1,10048],[24.1,10133],[24.1,10216],[24.1,10300],[24.1,10384],[24.1,10468],[24.1,10550],[24.1,10633],[24.1,10718],[24.1,10800],[24.1,10883],[24.1,10968],[24.1,11049],[24.1,11138],[24.1,11216],[24.1,11299],[24.1,11384],[24.1,11468],[24.1,11550],[24.1,11634],[24.1,11715]]",1,0,284.794,288.371,9.375,2.547,"[{""rating"":9.375,""responseTime"":2.5470000000000255}]",space,3.043,,288.371,Not at all,0,288.385,,,[],,0,4,4,4,1,audio/Narrative7Situation4.wav,audio/Narrative8Situation4.wav,audio/Narrative5Situation4.wav,audio/Narrative6Situation4.wav,3,3,1,2,,,,,,,,,,,,,,,,,,,,,,,,,,,,,,,,,,,,,,,
,,,,,,5d94d2ab9ac1cb001775fac2,2024-02-08_12h42.17.040,group3.1-3.2-social-tom,2023.2.2,Win32,72.04610951,65c5074098b851296ff0b7ed,65c512683e09a7c7763785a9,,,,,,,,,,,,,,,,,,,,,,,,,,,,,288.386,1,audio/Narrative7Situation5.wav,293.397,,293.397,301.883,[],1,0,301.884,306.948,0,4.238,"[{""rating"":0,""responseTime"":4.2379999999999995}]",space,4.531,,306.949,Definitely yes,100,306.967,,,[],,0,5,5,5,1,audio/Narrative7Situation5.wav,audio/Narrative8Situation5.wav,audio/Narrative5Situation5.wav,audio/Narrative6Situation5.wav,5,2,5,2,,,,,,,,,,,,,,,,,,,,,,,,,,,,,,,,,,,,,,,
,,,,,,5d94d2ab9ac1cb001775fac2,2024-02-08_12h42.17.040,group3.1-3.2-social-tom,2023.2.2,Win32,72.04610951,65c5074098b851296ff0b7ed,65c512683e09a7c7763785a9,,,,,,,,,,,,,,,,,,,,,,,,,,,,,306.968,1,audio/Narrative7Situation6.wav,309.974,,309.974,319.96,"[[999,1],[999,103],[999,185],[999,269],[999,351],[999,435],[999,520],[999,608],[0.1,687],[0.5,2380],[8.1,2444],[20.1,2507],[36.1,2570],[53.1,2632],[66.9,2715],[85.7,2800],[88.7,2882],[91.7,2965],[95.1,3048],[99.3,3131],[100,3213],[100,3296],[100,3380],[100,3461],[100,3548],[100,3630],[100,3713],[100,3798],[100,3880],[100,3962],[100,4046],[100,4129],[100,4212],[100,4296],[100,4381],[100,4464],[100,4545],[100,4629],[100,4713],[100,4796],[100,4879],[100,4963],[100,5046],[100,5129],[100,5213],[100,5296],[100,5382],[100,5463],[100,5546],[100,5630],[100,5713],[100,5795],[100,5880],[100,5967],[100,6048],[100,6130],[100,6214],[100,6298],[100,6380],[100,6464],[100,6545],[100,6629],[100,6713],[100,6796],[100,6879],[100,6967],[100,7048],[100,7131],[100,7216],[96.4,7298],[92.2,7382],[90.6,7467],[89.3,7548],[87.1,7629],[85.5,7715],[84.9,7796],[84.1,7881],[83.9,7964],[83.2,8049],[82,8132],[80.7,8215],[79,8298],[77.1,8380],[76.3,8464],[75.4,8549],[74.6,8631],[74.1,8717],[73.8,8800],[73.2,8882],[70.8,8964],[68.2,9048],[64.7,9146],[61.2,9231]]",1,0,319.961,328.341,99.47916667,7.024,"[{""rating"":99.47916666666667,""responseTime"":7.024000000000001}]",space,7.84,,328.342,Partially,50,328.354,,,[],,0,6,6,6,1,audio/Narrative7Situation6.wav,audio/Narrative8Situation6.wav,audio/Narrative5Situation6.wav,audio/Narrative6Situation6.wav,3,2,3,2,,,,,,,,,,,,,,,,,,,,,,,,,,,,,,,,,,,,,,,
,,,,,,5d94d2ab9ac1cb001775fac2,2024-02-08_12h42.17.040,group3.1-3.2-social-tom,2023.2.2,Win32,72.04610951,65c5074098b851296ff0b7ed,65c512683e09a7c7763785a9,,,,,,,,,,,,,,,,,,,,,,,,,,,,,328.355,1,audio/Narrative7Situation7.wav,333.365,,333.365,350.543,"[[2.3,3317],[100,3836],[100,3906],[97.9,3966],[91.1,4030],[89.3,4098],[89.1,4165],[87.8,4228],[83.3,4300],[79.6,4365],[75.3,4427],[71.6,4489],[70.4,4548],[70.2,4617],[70.1,4706],[69.1,4790],[66,4872],[64.8,4958],[64.8,5037],[64.8,5120],[64.8,5206],[64.8,5288],[62.2,5371],[39.6,5459],[33.6,5540],[32.2,5622],[32.2,5703],[32.2,5792],[32.2,5870],[32.2,5951],[32.2,6037],[32.2,6122],[32.2,6205],[32.2,6292],[32.2,6372],[32.2,6454],[32.2,6538],[32.2,6620],[32.2,6704],[32.2,6787],[32.2,6870],[32.2,6955],[30.6,7040],[23,7125],[18,7205],[15.1,7292],[13.8,7371],[12.6,7455],[11.3,7538],[10.2,7622],[9.6,7710],[9.6,7795],[9.6,7879],[9.6,7961],[9.6,8045],[9.6,8127],[9.6,8211],[9.6,8295],[9.6,8375],[9.6,8453],[9.6,8531],[9.6,8613],[9.6,8694],[9.6,8770],[9.6,8853],[9.6,8932],[9.6,9014],[9.4,9103],[9.1,9187],[8.9,9268],[8.6,9351],[8.6,9443],[8.5,9521],[8.5,9598],[8.5,9681],[8.5,9768],[8.5,9850],[8.5,9925],[8.3,10009],[7.8,10095],[6.4,10177],[4,10261],[2.9,10348],[2.9,10423],[2.9,10500],[2.9,10581],[2.9,10662],[2.9,10742],[2.9,10822],[3.4,10901],[8.2,10971],[13.7,11038],[19.5,11102],[27.2,11172],[32.6,11227],[39.8,11293],[50.5,11360],[56,11425],[61.2,11488],[64.3,11557],[65.4,11617],[66.1,11679],[66.4,11754],[66.9,11829],[68.5,11915],[68.8,12002],[68.8,12086],[68.8,12169],[68.8,12252],[68.8,12335],[68.8,12420],[68.8,12502],[68.8,12586],[68.8,12669],[68.6,12754],[68.5,12835],[68.2,12920],[68,13004],[67.6,13086],[67.3,13173],[67.1,13252],[66.9,13338],[66.9,13420],[66.9,13502],[66.8,13586],[66.8,13672],[66.4,13754],[65.4,13838],[64.1,13923],[63.3,14002],[62,14086],[60.4,14173],[59.8,14254],[58.9,14338],[56.4,14424],[55.2,14504],[54.7,14588],[52.5,14672],[50.5,14754],[50.1,14838],[49.9,14920],[49.7,15002],[49.7,15086],[49.7,15168],[49.9,15252],[51.7,15338],[56,15420],[61.6,15504],[64.5,15588],[66.7,15669],[67.8,15754],[68.6,15836],[69,15931],[69,16008],[69,16093],[69,16175],[69,16266],[69,16351],[69,16435],[69,16516],[69,16600],[69,16685],[69,16766],[69,16848],[69.1,16937],[69.5,17026],[69.5,17107]]",1,0,350.543,355.787,52.47395833,4.227,"[{""rating"":52.473958333333336,""responseTime"":4.226999999999975}]",space,4.709,,355.787,Definitely yes,100,355.804,,,[],,0,7,7,7,1,audio/Narrative7Situation7.wav,audio/Narrative8Situation7.wav,audio/Narrative5Situation7.wav,audio/Narrative6Situation7.wav,5,3,4,5,,,,,,,,,,,,,,,,,,,,,,,,,,,,,,,,,,,,,,,
,,,,,,5d94d2ab9ac1cb001775fac2,2024-02-08_12h42.17.040,group3.1-3.2-social-tom,2023.2.2,Win32,72.04610951,65c5074098b851296ff0b7ed,65c512683e09a7c7763785a9,,,,,,,,,,,,,,,,,,,,,,,,,,,,,355.805,1,audio/Narrative7Situation8.wav,357.806,,357.806,367.843,"[[999,2],[999,103],[999,185],[999,269],[999,354],[999,435],[999,520],[999,605],[999,686],[999,771],[0.1,854],[0.9,936],[0.9,1020],[0.8,1103],[0.8,1185],[0.7,1269],[0.4,1351],[0.1,1437],[8.9,7948],[46,8036],[69.3,8120],[89.7,8286],[100,8368],[100,8449],[100,8534],[100,8616],[100,8698],[100,8782],[100,8866],[99.9,8952],[88.3,9036],[84.6,9116],[82.2,9201],[69.5,9286],[56.5,9368],[50.1,9451],[47.1,9537],[45.8,9616],[45.8,9699],[46,9786],[46.5,9866],[47.1,9951],[48.7,10036]]",1,0,367.844,372.089,50.390625,3.517,"[{""rating"":49.86979166666667,""responseTime"":1.4209999999999923},{""rating"":51.953125,""responseTime"":2.6299999999999955},{""rating"":50.390625,""responseTime"":3.516999999999996}]",space,3.725,,372.09,Not at all,0,372.108,,,[],,0,8,8,8,1,audio/Narrative7Situation8.wav,audio/Narrative8Situation8.wav,audio/Narrative5Situation8.wav,audio/Narrative6Situation8.wav,2,3,3,5,,,,,,,,,,,,,,,,,,,,,,,,,,,,,,,,,,,,,,,
,,,,,,5d94d2ab9ac1cb001775fac2,2024-02-08_12h42.17.040,group3.1-3.2-social-tom,2023.2.2,Win32,72.04610951,65c5074098b851296ff0b7ed,65c512683e09a7c7763785a9,,,,,,,,,,,,,,,,,,,,,,,,,,,,,372.11,1,audio/Narrative7Situation9.wav,374.111,,374.112,382.737,"[[1.6,1541],[19.3,1625],[36.5,1709],[53.8,1791],[69.5,1875],[76.4,2038],[76.4,2120],[76.4,2208],[76.4,2290],[87.1,2375],[98.2,2459],[100,2538],[100,2612],[100,2668],[100,2747],[100,2831],[100,2925],[100,3004],[100,3091],[100,3175],[100,3254],[100,3336],[100,3422],[100,3504],[100,3588],[100,3677],[100,3757],[100,3817],[100,3896],[100,3971],[100,4052],[100,4137],[100,4221],[100,4302],[100,4387],[100,4473],[100,4552],[100,4636],[100,4721],[100,4805],[100,4884],[100,4971],[100,5052],[100,5137],[100,5223],[100,5303],[100,5387],[100,5469],[100,5553],[100,5634],[100,5721],[100,5803],[100,5886],[100,5976],[100,6055],[100,6137],[100,6218],[100,6303],[100,6387],[100,6468],[100,6557],[100,6636],[100,6721],[100,6805],[100,6887],[100,6971],[100,7057],[100,7137],[100,7225],[100,7303],[100,7386],[100,7471],[100,7555],[100,7636],[100,7718],[100,7802],[100,7887],[100,7971],[100,8055],[100,8139],[100,8218],[100,8305],[100,8387],[100,8468],[100,8555]]",1,0,382.737,385.159,99.73958333,1.655,"[{""rating"":99.73958333333333,""responseTime"":1.6550000000000296}]",space,1.898,,385.159,Partially,50,385.171,,,[],,0,9,9,9,1,audio/Narrative7Situation9.wav,audio/Narrative8Situation9.wav,audio/Narrative5Situation9.wav,audio/Narrative6Situation9.wav,2,3,3,4,,,,,,,,,,,,,,,,,,,,,,,,,,,,,,,,,,,,,,,
,,,,,,5d94d2ab9ac1cb001775fac2,2024-02-08_12h42.17.040,group3.1-3.2-social-tom,2023.2.2,Win32,72.04610951,65c5074098b851296ff0b7ed,65c512683e09a7c7763785a9,,,,,,,,,,,,,,,,,,,,,,,,,,,,,385.172,1,audio/Narrative8Situation1.wav,390.174,,390.174,406.111,"[[999,2],[999,101],[999,185],[999,267],[999,353],[999,435],[999,517],[999,603],[999,685],[999,771],[999,850],[17.8,4091],[28.6,4158],[39.7,4228],[45.4,4303],[47.1,4365],[48.2,4428],[48.2,4497],[48.2,4574],[48.2,4642],[47.8,4728],[45.7,4795],[39.8,4858],[35.4,4919],[31.8,4988],[31.3,5051],[31.1,5122],[31.1,5204],[31.1,5293],[31.3,5377],[31.6,5456],[32.7,5540],[35,5598],[36.7,5665],[36.7,5729],[36.6,5803],[36.6,5882],[36.6,5954],[36.6,6036],[36.6,6108],[36.6,6192],[36.6,6276],[36.6,6358],[36.6,6444],[36.6,6527],[36.6,6610],[36.6,6697],[36.6,6776],[36.6,6860],[36.6,6942],[36.6,7026],[36.6,7111],[36.6,7192],[36.6,7276],[36.6,7361],[36.6,7442],[36.6,7522],[37,7593],[38.8,7658],[39.5,7724],[39.8,7793],[39.8,7860],[39.8,7930],[39.8,8009],[39.8,8093],[39.8,8180],[39.8,8262],[39.8,8343],[39.5,8433],[39.1,8512],[38.3,8598],[36.6,8681],[34.9,8767],[34.5,8851],[34.2,8937],[34.2,9019],[34.2,9101],[34.2,9185],[34.2,9267],[34.2,9358],[34.2,9447],[34.2,9526],[34.2,9608],[34.2,9693],[34.2,9776],[34.2,9860],[34.2,9942],[34.2,10026],[39.3,10116],[50.8,10201],[56.6,10283],[60.4,10377],[61.8,10462],[61.8,10545],[61.8,10630],[61.8,10712],[62.5,10798],[63.2,10880],[63.3,10963],[63.3,11045],[63.3,11134],[63.3,11211],[63.3,11298],[63.3,11382],[63.3,11462],[63.3,11545],[63.3,11628],[63.3,11712],[63.3,11795],[63.3,11879],[63.3,11967],[63.3,12046],[63.3,12128],[63.3,12216],[63.3,12295],[63.3,12379],[63.3,12464],[63.3,12545],[63.3,12632],[63.3,12713],[63.3,12798],[63.4,12880],[63.4,12962],[63.4,13048],[63.4,13128],[63.5,13213],[63.7,13298],[64.8,13382],[66.3,13466],[68,13551],[69.1,13632],[69.5,13711],[69.8,13798],[69.8,13877],[70.1,13966],[70.3,14048],[71.1,14129],[71.5,14217],[71.6,14298],[71.6,14377],[71.6,14463],[71.6,14545],[71.6,14629],[71.6,14716],[71.6,14795],[71.6,14879],[71.6,14961],[71.6,15045],[71.7,15128],[71.9,15211],[71.9,15296],[71.9,15377],[71.9,15463],[71.9,15545],[71.9,15629],[71.9,15711],[71.9,15796],[71.9,15877]]",1,0,406.112,413.996,98.30729167,7.126,"[{""rating"":96.35416666666667,""responseTime"":6.051999999999964},{""rating"":98.30729166666667,""responseTime"":7.125999999999976}]",space,7.342,,413.997,Not at all,0,414.015,,,[],,0,10,10,10,1,audio/Narrative8Situation1.wav,audio/Narrative7Situation1.wav,audio/Narrative6Situation1.wav,audio/Narrative5Situation1.wav,5,2,2,5,,,,,,,,,,,,,,,,,,,,,,,,,,,,,,,,,,,,,,,
,,,,,,5d94d2ab9ac1cb001775fac2,2024-02-08_12h42.17.040,group3.1-3.2-social-tom,2023.2.2,Win32,72.04610951,65c5074098b851296ff0b7ed,65c512683e09a7c7763785a9,,,,,,,,,,,,,,,,,,,,,,,,,,,,,414.017,1,audio/Narrative8Situation2.wav,417.02,,417.02,427.141,"[[999,2],[999,101],[999,183],[999,245],[999,317],[2.1,384],[1.4,445],[1.3,521],[1,608],[0.7,685],[0.4,769]]",1,0,427.141,431.229,1.822916667,3.735,"[{""rating"":2.8645833333333313,""responseTime"":2.408999999999992},{""rating"":1.8229166666666685,""responseTime"":3.7350000000000136}]",space,3.557,,431.229,Not at all,0,441.393,0,8.998,"[{""rating"":0,""responseTime"":8.107000000000028},{""rating"":0,""responseTime"":8.99799999999999}]",space,0,11,11,11,1,audio/Narrative8Situation2.wav,audio/Narrative7Situation2.wav,audio/Narrative6Situation2.wav,audio/Narrative5Situation2.wav,3,3,3,3,,,9.633,,,,,,,,,,,,,,,,,,,,,,,,,,,,,,,,,,,,
,,,,,,5d94d2ab9ac1cb001775fac2,2024-02-08_12h42.17.040,group3.1-3.2-social-tom,2023.2.2,Win32,72.04610951,65c5074098b851296ff0b7ed,65c512683e09a7c7763785a9,,,,,,,,,,,,,,,,,,,,,,,,,,,,,441.394,1,audio/Narrative8Situation3.wav,445.407,,445.407,467.793,"[[0.1,1201],[0.3,1284],[0.3,1370],[0.3,1451],[0.3,1533],[0.3,1618],[0.3,1701],[0.3,1784],[0.3,1868],[0.3,1951],[0.3,2034],[0.3,2121],[0.3,2201],[0.3,2284],[0.3,2370],[0.3,2455],[0.3,2534],[0.3,2617],[0.3,2700],[0.3,2784],[0.3,2867],[0.3,2951],[0.1,3033],[0.1,3112],[0.1,3189],[0.1,3270],[0.1,3353],[0.1,3437],[0.1,3520],[0.1,3603],[0.1,3688],[0.1,3769],[1.2,3860],[4.3,3947],[6.9,4029],[8.2,4113],[9.2,4199],[11.6,4279],[19,4363],[33.2,4447],[40.9,4531],[41.9,4609],[41.9,4693],[41.8,4779],[41.3,4863],[40.4,4947],[40,5029],[40,5113],[40,5193],[39.8,5278],[39.8,5360],[39.5,5445],[38.9,5529],[36.8,5613],[32.8,5695],[30.2,5779],[28.9,5863],[28.3,5944],[27.3,6029],[26.2,6115],[25.7,6195],[25.4,6277],[25.3,6360],[25.3,6444],[25.1,6526],[25,6610],[25,6694],[25,6776],[25,6861],[25,6943],[25,7029],[25.1,7110],[25.3,7194],[26,7281],[27.3,7360],[30.1,7445],[32,7531],[32.9,7613],[32.9,7694],[32.9,7778],[32.9,7859],[32.9,7944],[32.9,8036],[32.9,8116],[32.9,8201],[32.9,8299],[32.9,8382],[32.9,8467],[32.9,8548],[32.9,8630],[32.9,8716],[32.9,8798],[32.9,8882],[32.9,8964],[33.1,9048],[33.1,9129],[33.1,9214],[33.1,9298],[33.3,9380],[33.3,9462],[33.6,9550],[33.6,9630],[33.9,9716],[33.9,9799],[34.1,9880],[34.1,9966],[34.1,10049],[34.2,10132],[34.4,10214],[34.5,10299],[34.6,10380],[35,10466],[35.2,10551],[35.3,10637],[35.4,10713],[35.5,10800],[35.7,10882],[35.8,10966],[35.9,11051],[35.9,11130],[35.9,11216],[35.9,11299],[35.9,11380],[35.9,11464],[35.9,11546],[35.9,11632],[35.9,11714],[35.9,11796],[35.9,11882],[35.9,11964],[35.9,12048],[35.9,12133],[35.9,12214],[35.9,12296],[35.9,12382],[35.9,12464],[35.9,12560],[35.9,12673],[35.9,12758],[35.9,12844],[35.9,12923],[36.1,13007],[36.2,13113],[36.2,13197],[36.5,13278],[36.5,13359],[36.6,13445],[36.6,13527],[36.6,13611],[36.7,13705],[36.8,13789],[37.2,13875],[39.3,13992],[39.7,14080],[39.8,14156],[40.1,14219],[40.5,14293],[40.9,14356],[41.4,14430],[41.7,14502],[41.8,14569],[41.9,14651],[41.9,14734],[41.9,14822],[42.1,14902],[42.1,14981],[42.1,15058],[42.1,15139],[42.1,15226],[42.1,15303],[42.1,15385],[42.1,15469],[42.1,15555],[42.1,15635],[42.1,15712],[42.1,15801],[42.1,15882],[42.1,15966],[42.1,16048],[42.1,16132],[42.1,16216],[42.1,16298],[42.1,16382],[42.1,16467],[42.1,16548],[42.1,16632],[42.1,16716],[42.1,16798],[42.1,16880],[42.1,16966],[42.1,17048],[42.1,17132],[42.1,17214],[42.1,17298],[42.1,17382],[42.1,17466],[42.1,17548],[42.1,17629],[42.1,17716],[42.1,17799],[42.1,17880],[42.1,17964],[42.1,18048],[42.1,18132],[42.1,18216],[42.1,18299],[42.1,18380],[42.1,18464],[42.1,18549],[42.1,18633],[42.1,18714],[42.1,18799],[42.1,18880],[43,18967],[43.4,19049],[43.5,19132],[43.5,19214],[43.5,19298],[43.5,19383],[43.5,19464],[43.5,19549],[43.5,19632],[43.5,19716],[43.5,19799],[43.5,19880],[43.5,19964],[43.5,20048],[43.5,20132],[43.5,20216],[45.2,20299],[46,20383],[46.2,20464],[46.7,20555],[47,20632],[47.1,20726],[47.1,20806],[47.1,20887],[47.1,20971],[47.1,21079],[47.1,21159],[47.1,21245],[47.1,21325],[47.1,21407],[47.1,21490],[47.1,21579],[47.1,21658],[47.1,21745],[47.1,21825],[47.1,21908],[47.1,21991],[47.1,22077],[47.1,22158],[47.1,22241],[47.1,22330]]",1,0,467.794,470.144,47.265625,1.413,"[{""rating"":47.265625,""responseTime"":1.413000000000011}]",space,1.822,,470.145,Not at all,0,470.156,,,[],,0,12,12,12,1,audio/Narrative8Situation3.wav,audio/Narrative7Situation3.wav,audio/Narrative6Situation3.wav,audio/Narrative5Situation3.wav,4,8,5,3,,,,,,,,,,,,,,,,,,,,,,,,,,,,,,,,,,,,,,,
,,,,,,5d94d2ab9ac1cb001775fac2,2024-02-08_12h42.17.040,group3.1-3.2-social-tom,2023.2.2,Win32,72.04610951,65c5074098b851296ff0b7ed,65c512683e09a7c7763785a9,,,,,,,,,,,,,,,,,,,,,,,,,,,,,470.158,1,audio/Narrative8Situation4.wav,473.166,,473.166,487.33,"[[2.7,403],[2.6,483],[2.3,569],[1.7,655],[1.3,735],[0.9,817],[0.5,902],[0.3,983],[0.8,4568],[3,4650],[6,4736],[7.4,4820],[7.9,4904],[8.6,4985],[9.6,5070],[9.8,5150],[10.2,5233],[10.2,5317],[10.2,5399],[10.2,5483],[10.2,5569],[10.2,5650],[10.2,5735],[10.2,5830],[10.2,5906],[10.2,5992],[10.2,6073],[10.2,6180],[10.2,6265],[10.2,6344],[10.2,6429],[10.2,6512],[10.2,6594],[10.2,6677],[10.2,6761],[10.7,6846],[14.2,6930],[18.5,7014],[21.7,7096],[23.7,7177],[25,7265],[26,7344],[27.5,7432],[28.8,7513],[29.9,7597],[30.9,7677],[31.3,7761],[31.3,7844],[31.3,7927],[31.3,8011],[31.3,8094],[31.3,8177],[31.3,8263],[31.3,8345],[31.3,8427],[31.3,8511],[31.3,8595],[31.3,8677],[31.3,8762],[32.2,8847],[32.6,8927],[32.8,9014],[33.1,9094],[33.2,9179],[33.3,9263],[33.3,9344],[33.6,9432],[33.6,9520],[33.6,9601],[33.6,9685],[33.6,9770],[33.6,9851],[33.7,9933],[33.9,10018],[33.9,10101],[33.9,10185],[34,10270],[34,10353],[34,10441],[34,10526],[34,10608],[34.1,10703],[34.1,10787],[34.2,10866],[34.4,10958],[34.6,11039],[34.6,11126],[34.8,11207],[35,11290],[35.2,11372],[35.2,11456],[35.3,11546],[35.3,11631],[35.3,11713],[35.3,11796],[41.8,11879],[45.7,11966],[49,12049],[51.3,12130],[52.5,12191],[53.8,12265],[54.9,12333],[57.6,12403],[62.5,12472],[71.6,12534],[82.3,12603],[86.8,12660],[90,12732],[90,12797],[90,12861],[90,12926],[90,12986],[90,13050],[90,13110],[90,13169],[90,13223],[92.3,13290],[96.4,13358],[97.1,13421],[97.7,13489],[98.2,13551],[99.2,13618],[100,13686],[100,13741],[100,13806],[100,13868],[100,13935],[100,13991],[100,14054],[100,14116]]",1,0,487.33,490.149,99.73958333,2.04,"[{""rating"":99.73958333333333,""responseTime"":2.0400000000000205}]",space,2.291,,490.149,Not at all,0,490.159,,,[],,0,13,13,13,1,audio/Narrative8Situation4.wav,audio/Narrative7Situation4.wav,audio/Narrative6Situation4.wav,audio/Narrative5Situation4.wav,3,3,2,1,,,,,,,,,,,,,,,,,,,,,,,,,,,,,,,,,,,,,,,
,,,,,,5d94d2ab9ac1cb001775fac2,2024-02-08_12h42.17.040,group3.1-3.2-social-tom,2023.2.2,Win32,72.04610951,65c5074098b851296ff0b7ed,65c512683e09a7c7763785a9,,,,,,,,,,,,,,,,,,,,,,,,,,,,,490.16,1,audio/Narrative8Situation5.wav,492.173,,492.173,500.415,"[[999,7],[999,122],[999,208],[999,290],[999,372],[999,455],[999,538],[999,622],[999,705],[999,790],[999,873],[999,956],[999,1044],[999,1125],[999,1205],[999,1293],[999,1371],[999,1455],[999,1540],[999,1627],[999,1705],[999,1790],[999,1872],[999,1956],[999,2042],[999,2121],[999,2206],[999,2292],[999,2375],[86.8,2460],[93,2879],[96.7,2965],[97.1,3048],[97.7,3134],[98.2,3212],[98.8,3298],[99.1,3379],[99.1,3462],[99.1,3547],[99.1,3627],[99.1,3711],[99.1,3797],[99.1,3877],[99.1,3963],[99.1,4047],[99.1,4129],[99.1,4212],[99.1,4297],[99.1,4379],[99.1,4463],[99.1,4549],[99.3,4629],[99.7,4713],[99.7,4795],[100,4879],[100,4962],[100,5045],[100,5134],[100,5211],[100,5295],[100,5381],[100,5462],[100,5545],[100,5629],[100,5711],[100,5795],[100,5879],[100,5961],[100,6045],[100,6131],[100,6212],[100,6295],[100,6388],[100,6468],[100,6551],[100,6648],[100,6725],[43.4,7728],[44.9,7810],[46.1,7895],[46.4,7975],[46.2,8060],[38.3,8147],[19.5,8228]]",1,0,500.416,502.98,86.71875,1.74,"[{""rating"":86.71875,""responseTime"":1.740000000000009}]",space,2.028,,502.981,Definitely yes,100,502.998,,,[],,0,14,14,14,1,audio/Narrative8Situation5.wav,audio/Narrative7Situation5.wav,audio/Narrative6Situation5.wav,audio/Narrative5Situation5.wav,2,5,2,5,,,,,,,,,,,,,,,,,,,,,,,,,,,,,,,,,,,,,,,
,,,,,,5d94d2ab9ac1cb001775fac2,2024-02-08_12h42.17.040,group3.1-3.2-social-tom,2023.2.2,Win32,72.04610951,65c5074098b851296ff0b7ed,65c512683e09a7c7763785a9,,,,,,,,,,,,,,,,,,,,,,,,,,,,,502.999,1,audio/Narrative8Situation6.wav,505.005,,505.005,511.477,"[[83.2,437],[78.9,519],[9.5,1769],[8.7,1853],[33.6,1937],[82.3,2019],[91,2104],[95.6,2189],[97.3,2271],[97.7,2350],[98.7,2440],[100,2518],[100,2601],[100,2686],[100,2773],[100,2851],[100,2937],[100,3018],[100,3103],[100,3187],[100,3271],[100,3350],[100,3437],[100,3518],[100,3600],[100,3687],[100,3769],[100,3851],[100,3936],[100,4019],[100,4101],[100,4187],[100,4269],[100,4351],[100,4436],[100,4523],[100,4600],[100,4684],[100,4769],[100,4851],[100,4936],[100,5021],[100,5103],[100,5186],[100,5269],[100,5350],[100,5434],[100,5519],[100,5601],[100,5685],[100,5771],[100,5851],[100,5935],[100,6019],[100,6101],[100,6185],[100,6269],[100,6353],[100,6447]]",1,0,511.477,514.913,99.47916667,2.356,"[{""rating"":99.47916666666667,""responseTime"":2.3559999999999945}]",space,2.91,,514.913,Not at all,0,514.925,,,[],,0,15,15,15,1,audio/Narrative8Situation6.wav,audio/Narrative7Situation6.wav,audio/Narrative6Situation6.wav,audio/Narrative5Situation6.wav,2,3,2,3,,,,,,,,,,,,,,,,,,,,,,,,,,,,,,,,,,,,,,,
,,,,,,5d94d2ab9ac1cb001775fac2,2024-02-08_12h42.17.040,group3.1-3.2-social-tom,2023.2.2,Win32,72.04610951,65c5074098b851296ff0b7ed,65c512683e09a7c7763785a9,,,,,,,,,,,,,,,,,,,,,,,,,,,,,514.927,1,audio/Narrative8Situation7.wav,517.943,,517.943,530.027,"[[999,0],[999,62],[999,125]]",1,0,530.028,533.28,4.947916667,2.888,"[{""rating"":10.286458333333332,""responseTime"":1.9220000000000255},{""rating"":4.947916666666669,""responseTime"":2.8880000000000337}]",space,2.722,,533.281,Definitely yes,100,533.301,,,[],,0,16,16,16,1,audio/Narrative8Situation7.wav,audio/Narrative7Situation7.wav,audio/Narrative6Situation7.wav,audio/Narrative5Situation7.wav,3,5,5,4,,,,,,,,,,,,,,,,,,,,,,,,,,,,,,,,,,,,,,,
,,,,,,5d94d2ab9ac1cb001775fac2,2024-02-08_12h42.17.040,group3.1-3.2-social-tom,2023.2.2,Win32,72.04610951,65c5074098b851296ff0b7ed,65c512683e09a7c7763785a9,,,,,,,,,,,,,,,,,,,,,,,,,,,,,533.302,1,audio/Narrative8Situation8.wav,536.308,,536.309,549.164,"[[0.3,7398],[4.2,7462],[8.5,7524],[15.8,7585],[21.4,7647],[22.3,7718],[22.3,7806],[22.3,7887],[22.3,7975],[22.3,8063],[22.3,8144],[22.3,8228],[31.5,8316],[38.3,8397],[42.4,8490],[45.1,8573],[47.1,8653],[48,8737],[48.4,8820],[48.7,8901],[49.1,8985],[49.5,9074],[49.9,9160],[50.3,9243],[50.3,9326],[50.3,9410],[50.3,9491],[50.3,9578],[50.3,9657],[50.3,9741],[50.3,9826],[50.3,9908],[50.3,9991],[50.3,10082],[50.3,10160],[50.3,10242],[50.3,10326],[50.3,10409],[50.3,10492],[50.3,10576],[50.3,10658],[50.3,10742],[50.3,10826],[50.3,10909],[50.3,10992],[50.3,11076],[50.3,11158],[50.3,11242],[50.3,11326],[50.3,11408],[50.3,11492],[50.3,11576],[50.3,11658],[50.3,11742],[50.3,11823],[50.3,11909],[50.3,11991],[50.3,12082],[50.3,12162],[50.3,12241],[50.3,12324],[50.3,12408],[50.3,12490],[50.3,12574],[50.3,12658],[50.3,12741],[50.3,12824]]",1,0,549.164,556.691,49.21875,7.053,"[{""rating"":49.73958333333333,""responseTime"":4.442999999999984},{""rating"":48.69791666666667,""responseTime"":5.746999999999957},{""rating"":49.21875,""responseTime"":7.052999999999997}]",space,6.994,,556.692,Partially,50,556.702,,,[],,0,17,17,17,1,audio/Narrative8Situation8.wav,audio/Narrative7Situation8.wav,audio/Narrative6Situation8.wav,audio/Narrative5Situation8.wav,3,2,5,3,,,,,,,,,,,,,,,,,,,,,,,,,,,,,,,,,,,,,,,
,,,,,,5d94d2ab9ac1cb001775fac2,2024-02-08_12h42.17.040,group3.1-3.2-social-tom,2023.2.2,Win32,72.04610951,65c5074098b851296ff0b7ed,65c512683e09a7c7763785a9,,,,,,,,,,,,,,,,,,,,,,,,,,,,,556.703,1,audio/Narrative8Situation9.wav,559.706,,559.706,571.031,"[[43.6,2212],[8.6,2298],[7.8,3716],[13.3,3802],[20.3,3889],[34.5,3975],[43.9,4061],[48.2,4147],[49.2,4227],[49.3,4311],[49.7,4397],[49.7,4477],[49.7,4557],[49.7,4643],[49.7,4725],[49.7,4810],[49.7,4894],[49.7,4975],[49.7,5058],[49.7,5144],[49.7,5225],[49.7,5310],[49.7,5394],[49.7,5480],[49.7,5560],[49.7,5642],[49.7,5730],[49.7,5816],[49.7,5899],[49.7,5983],[49.7,6085],[49.7,6172],[49.7,6253],[49.7,6336],[49.7,6423],[49.7,6504],[49.7,6597],[49.7,6677],[49.7,6760],[49.7,6844],[49.7,6927],[49.7,7009],[49.7,7095],[49.7,7176],[49.7,7260],[49.7,7344],[49.7,7428],[49.7,7510],[49.7,7592],[49.7,7683],[49.7,7760],[49.7,7845],[49.7,7927],[49.7,8010],[49.7,8095],[49.7,8177],[49.7,8259],[49.7,8345],[49.7,8427],[49.7,8510],[49.7,8595],[49.7,8677],[49.7,8759],[49.7,8845],[49.7,8928],[49.7,9014],[49.7,9094],[49.7,9176],[49.7,9259],[49.7,9346],[49.7,9427],[49.7,9509],[49.7,9594],[49.7,9677],[49.7,9760],[49.7,9844],[49.7,9932],[49.7,10009],[49.7,10095],[49.7,10179],[49.7,10262],[49.7,10351],[49.7,10432],[49.7,10517],[49.7,10605],[49.7,10692],[49.7,10774],[49.7,10866],[49.7,10951],[49.7,11032],[49.7,11118],[49.7,11198],[49.7,11286]]",1,0,571.032,572.997,61.71875,1.561,"[{""rating"":61.71875,""responseTime"":1.5610000000000355}]",space,1.426,,572.997,Definitely yes,100,573.012,,,[],,0,18,18,18,1,audio/Narrative8Situation9.wav,audio/Narrative7Situation9.wav,audio/Narrative6Situation9.wav,audio/Narrative5Situation9.wav,3,2,4,3,,,,,,,,,,,,,,,,,,,,,,,,,,,,,,,,,,,,,,,
,,,,,,5d94d2ab9ac1cb001775fac2,2024-02-08_12h42.17.040,group3.1-3.2-social-tom,2023.2.2,Win32,72.04610951,65c5074098b851296ff0b7ed,65c512683e09a7c7763785a9,,,,,,,,,,,,,,,,,,,,,,,,,,,579.193,581.764,581.802,2,audio/Narrative13Situation2.wav,581.802,,581.802,611.567,"[[2.3,1091],[2.2,1183],[1.8,1264],[1.7,1345],[1.3,1434],[1.2,1523],[0.9,1602],[0.8,1690],[0.7,1775],[0.7,1859],[0.7,1948],[0.7,2024],[0.7,2110],[0.7,2197],[0.7,2283],[0.7,2365],[0.7,2451],[0.7,2532],[0.8,2615],[1,2701],[1.3,2782],[1.6,2865],[2.3,2960],[4.3,3043],[4.8,3123],[4.9,3206],[5.2,3288],[5.3,3371],[5.5,3457],[5.5,3538],[5.5,3621],[5.5,3707],[5.5,3789],[5.5,3871],[5.5,3958],[5.5,4038],[5.5,4123],[5.5,4205],[5.5,4288],[5.5,4373],[5.5,4456],[5.5,4538],[5.5,4626],[5.5,4705],[5.5,4788],[5.5,4871],[5.5,4956],[5.5,5041],[5.5,5126],[5.5,5208],[5.5,5289],[5.5,5374],[5.5,5456],[5.5,5541],[5.5,5623],[5.5,5705],[5.5,5791],[5.5,5873],[5.5,5956],[5.5,6041],[5.5,6123],[5.5,6203],[5.5,6289],[5.5,6371],[5.5,6456],[5.5,6538],[5.5,6623],[5.5,6706],[5.5,6789],[5.5,6876],[5.5,6956],[5.5,7038],[5.5,7121],[5.5,7206],[5.5,7289],[5.5,7374],[5.5,7455],[5.5,7539],[5.5,7628],[5.5,7706],[5.5,7789],[5.5,7873],[5.5,7961],[5.5,8038],[5.5,8121],[5.5,8206],[5.5,8291],[13.7,8379],[33.1,8466],[57,8552],[75.9,8640],[99.2,8889],[100,8971],[100,9057],[100,9135],[100,9221],[100,9302],[100,9389],[100,9481],[100,9562],[100,9643],[100,9725],[100,9831],[100,9914],[100,9996],[100,10085],[100,10163],[100,10248],[100,10336],[100,10423],[100,10509],[100,10591],[100,10673],[100,10758],[100,10837],[100,10919],[100,11006],[100,11087],[100,11171],[100,11253],[100,11337],[100,11421],[100,11504],[100,11586],[100,11671],[100,11754],[100,11841],[100,11926],[100,12003],[100,12089],[100,12171],[100,12254],[100,12336],[100,12421],[100,12503],[100,12586],[100,12669],[100,12754],[100,12837],[100,12921],[100,13005],[100,13087],[100,13171],[100,13254],[100,13337],[100,13421],[100,13504],[100,13589],[100,13673],[100,13754],[100,13836],[100,13919],[100,14004],[100,14114],[100,14198],[100,14282],[100,14369],[100,14448],[100,14537],[100,14620],[100,14698],[100,14783],[100,14865],[100,14956],[100,15039],[100,15123],[100,15212],[100,15296],[100,15379],[100,15484],[100,15559],[100,15644],[100,15738],[100,15812],[100,15885],[100,15972],[100,16052],[100,16135],[100,16221],[100,16303],[100,16388],[100,16471],[100,16552],[100,16637],[100,16720],[100,16802],[100,16885],[100,16971],[100,17052],[100,17137],[100,17220],[100,17302],[87.4,17403],[63.2,17493],[8.6,18243],[6.3,18326],[5.2,18409],[5.2,18490],[5.2,18573],[5.2,18655],[5.2,18741],[5.1,18826],[3.6,18908],[0.8,18996],[0.1,21991],[3.5,22083],[13,22166],[22.8,22250],[30.2,22340],[34.6,22423],[38.5,22505],[41.7,22620],[42.6,22698],[43.2,22783],[44.1,22870],[44.9,22957],[46.1,23041],[48.4,23131],[49.2,23208],[49.7,23270],[50.3,23333],[50.4,23413],[50.4,23496],[50.4,23582],[50.4,23663],[50.4,23746],[50.4,23833],[50.4,23914],[50.4,23996],[50.4,24081],[50.4,24163],[50.4,24245],[50.4,24332],[50.4,24416],[50.4,24495],[50.4,24581],[50.4,24662],[50.4,24746],[50.4,24830],[50.4,24913],[50.4,24998],[50.4,25086],[50.4,25168],[50.4,25248],[49.2,25331],[40.8,25418],[35,25499],[29.6,25583],[20.2,25668],[10.7,25749],[2.9,25831]]",1,0,611.568,611.588,,,[],,,,611.588,Partially,50,611.603,,,[],,0,0,0,0,1,audio/Narrative13Situation2.wav,audio/Narrative13Situation2.wav,audio/Narrative13Situation2.wav,audio/Narrative13Situation2.wav,2,2,2,2,,,,,573.013,579.192,space,5.662,,,,,,,,,,,,,,,,,,,,,,,,,,,,,,,
,,,,,,5d94d2ab9ac1cb001775fac2,2024-02-08_12h42.17.040,group3.1-3.2-social-tom,2023.2.2,Win32,72.04610951,65c5074098b851296ff0b7ed,65c512683e09a7c7763785a9,,,,,,,,,,,,,,,,,,,,,,,,,,,,,611.605,2,audio/Narrative5Situation1.wav,616.617,,616.617,629.91,"[[999,1],[999,98],[999,180],[999,264],[999,370],[999,452],[999,535],[999,618],[999,707],[999,784],[999,869],[999,952],[999,1035],[999,1119],[999,1201],[999,1284],[999,1371],[999,1451],[999,1535],[999,1619],[999,1701],[999,1786],[999,1868],[999,1952],[999,2038],[999,2121],[999,2202],[4.2,2274],[1.7,2337],[0.8,2399],[0.4,2468],[0.4,2535],[0.3,2622],[0.3,2701],[0.1,2785],[2.3,9899],[8.6,9982],[12.9,10058],[17.4,10123],[21.2,10187],[24.9,10248],[35.7,10316],[42.4,10378],[47.8,10440],[50.8,10515],[52.5,10572],[53,10644],[53,10731],[52.9,10813],[52.9,10897],[52.5,10981],[52.3,11062],[52.2,11146],[52.2,11229],[52.5,11313],[52.7,11395],[52.9,11478],[52.9,11562],[52.9,11645],[52.9,11728],[52.5,11815],[52,11897],[51.7,11980],[51.4,12062],[51.3,12146],[51,12232],[51,12314],[51,12397],[51,12480],[51,12563],[51,12647],[51,12731],[51,12813],[51,12895],[51,12983],[51,13063],[51,13145],[51,13231]]",1,0,629.91,636.639,34.63541667,6.452,"[{""rating"":21.223958333333332,""responseTime"":3.769999999999982},{""rating"":34.635416666666664,""responseTime"":6.451999999999998}]",space,6.196,,636.64,Definitely yes,100,636.661,,,[],,0,1,1,1,1,audio/Narrative7Situation1.wav,audio/Narrative8Situation1.wav,audio/Narrative5Situation1.wav,audio/Narrative6Situation1.wav,2,5,5,2,,,,,,,,,,,,,,,,,,,,,,,,,,,,,,,,,,,,,,,
,,,,,,5d94d2ab9ac1cb001775fac2,2024-02-08_12h42.17.040,group3.1-3.2-social-tom,2023.2.2,Win32,72.04610951,65c5074098b851296ff0b7ed,65c512683e09a7c7763785a9,,,,,,,,,,,,,,,,,,,,,,,,,,,,,636.663,2,audio/Narrative5Situation2.wav,639.664,,639.665,669.128,"[[34.5,1280],[30.7,1364],[17.1,1448],[4.4,1530],[0.9,1606],[1.3,8810],[3.6,8891],[4.9,8976],[5.7,9058],[6.5,9142],[7,9224],[7.2,9308],[7.3,9389],[7.4,9473],[7.4,9559],[7.4,9639],[7.4,9724],[7.4,9808],[7.4,9889],[7.4,9979],[7.4,10057],[7.4,10144],[7.4,10222],[7.4,10305],[7.4,10389],[7.4,10471],[7.4,10558],[7.4,10639],[7.4,10722],[7.4,10807],[7.4,10891],[7.4,10972],[7.4,11056],[7.4,11142],[7.4,11222],[7.4,11307],[7.4,11390],[7.4,11472],[7.4,11556],[7.4,11641],[7.4,11722],[7.4,11806],[7.4,11889],[7.4,11972],[7.4,12056],[7.4,12141],[7.4,12223],[7.4,12306],[7.4,12389],[7.4,12473],[7.4,12557],[7.4,12637],[7.4,12723],[7.4,12805],[7.4,12903],[7.4,12979],[7.4,13063],[7.4,13146],[7.4,13244],[7.4,13326],[7.4,13410],[7.4,13493],[7.4,13577],[7.4,13661],[7.4,13745],[7.4,13826],[7.4,13912],[7.4,13993],[7.4,14077],[7.4,14161],[7.4,14243],[7.4,14327],[7.4,14411],[7.4,14494],[7.4,14575],[7.4,14660],[7.4,14743],[7.4,14827],[7.4,14912],[7.4,14993],[7.4,15076],[7.4,15160],[7.4,15244],[7.4,15326],[7.4,15410],[7.4,15495],[7.4,15581],[7.4,15658],[7.4,15745],[7.4,15826],[7.4,15909],[7.4,15995],[7.4,16077],[7.4,16160],[7.4,16244],[7.4,16326],[7.4,16412],[7.4,16497],[7.4,16577],[7.4,16664],[7.4,16747],[7.4,16828],[7.4,16910],[7.4,16996],[7.4,17077],[7.4,17160],[7.4,17244],[7.4,17327],[7.4,17409],[7.4,17504],[7.4,17583],[7.4,17666],[7.4,17750],[7.4,17833],[7.4,17918],[7.4,18001],[7.4,18084],[7.4,18168],[7.4,18252],[7.4,18335],[7.4,18416],[7.4,18502],[7.4,18595],[7.4,18667],[7.4,18750],[7.4,18834],[7.4,18918],[7.4,19001],[7.4,19083],[7.4,19168],[7.4,19250],[7.4,19338],[7.4,19417],[7.4,19500],[7.4,19583],[7.4,19667],[7.4,19750],[7.4,19833],[7.4,19917],[7.4,20001],[7.4,20085],[7.4,20172],[7.4,20250],[7.4,20335],[7.4,20415],[7.4,20501],[7.4,20584],[7.4,20668],[7.4,20751],[7.4,20834],[7.4,20922],[7.4,21000],[7.4,21084],[7.4,21171],[7.4,21250],[7.4,21335],[7.4,21422],[7.4,21500],[7.4,21585],[7.4,21667],[7.4,21750],[7.4,21833],[7.4,21918],[7.4,22000],[7.4,22083],[7.4,22166],[7.4,22251],[7.4,22333],[9.2,22419],[12.8,22502],[13.9,22592],[14.2,22675],[14.3,22756],[14.3,22840],[14.3,22924],[14.3,23006],[14.3,23091],[14.3,23174],[14.8,23258],[15.9,23343],[17.3,23427],[18.4,23509],[19.8,23592],[25.5,23675],[37.9,23759],[43.1,23842],[45.2,23926],[46,24008],[46.1,24092],[46.6,24175],[46.7,24257],[47.4,24341],[48.6,24425],[48.7,24507],[48.7,24590],[49.1,24677],[49.2,24760],[49.2,24838],[49.2,24917],[49.2,24992],[49.3,25070],[49.3,25152],[49.3,25255],[49.5,25328],[49.5,25408],[49.6,25494],[49.7,25583],[49.7,25667],[49.7,25751],[49.7,25833],[49.7,25916],[49.7,26001],[49.7,26089],[49.7,26168],[49.7,26251],[49.7,26335],[49.7,26416],[49.7,26501],[49.7,26584],[49.7,26666],[49.7,26753],[49.7,26833],[49.7,26917],[49.7,27002],[49.7,27084],[49.7,27166],[49.7,27250],[49.7,27334],[49.7,27418],[49.7,27500],[49.7,27583],[49.7,27665],[49.7,27750],[49.7,27836],[49.7,27917],[49.7,28001],[49.7,28083],[49.7,28167],[49.7,28251],[49.7,28333],[49.7,28415],[49.7,28500],[49.7,28585],[49.7,28666],[49.7,28750],[49.7,28835],[49.7,28917],[49.7,29000],[49.7,29085],[49.7,29166],[49.7,29250],[49.7,29333],[49.7,29416]]",1,0,669.129,670.925,7.552083333,1.412,"[{""rating"":7.552083333333331,""responseTime"":1.4120000000000346}]",space,1.265,,670.925,Definitely yes,100,670.939,,,[],,0,2,2,2,1,audio/Narrative7Situation2.wav,audio/Narrative8Situation2.wav,audio/Narrative5Situation2.wav,audio/Narrative6Situation2.wav,3,3,3,3,,,,,,,,,,,,,,,,,,,,,,,,,,,,,,,,,,,,,,,
,,,,,,5d94d2ab9ac1cb001775fac2,2024-02-08_12h42.17.040,group3.1-3.2-social-tom,2023.2.2,Win32,72.04610951,65c5074098b851296ff0b7ed,65c512683e09a7c7763785a9,,,,,,,,,,,,,,,,,,,,,,,,,,,,,670.941,2,audio/Narrative5Situation3.wav,673.949,,673.95,687.869,"[[5.5,1026],[0.7,1108],[2.3,3842],[7.3,3918],[11.1,3985],[15,4052],[17.8,4116],[19.8,4178],[21.1,4245],[25.5,4310],[38.8,4376],[44.4,4439],[47.4,4506],[48.6,4576],[48.6,4640],[48.8,4709],[49.3,4773],[49.6,4836],[49.6,4918],[49.6,5000],[49.7,5083],[49.7,5170],[49.7,5250],[49.7,5332],[49.7,5418],[49.7,5500],[49.7,5579],[49.7,5661],[49.7,5744],[49.7,5826],[49.7,5909],[49.7,5994],[49.7,6076],[49.7,6160],[49.7,6245],[49.7,6326],[51.6,6415],[52.6,6495],[53.4,6581],[55.3,6661],[57,6742],[59.8,6828],[61.1,6911],[61.2,6995],[61.2,7076],[61.2,7161],[61.2,7244],[61.2,7327],[61.2,7410],[61.2,7491],[61.2,7577],[61.2,7659],[61.2,7741],[61.2,7826],[61.2,7909],[61.2,7994],[61.2,8076],[61.2,8160],[61.2,8246],[69.5,8326],[84.2,8413],[86.2,8504],[90.6,8584],[100,8668],[100,8768],[100,8841],[100,8923],[100,9006],[100,9096],[100,9184],[100,9265],[100,9351],[85.2,9432],[72.4,9502],[65,9557],[59.5,9627],[57.2,9689],[55.5,9755],[54.4,9824],[54.3,9880],[54.3,9956],[53.8,10043],[52.6,10126],[51.8,10209],[51.6,10292],[50.9,10377],[46.7,10459],[37.2,10543],[32.6,10626],[32,10708],[32,10789],[32,10879],[32,10961],[32,11040],[38.8,11127],[45.1,11212],[46.9,11293],[48,11376],[49.5,11461],[50.4,11542],[50.5,11625],[50.5,11708],[50.5,11792],[50.5,11875],[50.5,11957],[50.5,12042],[50.3,12125],[50.3,12212],[50.1,12292],[50,12376],[50,12458],[50,12542],[50,12625],[50,12707],[50,12792],[50,12876],[50,12957],[50,13039],[50,13125],[50,13208],[50,13290],[49.9,13375],[49.6,13459],[49,13543],[48.7,13625],[48.7,13708],[48.7,13790],[48.7,13874]]",1,0,687.87,691.929,43.09895833,3.62,"[{""rating"":35.026041666666664,""responseTime"":2.6399999999999864},{""rating"":43.09895833333333,""responseTime"":3.6200000000000045}]",space,3.52,,691.929,Not at all,0,691.945,,,[],,0,3,3,3,1,audio/Narrative7Situation3.wav,audio/Narrative8Situation3.wav,audio/Narrative5Situation3.wav,audio/Narrative6Situation3.wav,8,4,3,5,,,,,,,,,,,,,,,,,,,,,,,,,,,,,,,,,,,,,,,
,,,,,,5d94d2ab9ac1cb001775fac2,2024-02-08_12h42.17.040,group3.1-3.2-social-tom,2023.2.2,Win32,72.04610951,65c5074098b851296ff0b7ed,65c512683e09a7c7763785a9,,,,,,,,,,,,,,,,,,,,,,,,,,,,,691.946,2,audio/Narrative5Situation4.wav,692.95,,692.95,713.341,"[[7.7,1764],[7.3,1851],[5.5,1932],[1.8,2015],[0.7,2097],[0.5,2187],[0.5,2270],[0.4,2355],[0.3,2447],[0.3,2526],[0.3,2612],[0.3,2708],[0.3,2785],[0.3,2870],[0.3,2951],[0.3,3034],[0.3,3120],[0.3,3201],[0.3,3283],[0.3,3370],[0.4,3451],[0.4,3538],[0.5,3617],[0.5,3701],[0.5,3785],[0.5,3867],[0.5,3951],[0.5,4033],[0.5,4120],[0.5,4201],[0.5,4283],[0.5,4370],[0.5,4451],[0.5,4534],[0.5,4620],[0.5,4701],[0.5,4784],[0.5,4870],[0.5,4951],[0.5,5034],[0.5,5120],[0.5,5201],[0.5,5284],[0.5,5369],[0.5,5451],[0.5,5534],[0.5,5620],[0.5,5701],[0.5,5783],[0.5,5869],[0.5,5951],[0.5,6034],[0.5,6120],[0.5,6203],[0.5,6284],[0.5,6369],[0.5,6451],[0.5,6533],[0.5,6619],[0.5,6706],[0.5,6784],[0.5,6865],[0.5,6951],[0.5,7035],[0.5,7120],[0.5,7201],[0.5,7284],[0.5,7370],[0.5,7451],[0.5,7533],[0.5,7620],[0.5,7701],[0.5,7783],[0.5,7865],[0.5,7949],[0.5,8034],[0.5,8116],[0.5,8206],[0.5,8284],[0.5,8369],[0.5,8451],[0.5,8533],[0.5,8616],[0.5,8701],[0.5,8785],[0.5,8866],[0.5,8949],[0.5,9033],[0.5,9116],[0.5,9206],[0.5,9284],[0.5,9365],[0.5,9451],[0.5,9533],[0.5,9616],[0.5,9701],[0.5,9783],[0.5,9870],[0.5,9951],[0.5,10033],[0.5,10116],[0.5,10203],[0.5,10284],[0.5,10366],[0.5,10452],[0.5,10545],[0.5,10625],[0.5,10706],[0.5,10816],[0.5,10889],[0.5,10971],[0.5,11054],[0.5,11140],[0.5,11221],[0.5,11303],[0.5,11389],[0.5,11471],[0.5,11552],[0.5,11639],[0.5,11721],[0.5,11809],[0.5,11889],[0.5,11971],[0.5,12054],[0.5,12139],[0.5,12223],[0.5,12302],[0.5,12387],[0.5,12473],[0.5,12554],[0.5,12636],[0.5,12721],[0.5,12803],[0.5,12889],[0.5,12973],[0.5,13054],[0.5,13136],[0.5,13223],[0.5,13304],[0.5,13386],[0.5,13473],[0.5,13557],[0.5,13639],[0.5,13723],[0.5,13804],[0.5,13889],[0.5,13975],[0.5,14054],[0.5,14139],[0.5,14221],[0.5,14304],[0.5,14389],[0.5,14475],[0.5,14554],[0.5,14636],[0.5,14721],[0.5,14804],[0.5,14887],[0.5,14971],[0.5,15066],[0.5,15168],[0.5,15256],[0.5,15350],[0.5,15432],[0.5,15514],[0.5,15596],[0.5,15687],[0.5,15770],[0.5,15856],[0.5,15937],[0.5,16021],[0.5,16105],[0.5,16199],[0.5,16284],[0.5,16372],[0.5,16451],[0.5,16542],[0.5,16625],[0.5,16708],[0.5,16792],[0.5,16879],[0.5,16959],[0.5,17042],[0.5,17125],[0.5,17207],[0.5,17290],[0.5,17375],[0.5,17458],[0.5,17542],[0.5,17627],[0.5,17709],[0.5,17789],[0.5,17875],[0.5,17957],[0.5,18040],[0.5,18125],[0.5,18208],[0.5,18290],[0.5,18375],[0.5,18458],[0.5,18542],[0.5,18625],[0.5,18707],[0.5,18790],[0.5,18875],[0.5,18956],[0.5,19040],[0.5,19125],[0.5,19208],[0.5,19293],[2.3,19394],[23.3,19477],[64.3,19566],[89.1,19654],[100,19737],[100,19821],[100,19903],[100,19986],[100,20067],[100,20153],[100,20235],[100,20317]]",1,0,713.342,716.626,47.52604167,2.721,"[{""rating"":47.52604166666667,""responseTime"":2.7210000000000036}]",space,2.744,,716.627,Not at all,0,716.637,,,[],,0,4,4,4,1,audio/Narrative7Situation4.wav,audio/Narrative8Situation4.wav,audio/Narrative5Situation4.wav,audio/Narrative6Situation4.wav,3,3,1,2,,,,,,,,,,,,,,,,,,,,,,,,,,,,,,,,,,,,,,,
,,,,,,5d94d2ab9ac1cb001775fac2,2024-02-08_12h42.17.040,group3.1-3.2-social-tom,2023.2.2,Win32,72.04610951,65c5074098b851296ff0b7ed,65c512683e09a7c7763785a9,,,,,,,,,,,,,,,,,,,,,,,,,,,,,716.639,2,audio/Narrative5Situation5.wav,721.64,,721.64,737.063,"[[46.7,1022],[25.1,1107],[11.6,1186],[7,1275],[2.9,1360],[0.1,7706],[1.7,7778],[2.6,7841],[3.4,7908],[4.6,7964],[5.9,8030],[6.8,8117],[7.3,8200],[7.6,8282],[7.6,8365],[7.6,8447],[7.6,8533],[7.7,8615],[7.7,8697],[7.7,8783],[7.7,8865],[7.7,8947],[7.7,9033],[7.7,9115],[7.7,9197],[7.7,9282],[7.7,9363],[7.7,9449],[7.7,9531],[7.7,9619],[7.7,9697],[7.7,9782],[7.7,9865],[7.7,9947],[7.7,10031],[7.7,10115],[7.7,10197],[7.7,10288],[7.7,10372],[7.7,10453],[7.7,10538],[7.7,10624],[7.7,10703],[7.7,10793],[7.7,10875],[7.7,10955],[7.7,11042],[7.7,11124],[7.7,11204],[7.7,11288],[7.7,11378],[7.7,11461],[7.7,11545],[7.7,11631],[7.7,11711],[7.7,11795],[7.7,11879],[7.7,11963],[7.7,12045],[7.7,12131],[7.7,12211],[7.7,12293],[7.7,12381],[7.7,12461],[7.7,12543],[7.7,12629],[7.7,12711],[7.7,12796],[7.7,12878],[7.7,12961],[7.7,13045],[7.7,13129],[7.7,13211],[7.7,13296],[7.7,13379],[7.7,13463],[7.7,13543],[7.7,13629],[7.7,13711],[7.7,13796],[7.7,13879],[7.7,13961],[7.7,14043],[7.7,14128],[7.7,14211],[7.7,14302],[7.7,14377],[7.7,14460],[7.7,14546],[9.2,14631],[13,14715],[15.9,14796],[17.6,14879],[27,14963],[37.2,15048],[38.3,15131],[38.3,15214],[38.3,15295],[36.2,15381]]",1,0,737.064,740.283,2.213541667,2.426,"[{""rating"":2.2135416666666687,""responseTime"":2.425999999999931}]",space,2.69,,740.283,Not at all,0,740.292,,,[],,0,5,5,5,1,audio/Narrative7Situation5.wav,audio/Narrative8Situation5.wav,audio/Narrative5Situation5.wav,audio/Narrative6Situation5.wav,5,2,5,2,,,,,,,,,,,,,,,,,,,,,,,,,,,,,,,,,,,,,,,
,,,,,,5d94d2ab9ac1cb001775fac2,2024-02-08_12h42.17.040,group3.1-3.2-social-tom,2023.2.2,Win32,72.04610951,65c5074098b851296ff0b7ed,65c512683e09a7c7763785a9,,,,,,,,,,,,,,,,,,,,,,,,,,,,,740.293,2,audio/Narrative5Situation6.wav,743.303,,743.303,748.99,"[[2.9,3295],[31.8,3379],[44.8,3466],[46.1,3555],[46.9,3643],[49.7,3725],[50.3,3805],[50.3,3888],[50.3,3974],[50.3,4055],[50.3,4141],[50.3,4221],[50.1,4305],[49.9,4389],[49.7,4475],[49.7,4556],[49.7,4639],[49.7,4724],[49.7,4805],[49.7,4891],[49.7,4974],[49.7,5055],[49.7,5142],[49.7,5225],[49.7,5286],[49.7,5355],[49.7,5418],[49.7,5480],[49.7,5562],[49.7,5647]]",1,0,748.992,752.951,50,2.221,"[{""rating"":50,""responseTime"":2.2210000000000036}]",space,3.425,,752.951,Partially,50,752.969,,,[],,0,6,6,6,1,audio/Narrative7Situation6.wav,audio/Narrative8Situation6.wav,audio/Narrative5Situation6.wav,audio/Narrative6Situation6.wav,3,2,3,2,,,,,,,,,,,,,,,,,,,,,,,,,,,,,,,,,,,,,,,
,,,,,,5d94d2ab9ac1cb001775fac2,2024-02-08_12h42.17.040,group3.1-3.2-social-tom,2023.2.2,Win32,72.04610951,65c5074098b851296ff0b7ed,65c512683e09a7c7763785a9,,,,,,,,,,,,,,,,,,,,,,,,,,,,,752.971,2,audio/Narrative5Situation7.wav,756.976,,756.977,778.023,"[[0.9,4636],[13.7,4698],[41.1,4770],[50.8,4835],[53.5,4912],[56,4979],[56.8,5049],[56.8,5108],[56.8,5177],[55.5,5247],[52.3,5317],[50.8,5386],[50.1,5450],[49.7,5518],[49.7,5588],[49.7,5661],[49.7,5724],[49.7,5787],[49.7,5859],[49.9,5924],[49.9,5995],[49.9,6052],[49.9,6122],[49.9,6211],[49.9,6291],[49.9,6376],[50.3,6461],[53,6540],[53.6,6607],[54.6,6674],[57,6746],[59.5,6810],[61.7,6881],[62.2,6950],[62.4,7015],[62.4,7076],[62.4,7146],[62.4,7203],[62.4,7277],[62.4,7352],[62.4,7439],[62.4,7521],[62.4,7603],[62.4,7691],[62.4,7770],[62.4,7853],[62.4,7939],[62.4,8019],[62.4,8103],[62.4,8189],[62.4,8270],[62.4,8355],[62.4,8437],[62.4,8520],[62.4,8605],[62.4,8686],[62.4,8770],[62.4,8853],[62.4,8942],[60.7,9023],[56.9,9105],[52,9195],[48,9278],[43,9363],[38.8,9446],[36.7,9527],[36.5,9610],[36.5,9695],[36.5,9781],[36.5,9860],[22.4,9951],[4.9,10037],[2.1,10107],[0.3,10168],[3,20691],[14.8,20773],[26.8,20855],[34,20932],[37.4,20999]]",1,0,778.023,782.091,39.453125,2.149,"[{""rating"":39.453125,""responseTime"":2.149000000000001}]",space,3.535,,782.092,Definitely yes,100,782.105,,,[],,0,7,7,7,1,audio/Narrative7Situation7.wav,audio/Narrative8Situation7.wav,audio/Narrative5Situation7.wav,audio/Narrative6Situation7.wav,5,3,4,5,,,,,,,,,,,,,,,,,,,,,,,,,,,,,,,,,,,,,,,
,,,,,,5d94d2ab9ac1cb001775fac2,2024-02-08_12h42.17.040,group3.1-3.2-social-tom,2023.2.2,Win32,72.04610951,65c5074098b851296ff0b7ed,65c512683e09a7c7763785a9,,,,,,,,,,,,,,,,,,,,,,,,,,,,,782.106,2,audio/Narrative5Situation8.wav,785.112,,785.113,793.944,"[[1,144]]",1,0,793.945,796.149,0.130208333,1.401,"[{""rating"":0.13020833333333148,""responseTime"":1.4009999999999536}]",space,1.674,,796.15,Not at all,0,796.168,,,[],,0,8,8,8,1,audio/Narrative7Situation8.wav,audio/Narrative8Situation8.wav,audio/Narrative5Situation8.wav,audio/Narrative6Situation8.wav,2,3,3,5,,,,,,,,,,,,,,,,,,,,,,,,,,,,,,,,,,,,,,,
,,,,,,5d94d2ab9ac1cb001775fac2,2024-02-08_12h42.17.040,group3.1-3.2-social-tom,2023.2.2,Win32,72.04610951,65c5074098b851296ff0b7ed,65c512683e09a7c7763785a9,,,,,,,,,,,,,,,,,,,,,,,,,,,,,796.17,2,audio/Narrative5Situation9.wav,799.18,,799.18,838.724,"[[0.3,1789],[0.5,1870],[0.7,1957],[0.7,2038],[0.7,2121],[0.7,2206],[0.7,2288],[0.7,2372],[0.7,2455],[0.7,2539],[0.7,2620],[0.4,2708],[0.1,5122],[0.5,5206],[0.7,5288],[0.8,5371],[0.8,5454],[0.8,5538],[0.8,5621],[0.8,5711],[0.8,5794],[0.8,5878],[0.8,5967],[0.8,6054],[0.8,6135],[0.8,6216],[0.8,6302],[0.8,6384],[0.8,6473],[4.9,6555],[9.4,6639],[11.7,6721],[13.7,6806],[14.7,6887],[15.4,6968],[16.1,7055],[16.8,7137],[17.1,7221],[17.1,7301],[17.1,7385],[17.1,7468],[17.1,7552],[17.1,7634],[17.1,7718],[17.1,7803],[17.1,7885],[17.1,7969],[17.1,8051],[17.1,8139],[17.1,8217],[17.1,8302],[17.1,8386],[17.1,8468],[17.1,8551],[17.1,8637],[17.1,8718],[17.1,8801],[17.1,8886],[17.1,8968],[17.1,9051],[17.1,9137],[16.7,9219],[15.9,9310],[14.3,9395],[12.2,9476],[10.9,9543],[10,9602],[9.1,9661],[8.5,9730],[7.8,9799],[7.3,9866],[6.8,9921],[6.3,9993],[5.7,10080],[5.3,10163],[4.9,10245],[4.7,10332],[4.3,10411],[3.9,10496],[3.8,10581],[3.4,10663],[3.3,10747],[3,10830],[2.9,10913],[2.7,10996],[2.7,11081],[2.6,11163],[2.6,11246],[2.3,11332],[1.8,11413],[1,11497],[0.5,11582],[0.3,11664],[0.3,21240],[0.4,21328],[0.8,21413],[1,21497],[1.3,21578],[1.7,21669],[1.8,21752],[2,21836],[2.2,21920],[2.3,22003],[2.3,22084],[2.5,22173],[2.7,22252],[2.7,22337],[2.7,22421],[2.7,22514],[2.7,22601],[2.7,22684],[2.7,22777],[2.7,22857],[2.7,22939],[2.7,23024],[2.7,23107],[2.7,23190],[2.7,23278],[2.7,23356],[2.7,23445],[2.7,23521],[2.7,23606],[2.7,23690],[2.7,23774],[2.7,23860],[2.7,23939],[2.7,24024],[2.7,24110],[2.7,24195],[2.7,24274],[2.7,24357],[2.7,24440],[2.7,24522],[2.7,24608],[2.7,24689],[2.7,24774],[2.7,24855],[2.7,24940],[2.7,25024],[2.7,25107],[2.7,25192],[2.7,25274],[2.7,25356],[2.7,25440],[2.7,25525],[2.7,25606],[2.7,25692],[2.7,25772],[2.7,25857],[2.7,25940],[2.7,26022],[2.7,26106],[2.7,26192],[2.7,26271],[2.7,26355],[2.7,26442],[2.7,26524],[2.7,26606],[2.7,26693],[2.7,26774],[2.7,26857],[2.7,26942],[2.7,27026],[2.7,27110],[2.7,27192],[2.7,27283],[2.7,27365],[2.7,27447],[2.7,27531],[2.7,27620],[2.7,27705],[2.7,27793],[2.7,27877],[2.7,27963],[2.7,28044],[2.7,28127],[2.7,28214],[2.9,28293],[2.9,28377],[2.9,28464],[2.9,28545],[2.9,28627],[2.9,28712],[2.9,28796],[3,28876],[3,28961],[3,29044],[3,29127],[3,29211],[3,29294],[3,29377],[3,29461],[3,29544],[3.3,29629],[3.4,29711],[3.5,29794],[3.6,29879],[3.8,29959],[3.9,30044],[4.2,30127],[4.3,30211],[4.3,30294],[4.4,30379],[4.4,30462],[4.4,30545],[4.4,30629],[4.4,30709],[4.4,30795],[4.4,30877],[5.3,30976],[10.5,31060],[19.9,31144],[31.1,31235],[39.5,31317],[44.1,31401],[47.1,31486],[50.1,31573],[64.2,31657],[86.2,31740],[96.6,31825],[99.2,31907],[99.2,31990],[99.9,32091],[100,32168],[100,32252],[100,32336],[100,32419],[100,32502],[100,32586],[100,32668],[100,32752],[100,32836],[100,32919],[100,33003],[100,33087],[100,33169],[100,33253],[100,33337],[100,33419],[100,33504],[100,33592],[100,33675],[100,33761],[99.9,33841],[99.7,33928],[98.2,34011],[87.8,34094],[71.1,34178],[53.4,34264],[32.4,34343],[9.1,34428],[1.6,34514],[0.8,39543]]",1,0,838.725,841.386,38.93229167,2.186,"[{""rating"":38.93229166666667,""responseTime"":2.1860000000000355}]",space,2.118,,841.387,Not at all,0,841.4,,,[],,0,9,9,9,1,audio/Narrative7Situation9.wav,audio/Narrative8Situation9.wav,audio/Narrative5Situation9.wav,audio/Narrative6Situation9.wav,2,3,3,4,,,,,,,,,,,,,,,,,,,,,,,,,,,,,,,,,,,,,,,
,,,,,,5d94d2ab9ac1cb001775fac2,2024-02-08_12h42.17.040,group3.1-3.2-social-tom,2023.2.2,Win32,72.04610951,65c5074098b851296ff0b7ed,65c512683e09a7c7763785a9,,,,,,,,,,,,,,,,,,,,,,,,,,,,,841.401,2,audio/Narrative6Situation1.wav,843.407,,843.407,869.981,"[[999,1],[999,82],[0.1,4269],[0.3,4361],[1.7,4454],[2,4533],[2.1,4621],[2.1,4701],[2.1,4784],[2,4865],[1.8,4951],[1.7,5033],[1.4,5115],[1.4,5198],[1.4,5282],[1.4,5365],[1.4,5451],[1.6,5534],[6,5626],[25.5,5713],[78.9,5879],[99.7,5966],[100,6047],[100,6130],[100,6216],[100,6295],[100,6381],[100,6465],[100,6548],[100,6629],[100,6716],[100,6798],[100,6879],[100,6965],[100,7045],[100,7130],[100,7215],[100,7295],[100,7379],[100,7471],[100,7549],[100,7629],[100,7711],[100,7797],[100,7879],[100,7963],[100,8045],[100,8129],[100,8212],[100,8295],[100,8379],[100,8462],[100,8547],[100,8627],[100,8713],[100,8800],[100,8877],[100,8963],[100,9052],[100,9129],[100,9212],[100,9299],[100,9380],[100,9461],[100,9547],[100,9629],[100,9713],[100,9798],[100,9893],[100,9968],[100,10055],[100,10135],[100,10226],[100,10312],[100,10394],[100,10480],[100,10566],[100,10650],[100,10735],[100,10817],[100,10899],[100,10984],[99.5,11067],[50.3,11151],[0.4,11235],[42.1,14745],[100,14822],[100,14884],[100,14948],[100,15032],[100,15116],[100,15211],[100,15290],[86.8,15375],[10.4,15457],[100,21130],[100,21213],[100,21295],[100,21379],[100,21462],[100,21547],[100,21629],[100,21713],[100,21795],[100,21879],[100,21965],[100,22045],[100,22129],[100,22216],[100,22293],[100,22379],[100,22463],[100,22547],[100,22629],[100,22727],[100,22804],[100,22889],[100,22968],[100,23076],[100,23157],[100,23242],[100,23324],[69.5,23409]]",1,0,869.982,875.157,57.03125,4.434,"[{""rating"":61.71875,""responseTime"":2.83400000000006},{""rating"":57.03125,""responseTime"":4.433999999999969}]",space,4.642,,875.158,Partially,50,875.178,,,[],,0,10,10,10,1,audio/Narrative8Situation1.wav,audio/Narrative7Situation1.wav,audio/Narrative6Situation1.wav,audio/Narrative5Situation1.wav,5,2,2,5,,,,,,,,,,,,,,,,,,,,,,,,,,,,,,,,,,,,,,,
,,,,,,5d94d2ab9ac1cb001775fac2,2024-02-08_12h42.17.040,group3.1-3.2-social-tom,2023.2.2,Win32,72.04610951,65c5074098b851296ff0b7ed,65c512683e09a7c7763785a9,,,,,,,,,,,,,,,,,,,,,,,,,,,,,875.179,2,audio/Narrative6Situation2.wav,878.189,,878.189,906.691,"[[20.6,772],[1.3,866],[0.3,946],[5.9,11320],[17.8,11414],[30.3,11494],[37.2,11578],[42.4,11683],[44.8,11767],[45.3,11845],[45.6,11933],[45.6,12013],[45.6,12096],[45.6,12182],[14.7,12272],[4.2,12353],[1.6,12440],[0.7,12520],[0.4,12601],[0.4,12688],[0.4,12769],[0.4,12853],[0.4,12938],[0.5,13020],[0.5,13102],[0.5,13187],[0.7,13269],[0.8,13353],[0.8,13438],[0.8,13519],[0.9,13603],[1,13688],[1,13775],[1,13852],[1,13936],[1,14019],[1,14104],[1,14186],[1,14269],[1,14353],[1,14436],[1,14520],[1,14602],[1,14691],[1,14769],[1,14851],[1,14936],[1,15020],[1,15108],[1,15186],[1,15271],[1,15353],[1.3,15438],[9.6,15522],[28.5,15605],[39.3,15687],[44.4,15774],[46.1,15855],[47.5,15950],[48.2,16027],[48.4,16108],[48.7,16193],[48.8,16284],[49.2,16367],[49.2,16453],[49.3,16533],[49.5,16618],[49.5,16702],[49.5,16783],[49.6,16867],[50.4,16952],[51.3,17047],[51.8,17123],[52.3,17209],[52.7,17291],[53,17375],[53.1,17463],[53.4,17541],[53.5,17623],[53.5,17708],[54.2,17793],[67.2,17885],[77.6,17966],[77.9,18046],[77.9,18122],[77.9,18200],[77.9,18287],[77.9,18368],[93.1,18452],[100,18538],[100,18617],[100,18700],[100,18785],[100,18867],[100,18950],[100,19036],[100,19117],[100,19202],[100,19285],[100,19372],[100,19450],[100,19534],[100,19617],[100,19699],[100,19786],[100,19866],[100,19949],[100,20033],[100,20117],[100,20200],[100,20285],[100,20366],[100,20450],[100,20532],[100,20616],[100,20698],[100,20782],[100,20866],[100,20950],[100,21033],[100,21117],[100,21200],[100,21281],[100,21366],[100,21449],[100,21533],[100,21617],[100,21699],[100,21781],[100,21867],[100,21949],[100,22033],[100,22117],[100,22199],[100,22283],[100,22368],[100,22449],[100,22538],[100,22625],[100,22706],[100,22792],[100,22879],[100,22965],[100,23046],[100,23136],[100,23220],[100,23310],[100,23393],[100,23471],[100,23555],[100,23647],[100,23726],[100,23813],[100,23895],[100,23979],[100,24063],[100,24143],[100,24228],[100,24314],[100,24394],[100,24478],[100,24564],[100,24646],[100,24727],[100,24812],[100,24894],[100,24980],[100,25060],[100,25150],[100,25227],[100,25314],[100,25394],[100,25478],[100,25563],[100,25645],[100,25728],[100,25811],[100,25894],[100,25978],[100,26061],[100,26147],[100,26227],[100,26313],[100,26396],[100,26477],[100,26561],[100,26651],[100,26733],[100,26818],[100,26902],[100,26984],[100,27067],[100,27156],[100,27236],[100,27317],[100,27404],[100,27485],[100,27568],[100,27654],[100,27733],[100,27817],[100,27904],[100,27983],[100,28068],[100,28152],[100,28235],[100,28319],[100,28405],[100,28485]]",1,0,906.692,909.217,74.73958333,1.9,"[{""rating"":74.73958333333334,""responseTime"":1.8999999999999773}]",space,1.986,,909.218,Not at all,0,909.237,,,[],,0,11,11,11,1,audio/Narrative8Situation2.wav,audio/Narrative7Situation2.wav,audio/Narrative6Situation2.wav,audio/Narrative5Situation2.wav,3,3,3,3,,,,,,,,,,,,,,,,,,,,,,,,,,,,,,,,,,,,,,,
,,,,,,5d94d2ab9ac1cb001775fac2,2024-02-08_12h42.17.040,group3.1-3.2-social-tom,2023.2.2,Win32,72.04610951,65c5074098b851296ff0b7ed,65c512683e09a7c7763785a9,,,,,,,,,,,,,,,,,,,,,,,,,,,,,909.239,2,audio/Narrative6Situation3.wav,914.242,,914.242,926.865,"[[1.4,104],[1.6,188],[1.8,274],[1.8,357],[2,439],[2,524],[2,605],[2,688],[2,772],[2,854],[1.7,940],[0.5,1022],[100,7385],[100,7478],[100,7552],[99.7,7615],[99.5,7678],[99.5,7752],[99.5,7840],[99.5,7918],[99.5,8001],[99.5,8086],[99.5,8167],[99.5,8252],[99.5,8333],[99.5,8416],[99.5,8501],[99.7,8584],[100,8682],[100,8763],[100,8849],[100,8951],[100,9038],[100,9118],[100,9206],[100,9294],[100,9376],[100,9462],[100,9548],[100,9634],[100,9716],[100,9801],[100,9883],[100,9965],[100,10051],[100,10131],[100,10216],[100,10301],[100,10381],[100,10467],[100,10552],[100,10632],[100,10715],[100,10801],[100,10882],[100,10965],[100,11049],[100,11133],[100,11216],[100,11298],[100,11387],[100,11465],[100,11550],[100,11633],[100,11713],[100,11803],[100,11887],[100,11965],[100,12048],[100,12136],[100,12218],[100,12299],[100,12385],[100,12465],[100,12548]]",1,0,926.865,929.669,83.203125,2.256,"[{""rating"":83.203125,""responseTime"":2.255999999999972}]",space,2.282,,929.67,Not at all,0,929.683,,,[],,0,12,12,12,1,audio/Narrative8Situation3.wav,audio/Narrative7Situation3.wav,audio/Narrative6Situation3.wav,audio/Narrative5Situation3.wav,4,8,5,3,,,,,,,,,,,,,,,,,,,,,,,,,,,,,,,,,,,,,,,
,,,,,,5d94d2ab9ac1cb001775fac2,2024-02-08_12h42.17.040,group3.1-3.2-social-tom,2023.2.2,Win32,72.04610951,65c5074098b851296ff0b7ed,65c512683e09a7c7763785a9,,,,,,,,,,,,,,,,,,,,,,,,,,,,,929.684,2,audio/Narrative6Situation4.wav,931.689,,931.69,944.303,"[[76,687],[15.4,772],[8.6,4151],[10.8,4242],[11.7,4324],[14.3,4408],[15.6,4502],[16.9,4591],[17.7,4673],[17.8,4767],[17.8,4843],[17.8,4928],[17.8,5015],[17.8,5096],[17.8,5178],[17.8,5260],[17.8,5342],[17.8,5429],[17.8,5511],[17.8,5594],[17.8,5680],[17.8,5762],[17.8,5844],[17.8,5927],[17.8,6011],[17.8,6094],[17.8,6177],[17.8,6260],[17.8,6346],[17.8,6427],[17.8,6516],[17.8,6598],[17.8,6680],[17.8,6761],[17.8,6842],[17.8,6927],[17.8,7011],[17.8,7094],[17.8,7177],[17.8,7261],[17.8,7348],[17.8,7428],[17.8,7510],[17.8,7593],[17.8,7677],[17.8,7761],[17.8,7842],[17.8,7927],[17.8,8012],[17.8,8096],[17.8,8177],[17.8,8260],[17.8,8346],[17.8,8427],[17.8,8512],[17.8,8593],[17.8,8677],[17.8,8765],[17.8,8843],[12.4,8930],[5.6,9014],[1.6,9110],[2.6,10631],[8.6,10716],[13.2,10798],[24.6,10881],[28.9,10966],[31.6,11048],[33.3,11132],[34.1,11214],[34.6,11298],[37.6,11381],[44.9,11466],[48.3,11541],[50.1,11605],[50.5,11668],[50.5,11741],[50.7,11824],[50.7,11906],[50.7,11995],[50.7,12086],[50.5,12171],[50.4,12255],[50.3,12347],[50.1,12427],[50,12511],[49.9,12600]]",1,0,944.304,946.873,23.17708333,1.847,"[{""rating"":23.177083333333332,""responseTime"":1.84699999999998}]",space,2.039,,946.873,Not at all,0,946.88,,,[],,0,13,13,13,1,audio/Narrative8Situation4.wav,audio/Narrative7Situation4.wav,audio/Narrative6Situation4.wav,audio/Narrative5Situation4.wav,3,3,2,1,,,,,,,,,,,,,,,,,,,,,,,,,,,,,,,,,,,,,,,
,,,,,,5d94d2ab9ac1cb001775fac2,2024-02-08_12h42.17.040,group3.1-3.2-social-tom,2023.2.2,Win32,72.04610951,65c5074098b851296ff0b7ed,65c512683e09a7c7763785a9,,,,,,,,,,,,,,,,,,,,,,,,,,,,,946.881,2,audio/Narrative6Situation5.wav,948.896,,948.896,956.869,"[[21.6,1363],[0.9,2113],[1.3,2198],[1.3,2277],[1.3,2360],[1.3,2443],[1.3,2527],[1.3,2610],[1.3,2694],[1.3,2777],[1.3,2860],[1.3,2944],[1.3,3027],[1.3,3110],[1.3,3197],[1.3,3277],[1.3,3360],[1.3,3444],[1.3,3527],[1.3,3609],[1.3,3693],[1.3,3777],[7,3863],[24.1,3945],[35.3,4029],[66.5,5280],[82.4,5361],[100,5445],[100,5530],[100,5610],[100,5694],[100,5778],[100,5862],[100,5945],[25.3,6447],[19.8,6527],[17.8,6612],[17.4,6697],[17.4,6776],[17.4,6864],[17.4,6943],[17.4,7026],[17.4,7109],[17.4,7193],[17.4,7276],[17.4,7359],[17.4,7441],[17.4,7535],[17.4,7616],[17.4,7699],[17.4,7793],[17.4,7875],[17.4,7955]]",1,0,956.869,959.03,26.171875,1.632,"[{""rating"":26.171875,""responseTime"":1.6320000000000618}]",space,1.616,,959.03,Not at all,0,959.038,,,[],,0,14,14,14,1,audio/Narrative8Situation5.wav,audio/Narrative7Situation5.wav,audio/Narrative6Situation5.wav,audio/Narrative5Situation5.wav,2,5,2,5,,,,,,,,,,,,,,,,,,,,,,,,,,,,,,,,,,,,,,,
,,,,,,5d94d2ab9ac1cb001775fac2,2024-02-08_12h42.17.040,group3.1-3.2-social-tom,2023.2.2,Win32,72.04610951,65c5074098b851296ff0b7ed,65c512683e09a7c7763785a9,,,,,,,,,,,,,,,,,,,,,,,,,,,,,959.04,2,audio/Narrative6Situation6.wav,961.045,,961.045,972.109,"[[19.5,2330],[7.6,2415],[0.7,4019],[4.4,4102],[6,4187],[6.5,4266],[6.9,4350],[6.9,4436],[6.9,4517],[6.9,4604],[6.9,4684],[6.9,4769],[6.9,4850],[6.6,4935],[6.6,5015],[6.6,5099],[6.6,5182],[6.6,5265],[6.6,5349],[6.6,5433],[6.6,5516],[6.6,5600],[6.6,5683],[6.6,5765],[6.6,5849],[6.6,5931],[6.6,6015],[6.6,6099],[6.6,6184],[6.6,6266],[6.6,6350],[6.6,6432],[6.6,6517],[6.6,6598],[6.6,6683],[6.6,6769],[6.6,6849],[6.6,6933],[6.6,7016],[6.6,7099],[6.6,7182],[6.6,7269],[6.6,7349],[6.6,7433],[6.6,7517],[6.6,7599],[6.6,7682],[6.6,7774],[6.6,7854],[6.6,7933],[6.6,8026],[6.6,8106],[6.6,8190],[6.6,8274],[6.6,8364],[6.6,8447],[10.4,8533],[12.1,8622],[12.8,8705],[12.9,8787],[13.2,8887],[13.2,8961],[13.2,9043],[13.2,9127],[13.2,9210],[13.2,9294],[13.2,9377],[13.2,9458],[13.2,9545],[13.2,9627],[13.2,9710],[13.2,9795],[13.2,9876],[13.2,9960],[13.2,10045],[13.2,10127],[13.2,10210],[13.2,10294],[13.3,10377],[13.3,10460],[13.3,10544],[13.3,10627],[13.5,10710],[13.7,10796],[13.7,10878],[13.7,10961],[13.7,11044]]",1,0,972.11,975.202,13.15104167,1.271,"[{""rating"":13.151041666666668,""responseTime"":1.2710000000000719}]",space,2.558,,975.202,Not at all,0,975.214,,,[],,0,15,15,15,1,audio/Narrative8Situation6.wav,audio/Narrative7Situation6.wav,audio/Narrative6Situation6.wav,audio/Narrative5Situation6.wav,2,3,2,3,,,,,,,,,,,,,,,,,,,,,,,,,,,,,,,,,,,,,,,
,,,,,,5d94d2ab9ac1cb001775fac2,2024-02-08_12h42.17.040,group3.1-3.2-social-tom,2023.2.2,Win32,72.04610951,65c5074098b851296ff0b7ed,65c512683e09a7c7763785a9,,,,,,,,,,,,,,,,,,,,,,,,,,,,,975.214,2,audio/Narrative6Situation7.wav,980.222,,980.222,1005.083,"[[100,7613],[100,7692],[100,7762],[100,7824],[100,7887],[100,7971],[100,8057],[100,8138],[100,8222],[100,8307],[100,8389],[100,8471],[100,8557],[100,8639],[100,8721],[100,8804],[100,8888],[100,8973],[100,9054],[100,9138],[100,9221],[100,9305],[100,9388],[100,9472],[100,9554],[100,9638],[100,9721],[100,9804],[100,9891],[100,9971],[100,10055],[100,10139],[100,10221],[100,10304],[100,10389],[100,10471],[100,10555],[100,10639],[100,10721],[100,10804],[100,10892],[100,10972],[100,11055],[100,11139],[100,11221],[100,11305],[100,11389],[100,11472],[100,11555],[100,11639],[100,11721],[100,11807],[100,11889],[100,11971],[100,12055],[100,12139],[100,12220],[100,12302],[100,12421],[100,12509],[100,12592],[100,12681],[100,12763],[100,12846],[100,12937],[100,13024],[100,13103],[100,13197],[100,13278],[100,13360],[100,13444],[100,13528],[100,13610],[100,13694],[100,13800],[100,13875],[100,13958],[100,14049],[100,14138],[100,14224],[100,14306],[100,14388],[100,14473],[100,14557],[100,14637],[100,14724],[100,14804],[100,14889],[100,14973],[100,15059],[100,15138],[100,15223],[100,15306],[100,15389],[100,15472],[100,15554],[100,15638],[100,15723],[100,15802],[100,15888],[100,15971],[100,16059],[100,16138],[100,16221],[100,16309],[100,16387],[100,16472],[100,16554],[100,16638],[100,16721],[100,16806],[100,16888],[100,16970],[100,17056],[100,17137],[100,17221],[100,17306],[100,17388],[100,17471],[100,17556],[100,17638],[100,17721],[100,17806],[100,17889],[100,17972],[100,18057],[100,18138],[100,18220],[100,18306],[100,18388],[100,18472],[100,18557],[100,18637],[100,18722],[100,18806],[100,18888],[100,18970],[100,19057],[100,19137],[100,19221],[100,19307],[100,19388],[100,19472],[100,19557],[100,19637],[100,19722],[100,19805],[100,19889],[100,19971],[100,20056],[100,20139],[100,20225],[100,20307],[100,20389],[100,20475],[100,20562],[100,20645],[100,20739],[100,20817],[100,20901],[100,20985],[100,21081],[100,21166],[100,21251],[100,21336],[100,21415],[100,21502],[100,21584],[100,21666],[100,21751],[100,21831],[100,21917],[100,22000],[100,22081],[100,22156],[100,22221],[100,22290],[100,22348],[100,22417],[100,22483],[100,22554],[100,22638],[100,22720],[100,22802],[100,22889],[100,22971],[100,23054],[100,23137],[100,23222],[100,23304],[100,23392],[100,23471],[100,23555],[100,23639],[100,23721],[100,23804],[100,23888],[100,23971],[100,24056],[100,24141],[100,24221],[100,24304],[100,24389],[100,24471],[100,24554],[100,24639],[100,24726],[100,24804]]",1,0,1005.085,1008.647,90.75520833,3.043,"[{""rating"":90.36458333333333,""responseTime"":1.768000000000029},{""rating"":90.75520833333333,""responseTime"":3.0430000000000064}]",space,3.025,,1008.647,Definitely yes,100,1008.668,,,[],,0,16,16,16,1,audio/Narrative8Situation7.wav,audio/Narrative7Situation7.wav,audio/Narrative6Situation7.wav,audio/Narrative5Situation7.wav,3,5,5,4,,,,,,,,,,,,,,,,,,,,,,,,,,,,,,,,,,,,,,,
,,,,,,5d94d2ab9ac1cb001775fac2,2024-02-08_12h42.17.040,group3.1-3.2-social-tom,2023.2.2,Win32,72.04610951,65c5074098b851296ff0b7ed,65c512683e09a7c7763785a9,,,,,,,,,,,,,,,,,,,,,,,,,,,,,1008.67,2,audio/Narrative6Situation8.wav,1013.68,,1013.68,1020.538,"[[2.7,856],[2.2,937],[1.6,1021],[1,1115],[0.8,1192],[0.7,1276],[0.3,1363]]",1,0,1020.539,1022.949,0,1.398,"[{""rating"":0,""responseTime"":1.3980000000001382}]",space,1.884,,1022.949,Definitely yes,100,1028.67,100,5.104,"[{""rating"":99.73958333333333,""responseTime"":4.48700000000008},{""rating"":100,""responseTime"":5.104000000000042}]",space,0,17,17,17,1,audio/Narrative8Situation8.wav,audio/Narrative7Situation8.wav,audio/Narrative6Situation8.wav,audio/Narrative5Situation8.wav,3,2,5,3,,,5.166,,,,,,,,,,,,,,,,,,,,,,,,,,,,,,,,,,,,
,,,,,,5d94d2ab9ac1cb001775fac2,2024-02-08_12h42.17.040,group3.1-3.2-social-tom,2023.2.2,Win32,72.04610951,65c5074098b851296ff0b7ed,65c512683e09a7c7763785a9,,,,,,,,,,,,,,,,,,,,,,,,,,,,,1028.674,2,audio/Narrative6Situation9.wav,1032.68,,1032.68,1042.632,"[[89.1,1615],[4.9,2107],[5.7,2173],[5.6,2235],[4.7,2303],[1.8,2372]]",1,0,1042.632,1044.809,0,1.734,"[{""rating"":0,""responseTime"":1.7339999999999236}]",space,1.641,,1044.81,Partially,50,1044.826,,,[],,0,18,18,18,1,audio/Narrative8Situation9.wav,audio/Narrative7Situation9.wav,audio/Narrative6Situation9.wav,audio/Narrative5Situation9.wav,3,2,4,3,,,,,,,,,,,,,,,,,,,,,,,,,,,,,,,,,,,,,,,
,,,,,,5d94d2ab9ac1cb001775fac2,2024-02-08_12h42.17.040,group3.1-3.2-social-tom,2023.2.2,Win32,72.04610951,65c5074098b851296ff0b7ed,65c512683e09a7c7763785a9,,,,,,,,,,,,,,,,,,,,,,,,,,,,,,,,,,,,,,,,,,,,,,,,,,,,,,,,,,,,,,,,,,,,,,,,1044.826,1058.812,space,13.466,,1058.812,1090.317,space,31.177,,,,,,,,,,,,,,,,,,,,,,,,,,
,,,,,,5d94d2ab9ac1cb001775fac2,2024-02-08_12h42.17.040,group3.1-3.2-social-tom,2023.2.2,Win32,72.04610951,65c5074098b851296ff0b7ed,65c512683e09a7c7763785a9,,,,,,,,,,,,,,,,,,,,,,,,,,,,,1092.969,1,audio/Narrative8Situation9.wav,1094.983,,,,,,,1126.901,1130.969,4.817708333,3.297,"[{""rating"":4.817708333333331,""responseTime"":3.2970000000000255}]",space,3.53,,1126.884,Definitely yes,100,1126.901,,,[],,,,,,,,,,,2,2,2,2,,,,,,,,,,,,,,,1090.33,1092.911,1094.983,3,1126.883,"[[0.9,28688],[5.9,28775],[10.2,28864],[13.2,28946],[15.6,29029],[19.5,29113],[20.7,29197],[22,29282],[24.3,29363],[25.8,29435],[26.8,29519],[27.3,29594],[27.7,29670],[27.9,29745],[27.9,29814],[27.7,29885],[27.7,29956],[27.7,30033],[27.7,30103],[27.7,30181],[27.7,30258],[27.7,30335],[27.7,30408],[30.9,30490],[33.1,30566],[34.1,30647],[35.9,30717],[39.1,30782],[43.4,30849],[45.8,30911],[48.6,30977],[49.2,31038],[49.5,31105],[49.5,31161],[49.5,31226],[49.5,31292],[49.5,31351],[49.6,31414],[49.6,31477],[49.6,31539],[49.6,31605],[49.6,31671],[49.6,31740],[49.6,31820],[49.6,31900]]",0,0,0,0,1,"Larry had recently lost his family, job and home, and was now living on his own in the park. He had most of his belongings, including some clothes, a blanket, and his mother’s special necklace. His family had been very important to him and he felt as though he did not have much going for him. One of his first days in the park he came across a family that did not have much food and looked very cold. He decided to give them some of his food and his blanket.","Larry had recently lost his family, job and home, and was now living on his own in the park. He had most of his belongings, including some clothes, a blanket, and his mother’s special necklace. His family had been very important to him and he felt as though he did not have much going for him. One of his first days in the park he came across a family that did not have much food and looked very cold. He decided to give them some of his food and his blanket.","Larry had recently lost his family, job and home, and was now living on his own in the park. He had most of his belongings, including some clothes, a blanket, and his mother’s special necklace. His family had been very important to him and he felt as though he did not have much going for him. One of his first days in the park he came across a family that did not have much food and looked very cold. He decided to give them some of his food and his blanket.","Larry had recently lost his family, job and home, and was now living on his own in the park. He had most of his belongings, including some clothes, a blanket, and his mother’s special necklace. His family had been very important to him and he felt as though he did not have much going for him. One of his first days in the park he came across a family that did not have much food and looked very cold. He decided to give them some of his food and his blanket.",,,,,,,,,,
,,,,,,5d94d2ab9ac1cb001775fac2,2024-02-08_12h42.17.040,group3.1-3.2-social-tom,2023.2.2,Win32,72.04610951,65c5074098b851296ff0b7ed,65c512683e09a7c7763785a9,,,,,,,,,,,,,,,,,,,,,,,,,,,,,1130.971,1,audio/Narrative8Situation9.wav,1132.429,space,,,,,,1166.055,1170.449,2.864583333,3.836,"[{""rating"":1.5625,""responseTime"":2.1549999999999727},{""rating"":2.8645833333333313,""responseTime"":3.8360000000000127}]",space,3.864,,1166.033,Partially,50,1166.055,,,[],,,,,,,,,,,6,2,3,9,1.432,,,,,,,,,,,,,,,,1132.429,3,1166.032,"[[4.7,866],[3.5,951],[1.2,1034],[0.3,13306],[5.5,13432],[7.2,13514],[7.7,13596],[8.1,13686],[8.1,13768],[8.1,13854],[8.1,13941],[8.1,14018],[8.1,14100],[8.1,14185],[8.1,14274],[8.1,14359],[8.1,14442],[8.1,14528],[8.1,14608],[8.1,14692],[8.1,14775],[8.1,14857],[8.1,14942],[8.1,15023],[8.1,15107],[8.2,15191],[8.2,15279],[8.2,15357],[8.2,15441],[8.2,15524],[8.2,15612],[8.2,15692],[8.2,15778],[8.2,15857],[8.2,15942],[8.2,16024],[8.2,16107],[8.2,16192],[8.2,16274],[8.2,16356],[8.2,16443],[8.2,16523],[8.2,16607],[8.2,16704],[8.2,16795],[8.2,16879],[8.2,16961],[8.2,17057],[8.2,17144],[8.2,17230],[8.2,17313],[8.2,17399],[8.2,17481],[8.2,17567],[8.2,17653],[8.2,17731],[8.2,17816],[8.2,17898],[8.2,17981],[8.2,18064],[8.2,18149],[8.2,18231],[8.2,18317],[8.2,18399],[8.2,18482],[8.2,18564],[8.2,18650],[8.2,18733],[8.2,18816],[8.2,18902],[8.2,18981],[8.2,19066],[8.2,19148],[8.2,19233],[8.2,19317],[8.2,19399],[8.2,19487],[8.2,19567],[8.2,19649],[8.2,19733],[8.2,19816],[8.2,19900],[8.2,19983],[8.2,20067],[8.2,20155],[8.2,20240],[8.2,20322],[8.2,20407],[8.2,20494],[8.2,20573],[8.2,20656],[8.2,20745],[8.2,20822],[8.2,20905],[8.2,20991],[8.2,21072],[8.2,21155],[8.2,21241],[8.2,21328],[8.2,21413],[8.2,21498],[8.2,21585],[8.2,21670],[8.2,21754],[8.2,21841],[8.2,21928],[8.2,22009],[8.2,22102],[8.2,22177],[8.2,22259],[8.2,22343],[8.2,22434],[8.2,22521],[8.2,22600],[8.2,22686],[8.2,22766],[8.2,22850],[8.2,22934],[8.2,23018],[8.2,23099],[8.2,23184],[8.2,23266],[8.2,23350],[8.2,23442],[8.2,23523],[8.2,23606],[8.2,23691],[8.2,23773],[8.2,23857],[8.2,23942],[8.2,24025],[8.2,24106],[8.2,24192],[8.2,24278],[8.2,24355],[8.2,24442],[8.2,24528],[8.2,24606],[8.2,24691],[8.2,24774],[8.2,24857],[8.2,24942],[8.2,25024],[8.2,25107],[8.2,25191],[8.2,25273],[8.2,25357],[8.2,25442],[8.2,25525],[8.2,25606],[8.2,25692],[8.2,25783],[8.2,25865],[8.2,25946],[8.2,26038],[8.2,26120],[8.2,26204],[8.2,26288],[8.2,26371],[8.2,26453],[8.2,26539],[8.2,26621],[8.2,26702],[8.2,26801],[8.2,26878],[8.2,26961],[8.2,27044],[8.2,27128],[8.2,27212],[8.2,27295],[8.2,27378],[8.2,27461],[8.2,27548],[8.2,27628],[8.2,27711],[8.2,27797],[8.2,27877],[8.2,27961],[8.2,28045],[8.2,28127],[8.2,28210],[8.2,28297],[8.2,28378],[8.2,28461],[8.2,28548],[8.2,28627],[8.2,28711],[8.2,28798],[8.2,28877],[8.2,28961],[8.2,29050],[8.2,29128],[8.2,29212],[8.2,29294],[8.2,29378],[8.2,29461],[8.2,29544],[8.2,29627],[8.2,29711],[8.2,29794],[8.2,29878],[8.2,29961],[8.2,30042],[8.2,30140],[8.2,30217],[8.2,30312],[8.2,30394],[8.2,30475],[8.2,30558],[8.2,30641],[8.2,30725],[8.2,30809],[8.2,30893],[8.2,30974],[8.2,31061],[8.2,31150],[8.2,31231],[8.2,31317],[8.2,31408],[8.2,31489],[8.2,31575],[8.2,31656],[8.2,31740],[8.2,31825],[8.2,31905],[8.2,31990],[8.2,32075],[8.2,32154],[8.2,32240],[8.2,32325],[8.2,32406],[8.2,32490],[8.2,32571],[8.2,32655],[8.2,32740],[8.2,32821],[8.2,32906],[8.2,32990],[8.2,33073],[8.2,33158],[8.2,33240],[8.2,33322],[8.2,33407],[8.2,33487],[8.2,33572]]",0,1,1,1,1,"It was just another Sunday afternoon for Lucy, she was on her way to the farmer's market to pick up some produce. When she arrived at the old train depot that housed the market, she noticed two men fighting on the steps. Before she could call for help, one of the men crumpled to his knees. The other man dropped an object that appeared to be a knife and ran off. When Lucy approached the crime scene she realized that the man who had been murdered was the Mayor and that he had a gunshot wound.","One day at work, Margaret walked up to her partner, Al, to ask him to talk to the chief of staff at the local hospital where she worked as a nurse.","Luke always thought of himself as an honest man. That's why during his evening jog around the swamp, he pondered his recent affair with the receptionist at work. Luke looked up at the sky and asked God why he was so weak and unfaithful. He thought of the impact this would have on his family and told God of his conflicted feelings toward telling his wife Marta.","Linda and Amy had been best friends since kindergarten, they even found homes on the same street in the forest on the edge of town. Their biggest fight had been over who gets the bigger slice of cake, until Amy married Dan. Linda loathed Dan, she thought he was manipulative and had a violent temper. She only put up with him because Amy loved him. ",,,,,,,,,,
,,,,,,5d94d2ab9ac1cb001775fac2,2024-02-08_12h42.17.040,group3.1-3.2-social-tom,2023.2.2,Win32,72.04610951,65c5074098b851296ff0b7ed,65c512683e09a7c7763785a9,,,,,,,,,,,,,,,,,,,,,,,,,,,,,1170.451,1,audio/Narrative8Situation9.wav,1174.462,,,,,,,1193.059,1196.204,0.130208333,2.388,"[{""rating"":0.13020833333333148,""responseTime"":2.3880000000001473}]",space,2.614,,1193.032,Definitely yes,100,1193.058,,,[],,,,,,,,,,,4,5,2,2,,,,,,,,,,,,,,,,,1174.462,3,1193.031,"[[0.9,1029]]",0,2,2,2,1,On the ground beside him was a pen that she had mistaken for a knife. Lucy looked for the gunman and saw a suspicious man in black with distinct pointy features darting into an alley across the street. Cops who were nearby chased the man who had fled and arrested him.,"While waiting outside the chief of staff's office, Al heard nondescript shouting and yelling, there was a loud clatter in the room and then an eerie silence. An unfamiliar employee ran hastily out of the office with a terrified look on their face.","Suddenly, Luke heard a woman call out his name and when he turned around he saw Carly, his receptionist, across the road with a gun in her hand. Carly ran to him and explained how she had followed him here to confess her love. She exclaimed if Luke didn't love her back that she would kill him and his family. Carly explained that the only way they could be together is to kill Marta.","This feeling of hate between Amy and Dan was mutual, Dan didn't like how much time his wife spent with her and thought Amy was creating distance between their marriage. That's why Dan decided to try and tarnish Linda's reputation with his wife, in hopes it would get rid of her. He came home one afternoon and exclaimed that Linda had tried to kiss him. Amy was taken aback and immediately called Linda to confront her about these accusations. When Linda arrived she denied having made a move on Dan, but discovered Dan had enlisted the help of his friend Will who said he witnessed it all happen.",,,,,,,,,,
,,,,,,5d94d2ab9ac1cb001775fac2,2024-02-08_12h42.17.040,group3.1-3.2-social-tom,2023.2.2,Win32,72.04610951,65c5074098b851296ff0b7ed,65c512683e09a7c7763785a9,,,,,,,,,,,,,,,,,,,,,,,,,,,,,1196.206,1,audio/Narrative8Situation9.wav,1198.211,,,,,,,1210.114,1215.17,0.651041667,4.747,"[{""rating"":0.6510416666666685,""responseTime"":3.6520000000000437},{""rating"":0.6510416666666685,""responseTime"":3.9580000000000837},{""rating"":0.6510416666666685,""responseTime"":4.747000000000071}]",space,4.516,,1210.084,Not at all,0,1210.114,,,[],,,,,,,,,,,2,2,1,4,,,,,,,,,,,,,,,,,1198.211,3,1210.082,[],0,3,3,3,1,"But Lucy knew the charged man was innocent, which meant the killer was free. Lucy vowed to find out who the real murderer was and to stop him at all costs.","Al explained to the chief of staff that Margaret wanted to be excused from her absences last week. The chief of staff, Susan, revealed that she wanted to fire Margaret and never see her again. Susan and Al had been having an affair and she wanted Margaret ""out of the picture"". Al was conflicted, but agreed it would be for the best.","Luke thought of his child and felt like this was his only option. He agreed to the plan and called his wife to meet him at the swamp to watch the sunset with him. When she arrived, Marta called out for her husband, but found Carly waiting for her. She immediately drew her gun and shot her in the chest, knocking her unconscious.","Since it was their word against her own, she decided to go home and admit defeat. She knew how much it would hurt Amy to know the truth.",,,,,,,,,,
,,,,,,5d94d2ab9ac1cb001775fac2,2024-02-08_12h42.17.040,group3.1-3.2-social-tom,2023.2.2,Win32,72.04610951,65c5074098b851296ff0b7ed,65c512683e09a7c7763785a9,,,,,,,,,,,,,,,,,,,,,,,,,,,,,1215.172,1,audio/Narrative8Situation9.wav,1216.182,,,,,,,1245.767,1249.432,0,3.109,"[{""rating"":0,""responseTime"":3.1089999999999236}]",space,3.112,,1245.757,Not at all,0,1245.767,,,[],,,,,,,,,,,1,1,3,3,,,,,,,,,,,,,,,,,1216.182,3,1245.757,"[[0.5,1305],[0.4,1391],[0.3,1477]]",0,4,4,4,1,"The next day the mayors successor, Mr. Smith, a man who was very unpopular due to his strong ties to the oil companies, took office. After a long day of brainstorming about the mysterious killer, Lucy decided to attend his welcome ceremony in the city. During the mayor's speech, she noticed one of the security guards looked strangely familiar. It dawned on her that this new mayor had motive to kill and that the man in black could've been the guard working for him.","Weeks passed and nobody had seen Margaret. Coworkers and friends searched the nearby city looking for her. One day on patrol in a nearby town, a police officer heard someone crying for help in the basement of a house and went in to investigate. Margaret yelled that she was being held captive and needed help.","Luke ran to Marta, and filled with regret over his decision to go along with Carly's plan, picked her up and rushed her to the hospital. The doctors tried to help Marta by taking her into emergency surgery but failed to save her life. Once the doctor called the time of death, Luke fell to his knees and sobbed over his rash decision.","Months later Dan had taken up a mistress, he was growing bored with his marriage ever since he got rid of Linda and was only still with Amy for her family's money. In a hotel room in a nearby town, Dan and his mistress, Nicole, conspired to secretly kill Amy while still obtaining her fortune.",,,,,,,,,,
