exp_question,consent.started,consent.stopped,consentResponse.keys,consentResponse.rt,consentResponse.duration,participantID,date,expName,psychopyVersion,OS,frameRate,STUDY_ID,SESSION_ID,opening1.started,opening1.stopped,keyEndingOpening1.keys,keyEndingOpening1.rt,keyEndingOpening1.duration,volumeAdjust.started,volumeAdjust.stopped,endingAdjust.keys,endingAdjust.rt,endingAdjust.duration,opening2.started,opening2.stopped,keyEndingOpening.keys,keyEndingOpening.rt,keyEndingOpening.duration,mouse.x,mouse.y,mouse.leftButton,mouse.midButton,mouse.rightButton,mouse.time,instructionLoop.thisRepN,instructionLoop.thisTrialN,instructionLoop.thisN,instructionLoop.thisIndex,instructionLoop.ran,readyForAudio.started,readyForAudio.stopped,fixation.started,run,audio_played,fixation.stopped,endPractice.keys,audioPre.started,audioPre.stopped,continuousResponses_audio,continuousSlider.response,continuousSlider.rt,intRating.started,intRating.stopped,intQuestionSlider.response,intQuestionSlider.rt,intQuestionSlider.history,confirmResponse.keys,confirmResponse.rt,confirmResponse.duration,catchQuestion.started,catch_label,catch_value,catchQuestion.stopped,catchQuestionSlider.response,catchQuestionSlider.rt,catchQuestionSlider.history,confirmResponse_2.keys,audioRunLoop.thisRepN,audioRunLoop.thisTrialN,audioRunLoop.thisN,audioRunLoop.thisIndex,audioRunLoop.ran,conditions1_1,conditions2_1,conditions1_2,conditions2_2,dur1_1,dur2_1,dur1_2,dur2_2,endPractice.rt,endPractice.duration,confirmResponse_2.rt,confirmResponse_2.duration,runIntervalBreak.started,runIntervalBreak.stopped,endingBreakKey.keys,endingBreakKey.rt,endingBreakKey.duration,connection.started,connection.stopped,connectionEnding.keys,connectionEnding.rt,connectionEnding.duration,readyForText.started,readyForText.stopped,textPre.started,run_dup,textPre.stopped,continuousResponses_text,textRunLoop.thisRepN,textRunLoop.thisTrialN,textRunLoop.thisN,textRunLoop.thisIndex,textRunLoop.ran,text1_1,text1_2,text2_1,text2_2,runBreakText.started,runBreakText.stopped,endingBreakKey_2.keys,endingBreakKey_2.rt,endingBreakKey_2.duration,ending.started,ending.stopped,endingEnding.keys,endingEnding.rt,endingEnding.duration
social,1E-04,2259.8024,y,2259.4703,,5e3040a2d1a553000cc9147b,2024-02-08_16h03.54.794,group3.1-3.2-social-tom,2023.2.2,Win32,60.24096386,65c5074098b851296ff0b7ed,65c5418fed95dc5ee826a2e5,,,,,,,,,,,,,,,,,,,,,,,,,,,,,,,,,,,,,,,,,,,,,,,,,,,,,,,,,,,,,,,,,,,,,,,,,,,,,,,,,,,,,,,,,,,,,,,,,,,,,,,,,,
,,,,,,5e3040a2d1a553000cc9147b,2024-02-08_16h03.54.794,group3.1-3.2-social-tom,2023.2.2,Win32,60.24096386,65c5074098b851296ff0b7ed,65c5418fed95dc5ee826a2e5,2259.8027,2266.2136,space,6.3823,,,,,,,,,,,,,,,,,,,,,,,,,,,,,,,,,,,,,,,,,,,,,,,,,,,,,,,,,,,,,,,,,,,,,,,,,,,,,,,,,,,,,,,,,,,,,,,,,,,,,,
,,,,,,5e3040a2d1a553000cc9147b,2024-02-08_16h03.54.794,group3.1-3.2-social-tom,2023.2.2,Win32,60.24096386,65c5074098b851296ff0b7ed,65c5418fed95dc5ee826a2e5,,,,,,2266.214,2273.0618,space,6.5281,,,,,,,,,,,,,,,,,,,,,,,,,,,,,,,,,,,,,,,,,,,,,,,,,,,,,,,,,,,,,,,,,,,,,,,,,,,,,,,,,,,,,,,,,,,,,,,,,
,,,,,,5e3040a2d1a553000cc9147b,2024-02-08_16h03.54.794,group3.1-3.2-social-tom,2023.2.2,Win32,60.24096386,65c5074098b851296ff0b7ed,65c5418fed95dc5ee826a2e5,,,,,,,,,,,2273.0691,2283.962,space,10.8808,,[],[],[],[],[],[],0,0,0,0,1,,,,,,,,,,,,,,,,,,,,,,,,,,,,,,,,,,,,,,,,,,,,,,,,,,,,,,,,,,,,,,,,,,,,,,,,,,,,,,,,
,,,,,,5e3040a2d1a553000cc9147b,2024-02-08_16h03.54.794,group3.1-3.2-social-tom,2023.2.2,Win32,60.24096386,65c5074098b851296ff0b7ed,65c5418fed95dc5ee826a2e5,,,,,,,,,,,2283.9695,2304.2272,space,20.1957,,[],[],[],[],[],[],1,0,1,0,1,,,,,,,,,,,,,,,,,,,,,,,,,,,,,,,,,,,,,,,,,,,,,,,,,,,,,,,,,,,,,,,,,,,,,,,,,,,,,,,,
,,,,,,5e3040a2d1a553000cc9147b,2024-02-08_16h03.54.794,group3.1-3.2-social-tom,2023.2.2,Win32,60.24096386,65c5074098b851296ff0b7ed,65c5418fed95dc5ee826a2e5,,,,,,,,,,,2304.2346,2326.8428,space,22.581,,[],[],[],[],[],[],2,0,2,0,1,,,,,,,,,,,,,,,,,,,,,,,,,,,,,,,,,,,,,,,,,,,,,,,,,,,,,,,,,,,,,,,,,,,,,,,,,,,,,,,,
,,,,,,5e3040a2d1a553000cc9147b,2024-02-08_16h03.54.794,group3.1-3.2-social-tom,2023.2.2,Win32,60.24096386,65c5074098b851296ff0b7ed,65c5418fed95dc5ee826a2e5,,,,,,,,,,,2326.8479,2349.4419,space,22.573,,[],[],[],[],[],[],3,0,3,0,1,,,,,,,,,,,,,,,,,,,,,,,,,,,,,,,,,,,,,,,,,,,,,,,,,,,,,,,,,,,,,,,,,,,,,,,,,,,,,,,,
,,,,,,5e3040a2d1a553000cc9147b,2024-02-08_16h03.54.794,group3.1-3.2-social-tom,2023.2.2,Win32,60.24096386,65c5074098b851296ff0b7ed,65c5418fed95dc5ee826a2e5,,,,,,,,,,,2349.448,2369.9912,space,20.5266,,[],[],[],[],[],[],4,0,4,0,1,,,,,,,,,,,,,,,,,,,,,,,,,,,,,,,,,,,,,,,,,,,,,,,,,,,,,,,,,,,,,,,,,,,,,,,,,,,,,,,,
,,,,,,5e3040a2d1a553000cc9147b,2024-02-08_16h03.54.794,group3.1-3.2-social-tom,2023.2.2,Win32,60.24096386,65c5074098b851296ff0b7ed,65c5418fed95dc5ee826a2e5,,,,,,,,,,,,,,,,,,,,,,,,,,,2370.0002,2372.5753,2372.5915,1,audio/Narrative13Situation2.wav,2374.6082,,2374.6087,2404.3735,"[[999,3],[999,82],[999,165],[999,248],[999,332],[999,415],[999,498],[999,581],[999,665],[999,749],[999,832],[999,915],[999,998],[999,1082],[999,1165],[999,1249],[999,1331],[999,1415],[999,1498],[999,1582],[999,1666],[999,1749],[999,1832],[999,1915],[999,1998],[999,2082],[999,2165],[999,2248],[999,2332],[999,2415],[999,2498],[999,2582],[999,2665],[999,2748],[999,2831],[999,2915],[999,2998],[999,3082],[999,3165],[999,3248],[999,3332],[999,3415],[999,3498],[999,3581],[999,3665],[999,3748],[999,3831],[999,3915],[999,3999],[999,4082],[999,4165],[999,4248],[999,4332],[999,4415],[999,4498],[999,4582],[999,4665],[999,4748],[999,4832],[999,4915],[999,4998],[999,5082],[999,5165],[999,5248],[999,5331],[999,5415],[999,5498],[999,5581],[999,5665],[999,5748],[999,5831],[999,5915],[999,5998],[999,6081],[999,6165],[999,6248],[999,6332],[999,6415],[999,6498],[999,6581],[999,6665],[999,6748],[999,6831],[999,6915],[999,6998],[999,7082],[999,7165],[999,7248],[999,7331],[999,7415],[999,7498],[999,7582],[999,7665],[999,7748],[999,7831],[999,7915],[999,7998],[999,8081],[999,8165],[999,8248],[999,8331],[999,8415],[999,8498],[999,8581],[999,8665],[999,8748],[999,8832],[999,8915],[999,8998],[999,9081],[999,9165],[999,9248],[999,9331],[100,9415],[100,9498],[100,9582],[100,9665],[100,9748],[100,9831],[100,9914],[100,9998],[100,10081],[100,10165],[100,10248],[100,10331],[100,10415],[100,10498],[100,10581],[100,10665],[100,10748],[100,10832],[100,10915],[100,10998],[100,11082],[100,11164],[100,11248],[100,11331],[100,11414],[100,11498],[100,11581],[100,11664],[100,11748],[100,11831],[100,11914],[100,11998],[100,12081],[100,12164],[100,12248],[100,12331],[100,12414],[100,12498],[100,12581],[100,12665],[100,12748],[100,12832],[100,12915],[100,12998],[100,13081],[100,13165],[100,13248],[100,13331],[100,13415],[100,13498],[100,13581],[100,13664],[100,13748],[100,13831],[100,13914],[100,13998],[100,14081],[100,14165],[100,14248],[100,14331],[100,14415],[100,14498],[100,14581],[100,14665],[100,14748],[100,14831],[100,14914],[100,14998],[100,15081],[100,15165],[100,15248],[100,15331],[100,15415],[100,15498],[100,15581],[100,15664],[100,15748],[100,15831],[100,15914],[100,15998],[100,16081],[100,16164],[100,16248],[100,16331],[97.7,16414],[95.5,16498],[90.6,16581],[85.9,16664],[83.8,16748],[78.4,16831],[73.6,16914],[71,16998],[69.2,17081],[67.8,17165],[64.7,17248],[59.9,17332],[56.1,17415],[52.7,17498],[50,17582],[49.2,17665],[48.3,17748],[48.2,17831],[48.2,17915],[48.2,17998],[48.2,18081],[48.2,18164],[47.1,18248],[45.3,18331],[42.8,18414],[38.3,18498],[32.4,18582],[25.5,18665],[23.3,18748],[20.2,18831],[16.7,18915],[14.2,18998],[11.5,19081],[8,19164],[5,19248],[1.6,19331],[0.1,22748],[7.6,22831],[16.1,22914],[25.7,22998],[31.1,23081],[39.5,23164],[44.7,23248],[47.3,23331],[51.5,23414],[52,23498],[52,23581],[52,23664],[52,23747],[51.4,23831],[51.1,23914],[50.8,23998],[50.6,24081],[50.4,24164],[50.4,24247],[50.4,24331],[50.4,24414],[50.4,24497],[50.4,24581],[50.4,24664],[50.4,24747],[50.4,24831],[50.4,24914],[50.4,24997],[50.4,25081],[50.4,25164],[44,25248],[36.3,25331],[25,25414],[14.1,25498],[9,25581],[4.5,25665],[1.3,25748]]",1,0,2404.3738,2413.623,50.41666667,7.6049,"[{""rating"":50.416666666666664,""responseTime"":7.604900000005728}]",space,8.7028,,2413.6232,Not at all,0,2413.6255,,,[],,0,0,0,0,1,audio/Narrative13Situation2.wav,audio/Narrative13Situation2.wav,audio/Narrative13Situation2.wav,audio/Narrative13Situation2.wav,2,2,2,2,,,,,,,,,,,,,,,,,,,,,,,,,,,,,,,,,,,,,,,
,,,,,,5e3040a2d1a553000cc9147b,2024-02-08_16h03.54.794,group3.1-3.2-social-tom,2023.2.2,Win32,60.24096386,65c5074098b851296ff0b7ed,65c5418fed95dc5ee826a2e5,,,,,,,,,,,,,,,,,,,,,,,,,,,,,2413.6256,1,audio/Narrative8Situation1.wav,2416.3559,space,2416.3559,2432.2724,"[[999,5],[999,83],[999,166],[999,249],[999,333],[999,416],[999,499],[999,584],[999,668],[999,751],[999,835],[50.8,917],[50.5,1333],[50.6,1416],[50.6,1500],[50.6,1583],[50.6,1666],[50.6,1749],[50.6,1833],[50.6,1916],[50.6,1999],[50.6,2083],[50.6,2166],[50.6,2250],[49.9,2333],[48,2417],[37.3,2500],[23.1,2583],[16.1,2667],[5.9,2750],[7.6,5083],[14,5167],[19.1,5249],[26.6,5333],[34.2,5416],[38.8,5499],[42.7,5583],[45.8,5666],[47.9,5749],[49.8,5833],[49.9,5916],[49.9,5999],[50,6083],[50,6166],[50,6249],[50,6333],[50,6416],[50,6500],[50,6583],[50,6666],[50,6749],[50,6833],[50,6916],[50,6999],[50,7083],[50,7166],[50,7249],[50,7333],[50,7416],[50,7499],[50,7583],[50,7666],[50,7750],[50,7833],[50,7916],[50,7999],[50,8083],[50,8166],[50,8249],[50,8333],[50,8416],[50,8499],[50,8583],[50,8666],[50,8749],[50,8833],[50,8916],[50,8999],[50,9083],[50,9166],[50,9249],[53.9,9333],[64.7,9416],[74.6,9500],[85.9,9583],[94.5,9666],[100,9749],[100,9833],[100,9916],[100,9999],[100,10082],[100,10166],[100,10250],[100,10333],[100,10416],[100,10499],[100,10583],[100,10666],[100,10749],[100,10833],[100,10916],[100,10999],[100,11082],[100,11166],[100,11249],[100,11332],[100,11416],[100,11499],[100,11583],[100,11666],[100,11749],[100,11833],[100,11916],[100,11999],[100,12082],[100,12166],[100,12249],[100,12332],[100,12416],[100,12499],[100,12583],[100,12666],[100,12749],[100,12833],[100,12916],[100,12999],[100,13082],[100,13166],[100,13249],[100,13333],[100,13416],[100,13499],[100,13583],[100,13666],[100,13749],[100,13832],[100,13916],[100,13999],[100,14082],[100,14166],[100,14249],[100,14332],[100,14416],[100,14499],[100,14583],[100,14666],[100,14749],[100,14832],[100,14916],[100,14999],[100,15083],[100,15166],[100,15249],[100,15332],[100,15416],[100,15499],[100,15582],[100,15666],[100,15749],[100,15834],[100,15916]]",1,0,2432.2727,2434.9554,100,1.9851,"[{""rating"":98.02083333333333,""responseTime"":1.2825999999940905},{""rating"":100,""responseTime"":1.9850999999939631}]",space,2.1472,,2434.9554,Definitely yes,100,2434.9582,,,[],,0,1,1,1,1,audio/Narrative7Situation1.wav,audio/Narrative8Situation1.wav,audio/Narrative5Situation1.wav,audio/Narrative6Situation1.wav,2,5,5,2,2.7149,,,,,,,,,,,,,,,,,,,,,,,,,,,,,,,,,,,,,,
,,,,,,5e3040a2d1a553000cc9147b,2024-02-08_16h03.54.794,group3.1-3.2-social-tom,2023.2.2,Win32,60.24096386,65c5074098b851296ff0b7ed,65c5418fed95dc5ee826a2e5,,,,,,,,,,,,,,,,,,,,,,,,,,,,,2434.9584,1,audio/Narrative8Situation2.wav,2437.9721,,2437.9721,2448.1052,"[[51.8,500],[51.4,582],[51.4,668],[51.3,751],[51.3,837],[46.3,919],[35.6,1000],[25.6,1083],[5.3,1166],[1.8,3832],[11.6,3917],[12.4,3999],[12.4,4082],[11.4,4166],[0.7,4249]]",1,0,2448.1055,2450.7379,0,2.2532,"[{""rating"":3.229166666666666,""responseTime"":1.5484999999998763},{""rating"":1.5625,""responseTime"":1.7484000000058586},{""rating"":0,""responseTime"":2.2532000000178414}]",space,2.0912,,2450.7379,Partially,50,2450.7393,,,[],,0,2,2,2,1,audio/Narrative7Situation2.wav,audio/Narrative8Situation2.wav,audio/Narrative5Situation2.wav,audio/Narrative6Situation2.wav,3,3,3,3,,,,,,,,,,,,,,,,,,,,,,,,,,,,,,,,,,,,,,,
,,,,,,5e3040a2d1a553000cc9147b,2024-02-08_16h03.54.794,group3.1-3.2-social-tom,2023.2.2,Win32,60.24096386,65c5074098b851296ff0b7ed,65c5418fed95dc5ee826a2e5,,,,,,,,,,,,,,,,,,,,,,,,,,,,,2450.7394,1,audio/Narrative8Situation3.wav,2454.7547,,2454.7548,2477.1368,"[[49,750],[48.9,833],[48.9,916],[48.9,999],[48.9,1083],[48.9,1166],[48.9,1249],[44.5,1333],[23.5,1416],[9,1500],[4.7,1583],[0.3,1666],[4,3166],[12.8,3249],[20.1,3332],[25.7,3416],[32.8,3499],[40,3582],[42.7,3666],[44.1,3749],[46.1,3832],[48.4,3916],[49.2,3999],[49.8,4082],[50.4,4165],[50.4,4249],[49.9,4333],[49.2,4416],[49.2,4499],[49.2,4582],[49.2,4666],[49.2,4749],[49.2,4833],[49.2,4915],[49.2,4999],[49.2,5082],[49.2,5165],[49.2,5249],[49.2,5332],[49.2,5416],[49.2,5499],[49.2,5582],[49.2,5665],[49.2,5749],[49.2,5832],[50.5,5916],[50.6,5999],[50.6,6082],[50.6,6166],[50.7,6249],[51.3,6333],[51.3,6416],[51.3,6499],[51.3,6583],[51.6,6666],[53.4,6749],[56.6,6832],[58,6916],[58.6,6999],[59.1,7083],[60.7,7166],[63.2,7249],[64.1,7332],[64.3,7416],[64.3,7499],[64.3,7582],[64.8,7666],[67.5,7749],[70,7832],[71.6,7916],[73.4,8000],[75,8083],[75.1,8165],[76,8249],[78.8,8332],[82.7,8415],[86.3,8499],[87,8582],[87,8665],[87.8,8749],[91,8832],[96.6,8916],[99.3,8999],[99.8,9082],[100,9166],[100,9249],[100,9332],[100,9415],[100,9499],[100,9582],[100,9665],[100,9749],[100,9832],[100,9915],[100,9999],[100,10082],[100,10165],[100,10249],[100,10332],[100,10415],[100,10499],[100,10583],[100,10666],[100,10749],[100,10833],[100,10915],[100,10998],[100,11082],[100,11165],[100,11249],[100,11332],[100,11415],[100,11499],[100,11582],[100,11665],[100,11748],[100,11832],[100,11915],[100,11999],[100,12082],[100,12165],[100,12249],[100,12332],[100,12415],[100,12498],[100,12582],[100,12665],[100,12748],[100,12832],[100,12915],[100,12998],[100,13082],[100,13165],[100,13248],[100,13332],[100,13415],[100,13498],[100,13582],[100,13665],[100,13748],[100,13832],[100,13915],[100,13998],[100,14082],[100,14165],[100,14249],[100,14332],[100,14415],[100,14498],[100,14582],[100,14665],[100,14748],[100,14832],[100,14915],[100,14998],[100,15082],[100,15165],[100,15249],[100,15332],[100,15415],[100,15498],[100,15582],[100,15665],[100,15749],[100,15832],[100,15915],[100,15999],[100,16082],[100,16165],[100,16249],[100,16332],[100,16415],[100,16499],[100,16582],[100,16665],[100,16748],[100,16832],[100,16915],[100,16999],[100,17082],[100,17165],[100,17248],[100,17332],[100,17415],[100,17498],[100,17582],[100,17665],[100,17748],[100,17832],[100,17915],[100,17998],[100,18082],[100,18165],[100,18248],[100,18332],[100,18415],[100,18498],[100,18582],[100,18665],[100,18748],[100,18832],[100,18915],[100,18998],[100,19082],[100,19165],[100,19248],[100,19332],[100,19415],[100,19498],[100,19582],[100,19665],[100,19749],[100,19832],[100,19915],[100,19998],[100,20081],[100,20165],[100,20248],[100,20331],[100,20415],[100,20498],[100,20582],[100,20665],[100,20749],[100,20831],[100,20915],[100,20998],[100,21082],[100,21165],[100,21249],[99.9,21343],[99.9,21415],[99.9,21498],[99.9,21582],[99.9,21665],[99.9,21748],[99.9,21831],[99.9,21915],[99.9,21998],[99.9,22081],[99.9,22165],[99.9,22248],[100,22332]]",1,0,2477.1369,2478.304,99.58333333,0.6913,"[{""rating"":99.58333333333333,""responseTime"":0.6912999999822205}]",space,0.6357,,2478.304,Not at all,0,2478.3059,,,[],,0,3,3,3,1,audio/Narrative7Situation3.wav,audio/Narrative8Situation3.wav,audio/Narrative5Situation3.wav,audio/Narrative6Situation3.wav,8,4,3,5,,,,,,,,,,,,,,,,,,,,,,,,,,,,,,,,,,,,,,,
,,,,,,5e3040a2d1a553000cc9147b,2024-02-08_16h03.54.794,group3.1-3.2-social-tom,2023.2.2,Win32,60.24096386,65c5074098b851296ff0b7ed,65c5418fed95dc5ee826a2e5,,,,,,,,,,,,,,,,,,,,,,,,,,,,,2478.306,1,audio/Narrative8Situation4.wav,2481.3203,,2481.3204,2495.5037,"[[87.4,668],[68.1,754],[58.2,834],[56,916],[52.1,1000],[47.5,1083],[46.7,1166],[46.5,1250],[40.4,1333],[4.9,2666],[12.6,2749],[23.8,2832],[32.5,2916],[38.6,2999],[43.5,3082],[48,3166],[50.9,3249],[56.7,3332],[66.7,3416],[74.9,3499],[80.4,3582],[85.2,3666],[91.4,3749],[95.4,3832],[98.4,3916],[99.2,3999],[100,4083],[100,4166],[100,4249],[100,4333],[100,4416],[100,4499],[100,4583],[100,4666],[100,4749],[100,4833],[100,4916],[100,4999],[100,5083],[100,5166],[100,5249],[100,5332],[100,5416],[100,5499],[100,5582],[100,5666],[100,5749],[100,5832],[100,5916],[100,5999],[100,6082],[100,6166],[100,6249],[100,6332],[100,6415],[100,6499],[100,6582],[100,6666],[100,6749],[100,6832],[100,6916],[100,6999],[100,7082],[100,7166],[100,7249],[100,7332],[100,7416],[100,7499],[100,7582],[100,7665],[100,7749],[100,7832],[100,7916],[100,7999],[100,8082],[100,8166],[100,8249],[100,8332],[100,8416],[100,8499],[100,8582],[100,8666],[100,8749],[100,8832],[100,8916],[100,8999],[100,9082],[100,9166],[100,9249],[100,9332],[100,9416],[100,9499],[100,9582],[100,9666],[100,9749],[100,9832],[100,9915],[100,9999],[100,10082],[100,10166],[100,10249],[100,10332],[100,10416],[100,10499],[100,10582],[100,10665],[100,10749],[100,10832],[100,10915],[100,10999],[100,11082],[100,11165],[100,11248],[100,11332],[100,11415],[100,11499],[100,11582],[100,11665],[100,11749],[100,11832],[100,11915],[100,11998],[100,12082],[100,12166],[100,12249],[100,12332],[100,12416],[100,12498],[100,12582],[100,12666],[100,12748],[100,12832],[100,12915],[100,12999],[100,13082],[100,13165],[100,13248],[100,13332],[100,13415],[100,13498],[100,13582],[100,13665],[100,13748],[100,13832],[100,13915],[100,13998],[100,14082],[99.7,14165]]",1,0,2495.504,2496.9197,99.6875,0.8639,"[{""rating"":99.6875,""responseTime"":0.6539999999999964},{""rating"":99.6875,""responseTime"":0.8638999999757289}]",space,0.8929,,2496.9197,Not at all,0,2496.9204,,,[],,0,4,4,4,1,audio/Narrative7Situation4.wav,audio/Narrative8Situation4.wav,audio/Narrative5Situation4.wav,audio/Narrative6Situation4.wav,3,3,1,2,,,,,,,,,,,,,,,,,,,,,,,,,,,,,,,,,,,,,,,
,,,,,,5e3040a2d1a553000cc9147b,2024-02-08_16h03.54.794,group3.1-3.2-social-tom,2023.2.2,Win32,60.24096386,65c5074098b851296ff0b7ed,65c5418fed95dc5ee826a2e5,,,,,,,,,,,,,,,,,,,,,,,,,,,,,2496.9206,1,audio/Narrative8Situation5.wav,2498.936,,2498.936,2507.1861,"[[95.5,1167],[82.6,1250],[75.7,1333],[67.1,1417],[60.6,1499],[86.1,1583],[87.7,1666],[90.8,1749],[95.5,1833],[95.7,1916],[98.3,1999],[98.9,2083],[99.5,2166],[100,2250],[100,2333],[100,2416],[100,2500],[100,2583],[100,2666],[100,2749],[100,2833],[100,2916],[100,2999],[100,3083],[100,3166],[100,3249],[100,3333],[100,3416],[100,3499],[100,3583],[100,3666],[100,3750],[100,3833],[100,3916],[100,4000],[100,4083],[100,4166],[100,4249],[100,4333],[100,4416],[100,4499],[100,4583],[100,4666],[100,4750],[100,4833],[100,4916],[100,5000],[100,5083],[100,5166],[100,5249],[100,5333],[100,5416],[100,5500],[100,5583],[100,5666],[100,5750],[100,5833],[100,5916],[100,5999],[100,6083],[100,6166],[100,6249],[100,6332],[100,6416],[100,6499],[100,6582],[100,6666],[100,6749],[100,6833],[100,6916],[100,6999],[100,7083],[100,7166],[100,7249],[100,7332],[100,7416],[100,7499],[100,7583],[100,7666],[100,7749],[100,7833],[100,7916],[100,7999],[100,8083],[100,8166],[100,8249]]",1,0,2507.1864,2509.319,100,1.7275,"[{""rating"":99.16666666666667,""responseTime"":0.7670999999936612},{""rating"":100,""responseTime"":1.7274999999999636}]",space,1.5937,,2509.319,Partially,50,2509.3204,,,[],,0,5,5,5,1,audio/Narrative7Situation5.wav,audio/Narrative8Situation5.wav,audio/Narrative5Situation5.wav,audio/Narrative6Situation5.wav,5,2,5,2,,,,,,,,,,,,,,,,,,,,,,,,,,,,,,,,,,,,,,,
,,,,,,5e3040a2d1a553000cc9147b,2024-02-08_16h03.54.794,group3.1-3.2-social-tom,2023.2.2,Win32,60.24096386,65c5074098b851296ff0b7ed,65c5418fed95dc5ee826a2e5,,,,,,,,,,,,,,,,,,,,,,,,,,,,,2509.3204,1,audio/Narrative8Situation6.wav,2511.3355,,2511.3355,2517.8025,"[[100,2583],[100,2666],[100,2749],[100,2833],[100,2916],[100,2999],[100,3083],[100,3166],[100,3249],[100,3333],[100,3416],[100,3499],[100,3583],[100,3666],[100,3750],[100,3833],[100,3916],[100,4000],[100,4083],[100,4166],[100,4249],[100,4333],[100,4416],[100,4500],[100,4583],[100,4666],[100,4749],[100,4833],[100,4916],[100,4999],[100,5083],[100,5166],[100,5250],[100,5333],[100,5416],[100,5500],[100,5583],[100,5666],[100,5750],[100,5833],[100,5916],[100,5999],[100,6083],[100,6166],[100,6249],[100,6333],[100,6416]]",1,0,2517.8026,2519.2228,99.79166667,0.931,"[{""rating"":99.79166666666667,""responseTime"":0.93100000000004}]",space,0.8671,,2519.223,Definitely yes,100,2519.2275,,,[],,0,6,6,6,1,audio/Narrative7Situation6.wav,audio/Narrative8Situation6.wav,audio/Narrative5Situation6.wav,audio/Narrative6Situation6.wav,3,2,3,2,,,,,,,,,,,,,,,,,,,,,,,,,,,,,,,,,,,,,,,
,,,,,,5e3040a2d1a553000cc9147b,2024-02-08_16h03.54.794,group3.1-3.2-social-tom,2023.2.2,Win32,60.24096386,65c5074098b851296ff0b7ed,65c5418fed95dc5ee826a2e5,,,,,,,,,,,,,,,,,,,,,,,,,,,,,2519.2279,1,audio/Narrative8Situation7.wav,2522.2355,,2522.2356,2534.3348,"[[99.7,1583],[94.1,1666],[85.9,1750],[75.2,1833],[61,1916],[51.1,1999],[47.7,2083],[46.6,2166],[46.6,2249],[47.4,2333],[48.5,2416],[49.2,2500],[50.5,2582],[50.5,2665],[50.5,2749],[50.5,2833],[50.5,2916],[56.6,2999],[67.3,3083],[79.3,3166],[87.2,3249],[92.4,3332],[97.1,3416],[97.5,3499],[100,3582],[100,3665],[100,3749],[100,3832],[100,3916],[100,3999],[100,4082],[100,4166],[100,4249],[100,4332],[100,4416],[100,4499],[100,4583],[100,4666],[100,4749],[100,4832],[100,4916],[100,4999],[100,5082],[100,5165],[100,5249],[100,5332],[100,5415],[100,5499],[100,5583],[100,5666],[100,5749],[100,5832],[100,5916],[100,5999],[100,6082],[100,6166],[100,6249],[100,6332],[100,6416],[100,6499],[100,6582],[100,6666],[100,6749],[100,6832],[100,6916],[100,6999],[100,7082],[100,7166],[100,7249],[100,7332],[100,7416],[100,7499],[100,7582],[100,7665],[100,7749],[100,7832],[100,7916],[100,7999],[100,8082],[100,8165],[100,8249],[100,8332],[100,8415],[100,8499],[100,8582],[100,8666],[100,8749],[100,8832],[100,8916],[100,8999],[100,9082],[100,9165],[100,9249],[100,9332],[100,9415],[100,9499],[100,9582],[100,9666],[100,9749],[100,9832],[100,9916],[100,9999],[100,10082],[100,10166],[100,10249],[100,10332],[100,10415],[100,10498],[100,10582],[100,10666],[100,10749],[100,10832],[100,10916],[100,10999],[100,11083],[100,11165],[100,11249],[100,11332],[100,11415],[100,11498],[100,11582],[100,11665],[100,11749],[100,11832],[100,11916],[100,11999],[99.6,12082]]",1,0,2534.3349,2535.8845,99.58333333,1.0751,"[{""rating"":99.58333333333333,""responseTime"":1.0750999999941087}]",space,1.0217,,2535.8845,Partially,50,2535.886,,,[],,0,7,7,7,1,audio/Narrative7Situation7.wav,audio/Narrative8Situation7.wav,audio/Narrative5Situation7.wav,audio/Narrative6Situation7.wav,5,3,4,5,,,,,,,,,,,,,,,,,,,,,,,,,,,,,,,,,,,,,,,
,,,,,,5e3040a2d1a553000cc9147b,2024-02-08_16h03.54.794,group3.1-3.2-social-tom,2023.2.2,Win32,60.24096386,65c5074098b851296ff0b7ed,65c5418fed95dc5ee826a2e5,,,,,,,,,,,,,,,,,,,,,,,,,,,,,2535.8862,1,audio/Narrative8Situation8.wav,2538.9011,,2538.9011,2551.751,"[[94.3,3083],[85.4,3166],[76.9,3249],[66.4,3333],[55.8,3417],[49.5,3500],[42.8,3583],[27.8,3667],[14.1,3750],[5.3,3833],[0.4,3916],[5.2,5833],[19.7,5916],[33,6000],[42.6,6083],[49.4,6166],[53.6,6249],[54.4,6333],[54.4,6416],[54.1,6500],[53,6582],[53,6666],[53,6749],[53,6833],[53,6916],[53,6999],[53,7082],[53,7166],[53,7249],[53,7332],[53,7416],[53,7499],[53,7582],[53,7666],[53,7749],[53,7832],[53,7916],[53,7999],[53,8083],[53,8166],[53,8249],[53,8333],[53,8416],[53,8499],[53,8582],[53,8666],[53,8749],[53,8833],[53,8916],[53,8999],[64.9,9083],[78.9,9166],[84.2,9249],[88.4,9333],[95.8,9416],[98,9499],[99.2,9582],[100,9666],[100,9750],[98.9,9833],[98.9,9916],[98.9,9999],[98.9,10083],[99.8,10166],[99.8,10249],[99.8,10333],[99.8,10416],[99.8,10499],[99.8,10582],[99.8,10666],[99.8,10749],[99.8,10832],[99.8,10916],[99.8,10999],[99.8,11082],[99.8,11166],[99.8,11249],[99.8,11333],[99.8,11416],[99.8,11499],[99.8,11583],[99.8,11666],[99.8,11749],[99.8,11833],[99.8,11916],[99.8,11999],[99.8,12083],[99.8,12166],[99.8,12249],[99.8,12332],[99.8,12416],[99.8,12499],[99.8,12582],[99.8,12666],[99.8,12749],[99.8,12833]]",1,0,2551.7512,2552.6853,99.375,0.4467,"[{""rating"":99.375,""responseTime"":0.4466999999881409}]",space,0.4064,,2552.6853,Not at all,0,2552.6897,,,[],,0,8,8,8,1,audio/Narrative7Situation8.wav,audio/Narrative8Situation8.wav,audio/Narrative5Situation8.wav,audio/Narrative6Situation8.wav,2,3,3,5,,,,,,,,,,,,,,,,,,,,,,,,,,,,,,,,,,,,,,,
,,,,,,5e3040a2d1a553000cc9147b,2024-02-08_16h03.54.794,group3.1-3.2-social-tom,2023.2.2,Win32,60.24096386,65c5074098b851296ff0b7ed,65c5418fed95dc5ee826a2e5,,,,,,,,,,,,,,,,,,,,,,,,,,,,,2552.6902,1,audio/Narrative8Situation9.wav,2555.7008,,2555.7009,2567.0338,"[[48.6,1333],[48.6,1416],[49,1499],[49.8,1582],[50,1666],[50,1749],[50,1832],[50,1916],[50,1999],[50,2083],[50,2166],[50,2249],[50,2332],[50,2416],[47.2,2500],[47,2583],[41.8,2666],[11.5,2749],[0.7,2833],[0.6,2916],[0.6,2999],[0.9,3500],[11.3,3583],[31,3666],[41.4,3749],[51.7,3832],[53.5,3916],[53.5,3999],[53.5,4083],[51.6,4166],[50.7,4249],[50.5,4332],[50.3,4416],[50.1,4499],[50.1,4582],[50.1,4666],[50.1,4750],[66.9,4832],[92.6,4915],[98.4,4999],[100,5083],[100,5166],[100,5249],[100,5333],[100,5415],[100,5499],[100,5582],[100,5666],[100,5750],[100,5832],[100,5916],[100,5999],[100,6082],[100,6166],[100,6249],[100,6332],[100,6416],[100,6499],[100,6582],[100,6665],[100,6749],[100,6832],[100,6916],[100,6999],[100,7082],[100,7165],[100,7249],[100,7332],[100,7416],[100,7499],[100,7582],[100,7666],[100,7749],[100,7832],[100,7915],[100,7999],[100,8082],[100,8166],[100,8249],[100,8332],[100,8416],[100,8499],[100,8582],[100,8665],[100,8749],[100,8832],[100,8916],[100,8999],[100,9082],[100,9166],[100,9249],[100,9332],[100,9416],[100,9499],[100,9582],[100,9666],[100,9749],[100,9832],[100,9915],[100,9999],[100,10082],[100,10166],[100,10249],[100,10332],[100,10416],[100,10499],[100,10582],[100,10665],[100,10749],[100,10832],[100,10916],[100,10999],[100,11082],[100,11166],[100,11249],[100,11332]]",1,0,2567.034,2568.5502,99.375,0.9862,"[{""rating"":99.375,""responseTime"":0.9861999999880027}]",space,0.9713,,2568.5504,Not at all,0,2568.5531,,,[],,0,9,9,9,1,audio/Narrative7Situation9.wav,audio/Narrative8Situation9.wav,audio/Narrative5Situation9.wav,audio/Narrative6Situation9.wav,2,3,3,4,,,,,,,,,,,,,,,,,,,,,,,,,,,,,,,,,,,,,,,
,,,,,,5e3040a2d1a553000cc9147b,2024-02-08_16h03.54.794,group3.1-3.2-social-tom,2023.2.2,Win32,60.24096386,65c5074098b851296ff0b7ed,65c5418fed95dc5ee826a2e5,,,,,,,,,,,,,,,,,,,,,,,,,,,,,2568.5536,1,audio/Narrative7Situation1.wav,2570.5669,,2570.567,2626.4643,"[[86.4,916],[70,999],[61,1082],[55.5,1166],[51.6,1249],[48.2,1332],[47.5,1416],[47.5,1499],[47.5,1582],[47.5,1665],[48.8,1749],[48.9,1832],[48.9,1916],[50.1,1999],[50.1,2083],[50.1,2166],[50.1,2249],[50.1,2332],[50.1,2416],[50.1,2499],[50.1,2582],[50.1,2666],[50.1,2749],[50.1,2832],[50.1,2915],[50.1,2999],[50.1,3082],[50.1,3166],[50.1,3249],[50.1,3332],[50.1,3416],[50.1,3499],[50.1,3582],[50.1,3666],[50.1,3749],[50.1,3832],[50.1,3915],[50.1,3999],[50.1,4082],[50.1,4166],[50.1,4249],[50.1,4332],[50.1,4416],[50.1,4499],[50.1,4582],[50.1,4666],[50.1,4749],[50.1,4832],[50.1,4915],[46.7,4999],[36.6,5082],[30.9,5165],[28.5,5249],[27,5333],[25.9,5416],[25.2,5499],[22.5,5583],[14.9,5666],[6.3,5749],[0.2,5833],[0.2,7999],[0.2,8082],[0.2,8166],[0.2,8249],[0.5,8333],[7.3,8415],[22.9,8499],[31,8583],[39.5,8666],[45.5,8750],[47.5,8833],[48.9,8915],[50.1,8999],[50.1,9082],[50.1,9165],[50.1,9249],[50.1,9332],[50.1,9415],[50.1,9498],[50.1,9582],[49.5,9665],[43.5,9749],[36,9832],[32.4,9916],[31,9999],[27.1,10082],[21.9,10166],[19.2,10249],[17.3,10332],[12.7,10415],[6.7,10499],[3.3,10582],[0.8,10666],[0.8,11915],[13.5,11999],[25.1,12082],[36.5,12165],[43.5,12248],[49.3,12332],[50.4,12415],[50.4,12498],[52.5,12582],[59.7,12665],[65.3,12749],[68.3,12832],[69.3,12915],[70.5,12998],[73.4,13082],[75.6,13165],[79.2,13248],[81.9,13332],[83.4,13416],[83.8,13498],[83.8,13582],[83.8,13665],[83.8,13748],[83.8,13832],[83.8,13915],[83.8,13998],[83.9,14082],[87.4,14166],[90.8,14249],[94,14332],[95.6,14416],[97.8,14499],[98.6,14582],[100,14665],[100,14748],[100,14831],[100,14915],[100,14998],[100,15082],[100,15165],[100,15248],[100,15332],[100,15415],[99.5,15498],[99.5,15582],[99.5,15665],[99.5,15749],[99.5,15832],[99.7,15915],[100,15999],[100,16082],[100,16165],[100,16249],[100,16332],[100,16415],[100,16499],[100,16582],[100,16665],[100,16748],[100,16832],[100,16915],[100,16998],[100,17082],[100,17165],[100,17248],[100,17332],[100,17415],[100,17498],[100,17581],[100,17665],[100,17748],[100,17832],[100,17915],[100,17999],[100,18082],[100,18165],[100,18248],[100,18332],[100,18415],[100,18498],[100,18582],[100,18665],[100,18748],[100,18832],[100,18915],[100,18998],[100,19082],[100,19165],[100,19248],[100,19332],[100,19415],[100,19498],[100,19581],[100,19665],[100,19748],[100,19832],[100,19915],[100,19998],[100,20082],[100,20165],[100,20249],[58.1,20332],[55.1,20415],[55.1,20498],[52.9,20582],[51.7,20665],[50.2,20748],[48.8,20831],[48.8,20915],[49,20998],[49.6,21082],[49.6,21165],[49.7,21248],[49.9,21331],[49.9,21415],[49.9,21498],[49.9,21581],[49.9,21665],[49.9,21748],[49.9,21831],[49.9,21915],[49.9,21998],[49.9,22082],[49.9,22165],[49.9,22248],[49.8,22332],[49.7,22415],[45.6,22498],[37.7,22582],[30.5,22665],[25.5,22748],[22.2,22831],[19.5,22915],[16.6,22998],[13,23081],[7.9,23165],[5,23248],[2.8,23331],[1.6,23415],[0.4,23498],[0.1,33748],[3.1,33831],[13.1,33914],[32.1,33998],[38,34081],[43.1,34164],[49,34248],[49.6,34331],[49.6,34414],[50.5,34498],[50.5,34581],[50.5,34664],[50.5,34748],[50.5,34831],[50.5,34914],[50.5,34998],[50.5,35081],[50.5,35164],[50.5,35248],[50.5,35331],[50.5,35414],[50.5,35498],[50.5,35581],[50.5,35664],[50.5,35748],[50.5,35831],[50.5,35914],[53.3,35998],[58.4,36081],[62,36164],[64.5,36248],[67.6,36331],[69.6,36415],[71.4,36498],[74.4,36581],[79.2,36665],[86.9,36748],[91.1,36831],[93.4,36914],[95.2,36997],[97.4,37081],[99,37165],[99.6,37248],[100,37331],[100,37414],[100,37498],[100,37581],[100,37664],[100,37748],[100,37831],[100,37914],[100,37998],[100,38081],[100,38164],[100,38248],[100,38331],[100,38414],[100,38497],[100,38581],[100,38664],[100,38748],[100,38831],[100,38914],[100,38997],[100,39081],[100,39164],[100,39248],[100,39331],[100,39414],[100,39498],[100,39581],[100,39664],[100,39748],[100,39831],[100,39914],[100,39998],[100,40081],[100,40165],[100,40248],[100,40331],[100,40414],[100,40497],[99.9,40580],[99.7,40664],[99.3,40747],[99.1,40831],[99.1,40914],[99.1,40997],[99.1,41081],[99.1,41164],[99.1,41247],[99.1,41331],[99.3,41415],[100,41498],[100,41581],[100,41664],[100,41748],[100,41831],[100,41914],[100,41998],[100,42081],[100,42164],[100,42247],[100,42331],[100,42414],[100,42497],[100,42581],[100,42664],[100,42747],[100,42830],[100,42914],[100,42997],[100,43080],[100,43164],[100,43247],[100,43331],[100,43414],[100,43497],[100,43581],[100,43664],[100,43747],[100,43831],[100,43914],[100,43997],[100,44080],[100,44164],[100,44247],[100,44330],[100,44414],[100,44497],[100,44581],[100,44664],[100,44747],[100,44830],[100,44914],[100,44997],[100,45080],[100,45164],[100,45247],[100,45330],[100,45414],[100,45497],[100,45580],[100,45664],[100,45747],[100,45831],[100,45914],[100,45998],[100,46080],[100,46164],[100,46247],[100,46331],[100,46414],[100,46497],[100,46580],[100,46664],[100,46747],[100,46830],[100,46914],[100,46997],[100,47080],[100,47164],[100,47247],[100,47330],[100,47414],[100,47497],[100,47581],[100,47664],[100,47747],[100,47831],[100,47914],[100,47997],[100,48081],[100,48164],[99.5,48247],[99.5,48330],[99.5,48414],[99.5,48497],[99.5,48581],[99.5,48664],[99.5,48747],[99.5,48830],[100,48914],[100,48997],[100,49081],[100,49164],[100,49247],[100,49331],[100,49414],[100,49497],[100,49581],[100,49664],[100,49747],[100,49831],[100,49914],[100,49997],[100,50081],[100,50164],[100,50247],[100,50330],[100,50414],[100,50497],[100,50581],[100,50664],[100,50747],[100,50831],[100,50914],[100,50997],[100,51080],[100,51164],[100,51247],[100,51330],[100,51414],[100,51497],[100,51580],[100,51664],[100,51747],[100,51830],[100,51913],[100,51997],[100,52080],[100,52164],[100,52247],[100,52330],[100,52414],[100,52497],[100,52580],[100,52664],[100,52747],[100,52830],[100,52913],[100,52997],[100,53080],[100,53164],[100,53247],[100,53330],[100,53414],[100,53497],[100,53580],[100,53664],[100,53747],[100,53830],[100,53913],[100,53997],[100,54080],[100,54164],[100,54247],[100,54330],[100,54413],[100,54497],[100,54580],[100,54664],[100,54747],[100,54830],[100,54913],[100,54997],[100,55080],[100,55164],[97.1,55247],[93.2,55330],[91.5,55414],[90.9,55497],[90.8,55581],[90.8,55663],[90.8,55747],[90.8,55830]]",1,0,2626.4645,2627.5814,90.83333333,0.5479,"[{""rating"":90.83333333333333,""responseTime"":0.5479000000059386}]",space,0.5827,,2627.5814,Definitely yes,100,2627.5829,,,[],,0,10,10,10,1,audio/Narrative8Situation1.wav,audio/Narrative7Situation1.wav,audio/Narrative6Situation1.wav,audio/Narrative5Situation1.wav,5,2,2,5,,,,,,,,,,,,,,,,,,,,,,,,,,,,,,,,,,,,,,,
,,,,,,5e3040a2d1a553000cc9147b,2024-02-08_16h03.54.794,group3.1-3.2-social-tom,2023.2.2,Win32,60.24096386,65c5074098b851296ff0b7ed,65c5418fed95dc5ee826a2e5,,,,,,,,,,,,,,,,,,,,,,,,,,,,,2627.5829,1,audio/Narrative7Situation2.wav,2630.5975,,2630.5975,2638.0809,"[[999,7],[999,83],[999,167],[999,250],[999,333],[999,416],[999,500],[50,583],[50,667],[50,750],[50,834],[50,916],[50,999],[50,1083],[50,1166],[50,1249],[50,1333],[50,1416],[50,1500],[52.4,1583],[60.3,1667],[75.4,1749],[91.6,1833],[100,1916],[100,2000],[100,2083],[100,2167],[100,2250],[100,2333],[100,2416],[100,2500],[100,2583],[100,2666],[100,2750],[100,2833],[100,2916],[100,2999],[100,3083],[100,3166],[100,3250],[100,3333],[100,3416],[100,3500],[100,3583],[100,3666],[100,3750],[100,3833],[100,3916],[100,3999],[100,4083],[100,4166],[100,4250],[100,4333],[100,4416],[100,4499],[100,4583],[100,4666],[100,4749],[100,4833],[100,4916],[100,4999],[100,5083],[100,5166],[100,5250],[100,5333],[100,5416],[100,5499],[100,5583],[100,5666],[100,5749],[100,5833],[100,5916],[100,5999],[100,6082],[100,6166],[100,6249],[100,6333],[100,6416],[100,6499],[100,6583],[100,6666],[100,6749],[100,6833],[100,6916],[100,6999],[100,7083],[100,7166],[100,7249],[100,7333],[100,7416]]",1,0,2638.0811,2639.1485,99.16666667,0.6238,"[{""rating"":99.16666666666667,""responseTime"":0.6237999999821113}]",space,0.5228,,2639.1486,Partially,50,2639.1529,,,[],,0,11,11,11,1,audio/Narrative8Situation2.wav,audio/Narrative7Situation2.wav,audio/Narrative6Situation2.wav,audio/Narrative5Situation2.wav,3,3,3,3,,,,,,,,,,,,,,,,,,,,,,,,,,,,,,,,,,,,,,,
,,,,,,5e3040a2d1a553000cc9147b,2024-02-08_16h03.54.794,group3.1-3.2-social-tom,2023.2.2,Win32,60.24096386,65c5074098b851296ff0b7ed,65c5418fed95dc5ee826a2e5,,,,,,,,,,,,,,,,,,,,,,,,,,,,,2639.1532,1,audio/Narrative7Situation3.wav,2647.1639,,2647.164,2656.4302,"[[999,9],[999,82],[999,166],[999,249],[999,332],[999,416],[999,499],[999,582],[54.2,667],[52.9,750],[51.7,833],[50.1,916],[50.1,999],[49.9,1083],[49.6,1166],[49.6,1249],[49.6,1333],[49.6,1416],[49.6,1499],[49.6,1583],[49.6,1666],[49.6,1749],[49.6,1833],[49.6,1916],[49.6,1999],[49.6,2083],[50,2166],[50.3,2249],[50.3,2332],[50.3,2415],[50.3,2499],[50.3,2582],[50.3,2666],[50.3,2749],[50.3,2832],[50.3,2916],[50.3,2999],[50.3,3083],[48,3166],[43.4,3249],[36.4,3333],[29.9,3416],[24,3499],[14.3,3583],[7.1,3666],[5.1,3749],[4,3832],[3.1,3916],[1.9,3999],[0.3,4082]]",1,0,2656.4304,2658.563,0,1.7533,"[{""rating"":0.3124999999999989,""responseTime"":1.5552999999822532},{""rating"":0,""responseTime"":1.7532999999821186}]",space,1.589,,2658.563,Partially,50,2658.5638,,,[],,0,12,12,12,1,audio/Narrative8Situation3.wav,audio/Narrative7Situation3.wav,audio/Narrative6Situation3.wav,audio/Narrative5Situation3.wav,4,8,5,3,,,,,,,,,,,,,,,,,,,,,,,,,,,,,,,,,,,,,,,
,,,,,,5e3040a2d1a553000cc9147b,2024-02-08_16h03.54.794,group3.1-3.2-social-tom,2023.2.2,Win32,60.24096386,65c5074098b851296ff0b7ed,65c5418fed95dc5ee826a2e5,,,,,,,,,,,,,,,,,,,,,,,,,,,,,2658.5638,1,audio/Narrative7Situation4.wav,2661.5795,,2661.5795,2673.2963,"[[49.3,671],[49.5,751],[49.7,837],[50.2,917],[50.2,1000],[50.2,1083],[50.2,1166],[50.2,1250],[50.2,1333],[50.2,1416],[50.2,1500],[50.2,1583],[50.2,1666],[50.2,1750],[47,1833],[43,1917],[37.7,2000],[33,2083],[27.2,2166],[22.9,2250],[17.5,2333],[15.6,2416],[15.2,2500],[10.4,2583],[5.5,2667],[3.6,2750],[2.6,2833],[1.7,2916],[0.2,2999],[0.2,9500],[1.6,9583],[1.6,9666],[1.4,9749],[0.4,9833]]",1,0,2673.2966,2674.9629,0,1.3529,"[{""rating"":0,""responseTime"":0.7935000000002219},{""rating"":0,""responseTime"":1.3529000000062297}]",space,1.1177,,2674.9631,Partially,50,2674.9653,,,[],,0,13,13,13,1,audio/Narrative8Situation4.wav,audio/Narrative7Situation4.wav,audio/Narrative6Situation4.wav,audio/Narrative5Situation4.wav,3,3,2,1,,,,,,,,,,,,,,,,,,,,,,,,,,,,,,,,,,,,,,,
,,,,,,5e3040a2d1a553000cc9147b,2024-02-08_16h03.54.794,group3.1-3.2-social-tom,2023.2.2,Win32,60.24096386,65c5074098b851296ff0b7ed,65c5418fed95dc5ee826a2e5,,,,,,,,,,,,,,,,,,,,,,,,,,,,,2674.9658,1,audio/Narrative7Situation5.wav,2679.9792,,2679.9793,2688.4786,"[[47.6,750],[48.3,833],[49.3,917],[49.9,999],[50,1082],[51,1166],[51,1249],[51.7,1332],[53.2,1416],[52.9,1499],[50.4,1583],[49.5,1666],[49.5,1749],[49.5,1832],[49.5,1916],[49.5,1999],[49.5,2083],[49.4,2166],[46.1,2249],[42.4,2332],[40.9,2416],[40.8,2499],[40.8,2582],[40.8,2666],[34.4,2750],[21.5,2833],[17.4,2916],[16.9,2999],[16,3083],[16,3166],[16,3249],[16,3332],[16.4,3416],[16.4,3499],[16.4,3582],[16.4,3666],[16.4,3749],[16.4,3833],[13.6,3916],[8.3,4000],[6.7,4083],[1.8,4166]]",1,0,2688.4788,2690.2787,0,1.451,"[{""rating"":0,""responseTime"":1.4510000000000218}]",space,1.2768,,2690.2787,Definitely yes,100,2690.28,,,[],,0,14,14,14,1,audio/Narrative8Situation5.wav,audio/Narrative7Situation5.wav,audio/Narrative6Situation5.wav,audio/Narrative5Situation5.wav,2,5,2,5,,,,,,,,,,,,,,,,,,,,,,,,,,,,,,,,,,,,,,,
,,,,,,5e3040a2d1a553000cc9147b,2024-02-08_16h03.54.794,group3.1-3.2-social-tom,2023.2.2,Win32,60.24096386,65c5074098b851296ff0b7ed,65c5418fed95dc5ee826a2e5,,,,,,,,,,,,,,,,,,,,,,,,,,,,,2690.2801,1,audio/Narrative7Situation6.wav,2693.2953,,2693.2953,2703.278,"[[48.5,83],[48.5,166],[48.5,249],[48.5,333],[48.5,416],[48.5,499],[48.5,582],[48.5,667],[48.5,750],[48.9,834],[49.2,916],[49.2,999],[49.2,1083],[49.6,1166],[50.3,1250],[50.8,1332],[50.8,1416],[50.8,1499],[50.8,1582],[50.8,1666],[50.8,1749],[50.4,1832],[50,1916],[49.7,1999],[49.7,2082],[49.7,2166],[49.7,2249],[49.7,2332],[49.8,2416],[50,2499],[50,2583],[50,2666],[50,2749],[50,2833],[49.4,2916],[49.4,2999],[49.4,3082],[49.5,3166],[50,3249],[50.1,3333],[50.1,3416],[50.1,3499],[50.1,3582],[50.1,3666],[50.1,3749],[50.1,3833],[50.1,3916],[50.1,3999],[50.1,4082],[50.1,4166],[50.1,4249],[50.1,4332],[52.4,4416],[61.4,4500],[70.5,4582],[83,4666],[89.4,4749],[92,4832],[98.4,4916],[99.4,4999],[99.8,5082],[100,5165],[100,5249],[100,5333],[100,5416],[100,5500],[100,5583],[100,5666],[100,5749],[100,5833],[100,5916],[100,5999],[100,6083],[100,6166],[99.8,6249],[99.8,6333],[99.8,6415],[99.8,6499],[99.8,6582],[100,6666],[100,6749],[100,6832],[100,6916],[100,6999],[100,7082],[100,7166],[100,7249],[100,7333],[100,7415],[100,7499],[100,7582],[100,7666],[100,7749],[100,7833],[100,7915],[100,7999],[100,8082],[100,8165],[100,8249],[100,8332],[100,8415],[100,8499],[100,8582],[100,8665],[100,8749],[100,8832],[100,8916],[100,8999],[100,9082],[100,9166],[100,9249],[100,9332],[100,9416],[100,9499],[99.8,9582],[99.7,9666],[99.7,9749],[99.7,9832],[99.7,9915]]",1,0,2703.2782,2704.5459,100,1.036,"[{""rating"":100,""responseTime"":1.0360000000000582}]",space,0.7432,,2704.546,Not at all,0,2704.5503,,,[],,0,15,15,15,1,audio/Narrative8Situation6.wav,audio/Narrative7Situation6.wav,audio/Narrative6Situation6.wav,audio/Narrative5Situation6.wav,2,3,2,3,,,,,,,,,,,,,,,,,,,,,,,,,,,,,,,,,,,,,,,
,,,,,,5e3040a2d1a553000cc9147b,2024-02-08_16h03.54.794,group3.1-3.2-social-tom,2023.2.2,Win32,60.24096386,65c5074098b851296ff0b7ed,65c5418fed95dc5ee826a2e5,,,,,,,,,,,,,,,,,,,,,,,,,,,,,2704.5507,1,audio/Narrative7Situation7.wav,2709.561,,2709.561,2726.7275,"[[49.5,583],[49.5,666],[49.5,750],[49.5,833],[49.5,916],[49.5,999],[49.5,1083],[49.5,1166],[49.5,1250],[51.3,1333],[51.8,1416],[52,1500],[52,1583],[52,1666],[56.5,1750],[66.5,1833],[75,1916],[79.4,2000],[83,2083],[85.4,2166],[89.7,2249],[94.9,2333],[97.3,2416],[98.8,2500],[99.8,2583],[100,2666],[100,2750],[100,2833],[100,2916],[100,3000],[100,3083],[100,3166],[100,3249],[100,3333],[100,3416],[100,3500],[100,3583],[100,3666],[100,3749],[100,3833],[100,3916],[100,3999],[100,4083],[100,4166],[100,4249],[100,4333],[100,4416],[100,4499],[100,4583],[100,4666],[100,4750],[100,4833],[100,4916],[100,4999],[100,5083],[100,5166],[100,5250],[100,5333],[100,5416],[100,5500],[100,5583],[100,5666],[100,5749],[100,5833],[100,5916],[100,5999],[100,6083],[100,6166],[100,6250],[100,6333],[100,6416],[100,6500],[100,6583],[100,6666],[100,6749],[100,6833],[100,6916],[100,6999],[100,7083],[100,7166],[100,7250],[100,7333],[100,7416],[100,7499],[100,7583],[100,7666],[100,7750],[100,7833],[100,7916],[100,7999],[100,8083],[100,8166],[100,8250],[100,8333],[100,8416],[100,8499],[100,8583],[100,8666],[100,8750],[96.3,8833],[85.1,8916],[77.8,8999],[72.6,9083],[66,9166],[59.4,9249],[52.4,9333],[49.4,9416],[49.3,9499],[49.3,9582],[49.3,9666],[49.3,9749],[49.3,9832],[49.3,9916],[49.3,9999],[49.3,10082],[49.3,10166],[49.3,10250],[49.3,10332],[49.3,10416],[49.3,10499],[49.3,10582],[49.3,10666],[49.3,10749],[49.3,10832],[49.3,10916],[49.3,10999],[50.7,11083],[63.1,11166],[79.5,11249],[91.5,11332],[96.3,11416],[100,11500],[100,11583],[100,11666],[100,11749],[100,11832],[100,11916],[99.9,11999],[99.9,12082],[99.9,12166],[99.9,12249],[99.9,12333],[99.9,12416],[100,12500],[100,12583],[100,12666],[100,12749],[100,12833],[100,12916],[100,12999],[100,13083],[100,13166],[100,13249],[100,13332],[100,13416],[100,13500],[100,13583],[100,13666],[100,13749],[100,13832],[100,13916],[100,13999],[100,14082],[100,14166],[100,14249],[100,14333],[100,14416],[100,14499],[100,14583],[100,14666],[100,14749],[100,14833],[100,14916],[100,14999],[100,15082],[100,15166],[100,15249],[100,15332],[100,15416],[100,15499],[100,15583],[100,15666],[100,15749],[100,15833],[100,15916],[100,15999],[100,16082],[100,16166],[100,16249],[100,16332],[100,16416],[100,16499],[100,16582],[100,16666],[100,16749],[100,16832],[100,16916],[100,16999],[100,17082],[100,17166]]",1,0,2726.7278,2728.9103,100,1.8728,"[{""rating"":100,""responseTime"":1.872800000011921}]",space,1.6579,,2728.9103,Definitely yes,100,2728.9117,,,[],,0,16,16,16,1,audio/Narrative8Situation7.wav,audio/Narrative7Situation7.wav,audio/Narrative6Situation7.wav,audio/Narrative5Situation7.wav,3,5,5,4,,,,,,,,,,,,,,,,,,,,,,,,,,,,,,,,,,,,,,,
,,,,,,5e3040a2d1a553000cc9147b,2024-02-08_16h03.54.794,group3.1-3.2-social-tom,2023.2.2,Win32,60.24096386,65c5074098b851296ff0b7ed,65c5418fed95dc5ee826a2e5,,,,,,,,,,,,,,,,,,,,,,,,,,,,,2728.9119,1,audio/Narrative7Situation8.wav,2730.9271,,2730.9273,2740.9598,"[[53.6,416],[52.3,499],[50.6,582],[50.3,666],[50.3,749],[49.4,834],[49.4,916],[49.4,999],[50.3,1083],[50.4,1166],[50.4,1249],[50.4,1333],[50.4,1416],[50.4,1499],[50.9,1582],[52.1,1666],[57,1749],[58.6,1832],[58.6,1916],[58.6,1999],[58.6,2082],[58.6,2166],[56.7,2250],[53.8,2332],[51.6,2416],[50.4,2499],[50.1,2582],[50.1,2665],[50.1,2749],[50.1,2832],[50.1,2916],[48,3000],[42.7,3082],[37,3166],[33,3249],[27.3,3332],[22.6,3416],[18.4,3499],[17.1,3582],[17.1,3665],[17.1,3749],[17.1,3832],[17.1,3916],[17.1,3999],[17.1,4082],[16.9,4166],[11,4249],[5.3,4332],[2.7,4416],[0.1,4499],[0.2,4916],[15,4999],[45.4,5082],[63.1,5166],[63.3,5249],[64.9,5333],[81.6,5416],[97.6,5499],[100,5582],[100,5666],[100,5749],[100,5832],[100,5916],[100,5999],[100,6082],[100,6165],[99.3,6249],[98.1,6332],[97.4,6415],[97.4,6499],[97.4,6582],[98.1,6665],[99.5,6749],[100,6832],[100,6915],[100,6999],[100,7082],[100,7166],[100,7249],[100,7332],[100,7415],[100,7499],[100,7582],[100,7666],[100,7749],[100,7832],[100,7916],[100,7999],[100,8082],[100,8166],[100,8249],[100,8332],[100,8415],[100,8499],[100,8582],[100,8665],[100,8749],[100,8832],[100,8916],[100,8999],[100,9082],[100,9166],[100,9249],[100,9332],[100,9415],[100,9499],[100,9582],[100,9666],[100,9749],[100,9832],[100,9915],[99.9,9999]]",1,0,2740.9599,2742.3101,100,0.9205,"[{""rating"":100,""responseTime"":0.9205000000001746}]",space,0.8207,,2742.3102,Definitely yes,100,2742.3109,,,[],,0,17,17,17,1,audio/Narrative8Situation8.wav,audio/Narrative7Situation8.wav,audio/Narrative6Situation8.wav,audio/Narrative5Situation8.wav,3,2,5,3,,,,,,,,,,,,,,,,,,,,,,,,,,,,,,,,,,,,,,,
,,,,,,5e3040a2d1a553000cc9147b,2024-02-08_16h03.54.794,group3.1-3.2-social-tom,2023.2.2,Win32,60.24096386,65c5074098b851296ff0b7ed,65c5418fed95dc5ee826a2e5,,,,,,,,,,,,,,,,,,,,,,,,,,,,,2742.3111,1,audio/Narrative7Situation9.wav,2744.3267,,2744.3267,2752.9599,"[[52.2,583],[52.2,668],[51,1082],[50.7,1166],[50.6,1249],[50.7,1332],[58.3,1416],[62.6,1499],[67.9,1583],[77.3,1666],[88,1749],[91.7,1832],[94.3,1916],[100,1999],[100,2083],[100,2166],[100,2249],[100,2333],[100,2416],[100,2500],[100,2583],[99.9,2666],[98.1,2749],[96.5,2832],[96.4,2916],[100,2999],[100,3082],[100,3166],[100,3249],[100,3333],[100,3416],[100,3499],[100,3582],[100,3666],[100,3749],[100,3833],[100,3916],[100,3999],[100,4082],[100,4166],[99.8,4249],[99.8,4332],[99.8,4416],[99.8,4499],[100,4583],[100,4666],[100,4749],[100,4832],[100,4916],[99.3,5000],[99.2,5082],[99.5,5166],[100,5249],[100,5332],[100,5416],[100,5499],[100,5582],[100,5666],[100,5749],[100,5832],[100,5916],[100,5999],[100,6082],[100,6166],[100,6249],[100,6332],[100,6416],[100,6499],[100,6582],[100,6666],[100,6749],[100,6832],[100,6916],[100,6999],[100,7082],[100,7165],[100,7249],[100,7332],[100,7415],[100,7499],[100,7582],[100,7666],[100,7749],[100,7832],[100,7915],[100,7999],[100,8083],[100,8166],[100,8249],[100,8332],[100,8416],[100,8499],[100,8582]]",1,0,2752.96,2754.7259,100,1.3742,"[{""rating"":98.75,""responseTime"":0.8320999999941705},{""rating"":100,""responseTime"":1.3741999999883774}]",space,1.2208,,2754.726,Definitely yes,100,2756.8759,100,1.7602,"[{""rating"":100,""responseTime"":1.76019999998789}]",space,0,18,18,18,1,audio/Narrative8Situation9.wav,audio/Narrative7Situation9.wav,audio/Narrative6Situation9.wav,audio/Narrative5Situation9.wav,3,2,4,3,,,1.6161,,,,,,,,,,,,,,,,,,,,,,,,,,,,,,,,,,,,
,,,,,,5e3040a2d1a553000cc9147b,2024-02-08_16h03.54.794,group3.1-3.2-social-tom,2023.2.2,Win32,60.24096386,65c5074098b851296ff0b7ed,65c5418fed95dc5ee826a2e5,,,,,,,,,,,,,,,,,,,,,,,,,,,2816.8836,2819.4566,2819.4636,2,audio/Narrative13Situation2.wav,2819.4636,,2819.4636,2849.2056,"[[999,0],[999,76],[999,160],[999,243],[999,326],[999,409],[999,493],[999,576],[999,661],[999,747],[999,827],[999,910],[999,992],[999,1076],[999,1159],[999,1242],[999,1326],[999,1409],[999,1492],[999,1576],[999,1659],[999,1742],[999,1826],[999,1909],[999,1993],[999,2076],[999,2159],[999,2243],[999,2326],[999,2410],[999,2493],[999,2576],[999,2659],[999,2743],[999,2826],[999,2909],[999,2992],[999,3076],[999,3159],[999,3242],[999,3326],[999,3409],[999,3493],[999,3576],[999,3659],[999,3743],[999,3826],[999,3909],[999,3992],[999,4076],[999,4159],[999,4243],[999,4326],[999,4409],[999,4492],[999,4576],[999,4659],[999,4742],[999,4826],[999,4909],[999,4992],[999,5076],[999,5159],[999,5242],[999,5327],[999,5410],[999,5493],[999,5576],[999,5659],[999,5743],[999,5826],[999,5909],[999,5992],[999,6075],[999,6159],[999,6242],[999,6326],[999,6409],[999,6492],[999,6576],[999,6659],[999,6743],[999,6826],[999,6909],[999,6992],[999,7076],[999,7159],[999,7243],[999,7326],[999,7409],[999,7492],[999,7576],[999,7659],[999,7743],[999,7826],[999,7909],[999,7992],[999,8076],[999,8159],[999,8242],[999,8326],[999,8409],[999,8492],[999,8576],[999,8659],[999,8743],[999,8826],[999,8909],[999,8992],[999,9076],[999,9159],[999,9242],[999,9326],[999,9409],[999,9492],[999,9576],[999,9659],[999,9742],[999,9825],[999,9909],[999,9992],[999,10076],[999,10159],[999,10242],[999,10326],[999,10409],[999,10492],[999,10575],[999,10659],[999,10742],[999,10826],[999,10909],[999,10992],[999,11075],[999,11159],[999,11242],[999,11326],[999,11409],[999,11492],[999,11575],[999,11659],[999,11742],[999,11826],[999,11909],[999,11992],[999,12076],[999,12159],[999,12242],[999,12325],[999,12409],[999,12492],[999,12576],[999,12659],[999,12742],[999,12825],[999,12909],[999,12992],[999,13076],[999,13159],[999,13242],[999,13326],[999,13409],[999,13492],[999,13576],[999,13659],[999,13742],[999,13825],[999,13909],[999,13992],[999,14075],[999,14159],[999,14242],[999,14325],[999,14409],[999,14492],[999,14575],[999,14659],[999,14742],[999,14825],[999,14909],[999,14992],[999,15075],[999,15159],[999,15242],[999,15326],[999,15409],[999,15492],[999,15576],[999,15659],[999,15742],[999,15826],[999,15909],[999,15992],[999,16075],[999,16159],[999,16242],[999,16326],[999,16409],[999,16492],[999,16575],[999,16659],[999,16742],[999,16825],[999,16909],[999,16992],[999,17076],[999,17159],[999,17242],[999,17325],[999,17409],[999,17492],[999,17575],[999,17659],[999,17742],[999,17825],[999,17909],[999,17992],[999,18075],[999,18159],[999,18242],[999,18325],[999,18409],[999,18492],[999,18575],[999,18658],[999,18742],[999,18825],[999,18909],[999,18992],[999,19075],[999,19159],[999,19242],[999,19326],[999,19408],[999,19492],[999,19575],[999,19659],[999,19742],[999,19825],[999,19908],[999,19992],[999,20075],[999,20159],[999,20242],[999,20325],[999,20409],[999,20492],[999,20575],[999,20659],[999,20742],[999,20825],[999,20909],[999,20992],[999,21075],[999,21159],[999,21242],[999,21325],[999,21409],[999,21492],[999,21575],[999,21659],[999,21742],[999,21826],[999,21908],[999,21992],[999,22075],[999,22158],[999,22242],[999,22325],[999,22409],[999,22492],[999,22575],[999,22658],[999,22742],[999,22825],[999,22909],[999,22992],[999,23075],[999,23158],[999,23242],[999,23325],[999,23408],[999,23492],[999,23575],[999,23659],[999,23742],[999,23825],[999,23909],[999,23992],[999,24075],[999,24159],[999,24242],[999,24325],[999,24409],[999,24492],[999,24575],[999,24658],[999,24742],[999,24825],[999,24909],[999,24992],[999,25075],[999,25158],[999,25242],[999,25325],[999,25408],[999,25492],[999,25575],[999,25659],[999,25742],[999,25825],[999,25908],[999,25992],[999,26075],[999,26158],[999,26242],[999,26325],[999,26408],[999,26492],[999,26575],[999,26659],[999,26742],[999,26825],[999,26908],[999,26991],[999,27075],[999,27158],[999,27242],[999,27325],[999,27408],[999,27491],[999,27575],[999,27658],[999,27742],[999,27825],[999,27909],[999,27991],[999,28075],[999,28158],[999,28242],[999,28325],[999,28408],[999,28491],[999,28575],[999,28658],[999,28742],[999,28825],[999,28908],[999,28991],[999,29075],[999,29158],[999,29242],[999,29325],[999,29408],[999,29492],[999,29575],[999,29658],[999,29741]]",1,0,2849.2056,2849.2115,,,[],,,,2849.2115,Partially,50,2849.2124,,,[],,0,0,0,0,1,audio/Narrative13Situation2.wav,audio/Narrative13Situation2.wav,audio/Narrative13Situation2.wav,audio/Narrative13Situation2.wav,2,2,2,2,,,,,2756.8762,2816.8753,,,,,,,,,,,,,,,,,,,,,,,,,,,,,,,,,
,,,,,,5e3040a2d1a553000cc9147b,2024-02-08_16h03.54.794,group3.1-3.2-social-tom,2023.2.2,Win32,60.24096386,65c5074098b851296ff0b7ed,65c5418fed95dc5ee826a2e5,,,,,,,,,,,,,,,,,,,,,,,,,,,,,2849.2125,2,audio/Narrative6Situation1.wav,2851.2222,,2851.2222,2877.8049,"[[999,0],[999,83],[999,166],[999,249],[999,333],[999,416],[999,499],[999,583],[999,670],[999,750],[999,837],[999,916],[999,999],[999,1083],[999,1166],[999,1249],[999,1333],[999,1416],[999,1500],[999,1583],[999,1666],[999,1749],[999,1833],[999,1916],[999,1999],[999,2083],[999,2166],[999,2249],[999,2333],[999,2416],[999,2499],[999,2583],[999,2666],[999,2749],[999,2833],[999,2916],[999,2999],[999,3083],[999,3166],[999,3249],[999,3333],[999,3416],[999,3499],[999,3583],[999,3666],[999,3749],[999,3833],[999,3916],[999,3999],[999,4083],[999,4166],[999,4249],[999,4333],[999,4416],[999,4500],[999,4583],[999,4666],[999,4749],[999,4833],[999,4916],[999,4999],[999,5083],[999,5166],[999,5249],[999,5333],[999,5416],[999,5499],[999,5583],[999,5666],[999,5749],[999,5833],[999,5916],[999,5999],[999,6083],[999,6166],[999,6249],[999,6332],[999,6416],[999,6499],[999,6583],[999,6666],[999,6749],[999,6832],[999,6916],[999,6999],[999,7082],[999,7166],[999,7249],[999,7332],[999,7416],[999,7499],[999,7582],[999,7666],[999,7749],[999,7832],[999,7916],[999,7999],[999,8083],[999,8166],[999,8249],[999,8333],[999,8416],[999,8499],[999,8582],[999,8666],[999,8749],[999,8833],[999,8916],[999,8999],[999,9082],[999,9166],[999,9249],[999,9332],[999,9416],[999,9499],[999,9583],[999,9666],[999,9749],[999,9833],[999,9916],[999,9999],[999,10082],[999,10166],[999,10249],[999,10332],[999,10416],[999,10499],[999,10582],[999,10666],[999,10749],[999,10832],[999,10916],[999,10999],[999,11082],[999,11166],[999,11249],[999,11333],[999,11416],[999,11499],[999,11583],[999,11666],[999,11749],[999,11832],[999,11916],[999,11999],[999,12082],[999,12166],[999,12249],[999,12332],[999,12416],[999,12499],[999,12582],[999,12666],[999,12749],[999,12833],[999,12915],[999,12999],[999,13082],[999,13165],[999,13249],[999,13332],[999,13416],[999,13499],[999,13582],[999,13666],[999,13749],[999,13833],[999,13916],[999,13999],[999,14082],[999,14165],[999,14249],[999,14332],[999,14415],[999,14499],[999,14582],[999,14666],[999,14749],[999,14832],[999,14916],[999,14999],[999,15082],[999,15166],[999,15249],[999,15332],[999,15415],[999,15499],[999,15582],[999,15665],[999,15749],[999,15832],[999,15915],[999,15999],[999,16082],[999,16165],[999,16249],[999,16332],[999,16415],[999,16499],[999,16582],[999,16666],[999,16749],[999,16832],[999,16915],[999,16999],[999,17082],[999,17166],[999,17249],[999,17332],[999,17416],[999,17499],[999,17582],[999,17665],[999,17749],[999,17832],[999,17915],[999,17999],[999,18082],[999,18165],[999,18249],[999,18332],[999,18416],[999,18499],[999,18582],[999,18666],[999,18749],[999,18832],[999,18915],[999,18999],[999,19082],[999,19165],[999,19249],[999,19332],[999,19415],[999,19499],[999,19582],[999,19665],[999,19749],[999,19832],[999,19916],[999,19999],[999,20082],[999,20165],[999,20248],[999,20332],[999,20415],[999,20498],[999,20582],[999,20665],[999,20749],[999,20832],[999,20916],[999,20999],[999,21082],[999,21166],[999,21249],[999,21332],[999,21416],[999,21499],[999,21582],[999,21665],[999,21749],[999,21832],[999,21915],[999,21998],[999,22082],[999,22165],[999,22248],[999,22332],[999,22416],[999,22498],[999,22582],[999,22665],[999,22749],[999,22832],[999,22916],[999,22999],[999,23082],[999,23165],[999,23249],[999,23332],[999,23415],[999,23499],[999,23582],[999,23665],[999,23749],[999,23832],[999,23916],[999,23998],[999,24082],[999,24165],[999,24249],[999,24332],[999,24415],[999,24498],[999,24582],[999,24665],[999,24749],[999,24832],[999,24915],[999,24998],[999,25082],[999,25165],[999,25248],[999,25332],[999,25415],[999,25498],[999,25582],[999,25665],[999,25748],[999,25832],[999,25915],[999,25999],[999,26082],[999,26165],[999,26248],[999,26332],[999,26415],[999,26498],[999,26582]]",1,0,2877.8053,3426.6161,49.58333333,545.8758,"[{""rating"":49.583333333333336,""responseTime"":545.8757999999821}]",space,548.2885,,3426.6161,Not at all,0,3426.6175,,,[],,0,1,1,1,1,audio/Narrative7Situation1.wav,audio/Narrative8Situation1.wav,audio/Narrative5Situation1.wav,audio/Narrative6Situation1.wav,2,5,5,2,,,,,,,,,,,,,,,,,,,,,,,,,,,,,,,,,,,,,,,
,,,,,,5e3040a2d1a553000cc9147b,2024-02-08_16h03.54.794,group3.1-3.2-social-tom,2023.2.2,Win32,60.24096386,65c5074098b851296ff0b7ed,65c5418fed95dc5ee826a2e5,,,,,,,,,,,,,,,,,,,,,,,,,,,,,3426.6177,2,audio/Narrative6Situation2.wav,3429.6327,,3429.6327,3458.1321,"[[50.5,1166],[50.7,1250],[50.5,1333],[50.4,1416],[50.4,1499],[50.4,1583],[50.4,1666],[50.4,1749],[50.4,1833],[50.4,1916],[50.4,1999],[50.4,2083],[50.4,2166],[50.4,2250],[50.4,2333],[48,2417],[29.5,2499],[17.5,2583],[11.8,2666],[5.7,2749],[1.1,2833],[18.5,9416],[37.1,9499],[46.1,9583],[47.1,9667],[52.3,9750],[52.6,9832],[52,9916],[50.8,9999],[50.5,10082],[50,10166],[50,10249],[50,10332],[50,10416],[50,10499],[50,10583],[50,10666],[50,10749],[50,10832],[50,10916],[50,10999],[50,11083],[50,11166],[50,11249],[50,11332],[50,11416],[50,11499],[50,11583],[50,11666],[50,11749],[50,11832],[50,11916],[50,11999],[50,12083],[50,12166],[50,12249],[50,12332],[50,12416],[50,12499],[50,12583],[50,12666],[50,12749],[50,12833],[50,12916],[50,12999],[50,13083],[50,13166],[50,13249],[50,13332],[50,13416],[50,13499],[50,13582],[50,13665],[50,13749],[50,13832],[50,13915],[50,13999],[50,14082],[50,14166],[50,14249],[50,14332],[50,14416],[50,14499],[50,14582],[50,14666],[50,14749],[50,14832],[50,14916],[50,14999],[50,15082],[50,15166],[50,15249],[50,15333],[50,15416],[50,15499],[50,15582],[50,15666],[50,15749],[50,15832],[50,15916],[50,15999],[50,16082],[50,16166],[50,16249],[50,16332],[50,16416],[50,16499],[50,16582],[50,16666],[50,16749],[50,16832],[50,16915],[50,16999],[50,17082],[50,17166],[50,17249],[50,17332],[50,17415],[50,17499],[50,17582],[50,17665],[50,17749],[50,17832],[50,17915],[50,17999],[50,18082],[50,18166],[50,18249],[50,18332],[50,18416],[50,18499],[50,18582],[50,18666],[50,18749],[50,18832],[50,18916],[50,18999],[50,19082],[50,19166],[50,19249],[50,19332],[50,19415],[50,19499],[50,19582],[50,19665],[50,19749],[50,19832],[50,19915],[50,19999],[50,20082],[50,20166],[50,20249],[50,20332],[50,20415],[50,20499],[50,20582],[50,20666],[50,20749],[50,20832],[50,20916],[50,20999],[50,21082],[50,21166],[50,21249],[50,21332],[50,21416],[50,21499],[50,21582],[50,21666],[50,21749],[50,21832],[50,21915],[50,21999],[50,22082],[50,22166],[50,22249],[50,22332],[50,22415],[50,22499],[50,22582],[50,22665],[50,22749],[50,22832],[50,22916],[50,22999],[50,23082],[50,23165],[50,23249],[50,23332],[50,23416],[50,23499],[50,23582],[50,23665],[50,23749],[50,23832],[50,23915],[50,23999],[50,24082],[50,24165],[50,24249],[50,24332],[50,24415],[50,24499],[50,24582],[50,24665],[51.6,24749],[57.5,24833],[60.5,24915],[62.4,24999],[76.1,25082],[78.1,25165],[77.6,25249],[76.3,25332],[76.1,25415],[76.1,25498],[77,25582],[77.3,25665],[77.3,25749],[78,25832],[82.2,25915],[84,25998],[84,26082],[84,26165],[84,26249],[84,26332],[84,26415],[84,26498],[84,26582],[84,26665],[84,26749],[84,26832],[84,26915],[84,26998],[84,27082],[84,27165],[84,27249],[84,27332],[84,27415],[84,27499],[84,27582],[84,27665],[84,27749],[84,27832],[84,27915],[84,27998],[84,28082],[84,28165],[84.2,28248],[84.9,28332],[85,28415],[85,28499]]",1,0,3458.1323,3459.4151,85,0.7432,"[{""rating"":85,""responseTime"":0.7432000000176231}]",space,0.7519,,3459.4151,Not at all,0,3459.4159,,,[],,0,2,2,2,1,audio/Narrative7Situation2.wav,audio/Narrative8Situation2.wav,audio/Narrative5Situation2.wav,audio/Narrative6Situation2.wav,3,3,3,3,,,,,,,,,,,,,,,,,,,,,,,,,,,,,,,,,,,,,,,
,,,,,,5e3040a2d1a553000cc9147b,2024-02-08_16h03.54.794,group3.1-3.2-social-tom,2023.2.2,Win32,60.24096386,65c5074098b851296ff0b7ed,65c5418fed95dc5ee826a2e5,,,,,,,,,,,,,,,,,,,,,,,,,,,,,3459.416,2,audio/Narrative6Situation3.wav,3464.4312,,3464.4312,3477.0312,"[[49.2,500],[51,583],[51,667],[51,751],[51,833],[51,917],[51,1000],[50.8,1083],[50.5,1166],[50.5,1250],[50.5,1333],[50.5,1416],[50.5,1499],[50.5,1583],[50.5,1666],[50.5,1750],[50.5,1833],[50.5,1916],[50.5,1999],[50.5,2083],[50.5,2166],[50.5,2250],[50.5,2333],[50.5,2416],[50.5,2500],[50.5,2583],[50.5,2666],[50.5,2750],[50.5,2833],[50.5,2916],[50.5,3000],[50.5,3083],[50.5,3166],[50.5,3249],[50.5,3333],[50.5,3416],[50.5,3500],[50.5,3583],[50.5,3666],[50.5,3750],[50.5,3833],[50.5,3916],[50.5,4000],[50.5,4083],[50.5,4166],[50.5,4250],[50.5,4333],[50.5,4416],[50.5,4499],[50.5,4583],[50.5,4666],[50.5,4749],[50.5,4833],[50.5,4916],[50.5,5000],[50.5,5083],[50.5,5166],[50.5,5249],[50.5,5333],[50.5,5416],[50.5,5500],[50.5,5583],[50.5,5666],[50.5,5750],[50.5,5833],[50.5,5916],[50.5,5999],[50.5,6083],[50.5,6166],[50.5,6249],[50.5,6333],[50.5,6416],[50.5,6500],[50.5,6583],[50.5,6666],[50.5,6749],[50.5,6833],[50.5,6916],[50.5,7000],[50.5,7083],[50.5,7166],[50.5,7250],[50.5,7333],[50.5,7416],[50.5,7500],[50.5,7583],[50.5,7666],[50.5,7750],[50.5,7833],[50.5,7916],[51.7,7999],[58,8083],[68.9,8167],[71.1,8250],[71.3,8334],[79.2,8417],[95.1,8500],[96.7,8583],[98.1,8667],[99.5,8750],[99.7,8833],[99.7,8916],[99.8,9000],[99,9083],[93.9,9166],[91.6,9249],[90.1,9333],[88.1,9416],[87.9,9499],[87.9,9583],[87.9,9666],[87.9,9749],[87.9,9833],[87.9,9916],[87.9,9999],[87.9,10083],[87.9,10166],[87.9,10249],[87.9,10333],[87.9,10416],[87.9,10499],[87.9,10582],[87.9,10666],[87.9,10749],[87.9,10833],[87.9,10916],[87.9,10999],[87.9,11082],[87.9,11166],[87.9,11249],[87.9,11332],[87.6,11416],[82.6,11499],[82,11583],[81.7,11666],[81.3,11749],[81,11832],[81,11916],[81,11999],[81,12083],[81,12166],[81,12249],[83.8,12333],[83.9,12416],[83.9,12499],[83.9,12583]]",1,0,3477.0314,3478.7478,86.5625,1.1696,"[{""rating"":86.5625,""responseTime"":1.1695999999938067}]",space,1.1903,,3478.748,Definitely yes,100,3478.7523,,,[],,0,3,3,3,1,audio/Narrative7Situation3.wav,audio/Narrative8Situation3.wav,audio/Narrative5Situation3.wav,audio/Narrative6Situation3.wav,8,4,3,5,,,,,,,,,,,,,,,,,,,,,,,,,,,,,,,,,,,,,,,
,,,,,,5e3040a2d1a553000cc9147b,2024-02-08_16h03.54.794,group3.1-3.2-social-tom,2023.2.2,Win32,60.24096386,65c5074098b851296ff0b7ed,65c5418fed95dc5ee826a2e5,,,,,,,,,,,,,,,,,,,,,,,,,,,,,3478.7528,2,audio/Narrative6Situation4.wav,3480.7639,,3480.764,3493.3636,"[[84.3,760],[64.1,835],[52.3,917],[51.6,1000],[51.6,1083],[49,1166],[48.8,1249],[48.8,1333],[49,1416],[50.1,1500],[50.1,1583],[50.1,1666],[50.1,1749],[50.1,1833],[50.1,1916],[50.1,1999],[50.1,2083],[50.1,2166],[50.1,2249],[50.1,2333],[50.1,2416],[50.1,2500],[50.1,2583],[50.1,2666],[50.1,2749],[50.1,2833],[50.1,2916],[50.1,3000],[50.1,3083],[50.1,3166],[50.1,3250],[50.1,3333],[50.1,3416],[50.1,3500],[50.1,3583],[50.1,3666],[50.1,3750],[50.1,3833],[50.1,3916],[50.1,4000],[50.1,4083],[50.1,4166],[50.1,4249],[50.1,4333],[50.1,4416],[50.1,4499],[50.1,4583],[50.1,4666],[50.1,4749],[50.1,4833],[50.1,4916],[50.1,4999],[50.1,5082],[50.1,5166],[50.1,5249],[50.1,5333],[50.1,5416],[50.1,5499],[50.1,5583],[50.1,5666],[50.1,5749],[50.1,5833],[50.1,5916],[50.1,5999],[50.1,6083],[50.1,6166],[50.1,6249],[50.1,6333],[50.1,6416],[50.1,6500],[50.1,6583],[50.1,6666],[50.1,6749],[50.1,6833],[50.1,6916],[50.1,7000],[50.1,7083],[50.1,7166],[50.1,7249],[50.1,7333],[50.1,7416],[50.1,7499],[50.1,7583],[50.1,7666],[50.1,7749],[50.1,7833],[50.1,7916],[50.1,7999],[50.1,8083],[50.1,8166],[50.1,8249],[50.1,8332],[50.1,8416],[50.1,8499],[50.1,8582],[50.1,8666],[50.1,8749],[50.1,8832],[50.1,8916],[50.1,8999],[50.1,9083],[50.1,9166],[50.1,9249],[50.1,9333],[50.1,9416],[50.1,9499],[50.1,9583],[50.1,9666],[50.1,9749],[50.1,9832],[50.1,9916],[50.1,9999],[50.1,10083],[50.1,10166],[50.1,10249],[50.1,10332],[50.1,10416],[50.1,10499],[50.1,10583],[50.1,10666],[50.1,10749],[50.1,10832],[50.1,10916],[50.1,10999],[50.1,11082],[50.1,11166],[50.1,11249],[50.1,11333],[50,11416],[50,11499],[50,11582],[50,11666],[50,11749],[50,11833],[50.9,11916],[50.9,11999],[50.9,12083],[50.9,12166],[50.9,12249],[50.9,12332],[50.4,12416],[50.3,12499],[50.3,12582]]",1,0,3493.3636,3495.0134,49.47916667,1.3621,"[{""rating"":49.47916666666667,""responseTime"":1.3620999999939158}]",space,1.1207,,3495.0135,Definitely yes,100,3495.0148,,,[],,0,4,4,4,1,audio/Narrative7Situation4.wav,audio/Narrative8Situation4.wav,audio/Narrative5Situation4.wav,audio/Narrative6Situation4.wav,3,3,1,2,,,,,,,,,,,,,,,,,,,,,,,,,,,,,,,,,,,,,,,
,,,,,,5e3040a2d1a553000cc9147b,2024-02-08_16h03.54.794,group3.1-3.2-social-tom,2023.2.2,Win32,60.24096386,65c5074098b851296ff0b7ed,65c5418fed95dc5ee826a2e5,,,,,,,,,,,,,,,,,,,,,,,,,,,,,3495.015,2,audio/Narrative6Situation5.wav,3497.03,,3497.03,3504.9968,"[[49.6,1083],[50,1166],[50.1,1249],[50.1,1333],[50.1,1416],[50.1,1499],[50.1,1583],[50.1,1666],[50.1,1750],[50,1833],[49.9,1916],[49.9,1999],[49.8,2083],[49.8,2166],[49.8,2250],[49.8,2333],[49.8,2416],[49.8,2499],[49.8,2583],[49.8,2666],[49.8,2749],[49.8,2833],[49.8,2916],[49.8,3000],[49.8,3083],[49.8,3166],[49.8,3250],[49.8,3333],[49.8,3416],[49.8,3499],[49.8,3583],[49.8,3666],[49.8,3750],[49.8,3833],[49.8,3916],[49.8,4000],[49.8,4083],[49.8,4166],[49.8,4249],[49.9,4333],[49.9,4416],[49.9,4499],[50.1,4583],[50.2,4666],[50.2,4750],[50.2,4833],[50.2,4916],[50.2,5000],[50.2,5083],[50.2,5166],[50.2,5250],[50.2,5333],[50.2,5416],[50.2,5499],[50.2,5583],[50.2,5666],[50.2,5750],[50.2,5833],[50.2,5916],[50.2,5999],[50.2,6083],[50.2,6166],[50.2,6249],[50.2,6333],[50.2,6416],[50.2,6499],[50.2,6583],[50.2,6666],[50.2,6750],[50.2,6833],[50.2,6916],[50.2,7000],[50.2,7083],[50.2,7166],[50.2,7250],[50.2,7333],[50.2,7416],[50.2,7499],[50.2,7583],[50.2,7666],[50.2,7749],[50.2,7833],[50.2,7916]]",1,0,3504.9971,3508.1129,12.39583333,2.6915,"[{""rating"":12.395833333333334,""responseTime"":2.69150000000036}]",space,2.5669,,3508.113,Not at all,0,3508.1143,,,[],,0,5,5,5,1,audio/Narrative7Situation5.wav,audio/Narrative8Situation5.wav,audio/Narrative5Situation5.wav,audio/Narrative6Situation5.wav,5,2,5,2,,,,,,,,,,,,,,,,,,,,,,,,,,,,,,,,,,,,,,,
,,,,,,5e3040a2d1a553000cc9147b,2024-02-08_16h03.54.794,group3.1-3.2-social-tom,2023.2.2,Win32,60.24096386,65c5074098b851296ff0b7ed,65c5418fed95dc5ee826a2e5,,,,,,,,,,,,,,,,,,,,,,,,,,,,,3508.1145,2,audio/Narrative6Situation6.wav,3510.1299,,3510.13,3521.2129,"[[49.5,1000],[49.2,1083],[49.2,1166],[49.2,1249],[49.2,1332],[49.3,1416],[49.3,1499],[49.5,1582],[50,1666],[50.8,1749],[51.1,1832],[51.1,1916],[51.1,1999],[50.6,2083],[49.6,2166],[49.5,2249],[49.5,2333],[48.9,2416],[48.5,2499],[48.5,2582],[48.5,2666],[48.5,2749],[48.5,2832],[48.5,2916],[48.5,2999],[48.9,3083],[49.1,3166],[49.2,3249],[49.5,3332],[49.6,3416],[49.8,3499],[49.8,3582],[49.8,3666],[49.8,3749],[49.8,3833],[49.8,3916],[49.8,3999],[49.8,4083],[49.8,4166],[49.8,4249],[49.8,4333],[49.8,4416],[49.8,4499],[49.8,4583],[49.8,4665],[49.8,4749],[49.8,4832],[49.8,4916],[49.8,4999],[49.8,5082],[49.8,5166],[49.8,5249],[49.8,5332],[49.8,5415],[49.8,5499],[49.8,5582],[49.8,5666],[49.8,5749],[49.8,5832],[49.8,5915],[49.8,5999],[49.8,6082],[49.8,6166],[49.8,6249],[49.8,6332],[49.8,6415],[49.8,6499],[49.8,6582],[49.8,6666],[49.8,6749],[49.8,6832],[49.8,6916],[49.8,6999],[49.8,7082],[49.8,7166],[52,7249],[56,7332],[61.9,7416],[67.4,7499],[68.8,7582],[68.8,7665],[68.8,7749],[68.8,7832],[68.8,7916],[68.8,7999],[68.8,8082],[68.4,8166],[68.2,8249],[68.2,8332],[68.2,8416],[68.2,8499],[68.2,8582],[68.2,8666],[68.2,8749],[68.2,8832],[67.8,8915],[67.5,8999],[67.5,9082],[67.5,9166],[67.5,9249],[67.5,9332],[67.5,9415],[67.5,9499],[67.5,9582],[67.5,9665],[67.5,9749],[67.5,9832],[67.5,9915],[67.5,9999],[67.5,10082],[67.5,10165],[67.5,10249],[67.5,10332],[67.5,10416],[67.5,10499],[67.5,10582],[67.5,10665],[67.5,10749],[67.5,10832],[67.5,10915],[67.5,10999],[67.5,11082]]",1,0,3521.2131,3523.579,58.54166667,2.0372,"[{""rating"":67.5,""responseTime"":0.9804000000062842},{""rating"":58.54166666666667,""responseTime"":2.0371999999883883}]",space,1.8232,,3523.579,Partially,50,3523.5801,,,[],,0,6,6,6,1,audio/Narrative7Situation6.wav,audio/Narrative8Situation6.wav,audio/Narrative5Situation6.wav,audio/Narrative6Situation6.wav,3,2,3,2,,,,,,,,,,,,,,,,,,,,,,,,,,,,,,,,,,,,,,,
,,,,,,5e3040a2d1a553000cc9147b,2024-02-08_16h03.54.794,group3.1-3.2-social-tom,2023.2.2,Win32,60.24096386,65c5074098b851296ff0b7ed,65c5418fed95dc5ee826a2e5,,,,,,,,,,,,,,,,,,,,,,,,,,,,,3523.5802,2,audio/Narrative6Situation7.wav,3528.5958,,3528.5959,3553.4611,"[[55.3,666],[49.2,751],[49.1,833],[49.1,917],[49.1,999],[49.1,1083],[49.1,1166],[49.8,1249],[49.9,1332],[49.9,1416],[50.8,1499],[50.8,1582],[50.8,1666],[51.7,1750],[51.7,1832],[51.7,1916],[51.7,1999],[51.5,2083],[51.1,2165],[51.1,2249],[51.1,2333],[51.1,2415],[51.1,2499],[51.1,2582],[51.1,2665],[50.5,2749],[49.8,2832],[48.9,2916],[45.5,2999],[31.3,3082],[22.6,3166],[19.5,3249],[17.5,3332],[16.8,3416],[15.5,3499],[16.3,3582],[16.9,3665],[16.9,3749],[16.9,3832],[16.9,3916],[14.8,4000],[12.3,4082],[12.3,4166],[12.3,4249],[12.3,4332],[12.3,4415],[12,4499],[9.6,4583],[9,4665],[9,4749],[9,4832],[9,4915],[9,4999],[9,5083],[9,5166],[9,5249],[9,5332],[9,5415],[9,5499],[9,5582],[9,5666],[9,5749],[9,5832],[9,5916],[9,5999],[9,6082],[9,6166],[9,6249],[9,6332],[9,6415],[9,6499],[9,6582],[9,6665],[9,6749],[9,6832],[9,6915],[9,6999],[9,7082],[9,7166],[9,7249],[9,7332],[9,7415],[9,7499],[9,7582],[9,7665],[9,7749],[9,7832],[9,7915],[9,7999],[9,8082],[9,8165],[9,8249],[15.1,8332],[32.1,8416],[42.7,8499],[42.8,8583],[48.9,8666],[51.9,8749],[50.7,8832],[50.2,8915],[50.1,8999],[49.8,9082],[49.8,9166],[49.8,9249],[51.4,9332],[52.5,9415],[53.9,9499],[55.5,9583],[56.1,9665],[56.5,9749],[58.1,9833],[64.5,9915],[67.9,9999],[69.9,10082],[74.2,10165],[75.4,10249],[77.6,10332],[81.6,10415],[85.1,10499],[85.5,10582],[88.4,10665],[90.3,10748],[90.3,10832],[90.3,10915],[90,10999],[89.5,11082],[89.3,11165],[89.3,11249],[89.3,11332],[89.3,11416],[89.3,11498],[89.3,11582],[89.3,11665],[100,11749],[100,11832],[100,11915],[100,11999],[100,12082],[100,12165],[99.7,12248],[98.3,12332],[96.8,12415],[96.1,12499],[95.8,12582],[96.5,12665],[98.2,12748],[98.8,12832],[98.8,12915],[98.8,12998],[100,13082],[100,13165],[100,13248],[100,13332],[99.1,13416],[98.5,13498],[98.5,13582],[98.5,13665],[97.5,13749],[97.1,13832],[97.1,13915],[97.1,13999],[98.6,14082],[100,14165],[100,14248],[100,14332],[99,14415],[97.2,14498],[96.9,14582],[96.9,14665],[99.6,14749],[100,14832],[100,14915],[100,14998],[100,15082],[100,15165],[99.6,15249],[99.4,15332],[99.3,15415],[99.3,15499],[98.4,15582],[97.5,15665],[97.3,15748],[97.3,15832],[97.3,15915],[98,15999],[98.4,16082],[98.4,16165],[98.4,16249],[98.4,16332],[98.4,16415],[98.4,16498],[98.4,16582],[98.4,16665],[98.4,16748],[98.4,16832],[98.4,16915],[98.4,16998],[98.4,17082],[98.4,17165],[98.4,17248],[98.4,17332],[98.4,17415],[98.4,17498],[98.4,17582],[98.4,17665],[98.4,17749],[98.4,17832],[98.4,17915],[98.4,17998],[98.4,18082],[98.4,18165],[98.4,18249],[98.4,18332],[98.4,18415],[98.4,18498],[98.4,18582],[98.4,18665],[98.4,18748],[98.4,18831],[98.4,18915],[98.4,18999],[98.4,19081],[98.4,19165],[98.4,19248],[98.4,19332],[98.4,19415],[98.4,19498],[98.4,19582],[98.4,19665],[98.4,19748],[98.4,19832],[98.4,19915],[98.4,19998],[98.4,20082],[98.4,20165],[98.4,20248],[98.4,20332],[98.4,20415],[98.4,20498],[98.4,20582],[98.4,20665],[98.4,20748],[98.4,20832],[98.4,20915],[98.4,20998],[98.4,21082],[98.4,21165],[98.4,21248],[98.4,21332],[98.4,21415],[98.4,21498],[98.4,21582],[98.4,21665],[98.4,21748],[98.4,21832],[98.4,21915],[98.4,21998],[98.4,22081],[98.4,22165],[98.4,22248],[98.4,22331],[98.4,22415],[98.4,22498],[98.4,22582],[98.4,22665],[98.4,22748],[98.4,22832],[98.4,22915],[98.4,22998],[98.4,23082],[98.4,23165],[98.4,23248],[98.4,23332],[98.4,23415],[98.4,23498],[98.4,23582],[98.4,23665],[98.4,23748],[98.4,23832],[98.4,23915],[98.4,23998],[98.4,24081],[98.4,24165],[98.4,24248],[98.4,24332],[98.4,24415],[98.4,24498],[98.4,24581],[98.4,24668],[98.4,24748],[98.4,24831]]",1,0,3553.4612,3554.7129,98.4375,0.8428,"[{""rating"":98.4375,""responseTime"":0.8428000000117208}]",space,0.721,,3554.713,Partially,50,3554.7155,,,[],,0,7,7,7,1,audio/Narrative7Situation7.wav,audio/Narrative8Situation7.wav,audio/Narrative5Situation7.wav,audio/Narrative6Situation7.wav,5,3,4,5,,,,,,,,,,,,,,,,,,,,,,,,,,,,,,,,,,,,,,,
,,,,,,5e3040a2d1a553000cc9147b,2024-02-08_16h03.54.794,group3.1-3.2-social-tom,2023.2.2,Win32,60.24096386,65c5074098b851296ff0b7ed,65c5418fed95dc5ee826a2e5,,,,,,,,,,,,,,,,,,,,,,,,,,,,,3554.7159,2,audio/Narrative6Situation8.wav,3559.7278,,3559.7279,3566.5774,"[[52.8,833],[52.6,916],[51.8,999],[51,1082],[50.4,1166],[49.9,1249],[49.7,1332],[49.7,1416],[49.7,1499],[49.7,1582],[48.5,1666],[47.3,1749],[47.3,1832],[47.3,1916],[48.6,1999],[49.4,2082],[49.4,2166],[49.4,2249],[49.4,2333],[49.4,2416],[49.4,2499],[49.7,2583],[49.7,2666],[49.7,2749],[49.9,2833],[50.4,2916],[50.4,2999],[50.4,3082],[50.4,3166],[49.9,3250],[49.7,3332],[49.6,3416],[49.6,3499],[49.6,3583],[49.6,3666],[49,3749],[49,3832],[49,3916],[49,3999],[49,4083],[49,4166],[49.2,4250],[49.6,4333],[49.6,4416],[50,4499],[50.5,4582],[50.5,4666],[50.6,4749],[52.8,4832],[53.2,4916],[53.2,4999],[53.2,5082],[53.2,5166],[49.6,5250],[38.6,5333],[23.3,5416],[12.8,5499],[6.5,5582],[2.1,5666],[0.7,6249],[2.3,6333],[2.3,6416],[2.2,6499],[0.5,6582]]",1,0,3566.5775,3568.3439,0,1.1035,"[{""rating"":0,""responseTime"":1.1034999999997126}]",space,1.2269,,3568.3439,Definitely yes,100,3568.3451,,,[],,0,8,8,8,1,audio/Narrative7Situation8.wav,audio/Narrative8Situation8.wav,audio/Narrative5Situation8.wav,audio/Narrative6Situation8.wav,2,3,3,5,,,,,,,,,,,,,,,,,,,,,,,,,,,,,,,,,,,,,,,
,,,,,,5e3040a2d1a553000cc9147b,2024-02-08_16h03.54.794,group3.1-3.2-social-tom,2023.2.2,Win32,60.24096386,65c5074098b851296ff0b7ed,65c5418fed95dc5ee826a2e5,,,,,,,,,,,,,,,,,,,,,,,,,,,,,3568.3452,2,audio/Narrative6Situation9.wav,3572.4142,,3572.4143,3582.3767,"[[999,5],[999,79],[999,162],[999,247],[999,329],[999,413],[999,496],[49.6,579],[49.6,663],[49.2,747],[49.2,831],[49.2,913],[49.2,995],[49.2,1079],[49.2,1162],[49.2,1246],[49.2,1329],[49.2,1412],[49.2,1496],[49.2,1579],[50,1662],[50.2,1745],[50.2,1829],[50.2,1912],[50.2,1996],[51.3,2079],[52.1,2162],[52.1,2245],[52.1,2329],[51.5,2412],[51,2495],[50.6,2579],[50,2662],[49.8,2745],[49.8,2829],[49.8,2912],[49.8,2995],[49.8,3079],[49.8,3162],[49.8,3245],[49.8,3329],[49.8,3412],[49.8,3496],[49.8,3579],[49.8,3662],[49.8,3746],[49.8,3829],[49.8,3912],[49.8,3995],[49.8,4079],[49.8,4162],[49.8,4246],[49.8,4329],[49.8,4412],[49.8,4496],[49.8,4579],[49.8,4662],[49.8,4745],[49.8,4829],[49.8,4912],[49.8,4995],[49.8,5079],[49.8,5162],[49.8,5246],[47.2,5329],[36.4,5412],[26.5,5495],[19.3,5579],[11,5662],[3.6,5745],[1.1,6163],[1.3,6246],[1.3,6329],[0.1,9162],[0.3,9246],[0.3,9329],[0.3,9412],[0.3,9495],[0.3,9579],[0.3,9662],[0.3,9745],[0.5,9828],[1.1,9912]]",1,0,3582.3767,3583.778,0,1.075,"[{""rating"":0.5208333333333315,""responseTime"":0.5889000000056512},{""rating"":0,""responseTime"":1.074999999999818}]",space,0.8681,,3583.7781,Partially,50,3583.7824,,,[],,0,9,9,9,1,audio/Narrative7Situation9.wav,audio/Narrative8Situation9.wav,audio/Narrative5Situation9.wav,audio/Narrative6Situation9.wav,2,3,3,4,,,,,,,,,,,,,,,,,,,,,,,,,,,,,,,,,,,,,,,
,,,,,,5e3040a2d1a553000cc9147b,2024-02-08_16h03.54.794,group3.1-3.2-social-tom,2023.2.2,Win32,60.24096386,65c5074098b851296ff0b7ed,65c5418fed95dc5ee826a2e5,,,,,,,,,,,,,,,,,,,,,,,,,,,,,3583.7828,2,audio/Narrative5Situation1.wav,3588.7934,,3588.7934,3602.0926,"[[999,9],[999,82],[999,166],[999,249],[999,332],[999,416],[999,499],[999,582],[999,666],[999,750],[999,833],[999,916],[999,999],[999,1082],[999,1166],[999,1249],[999,1332],[999,1416],[999,1499],[999,1582],[999,1666],[999,1749],[999,1832],[47.7,1916],[50,2000],[50.2,2082],[50.2,2166],[50.2,2249],[50.2,2333],[50.2,2416],[50.2,2499],[50.1,2582],[50.1,2666],[49.9,2749],[49.8,2833],[48.9,2916],[40.5,3000],[30.3,3083],[19.2,3166],[16.1,3250],[14.1,3332],[9.7,3416],[4.2,3500],[2,3583],[0.6,3666],[0.1,3750],[0.9,4166],[2.4,4250],[2.6,4333],[2.6,4416],[1,4500],[2,10082],[4.2,10166],[6.9,10249],[9.5,10332],[12.6,10415],[19.5,10499],[23.3,10582],[24.4,10666],[24.4,10749],[24.4,10832],[24.4,10915],[24.4,10999],[24.4,11082],[24.4,11166],[24.4,11249],[24.4,11332],[24.4,11416],[24.4,11499],[24.4,11582],[24.4,11665],[24.4,11749],[23.2,11832],[19.4,11915],[16,11999],[15.5,12082],[15.5,12165],[15.5,12249],[15.5,12332],[15.5,12416],[15.5,12499],[15.5,12582],[14.6,12666],[8.4,12749],[5.9,12832],[4.4,12915],[2.9,12999],[2,13082],[1,13165],[0.8,13249]]",1,0,3602.0926,3603.1939,0,0.821,"[{""rating"":0,""responseTime"":0.8210000000003674}]",space,0.5668,,3603.194,Not at all,0,3603.198,,,[],,0,10,10,10,1,audio/Narrative8Situation1.wav,audio/Narrative7Situation1.wav,audio/Narrative6Situation1.wav,audio/Narrative5Situation1.wav,5,2,2,5,,,,,,,,,,,,,,,,,,,,,,,,,,,,,,,,,,,,,,,
,,,,,,5e3040a2d1a553000cc9147b,2024-02-08_16h03.54.794,group3.1-3.2-social-tom,2023.2.2,Win32,60.24096386,65c5074098b851296ff0b7ed,65c5418fed95dc5ee826a2e5,,,,,,,,,,,,,,,,,,,,,,,,,,,,,3603.1985,2,audio/Narrative5Situation2.wav,3606.2091,,3606.2092,3635.6746,"[[18.1,917],[19.7,999],[21.5,1083],[28.4,1166],[38.9,1250],[43,1333],[46.7,1416],[47.7,1499],[48.1,1583],[48.6,1666],[48.9,1749],[25.5,1833],[9.5,1916],[4.8,2000],[1.9,2083],[0.6,2166],[0.6,2250],[0.6,2333],[0.4,2667],[2.8,2750],[2.9,2833],[2.8,2916],[0.7,3000],[0.8,3750],[2,3832],[2,3916],[1.1,3999],[0.7,4083],[0.4,4166],[1.5,4249],[2.5,4332],[2,4416],[0.6,9256],[3,9333],[8.8,9416],[14,9499],[14.1,9582],[14.1,9666],[14.1,9749],[13.8,9833],[13.6,9915],[13.5,9999],[13.4,10082],[13.1,10166],[12.9,10249],[12.8,10332],[12.8,10415],[12.8,10499],[12.8,10582],[12.8,10666],[12.8,10749],[12.8,10832],[12.8,10916],[12.8,10999],[12.8,11082],[12.8,11165],[12.8,11249],[12.8,11332],[12.8,11415],[12.8,11499],[12.8,11582],[12.8,11665],[12.8,11749],[12.8,11833],[12.8,11916],[13.5,11999],[14.3,12082],[14.7,12165],[15.2,12249],[15.6,12332],[17,12415],[17.1,12499],[17.1,12583],[17.1,12666],[17.1,12749],[17.1,12832],[17.1,12915],[17.1,12999],[17.1,13082],[17.1,13165],[17.1,13249],[17.1,13332],[17.1,13416],[17.1,13499],[17.1,13582],[17.1,13665],[17.1,13749],[18.1,13833],[24.1,13915],[26.1,13999],[26.1,14082],[26.1,14165],[26,14249],[25.8,14332],[25.8,14415],[25.7,14499],[25.7,14582],[25.5,14666],[23.9,14749],[20.2,14832],[17.1,14915],[16,14999],[15.9,15082],[15.9,15166],[16.3,15249],[16.4,15332],[16.4,15415],[16.4,15499],[16.4,15582],[16.4,15666],[16.4,15749],[16.4,15832],[16.4,15915],[16.4,15999],[16.4,16082],[16.4,16166],[16.4,16249],[16.4,16332],[16.4,16415],[16.4,16499],[16.4,16582],[16.4,16665],[16.4,16749],[16.4,16832],[16.4,16915],[16.4,16999],[16.4,17082],[16.4,17165],[16.4,17248],[16.4,17332],[16.4,17415],[16.3,17499],[15,17582],[13.6,17665],[12.8,17749],[11,17833],[9.8,17916],[8.8,17999],[8.3,18083],[8,18165],[8,18248],[8,18332],[8.2,18415],[8.2,18498],[8.2,18582],[8.2,18665],[8.2,18748],[8.2,18832],[8.2,18915],[8.2,18998],[8.2,19082],[8.2,19165],[8.4,19249],[8.9,19332],[8.9,19415],[8.9,19499],[8.9,19582],[8.9,19665],[8.9,19749],[8.9,19832],[8.9,19915],[8.9,19999],[8.9,20082],[8.9,20165],[8.9,20249],[8.9,20332],[8.9,20415],[8.9,20499],[8.9,20582],[8.9,20665],[8.9,20749],[8.9,20832],[8.9,20915],[8.9,20998],[8.9,21082],[8.9,21165],[8.9,21248],[8.9,21332],[8.9,21415],[9.9,21498],[10.5,21582],[11.8,21665],[13.4,21748],[13.5,21832],[13.5,21915],[13.5,21998],[13.5,22082],[13.5,22165],[13.5,22248],[13.5,22332],[13.5,22415],[13.5,22499],[13.5,22582],[13.5,22666],[14.6,22748],[21,22832],[23.4,22916],[23.4,22998],[23.4,23082],[23.4,23165],[23.6,23248],[29.4,23332],[30.8,23415],[30.8,23498],[30.6,23582],[30.2,23665],[29.9,23749],[29.9,23832],[29.9,23915],[29.9,23999],[29.9,24082],[31.5,24165],[41.3,24248],[42.7,24332],[42.6,24415],[42.4,24499],[42.3,24582],[41.8,24666],[41.6,24748],[41.6,24831],[41.6,24915],[41.6,24999],[41.6,25082],[41.6,25165],[40.8,25248],[40.8,25332],[40.8,25415],[40.8,25498],[40.8,25582],[40.8,25665],[40.8,25749],[40.8,25832],[40.8,25915],[40.8,25998],[40.8,26082],[41.3,26165],[42,26249],[43.3,26332],[46,26416],[46.6,26498],[46.6,26582],[46.6,26665],[45.6,26749],[43.2,26832],[42.9,26915],[42.9,26999],[42.9,27082],[42.9,27165],[42.9,27248],[42.9,27331],[42.3,27415],[42.3,27498],[42.3,27581],[42.3,27665],[42.3,27748],[42.3,27832],[42.3,27915],[42.3,27998],[42.3,28081],[41.8,28165],[41.5,28248],[41.4,28332],[41.4,28415],[41.4,28498],[41.4,28582],[41.6,28665],[42.2,28748],[42.5,28831],[43,28915],[43,28998],[43.4,29081],[43.4,29165],[43.4,29248],[43.4,29331],[43.4,29415]]",1,0,3635.6746,3636.8926,45.3125,0.6379,"[{""rating"":45.3125,""responseTime"":0.6379000000056294}]",space,0.6812,,3636.8927,Partially,50,3636.897,,,[],,0,11,11,11,1,audio/Narrative8Situation2.wav,audio/Narrative7Situation2.wav,audio/Narrative6Situation2.wav,audio/Narrative5Situation2.wav,3,3,3,3,,,,,,,,,,,,,,,,,,,,,,,,,,,,,,,,,,,,,,,
,,,,,,5e3040a2d1a553000cc9147b,2024-02-08_16h03.54.794,group3.1-3.2-social-tom,2023.2.2,Win32,60.24096386,65c5074098b851296ff0b7ed,65c5418fed95dc5ee826a2e5,,,,,,,,,,,,,,,,,,,,,,,,,,,,,3636.8975,2,audio/Narrative5Situation3.wav,3639.9081,,3639.9082,3653.8238,"[[46.5,833],[47.7,917],[47.9,999],[47.9,1082],[49.7,1166],[49.9,1249],[49.9,1332],[49.9,1416],[50.9,1499],[51.5,1582],[52.1,1666],[53,1749],[53,1832],[50.7,1916],[49.9,1999],[49.9,2082],[49.9,2166],[49.9,2249],[49.8,2332],[49.7,2416],[47.7,2499],[47,2582],[47,2666],[47,2749],[47,2832],[47,2916],[48,2999],[48.4,3083],[48.8,3166],[48.8,3249],[49.2,3332],[49.3,3415],[49.3,3499],[52.2,3582],[53.8,3665],[53.8,3749],[53.8,3832],[53.8,3916],[53.8,3999],[53.8,4082],[53.8,4165],[51,4249],[50,4332],[48.1,4416],[47.6,4500],[47.6,4582],[47.6,4666],[46.9,4749],[46.9,4832],[46.9,4916],[46.9,4999],[46.9,5082],[45.1,5166],[21.1,5332],[14.7,5415],[11.6,5499],[9.1,5582],[6.8,5665],[45.6,5915],[87,5999],[87,6082],[87,6166],[87.1,6249],[90.1,6332],[100,6415],[100,6499],[100,6582],[100,6666],[100,6749],[98.2,6832],[98.1,6916],[98.3,6999],[100,7082],[100,7165],[100,7249],[100,7332],[100,7415],[100,7499],[100,7582],[100,7665],[100,7749],[100,7832],[100,7916],[100,7999],[100,8082],[100,8166],[100,8249],[100,8332],[100,8416],[100,8499],[100,8582],[100,8665],[100,8749],[100,8832],[100,8916],[100,8999],[100,9082],[100,9165],[100,9249],[100,9332],[100,9415],[100,9498],[99.5,9582],[98.8,9665],[98.6,9749],[98.6,9832],[98.6,9915],[98.6,10000],[100,10082],[100,10166],[100,10249],[100,10332],[97.8,10415],[97.6,10498],[100,10582],[100,10665],[100,10748],[100,10832],[100,10915],[100,10998],[100,11082],[100,11165],[100,11249],[100,11332],[100,11415],[99.9,11498],[99.9,11582],[99.9,11665],[99.9,11748],[99.9,11832],[99.9,11915],[99.9,11999],[99.9,12082],[99.9,12165],[99.9,12248],[99.9,12332],[98.6,12416],[98.1,12499],[98,12582],[98,12665],[98,12749],[98,12832],[98,12915],[98,12998],[98,13082],[98,13165],[98.5,13249],[99.3,13332],[99.7,13415],[99.8,13498],[100,13582],[100,13665],[100,13748],[100,13832],[100,13915]]",1,0,3653.8239,3687.7226,100,1.0874,"[{""rating"":100,""responseTime"":1.0873999999762418}]",space,33.366,,3687.7227,Not at all,0,3687.7246,,,[],,0,12,12,12,1,audio/Narrative8Situation3.wav,audio/Narrative7Situation3.wav,audio/Narrative6Situation3.wav,audio/Narrative5Situation3.wav,4,8,5,3,,,,,,,,,,,,,,,,,,,,,,,,,,,,,,,,,,,,,,,
,,,,,,5e3040a2d1a553000cc9147b,2024-02-08_16h03.54.794,group3.1-3.2-social-tom,2023.2.2,Win32,60.24096386,65c5074098b851296ff0b7ed,65c5418fed95dc5ee826a2e5,,,,,,,,,,,,,,,,,,,,,,,,,,,,,3687.7248,2,audio/Narrative5Situation4.wav,3688.7392,,3688.7392,3709.1384,"[[41.7,83],[42.2,167],[43.3,249],[45.1,333],[48.2,416],[48.4,499],[49.5,583],[50.5,667],[50.6,750],[50.6,835],[50.6,916],[51.4,1000],[52.1,1083],[52.1,1166],[51.8,1250],[51.1,1333],[50.2,1416],[49.6,1499],[47.9,1583],[47,1666],[46.7,1750],[45.5,1833],[45.4,1916],[45.4,2000],[45.4,2083],[45.4,2166],[45.4,2249],[45.4,2333],[45.4,2416],[45.4,2500],[45.4,2583],[45.4,2666],[45.4,2750],[45.4,2833],[45.4,2916],[45.4,3000],[45.4,3083],[45.4,3166],[45.4,3250],[45.4,3333],[45.4,3416],[45.4,3499],[45.4,3583],[45.4,3666],[45.4,3750],[45.4,3833],[45.4,3916],[45.4,4000],[45.4,4083],[45.4,4166],[45.4,4249],[45.4,4333],[45.4,4416],[43.5,4500],[43.4,4583],[43.2,4666],[46.4,4750],[50.6,4833],[50.7,4916],[50.7,4999],[50.4,5083],[37.9,5166],[19,5249],[13.8,5333],[13.6,5416],[12.7,5499],[6.1,5583],[2.7,5666],[0.2,5749],[1,6166],[1.7,6249],[1.7,6333],[1.7,6416],[1.7,6499],[0.2,6583],[0.5,8916],[8.5,8999],[22.8,9082],[40.8,9166],[46.7,9249],[53.8,9333],[57.6,9416],[57.7,9500],[76.9,9583],[97.6,9666],[100,9750],[100,9833],[100,9916],[100,10000],[100,10083],[100,10166],[100,10250],[96.9,10333],[95.2,10416],[94.7,10499],[94.1,10582],[93.5,10666],[92.2,10749],[86.3,10832],[80.7,10916],[80.2,10999],[80.1,11082],[80.1,11166],[80.1,11249],[80.1,11333],[80.1,11416],[80.1,11499],[80.1,11582],[80.1,11666],[80.1,11749],[80.1,11832],[80.1,11916],[80.1,11999],[80.1,12083],[80.1,12166],[80.1,12249],[80.1,12333],[80.1,12416],[80.1,12499],[80.1,12582],[80.1,12666],[80.1,12749],[80.1,12832],[80.1,12916],[80.1,12999],[80.1,13082],[80.1,13166],[80.1,13249],[80.1,13332],[80.1,13416],[80.1,13499],[80.1,13582],[80.1,13666],[80.1,13749],[80.1,13832],[80.1,13916],[80.1,13999],[80.1,14082],[80.1,14166],[80.1,14249],[80.1,14332],[80.1,14416],[80.1,14499],[80.1,14582],[80.1,14666],[80.1,14749],[80.1,14832],[80.1,14916],[80.1,14999],[80.1,15082],[80.1,15166],[80.1,15249],[80.1,15332],[80.1,15416],[80.1,15499],[80.1,15582],[80.1,15666],[80.1,15749],[80.1,15832],[80.1,15916],[80.1,15999],[80.1,16082],[80.1,16165],[80.1,16249],[80.1,16332],[80.1,16416],[80.1,16499],[80.1,16582],[80.1,16666],[80.1,16749],[80.1,16832],[80.1,16916],[80.1,16999],[80.1,17082],[80.1,17166],[80.1,17249],[80.1,17332],[80.1,17415],[80.1,17499],[80.8,17582],[81.4,17665],[82,17749],[82.9,17832],[83.9,17915],[84,17999],[84,18082],[84,18166],[84,18249],[84.6,18332],[91.4,18415],[91.4,18499],[91.4,18582],[91.4,18665],[91.4,18749],[91.4,18832],[91.1,18916],[91.1,18999],[91.1,19082],[94.3,19165],[97.4,19249],[97.4,19332],[97.4,19416],[99.5,19499],[99.8,19582],[99.8,19665],[99.6,19749],[99.3,19832],[99.1,19916],[98.9,19999],[98.9,20082],[98.9,20166],[98.9,20249],[98.9,20332]]",1,0,3709.1386,3710.1233,100,0.7331,"[{""rating"":100,""responseTime"":0.7331000000240238}]",space,0.4479,,3710.1234,Partially,50,3710.1274,,,[],,0,13,13,13,1,audio/Narrative8Situation4.wav,audio/Narrative7Situation4.wav,audio/Narrative6Situation4.wav,audio/Narrative5Situation4.wav,3,3,2,1,,,,,,,,,,,,,,,,,,,,,,,,,,,,,,,,,,,,,,,
,,,,,,5e3040a2d1a553000cc9147b,2024-02-08_16h03.54.794,group3.1-3.2-social-tom,2023.2.2,Win32,60.24096386,65c5074098b851296ff0b7ed,65c5418fed95dc5ee826a2e5,,,,,,,,,,,,,,,,,,,,,,,,,,,,,3710.1277,2,audio/Narrative5Situation5.wav,3715.1384,,3715.1385,3730.5714,"[[50.1,583],[49.9,666],[49.9,749],[49.9,833],[49.9,916],[49.9,999],[49.9,1082],[49.9,1166],[49.9,1249],[50,1332],[50.1,1416],[50.1,1499],[50.1,1583],[49.8,1666],[46.7,1749],[42.3,1832],[37.9,1916],[34.9,1999],[32.2,2082],[30,2166],[27.7,2249],[26.6,2332],[26.6,2416],[26.6,2499],[26.6,2582],[26.6,2666],[26.6,2749],[26.6,2833],[25.3,2916],[17.6,2999],[9.3,3083],[1.8,3166],[0.1,14165],[0.1,14249],[0.1,14332],[0.1,14415],[0.1,14499],[0.1,14582],[0.1,14665],[0.1,14749],[0.6,14832],[1,14915],[1,14998],[1,15082],[1,15165],[1,15249],[1,15332],[1,15415]]",1,0,3730.5716,3731.8726,0,1.0055,"[{""rating"":0,""responseTime"":1.005500000000211}]",space,0.7497,,3731.8727,Partially,50,3731.8742,,,[],,0,14,14,14,1,audio/Narrative8Situation5.wav,audio/Narrative7Situation5.wav,audio/Narrative6Situation5.wav,audio/Narrative5Situation5.wav,2,5,2,5,,,,,,,,,,,,,,,,,,,,,,,,,,,,,,,,,,,,,,,
,,,,,,5e3040a2d1a553000cc9147b,2024-02-08_16h03.54.794,group3.1-3.2-social-tom,2023.2.2,Win32,60.24096386,65c5074098b851296ff0b7ed,65c5418fed95dc5ee826a2e5,,,,,,,,,,,,,,,,,,,,,,,,,,,,,3731.8744,2,audio/Narrative5Situation6.wav,3734.8872,,3734.8873,3740.5538,"[[47.7,583],[48.6,668],[49.5,751],[50,834],[50.1,916],[50.1,1000],[50.1,1083],[50.7,1167],[52,1250],[52.1,1333],[52.1,1416],[52,1500],[51.6,1583],[50.7,1667],[50.4,1750],[50.2,1833],[50.2,1916],[50.2,2000],[50.2,2083],[50.2,2166],[50.2,2250],[50.2,2333],[50.2,2416],[50.2,2499],[50.2,2583],[50.2,2666],[50,2750],[50,2833],[50,2916],[50,3000],[50,3083],[50,3166],[50,3250],[50,3333],[50,3416],[50,3499],[50,3583],[50,3666],[49.7,3750],[49.7,3833],[49.7,3916],[49.7,3999],[49.7,4083],[49.7,4166],[49.7,4250],[49.7,4333],[49.8,4416],[49.8,4499],[49.8,4583],[49.8,4666],[50.2,4750],[50.2,4833],[50.2,4916],[50.2,4999],[50.2,5083],[50.2,5166],[50.2,5250],[50.2,5333],[50.2,5416],[50.2,5499],[50.2,5583],[50.2,5666]]",1,0,3740.5539,3742.6039,52.70833333,1.6758,"[{""rating"":52.708333333333336,""responseTime"":1.675799999982246}]",space,1.5218,,3742.604,Partially,50,3742.6063,,,[],,0,15,15,15,1,audio/Narrative8Situation6.wav,audio/Narrative7Situation6.wav,audio/Narrative6Situation6.wav,audio/Narrative5Situation6.wav,2,3,2,3,,,,,,,,,,,,,,,,,,,,,,,,,,,,,,,,,,,,,,,
,,,,,,5e3040a2d1a553000cc9147b,2024-02-08_16h03.54.794,group3.1-3.2-social-tom,2023.2.2,Win32,60.24096386,65c5074098b851296ff0b7ed,65c5418fed95dc5ee826a2e5,,,,,,,,,,,,,,,,,,,,,,,,,,,,,3742.6067,2,audio/Narrative5Situation7.wav,3746.6205,,3746.6206,3767.6694,"[[49.8,916],[50.4,999],[50.4,1083],[50.4,1166],[50.4,1249],[50.4,1333],[50.4,1416],[50.4,1499],[50.4,1583],[50.4,1666],[50.4,1749],[50.4,1833],[49.9,1916],[49.6,1999],[49.6,2083],[49.6,2166],[49.8,2250],[49.9,2333],[49.9,2416],[49.9,2499],[49.9,2583],[49.9,2666],[49.9,2750],[49.9,2833],[50.4,2916],[50.8,2999],[50.8,3083],[50.8,3166],[50.8,3249],[50.8,3333],[50.8,3416],[50.8,3499],[50.8,3583],[50.8,3666],[50.8,3749],[50.8,3833],[50.8,3916],[50.8,3999],[50.8,4083],[50.8,4166],[50.8,4249],[50.8,4332],[50.8,4416],[50.8,4499],[50.8,4582],[50.8,4666],[50.8,4749],[50.8,4833],[50.6,4916],[50.5,4999],[50,5082],[49.6,5166],[49.2,5249],[49.2,5333],[49.1,5416],[49.1,5499],[49.1,5582],[49.1,5666],[49.1,5749],[49.1,5832],[50.5,5916],[51,5999],[51.6,6083],[51.8,6166],[51.8,6249],[51.6,6333],[50.4,6416],[49.6,6499],[49.2,6582],[48.1,6666],[47.7,6749],[47.7,6832],[49,6916],[50.4,6999],[51,7083],[51.9,7166],[52.2,7249],[52.5,7332],[53.8,7416],[54.9,7499],[56.3,7582],[56.3,7665],[55.8,7749],[55.4,7832],[55.4,7916],[55.4,7999],[55.4,8082],[55.2,8166],[55.1,8249],[54.9,8332],[54.8,8415],[54.7,8499],[54.7,8582],[54.1,8665],[52.5,8749],[51.5,8833],[50.8,8916],[50.5,8999],[50.4,9082],[50.4,9166],[50.4,9249],[50.4,9332],[49.5,9416],[48.4,9499],[48.2,9582],[48.2,9666],[49.3,9749],[50.5,9832],[50.8,9915],[50.8,9999],[50.8,10082],[50.8,10165],[51.8,10249],[52,10332],[52,10415],[52,10499],[51.6,10583],[50,10666],[49.6,10749],[49.6,10832],[49.6,10916],[49.6,10999],[49.6,11082],[49.6,11165],[49.6,11249],[49.6,11332],[49.6,11416],[49.8,11502],[49.8,11582],[49.8,11665],[49.8,11749],[49.8,11832],[49.8,11916],[49.8,11999],[49.8,12082],[49.8,12166],[49.8,12249],[49.8,12332],[49.8,12415],[49.8,12499],[49.8,12582],[49.8,12666],[49.8,12749],[49.8,12832],[49.8,12916],[49.8,12999],[49.8,13082],[49.8,13165],[49.8,13249],[49.8,13332],[49.8,13415],[49.8,13499],[49.8,13582],[49.8,13665],[49.8,13749],[49.8,13832],[49.8,13915],[49.8,13999],[49.8,14082],[49.8,14165],[48,14249],[44.4,14333],[41.3,14416],[38.6,14499],[37.2,14583],[37.1,14665],[37.1,14749],[37.1,14832],[37.1,14915],[37.1,14998],[37.1,15082],[37.1,15165],[37.1,15249],[36.9,15332],[30.3,15416],[26.8,15499],[26.3,15582],[26.1,15665],[26.1,15749],[26.1,15832],[26.1,15915],[26.1,15999],[26.1,16082],[26.1,16165],[26.1,16249],[26.1,16332],[26.1,16415],[26.1,16499],[24.2,16582],[20.1,16666],[16.5,16748],[14.8,16832],[14.8,16915],[14.8,16999],[14.8,17082],[14.8,17165],[14.8,17249],[14.8,17332],[14.8,17415],[14.8,17498],[14.8,17582],[14.8,17665],[14.8,17749],[14.8,17832],[14.8,17915],[14.8,17999],[14.8,18082],[14.8,18165],[14.8,18249],[14.8,18332],[14.8,18415],[14.8,18499],[14.8,18582],[14.8,18665],[14.8,18749],[14.8,18832],[14.8,18915],[14.8,18998],[14.8,19082],[14.8,19165],[14.8,19248],[14.8,19331],[14.8,19415],[14.8,19498],[14.8,19582],[14.8,19665],[14.8,19748],[14.8,19832],[14.8,19915],[14.8,19998],[14.8,20082],[14.8,20165],[12.7,20249],[11.1,20332],[10.9,20415],[9.8,20499],[9.1,20582],[8.6,20665],[8.6,20748],[8.6,20832],[8.6,20915],[8.6,20998]]",1,0,3767.6694,3768.5204,8.645833333,0.4878,"[{""rating"":8.645833333333336,""responseTime"":0.4877999999821441}]",space,0.3025,,3768.5204,Not at all,0,3768.5237,,,[],,0,16,16,16,1,audio/Narrative8Situation7.wav,audio/Narrative7Situation7.wav,audio/Narrative6Situation7.wav,audio/Narrative5Situation7.wav,3,5,5,4,,,,,,,,,,,,,,,,,,,,,,,,,,,,,,,,,,,,,,,
,,,,,,5e3040a2d1a553000cc9147b,2024-02-08_16h03.54.794,group3.1-3.2-social-tom,2023.2.2,Win32,60.24096386,65c5074098b851296ff0b7ed,65c5418fed95dc5ee826a2e5,,,,,,,,,,,,,,,,,,,,,,,,,,,,,3768.5241,2,audio/Narrative5Situation8.wav,3771.536,,3771.536,3780.3526,"[[999,6],[999,83],[999,166],[999,249],[999,333],[999,416],[999,499],[999,583],[999,666],[999,750],[999,833],[999,916],[999,1000],[999,1083],[999,1166],[50.6,1250],[50.6,1333],[50.6,1416],[50.6,1500],[50.6,1583],[50.6,1666],[50.6,1750],[50.6,1833],[50.6,1916],[50.5,1999],[50,2083],[49.6,2166],[49.4,2249],[49.3,2333],[49.3,2416],[49.3,2499],[48.4,2583],[38.6,2666],[27.3,2749],[18.6,2833],[12,2916],[8,2999],[4.1,3083],[2.8,3583],[4.3,3666],[4.3,3749],[2.2,3833]]",1,0,3780.3528,3781.4366,0,0.7623,"[{""rating"":0,""responseTime"":0.7622999999821332}]",space,0.5393,,3781.4366,Definitely yes,100,3781.4399,,,[],,0,17,17,17,1,audio/Narrative8Situation8.wav,audio/Narrative7Situation8.wav,audio/Narrative6Situation8.wav,audio/Narrative5Situation8.wav,3,2,5,3,,,,,,,,,,,,,,,,,,,,,,,,,,,,,,,,,,,,,,,
,,,,,,5e3040a2d1a553000cc9147b,2024-02-08_16h03.54.794,group3.1-3.2-social-tom,2023.2.2,Win32,60.24096386,65c5074098b851296ff0b7ed,65c5418fed95dc5ee826a2e5,,,,,,,,,,,,,,,,,,,,,,,,,,,,,3781.4403,2,audio/Narrative5Situation9.wav,3784.4521,,3784.4521,3823.9837,"[[52.5,417],[52.5,500],[51.9,583],[51.3,667],[50.8,750],[50.6,834],[50.5,917],[50.5,1000],[50.5,1083],[50.5,1166],[49.6,1250],[49.3,1333],[49.1,1416],[49.5,1499],[50.1,1583],[50.1,1666],[50.1,1750],[50.2,1833],[50.2,1916],[50.2,2000],[51.4,2083],[51.4,2166],[51.4,2249],[51.4,2333],[51.4,2417],[51.4,2500],[51.3,2583],[50.9,2666],[50.8,2749],[50.8,2833],[50.8,2916],[50.8,3000],[50.9,3083],[51.8,3167],[54,3250],[56.4,3333],[60.4,3417],[63.6,3500],[63.9,3583],[63.9,3666],[63.9,3750],[63.6,3833],[63.4,3916],[63.4,4000],[63.4,4083],[63.4,4166],[63.4,4249],[63.5,4333],[65,4417],[67.2,4500],[70.3,4583],[74.6,4667],[77,4750],[77.1,4833],[77.1,4916],[76.8,5000],[76.8,5083],[76.7,5166],[76.5,5249],[76.3,5333],[76.3,5416],[76.3,5500],[76.3,5583],[79.3,5667],[83.2,5750],[83.3,5833],[83.3,5916],[83.2,6000],[83,6083],[83,6166],[83,6249],[82.9,6333],[82.8,6416],[81.9,6500],[80.7,6583],[79.5,6666],[78.6,6750],[78.2,6833],[77.8,6916],[76.5,7000],[74.3,7083],[72.7,7166],[71.3,7250],[70.5,7333],[69.6,7416],[69.5,7499],[69.5,7583],[69.5,7666],[69.5,7749],[69.5,7833],[67.4,7916],[65.3,7999],[64.6,8082],[64.5,8166],[64.5,8249],[64.5,8333],[64.5,8416],[64.5,8499],[64.5,8583],[64.5,8666],[64.5,8749],[64.5,8833],[64.5,8916],[64.5,8999],[64.5,9083],[64.5,9166],[64.5,9249],[64.5,9333],[64.5,9416],[63.5,9499],[62.9,9582],[62.9,9666],[62.9,9749],[62.9,9832],[62.9,9916],[62.9,9999],[62.9,10083],[57.4,10166],[53.1,10250],[50.8,10333],[48.5,10416],[47.8,10499],[47.8,10582],[47.8,10666],[49.9,10749],[51.1,10832],[51.1,10916],[51.7,10999],[53.9,11082],[53.6,11166],[51.6,11249],[50.6,11332],[49.1,11416],[47.7,11499],[47.2,11583],[47.1,11666],[49.1,11749],[51,11833],[51.9,11916],[51.9,11999],[51.9,12083],[51.9,12166],[51.9,12249],[51.9,12333],[51.9,12416],[51.9,12499],[51.6,12583],[51.5,12666],[51,12749],[52.8,12832],[53.8,12916],[53.8,12999],[50.6,13082],[46.4,13166],[44.6,13249],[44.5,13332],[44.5,13416],[45.2,13499],[47.5,13582],[49.1,13666],[49.6,13749],[49.6,13832],[49.6,13916],[49.6,13999],[49.6,14083],[49.6,14166],[49.6,14249],[49.6,14332],[49.6,14416],[49.5,14499],[49.1,14582],[48.9,14665],[48.9,14749],[48.9,14832],[48.9,14916],[49.8,14999],[49.8,15082],[50.1,15166],[51.8,15250],[51.8,15333],[51.8,15416],[50.7,15499],[50.3,15582],[50.3,15665],[50.1,15749],[49.9,15832],[49.7,15916],[49.3,15999],[49.1,16082],[48.9,16166],[48.4,16249],[48,16333],[47.5,16416],[46.8,16499],[46.4,16582],[45.8,16665],[44.9,16749],[44.3,16832],[43.5,16916],[43.3,16999],[43.3,17082],[43.3,17166],[43.3,17249],[43.3,17332],[43.3,17416],[43.3,17499],[43.3,17582],[43.3,17665],[43.3,17750],[43.3,17832],[43.3,17915],[43.3,17999],[43.3,18082],[43.3,18166],[43.3,18249],[43.3,18332],[43.3,18415],[43.3,18499],[43.3,18582],[43.3,18666],[43.3,18749],[43.3,18832],[43.3,18915],[43.3,18999],[43.3,19082],[43.3,19166],[43.3,19249],[43.3,19332],[43.3,19416],[43.3,19499],[43.3,19582],[43.3,19665],[43.3,19749],[43.3,19832],[43.3,19915],[43.3,19999],[43.3,20082],[43.3,20166],[43.3,20249],[43.3,20332],[43.3,20416],[43.3,20499],[43.3,20582],[43.3,20665],[43.3,20749],[43.3,20832],[43.3,20916],[43.3,20999],[43.3,21082],[43.3,21165],[43.3,21249],[43.3,21332],[43.3,21416],[43.3,21499],[43.3,21582],[40.4,21666],[38.9,21750],[38.6,21832],[38.4,21916],[37,21999],[34.9,22082],[33.6,22165],[31.9,22249],[30.6,22332],[30.2,22415],[29.6,22498],[29.6,22582],[29.6,22665],[29.6,22749],[29.6,22832],[29.6,22915],[29.6,22999],[29.6,23082],[29.6,23165],[29.6,23248],[30.2,23332],[30.6,23415],[30.6,23499],[30.6,23582],[30.2,23666],[28.5,23749],[27.4,23832],[26.6,23916],[25.1,23999],[24.4,24082],[24.3,24165],[24.3,24249],[24.3,24332],[24.3,24415],[25.6,24499],[26.7,24582],[26.8,24665],[26.8,24748],[26.8,24832],[26.8,24915],[26,24999],[24.3,25082],[24,25165],[24.3,25249],[31.7,25332],[39.5,25416],[41.8,25499],[44.2,25582],[44.8,25665],[44.8,25749],[44.8,25832],[44.8,25915],[44.8,25999],[44.8,26082],[44.8,26165],[44.8,26248],[44.8,26333],[44.8,26415],[44.8,26498],[44.8,26582],[44.8,26665],[44.8,26749],[44.8,26832],[44.8,26915],[44.8,26999],[44.8,27082],[44.8,27165],[44.8,27249],[44.8,27332],[44.8,27415],[44.8,27499],[44.8,27582],[44.9,27666],[46.6,27749],[48.1,27832],[49.7,27916],[50.1,27999],[50.2,28082],[50.8,28166],[51.4,28249],[52,28332],[52.5,28415],[52.5,28499],[52.5,28582],[52.5,28665],[50.1,28748],[46.5,28832],[44.2,28915],[43.5,28998],[43.9,29082],[49.3,29165],[51.8,29248],[53.5,29332],[54.1,29415],[54.1,29499],[51.5,29582],[47.8,29665],[46.3,29748],[45.9,29832],[48.6,29916],[54.2,29999],[54.6,30082],[54.4,30165],[49.7,30248],[48.4,30332],[48.4,30415],[48.4,30499],[49.6,30582],[50.5,30665],[50.5,30748],[50.5,30832],[50.5,30915],[52.5,30999],[52.7,31082],[52.7,31165],[49.7,31249],[47.6,31332],[46.3,31415],[46.5,31498],[52.2,31582],[53,31665],[53,31748],[53,31832],[52.7,31915],[50.1,31999],[50,32082],[50,32165],[50,32248],[50,32331],[50,32415],[50,32498],[50,32581],[50,32665],[50,32748],[50,32832],[50,32915],[50,32999],[50,33082],[50,33165],[50,33248],[50,33331],[50,33415],[50,33498],[50,33582],[50,33665],[50,33748],[50,33832],[50,33915],[50,33998],[50,34082],[50,34165],[50.1,34249],[50.8,34331],[51.1,34415],[51.4,34499],[51.8,34582],[51.8,34665],[51.8,34748],[51.8,34832],[51.8,34915],[51.8,34998],[51.8,35082],[51.8,35165],[51.8,35248],[51.8,35332],[51.8,35415],[51.8,35498],[51.8,35582],[51.8,35665],[51.8,35748],[51.8,35832],[51.8,35915],[51.8,35998],[51.8,36082],[52.8,36165],[53.3,36248],[54.2,36332],[55.3,36415],[55.5,36498],[55.5,36582],[55.9,36665],[57.3,36749],[58.2,36832],[58.2,36915],[58.2,36998],[58,37081],[57.9,37165],[57.8,37248],[57.7,37331],[57.7,37415],[57.5,37499],[57,37582],[55.5,37665],[54.5,37748],[54.4,37831],[54.4,37915],[54.4,37998],[54.4,38081],[54.4,38165],[54.4,38248],[54.4,38332],[54.4,38415],[54.4,38498],[54.4,38581],[54.4,38665],[54.4,38748],[54.4,38831],[54.4,38915],[54.4,38998],[54.9,39082],[55.5,39165],[55.5,39248],[55.5,39331],[55.5,39415],[55.5,39498]]",1,0,3823.9839,3824.8519,55.52083333,0.4879,"[{""rating"":55.52083333333333,""responseTime"":0.4878999999759799}]",space,0.341,,3824.852,Not at all,0,3844.4001,0,13.6671,"[{""rating"":0.1041666666666663,""responseTime"":12.433800000011615},{""rating"":0,""responseTime"":12.604499999999916},{""rating"":0,""responseTime"":13.667099999993752}]",space,0,18,18,18,1,audio/Narrative8Situation9.wav,audio/Narrative7Situation9.wav,audio/Narrative6Situation9.wav,audio/Narrative5Situation9.wav,3,2,4,3,,,19.0242,,,,,,,,,,,,,,,,,,,,,,,,,,,,,,,,,,,,
,,,,,,5e3040a2d1a553000cc9147b,2024-02-08_16h03.54.794,group3.1-3.2-social-tom,2023.2.2,Win32,60.24096386,65c5074098b851296ff0b7ed,65c5418fed95dc5ee826a2e5,,,,,,,,,,,,,,,,,,,,,,,,,,,,,,,,,,,,,,,,,,,,,,,,,,,,,,,,,,,,,,,,,,,,,,,,3844.4085,3847.933,space,3.0016,,3847.9333,3862.2326,space,13.9747,,,,,,,,,,,,,,,,,,,,,,,,,,
