exp_question,consent.started,consent.stopped,consentResponse.keys,consentResponse.rt,consentResponse.duration,participantID,date,expName,psychopyVersion,OS,frameRate,STUDY_ID,SESSION_ID,opening1.started,opening1.stopped,keyEndingOpening1.keys,keyEndingOpening1.rt,keyEndingOpening1.duration,volumeAdjust.started,volumeAdjust.stopped,endingAdjust.keys,endingAdjust.rt,endingAdjust.duration,opening2.started,opening2.stopped,keyEndingOpening.keys,keyEndingOpening.rt,keyEndingOpening.duration,mouse.x,mouse.y,mouse.leftButton,mouse.midButton,mouse.rightButton,mouse.time,instructionLoop.thisRepN,instructionLoop.thisTrialN,instructionLoop.thisN,instructionLoop.thisIndex,instructionLoop.ran,readyForAudio.started,readyForAudio.stopped,fixation.started,run,audio_played,fixation.stopped,endPractice.keys,audioPre.started,audioPre.stopped,continuousResponses_audio,continuousSlider.response,continuousSlider.rt,intRating.started,intRating.stopped,intQuestionSlider.response,intQuestionSlider.rt,intQuestionSlider.history,confirmResponse.keys,confirmResponse.rt,confirmResponse.duration,catchQuestion.started,catch_label,catch_value,catchQuestion.stopped,catchQuestionSlider.response,catchQuestionSlider.rt,catchQuestionSlider.history,confirmResponse_2.keys,audioRunLoop.thisRepN,audioRunLoop.thisTrialN,audioRunLoop.thisN,audioRunLoop.thisIndex,audioRunLoop.ran,conditions1_1,conditions2_1,conditions1_2,conditions2_2,dur1_1,dur2_1,dur1_2,dur2_2,endPractice.rt,endPractice.duration,confirmResponse_2.rt,confirmResponse_2.duration,runIntervalBreak.started,runIntervalBreak.stopped,endingBreakKey.keys,endingBreakKey.rt,endingBreakKey.duration,connection.started,connection.stopped,connectionEnding.keys,connectionEnding.rt,connectionEnding.duration,readyForText.started,readyForText.stopped,textPre.started,run_dup,textPre.stopped,continuousResponses_text,textRunLoop.thisRepN,textRunLoop.thisTrialN,textRunLoop.thisN,textRunLoop.thisIndex,textRunLoop.ran,text1_1,text1_2,text2_1,text2_2,runBreakText.started,runBreakText.stopped,endingBreakKey_2.keys,endingBreakKey_2.rt,endingBreakKey_2.duration,ending.started,ending.stopped,endingEnding.keys,endingEnding.rt,endingEnding.duration
social,0.0004,2.2138,y,1.8833,,5e4c0ba01ae5a4000b539387,2024-02-08_13h16.19.675,group3.1-3.2-social-tom,2023.2.2,Win32,60.24096386,65c5074098b851296ff0b7ed,65c541eacb0985acfd94fb15,,,,,,,,,,,,,,,,,,,,,,,,,,,,,,,,,,,,,,,,,,,,,,,,,,,,,,,,,,,,,,,,,,,,,,,,,,,,,,,,,,,,,,,,,,,,,,,,,,,,,,,,,,
,,,,,,5e4c0ba01ae5a4000b539387,2024-02-08_13h16.19.675,group3.1-3.2-social-tom,2023.2.2,Win32,60.24096386,65c5074098b851296ff0b7ed,65c541eacb0985acfd94fb15,2.2139,4.1279,space,1.895,,,,,,,,,,,,,,,,,,,,,,,,,,,,,,,,,,,,,,,,,,,,,,,,,,,,,,,,,,,,,,,,,,,,,,,,,,,,,,,,,,,,,,,,,,,,,,,,,,,,,,
,,,,,,5e4c0ba01ae5a4000b539387,2024-02-08_13h16.19.675,group3.1-3.2-social-tom,2023.2.2,Win32,60.24096386,65c5074098b851296ff0b7ed,65c541eacb0985acfd94fb15,,,,,,4.128,4.981,space,0.5345,,,,,,,,,,,,,,,,,,,,,,,,,,,,,,,,,,,,,,,,,,,,,,,,,,,,,,,,,,,,,,,,,,,,,,,,,,,,,,,,,,,,,,,,,,,,,,,,,
,,,,,,5e4c0ba01ae5a4000b539387,2024-02-08_13h16.19.675,group3.1-3.2-social-tom,2023.2.2,Win32,60.24096386,65c5074098b851296ff0b7ed,65c541eacb0985acfd94fb15,,,,,,,,,,,4.9855,19.9255,space,14.9245,,[],[],[],[],[],[],0,0,0,0,1,,,,,,,,,,,,,,,,,,,,,,,,,,,,,,,,,,,,,,,,,,,,,,,,,,,,,,,,,,,,,,,,,,,,,,,,,,,,,,,,
,,,,,,5e4c0ba01ae5a4000b539387,2024-02-08_13h16.19.675,group3.1-3.2-social-tom,2023.2.2,Win32,60.24096386,65c5074098b851296ff0b7ed,65c541eacb0985acfd94fb15,,,,,,,,,,,19.9263,53.3066,space,33.2556,,[],[],[],[],[],[],1,0,1,0,1,,,,,,,,,,,,,,,,,,,,,,,,,,,,,,,,,,,,,,,,,,,,,,,,,,,,,,,,,,,,,,,,,,,,,,,,,,,,,,,,
,,,,,,5e4c0ba01ae5a4000b539387,2024-02-08_13h16.19.675,group3.1-3.2-social-tom,2023.2.2,Win32,60.24096386,65c5074098b851296ff0b7ed,65c541eacb0985acfd94fb15,,,,,,,,,,,53.3071,101.1556,space,47.8141,,[],[],[],[],[],[],2,0,2,0,1,,,,,,,,,,,,,,,,,,,,,,,,,,,,,,,,,,,,,,,,,,,,,,,,,,,,,,,,,,,,,,,,,,,,,,,,,,,,,,,,
,,,,,,5e4c0ba01ae5a4000b539387,2024-02-08_13h16.19.675,group3.1-3.2-social-tom,2023.2.2,Win32,60.24096386,65c5074098b851296ff0b7ed,65c541eacb0985acfd94fb15,,,,,,,,,,,101.1634,142.855,space,41.67,,[],[],[],[],[],[],3,0,3,0,1,,,,,,,,,,,,,,,,,,,,,,,,,,,,,,,,,,,,,,,,,,,,,,,,,,,,,,,,,,,,,,,,,,,,,,,,,,,,,,,,
,,,,,,5e4c0ba01ae5a4000b539387,2024-02-08_13h16.19.675,group3.1-3.2-social-tom,2023.2.2,Win32,60.24096386,65c5074098b851296ff0b7ed,65c541eacb0985acfd94fb15,,,,,,,,,,,142.8619,153.7046,space,10.8315,,[],[],[],[],[],[],4,0,4,0,1,,,,,,,,,,,,,,,,,,,,,,,,,,,,,,,,,,,,,,,,,,,,,,,,,,,,,,,,,,,,,,,,,,,,,,,,,,,,,,,,
,,,,,,5e4c0ba01ae5a4000b539387,2024-02-08_13h16.19.675,group3.1-3.2-social-tom,2023.2.2,Win32,60.24096386,65c5074098b851296ff0b7ed,65c541eacb0985acfd94fb15,,,,,,,,,,,,,,,,,,,,,,,,,,,153.7128,156.2881,156.3059,1,audio/Narrative13Situation2.wav,158.3213,,158.3214,188.071,"[[999,2],[999,99],[999,183],[999,266],[999,349],[999,433],[999,516],[999,599],[999,683],[59.7,766],[55,849],[55,933],[55,1016],[55,1099],[55,1183],[55,1266],[55,1349],[55.2,1433],[56.8,1516],[57.8,1599],[59.4,1682],[66.4,1766],[67.3,1849],[67.3,1932],[67.3,2016],[67.3,2099],[67.3,2182],[67.3,2266],[67.3,2349],[67.3,2433],[67.3,2516],[67.3,2599],[67.3,2682],[67.3,2766],[67.3,2849],[67.3,2932],[67.2,3016],[67.2,3099],[67.2,3183],[67.2,3266],[67.2,3350],[67.2,3433],[67.2,3516],[67.2,3599],[67.2,3682],[67.2,3766],[67.2,3849],[67.2,3932],[67.2,4016],[67.2,4099],[67.2,4182],[67.2,4266],[67.2,4349],[67.2,4432],[67.2,4516],[67.2,4599],[67.2,4682],[67.2,4766],[67.2,4849],[67.2,4932],[67.2,5016],[67.2,5099],[67.2,5183],[67.2,5266],[67.2,5349],[67.2,5432],[67.2,5516],[67.2,5599],[67.2,5682],[67.1,5766],[67,5849],[67,5932],[67,6016],[67,6099],[67,6183],[66.4,6266],[66.4,6349],[66.4,6432],[66.4,6516],[66.4,6599],[66.4,6682],[66.4,6766],[66.4,6849],[66.4,6932],[66.4,7016],[66.4,7099],[66.4,7182],[66.4,7266],[66.9,7349],[68.1,7433],[70.7,7516],[71.4,7599],[72,7683],[74.1,7766],[74.9,7849],[77.1,7932],[77.7,8016],[79.7,8099],[79.7,8182],[79.7,8266],[79.7,8349],[79.7,8432],[79.7,8516],[79.7,8599],[79.7,8682],[79.7,8766],[79.7,8849],[80.5,8933],[80.7,9016],[82.1,9099],[83.5,9183],[85.3,9266],[85.3,9349],[85.6,9432],[85.6,9516],[85.9,9599],[85.9,9682],[85.9,9766],[85.9,9849],[85.9,9932],[86,10016],[86,10099],[86,10182],[86,10266],[86,10349],[86,10432],[86,10516],[86,10599],[86,10682],[86,10766],[86,10849],[80.5,10932],[78.5,11016],[77.7,11099],[77.7,11182],[77.8,11266],[80.3,11349],[84.3,11433],[87.8,11516],[89.3,11599],[90.4,11683],[90.4,11766],[90.4,11849],[90.4,11932],[90.7,12016],[92.2,12099],[92.2,12182],[92.2,12266],[92.4,12349],[95.6,12432],[95.7,12516],[95.7,12599],[95.7,12682],[95.7,12766],[98.2,12849],[99.2,12932],[99.2,13016],[99.2,13099],[99.2,13182],[96.1,13266],[86.7,13349],[84.3,14016],[84.8,14099],[86.6,14182],[86.6,14265],[86.6,14349],[87,14432],[87,14516],[87,14599],[87,14682],[87,14766],[87,14849],[87,14932],[87,15016],[87,15099],[87,15182],[87,15266],[87,15349],[87,15432],[87,15516],[85.2,15599],[83.4,15682],[82.3,15766],[81.5,15849],[81.1,15932],[80.6,16016],[70.7,18932],[73.8,19016],[75.2,19099],[77.1,19182],[77.7,19266],[80,19349],[81.8,19432],[82.1,19516],[83.5,19599],[84.4,19682],[84.4,19765],[84.7,19849],[84.7,19932],[84.7,20016],[84.7,20099],[84.7,20182],[84.8,20266],[85.1,20349],[85.1,20432],[85.1,20515],[85.1,20599],[85.1,20682],[85.1,20766],[85.1,20849],[85.1,20932],[85.1,21016],[85.1,21099],[85.1,21182],[85.1,21265],[85.1,21349],[85.1,21432],[85.1,21516],[85.1,21599],[85.1,21682],[85.1,21766],[85.1,21849],[85.1,21932],[85.1,22015],[85.1,22099],[85.1,22182],[85.1,22266],[85.1,22349],[85.2,22432],[85.2,22516],[85.2,22599],[85.2,22682],[85.2,22765],[85.2,22849],[85.2,22932],[85.2,23016],[85.2,23099],[85.2,23182],[85.2,23266],[85.2,23349],[85.2,23432],[85.2,23515],[85.2,23599],[85.2,23682],[85.2,23766],[85.2,23849],[85.2,23932],[85.2,24016],[85.2,24099],[85.2,24182],[85.2,24265],[85.2,24349],[85.2,24432],[85.2,24516],[85.2,24599],[86.4,24682],[87.3,24766],[87.3,24849],[87.9,24932],[89,25016],[89,25099],[89,25182],[89,25265],[89,25349],[89,25432],[89,25516],[89,25599],[89,25682],[89,25765],[89,25849],[89,25932],[89,26015],[89,26099],[89,26182],[89,26266],[89,26349],[89,26432],[89,26515],[89,26599],[89,26682],[89,26765],[89,26849],[89,26932],[89,27016],[89,27099],[89,27182],[89,27265],[89,27349],[89,27432],[89,27516],[89,27599],[89,27682],[89,27765],[89,27849],[89,27932],[89,28015],[89,28098],[89,28182],[89,28265],[89,28349],[89.1,28432],[88.7,28515],[88.7,28599],[88.6,28682],[88.6,28765],[88.6,28849],[88.6,28932],[88.6,29015],[88.6,29099],[88.6,29182],[88.6,29266],[86.4,29349],[83.6,29432],[81,29516],[80.6,29599],[78.2,29682]]",1,0,188.0713,202.6265,85.83334287,7.8546,"[{""rating"":85.83334287007649,""responseTime"":7.854599999994036}]",space,14.0163,,202.6334,Not at all,0,202.636,,,[],,0,0,0,0,1,audio/Narrative13Situation2.wav,audio/Narrative13Situation2.wav,audio/Narrative13Situation2.wav,audio/Narrative13Situation2.wav,2,2,2,2,,,,,,,,,,,,,,,,,,,,,,,,,,,,,,,,,,,,,,,
,,,,,,5e4c0ba01ae5a4000b539387,2024-02-08_13h16.19.675,group3.1-3.2-social-tom,2023.2.2,Win32,60.24096386,65c5074098b851296ff0b7ed,65c541eacb0985acfd94fb15,,,,,,,,,,,,,,,,,,,,,,,,,,,,,202.6363,1,audio/Narrative8Situation1.wav,206.5045,space,206.5046,222.4423,"[[57.4,1332],[57.4,1420],[57.4,1504],[57.4,1581],[57.4,1670],[57.4,1749],[57.4,1832],[57.4,1921],[57.4,1999],[57.4,2087],[57.4,2165],[57.4,2249],[57.4,2336],[57.4,2420],[57.4,2504],[57.4,2588],[57.4,2671],[57.4,2749],[57.4,2836],[57.4,2920],[57.4,3004],[57.4,3082],[57.4,3167],[57.4,3249],[57.4,3336],[57.4,3421],[57.4,3505],[57.4,3588],[57.4,3670],[57.4,3751],[57.4,3831],[57.4,3921],[57.4,4004],[57.4,4087],[57.4,4171],[57.4,4254],[57.4,4335],[57.4,4418],[57.4,4502],[57.4,4588],[57.4,4671],[57.4,4748],[57.4,4832],[57.4,4921],[57.4,5004],[57.4,5087],[57.4,5168],[57.4,5249],[57.4,5337],[57.4,5420],[57.4,5504],[57.4,5587],[57.4,5666],[57.3,5749],[57.3,5837],[57.3,5916],[57.3,6003],[57.3,6087],[69.2,6332],[70.7,6421],[74.3,6499],[76.3,6587],[76.3,6670],[76.3,6748],[76.3,6832],[76.3,6920],[76.6,6998],[78.1,7088],[80.1,7171],[80.9,7254],[82.2,7337],[82.2,7421],[82.2,7498],[82.8,7587],[83.2,7671],[83.8,7754],[84,7838],[84,7915],[84,8004],[84,8082],[84,8165],[84,8249],[84,8332],[84,8420],[84,8504],[84,8588],[84,8665],[84,8754],[84,8838],[84,8915],[84,9003],[84,9087],[85.2,9170],[88,9254],[88,9332],[88,9421],[88,9504],[88,9581],[88,9671],[88,9754],[88,9831],[87.5,9915],[87.1,9998],[85.9,10087],[83.2,10170],[81.5,10254],[78.9,10337],[78.9,10421],[78.9,10504],[78.9,10587],[78.9,10669],[78.9,10754],[78.9,10832],[78.9,10915],[80.9,10998],[85.4,11088],[85.6,11165],[86,11254],[86,11337],[89.5,11420],[90.9,11504],[91,11582],[91,11665],[91,11753],[91.4,11832],[93.1,11920],[93.9,12004],[93.9,12087],[94.7,12170],[94.7,12248],[94.7,12336],[94.7,12420],[94.7,12504],[94.7,12581],[94.7,12670],[94.7,12748],[94.7,12831],[94.7,12920],[94.7,13004],[94.7,13087],[94.7,13165],[94.7,13248],[94.7,13331],[94.7,13421],[94.7,13498],[94.7,13588],[94.7,13665],[94.7,13754],[94.7,13832],[94.7,13915],[94.7,14003],[94.7,14088],[94.7,14165],[94.7,14253],[94.7,14337],[94.7,14415],[94.7,14504],[94.7,14587],[94.7,14670],[94.7,14754],[94.7,14836],[94.7,14915],[94.7,15004],[94.7,15086],[94.7,15165],[94.7,15254],[94.7,15337],[94.7,15415],[94.8,15498],[94.8,15582],[94.8,15665],[94.8,15749],[94.8,15838],[94.8,15919]]",1,0,222.4425,230.6922,92.1875,4.1739,"[{""rating"":92.1875,""responseTime"":4.173900000005943}]",space,7.6997,,230.6923,Partially,50,230.7023,,,[],,0,1,1,1,1,audio/Narrative7Situation1.wav,audio/Narrative8Situation1.wav,audio/Narrative5Situation1.wav,audio/Narrative6Situation1.wav,2,5,5,2,3.8493,,,,,,,,,,,,,,,,,,,,,,,,,,,,,,,,,,,,,,
,,,,,,5e4c0ba01ae5a4000b539387,2024-02-08_13h16.19.675,group3.1-3.2-social-tom,2023.2.2,Win32,60.24096386,65c5074098b851296ff0b7ed,65c541eacb0985acfd94fb15,,,,,,,,,,,,,,,,,,,,,,,,,,,,,230.7024,1,audio/Narrative8Situation2.wav,233.7038,,233.704,243.8414,"[[92.1,171],[91.9,249],[91.9,337],[91.9,420],[91.9,501],[91.9,588],[91.9,671],[91.9,754],[91.9,837],[91.9,921],[91.9,1004],[91.9,1086],[91.9,1170],[91.9,1254],[85.6,1338],[42.3,1421],[60.2,3254],[60.8,3333],[60.8,3415],[60.8,3504],[60.8,3588],[60.8,3665],[63,3754],[69.2,3838],[69.2,3921],[69.2,4004],[70,4087],[71.7,4170],[72.5,4254],[74.2,4338],[74.5,4415],[74.7,4504],[74.7,4587],[74.7,4670],[74.7,4754],[74.7,4832],[74.7,4915],[74.7,4998],[74.7,5088],[74.7,5171],[74.7,5249],[74.7,5337],[74.7,5421],[74.7,5504],[74.7,5588],[74.7,5671],[74.7,5749],[74.7,5838],[74.7,5915],[74.7,5999],[74.7,6082],[74.7,6165],[74.7,6254],[74.7,6337],[74.7,6415],[74.7,6504],[74.7,6587],[74.7,6671],[74.7,6753],[74.7,6837],[74.7,6921],[74.7,6999],[74.7,7082],[74.7,7165],[74.7,7249],[74.7,7337],[74.7,7420],[74.7,7504],[74.7,7582],[74.7,7665],[74.7,7749],[74.7,7832],[74.7,7921],[74.7,8004],[74.7,8087],[74.7,8165],[74.7,8249],[74.7,8337],[74.7,8422],[74.7,8499],[74.7,8587],[74.7,8665],[74.7,8754],[74.7,8838],[74.7,8921],[74.7,8999],[74.7,9086],[74.7,9170],[74.7,9248],[74.7,9332],[74.7,9420],[74.7,9498],[74.7,9582],[74.7,9671],[74.7,9749],[74.7,9838],[74.7,9922],[74.7,10003],[74.7,10087]]",1,0,243.8415,250.1588,28.85417144,4.4943,"[{""rating"":28.854171435038246,""responseTime"":4.4942999999970255}]",space,5.7725,,250.1589,Partially,50,250.16,,,[],,0,2,2,2,1,audio/Narrative7Situation2.wav,audio/Narrative8Situation2.wav,audio/Narrative5Situation2.wav,audio/Narrative6Situation2.wav,3,3,3,3,,,,,,,,,,,,,,,,,,,,,,,,,,,,,,,,,,,,,,,
,,,,,,5e4c0ba01ae5a4000b539387,2024-02-08_13h16.19.675,group3.1-3.2-social-tom,2023.2.2,Win32,60.24096386,65c5074098b851296ff0b7ed,65c541eacb0985acfd94fb15,,,,,,,,,,,,,,,,,,,,,,,,,,,,,250.1602,1,audio/Narrative8Situation3.wav,254.1697,,254.1699,276.5522,"[[29.5,1000],[30.1,1085],[30.1,1170],[30.1,1252],[30.7,1334],[32.8,1415],[33.5,1505],[40.5,1588],[47.6,1672],[51.9,1754],[54.1,1838],[70.5,2922],[69.7,3004],[64.5,3088],[59.1,3172],[58.5,3254],[54.4,3338],[52.6,3416],[42.2,3505],[40.3,3582],[40.3,3665],[40.3,3755],[40.3,3838],[40.3,3920],[39.9,4004],[39.7,4088],[38.6,4172],[32,4254],[30.6,4337],[30.6,4416],[30.6,4504],[30.6,4588],[30.4,4671],[30.4,4749],[30.4,4838],[30.4,4918],[30.4,4999],[30.4,5088],[30.4,5172],[30.4,5249],[30.4,5337],[30.4,5422],[30.4,5504],[30.4,5586],[30.4,5670],[30.4,5749],[30.4,5832],[30.4,5916],[30.4,5999],[30.4,6082],[30.4,6166],[30.4,6254],[30.4,6332],[30.5,6417],[30.5,6505],[30.5,6588],[30.5,6671],[30.5,6754],[31,6833],[43.5,6921],[43.9,7005],[44.5,7082],[45.3,7166],[46.7,7255],[46.9,7338],[47.4,7421],[50.5,7504],[51.6,7588],[52.7,7671],[53.5,7755],[53.7,7838],[53.7,7915],[53.7,7999],[53.7,8088],[53.7,8165],[53.7,8249],[53.7,8333],[53.7,8416],[53.7,8499],[53.7,8583],[60.4,8671],[65.6,8755],[67,8838],[68.5,8921],[73,9005],[77.2,9088],[81.3,9169],[81.5,9254],[81.6,9332],[81.6,9416],[81.6,9499],[81.8,9588],[82.5,9671],[83.1,9754],[83.8,9838],[85.2,9921],[85.2,9999],[85.6,10088],[86.4,10171],[86.9,10250],[87.7,10334],[88,10421],[89.1,10499],[89.1,10588],[89.5,10671],[89.5,10749],[89.5,10832],[89.5,10920],[89.8,11004],[90,11088],[90,11166],[90,11249],[90,11338],[90,11421],[90.1,11499],[90.1,11582],[90.1,11666],[90.1,11749],[90.1,11838],[90.1,11916],[90.1,11999],[90.1,12082],[90.1,12165],[90.1,12254],[90.1,12338],[90.1,12418],[90.1,12499],[90.1,12582],[90.1,12666],[90.1,12755],[90.1,12832],[90.1,12920],[90.1,12999],[90.1,13088],[90.1,13171],[90.1,13249],[89.4,13338],[88.1,13421],[87.6,13499],[87.6,13587],[86.4,13670],[86.4,13754],[86.4,13835],[86.4,13915],[86.4,13999],[86.4,14099],[86.4,14182],[86.4,14265],[86.4,14348],[86.4,14432],[86.4,14515],[86.4,14599],[86.4,14682],[86.4,14765],[86.4,14849],[86.4,14932],[86.4,15015],[86.4,15099],[85.8,15182],[83.3,15265],[79.3,15349],[78.5,15432],[78.5,15515],[78.5,15599],[78.5,15682],[78.5,15765],[78.5,15849],[78.5,15932],[78.5,16016],[78.5,16099],[78.5,16182],[80,16265],[83.5,16349],[86.4,16432],[86.7,16516],[87,16599],[87.6,16682],[87.8,16766],[89,16849],[89.7,16932],[91.5,17015],[91.7,17099],[92.3,17182],[92.3,17265],[92.3,17348],[92.3,17432],[92.3,17515],[92.3,17598],[92.3,17682],[92.3,17765],[93.6,17849],[94.9,17932],[95.3,18016],[96.1,18099],[96.9,18182],[96.9,18265],[96.9,18348],[96.9,18432],[96.9,18515],[96.9,18599],[96.9,18682],[96.9,18765],[96.9,18849],[96.9,18932],[96.9,19015],[96.9,19098],[96.9,19182],[96.9,19265],[96.9,19349],[96.9,19432],[96.9,19515],[96.9,19599],[97.2,19682],[96.7,19765],[96.7,19849],[96.4,19932],[96.4,20015],[96.4,20099],[96.4,20182],[96.4,20265],[96.4,20349],[96.4,20432],[96.4,20515],[96.4,20599],[96.4,20682],[96.4,20765],[96.4,20848],[96.4,20932],[96.4,21015],[96.4,21098],[96.4,21182],[96.4,21265],[96.4,21349],[96.4,21432],[96.4,21515],[96.4,21598],[96.4,21682],[96.4,21765],[96.4,21848],[96.4,21932],[96.4,22015],[96.4,22099],[96.4,22182],[96.4,22265],[96.4,22348]]",1,0,276.5524,281.1737,95.93750636,1.9817,"[{""rating"":95.93750635782878,""responseTime"":1.9817000000029452}]",space,4.0946,,281.1737,Definitely yes,100,281.1757,,,[],,0,3,3,3,1,audio/Narrative7Situation3.wav,audio/Narrative8Situation3.wav,audio/Narrative5Situation3.wav,audio/Narrative6Situation3.wav,8,4,3,5,,,,,,,,,,,,,,,,,,,,,,,,,,,,,,,,,,,,,,,
,,,,,,5e4c0ba01ae5a4000b539387,2024-02-08_13h16.19.675,group3.1-3.2-social-tom,2023.2.2,Win32,60.24096386,65c5074098b851296ff0b7ed,65c541eacb0985acfd94fb15,,,,,,,,,,,,,,,,,,,,,,,,,,,,,281.1758,1,audio/Narrative8Situation4.wav,284.1864,,284.1865,298.3875,"[[94.7,1004],[94.1,1087],[93.6,1171],[93.6,1249],[92,1338],[78.9,1421],[26.5,2421],[27,2504],[27.1,2583],[27.2,2665],[27.6,2748],[27.6,2832],[28,2921],[28,3003],[28,3082],[28,3170],[28,3253],[28,3332],[28,3421],[28,3505],[28,3582],[28,3671],[28,3755],[28,3832],[30.8,3922],[41.2,4000],[44.2,4088],[50.6,4172],[77,4921],[77.9,5004],[78.5,5082],[78.6,5166],[78.6,5254],[78.6,5332],[78.6,5415],[78.6,5498],[78.6,5582],[78.6,5671],[78.6,5753],[78.1,5833],[76.5,5921],[73.5,6005],[72.3,6088],[70.9,6171],[70.4,6248],[70.4,6334],[70.4,6415],[70.4,6498],[70.4,6587],[70.4,6665],[70.4,6748],[70.4,6831],[70.4,6915],[72.9,7004],[76.7,7089],[78.1,7170],[79.6,7255],[82.4,7337],[83.2,7420],[83.5,7504],[83.5,7582],[83.6,7665],[83.6,7754],[83.6,7837],[83.6,7918],[83.6,7998],[83.6,8086],[83.6,8165],[83.6,8253],[83.6,8337],[83.6,8415],[83.6,8498],[83.6,8581],[83.6,8665],[83.6,8749],[83.6,8836],[83.6,8915],[83.6,8998],[83.6,9082],[83.6,9171],[83.6,9248],[83.6,9332],[83.6,9415],[83.6,9503],[83.6,9588],[83.6,9665],[83.6,9748],[83.6,9837],[83.6,9915],[83.6,9998],[82.9,10087],[82.4,10170],[82.4,10248],[82.4,10332],[81.9,10421],[81.9,10498],[81.9,10584],[81.9,10665],[81.9,10748],[81.9,10837],[81.9,10915],[81.9,10998],[81.9,11087],[81.9,11168],[81.9,11248],[81.7,11337],[81.7,11415],[81.7,11499],[81.7,11587],[81.7,11665],[81.7,11754],[81.7,11837],[81.7,11915],[81.7,12004],[81.7,12082],[81.7,12165],[71.1,12255],[66.1,12337],[64.9,12420],[64.9,12498],[64.9,12582],[64.9,12665],[64.9,12748],[64.9,12832],[64.9,12915],[64.9,12998],[64.9,13082],[64.9,13165],[64.9,13249],[64.9,13332],[64.9,13415],[64.9,13502],[68.4,13587],[74.8,13671],[75.4,13753],[78.2,13837],[78.2,13921],[78.2,14004],[78.2,14087],[78.2,14171]]",1,0,298.3876,305.1244,25.10416508,2.6533,"[{""rating"":25.104165077209473,""responseTime"":2.6532999999970457}]",space,6.2004,,305.1244,Partially,50,305.1332,,,[],,0,4,4,4,1,audio/Narrative7Situation4.wav,audio/Narrative8Situation4.wav,audio/Narrative5Situation4.wav,audio/Narrative6Situation4.wav,3,3,1,2,,,,,,,,,,,,,,,,,,,,,,,,,,,,,,,,,,,,,,,
,,,,,,5e4c0ba01ae5a4000b539387,2024-02-08_13h16.19.675,group3.1-3.2-social-tom,2023.2.2,Win32,60.24096386,65c5074098b851296ff0b7ed,65c541eacb0985acfd94fb15,,,,,,,,,,,,,,,,,,,,,,,,,,,,,305.1334,1,audio/Narrative8Situation5.wav,307.1351,,307.1352,315.3684,"[[34,422],[34,505],[34,585],[34,667],[35.4,756],[37.2,833],[37.2,916],[37.2,1000],[37.2,1083],[37.2,1166],[37.2,1250],[37.2,1333],[37.2,1421],[37.2,1500],[37.2,1583],[37.2,1666],[37.2,1755],[37.2,1838],[37.2,1916],[37.2,1999],[37.2,2083],[37.2,2169],[37.2,2256],[37.2,2333],[37.2,2419],[37.2,2500],[37.2,2583],[38.6,2672],[43.5,2750],[46.4,2838],[46.9,2923],[47.2,3000],[47.4,3083],[47.6,3172],[48.4,3255],[48.8,3332],[49.2,3421],[49.5,3505],[49.5,3583],[49.5,3666],[49.5,3749],[49.5,3833],[49.5,3916],[49.5,4005],[49.5,4088],[49.5,4166],[49.5,4249],[49.5,4333],[49.5,4419],[49.5,4505],[49.5,4583],[49.5,4666],[49.5,4750],[49.5,4833],[49.5,4921],[49.5,4999],[49.5,5088],[49.5,5166],[49.5,5255],[49.5,5333],[49.5,5416],[49.5,5499],[49.5,5583],[49.5,5666],[49.5,5749],[49.5,5833],[49.5,5916],[49.5,5999],[49.5,6083],[49.5,6172],[49.5,6249],[49.5,6338],[49.5,6416],[49.5,6502],[49.5,6582],[49.5,6666],[49.5,6750],[49.5,6833],[49.5,6916],[49.5,7000],[49.5,7083],[49.5,7166],[49.5,7253],[49.5,7332],[49.5,7416],[49.5,7499],[49.5,7588],[49.5,7666],[49.5,7750],[49.5,7838],[49.5,7916],[49.5,7999],[49.5,8082],[49.5,8172]]",1,0,315.369,319.3899,26.04166667,2.4713,"[{""rating"":26.041666666666664,""responseTime"":2.4712999999970293}]",space,3.4746,,319.39,Not at all,0,319.3923,,,[],,0,5,5,5,1,audio/Narrative7Situation5.wav,audio/Narrative8Situation5.wav,audio/Narrative5Situation5.wav,audio/Narrative6Situation5.wav,5,2,5,2,,,,,,,,,,,,,,,,,,,,,,,,,,,,,,,,,,,,,,,
,,,,,,5e4c0ba01ae5a4000b539387,2024-02-08_13h16.19.675,group3.1-3.2-social-tom,2023.2.2,Win32,60.24096386,65c5074098b851296ff0b7ed,65c541eacb0985acfd94fb15,,,,,,,,,,,,,,,,,,,,,,,,,,,,,319.3926,1,audio/Narrative8Situation6.wav,321.403,,321.4032,327.8863,"[[29.8,753],[35.2,832],[41.5,920],[41.5,998],[42.4,1087],[43,1165],[45.1,1254],[46.4,1332],[50.3,1421],[51.1,1499],[52,1581],[52,1669],[52,1748],[52,1838],[52,1914],[52.1,2003],[52.1,2084],[52.1,2164],[52.1,2253],[51.1,2337],[49.1,2421],[49.1,2503],[49.1,2581],[49.1,2665],[49.1,2748],[49.1,2831],[49.1,2915],[49.2,2999],[49.9,3081],[49.9,3165],[49.9,3253],[49.9,3331],[49.9,3420],[49.9,3498],[49.9,3582],[49.9,3665],[49.9,3754],[49.9,3831],[49.9,3914],[49.9,3998],[49.9,4086],[49.9,4170],[50,4253],[50,4337],[50,4420],[50,4498],[52.4,4587],[57,4669],[57.6,4748],[58.4,4831],[75.3,5670],[75.3,5748],[75.3,5831],[75.3,5915],[75.3,5999],[75.3,6081],[75.3,6170],[74.1,6253],[73,6337],[72.8,6414]]",1,0,327.8867,331.1565,64.37500318,1.9703,"[{""rating"":64.3750031789144,""responseTime"":1.970300000011946}]",space,2.7263,,331.1566,Definitely yes,100,331.1585,,,[],,0,6,6,6,1,audio/Narrative7Situation6.wav,audio/Narrative8Situation6.wav,audio/Narrative5Situation6.wav,audio/Narrative6Situation6.wav,3,2,3,2,,,,,,,,,,,,,,,,,,,,,,,,,,,,,,,,,,,,,,,
,,,,,,5e4c0ba01ae5a4000b539387,2024-02-08_13h16.19.675,group3.1-3.2-social-tom,2023.2.2,Win32,60.24096386,65c5074098b851296ff0b7ed,65c541eacb0985acfd94fb15,,,,,,,,,,,,,,,,,,,,,,,,,,,,,331.1588,1,audio/Narrative8Situation7.wav,334.1682,,334.1684,346.2737,"[[64.1,1588],[63.1,1666],[62.8,1754],[62.2,1832],[62,1916],[59,2005],[54.5,2084],[48.8,2172],[48.8,2249],[48.8,2332],[48.8,2416],[48.8,2499],[48.8,2582],[48.8,2666],[48.9,2750],[49.4,2832],[49.5,2922],[49.5,3005],[49.5,3082],[49.5,3166],[49.5,3249],[49.5,3338],[49.5,3421],[49.5,3505],[49.5,3582],[49.5,3666],[49.7,3755],[49.7,3832],[49.7,3916],[49.7,3999],[49.7,4088],[49.7,4166],[49.7,4249],[49.7,4332],[49.7,4421],[49.7,4504],[49.7,4582],[49.7,4666],[49.7,4749],[49.7,4832],[49.8,4921],[50.8,5005],[52.6,5087],[55.4,5171],[55.4,5249],[55.9,5332],[56.1,5421],[56.1,5499],[56.1,5585],[56.1,5666],[56.1,5749],[56.1,5833],[54.4,5921],[47,6005],[40.7,6089],[40.7,6170],[40.7,6255],[40.7,6338],[40.7,6416],[40.5,6505],[44.4,6588],[48.5,6673],[51,6754],[51,6838],[53.4,6922],[75.9,7338],[76.3,7421],[76.4,7499],[76.4,7582],[76.4,7671],[76.4,7749],[75.9,7837],[74.9,7921],[72.6,8005],[69.5,8082],[67.5,8171],[59,8255],[57.9,8338],[56.8,8416],[56.8,8499],[56,8589],[53.6,8666],[50.4,8754],[50.1,8837],[50.1,8916],[50.1,8999],[50.1,9082],[50.1,9166],[50.1,9249],[55,9338],[60,9417],[65,9504],[67.1,9588],[70.2,9672],[74,9755],[76.9,9838],[78.6,9916],[79.4,9999],[80.3,10087],[80.4,10171],[80.4,10249],[80.4,10338],[80.6,10420],[80.6,10499],[79.9,10582],[79.6,10666],[79.6,10749],[79.6,10832],[79.5,10920],[79.5,10999],[79.5,11082],[79.7,11165],[79.9,11249],[80.2,11338],[80.2,11416],[80.2,11502],[80.2,11582],[80.2,11666],[80.2,11749],[80.2,11832],[80,11918],[80,11999],[79.6,12083]]",1,0,346.2738,349.4566,75.41666826,1.7502,"[{""rating"":75.41666825612386,""responseTime"":1.7502000000030193}]",space,2.6497,,349.4567,Not at all,0,349.4583,,,[],,0,7,7,7,1,audio/Narrative7Situation7.wav,audio/Narrative8Situation7.wav,audio/Narrative5Situation7.wav,audio/Narrative6Situation7.wav,5,3,4,5,,,,,,,,,,,,,,,,,,,,,,,,,,,,,,,,,,,,,,,
,,,,,,5e4c0ba01ae5a4000b539387,2024-02-08_13h16.19.675,group3.1-3.2-social-tom,2023.2.2,Win32,60.24096386,65c5074098b851296ff0b7ed,65c541eacb0985acfd94fb15,,,,,,,,,,,,,,,,,,,,,,,,,,,,,349.4584,1,audio/Narrative8Situation8.wav,352.4677,,352.4679,365.3398,"[[999,1],[999,98],[999,170],[999,250],[999,333],[999,416],[999,505],[999,587],[59.8,672],[57.1,755],[56.8,834],[56.5,922],[56.1,1001],[55.6,1089],[54.5,1173],[54.1,1255],[54.1,1333],[54.1,1421],[54.1,1502],[54.1,1583],[54.1,1666],[54.1,1755],[54,1833],[54,1916],[54,1999],[54,2083],[54,2166],[54,2249],[54,2332],[54,2416],[54,2499],[54,2583],[54,2666],[54,2755],[54,2833],[54,2916],[54,2999],[54,3088],[54,3171],[54,3249],[54,3333],[54,3416],[54,3502],[54,3588],[54,3666],[54,3749],[53.7,3833],[53.7,3916],[53.7,4005],[52.6,4083],[51.4,4172],[48.3,4255],[48.3,4333],[48.3,4422],[48.3,4499],[48.3,4583],[48.3,4666],[48.3,4749],[48.3,4832],[48.8,4921],[48.8,4999],[48.8,5089],[48.8,5170],[42,5255],[36.6,5338],[36.3,5420],[36,5499],[36,5583],[36,5666],[36,5750],[38.2,5839],[42.3,5921],[45.1,5999],[47.2,6088],[48.2,6171],[49.5,6254],[50.5,6339],[50.8,6422],[50.8,6499],[50.8,6588],[50.8,6666],[50.8,6749],[50.6,6838],[50.3,6916],[50.3,7004],[50.3,7082],[50,7171],[50,7249],[50,7333],[50,7416],[50,7502],[50,7588],[50,7665],[50,7749],[50,7833],[50,7921],[50,7999],[49.7,8089],[49.7,8166],[49.7,8249],[49.7,8338],[49.7,8416],[49.7,8504],[49.7,8583],[49.7,8672],[49.7,8749],[49.7,8833],[49.7,8916],[49.7,8999],[49.7,9083],[49.7,9166],[49.7,9249],[49.7,9332],[49.7,9423],[49.7,9499],[49.7,9586],[49.7,9666],[49.7,9749],[49.7,9838],[49.7,9915],[49.7,10004],[49.7,10082],[49.7,10166],[49.7,10249],[49.7,10332],[49.7,10422],[49.7,10499],[49.7,10583],[49.7,10666],[49.7,10749],[49.7,10832],[49.7,10916],[49.7,10999],[49.7,11088],[49.7,11165],[49.7,11249],[49.7,11338],[49.7,11416],[49.7,11499],[49.7,11587],[49.7,11665],[49.7,11749],[49.7,11832],[49.7,11916],[48.8,11999]]",1,0,365.3399,372.1682,41.77083174,5.5084,"[{""rating"":41.770831743876144,""responseTime"":5.508400000005963}]",space,6.2872,,372.1685,Not at all,0,372.1705,,,[],,0,8,8,8,1,audio/Narrative7Situation8.wav,audio/Narrative8Situation8.wav,audio/Narrative5Situation8.wav,audio/Narrative6Situation8.wav,2,3,3,5,,,,,,,,,,,,,,,,,,,,,,,,,,,,,,,,,,,,,,,
,,,,,,5e4c0ba01ae5a4000b539387,2024-02-08_13h16.19.675,group3.1-3.2-social-tom,2023.2.2,Win32,60.24096386,65c5074098b851296ff0b7ed,65c541eacb0985acfd94fb15,,,,,,,,,,,,,,,,,,,,,,,,,,,,,372.1707,1,audio/Narrative8Situation9.wav,375.1838,,375.1839,386.5051,"[[41.5,1505],[40.9,1588],[40.4,1671],[39.8,1755],[39.5,1834],[39.4,1917],[38.3,2006],[37.6,2088],[37.3,2172],[37.2,2254],[37.2,2333],[37.2,2416],[37.4,2500],[37.9,2589],[38,2666],[38,2754],[38.2,2834],[38.5,2922],[38.5,2999],[38.9,3083],[39.8,3172],[41.2,3256],[42.1,3334],[42.7,3416],[43.8,3506],[44.2,3583],[44.2,3671],[44.2,3750],[44.2,3833],[44.2,3921],[47,4005],[49.5,4089],[50.5,4172],[51.9,4250],[53.1,4339],[53.6,4422],[54,4500],[54,4582],[54,4666],[54,4754],[54,4833],[54,4916],[54,5002],[54,5083],[54,5166],[54,5255],[54,5336],[54,5421],[54,5500],[54.2,5588],[60.2,5672],[62.5,5755],[63.2,5834],[64,5922],[64.4,6005],[65.2,6083],[66.2,6172],[66.9,6255],[67.1,6333],[67.1,6416],[67.1,6506],[67.1,6583],[67.1,6666],[67.1,6750],[67.1,6838],[67.1,6916],[67.1,6999],[67.1,7082],[67.1,7166],[67.1,7250],[67.1,7333],[67.1,7416],[67.1,7500],[67.1,7589],[67.1,7666],[67.1,7749],[67.1,7832],[67.1,7921],[67.1,8000],[67.1,8083],[67.1,8171],[67.1,8255],[67.1,8332],[67.1,8416],[67.1,8500],[67.1,8582],[67.1,8666],[67.1,8755],[67.1,8832],[67.5,8916],[72.3,9000],[74,9083],[74.5,9171],[74.7,9255],[74.7,9338],[74.7,9421],[74.7,9505],[74.7,9589],[74.7,9666],[74.7,9754],[74.7,9838],[74.7,9922],[74.7,10000],[74.7,10083],[74.7,10171],[74.7,10254],[74.7,10333],[74.7,10416],[74.7,10505],[74.7,10583],[74.7,10666],[74.7,10750],[74.7,10833],[74.7,10921],[74.7,11004],[74.7,11088],[74.7,11166],[74.7,11252]]",1,0,386.5052,389.0006,74.68750477,0.8783,"[{""rating"":74.68750476837158,""responseTime"":0.8782999999970116}]",space,1.9504,,389.0008,Partially,50,389.0035,,,[],,0,9,9,9,1,audio/Narrative7Situation9.wav,audio/Narrative8Situation9.wav,audio/Narrative5Situation9.wav,audio/Narrative6Situation9.wav,2,3,3,4,,,,,,,,,,,,,,,,,,,,,,,,,,,,,,,,,,,,,,,
,,,,,,5e4c0ba01ae5a4000b539387,2024-02-08_13h16.19.675,group3.1-3.2-social-tom,2023.2.2,Win32,60.24096386,65c5074098b851296ff0b7ed,65c541eacb0985acfd94fb15,,,,,,,,,,,,,,,,,,,,,,,,,,,,,389.0038,1,audio/Narrative7Situation1.wav,391.0175,,391.0176,446.9221,"[[999,1],[999,82],[999,166],[999,254],[999,332],[999,421],[999,499],[999,582],[999,666],[999,749],[999,838],[999,920],[999,999],[999,1082],[999,1171],[999,1249],[999,1338],[999,1415],[999,1504],[999,1588],[999,1666],[999,1749],[999,1838],[999,1915],[999,1999],[999,2082],[999,2168],[999,2249],[999,2332],[999,2421],[999,2504],[999,2588],[999,2672],[55.3,2755],[54,2837],[52.4,2921],[50.9,3004],[49.8,3088],[49.4,3167],[49.3,3254],[49.3,3332],[49.3,3415],[49.2,3504],[49.2,3582],[49.2,3670],[49.2,3750],[49.2,3832],[49.2,3915],[49.2,4005],[49.2,4082],[49.2,4166],[49.2,4249],[49.2,4332],[49.2,4416],[49.2,4499],[49.2,4582],[49.2,4671],[49.2,4749],[49.2,4835],[49.2,4915],[49.2,4999],[49.2,5088],[49.2,5166],[49.2,5249],[49.2,5336],[49.2,5415],[49.2,5504],[49.2,5582],[49.2,5671],[49.2,5749],[49.2,5837],[49.2,5915],[49.2,6004],[49.2,6082],[49.2,6170],[49.2,6249],[49.2,6338],[49.2,6415],[49.2,6499],[49.2,6588],[49.2,6666],[49.2,6749],[49.2,6832],[49.2,6915],[49.2,6999],[49.2,7082],[49.2,7171],[49.2,7255],[49.2,7332],[49.2,7415],[49.2,7499],[49.2,7586],[49.2,7665],[49.2,7749],[49.2,7832],[49.2,7918],[49.2,7999],[49.7,8083],[54,8167],[54.9,8255],[55.5,8338],[55.7,8420],[55.9,8499],[57.1,8588],[58.2,8666],[59.7,8755],[60.4,8838],[60.6,8921],[60.6,8999],[60.6,9082],[60.6,9165],[60.6,9249],[60.6,9332],[60.6,9415],[60.6,9499],[60.6,9582],[60.6,9671],[60.6,9749],[60.6,9837],[60.6,9915],[60.6,9999],[60.6,10087],[60.6,10171],[60.6,10249],[60.6,10341],[60.6,10449],[60.6,10699],[60.6,10782],[60.6,10865],[60.6,10949],[60.6,11032],[60.6,11115],[60.6,11199],[60.6,11282],[60.6,11365],[60.6,11449],[60.6,11533],[60.6,11615],[60.6,11699],[60.6,11782],[60.6,11865],[60.6,11949],[60.6,12032],[60.6,12115],[60.6,12199],[60.6,12282],[60.6,12366],[60.6,12448],[60.6,12532],[60.8,12615],[63.4,12699],[65.8,12782],[67,12865],[67.7,12949],[69,13032],[71,13116],[72.4,13199],[73.2,13282],[73.9,13365],[74.2,13448],[76.7,13532],[80.6,13615],[82.6,13699],[82.7,13782],[82.7,13865],[82.7,13948],[82.7,14032],[82.7,14115],[82.7,14199],[82.7,14282],[82.7,14365],[82.7,14449],[82.7,14532],[82.7,14615],[82.7,14699],[82.7,14782],[82.7,14865],[82.7,14949],[82.7,15032],[82.7,15115],[82.7,15199],[82.7,15282],[82.7,15365],[84,15449],[84.9,15532],[85.4,15615],[86.1,15699],[86.7,15782],[87.4,15865],[88.3,15949],[88.9,16032],[89.1,16115],[89.4,16199],[89.4,16282],[89.4,16365],[89.4,16448],[89.4,16532],[89.4,16615],[89.4,16699],[89.4,16782],[89.4,16865],[89.4,16948],[89.4,17032],[89.4,17115],[89.4,17199],[89.4,17282],[89.4,17365],[89.4,17448],[89.4,17532],[89.4,17615],[89.4,17699],[89.4,17782],[89.4,17865],[89.4,17949],[89.4,18032],[89.4,18115],[89.4,18198],[89.4,18282],[89.4,18365],[89.4,18449],[89.4,18532],[89.4,18615],[89.4,18699],[89.4,18782],[89.4,18865],[89.4,18948],[89.4,19032],[89.4,19115],[89.4,19198],[89.4,19282],[89.4,19365],[89.4,19448],[89.4,19532],[89.4,19615],[89.4,19698],[89.4,19782],[89.4,19865],[89.4,19948],[89.4,20032],[89.4,20115],[89.4,20198],[89.4,20282],[89.4,20365],[89.4,20448],[89.4,20532],[89.4,20615],[89.4,20699],[89.4,20782],[89.4,20865],[89.4,20948],[89.4,21032],[89.4,21115],[89.4,21198],[89.4,21282],[89.4,21365],[89.4,21448],[89.4,21532],[89.4,21615],[89.4,21698],[89.4,21782],[89.4,21865],[89.4,21948],[89.4,22032],[89.4,22115],[89.4,22198],[89.4,22282],[89.4,22365],[89.4,22449],[89.4,22532],[89.4,22615],[89.4,22698],[89.4,22782],[89.4,22865],[89.4,22948],[89.4,23032],[89.4,23115],[89.4,23198],[89.4,23282],[89.4,23365],[89.4,23448],[89.4,23532],[89.4,23615],[89.4,23698],[89.4,23782],[89.4,23865],[89.4,23948],[89.4,24032],[89.4,24115],[89.4,24198],[89.4,24282],[89.4,24365],[89.4,24448],[89.4,24532],[89.4,24615],[89.4,24698],[89.4,24782],[89.4,24865],[89.4,24949],[89.4,25032],[89.4,25115],[89.4,25198],[89.4,25281],[89.4,25365],[89.4,25448],[89.4,25532],[89.4,25615],[89.4,25698],[89.4,25782],[89.4,25865],[89.4,25948],[89.4,26035],[89.4,26115],[89.4,26198],[89.4,26284],[89.4,26365],[89.4,26449],[89.4,26532],[89.4,26615],[89.4,26699],[89.4,26781],[89.4,26871],[89.4,26951],[89.4,27032],[89.4,27115],[89.4,27199],[89.4,27282],[89.4,27365],[89.4,27453],[89.4,27537],[89.4,27620],[89.4,27704],[89.4,27782],[89.4,27865],[89.4,27949],[89.4,28032],[89.4,28120],[89.4,28198],[89.4,28281],[89.4,28370],[89.4,28448],[89.4,28535],[89.4,28615],[89.4,28699],[89.4,28788],[89.4,28870],[89.4,28948],[89.4,29031],[89.4,29120],[89.4,29204],[89.4,29282],[89.4,29365],[89.4,29449],[89.4,29537],[89.4,29620],[89.4,29702],[89.4,29781],[89.4,29865],[89.4,29954],[89.4,30037],[89.4,30121],[89.4,30204],[89.4,30282],[89.4,30365],[89.4,30451],[89.4,30532],[89.4,30615],[89.4,30698],[89.4,30787],[89.4,30865],[89.4,30949],[89.4,31037],[89.4,31115],[89.4,31199],[89.4,31282],[89.4,31365],[89.4,31453],[89.4,31531],[89.4,31618],[89.4,31698],[89.4,31782],[89.4,31871],[89.4,31949],[89.4,32032],[89.4,32115],[89.4,32202],[89.4,32287],[89.4,32370],[89.4,32448],[89.4,32532],[89.4,32621],[89.4,32699],[89.4,32786],[89.4,32870],[89.4,32948],[89.4,33036],[89.4,33118],[89.4,33205],[89.4,33282],[89.4,33370],[89.4,33448],[89.4,33532],[89.4,33620],[89.4,33703],[89.4,33786],[89.4,33865],[89.4,33954],[89.4,34032],[89.4,34115],[89.4,34204],[89.4,34282],[89.4,34365],[89.4,34452],[89.4,34531],[89.4,34615],[89.4,34703],[89.4,34782],[89.4,34871],[89.4,34948],[89.4,35031],[89.4,35120],[89.4,35198],[89.4,35281],[89.4,35370],[89.4,35448],[89.4,35531],[89.4,35615],[89.4,35701],[89.4,35782],[89.4,35865],[89.4,35949],[89.4,36036],[89.4,36115],[89.4,36198],[89.4,36282],[89.4,36369],[89.4,36454],[89.4,36531],[89.4,36615],[89.4,36704],[89.4,36781],[89.4,36867],[89.4,36948],[89.4,37032],[89.4,37120],[89.4,37198],[89.4,37282],[89.4,37370],[89.4,37448],[89.4,37534],[89.4,37615],[89.4,37704],[89.4,37781],[89.4,37870],[89.4,37954],[89.4,38032],[89.4,38115],[89.4,38198],[89.4,38282],[89.4,38365],[89.4,38454],[89.4,38532],[89.4,38620],[89.4,38698],[89.4,38787],[89.4,38865],[89.4,38954],[89.4,39037],[89.4,39115],[89.4,39204],[89.4,39282],[89.4,39368],[89.4,39453],[89.4,39537],[89.4,39615],[89.4,39704],[89.4,39782],[89.4,39865],[89.4,39948],[89.4,40032],[89.4,40115],[89.4,40199],[89.4,40287],[89.4,40365],[89.4,40449],[89.4,40537],[89.4,40621],[89.4,40698],[89.4,40781],[89.4,40864],[89.4,40948],[89.4,41032],[89.4,41119],[89.4,41198],[89.4,41287],[89.4,41369],[89.4,41448],[89.4,41538],[89.4,41615],[89.4,41698],[89.4,41781],[89.4,41870],[89.4,41948],[89.4,42037],[89.4,42115],[89.4,42198],[89.4,42286],[89.4,42365],[89.4,42454],[89.4,42537],[89.4,42620],[89.4,42698],[89.4,42782],[89.4,42864],[89.4,42953],[89.4,43032],[89.4,43118],[89.4,43198],[89.4,43281],[89.4,43365],[89.4,43449],[89.4,43534],[89.4,43620],[89.4,43704],[89.4,43781],[89.4,43869],[89.4,43954],[89.4,44031],[89.4,44119],[89.4,44198],[89.4,44287],[89.4,44365],[89.4,44448],[89.4,44537],[89.4,44615],[89.4,44698],[89.4,44781],[89.4,44865],[89.4,44948],[89.4,45031],[89.4,45120],[89.4,45198],[89.4,45286],[89.4,45370],[90,45449],[90.6,45536],[91,45620],[91.5,45703],[91.7,45781],[92,45870],[92.2,45948],[92.7,46037],[93.2,46119],[93.6,46205],[94.3,46282],[94.8,46371],[95.3,46448],[95.8,46532],[96.6,46621],[96.9,46704],[97.2,46781],[97.5,46865],[97.9,46954],[98.2,47037],[98.4,47115],[98.4,47198],[98.4,47282],[98.4,47365],[98.4,47448],[98.4,47537],[98.4,47615],[98.4,47698],[98.4,47786],[98.4,47865],[98.4,47948],[98.4,48031],[98.4,48120],[98.4,48198],[98.4,48286],[98.4,48365],[98.4,48454],[98.4,48537],[98.4,48615],[98.4,48698],[98.4,48786],[98.4,48864],[98.4,48954],[98.4,49031],[98.4,49115],[98.4,49198],[98.4,49281],[98.4,49369],[98.4,49453],[98.4,49531],[98.4,49615],[98.4,49698],[98.4,49787],[98.4,49865],[98.4,49948],[98.4,50031],[98.4,50114],[98.4,50201],[98.4,50281],[98.4,50370],[98.4,50448],[98.4,50531],[98.4,50615],[98.4,50698],[98.4,50781],[98.4,50864],[98.4,50948],[98.4,51031],[98.4,51119],[98.4,51198],[98.4,51287],[98.4,51365],[98.4,51448],[98.4,51536],[98.4,51620],[98.4,51698],[98.4,51781],[98.4,51865],[98.4,51952],[98.4,52032],[98.4,52115],[98.4,52203],[98.4,52281],[98.4,52370],[98.3,52461],[98.3,52531],[98.3,52620],[98.3,52703],[98.3,52781],[98.3,52865],[98.3,52951],[98.3,53031],[98.3,53117],[98.3,53198],[98.3,53281],[98.3,53370],[98.3,53448],[98.3,53534],[98.3,53615],[98.3,53698],[98.3,53781],[98.3,53870],[98.3,53948],[98.3,54037],[98.3,54115],[98.3,54198],[98.3,54281],[98.3,54370],[98.3,54452],[98.3,54531],[98.3,54615],[98.3,54698],[98.3,54781],[98.3,54865],[98.3,54948],[98.3,55036],[98.3,55120],[98.3,55204],[98.3,55281],[98,55365],[98,55453],[98,55531],[98,55615],[98,55698],[98,55781],[98,55870]]",1,0,446.9223,448.4167,95.93750636,1.1832,"[{""rating"":95.93750635782878,""responseTime"":1.183200000003012}]",space,0.9597,,448.417,Not at all,0,448.4196,,,[],,0,10,10,10,1,audio/Narrative8Situation1.wav,audio/Narrative7Situation1.wav,audio/Narrative6Situation1.wav,audio/Narrative5Situation1.wav,5,2,2,5,,,,,,,,,,,,,,,,,,,,,,,,,,,,,,,,,,,,,,,
,,,,,,5e4c0ba01ae5a4000b539387,2024-02-08_13h16.19.675,group3.1-3.2-social-tom,2023.2.2,Win32,60.24096386,65c5074098b851296ff0b7ed,65c541eacb0985acfd94fb15,,,,,,,,,,,,,,,,,,,,,,,,,,,,,448.4197,1,audio/Narrative7Situation2.wav,451.433,,451.4331,458.9215,"[[91.4,6262],[84.8,6338],[75.9,6421],[75.9,6498],[75.9,6587],[75.9,6665],[75.9,6749],[75.9,6832],[74.4,6921],[72.1,7005],[70.1,7088],[68.9,7171],[67.9,7255],[67.1,7338],[65.8,7421]]",1,0,458.9216,460.7551,61.25000318,1.3026,"[{""rating"":61.25000317891439,""responseTime"":1.3026000000089084}]",space,1.2839,,460.7552,Not at all,0,500.9377,0,40.1818,"[{""rating"":0,""responseTime"":40.181799999997}]",space,0,11,11,11,1,audio/Narrative8Situation2.wav,audio/Narrative7Situation2.wav,audio/Narrative6Situation2.wav,audio/Narrative5Situation2.wav,3,3,3,3,,,27.5878,,,,,,,,,,,,,,,,,,,,,,,,,,,,,,,,,,,,
,,,,,,5e4c0ba01ae5a4000b539387,2024-02-08_13h16.19.675,group3.1-3.2-social-tom,2023.2.2,Win32,60.24096386,65c5074098b851296ff0b7ed,65c541eacb0985acfd94fb15,,,,,,,,,,,,,,,,,,,,,,,,,,,,,500.9379,1,audio/Narrative7Situation3.wav,508.9484,,508.9485,518.2037,"[[999,8],[999,88],[999,171],[999,249],[999,333],[999,417],[999,499],[999,582],[999,666],[999,749],[999,833],[999,916],[999,1005],[999,1088],[999,1171],[999,1249],[999,1338],[999,1416],[999,1499],[999,1583],[999,1672],[999,1749],[999,1832],[999,1916],[999,1999],[999,2083],[999,2166],[999,2249],[999,2338],[999,2416],[999,2499],[999,2583],[999,2665],[999,2755],[999,2833],[999,2916],[999,2999],[999,3082],[999,3168],[999,3254],[999,3332],[999,3421],[999,3499],[999,3582],[999,3666],[999,3749],[999,3838],[999,3916],[999,3999],[999,4082],[999,4171],[999,4249],[999,4333],[999,4416],[999,4499],[999,4583],[999,4666],[999,4749],[999,4832],[999,4915],[999,4999],[999,5082],[999,5169],[999,5249],[999,5333],[999,5416],[999,5499],[999,5582],[999,5666],[999,5749],[999,5832],[999,5921],[999,5999],[999,6082],[999,6166],[999,6254],[999,6338],[999,6421],[999,6499],[999,6591],[999,6665],[999,6755],[46.5,6846],[47.1,6922],[48.3,7005],[49.1,7082],[49.1,7166],[49.1,7254],[49.1,7332],[51.1,7416],[52.1,7504],[52.1,7582],[52.7,7672],[53.9,7756],[54.1,7833],[54.2,7916],[54.5,8005],[55.6,8088],[55.6,8166],[55.6,8249],[55.6,8332],[55.6,8422],[55.6,8502],[55.6,8582],[55.6,8672],[55.6,8749],[55.6,8838],[55.6,8922],[55.6,8999],[55.6,9088],[55.7,9172],[55.7,9255]]",1,0,518.2038,523.4315,30.10416826,4.2364,"[{""rating"":30.104168256123863,""responseTime"":4.236400000006029}]",space,4.6936,,523.4318,Definitely yes,100,523.4347,,,[],,0,12,12,12,1,audio/Narrative8Situation3.wav,audio/Narrative7Situation3.wav,audio/Narrative6Situation3.wav,audio/Narrative5Situation3.wav,4,8,5,3,,,,,,,,,,,,,,,,,,,,,,,,,,,,,,,,,,,,,,,
,,,,,,5e4c0ba01ae5a4000b539387,2024-02-08_13h16.19.675,group3.1-3.2-social-tom,2023.2.2,Win32,60.24096386,65c5074098b851296ff0b7ed,65c541eacb0985acfd94fb15,,,,,,,,,,,,,,,,,,,,,,,,,,,,,523.4349,1,audio/Narrative7Situation4.wav,526.4482,,526.4484,538.182,[],1,0,538.1825,544.6149,47.49999841,5.3382,"[{""rating"":47.4999984105428,""responseTime"":5.338200000002985}]",space,5.8931,,544.6151,Not at all,0,544.6177,,,[],,0,13,13,13,1,audio/Narrative8Situation4.wav,audio/Narrative7Situation4.wav,audio/Narrative6Situation4.wav,audio/Narrative5Situation4.wav,3,3,2,1,,,,,,,,,,,,,,,,,,,,,,,,,,,,,,,,,,,,,,,
,,,,,,5e4c0ba01ae5a4000b539387,2024-02-08_13h16.19.675,group3.1-3.2-social-tom,2023.2.2,Win32,60.24096386,65c5074098b851296ff0b7ed,65c541eacb0985acfd94fb15,,,,,,,,,,,,,,,,,,,,,,,,,,,,,544.6178,1,audio/Narrative7Situation5.wav,549.6312,,549.6314,558.1139,"[[46.1,3255],[44.9,3338],[44,3421],[43.9,3504],[43.6,3588],[43.3,3665],[43.3,3749],[43.3,3832],[43.3,3915],[43.3,3999],[43.3,4082],[43.3,4165],[43.3,4249],[43.3,4332],[43.3,4415],[43.3,4498],[43.3,4582],[43.3,4665],[43.3,4749],[43.3,4832],[43.3,4915],[43.3,4999],[43.3,5087],[43.3,5170],[43.3,5254],[43.3,5338],[43.3,5420],[43.3,5499],[43.3,5582],[43.3,5665],[43.3,5754],[43.3,5832],[43.3,5921],[43.3,5999],[43.3,6087],[43.3,6165],[43.3,6249],[43.3,6338],[43.3,6415],[43.3,6498],[43.3,6582],[43.3,6665],[43.3,6749],[43.3,6832],[43.3,6915],[43.3,6999],[43.3,7085],[43.3,7170],[43.3,7254],[43.3,7338],[43.3,7415],[43.3,7504],[43.3,7588],[43.3,7665],[43.3,7749],[43.3,7832],[43.3,7915],[43.3,7998],[43.3,8082],[43.3,8165],[43.3,8249],[43.3,8338],[43.3,8415]]",1,0,558.1143,566.4868,19.58333651,6.8485,"[{""rating"":19.583336512247723,""responseTime"":6.8484999999999445}]",space,7.8326,,566.4869,Partially,50,566.4886,,,[],,0,14,14,14,1,audio/Narrative8Situation5.wav,audio/Narrative7Situation5.wav,audio/Narrative6Situation5.wav,audio/Narrative5Situation5.wav,2,5,2,5,,,,,,,,,,,,,,,,,,,,,,,,,,,,,,,,,,,,,,,
,,,,,,5e4c0ba01ae5a4000b539387,2024-02-08_13h16.19.675,group3.1-3.2-social-tom,2023.2.2,Win32,60.24096386,65c5074098b851296ff0b7ed,65c541eacb0985acfd94fb15,,,,,,,,,,,,,,,,,,,,,,,,,,,,,566.4888,1,audio/Narrative7Situation6.wav,569.4968,,569.4969,579.497,"[[14.5,667],[22.6,754],[25.7,839],[27,916],[27.5,1000],[27.5,1088],[27.5,1166],[27.5,1255],[27.6,1338],[26.6,1422],[26.6,1499],[26.6,1589],[28.7,1672],[35,1755],[87.3,2505],[85.7,2589],[85.7,2666],[85.6,2750],[85.4,2837],[84.8,2916],[84.1,3005],[82.5,3088],[81.9,3172],[79.2,3255],[79.2,3333],[79.2,3416],[79.2,3500],[79.2,3583],[79.2,3666],[79.2,3749],[78.7,3834],[77.5,3917],[72.2,4005],[70.8,4083],[70.6,4167],[70.6,4250],[70.6,4333],[70.6,4417],[70.6,4500],[70.6,4583],[70.6,4667],[70.6,4754],[70.6,4833],[70.6,4917],[70.6,4999],[70.6,5083],[70.4,5167],[70.4,5255],[70.4,5338],[70.4,5416],[70.4,5505],[70,5588],[69.7,5672],[69.7,5749],[69.7,5838],[69.7,5920],[69.7,6000],[69.7,6088],[69.7,6170],[69.7,6255],[69.7,6333],[69.7,6420],[69.7,6505],[69.7,6588],[69.7,6672],[69.7,6753],[69.7,6833],[69.7,6922],[69.6,6999],[69.6,7083],[70.4,7172],[70.8,7249],[70.8,7338],[70.8,7416],[70.8,7505],[70.8,7583],[70.8,7666],[70.8,7750],[70.8,7839],[71,7916],[71,7999],[71,8088],[71,8166],[71,8249],[71,8333],[71,8416],[71.1,8505],[69.8,8589],[68,8670],[67.3,8750],[67.3,8832],[67.3,8916],[66.2,9005],[65.9,9088],[65.6,9166],[65.6,9252],[65.6,9338],[65.6,9421],[65.6,9504],[65.6,9583],[65.6,9666],[65.6,9749],[65.6,9833],[65.6,9916],[65.6,9999]]",1,0,579.4975,583.0025,65.52083492,1.5046,"[{""rating"":65.52083492279053,""responseTime"":1.5045999999940705}]",space,2.968,,583.0025,Definitely yes,100,583.0047,,,[],,0,15,15,15,1,audio/Narrative8Situation6.wav,audio/Narrative7Situation6.wav,audio/Narrative6Situation6.wav,audio/Narrative5Situation6.wav,2,3,2,3,,,,,,,,,,,,,,,,,,,,,,,,,,,,,,,,,,,,,,,
,,,,,,5e4c0ba01ae5a4000b539387,2024-02-08_13h16.19.675,group3.1-3.2-social-tom,2023.2.2,Win32,60.24096386,65c5074098b851296ff0b7ed,65c541eacb0985acfd94fb15,,,,,,,,,,,,,,,,,,,,,,,,,,,,,583.005,1,audio/Narrative7Situation7.wav,588.0142,,588.0143,605.1804,"[[61.4,7921],[57.9,8004],[56.9,8088],[56.4,8171],[53.4,8254],[47.1,8338],[44.6,8420],[42.9,8504],[42.9,8587],[42.9,8665],[42.9,8748],[42.9,8832],[42.9,8915],[42.9,8998],[42.9,9087],[43.4,9166],[48.9,9254],[54.3,9338],[56.6,9421],[59.1,9503],[61.7,9587],[61.9,9671],[61.9,9748],[61.9,9838],[61.9,9915],[61.9,9999],[61.9,10082],[61.9,10170],[61.9,10254],[61.9,10336],[61.9,10415],[61.9,10499],[61.9,10582],[61.9,10665],[61.9,10754],[61.9,10832],[61.9,10920],[61.9,11004],[61.9,11087],[61.9,11170],[61.9,11254],[63.6,11338],[67,11421],[67.9,11499],[68.8,11587],[69.5,11666],[70.7,11749],[71.1,11833],[71,11915],[71,11998],[71,12081],[71,12165],[71,12254],[71,12338],[71,12420],[71,12501],[71,12587],[71,12665],[71,12754],[71,12832],[71,12921],[71,12998],[71,13086],[71,13170],[71,13254],[71,13331],[71,13415],[71,13498],[71,13587],[71,13670],[71,13753],[71,13837],[71,13917],[71,14004],[71,14087],[71,14171],[71,14248],[71,14337],[71,14421],[71,14504],[71,14587],[71,14665],[71,14754],[71,14837],[71,14915],[71,14998],[71,15081],[71,15171],[71,15248],[71,15331],[72.3,15427],[75.5,15504],[78.4,15588],[80.5,15671],[90.8,16754],[91.1,16838],[91.1,16920],[91.1,17003],[91.1,17082],[91.1,17165]]",1,0,605.1808,608.5684,90.83333015,2.4462,"[{""rating"":90.83333015441895,""responseTime"":2.446200000002932}]",space,2.8568,,608.5684,Partially,50,608.5701,,,[],,0,16,16,16,1,audio/Narrative8Situation7.wav,audio/Narrative7Situation7.wav,audio/Narrative6Situation7.wav,audio/Narrative5Situation7.wav,3,5,5,4,,,,,,,,,,,,,,,,,,,,,,,,,,,,,,,,,,,,,,,
,,,,,,5e4c0ba01ae5a4000b539387,2024-02-08_13h16.19.675,group3.1-3.2-social-tom,2023.2.2,Win32,60.24096386,65c5074098b851296ff0b7ed,65c541eacb0985acfd94fb15,,,,,,,,,,,,,,,,,,,,,,,,,,,,,608.5703,1,audio/Narrative7Situation8.wav,610.58,,610.5803,620.6183,"[[87.7,9344]]",1,0,620.6183,624.7351,63.43750159,3.8669,"[{""rating"":63.43750158945719,""responseTime"":3.8669000000058986}]",space,3.5841,,624.7352,Definitely yes,100,624.7376,,,[],,0,17,17,17,1,audio/Narrative8Situation8.wav,audio/Narrative7Situation8.wav,audio/Narrative6Situation8.wav,audio/Narrative5Situation8.wav,3,2,5,3,,,,,,,,,,,,,,,,,,,,,,,,,,,,,,,,,,,,,,,
,,,,,,5e4c0ba01ae5a4000b539387,2024-02-08_13h16.19.675,group3.1-3.2-social-tom,2023.2.2,Win32,60.24096386,65c5074098b851296ff0b7ed,65c541eacb0985acfd94fb15,,,,,,,,,,,,,,,,,,,,,,,,,,,,,624.7379,1,audio/Narrative7Situation9.wav,626.7459,,626.746,635.3791,"[[63.3,8167],[62.3,8249],[61.7,8338],[60.8,8422],[60.3,8499],[60.1,8587]]",1,0,635.3793,642.4016,58.64583651,6.2379,"[{""rating"":58.64583651224772,""responseTime"":6.237900000005993}]",space,6.4761,,642.4016,Partially,50,642.4032,,,[],,0,18,18,18,1,audio/Narrative8Situation9.wav,audio/Narrative7Situation9.wav,audio/Narrative6Situation9.wav,audio/Narrative5Situation9.wav,3,2,4,3,,,,,,,,,,,,,,,,,,,,,,,,,,,,,,,,,,,,,,,
,,,,,,5e4c0ba01ae5a4000b539387,2024-02-08_13h16.19.675,group3.1-3.2-social-tom,2023.2.2,Win32,60.24096386,65c5074098b851296ff0b7ed,65c541eacb0985acfd94fb15,,,,,,,,,,,,,,,,,,,,,,,,,,,664.8055,667.3789,667.3897,2,audio/Narrative13Situation2.wav,667.3898,,667.3899,697.1621,"[[61.3,3656],[100,5661],[100,5827],[90.5,5911],[70.3,6160],[70.3,6238],[70.3,6321],[68.5,6405],[67.3,6489],[65.9,6577],[65.9,6660],[65.9,6743],[65.9,6827],[65.9,6905],[65.9,6988],[65.9,7072],[63,7156],[47,7244],[44.4,7321],[43.2,7408],[42.8,7488],[39,7577],[37.5,7660],[37.5,7743],[37.5,7827],[42.8,7906],[51.9,7994],[54.5,8077],[75.1,8827],[75.1,8904],[75.1,8993],[75.1,9076],[75.1,9160],[74.7,9244],[74.4,9327],[74.1,9410],[74.1,9488],[74.1,9571],[74.1,9659],[73.8,9744],[73.4,9824],[73.4,9910],[73.4,9993],[73.4,10072],[73.4,10160],[73.4,10238],[73.4,10321],[73.4,10405],[73.4,10488],[73.4,10577],[73.4,10659],[73.4,10738],[73.4,10821],[73.4,10904],[73.4,10993],[73.4,11071],[73.4,11160],[73.3,11238],[73.3,11321],[73.3,11404],[73.3,11493],[73.3,11571],[73.3,11660],[73.3,11738],[73.3,11822],[73.3,11905],[73.3,11988],[73.3,12076],[73.3,12160],[73.3,12238],[73.3,12326],[73.3,12404],[73.3,12488],[73.3,12577],[73.3,12654],[73.3,12743],[73.3,12827],[73.3,12905],[73.3,12993],[73.3,13077],[73.3,13155],[73.3,13238],[73.3,13327],[73.3,13404],[73.3,13488],[73.3,13577],[73.3,13657],[73.3,13743],[73.3,13827],[73.3,13904],[73.3,13988],[73.3,14077],[73.3,14154],[73.3,14244],[73.3,14326],[73.3,14404],[73.3,14488],[73.3,14577],[73.3,14655],[73.3,14738],[73.3,14827],[73.3,14911],[73.3,14993],[73.3,15071],[73.3,15155],[73.3,15243],[73.3,15321],[73.3,15410],[73.3,15494],[73.3,15578],[73.3,15655],[73.3,15738],[73.3,15821],[73.3,15910],[73.3,15993],[73.3,16071],[73.3,16160],[73.3,16238],[73.3,16325],[73.3,16411],[73.3,16488],[73.3,16577],[73.3,16654],[73.3,16743],[73.3,16827],[73.3,16909],[73.3,16994],[73.3,17071],[73.3,17155],[73.3,17244],[73.3,17327],[73.3,17410],[73.3,17488],[73.3,17577],[73.3,17659],[73.3,17738],[73.3,17827],[73.3,17910],[73.3,17988],[73.3,18071],[73.3,18155],[73.3,18238],[73.3,18321],[73.3,18404],[73.3,18493],[73.3,18571],[73.3,18655],[73.3,18744],[73.3,18826],[73.3,18910],[73.3,18993],[73.3,19076],[73.3,19160],[73.3,19243],[73.3,19321],[73.3,19407],[73.3,19488],[73.3,19571],[73.3,19658],[73.3,19738],[73.3,19826],[73.3,19905],[73.3,19988],[73.3,20076],[73.3,20155],[73.3,20238],[73.3,20321],[73.3,20410],[73.3,20493],[73.3,20571],[73.3,20660],[73.3,20743],[73.3,20821],[73.3,20910],[73.3,20988],[73.3,21076],[73.3,21160],[73.3,21238],[73.3,21321],[73.3,21410],[73.3,21494],[73.3,21572],[73.3,21660],[73.3,21744],[73.3,21821],[73.3,21904],[73.3,21988],[73.3,22071],[73.3,22154],[73.3,22238],[73.3,22327],[73.3,22404],[73.3,22493],[73.3,22571],[73.3,22654],[73.3,22743],[73.3,22821],[73.3,22904],[73.3,22988],[73.3,23077],[73.3,23155],[73.3,23243],[73.3,23321],[73.3,23404],[73.3,23493],[73.3,23571],[73.3,23659],[73.3,23738],[73.3,23821],[73.3,23910],[73.3,23988],[73.3,24071],[73.3,24160],[73.3,24238],[73.3,24321],[73.3,24410],[73.3,24488],[73.3,24577],[73.3,24654],[73.3,24743],[73.3,24821],[73.3,24904],[73.3,24993],[73.3,25071],[73.3,25154],[73.3,25240],[73.3,25327],[73.3,25410],[73.3,25488],[73.3,25577],[73.3,25654],[73.3,25738],[73.3,25821],[73.3,25910],[73.3,25993],[73.3,26071],[73.3,26154],[73.3,26241],[73.3,26321],[73.3,26404],[73.3,26488],[73.3,26572],[73.3,26659],[73.3,26737],[73.3,26827],[73.3,26904],[73.3,26993],[73.3,27071],[73.3,27154],[73.3,27238],[73.3,27321],[73.3,27408],[73.3,27487],[73.3,27577],[73.3,27660],[73.3,27738],[73.3,27821],[73.3,27904],[73.3,27988],[73.3,28071],[73.3,28154],[73.3,28237],[73.3,28321],[73.3,28404],[73.3,28488],[73.3,28576],[73.3,28660],[73.3,28738],[73.3,28821],[73.3,28909],[73.3,28993],[73.3,29071],[73.3,29160],[73.3,29238],[73.3,29321],[73.3,29404],[73.3,29488],[73.3,29571],[73.3,29660],[73.3,29743]]",1,0,697.1633,697.1735,,,[],,,,697.1737,Definitely yes,100,697.1751,,,[],,0,0,0,0,1,audio/Narrative13Situation2.wav,audio/Narrative13Situation2.wav,audio/Narrative13Situation2.wav,audio/Narrative13Situation2.wav,2,2,2,2,,,,,642.4038,664.7974,space,21.8632,,,,,,,,,,,,,,,,,,,,,,,,,,,,,,,
,,,,,,5e4c0ba01ae5a4000b539387,2024-02-08_13h16.19.675,group3.1-3.2-social-tom,2023.2.2,Win32,60.24096386,65c5074098b851296ff0b7ed,65c541eacb0985acfd94fb15,,,,,,,,,,,,,,,,,,,,,,,,,,,,,697.1753,2,audio/Narrative6Situation1.wav,699.1786,,699.1788,725.7666,"[[73.4,1086],[73.4,1171],[73.4,1254],[73.4,1338],[73.4,1415],[73.4,1505],[73.4,1582],[73.4,1665],[73.4,1748],[73.9,1838],[74.2,1915],[74.9,1999],[74.9,2082],[74.9,2168],[74.9,2254],[74.9,2337],[74.9,2418],[74.9,2504],[74.9,2582],[74.9,2665],[74.9,2754],[74.9,2838],[75.1,2920],[75.1,3004],[75.1,3086],[75.1,3165],[75.1,3254],[75.1,3332],[75.2,3416],[75.2,3504],[75.2,3586],[75.2,3671],[75.2,3749],[75.2,3835],[75.2,3920],[75.2,3999],[75.2,4087],[75.2,4165],[75.2,4254],[75.2,4332],[75.2,4415],[75.2,4499],[75.2,4582],[75.2,4670],[75.2,4753],[75.2,4832],[75.2,4921],[75.2,5004],[75.2,5088],[75.2,5171],[75.2,5253],[75.2,5332],[75.2,5420],[75.2,5502],[75.2,5596],[75.2,5665],[75.2,5748],[75.2,5836],[75.2,5921],[75.2,5998],[75.2,6087],[75.2,6165],[75.2,6249],[75.2,6332],[75.2,6415],[75.2,6504],[75.2,6587],[75.2,6672],[75.2,6754],[75.2,6832],[75.2,6915],[75.2,7003],[75.2,7082],[75.2,7171],[75.2,7254],[75.2,7332],[75.2,7421],[75.2,7499],[75.2,7582],[75.2,7670],[75.2,7749],[75.2,7837],[75.2,7921],[75.2,7998],[75.2,8086],[75.2,8165],[75.2,8248],[75.2,8332],[75.2,8421],[75.2,8503],[75.2,8582],[75.2,8665],[75.2,8749],[75.2,8836],[75.2,8920],[75.2,9004],[75.2,9088],[75.2,9166],[75.2,9253],[75.2,9332],[75.2,9415],[75.2,9498],[75.2,9587],[75.2,9671],[75.2,9748],[75.2,9832],[75.2,9915],[75.2,9999],[75.2,10087],[75.2,10165],[75.2,10252],[75.2,10337],[75.2,10415],[75.2,10499],[75.2,10585],[75.2,10665],[75.2,10748],[75.2,10831],[75.2,10918],[75.2,10998],[75.2,11082],[75.2,11165],[75.2,11249],[75.2,11332],[75.2,11415],[75.2,11498],[75.2,11587],[75.2,11669],[75.2,11754],[75.2,11838],[75.2,11915],[75.2,11999],[75.2,12087],[75.2,12165],[75.2,12249],[75.2,12331],[75.2,12420],[75.2,12499],[75.2,12582],[75.2,12665],[75.2,12748],[75.2,12832],[75.2,12921],[75.2,12998],[75.2,13086],[75.2,13171],[75.2,13254],[75.2,13332],[75.2,13421],[75.2,13504],[75.2,13586],[75.2,13665],[75.2,13749],[75.2,13831],[75.2,13915],[75.2,13998],[75.2,14082],[75.2,14165],[75.2,14248],[75.2,14332],[75.2,14421],[75.2,14498],[75.2,14587],[75.2,14670],[75.2,14753],[75.2,14837],[75.2,14918],[75.2,14998],[75.2,15087],[75.2,15165],[75.2,15254],[75.2,15337],[75.2,15420],[75.2,15504],[75.2,15582],[75.2,15665],[75.2,15749],[75.2,15832],[75.2,15921],[75.2,16003],[75.2,16082],[75.2,16165],[75.2,16254],[75.2,16332],[75.2,16421],[75.2,16498],[75.2,16582],[75.2,16665],[75.2,16754],[75.2,16837],[75.2,16920],[75.2,17003],[75.2,17087],[75.2,17165],[75.2,17248],[75.2,17332],[75.2,17419],[75.2,17498],[75.2,17582],[75.2,17665],[75.2,17750],[75.2,17837],[75.2,17921],[75.2,17998],[75.2,18086],[75.2,18168],[75.2,18254],[75.2,18335],[75.2,18420],[75.2,18503],[75.2,18586],[75.2,18665],[75.2,18748],[75.2,18837],[75.2,18920],[75.2,18998],[75.2,19082],[75.2,19171],[75.2,19248],[75.2,19331],[75.2,19415],[75.2,19498],[75.2,19581],[75.2,19665],[75.2,19748],[75.2,19834],[75.2,19915],[75.2,19999],[75.2,20088],[75.2,20166],[75.2,20254],[75.2,20338],[75.2,20415],[75.2,20504],[75.2,20582],[75.2,20665],[75.2,20754],[75.2,20837],[75.2,20915],[75.2,21004],[75.2,21082],[75.2,21171],[75.2,21254],[75.2,21332],[75.2,21416],[75.2,21504],[75.2,21582],[75.2,21670],[75.2,21748],[75.2,21837],[75.2,21920],[75.2,21999],[75.2,22081],[75.2,22165],[75.2,22254],[75.2,22331],[75.2,22421],[75.2,22504],[75.2,22587],[75.2,22665],[75.2,22750],[75.2,22837],[75.2,22915],[75.2,23004],[75.2,23087],[75.2,23171],[75.2,23248],[75.2,23331],[75.2,23415],[75.2,23498],[75.2,23582],[75.2,23665],[75.2,23751],[75.2,23832],[75.2,23921],[75.2,23998],[75.2,24084],[75.2,24165],[68.4,24262],[60.1,24332],[57.9,24421],[52.6,24504],[40.1,24587],[19.1,24671],[7.8,24753],[6.7,24837],[6.7,24917],[7.9,25004],[14.6,25087],[18.6,25171],[24.7,25249],[26.5,25337],[29.6,25421],[41.6,25504],[60.8,25587],[75.7,25666],[78.6,25754],[79.3,25836],[79.7,25920],[79.7,26004],[79.7,26086],[79.7,26171],[79.7,26254],[79.7,26337],[79.7,26419],[79.7,26503],[79.7,26587]]",1,0,725.7668,728.683,84.68750318,1.547,"[{""rating"":84.68750317891438,""responseTime"":1.5469999999999118}]",space,2.3839,,728.683,Not at all,0,728.6847,,,[],,0,1,1,1,1,audio/Narrative7Situation1.wav,audio/Narrative8Situation1.wav,audio/Narrative5Situation1.wav,audio/Narrative6Situation1.wav,2,5,5,2,,,,,,,,,,,,,,,,,,,,,,,,,,,,,,,,,,,,,,,
,,,,,,5e4c0ba01ae5a4000b539387,2024-02-08_13h16.19.675,group3.1-3.2-social-tom,2023.2.2,Win32,60.24096386,65c5074098b851296ff0b7ed,65c541eacb0985acfd94fb15,,,,,,,,,,,,,,,,,,,,,,,,,,,,,728.6848,2,audio/Narrative6Situation2.wav,731.6939,,731.6939,760.2103,"[[84.8,20766],[85.8,20850],[86.9,20933],[86.9,21016],[86.9,21099],[86.9,21182],[87,21266],[87.3,21349],[87.7,21433],[90.1,21516],[93.5,21599],[93.5,21682],[93.5,21766],[93.5,21849],[74.6,21933],[73.1,22016],[70.9,22099],[70.9,22182],[68.9,22266],[65.2,22350],[56.7,23016],[63.2,23099],[69.2,23183],[70.4,23266],[71.6,23349],[71.9,23432],[72.8,23516],[75.2,23599],[78,23683],[80.4,23766],[84.3,23849],[85.1,23932],[86.6,24016],[89.9,24099],[92.6,24182],[92.6,24266],[92.6,24349],[92.6,24432],[92.6,24516],[92.6,24599],[92.8,24683],[92.8,24766],[92.8,24849],[92.8,24933],[92.7,25016],[92.7,25099],[92.7,25182],[87,25266],[18.1,26016],[17.1,26099],[15.4,26182],[15.3,26266],[12.5,26349],[6.6,26432],[5.8,26516],[4.1,26599],[3.2,26682],[0.9,26766],[2.2,27516],[6.5,27599],[21.1,27682],[33.2,27766],[45.7,27849],[53.1,27932],[59,28016],[64.2,28099],[70,28182]]",1,0,760.2105,763.4938,94.89583969,1.6133,"[{""rating"":94.89583969116211,""responseTime"":1.6132999999970252}]",space,2.7325,,763.494,Not at all,0,763.4964,,,[],,0,2,2,2,1,audio/Narrative7Situation2.wav,audio/Narrative8Situation2.wav,audio/Narrative5Situation2.wav,audio/Narrative6Situation2.wav,3,3,3,3,,,,,,,,,,,,,,,,,,,,,,,,,,,,,,,,,,,,,,,
,,,,,,5e4c0ba01ae5a4000b539387,2024-02-08_13h16.19.675,group3.1-3.2-social-tom,2023.2.2,Win32,60.24096386,65c5074098b851296ff0b7ed,65c541eacb0985acfd94fb15,,,,,,,,,,,,,,,,,,,,,,,,,,,,,763.4966,2,audio/Narrative6Situation3.wav,768.5099,,768.5101,781.1323,"[[93.9,1672],[89.5,1755],[84.1,1838],[75.4,1922],[37.3,2505],[42.8,2589],[46,2666],[46,2755],[46,2833],[46,2921],[46.4,3000],[47.3,3083],[47.6,3172],[47.6,3252],[47.6,3333],[48.6,3421],[48.6,3505],[48.6,3587],[48.6,3671],[49,3753],[50,3839],[50.6,3922],[50.6,4000],[50.7,4088],[49.6,6422],[50.5,6505],[51.4,6588],[52.1,6672],[77.7,7254],[78.7,7333],[79.3,7416],[79.5,7505],[79.5,7583],[79.5,7666],[79.5,7754],[79.5,7838],[76.7,7922],[74.8,8005],[73.1,8084],[71.7,8172],[67,8255],[62.3,8338],[59.7,8422],[52.2,8505],[46.5,8588],[42.3,8671],[39.8,8755],[34.4,8839],[25.9,8922],[22.6,9005],[17.1,9084],[14.2,9172],[11.2,9255],[6,9338],[2.2,9420],[2.1,10422],[10.2,10505],[12.6,10588],[18.9,10666],[26.7,10755],[36,10838],[43.2,10922],[46.9,11004],[47.1,11088],[47.4,11172],[47.9,11249],[49.4,11336],[49.4,11416],[49.4,11499],[49.4,11588],[49.4,11671],[49.4,11749],[49.4,11838],[49.4,11916],[50.3,12005],[53.2,12088],[57.1,12172],[59.7,12256],[64.1,12339],[70.3,12422],[75.9,12505],[79.6,12589]]",1,0,781.1327,785.5493,66.77083174,3.0832,"[{""rating"":66.77083174387613,""responseTime"":3.0831999999880964}]",space,3.8548,,785.5493,Partially,50,785.551,,,[],,0,3,3,3,1,audio/Narrative7Situation3.wav,audio/Narrative8Situation3.wav,audio/Narrative5Situation3.wav,audio/Narrative6Situation3.wav,8,4,3,5,,,,,,,,,,,,,,,,,,,,,,,,,,,,,,,,,,,,,,,
,,,,,,5e4c0ba01ae5a4000b539387,2024-02-08_13h16.19.675,group3.1-3.2-social-tom,2023.2.2,Win32,60.24096386,65c5074098b851296ff0b7ed,65c541eacb0985acfd94fb15,,,,,,,,,,,,,,,,,,,,,,,,,,,,,785.5512,2,audio/Narrative6Situation4.wav,787.5596,,787.5598,800.1769,"[[69.1,505],[69.1,583],[69.1,666],[69.1,750],[69.1,838],[69.1,916],[69.1,1000],[69.1,1083],[61.6,1172],[58.4,1250],[50.4,1333],[45.7,1422],[44.8,1504],[44.8,1587],[44.8,1671],[44.5,1755],[44.5,1833],[44.5,1916],[44.5,1999],[44.5,2088],[44.5,2166],[44.5,2255],[44.5,2332],[44.5,2416],[44.5,2505],[44.5,2583],[44.5,2666],[44.5,2755],[44.5,2833],[44.5,2916],[44.5,2999],[44.5,3088],[44.5,3166],[44.5,3249],[44.5,3338],[44.5,3419],[44.5,3504],[44.5,3588],[44.5,3672],[44.5,3749],[44.5,3838],[44.5,3916],[44.5,3999],[44.5,4087],[44.5,4166],[44.5,4249],[44.5,4333],[44.5,4421],[44.5,4504],[44.4,4588],[44.4,4666],[44.4,4755],[44.4,4833],[44.4,4921],[44.4,4999],[44.4,5088],[44.4,5171],[44.4,5249],[44.4,5339],[44.4,5416],[44.4,5499],[44.4,5588],[44.4,5672],[44.4,5754],[44.4,5833],[44.4,5916],[44.4,6005],[44.4,6088],[44.4,6169],[44.4,6249],[44.4,6338],[44.4,6416],[44.4,6505],[44.4,6583],[44.4,6665],[44.4,6749],[44.4,6832],[44.4,6916],[44.4,7004],[44.4,7089],[44.4,7166],[44.4,7255],[44.4,7338],[44.4,7422],[44.4,7505],[44.4,7588],[44.4,7672],[44.4,7754],[44.4,7837],[44.4,7919],[44.4,7999],[44.4,8088],[44.4,8172],[44.4,8249],[44.4,8338],[44.4,8422],[44.4,8504],[44.4,8582],[44.4,8671],[44.4,8749],[44.4,8839],[44.4,8916],[44.4,9000],[44.4,9088],[44.4,9171],[44.4,9254],[44.4,9333],[44.4,9415],[44.4,9504],[44.4,9582],[44.4,9666],[44.4,9755],[44.4,9838],[44.4,9921],[44.4,10005],[44.4,10088],[44.4,10166],[44.4,10255],[44.4,10333],[44.4,10422],[44.4,10505],[44.4,10588],[44.4,10666],[44.4,10755],[44.4,10838],[44.4,10918],[44.4,10999],[44.4,11088],[44.4,11166],[44.4,11250],[44.4,11339],[44.4,11416],[44.4,11499],[44.4,11583],[44.4,11671],[44.4,11754],[44.4,11832],[44.4,11916],[44.4,12005],[44.4,12083],[44.4,12166],[44.4,12255],[44.4,12333],[44.4,12415],[44.4,12504],[44.4,12582]]",1,0,800.1775,804.8157,76.7708381,2.4452,"[{""rating"":76.77083810170491,""responseTime"":2.4452000000030694}]",space,4.097,,804.8159,Not at all,0,804.8176,,,[],,0,4,4,4,1,audio/Narrative7Situation4.wav,audio/Narrative8Situation4.wav,audio/Narrative5Situation4.wav,audio/Narrative6Situation4.wav,3,3,1,2,,,,,,,,,,,,,,,,,,,,,,,,,,,,,,,,,,,,,,,
,,,,,,5e4c0ba01ae5a4000b539387,2024-02-08_13h16.19.675,group3.1-3.2-social-tom,2023.2.2,Win32,60.24096386,65c5074098b851296ff0b7ed,65c541eacb0985acfd94fb15,,,,,,,,,,,,,,,,,,,,,,,,,,,,,804.8179,2,audio/Narrative6Situation5.wav,806.826,,806.8261,814.7981,"[[76.5,5084],[76.1,5172],[76.1,5249],[76.1,5338],[75.5,5423],[64.7,5505],[61.3,5583],[61,5671],[59.5,5755],[52.6,5838],[49.9,5922],[48.8,6004],[45.1,6089],[42.8,6172],[41.5,6255],[39.9,6334],[35.6,6421],[35.6,6499],[35.6,6583],[35.6,6666],[43.6,6755],[50.7,6838],[57.2,6916],[59.3,6999],[65.4,7088],[69,7171],[70.4,7254],[70.8,7333],[76.4,7422],[76.9,7505],[76.9,7582],[76.9,7666],[76.9,7749],[76.9,7833],[76.9,7916]]",1,0,814.7982,818.1651,32.18750159,1.9,"[{""rating"":32.18750158945719,""responseTime"":1.8999999999999773}]",space,2.8336,,818.1652,Not at all,0,818.1661,,,[],,0,5,5,5,1,audio/Narrative7Situation5.wav,audio/Narrative8Situation5.wav,audio/Narrative5Situation5.wav,audio/Narrative6Situation5.wav,5,2,5,2,,,,,,,,,,,,,,,,,,,,,,,,,,,,,,,,,,,,,,,
,,,,,,5e4c0ba01ae5a4000b539387,2024-02-08_13h16.19.675,group3.1-3.2-social-tom,2023.2.2,Win32,60.24096386,65c5074098b851296ff0b7ed,65c541eacb0985acfd94fb15,,,,,,,,,,,,,,,,,,,,,,,,,,,,,818.1662,2,audio/Narrative6Situation6.wav,820.1763,,820.1765,831.2761,[],1,0,831.2765,836.0308,63.22917144,3.4286,"[{""rating"":63.229171435038246,""responseTime"":3.4285999999940486}]",space,4.2156,,836.0309,Definitely yes,100,842.4089,97.81250954,4.3992,"[{""rating"":97.81250953674316,""responseTime"":4.399199999988127}]",space,0,6,6,6,1,audio/Narrative7Situation6.wav,audio/Narrative8Situation6.wav,audio/Narrative5Situation6.wav,audio/Narrative6Situation6.wav,3,2,3,2,,,5.8362,,,,,,,,,,,,,,,,,,,,,,,,,,,,,,,,,,,,
,,,,,,5e4c0ba01ae5a4000b539387,2024-02-08_13h16.19.675,group3.1-3.2-social-tom,2023.2.2,Win32,60.24096386,65c5074098b851296ff0b7ed,65c541eacb0985acfd94fb15,,,,,,,,,,,,,,,,,,,,,,,,,,,,,842.4099,2,audio/Narrative6Situation7.wav,847.4252,,847.4255,872.2919,"[[999,7],[999,83],[999,166],[999,249],[999,333],[999,416],[999,505],[999,582],[999,671],[999,755],[999,833],[999,919],[999,1000],[999,1083],[999,1166],[999,1254],[999,1332],[999,1416],[999,1499],[999,1583],[999,1666],[999,1749],[999,1838],[999,1916],[999,2004],[999,2083],[999,2166],[999,2249],[999,2333],[999,2416],[999,2504],[999,2588],[999,2666],[999,2752],[999,2833],[999,2916],[999,2999],[999,3083],[999,3171],[999,3249],[999,3332],[999,3416],[999,3499],[999,3582],[999,3666],[999,3749],[999,3838],[999,3921],[999,4004],[999,4082],[999,4171],[999,4249],[999,4339],[999,4416],[999,4504],[999,4583],[999,4666],[999,4754],[999,4838],[999,4916],[999,5005],[999,5082],[999,5171],[999,5249],[999,5333],[999,5416],[999,5499],[999,5583],[999,5666],[999,5755],[999,5833],[999,5916],[999,5999],[999,6087],[999,6166],[999,6254],[999,6332],[999,6416],[999,6506],[999,6583],[999,6666],[999,6749],[999,6837],[999,6916],[999,6999],[999,7083],[999,7166],[999,7252],[999,7333],[999,7415],[999,7504],[999,7582],[999,7672],[999,7749],[999,7833],[999,7921],[999,8003],[999,8087],[999,8171],[999,8255],[999,8333],[999,8416],[999,8499],[999,8582],[999,8666],[999,8754],[999,8832],[999,8916],[999,9000],[999,9082],[999,9166],[999,9254],[999,9333],[999,9421],[999,9499],[999,9587],[999,9672],[999,9755],[999,9833],[999,9916],[999,9999],[999,10083],[999,10165],[999,10254],[999,10333],[999,10416],[999,10499],[999,10588],[999,10666],[999,10755],[999,10838],[999,10921],[999,10999],[999,11082],[999,11166],[999,11255],[999,11333],[999,11421],[999,11505],[999,11582],[999,11671],[999,11754],[999,11833],[999,11921],[999,12004],[999,12088],[999,12166],[999,12254],[999,12337],[999,12418],[999,12499],[999,12583],[999,12672],[999,12749],[999,12832],[999,12916],[999,13004],[999,13088],[999,13166],[999,13249],[999,13332],[999,13416],[999,13499],[999,13582],[999,13666],[999,13754],[999,13836],[999,13916],[999,14005],[999,14083],[999,14165],[999,14249],[999,14332],[999,14415],[999,14499],[999,14588],[999,14666],[999,14749],[999,14832],[999,14916],[999,15004],[999,15082],[999,15166],[999,15249],[999,15332],[999,15416],[999,15499],[999,15583],[999,15671],[999,15749],[999,15838],[999,15916],[999,16004],[999,16088],[999,16166],[999,16249],[999,16332],[999,16416],[999,16499],[999,16588],[999,16666],[999,16749],[999,16838],[999,16916],[999,16999],[999,17088],[999,17171],[999,17249],[999,17333],[999,17415],[999,17499],[999,17582],[999,17673],[999,17755],[999,17839],[999,17922],[999,17999],[999,18087],[999,18171],[999,18255],[999,18338],[999,18421],[999,18505],[999,18588],[999,18671],[999,18754],[75.7,18838],[75.2,18921],[75.2,19004],[75.2,19082],[79,19166],[80,19255],[80.8,19333],[81,19417],[83.5,19504],[83.5,19582],[83.5,19671],[83.5,19755],[83.5,19832],[83.5,19916],[83.5,19999],[83.5,20082],[83.5,20166],[83.2,20254],[81,20338],[77.2,20422],[75.1,20505],[73.1,20588],[73.1,20669],[73.1,20749],[73.1,20838],[73.1,20916],[73.1,21000],[73.1,21082],[73.1,21166],[73.1,21255],[73.1,21333],[71.9,21421],[70.7,21499],[70.7,21583],[70.7,21672],[70.7,21755],[64.2,21838],[64.2,21916],[64.2,21999],[64.2,22083],[64.2,22171],[64.2,22255],[64.2,22332],[64.2,22421],[64.2,22504],[64.2,22582],[64.2,22666],[64.2,22754],[64.2,22832],[64.2,22921],[64.2,23005],[64.2,23088],[64.2,23166],[64.2,23249],[64.2,23332],[64.2,23421],[64.2,23504],[64.2,23582],[64.2,23672],[65.1,23755],[68,23837],[69.2,23916],[70.7,24000],[71.8,24088],[73.9,24166],[83.2,24504],[84.5,24588],[84.7,24666],[84.7,24748],[84.7,24835]]",1,0,872.2925,876.6145,85.62499682,2.9042,"[{""rating"":85.62499682108562,""responseTime"":2.9041999999881227}]",space,3.7806,,876.6145,Partially,50,876.6169,,,[],,0,7,7,7,1,audio/Narrative7Situation7.wav,audio/Narrative8Situation7.wav,audio/Narrative5Situation7.wav,audio/Narrative6Situation7.wav,5,3,4,5,,,,,,,,,,,,,,,,,,,,,,,,,,,,,,,,,,,,,,,
,,,,,,5e4c0ba01ae5a4000b539387,2024-02-08_13h16.19.675,group3.1-3.2-social-tom,2023.2.2,Win32,60.24096386,65c5074098b851296ff0b7ed,65c541eacb0985acfd94fb15,,,,,,,,,,,,,,,,,,,,,,,,,,,,,876.6171,2,audio/Narrative6Situation8.wav,881.6246,,881.6247,888.509,[],1,0,888.5094,891.9797,37.81250318,2.13,"[{""rating"":37.81250317891438,""responseTime"":2.130000000000109}]",space,2.9166,,891.9797,Definitely yes,100,891.9814,,,[],,0,8,8,8,1,audio/Narrative7Situation8.wav,audio/Narrative8Situation8.wav,audio/Narrative5Situation8.wav,audio/Narrative6Situation8.wav,2,3,3,5,,,,,,,,,,,,,,,,,,,,,,,,,,,,,,,,,,,,,,,
,,,,,,5e4c0ba01ae5a4000b539387,2024-02-08_13h16.19.675,group3.1-3.2-social-tom,2023.2.2,Win32,60.24096386,65c5074098b851296ff0b7ed,65c541eacb0985acfd94fb15,,,,,,,,,,,,,,,,,,,,,,,,,,,,,891.9816,2,audio/Narrative6Situation9.wav,895.9964,,895.9964,905.9578,[],1,0,905.9581,909.413,27.50000159,2.3056,"[{""rating"":27.50000158945719,""responseTime"":2.3056000000088943}]",space,2.9165,,909.4131,Not at all,0,909.4147,,,[],,0,9,9,9,1,audio/Narrative7Situation9.wav,audio/Narrative8Situation9.wav,audio/Narrative5Situation9.wav,audio/Narrative6Situation9.wav,2,3,3,4,,,,,,,,,,,,,,,,,,,,,,,,,,,,,,,,,,,,,,,
,,,,,,5e4c0ba01ae5a4000b539387,2024-02-08_13h16.19.675,group3.1-3.2-social-tom,2023.2.2,Win32,60.24096386,65c5074098b851296ff0b7ed,65c541eacb0985acfd94fb15,,,,,,,,,,,,,,,,,,,,,,,,,,,,,909.4149,2,audio/Narrative5Situation1.wav,914.4249,,914.425,927.7318,"[[59.1,1088],[57.4,1165],[57.4,1253],[57.4,1338],[57.4,1415],[57.4,1502],[57.4,1582],[57.4,1671],[57.4,1754],[57.4,1837],[57,1921],[52.4,2003],[52.2,2081],[48.5,2171],[43.3,2250],[34.5,2338],[32.4,2415],[31.6,2504],[28.1,2588],[28,2668],[28,2754],[35.7,2837],[50.2,2921],[53.4,3001],[56.3,3087],[58.5,3171],[61.3,3254],[64.1,3337],[65.9,3420],[69.8,3504],[71.9,3588],[72.9,3670],[73.6,3754],[74.9,3837],[75.3,3921],[75.3,3999],[75.6,4083],[76.5,4166],[76.5,4249],[76.5,4337],[76.5,4420],[76.5,4499],[76.5,4587],[76.5,4671],[76.5,4749],[76.5,4837],[77,4921],[77.1,4999],[77.1,5086],[77.3,5170],[77.6,5248],[77.6,5334],[77.6,5419],[77.6,5504],[77.6,5587],[77.6,5665],[77.6,5749],[77.6,5837],[77.6,5919],[77.6,6003],[77.6,6087],[77.6,6170],[77.6,6254],[77.6,6331],[77.6,6419],[77.6,6499],[77.9,6587],[77.9,6665],[77.9,6748],[77.9,6837],[77.9,6915],[77.9,6999],[77.9,7087],[77.9,7165],[77.9,7254],[77.9,7332],[77.9,7421],[77.5,7503],[76.4,7587],[75.4,7671],[74.8,7749],[72.4,7838],[71.9,7921],[71.9,8005],[70.8,8083],[69.4,8171],[69.2,8249],[68.3,8332],[68.3,8415],[68.3,8499],[67.5,8587],[67.5,8671],[67.4,8755],[65,8838],[64.7,8920],[64.7,8998],[64.7,9087],[64.7,9165],[65,9253],[68.6,9339],[71.4,9421],[71.9,9500],[74.1,9587],[76.5,9671],[79.2,9751],[79.8,9837],[79.8,9920],[79.8,10005],[79.9,10087],[80.1,10165],[80.1,10249],[80.1,10337],[80.4,10421],[80.4,10498],[80.4,10581],[80.4,10670],[80.5,10754],[80.5,10837],[80.5,10915],[80.5,10999],[80.5,11082],[80.5,11165],[80.5,11249],[80.5,11331],[80.5,11417],[80.5,11503],[80.5,11587],[80.5,11671],[80.5,11748],[80.5,11837],[80.5,11921],[80.5,11998],[80.5,12087],[80.5,12170],[80.5,12250],[80.5,12331],[80.5,12421],[80.5,12499],[80.5,12587],[80.5,12668],[80.5,12754],[80.5,12837],[80.5,12920],[80.5,12998],[80.5,13082],[80.5,13170],[80.5,13255]]",1,0,927.732,931.1292,81.14583492,1.9555,"[{""rating"":81.14583492279053,""responseTime"":1.955500000000029}]",space,2.8668,,931.1292,Definitely yes,100,931.131,,,[],,0,10,10,10,1,audio/Narrative8Situation1.wav,audio/Narrative7Situation1.wav,audio/Narrative6Situation1.wav,audio/Narrative5Situation1.wav,5,2,2,5,,,,,,,,,,,,,,,,,,,,,,,,,,,,,,,,,,,,,,,
,,,,,,5e4c0ba01ae5a4000b539387,2024-02-08_13h16.19.675,group3.1-3.2-social-tom,2023.2.2,Win32,60.24096386,65c5074098b851296ff0b7ed,65c541eacb0985acfd94fb15,,,,,,,,,,,,,,,,,,,,,,,,,,,,,931.1312,2,audio/Narrative5Situation2.wav,934.1404,,934.1404,963.5954,"[[81,7089],[76.7,7172],[76.1,7255],[76.1,7338],[68.4,7422],[67.5,7505],[64.6,7588],[64.6,7666],[64.6,7755],[64.6,7832],[64.6,7921],[64.6,7999],[64.6,8083],[64.6,8166],[64.6,8250],[64.6,8332],[66.1,8421],[66.8,8500],[67.8,8588],[68.2,8672],[68.5,8755],[69.2,8833],[69.5,8917],[70.5,9005],[70.8,9083],[70.8,9166],[70.8,9249],[70.8,9333],[70.8,9421],[70.8,9502],[70.8,9583],[70.8,9672],[70.8,9749],[70.8,9833],[70.8,9921],[70.8,10004],[71.6,10088],[71.8,10166],[72.4,10250],[73.4,10338],[75.2,10422],[75.9,10505],[76.4,10588],[77.8,10671],[78.7,10749],[79.2,10832],[80.2,10921],[80.2,11005],[80.2,11082],[80.2,11172],[80.2,11254],[80.2,11333],[80.2,11416],[80.2,11499],[80.2,11583],[80.2,11666],[80.2,11750],[80.2,11832],[80.2,11916],[80.2,11999],[80.2,12083],[80.2,12166],[80.2,12249],[80.2,12337],[80.2,12421],[80.2,12499],[80.2,12583],[80.2,12672],[80.2,12749],[80.2,12832],[80.2,12921],[80.2,12999],[80.2,13086],[80.2,13166],[80.2,13249],[80.2,13335],[80.2,13418],[80.2,13499],[80.2,13588],[80.2,13666],[80.2,13754],[80.2,13835],[80.2,13916],[80.2,14004],[80.2,14088],[80.2,14172],[80.2,14249],[80.2,14338],[80.2,14416],[80.2,14504],[80.2,14587],[80.2,14666],[80.2,14755],[80.2,14838],[80.2,14922],[80.2,15005],[80.2,15083],[80.2,15166],[80.2,15249],[80.2,15332],[80.2,15416],[80.2,15499],[80.2,15582],[80.2,15666],[80.2,15749],[80.2,15832],[80.2,15916],[80.2,15999],[80.2,16088],[80.2,16171],[80.2,16254],[80.2,16338],[80.2,16421],[80.2,16505],[80.2,16588],[80.2,16671],[80.2,16753],[80.2,16835],[80.2,16921],[80.2,17004],[80.2,17082],[80.2,17172],[80.2,17254],[80.2,17332],[80.2,17421],[80.2,17499],[80.2,17582],[80.2,17665],[80.2,17749],[80.2,17833],[80.2,17921],[80.2,17999],[80.2,18083],[80.2,18166],[80.2,18249],[80.2,18333],[80.2,18416],[80.2,18504],[80.2,18583],[80.2,18671],[80.2,18755],[80.2,18833],[80.2,18916],[80.2,18999],[80.2,19083],[80.2,19171],[80.2,19250],[80.2,19337],[80.2,19422],[80.2,19499],[80.2,19588],[80.2,19672],[80.2,19749],[80.2,19833],[80.2,19921],[80.2,20004],[80.4,20082],[80.4,20166],[80.4,20255],[80.4,20332],[80.4,20416],[80.4,20505],[80.4,20582],[80.4,20666],[80.4,20754],[80.4,20838],[80.4,20921],[80.4,20999],[80.4,21083],[80.4,21171],[80.4,21249],[80.4,21338],[80.4,21421],[80.4,21499],[80.4,21582],[80.4,21666],[80.4,21749],[80.4,21832],[80.4,21916],[80.4,21999],[80.4,22088],[80.4,22171],[80.4,22249],[80.4,22337],[80.4,22422],[80.4,22505],[80.4,22583],[80.4,22672],[80.4,22755],[80.4,22832],[80.4,22921],[80.4,23004],[80.4,23082],[80.4,23166],[80.4,23249],[80.4,23332],[80.4,23416],[80.4,23499],[80.4,23583],[80.4,23668],[80.4,23749],[80.4,23837],[80.4,23915],[80.4,23999],[80.4,24082],[80.4,24166],[80.4,24249],[80.4,24338],[80.4,24416],[80.4,24504],[80.4,24583],[80.4,24665],[80.4,24749],[80.4,24833],[80.4,24916],[80.4,24999],[80.4,25082],[80.4,25166],[80.4,25249],[80.4,25337],[80.4,25415],[80.4,25499],[80.4,25582],[80.4,25666],[80.4,25749],[80.4,25838],[80.4,25916],[80.4,26004],[80.4,26088],[80.4,26165],[80.4,26254],[80.4,26332],[80.4,26416],[80.4,26504],[80.4,26588],[80.4,26666],[80.4,26754],[80.4,26835],[80.4,26921],[80.4,26999],[80.4,27082],[80.4,27171],[80.4,27249],[80.4,27337],[80.4,27421],[80.4,27499],[80.4,27582],[80.4,27666],[80.4,27749],[80.4,27832],[80.4,27915],[80.4,28004],[80.4,28082],[80.4,28171],[80.4,28249],[80.4,28333],[80.4,28419],[80.4,28504],[80.4,28582],[80.4,28672],[80.4,28749],[80.4,28832],[80.4,28916],[80.4,29003],[80.4,29082],[80.4,29165],[80.4,29254],[80.4,29338],[80.4,29416]]",1,0,963.5956,966.8453,83.85416667,1.9152,"[{""rating"":83.85416666666667,""responseTime"":1.915200000002983}]",space,2.7,,966.8453,Not at all,0,966.8467,,,[],,0,11,11,11,1,audio/Narrative8Situation2.wav,audio/Narrative7Situation2.wav,audio/Narrative6Situation2.wav,audio/Narrative5Situation2.wav,3,3,3,3,,,,,,,,,,,,,,,,,,,,,,,,,,,,,,,,,,,,,,,
,,,,,,5e4c0ba01ae5a4000b539387,2024-02-08_13h16.19.675,group3.1-3.2-social-tom,2023.2.2,Win32,60.24096386,65c5074098b851296ff0b7ed,65c541eacb0985acfd94fb15,,,,,,,,,,,,,,,,,,,,,,,,,,,,,966.8469,2,audio/Narrative5Situation3.wav,969.857,,969.857,983.779,[],1,0,983.7791,987.2613,67.70833333,2.3339,"[{""rating"":67.70833333333334,""responseTime"":2.33389999999099}]",space,2.941,,987.2614,Partially,50,987.2626,,,[],,0,12,12,12,1,audio/Narrative8Situation3.wav,audio/Narrative7Situation3.wav,audio/Narrative6Situation3.wav,audio/Narrative5Situation3.wav,4,8,5,3,,,,,,,,,,,,,,,,,,,,,,,,,,,,,,,,,,,,,,,
,,,,,,5e4c0ba01ae5a4000b539387,2024-02-08_13h16.19.675,group3.1-3.2-social-tom,2023.2.2,Win32,60.24096386,65c5074098b851296ff0b7ed,65c541eacb0985acfd94fb15,,,,,,,,,,,,,,,,,,,,,,,,,,,,,987.2628,2,audio/Narrative5Situation4.wav,988.2727,,988.2727,1008.6727,[],1,0,1008.6731,1014.2111,55.52083651,4.238,"[{""rating"":55.52083651224772,""responseTime"":4.237999999999943}]",space,4.9911,,1014.2111,Definitely yes,100,1014.2127,,,[],,0,13,13,13,1,audio/Narrative8Situation4.wav,audio/Narrative7Situation4.wav,audio/Narrative6Situation4.wav,audio/Narrative5Situation4.wav,3,3,2,1,,,,,,,,,,,,,,,,,,,,,,,,,,,,,,,,,,,,,,,
,,,,,,5e4c0ba01ae5a4000b539387,2024-02-08_13h16.19.675,group3.1-3.2-social-tom,2023.2.2,Win32,60.24096386,65c5074098b851296ff0b7ed,65c541eacb0985acfd94fb15,,,,,,,,,,,,,,,,,,,,,,,,,,,,,1014.213,2,audio/Narrative5Situation5.wav,1019.2227,,1019.2229,1034.6727,"[[56.8,15348],[57.9,15422]]",1,0,1034.6731,1037.8889,68.33333174,1.8937,"[{""rating"":68.33333174387613,""responseTime"":1.8937000000028092}]",space,2.6511,,1037.8891,Not at all,0,1037.8918,,,[],,0,14,14,14,1,audio/Narrative8Situation5.wav,audio/Narrative7Situation5.wav,audio/Narrative6Situation5.wav,audio/Narrative5Situation5.wav,2,5,2,5,,,,,,,,,,,,,,,,,,,,,,,,,,,,,,,,,,,,,,,
,,,,,,5e4c0ba01ae5a4000b539387,2024-02-08_13h16.19.675,group3.1-3.2-social-tom,2023.2.2,Win32,60.24096386,65c5074098b851296ff0b7ed,65c541eacb0985acfd94fb15,,,,,,,,,,,,,,,,,,,,,,,,,,,,,1037.892,2,audio/Narrative5Situation6.wav,1040.9054,,1040.9056,1046.5891,[],1,0,1046.5895,1050.6937,30.41667144,2.8968,"[{""rating"":30.416671435038246,""responseTime"":2.896799999997029}]",space,3.5451,,1050.6937,Definitely yes,100,1050.6951,,,[],,0,15,15,15,1,audio/Narrative8Situation6.wav,audio/Narrative7Situation6.wav,audio/Narrative6Situation6.wav,audio/Narrative5Situation6.wav,2,3,2,3,,,,,,,,,,,,,,,,,,,,,,,,,,,,,,,,,,,,,,,
,,,,,,5e4c0ba01ae5a4000b539387,2024-02-08_13h16.19.675,group3.1-3.2-social-tom,2023.2.2,Win32,60.24096386,65c5074098b851296ff0b7ed,65c541eacb0985acfd94fb15,,,,,,,,,,,,,,,,,,,,,,,,,,,,,1050.6953,2,audio/Narrative5Situation7.wav,1054.7047,,1054.7049,1075.76,"[[30.5,6588],[30.5,6668],[30.5,6749],[30.5,6836],[30.5,6916],[30.5,7004],[30.5,7083],[30.5,7171],[30.5,7249],[30.5,7333],[30.5,7415],[30.5,7499],[30.5,7583],[30.5,7666],[30.5,7749],[30.5,7833],[30.5,7916],[30.5,7999],[30.5,8082],[30.5,8170],[30.5,8255],[30.5,8333],[30.5,8416],[30.5,8505],[30.5,8583],[30.5,8666],[30.5,8752],[30.5,8833],[30.5,8916],[30.5,9004],[30.5,9083],[30.5,9166],[30.5,9249],[30.5,9333],[30.5,9416],[30.5,9499],[30.5,9583],[30.5,9671],[30.5,9752],[30.3,9833],[30.3,9922],[30.3,10005],[30.3,10087],[30.3,10166],[30.3,10249],[30.3,10339],[30.3,10416],[30.3,10502],[30.3,10587],[30.3,10666],[30.3,10749],[30.3,10835],[30.3,10916],[30.3,11004],[30.3,11083],[30.3,11166],[30.3,11249],[30.3,11337],[30.3,11415],[48.4,12672],[49.4,12749],[50.3,12838],[52.5,12921],[55,13005],[55,13088],[52.6,13172],[31.6,13671],[30.7,13754],[30.6,13833],[30.6,13916],[30.6,14004],[30.6,14088],[30.1,14171],[30.1,14249],[30.1,14332],[30.1,14416],[30.1,14499],[30.1,14588],[30.1,14666],[30.1,14755],[30.1,14835],[30.1,14916],[30.1,15000],[30.1,15082],[30.1,15171],[30.1,15255],[30.1,15338],[30.1,15416],[30.1,15504],[30.1,15588],[30.1,15666],[30.1,15754],[30.2,15832],[30.2,15915],[30.2,15999],[30.2,16086],[30.2,16166],[30.3,16249],[30.5,16338],[30.5,16421],[30.5,16499],[30.5,16582],[30.5,16671],[30.5,16754],[30.5,16833],[30.5,16916],[30.5,17004],[30.5,17082],[30.5,17166],[30.5,17253],[30.5,17333],[30.5,17421],[30.5,17499],[30.5,17587],[30.5,17672],[30.5,17749],[30.5,17833],[30.5,17916],[30.5,17999],[30.5,18083],[30.5,18170],[30.5,18249],[30.5,18332],[30.5,18416],[30.5,18502],[30.5,18582],[30.5,18665],[30.5,18755],[30.5,18837],[30.5,18916],[30.5,18999],[30.5,19082],[30.9,19166],[33,19255],[33.3,19332],[34.4,19421],[34.8,19499],[34.8,19582],[34.8,19666],[35.1,19754],[35.3,19832],[35.9,19917],[37.9,20005],[39.5,20088],[40.3,20165],[40.3,20255],[40.3,20332],[40.3,20421],[40.3,20499],[40.3,20587],[40.3,20665],[40.3,20754],[40.3,20832],[37.7,20916],[37.7,21005]]",1,0,1075.7602,1078.9585,39.68749841,1.6232,"[{""rating"":39.6874984105428,""responseTime"":1.6231999999881737}]",space,2.6506,,1078.9585,Not at all,0,1078.9599,,,[],,0,16,16,16,1,audio/Narrative8Situation7.wav,audio/Narrative7Situation7.wav,audio/Narrative6Situation7.wav,audio/Narrative5Situation7.wav,3,5,5,4,,,,,,,,,,,,,,,,,,,,,,,,,,,,,,,,,,,,,,,
,,,,,,5e4c0ba01ae5a4000b539387,2024-02-08_13h16.19.675,group3.1-3.2-social-tom,2023.2.2,Win32,60.24096386,65c5074098b851296ff0b7ed,65c541eacb0985acfd94fb15,,,,,,,,,,,,,,,,,,,,,,,,,,,,,1078.96,2,audio/Narrative5Situation8.wav,1081.9714,,1081.9716,1090.7931,[],1,0,1090.7932,1094.9267,56.66666826,3.0309,"[{""rating"":56.66666825612386,""responseTime"":3.0308999999908792}]",space,3.6004,,1094.9268,Partially,50,1094.9284,,,[],,0,17,17,17,1,audio/Narrative8Situation8.wav,audio/Narrative7Situation8.wav,audio/Narrative6Situation8.wav,audio/Narrative5Situation8.wav,3,2,5,3,,,,,,,,,,,,,,,,,,,,,,,,,,,,,,,,,,,,,,,
,,,,,,5e4c0ba01ae5a4000b539387,2024-02-08_13h16.19.675,group3.1-3.2-social-tom,2023.2.2,Win32,60.24096386,65c5074098b851296ff0b7ed,65c541eacb0985acfd94fb15,,,,,,,,,,,,,,,,,,,,,,,,,,,,,1094.9286,2,audio/Narrative5Situation9.wav,1097.9374,,1097.9375,1137.4872,[],1,0,1137.4876,1141.8757,76.04166667,3.0638,"[{""rating"":76.04166666666667,""responseTime"":3.063799999996945}]",space,3.8501,,1141.8757,Not at all,0,1141.8778,,,[],,0,18,18,18,1,audio/Narrative8Situation9.wav,audio/Narrative7Situation9.wav,audio/Narrative6Situation9.wav,audio/Narrative5Situation9.wav,3,2,4,3,,,,,,,,,,,,,,,,,,,,,,,,,,,,,,,,,,,,,,,
,,,,,,5e4c0ba01ae5a4000b539387,2024-02-08_13h16.19.675,group3.1-3.2-social-tom,2023.2.2,Win32,60.24096386,65c5074098b851296ff0b7ed,65c541eacb0985acfd94fb15,,,,,,,,,,,,,,,,,,,,,,,,,,,,,,,,,,,,,,,,,,,,,,,,,,,,,,,,,,,,,,,,,,,,,,,,1141.8781,1190.3381,space,47.9457,,1190.3386,1221.6368,space,30.9571,,,,,,,,,,,,,,,,,,,,,,,,,,
,,,,,,5e4c0ba01ae5a4000b539387,2024-02-08_13h16.19.675,group3.1-3.2-social-tom,2023.2.2,Win32,60.24096386,65c5074098b851296ff0b7ed,65c541eacb0985acfd94fb15,,,,,,,,,,,,,,,,,,,,,,,,,,,,,1224.2294,1,audio/Narrative7Situation9.wav,1226.2351,,,,,,,1258.1435,1265.3569,80.20833333,5.9514,"[{""rating"":80.20833333333333,""responseTime"":5.9514000000060605}]",space,6.6822,,1258.1365,Partially,50,1258.1435,,,[],,,,,,,,,,,2,2,2,2,,,,,,,,,,,,,,,1221.6451,1224.2189,1226.236,3,1258.1364,"[[62.3,504],[3.4,587],[56.7,4099],[56.7,4182],[56.9,4265],[57.1,4348],[57.3,4432],[57.9,4515],[59,4599],[63,4682],[65.7,4765],[67.3,4848],[69.3,4932],[70.2,5015],[71.4,5098],[71.4,5181],[71.4,5265],[71.6,5348],[71.6,5432],[71.6,5515],[71.6,5598],[71.6,5682],[71.6,5765],[71.6,5848],[71.6,5931],[71.6,6015],[71.6,6098],[71.6,6182],[71.6,6265],[71.6,6348],[71.6,6432],[71.6,6515],[71.6,6598],[71.6,6681],[71.6,6765],[71.6,6848],[71.6,6932],[71.6,7015],[71.6,7098],[71.6,7182],[71.6,7265],[71.6,7348],[71.6,7431],[71.6,7515],[71.6,7598],[71.6,7682],[71.6,7765],[71.6,7848],[71.6,7932],[71.6,8015],[71.6,8098],[71.6,8181],[71.6,8265],[71.6,8348],[71.6,8432],[71.6,8515],[71.6,8598],[71.6,8682],[71.6,8765],[71.6,8848],[71.6,8931],[71.6,9015],[71.6,9098],[71.6,9182],[71.6,9265],[71.6,9348],[71.6,9432],[71.6,9515],[71.6,9598],[71.6,9681],[71.6,9765],[71.6,9848],[71.6,9932],[71.6,10015],[71.6,10098],[71.6,10182],[71.6,10265],[71.6,10348],[71.6,10431],[71.6,10515],[71.6,10604],[71.6,10687],[71.6,10770],[71.6,10848],[71.6,10936],[71.6,11015],[71.6,11099],[71.7,11185],[71.7,11270],[71.7,11354],[71.7,11432],[71.7,11520],[71.7,11605],[71.7,11687],[71.7,11765],[71.7,11853],[71.7,11937],[71.7,12015],[71.7,12104],[71.7,12187],[71.7,12265],[71.7,12354],[71.7,12432],[71.7,12520],[71.7,12603],[71.7,12682],[71.7,12765],[71.7,12848],[71.7,12938],[71.7,13020],[71.7,13104],[71.7,13182],[71.7,13270],[71.7,13354],[71.7,13432],[71.7,13518],[71.7,13604],[71.7,13687],[71.7,13765],[71.7,13848],[71.7,13931],[71.7,14015],[71.7,14104],[71.7,14182],[71.7,14265],[71.7,14354],[71.7,14435],[71.7,14515],[71.7,14598],[71.7,14681],[71.7,14770],[71.7,14854],[71.7,14937],[71.7,15015],[71.7,15101],[71.7,15181],[71.7,15265],[71.7,15348],[71.7,15431],[71.7,15515],[71.7,15598],[71.7,15682],[71.7,15770],[71.7,15848],[71.7,15932],[71.7,16021],[71.7,16098],[71.7,16181],[71.7,16265],[71.7,16348],[71.7,16436],[71.7,16515],[71.7,16603],[71.7,16681],[71.7,16765],[71.7,16848],[71.7,16932],[71.7,17020],[71.7,17103],[71.9,17192],[71.9,17270],[71.9,17348],[71.9,17432],[71.9,17520],[71.9,17599],[71.9,17681],[71.9,17765],[71.9,17853],[71.9,17936],[71.9,18015],[71.9,18103],[71.9,18187],[71.9,18265],[71.9,18348],[71.9,18432],[71.9,18520],[71.9,18598],[71.9,18687],[71.9,18765],[71.9,18852],[71.9,18931],[71.9,19021],[71.9,19098],[72.1,19187],[72.1,19264],[72.1,19348],[72.1,19437],[72.1,19515],[72.1,19604],[72.1,19681],[72.1,19765],[72.1,19853],[72.1,19931],[72.1,20014],[72.1,20098],[72.1,20181],[72.1,20265],[72.1,20348],[72.1,20431],[72.1,20515],[72.1,20603],[72.1,20686],[72.1,20765],[72.1,20848],[72.1,20937],[72.1,21015],[72.1,21098],[72.1,21187],[72.1,21270],[72.1,21348],[72.1,21431],[72.1,21520],[72.1,21602],[72.1,21681],[72.1,21767],[72.1,21853],[72.1,21931],[72.1,22020],[72.1,22098],[72.1,22184],[72.1,22265],[72.1,22354],[72.1,22436],[72.1,22515],[72.1,22598],[72.1,22687],[72.1,22765],[72.1,22854],[72.1,22936],[72.1,23018],[72.1,23098],[72.1,23187],[72.1,23265],[72.1,23353],[72.1,23435],[72.1,23520],[72.1,23604],[72.1,23682],[72.1,23765],[72.1,23854],[72.1,23937],[72.1,24015],[72.1,24103],[72.1,24181],[72.1,24265],[72.1,24354],[72.1,24437],[72.1,24520],[72.1,24604],[72.1,24682],[72.1,24769],[72.1,24848],[72.1,24932],[72.1,25020],[72.1,25104],[72.1,25181],[72.1,25265],[72.1,25348],[72.1,25435],[72.1,25520],[72.1,25604],[72.1,25681],[72.1,25765],[72.1,25848],[72.1,25937],[72.1,26021],[72.1,26103],[72.1,26181],[72.1,26268],[72.1,26354],[72.1,26431],[72.1,26515],[72.1,26598],[72.1,26681],[72.1,26764],[72.1,26848],[72.1,26932],[72.1,27020],[72.1,27098],[72.1,27181],[72.1,27265],[72.1,27348],[72.1,27431],[72.1,27515],[72.1,27598],[72.1,27681],[72.1,27765],[72.1,27853],[72.1,27931],[72.1,28020],[72.1,28098],[72.1,28181],[72.1,28271],[72.1,28348],[72.1,28437],[72.1,28517],[72.1,28598],[72.1,28686],[72.1,28770],[72.1,28848],[72.1,28935],[72.1,29021],[72.1,29098],[72.1,29181],[72.1,29265],[72.1,29353],[72.1,29431],[72.1,29519],[72.1,29598],[72.1,29681],[72.1,29770],[72.1,29850],[72.1,29932],[72.1,30019],[72.1,30103],[72.1,30186],[72.1,30271],[72.1,30354],[72.1,30437],[72.1,30520],[72.1,30604],[72.1,30687],[72.1,30765],[72.1,30848],[72.1,30937],[72.1,31015],[72.1,31103],[72.1,31181],[72.1,31267],[72.1,31353],[72.1,31436],[72.1,31514],[72.1,31604],[72.1,31681],[72.1,31770],[72.1,31848]]",0,0,0,0,1,"Larry had recently lost his family, job and home, and was now living on his own in the park. He had most of his belongings, including some clothes, a blanket, and his mother’s special necklace. His family had been very important to him and he felt as though he did not have much going for him. One of his first days in the park he came across a family that did not have much food and looked very cold. He decided to give them some of his food and his blanket.","Larry had recently lost his family, job and home, and was now living on his own in the park. He had most of his belongings, including some clothes, a blanket, and his mother’s special necklace. His family had been very important to him and he felt as though he did not have much going for him. One of his first days in the park he came across a family that did not have much food and looked very cold. He decided to give them some of his food and his blanket.","Larry had recently lost his family, job and home, and was now living on his own in the park. He had most of his belongings, including some clothes, a blanket, and his mother’s special necklace. His family had been very important to him and he felt as though he did not have much going for him. One of his first days in the park he came across a family that did not have much food and looked very cold. He decided to give them some of his food and his blanket.","Larry had recently lost his family, job and home, and was now living on his own in the park. He had most of his belongings, including some clothes, a blanket, and his mother’s special necklace. His family had been very important to him and he felt as though he did not have much going for him. One of his first days in the park he came across a family that did not have much food and looked very cold. He decided to give them some of his food and his blanket.",,,,,,,,,,
,,,,,,5e4c0ba01ae5a4000b539387,2024-02-08_13h16.19.675,group3.1-3.2-social-tom,2023.2.2,Win32,60.24096386,65c5074098b851296ff0b7ed,65c541eacb0985acfd94fb15,,,,,,,,,,,,,,,,,,,,,,,,,,,,,1265.3574,1,audio/Narrative7Situation9.wav,1268.4185,space,,,,,,1292.2969,1296.889,80.20833333,3.4627,"[{""rating"":80.20833333333333,""responseTime"":3.4627000000029966}]",space,4.0545,,1292.2892,Definitely yes,100,1292.2968,,,[],,,,,,,,,,,6,2,3,9,3.0342,,,,,,,,,,,,,,,,1268.4187,3,1292.2891,[],0,1,1,1,1,"It was just another Sunday afternoon for Lucy, she was on her way to the farmer's market to pick up some produce. When she arrived at the old train depot that housed the market, she noticed two men fighting on the steps. Before she could call for help, one of the men crumpled to his knees. The other man dropped an object that appeared to be a knife and ran off. When Lucy approached the crime scene she realized that the man who had been murdered was the Mayor and that he had a gunshot wound.","One day at work, Margaret walked up to her partner, Al, to ask him to talk to the chief of staff at the local hospital where she worked as a nurse.","Luke always thought of himself as an honest man. That's why during his evening jog around the swamp, he pondered his recent affair with the receptionist at work. Luke looked up at the sky and asked God why he was so weak and unfaithful. He thought of the impact this would have on his family and told God of his conflicted feelings toward telling his wife Marta.","Linda and Amy had been best friends since kindergarten, they even found homes on the same street in the forest on the edge of town. Their biggest fight had been over who gets the bigger slice of cake, until Amy married Dan. Linda loathed Dan, she thought he was manipulative and had a violent temper. She only put up with him because Amy loved him. ",,,,,,,,,,
,,,,,,5e4c0ba01ae5a4000b539387,2024-02-08_13h16.19.675,group3.1-3.2-social-tom,2023.2.2,Win32,60.24096386,65c5074098b851296ff0b7ed,65c541eacb0985acfd94fb15,,,,,,,,,,,,,,,,,,,,,,,,,,,,,1296.8893,1,audio/Narrative7Situation9.wav,1301.9001,,,,,,,1344.8997,1352.6498,76.04166667,6.3155,"[{""rating"":76.04166666666667,""responseTime"":6.315500000000156}]",space,7.2049,,1328.0835,Partially,50,1344.8995,49.16667144,14.8448,"[{""rating"":81.97917143503825,""responseTime"":2.9954999999999927},{""rating"":48.229169845581055,""responseTime"":5.15300000000002},{""rating"":49.68750476837158,""responseTime"":6.585100000008879},{""rating"":79.37500476837158,""responseTime"":12.411799999996902},{""rating"":49.16667143503825,""responseTime"":14.844799999996894}]",space,,,,,,,,,,4,5,2,2,,,16.2673,,,,,,,,,,,,,,1301.9001,3,1328.0834,[],0,2,2,2,1,On the ground beside him was a pen that she had mistaken for a knife. Lucy looked for the gunman and saw a suspicious man in black with distinct pointy features darting into an alley across the street. Cops who were nearby chased the man who had fled and arrested him.,"While waiting outside the chief of staff's office, Al heard nondescript shouting and yelling, there was a loud clatter in the room and then an eerie silence. An unfamiliar employee ran hastily out of the office with a terrified look on their face.","Suddenly, Luke heard a woman call out his name and when he turned around he saw Carly, his receptionist, across the road with a gun in her hand. Carly ran to him and explained how she had followed him here to confess her love. She exclaimed if Luke didn't love her back that she would kill him and his family. Carly explained that the only way they could be together is to kill Marta.","This feeling of hate between Amy and Dan was mutual, Dan didn't like how much time his wife spent with her and thought Amy was creating distance between their marriage. That's why Dan decided to try and tarnish Linda's reputation with his wife, in hopes it would get rid of her. He came home one afternoon and exclaimed that Linda had tried to kiss him. Amy was taken aback and immediately called Linda to confront her about these accusations. When Linda arrived she denied having made a move on Dan, but discovered Dan had enlisted the help of his friend Will who said he witnessed it all happen.",,,,,,,,,,
,,,,,,5e4c0ba01ae5a4000b539387,2024-02-08_13h16.19.675,group3.1-3.2-social-tom,2023.2.2,Win32,60.24096386,65c5074098b851296ff0b7ed,65c541eacb0985acfd94fb15,,,,,,,,,,,,,,,,,,,,,,,,,,,,,1352.6502,1,audio/Narrative7Situation9.wav,1354.6659,,,,,,,1377.1899,1381.5986,84.68750318,3.057,"[{""rating"":84.68750317891438,""responseTime"":3.0570000000000164}]",space,3.8733,,1377.1823,Definitely yes,100,1377.1898,,,[],,,,,,,,,,,2,2,1,4,,,,,,,,,,,,,,,,,1354.666,3,1377.1823,"[[75.3,17249],[74.8,17332],[73.8,17416],[69.2,17499]]",0,3,3,3,1,"But Lucy knew the charged man was innocent, which meant the killer was free. Lucy vowed to find out who the real murderer was and to stop him at all costs.","Al explained to the chief of staff that Margaret wanted to be excused from her absences last week. The chief of staff, Susan, revealed that she wanted to fire Margaret and never see her again. Susan and Al had been having an affair and she wanted Margaret ""out of the picture"". Al was conflicted, but agreed it would be for the best.","Luke thought of his child and felt like this was his only option. He agreed to the plan and called his wife to meet him at the swamp to watch the sunset with him. When she arrived, Marta called out for her husband, but found Carly waiting for her. She immediately drew her gun and shot her in the chest, knocking her unconscious.","Since it was their word against her own, she decided to go home and admit defeat. She knew how much it would hurt Amy to know the truth.",,,,,,,,,,
,,,,,,5e4c0ba01ae5a4000b539387,2024-02-08_13h16.19.675,group3.1-3.2-social-tom,2023.2.2,Win32,60.24096386,65c5074098b851296ff0b7ed,65c541eacb0985acfd94fb15,,,,,,,,,,,,,,,,,,,,,,,,,,,,,1381.5988,1,audio/Narrative7Situation9.wav,1382.6154,,,,,,,1405.1414,1408.9651,28.43750318,2.0176,"[{""rating"":28.43750317891439,""responseTime"":2.0176000000087697}]",space,3.2853,,1405.1319,Definitely yes,100,1405.1413,,,[],,,,,,,,,,,1,1,3,3,,,,,,,,,,,,,,,,,1382.6154,3,1405.1318,"[[83,750],[82.7,833],[81.9,916],[80.9,1000],[80.9,1083],[80.9,1166],[80.6,1249],[80.6,1333],[80.6,1416],[80.6,1499],[80.6,1582],[80.6,1666],[80.6,1750],[80.6,1833],[80.6,1916],[80.6,1999],[80.3,2083],[79.2,2166],[73.9,2249],[69.2,2333],[20,4166],[22.7,4250],[25,4333],[25,4416],[25,4499],[25,4583],[25,4666],[25,4749],[25,4833],[25,4916],[25,4999],[25,5082],[25,5166],[25,5250],[25,5333],[25,5416],[25,5499],[25,5583],[25,5666],[25,5749],[25,5832],[25,5916],[25,5999],[25,6083],[25,6166],[25,6249],[25,6333],[25,6416],[25,6499],[25,6583],[25,6666],[25,6749],[25,6833],[25,6916],[25,6999],[25,7082],[25,7166],[25,7249],[25,7333],[25,7416],[25,7499],[25,7583],[25,7666],[25,7749],[25,7832],[25,7916],[25,7999],[25,8083],[25,8166],[25,8249],[25,8333],[25,8416],[25,8499],[25,8583],[25,8666],[25,8749],[25,8833],[25,8916],[25,8999],[25,9083],[25,9166],[25,9249],[25,9333],[25,9416],[25,9499],[25,9583],[25,9666],[25,9750],[25,9833],[25,9916],[25,9999],[25,10083],[25,10166],[25,10250],[25,10333],[25,10416],[25,10499],[25,10582],[25,10666],[25,10749],[25,10833],[25,10916],[25,10999],[25,11083],[25,11166],[25,11249],[25,11333],[25,11416],[25,11499],[25,11583],[25,11666],[25,11749],[25,11832],[25,11916],[25,11999],[25,12083],[25,12166],[25,12249],[25,12333],[25,12416],[25,12499],[25,12582],[25,12666],[25,12749],[25,12833],[25,12916],[25,12999],[25,13082],[25,13166],[25,13249],[25,13332],[25,13416],[25,13499],[25,13582],[25,13666],[25,13749],[25,13833],[25,13916],[25,13999],[25,14082],[25,14166],[25,14249],[25,14333],[25,14416],[25,14499],[25,14583],[25,14666],[25,14749],[25,14833],[25,14916],[25,14999],[25,15083],[25,15166],[25,15249],[25,15332],[25,15416],[25,15499],[25,15583],[25,15666],[25,15749],[25,15832],[25,15916],[25,15999],[25,16082],[25,16166],[25,16249],[25,16333],[25,16416],[25,16499],[25,16583],[25,16666],[25,16749],[25,16832],[25,16916],[25,16999],[25,17083],[25,17166],[25,17249],[25,17333],[25,17415],[25,17499],[25,17582],[25,17666],[25,17749],[25,17833],[25,17916],[25,17999],[25,18082],[25,18165],[25,18249],[25,18333],[25,18416],[25,18499],[25,18583],[25,18666],[25,18749],[25,18832],[25,18915],[25,18999],[25,19083],[25,19166],[25,19249],[25,19333],[25,19416],[25,19499],[25,19582],[25,19666],[25,19749],[25,19832],[25,19916],[25,19999],[25,20083],[25,20166],[25,20249],[25,20332],[25,20416],[25,20499],[25,20583],[25,20666],[25,20749],[25,20833],[25,20915],[25,20999],[25,21083],[25,21166],[25,21249],[25,21332],[25,21416],[25,21499],[25,21582],[25,21665],[25,21749],[25,21832],[25,21916],[25,21999],[25,22083],[25,22166],[25,22249],[25,22332],[25,22415],[25,22499]]",0,4,4,4,1,"The next day the mayors successor, Mr. Smith, a man who was very unpopular due to his strong ties to the oil companies, took office. After a long day of brainstorming about the mysterious killer, Lucy decided to attend his welcome ceremony in the city. During the mayor's speech, she noticed one of the security guards looked strangely familiar. It dawned on her that this new mayor had motive to kill and that the man in black could've been the guard working for him.","Weeks passed and nobody had seen Margaret. Coworkers and friends searched the nearby city looking for her. One day on patrol in a nearby town, a police officer heard someone crying for help in the basement of a house and went in to investigate. Margaret yelled that she was being held captive and needed help.","Luke ran to Marta, and filled with regret over his decision to go along with Carly's plan, picked her up and rushed her to the hospital. The doctors tried to help Marta by taking her into emergency surgery but failed to save her life. Once the doctor called the time of death, Luke fell to his knees and sobbed over his rash decision.","Months later Dan had taken up a mistress, he was growing bored with his marriage ever since he got rid of Linda and was only still with Amy for her family's money. In a hotel room in a nearby town, Dan and his mistress, Nicole, conspired to secretly kill Amy while still obtaining her fortune.",,,,,,,,,,
