exp_question,consent.started,consent.stopped,consentResponse.keys,consentResponse.rt,consentResponse.duration,participantID,date,expName,psychopyVersion,OS,frameRate,STUDY_ID,SESSION_ID,opening1.started,opening1.stopped,keyEndingOpening1.keys,keyEndingOpening1.rt,keyEndingOpening1.duration,volumeAdjust.started,volumeAdjust.stopped,endingAdjust.keys,endingAdjust.rt,endingAdjust.duration,opening2.started,opening2.stopped,keyEndingOpening.keys,keyEndingOpening.rt,keyEndingOpening.duration,mouse.x,mouse.y,mouse.leftButton,mouse.midButton,mouse.rightButton,mouse.time,instructionLoop.thisRepN,instructionLoop.thisTrialN,instructionLoop.thisN,instructionLoop.thisIndex,instructionLoop.ran,readyForAudio.started,readyForAudio.stopped,fixation.started,run,audio_played,fixation.stopped,endPractice.keys,audioPre.started,audioPre.stopped,continuousResponses_audio,continuousSlider.response,continuousSlider.rt,intRating.started,intRating.stopped,intQuestionSlider.response,intQuestionSlider.rt,intQuestionSlider.history,confirmResponse.keys,confirmResponse.rt,confirmResponse.duration,catchQuestion.started,catch_label,catch_value,catchQuestion.stopped,catchQuestionSlider.response,catchQuestionSlider.rt,catchQuestionSlider.history,confirmResponse_2.keys,audioRunLoop.thisRepN,audioRunLoop.thisTrialN,audioRunLoop.thisN,audioRunLoop.thisIndex,audioRunLoop.ran,conditions1_1,conditions2_1,conditions1_2,conditions2_2,dur1_1,dur2_1,dur1_2,dur2_2,endPractice.rt,endPractice.duration,confirmResponse_2.rt,confirmResponse_2.duration,runIntervalBreak.started,runIntervalBreak.stopped,endingBreakKey.keys,endingBreakKey.rt,endingBreakKey.duration,connection.started,connection.stopped,connectionEnding.keys,connectionEnding.rt,connectionEnding.duration,readyForText.started,readyForText.stopped,textPre.started,run_dup,textPre.stopped,continuousResponses_text,textRunLoop.thisRepN,textRunLoop.thisTrialN,textRunLoop.thisN,textRunLoop.thisIndex,textRunLoop.ran,text1_1,text1_2,text2_1,text2_2,runBreakText.started,runBreakText.stopped,endingBreakKey_2.keys,endingBreakKey_2.rt,endingBreakKey_2.duration,ending.started,ending.stopped,endingEnding.keys,endingEnding.rt,endingEnding.duration
tom,0.0001,3.7924,y,3.2883,,5e63e24eaf3bd51660031dbe,2024-02-08_15h03.49.980,group3.1-3.2-social-tom,2023.2.2,Win32,8.568980291,65c5074098b851296ff0b7ed,65c54194f3faf7b0e43a6ef8,,,,,,,,,,,,,,,,,,,,,,,,,,,,,,,,,,,,,,,,,,,,,,,,,,,,,,,,,,,,,,,,,,,,,,,,,,,,,,,,,,,,,,,,,,,,,,,,,,,,,,,,,,
,,,,,,5e63e24eaf3bd51660031dbe,2024-02-08_15h03.49.980,group3.1-3.2-social-tom,2023.2.2,Win32,8.568980291,65c5074098b851296ff0b7ed,65c54194f3faf7b0e43a6ef8,3.7926,11.3948,space,7.4639,,,,,,,,,,,,,,,,,,,,,,,,,,,,,,,,,,,,,,,,,,,,,,,,,,,,,,,,,,,,,,,,,,,,,,,,,,,,,,,,,,,,,,,,,,,,,,,,,,,,,,
,,,,,,5e63e24eaf3bd51660031dbe,2024-02-08_15h03.49.980,group3.1-3.2-social-tom,2023.2.2,Win32,8.568980291,65c5074098b851296ff0b7ed,65c54194f3faf7b0e43a6ef8,,,,,,11.395,26.4787,space,14.5628,0.0003,,,,,,,,,,,,,,,,,,,,,,,,,,,,,,,,,,,,,,,,,,,,,,,,,,,,,,,,,,,,,,,,,,,,,,,,,,,,,,,,,,,,,,,,,,,,,,,,
,,,,,,5e63e24eaf3bd51660031dbe,2024-02-08_15h03.49.980,group3.1-3.2-social-tom,2023.2.2,Win32,8.568980291,65c5074098b851296ff0b7ed,65c54194f3faf7b0e43a6ef8,,,,,,,,,,,26.4816,39.6035,space,12.9963,,[],[],[],[],[],[],0,0,0,0,1,,,,,,,,,,,,,,,,,,,,,,,,,,,,,,,,,,,,,,,,,,,,,,,,,,,,,,,,,,,,,,,,,,,,,,,,,,,,,,,,
,,,,,,5e63e24eaf3bd51660031dbe,2024-02-08_15h03.49.980,group3.1-3.2-social-tom,2023.2.2,Win32,8.568980291,65c5074098b851296ff0b7ed,65c54194f3faf7b0e43a6ef8,,,,,,,,,,,39.6086,65.3185,space,25.5274,0.0002,[],[],[],[],[],[],1,0,1,0,1,,,,,,,,,,,,,,,,,,,,,,,,,,,,,,,,,,,,,,,,,,,,,,,,,,,,,,,,,,,,,,,,,,,,,,,,,,,,,,,,
,,,,,,5e63e24eaf3bd51660031dbe,2024-02-08_15h03.49.980,group3.1-3.2-social-tom,2023.2.2,Win32,8.568980291,65c5074098b851296ff0b7ed,65c54194f3faf7b0e43a6ef8,,,,,,,,,,,65.3235,75.5441,space,10.064,,[],[],[],[],[],[],2,0,2,0,1,,,,,,,,,,,,,,,,,,,,,,,,,,,,,,,,,,,,,,,,,,,,,,,,,,,,,,,,,,,,,,,,,,,,,,,,,,,,,,,,
,,,,,,5e63e24eaf3bd51660031dbe,2024-02-08_15h03.49.980,group3.1-3.2-social-tom,2023.2.2,Win32,8.568980291,65c5074098b851296ff0b7ed,65c54194f3faf7b0e43a6ef8,,,,,,,,,,,75.5489,96.1737,space,20.481,,[],[],[],[],[],[],3,0,3,0,1,,,,,,,,,,,,,,,,,,,,,,,,,,,,,,,,,,,,,,,,,,,,,,,,,,,,,,,,,,,,,,,,,,,,,,,,,,,,,,,,
,,,,,,5e63e24eaf3bd51660031dbe,2024-02-08_15h03.49.980,group3.1-3.2-social-tom,2023.2.2,Win32,8.568980291,65c5074098b851296ff0b7ed,65c54194f3faf7b0e43a6ef8,,,,,,,,,,,96.1793,106.7204,space,10.4078,,[],[],[],[],[],[],4,0,4,0,1,,,,,,,,,,,,,,,,,,,,,,,,,,,,,,,,,,,,,,,,,,,,,,,,,,,,,,,,,,,,,,,,,,,,,,,,,,,,,,,,
,,,,,,5e63e24eaf3bd51660031dbe,2024-02-08_15h03.49.980,group3.1-3.2-social-tom,2023.2.2,Win32,8.568980291,65c5074098b851296ff0b7ed,65c54194f3faf7b0e43a6ef8,,,,,,,,,,,,,,,,,,,,,,,,,,,106.7263,109.2282,109.2396,1,audio/Narrative13Situation2.wav,111.325,,111.3252,141.2778,"[[999,0],[999,134],[999,258],[999,371],[999,485],[999,604],[999,719],[999,833],[999,950],[999,1049],[999,1164],[999,1275],[999,1394],[999,1501],[999,1617],[999,1729],[999,1841],[999,1950],[999,2064],[999,2181],[999,2295],[999,2414],[999,2571],[999,2721],[999,2863],[999,3001],[999,3148],[999,3293],[999,3410],[999,3531],[999,3644],[999,3764],[999,3879],[999,3997],[999,4108],[999,4223],[999,4337],[999,4459],[999,4584],[999,4712],[999,4830],[999,4945],[999,5057],[999,5172],[999,5293],[999,5405],[999,5519],[999,5636],[999,5755],[999,5873],[999,5994],[999,6109],[999,6226],[999,6338],[999,6449],[999,6562],[999,6679],[999,6791],[999,6912],[999,7031],[999,7177],[999,7334],[999,7474],[999,7619],[999,7761],[999,7893],[999,8038],[999,8165],[999,8275],[999,8382],[999,8502],[999,8614],[999,8729],[999,8856],[999,8992],[999,9118],[999,9233],[999,9345],[999,9461],[999,9580],[999,9699],[999,9827],[999,9953],[999,10082],[999,10197],[999,10310],[999,10426],[999,10543],[999,10660],[999,10786],[999,10899],[999,11014],[999,11136],[999,11256],[999,11376],[999,11485],[999,11598],[999,11709],[999,11828],[999,11939],[999,12052],[999,12171],[999,12291],[999,12419],[999,12534],[999,12638],[999,12750],[999,12869],[999,12984],[999,13103],[999,13231],[999,13354],[999,13466],[999,13578],[999,13696],[999,13814],[40.5,13932],[39.9,14051],[37.4,14175],[37.3,14289],[37.3,14408],[37.3,14518],[37.3,14641],[37.3,14754],[37.3,14879],[37.3,14999],[37.3,15118],[37.3,15238],[37.3,15360],[37.3,15479],[37.3,15597],[37.3,15715],[37.3,15831],[37.3,15951],[37.3,16059],[37.3,16167],[37.3,16288],[37.3,16409],[37.3,16525],[37.3,16646],[37.3,16756],[37.3,16880],[37.3,16993],[37.3,17103],[37.3,17218],[37.3,17337],[37.3,17466],[37.3,17592],[37.3,17703],[37.3,17821],[37.3,17937],[37.3,18042],[37.3,18185],[37.3,18315],[37.3,18445],[37.3,18566],[37.3,18698],[37.3,18833],[34.9,18954],[34.1,19075],[34.1,19188],[30,19305],[29.6,19422],[28,19555],[27.9,19676],[26,19802],[25.6,19918],[22.7,20033],[20.3,20154],[19.9,20263],[19.9,20378],[18.1,20497],[18.1,20611],[18.1,20721],[18.1,20837],[18.1,20956],[18.1,21078],[18.1,21190],[18.1,21312],[18.1,21429],[18.1,21549],[18,21670],[18,21784],[18,21899],[18,22013],[18,22126],[18,22240],[18,22358],[18,22484],[18,22599],[18,22714],[18,22837],[18,22955],[18,23074],[18,23184],[18,23302],[18,23414],[18,23525],[18,23638],[18,23755],[18,23871],[18,23981],[18,24091],[18,24208],[18,24324],[18,24436],[18,24546],[18,24663],[18,24777],[18,24892],[18,25012],[18,25142],[18,25261],[18,25387],[18,25504],[18,25622],[18,25740],[18,25859],[18.5,25973],[18.8,26099],[18.8,26209],[19.4,26332],[20.3,26468],[21.1,26586],[21.1,26712],[21.3,26820],[21.3,26939],[21.4,27060],[21.4,27174],[21.4,27284],[21.4,27398],[22.2,27519],[22.2,27631],[22.2,27751],[22.7,27867],[25.5,27985],[25.6,28099],[25.9,28222],[25.9,28344],[27.8,28464],[27.9,28581],[27.9,28693],[27.9,28808],[31.4,28931],[32,29042],[32,29155],[32,29275],[32,29388],[32,29502],[32,29619],[32,29733],[32,29840],[32,29952]]",1,0,141.278,152.3229,48.984375,7.1299,"[{""rating"":48.984375,""responseTime"":7.129900000035775}]",space,10.313,,152.3275,Not at all,0,152.3304,,,[],,0,0,0,0,1,audio/Narrative13Situation2.wav,audio/Narrative13Situation2.wav,audio/Narrative13Situation2.wav,audio/Narrative13Situation2.wav,2,2,2,2,,,,,,,,,,,,,,,,,,,,,,,,,,,,,,,,,,,,,,,
,,,,,,5e63e24eaf3bd51660031dbe,2024-02-08_15h03.49.980,group3.1-3.2-social-tom,2023.2.2,Win32,8.568980291,65c5074098b851296ff0b7ed,65c54194f3faf7b0e43a6ef8,,,,,,,,,,,,,,,,,,,,,,,,,,,,,152.3305,1,audio/Narrative8Situation1.wav,154.2158,space,154.2159,170.3166,"[[999,0],[999,109],[999,221],[999,342],[999,448],[999,557],[999,673],[999,779],[999,891],[999,1015],[999,1126],[999,1246],[999,1354],[999,1472],[999,1587],[999,1703],[999,1817],[999,1935],[999,2044],[999,2157],[999,2270],[999,2387],[999,2503],[999,2614],[999,2729],[999,2847],[999,2957],[999,3069],[999,3176],[999,3293],[999,3409],[999,3517],[999,3624],[999,3728],[999,3844],[999,3956],[999,4056],[999,4171],[999,4283],[999,4398],[999,4516],[999,4624],[999,4730],[999,4837],[999,4955],[999,5069],[999,5182],[999,5293],[999,5406],[999,5532],[999,5652],[999,5767],[999,5883],[999,5994],[999,6106],[999,6222],[999,6334],[999,6449],[31,6568],[31.6,6692],[32.3,6803],[32.9,6921],[33.2,7034],[33.2,7134],[33.2,7243],[33.2,7344],[33.2,7452],[33.2,7568],[33.2,7689],[33.2,7804],[33.2,7914],[33.2,8032],[33.2,8145],[33.2,8264],[33.2,8371],[33.2,8485],[33.2,8605],[33.2,8718],[33.2,8834],[33.2,8949],[33.2,9059],[33.2,9179],[33.2,9292],[33.2,9409],[33.2,9527],[33.2,9629],[33.2,9739],[33.2,9854],[33.2,9972],[33.2,10076],[33.2,10183],[33.2,10297],[33.2,10410],[33.2,10523],[33.2,10651],[33.2,10771],[33.2,10884],[33.2,11001],[33.2,11115],[33.2,11229],[33.2,11342],[33.2,11455],[33.2,11567],[33.2,11690],[33.2,11800],[33.2,11919],[33.2,12024],[33.2,12134],[33.2,12250],[33.2,12366],[33.2,12486],[33.2,12594],[33.2,12713],[33.2,12829],[33.2,12948],[33.2,13063],[33.2,13179],[33.2,13295],[33.2,13411],[33.2,13534],[33.2,13649],[33.2,13766],[33.2,13881],[33.2,13998],[33.2,14113],[33.2,14227],[33.2,14348],[33.2,14462],[33.2,14573],[33.2,14695],[33.2,14821],[33.2,14939],[33.2,15048],[33.7,15161],[35.2,15291],[37.1,15415],[38.8,15538],[43.8,15652],[44.1,15769],[44.8,15881],[45,15991],[46.2,16100]]",1,0,170.3167,177.1076,41.171875,4.7307,"[{""rating"":41.171875,""responseTime"":4.730700000047705}]",space,5.9479,,177.1077,Not at all,0,177.1089,,,[],,0,1,1,1,1,audio/Narrative7Situation1.wav,audio/Narrative8Situation1.wav,audio/Narrative5Situation1.wav,audio/Narrative6Situation1.wav,2,5,5,2,1.7715,,,,,,,,,,,,,,,,,,,,,,,,,,,,,,,,,,,,,,
,,,,,,5e63e24eaf3bd51660031dbe,2024-02-08_15h03.49.980,group3.1-3.2-social-tom,2023.2.2,Win32,8.568980291,65c5074098b851296ff0b7ed,65c54194f3faf7b0e43a6ef8,,,,,,,,,,,,,,,,,,,,,,,,,,,,,177.1091,1,audio/Narrative8Situation2.wav,180.1561,,180.1562,190.4774,"[[50,1164],[50,1273],[50,1391],[50,1508],[50,1608],[50,1721],[50,1839],[50,1976],[50,2104],[50,2233],[50,2349],[50,2460],[50,2575],[50,2693],[50,2803],[50,2916],[50,3026],[50,3138],[50,3244],[50,3350],[50,3462],[50,3577],[50,3680],[50,3787],[50,3902],[50,4010],[50,4130],[50,4244],[50,4364],[50,4473],[50,4587],[50,4700],[50,4822],[50,4929],[50,5046],[50,5158],[50,5271],[50,5384],[50,5501],[50,5612],[50,5732],[50,5853],[50,5956],[50,6068],[50,6187],[50,6299],[50,6408],[50,6516],[50,6627],[50,6729],[50,6843],[50,6958],[50,7074],[50,7186],[50,7299],[50,7410],[50,7526],[50,7647],[50,7759],[50,7870],[50,7984],[50,8092],[50,8203],[50,8325],[50,8427],[50,8543],[50,8660],[50,8776],[50,8893],[49.9,9011],[49.9,9127],[49.9,9255],[49.9,9373],[49.9,9483],[49.9,9588],[49.9,9698],[49.9,9822],[49.9,9945],[51,10074],[51.3,10199],[52.4,10320]]",1,0,190.4775,197.7847,50.859375,4.6224,"[{""rating"":50.85937499999999,""responseTime"":4.622399999976153}]",space,6.4602,,197.7848,All the time,100,197.7871,,,[],,0,2,2,2,1,audio/Narrative7Situation2.wav,audio/Narrative8Situation2.wav,audio/Narrative5Situation2.wav,audio/Narrative6Situation2.wav,3,3,3,3,,,,,,,,,,,,,,,,,,,,,,,,,,,,,,,,,,,,,,,
,,,,,,5e63e24eaf3bd51660031dbe,2024-02-08_15h03.49.980,group3.1-3.2-social-tom,2023.2.2,Win32,8.568980291,65c5074098b851296ff0b7ed,65c54194f3faf7b0e43a6ef8,,,,,,,,,,,,,,,,,,,,,,,,,,,,,197.7873,1,audio/Narrative8Situation3.wav,201.7963,,201.7963,224.3842,"[[999,4],[999,113],[999,228],[999,353],[999,477],[999,602],[999,723],[999,848],[999,973],[999,1090],[999,1194],[999,1320],[999,1427],[999,1540],[999,1645],[999,1756],[999,1873],[999,1987],[999,2103],[999,2213],[999,2335],[999,2445],[999,2564],[999,2684],[999,2800],[999,2911],[60.6,3027],[67.7,3150],[69.1,3271],[70.7,3389],[73.7,3502],[73.7,3618],[73.8,3725],[73.9,3841],[73.9,3952],[73.9,4066],[73.9,4187],[73.9,4294],[73.9,4411],[73.9,4531],[73.9,4646],[74.5,4764],[74.6,4874],[74.6,4986],[74.6,5102],[74.6,5211],[74.6,5311],[74.6,5428],[74.6,5545],[74.6,5666],[74.6,5775],[74.6,5882],[74.6,5995],[74.6,6108],[74.6,6217],[74.6,6339],[74.7,6457],[75.1,6573],[75.1,6692],[75.1,6805],[75.1,6916],[75.1,7037],[75.1,7145],[75.1,7254],[75.1,7377],[75.1,7503],[75.1,7628],[75.1,7749],[75.1,7871],[75.1,7993],[75.1,8124],[75.1,8251],[75.1,8363],[78.1,10624],[79.1,10786],[80,10920],[81.2,11052],[81.2,11176],[81.2,11303],[81.2,11430],[81.2,11551],[81.2,11683],[81.2,11814],[81.2,11929],[81.2,12042],[81.2,12162],[81.2,12279],[80.2,12395],[80.1,12515],[80.1,12638],[80.1,12765],[80.1,12894],[80.1,13020],[80.1,13138],[80.1,13258],[80.1,13380],[80.1,13496],[80.1,13616],[80.1,13738],[80.1,13859],[80.1,13979],[80.1,14108],[80.1,14230],[80.1,14348],[80.1,14467],[80.1,14593],[80.1,14717],[80.1,14831],[80.1,14946],[80.1,15072],[80.1,15194],[80.1,15311],[80.1,15433],[80.1,15549],[80.1,15668],[80.1,15786],[80.1,15908],[80.1,16029],[80.1,16160],[80.1,16292],[80.1,16409],[80.1,16538],[80.1,16666],[80.1,16788],[80.1,16914],[80.1,17033],[80.1,17154],[80.1,17281],[80.1,17404],[80.1,17524],[80.1,17646],[80.1,17772],[80.1,17899],[80.1,18020],[80.1,18132],[80.1,18264],[80.1,18390],[80.1,18514],[80.1,18638],[80.1,18757],[80.1,18881],[80.1,19011],[80.1,19132],[80.1,19254],[80.1,19371],[80.1,19485],[80.1,19602],[80.1,19710],[80.1,19828],[80.1,19941],[80.1,20048],[80.1,20155],[80.1,20274],[80.1,20392],[80.1,20510],[80.1,20619],[80.1,20734],[79.2,20853],[79.2,20975],[79.2,21095],[79.2,21200],[79.2,21318],[79.2,21434],[79.2,21553],[79.2,21667],[79.2,21784],[79.2,21900],[79.2,22019],[79.2,22132],[79.2,22246],[79.2,22364],[79.2,22476],[79.2,22587]]",1,0,224.3843,228.265,82.65625,2.044,"[{""rating"":82.65625,""responseTime"":2.044000000000011}]",space,3.0382,,228.2652,All the time,100,228.2664,,,[],,0,3,3,3,1,audio/Narrative7Situation3.wav,audio/Narrative8Situation3.wav,audio/Narrative5Situation3.wav,audio/Narrative6Situation3.wav,8,4,3,5,,,,,,,,,,,,,,,,,,,,,,,,,,,,,,,,,,,,,,,
,,,,,,5e63e24eaf3bd51660031dbe,2024-02-08_15h03.49.980,group3.1-3.2-social-tom,2023.2.2,Win32,8.568980291,65c5074098b851296ff0b7ed,65c54194f3faf7b0e43a6ef8,,,,,,,,,,,,,,,,,,,,,,,,,,,,,228.2664,1,audio/Narrative8Situation4.wav,231.3477,,231.3477,245.7314,"[[51.3,7268],[52.6,7395],[53.5,7516],[54.2,7633],[55.9,7748],[55.9,7857],[55.9,7979],[55.9,8087],[55.9,8213],[55.9,8323],[55.9,8432],[58.8,8557],[59.8,8683],[59.8,8809],[59.8,8929],[59.8,9050],[59.8,9167],[60.5,9279],[61.3,9397],[61.3,9509],[61.5,9626],[61.5,9741],[61.7,9863],[61.7,9983],[61.9,10115],[62,10241],[62,10366],[62,10479],[62,10595],[63.1,10710],[63.1,10822],[63.1,10941],[63.1,11056],[63.1,11166],[63.1,11293],[63.1,11412],[63.1,11530],[63.1,11642],[63.1,11758],[63.1,11876],[63.1,11988],[63.1,12112],[63.1,12227],[63.1,12342],[63.1,12449],[63.1,12559],[63.1,12673],[63.1,12788],[63.1,12907],[63.1,13021],[63.1,13134],[63.1,13244],[63.1,13365],[63.1,13476],[63.1,13588],[63.1,13704],[63.1,13814],[63.1,13925],[63.1,14039],[63.5,14152],[64.4,14266],[64.8,14383]]",1,0,245.7316,248.51,68.359375,1.0938,"[{""rating"":68.359375,""responseTime"":1.0938000000119246}]",space,1.9521,,248.51,Half the time,50,248.5128,,,[],,0,4,4,4,1,audio/Narrative7Situation4.wav,audio/Narrative8Situation4.wav,audio/Narrative5Situation4.wav,audio/Narrative6Situation4.wav,3,3,1,2,,,,,,,,,,,,,,,,,,,,,,,,,,,,,,,,,,,,,,,
,,,,,,5e63e24eaf3bd51660031dbe,2024-02-08_15h03.49.980,group3.1-3.2-social-tom,2023.2.2,Win32,8.568980291,65c5074098b851296ff0b7ed,65c54194f3faf7b0e43a6ef8,,,,,,,,,,,,,,,,,,,,,,,,,,,,,248.5131,1,audio/Narrative8Situation5.wav,250.5485,,250.5485,258.9542,"[[999,0],[999,119],[999,239],[999,352],[999,459],[999,567],[999,679],[999,794],[999,910],[999,1022],[999,1137],[999,1249],[999,1357],[999,1465],[999,1582],[999,1697],[999,1813],[999,1927],[999,2041],[999,2154],[999,2269],[999,2375],[999,2491],[999,2598],[999,2703],[999,2817],[999,2930],[999,3038],[999,3168],[999,3283],[999,3399],[999,3511],[999,3621],[999,3730],[999,3841],[999,3956],[999,4064],[999,4173],[999,4291],[999,4407],[999,4518],[999,4630],[999,4748],[999,4860],[999,4969],[999,5085],[999,5197],[999,5312],[999,5421],[999,5541],[999,5651],[999,5771],[999,5887],[999,5996],[999,6107],[999,6220],[999,6329],[71.6,6443],[74.9,6562],[74.9,6674],[74.9,6790],[74.1,6894],[74.1,7004],[74.1,7120],[74.1,7235],[75.2,7353],[75.9,7466],[76.6,7584],[77.1,7702],[78,7823],[78,7941],[78.2,8057],[78.8,8172],[78.9,8290],[78.9,8405]]",1,0,258.9542,262.022,81.171875,1.3434,"[{""rating"":81.171875,""responseTime"":1.3434000000357855}]",space,2.2336,,262.0221,All the time,100,262.0243,,,[],,0,5,5,5,1,audio/Narrative7Situation5.wav,audio/Narrative8Situation5.wav,audio/Narrative5Situation5.wav,audio/Narrative6Situation5.wav,5,2,5,2,,,,,,,,,,,,,,,,,,,,,,,,,,,,,,,,,,,,,,,
,,,,,,5e63e24eaf3bd51660031dbe,2024-02-08_15h03.49.980,group3.1-3.2-social-tom,2023.2.2,Win32,8.568980291,65c5074098b851296ff0b7ed,65c54194f3faf7b0e43a6ef8,,,,,,,,,,,,,,,,,,,,,,,,,,,,,262.0243,1,audio/Narrative8Situation6.wav,264.1021,,264.1022,270.8186,"[[999,0],[999,107],[999,218],[999,329],[999,446],[39.1,561],[40.9,673],[40.9,786],[40.9,902],[39.6,1021],[41.4,1147],[41.4,1254],[41.4,1364],[41.4,1477],[41.4,1588],[41.4,1701],[41.4,1806],[41.8,1919],[44.3,2041],[51.9,2161],[56.7,2269],[61.6,2388],[60.5,2503],[59.8,2612],[59.1,2729],[59.1,2837],[59.1,2957],[59.2,3075],[60.2,3183],[61.4,3293],[65.5,3411],[65.9,3528],[65.9,3635],[65.9,3745],[65.9,3856],[65.9,3966],[65.9,4073],[66.2,4192],[66.3,4304],[66.3,4414],[67.7,4529],[68.8,4638],[68.8,4757],[71.9,4872],[71.9,4989],[71.9,5104],[73,5218],[73.1,5328],[73.1,5438],[73.1,5549],[73.1,5664],[73.1,5773],[73.1,5882],[73.1,5991],[73.1,6104],[73.1,6229],[73.4,6346],[73.4,6467],[73.4,6597],[73.4,6716]]",1,0,270.8186,273.2726,71.953125,1.2946,"[{""rating"":71.953125,""responseTime"":1.2945999999642481}]",space,1.6151,,273.2727,Half the time,50,273.2748,,,[],,0,6,6,6,1,audio/Narrative7Situation6.wav,audio/Narrative8Situation6.wav,audio/Narrative5Situation6.wav,audio/Narrative6Situation6.wav,3,2,3,2,,,,,,,,,,,,,,,,,,,,,,,,,,,,,,,,,,,,,,,
,,,,,,5e63e24eaf3bd51660031dbe,2024-02-08_15h03.49.980,group3.1-3.2-social-tom,2023.2.2,Win32,8.568980291,65c5074098b851296ff0b7ed,65c54194f3faf7b0e43a6ef8,,,,,,,,,,,,,,,,,,,,,,,,,,,,,273.275,1,audio/Narrative8Situation7.wav,276.3795,,276.3795,288.7044,"[[71.2,1955],[68.7,2073],[68.6,2182],[68.6,2306],[68.4,2420],[68.4,2538],[68.4,2645],[66.1,2773],[65.5,2887],[65.5,3008],[65.5,3121],[65.5,3237],[65.5,3343],[64.4,3457],[62.6,3570],[62.3,3681],[61.5,3802],[61.2,3918],[60.5,4037],[59.5,4154],[57.6,4266],[56.8,4379],[55.9,4494],[53.5,4613],[53.4,4726],[52.7,4838],[50.6,4946],[50.5,5068],[50.5,5183],[50.5,5294],[50.5,5411],[50.5,5516],[50.5,5634],[50.5,5753],[50.5,5859],[50.5,5971],[50.5,6088],[50.5,6193],[50.5,6314],[50.5,6430],[50.5,6550],[50.5,6666],[50.5,6783],[50.5,6904],[50.5,7014],[50.5,7126],[50.5,7235],[50.5,7344],[50.5,7462],[50.5,7579],[50.5,7692],[50.5,7804],[50.5,7917],[50.5,8030],[50.5,8143],[50.5,8260],[50.5,8372],[50.5,8482],[50.5,8588],[50.5,8692],[50.5,8803],[50.5,8908],[50.5,9012],[50.5,9122],[50.5,9234],[50.5,9354],[50.5,9462],[50.5,9567],[50.5,9677],[50.5,9795],[50.5,9904],[50.5,10026],[50.5,10139],[50.5,10253],[50.5,10362],[50.5,10473],[50.5,10586],[50.5,10703],[50.5,10817],[50.5,10933],[50.5,11046],[50.5,11162],[60.9,11396],[60.9,11514],[60.9,11630],[60.9,11741],[59.7,11853],[59.5,11964],[58,12095],[58,12211],[67.4,12324]]",1,0,288.7045,291.8626,58.75,1.6238,"[{""rating"":58.75,""responseTime"":1.6237999999523254}]",space,2.332,,291.8627,All the time,100,291.8646,,,[],,0,7,7,7,1,audio/Narrative7Situation7.wav,audio/Narrative8Situation7.wav,audio/Narrative5Situation7.wav,audio/Narrative6Situation7.wav,5,3,4,5,,,,,,,,,,,,,,,,,,,,,,,,,,,,,,,,,,,,,,,
,,,,,,5e63e24eaf3bd51660031dbe,2024-02-08_15h03.49.980,group3.1-3.2-social-tom,2023.2.2,Win32,8.568980291,65c5074098b851296ff0b7ed,65c54194f3faf7b0e43a6ef8,,,,,,,,,,,,,,,,,,,,,,,,,,,,,291.8648,1,audio/Narrative8Situation8.wav,294.9268,,294.9268,307.9567,"[[61.4,2024],[62.5,2143],[63.4,2263],[64.5,2381],[65.2,2509],[65.4,2629],[66.3,2762],[67.3,2879],[69.4,2997],[69.4,3112],[69.5,3230],[71.8,3342],[72.2,3467],[74.5,3589],[75.3,3703],[76.2,3820],[76.7,3929],[77.5,4045],[77.5,4165],[77.5,4277],[77.5,4388],[77.5,4493],[77.5,4612],[77.8,4726],[77.8,4845],[77.8,4956],[77.8,5070],[78.4,5199],[78.4,5314],[78.4,5431],[78.4,5549],[78.4,5671],[78.4,5788],[78.4,5916],[78.4,6037],[78.4,6153],[78.4,6270],[78.4,6385],[78.4,6497],[78.4,6611],[78.4,6718],[78.4,6832],[78.4,6949],[78.4,7058],[78.4,7177],[78.4,7304],[78.4,7439],[78.4,7562],[78.4,7684],[78.4,7797],[78.4,7906],[78.4,8013],[78.4,8130],[78.4,8249],[78.4,8370],[78.4,8488],[78.4,8598],[78.4,8715],[78.4,8833],[78.4,8944],[78.4,9051],[78.4,9161],[78.4,9273],[78.4,9381],[78.4,9491],[78.4,9598],[78.4,9710],[78.4,9825],[78.4,9944],[78.4,10057],[78.4,10171],[78.4,10283],[78.4,10405],[78.4,10519],[78.4,10634],[78.4,10749],[78.4,10859],[78.4,10968],[78.4,11088],[78.4,11205],[78.4,11321],[78.4,11442],[78.4,11552],[78.4,11666],[78.4,11782],[78.4,11894],[78.4,12004],[78.4,12119],[78.4,12223],[78.4,12338],[78.4,12457],[78.4,12566],[78.4,12683],[78.4,12795],[78.4,12909],[78.4,13029]]",1,0,307.9569,310.7948,79.453125,1.5987,"[{""rating"":79.453125,""responseTime"":1.2331000000238532},{""rating"":79.453125,""responseTime"":1.5986999999880709}]",space,1.9995,,310.7948,All the time,100,310.7959,,,[],,0,8,8,8,1,audio/Narrative7Situation8.wav,audio/Narrative8Situation8.wav,audio/Narrative5Situation8.wav,audio/Narrative6Situation8.wav,2,3,3,5,,,,,,,,,,,,,,,,,,,,,,,,,,,,,,,,,,,,,,,
,,,,,,5e63e24eaf3bd51660031dbe,2024-02-08_15h03.49.980,group3.1-3.2-social-tom,2023.2.2,Win32,8.568980291,65c5074098b851296ff0b7ed,65c54194f3faf7b0e43a6ef8,,,,,,,,,,,,,,,,,,,,,,,,,,,,,310.796,1,audio/Narrative8Situation9.wav,313.8981,,313.8981,325.425,"[[78.8,226],[78.8,338],[78.8,452],[78.8,561],[78.8,672],[78.8,789],[78.8,905],[78.8,1018],[78.8,1135],[78.8,1249],[78.8,1360],[78.8,1475],[78.8,1590],[78.8,1704],[78.8,1821],[78.8,1934],[78.8,2047],[78.8,2169],[78.8,2286],[78.8,2400],[78.8,2509],[78.8,2627],[78.8,2735],[78.8,2854],[78.8,2973],[78.8,3084],[78.8,3195],[78.8,3308],[78.8,3415],[78.8,3534],[78.8,3656],[78.8,3774],[78.8,3891],[78.8,4002],[78.8,4109],[78.8,4223],[78.8,4336],[78.8,4449],[78.8,4560],[78.8,4674],[78.8,4787],[78.2,4902],[78.2,5028],[78.2,5139],[78.2,5254],[79.5,5374],[79.5,5488],[79.5,5587],[79.5,5696],[80.7,5811],[80.9,5937],[80.9,6048],[80.9,6158],[80.9,6266],[80.9,6383],[80.9,6492],[80.9,6602],[80.9,6719],[80.9,6832],[80.9,6952],[80.9,7063],[80.9,7170],[80.9,7286],[80.9,7396],[80.9,7511],[80.9,7619],[80.9,7731],[80.9,7840],[80.9,7959],[80.9,8071],[80.9,8182],[80.9,8301],[80.9,8410],[80.9,8518],[80.9,8639],[80.9,8747],[80.9,8865],[80.9,8989],[80.9,9096],[80.9,9209],[80.9,9316],[80.9,9432],[80.9,9545],[80.9,9665],[80.9,9778],[80.9,9894],[80.9,10006],[80.9,10126],[80.9,10241],[80.9,10358],[80.9,10473],[80.5,10590],[80.5,10718],[80.5,10832],[80.5,10947],[80.5,11067],[80.5,11184],[80.5,11299],[80.5,11416],[80.5,11526]]",1,0,325.4251,327.2699,80.546875,0.6117,"[{""rating"":80.546875,""responseTime"":0.6116999999880477}]",space,0.9912,,327.27,Not at all,0,327.2721,,,[],,0,9,9,9,1,audio/Narrative7Situation9.wav,audio/Narrative8Situation9.wav,audio/Narrative5Situation9.wav,audio/Narrative6Situation9.wav,2,3,3,4,,,,,,,,,,,,,,,,,,,,,,,,,,,,,,,,,,,,,,,
,,,,,,5e63e24eaf3bd51660031dbe,2024-02-08_15h03.49.980,group3.1-3.2-social-tom,2023.2.2,Win32,8.568980291,65c5074098b851296ff0b7ed,65c54194f3faf7b0e43a6ef8,,,,,,,,,,,,,,,,,,,,,,,,,,,,,327.2722,1,audio/Narrative7Situation1.wav,329.3584,,329.3584,385.4338,"[[42.7,3126],[42.7,3238],[42.5,3350],[42.4,3462],[42.4,3579],[42.4,3694],[42.4,3812],[42.4,3923],[42.4,4041],[43.2,4162],[43.3,4298],[43.3,4425],[43.3,4546],[43.6,4666],[44.8,4789],[44.8,4904],[44.8,5016],[44.8,5132],[44.8,5242],[44.8,5356],[44.9,5473],[44.9,5586],[46.7,5703],[47.4,5814],[48.3,5932],[48.3,6044],[48.3,6164],[48.6,6279],[48.7,6391],[48.7,6509],[48.7,6626],[49.7,6744],[49.7,6867],[49.7,6985],[49.7,7098],[50.7,7224],[51.1,7334],[51.2,7451],[51.3,7563],[51.8,7681],[52,7805],[52.6,7932],[53.4,8051],[53.5,8174],[53.5,8289],[53.5,8399],[53.5,8515],[53.5,8632],[53.5,8741],[53.5,8850],[53.5,8969],[53.5,9084],[53.5,9200],[53.5,9323],[53.5,9435],[53.5,9555],[53.5,9669],[53.5,9778],[53.5,9889],[53.5,10006],[53.5,10125],[53.5,10237],[53.5,10349],[53.5,10450],[53.5,10571],[53.5,10679],[53.5,10793],[53.5,10909],[53.5,11020],[53.5,11127],[53.5,11251],[53.5,11363],[53.5,11482],[53.5,11603],[53.5,11715],[53.5,11829],[53.5,11938],[53.5,12057],[53.5,12169],[53.5,12277],[53.5,12394],[53.5,12507],[53.5,12631],[53.5,12752],[53.5,12868],[53.5,12982],[53.5,13087],[53.5,13205],[53.5,13324],[53.5,13439],[53.5,13555],[53.5,13666],[52.1,13779],[52,13901],[52,14013],[52,14131],[52,14250],[52,14360],[52,14477],[52,14598],[52,14711],[52,14821],[52,14939],[52,15060],[52,15175],[52,15285],[52,15404],[52,15530],[52,15646],[52,15769],[52,15883],[52,15998],[52,16113],[52,16222],[52,16333],[52,16445],[52,16565],[52,16677],[52,16802],[52,16917],[52,17027],[52,17140],[52,17252],[52,17354],[52,17474],[52,17590],[52,17698],[52,17816],[52,17928],[52,18034],[52,18156],[52,18265],[52,18377],[52,18500],[52,18622],[52,18739],[52,18858],[52,18974],[52,19090],[52,19202],[52,19322],[52,19434],[52,19536],[52,19653],[52,19766],[52,19874],[52,19994],[52,20103],[52,20217],[52,20331],[52,20442],[52,20557],[52,20678],[52,20797],[52,20907],[52,21021],[52,21136],[52,21245],[52,21355],[52,21468],[52,21577],[52,21685],[52,21796],[52,21905],[52,22024],[52,22149],[52,22264],[52,22371],[52,22477],[52,22590],[52,22711],[52,22827],[52,22943],[52,23055],[52,23178],[52,23294],[52,23416],[52,23528],[52,23640],[52,23758],[52,23868],[52,23984],[52,24094],[52,24198],[52,24317],[52,24430],[52,24543],[52,24656],[52,24778],[52,24882],[52,24999],[52,25108],[52,25216],[52,25335],[52,25443],[52,25558],[52,25675],[52,25794],[52,25909],[52,26024],[52,26137],[52,26256],[52,26376],[52,26484],[52,26601],[52,26719],[52,26831],[52,26947],[52,27064],[52,27178],[52,27292],[52,27406],[52,27522],[51.3,27631],[48.9,27754],[48.9,27866],[46,27981],[45.3,28095],[45.2,28207],[45.2,28319],[45,28431],[44.8,28550],[44.6,28663],[44.4,28776],[44.4,28891],[44.4,29020],[44.3,29142],[44.3,29263],[44.3,29371],[44.3,29485],[44.3,29595],[44.3,29702],[44.3,29823],[44.3,29937],[44.3,30046],[43.1,30156],[42.3,30269],[42,30375],[42,30488],[41,30603],[41,30715],[41,30832],[40.7,30949],[40.2,31061],[40.2,31178],[40.2,31290],[40.2,31404],[40.2,31520],[40.2,31639],[40.2,31759],[40.2,31881],[40.4,31997],[40.4,32124],[40.4,32242],[40.4,32356],[40.4,32472],[40.4,32589],[40.4,32706],[40.4,32820],[40.4,32933],[40.4,33043],[40.4,33158],[40.4,33277],[40.4,33398],[40.4,33528],[40.4,33652],[40.4,33769],[40.4,33886],[40.4,33999],[40.4,34113],[40.4,34223],[40.4,34338],[40.4,34455],[40.4,34572],[40.4,34688],[40.4,34790],[40.4,34893],[40.4,35015],[40.4,35124],[40.4,35241],[40.4,35352],[40.4,35452],[40.4,35557],[40.4,35668],[40.4,35789],[40.4,35899],[40.4,36003],[40.4,36118],[40.4,36233],[40.4,36348],[40.4,36459],[40.4,36570],[40.4,36689],[40.4,36809],[40.4,36926],[40.4,37043],[40.4,37157],[40.4,37272],[40.4,37378],[40.4,37489],[40.4,37601],[40.4,37709],[40.4,37827],[40.4,37942],[40.4,38053],[40.4,38163],[40.4,38275],[40.4,38388],[40.4,38505],[40.4,38616],[40.4,38734],[40.4,38842],[40.4,38961],[40.4,39084],[40.4,39201],[40.4,39319],[40.4,39430],[40.4,39537],[40.4,39644],[40.4,39757],[40.4,39870],[40.4,39985],[40.4,40100],[40.4,40211],[40.4,40322],[40.4,40441],[40.4,40554],[40.4,40674],[40.4,40795],[40.4,40903],[40.4,41025],[40.4,41134],[40.4,41244],[40.4,41361],[40.4,41471],[40.4,41594],[40.4,41710],[40.4,41826],[40.4,41946],[40.4,42053],[40.4,42166],[40.4,42279],[40.4,42395],[40.4,42504],[40.4,42616],[40.4,42720],[40.4,42829],[40.4,42937],[40.4,43051],[40.4,43168],[40.4,43280],[40.4,43387],[40.4,43504],[40.4,43619],[40.4,43727],[40.4,43841],[40.4,43955],[40.4,44063],[40.4,44171],[40.4,44282],[40.4,44392],[40.4,44500],[40.4,44613],[40.4,44729],[40.4,44844],[40.4,44969],[40.4,45089],[40.4,45199],[40.4,45312],[40.4,45411],[40.4,45529],[40.4,45635],[41.1,45748],[44.8,45876],[51.9,45994],[51.9,46114],[51.9,46225],[51.9,46338],[52.4,46454],[52.4,46569],[54.1,46689],[54.5,46802],[56.3,46916],[56.6,47033],[56.8,47155],[57.3,47271],[58.8,47384],[58.8,47505],[58.8,47612],[59.2,47729],[59.3,47844],[59.6,47955],[59.6,48070],[59.7,48179],[60,48290],[60.1,48399],[60.2,48512],[60.3,48634],[60.3,48755],[60.3,48878],[59.1,49004],[59,49127],[59,49237],[59,49352],[59,49459],[59,49559],[59,49679],[59,49790],[59,49899],[59,50012],[59,50115],[59,50232],[59,50345],[59,50464],[59,50589],[59,50704],[59,50820],[59,50940],[59,51047],[59,51161],[59,51272],[59,51390],[59,51503],[59,51624],[59,51735],[59,51851],[59,51964],[59,52076],[59,52188],[59,52303],[59,52412],[59,52525],[59,52641],[59,52762],[59,52883],[59,53004],[59,53114],[59,53229],[59,53346],[59,53454],[59,53568],[59,53681],[59,53796],[59,53909],[59,54027],[59,54146],[59,54264],[59,54381],[59,54495],[59,54612],[59,54733],[59,54839],[59,54952],[59,55064],[59,55171],[59,55284],[59,55389],[59.4,55501],[59.4,55610],[59.4,55725],[59.4,55840],[59.4,55953],[59.4,56075]]",1,0,385.434,389.1645,61.40625,1.8576,"[{""rating"":61.40624999999999,""responseTime"":1.8575999999642363}]",space,2.8942,,389.1645,Half the time,50,389.1664,,,[],,0,10,10,10,1,audio/Narrative8Situation1.wav,audio/Narrative7Situation1.wav,audio/Narrative6Situation1.wav,audio/Narrative5Situation1.wav,5,2,2,5,,,,,,,,,,,,,,,,,,,,,,,,,,,,,,,,,,,,,,,
,,,,,,5e63e24eaf3bd51660031dbe,2024-02-08_15h03.49.980,group3.1-3.2-social-tom,2023.2.2,Win32,8.568980291,65c5074098b851296ff0b7ed,65c54194f3faf7b0e43a6ef8,,,,,,,,,,,,,,,,,,,,,,,,,,,,,389.1666,1,audio/Narrative7Situation2.wav,392.2075,,392.2076,399.9134,"[[55.3,2313],[55.3,2435],[55.3,2551],[53.2,2671],[53.1,2788],[53.1,2901],[53.1,3016],[53.1,3132],[53.1,3249],[53.1,3361],[53.1,3474],[53.1,3588],[53.1,3715],[53.1,3821],[53.1,3937],[53.1,4050],[53.1,4161],[53.1,4280],[53.1,4385],[53.1,4504],[53.1,4628],[53.1,4743],[53.1,4861],[53.1,4971],[53.1,5080],[53.1,5196],[53.1,5301],[53.1,5416],[53.1,5536],[53.1,5651],[53.1,5765],[53.1,5877],[53.1,5988],[53.1,6101],[53.1,6212],[53.1,6326],[53.1,6445],[53.1,6562],[53.1,6677],[53.1,6793],[53.1,6907],[53.1,7025],[53.1,7136],[53.1,7250],[53.1,7360],[53.1,7467],[53.1,7583],[53.1,7705]]",1,0,399.9135,402.9304,51.5625,1.6954,"[{""rating"":51.5625,""responseTime"":1.6953999999761322}]",space,2.1999,,402.9304,All the time,100,402.9326,,,[],,0,11,11,11,1,audio/Narrative8Situation2.wav,audio/Narrative7Situation2.wav,audio/Narrative6Situation2.wav,audio/Narrative5Situation2.wav,3,3,3,3,,,,,,,,,,,,,,,,,,,,,,,,,,,,,,,,,,,,,,,
,,,,,,5e63e24eaf3bd51660031dbe,2024-02-08_15h03.49.980,group3.1-3.2-social-tom,2023.2.2,Win32,8.568980291,65c5074098b851296ff0b7ed,65c54194f3faf7b0e43a6ef8,,,,,,,,,,,,,,,,,,,,,,,,,,,,,402.9328,1,audio/Narrative7Situation3.wav,410.9443,,410.9443,420.3568,"[[53.5,3615],[57,3741],[58.8,3861],[60.8,3980],[64.9,4095],[65.3,4210],[65.3,4327],[65.3,4447],[65.9,4557],[65.9,4675],[67.3,4788],[68,4900],[68.6,5020],[68.6,5129],[70.7,5245],[70.7,5364],[71.5,5479],[73.4,5595],[73.4,5717],[73.4,5832],[73.4,5945],[73.4,6064],[73.4,6175],[71.6,6288],[71.6,6407],[71.6,6517],[71.6,6632],[71.6,6747],[71.6,6859],[71.6,6968],[71.6,7082],[71.6,7199],[71.6,7315],[71.6,7428],[71.6,7555],[71.6,7670],[71.6,7783],[71.6,7898],[71.6,8012],[71.6,8133],[71.6,8243],[71.6,8355],[71.6,8479],[71.6,8587],[71.6,8706],[71.6,8824],[71.6,8947],[71.6,9060],[71.6,9179],[71.6,9291],[71.6,9412]]",1,0,420.357,422.471,71.484375,0.9626,"[{""rating"":71.484375,""responseTime"":0.9625999999642545}]",space,1.2792,,422.4711,Not at all,0,422.4731,,,[],,0,12,12,12,1,audio/Narrative8Situation3.wav,audio/Narrative7Situation3.wav,audio/Narrative6Situation3.wav,audio/Narrative5Situation3.wav,4,8,5,3,,,,,,,,,,,,,,,,,,,,,,,,,,,,,,,,,,,,,,,
,,,,,,5e63e24eaf3bd51660031dbe,2024-02-08_15h03.49.980,group3.1-3.2-social-tom,2023.2.2,Win32,8.568980291,65c5074098b851296ff0b7ed,65c54194f3faf7b0e43a6ef8,,,,,,,,,,,,,,,,,,,,,,,,,,,,,422.4733,1,audio/Narrative7Situation4.wav,425.4887,,425.4887,437.4615,[],1,0,437.4616,441.0059,54.53125,2.3087,"[{""rating"":54.53125,""responseTime"":2.3086999999880504}]",space,2.6967,0.0003,441.0059,Not at all,0,441.0068,,,[],,0,13,13,13,1,audio/Narrative8Situation4.wav,audio/Narrative7Situation4.wav,audio/Narrative6Situation4.wav,audio/Narrative5Situation4.wav,3,3,2,1,,,,,,,,,,,,,,,,,,,,,,,,,,,,,,,,,,,,,,,
,,,,,,5e63e24eaf3bd51660031dbe,2024-02-08_15h03.49.980,group3.1-3.2-social-tom,2023.2.2,Win32,8.568980291,65c5074098b851296ff0b7ed,65c54194f3faf7b0e43a6ef8,,,,,,,,,,,,,,,,,,,,,,,,,,,,,441.0069,1,audio/Narrative7Situation5.wav,446.0496,,446.0497,454.755,"[[55.4,6357],[55.2,6477],[55.2,6592],[55.6,6702],[56,6821],[63,6938],[65.8,7053],[65.9,7171],[66.3,7292],[66.3,7411],[66.3,7545],[66.3,7666],[66.3,7789],[66.3,7902],[66.3,8013],[66.3,8127],[66.3,8236],[66.3,8357],[66.3,8468],[66.3,8583],[66.3,8705]]",1,0,454.755,456.7136,66.40625,0.9613,"[{""rating"":66.40625,""responseTime"":0.9613000000119314}]",space,1.1314,,456.7137,All the time,100,456.7157,,,[],,0,14,14,14,1,audio/Narrative8Situation5.wav,audio/Narrative7Situation5.wav,audio/Narrative6Situation5.wav,audio/Narrative5Situation5.wav,2,5,2,5,,,,,,,,,,,,,,,,,,,,,,,,,,,,,,,,,,,,,,,
,,,,,,5e63e24eaf3bd51660031dbe,2024-02-08_15h03.49.980,group3.1-3.2-social-tom,2023.2.2,Win32,8.568980291,65c5074098b851296ff0b7ed,65c54194f3faf7b0e43a6ef8,,,,,,,,,,,,,,,,,,,,,,,,,,,,,456.7158,1,audio/Narrative7Situation6.wav,459.7853,,459.7854,469.9932,"[[66.6,6773],[67,6892],[67,7003],[67.4,7118],[67.4,7233],[67.8,7341],[68.1,7449],[68.5,7568],[69.2,7693],[70.1,7805],[70.5,7919],[70.5,8038],[70.5,8152],[70.5,8266],[70.5,8380],[70.5,8491],[70.5,8606],[70.5,8725],[70.5,8827],[70.5,8940],[70.5,9058],[70.5,9176],[70.5,9293],[70.5,9414],[70.5,9525],[70.5,9640],[70.5,9753],[70.5,9859],[70.3,9971],[70.2,10084],[70.2,10207]]",1,0,469.9933,471.8194,70.15625,0.6123,"[{""rating"":70.15625,""responseTime"":0.6123000000119418}]",space,0.9816,,471.8194,All the time,100,471.8206,,,[],,0,15,15,15,1,audio/Narrative8Situation6.wav,audio/Narrative7Situation6.wav,audio/Narrative6Situation6.wav,audio/Narrative5Situation6.wav,2,3,2,3,,,,,,,,,,,,,,,,,,,,,,,,,,,,,,,,,,,,,,,
,,,,,,5e63e24eaf3bd51660031dbe,2024-02-08_15h03.49.980,group3.1-3.2-social-tom,2023.2.2,Win32,8.568980291,65c5074098b851296ff0b7ed,65c54194f3faf7b0e43a6ef8,,,,,,,,,,,,,,,,,,,,,,,,,,,,,471.8208,1,audio/Narrative7Situation7.wav,476.8732,,476.8733,494.2872,"[[71.6,5562],[71.7,5686],[71.7,5802],[71.9,5911],[71.9,6028],[71.9,6149],[71.9,6261],[72,6369],[72.7,6487],[72.7,6607],[72.7,6726],[72.7,6843],[72.7,6979],[72.7,7099],[72.7,7219],[72.7,7337],[72.7,7453],[72.7,7570],[72.7,7679],[72.7,7795],[72.7,7906],[72.7,8025],[72.7,8141],[72.7,8257],[72.7,8365],[72.7,8485],[72.7,8600],[72.7,8713],[72.7,8833],[72.7,8944],[72.7,9059],[72.7,9177],[72.7,9287],[72.7,9399],[72.7,9511],[72.7,9627],[72.7,9747],[72.7,9858],[72.7,9980],[72.7,10098],[72.7,10216],[72.7,10325],[72.7,10438],[72.7,10553],[72.7,10655],[72.7,10764],[72.7,10882],[72.7,10992],[72.7,11107],[72.7,11217],[72.7,11321],[72.7,11428],[72.7,11538],[72.7,11660],[72.7,11776],[72.7,11885],[72.7,11998],[72.7,12111],[72.7,12226],[72.7,12333],[72.7,12452],[72.7,12561],[72.7,12680],[72.7,12794],[72.7,12910],[72.7,13019],[72.7,13134],[72.7,13247],[72.7,13362],[72.7,13484],[72.7,13599],[72.7,13715],[72.7,13817],[72.7,13927],[72.7,14047],[72.7,14153],[72.7,14260],[72.7,14375],[72.7,14477],[72.7,14584],[72.7,14696],[72.7,14807],[72.7,14914],[72.7,15035],[72.7,15145],[72.7,15263],[72.7,15371],[72.7,15489],[72.7,15602],[72.7,15715],[72.7,15830],[72.7,15948],[72.7,16052],[72.7,16161],[72.7,16285],[72.7,16394],[72.7,16507],[72.7,16615],[72.7,16727],[72.7,16839],[72.7,16947],[72.7,17063],[72.7,17179],[72.7,17299],[72.7,17413]]",1,0,494.2873,496.6161,77.03125,1.1116,"[{""rating"":77.03125,""responseTime"":1.1115999999641417}]",space,1.4723,,496.6161,All the time,100,496.6174,,,[],,0,16,16,16,1,audio/Narrative8Situation7.wav,audio/Narrative7Situation7.wav,audio/Narrative6Situation7.wav,audio/Narrative5Situation7.wav,3,5,5,4,,,,,,,,,,,,,,,,,,,,,,,,,,,,,,,,,,,,,,,
,,,,,,5e63e24eaf3bd51660031dbe,2024-02-08_15h03.49.980,group3.1-3.2-social-tom,2023.2.2,Win32,8.568980291,65c5074098b851296ff0b7ed,65c54194f3faf7b0e43a6ef8,,,,,,,,,,,,,,,,,,,,,,,,,,,,,496.6175,1,audio/Narrative7Situation8.wav,498.715,,498.7151,508.9819,"[[51.6,572],[50.8,689],[50.1,808],[50.1,926],[50.1,1035],[50.1,1145],[50.1,1259],[50.1,1380],[50.1,1496],[50.1,1601],[50.1,1719],[50.1,1833],[50.1,1943],[50.1,2057],[50.1,2178],[50.1,2291],[50.1,2403],[50.2,2517],[50.2,2631],[50.2,2749],[50.2,2869],[50.2,2979],[50.2,3087],[50.2,3189],[50.2,3300],[50.2,3416],[50.2,3536],[50.2,3644],[50.2,3754],[50.2,3869],[50.2,3985],[50.2,4102],[50.2,4212],[50.2,4322],[50.2,4440],[50.2,4557],[50.2,4673],[50.2,4791],[50.2,4904],[50.2,5018],[50.2,5135],[50.2,5250],[50.2,5366],[50.2,5478],[50.2,5587],[50.2,5700],[50.2,5810],[50.2,5920],[50.2,6033],[50.2,6144],[50.2,6255],[50.2,6374],[50.2,6494],[50.2,6620],[50.2,6733],[50.2,6845],[50.2,6957],[50.2,7070],[50.2,7181],[50.2,7294],[50.2,7405],[50.2,7519],[50.2,7638],[50.2,7751],[50.2,7868],[50.2,7986],[50.2,8103],[50.2,8212],[50.2,8333],[50.3,8436],[50.7,8552],[50.7,8668],[50.7,8778],[50.7,8894],[50.7,9006],[50.7,9114],[51.1,9231],[52,9342],[52.3,9458],[53.7,9566],[54.1,9692],[54.2,9810],[54.2,9928],[54.2,10039],[54.2,10156],[54.2,10266]]",1,0,508.982,510.6996,54.6875,0.8627,"[{""rating"":54.6875,""responseTime"":0.8626999999880809}]",space,0.8795,,510.6997,All the time,100,510.7009,,,[],,0,17,17,17,1,audio/Narrative8Situation8.wav,audio/Narrative7Situation8.wav,audio/Narrative6Situation8.wav,audio/Narrative5Situation8.wav,3,2,5,3,,,,,,,,,,,,,,,,,,,,,,,,,,,,,,,,,,,,,,,
,,,,,,5e63e24eaf3bd51660031dbe,2024-02-08_15h03.49.980,group3.1-3.2-social-tom,2023.2.2,Win32,8.568980291,65c5074098b851296ff0b7ed,65c54194f3faf7b0e43a6ef8,,,,,,,,,,,,,,,,,,,,,,,,,,,,,510.701,1,audio/Narrative7Situation9.wav,512.7169,,512.717,521.5774,"[[52.7,244],[51.7,365],[51.3,484],[51.2,601],[51.2,712],[51.2,829],[51.2,953],[51.2,1070],[51.2,1183],[51.2,1304],[51.2,1433],[51.2,1559],[51.2,1681],[51.4,1797],[52.7,1915],[53.2,2025],[53.2,2143],[53.2,2257],[53.2,2365],[53.2,2477],[53.2,2593],[53.2,2698],[53.2,2812],[53.2,2923],[53.2,3036],[53.2,3145],[53.2,3258],[53.2,3376],[53.2,3493],[53.2,3604],[53.2,3716],[53.2,3838],[53.2,3949],[53.2,4067],[53.5,4184],[55.9,4296],[55.9,4407],[55.9,4525],[55.9,4644],[55.9,4755],[55.9,4857],[55.9,4972],[55.9,5085],[55.9,5210],[55.9,5326],[57.2,5440],[61.9,5558],[63.4,5671],[63.4,5783],[64.8,5907],[64.8,6017],[65.3,6136],[65.6,6255],[65.6,6375],[68.2,6495],[72.4,6609],[72.4,6726],[72.4,6837],[72.7,6951],[72.7,7066],[72.7,7177],[72.7,7291],[72.7,7404],[72.7,7518],[72.7,7631],[72.7,7752],[72.7,7871],[72.7,7985],[72.7,8087],[72.7,8198],[72.7,8311],[72.7,8414],[72.7,8530],[72.7,8639],[72.7,8754],[72.7,8860]]",1,0,521.5775,523.0325,72.65625,0.8455,"[{""rating"":72.65625,""responseTime"":0.8454999999999018}]",space,0.625,,523.0325,All the time,100,537.936,99.453125,12.8455,"[{""rating"":99.453125,""responseTime"":12.845500000000015}]",space,0,18,18,18,1,audio/Narrative8Situation9.wav,audio/Narrative7Situation9.wav,audio/Narrative6Situation9.wav,audio/Narrative5Situation9.wav,3,2,4,3,,,14.0697,,,,,,,,,,,,,,,,,,,,,,,,,,,,,,,,,,,,
,,,,,,5e63e24eaf3bd51660031dbe,2024-02-08_15h03.49.980,group3.1-3.2-social-tom,2023.2.2,Win32,8.568980291,65c5074098b851296ff0b7ed,65c54194f3faf7b0e43a6ef8,,,,,,,,,,,,,,,,,,,,,,,,,,,541.2809,543.847,543.8535,2,audio/Narrative13Situation2.wav,543.8535,,543.8535,573.8614,"[[999,0],[999,115],[999,225],[999,332],[999,451],[999,570],[999,699],[999,826],[999,945],[999,1058],[999,1167],[999,1280],[999,1401],[999,1516],[999,1630],[999,1742],[999,1847],[999,1963],[50.8,2079],[51.5,2189],[51.6,2302],[51.6,2412],[51.4,2527],[51.4,2646],[51.4,2758],[51.4,2875],[51.4,2992],[51.4,3104],[51.4,3213],[51.4,3331],[51.4,3443],[51.4,3551],[51.4,3668],[50.9,3771],[48.9,3886],[48.1,4004],[47.2,4119],[46.8,4232],[46.4,4347],[44.8,4460],[44.4,4579],[44,4694],[43,4814],[41.7,4930],[40.9,5056],[39.4,5173],[39.2,5285],[39.2,5403],[39.2,5514],[39.2,5631],[39.2,5735],[39.2,5853],[39.2,5970],[39.2,6086],[39.2,6208],[39.2,6322],[39.2,6438],[39.2,6556],[39.2,6668],[39.2,6787],[39.2,6905],[39.5,7021],[40.2,7140],[40.4,7248],[40.4,7367],[40.4,7481],[40.4,7600],[37.8,7721],[37.2,7835],[37.2,7953],[37.2,8061],[37.2,8185],[37.2,8296],[37.2,8410],[37.2,8522],[37.2,8639],[37.2,8750],[37.2,8855],[37.2,8975],[37.2,9090],[37.2,9202],[37.2,9308],[37.2,9426],[37.2,9546],[37.2,9658],[37.2,9775],[37.2,9896],[37.2,10013],[37.2,10122],[37.2,10243],[37.2,10363],[37.2,10464],[37.2,10575],[37.2,10685],[37.2,10800],[37.2,10919],[37.2,11030],[37.2,11140],[37.2,11259],[37.2,11374],[37.2,11491],[37.2,11602],[37.2,11707],[37.2,11823],[37.2,11931],[37.2,12043],[37.2,12156],[37.2,12276],[37.2,12388],[37.2,12500],[37.2,12612],[37.2,12728],[37.2,12843],[37.2,12959],[37.2,13075],[37.2,13181],[37.2,13302],[37.2,13409],[37.2,13520],[37.2,13638],[37.2,13743],[37.2,13855],[37.2,13974],[37.2,14086],[37.2,14202],[37.2,14323],[37.2,14435],[37.2,14553],[37.2,14660],[37.2,14780],[37.2,14888],[37.2,14997],[37.2,15118],[37.2,15230],[37.2,15345],[37.2,15456],[37.2,15572],[37.2,15687],[37.2,15801],[37.2,15910],[37.2,16024],[37.2,16136],[37.2,16247],[37.2,16368],[37.2,16474],[37.2,16586],[37.2,16707],[37.2,16820],[37.2,16933],[37.2,17052],[37.2,17177],[37.2,17287],[37.2,17401],[37.2,17520],[37.2,17633],[37.2,17748],[37.2,17862],[37.2,17972],[37.2,18083],[37.2,18202],[37.2,18319],[37.2,18433],[37.2,18540],[37.2,18652],[37.2,18770],[37.2,18887],[37.2,19002],[37.2,19113],[37.2,19225],[37.2,19340],[37.2,19466],[37.2,19577],[37.2,19693],[37.2,19804],[37.2,19928],[37.2,20030],[37.2,20137],[37.2,20248],[37.2,20368],[37.2,20488],[37.2,20606],[37.2,20719],[37.2,20837],[37.2,20950],[37.2,21059],[37.2,21166],[37.2,21273],[37.2,21387],[37.2,21512],[37.2,21636],[37.2,21749],[37.2,21863],[37.2,21978],[37.2,22096],[37.2,22211],[37.2,22323],[37.2,22442],[37.2,22555],[37.2,22676],[37.2,22785],[37.2,22893],[37.2,23004],[37.2,23121],[37.2,23230],[37.2,23347],[37.2,23458],[37.2,23582],[37.2,23696],[37.2,23806],[37.2,23912],[37.2,24028],[37.2,24138],[37.2,24251],[37.2,24358],[37.2,24473],[37.2,24590],[37.2,24701],[37.2,24815],[37.2,24920],[37.2,25032],[37.2,25147],[37.2,25263],[37.2,25382],[37.2,25497],[37.2,25619],[37.2,25737],[37.2,25848],[37.2,25962],[37.2,26080],[37.2,26197],[37.2,26315],[37.2,26433],[37.2,26549],[37.2,26677],[37.2,26798],[37.2,26914],[37.2,27031],[37.2,27143],[37.2,27259],[37.2,27371],[37.2,27482],[37.2,27591],[37.2,27698],[37.2,27807],[37.2,27920],[37.2,28033],[37.2,28142],[37.2,28259],[37.2,28367],[37.2,28480],[37.2,28599],[37.2,28716],[37.2,28827],[37.2,28946],[37.2,29049],[37.2,29161],[37.2,29279],[37.2,29397],[37.2,29520],[37.2,29646],[37.2,29770],[37.2,29889],[37.2,30007]]",1,0,573.8615,573.8673,,,[],,,,573.8673,All the time,100,573.8678,,,[],,0,0,0,0,1,audio/Narrative13Situation2.wav,audio/Narrative13Situation2.wav,audio/Narrative13Situation2.wav,audio/Narrative13Situation2.wav,2,2,2,2,,,,,537.9366,541.2755,space,2.6465,,,,,,,,,,,,,,,,,,,,,,,,,,,,,,,
,,,,,,5e63e24eaf3bd51660031dbe,2024-02-08_15h03.49.980,group3.1-3.2-social-tom,2023.2.2,Win32,8.568980291,65c5074098b851296ff0b7ed,65c54194f3faf7b0e43a6ef8,,,,,,,,,,,,,,,,,,,,,,,,,,,,,573.8679,2,audio/Narrative6Situation1.wav,575.9547,,575.9547,602.74,"[[38.8,123],[39.2,231],[39.6,349],[39.8,461],[40.3,575],[42,692],[43.5,808],[45.9,923],[46.3,1047],[46.3,1163],[46.3,1273],[46.3,1382],[46.3,1490],[46.3,1607],[47.1,1719],[51.6,1836],[51.6,1948],[51.6,2064],[51.6,2178],[51.6,2294],[51.3,2405],[50.2,2523],[50.2,2636],[50.2,2749],[50.2,2861],[50.2,2977],[50.2,3092],[50.2,3202],[50.2,3312],[50.2,3421],[50.2,3530],[50.2,3643],[50.2,3753],[50.2,3874],[50.2,3988],[50.2,4099],[50.2,4217],[50.2,4334],[50.2,4451],[50.2,4559],[50.2,4670],[50.2,4785],[50.2,4902],[50.2,5013],[50.2,5122],[50.2,5243],[50.2,5355],[50.2,5470],[50.2,5579],[50.2,5691],[50.2,5806],[50.2,5926],[50.2,6039],[50.2,6154],[50.2,6263],[50.2,6376],[50.2,6496],[50.2,6608],[50.2,6724],[50.2,6842],[50.2,6958],[50.2,7077],[50.2,7181],[50.2,7295],[50.2,7411],[50.2,7525],[50.2,7641],[50.2,7753],[50.2,7861],[50.2,7971],[50.2,8081],[50.2,8193],[50.2,8307],[50.2,8422],[50.2,8538],[50.2,8660],[50.2,8769],[50.2,8881],[50.2,8994],[50.2,9111],[50.2,9229],[50.2,9343],[50.2,9453],[50.2,9571],[50.2,9680],[50.2,9790],[50.2,9899],[50.2,10008],[50.2,10124],[50.2,10250],[50.2,10363],[50.2,10481],[50.2,10597],[50.2,10706],[50.2,10820],[50.2,10927],[50.2,11042],[53,11147],[54.6,11265],[54.6,11378],[54.8,11493],[55.6,11614],[56.9,11734],[59.7,11843],[60.7,11955],[60.9,12072],[60.9,12188],[60.9,12301],[61.6,12410],[61.8,12523],[62.3,12633],[63.2,12748],[63.6,12865],[63.6,12985],[63.6,13103],[63.6,13217],[63.6,13325],[63.6,13434],[63.6,13544],[63.6,13660],[63.6,13775],[63.6,13892],[63.6,14010],[63.6,14126],[63.6,14245],[63.6,14357],[63.6,14474],[63.6,14586],[63.6,14698],[63.6,14810],[63.6,14926],[63.6,15045],[63.6,15165],[63.6,15273],[63.6,15380],[63.6,15500],[63.6,15616],[63.6,15730],[63.6,15845],[63.6,15961],[63.6,16072],[63.6,16191],[63.6,16306],[63.6,16422],[63.6,16532],[63.6,16646],[63.6,16753],[63.6,16866],[63.6,16983],[63.6,17098],[63.6,17217],[63.6,17335],[63.6,17451],[63.6,17564],[63.6,17673],[63.6,17778],[63.6,17889],[63.6,18009],[63.6,18123],[63.6,18244],[63.6,18360],[63.6,18471],[63.6,18584],[63.6,18699],[63.6,18818],[63.6,18933],[63.6,19052],[63.6,19160],[63.6,19278],[63.6,19382],[63.6,19490],[63.6,19600],[63.6,19713],[63.6,19827],[63.6,19935],[63.6,20052],[63.6,20166],[63.6,20269],[63.6,20390],[63.6,20509],[63.6,20614],[63.6,20728],[63.6,20837],[63.6,20946],[63.6,21060],[63.6,21177],[63.6,21289],[63.6,21407],[63.6,21515],[63.6,21627],[63.6,21744],[63.6,21853],[63.6,21968],[63.6,22076],[63.6,22196],[63.6,22304],[63.6,22415],[63.6,22538],[63.6,22648],[63.6,22762],[63.6,22879],[63.6,23008],[63.6,23132],[63.6,23252],[63.6,23368],[63.6,23482],[63.6,23595],[63.6,23704],[63.6,23818],[63.6,23933],[63.6,24051],[63.6,24168],[63.6,24279],[63.6,24391],[63.6,24511],[63.6,24632],[63.6,24738],[63.6,24854],[63.6,24969],[63.6,25089],[63.6,25198],[63.6,25316],[63.6,25431],[63.6,25538],[63.6,25649],[63.6,25759],[63.6,25877],[63.6,25991],[63.6,26106],[63.6,26217],[63.6,26334],[63.6,26443],[63.6,26562],[63.6,26665],[63.6,26785]]",1,0,602.7402,605.6311,66.953125,1.2595,"[{""rating"":66.953125,""responseTime"":1.2595000000000027}]",space,2.0223,,605.6312,All the time,100,605.6323,,,[],,0,1,1,1,1,audio/Narrative7Situation1.wav,audio/Narrative8Situation1.wav,audio/Narrative5Situation1.wav,audio/Narrative6Situation1.wav,2,5,5,2,,,,,,,,,,,,,,,,,,,,,,,,,,,,,,,,,,,,,,,
,,,,,,5e63e24eaf3bd51660031dbe,2024-02-08_15h03.49.980,group3.1-3.2-social-tom,2023.2.2,Win32,8.568980291,65c5074098b851296ff0b7ed,65c54194f3faf7b0e43a6ef8,,,,,,,,,,,,,,,,,,,,,,,,,,,,,605.6324,2,audio/Narrative6Situation2.wav,608.7091,,608.7091,637.4393,"[[68,909],[64.1,1023],[62.1,1139],[60.2,1251],[60,1367],[59.7,1482],[58.9,1597],[56.8,1717],[55.9,1836],[55.5,1938],[55.5,2061],[55.5,2178],[55.5,2301],[55.5,2416],[55.5,2529],[55.5,2644],[55.5,2757],[55.5,2868],[55.5,2986],[55.5,3098],[55.5,3219],[55.5,3324],[55.5,3441],[55.5,3549],[55.5,3670],[55.5,3783],[55.5,3899],[55.5,4009],[55.5,4118],[55.5,4230],[55.5,4342],[55.5,4453],[55.5,4574],[56.3,4691],[57.1,4794],[57.2,4905],[57.7,5014],[61.3,5139],[62.1,5260],[62.1,5370],[62.3,5475],[63.4,5591],[63.9,5696],[69.6,5811],[70,5935],[70,6050],[70,6166],[70,6272],[70,6381],[70,6493],[70,6606],[70,6723],[70,6841],[70,6960],[70,7069],[70,7177],[70,7289],[70.1,7397],[70.1,7514],[70.1,7622],[70.1,7740],[70.1,7855],[70.1,7964],[70.1,8074],[70.1,8182],[70.1,8304],[70.1,8423],[70.1,8540],[70.1,8657],[70.1,8762],[70.1,8876],[70.1,8993],[70.1,9107],[70.1,9222],[70.1,9331],[70.1,9445],[70.1,9552],[70.1,9662],[70.2,9782],[70.2,9891],[70.2,10005],[70.2,10122],[70.2,10234],[70.2,10350],[70.2,10463],[70.2,10580],[70.2,10694],[70.2,10808],[70.2,10909],[70.2,11029],[70.2,11132],[70.2,11238],[70.2,11353],[70.2,11458],[70.2,11573],[70.2,11694],[70.2,11813],[70.2,11924],[70.2,12043],[70.2,12154],[70.2,12272],[70.2,12384],[70.2,12496],[70.2,12611],[70.2,12727],[70.2,12842],[70.2,12960],[70.2,13066],[70.2,13181],[70.2,13290],[70.2,13401],[70.2,13517],[70.2,13632],[70.2,13754],[70.2,13867],[70.2,13986],[70.2,14101],[70.2,14214],[70.2,14324],[70.2,14436],[70.2,14554],[70.2,14665],[70.2,14781],[70.2,14894],[70.2,15009],[70.2,15124],[70.2,15236],[70.2,15346],[70.2,15456],[70.2,15568],[70.2,15684],[70.2,15802],[70.2,15913],[70.2,16020],[70.2,16142],[70.2,16258],[70.2,16372],[70.2,16487],[70.2,16596],[70.2,16709],[70.2,16826],[70.2,16933],[70.2,17046],[70.2,17158],[70.2,17266],[70.2,17381],[70.2,17500],[70.2,17614],[70.2,17728],[70.2,17854],[70.2,17961],[70.2,18076],[70.2,18185],[70.2,18294],[70.2,18412],[70.2,18526],[70.2,18642],[70.2,18754],[70.2,18869],[70.2,18986],[70.2,19105],[70.2,19226],[71.3,19344],[71.3,19461],[71.3,19575],[71.6,19687],[71.8,19805],[71.8,19920],[71.8,20040],[71.7,20155],[70.9,20273],[70.2,20391],[69.9,20504],[69.8,20617],[69.8,20722],[69.8,20842],[69.8,20956],[69.8,21068],[69.8,21171],[69.8,21283],[69.8,21386],[69.8,21498],[69.8,21617],[69.8,21734],[69.8,21843],[69.8,21955],[69.8,22066],[68.5,22182],[68.5,22298],[68.5,22419],[68.5,22525],[68.5,22641],[68.5,22758],[68.5,22864],[68.5,22985],[68.5,23096],[68.5,23213],[68.5,23316],[68.1,23428],[68.1,23541],[68.1,23653],[68.1,23766],[68.1,23878],[68.1,23986],[71,24104],[71.8,24214],[71.8,24322],[71.8,24437],[71.8,24556],[71.8,24669],[71.8,24785],[71.8,24905],[71.8,25016],[71.8,25137],[71.8,25257],[71.8,25379],[71.8,25502],[71.8,25618],[71.8,25735],[71.8,25851],[71.8,25962],[71.8,26072],[71.8,26185],[71.8,26295],[71.8,26426],[71.8,26544],[71.8,26661],[71.8,26783],[71.8,26912],[71.8,27036],[71.8,27152],[71.8,27269],[71.8,27384],[71.8,27497],[71.8,27608],[71.8,27716],[71.8,27826],[71.8,27941],[71.8,28055],[71.8,28165],[71.8,28275],[71.8,28382],[71.7,28502],[71.5,28620],[71.5,28730]]",1,0,637.4395,639.5464,72.109375,0.8514,"[{""rating"":72.109375,""responseTime"":0.85140000003571}]",space,1.2667,,639.5465,Not at all,0,639.5485,,,[],,0,2,2,2,1,audio/Narrative7Situation2.wav,audio/Narrative8Situation2.wav,audio/Narrative5Situation2.wav,audio/Narrative6Situation2.wav,3,3,3,3,,,,,,,,,,,,,,,,,,,,,,,,,,,,,,,,,,,,,,,
,,,,,,5e63e24eaf3bd51660031dbe,2024-02-08_15h03.49.980,group3.1-3.2-social-tom,2023.2.2,Win32,8.568980291,65c5074098b851296ff0b7ed,65c54194f3faf7b0e43a6ef8,,,,,,,,,,,,,,,,,,,,,,,,,,,,,639.5487,2,audio/Narrative6Situation3.wav,644.5946,,644.5947,657.3513,"[[72.9,327],[72.8,439],[72.8,552],[72.8,661],[72.8,771],[72.8,897],[72.8,1018],[72.8,1134],[72.8,1242],[72.8,1354],[71.2,1474],[70.3,1588],[68,1704],[61.6,1812],[61.5,1927],[61.5,2039],[61.5,2155],[61.5,2272],[61.5,2378],[61.3,2493],[61.3,2610],[61.3,2721],[61.3,2833],[61.3,2950],[61.3,3062],[61.3,3183],[61.3,3299],[61.3,3413],[61.3,3525],[61.3,3640],[61.3,3758],[61.3,3869],[61.3,3989],[61.3,4098],[61.3,4203],[61.3,4321],[61.3,4431],[61.3,4539],[61.3,4658],[61.3,4778],[61.3,4890],[61.3,5014],[61.3,5124],[61.3,5235],[61.3,5349],[61.3,5466],[61.3,5588],[61.3,5706],[61.3,5818],[61.3,5940],[61.3,6051],[61.3,6168],[61.3,6286],[61.3,6406],[61.3,6519],[61.3,6633],[61.3,6748],[61.3,6860],[61.3,6977],[61.3,7092],[61.3,7211],[61.3,7329],[61.3,7440],[61.3,7558],[61.3,7673],[61.3,7788],[61.3,7913],[61.3,8037],[61.3,8152],[61.3,8262],[61.3,8378],[61.3,8494],[61.3,8610],[61.3,8720],[61.3,8832],[61.3,8946],[61.3,9059],[61.3,9180],[61.3,9287],[61.3,9400],[61.3,9515],[61.3,9633],[61.3,9740],[61.3,9852],[61.3,9964],[61.3,10070],[61.3,10170],[61.3,10284],[61.3,10390],[61.3,10503],[61.3,10625],[61.3,10723],[61.3,10841],[61.3,10960],[61.3,11081],[61.3,11191],[61.3,11304],[61.3,11420],[61.3,11525],[61.3,11638],[61.3,11741],[61.3,11851],[61.3,11959],[61.3,12068],[61.3,12180],[61.3,12291],[61.3,12409],[61.3,12526],[61.3,12643],[61.3,12756]]",1,0,657.3515,659.9442,54.453125,1.2485,"[{""rating"":54.453125,""responseTime"":1.2485000000000355}]",space,1.7401,,659.9443,Not at all,0,659.9455,,,[],,0,3,3,3,1,audio/Narrative7Situation3.wav,audio/Narrative8Situation3.wav,audio/Narrative5Situation3.wav,audio/Narrative6Situation3.wav,8,4,3,5,,,,,,,,,,,,,,,,,,,,,,,,,,,,,,,,,,,,,,,
,,,,,,5e63e24eaf3bd51660031dbe,2024-02-08_15h03.49.980,group3.1-3.2-social-tom,2023.2.2,Win32,8.568980291,65c5074098b851296ff0b7ed,65c54194f3faf7b0e43a6ef8,,,,,,,,,,,,,,,,,,,,,,,,,,,,,659.9456,2,audio/Narrative6Situation4.wav,662.026,,662.0261,674.8475,"[[999,0],[999,118],[999,227],[999,343],[999,451],[999,571],[51.4,678],[51.6,785],[51.6,905],[51.6,1019],[51.6,1131],[51.6,1248],[55.2,1364],[55.4,1481],[55.4,1588],[55.4,1695],[55.4,1809],[55.4,1931],[55.4,2038],[55.4,2150],[55.4,2264],[55.4,2392],[55.4,2516],[55.6,2641],[57.3,2761],[58.8,2880],[58.8,2993],[58.8,3107],[58.8,3219],[58.8,3337],[58.8,3445],[58.8,3558],[58.8,3664],[58.8,3785],[58.8,3894],[58.8,4000],[58.8,4132],[58.8,4266],[58.8,4383],[58.8,4504],[58.8,4618],[58.8,4733],[59.1,4842],[59.5,4954],[59.5,5064],[59.5,5172],[59.5,5280],[59.5,5391],[59.5,5506],[59.5,5614],[59.5,5728],[59.5,5839],[59.5,5953],[59.5,6066],[59.5,6183],[59.5,6299],[59.5,6412],[59.5,6534],[59.5,6648],[59.5,6765],[59.5,6880],[59.5,6992],[59.5,7105],[59.5,7215],[59.5,7322],[59.5,7439],[59.5,7561],[59.5,7674],[59.5,7792],[59.5,7903],[59.5,8021],[59.5,8141],[59.5,8259],[59.5,8381],[59.5,8492],[59.5,8609],[59.5,8721],[59.5,8842],[59.5,8952],[59.5,9067],[59.5,9173],[59.5,9278],[59.5,9393],[59.5,9508],[59.5,9624],[59.5,9743],[59.5,9857],[59.5,9966],[59.5,10078],[59.5,10192],[59.5,10304],[59.5,10420],[59.5,10536],[59.5,10646],[59.5,10762],[59.5,10878],[59.5,10992],[59.5,11101],[59.5,11214],[59.5,11329],[59.5,11441],[59.5,11557],[59.5,11665],[59.5,11782],[59.5,11890],[59.5,12008],[59.5,12116],[59.5,12232],[59.5,12354],[59.5,12463],[59.5,12578],[59.8,12696],[59.8,12821]]",1,0,674.8476,677.1386,64.453125,1.0942,"[{""rating"":64.453125,""responseTime"":1.0942000000477492}]",space,1.4401,,677.1386,Half the time,50,677.1408,,,[],,0,4,4,4,1,audio/Narrative7Situation4.wav,audio/Narrative8Situation4.wav,audio/Narrative5Situation4.wav,audio/Narrative6Situation4.wav,3,3,1,2,,,,,,,,,,,,,,,,,,,,,,,,,,,,,,,,,,,,,,,
,,,,,,5e63e24eaf3bd51660031dbe,2024-02-08_15h03.49.980,group3.1-3.2-social-tom,2023.2.2,Win32,8.568980291,65c5074098b851296ff0b7ed,65c54194f3faf7b0e43a6ef8,,,,,,,,,,,,,,,,,,,,,,,,,,,,,677.141,2,audio/Narrative6Situation5.wav,679.2303,,679.2303,687.4397,"[[59.5,448],[58.9,588],[58.8,724],[58.8,855],[59.1,998],[59.1,1125],[59.1,1258],[59.9,1389],[61.3,1524],[65.2,1655],[75,1790],[75,1921],[75,2042],[75,2166],[75,2283],[75,2401],[75,2521],[75,2644],[75,2763],[75,2885],[75.1,3005],[75.1,3128],[75.1,3250],[75.3,3376],[75.5,3515],[75.5,3661],[76.5,3790],[76.5,3911],[76.5,4037],[76.5,4157],[77.1,4279],[77.7,4404],[77.7,4524],[77.7,4644],[77.7,4765],[77.7,4882],[77.7,5008],[77.7,5131],[77.7,5249],[77.7,5370],[77.7,5489],[77.7,5608],[77.7,5729],[77.7,5853],[77.7,5980],[77.7,6106],[77.7,6236],[77.7,6361],[77.7,6485],[77.7,6607],[77.7,6730],[77.7,6860],[77.7,6985],[77.7,7103],[77.7,7225],[77.7,7350],[77.7,7476],[77.7,7596],[77.7,7720],[77.7,7844],[77.7,7965],[77.7,8087],[77.7,8209]]",1,0,687.4399,691.3807,72.890625,2.9295,"[{""rating"":70.15625,""responseTime"":2.268199999988042},{""rating"":72.890625,""responseTime"":2.929499999999962}]",space,3.1554,,691.3808,All the time,100,691.3829,,,[],,0,5,5,5,1,audio/Narrative7Situation5.wav,audio/Narrative8Situation5.wav,audio/Narrative5Situation5.wav,audio/Narrative6Situation5.wav,5,2,5,2,,,,,,,,,,,,,,,,,,,,,,,,,,,,,,,,,,,,,,,
,,,,,,5e63e24eaf3bd51660031dbe,2024-02-08_15h03.49.980,group3.1-3.2-social-tom,2023.2.2,Win32,8.568980291,65c5074098b851296ff0b7ed,65c54194f3faf7b0e43a6ef8,,,,,,,,,,,,,,,,,,,,,,,,,,,,,691.383,2,audio/Narrative6Situation6.wav,693.4927,,693.4927,704.7244,"[[69.5,3150],[69.4,3267],[67.3,3382],[66.5,3496],[66.2,3621],[60.2,3741],[57.7,3859],[57.7,3973],[57.7,4082],[57.7,4197],[57.7,4307],[57.7,4418],[57.3,4533],[57.3,4642],[57.3,4754],[57.3,4869],[57.3,4984],[59.5,5100],[61.4,5222],[62.3,5339],[67.1,5452],[67.3,5557],[67.3,5669],[67.3,5785],[69.6,5900],[69.8,6013],[69.9,6134],[69.9,6250],[69.9,6367],[69.9,6472],[69.9,6578],[69.9,6680],[69.9,6792],[69.9,6911],[69.9,7017],[69.9,7128],[69.9,7244],[69.9,7356],[69.9,7467],[69.9,7583],[69.9,7700],[69.9,7799],[69.9,7921],[69.9,8026],[69.9,8141],[69.9,8258],[69.9,8372],[69.9,8487],[69.9,8598],[69.9,8710],[69.9,8825],[69.9,8936],[69.9,9047],[69.9,9158],[69.9,9272],[69.9,9382],[69.9,9501],[69.9,9614],[69.9,9728],[69.9,9844],[69.9,9956],[69.9,10073],[69.9,10179],[69.9,10297],[69.9,10412],[69.9,10528],[69.9,10642],[69.9,10753],[69.9,10871],[69.9,10986],[75,11110],[75,11231]]",1,0,704.7244,706.8182,73.4375,1.0011,"[{""rating"":73.4375,""responseTime"":1.00109999996414}]",space,1.2236,,706.8183,Not at all,0,706.8201,,,[],,0,6,6,6,1,audio/Narrative7Situation6.wav,audio/Narrative8Situation6.wav,audio/Narrative5Situation6.wav,audio/Narrative6Situation6.wav,3,2,3,2,,,,,,,,,,,,,,,,,,,,,,,,,,,,,,,,,,,,,,,
,,,,,,5e63e24eaf3bd51660031dbe,2024-02-08_15h03.49.980,group3.1-3.2-social-tom,2023.2.2,Win32,8.568980291,65c5074098b851296ff0b7ed,65c54194f3faf7b0e43a6ef8,,,,,,,,,,,,,,,,,,,,,,,,,,,,,706.8202,2,audio/Narrative6Situation7.wav,711.8944,,711.8945,736.9985,"[[999,5],[999,113],[999,232],[999,347],[999,462],[999,571],[999,683],[999,795],[56.4,913],[55.5,1038],[55.5,1159],[55.5,1272],[55.5,1387],[55.5,1498],[55.5,1613],[55.5,1732],[55.5,1848],[55.5,1972],[55.5,2090],[55.5,2206],[55.5,2322],[55.5,2445],[55.5,2554],[55.5,2662],[55.5,2779],[55.5,2886],[55.5,2996],[55.5,3110],[55.5,3229],[55.5,3341],[55.5,3450],[55.5,3562],[55.5,3676],[55.5,3793],[55.5,3909],[55.5,4029],[55.5,4144],[55.5,4267],[55.5,4386],[55.5,4505],[55.5,4618],[55.5,4732],[55.5,4850],[55.5,4969],[55.5,5083],[55.5,5200],[55.5,5309],[55.5,5426],[55.5,5531],[55.5,5642],[55.5,5745],[55.5,5866],[55.5,5987],[55.5,6101],[55.5,6219],[55.5,6332],[55.5,6447],[55.5,6554],[55.5,6675],[55.5,6789],[55.5,6903],[55.5,7013],[55.5,7127],[55.5,7244],[55.5,7357],[55.5,7463],[55.5,7565],[55.5,7674],[55.5,7787],[55.5,7896],[55.5,7997],[55.5,8106],[55.5,8213],[55.5,8335],[55.5,8449],[55.5,8564],[55.5,8676],[55.5,8785],[55.5,8896],[55.5,9008],[55.5,9110],[55.5,9221],[55.5,9339],[55.5,9449],[55.5,9566],[55.5,9684],[55.5,9803],[55.5,9919],[55.5,10035],[55.5,10142],[55.5,10255],[59.7,10372],[63.5,10497],[63.5,10610],[63.5,10718],[63.5,10839],[66.2,10956],[68.8,11076],[68.8,11189],[68.8,11304],[68.8,11422],[68.8,11535],[68.8,11650],[68.8,11764],[68.8,11879],[68.8,11995],[68.8,12109],[68.8,12229],[68.8,12341],[68.8,12456],[68.8,12569],[68.8,12686],[68.8,12799],[68.8,12914],[68.8,13046],[68.8,13169],[68.6,13299],[68.4,13420],[68.4,13542],[68.4,13659],[68.4,13768],[68.4,13886],[68.4,14003],[68.4,14113],[68.4,14227],[68.4,14342],[68.4,14459],[68.4,14575],[68.4,14697],[68.4,14814],[68.4,14932],[68.4,15059],[68.4,15179],[68.4,15298],[68.4,15413],[68.4,15527],[68.4,15644],[68.4,15764],[68.4,15873],[68.4,15983],[68.4,16090],[68.4,16196],[68.4,16323],[68.4,16435],[68.4,16551],[68.4,16659],[68.4,16780],[68.4,16897],[68.4,17015],[68.4,17131],[68.4,17244],[68.4,17355],[68.4,17469],[68.4,17591],[68.4,17710],[68.4,17827],[68.4,17933],[68.4,18047],[68.4,18160],[68.4,18271],[68.4,18390],[68.4,18501],[68.4,18615],[68.4,18730],[68.4,18849],[68.4,18963],[68.4,19073],[68.4,19179],[68.4,19300],[68.4,19411],[68.4,19523],[68.4,19638],[68.4,19750],[68.4,19867],[68.4,19982],[68.4,20099],[68.4,20216],[68.4,20323],[68.4,20437],[68.4,20558],[68.4,20669],[68.4,20779],[68.4,20887],[68.4,20997],[68.4,21109],[68.4,21211],[68.4,21325],[68.4,21442],[68.4,21555],[68.4,21674],[68.4,21785],[68.4,21897],[68.4,22013],[68.4,22125],[68.4,22235],[68.4,22340],[68.4,22451],[64.7,22564],[63.6,22685],[59.4,22803],[55.5,22927],[54,23044],[53.2,23161],[52,23279],[52,23391],[51.6,23511],[51.3,23622],[51.3,23728],[51.3,23843],[51.3,23959],[51.3,24078],[51.3,24193],[51.3,24304],[51.3,24424],[51.3,24531],[51.3,24649],[51.3,24759],[51.3,24874],[51.3,24991],[51.3,25103]]",1,0,736.9987,738.5994,51.25,0.6126,"[{""rating"":51.24999999999999,""responseTime"":0.6126000000238037}]",space,0.748,,738.5995,Half the time,50,745.7891,49.84375,5.8526,"[{""rating"":49.84375,""responseTime"":5.852599999964241}]",space,0,7,7,7,1,audio/Narrative7Situation7.wav,audio/Narrative8Situation7.wav,audio/Narrative5Situation7.wav,audio/Narrative6Situation7.wav,5,3,4,5,,,6.3572,,,,,,,,,,,,,,,,,,,,,,,,,,,,,,,,,,,,
,,,,,,5e63e24eaf3bd51660031dbe,2024-02-08_15h03.49.980,group3.1-3.2-social-tom,2023.2.2,Win32,8.568980291,65c5074098b851296ff0b7ed,65c54194f3faf7b0e43a6ef8,,,,,,,,,,,,,,,,,,,,,,,,,,,,,745.7894,2,audio/Narrative6Situation8.wav,750.8064,,750.8065,757.8877,"[[49.6,4750],[49.6,4872],[49.6,4995],[49.6,5093],[49.6,5215],[49.6,5334],[49.6,5442],[49.6,5560],[49.6,5673],[49.6,5788],[49.6,5899],[49.6,6017],[49.6,6130],[49.6,6251],[49.6,6360],[49.6,6474],[49.6,6588],[49.6,6709],[49.6,6820],[49.8,6952],[50.3,7080]]",1,0,757.8878,762.0371,66.171875,3.5586,"[{""rating"":50.625,""responseTime"":0.8736000000237709},{""rating"":66.171875,""responseTime"":3.55860000002383}]",space,3.413,,762.0371,Not at all,0,762.0386,,,[],,0,8,8,8,1,audio/Narrative7Situation8.wav,audio/Narrative8Situation8.wav,audio/Narrative5Situation8.wav,audio/Narrative6Situation8.wav,2,3,3,5,,,,,,,,,,,,,,,,,,,,,,,,,,,,,,,,,,,,,,,
,,,,,,5e63e24eaf3bd51660031dbe,2024-02-08_15h03.49.980,group3.1-3.2-social-tom,2023.2.2,Win32,8.568980291,65c5074098b851296ff0b7ed,65c54194f3faf7b0e43a6ef8,,,,,,,,,,,,,,,,,,,,,,,,,,,,,762.0388,2,audio/Narrative6Situation9.wav,766.0976,,766.0977,776.2487,"[[999,4],[999,121],[999,228],[999,338],[999,451],[999,566],[54.8,684],[52.7,798],[52.1,910],[52.1,1025],[51.8,1127],[51.2,1244],[51.2,1361],[51.2,1474],[51.2,1586],[51.2,1701],[51.2,1820],[51.2,1938],[51.2,2053],[51.2,2171],[51.2,2285],[51.2,2400],[51.2,2507],[51.2,2617],[51.2,2739],[51.2,2853],[51.2,2969],[51.2,3083],[51.2,3198],[51.2,3310],[51.2,3424],[51.2,3538],[51.2,3654],[51.2,3762],[51.2,3874],[51.2,3979],[51.2,4088],[51.2,4200],[51.2,4317],[51.2,4426],[51.2,4539],[53.1,4653],[57.2,4771],[58.4,4890],[61.2,5010],[63.4,5127],[65.5,5242],[67.1,5363],[70.5,5482],[72.3,5592],[72.7,5701],[72.7,5816],[72.7,5926],[72.7,6038],[72.7,6154],[72.7,6264],[72.7,6384],[72.7,6498],[72.7,6604],[72.7,6720],[72.7,6844],[72.7,6955],[72.7,7061],[72.7,7168],[72.7,7280],[72.7,7403],[72.7,7514],[72.7,7626],[72.7,7740],[72.7,7856],[72.7,7974],[72.5,8085],[72.5,8204],[72.5,8310],[72.5,8424],[72.5,8539],[72.5,8651],[72.5,8764],[72.5,8885],[72.5,8998],[72.5,9110],[72.5,9226],[72.5,9340],[72.5,9455],[72.5,9569],[72.5,9683],[72.5,9791],[72.5,9917],[72.5,10036],[72.5,10150]]",1,0,776.2488,777.816,72.5,0.9582,"[{""rating"":72.5,""responseTime"":0.9581999999880964}]",space,0.747,,777.816,Half the time,50,777.8176,,,[],,0,9,9,9,1,audio/Narrative7Situation9.wav,audio/Narrative8Situation9.wav,audio/Narrative5Situation9.wav,audio/Narrative6Situation9.wav,2,3,3,4,,,,,,,,,,,,,,,,,,,,,,,,,,,,,,,,,,,,,,,
,,,,,,5e63e24eaf3bd51660031dbe,2024-02-08_15h03.49.980,group3.1-3.2-social-tom,2023.2.2,Win32,8.568980291,65c5074098b851296ff0b7ed,65c54194f3faf7b0e43a6ef8,,,,,,,,,,,,,,,,,,,,,,,,,,,,,777.8177,2,audio/Narrative5Situation1.wav,782.8912,,782.8913,796.3658,"[[70.7,13353]]",1,0,796.3658,798.4457,76.953125,1.2156,"[{""rating"":76.953125,""responseTime"":1.2156000000238691}]",space,1.2409,,798.4457,Half the time,50,798.4468,,,[],,0,10,10,10,1,audio/Narrative8Situation1.wav,audio/Narrative7Situation1.wav,audio/Narrative6Situation1.wav,audio/Narrative5Situation1.wav,5,2,2,5,,,,,,,,,,,,,,,,,,,,,,,,,,,,,,,,,,,,,,,
,,,,,,5e63e24eaf3bd51660031dbe,2024-02-08_15h03.49.980,group3.1-3.2-social-tom,2023.2.2,Win32,8.568980291,65c5074098b851296ff0b7ed,65c54194f3faf7b0e43a6ef8,,,,,,,,,,,,,,,,,,,,,,,,,,,,,798.447,2,audio/Narrative5Situation2.wav,801.5501,,801.5501,831.2118,"[[57.8,458],[56.6,574],[56.6,694],[55,807],[52.9,922],[52.9,1030],[52.9,1145],[52.9,1258],[52.9,1372],[52.9,1487],[52.9,1601],[52.9,1713],[52.9,1824],[52.9,1934],[52.9,2045],[52.9,2174],[52.9,2290],[52.9,2404],[52.9,2526],[52.9,2636],[52.9,2747],[52.9,2862],[52.9,2961],[52.9,3074],[52.9,3193],[52.9,3306],[52.9,3418],[52.9,3537],[52.9,3655],[52.9,3770],[52.9,3881],[52.9,3995],[52.9,4121],[52.9,4250],[52.9,4357],[52.9,4474],[52.9,4581],[52.9,4688],[52.9,4804],[52.9,4921],[52.9,5025],[52.9,5135],[52.9,5252],[52.9,5369],[52.9,5490],[52.9,5601],[52.9,5716],[52.9,5830],[52.9,5942],[52.9,6060],[52.9,6176],[52.9,6288],[52.9,6399],[52.9,6505],[52.9,6619],[52.9,6726],[52.9,6837],[52.9,6942],[52.9,7058],[52.9,7172],[52.9,7286],[52.9,7398],[52.9,7508],[52.9,7621],[52.9,7737],[52.9,7856],[52.9,7966],[52.9,8077],[52.9,8190],[52.9,8299],[52.9,8408],[52.9,8527],[52.9,8641],[52.9,8754],[52.9,8870],[52.9,8991],[52.9,9106],[52.9,9219],[52.9,9332],[52.9,9442],[52.9,9551],[52.9,9667],[52.9,9779],[52.9,9888],[52.9,9999],[52.9,10112],[52.9,10223],[52.9,10334],[52.9,10446],[52.9,10562],[52.9,10676],[52.9,10793],[52.9,10915],[52.9,11020],[52.9,11134],[52.9,11250],[52.9,11356],[52.9,11474],[52.9,11598],[52.9,11697],[52.9,11818],[52.9,11938],[52.9,12043],[52.9,12158],[52.9,12273],[52.9,12394],[52.9,12503],[52.9,12617],[52.9,12730],[52.9,12851],[52.9,12965],[52.9,13073],[52.9,13185],[52.9,13297],[52.9,13411],[52.9,13531],[52.9,13643],[52.9,13756],[52.9,13869],[52.9,13982],[52.9,14102],[52.9,14216],[52.9,14344],[52.9,14467],[52.9,14597],[52.9,14717],[52.9,14827],[52.9,14943],[52.9,15059],[52.9,15171],[52.9,15287],[52.9,15400],[52.9,15514],[52.9,15622],[52.9,15746],[52.9,15857],[52.9,15976],[52.9,16092],[52.9,16200],[52.9,16306],[52.9,16426],[52.6,16534],[50,16665],[49.8,16784],[51.3,16898],[60.9,17019],[60.9,17152],[62.7,17290],[63,17407],[63.1,17531],[63.1,17643],[63.1,17752],[63.8,17869],[65.3,17989],[66,18093],[66.5,18208],[66.8,18322],[67.2,18443],[67.2,18552],[67.2,18669],[67.2,18785],[67.2,18912],[67.2,19023],[68,19144],[68.9,19260],[69.3,19375],[69.3,19487],[69.3,19600],[69.3,19713],[69.3,19832],[69.5,19943],[69.5,20050],[69.5,20162],[69.5,20283],[69.5,20398],[69.5,20516],[69.5,20631],[69.5,20744],[69.5,20865],[69.5,20980],[69.5,21100],[69.5,21210],[69.5,21321],[69.5,21438],[69.5,21556],[69.5,21671],[69.5,21786],[69.5,21898],[69.5,22015],[69.5,22133],[69.5,22248],[69.5,22361],[69.5,22476],[69.5,22586],[69.5,22695],[69.5,22803],[69.5,22927],[69.5,23036],[69.5,23151],[69.5,23258],[69.5,23371],[69.5,23483],[69.5,23608],[69.5,23722],[69.5,23834],[69.5,23946],[69.5,24062],[69.5,24178],[69.5,24294],[69.5,24403],[69.5,24523],[69.5,24644],[69.5,24757],[69.5,24875],[69.5,24989],[69.5,25096],[69.5,25202],[69.5,25322],[69.5,25431],[69.5,25545],[69.5,25663],[69.5,25778],[69.5,25893],[69.5,26012],[69.5,26127],[69.5,26234],[69.5,26339],[69.5,26448],[69.5,26578],[69.5,26701],[69.5,26814],[69.5,26932],[69.5,27049],[69.5,27168],[69.5,27284],[69.5,27399],[69.5,27514],[69.5,27632],[69.5,27745],[69.5,27864],[69.5,27974],[69.5,28091],[69.5,28204],[69.5,28312],[69.5,28423],[69.5,28538],[69.5,28648],[69.5,28757],[69.5,28865],[69.5,28985],[69.5,29098],[69.5,29209],[69.5,29325],[69.5,29430],[69.5,29549],[69.5,29661]]",1,0,831.2118,833.6793,71.875,1.3549,"[{""rating"":71.875,""responseTime"":1.354899999976169}]",space,1.6126,,833.6793,All the time,100,833.6812,,,[],,0,11,11,11,1,audio/Narrative8Situation2.wav,audio/Narrative7Situation2.wav,audio/Narrative6Situation2.wav,audio/Narrative5Situation2.wav,3,3,3,3,,,,,,,,,,,,,,,,,,,,,,,,,,,,,,,,,,,,,,,
,,,,,,5e63e24eaf3bd51660031dbe,2024-02-08_15h03.49.980,group3.1-3.2-social-tom,2023.2.2,Win32,8.568980291,65c5074098b851296ff0b7ed,65c54194f3faf7b0e43a6ef8,,,,,,,,,,,,,,,,,,,,,,,,,,,,,833.6813,2,audio/Narrative5Situation3.wav,836.7838,,836.7839,850.9235,"[[999,0],[999,108],[999,222],[999,331],[999,453],[999,570],[999,685],[999,804],[999,921],[999,1028],[999,1137],[999,1255],[999,1370],[999,1488],[999,1608],[47.7,1728],[47.7,1841],[48.1,1953],[48.8,2070],[48.9,2190],[48.9,2303],[48.9,2416],[48.9,2524],[48.9,2643],[48.9,2764],[48.9,2874],[48.9,2987],[48.9,3091],[48.9,3206],[48.9,3321],[48.9,3435],[48.9,3548],[48.9,3665],[48.9,3778],[48.9,3892],[48.9,4003],[48.9,4118],[48.9,4233],[48.9,4347],[48.9,4458],[48.9,4571],[48.9,4686],[48.9,4798],[48.9,4913],[48.9,5029],[48.9,5140],[48.9,5250],[48.9,5366],[48.9,5487],[48.9,5611],[49,5732],[49,5841],[49,5957],[49,6071],[49,6183],[49,6291],[49,6402],[49,6514],[49,6629],[49,6744],[49,6861],[49,6973],[49,7093],[49,7204],[49,7314],[49,7426],[49,7544],[49,7660],[49,7775],[49.2,7892],[49.9,8012],[49.9,8129],[50.3,8240],[51.3,8359],[51.3,8465],[51.3,8576],[51.3,8685],[51.3,8794],[54.7,8910],[58.8,9027],[60.9,9140],[60.9,9255],[60.9,9377],[60.9,9500],[60.9,9625],[60.9,9738],[62,9853],[62.4,9971],[62.4,10091],[62.4,10208],[62.4,10327],[62.4,10440],[62.4,10560],[62.4,10670],[62.4,10779],[62.4,10897],[62.4,11026],[62.4,11151],[62.4,11264],[62.4,11376],[62.4,11495],[62.4,11610],[62.4,11723],[62.4,11832],[62.4,11947],[62.4,12070],[62.4,12188],[62.4,12296],[62.4,12417],[62.4,12529],[62.4,12641],[62.4,12752],[62.4,12862],[62.4,12977],[62.4,13093],[62.4,13212],[62.4,13323],[62.4,13439],[62.4,13556],[62.4,13670],[62.4,13780],[62.4,13905],[62.4,14019],[62.4,14139]]",1,0,850.9235,852.8605,62.421875,0.5949,"[{""rating"":62.42187500000001,""responseTime"":0.5949000000358637}]",space,1.1089,,852.8605,All the time,100,852.8617,,,[],,0,12,12,12,1,audio/Narrative8Situation3.wav,audio/Narrative7Situation3.wav,audio/Narrative6Situation3.wav,audio/Narrative5Situation3.wav,4,8,5,3,,,,,,,,,,,,,,,,,,,,,,,,,,,,,,,,,,,,,,,
,,,,,,5e63e24eaf3bd51660031dbe,2024-02-08_15h03.49.980,group3.1-3.2-social-tom,2023.2.2,Win32,8.568980291,65c5074098b851296ff0b7ed,65c54194f3faf7b0e43a6ef8,,,,,,,,,,,,,,,,,,,,,,,,,,,,,852.8618,2,audio/Narrative5Situation4.wav,853.935,,853.935,874.5321,"[[68.6,8281],[70,8405],[70.5,8516],[71.3,8640],[73.2,8763],[74.7,8884],[77,8995],[77,9108],[77.1,9221],[79,9341],[79,9457],[79,9582],[79,9702],[79,9821],[79,9933],[79,10050],[78.8,10160],[78.8,10276],[78.8,10382],[78.8,10497],[78.8,10616],[78.8,10732],[78.8,10852],[78.8,10976],[78.8,11087],[78.8,11201],[78.8,11320],[78.8,11439],[78.8,11558],[78.8,11665],[78.8,11780],[78.8,11897],[78.8,12011],[78.8,12124],[78.8,12243],[78.8,12360],[78.8,12468],[78.8,12586],[78.8,12699],[78.8,12823],[78.8,12933],[78.8,13047],[78.8,13161],[78.8,13273],[78.8,13388],[78.8,13498],[78.8,13610],[78.8,13721],[78.8,13836],[78.8,13942],[78.8,14055],[78.8,14170],[78.8,14275],[78.8,14388],[78.8,14502],[78.8,14611],[78.8,14728],[78.8,14834],[78.8,14949],[78.8,15057],[78.8,15163],[78.8,15281],[78.8,15385],[78.8,15498],[78.8,15613],[78.8,15720],[78.8,15832],[78.8,15940],[78.8,16054],[78.8,16164],[78.8,16277],[78.8,16397],[78.8,16510],[78.8,16629],[78.8,16745],[78.8,16868],[78.8,16986],[78.8,17102],[78.8,17209],[78.8,17317],[78.8,17424],[78.8,17546],[78.8,17659],[78.8,17768],[78.8,17885],[78.8,17997],[78.8,18106],[78.8,18224],[78.8,18331],[78.8,18449],[78.8,18562],[78.8,18672],[78.8,18785],[78.8,18902],[78.8,19005],[78.8,19113],[78.8,19224],[78.8,19338],[78.8,19453],[78.8,19565],[78.8,19678],[79.1,19800],[79.2,19912],[79.2,20044],[79.2,20157],[79.4,20263],[79.6,20379],[79.6,20484],[79.6,20596]]",1,0,874.5322,876.1116,79.609375,0.7219,"[{""rating"":79.609375,""responseTime"":0.7219000000357028}]",space,0.7503,,876.1117,Half the time,50,876.1137,,,[],,0,13,13,13,1,audio/Narrative8Situation4.wav,audio/Narrative7Situation4.wav,audio/Narrative6Situation4.wav,audio/Narrative5Situation4.wav,3,3,2,1,,,,,,,,,,,,,,,,,,,,,,,,,,,,,,,,,,,,,,,
,,,,,,5e63e24eaf3bd51660031dbe,2024-02-08_15h03.49.980,group3.1-3.2-social-tom,2023.2.2,Win32,8.568980291,65c5074098b851296ff0b7ed,65c54194f3faf7b0e43a6ef8,,,,,,,,,,,,,,,,,,,,,,,,,,,,,876.1139,2,audio/Narrative5Situation5.wav,881.1876,,881.1876,896.794,"[[73.7,1350],[53,2387],[54,2507],[54,2623],[54,2733],[54,2849],[54,2967],[54,3077],[54,3186],[54,3304],[54,3428],[54,3547],[54,3661],[54,3777],[54,3887],[54,4004],[54,4116],[54,4221],[54,4336],[54,4456],[54,4569],[54,4685],[54,4798],[54,4909],[54.1,5025],[55.7,5135],[55.8,5249],[55.8,5359],[59.7,5475],[65.5,5594],[70.3,5711],[72.5,5831],[73.8,5954],[78.4,6074],[78.4,6187],[78.4,6293],[78.4,6408],[78.4,6519],[78.4,6628],[78.4,6742],[78.4,6857],[78.4,6979],[78.4,7093],[78.4,7212],[78.4,7321],[78.4,7432],[78.4,7551],[78.4,7665],[78.4,7774],[78.4,7898],[78.4,8011],[78.4,8117],[78.4,8227],[78.4,8342],[78.4,8453],[78.4,8569],[78.4,8684],[78.4,8793],[78.4,8900],[78.4,9018],[78.4,9116],[78.4,9226],[78.4,9340],[78.4,9457],[78.4,9575],[78.4,9690],[78.4,9804],[78.4,9918],[78.4,10030],[78.4,10143],[78.4,10258],[78.4,10371],[78.4,10503],[78.4,10609],[78.4,10733],[78.4,10852],[78.4,10962],[78.4,11078],[78.4,11183],[78.4,11295],[78.4,11408],[78.4,11518],[78.4,11639],[78.4,11753],[78.4,11869],[78.4,11985],[78.4,12093],[78.4,12212],[78.4,12320],[78.4,12428],[78.4,12541],[78.4,12660],[78.4,12779],[78.4,12895],[78.4,13006],[78.4,13115],[78.4,13233],[78.4,13345],[78.4,13454],[78.4,13568],[78.4,13681],[78.4,13793],[78.4,13906],[78.4,14019],[78.4,14125],[78.4,14241],[78.4,14354],[78.4,14475],[78.4,14593],[78.4,14702],[78.4,14813],[78.4,14932],[78.4,15043],[78.4,15146],[78.4,15261],[78.4,15375],[78.4,15488],[78.4,15606]]",1,0,896.7941,898.881,81.640625,0.9973,"[{""rating"":81.640625,""responseTime"":0.9972999999523608}]",space,1.3334,,898.8811,All the time,100,898.8831,,,[],,0,14,14,14,1,audio/Narrative8Situation5.wav,audio/Narrative7Situation5.wav,audio/Narrative6Situation5.wav,audio/Narrative5Situation5.wav,2,5,2,5,,,,,,,,,,,,,,,,,,,,,,,,,,,,,,,,,,,,,,,
,,,,,,5e63e24eaf3bd51660031dbe,2024-02-08_15h03.49.980,group3.1-3.2-social-tom,2023.2.2,Win32,8.568980291,65c5074098b851296ff0b7ed,65c54194f3faf7b0e43a6ef8,,,,,,,,,,,,,,,,,,,,,,,,,,,,,898.8832,2,audio/Narrative5Situation6.wav,901.9933,,901.9933,907.8533,"[[82.7,1624],[82.7,1735],[82.7,1846],[82.7,1962],[82.7,2070],[82.7,2182],[82.7,2291],[82.7,2406],[82.7,2521],[82.7,2634],[82.7,2749],[82.7,2868],[82.7,2987],[82.7,3092],[82.7,3208],[82.7,3318],[82.7,3439],[82.7,3551],[82.7,3665],[82.7,3778],[82.7,3885],[82.7,3997],[82.7,4107],[82.7,4226],[82.7,4342],[82.7,4452],[82.7,4571],[82.7,4682],[82.7,4802],[82.7,4921],[82.7,5050],[82.7,5165],[82.7,5285],[82.7,5406],[82.7,5517],[82.7,5638],[82.7,5747],[82.7,5859]]",1,0,907.8533,910.9857,75.703125,1.8958,"[{""rating"":75.703125,""responseTime"":1.8958000000119455}]",space,2.2829,0,910.9857,All the time,100,910.9866,,,[],,0,15,15,15,1,audio/Narrative8Situation6.wav,audio/Narrative7Situation6.wav,audio/Narrative6Situation6.wav,audio/Narrative5Situation6.wav,2,3,2,3,,,,,,,,,,,,,,,,,,,,,,,,,,,,,,,,,,,,,,,
,,,,,,5e63e24eaf3bd51660031dbe,2024-02-08_15h03.49.980,group3.1-3.2-social-tom,2023.2.2,Win32,8.568980291,65c5074098b851296ff0b7ed,65c54194f3faf7b0e43a6ef8,,,,,,,,,,,,,,,,,,,,,,,,,,,,,910.9868,2,audio/Narrative5Situation7.wav,915.0583,,915.0584,936.2707,"[[999,4],[999,110],[999,215],[999,327],[999,445],[51.4,561],[51.6,672],[51.6,784],[50.9,889],[50.5,1012],[50.5,1121],[50.5,1235],[50.5,1348],[50.5,1458],[50.5,1568],[50.5,1688],[50.5,1796],[50.5,1909],[50.5,2032],[50.5,2144],[50.5,2259],[50.5,2370],[50.5,2481],[50.5,2594],[50.5,2704],[50.5,2812],[50.5,2927],[50.5,3040],[50.5,3155],[50.5,3266],[50.5,3379],[50.5,3496],[50.5,3604],[50.5,3711],[50.5,3825],[50.5,3937],[50.5,4054],[50.5,4162],[50.5,4274],[50.5,4380],[50.5,4493],[50.5,4607],[50.5,4720],[50.5,4830],[50.5,4941],[50.5,5058],[50.5,5176],[50.5,5282],[50.5,5392],[50.5,5506],[50.5,5620],[50.5,5734],[50.5,5844],[50.5,5955],[50.5,6066],[50.5,6187],[50.5,6298],[50.5,6418],[50.5,6538],[47.7,6647],[44.7,6764],[44.5,6880],[44.5,6990],[43.2,7107],[43,7229],[43,7348],[43,7458],[42.7,7574],[42.2,7683],[42,7804],[41,7924],[40.2,8039],[39.8,8155],[39.1,8264],[39.1,8377],[39.1,8481],[39.1,8588],[39.4,8699],[48,8819],[50.1,8935],[50.1,9047],[50.1,9159],[50.1,9273],[50.1,9391],[50.1,9505],[49.8,9615],[49.8,9731],[49.8,9845],[49.8,9963],[49.8,10082],[49.8,10195],[49.8,10310],[49.8,10426],[49,10541],[48.1,10655],[48.1,10766],[48.1,10879],[48.1,10986],[48.1,11098],[48.1,11211],[48.1,11332],[48.1,11448],[48.1,11564],[48.1,11676],[48.1,11791],[48.1,11908],[48.1,12022],[48.1,12134],[48.1,12247],[48.1,12368],[48.1,12479],[48.1,12590],[48.1,12700],[48.1,12814],[48.1,12930],[48.1,13038],[48.1,13152],[48.1,13261],[48.1,13379],[48.1,13502],[48.1,13614],[48.1,13719],[48.1,13833],[48.1,13946],[48.1,14054],[48.1,14170],[48.1,14286],[48.1,14404],[48.1,14517],[48.1,14636],[48.1,14747],[48.1,14859],[48.1,14976],[48.1,15092],[48.1,15207],[48.1,15323],[48.1,15440],[48.1,15554],[48.1,15662],[48.1,15772],[48.1,15888],[48.1,16001],[48.1,16112],[48.1,16232],[48.1,16345],[48.1,16466],[48.1,16583],[48.1,16695],[48.1,16804],[48.1,16913],[48.1,17028],[48.1,17141],[48.1,17251],[48.1,17364],[48.1,17484],[48.1,17592],[48.1,17706],[48.1,17814],[48.1,17926],[48.1,18029],[48.1,18145],[48.1,18257],[48.1,18373],[48.1,18487],[48.2,18602],[48.4,18728],[48.4,18831],[48.7,18952],[49.1,19072],[49.1,19193],[49.1,19307],[49.1,19413],[49.1,19529],[49.1,19643],[49.1,19741],[49.1,19857],[49.1,19968],[49.1,20085],[49.1,20206],[49.1,20316],[49.1,20426],[49.1,20537],[49.1,20648],[49.1,20757],[49.1,20866],[49.1,20981],[49.1,21100],[49.2,21212]]",1,0,936.2708,939.3666,48.59375,0.7197,"[{""rating"":48.59375,""responseTime"":0.7196999999880518}]",space,2.2616,,939.3666,All the time,100,939.3677,,,[],,0,16,16,16,1,audio/Narrative8Situation7.wav,audio/Narrative7Situation7.wav,audio/Narrative6Situation7.wav,audio/Narrative5Situation7.wav,3,5,5,4,,,,,,,,,,,,,,,,,,,,,,,,,,,,,,,,,,,,,,,
,,,,,,5e63e24eaf3bd51660031dbe,2024-02-08_15h03.49.980,group3.1-3.2-social-tom,2023.2.2,Win32,8.568980291,65c5074098b851296ff0b7ed,65c54194f3faf7b0e43a6ef8,,,,,,,,,,,,,,,,,,,,,,,,,,,,,939.3678,2,audio/Narrative5Situation8.wav,942.4208,,942.4209,951.4177,"[[49.8,1391],[51.3,1514],[51.3,1629],[49.8,1741],[49.8,1851],[49.8,1964],[49.8,2077],[49.8,2191],[49.8,2305],[49.8,2420],[49.8,2538],[49.8,2653],[49.8,2763],[49.8,2879],[49.8,2994],[49.8,3102],[49.8,3211],[49.8,3328],[49.8,3447],[49.8,3564],[49.8,3666],[50,3784],[50.9,3901],[50.9,4016],[50.9,4128],[54.8,4242],[59.1,4354],[60,4471],[60,4582],[60.3,4691],[62.1,4805],[65.7,4923],[68.2,5022],[71.3,5139],[72.5,5242],[72.5,5351],[72.5,5464],[72.5,5577],[72.5,5693],[72.5,5802],[72.5,5921],[72.5,6034],[72.5,6155],[72.5,6271],[72.5,6381],[72.5,6493],[72.5,6614],[72.5,6728],[72.6,6841],[74.5,6963],[76.7,7074],[76.7,7187],[76.7,7302],[76.7,7415],[76.7,7529],[76.7,7640],[76.7,7754],[76.7,7865],[76.7,7975],[76.7,8080],[76.7,8192],[76.7,8307],[76.7,8425],[76.7,8534],[76.7,8647],[76.7,8769],[76.7,8877],[76.7,8996]]",1,0,951.4178,954.1437,79.453125,1.3564,"[{""rating"":74.921875,""responseTime"":0.7329999999999472},{""rating"":79.453125,""responseTime"":1.3563999999761336}]",space,1.8858,,954.1438,Not at all,0,954.1459,,,[],,0,17,17,17,1,audio/Narrative8Situation8.wav,audio/Narrative7Situation8.wav,audio/Narrative6Situation8.wav,audio/Narrative5Situation8.wav,3,2,5,3,,,,,,,,,,,,,,,,,,,,,,,,,,,,,,,,,,,,,,,
,,,,,,5e63e24eaf3bd51660031dbe,2024-02-08_15h03.49.980,group3.1-3.2-social-tom,2023.2.2,Win32,8.568980291,65c5074098b851296ff0b7ed,65c54194f3faf7b0e43a6ef8,,,,,,,,,,,,,,,,,,,,,,,,,,,,,954.146,2,audio/Narrative5Situation9.wav,957.228,,957.2281,996.9767,"[[63.4,1469],[61.1,1584],[56.7,1700],[53.7,1811],[53.4,1926],[53.2,2037],[53.2,2156],[53.2,2265],[53.2,2383],[53.2,2495],[53.2,2602],[53.2,2715],[53.2,2834],[53.2,2948],[53.2,3065],[53.2,3177],[53.2,3287],[53.2,3397],[53.2,3507],[53.2,3616],[53.2,3724],[53.2,3835],[53.2,3941],[53.2,4043],[53.2,4155],[53.2,4272],[53.2,4377],[53.2,4495],[53.2,4609],[53.2,4727],[53.2,4837],[53.2,4947],[53.2,5063],[53.2,5176],[53.2,5291],[53.2,5403],[53.2,5524],[53.2,5643],[53.2,5753],[53.2,5862],[53.2,5975],[53.2,6077],[53.2,6183],[53.2,6293],[53.2,6407],[53.2,6519],[53.2,6636],[53.2,6749],[53.2,6859],[53.2,6976],[53.2,7089],[53.2,7206],[53.2,7317],[53.2,7429],[53.2,7530],[53.2,7635],[53.2,7752],[53.2,7866],[53.2,7985],[53.2,8094],[53.2,8208],[53.2,8325],[53.2,8442],[53.2,8552],[53.2,8660],[53.2,8777],[53.2,8891],[53.2,9006],[53.2,9114],[61.5,9233],[71.4,9352],[75.4,9469],[78.3,9578],[82.7,9699],[87.7,9813],[90.2,9927],[90.5,10038],[90.5,10152],[90.5,10262],[90.5,10384],[90.5,10507],[90.5,10619],[90.5,10737],[90.5,10853],[90.5,10974],[90,11084],[90,11187],[90,11303],[90,11414],[90,11531],[90,11642],[90,11756],[90,11883],[90,11999],[90,12112],[90,12227],[90,12340],[90,12455],[90,12569],[90,12681],[90,12788],[89.9,12903],[89.9,13023],[89.9,13137],[89.9,13257],[89.9,13370],[89.9,13484],[89.9,13598],[89.9,13717],[89.9,13832],[89.9,13946],[89.9,14059],[89.7,14174],[88.2,14291],[86.6,14406],[86.6,14518],[86.6,14628],[86.6,14743],[86.6,14855],[86.6,14977],[86.6,15088],[86.6,15204],[86.6,15320],[86.6,15428],[86.6,15531],[86.6,15644],[86.6,15758],[86.6,15870],[86.9,15990],[92.6,16099],[92.6,16219],[92.6,16337],[92.6,16456],[92.6,16568],[92.5,16690],[92.3,16799],[92.3,16914],[92.3,17032],[92.3,17143],[92.3,17253],[92.3,17367],[92.3,17488],[92.1,17605],[89.6,17725],[89.1,17846],[88.9,17960],[86.4,18074],[83.4,18193],[83.4,18298],[83.4,18420],[83.4,18533],[83.4,18646],[83.4,18765],[83.4,18878],[83.4,18992],[83.4,19092],[83.4,19207],[83.4,19323],[83.4,19430],[83.4,19552],[83.4,19663],[83.4,19779],[83.4,19891],[83.4,20001],[83.4,20118],[83.4,20231],[83.4,20346],[83.4,20464],[83.4,20576],[83.4,20689],[83.4,20810],[83.4,20924],[83.4,21033],[83.4,21147],[83.4,21267],[83.4,21381],[83.4,21503],[83.4,21616],[83.4,21728],[83.4,21838],[83.4,21951],[83.4,22060],[83.4,22181],[83.4,22296],[83.4,22415],[83.4,22527],[83.4,22636],[83.4,22750],[83.4,22859],[83.4,22971],[83.4,23082],[83.4,23199],[83.4,23314],[83.4,23427],[83.4,23539],[83.4,23658],[83.4,23771],[83.4,23886],[83.4,24003],[83.4,24116],[83.4,24230],[83.4,24339],[83.4,24459],[83.4,24569],[83.4,24682],[83.4,24799],[83.4,24908],[83.4,25022],[83.4,25134],[83.4,25242],[83.4,25351],[83.4,25460],[83.4,25569],[83.4,25682],[83.4,25792],[83.4,25909],[83.4,26015],[83.4,26124],[83.4,26242],[83.4,26355],[83.4,26469],[83.4,26586],[83.4,26700],[83.4,26818],[83.4,26925],[83.4,27036],[83.4,27147],[83.4,27265],[83.4,27383],[83.4,27499],[83.4,27608],[83.4,27719],[83.4,27838],[83.4,27950],[83.4,28062],[83.4,28175],[83.4,28294],[83.4,28415],[83.4,28529],[83.4,28636],[83.4,28748],[83.4,28862],[83.4,28972],[83.4,29091],[83.4,29195],[83.4,29307],[83.4,29409],[83.4,29528],[83.4,29641],[83.4,29747],[83.4,29859],[83.4,29965],[83.4,30083],[83.4,30194],[83.4,30306],[83.4,30419],[83.4,30535],[83.4,30653],[83.4,30764],[83.4,30874],[83.4,30993],[83.4,31106],[83.4,31217],[83.4,31330],[83.4,31450],[83.4,31567],[83.4,31682],[83.4,31793],[83.4,31907],[83.4,32017],[83.4,32128],[83.4,32235],[83.4,32354],[83.4,32477],[83.4,32590],[83.4,32706],[83.4,32812],[83.4,32927],[83.4,33042],[83.4,33160],[83.4,33275],[83.4,33391],[83.4,33512],[83.4,33624],[83.4,33723],[83.4,33841],[83.4,33951],[83.4,34060],[83.4,34177],[83.4,34282],[83.4,34397],[83.4,34510],[83.4,34623],[83.4,34734],[83.4,34848],[83.4,34964],[83.4,35076],[83.4,35187],[83.4,35304],[83.4,35424],[83.4,35534],[83.4,35649],[83.4,35769],[83.4,35884],[83.4,35995],[83.4,36119],[83.4,36237],[83.4,36346],[83.4,36458],[83.4,36574],[83.4,36698],[83.4,36807],[83.4,36908],[83.4,37024],[83.4,37138],[83.4,37246],[83.4,37361],[83.4,37478],[83.4,37587],[83.4,37699],[83.4,37814],[83.4,37932],[83.4,38055],[83.4,38168],[83.4,38276],[83.4,38391],[83.4,38501],[83.4,38606],[83.4,38727],[83.4,38837],[83.4,38946],[83.4,39056],[83.4,39169],[83.4,39287],[83.4,39403],[83.4,39513],[83.4,39624],[83.4,39748]]",1,0,996.9768,1000.0703,82.421875,1.9848,"[{""rating"":82.421875,""responseTime"":1.984800000012001}]",space,2.2296,,1000.0703,Not at all,0,1000.0716,,,[],,0,18,18,18,1,audio/Narrative8Situation9.wav,audio/Narrative7Situation9.wav,audio/Narrative6Situation9.wav,audio/Narrative5Situation9.wav,3,2,4,3,,,,,,,,,,,,,,,,,,,,,,,,,,,,,,,,,,,,,,,
,,,,,,5e63e24eaf3bd51660031dbe,2024-02-08_15h03.49.980,group3.1-3.2-social-tom,2023.2.2,Win32,8.568980291,65c5074098b851296ff0b7ed,65c54194f3faf7b0e43a6ef8,,,,,,,,,,,,,,,,,,,,,,,,,,,,,,,,,,,,,,,,,,,,,,,,,,,,,,,,,,,,,,,,,,,,,,,,1000.0716,1003.4145,space,2.7091,,1003.4149,1013.4193,space,9.5158,,,,,,,,,,,,,,,,,,,,,,,,,,
,,,,,,5e63e24eaf3bd51660031dbe,2024-02-08_15h03.49.980,group3.1-3.2-social-tom,2023.2.2,Win32,8.568980291,65c5074098b851296ff0b7ed,65c54194f3faf7b0e43a6ef8,,,,,,,,,,,,,,,,,,,,,,,,,,,,,1016.0258,1,audio/Narrative7Situation9.wav,1018.0329,,,,,,,1050.5169,1054.0801,67.734375,1.5185,"[{""rating"":67.734375,""responseTime"":1.5184999999999036}]",space,2.7452,,1050.5152,All the time,100,1050.5168,,,[],,,,,,,,,,,2,2,2,2,,,,,,,,,,,,,,,1013.4247,1016.0211,1018.0331,3,1050.515,"[[75.9,3140],[71.6,3258],[71.6,3380],[73,3495],[77.2,3615],[79.4,3735],[80.2,3855],[80.2,3966],[80.2,4081],[80.2,4190],[80.2,4307],[80.2,4431],[80.2,4550],[80.2,4669],[80.2,4791],[80.2,4905],[80.2,5026],[80.2,5148],[80.2,5268],[80.2,5389],[80.2,5510],[80.2,5622],[80.2,5742],[80.2,5865],[80.2,5984],[80.2,6104],[80.2,6221],[80.2,6339],[80.2,6460],[80.2,6585],[80.2,6707],[80.2,6825],[80.2,6943],[80.2,7071],[80.2,7193],[80.2,7308],[80.2,7419],[80.2,7530],[80.2,7644],[80.2,7757],[80.2,7874],[80.2,7992],[80.2,8107],[80.2,8231],[80.2,8343],[80.2,8455],[80.2,8570],[80.2,8685],[80.2,8804],[80.2,8920],[80.2,9042],[80.2,9164],[80.2,9280],[80.2,9399],[80.2,9517],[80.2,9627],[80.2,9736],[80.2,9855],[80.2,9976],[80.2,10111],[80.2,10241],[80.2,10360],[80.2,10481],[80.2,10609],[80.2,10727],[79.9,10845],[79.4,10961],[79.4,11078],[79.4,11188],[79.4,11307],[79.4,11422],[79.4,11541],[79.4,11657],[79.4,11772],[79.4,11903],[79.4,12041],[79.4,12167],[79.4,12286],[79.4,12408],[79.4,12528],[79.4,12646],[79.4,12764],[79.4,12880],[79.4,12997],[79.4,13111],[79.4,13225],[79.4,13344],[79.4,13464],[79.4,13571],[79.4,13688],[79.4,13801],[79.4,13921],[79.4,14038],[79.4,14154],[79.4,14278],[79.4,14396],[79.4,14512],[79.4,14624],[79.4,14742],[79.4,14863],[79.4,14982],[79.4,15097],[79.4,15217],[79.4,15320],[79.4,15434],[79.4,15550],[79.4,15662],[79.4,15778],[79.4,15888],[79.4,16004],[79.4,16131],[79.4,16253],[79.4,16370],[79.4,16510],[79.4,16627],[79.4,16743],[79.4,16860],[79.4,16974],[79.4,17086],[79.4,17192],[79.4,17311],[79.4,17435],[79.4,17539],[79.4,17660],[79.4,17763],[79.4,17875],[79.4,17996],[79.4,18114],[79.4,18221],[79.4,18336],[79.4,18451],[79.4,18577],[79.4,18695],[79.4,18815],[79.4,18923],[79.4,19045],[79.4,19164],[79.4,19276],[79.4,19388],[79.4,19500],[79.4,19619],[79.4,19730],[80.5,19843],[80.5,19967],[80.5,20084],[72.2,20204],[71.7,20326],[71.7,20447],[71.7,20567],[71.2,20688],[71.2,20810],[71.2,20914],[71.1,21029],[71.1,21147],[70,21264],[68.1,21380],[67.7,21493],[67.5,21605],[67.3,21728],[66.7,21847],[66.7,21964],[66.7,22075],[66.7,22185],[65.4,22306],[63.8,22421],[61.8,22538],[61.8,22651],[61.8,22772],[61.8,22888],[61.8,23003],[61.8,23122],[61.8,23245],[61.8,23362],[61.8,23483],[61.8,23600],[61.8,23721],[62.3,23841],[62.4,23964],[62.4,24073],[62.4,24192],[62.4,24309],[62.4,24431],[62.4,24553],[62.4,24671],[62.4,24785],[62.4,24908],[62.4,25026],[62.4,25140],[62.5,25265],[62.5,25383],[62.5,25500],[62.5,25617],[62.2,25727],[62.2,25839],[62.2,25960],[62.2,26072],[62.2,26191],[62.2,26311],[62.2,26428],[62.2,26546],[62.2,26659],[62.2,26778],[62.2,26895],[62.5,27007],[62.5,27126],[62.5,27244],[62.5,27356],[62.5,27472],[62.5,27585],[62.5,27705],[62.5,27820],[62.5,27931],[62.5,28051],[62.5,28165],[62.5,28279],[62.5,28400],[62.5,28518],[62.5,28632],[62.5,28746],[62.5,28868],[62.5,28986],[62.5,29102],[62.5,29223],[62.5,29345],[62.5,29464],[62.5,29578],[62.5,29693],[62.5,29803],[62.5,29923],[62.5,30037],[62.5,30152],[62.5,30268],[62.5,30376],[62.5,30500],[62.5,30622],[62.5,30741],[62.1,30854],[62.1,30975],[62.1,31091],[62.1,31206],[62.1,31329],[62.1,31446],[62.1,31565],[62.1,31679],[62.1,31794],[62.1,31906],[62.1,32022],[62.1,32137],[62.1,32253],[62.1,32363],[62.1,32481]]",0,0,0,0,1,"Larry had recently lost his family, job and home, and was now living on his own in the park. He had most of his belongings, including some clothes, a blanket, and his mother’s special necklace. His family had been very important to him and he felt as though he did not have much going for him. One of his first days in the park he came across a family that did not have much food and looked very cold. He decided to give them some of his food and his blanket.","Larry had recently lost his family, job and home, and was now living on his own in the park. He had most of his belongings, including some clothes, a blanket, and his mother’s special necklace. His family had been very important to him and he felt as though he did not have much going for him. One of his first days in the park he came across a family that did not have much food and looked very cold. He decided to give them some of his food and his blanket.","Larry had recently lost his family, job and home, and was now living on his own in the park. He had most of his belongings, including some clothes, a blanket, and his mother’s special necklace. His family had been very important to him and he felt as though he did not have much going for him. One of his first days in the park he came across a family that did not have much food and looked very cold. He decided to give them some of his food and his blanket.","Larry had recently lost his family, job and home, and was now living on his own in the park. He had most of his belongings, including some clothes, a blanket, and his mother’s special necklace. His family had been very important to him and he felt as though he did not have much going for him. One of his first days in the park he came across a family that did not have much food and looked very cold. He decided to give them some of his food and his blanket.",,,,,,,,,,
,,,,,,5e63e24eaf3bd51660031dbe,2024-02-08_15h03.49.980,group3.1-3.2-social-tom,2023.2.2,Win32,8.568980291,65c5074098b851296ff0b7ed,65c54194f3faf7b0e43a6ef8,,,,,,,,,,,,,,,,,,,,,,,,,,,,,1054.0807,1,audio/Narrative7Situation9.wav,1057.0243,space,,,,,,1081.2774,1084.2835,31.796875,1.9085,"[{""rating"":31.796875000000004,""responseTime"":1.9085000000000036}]",space,2.1715,0.0001,1081.2709,Half the time,50,1081.2773,,,[],,,,,,,,,,,6,2,3,9,2.8394,,,,,,,,,,,,,,,,1057.0243,3,1081.2708,"[[67.7,1615],[67.7,1735],[65,1856],[62,1973],[62,2090],[61.8,2207],[61.2,2317],[59,2436],[57.3,2557],[54.4,2692],[53.2,2805],[53.2,2930],[52,3043],[52,3164],[52,3280],[52,3394],[51.6,3509],[51.5,3625],[50.5,3752],[49.8,3867],[49.5,3984],[46.6,4106],[46.5,4224],[45,4337],[44.8,4453],[44.8,4571],[44.1,4691],[42.8,4809],[42.8,4924],[42.8,5039],[42.8,5155],[42.8,5267],[42.8,5389],[42.8,5500],[42.1,5627],[41.9,5745],[41.3,5861],[41,5982],[41,6102],[41,6221],[41,6338],[41,6460],[41,6569],[41,6683],[41,6788],[41,6914],[41,7022],[41,7135],[41,7248],[40.8,7367],[39.7,7478],[39.7,7596],[39.6,7714],[38.8,7836],[38.8,7956],[38.8,8073],[38.8,8192],[38.8,8316],[38.8,8434],[38.8,8552],[38.8,8667],[38.8,8783],[38.8,8910],[38.8,9025],[38.8,9140],[38.8,9258],[38.8,9373],[38.8,9482],[38.8,9601],[38.8,9705],[38.8,9821],[38.8,9939],[38.8,10058],[38.8,10169],[38.8,10288],[38.8,10403],[38.8,10513],[38.8,10622],[38.8,10731],[38.8,10845],[38.8,10958],[38.8,11072],[38.8,11191],[38.8,11306],[38.8,11423],[38.8,11537],[38.8,11648],[38.8,11764],[38.8,11880],[38.8,11996],[38.8,12107],[38.8,12226],[38.8,12342],[38.8,12448],[38.8,12579],[38.8,12692],[38.8,12798],[38.8,12915],[38.8,13038],[38.8,13154],[38.8,13268],[38.8,13385],[38.8,13497],[38.8,13612],[38.8,13733],[38.8,13844],[38.8,13959],[38.8,14073],[38.8,14188],[38.8,14308],[38.8,14422],[38.8,14538],[38.8,14661],[42.7,14770],[43.6,14887],[45.6,15011],[46.8,15133],[46.8,15248],[46.8,15364],[46.8,15473],[46.8,15587],[46.8,15698],[46.8,15812],[46.8,15926],[46.5,16039],[46.5,16151],[46.3,16271],[45.8,16387],[45.3,16501],[45.3,16617],[45.3,16723],[44.5,16845],[44.5,16959],[43.6,17086],[43.5,17206],[42.1,17332],[41.8,17444],[41.8,17558],[41.8,17673],[41.5,17790],[40.8,17909],[40.4,18022],[39.3,18141],[38.1,18256],[36.9,18375],[35,18491],[34.9,18599],[34.9,18718],[34.9,18831],[34.5,18953],[34.5,19071],[34.5,19187],[34.5,19302],[34.5,19417],[34.5,19528],[34.5,19643],[34.5,19758],[34.5,19873],[34.5,19985],[34.5,20098],[34.5,20215],[34.5,20328],[34.5,20451],[34.5,20567],[34.5,20687],[34.5,20800],[34.5,20912],[34.5,21023],[34.5,21144],[34.5,21263],[34.5,21379],[34.5,21496],[34.5,21615],[34.5,21727],[34.5,21849],[34.5,21967],[34.5,22081],[34.5,22194],[34.5,22307],[34.5,22414],[34.5,22536],[34.5,22648],[34.5,22755],[34.5,22865],[34.5,22979],[34.5,23094],[34.5,23210],[34.5,23324],[34.5,23439],[34.5,23555],[34.5,23670],[34.5,23781],[34.5,23898],[34.5,24008],[34.5,24128],[34.5,24246]]",0,1,1,1,1,"It was just another Sunday afternoon for Lucy, she was on her way to the farmer's market to pick up some produce. When she arrived at the old train depot that housed the market, she noticed two men fighting on the steps. Before she could call for help, one of the men crumpled to his knees. The other man dropped an object that appeared to be a knife and ran off. When Lucy approached the crime scene she realized that the man who had been murdered was the Mayor and that he had a gunshot wound.","One day at work, Margaret walked up to her partner, Al, to ask him to talk to the chief of staff at the local hospital where she worked as a nurse.","Luke always thought of himself as an honest man. That's why during his evening jog around the swamp, he pondered his recent affair with the receptionist at work. Luke looked up at the sky and asked God why he was so weak and unfaithful. He thought of the impact this would have on his family and told God of his conflicted feelings toward telling his wife Marta.","Linda and Amy had been best friends since kindergarten, they even found homes on the same street in the forest on the edge of town. Their biggest fight had been over who gets the bigger slice of cake, until Amy married Dan. Linda loathed Dan, she thought he was manipulative and had a violent temper. She only put up with him because Amy loved him. ",,,,,,,,,,
,,,,,,5e63e24eaf3bd51660031dbe,2024-02-08_15h03.49.980,group3.1-3.2-social-tom,2023.2.2,Win32,8.568980291,65c5074098b851296ff0b7ed,65c54194f3faf7b0e43a6ef8,,,,,,,,,,,,,,,,,,,,,,,,,,,,,1084.2838,1,audio/Narrative7Situation9.wav,1089.3279,,,,,,,1116.047,1119.2453,69.765625,2.2992,"[{""rating"":69.765625,""responseTime"":2.2991999999881045}]",space,2.3485,,1116.0455,All the time,100,1116.0469,,,[],,,,,,,,,,,4,5,2,2,,,,,,,,,,,,,,,,,1089.328,3,1116.0453,"[[31.3,4943],[32.7,5065],[32.7,5184],[32.7,5300],[34,5414],[34,5532],[36.2,5649],[36.6,5764],[38.3,5886],[39.2,6002],[39.2,6117],[39.2,6224],[39.2,6328],[39.2,6438],[39.2,6550],[39.2,6663],[39.2,6776],[39.2,6895],[39.2,7007],[39.2,7123],[39.2,7239],[39.2,7355],[39.2,7469],[39.2,7587],[39.2,7703],[39.2,7820],[39.2,7929],[39.2,8050],[39.2,8169],[39.3,8287],[39.7,8400],[39.8,8522],[40.6,8634],[41,8752],[41,8870],[41,8985],[41,9101],[41.3,9209],[41.9,9323],[42,9434],[43.1,9549],[43.6,9667],[44.1,9787],[44.1,9891],[44.1,10007],[44.1,10127],[45.5,10239],[46.2,10355],[46.4,10469],[46.6,10584],[46.6,10689],[46.6,10798],[46.6,10908],[46.6,11019],[46.6,11130],[46.6,11248],[46.6,11369],[46.6,11490],[46.6,11612],[46.6,11728],[46.6,11845],[46.6,11957],[46.6,12073],[46.6,12187],[46.6,12300],[46.6,12414],[46.6,12532],[46.6,12636],[46.6,12755],[46.6,12864],[46.6,12984],[46.6,13095],[46.6,13211],[46.6,13322],[46.6,13438],[46.6,13562],[46.6,13678],[46.6,13793],[46.6,13905],[46.6,14019],[46.6,14134],[46.6,14252],[46.6,14355],[46.6,14474],[46.6,14585],[46.6,14692],[46.6,14805],[46.6,14920],[46.6,15037],[46.6,15150],[46.6,15266],[46.6,15381],[46.6,15491],[46.6,15602],[46.6,15724],[46.6,15835],[46.6,15952],[46.6,16069],[46.6,16185],[46.6,16300],[46.7,16413],[54.8,16542],[56.7,16654],[56.7,16771],[56.7,16880],[56.7,16984],[56.7,17099],[57.2,17218],[59.5,17330],[59.5,17450],[59.5,17565],[59.5,17677],[59.5,17787],[59.5,17908],[61.1,18019],[61.2,18138],[61.2,18256],[61.2,18369],[61.2,18487],[61.2,18610],[61.2,18716],[61.2,18828],[61.2,18941],[61.2,19052],[61.2,19164],[61.2,19268],[61.2,19378],[61.2,19491],[61.2,19607],[61.2,19725],[61.2,19835],[61.2,19949],[61.2,20064],[61.2,20174],[61.2,20282],[61.2,20393],[61.2,20507],[61.2,20627],[61.2,20744],[61.2,20859],[61.2,20970],[61.2,21079],[61.2,21198],[61.2,21306],[61.2,21427],[61.2,21546],[61.2,21657],[61.2,21769],[61.2,21884],[61.2,21996],[61.2,22113],[61.2,22223],[61.2,22335],[61.2,22445],[61.2,22557],[61.2,22666],[61.2,22769],[61.2,22883],[61.2,23005],[61.2,23120],[61.2,23226],[61.2,23342],[61.2,23453],[61.2,23563],[61.2,23671],[61.2,23783],[61.2,23892],[61.2,24005],[61.2,24116],[61.2,24220],[61.2,24332],[61.2,24444],[61.2,24571],[61.2,24682],[61.2,24795],[61.2,24912],[61.2,25030],[61.2,25142],[61.2,25251],[61.2,25361],[61.2,25476],[62,25595],[62,25713],[62,25827],[62,25944],[62,26058],[62,26170],[62,26279],[62,26384],[62,26482],[62,26593],[62,26717]]",0,2,2,2,1,On the ground beside him was a pen that she had mistaken for a knife. Lucy looked for the gunman and saw a suspicious man in black with distinct pointy features darting into an alley across the street. Cops who were nearby chased the man who had fled and arrested him.,"While waiting outside the chief of staff's office, Al heard nondescript shouting and yelling, there was a loud clatter in the room and then an eerie silence. An unfamiliar employee ran hastily out of the office with a terrified look on their face.","Suddenly, Luke heard a woman call out his name and when he turned around he saw Carly, his receptionist, across the road with a gun in her hand. Carly ran to him and explained how she had followed him here to confess her love. She exclaimed if Luke didn't love her back that she would kill him and his family. Carly explained that the only way they could be together is to kill Marta.","This feeling of hate between Amy and Dan was mutual, Dan didn't like how much time his wife spent with her and thought Amy was creating distance between their marriage. That's why Dan decided to try and tarnish Linda's reputation with his wife, in hopes it would get rid of her. He came home one afternoon and exclaimed that Linda had tried to kiss him. Amy was taken aback and immediately called Linda to confront her about these accusations. When Linda arrived she denied having made a move on Dan, but discovered Dan had enlisted the help of his friend Will who said he witnessed it all happen.",,,,,,,,,,
