exp_question,consent.started,consent.stopped,consentResponse.keys,consentResponse.rt,consentResponse.duration,participantID,date,expName,psychopyVersion,OS,frameRate,STUDY_ID,SESSION_ID,opening1.started,opening1.stopped,keyEndingOpening1.keys,keyEndingOpening1.rt,keyEndingOpening1.duration,volumeAdjust.started,volumeAdjust.stopped,endingAdjust.keys,endingAdjust.rt,endingAdjust.duration,opening2.started,opening2.stopped,keyEndingOpening.keys,keyEndingOpening.rt,keyEndingOpening.duration,mouse.x,mouse.y,mouse.leftButton,mouse.midButton,mouse.rightButton,mouse.time,instructionLoop.thisRepN,instructionLoop.thisTrialN,instructionLoop.thisN,instructionLoop.thisIndex,instructionLoop.ran,readyForAudio.started,readyForAudio.stopped,fixation.started,run,audio_played,fixation.stopped,endPractice.keys,audioPre.started,audioPre.stopped,continuousResponses_audio,continuousSlider.response,continuousSlider.rt,intRating.started,intRating.stopped,intQuestionSlider.response,intQuestionSlider.rt,intQuestionSlider.history,confirmResponse.keys,confirmResponse.rt,confirmResponse.duration,catchQuestion.started,catch_label,catch_value,catchQuestion.stopped,catchQuestionSlider.response,catchQuestionSlider.rt,catchQuestionSlider.history,confirmResponse_2.keys,confirmResponse_2.rt,confirmResponse_2.duration,audioRunLoop.thisRepN,audioRunLoop.thisTrialN,audioRunLoop.thisN,audioRunLoop.thisIndex,audioRunLoop.ran,conditions1_1,conditions2_1,conditions1_2,conditions2_2,dur1_1,dur2_1,dur1_2,dur2_2,endPractice.rt,endPractice.duration,runIntervalBreak.started,runIntervalBreak.stopped,endingBreakKey.keys,endingBreakKey.rt,endingBreakKey.duration,connection.started,connection.stopped,connectionEnding.keys,connectionEnding.rt,connectionEnding.duration,readyForText.started,readyForText.stopped,textPre.started,run_dup,textPre.stopped,continuousResponses_text,textRunLoop.thisRepN,textRunLoop.thisTrialN,textRunLoop.thisN,textRunLoop.thisIndex,textRunLoop.ran,text1_1,text1_2,text2_1,text2_2,runBreakText.started,runBreakText.stopped,endingBreakKey_2.keys,endingBreakKey_2.rt,endingBreakKey_2.duration,ending.started,ending.stopped,endingEnding.keys,endingEnding.rt,endingEnding.duration
social,0.001,6.6713,y,6.358,,5ec802e542730c299fbbafef,2024-05-14_12h47.21.372,group3.1-3.2-social-tom,2023.2.2,Win32,60.24096386,65c5074098b851296ff0b7ed,6643a358e3884190c97be8e4,,,,,,,,,,,,,,,,,,,,,,,,,,,,,,,,,,,,,,,,,,,,,,,,,,,,,,,,,,,,,,,,,,,,,,,,,,,,,,,,,,,,,,,,,,,,,,,,,,,,,,,,,,
,,,,,,5ec802e542730c299fbbafef,2024-05-14_12h47.21.372,group3.1-3.2-social-tom,2023.2.2,Win32,60.24096386,65c5074098b851296ff0b7ed,6643a358e3884190c97be8e4,6.6718,11.4426,space,4.7285,,,,,,,,,,,,,,,,,,,,,,,,,,,,,,,,,,,,,,,,,,,,,,,,,,,,,,,,,,,,,,,,,,,,,,,,,,,,,,,,,,,,,,,,,,,,,,,,,,,,,,
,,,,,,5ec802e542730c299fbbafef,2024-05-14_12h47.21.372,group3.1-3.2-social-tom,2023.2.2,Win32,60.24096386,65c5074098b851296ff0b7ed,6643a358e3884190c97be8e4,,,,,,11.4428,23.5259,space,11.7549,,,,,,,,,,,,,,,,,,,,,,,,,,,,,,,,,,,,,,,,,,,,,,,,,,,,,,,,,,,,,,,,,,,,,,,,,,,,,,,,,,,,,,,,,,,,,,,,,
,,,,,,5ec802e542730c299fbbafef,2024-05-14_12h47.21.372,group3.1-3.2-social-tom,2023.2.2,Win32,60.24096386,65c5074098b851296ff0b7ed,6643a358e3884190c97be8e4,,,,,,,,,,,23.5531,36.1423,space,12.5589,,[],[],[],[],[],[],0,0,0,0,1,,,,,,,,,,,,,,,,,,,,,,,,,,,,,,,,,,,,,,,,,,,,,,,,,,,,,,,,,,,,,,,,,,,,,,,,,,,,,,,,
,,,,,,5ec802e542730c299fbbafef,2024-05-14_12h47.21.372,group3.1-3.2-social-tom,2023.2.2,Win32,60.24096386,65c5074098b851296ff0b7ed,6643a358e3884190c97be8e4,,,,,,,,,,,36.1602,48.6581,space,12.4018,,[],[],[],[],[],[],1,0,1,0,1,,,,,,,,,,,,,,,,,,,,,,,,,,,,,,,,,,,,,,,,,,,,,,,,,,,,,,,,,,,,,,,,,,,,,,,,,,,,,,,,
,,,,,,5ec802e542730c299fbbafef,2024-05-14_12h47.21.372,group3.1-3.2-social-tom,2023.2.2,Win32,60.24096386,65c5074098b851296ff0b7ed,6643a358e3884190c97be8e4,,,,,,,,,,,48.6763,72.7086,space,23.9944,,[],[],[],[],[],[],2,0,2,0,1,,,,,,,,,,,,,,,,,,,,,,,,,,,,,,,,,,,,,,,,,,,,,,,,,,,,,,,,,,,,,,,,,,,,,,,,,,,,,,,,
,,,,,,5ec802e542730c299fbbafef,2024-05-14_12h47.21.372,group3.1-3.2-social-tom,2023.2.2,Win32,60.24096386,65c5074098b851296ff0b7ed,6643a358e3884190c97be8e4,,,,,,,,,,,72.7258,104.7581,space,32.0098,,[],[],[],[],[],[],3,0,3,0,1,,,,,,,,,,,,,,,,,,,,,,,,,,,,,,,,,,,,,,,,,,,,,,,,,,,,,,,,,,,,,,,,,,,,,,,,,,,,,,,,
,,,,,,5ec802e542730c299fbbafef,2024-05-14_12h47.21.372,group3.1-3.2-social-tom,2023.2.2,Win32,60.24096386,65c5074098b851296ff0b7ed,6643a358e3884190c97be8e4,,,,,,,,,,,104.7763,119.9917,space,15.186,,[],[],[],[],[],[],4,0,4,0,1,,,,,,,,,,,,,,,,,,,,,,,,,,,,,,,,,,,,,,,,,,,,,,,,,,,,,,,,,,,,,,,,,,,,,,,,,,,,,,,,
,,,,,,5ec802e542730c299fbbafef,2024-05-14_12h47.21.372,group3.1-3.2-social-tom,2023.2.2,Win32,60.24096386,65c5074098b851296ff0b7ed,6643a358e3884190c97be8e4,,,,,,,,,,,,,,,,,,,,,,,,,,,120.0121,122.5915,122.6314,1,audio/Narrative13Situation2.wav,124.6416,,124.6419,154.3923,"[[999,1],[999,115],[999,199],[999,282],[999,365],[999,449],[999,532],[999,615],[999,699],[999,782],[999,865],[999,949],[999,1032],[999,1115],[999,1199],[999,1282],[999,1365],[999,1449],[999,1532],[999,1615],[999,1699],[999,1782],[999,1866],[999,1949],[999,2032],[999,2115],[999,2199],[999,2282],[999,2366],[999,2449],[999,2532],[999,2615],[999,2699],[999,2782],[999,2866],[999,2949],[999,3032],[999,3115],[999,3199],[999,3282],[999,3366],[999,3449],[999,3532],[999,3615],[999,3699],[999,3782],[999,3865],[999,3949],[999,4032],[999,4115],[999,4199],[999,4282],[999,4366],[999,4449],[999,4532],[999,4615],[999,4699],[999,4782],[999,4865],[999,4949],[999,5032],[999,5116],[999,5199],[999,5282],[999,5365],[999,5449],[999,5532],[999,5615],[999,5699],[999,5782],[999,5865],[999,5949],[999,6032],[999,6115],[999,6199],[999,6282],[999,6365],[999,6449],[999,6532],[999,6616],[999,6699],[999,6782],[999,6866],[999,6949],[999,7032],[999,7115],[999,7199],[999,7282],[999,7365],[999,7449],[999,7532],[999,7615],[999,7699],[999,7782],[999,7865],[999,7949],[999,8032],[999,8116],[999,8199],[999,8282],[999,8365],[999,8449],[999,8532],[999,8615],[999,8699],[999,8782],[999,8866],[999,8949],[999,9032],[999,9115],[999,9199],[999,9282],[999,9365],[999,9449],[999,9532],[999,9615],[999,9699],[999,9782],[999,9865],[999,9949],[999,10032],[999,10115],[999,10199],[999,10282],[999,10365],[999,10449],[999,10532],[999,10615],[999,10699],[999,10782],[999,10865],[999,10949],[999,11032],[999,11115],[999,11199],[999,11282],[999,11365],[999,11449],[999,11532],[999,11616],[999,11699],[999,11782],[999,11866],[999,11949],[999,12032],[999,12116],[999,12199],[999,12282],[999,12366],[999,12449],[999,12532],[999,12615],[999,12699],[999,12782],[999,12865],[999,12949],[999,13032],[999,13116],[999,13199],[999,13282],[999,13366],[999,13449],[999,13532],[999,13616],[999,13699],[999,13782],[999,13866],[999,13949],[999,14032],[999,14116],[999,14199],[999,14282],[999,14365],[999,14449],[999,14532],[999,14615],[999,14699],[999,14782],[999,14866],[999,14949],[999,15032],[999,15116],[999,15199],[999,15282],[999,15366],[999,15449],[999,15532],[999,15616],[999,15699],[999,15782],[999,15866],[999,15949],[999,16033],[999,16116],[999,16200],[999,16283],[100,16366],[100,16450],[100,16533],[100,16616],[100,16699],[100,16782],[100,16866],[100,16949],[100,17032],[100,17116],[100,17199],[100,17282],[100,17366],[100,17449],[100,17532],[100,17616],[100,17699],[100,17782],[100,17866],[100,17949],[100,18032],[100,18116],[100,18199],[100,18282],[100,18365],[100,18449],[100,18532],[100,18616],[100,18699],[100,18782],[100,18866],[100,18949],[100,19032],[100,19116],[100,19199],[100,19282],[100,19366],[100,19449],[100,19532],[100,19616],[100,19699],[100,19782],[100,19866],[100,19949],[100,20032],[100,20116],[100,20199],[100,20282],[100,20366],[100,20449],[100,20532],[100,20616],[100,20699],[100,20782],[100,20866],[100,20949],[100,21032],[100,21116],[100,21199],[100,21282],[100,21366],[100,21449],[100,21532],[100,21616],[100,21699],[100,21782],[100,21866],[100,21949],[100,22032],[100,22116],[100,22199],[100,22282],[100,22366],[99.9,22449],[76.6,22533],[68.4,22616],[62.8,22700],[53.2,22783],[51.3,22866],[51,22949],[49.9,23033],[49.9,23116],[49.9,23199],[50,23283],[50,23366],[50,23449],[50.1,23532],[50.3,23616],[50.3,23699],[50.3,23782],[50.3,23866],[50.3,23949],[50.3,24032],[50.3,24116],[50.3,24199],[50.3,24282],[50.3,24365],[50.4,24449],[50.5,24532],[50.5,24615],[50.5,24699],[50.5,24782],[50.5,24865],[50.5,24949],[50.5,25032],[50.6,25115],[50.6,25199],[50.6,25282],[50.6,25366],[50.6,25449],[50.5,25532],[50.5,25616],[50.5,25699],[50.5,25782],[50.9,25866],[50.9,25949],[50.9,26032],[51.1,26116],[51.1,26199],[51.1,26282],[51.1,26366],[51.1,26449],[51.1,26532],[51.1,26616],[51.1,26699],[51.1,26782],[51.1,26866],[51.1,26949],[51.1,27032],[51.1,27116],[51.1,27199],[51.1,27282],[51.1,27366],[51.1,27449],[51.1,27532],[51.1,27616],[51.5,27700],[54.8,27783],[60.1,27866],[62.7,27950],[63.6,28032],[63.6,28115],[63.6,28199],[63.6,28282],[63.6,28366],[63.6,28449],[63.6,28532],[63.6,28616],[63.6,28699],[63.6,28782],[63.6,28866],[63.6,28949],[63.6,29032],[63.6,29116],[63.6,29199],[63.6,29283],[63.6,29366],[63.6,29449],[63.6,29532],[63.6,29616],[63.6,29699]]",1,0,154.3927,161.2101,69.58333333,4.4407,"[{""rating"":69.58333333333333,""responseTime"":4.440699999988055}]",space,6.2755,,161.2105,Partially,50,171.0431,49.58333333,3.8465,"[{""rating"":49.583333333333336,""responseTime"":3.846499999999992}]",space,9.2843,,0,0,0,0,1,audio/Narrative13Situation2.wav,audio/Narrative13Situation2.wav,audio/Narrative13Situation2.wav,audio/Narrative13Situation2.wav,2,2,2,2,,,,,,,,,,,,,,,,,,,,,,,,,,,,,,,,,,,,,
,,,,,,5ec802e542730c299fbbafef,2024-05-14_12h47.21.372,group3.1-3.2-social-tom,2023.2.2,Win32,60.24096386,65c5074098b851296ff0b7ed,6643a358e3884190c97be8e4,,,,,,,,,,,,,,,,,,,,,,,,,,,,,171.0603,1,audio/Narrative8Situation1.wav,173.3084,space,173.3086,189.2251,"[[52.4,166],[52.2,250],[52.2,332],[52.2,416],[52.2,499],[52.2,582],[52.2,666],[52.2,749],[52.1,832],[52,917],[51.8,1000],[51.3,1084],[50.7,1167],[50.6,1249],[50.6,1332],[50.6,1416],[50.6,1500],[50.8,1582],[50.8,1666],[50.4,1750],[50,1833],[50,1916],[50,1999],[50,2083],[50,2166],[50.1,2249],[50.3,2332],[50.3,2416],[50.3,2499],[50.4,2583],[50.4,2666],[50.4,2749],[50.4,2832],[50.4,2916],[50.4,2999],[50.4,3082],[50.4,3166],[50.4,3249],[50.4,3332],[50.4,3416],[50.4,3499],[50.4,3582],[50.4,3666],[50.4,3749],[50.4,3832],[50.4,3916],[50.4,3999],[50.4,4082],[50.4,4166],[50.4,4249],[50.4,4332],[50.4,4416],[50.4,4499],[50.5,4582],[50.5,4666],[50.5,4749],[50.5,4832],[50.5,4916],[50.5,4999],[50.5,5082],[50.5,5166],[50.5,5249],[50.5,5332],[50.5,5416],[50.5,5499],[50.5,5582],[50.5,5667],[50.5,5749],[50.5,5832],[50.5,5916],[50.5,5999],[50.5,6082],[50.5,6166],[50.5,6250],[50.5,6332],[50.5,6416],[50.5,6499],[50.5,6582],[50.5,6666],[50.5,6749],[50.5,6832],[50.5,6916],[50.5,6999],[50.5,7082],[50.5,7166],[50.5,7249],[50.5,7332],[50.5,7416],[50.5,7499],[50.5,7582],[50.5,7666],[50.5,7749],[50.5,7832],[50.5,7916],[50.5,7999],[50.5,8082],[50.5,8166],[50.5,8249],[50.5,8332],[50.5,8416],[50.5,8499],[50.5,8582],[50.5,8666],[50.5,8749],[50.5,8832],[50.5,8916],[50.5,8999],[50.5,9082],[50.5,9166],[50.5,9249],[50.5,9332],[50.5,9416],[50.5,9499],[50.5,9582],[50.5,9666],[50.6,9749],[50.6,9832],[50.6,9916],[50.6,9999],[50.6,10082],[50.6,10166],[50.6,10249],[51.6,10333],[62.1,10417],[71.1,10500],[80.6,10583],[84.6,10667],[88.5,10750],[91.8,10833],[97.3,10917],[99.7,11000],[100,11084],[100,11166],[100,11249],[100,11333],[100,11416],[100,11499],[100,11582],[100,11666],[100,11749],[100,11832],[100,11916],[100,12000],[100,12082],[100,12166],[100,12249],[100,12332],[100,12416],[100,12499],[100,12582],[100,12666],[100,12749],[100,12832],[100,12916],[100,12999],[100,13082],[100,13166],[100,13249],[100,13333],[100,13416],[100,13499],[100,13582],[100,13666],[99.9,13754],[99.9,13832],[99.9,13916],[99.7,13999],[99.7,14082],[99.7,14166],[99.7,14249],[99.7,14333],[99.7,14416],[99.7,14499],[99.7,14582],[99.7,14666],[99.7,14749],[99.7,14832],[99.7,14916],[99.7,14999],[99.7,15082],[99.7,15166],[99.6,15249],[99.6,15332],[99.5,15416],[99.5,15499],[99.5,15582],[99.5,15666],[99.5,15749],[99.3,15832],[99.3,15916]]",1,0,189.2255,195.8252,99.6875,3.9357,"[{""rating"":99.6875,""responseTime"":3.9357000000476887}]",space,6.0505,,195.8253,Not at all,0,195.8323,,,[],,,,0,1,1,1,1,audio/Narrative7Situation1.wav,audio/Narrative8Situation1.wav,audio/Narrative5Situation1.wav,audio/Narrative6Situation1.wav,2,5,5,2,2.2283,,,,,,,,,,,,,,,,,,,,,,,,,,,,,,,,,,,,
,,,,,,5ec802e542730c299fbbafef,2024-05-14_12h47.21.372,group3.1-3.2-social-tom,2023.2.2,Win32,60.24096386,65c5074098b851296ff0b7ed,6643a358e3884190c97be8e4,,,,,,,,,,,,,,,,,,,,,,,,,,,,,195.8327,1,audio/Narrative8Situation2.wav,198.8425,,198.8425,208.9751,"[[999,17],[999,83],[999,166],[999,249],[999,332],[999,416],[999,499],[999,582],[999,665],[999,749],[999,832],[999,915],[999,999],[999,1082],[999,1165],[999,1249],[999,1332],[999,1415],[999,1499],[999,1582],[999,1665],[999,1749],[999,1832],[49.2,1916],[47.4,2000],[47.4,2082],[48.3,2166],[48.8,2249],[49.2,2333],[49.6,2415],[49.7,2499],[49.7,2582],[49.7,2665],[49.7,2749],[49.7,2832],[49.7,2915],[49.7,2999],[49.7,3082],[49.7,3165],[49.7,3249],[43.2,3333],[16,3416],[9.8,3500],[5.3,3583],[1.9,3667],[1.1,3749],[0.7,3833],[0.2,3915],[0.1,3999],[0.1,4082],[0.1,4165],[0.1,4249],[0.1,4332],[0.1,4415],[0.1,4499],[0.1,4582],[0.5,4666],[0.9,4749],[1.1,4832],[1.1,4915],[1.1,4999],[1.1,5082],[1.1,5165],[1.1,5248],[1.1,5332],[1,5416],[1,5499],[1,5582],[1,5665],[1,5749],[1,5832],[1,5915],[1,5999],[1,6082],[1,6165],[1,6248],[1.1,6332],[1.1,6415],[1.1,6499],[1.1,6582],[1.1,6665],[1.1,6749],[1.1,6832],[1.1,6915],[1.1,6999],[1.1,7082],[1.3,7166],[1.6,7249],[1.8,7333],[1.8,7415],[1.8,7499],[1.8,7582],[1.8,7665],[1.8,7749],[1.8,7832],[1.8,7915],[1.8,7999],[1.8,8082],[1.8,8165],[1.8,8249],[1.8,8332],[1.8,8415],[1.8,8499],[1.8,8582],[1.8,8665],[1.8,8749],[1.8,8832],[1.8,8915],[1.8,8999],[1.8,9082],[1.9,9165],[1.9,9249],[1.9,9332],[1.9,9415],[1.9,9499],[1.9,9582],[1.3,9666],[1.1,9749],[1.1,9832],[0.8,9915],[0.7,9999],[0.6,10082]]",1,0,208.9751,214.3417,0.208333333,1.2023,"[{""rating"":0.2083333333333326,""responseTime"":1.2023000000119737}]",space,4.8271,,214.3417,Definitely yes,100,214.3536,,,[],,,,0,2,2,2,1,audio/Narrative7Situation2.wav,audio/Narrative8Situation2.wav,audio/Narrative5Situation2.wav,audio/Narrative6Situation2.wav,3,3,3,3,,,,,,,,,,,,,,,,,,,,,,,,,,,,,,,,,,,,,
,,,,,,5ec802e542730c299fbbafef,2024-05-14_12h47.21.372,group3.1-3.2-social-tom,2023.2.2,Win32,60.24096386,65c5074098b851296ff0b7ed,6643a358e3884190c97be8e4,,,,,,,,,,,,,,,,,,,,,,,,,,,,,214.3538,1,audio/Narrative8Situation3.wav,218.3584,,218.3585,240.7423,"[[8.2,1083],[8.2,1166],[8.2,1249],[8.2,1333],[8.2,1416],[8.2,1499],[8.2,1583],[8.2,1666],[8.2,1749],[8.2,1833],[8.2,1916],[8.2,1999],[8.2,2083],[8.2,2166],[8.2,2249],[8.2,2333],[8.2,2416],[8.3,2499],[8.3,2583],[8.3,2666],[8.3,2749],[8.3,2833],[8.3,2916],[8.3,2999],[8.3,3083],[8.3,3166],[8.3,3249],[8.3,3333],[8.3,3416],[8.3,3499],[8.3,3583],[8.3,3666],[8.3,3749],[8.3,3833],[8.3,3916],[8.3,3999],[8.4,4083],[8.5,4166],[8.5,4249],[8.5,4333],[8.5,4416],[8.5,4499],[8.5,4583],[8.5,4666],[8.5,4749],[8.5,4833],[8.5,4916],[8.5,4999],[8.5,5083],[8.5,5166],[8.5,5250],[8.5,5333],[8.5,5416],[8.5,5499],[8.5,5583],[8.5,5666],[8.5,5749],[8.5,5833],[8.5,5917],[8.5,5999],[8.5,6083],[8.5,6166],[8.5,6250],[8.5,6333],[8.5,6416],[8.5,6500],[8.5,6583],[8.5,6666],[8.5,6749],[8.6,6833],[8.8,6916],[8.8,6999],[8.8,7083],[8.8,7166],[8.8,7249],[8.8,7333],[8.8,7416],[8.8,7500],[8.8,7583],[8.8,7666],[8.8,7749],[8.8,7833],[8.8,7916],[8.8,7999],[8.8,8083],[8.8,8166],[8.8,8250],[8.8,8333],[8.8,8416],[8.8,8500],[8.8,8583],[8.8,8666],[8.8,8750],[8.8,8833],[8.8,8916],[8.8,9000],[8.8,9083],[8.8,9166],[8.8,9249],[8.8,9333],[8.8,9416],[8.8,9499],[8.8,9583],[8.8,9666],[8.8,9749],[8.8,9833],[8.8,9916],[8.8,9999],[8.8,10083],[8.8,10166],[8.8,10249],[8.8,10333],[8.8,10416],[8.8,10499],[8.8,10583],[8.8,10666],[8.8,10749],[8.8,10833],[8.8,10916],[8.8,10999],[8.8,11083],[8.8,11166],[8.8,11249],[8.8,11333],[8.8,11416],[8.8,11499],[8.8,11583],[8.8,11666],[8.8,11749],[8.8,11833],[8.8,11916],[8.8,11999],[8.8,12083],[8.8,12166],[8.8,12249],[8.8,12333],[8.8,12416],[8.8,12499],[8.8,12583],[8.8,12666],[10.3,12750],[100,13167],[100,13250],[100,13333],[100,13416],[99.8,13499],[99.7,13583],[99.7,13666],[99.7,13750],[99.7,13833],[99.7,13916],[99.7,14000],[99.8,14084],[100,14167],[100,14250],[100,14333],[100,14416],[100,14500],[100,14583],[100,14666],[100,14750],[100,14833],[100,14916],[100,15000],[100,15083],[100,15166],[100,15250],[100,15333],[100,15416],[100,15500],[100,15583],[100,15666],[100,15750],[100,15833],[100,15916],[100,16000],[100,16083],[100,16166],[100,16250],[100,16333],[100,16416],[100,16500],[100,16583],[100,16666],[100,16750],[100,16833],[100,16916],[100,16999],[100,17083],[100,17166],[100,17250],[100,17333],[100,17416],[100,17500],[100,17583],[100,17666],[100,17750],[100,17833],[100,17916],[100,18000],[100,18083],[100,18166],[100,18250],[100,18333],[100,18416],[100,18500],[100,18583],[100,18666],[100,18749],[100,18833],[100,18916],[100,19000],[100,19083],[100,19166],[100,19250],[100,19333],[100,19416],[100,19500],[100,19583],[100,19666],[100,19750],[100,19834],[100,19916],[100,20000],[100,20083],[100,20166],[100,20250],[100,20333],[100,20416],[100,20500],[100,20583],[100,20666],[100,20751],[100,20833],[100,20916],[100,20999],[100,21083],[100,21166],[100,21250],[100,21333],[100,21416],[100,21500],[100,21583],[100,21666],[100,21750],[100,21833],[100,21916],[100,22000],[100,22083],[100,22166],[100,22250],[100,22333]]",1,0,240.7426,244.5921,99.375,1.2628,"[{""rating"":99.375,""responseTime"":1.262800000012021}]",space,3.3022,,244.5922,Definitely yes,100,244.5956,,,[],,,,0,3,3,3,1,audio/Narrative7Situation3.wav,audio/Narrative8Situation3.wav,audio/Narrative5Situation3.wav,audio/Narrative6Situation3.wav,8,4,3,5,,,,,,,,,,,,,,,,,,,,,,,,,,,,,,,,,,,,,
,,,,,,5ec802e542730c299fbbafef,2024-05-14_12h47.21.372,group3.1-3.2-social-tom,2023.2.2,Win32,60.24096386,65c5074098b851296ff0b7ed,6643a358e3884190c97be8e4,,,,,,,,,,,,,,,,,,,,,,,,,,,,,244.596,1,audio/Narrative8Situation4.wav,247.609,,247.6091,261.7923,"[[97.9,5082],[97.9,5166],[97.9,5249],[97.9,5332],[97.9,5416],[97.9,5499],[97.9,5582],[97.9,5666],[97.9,5749],[97.9,5832],[97.9,5916],[97.9,5999],[97.9,6082],[97.9,6166],[97.9,6249],[97.9,6332],[97.9,6416],[97.9,6499],[97.9,6582],[97.9,6666],[97.9,6749],[97.9,6832],[97.9,6916],[97.9,6999],[97.9,7082],[97.9,7166],[97.9,7249],[97.9,7332],[97.9,7416],[97.9,7499],[98.2,7583],[98.4,7666],[98.9,7749],[99.3,7833],[99.4,7916],[99.5,7999],[99.5,8084],[99.5,8167],[99.4,8250],[99.4,8332],[99.4,8416],[99.4,8499],[99.4,8582],[99.4,8666],[99.4,8750],[99.4,8832],[99.4,8916],[99.4,8999],[99.4,9082],[99.4,9166],[99.4,9249],[99.4,9332],[99.4,9416],[99.4,9499],[99.4,9582],[99.4,9666],[99.4,9749],[99.4,9832],[99.4,9916],[99.4,9999],[99.4,10082],[99.4,10166],[99.4,10249],[99.4,10332],[99.4,10416],[99.4,10499],[99.4,10582],[99.4,10666],[99.4,10749],[99.4,10832],[99.4,10916],[99.4,10999],[99.4,11082],[99.4,11166],[99.4,11249],[99.4,11332],[99.4,11416],[99.4,11499],[99.4,11582],[99.4,11666],[99.4,11749],[99.4,11832],[99.4,11916],[99.4,11999],[99.4,12082],[99.4,12166],[99.4,12249],[99.4,12332],[99.4,12416],[99.4,12499],[99.4,12582],[99.4,12666],[99.4,12749],[99.4,12832],[99.4,12916],[99.4,12999],[99.4,13082],[99.4,13166],[99.4,13249],[99.4,13332],[99.4,13416],[99.4,13499],[99.4,13582],[99.4,13666],[99.4,13749],[99.4,13832],[99.4,13916],[99.4,13999],[99.4,14083],[99.3,14166]]",1,0,261.7925,264.2923,99.58333333,1.5692,"[{""rating"":99.58333333333333,""responseTime"":1.5691999999880863}]",space,1.9614,,264.2924,Definitely yes,100,270.2756,100,5.4694,"[{""rating"":99.0625,""responseTime"":2.571400000035851},{""rating"":100,""responseTime"":4.027300000012019},{""rating"":100,""responseTime"":5.469400000035762}]",space,5.4451,,0,4,4,4,1,audio/Narrative7Situation4.wav,audio/Narrative8Situation4.wav,audio/Narrative5Situation4.wav,audio/Narrative6Situation4.wav,3,3,1,2,,,,,,,,,,,,,,,,,,,,,,,,,,,,,,,,,,,,,
,,,,,,5ec802e542730c299fbbafef,2024-05-14_12h47.21.372,group3.1-3.2-social-tom,2023.2.2,Win32,60.24096386,65c5074098b851296ff0b7ed,6643a358e3884190c97be8e4,,,,,,,,,,,,,,,,,,,,,,,,,,,,,270.2763,1,audio/Narrative8Situation5.wav,272.2923,,272.2924,280.5424,"[[100,4338],[100,4416],[100,4500],[100,4583],[100,4666],[100,4749],[100,4833],[100,4916],[100,4999],[100,5083],[100,5166],[100,5249],[100,5333],[100,5416],[100,5500],[100,5583],[100,5666],[100,5749],[100,5833],[100,5917],[100,5999],[100,6083],[100,6166],[100,6249],[100,6333],[100,6416],[100,6499],[100,6583],[100,6666],[100,6749],[100,6833],[100,6916],[100,6999],[100,7083],[100,7166],[100,7249],[100,7333],[100,7416],[100,7499],[100,7583],[100,7666],[100,7749],[100,7833],[100,7916],[100,7999],[100,8083],[100,8166],[100,8249]]",1,0,280.5426,282.1093,99.6875,0.9287,"[{""rating"":99.6875,""responseTime"":0.9287000000476837}]",space,1.023,,282.1095,Partially,50,282.1152,,,[],,,,0,5,5,5,1,audio/Narrative7Situation5.wav,audio/Narrative8Situation5.wav,audio/Narrative5Situation5.wav,audio/Narrative6Situation5.wav,5,2,5,2,,,,,,,,,,,,,,,,,,,,,,,,,,,,,,,,,,,,,
,,,,,,5ec802e542730c299fbbafef,2024-05-14_12h47.21.372,group3.1-3.2-social-tom,2023.2.2,Win32,60.24096386,65c5074098b851296ff0b7ed,6643a358e3884190c97be8e4,,,,,,,,,,,,,,,,,,,,,,,,,,,,,282.1156,1,audio/Narrative8Situation6.wav,284.1256,,284.1257,290.6092,"[[98.9,2584],[98.9,2666],[99,2749],[99.3,2833],[99.4,2916],[99.4,2999],[99.4,3083],[99.4,3166],[99.4,3249],[99.4,3333],[99.4,3416],[99.4,3499],[99.7,3584],[100,3667],[100,3750],[100,3833],[100,3917],[100,3999],[100,4083],[100,4166],[100,4249],[100,4333],[100,4416],[100,4499],[100,4583],[100,4666],[100,4749],[100,4833],[100,4916],[100,4999],[100,5083],[100,5166],[100,5249],[100,5333],[100,5416],[100,5499],[100,5582],[100,5666],[100,5749],[100,5833],[100,5916],[100,5999],[100,6083],[100,6166],[100,6249],[100,6332],[100,6416]]",1,0,290.6095,292.3095,99.89583333,0.9421,"[{""rating"":99.89583333333334,""responseTime"":0.9421000000238564}]",space,1.1687,,292.3096,Not at all,0,292.3151,,,[],,,,0,6,6,6,1,audio/Narrative7Situation6.wav,audio/Narrative8Situation6.wav,audio/Narrative5Situation6.wav,audio/Narrative6Situation6.wav,3,2,3,2,,,,,,,,,,,,,,,,,,,,,,,,,,,,,,,,,,,,,
,,,,,,5ec802e542730c299fbbafef,2024-05-14_12h47.21.372,group3.1-3.2-social-tom,2023.2.2,Win32,60.24096386,65c5074098b851296ff0b7ed,6643a358e3884190c97be8e4,,,,,,,,,,,,,,,,,,,,,,,,,,,,,292.3153,1,audio/Narrative8Situation7.wav,295.3258,,295.3258,307.4258,"[[99.6,1500],[99.5,1583],[99.5,1666],[99.2,1749],[99.2,1833],[99.2,1916],[99.2,1999],[99.2,2083],[99.2,2166],[99.4,2249],[100,2334],[100,2417],[100,2499],[100,2583],[100,2666],[100,2749],[100,2833],[100,2916],[100,2999],[100,3083],[100,3166],[100,3249],[100,3333],[100,3416],[100,3499],[100,3583],[100,3666],[100,3749],[100,3833],[100,3916],[100,3999],[100,4084],[100,4166],[100,4249],[100,4333],[100,4416],[100,4499],[100,4584],[100,4666],[100,4749],[100,4833],[100,4916],[100,4999],[100,5083],[100,5166],[100,5249],[100,5333],[100,5416],[100,5499],[100,5583],[100,5666],[100,5749],[100,5833],[100,5916],[100,5999],[100,6083],[100,6166],[100,6249],[100,6333],[100,6416],[100,6499],[100,6583],[100,6666],[100,6749],[100,6833],[100,6916],[100,6999],[100,7083],[100,7166],[100,7249],[100,7333],[100,7416],[100,7499],[100,7583],[100,7666],[100,7749],[100,7833],[100,7916],[100,7999],[100,8083],[100,8166],[100,8249],[100,8333],[100,8416],[100,8499],[100,8583],[100,8666],[100,8749],[100,8833],[100,8916],[100,8999],[100,9083],[100,9166],[100,9249],[100,9333],[100,9416],[100,9499],[100,9583],[100,9666],[100,9750],[100,9833],[100,9916],[100,9999],[100,10083],[100,10166],[100,10249],[100,10333],[100,10416],[100,10499],[100,10583],[100,10666],[100,10749],[100,10833],[100,10916],[100,10999],[100,11083],[100,11166],[100,11249],[100,11333],[100,11416],[100,11499],[100,11583],[100,11666],[100,11749],[100,11833],[100,11916],[100,12000],[100,12083]]",1,0,307.4259,308.9928,99.89583333,0.8137,"[{""rating"":99.89583333333334,""responseTime"":0.8136999999881027}]",space,1.0337,,308.993,Not at all,0,308.9967,,,[],,,,0,7,7,7,1,audio/Narrative7Situation7.wav,audio/Narrative8Situation7.wav,audio/Narrative5Situation7.wav,audio/Narrative6Situation7.wav,5,3,4,5,,,,,,,,,,,,,,,,,,,,,,,,,,,,,,,,,,,,,
,,,,,,5ec802e542730c299fbbafef,2024-05-14_12h47.21.372,group3.1-3.2-social-tom,2023.2.2,Win32,60.24096386,65c5074098b851296ff0b7ed,6643a358e3884190c97be8e4,,,,,,,,,,,,,,,,,,,,,,,,,,,,,308.9971,1,audio/Narrative8Situation8.wav,312.0091,,312.0092,324.876,"[[100,9004],[100,9083],[100,9166],[100,9249],[100,9333],[100,9416],[100,9500],[100,9583],[100,9666],[100,9750],[100,9833],[100,9916],[100,10000],[100,10083],[100,10166],[100,10250],[100,10333],[100,10416],[100,10500],[100,10583],[100,10666],[100,10749],[100,10833],[100,10916],[100,11000],[100,11083],[100,11166],[100,11249],[100,11333],[100,11416],[100,11500],[100,11583],[100,11666],[100,11750],[100,11833],[100,11916],[100,11999],[100,12083],[100,12166],[100,12249],[100,12333],[100,12416],[100,12499],[100,12583],[100,12666],[100,12749],[100,12833]]",1,0,324.876,339.6092,49.79166667,14.4047,"[{""rating"":51.45833333333333,""responseTime"":1.37110000002383},{""rating"":49.6875,""responseTime"":2.5392000000476855},{""rating"":0.1041666666666663,""responseTime"":10.039600000023825},{""rating"":26.666666666666668,""responseTime"":11.643100000023878},{""rating"":0,""responseTime"":12.659100000023841},{""rating"":49.791666666666664,""responseTime"":14.404700000047683}]",space,14.1893,,339.6093,Definitely yes,100,339.6124,,,[],,,,0,8,8,8,1,audio/Narrative7Situation8.wav,audio/Narrative8Situation8.wav,audio/Narrative5Situation8.wav,audio/Narrative6Situation8.wav,2,3,3,5,,,,,,,,,,,,,,,,,,,,,,,,,,,,,,,,,,,,,
,,,,,,5ec802e542730c299fbbafef,2024-05-14_12h47.21.372,group3.1-3.2-social-tom,2023.2.2,Win32,60.24096386,65c5074098b851296ff0b7ed,6643a358e3884190c97be8e4,,,,,,,,,,,,,,,,,,,,,,,,,,,,,339.6126,1,audio/Narrative8Situation9.wav,342.6261,,342.6263,353.9597,"[[50.2,333],[50.2,416],[50.2,499],[50.2,582],[50.2,666],[50.2,749],[50.2,833],[50.2,916],[50.2,999],[50.2,1083],[50.2,1166],[50.2,1249],[50.2,1332],[50.2,1416],[50.2,1499],[50.2,1583],[50.2,1666],[50.2,1749],[50.2,1832],[50.2,1916],[50.2,1999],[50.5,5000],[50.5,5083],[50.5,5166],[50.5,5249],[50.5,5333],[50.5,5416],[50.5,5499],[50.5,5582],[50.5,5666],[50.5,5750],[50.5,5833],[50.5,5916],[50.5,5999],[50.5,6083],[50.5,6166],[50.5,6250],[50.5,6333],[50.5,6416],[50.5,6499],[50.5,6583],[50.6,6666],[50.6,6749],[50.6,6833],[50.6,6916],[50.6,6999],[50.6,7083],[50.6,7166],[50.6,7249],[50.6,7333],[50.6,7416],[50.6,7499],[50.6,7584],[50.6,7666],[50.6,7749],[50.6,7833],[50.6,7916],[50.6,7999],[50.6,8082],[50.6,8166],[50.6,8249],[50.6,8333],[50.6,8416],[50.6,8499],[50.6,8583],[50.6,8666],[50.6,8749],[50.6,8833],[50.6,8916],[50.7,9000],[50.7,9082],[50.8,9166],[50.8,9249],[50.8,9333],[50.8,9416],[50.8,9499],[50.8,9583],[50.8,9666],[50.8,9749],[50.8,9833],[50.8,9916],[50.8,9999],[50.8,10083],[50.8,10166],[50.8,10249],[50.8,10333],[50.8,10416],[50.8,10499],[50.8,10583],[50.8,10666],[50.8,10749],[50.8,10833],[50.8,10916],[50.8,10999],[50.8,11083],[50.8,11166],[50.8,11249],[50.8,11333]]",1,0,353.9598,357.0262,99.6875,2.3429,"[{""rating"":50.83333333333333,""responseTime"":0.22300000000007003},{""rating"":99.6875,""responseTime"":2.3429000000357973}]",space,2.5213,,357.0263,Definitely yes,100,357.0288,,,[],,,,0,9,9,9,1,audio/Narrative7Situation9.wav,audio/Narrative8Situation9.wav,audio/Narrative5Situation9.wav,audio/Narrative6Situation9.wav,2,3,3,4,,,,,,,,,,,,,,,,,,,,,,,,,,,,,,,,,,,,,
,,,,,,5ec802e542730c299fbbafef,2024-05-14_12h47.21.372,group3.1-3.2-social-tom,2023.2.2,Win32,60.24096386,65c5074098b851296ff0b7ed,6643a358e3884190c97be8e4,,,,,,,,,,,,,,,,,,,,,,,,,,,,,357.0291,1,audio/Narrative7Situation1.wav,359.0429,,359.0429,414.9435,"[[98.9,23917],[98.8,24000],[98.5,24083],[98.5,24166],[98.5,24250],[98.4,24333],[98.4,24416],[98.4,24500],[98.4,24583],[98.4,24666],[98.4,24750],[98.4,24833],[98.4,24916],[98.4,24999],[98.4,25083],[98.4,25166],[98.4,25250],[98.4,25333],[98.4,25416],[98.4,25500],[98.4,25583],[98.4,25666],[98.4,25750],[98.4,25833],[98.4,25916],[98.4,25999],[98.4,26083],[98.4,26166],[98.4,26250],[98.4,26333],[98.4,26416],[98.4,26500],[98.4,26583],[98.4,26666],[98.4,26750],[98.4,26833],[98.4,26916],[98.4,27000],[98.4,27083],[98.4,27166],[98.4,27250],[98.4,27333],[98.4,27416],[98.3,27500],[98.3,27583],[98.3,27666],[98.3,27750],[98.3,27833],[98.3,27916],[98.3,28000],[98.3,28083],[98.3,28166],[98.3,28250],[98.3,28333],[98.3,28416],[98.3,28500],[98.3,28583],[98.3,28666],[98.3,28750],[98.3,28833],[98.3,28916],[98.3,29000],[98.3,29083],[98.3,29166],[98.3,29250],[98.3,29333],[98.3,29416],[98.3,29500],[98.3,29583],[98.3,29666],[98.3,29750],[98.3,29833],[98.3,29916],[98.3,30000],[98.3,30083],[98.3,30166],[98.3,30250],[98.3,30333],[98.3,30416],[98.3,30500],[98.3,30583],[98.3,30666],[98.3,30750],[98.3,30833],[98.3,30916],[98.3,30999],[98.3,31083],[98.3,31166],[98.3,31250],[98.3,31333],[98.3,31416],[98.3,31500],[98.3,31583],[98.3,31666],[98.3,31750],[98.3,31833],[98.3,31916],[98.3,32000],[98.3,32083],[98.3,32166],[98.3,32250],[98.3,32333],[98.3,32416],[98.3,32500],[98.3,32583],[98.3,32666],[98.3,32750],[98.3,32833],[97.4,32917],[97,33000],[97,33084],[97,33166],[97,33250],[97,33333],[97,33416],[97,33500],[97,33583],[97,33666],[97,33750],[97,33833],[97,33916],[97,34000],[97,34083],[97,34166],[97,34250],[97,34333],[97,34416],[97,34500],[97,34583],[97,34666],[97,34750],[97,34833],[97,34916],[97,35000],[97,35083],[97,35166],[97,35250],[97,35333],[97,35416],[97,35500],[97,35583],[97,35666],[97,35750],[97,35833],[97,35917],[97,36000],[97,36083],[97,36166],[97,36250],[97,36333],[97,36416],[97,36500],[97,36583],[97,36666],[97,36750],[97,36833],[97,36916],[97,37000],[97,37083],[97,37166],[97,37250],[97,37333],[97,37416],[97,37500],[97,37583],[97,37666],[97,37750],[97,37833],[97,37916],[97,38000],[97,38083],[97,38166],[97,38250],[97,38333],[97,38416],[97,38500],[97,38583],[97,38666],[97,38750],[97,38833],[97,38916],[97,39000],[97,39083],[97,39166],[97,39250],[97,39333],[97,39416],[97,39500],[97,39583],[97,39666],[97,39750],[97,39833],[97,39916],[97,39999],[97,40083],[97,40166],[97,40250],[97,40333],[97,40416],[97,40500],[97,40583],[97,40666],[97,40750],[97,40833],[97,40916],[97,41000],[97,41083],[97,41166],[97,41250],[97,41333],[97,41416],[97,41500],[97,41583],[97,41666],[97,41750],[97,41833],[97,41916],[97,42000],[97,42083],[97,42166],[97,42250],[97,42333],[97,42417],[97,42500],[97,42583],[97,42666],[97,42750],[97,42833],[97,42916],[97,43000],[97,43083],[97,43166],[97,43250],[97,43333],[97,43417],[97,43500],[97,43583],[97,43667],[97,43750],[97,43833],[97,43916],[97,44000],[97,44083],[97,44167],[97,44250],[97,44333],[97,44416],[97,44500],[97,44583],[97,44666],[97,44750],[97,44833],[97,44916],[97,45000],[97,45083],[97,45166],[97,45250],[97,45333],[97,45416],[97,45500],[97,45583],[97,45666],[97,45750],[97,45833],[97,45916],[97,46000],[97,46083],[97,46166],[97,46250],[97,46333],[97,46416],[97,46500],[97,46583],[97,46666],[97,46750],[97,46833],[97,46916],[97,47000],[97,47083],[97,47166],[97,47250],[97,47333],[97,47416],[97,47500],[97,47583],[97,47666],[97,47750],[97,47833],[97,47917],[97,48000],[97,48083],[97,48166],[97,48250],[97,48333],[97,48416],[97,48500],[97,48583],[97,48666],[97,48750],[97,48833],[97,48917],[97,49000],[97,49083],[97,49166],[97,49250],[97,49333],[97,49416],[97,49500],[97,49583],[97,49666],[97,49750],[97,49833],[97,49916],[97,50000],[97,50083],[97,50166],[97,50250],[97,50333],[97,50416],[97,50500],[97,50583],[97,50667],[97,50750],[97,50833],[97,50916],[97,51000],[97,51083],[97,51167],[97,51250],[97,51333],[97,51416],[97,51500],[97,51583],[97,51666],[97,51750],[97,51833],[97,51916],[97,52000],[97,52083],[97,52166],[97,52250],[97,52333],[97,52416],[97,52500],[97,52583],[97,52667],[97,52750],[97,52833],[97,52916],[97,53000],[97,53083],[97,53166],[97,53250],[97,53333],[97,53416],[97,53500],[97,53583],[97,53666],[97,53750],[97,53833],[97,53916],[97,54000],[97,54083],[97,54166],[97,54250],[97,54333],[97,54416],[97,54500],[97,54583],[97,54667],[97,54750],[97,54833],[97,54916],[97,55000],[97,55083],[97,55167],[97,55250],[97,55333],[97,55416],[97,55500],[97,55583],[97,55667],[97,55750],[97,55833]]",1,0,414.9439,417.0435,99.6875,0.951,"[{""rating"":99.6875,""responseTime"":0.9510000000000218}]",space,1.5619,,417.0437,Partially,50,417.052,,,[],,,,0,10,10,10,1,audio/Narrative8Situation1.wav,audio/Narrative7Situation1.wav,audio/Narrative6Situation1.wav,audio/Narrative5Situation1.wav,5,2,2,5,,,,,,,,,,,,,,,,,,,,,,,,,,,,,,,,,,,,,
,,,,,,5ec802e542730c299fbbafef,2024-05-14_12h47.21.372,group3.1-3.2-social-tom,2023.2.2,Win32,60.24096386,65c5074098b851296ff0b7ed,6643a358e3884190c97be8e4,,,,,,,,,,,,,,,,,,,,,,,,,,,,,417.0525,1,audio/Narrative7Situation2.wav,420.06,,420.06,427.5435,"[[999,0],[999,83],[999,166],[999,249],[999,333],[999,416],[999,499],[999,583],[999,667],[999,750],[999,833],[999,916],[999,999],[999,1083],[999,1166],[999,1249],[999,1333],[999,1416],[999,1499],[999,1583],[999,1666],[999,1749],[999,1833],[999,1916],[999,1999],[999,2083],[999,2166],[999,2250],[999,2333],[999,2416],[999,2499],[999,2583],[999,2666],[999,2749],[999,2833],[999,2916],[999,2999],[999,3083],[999,3166],[999,3250],[999,3333],[999,3416],[999,3499],[999,3583],[999,3666],[999,3750],[999,3833],[999,3916],[999,3999],[999,4083],[999,4166],[999,4250],[999,4333],[999,4416],[999,4500],[999,4583],[999,4666],[999,4750],[999,4833],[999,4916],[999,4999],[999,5083],[999,5166],[999,5249],[999,5333],[999,5416],[999,5500],[999,5583],[999,5666],[999,5749],[999,5833],[999,5916],[999,5999],[999,6083],[999,6166],[999,6250],[999,6333],[999,6416],[999,6500],[999,6583],[999,6666],[999,6749],[999,6833],[999,6916],[999,6999],[999,7083],[999,7166],[999,7249],[999,7333],[999,7416]]",1,0,427.5437,429.9767,99.89583333,1.936,"[{""rating"":99.89583333333334,""responseTime"":1.9360000000000355}]",space,1.9048,,429.9768,Definitely yes,100,429.9833,,,[],,,,0,11,11,11,1,audio/Narrative8Situation2.wav,audio/Narrative7Situation2.wav,audio/Narrative6Situation2.wav,audio/Narrative5Situation2.wav,3,3,3,3,,,,,,,,,,,,,,,,,,,,,,,,,,,,,,,,,,,,,
,,,,,,5ec802e542730c299fbbafef,2024-05-14_12h47.21.372,group3.1-3.2-social-tom,2023.2.2,Win32,60.24096386,65c5074098b851296ff0b7ed,6643a358e3884190c97be8e4,,,,,,,,,,,,,,,,,,,,,,,,,,,,,429.9837,1,audio/Narrative7Situation3.wav,437.9935,,437.9935,447.2603,[],1,0,447.2605,454.7444,49.89583333,6.4082,"[{""rating"":49.895833333333336,""responseTime"":6.408199999988142}]",space,6.9394,,454.7445,Not at all,0,454.7499,,,[],,,,0,12,12,12,1,audio/Narrative8Situation3.wav,audio/Narrative7Situation3.wav,audio/Narrative6Situation3.wav,audio/Narrative5Situation3.wav,4,8,5,3,,,,,,,,,,,,,,,,,,,,,,,,,,,,,,,,,,,,,
,,,,,,5ec802e542730c299fbbafef,2024-05-14_12h47.21.372,group3.1-3.2-social-tom,2023.2.2,Win32,60.24096386,65c5074098b851296ff0b7ed,6643a358e3884190c97be8e4,,,,,,,,,,,,,,,,,,,,,,,,,,,,,454.7503,1,audio/Narrative7Situation4.wav,457.7603,,457.7603,469.4937,"[[3.1,10416],[0.1,11083],[1.3,11166],[1.3,11250],[1.3,11333],[1.3,11416],[0.8,11500],[0.6,11583],[0.4,11666]]",1,0,469.494,470.6606,0.3125,0.2158,"[{""rating"":0.3124999999999989,""responseTime"":0.21580000001188182}]",space,0.6268,,470.6607,Definitely yes,100,470.6663,,,[],,,,0,13,13,13,1,audio/Narrative8Situation4.wav,audio/Narrative7Situation4.wav,audio/Narrative6Situation4.wav,audio/Narrative5Situation4.wav,3,3,2,1,,,,,,,,,,,,,,,,,,,,,,,,,,,,,,,,,,,,,
,,,,,,5ec802e542730c299fbbafef,2024-05-14_12h47.21.372,group3.1-3.2-social-tom,2023.2.2,Win32,60.24096386,65c5074098b851296ff0b7ed,6643a358e3884190c97be8e4,,,,,,,,,,,,,,,,,,,,,,,,,,,,,470.6667,1,audio/Narrative7Situation5.wav,475.6774,,475.6775,484.1773,"[[14.4,1083],[14.4,1166],[14.4,1249],[14.4,1333],[14.4,1416],[14.4,1499],[14.4,1582],[14.4,1666],[14.5,1749],[14.5,1832],[14.5,1916],[14.5,1999],[14.5,2082],[14.5,2166],[14.5,2250],[14.5,2332],[14.5,2416],[14.6,2499],[14.6,2582],[14.6,2666],[14.6,2749],[14.6,2832],[14.6,2916],[14.6,2999],[14.6,3082],[14.6,3166],[14.6,3249],[14.6,3332],[14.6,3416],[14.6,3499],[14.6,3582],[14.6,3666],[14.6,3749],[14.6,3832],[14.6,3916],[14.6,3999],[14.6,4082],[14.6,4166],[14.6,4249],[14.6,4332],[14.6,4416],[14.6,4499],[14.6,4582],[14.6,4666],[14.6,4749],[14.6,4832],[14.6,4918],[14.6,4999],[14.6,5082],[14.6,5166],[14.6,5249],[14.6,5332],[14.6,5416],[14.6,5499],[14.6,5582],[14.6,5666],[14.6,5749],[14.6,5832],[14.6,5916],[14.6,5999],[14.6,6082],[14.6,6166],[14.6,6249],[14.6,6332],[14.6,6416],[14.6,6499],[14.6,6582],[14.6,6666],[14.6,6749],[14.6,6832],[14.6,6916],[14.6,6999],[14.6,7082],[14.6,7166],[14.6,7249],[14.6,7332],[14.6,7416],[14.6,7499],[14.6,7582],[14.6,7666],[14.6,7749],[14.6,7832],[14.6,7916],[14.6,7999],[14.6,8082],[14.6,8166],[14.6,8249],[14.6,8332],[14.6,8416],[14.6,8499]]",1,0,484.1774,489.8273,0.9375,4.5958,"[{""rating"":0.9375000000000022,""responseTime"":4.595800000011877}]",space,5.0991,,489.8273,Definitely yes,100,489.8309,,,[],,,,0,14,14,14,1,audio/Narrative8Situation5.wav,audio/Narrative7Situation5.wav,audio/Narrative6Situation5.wav,audio/Narrative5Situation5.wav,2,5,2,5,,,,,,,,,,,,,,,,,,,,,,,,,,,,,,,,,,,,,
,,,,,,5ec802e542730c299fbbafef,2024-05-14_12h47.21.372,group3.1-3.2-social-tom,2023.2.2,Win32,60.24096386,65c5074098b851296ff0b7ed,6643a358e3884190c97be8e4,,,,,,,,,,,,,,,,,,,,,,,,,,,,,489.8312,1,audio/Narrative7Situation6.wav,492.8439,,492.8439,502.8272,[],1,0,502.8273,505.8774,99.375,2.3214,"[{""rating"":99.375,""responseTime"":2.3213999999760517}]",space,2.5177,,505.8775,Definitely yes,100,505.8805,,,[],,,,0,15,15,15,1,audio/Narrative8Situation6.wav,audio/Narrative7Situation6.wav,audio/Narrative6Situation6.wav,audio/Narrative5Situation6.wav,2,3,2,3,,,,,,,,,,,,,,,,,,,,,,,,,,,,,,,,,,,,,
,,,,,,5ec802e542730c299fbbafef,2024-05-14_12h47.21.372,group3.1-3.2-social-tom,2023.2.2,Win32,60.24096386,65c5074098b851296ff0b7ed,6643a358e3884190c97be8e4,,,,,,,,,,,,,,,,,,,,,,,,,,,,,505.8808,1,audio/Narrative7Situation7.wav,510.894,,510.8941,528.0609,[],1,0,528.061,536.4441,99.58333333,7.5746,"[{""rating"":99.58333333333333,""responseTime"":7.574599999964221}]",space,7.8417,,536.4441,Definitely yes,100,536.4461,,,[],,,,0,16,16,16,1,audio/Narrative8Situation7.wav,audio/Narrative7Situation7.wav,audio/Narrative6Situation7.wav,audio/Narrative5Situation7.wav,3,5,5,4,,,,,,,,,,,,,,,,,,,,,,,,,,,,,,,,,,,,,
,,,,,,5ec802e542730c299fbbafef,2024-05-14_12h47.21.372,group3.1-3.2-social-tom,2023.2.2,Win32,60.24096386,65c5074098b851296ff0b7ed,6643a358e3884190c97be8e4,,,,,,,,,,,,,,,,,,,,,,,,,,,,,536.4464,1,audio/Narrative7Situation8.wav,538.4616,,538.4617,548.4944,"[[999,0],[999,82],[999,166],[999,249],[5.7,1000],[6.5,1082],[6.5,1165],[6.5,1249],[6.5,1332],[6.5,1415],[6.5,1499],[6.5,1582],[6.5,1665],[6.5,1749],[6.5,1832],[6.5,1915],[6.5,1999],[6.5,2082],[6.5,2165],[6.5,2249],[6.5,2332],[6.5,2415],[6.5,2499],[6.5,2582],[6.5,2665],[6.5,2749],[6.5,2832],[6.5,2915],[6.5,2999],[6.5,3082],[6.5,3165],[6.5,3249],[6.5,3332],[6.5,3415],[6.5,3499],[6.5,3582],[6.5,3665],[6.5,3749],[6.5,3832],[6.5,3915],[6.5,3999],[6.5,4082],[6.5,4165],[6.5,4249],[6.5,4332],[6.5,4415],[6.5,4499],[6.5,4582],[6.5,4665],[6.5,4749],[6.5,4832],[6.5,4915],[6.5,4999],[6.5,5082],[6.5,5165],[6.5,5249],[6.5,5332],[6.5,5415],[6.5,5499],[6.5,5582],[6.5,5665],[6.5,5749],[6.5,5832],[6.5,5915],[6.5,5999],[6.5,6082],[6.5,6165],[6.5,6249],[6.5,6332],[6.5,6415],[6.5,6499],[6.5,6582],[6.5,6665],[6.5,6749],[6.5,6832],[6.5,6915],[6.5,6999],[6.5,7082],[6.5,7165],[6.5,7249],[6.5,7332],[6.5,7415],[6.5,7499],[6.5,7582],[6.5,7665],[6.5,7749],[6.5,7832],[6.5,7915],[6.5,7999],[6.5,8082],[6.5,8165],[6.5,8249],[6.5,8332],[6.5,8415],[6.5,8499],[6.5,8582],[6.5,8666],[6.5,8749],[6.5,8832],[6.5,8915],[6.5,8999],[6.5,9082],[6.5,9165],[6.5,9249],[6.5,9332],[6.5,9415],[6.5,9499],[6.5,9582],[6.5,9665],[6.5,9749],[6.5,9832],[6.5,9915],[6.5,9999]]",1,0,548.4946,551.261,49.89583333,1.9577,"[{""rating"":49.895833333333336,""responseTime"":1.9576999999881082}]",space,2.2173,,551.2611,Definitely yes,100,551.2643,,,[],,,,0,17,17,17,1,audio/Narrative8Situation8.wav,audio/Narrative7Situation8.wav,audio/Narrative6Situation8.wav,audio/Narrative5Situation8.wav,3,2,5,3,,,,,,,,,,,,,,,,,,,,,,,,,,,,,,,,,,,,,
,,,,,,5ec802e542730c299fbbafef,2024-05-14_12h47.21.372,group3.1-3.2-social-tom,2023.2.2,Win32,60.24096386,65c5074098b851296ff0b7ed,6643a358e3884190c97be8e4,,,,,,,,,,,,,,,,,,,,,,,,,,,,,551.2647,1,audio/Narrative7Situation9.wav,553.2781,,553.2784,561.9125,"[[48.4,8499]]",1,0,561.9127,563.8445,99.89583333,1.0922,"[{""rating"":99.89583333333334,""responseTime"":1.0921999999879972}]",space,1.3837,,563.8445,Not at all,0,563.8504,,,[],,,,0,18,18,18,1,audio/Narrative8Situation9.wav,audio/Narrative7Situation9.wav,audio/Narrative6Situation9.wav,audio/Narrative5Situation9.wav,3,2,4,3,,,,,,,,,,,,,,,,,,,,,,,,,,,,,,,,,,,,,
,,,,,,5ec802e542730c299fbbafef,2024-05-14_12h47.21.372,group3.1-3.2-social-tom,2023.2.2,Win32,60.24096386,65c5074098b851296ff0b7ed,6643a358e3884190c97be8e4,,,,,,,,,,,,,,,,,,,,,,,,,,,571.8964,574.4623,574.4855,2,audio/Narrative13Situation2.wav,574.4856,,574.4856,604.2281,[],1,0,604.2282,604.2488,,,[],,,,604.2489,Partially,50,604.2527,,,[],,,,0,0,0,0,1,audio/Narrative13Situation2.wav,audio/Narrative13Situation2.wav,audio/Narrative13Situation2.wav,audio/Narrative13Situation2.wav,2,2,2,2,,,563.8517,571.8794,space,7.4998,,,,,,,,,,,,,,,,,,,,,,,,,,,,,,,
,,,,,,5ec802e542730c299fbbafef,2024-05-14_12h47.21.372,group3.1-3.2-social-tom,2023.2.2,Win32,60.24096386,65c5074098b851296ff0b7ed,6643a358e3884190c97be8e4,,,,,,,,,,,,,,,,,,,,,,,,,,,,,604.2528,2,audio/Narrative6Situation1.wav,606.2612,,606.2613,632.8282,"[[77.6,752],[64.8,835],[58,918],[58,1000],[44.1,1084],[27.6,1166],[28.9,1250],[33.8,1334],[41.8,1417],[49.6,1501],[50.3,1583],[50.7,1667],[52.2,1750],[52.2,1833],[52.2,1916],[51.7,2000],[49.9,2083],[49.6,2166],[49.6,2250],[49.6,2333],[49.6,2416],[49.6,2500],[49.8,2584],[49.8,2666],[49.8,2750],[49.8,2833],[49.8,2917],[49.8,3000],[49.8,3083],[49.8,3166],[49.8,3250],[49.8,3333],[49.8,3416],[49.8,3500],[49.8,3583],[49.8,3666],[49.8,3750],[49.8,3833],[49.8,3916],[49.8,4000],[49.8,4083],[49.8,4166],[49.8,4251],[49.8,4333],[49.8,4416],[49.8,4500],[49.8,4583],[49.8,4666],[49.8,4750],[49.8,4833],[49.9,4916],[49.8,5000],[49.4,5085],[49,5167],[44.4,5251],[38.5,5334],[38,5417],[70.2,5500],[87.9,5584],[89.3,5667],[97,5751],[100,5833],[100,5917],[100,6001],[100,6084],[100,6168],[100,6250],[100,6333],[100,6417],[100,6500],[100,6583],[100,6666],[100,6750],[100,6833],[100,6916],[100,7000],[100,7083],[100,7166],[100,7250],[100,7333],[99.9,7417],[99.9,7500],[99.8,7583],[99.8,7666],[99.8,7750],[99.8,7833],[99.8,7916],[99.8,8000],[99.8,8083],[99.8,8167],[99.8,8250],[100,8333],[100,8417],[100,8500],[100,8583],[100,8666],[100,8750],[100,8833],[100,8916],[100,9000],[100,9083],[100,9166],[100,9250],[100,9333],[100,9416],[100,9500],[100,9584],[100,9667],[100,9750],[100,9833],[100,9917],[100,10000],[100,10083],[100,10166],[100,10250],[100,10333],[100,10416],[100,10500],[100,10583],[100,10667],[100,10750],[100,10833],[100,10916],[100,11000],[100,11083],[100,11166],[100,11250],[100,11333],[100,11416],[100,11500],[100,11584],[100,11666],[100,11750],[100,11834],[100,11917],[100,12000],[100,12083],[100,12166],[100,12250],[100,12334],[100,12417],[100,12500],[100,12583],[100,12666],[100,12750],[100,12833],[100,12917],[100,13000],[100,13083],[100,13166],[100,13250],[100,13333],[97.6,13417],[86.4,13500],[74.3,13584],[70.6,13667],[68.1,13751],[62.8,13834],[56.4,13917],[53.9,14001],[52.7,14084],[52.4,14168],[51.9,14250],[51.5,14335],[51.3,14416],[51.3,14500],[51.3,14583],[51.3,14666],[51.3,14750],[51.3,14833],[51.1,14916],[51.6,15000],[51.9,15084],[52.2,15167],[52.9,15251],[54.2,15335],[60.5,15417],[68.5,15500],[76.5,15584],[84.5,15667],[92.3,15751],[96.9,15834],[97.6,15917],[98.1,16000],[98.4,16083],[98.4,16167],[98.4,16250],[98.5,16333],[98.9,16417],[99.3,16501],[99.4,16583],[99.5,16667],[99.5,16750],[99.5,16833],[99.5,16917],[99.5,17000],[99.5,17083],[99.5,17167],[99.5,17250],[99.5,17333],[99.5,17417],[99.5,17500],[99.5,17583],[99.5,17667],[99.5,17750],[99.5,17833],[99.5,17916],[99.5,18000],[99.5,18083],[99.5,18167],[99.5,18250],[99.5,18333],[99.5,18416],[99.5,18500],[99.5,18583],[99.5,18666],[99.5,18750],[99.5,18833],[99.5,18916],[99.5,19000],[99.5,19084],[99.5,19167],[99.5,19250],[99.5,19333],[99.5,19416],[99.5,19500],[99.5,19583],[99.5,19666],[99.5,19750],[99.5,19833],[99.5,19916],[99.5,20000],[99.5,20083],[99.5,20167],[99.5,20250],[99.5,20333],[99.5,20417],[99.5,20500],[99.5,20584],[99.5,20667],[99.5,20750],[99.5,20833],[99.5,20917],[99.5,21000],[99.5,21083],[99.5,21166],[99.5,21250],[99.5,21333],[99.5,21417],[99.5,21500],[99.5,21583],[99.5,21666],[99.5,21750],[99.5,21833],[99.5,21917],[99.5,22000],[99.5,22083],[99.5,22166],[99.5,22250],[99.5,22333],[99.5,22417],[99.5,22500],[99.5,22583],[99.5,22667],[99.5,22750],[99.5,22833],[99.5,22917],[99.5,23000],[99.5,23083],[99.5,23167],[99.5,23250],[99.5,23333],[99.5,23417],[99.5,23500],[99.5,23583],[99.5,23666],[99.5,23750],[99.5,23833],[99.5,23916],[99.5,24000],[99.5,24083],[99.5,24167],[99.5,24250],[99.5,24333],[99.5,24417],[99.5,24500],[99.5,24583],[99.5,24667],[99.4,24751],[99.4,24833],[99.4,24917],[99.4,25000],[99.4,25083],[99.4,25167],[99.4,25250],[99.4,25333],[99.4,25416],[99.4,25500],[99.4,25584],[99.4,25666],[99.4,25750],[99.4,25833],[99.4,25916],[99.4,26000],[99.4,26083],[99.4,26166],[99.4,26250],[99.4,26333],[99.4,26416],[99.4,26500]]",1,0,632.8284,638.9119,99.375,3.6717,"[{""rating"":99.375,""responseTime"":3.67169999998805}]",space,5.5456,,638.912,Not at all,0,638.9174,,,[],,,,0,1,1,1,1,audio/Narrative7Situation1.wav,audio/Narrative8Situation1.wav,audio/Narrative5Situation1.wav,audio/Narrative6Situation1.wav,2,5,5,2,,,,,,,,,,,,,,,,,,,,,,,,,,,,,,,,,,,,,
,,,,,,5ec802e542730c299fbbafef,2024-05-14_12h47.21.372,group3.1-3.2-social-tom,2023.2.2,Win32,60.24096386,65c5074098b851296ff0b7ed,6643a358e3884190c97be8e4,,,,,,,,,,,,,,,,,,,,,,,,,,,,,638.9178,2,audio/Narrative6Situation2.wav,641.9286,,641.9286,670.4455,"[[57.7,1250],[46.8,1333],[46.6,1416],[46.6,1499],[46.6,1583],[46.9,1667],[49,1750],[49.6,1834],[49.7,1916],[49.7,1999],[50,2083],[50.1,2166],[50.1,2249],[50.1,2333],[50.1,2416],[50.3,2499],[50.3,2583],[50.3,2666],[50.3,2749],[50.3,2833],[50.3,2916],[50.3,2999],[50.3,3082],[50.3,3166],[50.3,3249],[50.3,3333],[50.3,3416],[50.3,3499],[50.3,3583],[26.8,3667],[1.4,3749],[1.3,3833],[0.8,3917],[0.2,4416],[0.2,4499],[0.2,4583],[0.2,4666],[0.2,4749],[0.2,4833],[8.9,4917],[24,5001],[27.4,5084],[29.1,5167],[33,5250],[39.7,5334],[43.5,5417],[45.7,5500],[47.6,5584],[49,5666],[49.4,5750],[49.8,5833],[49.9,5916],[49.9,5999],[49.9,6083],[49.9,6166],[49.9,6250],[49.9,6333],[49.9,6416],[49.9,6499],[49.9,6583],[49.9,6666],[49.9,6749],[49.9,6833],[61,6917],[82.5,7000],[88.2,7084],[96.5,7167],[98.3,7251],[99.7,7333],[100,7417],[100,7499],[100,7583],[100,7666],[100,7749],[100,7833],[100,7916],[100,7999],[100,8083],[100,8166],[100,8249],[100,8333],[100,8416],[100,8499],[100,8583],[100,8666],[100,8749],[100,8833],[100,8916],[100,8999],[100,9083],[100,9166],[100,9249],[100,9333],[100,9416],[100,9499],[100,9583],[100,9666],[100,9749],[100,9833],[100,9916],[100,9999],[100,10083],[100,10166],[100,10249],[100,10333],[100,10416],[100,10500],[100,10583],[100,10666],[100,10749],[100,10833],[100,10916],[100,10999],[100,11083],[100,11167],[100,11250],[100,11333],[100,11416],[100,11499],[100,11583],[100,11666],[100,11749],[100,11833],[100,11916],[100,11999],[100,12083],[100,12166],[100,12249],[100,12333],[100,12416],[100,12500],[100,12583],[100,12666],[100,12749],[100,12833],[100,12916],[100,12999],[100,13083],[100,13166],[100,13249],[100,13333],[100,13416],[100,13499],[100,13583],[100,13666],[100,13749],[100,13833],[100,13916],[100,14000],[100,14083],[100,14166],[100,14249],[100,14333],[100,14416],[100,14499],[100,14583],[100,14666],[100,14749],[100,14833],[100,14916],[100,14999],[100,15083],[100,15166],[100,15250],[100,15333],[100,15416],[100,15500],[100,15583],[100,15666],[100,15749],[100,15833],[100,15916],[100,16000],[100,16083],[100,16166],[100,16249],[100,16333],[100,16416],[100,16499],[100,16583],[100,16666],[100,16750],[100,16833],[100,16916],[100,17000],[100,17083],[100,17166],[100,17250],[100,17333],[100,17416],[100,17499],[100,17583],[100,17666],[100,17749],[100,17833],[100,17916],[100,17999],[100,18083],[100,18166],[100,18250],[100,18333],[100,18417],[100,18499],[100,18583],[100,18666],[100,18750],[100,18833],[100,18917],[100,18999],[100,19083],[100,19166],[100,19249],[100,19333],[100,19416],[100,19500],[100,19583],[100,19667],[100,19750],[100,19833],[100,19917],[100,20000],[100,20083],[100,20166],[100,20249],[100,20333],[100,20416],[100,20500],[100,20583],[100,20666],[100,20749],[100,20833],[100,20916],[100,20999],[100,21083],[100,21166],[100,21249],[100,21333],[100,21416],[100,21499],[100,21583],[100,21666],[100,21750],[100,21833],[100,21916],[100,22000],[100,22083],[100,22166],[100,22250],[100,22333],[100,22416],[100,22500],[100,22583],[100,22666],[100,22749],[100,22833],[100,22916],[100,23000],[100,23083],[100,23166],[100,23249],[100,23333],[100,23416],[100,23499],[100,23583],[100,23666],[100,23749],[100,23833],[100,23916],[100,23999],[100,24083],[100,24166],[100,24249],[100,24333],[100,24416],[100,24500],[100,24583],[100,24666],[100,24750],[100,24833],[100,24916],[100,24999],[100,25083],[100,25166],[100,25250],[100,25333],[100,25416],[100,25500],[100,25583],[100,25666],[100,25750],[100,25833],[100,25916],[100,25999],[100,26083],[100,26166],[100,26249],[100,26333],[100,26416],[100,26500],[100,26583],[100,26667],[100,26750],[100,26833],[100,26916],[100,27000],[100,27083],[100,27166],[100,27250],[100,27333],[100,27416],[100,27499],[100,27583],[100,27666],[100,27750],[100,27833],[100,27916],[100,28000],[100,28083],[100,28166],[100,28250],[100,28333],[100,28416],[100,28500]]",1,0,670.4458,673.0455,99.58333333,1.1651,"[{""rating"":99.58333333333333,""responseTime"":1.1650999999642409}]",space,2.0671,,673.0456,Not at all,0,673.0485,,,[],,,,0,2,2,2,1,audio/Narrative7Situation2.wav,audio/Narrative8Situation2.wav,audio/Narrative5Situation2.wav,audio/Narrative6Situation2.wav,3,3,3,3,,,,,,,,,,,,,,,,,,,,,,,,,,,,,,,,,,,,,
,,,,,,5ec802e542730c299fbbafef,2024-05-14_12h47.21.372,group3.1-3.2-social-tom,2023.2.2,Win32,60.24096386,65c5074098b851296ff0b7ed,6643a358e3884190c97be8e4,,,,,,,,,,,,,,,,,,,,,,,,,,,,,673.049,2,audio/Narrative6Situation3.wav,678.0622,,678.0622,690.6791,[],1,0,690.6794,693.0293,99.47916667,1.2422,"[{""rating"":99.47916666666667,""responseTime"":1.2421999999880882}]",space,1.8065,,693.0294,Definitely yes,100,693.035,,,[],,,,0,3,3,3,1,audio/Narrative7Situation3.wav,audio/Narrative8Situation3.wav,audio/Narrative5Situation3.wav,audio/Narrative6Situation3.wav,8,4,3,5,,,,,,,,,,,,,,,,,,,,,,,,,,,,,,,,,,,,,
,,,,,,5ec802e542730c299fbbafef,2024-05-14_12h47.21.372,group3.1-3.2-social-tom,2023.2.2,Win32,60.24096386,65c5074098b851296ff0b7ed,6643a358e3884190c97be8e4,,,,,,,,,,,,,,,,,,,,,,,,,,,,,693.0353,2,audio/Narrative6Situation4.wav,695.0456,,695.0457,707.6789,"[[88,6001],[74.9,9083],[92.7,9334],[94.7,9417],[100,9500],[100,9583],[100,9667],[100,9750],[100,9834],[100,9916],[100,10000],[100,10083],[100,10166],[100,10249],[100,10333],[100,10416],[100,10499],[100,10583],[100,10666],[100,10749],[100,10833],[100,10916],[100,11000],[100,11083],[100,11167],[100,11249],[100,11333],[100,11416],[100,11499],[100,11583],[100,11666],[100,11749],[100,11833],[100,11916],[100,11999],[100,12083],[100,12166],[100,12250],[100,12333],[100,12416],[100,12501],[99.4,12583]]",1,0,707.6791,710.6961,99.6875,1.4122,"[{""rating"":99.6875,""responseTime"":1.4122000000477328}]",space,2.4701,,710.6962,Definitely yes,100,710.6997,,,[],,,,0,4,4,4,1,audio/Narrative7Situation4.wav,audio/Narrative8Situation4.wav,audio/Narrative5Situation4.wav,audio/Narrative6Situation4.wav,3,3,1,2,,,,,,,,,,,,,,,,,,,,,,,,,,,,,,,,,,,,,
,,,,,,5ec802e542730c299fbbafef,2024-05-14_12h47.21.372,group3.1-3.2-social-tom,2023.2.2,Win32,60.24096386,65c5074098b851296ff0b7ed,6643a358e3884190c97be8e4,,,,,,,,,,,,,,,,,,,,,,,,,,,,,710.7001,2,audio/Narrative6Situation5.wav,712.7124,,712.7125,720.68,"[[99.6,1166],[99.6,1249],[99.3,1334],[99.5,1417]]",1,0,720.6801,723.7956,49.79166667,2.1463,"[{""rating"":49.791666666666664,""responseTime"":2.146299999952248}]",space,2.5734,,723.7956,Partially,50,723.7989,,,[],,,,0,5,5,5,1,audio/Narrative7Situation5.wav,audio/Narrative8Situation5.wav,audio/Narrative5Situation5.wav,audio/Narrative6Situation5.wav,5,2,5,2,,,,,,,,,,,,,,,,,,,,,,,,,,,,,,,,,,,,,
,,,,,,5ec802e542730c299fbbafef,2024-05-14_12h47.21.372,group3.1-3.2-social-tom,2023.2.2,Win32,60.24096386,65c5074098b851296ff0b7ed,6643a358e3884190c97be8e4,,,,,,,,,,,,,,,,,,,,,,,,,,,,,723.7991,2,audio/Narrative6Situation6.wav,725.8124,,725.8125,736.8966,"[[999,0],[999,83],[999,166],[999,249],[999,333],[999,416],[999,499],[999,584],[999,667],[999,750],[999,833],[999,916],[999,999],[999,1083],[999,1166],[999,1250],[999,1333],[999,1416],[999,1500],[999,1583],[999,1666],[999,1749],[999,1833],[999,1916],[999,1999],[999,2083],[999,2166],[999,2249],[999,2333],[999,2416],[999,2499],[999,2583],[999,2666],[999,2749],[999,2833],[999,2916],[999,2999],[999,3083],[999,3166],[999,3249],[999,3333],[999,3416],[999,3499],[999,3583],[999,3666],[999,3749],[999,3833],[999,3916],[999,3999],[999,4083],[999,4166],[999,4250],[999,4333],[999,4416],[999,4499],[999,4583],[999,4666],[999,4750],[999,4833],[999,4916],[999,5000],[999,5083],[999,5166],[999,5250],[999,5333],[999,5416],[999,5499],[999,5583],[999,5666],[999,5749],[999,5833],[999,5917],[999,6000],[51.8,6084],[51.8,6166],[51.5,6250],[50.8,6334],[50.8,6416],[50.3,6500],[50.2,6583],[50.2,6666],[50.4,6750],[52.7,6833],[58.3,6917],[60.6,7000],[60.6,7083],[60.6,7166],[60.6,7250],[60.6,7333],[60.6,7416],[60.7,7500],[60.7,7583],[60.8,7667],[60.8,7749],[60.8,7833],[60.8,7916],[60.8,7999],[60.8,8083],[60.8,8166],[60.8,8250],[60.8,8333],[60.8,8416],[60.8,8500],[60.8,8583],[60.8,8666],[60.8,8749],[60.8,8833],[60.8,8916],[60.8,8999],[60.8,9083],[60.8,9166],[60.8,9249],[60.8,9333],[60.8,9416],[60.8,9500],[60.8,9583],[60.8,9666],[60.8,9750],[60.8,9833],[60.8,9916],[60.8,9999],[60.8,10083],[60.8,10167],[60.8,10249],[72.8,10333],[82.6,10416],[84.5,10500],[84.5,10582],[84.5,10666],[84.5,10749],[85.1,10833],[90.8,10916],[94.7,11000],[96.4,11083]]",1,0,736.8966,742.8794,50.10416667,2.1062,"[{""rating"":50.10416666666667,""responseTime"":2.106199999988121}]",space,5.4364,,742.8795,Not at all,0,742.902,,,[],,,,0,6,6,6,1,audio/Narrative7Situation6.wav,audio/Narrative8Situation6.wav,audio/Narrative5Situation6.wav,audio/Narrative6Situation6.wav,3,2,3,2,,,,,,,,,,,,,,,,,,,,,,,,,,,,,,,,,,,,,
,,,,,,5ec802e542730c299fbbafef,2024-05-14_12h47.21.372,group3.1-3.2-social-tom,2023.2.2,Win32,60.24096386,65c5074098b851296ff0b7ed,6643a358e3884190c97be8e4,,,,,,,,,,,,,,,,,,,,,,,,,,,,,742.9024,2,audio/Narrative6Situation7.wav,747.9127,,747.9128,772.7798,"[[999,17],[999,83],[999,166],[999,250],[999,333],[999,416],[999,499],[999,583],[999,667],[999,750],[999,833],[999,917],[999,999],[999,1083],[999,1166],[52.6,1250],[53.9,1333],[53.9,1416],[53.3,1500],[52,1583],[50,1667],[49.7,1749],[49.7,1833],[49.7,1916],[49.7,1999],[49.7,2082],[49.7,2166],[49.7,2249],[49.7,2332],[49.7,2416],[49.7,2499],[49.7,2582],[49.7,2666],[49.7,2749],[49.7,2833],[49.7,2916],[49.7,2999],[49.7,3083],[49.7,3166],[49.8,3250],[49.8,3332],[49.8,3416],[49.8,3500],[49.8,3582],[49.8,3666],[49.8,3749],[49.8,3832],[49.8,3916],[49.8,4000],[49.8,4083],[49.8,4166],[49.8,4249],[49.8,4333],[49.8,4416],[49.8,4500],[49.8,4583],[49.8,4666],[49.8,4749],[49.6,4833],[49.6,4916],[49.6,4999],[49.6,5082],[49.6,5166],[49.6,5249],[49.6,5333],[49.6,5416],[49.6,5499],[49.6,5582],[49.6,5666],[49.6,5749],[49.6,5832],[49.6,5916],[49.6,5999],[49.6,6082],[49.6,6166],[49.6,6249],[49.6,6333],[49.6,6416],[49.6,6499],[49.6,6582],[49.6,6666],[49.6,6749],[49.6,6833],[49.6,6916],[49.6,7000],[49.6,7083],[49.6,7166],[49.6,7249],[49.6,7333],[49.6,7416],[49.6,7499],[49.6,7583],[49.6,7666],[49.6,7749],[49.6,7833],[49.6,7916],[49.6,7999],[49.6,8083],[49.6,8166],[49.6,8249],[49.6,8333],[49.6,8416],[49.6,8499],[49.6,8583],[49.6,8666],[49.6,8750],[49.6,8833],[49.6,8916],[49.6,8999],[49.6,9083],[49.6,9166],[49.6,9249],[49.6,9333],[49.6,9416],[49.6,9499],[49.6,9583],[49.6,9666],[49.6,9749],[49.6,9833],[49.6,9916],[49.6,9999],[49.6,10083],[49.6,10166],[49.6,10249],[49.6,10332],[49.6,10416],[49.6,10500],[49.6,10583],[49.6,10666],[49.6,10749],[49.6,10833],[49.6,10916],[49.6,10999],[49.6,11083],[49.6,11166],[49.6,11249],[49.6,11333],[49.6,11416],[49.8,11500],[81.5,11583],[100,11667],[100,11751],[100,11833],[100,11917],[100,12000],[100,12083],[100,12167],[100,12250],[100,12332],[100,12416],[100,12499],[100,12583],[100,12666],[100,12749],[100,12832],[100,12916],[100,12999],[100,13083],[100,13166],[100,13249],[100,13333],[100,13416],[100,13499],[100,13583],[100,13666],[100,13749],[100,13833],[100,13916],[100,13999],[100,14083],[100,14166],[100,14249],[100,14333],[100,14416],[100,14499],[100,14583],[100,14666],[100,14750],[100,14833],[100,14916],[100,14999],[100,15082],[100,15166],[100,15249],[100,15333],[100,15416],[100,15499],[100,15583],[100,15666],[100,15749],[100,15833],[100,15916],[100,15999],[100,16083],[100,16166],[100,16250],[100,16333],[100,16416],[100,16499],[100,16583],[100,16666],[100,16749],[100,16833],[100,16916],[100,16999],[100,17083],[100,17166],[100,17249],[100,17333],[100,17416],[100,17499],[100,17583],[100,17666],[100,17749],[100,17833],[100,17916],[100,17999],[100,18083],[100,18166],[100,18249],[100,18333],[100,18416],[100,18499],[100,18583],[100,18666],[100,18750],[100,18833],[100,18916],[100,19000],[100,19083],[100,19166],[100,19249],[100,19333],[100,19416],[100,19499],[100,19583],[100,19666],[100,19749],[100,19832],[100,19916],[100,19999],[100,20082],[100,20166],[100,20249],[100,20333],[100,20416],[100,20499],[100,20583],[100,20666],[100,20749],[100,20832],[100,20916],[100,20999],[100,21082],[100,21166],[100,21249],[100,21333],[100,21416],[100,21499],[100,21583],[100,21667],[100,21749],[100,21833],[100,21916],[100,22000],[100,22083],[100,22166],[100,22249],[100,22333],[100,22416],[100,22500],[100,22583],[100,22666],[100,22749],[100,22833],[100,22916],[100,22999],[100,23084],[100,23166],[100,23249],[100,23333],[100,23416],[100,23499],[100,23583],[100,23666],[100,23750],[100,23833],[100,23916],[100,23999],[100,24083],[100,24166],[100,24250],[100,24332],[100,24416],[100,24500],[100,24583],[100,24666],[99.9,24749],[99.9,24833]]",1,0,772.78,774.5462,99.6875,0.8704,"[{""rating"":99.6875,""responseTime"":0.8703999999761436}]",space,1.2247,,774.5463,Not at all,0,774.5495,,,[],,,,0,7,7,7,1,audio/Narrative7Situation7.wav,audio/Narrative8Situation7.wav,audio/Narrative5Situation7.wav,audio/Narrative6Situation7.wav,5,3,4,5,,,,,,,,,,,,,,,,,,,,,,,,,,,,,,,,,,,,,
,,,,,,5ec802e542730c299fbbafef,2024-05-14_12h47.21.372,group3.1-3.2-social-tom,2023.2.2,Win32,60.24096386,65c5074098b851296ff0b7ed,6643a358e3884190c97be8e4,,,,,,,,,,,,,,,,,,,,,,,,,,,,,774.5499,2,audio/Narrative6Situation8.wav,779.563,,779.5631,786.4299,"[[100,667],[95.7,2250],[95.4,2333],[95.4,2416],[95.4,2499],[95.2,2583],[95.1,2666],[95.1,2749],[95.1,2832],[95.1,2916],[95.1,2999],[95.1,3082],[95.1,3166],[95.1,3249],[95.1,3333],[95.1,3416],[95.1,3499],[94.9,3583],[94.8,3666],[94.6,3750],[94.5,3833],[94.5,3916],[94.5,4000],[94.5,4082],[94.5,4166],[94.5,4249],[94.5,4333],[94.5,4416],[94.5,4499],[94.5,4582],[94.5,4666],[94.5,4749],[94.5,4833],[94.5,4916],[94.5,4999],[94.5,5083],[94.5,5166],[94.5,5249],[94.5,5333],[94.5,5416],[94.5,5499],[94.5,5583],[94.5,5667],[94.5,5749],[94.5,5833],[94.5,5916],[94.5,6000],[94.5,6083],[94.5,6166],[94.5,6249],[94.5,6333],[94.5,6416],[94.5,6499],[94.5,6583],[94.5,6666],[94.5,6750],[94.5,6833]]",1,0,786.4303,790.2794,0,2.9551,"[{""rating"":0,""responseTime"":2.9550999999642045}]",space,3.31,,790.2795,Not at all,0,790.2814,,,[],,,,0,8,8,8,1,audio/Narrative7Situation8.wav,audio/Narrative8Situation8.wav,audio/Narrative5Situation8.wav,audio/Narrative6Situation8.wav,2,3,3,5,,,,,,,,,,,,,,,,,,,,,,,,,,,,,,,,,,,,,
,,,,,,5ec802e542730c299fbbafef,2024-05-14_12h47.21.372,group3.1-3.2-social-tom,2023.2.2,Win32,60.24096386,65c5074098b851296ff0b7ed,6643a358e3884190c97be8e4,,,,,,,,,,,,,,,,,,,,,,,,,,,,,790.2816,2,audio/Narrative6Situation9.wav,794.2961,,794.2961,804.2303,[],1,0,804.2308,807.7466,0.208333333,2.5945,"[{""rating"":0.2083333333333326,""responseTime"":2.594500000000039}]",space,2.9838,,807.7468,Partially,50,807.7525,,,[],,,,0,9,9,9,1,audio/Narrative7Situation9.wav,audio/Narrative8Situation9.wav,audio/Narrative5Situation9.wav,audio/Narrative6Situation9.wav,2,3,3,4,,,,,,,,,,,,,,,,,,,,,,,,,,,,,,,,,,,,,
,,,,,,5ec802e542730c299fbbafef,2024-05-14_12h47.21.372,group3.1-3.2-social-tom,2023.2.2,Win32,60.24096386,65c5074098b851296ff0b7ed,6643a358e3884190c97be8e4,,,,,,,,,,,,,,,,,,,,,,,,,,,,,807.753,2,audio/Narrative5Situation1.wav,812.7632,,812.7633,826.0633,[],1,0,826.0636,830.58,50,3.3132,"[{""rating"":50,""responseTime"":3.313199999988001}]",space,3.9985,,830.5802,Definitely yes,100,830.5858,,,[],,,,0,10,10,10,1,audio/Narrative8Situation1.wav,audio/Narrative7Situation1.wav,audio/Narrative6Situation1.wav,audio/Narrative5Situation1.wav,5,2,2,5,,,,,,,,,,,,,,,,,,,,,,,,,,,,,,,,,,,,,
,,,,,,5ec802e542730c299fbbafef,2024-05-14_12h47.21.372,group3.1-3.2-social-tom,2023.2.2,Win32,60.24096386,65c5074098b851296ff0b7ed,6643a358e3884190c97be8e4,,,,,,,,,,,,,,,,,,,,,,,,,,,,,830.5861,2,audio/Narrative5Situation2.wav,833.5965,,833.5967,863.0472,[],1,0,863.0474,866.1632,50.10416667,2.3203,"[{""rating"":50.10416666666667,""responseTime"":2.32029999995234}]",space,2.5718,,866.1632,Definitely yes,100,866.1652,,,[],,,,0,11,11,11,1,audio/Narrative8Situation2.wav,audio/Narrative7Situation2.wav,audio/Narrative6Situation2.wav,audio/Narrative5Situation2.wav,3,3,3,3,,,,,,,,,,,,,,,,,,,,,,,,,,,,,,,,,,,,,
,,,,,,5ec802e542730c299fbbafef,2024-05-14_12h47.21.372,group3.1-3.2-social-tom,2023.2.2,Win32,60.24096386,65c5074098b851296ff0b7ed,6643a358e3884190c97be8e4,,,,,,,,,,,,,,,,,,,,,,,,,,,,,866.1654,2,audio/Narrative5Situation3.wav,869.1803,,869.1803,883.0971,[],1,0,883.0974,886.5139,99.6875,2.5023,"[{""rating"":99.6875,""responseTime"":2.502300000011928}]",space,2.8742,,886.5139,Definitely yes,100,886.5168,,,[],,,,0,12,12,12,1,audio/Narrative8Situation3.wav,audio/Narrative7Situation3.wav,audio/Narrative6Situation3.wav,audio/Narrative5Situation3.wav,4,8,5,3,,,,,,,,,,,,,,,,,,,,,,,,,,,,,,,,,,,,,
,,,,,,5ec802e542730c299fbbafef,2024-05-14_12h47.21.372,group3.1-3.2-social-tom,2023.2.2,Win32,60.24096386,65c5074098b851296ff0b7ed,6643a358e3884190c97be8e4,,,,,,,,,,,,,,,,,,,,,,,,,,,,,886.5171,2,audio/Narrative5Situation4.wav,887.5304,,887.5305,907.9143,[],1,0,907.9146,911.4474,100,2.5965,"[{""rating"":100,""responseTime"":2.596499999999992}]",space,2.9852,,911.4475,Not at all,0,922.3807,0.3125,7.5908,"[{""rating"":1.250000000000001,""responseTime"":6.599899999976174},{""rating"":0.3124999999999989,""responseTime"":7.5908000000119955}]",space,10.3869,,0,13,13,13,1,audio/Narrative8Situation4.wav,audio/Narrative7Situation4.wav,audio/Narrative6Situation4.wav,audio/Narrative5Situation4.wav,3,3,2,1,,,,,,,,,,,,,,,,,,,,,,,,,,,,,,,,,,,,,
,,,,,,5ec802e542730c299fbbafef,2024-05-14_12h47.21.372,group3.1-3.2-social-tom,2023.2.2,Win32,60.24096386,65c5074098b851296ff0b7ed,6643a358e3884190c97be8e4,,,,,,,,,,,,,,,,,,,,,,,,,,,,,922.3995,2,audio/Narrative5Situation5.wav,927.4137,,927.4137,942.831,[],1,0,942.8313,950.0809,50,2.4013,"[{""rating"":50,""responseTime"":2.401300000011929}]",space,6.7241,,950.0809,Partially,50,950.1034,,,[],,,,0,14,14,14,1,audio/Narrative8Situation5.wav,audio/Narrative7Situation5.wav,audio/Narrative6Situation5.wav,audio/Narrative5Situation5.wav,2,5,2,5,,,,,,,,,,,,,,,,,,,,,,,,,,,,,,,,,,,,,
,,,,,,5ec802e542730c299fbbafef,2024-05-14_12h47.21.372,group3.1-3.2-social-tom,2023.2.2,Win32,60.24096386,65c5074098b851296ff0b7ed,6643a358e3884190c97be8e4,,,,,,,,,,,,,,,,,,,,,,,,,,,,,950.1038,2,audio/Narrative5Situation6.wav,953.1142,,953.1143,958.7976,"[[999,17],[999,83],[999,166],[999,249],[999,333],[999,416],[999,499],[999,583],[999,667],[999,750],[999,833],[999,916],[999,999],[999,1083],[999,1166],[999,1249],[999,1333],[999,1416],[999,1499],[999,1583],[999,1666],[999,1749],[999,1833],[999,1916],[999,1999],[999,2083],[999,2167],[999,2249],[999,2333],[999,2416],[999,2499],[999,2583],[999,2666],[999,2749],[999,2833],[999,2916],[999,2999],[999,3083],[999,3166],[999,3249],[999,3333],[999,3416],[999,3499],[999,3582],[999,3666],[999,3749],[999,3833],[999,3917],[999,3999],[999,4083],[999,4166],[999,4249],[999,4333],[999,4416],[999,4499],[999,4583],[999,4666],[999,4749],[999,4833],[999,4916],[999,5000],[999,5083],[999,5166],[999,5249],[999,5333],[999,5416],[999,5499],[999,5583],[999,5666]]",1,0,958.7977,961.4314,99.6875,1.5703,"[{""rating"":99.6875,""responseTime"":1.5703000000119118}]",space,2.1016,,961.4314,Definitely yes,100,961.4369,,,[],,,,0,15,15,15,1,audio/Narrative8Situation6.wav,audio/Narrative7Situation6.wav,audio/Narrative6Situation6.wav,audio/Narrative5Situation6.wav,2,3,2,3,,,,,,,,,,,,,,,,,,,,,,,,,,,,,,,,,,,,,
,,,,,,5ec802e542730c299fbbafef,2024-05-14_12h47.21.372,group3.1-3.2-social-tom,2023.2.2,Win32,60.24096386,65c5074098b851296ff0b7ed,6643a358e3884190c97be8e4,,,,,,,,,,,,,,,,,,,,,,,,,,,,,961.4372,2,audio/Narrative5Situation7.wav,965.4477,,965.4478,986.4978,[],1,0,986.4979,992.1475,0.208333333,4.7875,"[{""rating"":0.2083333333333326,""responseTime"":4.787499999999909}]",space,5.1039,,992.1475,Not at all,0,992.1503,,,[],,,,0,16,16,16,1,audio/Narrative8Situation7.wav,audio/Narrative7Situation7.wav,audio/Narrative6Situation7.wav,audio/Narrative5Situation7.wav,3,5,5,4,,,,,,,,,,,,,,,,,,,,,,,,,,,,,,,,,,,,,
,,,,,,5ec802e542730c299fbbafef,2024-05-14_12h47.21.372,group3.1-3.2-social-tom,2023.2.2,Win32,60.24096386,65c5074098b851296ff0b7ed,6643a358e3884190c97be8e4,,,,,,,,,,,,,,,,,,,,,,,,,,,,,992.1506,2,audio/Narrative5Situation8.wav,995.1646,,995.1647,1003.9984,[],1,0,1003.9985,1006.8647,0.416666667,1.9846,"[{""rating"":0.4166666666666652,""responseTime"":1.9845999999643027}]",space,2.3174,,1006.8647,Definitely yes,100,1006.87,,,[],,,,0,17,17,17,1,audio/Narrative8Situation8.wav,audio/Narrative7Situation8.wav,audio/Narrative6Situation8.wav,audio/Narrative5Situation8.wav,3,2,5,3,,,,,,,,,,,,,,,,,,,,,,,,,,,,,,,,,,,,,
,,,,,,5ec802e542730c299fbbafef,2024-05-14_12h47.21.372,group3.1-3.2-social-tom,2023.2.2,Win32,60.24096386,65c5074098b851296ff0b7ed,6643a358e3884190c97be8e4,,,,,,,,,,,,,,,,,,,,,,,,,,,,,1006.8703,2,audio/Narrative5Situation9.wav,1009.8815,,1009.8817,1049.4314,[],1,0,1049.4315,1052.7483,99.6875,2.8561,"[{""rating"":99.6875,""responseTime"":2.8561000000238437}]",space,2.7779,,1052.7486,Partially,50,1052.7535,,,[],,,,0,18,18,18,1,audio/Narrative8Situation9.wav,audio/Narrative7Situation9.wav,audio/Narrative6Situation9.wav,audio/Narrative5Situation9.wav,3,2,4,3,,,,,,,,,,,,,,,,,,,,,,,,,,,,,,,,,,,,,
,,,,,,5ec802e542730c299fbbafef,2024-05-14_12h47.21.372,group3.1-3.2-social-tom,2023.2.2,Win32,60.24096386,65c5074098b851296ff0b7ed,6643a358e3884190c97be8e4,,,,,,,,,,,,,,,,,,,,,,,,,,,,,,,,,,,,,,,,,,,,,,,,,,,,,,,,,,,,,,,,,,,,,,,,1052.7538,1059.4655,space,6.1883,,1059.4666,1073.0839,space,13.2967,,,,,,,,,,,,,,,,,,,,,,,,,,
,,,,,,5ec802e542730c299fbbafef,2024-05-14_12h47.21.372,group3.1-3.2-social-tom,2023.2.2,Win32,60.24096386,65c5074098b851296ff0b7ed,6643a358e3884190c97be8e4,,,,,,,,,,,,,,,,,,,,,,,,,,,,,1075.6899,1,audio/Narrative7Situation9.wav,1077.6995,,,,,,,1109.5573,1115.7322,99.58333333,5.0336,"[{""rating"":99.58333333333333,""responseTime"":5.033600000023853}]",space,5.6449,,1109.5515,Not at all,0,1109.5573,,,[],,,,,,,,,,,,,2,2,2,2,,,,,,,,,,,,,1073.1043,1075.6656,1077.7,3,1109.5513,"[[999,0],[999,82],[68.4,165],[68.2,248],[68.1,331],[68,414],[68,498],[68,581],[68,664],[68,749],[67.9,831],[67.8,915],[67.8,998],[67.8,1081],[67.8,1165],[67.8,1249],[67.8,1331],[67.8,1415],[67.8,1498],[67.8,1581],[67.8,1664],[67.8,1749],[67.8,1831],[67.7,1914],[67.7,1998],[67.7,2082],[67.7,2164],[67.7,2248],[67.7,2331],[67.7,2414],[67.7,2498],[67.7,2581],[67.7,2664],[67.7,2748],[67.7,2831],[66.5,2915],[58.1,2999],[57.8,4332],[57.8,4415],[57.7,4498],[57.7,4581],[57.7,4664],[57.7,4748],[57.7,4831],[58.1,4915],[58.2,4998],[59.2,5082],[61.5,5165],[61.8,5248],[61.8,5331],[61.8,5415],[61.8,5498],[61.8,5581],[61.8,5664],[61.8,5748],[61.8,5831],[61.8,5915],[54.6,5999],[47.9,6082],[42,6165],[34.1,6248],[27.2,6332],[20.9,6415],[16.5,6499],[14.7,6582],[12,6665],[5.9,6750],[5.6,6831],[5.8,6916],[6.3,6998],[6.5,7082],[6.9,7165],[6.9,7248],[6.9,7331],[6.9,7414],[6.9,7498],[6.6,7582],[5.7,7665],[4.1,7749],[3.8,7831],[3.8,7914],[3.8,7998],[3.8,8081],[3.8,8164],[3.8,8248],[3.8,8331],[3.8,8414],[3.8,8498],[3.8,8581],[3.8,8664],[3.8,8748],[3.8,8831],[3.8,8915],[3.8,8998],[3.6,9082],[3.5,9165],[4,9249],[4.3,9332],[4,9415],[3.8,9498],[3.8,9581],[2.8,9665],[2.2,9748],[1.9,9832],[1.9,9914],[1.9,9998],[1.8,10082],[1.8,10165],[1.8,10248],[1.8,10331],[1.8,10415],[1.8,10498],[1.8,10581],[1.8,10664],[1.8,10748],[1.8,10831],[1.8,10915],[1.8,10998],[1.8,11081],[1.8,11164],[1.8,11248],[1.8,11332],[1.8,11415],[1.8,11498],[1.8,11581],[1.8,11665],[1.8,11748],[1.8,11831],[1.8,11915],[1.8,11998],[1.8,12081],[1.6,12165],[1.6,12248],[1.6,12331],[1.6,12414],[1.6,12498],[1.6,12581],[1.1,12665],[1.1,12748],[1.1,12831],[1,12914],[1,12998],[1,13081],[1,13165],[1,13248],[1,13331],[1,13415],[1,13498],[1,13581],[1,13665],[1,13748],[1,13831],[1,13915],[1,13998],[1,14081],[1,14164],[1,14248],[1,14331],[1,14415],[1,14498],[1,14581],[1,14664],[1,14748],[1,14831],[1,14915],[1,14998],[1,15081],[1,15165],[1,15248],[1,15331],[1,15415],[1,15498],[1,15581],[1,15664],[1,15748],[1,15831],[1,15914],[1,15998],[1,16081],[1,16165],[1,16248],[1,16331],[1,16415],[1,16498],[1,16581],[1,16664],[1,16748],[1,16831],[1,16914],[1,16998],[1,17081],[1,17165],[1,17248],[1,17332],[1,17414],[1,17498],[1,17581],[1,17665],[1,17748],[1,17831],[1,17914],[1,17998],[1,18081],[1,18165],[0.9,18248],[0.9,18331],[0.9,18414],[0.9,18498],[0.9,18581],[0.9,18665],[0.9,18748],[0.9,18831],[0.9,18915],[0.9,18998],[0.9,19081],[0.9,19165],[0.9,19248],[0.9,19331],[0.9,19415],[0.9,19498],[0.9,19581],[0.9,19664],[0.9,19748],[0.9,19831],[0.9,19915],[0.9,19998],[0.9,20081],[0.9,20164],[0.9,20248],[0.9,20331],[0.9,20415],[0.9,20498],[0.9,20581],[0.9,20665],[0.9,20748],[0.9,20831],[0.9,20915],[0.9,20998],[0.9,21081],[0.9,21165],[0.9,21248],[0.9,21331],[0.9,21415],[0.9,21498],[0.9,21581],[0.9,21664],[0.9,21748],[0.9,21831],[0.9,21915],[0.9,21998],[0.9,22081],[0.9,22165],[0.9,22248],[0.9,22331],[0.9,22415],[0.9,22498],[0.9,22581],[0.9,22665],[1,22749],[1,22832],[1.1,22916],[1.5,22998],[2.3,23082],[4.7,23165],[7.4,23249],[8.9,23333],[9.3,23415],[9.7,23498],[10.4,23582],[10.6,23665],[10.8,23748],[10.8,23832],[11.1,23915],[11.5,23998],[12.2,24081],[13,24165],[13.3,24249],[13.3,24331],[13.6,24415],[14,24498],[14.4,24583],[14.7,24665],[15.1,24748],[15.3,24832],[15.6,24915],[17.7,24999],[19.4,25081],[19.4,25165],[19.4,25248],[19.4,25331],[19.4,25415],[19.4,25498],[19.7,25581],[19.7,25665],[20.1,25749],[20.9,25832],[20.9,25915],[20.9,25998],[20.9,26081],[20.9,26165],[20.9,26248],[20.9,26331],[20.9,26414],[20.9,26498],[20.9,26581],[20.9,26665],[20.9,26748],[21.3,26831],[21.9,26915],[22,26998],[22.4,27083],[22.7,27165],[22.8,27248],[22.8,27331],[22.8,27415],[22.9,27499],[23.5,27582],[25.6,27665],[28.8,27749],[30.2,27832],[32.2,27916],[36.1,27999],[39.3,28083],[42.5,28165],[45.4,28248],[45.4,28331],[45.4,28415],[45.5,28498],[46.5,28582],[47,28665],[47.1,28748],[48.4,28832],[49.7,28916],[50.2,28999],[50.4,29081],[51.5,29165],[55,29249],[60.1,29332],[59.2,29415],[59.2,29498],[59.2,29581],[59.3,29665],[61.5,29749],[66.7,29832],[74.4,29917],[75.9,29998],[75.9,30081],[75.9,30165],[76.1,30249],[82.8,30332],[85.1,30415],[86.1,30500],[88.4,30582],[89.7,30666],[91.4,30749],[93.2,30832],[94.6,30916],[96.4,30999],[97.7,31083],[99,31166],[99.6,31248],[99.6,31332],[99.6,31414],[99.6,31498],[99.6,31581],[99.6,31665],[99.6,31748],[99.6,31832]]",0,0,0,0,1,"Larry had recently lost his family, job and home, and was now living on his own in the park. He had most of his belongings, including some clothes, a blanket, and his mother’s special necklace. His family had been very important to him and he felt as though he did not have much going for him. One of his first days in the park he came across a family that did not have much food and looked very cold. He decided to give them some of his food and his blanket.","Larry had recently lost his family, job and home, and was now living on his own in the park. He had most of his belongings, including some clothes, a blanket, and his mother’s special necklace. His family had been very important to him and he felt as though he did not have much going for him. One of his first days in the park he came across a family that did not have much food and looked very cold. He decided to give them some of his food and his blanket.","Larry had recently lost his family, job and home, and was now living on his own in the park. He had most of his belongings, including some clothes, a blanket, and his mother’s special necklace. His family had been very important to him and he felt as though he did not have much going for him. One of his first days in the park he came across a family that did not have much food and looked very cold. He decided to give them some of his food and his blanket.","Larry had recently lost his family, job and home, and was now living on his own in the park. He had most of his belongings, including some clothes, a blanket, and his mother’s special necklace. His family had been very important to him and he felt as though he did not have much going for him. One of his first days in the park he came across a family that did not have much food and looked very cold. He decided to give them some of his food and his blanket.",,,,,,,,,,
,,,,,,5ec802e542730c299fbbafef,2024-05-14_12h47.21.372,group3.1-3.2-social-tom,2023.2.2,Win32,60.24096386,65c5074098b851296ff0b7ed,6643a358e3884190c97be8e4,,,,,,,,,,,,,,,,,,,,,,,,,,,,,1115.7337,1,audio/Narrative7Situation9.wav,1118.9319,space,,,,,,1142.8045,1146.399,50,2.1641,"[{""rating"":50,""responseTime"":2.1640999999642645}]",space,3.0577,,1142.7994,Partially,50,1142.8044,,,[],,,,,,,,,,,,,6,2,3,9,3.1789,,,,,,,,,,,,,,1118.932,3,1142.799,"[[54.4,1250],[54.4,1334],[54,1417],[53.2,1500],[50.7,1583],[50,1667],[49.8,1751],[48.4,1834],[47.6,1917],[47.6,2000],[47.6,2083],[47.6,2166],[47.6,2250],[47.6,2333],[47.6,2416],[47.6,2500],[47.6,2583],[47.6,2666],[47.6,2750],[47.6,2833],[47.6,2916],[47.6,3000],[47.6,3083],[47.6,3167],[47.6,3250],[47.6,3333],[47.6,3416],[47.6,3499],[47.6,3583],[47.6,3666],[47.6,3749],[47.6,3833],[47.6,3916],[47.6,3999],[47.6,4083],[47.6,4166],[47.6,4250],[47.6,4333],[47.6,4417],[47.6,4500],[47.6,4583],[47.6,4666],[47.6,4750],[47.6,4834],[7.2,6668],[6.3,6750],[2.8,6833],[1.8,6917],[1,7000],[9.2,15750],[18.8,15834],[25.5,15917],[31.8,16000],[38.4,16084],[43.9,16167],[45.6,16251],[46.8,16334],[47.5,16417],[48.2,16500],[48.6,16584],[49,16667],[49.3,16750],[49.4,16833],[49.5,16916],[49.5,17000],[49.5,17083],[49.5,17166],[49.5,17250],[49.5,17333],[49.5,17416],[49.5,17500],[49.5,17583],[49.5,17666],[49.5,17749],[49.5,17833],[49.5,17916],[49.5,18000],[49.5,18083],[49.5,18166],[49.5,18250],[49.5,18333],[49.6,18416],[49.6,18500],[49.6,18583],[49.6,18666],[49.6,18750],[49.6,18833],[49.6,18916],[49.6,19000],[49.6,19083],[49.6,19166],[49.6,19250],[49.6,19333],[49.6,19416],[49.6,19500],[49.6,19583],[49.6,19666],[49.6,19750],[49.6,19833],[49.6,19916],[49.6,20000],[49.6,20083],[49.6,20166],[49.6,20250],[49.6,20333],[49.6,20416],[49.6,20500],[49.6,20583],[49.6,20666],[49.6,20750],[49.6,20833],[49.6,20916],[49.6,21000],[49.6,21083],[49.6,21166],[49.6,21250],[49.6,21333],[49.6,21416],[49.6,21500],[49.6,21583],[49.6,21666],[49.6,21750],[49.6,21833],[49.6,21916],[49.6,22000],[49.6,22083],[49.6,22166],[49.6,22250],[49.6,22333],[49.6,22416],[49.7,22500],[49.7,22583],[49.7,22666],[49.7,22750],[49.7,22833],[49.7,22916],[49.7,23000],[49.7,23083],[49.7,23166],[49.7,23250],[49.7,23333],[49.7,23416],[49.7,23500],[49.7,23583],[49.7,23666],[49.7,23750],[49.7,23833]]",0,1,1,1,1,"It was just another Sunday afternoon for Lucy, she was on her way to the farmer's market to pick up some produce. When she arrived at the old train depot that housed the market, she noticed two men fighting on the steps. Before she could call for help, one of the men crumpled to his knees. The other man dropped an object that appeared to be a knife and ran off. When Lucy approached the crime scene she realized that the man who had been murdered was the Mayor and that he had a gunshot wound.","One day at work, Margaret walked up to her partner, Al, to ask him to talk to the chief of staff at the local hospital where she worked as a nurse.","Luke always thought of himself as an honest man. That's why during his evening jog around the swamp, he pondered his recent affair with the receptionist at work. Luke looked up at the sky and asked God why he was so weak and unfaithful. He thought of the impact this would have on his family and told God of his conflicted feelings toward telling his wife Marta.","Linda and Amy had been best friends since kindergarten, they even found homes on the same street in the forest on the edge of town. Their biggest fight had been over who gets the bigger slice of cake, until Amy married Dan. Linda loathed Dan, she thought he was manipulative and had a violent temper. She only put up with him because Amy loved him. ",,,,,,,,,,
,,,,,,5ec802e542730c299fbbafef,2024-05-14_12h47.21.372,group3.1-3.2-social-tom,2023.2.2,Win32,60.24096386,65c5074098b851296ff0b7ed,6643a358e3884190c97be8e4,,,,,,,,,,,,,,,,,,,,,,,,,,,,,1146.4,1,audio/Narrative7Situation9.wav,1151.4155,,,,,,,1177.6239,1181.4323,99.375,1.9342,"[{""rating"":99.375,""responseTime"":1.9342000000476673}]",space,3.2726,,1177.5998,Definitely yes,100,1177.6239,,,[],,,,,,,,,,,,,4,5,2,2,,,,,,,,,,,,,,,1151.4156,3,1177.5995,"[[49.8,999],[46.6,1084],[43.1,1168],[42.8,1249],[42.8,1333],[42.8,1416],[42.8,1499],[42.8,1583],[42.8,1666],[42.8,1749],[42.8,1833],[42.8,1916],[42.8,2000],[42.8,2084],[42.8,2166],[42.8,2249],[42.8,2333],[42.8,2416],[42.8,2499],[42.8,2584],[42.8,2666],[42.8,2750],[42.8,2833],[42.8,2916],[42.8,3000],[42.8,3083],[42.8,3166],[42.8,3249],[42.8,3333],[42.8,3416],[42.8,3499],[42.8,3583],[42.8,3666],[42.8,3749],[42.8,3833],[42.8,3916],[42.8,3999],[42.8,4083],[42.8,4166],[42.8,4249],[42.8,4333],[42.8,4416],[42.8,4499],[42.8,4583],[42.8,4666],[42.8,4750],[42.8,4833],[42.8,4916],[42.8,4999],[42.8,5083],[42.8,5166],[42.8,5250],[42.8,5333],[42.8,5416],[42.8,5499],[42.8,5583],[43,5666],[43,5750],[43,5833],[43,5916],[43,6000],[43,6083],[43,6166],[43,6250],[43,6333],[43,6416],[43,6500],[43.3,6584],[43.9,6667],[43.9,6749],[43.9,6833],[43.9,6916],[44.3,7000],[47.4,7084],[49,7167],[53.2,7250],[72.6,7334],[100,7834],[100,7917],[100,8001],[100,8084],[100,8166],[100,8249],[100,8333],[100,8416],[100,8500],[100,8583],[100,8666],[100,8749],[100,8833],[100,8916],[100,8999],[100,9083],[100,9166],[100,9250],[100,9334],[100,9417],[100,9500],[100,9583],[100,9666],[100,9750],[100,9833],[100,9916],[100,10000],[100,10083],[100,10166],[100,10249],[100,10333],[100,10416],[100,10500],[100,10583],[100,10666],[100,10750],[100,10833],[100,10916],[100,11000],[100,11083],[100,11166],[100,11250],[100,11333],[100,11416],[100,11500],[100,11583],[100,11666],[100,11749],[100,11833],[100,11916],[100,12000],[100,12083],[100,12166],[100,12249],[100,12333],[100,12416],[100,12500],[100,12583],[100,12666],[100,12749],[100,12833],[100,12916],[100,12999],[100,13083],[100,13166],[100,13250],[100,13333],[100,13416],[100,13500],[100,13583],[100,13666],[100,13749],[100,13833],[100,13916],[100,13999],[100,14083],[100,14166],[100,14249],[100,14333],[100,14416],[100,14500],[100,14583],[100,14666],[100,14750],[100,14833],[100,14916],[100,15000],[100,15084],[100,15166],[100,15250],[100,15333],[100,15416],[100,15500],[100,15583],[100,15666],[100,15750],[100,15833],[100,15916],[100,16000],[100,16083],[100,16166],[100,16250],[100,16333],[100,16416],[100,16500],[100,16583],[100,16666],[100,16750],[100,16833],[100,16916],[100,17000],[100,17083],[100,17166],[100,17250],[100,17333],[100,17416],[100,17500],[100,17583],[100,17666],[100,17750],[100,17833],[100,17916],[100,18000],[100,18083],[100,18166],[100,18250],[100,18333],[100,18417],[100,18500],[100,18583],[100,18666],[100,18750],[100,18833],[100,18916],[100,19000],[100,19083],[100,19166],[100,19250],[100,19333],[100,19416],[100,19500],[100,19583],[100,19666],[100,19750],[100,19833],[100,19916],[100,20000],[100,20083],[100,20166],[100,20249],[100,20333],[100,20416],[100,20500],[100,20583],[100,20666],[100,20750],[100,20833],[100,20916],[100,21000],[100,21083],[100,21166],[100,21250],[100,21333],[100,21416],[100,21500],[100,21583],[100,21666],[100,21750],[100,21833],[100,21916],[100,22000],[100,22083],[100,22166],[100,22250],[100,22333],[100,22416],[100,22500],[100,22583],[100,22666],[100,22750],[100,22833],[100,22916],[100,23000],[100,23083],[100,23167],[100,23250],[100,23333],[100,23416],[100,23500],[100,23583],[100,23666],[100,23750],[100,23833],[100,23916],[100,24000],[100,24083],[100,24166],[100,24250],[100,24333],[100,24416],[100,24500],[100,24583],[100,24666],[100,24750],[100,24833],[100,24916],[100,25000],[100,25083],[100,25166],[100,25250],[100,25333],[100,25416],[100,25500],[100,25583],[100,25666],[100,25750],[100,25833],[100,25916],[100,26000],[100,26083],[100,26166]]",0,2,2,2,1,On the ground beside him was a pen that she had mistaken for a knife. Lucy looked for the gunman and saw a suspicious man in black with distinct pointy features darting into an alley across the street. Cops who were nearby chased the man who had fled and arrested him.,"While waiting outside the chief of staff's office, Al heard nondescript shouting and yelling, there was a loud clatter in the room and then an eerie silence. An unfamiliar employee ran hastily out of the office with a terrified look on their face.","Suddenly, Luke heard a woman call out his name and when he turned around he saw Carly, his receptionist, across the road with a gun in her hand. Carly ran to him and explained how she had followed him here to confess her love. She exclaimed if Luke didn't love her back that she would kill him and his family. Carly explained that the only way they could be together is to kill Marta.","This feeling of hate between Amy and Dan was mutual, Dan didn't like how much time his wife spent with her and thought Amy was creating distance between their marriage. That's why Dan decided to try and tarnish Linda's reputation with his wife, in hopes it would get rid of her. He came home one afternoon and exclaimed that Linda had tried to kiss him. Amy was taken aback and immediately called Linda to confront her about these accusations. When Linda arrived she denied having made a move on Dan, but discovered Dan had enlisted the help of his friend Will who said he witnessed it all happen.",,,,,,,,,,
,,,,,,5ec802e542730c299fbbafef,2024-05-14_12h47.21.372,group3.1-3.2-social-tom,2023.2.2,Win32,60.24096386,65c5074098b851296ff0b7ed,6643a358e3884190c97be8e4,,,,,,,,,,,,,,,,,,,,,,,,,,,,,1181.4331,1,audio/Narrative7Situation9.wav,1183.449,,,,,,,1205.9891,1210.866,50.10416667,2.8249,"[{""rating"":50.10416666666667,""responseTime"":2.8248999999761963}]",space,4.3449,,1205.9662,Partially,50,1205.9891,,,[],,,,,,,,,,,,,2,2,1,4,,,,,,,,,,,,,,,1183.4491,3,1205.966,"[[97.2,9083],[97.2,9166],[97.2,9249],[97.7,9333],[97.9,9416],[97.9,9499],[97.9,9583],[97.9,9666],[98,9750],[98.1,9833],[97.7,9917],[97.7,9999],[97.7,10083],[97.5,10167],[96.3,10249],[97.4,10333],[98.2,10417],[98.5,10499],[99.4,10583],[99.7,10667],[99.8,10749],[99.8,10833],[99.8,10916],[99.9,10999],[99.8,11083],[99.8,11166],[99.8,11249],[99.8,11333],[99.8,11416],[99.8,11499],[99.8,11583],[99.8,11666],[99.8,11749],[99.8,11833],[99.8,11916],[99.8,11999],[99.8,12083],[99.8,12166],[99.8,12249],[99.8,12333],[99.8,12416],[99.8,12499],[99.8,12583],[99.8,12666],[99.8,12749],[99.8,12833],[99.8,12916],[99.8,12999],[99.8,13083],[99.8,13166],[99.8,13249],[99.8,13333],[99.8,13416],[99.8,13499],[99.8,13583],[99.8,13666],[99.8,13749],[99.8,13833],[99.8,13916],[99.8,13999],[99.8,14083],[99.8,14166],[99.8,14250],[99.8,14333],[99.8,14416],[99.8,14499],[99.8,14583],[99.8,14666],[99.8,14749],[99.8,14833],[99.8,14916],[99.8,15000],[99.8,15083],[99.8,15166],[99.8,15249],[99.8,15333],[99.8,15416],[99.8,15499],[99.8,15583],[99.8,15666],[99.8,15749],[99.8,15833],[99.8,15916],[99.8,15999],[99.8,16083],[99.8,16166],[99.8,16249],[99.8,16333],[99.8,16416],[99.8,16499],[99.8,16583],[99.8,16666],[99.8,16749],[99.8,16833],[99.8,16916],[99.8,17000],[99.8,17083],[99.8,17166],[99.8,17249],[99.8,17333],[99.8,17416],[99.8,17500],[99.8,17583],[99.8,17666],[99.8,17749],[99.8,17833],[99.8,17916],[99.8,18000],[99.8,18083],[99.8,18166],[99.8,18249],[99.8,18333],[99.8,18416],[99.8,18499],[99.8,18583],[99.8,18666],[99.8,18749],[99.8,18833],[99.8,18916],[99.8,19000],[99.8,19083],[99.8,19166],[99.8,19250],[99.8,19333],[99.8,19416],[99.8,19500],[99.8,19583],[99.8,19666],[99.8,19750],[99.8,19833],[99.8,19916],[99.8,20000],[99.8,20083],[99.8,20166],[99.8,20250],[99.8,20333],[99.8,20416],[99.8,20500],[99.8,20583],[99.8,20666],[99.8,20750],[99.8,20833],[99.8,20916],[99.8,20999],[99.8,21083],[99.8,21166],[99.8,21249],[99.8,21333],[99.8,21416],[99.8,21500],[99.8,21583],[99.8,21666],[99.8,21749],[99.8,21833],[99.8,21916],[99.8,22000],[99.8,22083],[99.8,22166],[99.8,22250],[99.8,22333],[99.8,22416],[99.8,22500]]",0,3,3,3,1,"But Lucy knew the charged man was innocent, which meant the killer was free. Lucy vowed to find out who the real murderer was and to stop him at all costs.","Al explained to the chief of staff that Margaret wanted to be excused from her absences last week. The chief of staff, Susan, revealed that she wanted to fire Margaret and never see her again. Susan and Al had been having an affair and she wanted Margaret ""out of the picture"". Al was conflicted, but agreed it would be for the best.","Luke thought of his child and felt like this was his only option. He agreed to the plan and called his wife to meet him at the swamp to watch the sunset with him. When she arrived, Marta called out for her husband, but found Carly waiting for her. She immediately drew her gun and shot her in the chest, knocking her unconscious.","Since it was their word against her own, she decided to go home and admit defeat. She knew how much it would hurt Amy to know the truth.",,,,,,,,,,
,,,,,,5ec802e542730c299fbbafef,2024-05-14_12h47.21.372,group3.1-3.2-social-tom,2023.2.2,Win32,60.24096386,65c5074098b851296ff0b7ed,6643a358e3884190c97be8e4,,,,,,,,,,,,,,,,,,,,,,,,,,,,,1210.8666,1,audio/Narrative7Situation9.wav,1211.8825,,,,,,,1234.4225,1244.0668,50.10416667,2.4872,"[{""rating"":50.10416666666667,""responseTime"":2.4871999999882064}]",space,9.1035,,1234.3998,Definitely yes,100,1234.4224,,,[],,,,,,,,,,,,,1,1,3,3,,,,,,,,,,,,,,,1211.8825,3,1234.3997,"[[52.5,583],[52.3,666],[52,750],[52,833],[52.4,917],[51.9,1000],[51.9,1083],[51.9,1166],[51.9,1250],[51.9,1333],[51.9,1416],[51.9,1500],[51.9,1583],[51.9,1666],[51.9,1750],[51.9,1833],[51.9,1916],[51.9,2000],[51.9,2083],[51.9,2166],[51.9,2249],[51.9,2333],[51.9,2416],[51.9,2499],[51.9,2583],[51.9,2666],[51.9,2750],[51.9,2833],[51.9,2916],[51.9,3000],[51.9,3083],[51.9,3166],[51.9,3250],[51.9,3333],[51.9,3416],[51.9,3500],[51.9,3583],[51.9,3666],[51.9,3750],[51.9,3833],[51.9,3916],[51.9,3999],[51.9,4083],[51.9,4166],[51.9,4250],[51.9,4333],[51.9,4416],[51.9,4500],[51.9,4583],[51.9,4666],[51.9,4750],[51.9,4833],[51.9,4916],[51.9,5000],[51.9,5083],[51.9,5166],[51.9,5249],[51.9,5333],[51.9,5416],[51.9,5500],[51.9,5583],[51.9,5666],[51.9,5750],[51.9,5833],[51.9,5916],[51.9,6000],[51.9,6083],[51.9,6166],[51.9,6250],[51.9,6333],[51.9,6416],[51.9,6500],[51.9,6583],[51.9,6666],[51.9,6750],[51.9,6833],[51.9,6916],[51.9,7000],[51.9,7083],[51.9,7166],[51.9,7250],[51.9,7333],[51.9,7416],[51.9,7500],[51.9,7583],[51.9,7666],[51.9,7750],[51.9,7833],[51.9,7916],[51.9,8000],[51.9,8083],[51.9,8166],[51.9,8250],[51.9,8333],[51.9,8416],[51.9,8500],[51.9,8583],[51.9,8666],[51.9,8750],[51.9,8833],[51.9,8916],[51.9,9000],[51.9,9083],[50.8,9167],[50.4,9250],[50.1,9333],[50,9416],[50,9500],[50,9583],[50,9666],[50,9750],[50,9833],[50,9916],[50,10000],[50,10083],[50,10166],[50,10250],[50,10333],[50,10416],[50,10500],[51.1,10583],[59.7,10667],[66.5,10750],[68.8,10834],[69.2,10916],[69.2,11000],[69.2,11083],[69.9,11167],[73,11251],[78.8,11333],[81.9,11417],[83.8,11500],[85.1,11584],[86.7,11667],[89.4,11750],[91.1,11833],[92.7,11917],[94.2,12000],[95.5,12084],[96.6,12166],[97.3,12250],[97.6,12333],[97.9,12416],[98,12500],[98,12583],[98,12666],[98,12750],[98,12833],[98,12916],[98,13000],[98,13083],[98,13166],[98,13250],[99,13333],[99.7,13416],[99.7,13500],[99.7,13583],[99.7,13666],[99.7,13750],[99.7,13833],[99.7,13916],[99.7,14000],[99.7,14083],[99.7,14166],[99.7,14250],[99.7,14333],[99.7,14416],[99.7,14500],[99.7,14583],[99.7,14666],[99.7,14750],[99.7,14833],[99.7,14916],[99.7,15000],[99.7,15083],[99.7,15166],[99.7,15250],[99.7,15333],[99.7,15416],[99.7,15500],[99.7,15583],[99.7,15666],[99.7,15750],[99.7,15833],[99.7,15916],[99.7,16000],[99.7,16083],[99.7,16166],[99.7,16250],[99.7,16333],[99.7,16416],[99.7,16500],[99.7,16583],[99.7,16666],[99.7,16750],[99.7,16833],[99.7,16916],[99.7,17000],[99.7,17083],[99.7,17166],[99.7,17250],[99.7,17333],[99.7,17416],[99.7,17500],[99.7,17583],[99.7,17666],[99.7,17750],[99.7,17833],[99.7,17916],[99.7,18000],[99.7,18083],[99.7,18166],[99.7,18250],[99.7,18333],[99.7,18416],[99.7,18500],[99.7,18583],[99.7,18666],[99.7,18750],[99.7,18833],[99.7,18916],[99.7,19000],[99.7,19083],[99.7,19166],[99.7,19250],[99.7,19333],[99.7,19416],[99.7,19500],[99.7,19583],[99.7,19666],[99.7,19750],[99.7,19833],[99.7,19916],[99.7,20000],[99.7,20083],[99.7,20166],[99.7,20250],[99.7,20333],[99.7,20416],[99.7,20500],[99.7,20583],[99.7,20666],[99.7,20750],[99.7,20833],[99.7,20916],[99.7,21000],[99.7,21083],[99.7,21166],[99.7,21250],[99.7,21333],[99.7,21416],[99.7,21500],[99.7,21583],[99.7,21666],[99.7,21750],[99.7,21833],[99.7,21916],[99.7,22000],[99.7,22083],[99.7,22166],[99.7,22250],[99.7,22333],[99.7,22416],[99.7,22500]]",0,4,4,4,1,"The next day the mayors successor, Mr. Smith, a man who was very unpopular due to his strong ties to the oil companies, took office. After a long day of brainstorming about the mysterious killer, Lucy decided to attend his welcome ceremony in the city. During the mayor's speech, she noticed one of the security guards looked strangely familiar. It dawned on her that this new mayor had motive to kill and that the man in black could've been the guard working for him.","Weeks passed and nobody had seen Margaret. Coworkers and friends searched the nearby city looking for her. One day on patrol in a nearby town, a police officer heard someone crying for help in the basement of a house and went in to investigate. Margaret yelled that she was being held captive and needed help.","Luke ran to Marta, and filled with regret over his decision to go along with Carly's plan, picked her up and rushed her to the hospital. The doctors tried to help Marta by taking her into emergency surgery but failed to save her life. Once the doctor called the time of death, Luke fell to his knees and sobbed over his rash decision.","Months later Dan had taken up a mistress, he was growing bored with his marriage ever since he got rid of Linda and was only still with Amy for her family's money. In a hotel room in a nearby town, Dan and his mistress, Nicole, conspired to secretly kill Amy while still obtaining her fortune.",,,,,,,,,,
,,,,,,5ec802e542730c299fbbafef,2024-05-14_12h47.21.372,group3.1-3.2-social-tom,2023.2.2,Win32,60.24096386,65c5074098b851296ff0b7ed,6643a358e3884190c97be8e4,,,,,,,,,,,,,,,,,,,,,,,,,,,,,1244.085,1,audio/Narrative7Situation9.wav,1245.0995,,,,,,,1272.3054,1277.7998,50.10416667,3.5717,"[{""rating"":50.10416666666667,""responseTime"":3.571699999988141}]",space,4.963,,1272.2833,Partially,50,1272.3054,,,[],,,,,,,,,,,,,3,1,3,3,,,,,,,,,,,,,,,1245.0995,3,1272.2831,"[[999,0],[999,83],[999,166],[999,249],[999,333],[999,416],[999,499],[999,583],[999,666],[999,750],[999,833],[999,916],[999,999],[999,1083],[999,1166],[999,1249],[999,1333],[999,1416],[999,1499],[999,1583],[999,1666],[999,1749],[999,1833],[999,1916],[999,1999],[999,2083],[999,2167],[999,2249],[999,2333],[999,2417],[999,2499],[999,2583],[999,2667],[999,2750],[999,2834],[999,2917],[999,3000],[999,3084],[999,3167],[24.4,3254],[24.6,3333],[24.6,3416],[24.6,3499],[24.6,3583],[24.6,3666],[24.6,3749],[24.6,3833],[24.4,3916],[24.4,3999],[24.4,4083],[24.4,4166],[24.4,4249],[24.4,4334],[43.2,5250],[42.9,5334],[42.3,5418],[40.3,5500],[32.2,5583],[23.2,5667],[16,5750],[12.4,5833],[25.9,5916],[66.1,6000],[83.4,6083],[89.3,6167],[89.5,6250],[90.2,6333],[96.9,6417],[98.8,6500],[98.9,6583],[98.9,6666],[99.2,6749],[99.2,6833],[99.2,6916],[99.2,6999],[99.2,7083],[99.2,7166],[99.2,7250],[99.2,7333],[99.2,7416],[99.2,7499],[99.2,7583],[99.2,7666],[99.2,7750],[99.2,7833],[99.2,7916],[99.2,7999],[99.2,8083],[99.2,8166],[99.2,8249],[99.2,8333],[99.2,8416],[99.2,8499],[99.2,8583],[99.2,8666],[99.2,8750],[99.2,8833],[99.2,8916],[99.2,8999],[99.2,9083],[99.2,9166],[99.2,9250],[99.2,9333],[99.2,9416],[99.2,9499],[99.2,9583],[99.2,9666],[99.2,9749],[99.2,9833],[99.2,9916],[99.2,9999],[99.2,10083],[99.2,10166],[99.2,10249],[99.2,10333],[99.2,10416],[99.2,10500],[99.4,10587],[99.5,10666],[99.5,10750],[99.5,10833],[99.5,10916],[99.5,11000],[99.5,11083],[99.5,11166],[99.5,11250],[99.5,11333],[99.5,11416],[99.5,11499],[99.5,11583],[99.5,11666],[99.7,11749],[99.7,11833],[99.7,11916],[99.7,11999],[99.7,12083],[99.7,12166],[99.7,12250],[99.7,12333],[99.7,12416],[99.7,12499],[99.7,12583],[99.7,12666],[99.7,12750],[99.7,12833],[99.7,12916],[99.7,13000],[99.7,13083],[99.7,13166],[99.7,13250],[99.7,13333],[99.7,13416],[99.7,13500],[99.7,13583],[99.7,13666],[99.7,13749],[99.7,13833],[99.7,13916],[99.7,13999],[99.7,14083],[99.7,14166],[99.7,14250],[99.7,14333],[99.7,14416],[99.7,14499],[99.7,14583],[99.7,14666],[99.7,14750],[99.7,14833],[99.7,14916],[99.7,15000],[99.7,15083],[99.7,15166],[99.7,15249],[99.7,15333],[99.7,15416],[99.7,15500],[99.7,15583],[99.7,15666],[99.7,15750],[99.7,15833],[99.7,15916],[99.7,16000],[99.7,16083],[99.7,16166],[99.7,16250],[99.7,16333],[99.7,16416],[99.7,16500],[99.7,16583],[99.7,16666],[99.7,16750],[99.7,16833],[99.7,16916],[99.7,17000],[99.7,17083],[99.7,17166],[99.7,17250],[99.7,17333],[99.7,17416],[99.7,17500],[99.7,17583],[99.7,17666],[99.7,17750],[99.7,17833],[99.7,17916],[99.7,18000],[99.7,18083],[99.7,18166],[99.7,18250],[99.7,18333],[99.7,18416],[99.7,18500],[99.7,18583],[99.7,18666],[99.7,18750],[99.7,18833],[99.7,18916],[99.7,19000],[99.7,19083],[99.7,19166],[99.7,19250],[99.7,19333],[99.7,19416],[99.7,19500],[99.7,19583],[99.7,19666],[99.7,19750],[99.7,19833],[99.7,19916],[99.7,20000],[99.7,20083],[99.7,20166],[99.7,20250],[99.7,20333],[99.7,20416],[99.7,20500],[99.7,20583],[99.7,20666],[99.7,20750],[99.7,20833],[99.7,20916],[99.8,21000],[99.8,21083],[99.8,21166],[99.8,21250],[99.8,21333],[99.8,21416],[99.8,21500],[99.8,21583],[99.8,21666],[99.8,21750],[99.8,21833],[99.8,21916],[99.8,22000],[99.8,22083],[99.8,22166],[99.8,22250],[99.8,22333],[99.8,22416],[99.8,22500],[99.8,22583],[99.8,22666],[99.8,22750],[99.8,22833],[99.8,22916],[99.8,23000],[99.8,23083],[99.8,23166],[99.8,23250],[99.8,23333],[99.8,23416],[99.8,23500],[99.8,23583],[99.8,23666],[99.8,23750],[99.8,23833],[99.8,23916],[99.8,24000],[99.8,24084],[99.8,24166],[99.8,24250],[99.8,24333],[99.8,24416],[99.8,24500],[99.8,24583],[99.8,24666],[99.8,24750],[99.8,24833],[99.8,24916],[99.8,25000],[99.8,25083],[99.8,25166],[99.8,25250],[99.8,25333],[99.8,25416],[99.8,25500],[99.8,25583],[99.8,25666],[99.8,25750],[99.8,25833],[99.8,25916],[99.8,26000],[99.8,26083],[99.8,26166],[99.8,26250],[99.8,26333],[99.8,26416],[99.8,26500],[99.8,26583],[99.8,26666],[99.8,26750],[99.8,26833],[99.8,26916],[99.8,27000],[99.8,27083],[99.8,27166]]",0,5,5,5,1,"Lucy decided to confront the mayor after his ceremony. But when she tried to accuse him, the security guards threatened to hurt her if she went to the police with her theory. Before she could say another word a man pulled her from the crowd.","In a rush, the police officer broke down the door and was attacked by a man in the house. Without hesitation, the officer shot the man and the man fell to the floor.","He then saw Marta's brother Zach enter the hospital. Zach ran over to Luke and punched him. Zach screamed at Luke that it's his fault his sister is dead and that he knew about the affair. Luke quickly tried to explain that he felt horrible about Marta's death and that Carly had manipulated him into going along with her plan. Zach, still angry at his brother-in-law, realized his mistake in judgement and shifted his anger toward Carly.","They decided to have Dan invite her to the hotel room under the guise of a romantic date. Once she arrived, Nicole was there to tie her up. Once she was secured to a chair, Nicole demanded Amy's bank passwords. Amy obliged and gave her access to her bank accounts.",,,,,,,,,,
,,,,,,5ec802e542730c299fbbafef,2024-05-14_12h47.21.372,group3.1-3.2-social-tom,2023.2.2,Win32,60.24096386,65c5074098b851296ff0b7ed,6643a358e3884190c97be8e4,,,,,,,,,,,,,,,,,,,,,,,,,,,,,1277.8005,1,audio/Narrative7Situation9.wav,1278.8163,,,,,,,1303.69,1307.9665,0.208333333,3.0189,"[{""rating"":0.2083333333333326,""responseTime"":3.0189000000357282}]",space,3.7364,,1303.6668,Not at all,0,1303.69,,,[],,,,,,,,,,,,,3,1,1,2,,,,,,,,,,,,,,,1278.8164,3,1303.6667,"[[50,2833],[49.9,2916],[49.9,2999],[49.9,3083],[49.9,3166],[49.9,3249],[49.9,3333],[50,3416],[50,3499],[50,3583],[50,3666],[50,3749],[50,3833],[50,3916],[50,3999],[50,4083],[50,4166],[50,4249],[50,4333],[50,4416],[50,4499],[43.8,4584],[25.6,4667],[22,4750],[17.9,4834],[12.6,4918],[1.4,6084],[5.9,6167],[6,6249],[6,6333],[6,6416],[5.8,6501],[2.2,6583]]",0,6,6,6,1,"The man in question was another security guard of Mayor Smith's, who took Lucy into a hidden alleyway. His name was Max and he quickly explained that he was a part of the initial plot to kill the former Mayor but he regretted his involvement.","The officer rushed to the basement, untied Margaret, and took her to safety.After being notified of the situation, Al rushed to meet Margaret as to not raise any suspicion. When he arrived, he saw Margaret pointing and yelling at Susan who had been handcuffed and was talking to the police. Shortly after, the police took Susan away in a police car. Al was devastated to see her being taken away, as Margaret sneered with disdain.","After the tension with Zach cooled down, Luke thought of when he should call his son and inform him of his mother's passing. He would be out of school any minute and should hear the news from him. Luke reflected on his decision and realized it was necessary to sacrifice his wife to ensure their child's safety, and that Marta had told him to above all else to protect him.",Nicole transferred all of Amy's money into Dan's bank account despite Amy's pleading for her to stop.,,,,,,,,,,
