exp_question,consent.started,consent.stopped,consentResponse.keys,consentResponse.rt,consentResponse.duration,participantID,date,expName,psychopyVersion,OS,frameRate,STUDY_ID,SESSION_ID,opening1.started,opening1.stopped,keyEndingOpening1.keys,keyEndingOpening1.rt,keyEndingOpening1.duration,volumeAdjust.started,volumeAdjust.stopped,endingAdjust.keys,endingAdjust.rt,endingAdjust.duration,opening2.started,opening2.stopped,keyEndingOpening.keys,keyEndingOpening.rt,keyEndingOpening.duration,mouse.x,mouse.y,mouse.leftButton,mouse.midButton,mouse.rightButton,mouse.time,instructionLoop.thisRepN,instructionLoop.thisTrialN,instructionLoop.thisN,instructionLoop.thisIndex,instructionLoop.ran,readyForAudio.started,readyForAudio.stopped,fixation.started,run,audio_played,fixation.stopped,endPractice.keys,audioPre.started,audioPre.stopped,continuousResponses_audio,continuousSlider.response,continuousSlider.rt,intRating.started,intRating.stopped,intQuestionSlider.response,intQuestionSlider.rt,intQuestionSlider.history,confirmResponse.keys,confirmResponse.rt,confirmResponse.duration,catchQuestion.started,catch_label,catch_value,catchQuestion.stopped,catchQuestionSlider.response,catchQuestionSlider.rt,catchQuestionSlider.history,confirmResponse_2.keys,audioRunLoop.thisRepN,audioRunLoop.thisTrialN,audioRunLoop.thisN,audioRunLoop.thisIndex,audioRunLoop.ran,conditions1_1,conditions2_1,conditions1_2,conditions2_2,dur1_1,dur2_1,dur1_2,dur2_2,endPractice.rt,endPractice.duration,confirmResponse_2.rt,confirmResponse_2.duration,runIntervalBreak.started,runIntervalBreak.stopped,endingBreakKey.keys,endingBreakKey.rt,endingBreakKey.duration,connection.started,connection.stopped,connectionEnding.keys,connectionEnding.rt,connectionEnding.duration,readyForText.started,readyForText.stopped,textPre.started,run_dup,textPre.stopped,continuousResponses_text,textRunLoop.thisRepN,textRunLoop.thisTrialN,textRunLoop.thisN,textRunLoop.thisIndex,textRunLoop.ran,text1_1,text1_2,text2_1,text2_2,runBreakText.started,runBreakText.stopped,endingBreakKey_2.keys,endingBreakKey_2.rt,endingBreakKey_2.duration,ending.started,ending.stopped,endingEnding.keys,endingEnding.rt,endingEnding.duration
tom,0.0003,20.7802,y,20.4677,,5eced9328405902eef967571,2024-05-13_08h43.31.765,group3.1-3.2-social-tom,2023.2.2,Win32,59.98440405,65c5074098b851296ff0b7ed,6642342381170c77603f6afd,,,,,,,,,,,,,,,,,,,,,,,,,,,,,,,,,,,,,,,,,,,,,,,,,,,,,,,,,,,,,,,,,,,,,,,,,,,,,,,,,,,,,,,,,,,,,,,,,,,,,,,,,,
,,,,,,5eced9328405902eef967571,2024-05-13_08h43.31.765,group3.1-3.2-social-tom,2023.2.2,Win32,59.98440405,65c5074098b851296ff0b7ed,6642342381170c77603f6afd,20.7809,27.6669,space,6.8321,,,,,,,,,,,,,,,,,,,,,,,,,,,,,,,,,,,,,,,,,,,,,,,,,,,,,,,,,,,,,,,,,,,,,,,,,,,,,,,,,,,,,,,,,,,,,,,,,,,,,,
,,,,,,5eced9328405902eef967571,2024-05-13_08h43.31.765,group3.1-3.2-social-tom,2023.2.2,Win32,59.98440405,65c5074098b851296ff0b7ed,6642342381170c77603f6afd,,,,,,27.6679,68.3989,space,40.3834,,,,,,,,,,,,,,,,,,,,,,,,,,,,,,,,,,,,,,,,,,,,,,,,,,,,,,,,,,,,,,,,,,,,,,,,,,,,,,,,,,,,,,,,,,,,,,,,,
,,,,,,5eced9328405902eef967571,2024-05-13_08h43.31.765,group3.1-3.2-social-tom,2023.2.2,Win32,59.98440405,65c5074098b851296ff0b7ed,6642342381170c77603f6afd,,,,,,,,,,,68.4041,80.7815,space,12.3415,,[],[],[],[],[],[],0,0,0,0,1,,,,,,,,,,,,,,,,,,,,,,,,,,,,,,,,,,,,,,,,,,,,,,,,,,,,,,,,,,,,,,,,,,,,,,,,,,,,,,,,
,,,,,,5eced9328405902eef967571,2024-05-13_08h43.31.765,group3.1-3.2-social-tom,2023.2.2,Win32,59.98440405,65c5074098b851296ff0b7ed,6642342381170c77603f6afd,,,,,,,,,,,80.791,95.7787,space,14.848,,[],[],[],[],[],[],1,0,1,0,1,,,,,,,,,,,,,,,,,,,,,,,,,,,,,,,,,,,,,,,,,,,,,,,,,,,,,,,,,,,,,,,,,,,,,,,,,,,,,,,,
,,,,,,5eced9328405902eef967571,2024-05-13_08h43.31.765,group3.1-3.2-social-tom,2023.2.2,Win32,59.98440405,65c5074098b851296ff0b7ed,6642342381170c77603f6afd,,,,,,,,,,,95.7882,113.1611,space,17.3168,,[],[],[],[],[],[],2,0,2,0,1,,,,,,,,,,,,,,,,,,,,,,,,,,,,,,,,,,,,,,,,,,,,,,,,,,,,,,,,,,,,,,,,,,,,,,,,,,,,,,,,
,,,,,,5eced9328405902eef967571,2024-05-13_08h43.31.765,group3.1-3.2-social-tom,2023.2.2,Win32,59.98440405,65c5074098b851296ff0b7ed,6642342381170c77603f6afd,,,,,,,,,,,113.1855,134.0924,space,20.8643,,[],[],[],[],[],[],3,0,3,0,1,,,,,,,,,,,,,,,,,,,,,,,,,,,,,,,,,,,,,,,,,,,,,,,,,,,,,,,,,,,,,,,,,,,,,,,,,,,,,,,,
,,,,,,5eced9328405902eef967571,2024-05-13_08h43.31.765,group3.1-3.2-social-tom,2023.2.2,Win32,59.98440405,65c5074098b851296ff0b7ed,6642342381170c77603f6afd,,,,,,,,,,,134.1093,144.4414,space,10.3006,,[],[],[],[],[],[],4,0,4,0,1,,,,,,,,,,,,,,,,,,,,,,,,,,,,,,,,,,,,,,,,,,,,,,,,,,,,,,,,,,,,,,,,,,,,,,,,,,,,,,,,
,,,,,,5eced9328405902eef967571,2024-05-13_08h43.31.765,group3.1-3.2-social-tom,2023.2.2,Win32,59.98440405,65c5074098b851296ff0b7ed,6642342381170c77603f6afd,,,,,,,,,,,,,,,,,,,,,,,,,,,144.4585,147.0412,147.0764,1,audio/Narrative13Situation2.wav,149.0913,,149.0916,178.8733,"[[999,2],[999,115],[999,199],[999,282],[999,365],[999,448],[999,531],[999,615],[999,699],[999,783],[999,866],[999,949],[999,1033],[999,1116],[999,1199],[49.7,1284],[49.6,1366],[49.3,1449],[49.3,1532],[49.3,1615],[49.3,1699],[49.3,1782],[46.3,1866],[41.8,1949],[40.6,2032],[40.6,2116],[40.6,2199],[40.6,2282],[40.6,2366],[40.6,2448],[41.2,2532],[43,2616],[44.4,2699],[45.3,2783],[45.3,2865],[45.3,2949],[45.3,3032],[45.3,3116],[45.3,3199],[45.3,3282],[45.3,3366],[45.3,3449],[45.3,3532],[45.3,3616],[45.3,3699],[45.3,3783],[45.3,3865],[45.3,3949],[45.3,4032],[45.3,4116],[45.3,4199],[45.3,4282],[45.3,4366],[44.6,4449],[43.1,4534],[41.5,4615],[40.6,4699],[39.3,4782],[39,4865],[39,4948],[39,5032],[39,5116],[39,5198],[39,5282],[39,5365],[39,5448],[39,5532],[39,5615],[39,5698],[37.1,5782],[36.2,5866],[35.9,5948],[35.9,6032],[35.9,6115],[35.9,6198],[35.9,6281],[35.9,6364],[35.9,6448],[35.9,6532],[35.9,6615],[35.9,6698],[35.9,6782],[35.9,6865],[35.9,6949],[35.9,7031],[35.9,7115],[35.9,7198],[35.9,7282],[35.9,7365],[35.9,7448],[35.9,7531],[35.9,7615],[35.9,7699],[35.9,7781],[35.9,7865],[35.9,7948],[35.9,8032],[35.9,8116],[35.9,8198],[35.9,8281],[35.9,8364],[35.9,8448],[35.9,8532],[35.9,8614],[35.9,8698],[35.9,8781],[35.9,8865],[35.9,8948],[35.9,9032],[35.9,9115],[35.9,9198],[35.9,9281],[35.9,9365],[35.9,9448],[35.9,9531],[35.9,9614],[35.9,9698],[35.9,9781],[35.9,9865],[35.9,9948],[35.9,10031],[35.9,10115],[35.9,10198],[35.9,10281],[35.9,10364],[35.9,10448],[35.9,10531],[35.9,10615],[35.9,10697],[35.9,10782],[35.9,10865],[35.9,10947],[35.9,11030],[35.9,11115],[35.9,11198],[35.9,11281],[35.9,11365],[35.9,11448],[35.9,11532],[35.9,11615],[35.9,11698],[35.9,11781],[35.9,11864],[35.9,11948],[35.9,12031],[35.8,12115],[35.5,12198],[35.5,12281],[35.5,12365],[35.5,12447],[35.5,12531],[35.5,12615],[35.5,12697],[35.5,12781],[35.5,12865],[35.5,12948],[35.5,13032],[35.5,13114],[35.5,13198],[35.5,13281],[35.5,13364],[35.5,13447],[35.5,13531],[35.5,13615],[35.5,13697],[35.5,13781],[35.5,13865],[35.5,13947],[35.5,14031],[35.5,14114],[35.5,14198],[35.5,14281],[35.5,14364],[35.5,14447],[35.5,14531],[35.5,14614],[35.5,14698],[35.5,14781],[35.5,14864],[35.5,14948],[35.5,15031],[35.5,15114],[35.5,15198],[35.5,15281],[35.5,15364],[35.5,15448],[35.5,15531],[35.5,15614],[35.5,15698],[35.5,15781],[35.5,15865],[35.5,15948],[35.5,16031],[35.5,16114],[35.5,16197],[35.5,16281],[35.5,16364],[35.5,16448],[35.5,16530],[35.5,16614],[35.5,16698],[35.5,16781],[35.5,16863],[35.5,16947],[35.5,17030],[35.5,17114],[35.5,17197],[35.5,17281],[35.5,17365],[35.5,17447],[35.5,17531],[35.5,17614],[35.5,17698],[35.5,17780],[35.5,17865],[35.5,17948],[35.5,18031],[35.5,18114],[35.5,18197],[35.5,18280],[35.5,18363],[35.5,18448],[35.5,18530],[35.5,18614],[35.5,18697],[35.5,18780],[35.5,18864],[35.5,18948],[35.5,19031],[35.5,19114],[35.5,19197],[35.5,19280],[35.5,19364],[35.5,19446],[35.5,19531],[35.5,19614],[35.5,19697],[35.5,19780],[35.5,19864],[35.5,19947],[35.5,20031],[35.5,20113],[35.5,20197],[35.5,20281],[35.5,20364],[35.5,20447],[35.5,20530],[35.5,20614],[35.5,20697],[35.5,20781],[35.5,20864],[35.5,20948],[35.5,21031],[35.5,21113],[35.5,21196],[35.5,21281],[35.5,21364],[35.5,21447],[35.5,21530],[35.5,21614],[35.5,21696],[35.5,21781],[35.5,21864],[35.5,21947],[35.5,22031],[35.5,22114],[35.5,22198],[35.5,22281],[35.5,22363],[35.5,22447],[35.5,22531],[35.5,22614],[35.5,22698],[35.5,22780],[35.5,22864],[35.5,22947],[35.5,23031],[35.5,23113],[35.5,23196],[35.5,23280],[35.5,23363],[35.5,23447],[35.5,23530],[35.5,23613],[35.5,23696],[35.5,23781],[35.5,23863],[35.5,23948],[35.5,24031],[35.5,24114],[35.5,24196],[35.5,24281],[35.5,24364],[35.5,24447],[35.5,24529],[35.5,24614],[35.5,24698],[35.5,24781],[35.5,24864],[35.5,24946],[35.5,25030],[35.5,25113],[35.5,25197],[35.5,25279],[35.5,25364],[35.5,25447],[35.5,25529],[35.5,25613],[35.5,25696],[35.5,25780],[35.5,25864],[35.5,25947],[35.5,26030],[35.5,26114],[35.5,26197],[35.5,26280],[35.5,26365],[35.5,26446],[35.5,26530],[35.5,26614],[35.5,26696],[35.5,26780],[35.5,26863],[35.5,26947],[35.5,27031],[35.5,27113],[35.5,27197],[35.5,27280],[35.5,27363],[35.5,27446],[35.5,27530],[35.5,27613],[35.5,27697],[35.5,27780],[35.5,27863],[35.5,27947],[35.5,28029],[35.5,28113],[35.5,28196],[35.5,28280],[35.5,28363],[35.5,28447],[35.5,28529],[35.5,28613],[35.5,28696],[35.5,28780],[35.5,28863],[35.5,28946],[35.5,29030],[35.5,29113],[35.5,29196],[35.5,29280],[35.5,29363],[35.5,29447],[46.8,29530],[47.4,29614],[47.7,29696],[47.8,29780]]",1,0,178.8749,186.942,34.77306003,5.8166,"[{""rating"":34.773060029282576,""responseTime"":5.816599999904611}]",space,7.5332,,186.9424,Not at all,0,186.9473,,,[],,0,0,0,0,1,audio/Narrative13Situation2.wav,audio/Narrative13Situation2.wav,audio/Narrative13Situation2.wav,audio/Narrative13Situation2.wav,2,2,2,2,,,,,,,,,,,,,,,,,,,,,,,,,,,,,,,,,,,,,,,
,,,,,,5eced9328405902eef967571,2024-05-13_08h43.31.765,group3.1-3.2-social-tom,2023.2.2,Win32,59.98440405,65c5074098b851296ff0b7ed,6642342381170c77603f6afd,,,,,,,,,,,,,,,,,,,,,,,,,,,,,186.9475,1,audio/Narrative8Situation1.wav,189.323,space,189.3232,205.2737,"[[999,2],[999,86],[999,170],[999,248],[999,332],[999,416],[999,497],[999,584],[999,668],[999,752],[999,834],[999,918],[999,1001],[999,1085],[999,1169],[999,1253],[38.1,1334],[38.7,1419],[38.9,1501],[38.9,1584],[38.9,1668],[38.9,1753],[38.9,1834],[38.9,1920],[38.6,2002],[38.6,2085],[38.6,2169],[38.6,2252],[38.6,2335],[38.6,2417],[38.6,2502],[38.6,2585],[38.6,2669],[38.6,2751],[38.6,2835],[38.6,2918],[38.6,3000],[38.6,3084],[38.6,3167],[38.6,3246],[38.6,3334],[38.6,3417],[38.6,3497],[38.6,3582],[38.6,3666],[38.6,3750],[38.6,3831],[38.6,3917],[38.6,4002],[38.6,4081],[38.6,4167],[38.6,4251],[38.6,4334],[38.6,4417],[38.6,4501],[38.6,4584],[38.6,4667],[38.6,4750],[38.6,4834],[38.6,4917],[38.6,5001],[38.6,5083],[38.6,5169],[38.6,5251],[38.6,5335],[38.6,5418],[38.6,5499],[38.6,5584],[38.6,5667],[38.6,5751],[38.6,5834],[38.6,5917],[38.6,6000],[38.6,6085],[38.6,6165],[38.6,6250],[38.6,6333],[38.6,6417],[38.6,6497],[38.6,6584],[38.6,6667],[38.6,6750],[38.6,6833],[38.6,6916],[38.6,6998],[38.6,7085],[38.6,7168],[38.6,7250],[38.6,7334],[38.6,7419],[38.6,7498],[38.6,7586],[38.6,7669],[38.6,7751],[38.6,7834],[38.6,7918],[38.6,8000],[38.6,8085],[38.6,8168],[38.6,8253],[38.6,8333],[38.6,8417],[38.6,8500],[38.6,8582],[38.6,8666],[38.6,8750],[38.6,8833],[38.6,8915],[38.6,9000],[38.6,9083],[38.6,9168],[38.6,9251],[38.6,9336],[38.6,9416],[38.6,9500],[38.6,9581],[38.6,9664],[38.6,9748],[38.6,9831],[38.6,9915],[38.6,10000],[38.6,10083],[38.6,10167],[38.6,10250],[38.6,10332],[38.6,10417],[38.6,10496],[38.6,10583],[38.6,10663],[38.6,10748],[38.6,10832],[38.6,10917],[38.6,11001],[38.6,11083],[38.6,11167],[38.6,11250],[38.6,11334],[38.6,11417],[38.6,11504],[38.6,11583],[38.6,11667],[38.6,11750],[38.6,11835],[38.6,11918],[38.6,12002],[38.6,12084],[38.6,12169],[38.6,12252],[38.6,12333],[38.6,12417],[38.6,12500],[38.6,12584],[38.6,12666],[38.6,12750],[38.6,12833],[38.6,12917],[38.6,13000],[38.6,13083],[38.6,13167],[38.6,13251],[38.6,13333],[38.6,13417],[38.6,13500],[38.6,13584],[38.6,13668],[38.6,13747],[38.6,13833],[38.6,13917],[38.6,13998],[38.6,14080],[38.6,14167],[38.6,14250],[38.6,14333],[38.6,14416],[38.6,14499],[38.6,14579],[38.6,14666],[38.6,14750],[38.6,14833],[38.6,14916],[38.6,15001],[38.6,15085],[38.6,15168],[38.6,15250],[38.6,15334],[38.6,15416],[38.6,15501],[38.6,15584],[38.6,15663],[38.6,15749],[38.6,15833],[38.6,15913]]",1,0,205.274,210.7075,38.87262079,4.7303,"[{""rating"":38.872620790629576,""responseTime"":4.730300000190738}]",space,4.9108,,210.7077,All the time,100,210.713,,,[],,0,1,1,1,1,audio/Narrative7Situation1.wav,audio/Narrative8Situation1.wav,audio/Narrative5Situation1.wav,audio/Narrative6Situation1.wav,2,5,5,2,2.3582,,,,,,,,,,,,,,,,,,,,,,,,,,,,,,,,,,,,,,
,,,,,,5eced9328405902eef967571,2024-05-13_08h43.31.765,group3.1-3.2-social-tom,2023.2.2,Win32,59.98440405,65c5074098b851296ff0b7ed,6642342381170c77603f6afd,,,,,,,,,,,,,,,,,,,,,,,,,,,,,210.7134,1,audio/Narrative8Situation2.wav,213.7226,,213.7226,223.8389,"[[999,9],[39.8,83],[40,167],[40,247],[40,333],[40,416],[40,499],[40,580],[39.8,667],[38.4,751],[37.7,834],[37,917],[36.2,1000],[36.2,1083],[36.2,1162],[36.2,1249],[36.2,1330],[36.2,1416],[36.2,1498],[36.2,1580],[36.2,1668],[36.2,1745],[36.2,1830],[36.2,1913],[36.2,2000],[36.2,2082],[36.2,2164],[36.2,2246],[36.2,2332],[36.2,2417],[36.2,2501],[36.2,2584],[36.2,2668],[36.2,2749],[36.2,2833],[36.2,2916],[36.2,2999],[36.2,3083],[36.2,3166],[36.2,3250],[36.2,3333],[36.2,3416],[36.2,3496],[36.2,3582],[36.2,3663],[36.2,3749],[36.2,3832],[36.2,3916],[36.2,3999],[36.2,4083],[36.2,4166],[36.2,4249],[36.2,4330],[36.2,4416],[36.2,4499],[36.2,4583],[36.2,4663],[36.2,4748],[36.2,4832],[36.2,4914],[36.2,4999],[36.2,5083],[36.2,5163],[36.2,5249],[36.2,5332],[36.2,5413],[36.2,5499],[36.2,5579],[36.2,5665],[36.2,5750],[36.2,5834],[36.2,5913],[36.2,6001],[36.2,6080],[36.2,6165],[36.2,6250],[36.2,6332],[36.2,6416],[36.2,6500],[36.2,6583],[36.2,6665],[36.2,6746],[36.2,6830],[36.2,6918],[36.2,6996],[36.2,7082],[36.2,7165],[36.2,7246],[36.2,7332],[36.2,7412],[36.2,7499],[36.2,7579],[36.2,7670],[36.2,7749],[36.2,7833],[36.2,7916],[36.2,8000],[36.2,8079],[36.2,8163],[36.2,8246],[36.2,8334],[36.2,8415],[36.2,8499],[36.2,8580],[36.2,8662],[36.2,8746],[36.2,8832],[36.2,8913],[36.2,8997],[36.2,9083],[36.2,9165],[36.2,9246],[36.2,9335],[36.2,9416],[36.2,9499],[36.2,9582],[36.2,9663],[36.2,9749],[36.2,9832],[36.2,9915],[36.2,9998],[36.2,10082]]",1,0,223.8392,227.568,29.94143485,2.7946,"[{""rating"":29.941434846266468,""responseTime"":2.7945999999046194}]",space,3.1839,,227.5683,All the time,100,227.5717,,,[],,0,2,2,2,1,audio/Narrative7Situation2.wav,audio/Narrative8Situation2.wav,audio/Narrative5Situation2.wav,audio/Narrative6Situation2.wav,3,3,3,3,,,,,,,,,,,,,,,,,,,,,,,,,,,,,,,,,,,,,,,
,,,,,,5eced9328405902eef967571,2024-05-13_08h43.31.765,group3.1-3.2-social-tom,2023.2.2,Win32,59.98440405,65c5074098b851296ff0b7ed,6642342381170c77603f6afd,,,,,,,,,,,,,,,,,,,,,,,,,,,,,227.572,1,audio/Narrative8Situation3.wav,231.5849,,231.585,253.9665,"[[30.5,750],[30.8,833],[31.1,916],[31.4,999],[31.4,1082],[31.4,1165],[31.4,1250],[31.8,1332],[31.8,1416],[31.8,1498],[31.8,1583],[31.8,1666],[31.8,1749],[31.8,1833],[31.8,1915],[31.8,1998],[31.7,2081],[31.7,2166],[31.7,2248],[31.7,2333],[31.7,2415],[31.7,2498],[31.7,2581],[31.7,2666],[31.7,2749],[31.7,2832],[31.7,2916],[31.7,2999],[31.7,3081],[31.7,3165],[31.7,3249],[31.7,3332],[31.7,3416],[31.7,3499],[31.7,3582],[31.7,3666],[31.7,3749],[31.7,3832],[31.7,3916],[31.7,3999],[31.7,4082],[31.7,4165],[31.7,4250],[31.7,4333],[31.7,4416],[31.7,4499],[31.7,4583],[31.7,4665],[31.7,4749],[32.4,4832],[33.3,4915],[33.3,4998],[33.3,5082],[33.3,5166],[33.3,5249],[33.3,5332],[33.9,5416],[34,5499],[34,5581],[34,5665],[34,5748],[34,5832],[34,5915],[34,5999],[33.9,6083],[33.3,6166],[33,6248],[32.9,6331],[32.7,6415],[32.7,6498],[32.7,6582],[32.7,6664],[32.7,6749],[32.7,6832],[32.7,6915],[32.7,6998],[33.6,7083],[34,7165],[34.6,7249],[36.1,7333],[36.4,7416],[36.8,7498],[37.3,7582],[37.6,7666],[37.8,7749],[38.7,7832],[39.2,7915],[39.2,7999],[39.6,8082],[39.8,8164],[40,8249],[40.5,8333],[40.5,8415],[40.5,8499],[40.5,8582],[40.5,8665],[40.5,8749],[40.5,8832],[40.5,8915],[40.5,8998],[40.5,9082],[40.5,9165],[40.5,9249],[40.3,9332],[40,9416],[39.6,9500],[39.5,9582],[39.5,9666],[39.5,9748],[39.5,9832],[39.5,9915],[39.5,9998],[39.5,10081],[39.5,10164],[39.5,10248],[39.5,10331],[39.5,10415],[39.5,10499],[39.5,10582],[39.5,10666],[39.5,10749],[39.5,10832],[39.5,10914],[39.5,10999],[39.5,11082],[39.5,11164],[39.5,11248],[39.5,11332],[39.5,11415],[39.5,11498],[39.5,11582],[39.5,11664],[39.5,11748],[39.5,11831],[39.5,11915],[39.5,11998],[39.5,12081],[39.5,12165],[39.5,12247],[39.5,12331],[39.5,12415],[39.5,12498],[39.5,12582],[39.5,12664],[39.5,12748],[39.5,12831],[39.5,12914],[39.5,12998],[39.5,13081],[39.5,13165],[39.5,13248],[39.5,13332],[39.5,13415],[39.5,13498],[39.5,13581],[39.5,13665],[39.5,13747],[39.5,13832],[39.5,13915],[39.5,13998],[39.5,14082],[39.5,14164],[39.5,14248],[39.5,14332],[39.5,14414],[39.5,14499],[39.5,14581],[39.5,14665],[39.5,14748],[39.5,14832],[39.5,14915],[39.5,14998],[39.5,15081],[39.5,15164],[39.5,15247],[39.5,15332],[39.5,15415],[39.5,15498],[39.5,15582],[39.5,15665],[39.5,15749],[39.5,15831],[39.5,15915],[39.5,15997],[39.5,16081],[39.5,16165],[39.5,16248],[39.5,16331],[39.5,16414],[39.5,16498],[39.5,16581],[39.5,16665],[39.5,16748],[39.5,16832],[39.5,16915],[39.5,16998],[39.5,17081],[39.5,17164],[39.5,17248],[39.5,17332],[39.5,17415],[39.5,17498],[39.5,17582],[39.5,17664],[39.5,17748],[39.5,17831],[39.5,17915],[39.5,17997],[39.5,18080],[39.5,18164],[39.5,18247],[39.5,18331],[39.5,18414],[39.5,18497],[39.5,18581],[39.5,18664],[39.5,18748],[39.5,18831],[39.5,18915],[39.5,18997],[39.5,19081],[39.5,19164],[39.5,19248],[39.5,19332],[39.5,19415],[39.5,19497],[39.5,19581],[39.5,19664],[39.5,19748],[39.5,19831],[39.5,19915],[39.5,19998],[39.5,20081],[39.5,20165],[39.5,20247],[39.5,20331],[39.5,20415],[39.5,20498],[39.9,20581],[40,20665],[40.3,20748],[40.3,20831],[40.3,20915],[40.3,20998],[40.3,21080],[40.3,21164],[40.3,21248],[40.3,21331],[40.3,21414],[40.3,21498],[40.3,21581],[40.3,21663],[40.3,21748],[40.3,21832],[40.3,21914],[40.3,21998],[39.8,22081],[39.2,22165],[38.4,22247],[38.4,22330]]",1,0,253.967,256.2168,40.33674963,1.9363,"[{""rating"":40.33674963396779,""responseTime"":1.9363000001907267}]",space,1.7098,,256.2168,Half the time,50,256.2207,,,[],,0,3,3,3,1,audio/Narrative7Situation3.wav,audio/Narrative8Situation3.wav,audio/Narrative5Situation3.wav,audio/Narrative6Situation3.wav,8,4,3,5,,,,,,,,,,,,,,,,,,,,,,,,,,,,,,,,,,,,,,,
,,,,,,5eced9328405902eef967571,2024-05-13_08h43.31.765,group3.1-3.2-social-tom,2023.2.2,Win32,59.98440405,65c5074098b851296ff0b7ed,6642342381170c77603f6afd,,,,,,,,,,,,,,,,,,,,,,,,,,,,,256.2209,1,audio/Narrative8Situation4.wav,259.2331,,259.2336,273.421,"[[40.5,1251],[40.6,1337],[40.6,1420],[40.6,1502],[40.6,1586],[40.6,1668],[40.6,1752],[40.6,1832],[40.6,1918],[40.6,2002],[40.6,2086],[40.6,2169],[40.6,2252],[40.6,2332],[40.6,2419],[40.6,2502],[40.6,2586],[41.1,2665],[41.7,2748],[41.7,2831],[42.2,2922],[42.2,3003],[42.2,3088],[42.2,3165],[42.2,3249],[42.2,3334],[42.2,3420],[42.2,3499],[42.2,3586],[42.2,3668],[42.2,3752],[42.2,3834],[42.2,3918],[42.2,4002],[42.2,4087],[42.2,4168],[42.2,4251],[42.2,4334],[42.2,4418],[42.2,4503],[42.2,4584],[42.2,4669],[42.2,4752],[42.2,4834],[42.2,4915],[43.1,5002],[43.4,5085],[43.4,5164],[43.7,5251],[43.7,5336],[43.7,5419],[43.7,5502],[43.7,5582],[43.7,5668],[43.7,5752],[43.7,5835],[43.7,5918],[44.1,5999],[44.6,6082],[44.6,6169],[44.6,6253],[44.6,6337],[44.6,6419],[44.9,6505],[45,6586],[45.3,6671],[45.8,6754],[45.8,6831],[45.8,6918],[45.8,7001],[45.9,7087],[46,7170],[46,7252],[46,7336],[46.3,7419],[46.3,7501],[46.3,7585],[46.3,7665],[46.3,7751],[46.5,7834],[46.6,7918],[46.6,8002],[46.6,8085],[46.6,8168],[46.6,8251],[46.6,8334],[46.6,8418],[46.6,8501],[46.6,8587],[46.6,8667],[46.6,8751],[46.6,8836],[46.6,8919],[46.6,9003],[46.6,9085],[46.6,9168],[46.6,9251],[46.6,9334],[46.6,9417],[46.6,9498],[46.6,9584],[46.6,9668],[46.6,9750],[46.6,9832],[46.6,9916],[46.6,10000],[46.6,10086],[46.6,10168],[46.6,10252],[46.6,10334],[46.6,10415],[46.6,10499],[46.6,10584],[46.6,10668],[46.6,10751],[46.6,10834],[46.6,10916],[46.6,11001],[46.6,11082],[46.6,11169],[46.6,11252],[46.6,11334],[46.6,11418],[46.6,11501],[46.6,11584],[46.6,11664],[46.6,11751],[46.6,11834],[46.6,11917],[46.6,12001],[46.6,12082],[46.6,12168],[46.6,12251],[46.6,12334],[46.8,12418],[47.2,12501],[47.8,12586],[48.2,12669],[49.4,12754],[49.7,12836],[49.7,12919],[49.7,13002],[49.7,13084],[49.7,13169],[49.7,13253],[49.7,13339],[49.7,13417],[49.7,13497],[49.7,13584],[49.7,13665],[49.7,13750],[49.7,13836],[49.7,13917],[49.7,14002],[49.7,14084],[49.7,14171]]",1,0,273.4216,276.4158,49.70717423,2.9922,"[{""rating"":49.70717423133236,""responseTime"":2.9921999998092588}]",space,1.2568,,276.4159,Half the time,50,283.9007,49.85358712,5.9018,"[{""rating"":49.85358711566617,""responseTime"":5.901800000190747}]",space,0,4,4,4,1,audio/Narrative7Situation4.wav,audio/Narrative8Situation4.wav,audio/Narrative5Situation4.wav,audio/Narrative6Situation4.wav,3,3,1,2,,,6.9336,,,,,,,,,,,,,,,,,,,,,,,,,,,,,,,,,,,,
,,,,,,5eced9328405902eef967571,2024-05-13_08h43.31.765,group3.1-3.2-social-tom,2023.2.2,Win32,59.98440405,65c5074098b851296ff0b7ed,6642342381170c77603f6afd,,,,,,,,,,,,,,,,,,,,,,,,,,,,,283.901,1,audio/Narrative8Situation5.wav,285.9155,,285.9156,294.1649,"[[46.2,1269],[45.6,1352],[45.5,1437],[45.5,1520],[45.5,1597],[45.5,1687],[45.5,1769],[45.5,1850],[45.5,1934],[45.5,2019],[45.5,2098],[45.5,2185],[45.5,2269],[45.5,2354],[45.5,2435],[45.5,2519],[45.5,2599],[45.5,2684],[45.5,2764],[45.5,2851],[45.5,2934],[45.5,3018],[45.5,3101],[45.5,3184],[45.5,3267],[45.5,3351],[45.5,3434],[45.5,3514],[45.5,3599],[45.5,3681],[44.9,3770],[44.7,3848],[44.1,3934],[43.9,4019],[43.6,4098],[43.4,4185],[42.7,4268],[42.7,4351],[42.7,4434],[42.7,4515],[42.7,4598],[42.7,4681],[42.7,4767],[42.7,4852],[42.7,4936],[42.7,5014],[42.7,5100],[42.7,5186],[42.7,5268],[42.7,5351],[42.7,5435],[42.7,5514],[42.7,5602],[42.7,5685],[42.7,5763],[42.7,5851],[42.7,5935],[42.7,6020],[42.7,6101],[42.7,6180],[42.7,6265],[42.7,6350],[42.7,6434],[42.7,6516],[42.7,6598],[42.7,6681],[42.7,6767],[42.7,6850],[42.7,6935],[42.7,7018],[42.7,7104],[42.7,7184],[42.7,7267],[42.7,7350],[42.7,7432],[42.7,7518],[42.7,7598],[42.7,7685],[42.7,7769],[42.7,7851],[42.7,7935],[43.1,8032],[43.4,8115],[44,8198]]",1,0,294.1657,298.6299,50.14641288,3.6,"[{""rating"":50.14641288433383,""responseTime"":3.599999999999966}]",space,3.9263,,298.63,All the time,100,298.6341,,,[],,0,5,5,5,1,audio/Narrative7Situation5.wav,audio/Narrative8Situation5.wav,audio/Narrative5Situation5.wav,audio/Narrative6Situation5.wav,5,2,5,2,,,,,,,,,,,,,,,,,,,,,,,,,,,,,,,,,,,,,,,
,,,,,,5eced9328405902eef967571,2024-05-13_08h43.31.765,group3.1-3.2-social-tom,2023.2.2,Win32,59.98440405,65c5074098b851296ff0b7ed,6642342381170c77603f6afd,,,,,,,,,,,,,,,,,,,,,,,,,,,,,298.6343,1,audio/Narrative8Situation6.wav,300.6459,,300.6461,307.1293,"[[49.3,1001],[48.7,1083],[48.5,1166],[47.2,1250],[46.5,1333],[46,1416],[44.1,1500],[44,1583],[44,1667],[44,1750],[44,1833],[43,1918],[43,2001],[43,2083],[43,2166],[43,2249],[43,2333],[43,2416],[42.5,2500],[42.1,2582],[41.4,2666],[41.4,2749],[41.4,2833],[41.4,2916],[41.4,3000],[41.4,3083],[41.4,3166],[41.4,3250],[41.4,3332],[41.4,3416],[41.4,3500],[41.4,3584],[41.4,3666],[41.4,3750],[41.5,3833],[41.9,3916],[42.2,4000],[42.2,4083],[42.5,4166],[42.8,4249],[42.8,4333],[42.8,4416],[42.8,4499],[43,4583],[43.6,4665],[43.6,4749],[43.6,4832],[44.7,4916],[48.7,5000],[51.8,5083],[52,5166],[52,5252],[52.5,5332],[52.5,5416],[52.5,5499],[52.5,5583],[52.5,5665],[52.5,5749],[52.5,5832],[52.5,5916],[52.5,5999],[52.5,6083],[52.5,6166],[52.5,6249],[52.5,6333],[52.5,6415]]",1,0,307.1295,309.046,52.34260615,1.4445,"[{""rating"":52.342606149341144,""responseTime"":1.444500000000005}]",space,1.3717,,309.0461,All the time,100,309.049,,,[],,0,6,6,6,1,audio/Narrative7Situation6.wav,audio/Narrative8Situation6.wav,audio/Narrative5Situation6.wav,audio/Narrative6Situation6.wav,3,2,3,2,,,,,,,,,,,,,,,,,,,,,,,,,,,,,,,,,,,,,,,
,,,,,,5eced9328405902eef967571,2024-05-13_08h43.31.765,group3.1-3.2-social-tom,2023.2.2,Win32,59.98440405,65c5074098b851296ff0b7ed,6642342381170c77603f6afd,,,,,,,,,,,,,,,,,,,,,,,,,,,,,309.0493,1,audio/Narrative8Situation7.wav,312.0617,,312.0623,324.1615,"[[50.6,833],[48.8,916],[48.8,999],[48.8,1082],[48.8,1166],[48.7,1249],[48.1,1332],[46.8,1417],[46.2,1500],[45.9,1582],[45.9,1666],[45.9,1750],[45.9,1833],[45.9,1917],[45.9,2000],[45.9,2082],[45.9,2165],[45.9,2250],[45.9,2332],[45.9,2416],[45.9,2499],[45.9,2582],[45.9,2665],[45.9,2749],[45.9,2832],[45.9,2917],[45.9,2999],[45.9,3082],[45.9,3166],[45.9,3248],[45.9,3332],[45.9,3415],[45.9,3499],[45.9,3582],[45.9,3666],[45.9,3749],[45.9,3832],[45.9,3915],[45.9,3998],[45.9,4083],[45.9,4165],[45.9,4248],[45.9,4332],[45.9,4418],[45.9,4500],[45.9,4583],[45.9,4665],[45.9,4749],[45.9,4832],[45.9,4916],[45.9,4999],[45.9,5082],[45.9,5165],[45.9,5248],[45.9,5331],[45.9,5416],[45.9,5499],[45.9,5581],[45.9,5665],[45.9,5750],[45.9,5832],[45.9,5915],[45.9,5998],[45.9,6082],[45.9,6165],[45.9,6249],[45.9,6332],[45.9,6416],[45.9,6499],[45.9,6582],[45.9,6665],[45.9,6748],[45.9,6832],[45.9,6914],[45.9,6999],[45.9,7082],[45.9,7166],[45.9,7249],[45.9,7331],[45.9,7415],[45.9,7498],[45.9,7583],[45.9,7664],[45.9,7749],[46.5,7832],[46.5,7915],[46.6,7999],[46.8,8081],[46.8,8165],[46.8,8249],[46.8,8331],[46.8,8415],[46.8,8499],[46.8,8582],[46.8,8666],[46.8,8748],[46.8,8832],[46.5,8916],[46.3,8999],[46,9082],[45.8,9165],[45.8,9248],[45,9332],[44.9,9414],[44.9,9498],[44.9,9581],[44.9,9664],[44.9,9748],[44.9,9832],[44.9,9915],[44.9,9998],[44.9,10082],[44.9,10165],[44.9,10249],[44.9,10332],[44.9,10415],[44.9,10498],[44.9,10582],[44.9,10664],[44.9,10748],[44.9,10832],[44.9,10915],[44.9,10998],[45,11082],[45.3,11165],[45.5,11248],[45.6,11332],[45.9,11414],[45.9,11498],[45.9,11582],[45.9,11665],[45.9,11749],[45.9,11832],[45.9,11914],[45.9,11998],[45.9,12081]]",1,0,324.1617,328.061,47.07174231,2.3875,"[{""rating"":47.071742313323576,""responseTime"":2.3874999999999886}]",space,3.3685,,328.0612,All the time,100,328.0651,,,[],,0,7,7,7,1,audio/Narrative7Situation7.wav,audio/Narrative8Situation7.wav,audio/Narrative5Situation7.wav,audio/Narrative6Situation7.wav,5,3,4,5,,,,,,,,,,,,,,,,,,,,,,,,,,,,,,,,,,,,,,,
,,,,,,5eced9328405902eef967571,2024-05-13_08h43.31.765,group3.1-3.2-social-tom,2023.2.2,Win32,59.98440405,65c5074098b851296ff0b7ed,6642342381170c77603f6afd,,,,,,,,,,,,,,,,,,,,,,,,,,,,,328.0656,1,audio/Narrative8Situation8.wav,331.0783,,331.0783,343.9435,"[[46.8,1082],[46.5,1166],[46.2,1249],[46,1333],[46,1415],[46,1498],[46,1582],[46,1665],[46,1748],[46,1833],[46,1915],[46,1999],[46,2081],[46,2165],[46,2248],[46,2331],[46,2415],[46,2498],[46,2581],[46,2665],[46,2749],[46,2833],[46,2915],[46,2997],[46,3081],[46,3165],[46,3248],[46,3332],[46,3415],[46,3499],[46,3582],[46,3665],[46,3748],[46,3832],[46,3915],[46,3997],[46,4082],[46,4164],[46,4248],[46,4332],[46,4416],[46,4498],[46,4582],[46,4665],[46,4747],[46,4832],[46,4914],[46,4998],[46,5082],[46,5164],[46,5248],[45.6,5332],[45.6,5415],[45.6,5498],[45.3,5581],[45.3,5664],[45.3,5747],[45.3,5832],[44.7,5915],[44.7,5998],[44.7,6082],[44.7,6166],[44.7,6248],[44.7,6331],[44.7,6414],[44.7,6498],[44.7,6582],[44.7,6665],[44.7,6748],[44.7,6831],[44.7,6915],[44.7,6998],[44.7,7081],[44.7,7165],[44.7,7247],[44.7,7332],[44.7,7415],[44.7,7498],[44.7,7581],[44.7,7665],[44.7,7748],[44.7,7831],[44.7,7914],[44.7,7998],[44.7,8081],[44.7,8165],[44.7,8248],[44.7,8331],[44.7,8415],[44.7,8498],[44.7,8581],[44.7,8665],[44.7,8748],[44.7,8831],[44.7,8915],[44.7,8998],[44.7,9082],[44.7,9165],[44.7,9248],[44.7,9331],[44.7,9415],[44.7,9500],[44.7,9581],[44.7,9665],[44.7,9748],[44.7,9831],[44.7,9915],[44.7,9999],[44.7,10081],[44.7,10164],[44.7,10247],[44.7,10331],[44.7,10414],[44.7,10498],[44.7,10581],[44.7,10665],[44.7,10747],[44.7,10832],[44.7,10914],[44.7,10998],[44.7,11082],[44.7,11164],[44.7,11248],[44.7,11331],[44.7,11414],[44.7,11498],[44.7,11582],[44.7,11664],[44.7,11748],[44.7,11831],[44.7,11914],[44.7,11997],[44.7,12081],[44.7,12164],[44.7,12247],[44.7,12331],[44.7,12414],[44.7,12498],[44.7,12581],[44.7,12665],[44.7,12748],[44.7,12830]]",1,0,343.9437,347.1601,44.72913616,1.8708,"[{""rating"":44.72913616398243,""responseTime"":1.8707999997138813}]",space,2.6777,,347.1607,All the time,100,347.1683,,,[],,0,8,8,8,1,audio/Narrative7Situation8.wav,audio/Narrative8Situation8.wav,audio/Narrative5Situation8.wav,audio/Narrative6Situation8.wav,2,3,3,5,,,,,,,,,,,,,,,,,,,,,,,,,,,,,,,,,,,,,,,
,,,,,,5eced9328405902eef967571,2024-05-13_08h43.31.765,group3.1-3.2-social-tom,2023.2.2,Win32,59.98440405,65c5074098b851296ff0b7ed,6642342381170c77603f6afd,,,,,,,,,,,,,,,,,,,,,,,,,,,,,347.1694,1,audio/Narrative8Situation9.wav,350.1753,,350.1756,361.5084,"[[45,1084],[45,1166],[45.2,1250],[45.2,1332],[45.2,1416],[45.2,1500],[45.2,1583],[45.2,1666],[45.2,1749],[45.2,1833],[44.6,1917],[44.1,2000],[44.1,2084],[44.1,2166],[44.1,2250],[44.1,2334],[44.1,2416],[44.1,2499],[44.1,2583],[44.1,2666],[44.1,2750],[44.1,2833],[44.1,2916],[44.1,2999],[44.1,3084],[44.1,3165],[44.1,3249],[44.1,3332],[44.1,3417],[44.1,3499],[44.1,3583],[44.1,3666],[44.1,3749],[44.1,3833],[44.1,3916],[44.1,4000],[44.1,4083],[44.1,4166],[44.1,4250],[44.1,4333],[44.1,4416],[44.1,4499],[44.1,4582],[44.1,4666],[44.1,4749],[44.1,4833],[44.1,4916],[44.1,4999],[44.1,5083],[44.1,5166],[44.1,5250],[44.1,5333],[44.1,5417],[44.1,5499],[44.1,5582],[44.1,5667],[44.1,5749],[44.1,5833],[44.1,5915],[44.1,5998],[44.1,6083],[44.1,6166],[44.1,6250],[44.1,6332],[44.1,6415],[44.1,6500],[44.1,6583],[44.1,6666],[43.4,6766],[42.5,6850],[42.5,6934],[42.5,7016],[42.5,7099],[42.5,7183],[42.5,7266],[42.5,7349],[42.5,7432],[42.5,7516],[42.5,7599],[42.7,7683],[43,7767],[43.3,7850],[43.4,7933],[44.1,8016],[44.4,8099],[44.4,8182],[44.4,8266],[44.4,8348],[44.4,8433],[44.4,8515],[44.4,8599],[44.4,8682],[44.4,8766],[44.4,8850],[44.4,8933],[44.4,9016],[44.4,9099],[44.4,9182],[44.4,9266],[43.9,9349],[43.6,9433],[43.1,9515],[42.5,9598],[42.5,9683],[42.5,9765],[42.5,9848],[42.5,9931],[42.5,10015],[43,10102],[43.3,10182],[43.3,10265],[43.4,10348],[43.4,10433],[43.7,10516],[43.7,10599],[44.3,10683],[44.4,10765],[44.4,10849],[44.4,10932],[44.4,11016],[44.4,11099],[44.4,11182],[44.4,11266]]",1,0,361.5087,364.3246,47.65739385,2.0093,"[{""rating"":47.657393850658856,""responseTime"":2.0093000001907626}]",space,2.2844,,364.325,Half the time,50,364.3332,,,[],,0,9,9,9,1,audio/Narrative7Situation9.wav,audio/Narrative8Situation9.wav,audio/Narrative5Situation9.wav,audio/Narrative6Situation9.wav,2,3,3,4,,,,,,,,,,,,,,,,,,,,,,,,,,,,,,,,,,,,,,,
,,,,,,5eced9328405902eef967571,2024-05-13_08h43.31.765,group3.1-3.2-social-tom,2023.2.2,Win32,59.98440405,65c5074098b851296ff0b7ed,6642342381170c77603f6afd,,,,,,,,,,,,,,,,,,,,,,,,,,,,,364.3339,1,audio/Narrative7Situation1.wav,366.3418,,366.3419,422.2385,"[[47.5,833],[46.6,915],[46.5,1000],[45.9,1083],[45.9,1166],[45.9,1249],[45.2,1332],[44.3,1417],[43.7,1499],[43.6,1582],[43,1666],[43,1748],[42.4,1833],[42.4,1915],[42.4,1999],[42.4,2082],[42.4,2165],[42.4,2249],[42.4,2333],[42.4,2415],[42.4,2500],[42.4,2582],[42.4,2665],[42.4,2749],[42.4,2832],[42.4,2916],[42.4,2999],[42.4,3082],[42.4,3165],[42.4,3249],[42.4,3332],[42.4,3415],[42.4,3498],[42.4,3582],[42.4,3665],[42.4,3749],[42.4,3832],[42.4,3915],[42.4,3998],[42.4,4082],[42.4,4166],[42.4,4249],[42.4,4332],[42.4,4415],[42.4,4499],[42.4,4582],[42.4,4665],[42.4,4748],[42.4,4831],[42.4,4915],[42.4,4998],[42.4,5081],[42.4,5166],[42.4,5249],[42.4,5332],[42.4,5415],[42.4,5499],[42.4,5582],[42.4,5665],[42.4,5749],[42.4,5832],[42.4,5916],[42.4,6000],[42.4,6082],[42.4,6165],[42.4,6248],[42.4,6331],[42.4,6415],[42.4,6499],[42.4,6582],[42.4,6666],[42.4,6748],[42.4,6832],[42.4,6914],[42.4,6998],[42.4,7082],[42.4,7165],[42.4,7248],[42.4,7331],[42.4,7416],[42.4,7499],[42.4,7581],[42.4,7665],[42.4,7749],[42.4,7832],[42.4,7915],[42.4,7998],[42.4,8082],[42.4,8164],[42.4,8248],[42.4,8332],[42.4,8414],[42.4,8498],[42.4,8582],[42.4,8664],[42.4,8747],[42.4,8832],[42.4,8915],[42.4,8998],[42.4,9081],[42.4,9165],[42.4,9249],[42.4,9332],[42.4,9414],[42.4,9497],[42.4,9582],[42.4,9664],[42.4,9747],[42.4,9832],[42.4,9914],[42.4,9998],[42.4,10081],[42.4,10164],[42.4,10247],[43,10349],[43.4,10431],[43.7,10515],[43.7,10598],[43.7,10681],[43.7,10766],[43.7,10848],[43.7,10932],[43.7,11014],[43.7,11099],[43.7,11181],[43.7,11265],[43.7,11348],[43.7,11432],[43.7,11515],[43.7,11598],[43.7,11682],[43.7,11764],[43.7,11848],[43.7,11932],[43.7,12015],[43.7,12098],[43.7,12182],[43.7,12265],[43.7,12348],[43.7,12431],[43.7,12514],[43.7,12599],[43.7,12682],[43.7,12765],[43.7,12848],[43.7,12933],[43.7,13015],[43.7,13098],[43.7,13181],[43.7,13265],[43.7,13347],[43.7,13432],[43.7,13515],[43.7,13598],[43.7,13681],[43.7,13764],[43.7,13848],[43.7,13932],[43.7,14014],[43.7,14097],[43.7,14181],[43.7,14265],[43.7,14348],[43.7,14431],[43.7,14514],[43.7,14598],[43.7,14680],[43.7,14764],[43.7,14848],[43.7,14932],[43.7,15015],[43.7,15098],[43.7,15181],[43.7,15265],[43.7,15348],[43.7,15430],[43.7,15515],[43.7,15597],[43.7,15681],[43.7,15764],[43.7,15847],[43.7,15930],[43.7,16014],[43.7,16097],[43.7,16181],[43.7,16265],[43.7,16348],[43.7,16431],[43.7,16514],[43.7,16598],[43.7,16681],[43.7,16764],[43.7,16848],[43.7,16932],[43.7,17015],[43.7,17098],[42.8,17182],[42.4,17265],[42.2,17348],[42.2,17431],[42.2,17515],[42.2,17598],[42.2,17681],[42.2,17765],[42.2,17848],[42.2,17931],[42.2,18014],[42.2,18098],[42.2,18182],[42.2,18265],[42.5,18347],[43,18431],[43,18514],[43,18597],[43,18681],[43,18764],[43,18848],[43,18931],[43,19014],[43,19098],[43,19182],[43,19264],[43,19348],[43,19431],[43,19514],[43,19598],[43,19682],[43,19764],[43,19848],[43,19931],[43,20014],[43,20098],[43,20181],[43,20265],[43,20347],[43,20430],[43,20515],[43,20597],[43,20680],[43,20764],[43,20848],[43,20931],[43,21014],[43,21097],[43,21182],[43,21264],[43,21348],[43,21430],[43,21514],[43,21598],[43,21681],[43,21764],[43,21848],[43,21930],[43,22014],[43,22097],[43,22181],[43,22263],[43,22346],[43,22430],[43,22514],[43,22597],[43,22681],[43,22763],[43,22846],[43,22931],[43,23014],[43,23097],[43,23180],[43,23264],[43,23347],[43,23431],[43,23513],[43,23597],[43,23681],[43,23763],[43,23847],[43,23930],[43,24014],[43,24097],[43,24180],[43,24263],[43,24347],[43,24430],[43,24513],[43,24598],[43,24680],[43,24764],[43,24848],[43,24930],[43,25014],[43,25101],[43,25180],[43,25264],[43,25348],[43,25431],[43,25514],[43,25596],[43,25680],[43,25763],[43,25847],[43,25931],[43,26015],[43,26097],[43,26181],[43,26264],[43,26347],[43,26430],[43,26514],[43,26597],[43,26680],[43,26764],[43,26848],[43,26931],[43,27014],[43,27097],[43,27181],[43,27264],[43,27347],[43,27430],[43.3,27514],[43.7,27597],[43.9,27680],[43.9,27764],[43.9,27847],[43.9,27930],[43.9,28013],[43.9,28097],[43.9,28180],[43.9,28263],[43.9,28347],[43.9,28430],[43.9,28514],[43.9,28596],[43.9,28681],[43.9,28764],[43.9,28846],[43.9,28931],[43.9,29013],[43.9,29097],[43.9,29180],[43.9,29263],[43.9,29347],[43.9,29431],[43.9,29513],[43.9,29597],[43.9,29680],[43.9,29763],[43.9,29846],[43.9,29930],[43.9,30013],[43.9,30097],[43.9,30180],[43.9,30263],[43.9,30346],[43.9,30430],[43.9,30514],[43.9,30597],[43.9,30680],[43.9,30764],[43.9,30846],[43.9,30930],[43.9,31012],[43.9,31098],[43.9,31180],[43.9,31263],[43.9,31347],[43.9,31429],[43.9,31513],[43.9,31597],[43.9,31680],[43.9,31763],[43.9,31847],[43.9,31930],[43.9,32014],[43.9,32098],[43.9,32180],[43.9,32264],[43.9,32346],[43.9,32430],[43.9,32513],[43.9,32598],[43.9,32680],[43.9,32763],[43.9,32846],[43.9,32930],[43.9,33012],[43.9,33096],[43.9,33180],[43.9,33263],[43.9,33348],[43.9,33431],[43.9,33514],[43.9,33597],[43.9,33680],[43.9,33763],[43.9,33847],[43.9,33930],[43.9,34012],[43.9,34096],[43.9,34180],[43.9,34263],[43.9,34345],[43.9,34429],[43.9,34513],[43.9,34596],[43.9,34680],[43.9,34762],[43.9,34847],[43.9,34930],[43.9,35012],[43.9,35096],[43.9,35179],[43.9,35262],[43.9,35346],[43.9,35429],[43.9,35512],[43.9,35595],[43.9,35679],[43.9,35762],[43.9,35847],[43.9,35930],[43.9,36013],[43.9,36096],[43.9,36180],[43.9,36263],[43.9,36346],[43.9,36429],[43.9,36514],[43.9,36596],[43.9,36680],[43.9,36763],[43.9,36847],[43.9,36930],[43.9,37013],[43.9,37097],[44.6,37180],[44.6,37263],[45.8,37347],[47.2,37429],[49.1,37514],[49.7,37597],[51.9,37680],[53.2,37763],[54,37848],[54.7,37929],[54.7,38012],[54.7,38096],[54.7,38178],[54.7,38263],[54.7,38346],[54.7,38430],[54.7,38513],[54.7,38596],[54.7,38680],[54.7,38763],[54.7,38847],[54.7,38930],[54.7,39013],[54.7,39096],[54.7,39180],[54.7,39262],[54.7,39345],[54.7,39429],[54.7,39513],[54.7,39595],[54.7,39679],[54.7,39762],[54.7,39845],[54.7,39930],[54.7,40013],[54.7,40097],[54.7,40179],[54.7,40262],[54.7,40346],[54.7,40430],[54.7,40512],[54.7,40596],[54.7,40679],[54.7,40762],[54.7,40846],[54.7,40929],[54.7,41012],[54.7,41095],[54.7,41179],[54.7,41263],[55,41345],[55.3,41429],[55.3,41512],[55.6,41596],[55.6,41680],[55.6,41762],[55.6,41846],[55.6,41929],[55.6,42012],[55.6,42096],[55.6,42178],[55.6,42262],[55.6,42346],[55.6,42429],[55.6,42513],[56.1,42597],[56.6,42680],[56.7,42763],[57,42846],[58.1,42929],[58.1,43012],[58.1,43096],[58.1,43179],[58.1,43262],[58.1,43346],[58.1,43428],[58.1,43512],[58.1,43596],[58.3,43681],[59.4,43763],[59.5,43845],[59.5,43929],[59.5,44012],[60.2,44096],[60.4,44179],[60.4,44262],[60.4,44345],[60.4,44429],[61,44513],[61.1,44596],[61.4,44679],[61.4,44763],[61.4,44846],[61.4,44929],[61.4,45012],[61.4,45095],[61.4,45179],[61.4,45262],[61.4,45346],[61.4,45428],[61.4,45512],[61.4,45596],[61.4,45679],[61.4,45764],[61.4,45846],[61.4,45929],[61.4,46012],[61.4,46096],[61.4,46178],[61.4,46262],[61.4,46345],[61.4,46429],[61.4,46513],[61.4,46596],[61.4,46679],[61.4,46761],[61.4,46845],[61.4,46928],[61.4,47012],[61.4,47095],[61.4,47178],[61.4,47262],[61.4,47345],[61.4,47428],[61.4,47512],[61.4,47595],[61.4,47680],[61.4,47763],[61.4,47846],[61.4,47929],[61.4,48012],[61.4,48095],[61.4,48178],[61.4,48261],[61.4,48345],[61.4,48429],[61.4,48511],[61.4,48596],[61.4,48679],[61.4,48762],[61.4,48845],[61.4,48928],[61.4,49012],[61.4,49095],[61.4,49178],[61.4,49261],[61.4,49345],[61.4,49430],[61.4,49512],[61.4,49595],[61.4,49679],[61.4,49762],[62.3,49846],[62.3,49928],[62.3,50012],[62.3,50095],[62.3,50178],[62.3,50263],[62.3,50346],[62.3,50428],[62.3,50512],[62.3,50595],[62.3,50679],[62.3,50762],[62.3,50845],[62.3,50928],[62.3,51011],[62.3,51095],[62.3,51178],[62.3,51262],[62.3,51345],[62.3,51429],[62.3,51512],[62.3,51596],[62.3,51678],[62.3,51761],[62.3,51846],[62.3,51929],[62.3,52012],[62.3,52095],[62.3,52178],[62.3,52262],[62.3,52345],[62.3,52428],[62.3,52512],[62.3,52594],[62.3,52678],[62.3,52762],[62.3,52845],[62.3,52929],[62.3,53012],[62.3,53096],[62.3,53178],[62.3,53262],[62.3,53346],[62.3,53429],[62.3,53512],[62.3,53595],[62.3,53678],[62.3,53762],[62.3,53846],[62.3,53928],[62.3,54011],[62.3,54095],[62.3,54179],[62.3,54261],[62.3,54345],[62.3,54428],[62.3,54511],[62.3,54595],[62.3,54678],[62.3,54761],[62.3,54845],[62.3,54928],[62.3,55012],[62.3,55095],[62.3,55178],[62.3,55261],[62.3,55344],[62.3,55428],[62.3,55512],[62.3,55595],[62.3,55679],[62.3,55762],[62.3,55845]]",1,0,422.2394,426.0209,62.88433382,2.2944,"[{""rating"":62.88433382137628,""responseTime"":2.2944000000953224}]",space,3.2333,,426.021,Not at all,0,426.025,,,[],,0,10,10,10,1,audio/Narrative8Situation1.wav,audio/Narrative7Situation1.wav,audio/Narrative6Situation1.wav,audio/Narrative5Situation1.wav,5,2,2,5,,,,,,,,,,,,,,,,,,,,,,,,,,,,,,,,,,,,,,,
,,,,,,5eced9328405902eef967571,2024-05-13_08h43.31.765,group3.1-3.2-social-tom,2023.2.2,Win32,59.98440405,65c5074098b851296ff0b7ed,6642342381170c77603f6afd,,,,,,,,,,,,,,,,,,,,,,,,,,,,,426.0253,1,audio/Narrative7Situation2.wav,429.0364,,429.0367,436.503,"[[61.6,1084],[60.8,1168],[59.1,1250],[59.1,1333],[59.1,1415],[59.1,1499],[59.1,1582],[59.1,1666],[59.8,1750],[61,1833],[61.6,1916],[61.6,2000],[61.6,2083],[61.6,2166],[61.6,2250],[61.6,2332],[61.6,2416],[61.6,2499],[61.6,2582],[61.6,2666],[61.6,2749],[61.6,2833],[61.6,2916],[61.6,2999],[61.6,3082],[61.6,3165],[61.6,3250],[61.6,3332],[61.6,3416],[61.6,3499],[61.6,3582],[61.6,3665],[61.6,3750],[61.6,3833],[61.6,3916],[61.6,4000],[61.6,4083],[61.6,4166],[61.6,4249],[61.6,4333],[61.6,4416],[61.6,4499],[61.6,4583],[61.6,4666],[61.6,4749],[61.6,4832],[61.9,4916],[62.3,5000],[63,5083],[63.8,5166],[63.8,5249],[63.8,5333],[63.8,5415],[63.8,5498],[63.8,5583],[63.6,5665],[63,5749],[62.9,5833],[62.7,5915],[62.4,5999],[62.4,6083],[62.2,6166],[62.2,6249],[62.2,6332],[61.7,6415],[61.7,6499],[61.7,6582],[61.7,6666],[61.7,6748],[61.7,6832],[61.7,6916],[61.7,7000],[61.7,7082],[61.7,7166],[61.7,7248],[61.7,7332],[61.7,7416]]",1,0,436.5032,438.852,60.10248902,1.4303,"[{""rating"":60.102489019033676,""responseTime"":1.4302999997138954}]",space,1.8263,,438.8521,Not at all,0,438.8552,,,[],,0,11,11,11,1,audio/Narrative8Situation2.wav,audio/Narrative7Situation2.wav,audio/Narrative6Situation2.wav,audio/Narrative5Situation2.wav,3,3,3,3,,,,,,,,,,,,,,,,,,,,,,,,,,,,,,,,,,,,,,,
,,,,,,5eced9328405902eef967571,2024-05-13_08h43.31.765,group3.1-3.2-social-tom,2023.2.2,Win32,59.98440405,65c5074098b851296ff0b7ed,6642342381170c77603f6afd,,,,,,,,,,,,,,,,,,,,,,,,,,,,,438.8555,1,audio/Narrative7Situation3.wav,446.8699,,446.8699,456.1382,"[[58.5,770],[59.4,854],[59.7,937],[59.7,1016],[59.7,1099],[59.7,1182],[59.7,1271],[59.7,1353],[59.4,1438],[58.9,1519],[58.5,1602],[58.2,1683],[57.9,1766],[57.5,1849],[57.5,1931],[57.5,2018],[57.5,2101],[57.5,2186],[57.5,2265],[57.5,2348],[57.5,2436],[57.8,2520],[58.3,2603],[58.5,2686],[58.5,2770],[58.5,2851],[58.6,2933],[58.6,3014],[58.6,3102],[58.6,3185],[58.6,3270],[58.6,3353],[58.6,3433],[58.6,3519],[58.6,3599],[58.6,3684],[58.6,3767],[58.6,3851],[58.6,3932],[58.5,4019],[58.5,4102],[58.3,4186],[58.3,4265],[58.3,4349],[58.3,4432],[58.3,4519],[58.3,4598],[58.3,4686],[58.3,4765],[58.3,4851],[58.3,4932],[58.3,5019],[58.3,5099],[58.3,5185],[58.3,5266],[58.3,5353],[58.3,5436],[58.3,5520],[58.3,5600],[58.3,5681],[58.3,5771],[58.3,5851],[58.3,5932],[58.3,6015],[58.3,6101],[58.3,6182],[58.3,6268],[58.3,6352],[58.3,6435],[58.3,6519],[58.3,6602],[58.3,6686],[58.3,6770],[58.3,6851],[58.3,6935],[58.3,7017],[58.3,7101],[58.3,7184],[58.3,7265],[58.3,7347],[58.3,7435],[58.3,7518],[58.3,7602],[58.3,7685],[58.3,7768],[58.3,7848],[58.3,7936],[58.3,8014],[58.3,8101],[58.3,8181],[58.3,8265],[58.3,8351],[58.3,8431],[58.3,8515],[58.3,8601],[58.3,8684],[58.3,8768],[58.3,8851],[58.3,8931],[58.3,9018],[58.3,9101],[56.4,9194],[56.1,9268]]",1,0,456.1383,459.4179,50.43923865,2.0195,"[{""rating"":50.43923865300146,""responseTime"":2.0194999999999936}]",space,2.7354,,459.4179,Not at all,0,459.421,,,[],,0,12,12,12,1,audio/Narrative8Situation3.wav,audio/Narrative7Situation3.wav,audio/Narrative6Situation3.wav,audio/Narrative5Situation3.wav,4,8,5,3,,,,,,,,,,,,,,,,,,,,,,,,,,,,,,,,,,,,,,,
,,,,,,5eced9328405902eef967571,2024-05-13_08h43.31.765,group3.1-3.2-social-tom,2023.2.2,Win32,59.98440405,65c5074098b851296ff0b7ed,6642342381170c77603f6afd,,,,,,,,,,,,,,,,,,,,,,,,,,,,,459.4212,1,audio/Narrative7Situation4.wav,462.4343,,462.4344,474.1502,"[[50.9,833],[51.3,915],[51.8,999],[52,1082],[52.3,1166],[52.6,1249],[52.6,1332],[52.6,1416],[52.6,1500],[53.4,1584],[53.8,1667],[53.8,1749],[53.8,1833],[53.8,1916],[53.8,2000],[53.8,2083],[53.8,2165],[53.8,2249],[53.8,2332],[53.8,2415],[53.8,2500],[53.8,2582],[53.8,2666],[53.8,2749],[53.8,2833],[53.8,2915],[53.8,3000],[53.8,3083],[53.8,3166],[53.8,3249],[53.8,3333],[53.8,3415],[53.8,3499],[53.8,3582],[54.5,3667],[54.5,3751],[54.5,3833],[54.5,3915],[54.5,3999],[54.5,4082],[54.5,4166],[54.5,4248],[54.4,4332],[54.1,4416],[54,4500],[53.7,4583],[53.5,4665],[53.2,4749],[53.2,4832],[53.2,4915],[52.9,4999],[52.9,5082],[52.9,5165],[52.9,5250],[52.9,5331],[52.9,5415],[52.9,5498],[52.9,5582],[52.9,5665],[52.9,5749],[52.9,5831],[52.9,5916],[52.9,5999],[52.9,6082],[52.9,6165],[52.9,6248],[52.9,6333],[52.9,6416],[52.9,6499],[52.9,6582],[52.9,6666],[52.9,6749],[52.9,6832],[52.9,6916],[52.9,6999],[52.9,7081],[52.9,7165],[52.9,7248],[52.9,7332],[52.9,7416],[52.9,7498],[52.9,7582],[52.9,7664],[52.9,7748],[52.9,7831],[52.9,7916],[52.9,7999],[52.9,8083],[52.9,8166],[52.9,8249],[52.9,8332],[52.9,8415],[52.9,8499],[52.9,8582],[52.9,8665],[53.1,8749],[53.5,8832],[53.8,8915],[53.8,8998],[54.1,9082],[54.1,9165],[54.1,9249],[54.1,9333],[54.1,9415],[54.1,9499],[54.1,9581],[55.3,9666],[56,9749],[56.9,9833],[58.6,9916],[59.2,9999],[59.5,10082],[59.5,10166],[59.5,10248],[59.5,10332],[59.5,10414],[59.5,10498],[59.5,10582],[60.2,10665],[61.7,10749],[61.7,10831],[61.7,10915],[61.7,10999],[61.7,11082],[61.7,11165],[61.7,11249],[61.6,11332],[61.6,11414],[61.6,11499],[61.6,11582],[61.6,11666]]",1,0,474.1505,476.2165,61.85944363,1.3755,"[{""rating"":61.85944363103953,""responseTime"":1.3754999999999882}]",space,1.519,,476.2165,Half the time,50,476.2211,,,[],,0,13,13,13,1,audio/Narrative8Situation4.wav,audio/Narrative7Situation4.wav,audio/Narrative6Situation4.wav,audio/Narrative5Situation4.wav,3,3,2,1,,,,,,,,,,,,,,,,,,,,,,,,,,,,,,,,,,,,,,,
,,,,,,5eced9328405902eef967571,2024-05-13_08h43.31.765,group3.1-3.2-social-tom,2023.2.2,Win32,59.98440405,65c5074098b851296ff0b7ed,6642342381170c77603f6afd,,,,,,,,,,,,,,,,,,,,,,,,,,,,,476.2214,1,audio/Narrative7Situation5.wav,481.2332,,481.2332,489.7326,"[[62,1833],[62,1917],[62.2,1999],[62.2,2082],[62.2,2165],[62.2,2249],[62.2,2333],[61.7,2416],[61.3,2500],[60.5,2582],[60.5,2666],[60.5,2749],[60.5,2832],[60.5,2916],[60.5,2999],[60.5,3083],[60.5,3166],[60.5,3249],[60.5,3332],[60.5,3416],[60.5,3498],[60.5,3581],[60.5,3665],[60.5,3748],[60.5,3831],[60.5,3915],[60.5,3999],[60.5,4081],[60.5,4166],[60.5,4248],[60.5,4332],[60.5,4415],[60.5,4499],[60.5,4581],[60.5,4666],[60.5,4748],[60.5,4832],[60.5,4915],[60.5,4999],[60.5,5082],[61,5165],[61.3,5249],[61.6,5332],[62.4,5416],[62.6,5498],[62.6,5582],[62.6,5666],[62.6,5748],[62.6,5832],[62.4,5915],[61.9,5999],[61.6,6082],[61.6,6164],[61.6,6249],[61.6,6332],[61.9,6415],[62.2,6499],[62.9,6582],[63.3,6665],[63.6,6749],[64.3,6832],[65.1,6915],[65.1,6998],[65.7,7082],[65.7,7165],[65.7,7249],[65.8,7332],[65.8,7415],[66.1,7499],[66.1,7582],[66.1,7665],[66.3,7749],[66.5,7832],[66.5,7915],[66.5,7999],[66.5,8082],[66.5,8165],[66.5,8249],[66.5,8332],[66.5,8415],[66.5,8498]]",1,0,489.7327,492.1331,66.54465593,1.0729,"[{""rating"":66.54465592972181,""responseTime"":1.0729000000953874}]",space,1.8548,,492.1332,Half the time,50,492.1378,,,[],,0,14,14,14,1,audio/Narrative8Situation5.wav,audio/Narrative7Situation5.wav,audio/Narrative6Situation5.wav,audio/Narrative5Situation5.wav,2,5,2,5,,,,,,,,,,,,,,,,,,,,,,,,,,,,,,,,,,,,,,,
,,,,,,5eced9328405902eef967571,2024-05-13_08h43.31.765,group3.1-3.2-social-tom,2023.2.2,Win32,59.98440405,65c5074098b851296ff0b7ed,6642342381170c77603f6afd,,,,,,,,,,,,,,,,,,,,,,,,,,,,,492.1382,1,audio/Narrative7Situation6.wav,495.1478,,495.1481,505.1317,"[[66.3,1083],[66.1,1166],[66.1,1250],[66.1,1333],[66.1,1416],[66.1,1500],[66.1,1583],[66.1,1666],[66.1,1751],[66.1,1834],[66.1,1916],[66.3,2001],[66.5,2084],[66.5,2167],[66.5,2249],[66.5,2333],[66.5,2418],[66.5,2500],[66.5,2582],[66.5,2665],[66.5,2749],[66.5,2833],[66.5,2916],[66.5,3001],[66.5,3083],[66.5,3166],[66.5,3250],[66.5,3333],[66.5,3416],[66.5,3500],[66.5,3583],[66.5,3665],[66.5,3750],[66.5,3833],[66.5,3916],[66.5,4000],[66.5,4083],[66.5,4167],[66.5,4250],[66.5,4333],[66.5,4417],[66.5,4499],[66.5,4583],[66.5,4666],[66.5,4749],[66.5,4833],[66.5,4916],[66.5,5000],[66.5,5083],[66.5,5167],[66.5,5249],[66.5,5334],[66.5,5417],[66.5,5499],[66.5,5583],[66.5,5666],[66.5,5749],[66.5,5832],[66.1,5916],[65.7,5999],[65.5,6084],[65.5,6166],[65.5,6249],[65.5,6333],[65.5,6416],[66.1,6500],[66.5,6582],[66.8,6667],[67.1,6750],[67.4,6832],[67.4,6915],[67.4,7000],[67.4,7083],[67.4,7166],[67.4,7248],[67.4,7332],[67.4,7415],[67.4,7499],[67.4,7583],[67.4,7666],[67.4,7749],[67.4,7832],[67.1,7916],[66.7,8000],[66.1,8083],[65.7,8167],[65.7,8250],[65.1,8334],[64.9,8416],[64.9,8500],[64.9,8583],[64.9,8666],[64.9,8750],[64.9,8833],[64.9,8917],[64.9,8999],[64.8,9083],[64.1,9166],[63.5,9249],[63.5,9333],[63.5,9416],[63.5,9500],[63.5,9582],[63.5,9666],[63.5,9749],[63.5,9832],[63.5,9916]]",1,0,505.132,506.9649,63.46998536,1.0724,"[{""rating"":63.46998535871157,""responseTime"":1.0723999996185967}]",space,1.2842,,506.965,Half the time,50,506.9703,,,[],,0,15,15,15,1,audio/Narrative8Situation6.wav,audio/Narrative7Situation6.wav,audio/Narrative6Situation6.wav,audio/Narrative5Situation6.wav,2,3,2,3,,,,,,,,,,,,,,,,,,,,,,,,,,,,,,,,,,,,,,,
,,,,,,5eced9328405902eef967571,2024-05-13_08h43.31.765,group3.1-3.2-social-tom,2023.2.2,Win32,59.98440405,65c5074098b851296ff0b7ed,6642342381170c77603f6afd,,,,,,,,,,,,,,,,,,,,,,,,,,,,,506.9708,1,audio/Narrative7Situation7.wav,511.9808,,511.9808,529.1628,"[[64.2,833],[64.8,916],[64.8,998],[64.8,1082],[64.8,1166],[64.8,1249],[64.8,1333],[64.8,1416],[64.8,1499],[64.8,1582],[64.8,1667],[64.8,1750],[64.8,1833],[64.8,1916],[64.8,1998],[64.8,2081],[64.8,2166],[64.8,2249],[64.8,2332],[64.8,2416],[64.8,2499],[64.8,2583],[64.8,2667],[64.8,2749],[64.8,2833],[64.8,2916],[64.8,2998],[64.8,3082],[64.8,3165],[64.8,3249],[64.8,3333],[64.8,3415],[64.8,3499],[64.8,3582],[64.8,3665],[64.8,3749],[64.8,3832],[64.8,3916],[64.8,3998],[64.8,4082],[64.5,4165],[64.3,4249],[64.2,4332],[64.1,4416],[64.1,4498],[64.1,4583],[64.1,4666],[64.1,4749],[64.1,4833],[64.1,4917],[64.1,4999],[64.1,5082],[64.1,5165],[64.1,5248],[64.1,5333],[64.1,5415],[64.2,5499],[64.5,5583],[64.9,5665],[65.5,5749],[65.8,5831],[66.5,5916],[67.1,5999],[67.1,6082],[67.1,6166],[67.1,6249],[67.1,6333],[67.1,6415],[67.1,6499],[67.1,6582],[67,6666],[66.7,6750],[66,6833],[65.7,6916],[65.7,7002],[65.4,7082],[65.4,7165],[65.4,7248],[65.4,7332],[65.4,7415],[64.8,7499],[64.8,7582],[64.8,7665],[64.8,7749],[64.8,7832],[64.8,7915],[64.8,7999],[64.2,8082],[64.1,8166],[63.5,8248],[63.5,8333],[63.5,8416],[63.5,8498],[63.5,8582],[63.5,8665],[63.5,8748],[63.6,8833],[63.8,8918],[63.9,8998],[64.1,9082],[64.2,9165],[64.3,9250],[64.5,9331],[64.5,9415],[64.5,9499],[64.5,9583],[64.5,9666],[64.5,9748],[64.5,9832],[64.5,9915],[64.5,9999],[64.5,10082],[64.5,10166],[64.5,10249],[64.5,10332],[64.2,10415],[64.1,10499],[63.6,10582],[63.2,10665],[63,10748],[63,10832],[62.9,10916],[62.9,10999],[62.9,11082],[62.9,11166],[62.9,11248],[62.9,11332],[62.9,11416],[62.9,11498],[62.9,11582],[62.9,11665],[62.9,11748],[62.9,11831],[62.9,11914],[62.9,11998],[62.9,12082],[62.9,12165],[62.9,12248],[62.9,12331],[62.9,12415],[62.9,12499],[62.9,12582],[62.9,12664],[62.9,12748],[62.9,12832],[62.9,12914],[62.9,12998],[62.9,13082],[62.9,13164],[62.9,13249],[62.9,13332],[62.9,13415],[62.9,13498],[62.9,13582],[62.9,13664],[62.9,13748],[62.9,13831],[62.9,13916],[62.9,13998],[63.2,14082],[63.8,14165],[63.9,14248],[64.1,14332],[64.1,14414],[64.2,14499],[64.3,14582],[64.5,14665],[64.5,14748],[64.5,14831],[64.5,14914],[64.5,14998],[64.5,15082],[64.5,15164],[64.5,15247],[64.5,15331],[64.5,15415],[64.5,15499],[64.5,15582],[64.5,15664],[64.5,15748],[64.5,15831],[64.5,15915],[64.5,15999],[64.5,16081],[64.5,16165],[64.5,16248],[64.5,16332],[64.5,16415],[64.5,16497],[64.5,16581],[64.5,16664],[64.5,16749],[64.3,16832],[64.2,16914],[64.2,16998],[63.9,17081],[63.9,17165]]",1,0,529.1631,531.8292,62.73792094,1.6558,"[{""rating"":62.73792093704246,""responseTime"":1.6558000001907658}]",space,2.1289,,531.8295,Half the time,50,531.8344,,,[],,0,16,16,16,1,audio/Narrative8Situation7.wav,audio/Narrative7Situation7.wav,audio/Narrative6Situation7.wav,audio/Narrative5Situation7.wav,3,5,5,4,,,,,,,,,,,,,,,,,,,,,,,,,,,,,,,,,,,,,,,
,,,,,,5eced9328405902eef967571,2024-05-13_08h43.31.765,group3.1-3.2-social-tom,2023.2.2,Win32,59.98440405,65c5074098b851296ff0b7ed,6642342381170c77603f6afd,,,,,,,,,,,,,,,,,,,,,,,,,,,,,531.8351,1,audio/Narrative7Situation8.wav,533.8457,,533.8457,543.8795,"[[63.3,834],[63.6,917],[64.3,1000],[64.3,1083],[64.3,1167],[64.3,1250],[64.3,1333],[64.3,1416],[64.3,1499],[64.3,1583],[64.3,1666],[64.3,1749],[64.3,1833],[64.3,1916],[64.3,1999],[64.3,2083],[64.3,2166],[64.3,2250],[64.3,2332],[64.3,2416],[64.3,2499],[64.3,2582],[64.3,2665],[64.3,2749],[64.3,2832],[64.3,2917],[64.3,2999],[64.3,3082],[64.3,3166],[64.3,3250],[64.3,3333],[64.3,3416],[64.3,3499],[64.3,3583],[64.3,3665],[64.3,3749],[64.3,3832],[64.3,3915],[64.3,3999],[64.3,4082],[64.3,4165],[64.3,4249],[64.3,4332],[64.3,4415],[64.3,4499],[64.3,4582],[64.3,4665],[64.3,4749],[65.2,4837],[65.8,4919],[66.7,5002],[66.7,5083],[66.7,5165],[66.7,5252],[66.7,5332],[66.7,5419],[66.7,5503],[66.7,5585],[66.7,5666],[66.7,5752],[66.7,5832],[66.7,5919],[66.7,6002],[66.7,6087],[66.7,6170],[66.7,6253],[66.7,6332],[66.7,6420],[66.7,6503],[66.7,6588],[66.7,6666],[66.7,6753],[66.7,6835],[66.7,6918],[66.7,7002],[66.7,7083],[66.7,7166],[66.7,7252],[66.7,7333],[66.7,7419],[66.7,7503],[66.7,7583],[66.7,7667],[66.7,7754],[66.7,7836],[66.7,7916],[66.7,7999],[66.7,8085],[66.4,8169],[65.8,8252],[65.7,8331],[65.4,8420],[65.4,8504],[65.4,8586],[65.4,8668],[65.4,8755],[65.4,8837],[65.4,8919],[65.4,8998],[65.1,9082],[65.1,9169],[65.1,9252],[65.1,9332],[64.8,9419],[63.6,9504],[63,9587],[62.4,9670],[62,9753],[62,9836],[62,9919],[61.1,10003]]",1,0,543.8797,546.2615,59.51683748,1.1985,"[{""rating"":59.516837481698396,""responseTime"":1.1984999999999673}]",space,1.8399,,546.2616,All the time,100,546.2655,,,[],,0,17,17,17,1,audio/Narrative8Situation8.wav,audio/Narrative7Situation8.wav,audio/Narrative6Situation8.wav,audio/Narrative5Situation8.wav,3,2,5,3,,,,,,,,,,,,,,,,,,,,,,,,,,,,,,,,,,,,,,,
,,,,,,5eced9328405902eef967571,2024-05-13_08h43.31.765,group3.1-3.2-social-tom,2023.2.2,Win32,59.98440405,65c5074098b851296ff0b7ed,6642342381170c77603f6afd,,,,,,,,,,,,,,,,,,,,,,,,,,,,,546.2657,1,audio/Narrative7Situation9.wav,548.2778,,548.2779,556.8952,"[[60.5,833],[60.7,918],[60.7,999],[60.7,1082],[60.8,1165],[60.8,1249],[60.8,1333],[60.8,1416],[60.8,1499],[60.8,1583],[60.8,1666],[60.8,1749],[60.8,1833],[60.8,1915],[60.8,1999],[60.8,2082],[60.8,2165],[60.8,2250],[60.8,2332],[60.8,2415],[60.8,2499],[60.8,2582],[60.8,2666],[60.8,2750],[60.8,2833],[60.8,2916],[60.8,2998],[60.8,3083],[60.8,3166],[60.8,3248],[60.8,3333],[60.8,3416],[60.8,3499],[60.8,3583],[60.8,3666],[60.8,3749],[60.8,3832],[60.8,3916],[60.8,3999],[60.8,4082],[60.8,4166],[60.8,4249],[60.8,4332],[60.8,4416],[60.8,4499],[61.3,4582],[61.4,4665],[61.4,4749],[61.6,4833],[61.6,4915],[62,5000],[62.2,5082],[62.2,5167],[62.9,5249],[62.9,5332],[63.6,5416],[64.1,5499],[65.4,5583],[65.7,5665],[65.7,5749],[65.7,5832],[65.7,5916],[65.7,5999],[65.7,6082],[65.7,6165],[65.7,6249],[65.7,6331],[65.8,6416],[66.1,6498],[66.3,6583],[67,6665],[67,6750],[67.3,6832],[67.3,6916],[67.3,7000],[67.3,7082],[67.3,7166],[67.3,7248],[67.3,7332],[67.3,7416],[67.3,7498],[67.3,7582],[67.3,7665],[67.3,7750],[67.3,7832],[67.3,7916],[67.3,7999],[67.3,8083],[67.3,8166],[67.3,8249],[67.3,8332],[67.3,8416],[67,8499],[66.1,8582]]",1,0,556.8955,559.1604,65.81259151,1.17,"[{""rating"":65.8125915080527,""responseTime"":1.1700000000000728}]",space,1.7254,,559.1605,Not at all,0,559.1645,,,[],,0,18,18,18,1,audio/Narrative8Situation9.wav,audio/Narrative7Situation9.wav,audio/Narrative6Situation9.wav,audio/Narrative5Situation9.wav,3,2,4,3,,,,,,,,,,,,,,,,,,,,,,,,,,,,,,,,,,,,,,,
,,,,,,5eced9328405902eef967571,2024-05-13_08h43.31.765,group3.1-3.2-social-tom,2023.2.2,Win32,59.98440405,65c5074098b851296ff0b7ed,6642342381170c77603f6afd,,,,,,,,,,,,,,,,,,,,,,,,,,,593.1358,595.7078,595.7176,2,audio/Narrative13Situation2.wav,595.7178,,595.7178,625.4726,"[[64.3,3673],[62.4,3755],[62.4,3839],[62.4,3923],[62.4,4005],[62.4,4089],[62.4,4173],[62.4,4255],[62.4,4338],[62.4,4421],[62.4,4506],[62.4,4589],[62.4,4672],[62.4,4756],[62.4,4838],[62.4,4922],[62.4,5006],[62.4,5089],[62.4,5172],[62.4,5256],[62.4,5339],[62.7,5423],[62.9,5505],[63.2,5589],[63.2,5672],[63.2,5755],[63.2,5839],[63.2,5922],[63.2,6005],[63.2,6089],[63.2,6172],[63.2,6256],[63.2,6340],[63.2,6422],[63.2,6504],[63,6589],[62.6,6672],[62.2,6756],[61.7,6838],[61.7,6923],[61.7,7006],[61.7,7089],[61.7,7172],[61.7,7256],[61.7,7339],[61.7,7422],[61.7,7506],[61.7,7589],[61.7,7671],[61.7,7755],[61.7,7839],[61.7,7922],[61.7,8006],[61.7,8089],[61.9,8172],[62.2,8255],[62.2,8338],[62.4,8423],[62.4,8505],[62.4,8589],[62.4,8673],[62.7,8755],[62.7,8838],[62.7,8922],[62.7,9006],[62.7,9089],[62.7,9172],[62.7,9255],[62.7,9339],[62.7,9422],[63.5,9505],[63.9,9589],[63.9,9672],[63.9,9755],[63.9,9838],[63.9,9922],[63.9,10006],[63.9,10089],[63.9,10173],[63.9,10255],[63.9,10339],[63.9,10421],[63.9,10506],[63.8,10589],[63.2,10672],[62.9,10754],[62.6,10838],[62.3,10922],[61.9,11005],[61.9,11089],[61.9,11172],[61.9,11255],[61.9,11338],[61.6,11422],[61,11504],[61,11588],[59.5,11672],[57.5,11755],[55.6,11839],[55.3,11922],[55.3,12005],[54.1,12089],[52.5,12172],[51,12256],[50,12339],[48.1,12422],[47.1,12505],[46.5,12588],[45.5,12672],[44.6,12755],[44.3,12839],[44,12922],[43,13006],[43,13088],[42.1,13172],[41.5,13255],[41.5,13338],[41.1,13422],[41.1,13506],[41.1,13588],[41.1,13671],[41.1,13755],[41.1,13838],[41.1,13922],[41.1,14004],[41.1,14088],[41.1,14171],[41.1,14254],[41.1,14338],[39.3,14422],[38,14506],[37.6,14589],[36.7,14671],[35.7,14755],[35.5,14838],[35.1,14922],[35.1,15004],[35.1,15088],[35.1,15172],[34.5,15255],[33.7,15339],[33.6,15422],[33.6,15505],[33.6,15588],[33.6,15672],[33.6,15755],[33.6,15838],[33.6,15921],[33.6,16005],[33.6,16088],[33.6,16172],[33.6,16255],[33.6,16338],[33.6,16422],[33.6,16505],[33.6,16587],[33.6,16671],[33.6,16755],[33.6,16839],[33.6,16921],[33.6,17005],[33.6,17088],[33.6,17171],[33.6,17255],[33.6,17338],[33.6,17422],[33.6,17504],[33.6,17588],[33.6,17671],[33.6,17755],[33.6,17838],[33.6,17922],[33.6,18005],[33.6,18089],[33.6,18171],[33.6,18255],[33.6,18337],[33.6,18422],[33.6,18504],[33.6,18589],[33.6,18672],[33.6,18754],[33.6,18837],[33.6,18921],[33.6,19004],[33.6,19091],[33.6,19171],[33.6,19255],[33.6,19337],[33.6,19421],[33.6,19504],[33.6,19588],[33.6,19671],[33.6,19755],[33.6,19838],[33.6,19921],[33.6,20005],[33.6,20087],[33.6,20172],[33.6,20254],[33.7,20345],[33.7,20422],[33.7,20505],[33.7,20588],[33.7,20670],[33.7,20755],[33.7,20837],[33.7,20920],[33.7,21004],[33.7,21088],[33.7,21172],[33.7,21254],[33.7,21337],[33.7,21421],[33.7,21504],[33.7,21588],[33.7,21671],[33.7,21755],[33.7,21838],[33.7,21922],[33.7,22005],[33.7,22088],[33.7,22171],[33.3,22254],[32.1,22338],[32.1,22422],[31.6,22504],[31.4,22587],[31.4,22670],[31.4,22754],[31.4,22838],[31.4,22921],[31.4,23005],[31.4,23088],[29.6,23171],[28.6,23254],[28.6,23338],[28.6,23421],[28.6,23505],[28.6,23588],[28.6,23670],[28.6,23754],[28.6,23838],[28.6,23921],[28.6,24005],[28.6,24088],[28.6,24171],[28.6,24254],[28.6,24337],[28.6,24421],[28.6,24504],[28.6,24587],[28.6,24671],[28.6,24754],[28.6,24838],[28.6,24921],[28.6,25003],[28.6,25087],[28.6,25171],[28.6,25254],[28.6,25337],[28.6,25420],[28.6,25504],[28.6,25587],[28.6,25670],[28.6,25754],[28.6,25837],[28.6,25921],[28.6,26004],[28.6,26088],[28.6,26171],[28.6,26254],[28.6,26337],[28.6,26420],[28.6,26503],[28.6,26587],[28.6,26671],[28.6,26753],[28.6,26837],[28.6,26920],[28.6,27004],[28.6,27087],[28.6,27171],[28.6,27254],[28.6,27338],[28.6,27422],[28.6,27503],[28.6,27587],[28.6,27670],[28.6,27753],[28.6,27836],[28.6,27920],[28.6,28004],[28.6,28087],[28.6,28171],[28.6,28254],[28.6,28337],[28.6,28421],[28.6,28504],[28.6,28586],[28.6,28670],[28.6,28754],[28.6,28837],[28.6,28921],[28.6,29004],[28.6,29088],[28.6,29170],[28.6,29254],[28.6,29337],[28.6,29421],[28.6,29504],[28.6,29587],[28.6,29670],[28.6,29754]]",1,0,625.4728,625.4837,,,[],,,,625.4837,Not at all,0,625.4849,,,[],,0,0,0,0,1,audio/Narrative13Situation2.wav,audio/Narrative13Situation2.wav,audio/Narrative13Situation2.wav,audio/Narrative13Situation2.wav,2,2,2,2,,,,,559.1653,593.126,space,33.4315,,,,,,,,,,,,,,,,,,,,,,,,,,,,,,,
,,,,,,5eced9328405902eef967571,2024-05-13_08h43.31.765,group3.1-3.2-social-tom,2023.2.2,Win32,59.98440405,65c5074098b851296ff0b7ed,6642342381170c77603f6afd,,,,,,,,,,,,,,,,,,,,,,,,,,,,,625.4852,2,audio/Narrative6Situation1.wav,627.4882,,627.4884,654.0702,"[[29.2,933],[29.5,1018],[29.5,1100],[29.5,1182],[29.5,1266],[29.5,1350],[29.5,1433],[29.5,1516],[29.6,1600],[29.8,1682],[29.9,1766],[29.9,1849],[29.9,1933],[29.9,2016],[29.9,2099],[29.9,2183],[30.2,2266],[30.7,2349],[31.6,2433],[33.6,2517],[34.8,2601],[34.8,2683],[34.8,2766],[34.8,2849],[34.8,2933],[34.8,3016],[34.9,3100],[32.7,3433],[32.1,3517],[31.4,3600],[31.1,3682],[31.1,3765],[31.1,3850],[31.1,3933],[31.1,4016],[32.9,4100],[34.8,4185],[34.8,4266],[34.8,4349],[34.8,4433],[34.8,4515],[34.8,4600],[34.8,4683],[34.8,4766],[34.8,4850],[34.8,4933],[34.8,5016],[34.8,5099],[34.8,5182],[34.8,5266],[34.8,5349],[34.8,5433],[34.8,5516],[34.8,5600],[34.8,5682],[34.8,5766],[34.8,5849],[36.1,5933],[37.4,6015],[37.4,6099],[37.4,6182],[37.4,6266],[37.4,6349],[37.4,6432],[37.4,6516],[37.4,6599],[37.4,6682],[37.4,6765],[37.4,6850],[37.4,6932],[37.4,7016],[37.4,7100],[37.4,7183],[37.4,7266],[37.4,7350],[37.4,7432],[37.4,7516],[37.4,7599],[37.4,7683],[37.4,7766],[37.4,7849],[37.4,7933],[37.4,8015],[34.9,8099],[33.2,8182],[32.9,8265],[32.9,8349],[32.9,8432],[32.9,8516],[33.6,8600],[34.5,8683],[34.8,8766],[34.8,8849],[34.8,8933],[34.8,9016],[34.8,9099],[34.8,9183],[34.8,9266],[34.8,9349],[34.8,9432],[34.8,9516],[34.8,9599],[34.8,9682],[34.8,9765],[34.8,9849],[34.8,9933],[34.8,10015],[34.8,10100],[34.8,10182],[34.8,10266],[34.8,10350],[34.8,10432],[34.8,10515],[34.8,10599],[34.8,10682],[34.8,10766],[34.8,10849],[34.8,10932],[34.8,11015],[34.8,11100],[34.8,11182],[34.8,11266],[34.8,11349],[34.8,11434],[34.8,11516],[34.8,11599],[34.8,11682],[34.8,11765],[34.8,11849],[34.8,11932],[34.8,12015],[34.8,12100],[34.8,12182],[34.8,12266],[34.8,12348],[34.8,12432],[34.8,12516],[34.8,12599],[34.8,12682],[34.8,12766],[34.8,12848],[34.8,12932],[34.8,13015],[34.8,13099],[34.8,13183],[34.8,13265],[34.8,13349],[34.8,13433],[34.8,13515],[34.8,13599],[34.8,13683],[34.8,13766],[34.8,13850],[34.8,13932],[34.8,14015],[34.8,14098],[34.8,14182],[34.8,14265],[34.8,14349],[34.8,14432],[34.8,14515],[34.8,14598],[34.8,14682],[34.8,14765],[34.8,14849],[34.8,14932],[34.8,15015],[34.8,15099],[34.8,15181],[34.8,15265],[34.8,15348],[34.8,15431],[34.8,15515],[34.8,15598],[34.8,15682],[34.8,15765],[34.8,15849],[34.8,15931],[34.8,16016],[34.8,16098],[34.8,16183],[34.8,16265],[34.8,16349],[34.8,16432],[34.8,16516],[34.8,16598],[34.8,16682],[34.8,16765],[34.8,16849],[34.8,16931],[34.8,17015],[34.8,17100],[34.8,17181],[34.8,17265],[34.8,17348],[34.8,17431],[34.8,17516],[34.8,17599],[34.8,17683],[34.8,17765],[34.8,17849],[34.8,17931],[34.8,18015],[34.8,18098],[34.8,18182],[34.8,18265],[34.8,18348],[34.8,18432],[34.8,18515],[34.8,18598],[34.8,18682],[34.8,18765],[34.8,18849],[34.8,18932],[34.8,19015],[34.8,19097],[34.8,19182],[34.8,19265],[34.8,19349],[34.8,19432],[34.8,19515],[34.8,19599],[34.8,19681],[34.8,19766],[34.8,19848],[34.8,19932],[34.8,20015],[34.8,20099],[34.8,20181],[34.8,20265],[34.8,20349],[34.8,20432],[34.8,20515],[34.8,20597],[34.8,20682],[34.8,20764],[34.8,20847],[34.8,20932],[34.8,21014],[34.8,21097],[34.8,21182],[34.8,21265],[34.8,21349],[34.9,21432],[35.4,21515],[37.4,21599],[37.8,21681],[37.8,21764],[37.8,21848],[37.8,21932],[37.8,22014],[37.8,22098],[37.8,22181],[37.8,22265],[37.8,22348],[37.8,22431],[37.8,22514],[37.8,22598],[37.8,22682],[37.8,22764],[37.8,22847],[37.8,22931],[37.8,23015],[37.8,23097],[37.8,23181],[37.8,23264],[37.8,23347],[37.8,23431],[37.8,23514],[37.8,23598],[37.8,23680],[37.8,23764],[37.8,23847],[37.8,23931],[37.8,24014],[37.8,24098],[37.8,24181],[37.8,24264],[37.8,24348],[37.8,24431],[37.8,24515],[37.8,24598],[37.8,24681],[37.8,24764],[37.8,24848],[37.8,24931],[37.8,25014],[37.8,25098],[37.8,25181],[37.8,25265],[37.8,25348],[37.8,25431],[37.8,25514],[37.8,25597],[37.8,25681],[37.8,25765],[37.8,25847],[37.8,25931],[37.8,26014],[37.8,26098],[37.8,26181],[37.8,26264],[37.8,26348],[37.8,26432],[37.8,26514]]",1,0,654.0705,659.641,40.6295754,4.1883,"[{""rating"":40.62957540263543,""responseTime"":4.188300000190793}]",space,5.0328,,659.6411,Half the time,50,659.6451,,,[],,0,1,1,1,1,audio/Narrative7Situation1.wav,audio/Narrative8Situation1.wav,audio/Narrative5Situation1.wav,audio/Narrative6Situation1.wav,2,5,5,2,,,,,,,,,,,,,,,,,,,,,,,,,,,,,,,,,,,,,,,
,,,,,,5eced9328405902eef967571,2024-05-13_08h43.31.765,group3.1-3.2-social-tom,2023.2.2,Win32,59.98440405,65c5074098b851296ff0b7ed,6642342381170c77603f6afd,,,,,,,,,,,,,,,,,,,,,,,,,,,,,659.6454,2,audio/Narrative6Situation2.wav,662.653,,662.6532,691.1674,"[[39.9,1002],[39.9,1083],[39.5,1169],[38.4,1256],[37.8,1336],[37.4,1419],[37.4,1502],[37.4,1582],[37.4,1670],[37.4,1753],[37.4,1837],[37.4,1919],[37.4,2002],[37.4,2082],[37.4,2170],[37.4,2250],[37.4,2338],[37.4,2419],[37.4,2502],[37.4,2585],[37.4,2665],[37.4,2752],[37.4,2832],[37.4,2918],[37.4,3000],[37.4,3083],[37.4,3169],[37.4,3252],[37.4,3332],[37.4,3419],[37.4,3502],[37.4,3585],[37.4,3669],[37.4,3749],[37.4,3839],[37.4,3919],[37.4,4003],[37.4,4086],[37.4,4167],[37.4,4252],[37.4,4336],[37.4,4419],[37.4,4501],[37.4,4585],[37.4,4665],[38.1,4766],[38.7,4849],[39.6,4933],[39.6,5015],[39.6,5098],[39.6,5182],[39.6,5265],[39.6,5349],[39.6,5432],[39.6,5515],[39.6,5598],[39.6,5682],[39.6,5765],[39.3,5848],[38.6,5932],[37.8,6014],[37.8,6098],[37.8,6182],[37.8,6265],[37.8,6348],[37.8,6432],[37.8,6515],[37.8,6599],[37.8,6683],[37.8,6765],[37.8,6848],[37.8,6932],[38.4,7016],[42.5,7099],[43.4,7182],[43.7,7265],[43.7,7348],[43.7,7432],[43.7,7515],[43.7,7598],[43.7,7682],[43.7,7765],[43.7,7849],[43.7,7931],[43.7,8014],[43.7,8097],[43.7,8181],[43.7,8265],[43.7,8348],[43.7,8431],[43.7,8515],[43.7,8597],[43.9,8681],[44.4,8766],[44.4,8848],[44.4,8932],[44.9,9015],[44.9,9098],[44.9,9181],[44.9,9266],[44.9,9348],[44.9,9431],[44.9,9515],[44.9,9598],[44.9,9681],[44.9,9765],[44.9,9848],[44.9,9932],[44.9,10015],[44.9,10097],[44.9,10182],[44.9,10265],[44.9,10348],[44.9,10431],[44.9,10514],[44.7,10599],[44.7,10681],[44.7,10764],[44.7,10848],[44.7,10932],[44.7,11015],[44.7,11098],[44.7,11182],[44.7,11265],[44.7,11348],[44.7,11432],[44.7,11514],[44.7,11598],[44.7,11681],[44.7,11765],[44.7,11848],[44.7,11931],[44.7,12014],[44.7,12099],[44.7,12182],[44.7,12265],[44.7,12347],[44.7,12431],[44.7,12515],[44.7,12598],[44.7,12681],[44.7,12765],[44.7,12848],[44.7,12932],[44.7,13015],[44.7,13097],[44.7,13182],[44.7,13265],[44.7,13347],[44.7,13430],[44.7,13515],[44.7,13597],[44.7,13681],[44.7,13765],[44.7,13848],[44.7,13931],[44.7,14014],[44.7,14098],[44.7,14182],[44.7,14264],[44.7,14347],[44.7,14431],[44.7,14514],[44.7,14597],[44.7,14682],[44.7,14765],[44.7,14848],[44.7,14932],[44.7,15014],[44.7,15098],[44.7,15181],[44.7,15264],[44.7,15348],[44.7,15431],[44.7,15515],[44.7,15598],[44.7,15681],[44.7,15765],[44.7,15848],[44.7,15930],[44.7,16014],[44.7,16098],[44.7,16182],[44.7,16265],[44.7,16348],[44.7,16432],[44.7,16514],[44.7,16598],[44.7,16682],[44.7,16765],[44.7,16848],[44.7,16931],[44.7,17014],[44.7,17097],[44.7,17181],[44.7,17264],[44.7,17347],[44.7,17431],[44.7,17514],[44.7,17597],[44.7,17681],[44.7,17764],[44.7,17847],[44.7,17931],[44.7,18014],[44.7,18098],[44.7,18181],[44.7,18264],[44.7,18347],[44.7,18431],[44.7,18514],[44.7,18597],[44.7,18680],[44.7,18764],[44.7,18847],[44.7,18931],[44.7,19015],[44.7,19097],[44.7,19181],[44.7,19263],[44.7,19348],[44.7,19431],[44.7,19514],[44.7,19597],[44.7,19681],[44.7,19763],[44.7,19847],[44.7,19931],[44.7,20014],[44.7,20098],[44.7,20181],[44.7,20264],[44.7,20348],[44.7,20430],[44.7,20514],[44.7,20597],[44.7,20681],[44.7,20763],[44.7,20847],[44.7,20931],[44.7,21014],[44.7,21097],[44.7,21181],[44.7,21264],[44.7,21347],[44.7,21431],[44.7,21515],[44.7,21597],[44.7,21681],[44.7,21764],[44.7,21847],[44.7,21931],[44.7,22015],[44.7,22097],[44.7,22180],[44.7,22265],[44.7,22347],[44.7,22431],[44.7,22514],[44.7,22597],[44.7,22681],[44.7,22764],[44.7,22847],[44.7,22930],[44.7,23014],[44.7,23096],[44.7,23181],[44.7,23264],[44.7,23347],[44.7,23430],[44.7,23513],[44.7,23597],[44.7,23681],[44.7,23764],[44.7,23847],[44.7,23931],[44.7,24014],[44.7,24097],[44.7,24181],[44.7,24263],[44.7,24346],[44.7,24431],[44.7,24513],[44.7,24597],[44.7,24680],[44.7,24765],[44.7,24847],[44.7,24931],[44.7,25014],[44.7,25096],[44.7,25181],[44.7,25264],[44.7,25348],[44.7,25431],[44.7,25514],[44.7,25596],[44.7,25681],[44.7,25764],[44.7,25846],[44.7,25931],[44.7,26014],[44.7,26097],[44.7,26180],[44.7,26263],[44.7,26347],[44.7,26431],[44.7,26513],[44.7,26597],[44.7,26680],[44.7,26764],[44.7,26847],[44.7,26931],[44.7,27013],[44.7,27096],[44.7,27180],[44.7,27263],[44.7,27347],[44.7,27429],[44.7,27513],[44.7,27596],[44.7,27680],[44.7,27764],[44.7,27847],[44.7,27930],[44.7,28013],[41.9,28097],[39.6,28181],[39,28263],[39,28346],[39,28431],[39,28513]]",1,0,691.1677,695.7504,39.89751098,3.0619,"[{""rating"":39.897510980966324,""responseTime"":3.0619000000953065}]",space,4.0519,,695.7506,Not at all,0,695.7584,,,[],,0,2,2,2,1,audio/Narrative7Situation2.wav,audio/Narrative8Situation2.wav,audio/Narrative5Situation2.wav,audio/Narrative6Situation2.wav,3,3,3,3,,,,,,,,,,,,,,,,,,,,,,,,,,,,,,,,,,,,,,,
,,,,,,5eced9328405902eef967571,2024-05-13_08h43.31.765,group3.1-3.2-social-tom,2023.2.2,Win32,59.98440405,65c5074098b851296ff0b7ed,6642342381170c77603f6afd,,,,,,,,,,,,,,,,,,,,,,,,,,,,,695.759,2,audio/Narrative6Situation3.wav,700.7666,,700.767,713.3826,"[[41.2,650],[43,733],[43.6,816],[43.6,898],[43.6,982],[43.6,1065],[43.6,1149],[43.6,1232],[43.6,1317],[42.1,1400],[41.5,1483],[40.5,1567],[39.9,1651],[39.5,1732],[39.5,1817],[39.5,1899],[39.5,1981],[39.5,2065],[39.5,2149],[39.5,2232],[39.5,2316],[39.5,2399],[39.5,2483],[39.5,2565],[39.5,2649],[39.5,2732],[39.5,2815],[39.5,2899],[39.5,2986],[39.5,3066],[39.5,3149],[39.5,3232],[39.5,3315],[39.5,3399],[39.5,3482],[39.5,3565],[39.5,3649],[39.5,3732],[39.5,3816],[39.5,3901],[39.5,3983],[39.5,4066],[39.5,4148],[39.5,4232],[39.5,4315],[39.5,4399],[39.5,4482],[39.5,4565],[39.5,4648],[39.5,4732],[39.5,4816],[39.5,4900],[39.5,4983],[39.5,5066],[39.5,5149],[39.9,5232],[40.8,5315],[40.9,5399],[41.2,5482],[41.2,5565],[41.2,5649],[41.2,5732],[41.2,5815],[41.2,5899],[41.2,5982],[41.2,6065],[41.2,6149],[41.2,6232],[41.2,6315],[41.2,6399],[41.2,6482],[41.9,6566],[46.3,6649],[47.4,6732],[47.8,6815],[47.8,6899],[47.8,6983],[49.3,7066],[49.9,7148],[49.9,7231],[49.9,7316],[49.9,7399],[49.9,7481],[49.9,7566],[49.3,7649],[49.1,7732],[49.1,7816],[49.1,7900],[49.1,7982],[49.1,8065],[49.1,8149],[49.1,8232],[48.5,8316],[48.5,8398],[48.5,8481],[47.7,8564],[47.7,8649],[47.7,8732],[47.7,8815],[47.7,8898],[47.7,8981],[47.7,9065],[47.7,9148],[48.2,9232],[50,9316],[51,9398],[51.3,9481],[51.6,9565],[52.2,9648],[54.1,9732],[54.8,9815],[55.1,9899],[55.1,9983],[55.1,10065],[55.1,10148],[55.1,10232],[55.1,10315],[55.1,10398],[55.1,10482],[55.6,10567],[56,10648],[56.6,10732],[56.6,10815],[56.6,10898],[56.6,10983],[56.6,11066],[56.6,11149],[56.6,11232],[56.6,11315],[56.6,11398],[56.6,11482],[56.6,11566],[56.6,11650],[56.6,11732],[56.6,11814],[56.6,11898],[56.6,11982],[56.6,12064],[56.6,12148],[56,12232],[55.4,12314],[54.5,12398],[54.5,12482],[54.5,12565]]",1,0,713.3828,715.5325,54.53879941,0.9553,"[{""rating"":54.53879941434846,""responseTime"":0.9553000001907321}]",space,1.6014,,715.5328,All the time,100,715.5407,,,[],,0,3,3,3,1,audio/Narrative7Situation3.wav,audio/Narrative8Situation3.wav,audio/Narrative5Situation3.wav,audio/Narrative6Situation3.wav,8,4,3,5,,,,,,,,,,,,,,,,,,,,,,,,,,,,,,,,,,,,,,,
,,,,,,5eced9328405902eef967571,2024-05-13_08h43.31.765,group3.1-3.2-social-tom,2023.2.2,Win32,59.98440405,65c5074098b851296ff0b7ed,6642342381170c77603f6afd,,,,,,,,,,,,,,,,,,,,,,,,,,,,,715.5413,2,audio/Narrative6Situation4.wav,717.5483,,717.5484,730.1484,"[[55.1,667],[55.6,750],[56,833],[56,916],[56,1000],[56,1083],[56,1166],[56,1251],[56,1333],[56,1416],[56,1499],[56,1582],[56,1666],[57.5,1750],[57.5,1833],[57.5,1916],[57.5,2000],[57.5,2082],[57.5,2165],[57.5,2250],[57.5,2333],[57.5,2416],[57.5,2500],[57.5,2582],[57.5,2666],[57.5,2750],[57.5,2833],[57.5,2916],[57.5,3000],[57.5,3083],[57.5,3166],[57.5,3249],[57.5,3333],[57.5,3416],[57.5,3500],[57.5,3583],[57.5,3666],[57.5,3749],[57.5,3834],[57.5,3916],[57.5,4000],[57.5,4083],[57.5,4167],[57.5,4250],[57.5,4333],[57.5,4415],[57.3,4499],[57.3,4582],[57.3,4666],[57.3,4749],[57.3,4832],[57.3,4916],[57.3,4999],[57.3,5083],[57.3,5166],[57.3,5250],[57.3,5332],[57.3,5416],[57.3,5499],[57.3,5582],[57.3,5665],[57.3,5750],[57.3,5833],[57.3,5916],[57.3,5999],[57.3,6082],[57.3,6167],[57.3,6250],[57.3,6333],[57.3,6416],[57.3,6499],[57.3,6582],[57.3,6666],[57.3,6750],[57.3,6832],[57.3,6915],[57.3,6999],[57.3,7082],[57.3,7166],[57.3,7250],[57.3,7333],[57.3,7416],[57.3,7499],[57.3,7583],[57.3,7666],[57.3,7749],[57.3,7832],[57.3,7916],[57.3,7999],[57.3,8082],[57.3,8167],[57.3,8249],[57.3,8333],[57.3,8416],[57.3,8500],[57.3,8582],[57.3,8665],[57.3,8748],[57.3,8832],[57.3,8915],[57.3,9000],[57.3,9082],[57.3,9166],[57.3,9249],[57.3,9332],[57.3,9417],[57.3,9499],[57.3,9583],[57.3,9666],[57.3,9750],[57.3,9832],[57.3,9916],[57.3,10000],[57.3,10082],[57.3,10165],[57.3,10248],[57.3,10331],[57.3,10415],[57.3,10499],[57.3,10581],[57.3,10666],[57.3,10748],[57.3,10833],[57.3,10916],[57.3,10999],[57.3,11082],[56.4,11166],[56,11249],[56,11332],[56,11416],[56,11498],[56,11582],[55.9,11666],[55.9,11749],[55.9,11833],[55.9,11916],[55.7,12000],[54.8,12082],[54,12164],[54,12249],[54,12332],[54,12415],[54,12500],[54.1,12582]]",1,0,730.1485,732.7485,56.14934114,1.641,"[{""rating"":56.1493411420205,""responseTime"":1.6409999999999627}]",space,2.0628,,732.7485,Half the time,50,732.7537,,,[],,0,4,4,4,1,audio/Narrative7Situation4.wav,audio/Narrative8Situation4.wav,audio/Narrative5Situation4.wav,audio/Narrative6Situation4.wav,3,3,1,2,,,,,,,,,,,,,,,,,,,,,,,,,,,,,,,,,,,,,,,
,,,,,,5eced9328405902eef967571,2024-05-13_08h43.31.765,group3.1-3.2-social-tom,2023.2.2,Win32,59.98440405,65c5074098b851296ff0b7ed,6642342381170c77603f6afd,,,,,,,,,,,,,,,,,,,,,,,,,,,,,732.754,2,audio/Narrative6Situation5.wav,734.7639,,734.7642,742.7466,"[[56.4,1499],[56.7,1583],[56.7,1665],[56.7,1750],[56.7,1832],[56.7,1916],[56.7,1999],[56.9,2083],[58.1,2166],[58.1,2249],[58.1,2332],[58.9,2416],[58.9,2499],[58.9,2583],[58.9,2666],[58.9,2749],[58.9,2832],[58.9,2916],[58.9,2999],[58.9,3082],[58.9,3165],[58.9,3249],[58.9,3332],[58.9,3416],[58.9,3499],[58.9,3582],[58.9,3666],[58.9,3749],[58.9,3832],[58.9,3916],[58.9,3999],[58.9,4082],[58.9,4166],[58.9,4249],[58.9,4333],[58.9,4416],[58.9,4500],[58.9,4582],[58.9,4665],[58.9,4750],[58.9,4832],[58.9,4915],[58.9,4999],[58.9,5082],[58.9,5165],[58.9,5249],[58.9,5332],[58.9,5416],[58.9,5499],[58.9,5583],[58.9,5666],[58.9,5749],[58.9,5832],[58.9,5915],[58.9,5999],[58.9,6084],[58.9,6165],[58.9,6249],[58.9,6333],[58.9,6416],[58.9,6498],[58.9,6582],[58.9,6665],[58.9,6748],[58.9,6832],[58.9,6916],[58.9,6999],[59.4,7082],[60,7166],[60,7248],[60,7332],[60,7415],[60.1,7499],[60.1,7582],[60.1,7665],[60.8,7750],[60.8,7831],[60.8,7915]]",1,0,742.7468,744.9638,60.10248902,1.3588,"[{""rating"":60.102489019033676,""responseTime"":1.3588000001906266}]",space,1.69,,744.9639,All the time,100,744.9715,,,[],,0,5,5,5,1,audio/Narrative7Situation5.wav,audio/Narrative8Situation5.wav,audio/Narrative5Situation5.wav,audio/Narrative6Situation5.wav,5,2,5,2,,,,,,,,,,,,,,,,,,,,,,,,,,,,,,,,,,,,,,,
,,,,,,5eced9328405902eef967571,2024-05-13_08h43.31.765,group3.1-3.2-social-tom,2023.2.2,Win32,59.98440405,65c5074098b851296ff0b7ed,6642342381170c77603f6afd,,,,,,,,,,,,,,,,,,,,,,,,,,,,,744.972,2,audio/Narrative6Situation6.wav,746.9798,,746.9798,758.0625,"[[60.1,999],[60.5,1082],[60.5,1167],[60.5,1249],[60.5,1333],[60.5,1416],[60.5,1500],[60.5,1583],[60.5,1667],[60.5,1750],[60.5,1833],[60.5,1916],[60.5,1999],[60.5,2083],[60.5,2166],[60.5,2249],[60.5,2333],[60.5,2415],[60.5,2500],[60.5,2582],[60.5,2665],[60.5,2750],[60.5,2833],[60.5,2916],[60.5,2999],[60.5,3083],[60.5,3166],[60.5,3249],[60.5,3332],[60.5,3416],[60.5,3499],[60.5,3582],[60.5,3665],[60.5,3749],[60.5,3832],[60.5,3916],[60.5,4000],[60.5,4083],[60.5,4166],[60.5,4249],[60.5,4332],[60.5,4415],[60.5,4499],[60.5,4582],[60.5,4666],[60.5,4748],[60.5,4833],[60.5,4916],[60.5,5000],[60.5,5083],[60.5,5166],[60.5,5249],[60.5,5332],[60.5,5415],[60.5,5499],[60.5,5583],[60.5,5665],[60.5,5749],[60.5,5833],[60.5,5915],[60.5,5999],[60.5,6083],[60.5,6166],[60.5,6249],[60.5,6332],[60.5,6416],[60.5,6500],[60.5,6582],[60.5,6665],[60.5,6749],[60.5,6832],[60.5,6916],[60.5,6998],[60.5,7083],[60.5,7165],[60.5,7249],[60.5,7332],[60.5,7416],[60.5,7499],[60.5,7582],[60.5,7666],[60.5,7749],[60.5,7831],[60.5,7916],[60.5,7999],[60.5,8082],[60.5,8166],[60.5,8249],[60.5,8332],[60.5,8415],[60.5,8499],[60.5,8581],[60.5,8665],[60.5,8748],[60.5,8832],[60.5,8915],[60.5,8999],[60.5,9082],[60.5,9165],[60.5,9248],[61.3,9333],[61.6,9416],[61.6,9499],[61.6,9582],[61.6,9665],[62.2,9749],[62.4,9831],[62.4,9915],[62.4,9999],[62.4,10082],[62.4,10165],[62.4,10249],[62.4,10332],[62.4,10414],[62.4,10499],[62.4,10582],[62.9,10666],[63.3,10748],[63.3,10832],[63.3,10915],[63.3,10999],[63.3,11082]]",1,0,758.0626,761.0789,60.54172767,1.6832,"[{""rating"":60.54172767203514,""responseTime"":1.683199999809176}]",space,2.4829,,761.0789,Not at all,0,769.7445,0.512445095,6.094,"[{""rating"":0.5124450951683734,""responseTime"":6.094000000000051}]",space,0,6,6,6,1,audio/Narrative7Situation6.wav,audio/Narrative8Situation6.wav,audio/Narrative5Situation6.wav,audio/Narrative6Situation6.wav,3,2,3,2,,,8.1388,,,,,,,,,,,,,,,,,,,,,,,,,,,,,,,,,,,,
,,,,,,5eced9328405902eef967571,2024-05-13_08h43.31.765,group3.1-3.2-social-tom,2023.2.2,Win32,59.98440405,65c5074098b851296ff0b7ed,6642342381170c77603f6afd,,,,,,,,,,,,,,,,,,,,,,,,,,,,,769.7452,2,audio/Narrative6Situation7.wav,774.7609,,774.7609,799.6096,"[[999,12],[999,100],[999,187],[999,270],[999,354],[999,435],[999,522],[999,602],[999,690],[999,767],[999,853],[999,938],[999,1021],[999,1100],[999,1186],[999,1267],[999,1352],[999,1437],[999,1518],[52.9,1604],[52.8,1688],[52.2,1767],[51.8,1855],[51.6,1937],[51.5,2022],[51.5,2106],[51.5,2186],[51.5,2267],[51.5,2350],[51.5,2436],[51.5,2521],[51.5,2605],[53.4,2687],[55,2770],[55,2854],[55,2936],[55,3017],[55,3104],[55,3189],[55,3269],[55,3352],[55,3437],[55,3517],[55,3604],[55,3687],[56.3,3771],[56.4,3850],[56.6,3936],[56.9,4017],[56.9,4100],[56.9,4183],[56.9,4270],[56.9,4352],[56.9,4436],[56.9,4520],[56.9,4602],[56.9,4688],[56.9,4771],[56.9,4850],[56.9,4937],[56.9,5019],[56.9,5098],[56.9,5182],[56.9,5266],[56.9,5353],[56.9,5436],[56.9,5520],[56.9,5602],[56.9,5683],[56.9,5768],[56.9,5852],[56.9,5937],[56.9,6016],[56.9,6105],[56.9,6182],[56.9,6269],[56.9,6353],[56.9,6437],[56.9,6519],[56.9,6602],[56.9,6686],[56.9,6766],[56.9,6852],[56.9,6932],[56.9,7019],[56.9,7102],[56.9,7186],[56.9,7267],[56.9,7353],[56.9,7437],[56.9,7519],[56.9,7601],[56.9,7686],[56.9,7769],[56.9,7852],[56.9,7936],[56.9,8020],[56.9,8099],[56.9,8187],[56.9,8268],[56.9,8355],[56.9,8437],[56.9,8515],[56.9,8603],[56.9,8683],[56.9,8769],[56.9,8850],[56.9,8932],[56.9,9015],[56.9,9105],[56.9,9188],[56.9,9272],[56.9,9348],[56.9,9436],[56.9,9519],[56.9,9602],[56.9,9687],[56.9,9766],[56.9,9851],[56.9,9934],[56.9,10019],[56.9,10099],[56.9,10182],[56.9,10270],[56.9,10352],[56.9,10437],[56.9,10522],[56.9,10602],[56.9,10684],[56.9,10770],[56.9,10852],[56.9,10936],[56.9,11018],[56.9,11102],[56.9,11182],[56.9,11271],[56.9,11350],[56.9,11435],[56.9,11520],[56.9,11604],[56.9,11685],[56.9,11765],[56.9,11853],[56.9,11935],[56.9,12019],[56.9,12101],[56.9,12186],[56.9,12265],[56.9,12353],[56.9,12433],[56.9,12519],[56.9,12603],[56.9,12687],[56.9,12770],[56.9,12852],[56.9,12936],[56.9,13016],[56.9,13103],[56.9,13186],[56.9,13270],[56.9,13353],[56.9,13436],[56.9,13520],[56.9,13601],[56.9,13687],[56.9,13767],[56.9,13853],[56.9,13936],[56.9,14018],[56.9,14102],[56.9,14186],[56.9,14268],[56.9,14352],[56.9,14436],[56.9,14516],[57.3,14615],[57.8,14699],[57.8,14782],[57.8,14865],[57.8,14948],[57.8,15032],[57.8,15115],[57.8,15199],[57.8,15282],[57.8,15365],[57.8,15449],[57.8,15531],[57.8,15615],[57.8,15698],[57.8,15782],[57.8,15866],[57.8,15949],[57.8,16032],[57.8,16115],[57.8,16198],[57.8,16282],[57.8,16365],[57.8,16448],[57.8,16531],[57.8,16615],[57.8,16698],[57.8,16781],[57.8,16865],[57.8,16948],[57.8,17032],[57.8,17115],[57.8,17199],[57.8,17281],[57.8,17365],[57.8,17448],[57.8,17532],[57.8,17615],[57.8,17698],[57.8,17782],[57.8,17864],[57.8,17947],[57.8,18032],[57.8,18114],[57.8,18198],[57.8,18282],[57.8,18364],[57.8,18448],[57.8,18531],[57.8,18615],[57.8,18697],[57.8,18781],[57.8,18864],[57.8,18948],[57.8,19032],[57.8,19115],[57.8,19198],[57.8,19282],[57.8,19365],[57.8,19448],[57.8,19531],[57.8,19615],[57.8,19698],[57.8,19782],[57.8,19865],[57.8,19948],[57.8,20031],[57.8,20115],[57.8,20198],[57.8,20282],[57.8,20364],[57.8,20448],[57.8,20531],[57.8,20615],[57.8,20698],[57.8,20782],[57.8,20865],[57.8,20948],[57.8,21031],[57.8,21115],[57.8,21198],[57.8,21282],[57.8,21365],[57.8,21448],[57.8,21532],[57.8,21615],[57.8,21698],[57.8,21781],[57.8,21864],[57.8,21948],[57.8,22031],[57.8,22115],[57.8,22198],[57.8,22282],[57.8,22365],[57.8,22449],[57.8,22531],[57.8,22614],[57.8,22698],[57.8,22781],[57.8,22865],[57.8,22948],[57.8,23031],[57.8,23115],[57.8,23197],[57.8,23281],[57.8,23365],[57.8,23447],[57.8,23531],[57.8,23614],[57.8,23699],[57.8,23781],[57.8,23864],[57.8,23948],[57.8,24031],[57.8,24114],[57.8,24198],[57.8,24282],[57,24365],[56.6,24448],[56.6,24530],[56.6,24615],[56.6,24698],[56.6,24781]]",1,0,799.6099,803.2422,51.46412884,2.6528,"[{""rating"":51.464128843338216,""responseTime"":2.6527999997138068}]",space,3.0845,,803.2425,All the time,100,803.2504,,,[],,0,7,7,7,1,audio/Narrative7Situation7.wav,audio/Narrative8Situation7.wav,audio/Narrative5Situation7.wav,audio/Narrative6Situation7.wav,5,3,4,5,,,,,,,,,,,,,,,,,,,,,,,,,,,,,,,,,,,,,,,
,,,,,,5eced9328405902eef967571,2024-05-13_08h43.31.765,group3.1-3.2-social-tom,2023.2.2,Win32,59.98440405,65c5074098b851296ff0b7ed,6642342381170c77603f6afd,,,,,,,,,,,,,,,,,,,,,,,,,,,,,803.251,2,audio/Narrative6Situation8.wav,808.2588,,808.2588,815.1142,"[[53.8,1187],[54.5,1266],[54.5,1349],[54.5,1436],[54.5,1516],[54.5,1599],[53.7,1690],[52.8,1771],[52.8,1853],[52.8,1933],[52.8,2017],[52.8,2102],[52.8,2186],[52.8,2269],[52.8,2350],[52.8,2436],[52.8,2521],[52.8,2604],[52.8,2686],[52.8,2770],[52.8,2853],[52.8,2937],[52.8,3021],[52.8,3102],[52.8,3183],[52.8,3272],[52.8,3354],[52.8,3433],[52.8,3519],[52.8,3603],[52.8,3686],[52.8,3769],[52.8,3849],[52.8,3937],[52.8,4016],[52.8,4104],[52.8,4186],[52.8,4269],[52.8,4352],[52.8,4433],[52.8,4515],[55,4603],[55.7,4687],[55.7,4766],[55.7,4849],[55.7,4937],[55.7,5015],[55.7,5104],[55.7,5186],[55.7,5269],[55.7,5352],[55.7,5435],[55.7,5519],[55.7,5600],[55.7,5686],[55.7,5769],[55.7,5852],[55.7,5937],[55.7,6018],[55.7,6100],[55.7,6186],[55.7,6271],[55.7,6352],[55.7,6431],[55.7,6519],[55.7,6603],[55.7,6688],[55.7,6771],[55.7,6854]]",1,0,815.1147,817.6113,54.53879941,1.3609,"[{""rating"":54.53879941434846,""responseTime"":1.3609000000953984}]",space,1.9491,,817.6113,Not at all,0,817.6144,,,[],,0,8,8,8,1,audio/Narrative7Situation8.wav,audio/Narrative8Situation8.wav,audio/Narrative5Situation8.wav,audio/Narrative6Situation8.wav,2,3,3,5,,,,,,,,,,,,,,,,,,,,,,,,,,,,,,,,,,,,,,,
,,,,,,5eced9328405902eef967571,2024-05-13_08h43.31.765,group3.1-3.2-social-tom,2023.2.2,Win32,59.98440405,65c5074098b851296ff0b7ed,6642342381170c77603f6afd,,,,,,,,,,,,,,,,,,,,,,,,,,,,,817.6146,2,audio/Narrative6Situation9.wav,821.6241,,821.6245,831.5741,"[[55.1,1118],[56,1200],[56.1,1282],[56.1,1366],[56.1,1450],[56.1,1532],[56.1,1615],[56.1,1699],[56.1,1783],[56.1,1867],[56,1949],[55.1,2033],[54.8,2116],[54.8,2199],[54.8,2282],[54.8,2366],[54.8,2449],[54.8,2532],[54.8,2616],[54.8,2699],[54.8,2782],[54.8,2866],[54.8,2949],[54.8,3032],[54.8,3115],[54.8,3199],[54.8,3283],[54.8,3366],[54.8,3449],[54.8,3532],[54.8,3616],[54.8,3698],[54.8,3782],[54.8,3865],[54.8,3948],[54.8,4032],[54.8,4116],[54.8,4199],[54.8,4282],[54.8,4365],[54.8,4449],[54.8,4532],[54.8,4616],[54.8,4699],[54.8,4782],[54.8,4866],[54.8,4949],[54.8,5032],[54.8,5115],[55.4,5198],[56.1,5282],[57.5,5366],[57.6,5449],[57.6,5532],[57.6,5615],[57.6,5699],[57.6,5782],[57.6,5865],[57.6,5948],[57.6,6032],[57.6,6115],[57.6,6198],[57.2,6282],[56.4,6366],[56.4,6448],[55.7,6532],[55.7,6614],[55.7,6699],[55.7,6782],[55.7,6865],[55.7,6949],[55.7,7032],[55.7,7115],[55.7,7198],[55.7,7282],[55.7,7366],[55.7,7449],[55.7,7532],[55.7,7615],[55.7,7699],[56.1,7782],[57.9,7865],[58.8,7949],[58.8,8032],[58.8,8115],[59.2,8199],[59.2,8281],[59.2,8365],[59.2,8449],[59.2,8532],[59.2,8615],[59.2,8699],[59.2,8782],[59.2,8865],[60.1,8949],[60.7,9033],[60.7,9114],[61.4,9198],[61.4,9282],[61.4,9365],[61.4,9449],[61.4,9532],[61.4,9614],[61.4,9698],[61.4,9782],[61.4,9865],[61.4,9949]]",1,0,831.5743,834.0237,61.42020498,0.6911,"[{""rating"":61.420204978038065,""responseTime"":0.6911000003814252}]",space,1.9015,,834.0238,All the time,100,834.0283,,,[],,0,9,9,9,1,audio/Narrative7Situation9.wav,audio/Narrative8Situation9.wav,audio/Narrative5Situation9.wav,audio/Narrative6Situation9.wav,2,3,3,4,,,,,,,,,,,,,,,,,,,,,,,,,,,,,,,,,,,,,,,
,,,,,,5eced9328405902eef967571,2024-05-13_08h43.31.765,group3.1-3.2-social-tom,2023.2.2,Win32,59.98440405,65c5074098b851296ff0b7ed,6642342381170c77603f6afd,,,,,,,,,,,,,,,,,,,,,,,,,,,,,834.0285,2,audio/Narrative5Situation1.wav,839.0386,,839.0387,852.3219,"[[61,1000],[60.5,1084],[60.5,1167],[60.4,1250],[60.4,1334],[60.2,1416],[59.7,1501],[59.2,1584],[59.2,1668],[59.2,1750],[59.2,1834],[59.2,1916],[59.2,2000],[59.2,2084],[59.2,2167],[59.2,2250],[59.2,2333],[59.2,2417],[59.2,2500],[59.2,2583],[59.2,2667],[59.2,2750],[59.5,2834],[60.1,2917],[60.5,3001],[60.8,3084],[60.8,3166],[60.8,3250],[60.8,3333],[60.8,3418],[60.8,3501],[60.8,3584],[60.8,3667],[60.8,3750],[60.8,3834],[60.8,3916],[60.7,4001],[59.7,4084],[59.2,4167],[59.2,4250],[59.2,4333],[59.2,4416],[59.2,4499],[59.2,4583],[59.2,4667],[59.2,4750],[59.2,4833],[59.2,4916],[59.2,5000],[59.2,5084],[59.2,5167],[58.1,5251],[57.8,5334],[57.8,5417],[57.8,5500],[57.8,5583],[57.8,5666],[57.8,5751],[57.8,5833],[57.8,5916],[57.8,6000],[57.8,6083],[57.8,6167],[59.2,6251],[60.7,6334],[60.8,6417],[60.8,6500],[61.3,6583],[61.4,6667],[62.2,6750],[62.2,6832],[62.2,6917],[62.2,7000],[62.2,7083],[62.2,7167],[62.2,7250],[62.2,7333],[62.2,7416],[62.2,7500],[62.2,7583],[62.4,7667],[62.4,7750],[62.4,7832],[62.4,7916],[62.4,8001],[62.4,8084],[62.4,8166],[62.4,8250],[62.4,8333],[62.4,8417],[62.4,8500],[62.4,8583],[62.4,8667],[62.4,8749],[62.4,8833],[62.4,8915],[62.4,9000],[62.4,9084],[62.4,9166],[62.4,9249],[62.4,9333],[62.4,9417],[62.4,9500],[62.4,9584],[62.4,9667],[62.4,9750],[62.4,9833],[62.4,9915],[62.4,9999],[62.4,10083],[62.4,10166],[62.4,10250],[62.4,10332],[62.4,10416],[62.4,10499],[62.4,10583],[62.4,10666],[62.4,10750],[62.4,10833],[62.4,10916],[62.4,11000],[62.4,11083],[62.4,11166],[62.4,11250],[62.4,11333],[62.4,11416],[62.4,11499],[62.4,11583],[62.4,11667],[62.4,11750],[62.4,11832],[62.4,11917],[62.4,11999],[62.4,12082],[62.4,12165],[62.4,12249],[62.4,12332],[62.4,12416],[62.4,12501],[62.4,12584],[62.4,12667],[62.4,12750],[62.4,12833],[62.4,12916],[62.4,13000],[62.4,13083],[62.4,13165],[62.4,13249]]",1,0,852.3222,855.0048,64.64128843,1.5985,"[{""rating"":64.64128843338214,""responseTime"":1.5985000000000582}]",space,2.1407,,855.0049,Half the time,50,855.0094,,,[],,0,10,10,10,1,audio/Narrative8Situation1.wav,audio/Narrative7Situation1.wav,audio/Narrative6Situation1.wav,audio/Narrative5Situation1.wav,5,2,2,5,,,,,,,,,,,,,,,,,,,,,,,,,,,,,,,,,,,,,,,
,,,,,,5eced9328405902eef967571,2024-05-13_08h43.31.765,group3.1-3.2-social-tom,2023.2.2,Win32,59.98440405,65c5074098b851296ff0b7ed,6642342381170c77603f6afd,,,,,,,,,,,,,,,,,,,,,,,,,,,,,855.0098,2,audio/Narrative5Situation2.wav,858.0219,,858.022,887.4861,"[[64.3,1349],[64.3,1432],[64.3,1516],[64.3,1598],[64.3,1682],[64.3,1764],[64.3,1849],[64.3,1932],[64.3,2015],[64.3,2098],[64.3,2182],[64.3,2265],[64.3,2349],[64.5,2432],[65.2,2516],[65.2,2599],[66,2682],[66,2765],[66,2849],[66,2932],[66,3016],[66,3099],[66,3181],[66,3266],[66,3349],[66,3432],[66,3514],[66,3599],[66,3681],[66,3765],[66,3848],[66,3933],[66,4016],[66,4099],[66,4182],[66,4266],[66,4349],[66,4433],[66,4515],[66,4599],[66,4682],[66,4765],[66,4849],[66,4932],[66,5015],[66,5099],[66,5182],[66,5265],[66.1,5349],[67.1,5432],[67.9,5516],[68.3,5599],[68.6,5682],[68.6,5765],[68.6,5849],[68.6,5932],[68.6,6016],[68.6,6098],[68.6,6182],[68.6,6266],[68.6,6348],[68.6,6431],[68.6,6514],[68.6,6598],[68.6,6681],[68.6,6766],[68.6,6848],[68.6,6932],[68.6,7014],[68.6,7098],[68.6,7182],[68.6,7265],[68.6,7348],[68.6,7431],[68.6,7514],[68.6,7598],[68.6,7681],[68.6,7766],[68.6,7848],[68.6,7932],[68.6,8016],[68.6,8098],[68.6,8181],[68.6,8266],[68.6,8348],[68.6,8431],[68.6,8515],[68.6,8598],[68.6,8683],[68.6,8765],[68.6,8849],[68.6,8932],[68.6,9015],[68.6,9098],[68.6,9182],[68.6,9265],[68.6,9348],[68.6,9431],[68.6,9515],[68.6,9600],[68.6,9682],[68.6,9765],[68.6,9848],[68.6,9932],[68.6,10015],[68.6,10099],[68.6,10181],[68.6,10265],[68.6,10348],[68.6,10432],[68.6,10516],[68.6,10598],[68.6,10681],[68.6,10765],[68.6,10849],[68.6,10932],[68.6,11014],[68.6,11098],[68.6,11182],[68.6,11265],[68.6,11348],[68.6,11431],[68.6,11514],[68.6,11598],[68.6,11681],[68.6,11765],[68.6,11848],[68.6,11932],[68.6,12014],[68.6,12098],[68.6,12181],[68.6,12264],[68.6,12348],[68.6,12431],[68.6,12515],[68.6,12598],[68.6,12681],[68.4,12765],[68.4,12848],[68.4,12931],[68.4,13015],[68.4,13097],[68.4,13180],[68.4,13265],[68.4,13349],[68.4,13431],[68.4,13514],[68.4,13598],[68.4,13681],[68.4,13765],[68.4,13848],[68.4,13930],[68.4,14015],[68.4,14098],[68.4,14180],[68.4,14265],[68.4,14347],[68.4,14431],[68.4,14514],[68.4,14597],[68.4,14681],[68.4,14765],[68.4,14848],[68.4,14932],[68.4,15016],[68.4,15098],[68.4,15181],[68.4,15265],[68.4,15348],[68.4,15431],[68.4,15514],[68.4,15597],[68.4,15681],[68.4,15764],[68.4,15848],[68.4,15930],[68.4,16014],[68.4,16098],[68.4,16180],[68.4,16265],[68.4,16348],[68.4,16430],[68.4,16514],[68.4,16599],[68.4,16681],[68.4,16764],[68.4,16847],[68.4,16931],[68.4,17014],[68.4,17097],[68.4,17182],[68.4,17264],[68.4,17348],[68.4,17430],[68.4,17515],[68.4,17598],[68.4,17682],[68.4,17765],[68.4,17847],[68.4,17931],[68.4,18015],[68.4,18097],[68.4,18181],[68.4,18264],[68.4,18347],[68.4,18431],[68.4,18514],[68.4,18598],[68.4,18681],[68.4,18764],[68.4,18847],[68.4,18930],[68.4,19014],[68.4,19097],[69.5,19181],[71.1,19264],[71.7,19348],[71.8,19432],[71.8,19514],[71.8,19597],[72.1,19682],[72.4,19765],[72.4,19848],[72.4,19931],[72.4,20014],[72.4,20097],[72.4,20181],[72.4,20264],[72.4,20347],[72.4,20431],[72.4,20514],[72.4,20597],[72.4,20680],[72.4,20764],[72.4,20847],[72.4,20931],[72.4,21013],[72.4,21097],[72.4,21180],[72.4,21263],[72.4,21348],[72.4,21431],[72.4,21514],[72.4,21596],[72.4,21680],[72.4,21763],[72.4,21846],[72.4,21931],[72.4,22014],[72.4,22097],[72.4,22180],[72.4,22263],[72.4,22348],[72.4,22430],[72.4,22513],[72.4,22597],[72.4,22681],[72.4,22764],[72.4,22847],[72.4,22930],[72.4,23014],[72.4,23097],[72.4,23181],[72.4,23264],[72.4,23346],[72.4,23430],[72.4,23513],[72.4,23597],[72.4,23680],[72.4,23763],[72.4,23846],[72.4,23930],[72.4,24014],[72.4,24098],[72.4,24180],[72.4,24263],[72.4,24347],[72.4,24431],[72.4,24514],[72.4,24596],[72.4,24680],[72.4,24764],[72.4,24847],[72.4,24930],[72.4,25014],[72.4,25096],[72.4,25180],[72.4,25264],[72.4,25347],[72.4,25430],[72.4,25513],[72.4,25596],[72.4,25680],[72.4,25763],[72.4,25847],[72.4,25930],[72.4,26013],[72.4,26097],[72.4,26181],[72.4,26264],[72.4,26347],[72.4,26430],[72.4,26513],[72.4,26597],[72.4,26679],[72.4,26764],[72.4,26847],[72.4,26930],[72.4,27014],[72.4,27098],[72.4,27181],[72.4,27264],[72.4,27347],[72.4,27430],[72.4,27513],[72.4,27597],[72.4,27679],[72.4,27764],[72.4,27847],[72.4,27930],[72.4,28014],[72.4,28097],[72.4,28180],[72.4,28264],[72.4,28347],[72.4,28430],[72.4,28514],[72.4,28597],[72.4,28680],[72.4,28762],[72.4,28847],[72.4,28929],[72.4,29013],[72.4,29096],[72.4,29180],[72.4,29264],[72.4,29346],[72.4,29431]]",1,0,887.4863,890.6251,73.13323572,1.8394,"[{""rating"":73.13323572474377,""responseTime"":1.8394000000953383}]",space,2.6016,,890.6251,Not at all,0,890.6326,,,[],,0,11,11,11,1,audio/Narrative8Situation2.wav,audio/Narrative7Situation2.wav,audio/Narrative6Situation2.wav,audio/Narrative5Situation2.wav,3,3,3,3,,,,,,,,,,,,,,,,,,,,,,,,,,,,,,,,,,,,,,,
,,,,,,5eced9328405902eef967571,2024-05-13_08h43.31.765,group3.1-3.2-social-tom,2023.2.2,Win32,59.98440405,65c5074098b851296ff0b7ed,6642342381170c77603f6afd,,,,,,,,,,,,,,,,,,,,,,,,,,,,,890.6333,2,audio/Narrative5Situation3.wav,893.6359,,893.6361,907.5513,[],1,0,907.5514,910.6563,70.64421669,1.6635,"[{""rating"":70.64421669106882,""responseTime"":1.663499999999999}]",space,2.5594,,910.6564,Not at all,0,910.6601,,,[],,0,12,12,12,1,audio/Narrative8Situation3.wav,audio/Narrative7Situation3.wav,audio/Narrative6Situation3.wav,audio/Narrative5Situation3.wav,4,8,5,3,,,,,,,,,,,,,,,,,,,,,,,,,,,,,,,,,,,,,,,
,,,,,,5eced9328405902eef967571,2024-05-13_08h43.31.765,group3.1-3.2-social-tom,2023.2.2,Win32,59.98440405,65c5074098b851296ff0b7ed,6642342381170c77603f6afd,,,,,,,,,,,,,,,,,,,,,,,,,,,,,910.6606,2,audio/Narrative5Situation4.wav,911.6712,,911.6712,932.0497,"[[999,0],[999,83],[999,168],[999,251],[999,336],[999,417],[999,499],[999,579],[999,663],[999,747],[999,829],[999,913],[999,995],[999,1079],[999,1163],[999,1245],[999,1329],[999,1412],[999,1495],[999,1579],[999,1662],[999,1745],[999,1829],[999,1911],[999,1996],[999,2079],[999,2163],[999,2246],[999,2329],[999,2413],[75.9,2497],[72.7,2581],[67,2663],[65.7,2745],[65.1,2829],[64.5,2912],[64.2,2995],[64.1,3079],[64.1,3162],[64.2,3246],[64.6,3329],[65.2,3412],[65.2,3495],[65.2,3578],[65.2,3662],[65.2,3746],[65.2,3828],[65.2,3912],[65.2,3995],[65.2,4079],[65.2,4163],[65.2,4245],[65.2,4329],[65.2,4412],[65.2,4496],[65.2,4579],[65.2,4662],[65.2,4745],[65.2,4829],[65.2,4911],[65.2,4995],[65.2,5079],[65.2,5161],[65.2,5246],[65.2,5328],[65.2,5412],[65.2,5496],[65.2,5579],[65.2,5662],[65.2,5745],[65.2,5828],[65.2,5911],[65.2,5995],[65.2,6078],[65.2,6162],[65.2,6245],[65.2,6328],[65.2,6411],[65.2,6495],[65.8,6579],[66,6662],[66,6746],[66,6828],[66,6912],[66,6995],[66,7079],[66,7161],[66.5,7246],[68.7,7329],[69.6,7412],[69.6,7495],[69.6,7578],[69.6,7662],[69.6,7745],[69.6,7828],[69.6,7911],[69.6,7995],[69.6,8078],[69.6,8161],[69.6,8244],[69.6,8329],[69.6,8412],[69.6,8495],[69.6,8579],[69.6,8662],[69.6,8744],[69.6,8828],[69.6,8912],[69.6,8995],[69.6,9079],[69.6,9162],[69.6,9245],[69.6,9329],[69.6,9412],[69.6,9495],[69.6,9579],[69.6,9662],[69.6,9745],[69.6,9828],[69.6,9911],[69.6,9995],[69.6,10079],[69.6,10161],[69.6,10244],[69.6,10328],[69.6,10413],[69.6,10495],[69.6,10579],[69.6,10661],[69.6,10744],[69.6,10828],[69.6,10912],[69.6,10995],[69.6,11078],[69.6,11161],[69.6,11244],[69.6,11328],[69.6,11411],[69.6,11495],[69.2,11578],[69,11661],[68.4,11745],[68,11828],[67.1,11911],[67,11995],[67,12078],[67,12162],[67,12245],[67,12328],[67,12411],[67,12496],[67,12578],[67,12661],[67,12744],[67,12828],[67,12911],[67,12995],[67,13078],[67,13161],[67,13244],[67,13328],[67,13411],[67,13495],[67,13578],[67,13661],[67.1,13745],[67.1,13828],[67.1,13912],[67.1,13995],[67.1,14078],[67.1,14160],[67.1,14245],[67.1,14329],[67.1,14410],[67.1,14494],[67.1,14578],[67.1,14661],[67.1,14745],[67.1,14828],[67.1,14912],[67.1,14996],[67.1,15078],[67.1,15162],[67.1,15245],[67.1,15329],[67.1,15412],[67.1,15495],[67.1,15578],[67.1,15661],[67.1,15745],[67.1,15828],[67.1,15911],[67.1,15994],[67.1,16078],[67.1,16161],[67.1,16245],[67.1,16327],[67.1,16411],[67.1,16495],[67.1,16578],[67.1,16661],[67.1,16745],[67.1,16827],[67.1,16911],[67.1,16994],[67.1,17078],[67.1,17161],[67.1,17244],[67.1,17328],[67.1,17412],[67.1,17494],[67.1,17578],[67.1,17661],[67.1,17744],[67.1,17827],[67.1,17911],[67.1,17995],[67.1,18077],[67.1,18161],[67.1,18245],[67.1,18328],[67.1,18412],[67.1,18494],[67.1,18577],[67.1,18661],[67.1,18744],[67.1,18827],[67.1,18911],[67.1,18995],[67.1,19078],[67.1,19160],[67.1,19244],[67.1,19328],[67.1,19410],[67.1,19494],[67.1,19579],[67.1,19661],[67.1,19745],[67.1,19828],[67.1,19911],[67.1,19994],[67.1,20078],[67.1,20160],[67.1,20244],[67.1,20328]]",1,0,932.0504,936.549,68.74084919,3.698,"[{""rating"":68.74084919472914,""responseTime"":3.697999999999979}]",space,3.9596,,936.5493,All the time,100,936.5542,,,[],,0,13,13,13,1,audio/Narrative8Situation4.wav,audio/Narrative7Situation4.wav,audio/Narrative6Situation4.wav,audio/Narrative5Situation4.wav,3,3,2,1,,,,,,,,,,,,,,,,,,,,,,,,,,,,,,,,,,,,,,,
,,,,,,5eced9328405902eef967571,2024-05-13_08h43.31.765,group3.1-3.2-social-tom,2023.2.2,Win32,59.98440405,65c5074098b851296ff0b7ed,6642342381170c77603f6afd,,,,,,,,,,,,,,,,,,,,,,,,,,,,,936.5546,2,audio/Narrative5Situation5.wav,941.5655,,941.5657,956.9986,"[[66.3,2948],[65.5,3032],[65.5,3115],[65.5,3199],[65.5,3283],[65.5,3366],[65.5,3450],[65.5,3532],[65.5,3615],[65.5,3699],[65.5,3782],[65.5,3865],[65.5,3950],[65.5,4032],[65.5,4116],[65.5,4199],[65.5,4283],[65.5,4365],[65.5,4449],[65.5,4531],[65.5,4616],[65.5,4698],[65.5,4782],[65.5,4865],[65.5,4950],[65.5,5032],[65.5,5115],[65.5,5199],[65.5,5281],[65.5,5366],[65.5,5449],[65.5,5532],[65.5,5615],[65.5,5699],[65.5,5781],[65.5,5865],[65.5,5949],[65.5,6032],[65.5,6115],[65.5,6199],[65.5,6282],[65.5,6366],[65.5,6448],[65.5,6533],[65.5,6615],[65.5,6699],[65.5,6783],[65.5,6865],[65.5,6949],[65.5,7032],[65.5,7115],[65.5,7198],[65.5,7283],[65.5,7365],[65.5,7449],[65.5,7532],[65.5,7616],[65.5,7699],[65.5,7782],[65.5,7865],[65.5,7949],[65.5,8032],[65.5,8115],[65.5,8198],[65.5,8283],[65.5,8364],[65.5,8448],[65.5,8533],[65.5,8616],[65.5,8698],[65.5,8782],[65.5,8865],[65.5,8950],[65.5,9031],[65.5,9115],[65.5,9198],[65.5,9282],[65.5,9364],[65.5,9448],[65.5,9532],[65.5,9615],[65.5,9698],[65.5,9783],[65.5,9866],[65.5,9949],[65.5,10033],[65.5,10115],[65.5,10199],[65.5,10282],[65.5,10365],[65.5,10448],[65.5,10532],[66.1,10626],[66.4,10699],[66.8,10782],[67,10864],[67,10947],[67,11031],[67,11114],[67,11199],[67,11281],[67,11364],[67,11448],[67,11532],[67,11615],[67,11698],[67,11781],[67,11865],[67,11948],[67,12032],[67,12115],[67,12198],[67,12282],[67,12365],[67,12448],[67,12532],[67,12615],[67,12698],[67,12781],[67,12866],[67,12947],[67,13033],[67,13115],[67,13198],[67,13282],[67,13365],[67,13448],[67,13533],[67,13615],[67,13698],[67,13782],[67,13865],[67,13948],[67,14031],[67,14115],[67,14198],[67,14282],[67,14365],[67,14447],[67,14532],[67,14614],[67,14698],[67,14782],[67,14864],[67,14948],[67,15032],[67,15115],[67,15198],[67,15282],[67,15365]]",1,0,956.999,959.9805,65.95900439,2.1002,"[{""rating"":65.95900439238653,""responseTime"":2.1002000002861223}]",space,2.4375,,959.9807,Not at all,0,959.9849,,,[],,0,14,14,14,1,audio/Narrative8Situation5.wav,audio/Narrative7Situation5.wav,audio/Narrative6Situation5.wav,audio/Narrative5Situation5.wav,2,5,2,5,,,,,,,,,,,,,,,,,,,,,,,,,,,,,,,,,,,,,,,
