exp_question,consent.started,consent.stopped,consentResponse.keys,consentResponse.rt,consentResponse.duration,participantID,date,expName,psychopyVersion,OS,frameRate,STUDY_ID,SESSION_ID,opening1.started,opening1.stopped,keyEndingOpening1.keys,keyEndingOpening1.rt,keyEndingOpening1.duration,volumeAdjust.started,volumeAdjust.stopped,endingAdjust.keys,endingAdjust.rt,endingAdjust.duration,opening2.started,opening2.stopped,keyEndingOpening.keys,keyEndingOpening.rt,keyEndingOpening.duration,mouse.x,mouse.y,mouse.leftButton,mouse.midButton,mouse.rightButton,mouse.time,instructionLoop.thisRepN,instructionLoop.thisTrialN,instructionLoop.thisN,instructionLoop.thisIndex,instructionLoop.ran,readyForAudio.started,readyForAudio.stopped,fixation.started,run,audio_played,fixation.stopped,endPractice.keys,audioPre.started,audioPre.stopped,continuousResponses_audio,continuousSlider.response,continuousSlider.rt,intRating.started,intRating.stopped,intQuestionSlider.response,intQuestionSlider.rt,intQuestionSlider.history,confirmResponse.keys,confirmResponse.rt,confirmResponse.duration,catchQuestion.started,catch_label,catch_value,catchQuestion.stopped,catchQuestionSlider.response,catchQuestionSlider.rt,catchQuestionSlider.history,confirmResponse_2.keys,audioRunLoop.thisRepN,audioRunLoop.thisTrialN,audioRunLoop.thisN,audioRunLoop.thisIndex,audioRunLoop.ran,conditions1_1,conditions2_1,conditions1_2,conditions2_2,dur1_1,dur2_1,dur1_2,dur2_2,endPractice.rt,endPractice.duration,confirmResponse_2.rt,confirmResponse_2.duration,runIntervalBreak.started,runIntervalBreak.stopped,endingBreakKey.keys,endingBreakKey.rt,endingBreakKey.duration,connection.started,connection.stopped,connectionEnding.keys,connectionEnding.rt,connectionEnding.duration,readyForText.started,readyForText.stopped,textPre.started,run_dup,textPre.stopped,continuousResponses_text,textRunLoop.thisRepN,textRunLoop.thisTrialN,textRunLoop.thisN,textRunLoop.thisIndex,textRunLoop.ran,text1_1,text1_2,text2_1,text2_2,runBreakText.started,runBreakText.stopped,endingBreakKey_2.keys,endingBreakKey_2.rt,endingBreakKey_2.duration,ending.started,ending.stopped,endingEnding.keys,endingEnding.rt,endingEnding.duration
tom,0.0003,6.0283,y,5.6986,,5ee09c1a0c2ad1027f541f53,2024-02-08_16h04.03.987,group3.1-3.2-social-tom,2023.2.2,MacIntel,59.88023952,65c5074098b851296ff0b7ed,65c5418eb400311e49373235,,,,,,,,,,,,,,,,,,,,,,,,,,,,,,,,,,,,,,,,,,,,,,,,,,,,,,,,,,,,,,,,,,,,,,,,,,,,,,,,,,,,,,,,,,,,,,,,,,,,,,,,,,
,,,,,,5ee09c1a0c2ad1027f541f53,2024-02-08_16h04.03.987,group3.1-3.2-social-tom,2023.2.2,MacIntel,59.88023952,65c5074098b851296ff0b7ed,65c5418eb400311e49373235,6.0287,11.5472,space,5.4806,,,,,,,,,,,,,,,,,,,,,,,,,,,,,,,,,,,,,,,,,,,,,,,,,,,,,,,,,,,,,,,,,,,,,,,,,,,,,,,,,,,,,,,,,,,,,,,,,,,,,,
,,,,,,5ee09c1a0c2ad1027f541f53,2024-02-08_16h04.03.987,group3.1-3.2-social-tom,2023.2.2,MacIntel,59.88023952,65c5074098b851296ff0b7ed,65c5418eb400311e49373235,,,,,,11.5474,20.8105,space,8.9333,,,,,,,,,,,,,,,,,,,,,,,,,,,,,,,,,,,,,,,,,,,,,,,,,,,,,,,,,,,,,,,,,,,,,,,,,,,,,,,,,,,,,,,,,,,,,,,,,
,,,,,,5ee09c1a0c2ad1027f541f53,2024-02-08_16h04.03.987,group3.1-3.2-social-tom,2023.2.2,MacIntel,59.88023952,65c5074098b851296ff0b7ed,65c5418eb400311e49373235,,,,,,,,,,,20.8309,30.5768,space,9.7192,,[],[],[],[],[],[],0,0,0,0,1,,,,,,,,,,,,,,,,,,,,,,,,,,,,,,,,,,,,,,,,,,,,,,,,,,,,,,,,,,,,,,,,,,,,,,,,,,,,,,,,
,,,,,,5ee09c1a0c2ad1027f541f53,2024-02-08_16h04.03.987,group3.1-3.2-social-tom,2023.2.2,MacIntel,59.88023952,65c5074098b851296ff0b7ed,65c5418eb400311e49373235,,,,,,,,,,,30.5902,68.6613,space,37.943,,[],[],[],[],[],[],1,0,1,0,1,,,,,,,,,,,,,,,,,,,,,,,,,,,,,,,,,,,,,,,,,,,,,,,,,,,,,,,,,,,,,,,,,,,,,,,,,,,,,,,,
,,,,,,5ee09c1a0c2ad1027f541f53,2024-02-08_16h04.03.987,group3.1-3.2-social-tom,2023.2.2,MacIntel,59.88023952,65c5074098b851296ff0b7ed,65c5418eb400311e49373235,,,,,,,,,,,68.6753,81.5925,space,12.8702,,[],[],[],[],[],[],2,0,2,0,1,,,,,,,,,,,,,,,,,,,,,,,,,,,,,,,,,,,,,,,,,,,,,,,,,,,,,,,,,,,,,,,,,,,,,,,,,,,,,,,,
,,,,,,5ee09c1a0c2ad1027f541f53,2024-02-08_16h04.03.987,group3.1-3.2-social-tom,2023.2.2,MacIntel,59.88023952,65c5074098b851296ff0b7ed,65c5418eb400311e49373235,,,,,,,,,,,81.6068,175.2742,space,93.6395,,[],[],[],[],[],[],3,0,3,0,1,,,,,,,,,,,,,,,,,,,,,,,,,,,,,,,,,,,,,,,,,,,,,,,,,,,,,,,,,,,,,,,,,,,,,,,,,,,,,,,,
,,,,,,5ee09c1a0c2ad1027f541f53,2024-02-08_16h04.03.987,group3.1-3.2-social-tom,2023.2.2,MacIntel,59.88023952,65c5074098b851296ff0b7ed,65c5418eb400311e49373235,,,,,,,,,,,175.2881,183.541,space,8.2267,,[],[],[],[],[],[],4,0,4,0,1,,,,,,,,,,,,,,,,,,,,,,,,,,,,,,,,,,,,,,,,,,,,,,,,,,,,,,,,,,,,,,,,,,,,,,,,,,,,,,,,
,,,,,,5ee09c1a0c2ad1027f541f53,2024-02-08_16h04.03.987,group3.1-3.2-social-tom,2023.2.2,MacIntel,59.88023952,65c5074098b851296ff0b7ed,65c5418eb400311e49373235,,,,,,,,,,,,,,,,,,,,,,,,,,,183.5563,186.1407,186.1696,1,audio/Narrative13Situation2.wav,188.1755,,188.1758,217.9247,"[[999,3],[999,115],[999,198],[999,281],[999,366],[999,447],[999,532],[999,614],[999,698],[999,784],[999,864],[999,948],[999,1033],[999,1118],[999,1199],[999,1281],[999,1365],[999,1448],[999,1531],[999,1615],[999,1697],[999,1783],[999,1866],[999,1947],[999,2033],[999,2116],[999,2199],[999,2281],[999,2366],[999,2449],[999,2531],[999,2614],[999,2698],[999,2781],[999,2865],[999,2948],[999,3032],[999,3115],[999,3198],[999,3281],[999,3364],[999,3448],[999,3532],[999,3615],[999,3698],[999,3781],[999,3865],[999,3948],[999,4031],[999,4116],[999,4200],[999,4281],[999,4364],[999,4450],[999,4532],[999,4616],[999,4698],[999,4783],[999,4864],[999,4949],[999,5031],[999,5115],[999,5198],[999,5283],[999,5364],[999,5449],[999,5531],[999,5616],[999,5697],[999,5782],[999,5864],[999,5949],[999,6031],[999,6116],[999,6197],[999,6282],[999,6363],[999,6448],[999,6532],[999,6615],[999,6698],[999,6782],[999,6867],[999,6948],[999,7033],[999,7114],[999,7199],[999,7282],[999,7366],[999,7448],[999,7534],[999,7614],[999,7700],[999,7781],[999,7864],[999,7950],[999,8031],[999,8118],[999,8200],[999,8283],[999,8365],[999,8448],[999,8531],[999,8617],[999,8697],[999,8783],[999,8863],[999,8948],[999,9031],[999,9116],[999,9198],[999,9283],[999,9364],[999,9450],[999,9531],[999,9616],[999,9697],[999,9783],[999,9864],[999,9948],[999,10031],[999,10117],[999,10197],[999,10281],[999,10364],[999,10448],[999,10534],[999,10615],[999,10697],[999,10783],[999,10865],[999,10950],[999,11031],[999,11116],[999,11198],[999,11283],[999,11365],[999,11449],[999,11531],[999,11614],[999,11697],[999,11781],[999,11864],[999,11948],[999,12031],[999,12116],[999,12197],[999,12283],[999,12363],[999,12449],[999,12531],[999,12615],[999,12715],[999,12798],[999,12884],[999,12966],[999,13051],[59.4,13131],[52.9,13216],[51.1,13300],[51.1,13381],[51.1,13465],[51.1,13548],[51.1,13630],[51.1,13715],[51.1,13800],[51.1,13882],[51.1,13965],[51,14048],[49.9,14132],[49.8,14216],[49.4,14300],[49.3,14381],[49.3,14465],[49.3,14547],[49.3,14632],[49.3,14714],[49.3,14799],[49.3,14884],[49.3,14965],[49.3,15050],[49.3,15130],[49.3,15216],[49.3,15300],[49.3,15381],[49.3,15465],[49.3,15547],[49.3,15630],[49.3,15713],[49.3,15797],[49.3,15881],[49.3,15964],[49.3,16047],[49.3,16131],[49.3,16214],[49.3,16297],[49.3,16382],[49.3,16463],[49.3,16547],[49.3,16630],[49.3,16715],[49.3,16797],[49.3,16880],[49.3,16964],[49.3,17048],[49.3,17130],[49.3,17214],[49.3,17297],[49.3,17380],[49.3,17464],[49.3,17547],[49.3,17631],[49.3,17714],[49.3,17796],[48.2,17885],[45.4,17964],[43.4,18048],[39.7,18131],[36.4,18215],[35.6,18298],[35.6,18381],[35.6,18466],[35.6,18548],[35.6,18633],[35.6,18715],[35.6,18799],[35.6,18880],[35.6,18964],[35.6,19048],[35.6,19131],[35.6,19214],[35.3,19301],[34.4,19381],[34.3,19464],[34.3,19549],[34.3,19630],[34.3,19716],[34.3,19797],[34.3,19898],[34.3,19982],[34.3,20067],[34.3,20148],[34.3,20230],[34.3,20315],[34.3,20398],[34.3,20481],[34.3,20567],[34.3,20649],[34.3,20730],[34.3,20814],[34.3,20897],[34.3,20982],[34.3,21064],[34.3,21148],[34.3,21234],[34.3,21315],[34.3,21400],[34.3,21482],[34.3,21564],[34.3,21648],[34.3,21731],[34.3,21816],[34.3,21899],[34.3,21982],[34.3,22064],[34.3,22147],[34.3,22231],[34.6,22317],[35,22398],[35.1,22483],[35.2,22564],[36.2,22649],[37.2,22733],[38,22817],[38.8,22899],[39.6,22985],[41.7,23065],[43.8,23147],[44.6,23232],[44.6,23314],[44.6,23397],[44.6,23480],[44.6,23563],[44.6,23651],[44.6,23731],[44.6,23814],[44.6,23897],[44.6,23982],[44.6,24063],[44.6,24148],[44.6,24231],[44.6,24314],[44.6,24397],[44.6,24480],[44.6,24564],[44.6,24648],[44.6,24733],[45.6,24815],[47.3,24898],[48.5,24981],[49.5,25064],[50,25149],[50.4,25232],[50.4,25316],[50.4,25397],[50.4,25483],[50.4,25564],[50.4,25649],[50.4,25731],[50.4,25815],[50.4,25900],[50.4,25985],[55.2,26065],[65,28481],[65.2,28564],[67.4,28648],[69.1,28730],[69.9,28817],[70.3,28898],[70.3,28984],[70.4,29065],[70.4,29147],[70.4,29230],[70.4,29315],[70.4,29397],[70.4,29480],[70.4,29567],[70.4,29648],[70.4,29731]]",1,0,217.9253,225.6256,49.32293362,5.8142,"[{""rating"":49.32293362087673,""responseTime"":5.814199999988091}]",space,7.1552,,225.6261,Not at all,0,225.6318,,,[],,0,0,0,0,1,audio/Narrative13Situation2.wav,audio/Narrative13Situation2.wav,audio/Narrative13Situation2.wav,audio/Narrative13Situation2.wav,2,2,2,2,,,,,,,,,,,,,,,,,,,,,,,,,,,,,,,,,,,,,,,
,,,,,,5ee09c1a0c2ad1027f541f53,2024-02-08_16h04.03.987,group3.1-3.2-social-tom,2023.2.2,MacIntel,59.88023952,65c5074098b851296ff0b7ed,65c5418eb400311e49373235,,,,,,,,,,,,,,,,,,,,,,,,,,,,,225.6322,1,audio/Narrative8Situation1.wav,230.7068,space,230.7069,246.6239,"[[48.8,2098],[0.6,3184],[1.5,3266],[2.9,3351],[4.3,3433],[5.2,3516],[5.1,3602],[5.1,3683],[5.1,3766],[5.1,3850],[4.8,3935],[4.6,4016],[4.6,4100],[4.6,4184],[4.6,4267],[4.6,4349],[4.6,4434],[4.6,4517],[4.6,4600],[4.6,4682],[4.6,4768],[4.6,4849],[4.6,4934],[4.6,5017],[4.6,5100],[4.6,5183],[4.6,5267],[4.6,5350],[4.6,5432],[4.6,5516],[4.6,5600],[4.6,5685],[4.6,5767],[4.6,5850],[4.6,5933],[4.6,6017],[4.6,6101],[4.6,6182],[4.6,6267],[4.6,6349],[4.6,6433],[4.6,6517],[4.6,6601],[4.6,6684],[4.6,6768],[4.6,6849],[4.6,6934],[4.6,7017],[4.6,7100],[4.6,7183],[4.6,7267],[4.6,7348],[4.6,7433],[4.6,7516],[4.6,7599],[4.6,7685],[4.6,7768],[4.6,7851],[4.6,7934],[4.6,8016],[4.6,8100],[4.6,8183],[4.6,8266],[4.6,8351],[4.6,8432],[4.6,8518],[4.6,8601],[4.6,8683],[4.6,8767],[4.6,8850],[4.6,8934],[4.6,9018],[4.6,9099],[4.6,9184],[4.6,9266],[4.6,9349],[4.6,9433],[4.6,9517],[4.6,9600],[4.6,9684],[4.6,9768],[4.6,9850],[4.6,9936],[4.6,10016],[4.6,10101],[4.6,10182],[4.6,10268],[4.6,10349],[4.6,10433],[4.6,10516],[4.6,10602],[4.6,10682],[4.6,10766],[4.6,10852],[4.6,10934],[4.6,11016],[4.6,11100],[4.6,11183],[4.6,11267],[4.6,11348],[4.6,11434],[4.6,11516],[4.6,11600],[4.6,11685],[4.6,11766],[4.6,11850],[4.6,11934],[4.6,12017],[4.6,12099],[4.6,12183],[4.6,12267],[4.6,12349],[4.6,12434],[4.6,12516],[4.6,12600],[4.6,12682],[4.6,12768],[4.6,12849],[4.6,12934],[4.6,13016],[4.6,13099],[4.6,13183],[4.6,13267],[4.6,13352],[4.6,13435],[4.6,13516],[4.6,13601],[4.6,13682],[4.6,13765],[4.6,13851],[4.6,13932],[4.6,14016],[4.6,14100],[4.6,14185],[5.5,14271],[6.6,14352],[7,14436],[7.3,14516],[7.5,14598],[7.6,14685],[7.8,14767],[7.8,14849],[7.8,14932],[7.8,15017],[7.8,15100],[7.8,15185],[7.8,15266],[7.8,15349],[10.1,15433],[12.7,15519],[13.6,15599],[14.1,15683],[14.2,15765],[14.2,15850]]",1,0,246.6242,252.4399,20.12763977,3.6424,"[{""rating"":20.12763977050781,""responseTime"":3.6424000000357637}]",space,5.2847,,252.44,Not at all,0,252.4435,,,[],,0,1,1,1,1,audio/Narrative7Situation1.wav,audio/Narrative8Situation1.wav,audio/Narrative5Situation1.wav,audio/Narrative6Situation1.wav,2,5,5,2,5.0479,,,,,,,,,,,,,,,,,,,,,,,,,,,,,,,,,,,,,,
,,,,,,5ee09c1a0c2ad1027f541f53,2024-02-08_16h04.03.987,group3.1-3.2-social-tom,2023.2.2,MacIntel,59.88023952,65c5074098b851296ff0b7ed,65c5418eb400311e49373235,,,,,,,,,,,,,,,,,,,,,,,,,,,,,252.444,1,audio/Narrative8Situation2.wav,255.4575,,255.4575,265.5907,"[[22.2,1103],[26.1,1182],[28.7,1265],[30.7,1349],[31.2,1432],[31.2,1515],[31.2,1600],[31.2,1681],[31.2,1766],[31.2,1849],[31.2,1931],[31.2,2016],[31.2,2098],[31.2,2182],[31.2,2265],[31.2,2348],[31.2,2432],[31.2,2516],[31.2,2598],[31.2,2685],[31.2,2765],[31.2,2850],[31.2,2933],[31.2,3016],[31.2,3099],[31.2,3183],[31.2,3266],[31.2,3350],[31.2,3432],[31.2,3516],[31.2,3600],[31.2,3684],[31.4,3777],[31.9,3848],[32.2,3935],[32.4,4018],[32.4,4098],[32.4,4183],[32.4,4267],[32.4,4349],[32.4,4432],[32.4,4515],[32.4,4599],[32.4,4683],[32.4,4768],[32.4,4849],[32.4,4932],[32.4,5015],[32.4,5098],[32.4,5183],[32.4,5265],[32.4,5351],[32.4,5431],[32.4,5517],[32.4,5600],[32.4,5684],[32.4,5767],[32.4,5850],[32.4,5931],[32.4,6017],[32.4,6098],[32.4,6183],[32.4,6266],[32.4,6348],[32.4,6432],[32.4,6515],[32.4,6598],[32.4,6683],[32.4,6765],[32.4,6849],[32.4,6933],[32.4,7015],[32.4,7098],[32.4,7183],[32.4,7266],[32.4,7350],[32.4,7431],[32.4,7516],[32.4,7598],[32.4,7683],[32.4,7765],[32.4,7850],[32.4,7931],[32.4,8016],[32.4,8099],[32.4,8184],[32.4,8267],[32.4,8349],[32.4,8434],[32.4,8515],[32.4,8599],[32.4,8683],[32.4,8768],[32.4,8851],[33.3,8946],[34.5,9020],[34.8,9099],[34.8,9184],[35.1,9270],[35.8,9349],[36.1,9431],[36.7,9515],[37.8,9598],[38.6,9682],[39.3,9765],[40.4,9848],[41.3,9931],[42.1,10015],[42.4,10098]]",1,0,265.5909,269.8417,48.66087172,2.616,"[{""rating"":48.66087171766493,""responseTime"":2.6159999999999854}]",space,3.701,,269.8417,Half the time,50,269.8469,,,[],,0,2,2,2,1,audio/Narrative7Situation2.wav,audio/Narrative8Situation2.wav,audio/Narrative5Situation2.wav,audio/Narrative6Situation2.wav,3,3,3,3,,,,,,,,,,,,,,,,,,,,,,,,,,,,,,,,,,,,,,,
,,,,,,5ee09c1a0c2ad1027f541f53,2024-02-08_16h04.03.987,group3.1-3.2-social-tom,2023.2.2,MacIntel,59.88023952,65c5074098b851296ff0b7ed,65c5418eb400311e49373235,,,,,,,,,,,,,,,,,,,,,,,,,,,,,269.8472,1,audio/Narrative8Situation3.wav,273.856,,273.8562,296.2419,"[[999,18],[999,101],[999,183],[999,267],[999,350],[999,434],[999,516],[999,599],[999,686],[999,769],[999,851],[999,934],[999,1017],[999,1100],[999,1187],[999,1266],[999,1351],[999,1433],[999,1539],[999,1616],[999,1703],[999,1784],[999,1867],[999,1951],[999,2033],[52.9,2120],[56.1,2201],[59.1,2282],[60.2,2367],[61.1,2450],[61.8,2532],[62.1,2615],[62.1,2700],[62.1,2782],[63.3,2866],[68.3,2950],[69.4,3032],[69.8,3118],[71.3,3200],[72.2,3283],[72.2,3367],[72.2,3449],[72.2,3534],[72.2,3617],[72.2,3700],[72.2,3785],[73.4,3867],[75.4,3949],[76.7,4033],[77.7,4118],[77.7,4199],[77.7,4285],[78,4366],[78,4450],[78,4535],[78,4618],[78,4699],[78,4783],[78,4866],[78,4951],[78,5032],[78,5119],[78,5201],[78,5284],[78,5367],[78.2,5453],[80.6,5533],[81.1,5618],[81.1,5699],[81.1,5783],[81.1,5868],[81.1,5951],[81.1,6034],[81.1,6116],[81.1,6199],[81.1,6284],[81.1,6367],[81.1,6451],[81.1,6533],[81.1,6616],[81.1,6701],[83.1,6792],[83.6,6868],[83.7,6952],[83.7,7035],[83.8,7116],[83.8,7201],[83.8,7283],[83.8,7368],[83.8,7453],[83.8,7537],[83.8,7617],[83.8,7703],[83.8,7784],[83.8,7868],[83.8,7953],[83.8,8033],[83.8,8119],[83.8,8204],[83.8,8284],[83.8,8370],[83.8,8450],[83.8,8534],[83.8,8616],[83.8,8701],[83.8,8783],[83.8,8868],[83.8,8951],[83.8,9036],[83.8,9116],[83.8,9201],[83.8,9284],[83.8,9367],[83.8,9452],[83.8,9534],[84.5,9618],[84.9,9699],[85,9784],[85,9868],[85,9953],[85,10036],[85,10118],[85,10201],[85,10285],[85,10369],[85,10449],[85,10534],[85,10616],[85,10701],[85,10782],[85,10870],[85,10951],[85,11033],[85,11117],[85,11201],[85,11283],[85,11368],[85,11451],[85,11533],[85,11618],[85,11703],[85,11783],[85,11868],[85,11953],[85,12036],[85,12119],[85,12203],[85,12286],[85,12369],[85.4,12451],[85.9,12535],[85.9,12619],[85.9,12701],[85.9,12787],[86,12867],[86.8,12951],[87.1,13033],[87.1,13118],[87.7,13202],[88.2,13286],[88.4,13367],[88.8,13452],[88.8,13533],[88.8,13617],[88.8,13702],[88.8,13786],[88.8,13867],[88.8,13952],[88.8,14034],[88.8,14119],[88.8,14200],[88.8,14284],[88.8,14369],[88.8,14450],[88.8,14536],[88.8,14616],[88.8,14702],[88.8,14783],[88.8,14866],[91.3,14953],[92.6,15032],[92.8,15118],[93.2,15201],[93.7,15284],[93.7,15368],[93.7,15451],[93.7,15534],[93.7,15618],[93.7,15702],[93.7,15783],[93.7,15868],[93.7,15950],[93.7,16034],[93.7,16118],[93.7,16202],[93.7,16284],[93.7,16369],[93.7,16450],[93.7,16534],[93.7,16617],[93.7,16701],[93.7,16785],[93.8,16867],[94.8,16952],[95,17036],[95.3,17117],[95.8,17202],[95.9,17282],[95.9,17368],[95.9,17452],[96.1,17535],[96.6,17616],[96.7,17703],[96.7,17785],[96.7,17868],[96.7,17951],[96.7,18036],[96.7,18116],[96.7,18202],[96.7,18284],[96.7,18369],[96.7,18450],[96.7,18534],[96.7,18619],[96.7,18701],[96.7,18784],[96.7,18867],[96.7,18952],[96.7,19035],[96.7,19119],[96.7,19201],[96.7,19282],[96.7,19367],[96.7,19450],[96.7,19536],[96.7,19618],[96.7,19703],[96.7,19786],[96.7,19867],[96.7,19953],[96.7,20035],[96.7,20116],[96.7,20200],[96.7,20284],[96.7,20366],[96.7,20451],[96.7,20534],[96.7,20619],[96.7,20700],[96.7,20783],[96.7,20868],[96.7,20951],[96.7,21035],[96.7,21116],[96.7,21201],[96.7,21286],[96.7,21367],[96.7,21452],[96.7,21533],[96.7,21618],[96.7,21703],[96.7,21783],[96.7,21868],[96.7,21950],[96.7,22034],[96.7,22118],[96.7,22203],[96.7,22285],[96.7,22368]]",1,0,296.2422,299.2397,97.76009454,1.8147,"[{""rating"":97.76009453667534,""responseTime"":1.814700000047651}]",space,2.4498,,299.2398,Half the time,50,299.2429,,,[],,0,3,3,3,1,audio/Narrative7Situation3.wav,audio/Narrative8Situation3.wav,audio/Narrative5Situation3.wav,audio/Narrative6Situation3.wav,8,4,3,5,,,,,,,,,,,,,,,,,,,,,,,,,,,,,,,,,,,,,,,
,,,,,,5ee09c1a0c2ad1027f541f53,2024-02-08_16h04.03.987,group3.1-3.2-social-tom,2023.2.2,MacIntel,59.88023952,65c5074098b851296ff0b7ed,65c5418eb400311e49373235,,,,,,,,,,,,,,,,,,,,,,,,,,,,,299.2432,1,audio/Narrative8Situation4.wav,302.2576,,302.2577,316.4392,"[[96.8,831],[95.2,916],[95.1,997],[95.1,1082],[95.1,1165],[95.1,1248],[95.1,1332],[95.1,1415],[95.1,1498],[95.1,1581],[95.1,1664],[95.1,1749],[95.1,1831],[95.1,1916],[95.1,1997],[95.1,2083],[94.7,2165],[93,2250],[92,2332],[91.5,2415],[91.2,2498],[90.5,2581],[90.3,2666],[90.3,2747],[90.3,2832],[90.3,2914],[90.3,2997],[90.3,3082],[90.3,3166],[90.3,3247],[90.3,3333],[90.2,3414],[88.8,3499],[88.1,3582],[87.9,3664],[86.8,3749],[85.4,3832],[84.8,3915],[84.3,3998],[83.2,4082],[82,4164],[81.9,4250],[81.9,4331],[81.9,4416],[81.9,4500],[81.9,4581],[81.9,4665],[81.9,4748],[81.9,4831],[81.9,4915],[81.9,4997],[81.9,5082],[81.9,5164],[81.9,5248],[81.9,5331],[81.9,5414],[81.9,5498],[81.6,5584],[78.4,5664],[77.2,5748],[74.6,5834],[72.4,5914],[71.3,6000],[70.9,6081],[70.9,6165],[70.9,6249],[70.9,6332],[70.9,6414],[71.1,6499],[78,6581],[80.3,6665],[80.4,6748],[80.4,6831],[80.4,6914],[80.4,6998],[80.4,7081],[80.4,7164],[84.4,7247],[86.4,7331],[86.4,7415],[86.4,7498],[86.4,7581],[86.4,7668],[87.3,7748],[87.9,7833],[88.4,7916],[88.4,8000],[88.6,8082],[89.6,8166],[90.2,8247],[90.8,8334],[91.6,8415],[92.2,8500],[92.6,8584],[93.1,8664],[93.4,8751],[93.8,8833],[94.4,8914],[94.6,8998],[94.8,9081],[95,9165],[95,9248],[95.2,9333],[95.3,9415],[95.4,9498],[95.4,9583],[95.7,9664],[96.2,9751],[96.2,9833],[96.2,9914],[96.4,9999],[96.6,10080],[96.6,10164],[96.6,10249],[96.6,10331],[96.6,10416],[96.6,10497],[96.6,10581],[96.6,10665],[96.6,10748],[96.6,10831],[96.6,10914],[96.6,10997],[96.6,11082],[96.6,11168],[96.6,11248],[96.6,11330],[96.6,11415],[96.6,11497],[96.6,11581],[96.6,11664],[96.6,11749],[96.6,11830],[96.6,11915],[96.6,11999],[96.6,12081],[96.6,12164],[96.6,12248],[96.6,12331],[96.6,12416],[96.6,12497],[96.6,12581],[96.6,12665],[96.6,12748],[96.6,12831],[96.6,12916],[96.6,12997],[96.6,13082],[96.6,13166],[96.6,13248],[96.6,13330],[96.6,13415],[96.6,13497],[96.6,13582],[96.6,13664],[96.6,13750],[96.6,13831],[96.6,13915],[96.6,13997],[96.6,14081],[96.6,14164]]",1,0,316.4395,320.3589,97.43608263,2.4032,"[{""rating"":97.4360826280382,""responseTime"":2.4031999999880895}]",space,3.3772,,320.3591,Half the time,50,320.3618,,,[],,0,4,4,4,1,audio/Narrative7Situation4.wav,audio/Narrative8Situation4.wav,audio/Narrative5Situation4.wav,audio/Narrative6Situation4.wav,3,3,1,2,,,,,,,,,,,,,,,,,,,,,,,,,,,,,,,,,,,,,,,
,,,,,,5ee09c1a0c2ad1027f541f53,2024-02-08_16h04.03.987,group3.1-3.2-social-tom,2023.2.2,MacIntel,59.88023952,65c5074098b851296ff0b7ed,65c5418eb400311e49373235,,,,,,,,,,,,,,,,,,,,,,,,,,,,,320.3625,1,audio/Narrative8Situation5.wav,322.372,,322.3721,330.6068,"[[999,0],[999,84],[999,168],[999,249],[999,333],[999,417],[999,501],[999,583],[999,667],[999,751],[999,834],[999,917],[999,1000],[999,1084],[999,1166],[999,1250],[999,1333],[999,1418],[999,1501],[999,1585],[999,1668],[999,1752],[999,1833],[999,1916],[999,2000],[999,2084],[999,2167],[999,2251],[999,2333],[999,2416],[999,2499],[999,2583],[999,2666],[999,2750],[999,2833],[999,2916],[999,3000],[999,3083],[999,3166],[999,3250],[999,3333],[999,3416],[999,3501],[999,3585],[999,3668],[999,3752],[999,3833],[999,3916],[999,3999],[999,4083],[999,4167],[999,4250],[999,4335],[999,4418],[999,4499],[999,4583],[999,4666],[999,4750],[999,4836],[999,4919],[999,5000],[999,5084],[999,5166],[999,5251],[999,5353],[999,5437],[999,5518],[999,5601],[999,5683],[999,5767],[999,5851],[999,5934],[999,6017],[999,6100],[999,6185],[999,6266],[92.5,6350],[93.7,6435],[94.2,6516],[94.2,6601],[94.5,6684],[94.9,6769],[95.3,6852],[95.7,6933],[95.8,7016],[95.8,7102],[95.8,7185],[95.8,7267],[95.8,7349],[95.8,7433],[95.8,7518],[95.8,7599],[95.8,7683],[95.8,7767],[95.8,7852],[95.8,7933],[95.8,8019],[95.8,8100],[95.8,8185]]",1,0,330.607,335.1718,96.20947944,3.5626,"[{""rating"":96.20947943793404,""responseTime"":3.562600000023849}]",space,4.0159,,335.172,Not at all,0,357.6426,0.062268575,19.6847,"[{""rating"":0.062268575032553564,""responseTime"":19.684699999988084}]",space,0,5,5,5,1,audio/Narrative7Situation5.wav,audio/Narrative8Situation5.wav,audio/Narrative5Situation5.wav,audio/Narrative6Situation5.wav,5,2,5,2,,,21.9221,,,,,,,,,,,,,,,,,,,,,,,,,,,,,,,,,,,,
,,,,,,5ee09c1a0c2ad1027f541f53,2024-02-08_16h04.03.987,group3.1-3.2-social-tom,2023.2.2,MacIntel,59.88023952,65c5074098b851296ff0b7ed,65c5418eb400311e49373235,,,,,,,,,,,,,,,,,,,,,,,,,,,,,357.6431,1,audio/Narrative8Situation6.wav,359.6548,,359.6548,366.1389,"[[999,0],[999,84],[999,167],[999,250],[999,334],[999,417],[999,499],[999,583],[999,666],[999,753],[999,834],[999,918],[999,999],[999,1085],[999,1167],[999,1249],[999,1333],[999,1416],[999,1501],[999,1585],[999,1667],[999,1749],[999,1833],[999,1916],[999,1999],[999,2084],[999,2168],[999,2249],[999,2333],[999,2418],[999,2499],[999,2583],[999,2666],[999,2750],[999,2834],[999,2918],[999,3000],[999,3084],[999,3169],[999,3249],[999,3332],[999,3416],[999,3501],[999,3583],[999,3667],[999,3750],[999,3833],[999,3915],[999,4000],[52.4,4171],[63.5,4250],[67.2,4333],[67.2,4417],[67.2,4500],[70.9,4586],[78.1,4669],[83,4753],[86.4,4834],[87.1,4918],[88.4,5001],[89.2,5084],[88.9,5170],[88.9,5250],[88.9,5335],[88.9,5417],[88.9,5501],[88.9,5585],[88.9,5667],[88.9,5749],[88.9,5834],[88.9,5916],[88.9,6001],[88.9,6083],[88.9,6167],[88.9,6250],[88.9,6334],[88.9,6417]]",1,0,366.1392,369.6893,88.96363152,1.4814,"[{""rating"":88.96363152398004,""responseTime"":1.4814000000357623}]",space,3.0031,,369.6895,Half the time,50,369.6939,,,[],,0,6,6,6,1,audio/Narrative7Situation6.wav,audio/Narrative8Situation6.wav,audio/Narrative5Situation6.wav,audio/Narrative6Situation6.wav,3,2,3,2,,,,,,,,,,,,,,,,,,,,,,,,,,,,,,,,,,,,,,,
,,,,,,5ee09c1a0c2ad1027f541f53,2024-02-08_16h04.03.987,group3.1-3.2-social-tom,2023.2.2,MacIntel,59.88023952,65c5074098b851296ff0b7ed,65c5418eb400311e49373235,,,,,,,,,,,,,,,,,,,,,,,,,,,,,369.6942,1,audio/Narrative8Situation7.wav,372.7047,,372.7048,384.7892,"[[89.1,3834],[71.4,4420],[70.5,4500],[69.2,4583],[67.4,4667],[67.4,4749],[67.4,4835],[61.5,4917],[57.4,5001],[56.1,5084],[53.9,5170],[53.3,5251],[52,5337],[51.6,5419],[51.1,5500],[50,5583],[49.9,5666],[49.9,5751],[49.9,5833],[49.9,5917],[49.9,6000],[49.9,6082],[49.9,6167],[49.9,6251],[49.9,6334],[49.9,6418],[49.9,6500],[49.9,6584],[51.5,6666],[62.4,6750],[66.7,6834],[66.9,6918],[67.2,7000],[67.2,7084],[67.2,7166],[67.2,7251],[67.2,7333],[67.2,7416],[67.2,7500],[67.2,7585],[67.2,7666],[67.2,7751],[67.2,7834],[67.2,7917],[67.2,7999],[67.2,8082],[67.2,8167],[67.2,8251],[67.2,8336],[67.2,8419],[67.2,8500],[67.2,8584],[67.2,8668],[67.2,8751],[67.2,8834],[67.2,8916],[67.2,8999],[67.2,9084],[67.2,9167],[67.2,9250],[67.2,9333],[67.2,9416],[67.2,9501],[67.2,9584],[67.2,9666],[65.5,9754],[61.8,9833],[59.6,9918],[57.7,10001],[56.2,10084],[56.1,10167],[56.1,10250],[56,10332],[56,10418],[56,10500],[56,10584],[56,10666],[56,10749],[56,10833],[56,10918],[56,10999],[56,11084],[56,11165],[56,11250],[56,11333],[56,11418],[56,11500],[56,11585],[56,11666],[56,11751],[56,11833],[56,11918],[56,11999],[56,12084]]",1,0,384.7893,389.1892,54.38627455,2.0325,"[{""rating"":54.38627454969618,""responseTime"":2.0324999999999704}]",space,3.8708,,389.1892,All the time,100,389.195,,,[],,0,7,7,7,1,audio/Narrative7Situation7.wav,audio/Narrative8Situation7.wav,audio/Narrative5Situation7.wav,audio/Narrative6Situation7.wav,5,3,4,5,,,,,,,,,,,,,,,,,,,,,,,,,,,,,,,,,,,,,,,
,,,,,,5ee09c1a0c2ad1027f541f53,2024-02-08_16h04.03.987,group3.1-3.2-social-tom,2023.2.2,MacIntel,59.88023952,65c5074098b851296ff0b7ed,65c5418eb400311e49373235,,,,,,,,,,,,,,,,,,,,,,,,,,,,,389.1953,1,audio/Narrative8Situation8.wav,392.2063,,392.2064,405.0711,"[[999,0],[999,82],[999,164],[999,249],[999,331],[999,416],[999,497],[999,581],[999,666],[999,750],[999,832],[999,916],[999,1000],[999,1081],[999,1164],[999,1247],[999,1333],[999,1414],[999,1498],[999,1582],[999,1665],[999,1748],[999,1831],[999,1915],[999,1999],[999,2081],[999,2164],[999,2247],[999,2331],[999,2414],[999,2497],[999,2581],[999,2665],[999,2747],[999,2831],[999,2914],[999,2997],[999,3081],[999,3164],[999,3247],[999,3333],[999,3415],[999,3497],[999,3580],[999,3666],[999,3748],[999,3833],[999,3915],[999,4000],[999,4081],[53.4,4169],[53.3,4252],[52.8,4331],[52.2,4417],[51.8,4498],[51.3,4583],[51.6,4665],[58.2,4752],[61.6,4833],[61.9,4916],[62.3,4997],[62.3,5081],[62.3,5164],[62.3,5248],[64.2,5331],[65.7,5414],[66.4,5498],[66.5,5583],[66.7,5664],[66.7,5748],[66.7,5831],[66.7,5914],[66.7,5998],[66.7,6082],[66.7,6165],[67.9,6248],[68.9,6335],[69.7,6414],[71.6,6498],[72.7,6581],[72.9,6666],[72.9,6748],[72.9,6832],[72.9,6914],[72.9,6999],[72.9,7081],[72.9,7166],[72.9,7251],[72.9,7332],[72.9,7414],[72.9,7498],[72.9,7581],[72.9,7665],[72.9,7748],[72.9,7833],[72.9,7914],[75.5,8000],[80.4,8081],[81,8164],[81,8250],[81,8332],[81,8417],[81,8500],[81,8581],[81.9,8666],[86,8749],[86.2,8832],[86.3,8916],[86.4,8999],[86.4,9081],[86.4,9165],[86.4,9249],[86.4,9333],[86.4,9416],[86.4,9498],[86.4,9582],[86.4,9664],[86.4,9747],[88.3,9834],[90.7,9914],[91,9999],[91.5,10082],[93,10164],[93.4,10247],[93.7,10337],[93.8,10415],[93.9,10499],[94.4,10581],[95.4,10665],[95.5,10768],[95.5,10849],[95.5,10932],[95.5,11015],[95.5,11097],[95.5,11184],[95.8,11266],[96.3,11348],[96.7,11432],[96.9,11516],[96.9,11598],[96.9,11681],[96.9,11765],[96.9,11849],[96.9,11932],[96.9,12015],[96.9,12097],[96.9,12181],[96.9,12265],[96.9,12348],[96.9,12431],[96.9,12516],[96.9,12597],[96.9,12681],[96.9,12764],[96.9,12848]]",1,0,405.0713,407.2725,96.90080431,0.1121,"[{""rating"":96.90080430772569,""responseTime"":0.11209999996424358}]",space,1.6681,,407.2726,Not at all,0,407.2775,,,[],,0,8,8,8,1,audio/Narrative7Situation8.wav,audio/Narrative8Situation8.wav,audio/Narrative5Situation8.wav,audio/Narrative6Situation8.wav,2,3,3,5,,,,,,,,,,,,,,,,,,,,,,,,,,,,,,,,,,,,,,,
,,,,,,5ee09c1a0c2ad1027f541f53,2024-02-08_16h04.03.987,group3.1-3.2-social-tom,2023.2.2,MacIntel,59.88023952,65c5074098b851296ff0b7ed,65c5418eb400311e49373235,,,,,,,,,,,,,,,,,,,,,,,,,,,,,407.278,1,audio/Narrative8Situation9.wav,410.2886,,410.2886,421.6213,"[[94.4,6509],[93.2,6916],[94,7002],[94.6,7085],[95,7166],[95.1,7251],[95.1,7333],[95.1,7416],[95.1,7500],[95.1,7582],[95.1,7667],[95.1,7749],[95.1,7832],[95.1,7918],[95.1,8001],[95.1,8082],[95.1,8165],[95.1,8249],[94.8,8332],[94.7,8418],[94.3,8501],[94.2,8584],[94.2,8667],[94.2,8750],[94.2,8832],[94.3,8917],[94.4,8998],[94.5,9083],[94.5,9165],[94.5,9249],[94.5,9334],[94.5,9415],[94.5,9500],[94.5,9582],[94.5,9666],[94.5,9751],[94.5,9836],[94.5,9917],[94.5,9999],[94.5,10083],[94.5,10166],[94.5,10248],[94.5,10332],[94.5,10416],[94.5,10499],[94.5,10584],[94.5,10665],[94.5,10749],[94.5,10833],[94.5,10916],[94.5,10999],[94.5,11084],[94.5,11165],[94.5,11252],[94.5,11332]]",1,0,421.6214,425.7564,94.39488729,0.7992,"[{""rating"":94.39488728841145,""responseTime"":0.7992000000476764}]",space,3.5989,,425.7565,All the time,100,425.7742,,,[],,0,9,9,9,1,audio/Narrative7Situation9.wav,audio/Narrative8Situation9.wav,audio/Narrative5Situation9.wav,audio/Narrative6Situation9.wav,2,3,3,4,,,,,,,,,,,,,,,,,,,,,,,,,,,,,,,,,,,,,,,
,,,,,,5ee09c1a0c2ad1027f541f53,2024-02-08_16h04.03.987,group3.1-3.2-social-tom,2023.2.2,MacIntel,59.88023952,65c5074098b851296ff0b7ed,65c5418eb400311e49373235,,,,,,,,,,,,,,,,,,,,,,,,,,,,,425.7745,1,audio/Narrative7Situation1.wav,427.7885,,427.7885,483.6704,"[[999,0],[999,83],[999,165],[999,251],[999,332],[999,416],[999,500],[999,583],[999,667],[999,749],[999,832],[999,917],[999,999],[999,1082],[999,1165],[72.7,1249],[35.1,1331],[29.7,1417],[25.8,1500],[14.4,1584],[10.1,1665],[10.1,1748],[10.1,1832],[10.1,1915],[10.1,2000],[10.1,2083],[10.1,2167],[10.1,2250],[10.1,2332],[10.1,2416],[10.1,2499],[10.1,2581],[10.1,2667],[10.1,2748],[10.1,2835],[10.1,2915],[10.1,3000],[10.1,3082],[10.1,3165],[10.1,3248],[10.1,3333],[10.1,3415],[10.1,3499],[10.1,3581],[10.1,3665],[10.1,3749],[10.1,3833],[10.1,3915],[10.1,4000],[10.1,4083],[10.1,4166],[11.7,4252],[15,4332],[16.1,4416],[16.6,4498],[17,4584],[18,4665],[19.9,4752],[21,4835],[21.4,4915],[21.4,4999],[21.4,5082],[21.4,5166],[23.7,5249],[33.3,5333],[36.3,5416],[36.4,5499],[36.4,5583],[36.4,5665],[36.4,5749],[36.6,5833],[44.3,5915],[50.3,6000],[50.7,6084],[50.8,6168],[50.9,6250],[50.9,6332],[50.9,6415],[50.9,6501],[50.9,6581],[50.9,6668],[50.9,6748],[50.9,6833],[50.9,6917],[50.7,6998],[50.7,7083],[50.7,7166],[50.7,7248],[50.7,7333],[50.7,7415],[50.8,7504],[51,7581],[51,7666],[51,7749],[51,7834],[51.2,7916],[56.7,8001],[59.3,8083],[59.4,8167],[59.4,8248],[59.4,8332],[59.4,8415],[59.4,8501],[59.4,8581],[59.4,8666],[59.4,8748],[59.4,8834],[59.4,8916],[59.4,8999],[59.4,9082],[59.4,9166],[59.4,9248],[59.4,9333],[59.4,9415],[59.4,9499],[59.4,9583],[59.4,9665],[59.4,9749],[59.4,9834],[59.4,9915],[59.4,10000],[58.7,10083],[57.4,10166],[57.2,10248],[57.2,10333],[57.2,10416],[57.2,10500],[57.2,10581],[57.2,10667],[57.2,10752],[57.2,10833],[57.2,10916],[57.2,10998],[57.2,11082],[57.2,11165],[57.2,11248],[57.2,11333],[57.2,11416],[57.2,11499],[57.2,11582],[57.2,11666],[57.2,11749],[57.2,11833],[57.2,11916],[57.2,12000],[57.2,12085],[57.2,12167],[57.2,12250],[57.2,12332],[57.2,12415],[57.2,12498],[57.2,12581],[57.2,12667],[57.2,12750],[57.2,12832],[57.2,12915],[57.2,12998],[57.2,13082],[57.2,13166],[57.2,13248],[57.2,13333],[57.2,13416],[57.2,13500],[57.2,13581],[57.2,13667],[57.2,13749],[57.2,13834],[57.2,13915],[57.2,14000],[57.2,14082],[57.2,14165],[59.5,14260],[62.5,14333],[63.7,14416],[64.5,14499],[64.9,14583],[64.9,14666],[64.9,14749],[64.9,14832],[64.9,14915],[68.4,15000],[70.9,15082],[71.1,15169],[71.2,15250],[71.2,15333],[71.2,15415],[71.2,15500],[71.2,15581],[71.2,15665],[71.2,15749],[71.2,15833],[71.2,15916],[72.2,16000],[72.8,16081],[72.8,16165],[72.8,16251],[72.8,16334],[73,16417],[73.1,16501],[73.2,16583],[73.2,16666],[73.2,16750],[73.2,16831],[73.2,16917],[73.2,16998],[73.2,17083],[73.2,17165],[73.2,17249],[73.2,17332],[73.2,17417],[73.2,17498],[73.2,17583],[73.2,17665],[73.2,17750],[73.2,17831],[73.2,17916],[73.2,17999],[73.2,18085],[73.2,18164],[73.2,18248],[73.2,18333],[73.2,18416],[73.2,18498],[73.2,18581],[73.2,18665],[73.2,18749],[73.2,18831],[73.2,18917],[73.2,18998],[73.2,19082],[73.2,19166],[73.2,19250],[73.2,19333],[73.2,19415],[73.2,19499],[73.2,19584],[73.2,19665],[73.2,19751],[73.2,19834],[73.2,19917],[73.2,19999],[73.2,20083],[73.2,20166],[73.2,20250],[73.2,20331],[73.2,20418],[73.2,20499],[73.2,20581],[73.2,20667],[73.2,20751],[73.2,20833],[73.2,20917],[73.2,20998],[73.2,21082],[73.2,21166],[73.2,21248],[73.2,21333],[73.2,21415],[73.2,21498],[73.2,21581],[73.2,21665],[73.2,21749],[73.2,21832],[73.2,21915],[73.2,22000],[73.2,22083],[73.2,22165],[73.2,22250],[73.2,22332],[73.2,22415],[73.2,22500],[73.2,22582],[73.2,22668],[73.2,22749],[73.2,22833],[73.2,22915],[73.2,22998],[73.2,23082],[73.2,23166],[73.2,23248],[73.2,23333],[73.2,23415],[73.2,23499],[73.2,23583],[73.2,23665],[73.2,23749],[73.4,23844],[73.8,23914],[73.9,23999],[74,24081],[74.2,24165],[74.2,24252],[74.2,24332],[74.2,24416],[74.2,24498],[74.2,24581],[74.2,24667],[74.2,24749],[74.2,24832],[74.2,24915],[74.2,24998],[74.2,25082],[74.2,25165],[74.2,25249],[74.2,25333],[74.2,25415],[75.6,25500],[76.1,25583],[76.2,25668],[76.2,25748],[76.2,25834],[76.2,25915],[76.2,26001],[76.2,26083],[76.2,26166],[76.2,26250],[76.2,26333],[76.2,26416],[76.2,26500],[76.2,26581],[76.2,26665],[76.2,26749],[76.2,26833],[76.2,26916],[76.2,26999],[76.2,27082],[76.2,27167],[76.2,27248],[76.2,27335],[76.2,27415],[76.2,27499],[76.2,27583],[76.2,27665],[76.2,27749],[76.2,27832],[76.2,27915],[76.2,28000],[76.2,28081],[76.2,28165],[76.2,28248],[76.2,28332],[76.2,28415],[76.2,28499],[76.2,28583],[76.2,28666],[76.2,28749],[76.2,28832],[76.2,28915],[76.2,28998],[76.2,29083],[76.2,29167],[76.2,29249],[76.2,29334],[76.2,29415],[76.2,29500],[76.2,29581],[76.2,29666],[76.2,29748],[76.2,29834],[76.2,29915],[76.2,30000],[76.2,30082],[76.2,30167],[76.2,30250],[76.2,30333],[76.2,30415],[76.2,30499],[76.2,30581],[76.2,30666],[76.2,30749],[76.2,30832],[76.2,30915],[76.2,30998],[76.2,31082],[76.2,31167],[76.2,31248],[76.2,31332],[76.2,31415],[76.2,31498],[76.2,31583],[76.2,31668],[76.2,31749],[76.2,31832],[76.2,31915],[76.2,31999],[76.2,32082],[76.2,32166],[76.2,32249],[76.3,32333],[78.1,32417],[78.5,32500],[78.6,32583],[78.8,32665],[79,32748],[79,32831],[79,32915],[79,32998],[79,33083],[79,33165],[79,33251],[79,33332],[79,33416],[79,33498],[79,33583],[79,33665],[79,33749],[79,33830],[79,33916],[79,33999],[79,34082],[79,34165],[79,34249],[79,34331],[79,34417],[79,34498],[79,34583],[79,34665],[79,34749],[79,34831],[79,34916],[79,34998],[79,35083],[79,35165],[79,35249],[79,35332],[79,35418],[79,35498],[79,35581],[79,35665],[79,35749],[79,35831],[79.4,35916],[79.7,35999],[79.8,36084],[79.9,36165],[80.2,36250],[80.2,36335],[80.2,36416],[80.2,36500],[80.2,36582],[80.2,36666],[80.2,36747],[80.2,36831],[80.2,36915],[80.2,36998],[80.2,37081],[80.2,37164],[80.2,37248],[80.2,37332],[80.2,37415],[80.2,37498],[80.2,37581],[80.2,37665],[80.2,37748],[80.2,37830],[80.2,37914],[80.2,37998],[80.2,38081],[80.2,38165],[80.2,38249],[80.2,38331],[80.2,38415],[80.2,38498],[80.2,38581],[80.2,38666],[80.2,38748],[80.2,38832],[80.2,38916],[80.2,38998],[80.2,39082],[80.2,39167],[80.2,39248],[80.2,39334],[80.2,39416],[80.2,39499],[80.2,39581],[80.2,39666],[80.2,39748],[80.2,39834],[80.2,39916],[80.2,39999],[80.2,40081],[80.2,40167],[80.2,40248],[80.2,40332],[80.2,40415],[80.2,40500],[80.2,40581],[80.2,40666],[80.2,40749],[80.2,40832],[80.2,40916],[80.2,40999],[80.5,41081],[84.6,41185],[85.4,41268],[87.9,41351],[90.6,41433],[91.3,41516],[93,41623],[94.4,41698],[94.7,41781],[95.4,41867],[95.6,41949],[95.7,42032],[95.7,42116],[95.7,42198],[95.7,42283],[95.7,42367],[95.7,42448],[95.7,42532],[95.7,42615],[95.7,42698],[95.7,42783],[96.3,42866],[96.9,42950],[97,43031],[97.2,43115],[97.3,43198],[97.3,43282],[97.3,43364],[97.3,43450],[97.3,43531],[97.3,43615],[97.3,43698],[97.3,43784],[97.3,43865],[97.3,43948],[97.3,44031],[97.3,44116],[97.3,44198],[97.3,44282],[97.3,44367],[97.3,44448],[97.3,44532],[97.3,44616],[97.3,44699],[97.3,44782],[97.3,44866],[97.3,44950],[97.3,45031],[97.3,45116],[97.3,45199],[97.3,45283],[97.3,45366],[97.3,45450],[97.3,45531],[97.3,45615],[97.3,45700],[97.3,45782],[97.3,45867],[97.3,45949],[97.3,46030],[97.3,46117],[97.3,46198],[97.3,46282],[97.3,46365],[97.3,46448],[97.3,46532],[97.3,46615],[97.3,46698],[97.3,46783],[97.3,46866],[97.3,46949],[97.3,47033],[97.3,47115],[97.3,47198],[97.3,47283],[97.3,47364],[97.3,47450],[97.3,47531],[97.3,47615],[97.3,47700],[97.3,47781],[97.3,47865],[97.3,47948],[97.3,48031],[97.3,48117],[97.3,48199],[97.3,48283],[97.3,48367],[97.3,48449],[97.3,48533],[97.3,48616],[97.3,48699],[97.3,48783],[97.3,48864],[97.3,48948],[97.3,49031],[97.3,49114],[97.3,49199],[97.3,49281],[97.3,49365],[97.3,49448],[97.3,49533],[97.3,49615],[97.3,49700],[97.3,49782],[97.3,49866],[97.3,49950],[97.3,50031],[97.3,50118],[97.3,50198],[97.3,50281],[97.3,50367],[97.3,50449],[97.3,50532],[97.3,50615],[97.3,50698],[97.3,50781],[97.3,50865],[97.3,50948],[97.3,51033],[97.3,51114],[97.3,51201],[97.3,51282],[97.3,51366],[97.3,51447],[97.3,51535],[97.3,51616],[97.3,51699],[97.3,51781],[97.3,51866],[97.3,51948],[97.3,52031],[97.3,52114],[97.3,52198],[97.3,52281],[97.3,52366],[97.3,52448],[97.3,52534],[97.3,52614],[97.3,52699],[97.3,52782],[97.3,52866],[97.3,52948],[97.3,53033],[97.3,53115],[97.3,53199],[97.3,53284],[97.3,53365],[97.3,53449],[97.3,53533],[97.3,53615],[97.3,53700],[97.3,53781],[97.3,53866],[97.3,53947],[97.3,54033],[97.3,54114],[97.3,54199],[97.3,54281],[97.3,54367],[97.3,54448],[97.3,54533],[97.3,54614],[97.3,54698],[97.3,54781],[97.3,54866],[97.3,54948],[97.3,55033],[97.3,55114],[97.3,55201],[97.3,55281],[97.3,55365],[97.3,55449],[97.3,55532],[97.3,55615],[97.3,55701],[97.3,55781],[97.3,55867]]",1,0,483.6708,486.7534,98.20210775,1.9109,"[{""rating"":98.20210774739584,""responseTime"":1.910900000035781}]",space,2.5475,,486.7535,All the time,100,486.7563,,,[],,0,10,10,10,1,audio/Narrative8Situation1.wav,audio/Narrative7Situation1.wav,audio/Narrative6Situation1.wav,audio/Narrative5Situation1.wav,5,2,2,5,,,,,,,,,,,,,,,,,,,,,,,,,,,,,,,,,,,,,,,
,,,,,,5ee09c1a0c2ad1027f541f53,2024-02-08_16h04.03.987,group3.1-3.2-social-tom,2023.2.2,MacIntel,59.88023952,65c5074098b851296ff0b7ed,65c5418eb400311e49373235,,,,,,,,,,,,,,,,,,,,,,,,,,,,,486.757,1,audio/Narrative7Situation2.wav,489.7741,,489.7741,497.2537,"[[98,1263],[97.9,1348],[97.9,1429],[97.9,1512],[97.9,1596],[97.9,1679],[97.9,1762],[97.9,1845],[97.9,1929],[97.9,2012],[97.9,2095],[97.9,2178],[97.9,2263],[97.9,2349],[97.9,2429],[97.9,2512],[97.9,2595],[97.9,2679],[97.3,2764],[96.9,2845],[96.6,2930],[96.5,3012],[96.4,3098],[96.4,3179],[96.4,3263],[96.4,3347],[96.5,3431],[96.5,3512],[96.5,3596],[96.5,3680],[96.5,3762],[96.5,3846],[96.5,3928],[96.5,4013],[96.5,4095],[96.5,4179],[96.5,4262],[96.5,4347],[96.5,4428],[96.5,4512],[96.5,4595],[96.5,4680],[96.5,4762],[96.5,4845],[96.5,4929],[96.5,5014],[96.5,5095],[96.5,5178],[96.5,5261],[96.5,5344],[96.5,5428],[96.5,5511],[96.5,5596],[96.5,5680],[96.5,5762],[96.5,5844],[96.5,5928],[96.5,6011],[96.5,6095],[96.5,6180],[96.5,6262],[96.5,6345],[96.5,6429],[96.5,6514],[96.5,6596],[96.5,6679],[96.5,6764],[96.5,6846],[96.5,6930],[96.5,7013],[96.5,7096],[96.5,7178],[96.5,7263],[96.5,7346],[96.5,7428]]",1,0,497.2538,500.5711,92.40034315,2.124,"[{""rating"":92.40034315321181,""responseTime"":2.1240000000000236}]",space,2.7684,,500.5711,Not at all,0,500.5758,,,[],,0,11,11,11,1,audio/Narrative8Situation2.wav,audio/Narrative7Situation2.wav,audio/Narrative6Situation2.wav,audio/Narrative5Situation2.wav,3,3,3,3,,,,,,,,,,,,,,,,,,,,,,,,,,,,,,,,,,,,,,,
,,,,,,5ee09c1a0c2ad1027f541f53,2024-02-08_16h04.03.987,group3.1-3.2-social-tom,2023.2.2,MacIntel,59.88023952,65c5074098b851296ff0b7ed,65c5418eb400311e49373235,,,,,,,,,,,,,,,,,,,,,,,,,,,,,500.5762,1,audio/Narrative7Situation3.wav,508.5886,,508.5886,517.8722,"[[999,15],[999,100],[999,181],[999,267],[999,350],[999,432],[999,515],[999,597],[999,681],[999,766],[999,849],[999,931],[999,1014],[999,1099],[999,1183],[999,1264],[999,1348],[999,1432],[999,1515],[999,1599],[999,1683],[999,1765],[999,1848],[999,1930],[999,2014],[999,2099],[999,2181],[999,2264],[999,2347],[999,2430],[999,2515],[999,2597],[999,2681],[999,2765],[999,2849],[999,2932],[999,3014],[999,3098],[999,3181],[999,3265],[999,3348],[999,3433],[999,3514],[999,3600],[999,3681],[999,3764],[999,3847],[999,3930],[999,4014],[999,4099],[999,4181],[999,4265],[999,4347],[999,4433],[999,4515],[999,4597],[999,4681],[999,4766],[999,4847],[999,4932],[999,5014],[999,5097],[999,5183],[999,5265],[999,5348],[999,5430],[999,5513],[999,5599],[999,5680],[999,5766],[999,5848],[999,5930],[999,6015],[999,6100],[999,6181],[999,6264],[999,6349],[999,6432],[999,6516],[999,6597],[999,6680],[999,6764],[999,6847],[999,6933],[999,7014],[999,7097],[999,7181],[999,7263],[999,7347],[999,7430],[999,7514],[999,7599],[999,7680],[999,7764],[999,7849],[999,7930],[999,8015],[999,8097],[999,8181],[999,8265],[999,8347],[999,8430],[999,8515],[999,8597],[999,8680],[999,8764],[999,8848],[999,8933],[999,9016],[999,9100],[999,9181],[999,9265]]",1,0,517.8723,520.5366,95.95170763,1.7128,"[{""rating"":95.95170762803819,""responseTime"":1.7128000000119528}]",space,2.1205,,520.5366,Not at all,0,520.5407,,,[],,0,12,12,12,1,audio/Narrative8Situation3.wav,audio/Narrative7Situation3.wav,audio/Narrative6Situation3.wav,audio/Narrative5Situation3.wav,4,8,5,3,,,,,,,,,,,,,,,,,,,,,,,,,,,,,,,,,,,,,,,
,,,,,,5ee09c1a0c2ad1027f541f53,2024-02-08_16h04.03.987,group3.1-3.2-social-tom,2023.2.2,MacIntel,59.88023952,65c5074098b851296ff0b7ed,65c5418eb400311e49373235,,,,,,,,,,,,,,,,,,,,,,,,,,,,,520.541,1,audio/Narrative7Situation4.wav,523.5544,,523.5544,535.2864,[],1,0,535.2865,539.5725,97.51315647,0.6696,"[{""rating"":97.51315646701389,""responseTime"":0.66960000002382}]",space,3.7471,,539.5726,Not at all,0,539.5892,,,[],,0,13,13,13,1,audio/Narrative8Situation4.wav,audio/Narrative7Situation4.wav,audio/Narrative6Situation4.wav,audio/Narrative5Situation4.wav,3,3,2,1,,,,,,,,,,,,,,,,,,,,,,,,,,,,,,,,,,,,,,,
,,,,,,5ee09c1a0c2ad1027f541f53,2024-02-08_16h04.03.987,group3.1-3.2-social-tom,2023.2.2,MacIntel,59.88023952,65c5074098b851296ff0b7ed,65c5418eb400311e49373235,,,,,,,,,,,,,,,,,,,,,,,,,,,,,539.5895,1,audio/Narrative7Situation5.wav,544.6036,,544.6037,553.1038,"[[999,15],[999,99],[999,181],[999,266],[999,350],[999,432],[999,515],[999,599],[999,682],[999,767],[999,848],[999,932],[999,1015],[999,1098],[999,1182],[999,1265],[999,1350],[999,1434],[999,1515],[999,1598],[999,1683],[999,1767],[999,1848],[999,1934],[999,2016],[999,2100],[999,2184],[999,2266],[999,2348],[999,2432],[999,2516],[999,2600],[999,2682],[999,2766],[999,2849],[999,2932],[999,3016],[999,3100],[999,3182],[999,3265],[999,3348],[999,3432],[999,3515],[999,3599],[999,3684],[999,3766],[999,3850],[999,3932],[999,4016],[999,4100],[999,4182],[999,4266],[999,4350],[999,4432],[999,4515],[999,4598],[999,4681],[999,4766],[999,4851],[999,4934],[999,5015],[999,5099],[999,5181],[999,5264],[999,5353],[999,5438],[999,5518],[999,5600],[999,5683],[999,5767],[999,5851],[999,5931],[999,6017],[999,6100],[999,6184],[999,6265],[999,6350],[999,6434],[999,6519],[999,6598],[999,6683],[999,6767],[999,6851],[999,6931],[999,7015],[999,7101],[999,7182],[999,7267],[999,7350],[999,7433],[999,7516],[999,7601],[999,7683],[999,7765],[999,7850],[999,7934],[999,8017],[999,8100],[999,8183],[999,8268],[999,8351],[999,8433]]",1,0,553.104,556.419,96.7068651,2.2655,"[{""rating"":91.66770935058594,""responseTime"":1.4519999999999982},{""rating"":96.70686509874132,""responseTime"":2.2654999999999745}]",space,2.7727,,556.4191,Half the time,50,556.4253,,,[],,0,14,14,14,1,audio/Narrative8Situation5.wav,audio/Narrative7Situation5.wav,audio/Narrative6Situation5.wav,audio/Narrative5Situation5.wav,2,5,2,5,,,,,,,,,,,,,,,,,,,,,,,,,,,,,,,,,,,,,,,
,,,,,,5ee09c1a0c2ad1027f541f53,2024-02-08_16h04.03.987,group3.1-3.2-social-tom,2023.2.2,MacIntel,59.88023952,65c5074098b851296ff0b7ed,65c5418eb400311e49373235,,,,,,,,,,,,,,,,,,,,,,,,,,,,,556.4258,1,audio/Narrative7Situation6.wav,559.4367,,559.4367,569.4215,"[[999,17],[999,98],[999,183],[999,267],[999,349],[999,432],[999,516],[999,601],[999,685],[999,765],[999,848],[999,933],[999,1016],[999,1100],[999,1182],[999,1267],[999,1348],[999,1432],[999,1515],[999,1601],[999,1682],[999,1765],[999,1850],[999,1932],[999,2014],[999,2098],[999,2182],[999,2265],[999,2349],[999,2432],[999,2517],[999,2599],[999,2682],[999,2765],[999,2848],[999,2932],[999,3015],[999,3101],[999,3184],[999,3266],[999,3349],[999,3432],[999,3515],[999,3599],[999,3683],[999,3766],[999,3849],[999,3932],[999,4017],[999,4099],[999,4181],[999,4264],[999,4349],[999,4431],[999,4520],[999,4601],[999,4681],[999,4765],[999,4848],[999,4932],[999,5016],[999,5100],[999,5183],[999,5266],[999,5348],[999,5433],[999,5516],[999,5598],[999,5682],[999,5765],[999,5850],[999,5934],[999,6015],[999,6099],[999,6182],[999,6266],[999,6349],[999,6432],[999,6515],[999,6599],[999,6683],[999,6765],[999,6848],[999,6932],[999,7015],[999,7100],[999,7183],[999,7267],[999,7349],[999,7433],[999,7516],[999,7598],[999,7682],[999,7765],[999,7849],[999,7933],[999,8016],[999,8099],[999,8184],[999,8265],[999,8350],[999,8432],[999,8515],[999,8599],[999,8682],[999,8766],[999,8848],[999,8933],[999,9015],[999,9101],[999,9182],[999,9266],[999,9349],[999,9433],[999,9515],[999,9599],[999,9682],[999,9767],[999,9849],[999,9933]]",1,0,569.4219,573.3525,96.84061686,1.9165,"[{""rating"":96.84061686197917,""responseTime"":1.9165000000000418}]",space,3.3813,,573.3526,Half the time,50,573.3552,,,[],,0,15,15,15,1,audio/Narrative8Situation6.wav,audio/Narrative7Situation6.wav,audio/Narrative6Situation6.wav,audio/Narrative5Situation6.wav,2,3,2,3,,,,,,,,,,,,,,,,,,,,,,,,,,,,,,,,,,,,,,,
,,,,,,5ee09c1a0c2ad1027f541f53,2024-02-08_16h04.03.987,group3.1-3.2-social-tom,2023.2.2,MacIntel,59.88023952,65c5074098b851296ff0b7ed,65c5418eb400311e49373235,,,,,,,,,,,,,,,,,,,,,,,,,,,,,573.3558,1,audio/Narrative7Situation7.wav,578.3684,,578.3685,595.5364,"[[97.6,17038]]",1,0,595.5366,598.0192,97.31101142,1.4934,"[{""rating"":97.3110114203559,""responseTime"":1.4934000000357628}]",space,1.9316,,598.0193,Not at all,0,598.0234,,,[],,0,16,16,16,1,audio/Narrative8Situation7.wav,audio/Narrative7Situation7.wav,audio/Narrative6Situation7.wav,audio/Narrative5Situation7.wav,3,5,5,4,,,,,,,,,,,,,,,,,,,,,,,,,,,,,,,,,,,,,,,
,,,,,,5ee09c1a0c2ad1027f541f53,2024-02-08_16h04.03.987,group3.1-3.2-social-tom,2023.2.2,MacIntel,59.88023952,65c5074098b851296ff0b7ed,65c5418eb400311e49373235,,,,,,,,,,,,,,,,,,,,,,,,,,,,,598.0237,1,audio/Narrative7Situation8.wav,600.0358,,600.0359,610.0695,"[[96.4,1332],[88.6,1417],[85.6,1500],[85.5,1585],[87.6,1666],[88.6,1750],[88.5,1832],[88.1,1915],[88,1999],[88,2085],[88,2165],[88,2251],[88,2333],[88,2417],[88,2499],[88,2584],[88,2666],[88,2751],[88,2832],[88,2917],[88,2999],[88,3084],[88,3165],[88,3249],[88,3332],[88,3418],[88,3498],[88,3584],[88,3664],[88,3750],[88,3833],[88,3917],[88,3999],[88,4082],[88,4165],[88,4250],[88,4333],[88,4417],[88,4499],[88,4583],[88,4665],[88,4751],[88,4832],[88,4917],[88,4999],[88,5083],[88.2,5168],[89.9,5251],[91.1,5332],[91.8,5415],[92.8,5499],[93.7,5582],[94.1,5665],[94.3,5750],[94.7,5832],[94.9,5916],[95,5999],[95.1,6082],[95.3,6167],[95.4,6251],[95.5,6331],[95.5,6416],[95.6,6498],[95.8,6583],[95.9,6667],[96,6751],[96,6833],[96,6916],[96,7001],[96,7083],[96,7166],[96.1,7251],[96.2,7333],[96.2,7415],[96.2,7500],[96.2,7583],[96.2,7666],[96.2,7749],[96.3,7833],[96.4,7916],[96.4,8000],[96.4,8084],[96.4,8165],[96.4,8249],[96.4,8333],[96.4,8416],[96.4,8501],[96.4,8583],[96.4,8667],[96.4,8749],[96.4,8833],[96.4,8917],[96.4,9001],[96.4,9082],[96.4,9167],[96.4,9249],[96.4,9335],[96.4,9416],[96.4,9499],[96.4,9583],[96.4,9667],[96.4,9749],[96.4,9832],[96.4,9917],[96.4,10000]]",1,0,610.0697,615.5189,97.27522108,3.7629,"[{""rating"":95.71187337239584,""responseTime"":1.1952000000476346},{""rating"":97.2752210828993,""responseTime"":3.7629000000357564}]",space,4.9049,,615.5191,All the time,100,615.5239,,,[],,0,17,17,17,1,audio/Narrative8Situation8.wav,audio/Narrative7Situation8.wav,audio/Narrative6Situation8.wav,audio/Narrative5Situation8.wav,3,2,5,3,,,,,,,,,,,,,,,,,,,,,,,,,,,,,,,,,,,,,,,
,,,,,,5ee09c1a0c2ad1027f541f53,2024-02-08_16h04.03.987,group3.1-3.2-social-tom,2023.2.2,MacIntel,59.88023952,65c5074098b851296ff0b7ed,65c5418eb400311e49373235,,,,,,,,,,,,,,,,,,,,,,,,,,,,,615.5242,1,audio/Narrative7Situation9.wav,617.5365,,617.5365,626.1711,"[[96.6,1165],[96.3,1249],[96.5,1332],[96.8,1416],[96.8,1498],[96.8,1583],[96.7,1666],[96.7,1749],[96.7,1832],[96.7,1917],[96.7,1999],[96.7,2082],[96.7,2165],[96.7,2248],[96.7,2333],[96.7,2418],[96.7,2499],[96.7,2581],[96.7,2664],[96.7,2748],[96.7,2832],[96.7,2918],[96.7,3001],[96.7,3082],[96.7,3167],[96.7,3248],[96.7,3332],[96.7,3416],[96.7,3499],[96.7,3581],[96.7,3666],[96.7,3748],[96.7,3834],[96.7,3915],[96.7,3999],[96.7,4082],[96.7,4165],[96.7,4248],[96.7,4331],[96.7,4416],[96.7,4500],[96.7,4583],[96.7,4666],[96.7,4748],[96.7,4831],[96.7,4932],[96.7,5015],[96.7,5098],[96.7,5182],[96.7,5265],[96.7,5347],[96.7,5431],[96.7,5514],[96.7,5597],[96.7,5681],[96.7,5764],[96.7,5848],[96.7,5933],[96.7,6014],[96.7,6099],[96.7,6183],[96.7,6264],[96.7,6348],[96.7,6435],[96.7,6516],[96.7,6600],[96.7,6682],[96.7,6765],[96.7,6849],[96.7,6933],[96.7,7016],[96.7,7099],[96.7,7182],[96.7,7266],[96.7,7349],[96.7,7432],[96.7,7517],[96.7,7599],[96.7,7682],[96.7,7766],[96.7,7847],[96.7,7932],[96.7,8014],[96.7,8099],[96.7,8183],[96.7,8267],[96.7,8348],[96.7,8433],[96.7,8514],[96.7,8600]]",1,0,626.1713,629.336,98.04475572,1.9645,"[{""rating"":98.04475572374132,""responseTime"":1.9645000000000437}]",space,2.6214,,629.336,Not at all,0,629.3396,,,[],,0,18,18,18,1,audio/Narrative8Situation9.wav,audio/Narrative7Situation9.wav,audio/Narrative6Situation9.wav,audio/Narrative5Situation9.wav,3,2,4,3,,,,,,,,,,,,,,,,,,,,,,,,,,,,,,,,,,,,,,,
,,,,,,5ee09c1a0c2ad1027f541f53,2024-02-08_16h04.03.987,group3.1-3.2-social-tom,2023.2.2,MacIntel,59.88023952,65c5074098b851296ff0b7ed,65c5418eb400311e49373235,,,,,,,,,,,,,,,,,,,,,,,,,,,642.0852,644.6695,644.688,2,audio/Narrative13Situation2.wav,644.6881,,644.6882,674.4358,"[[97,1246],[49.6,1746],[47.6,1833],[47.3,1913],[47.6,2000],[48.9,2080],[49.2,2163],[49.3,2247],[49.5,2330],[50,2414],[50.3,2496],[50.3,2580],[50.2,2663],[50.2,2746],[50.2,2829],[36.6,2915],[26.7,2996],[26.3,3080],[26.3,3165],[26.3,3246],[26.3,3330],[24,3416],[12.3,3497],[10.7,3579],[10.7,3663],[10.7,3747],[10.7,3830],[10.7,3913],[10.7,3997],[10.7,4080],[10.7,4162],[10.7,4247],[14.4,4330],[16.6,4413],[16.7,4496],[16.7,4582],[16.7,4664],[16.7,4746],[16.7,4830],[16.7,4914],[18,4996],[25,5085],[25.3,5165],[25.4,5247],[25.4,5330],[25.4,5413],[25.4,5504],[25.4,5600],[25.4,5682],[25.4,5764],[35.5,6683],[33.8,6765],[33.5,6846],[34.5,6934],[35.9,7013],[37.1,7097],[39.2,7181],[40.5,7263],[40.8,7347],[40.9,7432],[40.9,7516],[40.9,7597],[40.9,7682],[40.9,7765],[40.9,7848],[40.9,7930],[40.9,8014],[40.9,8098],[40.9,8184],[40.9,8263],[40.9,8349],[40.9,8430],[40.9,8514],[40.9,8599],[40.9,8680],[40.9,8765],[40.9,8846],[40.9,8932],[40.9,9015],[40.9,9097],[40.9,9181],[40.9,9266],[40.9,9346],[40.9,9431],[40.9,9513],[40.9,9597],[40.9,9682],[40.9,9766],[40.9,9848],[40.9,9930],[40.9,10014],[40.9,10098],[40.9,10180],[40.9,10263],[40.9,10349],[40.9,10433],[40.9,10514],[40.9,10596],[40.9,10682],[40.9,10766],[40.9,10846],[40.9,10930],[40.9,11013],[40.9,11096],[40.9,11181],[40.9,11266],[40.9,11346],[40.9,11432],[41.1,11521],[41.1,11598],[41.1,11680],[41.1,11763],[41.1,11847],[41.1,11929],[41.1,12014],[41.1,12099],[41.1,12181],[41.1,12264],[41.1,12346],[41.1,12430],[41.1,12514],[41.1,12596],[41.1,12681],[41.6,12764],[41.6,12846],[41.6,12931],[41.7,13013],[41.8,13096],[42.1,13182],[44.1,13264],[44.6,13347],[44.6,13432],[44.6,13514],[44.6,13597],[44.6,13679],[44.6,13763],[44.6,13848],[45.1,13933],[48.3,14013],[49,14098],[49,14180],[49,14264],[48.8,14348],[47.1,14431],[43.8,14514],[43.5,14599],[43.5,14680],[43.5,14764],[43.5,14850],[43.5,14930],[43.5,15015],[43.5,15111],[43.5,15178],[43.5,15266],[43.5,15348],[43.5,15431],[43.5,15513],[43.5,15597],[43.5,15682],[43.5,15763],[43.5,15847],[43.5,15932],[43.5,16013],[43.5,16098],[43.5,16180],[43.5,16265],[43.5,16346],[43.5,16432],[43.5,16514],[43.5,16599],[43.5,16681],[43.5,16765],[43.5,16845],[43.5,16931],[43.5,17015],[43.5,17096],[43.5,17181],[43.5,17266],[43.5,17349],[43.5,17431],[43.5,17517],[43.5,17599],[43.5,17680],[43.5,17764],[42.8,17860],[40.8,17934],[39.8,18016],[39.1,18098],[38,18180],[37.6,18263],[37.5,18349],[37.5,18430],[37.5,18514],[37.5,18599],[35.9,18680],[32,18765],[31.6,18846],[31.6,18930],[31.6,19013],[31.6,19097],[31.6,19181],[31.6,19266],[31.6,19346],[31.6,19431],[31.6,19513],[31.6,19597],[31.6,19682],[31.6,19765],[31.6,19847],[31.6,19932],[31.6,20015],[31.6,20099],[31.6,20179],[31.6,20264],[31.6,20346],[31.6,20430],[31.6,20514],[31.6,20599],[31.6,20680],[31.6,20764],[31.6,20845],[31.6,20930],[31.6,21016],[31.6,21099],[31.6,21181],[31.6,21266],[31.6,21347],[31.6,21431],[31.6,21516],[31.6,21598],[31.6,21683],[31.6,21764],[34.5,21855],[42.3,21929],[45.8,22014],[46.9,22100],[47.1,22181],[47.1,22263],[47.1,22349],[47.1,22432],[47.1,22515],[47.5,22599],[51.2,22680],[54.5,22762],[54.9,22846],[54.9,22930],[54.9,23016],[54.9,23099],[54.9,23181],[55.1,23263],[60.1,23349],[62.8,23432],[62.9,23512],[62.9,23598],[62.9,23682],[62.9,23763],[62.9,23847],[62.9,23933],[62.9,24015],[62.9,24098],[62.9,24182],[62.9,24264],[62.9,24348],[62.9,24432],[62.9,24514],[62.9,24600],[62.9,24680],[62.9,24765],[62.9,24850],[62.9,24930],[62.9,25016],[62.9,25096],[62.9,25181],[62.9,25263],[62.9,25346],[62.9,25433],[62.9,25513],[64.7,25596],[67,25679],[67.9,25766],[68.2,25848],[68.6,25930],[69.2,26014],[69.3,26097],[69.6,26180],[69.8,26264],[69.8,26349],[69.8,26429],[69.8,26514],[69.8,26600],[69.8,26679],[69.8,26766],[69.8,26849],[69.8,26931],[69.8,27016],[69.8,27096],[69.8,27181],[69.8,27263],[69.8,27347],[69.8,27431],[69.8,27517],[69.8,27599],[69.8,27682],[69.8,27764],[69.8,27846],[69.8,27932],[69.8,28015],[69.8,28097],[69.8,28183],[69.8,28265],[69.8,28349],[69.8,28432],[69.8,28513],[69.8,28600],[69.8,28681],[69.8,28764],[69.8,28848],[69.9,28930],[70.4,29016],[70.6,29098],[70.7,29181],[70.8,29266],[71.3,29347],[72.2,29432],[72.7,29512],[72.7,29597],[72.7,29683]]",1,0,674.4361,674.4397,,,[],,,,674.4398,Half the time,50,674.443,,,[],,0,0,0,0,1,audio/Narrative13Situation2.wav,audio/Narrative13Situation2.wav,audio/Narrative13Situation2.wav,audio/Narrative13Situation2.wav,2,2,2,2,,,,,629.3411,642.0718,space,12.2076,,,,,,,,,,,,,,,,,,,,,,,,,,,,,,,
,,,,,,5ee09c1a0c2ad1027f541f53,2024-02-08_16h04.03.987,group3.1-3.2-social-tom,2023.2.2,MacIntel,59.88023952,65c5074098b851296ff0b7ed,65c5418eb400311e49373235,,,,,,,,,,,,,,,,,,,,,,,,,,,,,674.4434,2,audio/Narrative6Situation1.wav,676.4532,,676.4534,703.0524,"[[71.5,1998],[62.4,2083],[56.5,2167],[54,2248],[52.7,2333],[52.5,2417],[52.5,2499],[52.5,2583],[49.7,2663],[48.9,2749],[48.9,2834],[48.9,2915],[48.8,2999],[48.8,3082],[48.8,3165],[48.8,3251],[48.8,3331],[48.8,3415],[48.8,3501],[48.8,3581],[48.8,3664],[48.8,3747],[48.8,3832],[48.8,3917],[48.8,3997],[48.8,4082],[48.8,4167],[48.8,4248],[48.8,4332],[48.8,4414],[48.8,4499],[48.8,4583],[48.8,4665],[48.8,4748],[48.8,4834],[48.8,4917],[48.8,4999],[48.8,5084],[48.8,5164],[48.8,5250],[48.8,5331],[48.8,5415],[42.5,5498],[33.6,5581],[33.2,5667],[33.2,5747],[33.2,5831],[33.2,5914],[33.2,5999],[33.2,6082],[33.2,6164],[33.2,6248],[33.2,6333],[33.2,6414],[33.2,6498],[33.2,6584],[33.2,6664],[33.2,6749],[33.2,6831],[33.2,6917],[33.2,6999],[33.2,7084],[33.2,7165],[33.2,7250],[33.2,7332],[33.2,7415],[33.2,7501],[33.2,7581],[33.2,7664],[33.2,7747],[33.2,7832],[33.2,7916],[33.2,7999],[33.2,8081],[33.2,8167],[33.2,8248],[33.2,8332],[34.8,8427],[37.5,8499],[37.7,8584],[37.7,8665],[37.7,8748],[37.7,8831],[37.7,8915],[37.7,8997],[37.7,9081],[37.7,9164],[37.7,9247],[38.1,9331],[43.3,9415],[45.5,9501],[45.6,9581],[45.6,9664],[45.6,9748],[45.6,9832],[50.1,9914],[51.8,10000],[52,10082],[52,10164],[52,10248],[52,10333],[52,10417],[52,10500],[52,10583],[52,10664],[52,10748],[52,10832],[52,10917],[52,11001],[52,11082],[52,11166],[52,11249],[52,11333],[52,11415],[52,11501],[52,11582],[52,11666],[52,11747],[52,11833],[52,11916],[52,12000],[52,12082],[52.2,12165],[52.7,12247],[52.9,12332],[53.2,12415],[53.8,12497],[54.8,12582],[55.3,12663],[55.3,12749],[55.3,12834],[55.3,12914],[55.3,12999],[55.3,13081],[55.3,13164],[55.3,13250],[57.7,13333],[59.8,13413],[60,13498],[61.7,13581],[63.3,13686],[63.3,13765],[63.3,13850],[63.3,13932],[63.3,14016],[63.3,14098],[63.3,14180],[63.3,14265],[64.4,14348],[67.8,14434],[68.1,14515],[68.1,14599],[68.1,14681],[68.1,14765],[68.1,14847],[68.1,14933],[68.1,15015],[68.1,15098],[68.1,15181],[68.1,15264],[68.1,15348],[68.1,15431],[68.5,15518],[71.6,15597],[73.9,15683],[75.3,15765],[75.5,15848],[75.5,15932],[75.5,16014],[75.5,16098],[75.5,16186],[75.5,16265],[75.5,16348],[75.5,16431],[75.5,16515],[75.5,16599],[76.4,16680],[78,16765],[78.2,16847],[78.2,16932],[78.2,17015],[78.2,17100],[78.2,17181],[78.2,17264],[78.2,17350],[79.4,17432],[80.8,17514],[80.9,17599],[80.9,17682],[80.9,17764],[80.9,17848],[80.9,17933],[80.9,18015],[80.9,18098],[80.9,18183],[81.9,18263],[84.4,18348],[84.6,18433],[84.6,18515],[84.6,18599],[84.6,18682],[84.6,18764],[84.6,18850],[84.6,18934],[84.6,19015],[84.6,19097],[84.6,19181],[84.6,19266],[84.6,19350],[84.6,19432],[84.6,19514],[84.6,19598],[84.6,19682],[84.6,19767],[84.6,19847],[84.6,19932],[84.6,20014],[84.6,20099],[84.6,20182],[84.6,20266],[84.6,20348],[84.6,20433],[84.6,20514],[84.6,20599],[84.6,20680],[84.6,20764],[84.6,20849],[85.4,20932],[87.5,21014],[87.9,21097],[88.5,21182],[90.1,21266],[90.8,21348],[90.9,21432],[91,21516],[91,21598],[91,21682],[91,21764],[91,21850],[91,21932],[92.2,22018],[93,22098],[93.5,22184],[94.4,22265],[95.1,22347],[95.4,22434],[95.9,22563],[96.1,22647],[96.1,22730],[96.2,22814],[96.3,22898],[96.3,22981],[96.3,23064],[96.3,23149],[96.3,23231],[96.3,23315],[96.3,23396],[96.3,23481],[96.3,23565],[96.3,23648],[96.3,23731],[96.5,23819],[96.5,23899],[96.6,23981],[96.7,24065],[96.7,24146],[96.7,24231],[96.7,24313],[96.7,24397],[96.7,24480],[96.7,24563],[96.7,24647],[96.7,24730],[96.7,24813],[96.7,24897],[96.7,24982],[96.7,25063],[96.7,25147],[96.7,25233],[96.7,25313],[96.7,25399],[96.7,25480],[96.7,25564],[96.7,25647],[96.7,25730],[96.7,25815],[96.7,25896],[96.7,25980],[96.7,26063],[96.7,26148],[96.7,26231],[96.7,26315],[96.7,26397],[96.7,26482],[96.7,26564]]",1,0,703.0526,706.434,97.48060438,2.2763,"[{""rating"":97.48060438368056,""responseTime"":2.276299999952357}]",space,2.8327,,706.434,All the time,100,706.4393,,,[],,0,1,1,1,1,audio/Narrative7Situation1.wav,audio/Narrative8Situation1.wav,audio/Narrative5Situation1.wav,audio/Narrative6Situation1.wav,2,5,5,2,,,,,,,,,,,,,,,,,,,,,,,,,,,,,,,,,,,,,,,
,,,,,,5ee09c1a0c2ad1027f541f53,2024-02-08_16h04.03.987,group3.1-3.2-social-tom,2023.2.2,MacIntel,59.88023952,65c5074098b851296ff0b7ed,65c5418eb400311e49373235,,,,,,,,,,,,,,,,,,,,,,,,,,,,,706.4397,2,audio/Narrative6Situation2.wav,709.4521,,709.4522,737.9684,"[[97.4,1751],[97.2,1831],[97.1,1918],[97,1998],[97.1,2082],[96.7,2165],[94.3,2248],[92.9,2331],[92.9,2415],[92.9,2501],[92.9,2582],[92.9,2666],[92.9,2749],[92.9,2831],[92.9,2917],[92.9,2998],[92.9,3084],[90.1,3165],[84.9,3252],[83.6,3333],[83.6,3415],[83.6,3498],[83.6,3582],[83.6,3665],[83.6,3749],[83.6,3833],[83.6,3914],[83.6,3998],[83.6,4082],[83.6,4165],[83.6,4250],[83.6,4331],[83.6,4415],[83.6,4499],[83.6,4581],[83.6,4665],[83.6,4747],[83.6,4832],[83.6,4917],[83.6,4999],[83.6,5082],[83.6,5167],[86.2,5248],[88.7,5335],[88.9,5414],[88.9,5500],[88.9,5581],[88.9,5665],[88.9,5748],[91.2,5830],[94.3,5915],[94.8,5997],[95.3,6083],[95.4,6165],[95.7,6247],[96,6330],[96,6416],[96,6498],[96,6581],[96,6666],[96,6748],[96,6831],[96,6915],[96,6997],[96,7082],[96,7164],[96,7249],[96,7332],[96,7415],[96,7498],[96,7581],[96,7664],[96,7749],[96,7831],[96,7915],[96,7999],[96,8081],[96,8165],[96,8249],[96,8332],[96,8417],[96,8499],[96,8583],[96,8665],[96,8749],[96,8831],[96,8915],[96,8998],[96,9082],[96,9167],[96,9248],[96,9332],[96,9415],[96,9498],[96,9581],[96,9664],[96,9749],[96,9834],[96,9914],[96,9999],[96,10082],[96,10166],[96,10247],[96,10336],[96,10415],[96,10498],[96,10582],[96,10665],[96,10748],[96,10832],[96,10916],[96,10998],[96,11082],[96,11165],[96,11248],[96,11333],[96,11414],[96,11500],[96,11581],[96,11664],[96,11748],[96,11831],[96,11914],[96,11998],[96,12081],[96,12165],[96,12247],[96,12332],[96,12415],[96,12498],[96,12581],[96,12666],[96,12749],[96,12832],[96,12914],[96,12999],[96,13080],[96,13165],[96,13247],[96,13331],[96,13415],[96,13499],[96,13581],[96,13665],[94.5,13767],[93.5,13847],[92.8,13935],[91.6,14015],[90.9,14097],[90.5,14181],[90.3,14266],[90.3,14349],[90.3,14434],[90.3,14516],[90.3,14598],[90.3,14681],[90.3,14765],[90.3,14847],[90.3,14932],[90.3,15018],[88.7,15100],[87.4,15182],[86.4,15265],[85.8,15348],[85.7,15431],[85.7,15516],[85.7,15599],[85.7,15682],[85.7,15764],[86,15849],[88.3,15933],[89,16017],[89,16098],[89,16184],[89,16266],[89,16349],[89,16431],[89,16514],[89,16597],[89,16682],[89,16765],[89,16848],[89,16931],[89,17014],[89,17098],[89,17184],[89,17264],[89,17349],[89,17434],[89,17515],[89,17599],[89,17681],[89,17765],[89,17848],[89,17932],[89,18016],[89,18101],[89,18182],[89,18266],[89,18348],[89,18431],[89,18516],[89,18599],[89.4,18683],[89.8,18765],[90,18848],[90.2,18933],[90.6,19016],[90.9,19098],[91,19182],[91.3,19265],[91.7,19348],[91.8,19432],[91.9,19514],[92,19601],[92,19685],[92,19765],[92,19848],[92,19932],[92,20016],[92,20099],[92,20181],[92,20267],[92,20348],[92,20431],[92,20515],[92,20597],[92,20683],[91.9,20766],[91.1,20849],[90.9,20932],[90.9,21016],[90.9,21098],[90.9,21183],[90.9,21264],[90.9,21351],[90.9,21432],[90.9,21514],[90.9,21597],[90.9,21680],[90.9,21764],[90.9,21849],[90.9,21931],[90.9,22016],[90.9,22097],[90.9,22182],[90.9,22266],[90.9,22349],[90.9,22431],[90.9,22516],[90.9,22597],[90.9,22683],[90.9,22764],[90.9,22849],[90.9,22931],[90.9,23015],[90.9,23099],[90.9,23181],[90.9,23265],[90.9,23347],[90.9,23431],[90.9,23514],[90.9,23597],[90.9,23681],[90.9,23765],[90.9,23851],[90.9,23931],[90.9,24016],[90.9,24097],[90.9,24183],[90.9,24264],[90.9,24348],[90.9,24432],[90.9,24516],[90.9,24598],[90.9,24683],[90.2,24764],[87.7,24850],[85.6,24932],[84.8,25018],[84.4,25098],[84.3,25181],[84.3,25265],[84.3,25348],[84.3,25430],[84.3,25514],[84.3,25599],[84.3,25681],[84.3,25765],[84.3,25850],[84.3,25932],[84.3,26014],[84.1,26099],[81.9,26181],[80.9,26266],[80.7,26347],[80.7,26432],[80.7,26514],[80.7,26597],[80.7,26681],[80.7,26765],[80.7,26847],[80.7,26933],[80.7,27014],[80.7,27099],[80.7,27181],[80.7,27265],[80.7,27350],[79.6,27432]]",1,0,737.9687,742.0501,72.26003859,1.5441,"[{""rating"":72.26003858778212,""responseTime"":1.5441000000238319}]",space,3.5376,,742.0502,All the time,100,742.0518,,,[],,0,2,2,2,1,audio/Narrative7Situation2.wav,audio/Narrative8Situation2.wav,audio/Narrative5Situation2.wav,audio/Narrative6Situation2.wav,3,3,3,3,,,,,,,,,,,,,,,,,,,,,,,,,,,,,,,,,,,,,,,
,,,,,,5ee09c1a0c2ad1027f541f53,2024-02-08_16h04.03.987,group3.1-3.2-social-tom,2023.2.2,MacIntel,59.88023952,65c5074098b851296ff0b7ed,65c5418eb400311e49373235,,,,,,,,,,,,,,,,,,,,,,,,,,,,,742.0522,2,audio/Narrative6Situation3.wav,747.0669,,747.0669,759.7022,"[[71.8,1184],[69.2,1270],[67.1,1349],[65.9,1433],[65.9,1519],[65.9,1600],[65.9,1682],[65.9,1765],[65.9,1849],[65.9,1933],[65.9,2016],[65.9,2099],[65.8,2182],[59.8,2267],[57.1,2350],[57,2434],[57.2,2518],[60.9,2599],[65.1,2687],[66.1,2793],[66.1,2866],[66.1,2951],[68.9,3033],[80.1,3117],[81.6,3200],[81.6,3283],[81.6,3367],[81.6,3451],[85.9,3533],[87.7,3619],[87.8,3700],[88,3783],[89.4,3866],[90.7,3950],[91.6,4032],[92.4,4116],[93.1,4200],[94,4283],[94.5,4367],[94.5,4449],[94.5,4534],[94.5,4619],[94.7,4702],[94.7,4782],[94.7,4867],[94.7,4949],[94.7,5035],[94.7,5116],[94.7,5201],[94.7,5282],[94.7,5367],[94.8,5450],[95.1,5533],[95.3,5616],[95.3,5699],[95.3,5782],[95.3,5869],[95.3,5950],[95.3,6033],[95.3,6116],[95.3,6202],[95.3,6283],[95.3,6368],[95.3,6449],[95.3,6534],[95.3,6616],[95.3,6700],[95.3,6782],[95.3,6867],[95.3,6949],[95.3,7035],[95.3,7116],[95.3,7202],[95.3,7282],[95.3,7367],[95.3,7449],[95.3,7534],[95.3,7616],[95.3,7701],[95.3,7782],[95.3,7867],[95.3,7949],[95.3,8033],[95.3,8115],[95.3,8200],[95.3,8282],[95.3,8367],[95.3,8449],[95.3,8534],[94.4,8616],[93.8,8700],[93.6,8782],[93.5,8868],[93.5,8949],[93.5,9033],[93.5,9116],[93.5,9201],[93.5,9282],[93.5,9367],[93.5,9449],[93.5,9533],[93.5,9616],[93.5,9699],[94.8,9786],[95.9,9867],[95.9,9948],[95.9,10033],[95.9,10115],[95.9,10199],[95.9,10282],[95.9,10366],[95.9,10449],[95.9,10533],[95.9,10615],[95.9,10699],[95.9,10782],[95.9,10866],[95.9,10949],[95.9,11032],[95.9,11115],[95.9,11199],[95.9,11284],[95.9,11366],[95.9,11449],[95.9,11532],[95.9,11616],[95.9,11700],[95.9,11782],[95.9,11866],[95.9,11948],[95.9,12032],[95.9,12117],[95.9,12199],[95.9,12283],[95.9,12367],[95.9,12449],[95.9,12535],[95.9,12616]]",1,0,759.7024,764.733,89.20408461,3.7162,"[{""rating"":81.39119466145833,""responseTime"":3.0122000000477556},{""rating"":89.20408460828992,""responseTime"":3.7162000000477065}]",space,4.4839,,764.7331,Half the time,50,764.7387,,,[],,0,3,3,3,1,audio/Narrative7Situation3.wav,audio/Narrative8Situation3.wav,audio/Narrative5Situation3.wav,audio/Narrative6Situation3.wav,8,4,3,5,,,,,,,,,,,,,,,,,,,,,,,,,,,,,,,,,,,,,,,
,,,,,,5ee09c1a0c2ad1027f541f53,2024-02-08_16h04.03.987,group3.1-3.2-social-tom,2023.2.2,MacIntel,59.88023952,65c5074098b851296ff0b7ed,65c5418eb400311e49373235,,,,,,,,,,,,,,,,,,,,,,,,,,,,,764.7393,2,audio/Narrative6Situation4.wav,766.7491,,766.7492,779.3496,"[[999,0],[999,84],[999,168],[999,250],[999,334],[999,417],[999,500],[999,586],[999,669],[999,750],[999,836],[999,917],[999,1000],[999,1085],[999,1168],[999,1249],[999,1334],[999,1417],[999,1502],[999,1583],[999,1668],[999,1753],[999,1834],[999,1919],[999,2000],[999,2087],[999,2168],[999,2251],[999,2334],[999,2416],[999,2501],[999,2584],[999,2668],[999,2751],[999,2833],[999,2916],[999,3001],[999,3083],[64.6,3167],[64.9,3250],[66.1,3335],[67.4,3421],[67.4,3501],[67.4,3583],[67.4,3667],[67.4,3753],[67.4,3833],[67.4,3918],[67.4,3999],[68.2,4083],[72,4167],[72.9,4251],[72.9,4333],[72.9,4418],[72.8,4500],[72.8,4585],[72.8,4667],[71.8,4750],[68.1,4834],[65.5,4918],[65.4,5000],[65.4,5083],[65.4,5166],[65.4,5252],[65.4,5333],[65.4,5417],[65.4,5500],[65.4,5584],[65.4,5667],[65.1,5752],[62.2,6003],[62,6083],[62,6168],[62,6252],[62,6333],[62,6419],[62,6500],[62,6586],[62,6666],[62,6751],[62,6834],[62,6919],[62,7000],[62,7085],[62,7166],[62,7253],[62,7334],[62,7419],[61.9,7499],[61.4,7586],[61,7666],[60.8,7752],[60.8,7837],[60.8,7918],[60.8,8001],[60.8,8084],[60.8,8168],[60.8,8250],[60.8,8333],[60.8,8417],[60.8,8500],[60.8,8585],[60.8,8669],[60.8,8751],[60.8,8834],[60.8,8917],[60.8,9002],[60.8,9083],[60.8,9167],[60.8,9252],[60.8,9336],[60.8,9418],[60.8,9500],[60.8,9587],[63.2,9666],[67,9750],[69.7,9836],[71.1,9918],[71.1,10000],[71.1,10083],[71.1,10166],[71.1,10251],[72.6,10333],[82.2,10417],[83.6,10501],[83.6,10586],[83.6,10669],[83.6,10752],[83.6,10834],[83.6,10917],[83.9,11000],[86.6,11085],[87.1,11169],[87.5,11253],[89.3,11333],[90.9,11417],[91.8,11501],[92.4,11584],[93.2,11667],[93.9,11751],[94.3,11833],[94.7,11919],[95.1,12000],[95.5,12083],[95.5,12166],[95.5,12249],[95.5,12334],[95.5,12419],[95.5,12500],[95.5,12585]]",1,0,779.3498,781.5505,96.14640978,0.9163,"[{""rating"":96.14640977647569,""responseTime"":0.9163000000119155}]",space,1.6711,,781.5506,Half the time,50,788.5661,49.43312751,5.7339,"[{""rating"":49.43312750922309,""responseTime"":5.733899999976188}]",space,0,4,4,4,1,audio/Narrative7Situation4.wav,audio/Narrative8Situation4.wav,audio/Narrative5Situation4.wav,audio/Narrative6Situation4.wav,3,3,1,2,,,6.4721,,,,,,,,,,,,,,,,,,,,,,,,,,,,,,,,,,,,
,,,,,,5ee09c1a0c2ad1027f541f53,2024-02-08_16h04.03.987,group3.1-3.2-social-tom,2023.2.2,MacIntel,59.88023952,65c5074098b851296ff0b7ed,65c5418eb400311e49373235,,,,,,,,,,,,,,,,,,,,,,,,,,,,,788.5665,2,audio/Narrative6Situation5.wav,790.5673,,790.5674,798.5336,"[[54,1667],[55,1750],[57.4,1832],[58.6,1917],[59,2000],[60.8,2085],[61.9,2168],[64.7,2249],[88.2,2333],[91.2,2415],[91.2,2499],[91.2,2584],[91.5,2665],[91.9,2750],[93.7,2834],[94.4,2917],[94.7,3001],[94.9,3081],[95.1,3165],[95.1,3250],[95.6,3334],[96.2,3416],[96.3,3499],[96.3,3581],[96.3,3666],[96.6,3749],[96.7,3835],[96.7,3914],[96.7,3999],[96.7,4081],[96.7,4166],[96.7,4248],[96.7,4333],[96.7,4415],[96.7,4500],[96.7,4583],[96.7,4665],[96.7,4749],[96.7,4832],[96.7,4915],[96.7,4999],[96.7,5082],[96.7,5166],[96.7,5248],[96.7,5333],[96.7,5415],[96.7,5500],[96.7,5581],[96.7,5667],[96.7,5749],[96.5,5834],[95.7,5915],[95.5,6001],[95.4,6081],[95.4,6166],[95.4,6249],[95.8,6335],[96.3,6415],[96.5,6501],[96.7,6581],[96.8,6670],[96.8,6750],[96.8,6836],[96.8,6915],[96.8,6997],[96.8,7081],[96.8,7165],[96.8,7248],[96.8,7331],[96.8,7416],[96.8,7500],[96.8,7582],[96.8,7666],[96.8,7752],[96.8,7832],[96.8,7915]]",1,0,798.5337,801.034,97.42904663,1.6181,"[{""rating"":97.42904663085938,""responseTime"":1.6180999999642154}]",space,1.9678,,801.0341,Not at all,0,801.0391,,,[],,0,5,5,5,1,audio/Narrative7Situation5.wav,audio/Narrative8Situation5.wav,audio/Narrative5Situation5.wav,audio/Narrative6Situation5.wav,5,2,5,2,,,,,,,,,,,,,,,,,,,,,,,,,,,,,,,,,,,,,,,
,,,,,,5ee09c1a0c2ad1027f541f53,2024-02-08_16h04.03.987,group3.1-3.2-social-tom,2023.2.2,MacIntel,59.88023952,65c5074098b851296ff0b7ed,65c5418eb400311e49373235,,,,,,,,,,,,,,,,,,,,,,,,,,,,,801.0395,2,audio/Narrative6Situation6.wav,803.0502,,803.0503,814.133,"[[96.9,1168],[94.8,1250],[93.9,1335],[93,1415],[92.8,1499],[92,1581],[89.9,1667],[88.9,1749],[88.9,1833],[88.9,1918],[88.9,2001],[88.9,2083],[88.9,2167],[88.9,2250],[88.9,2332],[88.9,2415],[88.9,2498],[88.9,2581],[88.9,2664],[88.9,2748],[88.9,2832],[91.2,2914],[92.1,2998],[92.9,3082],[94.1,3164],[94.5,3249],[94.7,3331],[95.1,3414],[95.2,3498],[95.2,3581],[95.3,3666],[95.4,3750],[95.4,3832],[95.4,3915],[95.7,4001],[95.8,4085],[95.8,4165],[95.9,4250],[96,4333],[96.1,4416],[96.1,4499],[96.2,4582],[96.3,4666],[96.3,4749],[96.4,4833],[96.4,4916],[96.4,4999],[96.4,5082],[96.4,5166],[96.4,5250],[96.4,5333],[96.4,5416],[96.4,5498],[96.4,5584],[96.4,5665],[96.4,5749],[96.4,5834],[96.5,5918],[96.6,6000],[96.7,6083],[96.8,6166],[97,6249],[97,6331],[97,6415],[97,6498],[97,6581],[97,6666],[97,6748],[96.9,6832],[96.9,6916],[96.9,6998],[96.9,7082],[96.9,7165],[96.9,7248],[96.9,7332],[96.9,7416],[96.9,7498],[96.9,7584],[96.9,7666],[96.9,7749],[96.9,7831],[96.9,7915],[96.9,7999],[96.9,8085],[96.9,8165],[96.9,8250],[96.9,8331],[96.9,8416],[96.9,8498],[96.9,8582],[96.9,8665],[96.9,8751],[96.9,8831],[96.9,8917],[96.9,8999],[96.9,9083],[96.9,9166],[96.9,9250],[96.9,9332],[96.9,9416],[96.9,9498],[96.9,9583],[96.9,9666],[96.9,9750],[96.9,9834],[96.9,9919],[96.9,10000],[96.9,10082],[96.9,10165],[96.9,10248],[96.9,10331],[96.9,10415],[96.9,10498],[96.9,10581],[96.9,10666],[96.9,10750],[96.9,10832],[96.9,10917],[96.9,10998],[96.9,11082]]",1,0,814.1332,816.3193,97.55337185,1.3487,"[{""rating"":97.55337185329861,""responseTime"":1.3487000000477565}]",space,1.6539,,816.3193,Not at all,0,816.322,,,[],,0,6,6,6,1,audio/Narrative7Situation6.wav,audio/Narrative8Situation6.wav,audio/Narrative5Situation6.wav,audio/Narrative6Situation6.wav,3,2,3,2,,,,,,,,,,,,,,,,,,,,,,,,,,,,,,,,,,,,,,,
,,,,,,5ee09c1a0c2ad1027f541f53,2024-02-08_16h04.03.987,group3.1-3.2-social-tom,2023.2.2,MacIntel,59.88023952,65c5074098b851296ff0b7ed,65c5418eb400311e49373235,,,,,,,,,,,,,,,,,,,,,,,,,,,,,816.3224,2,audio/Narrative6Situation7.wav,821.334,,821.334,846.2,"[[96.6,849],[94.4,934],[91.4,1018],[88,1099],[86,1181],[85.8,1264],[85.8,1348],[85.8,1431],[85.8,1515],[96.8,1766],[97.1,1849],[97.5,1934],[98.6,2015],[98.8,2100],[98.5,2185],[97.7,2265],[97.5,2348],[97.5,2431],[97.5,2515],[97.5,2598],[97.5,2682],[97.4,2766],[97.1,2847],[97,2932],[96.8,3015],[96.7,3097],[96.7,3182],[96.7,3264],[96.7,3348],[96.7,3433],[96.7,3515],[96.7,3598],[96.7,3681],[96.7,3766],[96.7,3849],[96.7,3932],[96.7,4015],[96.7,4097],[96.7,4183],[96.7,4265],[96.7,4350],[96.7,4432],[96.7,4517],[96.7,4598],[96.7,4682],[96.7,4764],[96.7,4849],[96.7,4931],[96.7,5015],[96.7,5097],[96.7,5182],[96.7,5264],[96.7,5350],[96.7,5430],[96.7,5516],[96.7,5598],[96.7,5684],[96.7,5764],[96.7,5850],[96.7,5931],[96.7,6015],[96.7,6098],[96.7,6182],[96.7,6265],[96.7,6350],[96.7,6432],[96.7,6516],[96.7,6598],[96.7,6682],[96.7,6766],[96.7,6849],[96.7,6931],[96.7,7015],[96.7,7097],[96.7,7182],[96.7,7265],[96.7,7348],[96.7,7432],[96.7,7516],[96.7,7598],[96.7,7680],[96.7,7765],[96.7,7849],[96.5,7945],[95.3,8016],[94.3,8097],[94.2,8184],[94.2,8265],[94.2,8348],[94.2,8433],[94.5,8515],[94.8,8598],[95.1,8681],[95.4,8767],[95.5,8849],[95.5,8933],[95.6,9017],[95.8,9100],[95.8,9182],[96,9264],[96.3,9349],[96.4,9433],[96.5,9514],[96.6,9601],[96.6,9681],[96.6,9766],[96.6,9849],[96.6,9932],[96.7,10015],[96.7,10100],[96.7,10181],[96.7,10266],[96.7,10348],[96.7,10433],[96.7,10515],[96.7,10600],[96.7,10681],[96.7,10766],[96.7,10848],[96.7,10932],[96.7,11014],[96.7,11101],[96.7,11182],[96.7,11265],[96.7,11347],[96.7,11433],[96.7,11515],[96.7,11599],[96.7,11681],[96.7,11764],[96.7,11849],[96.7,11931],[96.7,12015],[96.7,12099],[96.7,12182],[96.7,12266],[96.7,12348],[96.7,12431],[96.7,12515],[96.7,12598],[96.7,12681],[96.7,12766],[96.7,12847],[96.7,12931],[96.7,13016],[96.7,13097],[96.7,13184],[96.7,13267],[96.7,13349],[96.7,13432],[96.7,13515],[96.7,13598],[96.7,13681],[96.7,13764],[96.7,13849],[96.7,13932],[96.7,14015],[96.7,14098],[96.7,14181],[96.7,14264],[96.7,14348],[96.7,14435],[96.7,14515],[96.7,14598],[96.7,14681],[96.7,14764],[96.7,14848],[96.7,14931],[96.7,15016],[96.7,15098],[96.7,15184],[96.7,15264],[96.7,15349],[96.7,15431],[96.7,15515],[96.7,15598],[96.7,15683],[96.7,15764],[96.7,15849],[96.7,15932],[96.7,16015],[96.7,16099],[96.7,16181],[96.7,16264],[96.7,16350],[96.7,16431],[96.7,16516],[96.7,16598],[96.7,16684],[96.7,16766],[96.7,16849],[96.7,16931],[96.7,17017],[96.7,17099],[96.7,17183],[96.7,17264],[96.7,17348],[96.7,17432],[96.7,17515],[96.7,17597],[96.7,17681],[96.7,17764],[96.7,17848],[96.7,17931],[96.7,18015],[96.7,18101],[96.7,18181],[96.7,18265],[96.7,18348],[96.7,18437],[96.7,18516],[96.7,18598],[96.7,18681],[96.7,18765],[96.7,18849],[96.7,18933],[96.7,19016],[96.7,19098],[96.7,19182],[96.7,19264],[96.7,19348],[96.7,19432],[96.7,19514],[96.7,19600],[96.7,19682],[96.7,19765],[96.7,19848],[96.7,19934],[96.7,20014],[96.7,20098],[96.7,20181],[96.7,20265],[96.7,20347],[96.7,20432],[96.7,20515],[96.7,20598],[96.7,20683],[96.7,20764],[96.7,20849],[96.7,20932],[96.7,21014],[96.7,21097],[96.7,21182],[96.7,21264],[96.7,21347],[96.7,21433],[96.7,21516],[96.7,21598],[96.7,21683],[96.7,21765],[96.7,21848],[96.7,21932],[96.7,22014],[96.7,22099],[96.7,22181],[96.7,22265],[96.7,22347],[96.7,22432],[96.7,22515],[96.7,22597],[96.7,22681],[96.7,22765],[96.7,22847],[96.7,22932],[96.7,23015],[96.7,23099],[96.7,23180],[96.7,23266],[96.7,23347],[96.7,23433],[96.7,23515],[96.7,23599],[96.7,23683],[96.7,23766],[96.7,23847],[96.7,23931],[96.7,24014],[96.7,24097],[96.7,24180],[96.7,24264],[96.7,24348],[96.7,24431],[96.7,24515],[96.7,24599],[96.7,24683],[96.7,24766],[96.7,24848]]",1,0,846.2004,849.2992,97.13629829,1.4186,"[{""rating"":97.13629828559027,""responseTime"":1.4186000000238437}]",space,2.5522,,849.2993,Not at all,0,849.3018,,,[],,0,7,7,7,1,audio/Narrative7Situation7.wav,audio/Narrative8Situation7.wav,audio/Narrative5Situation7.wav,audio/Narrative6Situation7.wav,5,3,4,5,,,,,,,,,,,,,,,,,,,,,,,,,,,,,,,,,,,,,,,
,,,,,,5ee09c1a0c2ad1027f541f53,2024-02-08_16h04.03.987,group3.1-3.2-social-tom,2023.2.2,MacIntel,59.88023952,65c5074098b851296ff0b7ed,65c5418eb400311e49373235,,,,,,,,,,,,,,,,,,,,,,,,,,,,,849.3024,2,audio/Narrative6Situation8.wav,854.3152,,854.3152,861.2021,"[[999,16],[999,101],[999,182],[999,267],[999,352],[999,433],[999,516],[999,601],[999,683],[999,769],[999,851],[999,934],[999,1017],[999,1099],[999,1182],[999,1267],[999,1352],[999,1432],[999,1517],[999,1599],[999,1683],[999,1767],[79.9,1850],[82.4,1934],[82.6,2017],[82.6,2099],[82.2,2186],[81,2268],[80.9,2350],[81.5,2434],[81.6,2517],[81.6,2600],[81.6,2683],[81.6,2766],[81.6,2851],[81.6,2933],[81.6,3018],[81.6,3099],[81.6,3184],[78.8,3267],[75.5,3353],[75.4,3433],[75.4,3518],[75.4,3599],[75.4,3683],[75.4,3768],[75.4,3850],[75.4,3933],[78.2,4019],[83,4102],[83.4,4185],[83.4,4266],[83.4,4350],[83.4,4433],[83.4,4519],[83.4,4600],[83.4,4682],[86.8,4766],[88.9,4851],[89.4,4933],[89.6,5017],[90.4,5100],[91.6,5185],[93,5267],[93.5,5352],[93.6,5436],[93.9,5516],[94.4,5603],[94.9,5683],[95.1,5769],[95.4,5850],[95.8,5934],[95.8,6016],[95.9,6102],[96.3,6184],[96.4,6267],[96.4,6350],[96.4,6433],[96.5,6516],[96.5,6601],[96.5,6683],[96.5,6770],[96.6,6852]]",1,0,861.2022,863.9153,96.6734314,1.9454,"[{""rating"":96.28682454427083,""responseTime"":0.9325999999641681},{""rating"":96.67343139648438,""responseTime"":1.9453999999760754}]",space,2.1735,,863.9153,Not at all,0,863.9196,,,[],,0,8,8,8,1,audio/Narrative7Situation8.wav,audio/Narrative8Situation8.wav,audio/Narrative5Situation8.wav,audio/Narrative6Situation8.wav,2,3,3,5,,,,,,,,,,,,,,,,,,,,,,,,,,,,,,,,,,,,,,,
,,,,,,5ee09c1a0c2ad1027f541f53,2024-02-08_16h04.03.987,group3.1-3.2-social-tom,2023.2.2,MacIntel,59.88023952,65c5074098b851296ff0b7ed,65c5418eb400311e49373235,,,,,,,,,,,,,,,,,,,,,,,,,,,,,863.92,2,audio/Narrative6Situation9.wav,867.9339,,867.934,877.8989,"[[94.4,1102],[78,1182],[56.8,3182],[56.4,3264],[58.5,3347],[61,3431],[61.7,3514],[61.9,3597],[61.9,3680],[61.9,3765],[61.9,3848],[61.9,3932],[61.9,4016],[61.9,4097],[61.9,4183],[64.1,4264],[67.6,4348],[68.2,4431],[68.8,4514],[70.8,4599],[72.1,4682],[72.5,4765],[72.9,4848],[72.9,4931],[72.9,5014],[73.2,5098],[79.1,5180],[83.7,5267],[84.7,5347],[85.5,5431],[85.7,5514],[85.7,5597],[85.7,5682],[86.6,5765],[91,5848],[92.2,5931],[92.9,6014],[94,6098],[94.9,6182],[95.5,6266],[96.5,6348],[97,6431],[97,6514],[97,6598],[97,6680],[97,6764],[97,6847],[97,6932],[97,7014],[97,7098],[97,7181],[97,7265],[97,7346],[97,7431],[97,7514],[97,7598],[97,7683],[97,7765],[97,7847],[97,7932],[97,8014],[97,8098],[97,8180],[97,8264],[97,8347],[97,8432],[97,8514],[97,8598],[97,8680],[97,8764],[97,8847],[97,8932],[97,9014],[97,9099],[97,9180],[97,9264],[97,9349],[97,9431],[97,9514],[97,9598],[97,9681],[97,9765],[97,9848],[97,9931]]",1,0,877.899,880.9982,98.35567898,1.2189,"[{""rating"":98.35567898220486,""responseTime"":1.2188999999762018}]",space,2.5552,,880.9984,Not at all,0,881.0017,,,[],,0,9,9,9,1,audio/Narrative7Situation9.wav,audio/Narrative8Situation9.wav,audio/Narrative5Situation9.wav,audio/Narrative6Situation9.wav,2,3,3,4,,,,,,,,,,,,,,,,,,,,,,,,,,,,,,,,,,,,,,,
,,,,,,5ee09c1a0c2ad1027f541f53,2024-02-08_16h04.03.987,group3.1-3.2-social-tom,2023.2.2,MacIntel,59.88023952,65c5074098b851296ff0b7ed,65c5418eb400311e49373235,,,,,,,,,,,,,,,,,,,,,,,,,,,,,881.002,2,audio/Narrative5Situation1.wav,886.0147,,886.0148,899.317,"[[30.1,519],[14.9,601],[8,682],[7,768],[7.6,850],[7.8,934],[7.8,1017],[7.8,1100],[7.8,1183],[7.8,1269],[7.8,1351],[7.8,1436],[7.8,1516],[7.7,1600],[6.4,1685],[6.1,1767],[5.5,1850],[4.8,1934],[4.5,2020],[4.5,2100],[4.3,2183],[3.5,2267],[3.5,2350],[3.5,2433],[3.5,2516],[3.5,2602],[3.5,2684],[3.5,2768],[3.5,2850],[3.5,2933],[3.5,3017],[3.5,3099],[3.5,3183],[3.5,3266],[3.5,3351],[3.5,3434],[3.5,3517],[3.5,3599],[3.5,3684],[3.5,3766],[3.5,3850],[3.5,3933],[3.5,4018],[3.5,4103],[3.5,4185],[3.5,4266],[3.5,4351],[3.5,4433],[3.5,4518],[3.5,4601],[3.5,4684],[3.5,4767],[3.5,4850],[3.5,4934],[3.5,5018],[3.5,5099],[9.5,5183],[12,5269],[12.2,5350],[12.2,5433],[12.2,5516],[12.2,5600],[12.2,5684],[12.2,5770],[12.2,5849],[12.2,5933],[12.2,6020],[12.2,6100],[18.1,6183],[24.5,6267],[24.6,6350],[24.6,6434],[24.6,6516],[24.6,6602],[24.6,6684],[24.6,6768],[24.6,6849],[24.6,6932],[24.6,7017],[24.6,7103],[24.6,7182],[24.6,7269],[24.6,7349],[24.6,7435],[24.6,7516],[24.6,7601],[24.6,7683],[24.6,7769],[24.6,7850],[24.6,7934],[24.6,8016],[24.6,8100],[24.6,8183],[24.6,8267],[24.6,8350],[24.6,8433],[24.6,8516],[31.2,8609],[33.3,8684],[33.3,8768],[33.3,8852],[33.3,8934],[33.3,9018],[33.3,9100],[33.3,9185],[33.3,9266],[33.3,9350],[33.3,9435],[33.3,9519],[33.3,9600],[33.3,9685],[36.2,9767],[45.7,9851],[47.7,9935],[47.5,10019],[47.5,10101],[47.5,10183],[47.5,10270],[47.5,10352],[47.5,10436],[47.5,10517],[47.5,10607],[47.5,10683],[47.5,10768],[46.9,10852],[44.9,10933],[44.3,11017],[44.3,11103],[44.3,11183],[44.3,11267],[44.3,11353],[44.3,11434],[44.3,11519],[44.3,11601],[44.3,11685],[44.3,11769],[44.3,11852],[44.3,11935],[44.3,12020],[44.3,12102],[44.3,12185],[46.2,12267],[46.7,12351],[46.7,12435],[46.7,12518],[46.7,12601],[46.7,12683],[46.7,12766],[46.7,12852],[46.7,12933],[46.7,13018],[49.4,13103]]",1,0,899.3171,909.1521,29.86740112,8.6639,"[{""rating"":47.85425821940104,""responseTime"":1.9113999999761973},{""rating"":46.614693535698784,""responseTime"":3.0640999999642418},{""rating"":44.42548963758681,""responseTime"":4.728299999952355},{""rating"":29.86740112304688,""responseTime"":8.663899999976138}]",space,9.3018,,909.1522,All the time,100,909.1562,,,[],,0,10,10,10,1,audio/Narrative8Situation1.wav,audio/Narrative7Situation1.wav,audio/Narrative6Situation1.wav,audio/Narrative5Situation1.wav,5,2,2,5,,,,,,,,,,,,,,,,,,,,,,,,,,,,,,,,,,,,,,,
,,,,,,5ee09c1a0c2ad1027f541f53,2024-02-08_16h04.03.987,group3.1-3.2-social-tom,2023.2.2,MacIntel,59.88023952,65c5074098b851296ff0b7ed,65c5418eb400311e49373235,,,,,,,,,,,,,,,,,,,,,,,,,,,,,909.1564,2,audio/Narrative5Situation2.wav,912.1651,,912.1652,941.6184,"[[30.4,1086],[35.9,1167],[37.8,1250],[39.3,1334],[42.4,1417],[43.2,1502],[43.2,1587],[43.2,1666],[43.2,1752],[43.2,1833],[43.2,1917],[43.2,2000],[43.2,2084],[43.2,2168],[43.2,2251],[40.6,2333],[31.4,2416],[30,2501],[30.1,2584],[30.1,2669],[30.1,2750],[30.1,2835],[30.1,2916],[30.1,3001],[30.1,3085],[30.1,3168],[30.1,3250],[30.1,3334],[30.1,3417],[30.1,3499],[30.9,3582],[31.1,3666],[31.1,3752],[31.6,3834],[35.1,3917],[35.9,3999],[36.8,4085],[39.6,4168],[42.3,4249],[44.2,4333],[46.2,4416],[47.2,4500],[47.2,4584],[47.2,4666],[47.2,4751],[47.2,4834],[47.5,4916],[50,5002],[50.9,5085],[51,5167],[51,5251],[51,5333],[51,5417],[51.6,5500],[56.2,5586],[57.9,5667],[58.2,5752],[58.2,5833],[58.2,5918],[58.2,6002],[58.2,6084],[58.2,6168],[58.2,6249],[58.2,6333],[58.2,6416],[58.2,6503],[58.2,6584],[58.2,6669],[58.2,6750],[58.2,6834],[58.2,6918],[58.2,7000],[58.2,7085],[58.2,7166],[58.2,7251],[58.2,7336],[58.2,7418],[59.5,7501],[63,7583],[63.6,7666],[63.6,7750],[63.6,7834],[63.6,7917],[63.6,7999],[63.6,8084],[63.6,8168],[63.6,8251],[63.6,8333],[63.6,8419],[63.6,8500],[63.6,8583],[63.6,8667],[63.6,8749],[63.6,8835],[63.6,8916],[63.6,9006],[63.6,9086],[63.6,9166],[63.6,9253],[63.6,9334],[63.6,9417],[63.6,9501],[63.6,9582],[63.6,9668],[63.6,9752],[63.6,9832],[63.6,9917],[63.6,9999],[63.6,10102],[63.6,10184],[63.6,10270],[63.6,10352],[63.6,10434],[63.6,10517],[63.6,10602],[63.6,10683],[63.6,10766],[63.6,10851],[63.6,10932],[63.6,11017],[63.6,11101],[63.6,11183],[63.6,11267],[63.6,11352],[63.6,11434],[63.6,11517],[63.6,11603],[65.2,11689],[66,11767],[66,11851],[66,11934],[66,12019],[66,12100],[66,12184],[66,12269],[66,12350],[66,12434],[66,12516],[66,12601],[66,12682],[66,12767],[66,12851],[66,12936],[66,13019],[66,13101],[66,13184],[66,13268],[66,13349],[66,13432],[66,13518],[66,13602],[66,13684],[66,13768],[66,13849],[66,13933],[66,14018],[66,14100],[66,14184],[66,14269],[66,14349],[67.8,14438],[68.8,14517],[69.2,14600],[69.4,14685],[69.5,14769],[69.6,14851],[69.6,14932],[69.6,15016],[69.6,15099],[69.6,15184],[69.6,15267],[69.6,15351],[69.6,15432],[69.6,15517],[69.6,15602],[69.6,15682],[69.6,15767],[69.6,15849],[69.6,15932],[69.6,16017],[69.6,16101],[69.6,16183],[69.6,16269],[69.6,16350],[69.6,16432],[69.6,16519],[69.6,16602],[69.6,16683],[69.6,16768],[69.6,16850],[69.6,16932],[69.6,17016],[69.6,17098],[69.6,17184],[69.6,17268],[69.6,17351],[69.6,17432],[69.6,17517],[69.6,17604],[70.2,17683],[71.1,17768],[71.3,17849],[72.1,17933],[72.4,18016],[72.6,18100],[73.4,18183],[73.6,18266],[73.6,18351],[73.6,18432],[73.6,18516],[73.6,18600],[73.6,18683],[73.6,18768],[73.6,18851],[73.6,18932],[73.6,19017],[73.6,19101],[73.6,19182],[73.6,19267],[73.6,19349],[73.6,19433],[73.6,19517],[73.6,19603],[73.6,19686],[73.6,19768],[73.6,19851],[73.6,19933],[73.6,20019],[73.6,20102],[74.7,20184],[77.9,20266],[78.8,20349],[78.9,20432],[78.9,20517],[78.9,20601],[78.9,20684],[78.9,20766],[78.9,20851],[78.9,20932],[78.9,21016],[78.9,21099],[78.9,21182],[78.9,21267],[78.9,21351],[78.9,21432],[78.9,21517],[78.9,21602],[78.9,21683],[78.9,21767],[78.9,21849],[78.9,21932],[78.9,22015],[78.9,22101],[78.9,22184],[79.4,22268],[79.8,22350],[80.2,22439],[80.4,22516],[80.4,22597],[80.4,22684],[80.4,22766],[80.4,22851],[80.4,22932],[80.4,23016],[80.4,23101],[80.4,23183],[80.4,23266],[80.4,23351],[80.4,23432],[80.4,23518],[80.4,23600],[80.4,23684],[80.4,23767],[80.4,23849],[80.4,23933],[80.4,24018],[80.4,24099],[80.4,24184],[80.4,24269],[80.4,24350],[80.4,24434],[80.4,24517],[80.4,24602],[80.4,24683],[80.4,24766],[81,24850],[82,24932],[82.5,25016],[83,25101],[83.2,25183],[83.3,25267],[83.3,25351],[83.3,25433],[83.3,25517],[83.3,25603],[83.3,25683],[83.3,25766],[83.3,25853],[83.3,25933],[83.3,26018],[83.3,26099],[83.3,26184],[83.3,26269],[83.3,26349],[83.3,26432],[83.3,26518],[83.3,26601],[83.3,26684],[83.3,26766],[83.3,26852],[83.3,26935],[83.3,27016],[83.3,27101],[83.3,27182],[83.3,27267],[83.3,27352],[83.3,27433],[83.3,27518],[83.3,27602],[83.3,27685],[83.3,27768],[83.6,27851],[83.9,27933],[84.4,28018],[84.7,28100],[85,28185],[85.8,28266],[86.5,28354],[86.7,28434],[87,28517],[88.2,28600],[89.4,28682],[89.5,28766],[89.5,28851],[89.5,28936],[89.5,29017],[89.5,29101],[89.5,29186],[89.5,29267],[89.5,29351],[89.5,29432]]",1,0,941.6186,944.1,92.54070706,1.1777,"[{""rating"":92.54070705837674,""responseTime"":1.1776999999880218}]",space,1.9343,,944.1001,Not at all,0,944.1044,,,[],,0,11,11,11,1,audio/Narrative8Situation2.wav,audio/Narrative7Situation2.wav,audio/Narrative6Situation2.wav,audio/Narrative5Situation2.wav,3,3,3,3,,,,,,,,,,,,,,,,,,,,,,,,,,,,,,,,,,,,,,,
,,,,,,5ee09c1a0c2ad1027f541f53,2024-02-08_16h04.03.987,group3.1-3.2-social-tom,2023.2.2,MacIntel,59.88023952,65c5074098b851296ff0b7ed,65c5418eb400311e49373235,,,,,,,,,,,,,,,,,,,,,,,,,,,,,944.1048,2,audio/Narrative5Situation3.wav,947.1146,,947.1147,961.0318,"[[999,16],[999,99],[999,183],[999,265],[999,349],[999,432],[999,515],[999,599],[999,684],[999,766],[999,850],[999,932],[999,1016],[999,1101],[999,1182],[999,1268],[999,1350],[999,1433],[999,1518],[999,1599],[999,1683],[999,1768],[999,1849],[999,1932],[999,2018],[999,2099],[999,2183],[999,2268],[999,2349],[999,2434],[999,2516],[999,2600],[52.4,2682],[51.4,2768],[51.1,2850],[51.3,2932],[55.1,3015],[61.5,3098],[65.7,3182],[73.2,3267],[80.3,3348],[83.2,3432],[83.4,3516],[83.4,3601],[86.6,3692],[92,3767],[92.7,3853],[92.8,3936],[92.8,4020],[92.8,4100],[94.2,4183],[94.6,4269],[95,4354],[95.8,4434],[96,4518],[96,4600],[96,4684],[96,4770],[96,4852],[96,4933],[96,5017],[96,5101],[96,5183],[96,5268],[96,5351],[96,5433],[96,5518],[96,5599],[96,5683],[96,5767],[96,5850],[96,5934],[96,6018],[96,6100],[96,6183],[96,6268],[96,6350],[96,6433],[96,6517],[96,6600],[96,6685],[96,6765],[96,6851],[96,6935],[96,7017],[96,7100],[96,7183],[96,7267],[96,7351],[96,7436],[96,7517],[96,7601],[96,7684],[96,7767],[96,7850],[96,7933],[96,8018],[96,8101],[96,8184],[96,8269],[96,8353],[96,8433],[96,8519],[96,8600],[96,8684],[96,8767],[96,8849],[96,8932],[96,9018],[96,9098],[96,9184],[96,9267],[96,9351],[96,9436],[96,9516],[96,9601],[96,9682],[96,9767],[96,9853],[96,9932],[96,10018],[96,10100],[96,10185],[96,10268],[96,10349],[96,10434],[96,10517],[96,10600],[96,10682],[96,10767],[96,10851],[96,10936],[96,11019],[96,11101],[96,11185],[96,11269],[96,11351],[96,11432],[96,11517],[96,11601],[96,11686],[96,11768],[96,11853],[96,11933],[96,12018],[96,12100],[96,12184],[96,12268],[96,12350],[96,12434],[96,12517],[96,12599],[96,12684],[96,12767],[96,12849],[96,12934],[96,13017],[96,13101],[96,13185],[96,13268],[96,13351],[96,13433],[96,13517],[96,13601],[96,13684],[96,13767],[96,13853]]",1,0,961.0319,963.1142,97.45873345,1.2339,"[{""rating"":97.45873345269096,""responseTime"":1.23390000003576}]",space,1.545,,963.1142,Not at all,0,963.117,,,[],,0,12,12,12,1,audio/Narrative8Situation3.wav,audio/Narrative7Situation3.wav,audio/Narrative6Situation3.wav,audio/Narrative5Situation3.wav,4,8,5,3,,,,,,,,,,,,,,,,,,,,,,,,,,,,,,,,,,,,,,,
,,,,,,5ee09c1a0c2ad1027f541f53,2024-02-08_16h04.03.987,group3.1-3.2-social-tom,2023.2.2,MacIntel,59.88023952,65c5074098b851296ff0b7ed,65c5418eb400311e49373235,,,,,,,,,,,,,,,,,,,,,,,,,,,,,963.1173,2,audio/Narrative5Situation4.wav,964.1304,,964.1304,984.5307,"[[98.6,1083],[100,1171],[99.9,1749],[98.6,1836],[98.3,1917],[97.3,1999],[97.1,2084],[97.1,2168],[97,2249],[96.5,2335],[96.4,2416],[96.4,2500],[96.4,2583],[96.4,2666],[96.4,2752],[96.4,2833],[96.4,2917],[96.4,3001],[96.4,3084],[96.4,3167],[96.4,3250],[96.4,3333],[96.4,3418],[96.4,3500],[96.4,3584],[96.4,3666],[96.4,3750],[96.4,3834],[96.4,3919],[96.4,3999],[96.4,4085],[96.4,4166],[96.4,4250],[96.4,4335],[96.4,4417],[96.4,4500],[96.4,4583],[96.4,4666],[96.4,4752],[96.4,4834],[96.4,4919],[96.4,5001],[96.4,5084],[96.4,5167],[96.4,5250],[96.4,5333],[96.4,5418],[96.4,5500],[96.4,5584],[96.5,5683],[96.5,5750],[96.6,5833],[96.6,5916],[96.7,5999],[96.7,6085],[96.7,6167],[96.7,6250],[96.7,6333],[96.7,6416],[96.7,6501],[96.7,6582],[96.7,6666],[96.7,6751],[96.7,6833],[96.7,6916],[96.7,7001],[96.7,7084],[96.7,7167],[96.7,7250],[96.7,7333],[96.7,7417],[96.7,7500],[96.7,7582],[96.7,7666],[96.7,7749],[96.7,7835],[96.7,7916],[96.7,8000],[96.7,8084],[96.7,8168],[96.7,8250],[96.7,8333],[96.7,8417],[96.7,8502],[96.7,8583],[96.7,8666],[96.7,8751],[96.7,8833],[96.7,8916],[96.7,9002],[96.7,9084],[96.7,9168],[96.7,9251],[96.7,9333],[96.7,9417],[96.7,9501],[96.7,9584],[96.7,9668],[96.7,9749],[96.7,9836],[96.7,9917],[96.7,10000],[96.7,10082],[96.7,10168],[96.7,10249],[96.7,10333],[96.7,10416],[96.7,10500],[96.7,10583],[96.7,10668],[96.7,10751],[96.7,10835],[96.7,10916],[96.7,11000],[96.7,11084],[96.7,11167],[96.7,11250],[96.7,11333],[96.7,11417],[96.7,11500],[96.7,11583],[96.7,11666],[96.7,11750],[96.7,11834],[96.7,11918],[96.7,11999],[96.7,12084],[96.7,12166],[98.2,12266],[98.7,12350],[99.1,12432],[99.3,12516],[99.4,12599],[99.4,12682],[99.4,12766],[99.4,12850],[99.4,12933],[99.4,13017],[99.4,13100],[99.4,13184],[99.4,13268],[99.4,13349],[99.4,13435],[99.4,13517],[99.4,13600],[99.4,13683],[99.4,13767],[99.4,13851],[99.4,13935],[99.4,14019],[99.4,14102],[99.4,14184],[99.4,14267],[99.4,14350],[99.4,14433],[99.4,14517],[99.4,14599],[99.4,14684],[99.4,14767],[99.4,14853],[99.4,14933],[99.4,15019],[99.4,15100],[99.4,15183],[99.4,15268],[99.4,15350],[99.4,15433],[99.4,15517],[99.4,15600],[99.4,15683],[99.4,15767],[99.4,15851],[99.4,15934],[99.4,16016],[99.4,16099],[99.4,16183],[99.4,16266],[99.4,16350],[99.4,16434],[99.4,16517],[99.4,16599],[99.4,16683],[99.4,16767],[99.4,16851],[99.4,16932],[99.4,17018],[99.4,17103],[99.4,17184],[99.4,17266],[99.4,17350],[99.4,17433],[99.4,17517],[99.4,17599],[99.4,17684],[99.1,17767],[98.9,17850],[98.7,17936],[98.6,18017],[98.4,18100],[98.3,18183],[98.3,18267],[98.3,18351],[98.3,18434],[98.3,18516],[98.3,18599],[98.3,18682],[98.3,18767],[98.3,18850],[98.3,18934],[98.3,19016],[98.3,19102],[98.3,19182],[98.3,19268],[98.3,19350],[98.3,19433],[98.3,19518],[98.3,19600],[98.3,19683],[98.3,19768],[98.3,19849],[98.3,19935],[98.3,20016],[98.3,20100],[98.3,20183],[98.3,20266],[98.3,20350]]",1,0,984.5309,987.5982,99.46387397,1.9504,"[{""rating"":99.46387396918404,""responseTime"":1.950400000035529}]",space,2.5366,,987.5982,All the time,100,987.6025,,,[],,0,13,13,13,1,audio/Narrative8Situation4.wav,audio/Narrative7Situation4.wav,audio/Narrative6Situation4.wav,audio/Narrative5Situation4.wav,3,3,2,1,,,,,,,,,,,,,,,,,,,,,,,,,,,,,,,,,,,,,,,
,,,,,,5ee09c1a0c2ad1027f541f53,2024-02-08_16h04.03.987,group3.1-3.2-social-tom,2023.2.2,MacIntel,59.88023952,65c5074098b851296ff0b7ed,65c5418eb400311e49373235,,,,,,,,,,,,,,,,,,,,,,,,,,,,,987.6028,2,audio/Narrative5Situation5.wav,992.6139,,992.6139,1008.0499,"[[99.5,1182],[99.6,1267],[99.6,1349],[99.6,1434],[99.6,1516],[99.6,1601],[99.6,1683],[99.6,1767],[99.6,1849],[99.6,1933],[99.6,2016],[99.6,2099],[99.6,2182],[99.6,2268],[99.6,2349],[99.6,2433],[99.6,2517],[99.6,2600],[99.6,2683],[99.6,2768],[99.6,2849],[99.6,2934],[99.6,3016],[99.6,3100],[99.6,3182],[99.6,3267],[99.6,3349],[99.6,3433],[99.6,3515],[99.5,3601],[99.4,3682],[99.4,3768],[99.4,3850],[99.1,3932],[98,4016],[97.6,4100],[97.3,4182],[97.1,4267],[96.5,4349],[96.4,4435],[96.4,4515],[96.4,4600],[96.4,4683],[96.4,4768],[96.4,4848],[96.6,4934],[96.7,5017],[96.8,5102],[97,5182],[97.2,5265],[97.2,5349],[97.2,5432],[97.2,5516],[97.2,5601],[97.2,5684],[97.2,5767],[97.2,5849],[97.2,5932],[97.2,6016],[97.2,6101],[97.2,6183],[97.2,6268],[97.2,6349],[97.2,6434],[97.2,6517],[97.2,6599],[97.2,6683],[97.2,6768],[97.2,6850],[97.2,6936],[97.2,7017],[97.2,7099],[97.2,7182],[97.2,7266],[97.2,7349],[97.2,7434],[97.2,7517],[97.2,7602],[97.2,7682],[97.2,7767],[97.2,7849],[97.2,7933],[97.2,8016],[97.2,8099],[97.2,8182],[97.2,8266],[97.2,8349],[97.2,8433],[97.2,8517],[97.2,8599],[97.2,8683],[97.2,8768],[97.2,8852],[97.2,8934],[97.2,9017],[97.2,9100],[97.2,9184],[97.2,9267],[97.2,9350],[97.2,9432],[97.2,9518],[97.2,9599],[97.2,9683],[97.2,9767],[97.2,9850],[97.2,9934],[97.2,10017],[97.2,10099],[97.2,10182],[97.2,10267],[97.2,10349],[97.2,10433],[97.2,10517],[97.2,10599],[97.2,10684],[97.2,10766],[97.2,10849],[97.2,10933],[97.2,11016],[97.2,11100],[97.2,11184],[97.2,11265],[97.2,11350],[97.2,11434],[97.2,11516],[97.2,11599],[97.2,11683],[97.2,11766],[97.2,11850],[97.2,11932],[97.2,12017],[97.2,12101],[97.2,12185],[97.2,12266],[97.2,12350],[97.2,12433],[97.2,12517],[97.2,12599],[97.2,12684],[97.2,12766],[97.2,12851],[97.2,12935],[97.2,13015],[97.2,13098],[97.2,13182],[97.2,13266],[97.2,13348],[97.2,13432],[97.2,13515],[97.2,13599],[97.2,13682],[97.2,13765],[97.2,13849],[97.2,13933],[97.2,14016],[97.2,14098],[97.2,14182],[97.2,14267],[97.2,14352],[97.2,14434],[97.2,14517],[97.2,14599],[97.2,14683],[97.2,14767],[97.2,14849],[97.2,14934],[97.2,15019],[97.9,15115],[98,15201],[98.1,15282],[98.4,15369]]",1,0,1008.0501,1012.0631,98.78216214,3.1752,"[{""rating"":98.78216213650174,""responseTime"":3.175199999988081}]",space,3.4727,,1012.0632,Half the time,50,1012.0676,,,[],,0,14,14,14,1,audio/Narrative8Situation5.wav,audio/Narrative7Situation5.wav,audio/Narrative6Situation5.wav,audio/Narrative5Situation5.wav,2,5,2,5,,,,,,,,,,,,,,,,,,,,,,,,,,,,,,,,,,,,,,,
,,,,,,5ee09c1a0c2ad1027f541f53,2024-02-08_16h04.03.987,group3.1-3.2-social-tom,2023.2.2,MacIntel,59.88023952,65c5074098b851296ff0b7ed,65c5418eb400311e49373235,,,,,,,,,,,,,,,,,,,,,,,,,,,,,1012.068,2,audio/Narrative5Situation6.wav,1015.08,,1015.0801,1020.7499,"[[98.9,2000],[99.4,2083],[100,2166],[100,2251],[100,2335],[100,2419],[100,2501],[99.8,2584],[99.5,2667],[99.4,2752],[99,2833],[98.7,2916],[98.6,3000],[98.6,3083],[98.5,3167],[98.5,3251],[98.5,3333],[98.5,3417],[98.5,3501],[98.5,3583],[98.5,3666],[98.5,3751],[98.5,3832],[98.5,3916],[98.5,3999],[98.5,4084],[98.5,4168],[98.5,4251],[98.5,4333],[98.5,4416],[98.5,4499],[98.5,4583],[98.5,4667],[98.5,4751],[98.5,4832],[98.5,4917],[98.5,5002],[98.5,5083],[98.5,5168],[98.5,5252],[98.5,5333],[98.5,5418],[98.5,5502],[98.5,5585],[98.5,5669]]",1,0,1020.7501,1023.7317,98.51108127,1.246,"[{""rating"":98.51108127170139,""responseTime"":1.2459999999998672}]",space,2.4348,,1023.7318,All the time,100,1023.7369,,,[],,0,15,15,15,1,audio/Narrative8Situation6.wav,audio/Narrative7Situation6.wav,audio/Narrative6Situation6.wav,audio/Narrative5Situation6.wav,2,3,2,3,,,,,,,,,,,,,,,,,,,,,,,,,,,,,,,,,,,,,,,
,,,,,,5ee09c1a0c2ad1027f541f53,2024-02-08_16h04.03.987,group3.1-3.2-social-tom,2023.2.2,MacIntel,59.88023952,65c5074098b851296ff0b7ed,65c5418eb400311e49373235,,,,,,,,,,,,,,,,,,,,,,,,,,,,,1023.7374,2,audio/Narrative5Situation7.wav,1027.7472,,1027.7473,1048.7969,"[[98.2,684],[97.6,769],[97.5,851],[97.5,934],[97.5,1015],[97.5,1101],[97.5,1182],[97.5,1266],[97.5,1348],[97.5,1434],[97.4,1515],[97.4,1600],[97.4,1682],[97.8,1767],[98.2,1849],[98.2,1932],[98.3,2016],[98.3,2098],[98.3,2183],[98.3,2265],[98.3,2351],[98.3,2432],[98.3,2516],[98.3,2599],[98.3,2683],[98.3,2765],[98.3,2851],[98.3,2932],[98.3,3018],[98.3,3101],[98.3,3183],[98.3,3268],[98.3,3348],[98.3,3431],[98.1,3516],[98.1,3599],[98,3684],[97.9,3765],[97.7,3849],[97.6,3933],[97.6,4016],[97.6,4098],[97.6,4183],[97.6,4265],[97.4,4350],[97,4433],[96.8,4516],[96.7,4600],[96.7,4685],[96.7,4766],[96.7,4848],[96.7,4934],[96.7,5015],[96.7,5099],[96.7,5182],[96.7,5267],[96.7,5348],[96.7,5433],[96.7,5515],[96.7,5601],[96.7,5682],[96.7,5767],[96.7,5849],[96.7,5932],[96.7,6016],[96.7,6099],[96.3,6182],[96.1,6265],[96,6349],[95.8,6432],[95.7,6517],[95.7,6599],[95.7,6683],[95.7,6765],[95.7,6850],[95.7,6932],[95.7,7016],[95.7,7098],[95.7,7183],[95.7,7265],[95.7,7352],[95.7,7434],[95.7,7517],[95.7,7599],[95.7,7682],[95.7,7766],[95.7,7849],[95.7,7932],[95.7,8015],[95.7,8098],[95.7,8184],[95.7,8265],[95.7,8349],[95.7,8432],[95.7,8516],[95.7,8599],[95.7,8684],[95.7,8765],[95.7,8848],[95.7,8932],[95.7,9016],[95.7,9100],[95.9,9187],[96,9266],[96.1,9350],[96.1,9432],[96.2,9516],[96.3,9598],[94.8,9684],[93.9,9765],[93.8,9848],[93.8,9935],[93.8,10019],[93.8,10099],[93.8,10183],[93.8,10266],[93.8,10349],[93.8,10433],[93.8,10517],[93.8,10600],[93.8,10683],[93.8,10766],[93.8,10848],[93.8,10932],[93.8,11015],[93.8,11100],[93.8,11183],[93.8,11265],[93.8,11351],[93.8,11432],[93.8,11516],[93.8,11600],[93.8,11682],[93.8,11767],[93.8,11850],[93.8,11934],[93.8,12018],[93.8,12099],[93.8,12181],[93.8,12265],[93.8,12349],[93.8,12433],[93.8,12515],[93.8,12601],[93.8,12682],[93.8,12766],[93.8,12850],[93.8,12932],[93.8,13015],[93.8,13099],[93.8,13181],[93.8,13266],[93.8,13350],[93.8,13432],[93.8,13515],[93.8,13599],[93.8,13681],[93.8,13768],[93.8,13849],[93.8,13932],[93.8,14015],[93.8,14098],[93.8,14182],[93.8,14265],[93.8,14348],[93.8,14432],[93.8,14515],[93.8,14597],[93.8,14681],[93.8,14765],[93.8,14847],[93.8,14932],[93.8,15015],[93.8,15098],[93.8,15182],[93.8,15265],[93.8,15348],[93.8,15431],[93.8,15515],[93.8,15598],[93.8,15682],[93.8,15765],[93.8,15848],[93.8,15932],[93.8,16015],[93.8,16098],[93.8,16182],[93.8,16266],[93.8,16349],[93.8,16431],[93.8,16515],[93.8,16598],[93.8,16682],[93.8,16765],[93.8,16849],[93.8,16932],[93.8,17016],[93.8,17099],[93.8,17183],[93.8,17266],[93.8,17350],[93.8,17431],[93.8,17516],[93.8,17598],[93.8,17683],[93.6,17766],[92.6,17869],[92.6,17948],[92.6,18034],[92.5,18116],[92.1,18200],[91.5,18284],[91.4,18366],[91.4,18448],[91.4,18532],[91.4,18615],[91.4,18699],[91.4,18782],[91.4,18866],[91.4,18948],[91.4,19033],[91.4,19115],[91.4,19200],[91.4,19282],[91.4,19365],[91.4,19448],[91.4,19533],[91.4,19615],[91.4,19699],[91.4,19783],[91.4,19870],[89.7,19950],[88.9,20032],[88.7,20115],[88.7,20199],[88.7,20282],[88.7,20365],[88.7,20449],[88.7,20531],[88.7,20615],[88.7,20698],[88.7,20781],[88.7,20866],[88.7,20949],[88.7,21032]]",1,0,1048.797,1051.1982,87.73996141,1.3007,"[{""rating"":87.73996141221788,""responseTime"":1.3006999999881828}]",space,1.8713,,1051.1982,All the time,100,1051.1999,,,[],,0,16,16,16,1,audio/Narrative8Situation7.wav,audio/Narrative7Situation7.wav,audio/Narrative6Situation7.wav,audio/Narrative5Situation7.wav,3,5,5,4,,,,,,,,,,,,,,,,,,,,,,,,,,,,,,,,,,,,,,,
