exp_question,consent.started,consent.stopped,consentResponse.keys,consentResponse.rt,consentResponse.duration,participantID,date,expName,psychopyVersion,OS,frameRate,STUDY_ID,SESSION_ID,opening1.started,opening1.stopped,keyEndingOpening1.keys,keyEndingOpening1.rt,keyEndingOpening1.duration,volumeAdjust.started,volumeAdjust.stopped,endingAdjust.keys,endingAdjust.rt,endingAdjust.duration,opening2.started,opening2.stopped,keyEndingOpening.keys,keyEndingOpening.rt,keyEndingOpening.duration,mouse.x,mouse.y,mouse.leftButton,mouse.midButton,mouse.rightButton,mouse.time,instructionLoop.thisRepN,instructionLoop.thisTrialN,instructionLoop.thisN,instructionLoop.thisIndex,instructionLoop.ran,readyForAudio.started,readyForAudio.stopped,fixation.started,run,audio_played,fixation.stopped,endPractice.keys,audioPre.started,audioPre.stopped,continuousResponses_audio,continuousSlider.response,continuousSlider.rt,intRating.started,intRating.stopped,intQuestionSlider.response,intQuestionSlider.rt,intQuestionSlider.history,confirmResponse.keys,confirmResponse.rt,confirmResponse.duration,catchQuestion.started,catch_label,catch_value,catchQuestion.stopped,catchQuestionSlider.response,catchQuestionSlider.rt,catchQuestionSlider.history,confirmResponse_2.keys,audioRunLoop.thisRepN,audioRunLoop.thisTrialN,audioRunLoop.thisN,audioRunLoop.thisIndex,audioRunLoop.ran,conditions1_1,conditions2_1,conditions1_2,conditions2_2,dur1_1,dur2_1,dur1_2,dur2_2,endPractice.rt,endPractice.duration,confirmResponse_2.rt,confirmResponse_2.duration,runIntervalBreak.started,runIntervalBreak.stopped,endingBreakKey.keys,endingBreakKey.rt,endingBreakKey.duration,connection.started,connection.stopped,connectionEnding.keys,connectionEnding.rt,connectionEnding.duration,readyForText.started,readyForText.stopped,textPre.started,run_dup,textPre.stopped,continuousResponses_text,textRunLoop.thisRepN,textRunLoop.thisTrialN,textRunLoop.thisN,textRunLoop.thisIndex,textRunLoop.ran,text1_1,text1_2,text2_1,text2_2,runBreakText.started,runBreakText.stopped,endingBreakKey_2.keys,endingBreakKey_2.rt,endingBreakKey_2.duration,ending.started,ending.stopped,endingEnding.keys,endingEnding.rt,endingEnding.duration
tom,0.0005,11.7166,y,11.3951,,5efb31fa8cd32f04bf048643,2024-05-13_10h23.21.597,group3.1-3.2-social-tom,2023.2.2,Win32,60.60606061,65c5074098b851296ff0b7ed,6642304edda673a1ae35eca9,,,,,,,,,,,,,,,,,,,,,,,,,,,,,,,,,,,,,,,,,,,,,,,,,,,,,,,,,,,,,,,,,,,,,,,,,,,,,,,,,,,,,,,,,,,,,,,,,,,,,,,,,,
,,,,,,5efb31fa8cd32f04bf048643,2024-05-13_10h23.21.597,group3.1-3.2-social-tom,2023.2.2,Win32,60.60606061,65c5074098b851296ff0b7ed,6642304edda673a1ae35eca9,11.7176,16.1445,space,4.3693,,,,,,,,,,,,,,,,,,,,,,,,,,,,,,,,,,,,,,,,,,,,,,,,,,,,,,,,,,,,,,,,,,,,,,,,,,,,,,,,,,,,,,,,,,,,,,,,,,,,,,
,,,,,,5efb31fa8cd32f04bf048643,2024-05-13_10h23.21.597,group3.1-3.2-social-tom,2023.2.2,Win32,60.60606061,65c5074098b851296ff0b7ed,6642304edda673a1ae35eca9,,,,,,16.1448,28.0173,space,11.5564,,,,,,,,,,,,,,,,,,,,,,,,,,,,,,,,,,,,,,,,,,,,,,,,,,,,,,,,,,,,,,,,,,,,,,,,,,,,,,,,,,,,,,,,,,,,,,,,,
,,,,,,5efb31fa8cd32f04bf048643,2024-05-13_10h23.21.597,group3.1-3.2-social-tom,2023.2.2,Win32,60.60606061,65c5074098b851296ff0b7ed,6642304edda673a1ae35eca9,,,,,,,,,,,28.0266,37.8425,space,9.7929,,[],[],[],[],[],[],0,0,0,0,1,,,,,,,,,,,,,,,,,,,,,,,,,,,,,,,,,,,,,,,,,,,,,,,,,,,,,,,,,,,,,,,,,,,,,,,,,,,,,,,,
,,,,,,5efb31fa8cd32f04bf048643,2024-05-13_10h23.21.597,group3.1-3.2-social-tom,2023.2.2,Win32,60.60606061,65c5074098b851296ff0b7ed,6642304edda673a1ae35eca9,,,,,,,,,,,37.8442,54.2425,space,16.2945,,[],[],[],[],[],[],1,0,1,0,1,,,,,,,,,,,,,,,,,,,,,,,,,,,,,,,,,,,,,,,,,,,,,,,,,,,,,,,,,,,,,,,,,,,,,,,,,,,,,,,,
,,,,,,5efb31fa8cd32f04bf048643,2024-05-13_10h23.21.597,group3.1-3.2-social-tom,2023.2.2,Win32,60.60606061,65c5074098b851296ff0b7ed,6642304edda673a1ae35eca9,,,,,,,,,,,54.2525,79.9019,space,25.6115,,[],[],[],[],[],[],2,0,2,0,1,,,,,,,,,,,,,,,,,,,,,,,,,,,,,,,,,,,,,,,,,,,,,,,,,,,,,,,,,,,,,,,,,,,,,,,,,,,,,,,,
,,,,,,5efb31fa8cd32f04bf048643,2024-05-13_10h23.21.597,group3.1-3.2-social-tom,2023.2.2,Win32,60.60606061,65c5074098b851296ff0b7ed,6642304edda673a1ae35eca9,,,,,,,,,,,79.9129,98.5015,space,18.5646,,[],[],[],[],[],[],3,0,3,0,1,,,,,,,,,,,,,,,,,,,,,,,,,,,,,,,,,,,,,,,,,,,,,,,,,,,,,,,,,,,,,,,,,,,,,,,,,,,,,,,,
,,,,,,5efb31fa8cd32f04bf048643,2024-05-13_10h23.21.597,group3.1-3.2-social-tom,2023.2.2,Win32,60.60606061,65c5074098b851296ff0b7ed,6642304edda673a1ae35eca9,,,,,,,,,,,98.5224,107.5769,space,9.029,,[],[],[],[],[],[],4,0,4,0,1,,,,,,,,,,,,,,,,,,,,,,,,,,,,,,,,,,,,,,,,,,,,,,,,,,,,,,,,,,,,,,,,,,,,,,,,,,,,,,,,
,,,,,,5efb31fa8cd32f04bf048643,2024-05-13_10h23.21.597,group3.1-3.2-social-tom,2023.2.2,Win32,60.60606061,65c5074098b851296ff0b7ed,6642304edda673a1ae35eca9,,,,,,,,,,,,,,,,,,,,,,,,,,,107.6005,110.1746,110.2062,1,audio/Narrative13Situation2.wav,112.2223,,112.2229,141.9793,"[[999,3],[999,131],[999,215],[999,298],[999,381],[999,465],[999,548],[999,631],[999,714],[999,797],[999,880],[999,964],[999,1047],[999,1131],[999,1214],[29.3,1297],[30.4,1380],[31.1,1463],[31.3,1547],[31.3,1630],[31.3,1713],[31.3,1796],[31.3,1880],[31.3,1963],[29,2046],[24.2,2129],[22.4,2213],[21.7,2296],[21.7,2379],[21.7,2462],[21.7,2546],[21.7,2629],[21.7,2712],[21.7,2796],[21.7,2879],[21.7,2962],[21.7,3045],[19.5,3128],[16.3,3212],[15.7,3295],[15,3378],[14.1,3462],[13.3,3545],[12.7,3628],[12.7,3712],[12.7,3795],[12.7,3878],[12.7,3962],[12.7,4045],[12.7,4128],[12.7,4211],[12.7,4294],[12.7,4378],[12.7,4461],[12.7,4544],[12.7,4627],[12.7,4711],[12.7,4794],[12.7,4877],[12.7,4961],[12.7,5044],[12.7,5127],[12.7,5210],[12.7,5294],[12.7,5377],[12.7,5460],[12.7,5543],[12.7,5626],[12.7,5710],[12.7,5793],[12.7,5876],[12.7,5960],[12.7,6043],[12.7,6126],[12.7,6209],[12.7,6293],[12.7,6375],[12.7,6459],[12.7,6542],[12.7,6625],[12.7,6708],[12.7,6791],[12.7,6875],[12.7,6958],[12.7,7042],[12.7,7125],[12.7,7208],[12.7,7291],[12.7,7375],[12.7,7457],[12.7,7541],[12.7,7624],[12.7,7707],[12.7,7791],[12.7,7874],[12.7,7958],[12.6,8041],[12.2,8124],[12.2,8207],[12.2,8291],[12.2,8373],[12.2,8457],[12.2,8541],[12.2,8623],[12.2,8707],[12.2,8790],[12.2,8873],[12.2,8956],[12.2,9040],[12.2,9123],[12.2,9206],[12.2,9290],[12.2,9373],[12.2,9456],[12.2,9539],[12.2,9623],[12.2,9706],[12.2,9789],[12.2,9872],[12.2,9955],[12.2,10039],[12.2,10122],[12.2,10205],[12.2,10288],[12.2,10372],[12.2,10455],[12.2,10539],[12.2,10622],[12.2,10705],[12.2,10788],[12.2,10871],[12.2,10954],[12.2,11038],[12.2,11121],[12.2,11204],[12.1,11288],[11.9,11371],[11.9,11454],[11.9,11537],[11.9,11621],[11.9,11704],[11.9,11787],[11.9,11870],[11.9,11954],[11.9,12037],[11.9,12120],[11.9,12203],[11.9,12287],[11.9,12370],[11.9,12453],[11.9,12536],[11.9,12620],[11.9,12703],[11.9,12786],[11.9,12870],[11.9,12953],[11.9,13036],[12,13119],[12.8,13202],[13,13286],[13.5,13369],[14.3,13452],[15,13535],[15.6,13618],[16.4,13702],[16.9,13785],[17.2,13868],[17.5,13952],[17.7,14035],[18.4,14118],[18.5,14202],[19,14284],[19.3,14368],[19.3,14451],[19.3,14535],[19.3,14618],[20.5,14701],[22.2,14784],[24.1,14867],[25.4,14951],[27.1,15034],[28.6,15117],[29.6,15200],[30.5,15284],[31.6,15367],[32.5,15450],[34.4,15533],[36.1,15617],[38.8,15700],[40.4,15783],[40.4,15866],[40.4,15950],[40.4,16033],[40.4,16116],[40.4,16200],[40.8,16283],[44.6,16366],[45.8,16449],[46.9,16532],[47.7,16616],[48.6,17948],[47.8,18031],[47,18114],[46.6,18198],[46.5,18281],[46.5,18364],[46.5,18448],[46.5,18531],[46.5,18614],[46.5,18697],[46.5,18780],[46.5,18863],[46.5,18947],[46.1,19031],[45.4,19113],[44.5,19197],[43.4,19280],[41.8,19363],[39.9,19447],[36.5,19530],[33.4,19613],[29.3,19696],[24,19779],[21.7,19863],[21.7,19946],[21.7,20030],[21.7,20113],[20.4,20196],[14.3,20279],[10.5,20362],[9.6,20445],[8.5,20529],[7.1,20612],[5.8,20695],[4.3,20779],[3.1,20862],[3,20945],[2.4,21028],[2.4,21112],[2.4,21195],[2.4,21279],[2.4,21362],[2.4,21445],[2.4,21528],[2.4,21612],[2.4,21695],[2.4,21778],[2.4,21861],[2.4,21944],[2.4,22028],[2.4,22111],[2.4,22195],[2.4,22278],[2.4,22360],[2.4,22444],[2.4,22527],[2.4,22611],[2.4,22693],[2.4,22777],[2.4,22860],[2.4,22943],[2.4,23027],[2.4,23110],[2.4,23194],[2.4,23277],[2.4,23360],[2.4,23443],[2.4,23527],[2.4,23609],[2.4,23693],[2.4,23776],[2.4,23859],[2.4,23942],[2.4,24026],[2.4,24109],[2.4,24192],[2.4,24276],[2.4,24359],[2.4,24442],[2.4,24525],[2.4,24609],[2.4,24692],[2.4,24775],[2.4,24858],[2.4,24941],[2.4,25025],[2.4,25108],[2.4,25191],[2.4,25275],[2.4,25357],[2.4,25441],[2.4,25524],[2.4,25608],[2.4,25691],[2.4,25774],[2.4,25858],[2.4,25940],[2.4,26024],[2.4,26108],[2.4,26190],[2.4,26274],[2.4,26357],[2.4,26440],[2.4,26524],[2.4,26607],[3.3,26690],[4.1,26773],[5,26856],[5.7,26939],[6.6,27023],[7.1,27106],[7.1,27189],[7.1,27272],[7.1,27356],[7.1,27439],[7.1,27522],[7.1,27606],[7.1,27689],[7.5,27772],[8.6,27855],[10.2,27938],[12.6,28022],[16.5,28105],[19.7,28188],[22.1,28271],[22.6,28355],[22.6,28438],[22.6,28522],[22.6,28605],[22.6,28688],[22.6,28772],[22.6,28854],[27.1,28938],[30.2,29021],[32.9,29104]]",1,0,141.9801,148.6397,12.39583492,4.2836,"[{""rating"":12.395834922790527,""responseTime"":4.283599999964224}]",space,6.117,,148.6578,Half the time,50,148.6627,,,[],,0,0,0,0,1,audio/Narrative13Situation2.wav,audio/Narrative13Situation2.wav,audio/Narrative13Situation2.wav,audio/Narrative13Situation2.wav,2,2,2,2,,,,,,,,,,,,,,,,,,,,,,,,,,,,,,,,,,,,,,,
,,,,,,5efb31fa8cd32f04bf048643,2024-05-13_10h23.21.597,group3.1-3.2-social-tom,2023.2.2,Win32,60.60606061,65c5074098b851296ff0b7ed,6642304edda673a1ae35eca9,,,,,,,,,,,,,,,,,,,,,,,,,,,,,148.663,1,audio/Narrative8Situation1.wav,150.5692,space,150.5693,166.4883,"[[20.6,1831],[17.8,1914],[16.4,1997],[14.6,2080],[10.4,2164],[8.6,2247],[8.6,2330],[8.6,2414],[8.6,2497],[8.6,2580],[7,2663],[6.4,2746],[5.5,2830],[5,2913],[5,2996],[5,3080],[5,3163],[5,3246],[5,3330],[5,3413],[5,3496],[5,3579],[1.5,3663],[0.9,3745],[0.9,3829],[0.9,3912],[0.9,3995],[0.9,4079],[0.9,4162],[0.9,4246],[0.9,4329],[0.9,4412],[0.9,4495],[0.9,4578],[0.9,4661],[0.9,4745],[0.9,4829],[0.9,4912],[0.9,4995],[0.9,5078],[0.9,5161],[0.9,5244],[0.9,5327],[0.9,5411],[0.9,5494],[0.9,5578],[0.9,5661],[0.9,5744],[0.9,5827],[0.9,5910],[0.9,5994],[0.9,6077],[0.9,6160],[0.9,6244],[0.9,6327],[0.9,6410],[0.9,6493],[0.9,6577],[0.9,6660],[0.9,6744],[0.9,6826],[0.9,6910],[0.9,6993],[0.9,7076],[0.9,7160],[0.9,7243],[0.9,7326],[0.9,7410],[0.9,7492],[0.9,7576],[0.9,7659],[0.9,7742],[0.9,7825],[0.9,7909],[0.9,7992],[0.9,8076],[0.9,8158],[0.9,8242],[0.9,8325],[0.9,8408],[0.9,8492],[0.9,8574],[0.9,8658],[0.9,8741],[0.9,8824],[0.9,8908],[0.9,8991],[0.9,9074],[0.9,9157],[0.9,9241],[0.9,9324],[0.9,9407],[0.9,9490],[0.9,9574],[0.9,9657],[0.9,9741],[0.9,9824],[0.9,9907],[0.9,9990],[0.9,10073],[0.9,10157],[0.9,10240],[0.9,10323],[0.9,10406],[0.9,10490],[0.9,10573],[0.9,10656],[0.9,10740],[0.9,10823],[0.9,10906],[3.5,10989],[7.6,11072],[11.8,11155],[15.9,11239],[20.7,11322],[26.8,11405],[28.9,11488],[28.9,11572],[28.9,11655],[28.9,11739],[28.9,11822],[35.7,11905],[43.9,11988],[48.4,12071],[50.6,12155],[51.3,12238],[51.3,12321],[51.3,12405],[51.3,12488],[51.3,12571],[51.3,12654],[51.3,12738],[51.3,12821],[51.6,12904],[52.4,12987],[52.4,13070],[52.4,13153],[52.4,13237],[52.4,13320],[52.4,13404],[52.4,13486],[52.4,13570],[55.8,13653],[58.8,13736],[62.4,13820],[66.4,13903],[69.3,13986],[70.9,14069],[72,14153],[76.4,14985],[76,15068],[75.8,15152],[75.7,15235],[75.7,15318],[75.7,15401],[75.7,15485],[75.7,15568],[75.7,15651],[75.7,15734],[75.7,15818],[75.7,15901]]",1,0,166.4888,176.3953,54.27083174,8.9375,"[{""rating"":54.27083174387614,""responseTime"":8.9375}]",space,9.3624,,176.3955,Not at all,0,190.2326,0,11.8052,"[{""rating"":0,""responseTime"":11.805199999988076}]",space,0,1,1,1,1,audio/Narrative7Situation1.wav,audio/Narrative8Situation1.wav,audio/Narrative5Situation1.wav,audio/Narrative6Situation1.wav,2,5,5,2,1.8856,,13.2947,,,,,,,,,,,,,,,,,,,,,,,,,,,,,,,,,,,,
,,,,,,5efb31fa8cd32f04bf048643,2024-05-13_10h23.21.597,group3.1-3.2-social-tom,2023.2.2,Win32,60.60606061,65c5074098b851296ff0b7ed,6642304edda673a1ae35eca9,,,,,,,,,,,,,,,,,,,,,,,,,,,,,190.2332,1,audio/Narrative8Situation2.wav,193.2461,,193.2462,203.3703,"[[999,0],[999,83],[999,166],[999,249],[999,332],[999,415],[999,499],[999,582],[999,665],[999,749],[999,832],[999,915],[999,999],[999,1082],[999,1165],[999,1248],[999,1332],[999,1414],[999,1498],[2.5,1581],[2.6,1664],[2.6,1747],[2.6,1831],[2.6,1914],[2.6,1997],[2.6,2081],[2.6,2164],[2.6,2247],[2.7,2331],[2.8,2414],[2.8,2497],[2.8,2580],[2.8,2663],[2.8,2747],[2.8,2830],[2.8,2913],[2.8,2997],[2.8,3080],[2.8,3163],[2.8,3246],[2.8,3329],[2.8,3413],[2.8,3496],[2.8,3579],[2.8,3663],[2.8,3746],[2.8,3829],[2.8,3912],[2.8,3996],[2.8,4079],[2.8,4162],[2.8,4246],[2.8,4328],[2.8,4412],[2.8,4495],[2.8,4579],[2.8,4662],[2.8,4745],[2.8,4828],[2.8,4912],[2.8,4995],[2.8,5078],[2.8,5161],[2.8,5245],[2.8,5328],[2.8,5411],[2.8,5494],[2.8,5577],[2.8,5661],[2.8,5744],[2.8,5827],[2.8,5911],[2.8,5993],[2.8,6077],[2.8,6160],[2.8,6244],[2.8,6327],[2.8,6410],[2.8,6493],[2.8,6577],[2.8,6660],[2.8,6743],[2.8,6826],[2.8,6909],[2.8,6992],[2.8,7075],[2.8,7159],[2.8,7242],[2.8,7326],[2.8,7409],[2.8,7493],[2.8,7576],[2.8,7659],[2.8,7742],[2.8,7825],[2.8,7908],[2.8,7992],[2.8,8075],[2.8,8158],[2.8,8242],[2.8,8325],[2.8,8408],[3.1,8491],[3.1,8574],[3.5,8658],[4.6,8741],[7.8,8824],[12.6,8907],[16.9,8991],[19.3,9074],[20.4,9157],[21.4,9240],[22.3,9324],[22.4,9407],[22.4,9490],[22.4,9574],[22.4,9657],[23.4,9740],[29.4,9823],[30.1,9907],[30.1,9990],[30.1,10073]]",1,0,203.3706,206.8167,20.5208381,2.8901,"[{""rating"":20.520838101704914,""responseTime"":2.8901000000238355}]",space,2.9004,,206.8168,Not at all,0,206.8211,,,[],,0,2,2,2,1,audio/Narrative7Situation2.wav,audio/Narrative8Situation2.wav,audio/Narrative5Situation2.wav,audio/Narrative6Situation2.wav,3,3,3,3,,,,,,,,,,,,,,,,,,,,,,,,,,,,,,,,,,,,,,,
,,,,,,5efb31fa8cd32f04bf048643,2024-05-13_10h23.21.597,group3.1-3.2-social-tom,2023.2.2,Win32,60.60606061,65c5074098b851296ff0b7ed,6642304edda673a1ae35eca9,,,,,,,,,,,,,,,,,,,,,,,,,,,,,206.8215,1,audio/Narrative8Situation3.wav,210.8297,,210.8298,233.2093,"[[19.4,1254],[17.8,1337],[16.6,1420],[16.4,1503],[16.4,1581],[16.4,1670],[16.4,1747],[18.1,1837],[19,1920],[19,1997],[19,2087],[19,2163],[19.5,2253],[21.3,2336],[23.9,2419],[29.8,2502],[34.2,2586],[37.8,2669],[43.6,2752],[47.9,2836],[50.5,2919],[50.5,2996],[50.5,3086],[50.5,3163],[50.5,3246],[53.4,3336],[54.6,3419],[55.7,3502],[56.7,3585],[57.9,3668],[60.1,3752],[62.7,3835],[63.5,3918],[63.8,4001],[63.8,4079],[63.8,4168],[63.8,4245],[65.1,4334],[66.5,4418],[66.8,4495],[66.8,4579],[66.8,4661],[66.8,4745],[66.8,4832],[67.4,4917],[68.4,5000],[69.2,5084],[69.8,5161],[70.1,5244],[70.1,5327],[70.1,5417],[70.1,5494],[70.2,5577],[70.2,5666],[70.2,5744],[70.2,5827],[70.2,5910],[70.2,6000],[70.2,6077],[70.2,6160],[70.8,6249],[77.7,7998],[79.1,8081],[79.1,8164],[79.7,8248],[80.1,8331],[80.3,8408],[81.1,8497],[81.7,8575],[81.8,8664],[81.8,8741],[81.9,8831],[81.9,8908],[81.9,8991],[81.9,9074],[81.9,9157],[81.9,9247],[81.9,9324],[81.9,9414],[81.9,9490],[81.9,9574],[81.9,9657],[81.9,9740],[81.9,9824],[81.9,9907],[81.9,9990],[81.9,10074],[81.9,10156],[81.9,10240],[81.9,10323],[81.9,10412],[81.9,10490],[81.9,10573],[81.9,10656],[81.9,10739],[81.9,10822],[81.9,10906],[81.9,10989],[81.9,11072],[82,11161],[82,11245],[82.1,11328],[82.1,11405],[82.1,11488],[82.3,11578],[82.8,11660],[83.3,11744],[83.5,11821],[84.1,11911],[84.1,11988],[84.1,12071],[84.1,12155],[84.1,12238],[84.1,12321],[84.1,12405],[84.1,12488],[84.1,12571],[84.1,12654],[84.1,12738],[84.1,12821],[84.1,12904],[84.1,12987],[84.1,13075],[84.1,13154],[84.1,13237],[84.1,13320],[84.1,13403],[84.1,13487],[84.1,13570],[84.1,13653],[84.1,13742],[84.1,13820],[84.1,13903],[84.1,13992],[84.1,14069],[84.1,14153],[84.1,14236],[84.1,14319],[84.1,14403],[84.1,14486],[84.1,14577],[84.1,14656],[84.1,14736],[84.1,14819],[84.1,14902],[84.1,14985],[84.1,15068],[84.1,15152],[84.1,15235],[84.1,15322],[84.1,15407],[84.1,15485],[84.1,15575],[84.1,15657],[84.1,15735],[84.1,15818],[84.1,15901],[84.1,15984],[84.1,16067],[84.1,16151],[84.1,16240],[84.1,16318],[84.1,16407],[84.1,16490],[84.1,16567],[84.1,16651],[84.1,16734],[84.1,16817],[84.1,16900],[84.1,16987],[84.1,17067],[84.1,17150],[84.1,17233],[84.1,17317],[84.1,17400],[84.1,17483],[84.1,17566],[84.1,17649],[84.1,17733],[84.1,17816],[84.1,17906],[84.1,17983],[84.1,18066],[84.1,18155],[84.1,18232],[84.1,18315],[84.1,18399],[84.1,18482],[84.1,18565],[84.1,18648],[84.1,18732],[84.1,18820],[84.1,18898],[84.1,18987],[84.1,19064],[84.8,19153],[85.7,19237],[87.3,19320],[88.9,19403],[89.9,19487],[91.1,19570],[92.3,19647],[93.3,19737],[94.3,19820],[95.5,19897],[95.8,19981],[96.4,20063],[97.1,20152],[97.9,20239],[99.7,20319],[100,20402],[100,20486],[100,20569],[100,20646],[100,20729],[100,20813],[100,20897],[100,20980],[100,21063],[100,21146],[100,21230],[100,21313],[100,21396],[100,21479],[100,21562],[100,21646],[100,21735],[100,21812],[100,21896],[100,21979],[100,22062],[100,22145],[100,22229],[100,22317]]",1,0,233.2099,239.2534,89.27083015,3.2724,"[{""rating"":89.27083015441895,""responseTime"":3.272400000035759}]",space,5.4956,,239.2536,All the time,100,239.2634,,,[],,0,3,3,3,1,audio/Narrative7Situation3.wav,audio/Narrative8Situation3.wav,audio/Narrative5Situation3.wav,audio/Narrative6Situation3.wav,8,4,3,5,,,,,,,,,,,,,,,,,,,,,,,,,,,,,,,,,,,,,,,
,,,,,,5efb31fa8cd32f04bf048643,2024-05-13_10h23.21.597,group3.1-3.2-social-tom,2023.2.2,Win32,60.60606061,65c5074098b851296ff0b7ed,6642304edda673a1ae35eca9,,,,,,,,,,,,,,,,,,,,,,,,,,,,,239.264,1,audio/Narrative8Situation4.wav,242.2672,,242.2672,256.4544,"[[72.9,921],[51.9,1004],[49.2,1087],[49.2,1165],[49.2,1248],[49.2,1331],[47.9,1420],[42.8,1503],[39.8,1587],[36.7,1670],[34.1,1753],[31.7,1837],[31.4,1914],[31.4,1997],[31.4,2081],[31.4,2164],[24.8,2253],[20.6,2336],[18.3,2419],[15.5,2503],[12.9,2586],[10.4,2669],[9.5,2746],[9.5,2830],[9.5,2913],[9.5,2996],[9.5,3080],[9.5,3163],[9.5,3246],[9.5,3329],[9.5,3412],[9.5,3501],[9.5,3579],[9.5,3662],[9.5,3745],[9.5,3829],[9.5,3912],[9.6,3995],[9.6,4084],[9.6,4162],[9.6,4251],[9.6,4328],[9.6,4412],[9.6,4495],[9.6,4578],[9.6,4662],[9.6,4744],[9.6,4828],[9.6,4919],[9.6,4994],[9.6,5077],[9.6,5161],[9.6,5244],[9.6,5327],[9.6,5410],[9.6,5494],[9.6,5577],[9.6,5661],[9.6,5749],[9.6,5827],[9.6,5910],[10.1,6001],[11,6083],[12.3,6166],[15.3,6249],[18.8,6332],[22.4,6415],[26,6499],[29.2,6582],[34.3,6665],[42.3,6749],[43.2,6832],[43.2,6909],[43.2,6992],[43.2,7076],[43.2,7159],[43.9,7242],[48.8,7331],[51,7414],[52.6,7498],[54.5,7582],[56.4,7664],[57.7,7748],[60.1,7831],[61.7,7914],[62.9,7997],[63.5,8080],[64.8,8164],[65.2,8247],[65.6,8330],[65.6,8408],[65.6,8491],[65.6,8574],[65.6,8658],[65.6,8741],[65.6,8824],[65.6,8907],[65.6,8998],[65.6,9074],[65.6,9164],[65.6,9241],[65.6,9324],[66.9,9413],[67.7,9496],[68.6,9580],[69.2,9663],[69.3,9740],[70.1,9829],[74.4,11744],[74.4,11821],[74.3,11911],[74.3,11988],[74.5,12071],[76,12160],[76,12238],[76,12327],[76,12404],[76,12488],[76,12571],[76,12654],[76,12737],[76,12826],[76,12903],[76,12987],[76,13071],[76,13154],[76,13243],[76,13320],[76,13409],[76,13487],[76,13570],[76,13653],[76,13736],[76,13819],[76,13903],[76,13986],[76,14076],[76,14153]]",1,0,256.4549,260.0061,56.14583492,2.951,"[{""rating"":56.14583492279053,""responseTime"":2.950999999999965}]",space,3.0142,,260.0062,Half the time,50,260.0104,,,[],,0,4,4,4,1,audio/Narrative7Situation4.wav,audio/Narrative8Situation4.wav,audio/Narrative5Situation4.wav,audio/Narrative6Situation4.wav,3,3,1,2,,,,,,,,,,,,,,,,,,,,,,,,,,,,,,,,,,,,,,,
,,,,,,5efb31fa8cd32f04bf048643,2024-05-13_10h23.21.597,group3.1-3.2-social-tom,2023.2.2,Win32,60.60606061,65c5074098b851296ff0b7ed,6642304edda673a1ae35eca9,,,,,,,,,,,,,,,,,,,,,,,,,,,,,260.0108,1,audio/Narrative8Situation5.wav,262.0152,,262.0155,270.2909,"[[53.9,1170],[49.7,1254],[47.2,1337],[40.6,1420],[32.1,1504],[24.5,1587],[23.1,1669],[23.1,1748],[23.1,1832],[23.1,1914],[23.1,1997],[22,2080],[21,2169],[21,2253],[21,2330],[22,2419],[23.2,2502],[23.2,2580],[23.2,2663],[23.2,2746],[23.2,2830],[23.2,2913],[24.3,3003],[26.4,3085],[28.4,3169],[29.4,3252],[30.2,3335],[31.4,3419],[33.1,3502],[35,3585],[37,3668],[38.2,3751],[39.1,3835],[39.1,3912],[39.1,4002],[39.1,4084],[39.1,4162],[39.1,4245],[39.1,4333],[39.1,4412],[39.1,4495],[39.3,4578],[40.6,4667],[43.9,4750],[46.8,4834],[49.3,4917],[51.6,5000],[60.2,5583],[60.3,5666],[60.3,5749],[60.5,5827],[60.6,5910],[61.4,5999],[61.5,6083],[61.9,6165],[61.9,6243],[61.9,6333],[61.9,6409],[61.9,6493],[61.9,6576],[61.9,6659],[61.9,6743],[61.9,6826],[61.9,6915],[61.9,6993],[62.8,7082],[63.5,7159],[64.3,7248],[64.3,7325],[64.4,7414],[64.4,7492],[64.4,7575],[64.4,7659],[64.4,7742],[64.4,7825],[64.4,7908],[64.4,7998],[64.4,8075],[64.4,8165],[64.4,8241]]",1,0,270.2913,277.218,62.91666826,6.354,"[{""rating"":62.91666825612386,""responseTime"":6.353999999999985}]",space,6.3791,,277.2183,Not at all,0,277.2256,,,[],,0,5,5,5,1,audio/Narrative7Situation5.wav,audio/Narrative8Situation5.wav,audio/Narrative5Situation5.wav,audio/Narrative6Situation5.wav,5,2,5,2,,,,,,,,,,,,,,,,,,,,,,,,,,,,,,,,,,,,,,,
,,,,,,5efb31fa8cd32f04bf048643,2024-05-13_10h23.21.597,group3.1-3.2-social-tom,2023.2.2,Win32,60.60606061,65c5074098b851296ff0b7ed,6642304edda673a1ae35eca9,,,,,,,,,,,,,,,,,,,,,,,,,,,,,277.226,1,audio/Narrative8Situation6.wav,279.2327,,279.2329,285.6933,"[[62.8,915],[57.7,1004],[54.7,1087],[53.9,1170],[53.4,1254],[53.3,1331],[51.5,1420],[44,1503],[32.6,1587],[32.1,1670],[32.1,1747],[32.1,1830],[32.1,1914],[32.1,1997],[32.1,2086],[32.1,2164],[34.2,2253],[39.3,2336],[44,2419],[45,2502],[45,2580],[45,2670],[45,2746],[52.3,2829],[57.2,2919],[60.3,3002],[63.5,3085],[65.9,3168],[66.1,3246],[66.1,3329],[66.1,3412],[66.1,3496],[66.1,3586],[66.1,3662],[66.1,3751],[66.1,3829],[66.1,3912],[66.1,3995],[66.1,4085],[66.1,4163],[66.1,4251],[66.1,4328],[66.1,4412],[66.1,4501],[66.1,4578],[66.1,4661],[66.1,4747],[66.1,4827],[66.6,4917],[67.6,5000],[68.2,5083],[68.5,5167],[68.8,5244],[68.8,5327],[68.8,5411],[68.8,5494],[68.8,5583],[68.8,5660],[68.8,5743],[68.8,5832],[68.8,5910],[68.8,5993],[68.8,6077],[68.8,6160],[68.8,6243],[68.8,6326],[68.8,6410]]",1,0,285.6938,288.9793,90.83333015,2.7202,"[{""rating"":90.83333015441895,""responseTime"":2.720199999988097}]",space,2.7376,,288.9795,Half the time,50,288.9824,,,[],,0,6,6,6,1,audio/Narrative7Situation6.wav,audio/Narrative8Situation6.wav,audio/Narrative5Situation6.wav,audio/Narrative6Situation6.wav,3,2,3,2,,,,,,,,,,,,,,,,,,,,,,,,,,,,,,,,,,,,,,,
,,,,,,5efb31fa8cd32f04bf048643,2024-05-13_10h23.21.597,group3.1-3.2-social-tom,2023.2.2,Win32,60.60606061,65c5074098b851296ff0b7ed,6642304edda673a1ae35eca9,,,,,,,,,,,,,,,,,,,,,,,,,,,,,288.9826,1,audio/Narrative8Situation7.wav,291.9878,,291.9879,304.0757,"[[73.5,588],[24.3,1086],[12.7,1170],[8.5,1253],[5.9,1336],[4.3,1420],[2.9,1503],[2.4,1583],[2,1670],[2,1747],[2,1836],[2,1918],[2,1997],[2,2080],[2,2163],[2,2247],[2,2330],[2,2413],[2,2496],[2,2580],[2,2669],[2,2753],[2,2830],[2,2913],[2,2996],[2,3079],[2,3162],[2,3246],[2,3329],[2,3412],[2,3496],[2,3579],[2,3662],[2,3749],[2,3829],[2,3918],[2,3995],[2,4078],[2,4167],[2,4245],[2,4328],[2,4412],[2,4495],[2,4578],[2,4661],[2,4744],[2,4831],[2,4911],[2,4994],[2,5077],[2,5160],[2,5244],[2,5333],[2,5411],[2,5500],[2,5577],[2,5664],[2,5747],[2,5833],[2,5910],[2,5999],[2,6083],[2,6160],[2,6243],[2,6326],[2,6410],[2,6493],[2,6576],[2,6659],[2,6742],[2,6825],[2,6916],[2,6992],[2,7075],[2,7159],[2,7242],[2,7325],[2,7408],[2,7492],[2,7575],[2,7658],[2,7741],[2,7831],[2,7908],[2,7991],[2,8081],[2,8158],[2,8247],[2,8331],[2,8407],[2,8491],[2,8574],[2,8657],[2,8745],[2,8823],[2,8907],[2,8991],[2,9073],[2,9163],[2,9247],[2,9323],[2,9413],[2,9490],[2,9573],[2,9656],[2,9746],[2,9823],[2,9906],[2,9990],[2,10073],[2,10156],[2,10245],[2,10329],[2,10406],[2,10489],[2,10572],[2,10656],[2,10739],[2,10822],[2,10905],[2,10988],[2,11075],[2,11155],[2,11245],[2,11321],[2,11410],[2,11488],[2,11571],[2,11654],[2,11738],[2,11821],[2,11904],[2,11987],[2,12071]]",1,0,304.0762,306.1139,0.625002384,1.2965,"[{""rating"":0.625002384185791,""responseTime"":1.2964999999999804}]",space,1.4896,,306.114,All the time,100,306.1201,,,[],,0,7,7,7,1,audio/Narrative7Situation7.wav,audio/Narrative8Situation7.wav,audio/Narrative5Situation7.wav,audio/Narrative6Situation7.wav,5,3,4,5,,,,,,,,,,,,,,,,,,,,,,,,,,,,,,,,,,,,,,,
,,,,,,5efb31fa8cd32f04bf048643,2024-05-13_10h23.21.597,group3.1-3.2-social-tom,2023.2.2,Win32,60.60606061,65c5074098b851296ff0b7ed,6642304edda673a1ae35eca9,,,,,,,,,,,,,,,,,,,,,,,,,,,,,306.1206,1,audio/Narrative8Situation8.wav,309.121,,309.1211,321.9926,"[[0.5,1254],[0.4,1331],[0.5,1754],[1.1,1837],[1.4,1919],[1.4,2003],[1.4,2080],[1.4,2164],[1.4,2248],[1.4,2331],[1.4,2414],[1.4,2497],[1.4,2580],[1.4,2664],[1.4,2747],[1.4,2830],[1.4,2913],[1.4,2997],[1.4,3080],[1.4,3163],[1.4,3247],[1.4,3330],[1.4,3419],[1.4,3503],[1.4,3579],[1.4,3663],[1.4,3746],[1.4,3829],[1.4,3918],[1.4,3996],[1.4,4085],[1.4,4162],[1.4,4245],[1.4,4329],[1.4,4413],[1.4,4501],[1.4,4578],[1.4,4669],[1.4,4751],[1.4,4828],[1.4,4912],[1.4,4999],[1.4,5084],[1.4,5161],[1.4,5250],[1.4,5328],[1.4,5411],[1.4,5494],[1.4,5578],[1.4,5661],[1.4,5744],[1.4,5834],[1.4,5910],[1.4,5994],[1.4,6077],[1.4,6167],[1.4,6244],[1.4,6327],[1.4,6410],[1.4,6493],[1.4,6576],[1.4,6660],[1.4,6743],[1.4,6826],[1.4,6915],[1.4,6993],[1.4,7076],[1.4,7165],[1.4,7242],[1.4,7326],[1.4,7409],[1.4,7492],[1.4,7576],[1.4,7659],[1.4,7743],[1.4,7826],[1.4,7908],[1.4,7992],[1.4,8081],[1.4,8159],[1.4,8249],[1.4,8325],[1.4,8412],[1.4,8492],[1.4,8575],[1.4,8658],[1.4,8741],[1.4,8824],[1.4,8914],[1.4,8991],[1.4,9074],[1.4,9163],[1.4,9247],[1.4,9330],[1.4,9407],[1.4,9491],[1.4,9580],[1.4,9657],[1.4,9740],[1.4,9830],[1.4,9908],[1.4,9996],[1.4,10073],[1.4,10157],[1.4,10240],[1.4,10323],[1.4,10413],[1.4,10490],[1.4,10573],[1.4,10656],[1.4,10740],[1.4,10823],[1.4,10906],[1.4,10989],[1.4,11072],[1.4,11155],[1.4,11239],[1.4,11322],[1.4,11405],[1.4,11489],[1.4,11572],[1.4,11661],[1.4,11738],[1.4,11822],[1.4,11905],[1.4,11988],[1.4,12071],[1.4,12154],[1.4,12238],[1.4,12321],[1.4,12404],[1.4,12488],[1.4,12575],[1.4,12654],[1.4,12738],[1.4,12820]]",1,0,321.9931,324.2241,1.354165872,1.1819,"[{""rating"":1.3541658719380678,""responseTime"":1.1819000000357391}]",space,1.672,,324.2243,Not at all,0,324.2327,,,[],,0,8,8,8,1,audio/Narrative7Situation8.wav,audio/Narrative8Situation8.wav,audio/Narrative5Situation8.wav,audio/Narrative6Situation8.wav,2,3,3,5,,,,,,,,,,,,,,,,,,,,,,,,,,,,,,,,,,,,,,,
,,,,,,5efb31fa8cd32f04bf048643,2024-05-13_10h23.21.597,group3.1-3.2-social-tom,2023.2.2,Win32,60.60606061,65c5074098b851296ff0b7ed,6642304edda673a1ae35eca9,,,,,,,,,,,,,,,,,,,,,,,,,,,,,324.2332,1,audio/Narrative8Situation9.wav,327.2373,,327.2374,338.56,"[[1.6,2502],[1.7,2586],[1.7,2663],[1.7,2752],[1.7,2830],[1.7,2919],[1.7,2997],[2,3085],[2.5,3168],[2.7,3247],[2.7,3330],[2.7,3419],[2.7,3496],[2.7,3580],[2.7,3669],[2.7,3746],[2.7,3830],[2.7,3918],[2.7,3997],[2.7,4079],[2.7,4163],[2.7,4246],[2.7,4334],[2.7,4412],[2.7,4495],[2.4,4584],[1.9,4661],[1.9,4745],[1.9,4828],[1.9,4917],[1.9,4995],[1.9,5078],[1.9,5162],[1.9,5250],[1.9,5335],[1.9,5411],[1.9,5495],[1.9,5577],[1.9,5661],[1.9,5744],[1.9,5827],[1.9,5917],[1.9,5994],[1.9,6083],[1.9,6161],[1.9,6244],[1.9,6327],[1.9,6410],[1.9,6493],[1.9,6577],[1.9,6661],[1.9,6749],[1.9,6826],[1.9,6910],[1.9,6993],[1.9,7076],[1.9,7160],[1.9,7243],[1.9,7327],[1.9,7416],[1.9,7492],[2.2,7577],[7.3,7664],[12.3,7748],[18.3,7831],[22.6,7915],[25.1,7998],[27.3,8081],[28.9,8165],[29.2,8242],[29.2,8325],[29.2,8408],[29.2,8492],[30.2,8580],[35.7,8664],[39.1,8747],[41.1,8830],[41.8,8914],[41.8,8991],[41.8,9074],[41.8,9158],[41.8,9241],[41.8,9324],[42.1,9407],[44.5,9497],[45.8,9574],[46.8,9663],[47.7,9746],[48.6,9830],[49.7,9913],[50.2,9996],[50.3,10073],[50.3,10157],[50.3,10240],[50.3,10323],[50.3,10406],[50.3,10489],[50.3,10573],[50.3,10656],[50.3,10740],[50.3,10829],[50.3,10906],[50.3,10995],[50.3,11078],[50.6,11163],[50.7,11245],[50.9,11322]]",1,0,338.5603,340.7822,29.06250159,1.7906,"[{""rating"":29.06250158945719,""responseTime"":1.7906000000238578}]",space,1.6658,,340.7823,Half the time,50,340.7888,,,[],,0,9,9,9,1,audio/Narrative7Situation9.wav,audio/Narrative8Situation9.wav,audio/Narrative5Situation9.wav,audio/Narrative6Situation9.wav,2,3,3,4,,,,,,,,,,,,,,,,,,,,,,,,,,,,,,,,,,,,,,,
,,,,,,5efb31fa8cd32f04bf048643,2024-05-13_10h23.21.597,group3.1-3.2-social-tom,2023.2.2,Win32,60.60606061,65c5074098b851296ff0b7ed,6642304edda673a1ae35eca9,,,,,,,,,,,,,,,,,,,,,,,,,,,,,340.7891,1,audio/Narrative7Situation1.wav,342.7937,,342.7937,398.688,"[[19.6,1250],[13.1,1333],[9.5,1416],[7.5,1500],[4.7,1583],[3,1666],[0.5,1750],[0.2,1833],[0.2,1910],[0.2,1993],[0.2,2077],[0.2,2165],[0.2,2243],[0.2,2333],[0.2,2410],[0.2,2493],[0.2,2583],[0.2,2660],[0.2,2749],[0.2,2826],[0.2,2910],[0.2,2992],[0.2,3076],[0.2,3159],[0.2,3242],[0.2,3326],[0.2,3409],[0.2,3492],[0.2,3582],[0.2,3659],[0.2,3742],[0.2,3831],[0.2,3908],[0.2,3992],[0.2,4075],[0.2,4158],[0.2,4241],[0.2,4325],[0.2,4414],[0.2,4497],[0.2,4575],[0.2,4658],[0.2,4741],[0.2,4824],[0.2,4914],[0.2,4991],[0.2,5080],[0.2,5159],[0.2,5240],[0.2,5324],[0.2,5407],[0.2,5490],[0.2,5574],[0.2,5657],[0.2,5740],[0.2,5830],[0.2,5906],[0.2,5990],[0.2,6073],[0.2,6157],[0.2,6239],[0.2,6329],[0.2,6406],[0.2,6496],[0.2,6573],[0.2,6656],[0.2,6739],[0.2,6828],[0.2,6906],[0.2,6989],[0.2,7072],[0.2,7155],[0.2,7239],[0.2,7322],[0.2,7405],[0.2,7488],[0.2,7571],[0.2,7655],[0.2,7742],[0.2,7821],[0.2,7905],[0.2,7988],[0.2,8071],[0.2,8155],[0.2,8238],[0.2,8327],[0.2,8404],[0.2,8494],[0.2,8578],[0.2,8654],[0.2,8743],[0.2,8820],[0.2,8904],[0.2,8987],[0.2,9076],[0.2,9154],[0.2,9237],[0.2,9320],[0.2,9403],[0.2,9487],[0.2,9576],[0.2,9659],[0.2,9737],[0.2,9826],[0.2,9903],[0.2,9992],[0.2,10070],[0.2,10153],[0.2,10236],[0.2,10319],[0.2,10408],[0.2,10492],[0.2,10569],[0.2,10652],[0.2,10736],[0.2,10819],[0.2,10902],[0.2,10985],[0.2,11074],[0.2,11158],[0.2,11235],[0.2,11318],[0.2,11401],[0.2,11485],[0.2,11568],[0.2,11651],[0.2,11740],[0.2,11817],[0.2,11907],[0.2,11984],[0.2,12067],[0.2,12151],[0.2,12234],[0.2,12324],[0.2,12400],[0.2,12484],[0.2,12567],[0.2,12650],[0.2,12739],[0.2,12817],[0.2,12905],[0.2,12990],[0.2,13066],[0.2,13150],[0.2,13233],[0.2,13317],[0.2,13400],[0.2,13483],[0.2,13566],[0.2,13649],[0.2,13739],[0.2,13816],[0.2,13899],[0.2,13982],[0.2,14066],[0.2,14149],[0.2,14232],[0.2,14316],[0.2,14405],[0.2,14482],[0.2,14565],[0.2,14649],[0.2,14738],[0.2,14815],[0.2,14898],[0.2,14981],[0.2,15065],[0.2,15148],[0.2,15231],[0.2,15314],[0.2,15398],[0.2,15481],[0.2,15564],[0.2,15653],[0.2,15731],[0.2,15814],[0.2,15897],[0.2,15981],[0.2,16069],[0.2,16147],[0.2,16230],[0.2,16320],[0.2,16397],[0.2,16480],[0.2,16563],[0.2,16647],[0.2,16730],[0.2,16813],[0.2,16896],[0.2,16979],[0.2,17063],[0.2,17146],[0.2,17231],[0.2,17313],[0.2,17396],[0.2,17479],[0.2,17562],[0.2,17651],[0.2,17736],[0.2,17812],[0.2,17902],[0.2,17979],[0.2,18062],[0.2,18145],[0.2,18228],[0.2,18312],[0.2,18395],[0.2,18478],[0.2,18567],[0.2,18645],[0.2,18728],[0.2,18817],[0.2,18894],[0.2,18978],[0.2,19061],[0.2,19144],[0.2,19227],[0.2,19311],[0.2,19400],[0.2,19483],[0.2,19560],[0.2,19643],[0.2,19727],[0.2,19811],[0.2,19894],[0.2,19977],[0.2,20060],[0.2,20150],[0.2,20233],[0.2,20310],[0.2,20393],[0.2,20476],[0.2,20560],[0.2,20643],[0.2,20726],[0.2,20809],[0.2,20893],[0.2,20975],[0.2,21065],[0.2,21142],[0.2,21231],[0.2,21309],[0.2,21392],[0.2,21476],[0.2,21559],[0.2,21641],[0.2,21725],[0.2,21808],[0.2,21898],[3.1,21987],[7.9,22064],[11.6,22147],[16.6,22224],[22.6,22314],[25.5,22397],[25.5,22474],[25.5,22558],[25.5,22641],[30.6,22730],[31.5,22813],[32.7,22896],[35.2,22979],[37.8,23063],[40.2,23146],[41.4,23230],[41.6,23313],[41.6,23390],[41.6,23473],[41.6,23560],[41.6,23640],[41.6,23726],[41.6,23806],[41.6,23890],[41.6,23973],[41.6,24056],[41.6,24139],[41.6,24223],[41.6,24306],[41.6,24389],[41.6,24474],[41.6,24556],[41.6,24639],[41.6,24722],[41.6,24805],[41.6,24889],[42.4,24979],[43.8,25061],[45.3,25144],[46.4,25227],[47.3,25311],[47.8,25388],[47.8,25477],[47.8,25555],[47.8,25638],[47.8,25721],[47.8,25804],[47.8,25888],[47.8,25971],[47.8,26055],[47.8,26138],[47.8,26220],[47.8,26304],[47.8,26387],[47.8,26471],[47.8,26554],[47.8,26644],[47.8,26720],[47.8,26809],[47.8,26894],[47.8,26970],[47.8,27053],[47.8,27143],[47.8,27220],[47.8,27303],[47.8,27386],[47.8,27469],[47.8,27556],[47.8,27636],[47.8,27720],[47.8,27803],[47.8,27891],[47.8,27976],[47.8,28052],[47.8,28135],[47.8,28219],[47.8,28302],[47.8,28385],[48.3,28475],[48.8,28555],[49,28641],[49.6,28725],[49.6,28801],[49.6,28885],[49.6,28968],[49.6,29051],[49.6,29135],[49.6,29218],[49.6,29301],[49.6,29391],[49.6,29468],[49.6,29551],[49.6,29634],[49.6,29718],[49.6,29801],[49.6,29884],[49.6,29967],[49.6,30051],[49.6,30134],[49.6,30223],[49.6,30301],[49.6,30384],[49.6,30467],[49.6,30550],[49.6,30634],[49.6,30717],[49.6,30800],[49.6,30883],[49.6,30967],[49.6,31049],[49.6,31133],[49.6,31216],[49.6,31299],[49.6,31383],[49.6,31466],[49.6,31549],[49.6,31632],[49.6,31716],[49.6,31805],[49.6,31882],[49.6,31966],[49.6,32049],[49.6,32132],[49.6,32215],[49.6,32299],[49.6,32382],[49.6,32465],[49.6,32548],[49.6,32631],[49.6,32722],[49.6,32798],[49.6,32881],[49.6,32964],[49.6,33048],[49.6,33131],[49.6,33214],[49.6,33303],[49.6,33382],[49.6,33470],[49.6,33554],[49.6,33630],[49.6,33714],[49.6,33797],[49.6,33881],[49.6,33964],[49.6,34047],[49.6,34137],[49.6,34214],[49.6,34297],[49.6,34380],[49.6,34463],[49.7,34558],[49.7,34636],[49.7,34713],[49.7,34796],[49.8,34879],[49.8,34963],[50,35052],[50,35129],[50.2,35219],[50.4,35296],[50.7,35385],[50.9,35462],[51.5,35551],[51.9,35634],[52.3,35717],[52.3,35795],[52.3,35878],[52.3,35968],[52.3,36045],[52.3,36128],[52.3,36212],[52.3,36295],[52.3,36378],[52.3,36461],[52.3,36544],[52.3,36628],[52.3,36711],[52.3,36795],[52.3,36878],[52.3,36961],[52.3,37050],[52.3,37134],[52.3,37211],[52.3,37294],[52.3,37377],[52.3,37460],[52.3,37543],[52.3,37633],[52.3,37716],[52.3,37793],[52.3,37877],[52.3,37960],[52.3,38043],[52.3,38133],[52.3,38210],[52.3,38298],[52.3,38376],[52.3,38459],[52.3,38543],[52.3,38626],[52.3,38709],[52.4,38798],[52.5,38875],[52.9,38965],[53.5,39048],[53.9,39125],[54.6,39215],[55.5,39298],[56.6,39381],[56.9,39458],[57,39547],[57,39625],[57,39709],[57,39792],[57,39875],[57,39958],[59.1,40048],[59.7,40125],[60.1,40213],[60.1,40291],[60.1,40374],[60.1,40458],[60.1,40541],[60.1,40624],[60.1,40708],[60.1,40791],[60.1,40874],[60.1,40957],[60.1,41044],[60.1,41124],[60.1,41208],[60.1,41290],[60.1,41373],[60.1,41456],[60.1,41540],[60.1,41623],[60.1,41706],[60.1,41790],[60.1,41879],[60.1,41956],[60.1,42040],[60.1,42122],[60.1,42206],[60.1,42289],[60.1,42378],[60.1,42456],[60.1,42539],[60.1,42627],[60.1,42705],[60.1,42789],[60.1,42878],[67.4,43377],[66.6,43461],[66.4,43544],[67.4,43627],[68.2,43710],[68.8,43793],[68.8,43871],[68.8,43954],[68.8,44037],[68.8,44121],[68.8,44210],[68.8,44287],[68.8,44371],[68.8,44454],[68.8,44537],[68.8,44621],[68.8,44704],[68.8,44792],[68.8,44870],[68.8,44954],[68.8,45037],[68.8,45120],[68.8,45203],[68.8,45286],[68.8,45370],[68.8,45453],[68.8,45536],[68.8,45620],[68.8,45703],[68.8,45786],[68.8,45869],[68.8,45959],[68.8,46043],[68.8,46119],[68.8,46208],[68.8,46285],[68.8,46369],[68.8,46452],[68.8,46535],[68.8,46618],[68.8,46702],[68.8,46785],[68.8,46875],[68.8,46952],[68.8,47035],[68.8,47118],[68.8,47201],[68.8,47285],[68.8,47367],[68.8,47451],[68.8,47535],[68.8,47617],[68.8,47701],[68.8,47784],[68.8,47873],[68.8,47951],[68.8,48034],[68.8,48117],[68.8,48200],[68.8,48284],[68.8,48367],[68.8,48456],[68.8,48541],[68.8,48617],[68.8,48700],[68.8,48783],[68.8,48866],[68.8,48950],[69.2,49035],[69.6,49122],[69.8,49205],[69.9,49289],[70.5,49372],[70.7,49449],[70.7,49538],[70.7,49616],[70.7,49699],[70.7,49782],[70.7,49865],[70.7,49949],[70.7,50032],[70.7,50123],[70.7,50205],[70.7,50282],[70.7,50365],[70.7,50448],[70.7,50531],[70.7,50615],[70.7,50698],[70.7,50781],[70.7,50865],[70.7,50948],[70.7,51031],[70.7,51115],[70.7,51198],[70.7,51281],[70.7,51364],[70.7,51447],[70.7,51531],[70.7,51614],[70.7,51697],[70.7,51781],[70.7,51864],[70.7,51947],[70.7,52030],[70.7,52113],[70.7,52197],[70.7,52286],[70.7,52363],[70.7,52446],[70.7,52529],[70.7,52613],[70.7,52696],[70.7,52780],[70.7,52863],[70.7,52952],[70.7,53029],[70.7,53112],[70.7,53196],[70.7,53279],[70.7,53367],[70.7,53451],[70.7,53529],[70.8,53612],[71.6,53701],[71.9,53784],[72.2,53867],[72.3,53945],[72.3,54028],[72.3,54111],[72.3,54195],[72.3,54284],[72.3,54367],[72.3,54444],[72.3,54533],[72.3,54611],[72.3,54694],[72.3,54778],[72.3,54861],[72.3,54944],[72.3,55027],[72.3,55111],[72.3,55194],[72.3,55277],[72.3,55360],[72.3,55443],[72.3,55526],[72.3,55610],[72.3,55694],[72.3,55777],[72.3,55860]]",1,0,398.6889,401.3853,60.72916985,2.2514,"[{""rating"":60.729169845581055,""responseTime"":2.251400000035801}]",space,2.1541,,401.3855,All the time,100,401.3938,,,[],,0,10,10,10,1,audio/Narrative8Situation1.wav,audio/Narrative7Situation1.wav,audio/Narrative6Situation1.wav,audio/Narrative5Situation1.wav,5,2,2,5,,,,,,,,,,,,,,,,,,,,,,,,,,,,,,,,,,,,,,,
,,,,,,5efb31fa8cd32f04bf048643,2024-05-13_10h23.21.597,group3.1-3.2-social-tom,2023.2.2,Win32,60.60606061,65c5074098b851296ff0b7ed,6642304edda673a1ae35eca9,,,,,,,,,,,,,,,,,,,,,,,,,,,,,401.3943,1,audio/Narrative7Situation2.wav,404.3989,,404.3989,411.9147,"[[58,1171],[55.5,1254],[52.1,1335],[44,1420],[26.7,1504],[21.3,1581],[21.3,1665],[21.3,1752],[21.3,1831],[21.3,1920],[19.4,2004],[16.5,2086],[10.5,2170],[4.9,2253],[2.1,2336],[1.4,2413],[0.7,2503],[0.4,2586],[0.1,2669],[0.1,2746],[0.1,2830],[0.1,2913],[0.1,2996],[0.1,3080],[0.1,3163],[0.1,3246],[0.1,3330],[0.1,3413],[0.1,3496],[0.1,3579],[0.1,3663],[0.1,3746],[0.1,3829],[0.1,3912],[0.1,3995],[0.1,4079],[0.1,4162],[0.1,4246],[0.1,4329],[0.1,4412],[0.1,4495],[0.1,4579],[0.1,4662],[0.1,4745],[0.1,4828],[0.1,4911],[0.1,4995],[0.1,5078],[0.1,5161],[0.1,5245],[0.1,5328],[0.1,5411],[0.1,5494],[0.1,5578],[1,5666],[3.1,5750],[4.1,5833],[5.4,5916],[7.2,6000],[9.8,6083],[13.3,6166],[17.6,6249],[18.4,6326],[18.4,6410],[18.4,6493],[18.4,6576],[18.4,6660],[18.6,6749],[19.2,6832],[19.3,6909],[20,6998],[21.1,7082],[22.3,7165],[23.1,7242],[23.4,7331],[23.6,7409],[24.5,7498]]",1,0,411.9149,414.36,12.70833413,2.0503,"[{""rating"":12.708334128061932,""responseTime"":2.05030000001193}]",space,1.8986,,414.3601,All the time,100,414.3641,,,[],,0,11,11,11,1,audio/Narrative8Situation2.wav,audio/Narrative7Situation2.wav,audio/Narrative6Situation2.wav,audio/Narrative5Situation2.wav,3,3,3,3,,,,,,,,,,,,,,,,,,,,,,,,,,,,,,,,,,,,,,,
,,,,,,5efb31fa8cd32f04bf048643,2024-05-13_10h23.21.597,group3.1-3.2-social-tom,2023.2.2,Win32,60.60606061,65c5074098b851296ff0b7ed,6642304edda673a1ae35eca9,,,,,,,,,,,,,,,,,,,,,,,,,,,,,414.3647,1,audio/Narrative7Situation3.wav,422.3662,,422.3663,431.6398,"[[11.2,1003],[10.2,1087],[9.6,1170],[9.5,1247],[9.5,1331],[9.5,1413],[9.5,1497],[9.5,1580],[9.5,1663],[9.5,1747],[9.5,1830],[9.5,1913],[9.5,1997],[9.5,2085],[9.5,2163],[9.5,2246],[9.5,2329],[9.5,2413],[9.5,2496],[9.5,2579],[9.5,2663],[9.5,2746],[9.5,2836],[9.5,2913],[9.5,2996],[9.5,3079],[9.5,3162],[9.5,3245],[9.5,3329],[9.5,3412],[9.5,3495],[9.5,3578],[9.5,3662],[9.5,3745],[9.5,3834],[9.5,3911],[9.5,3995],[10.1,4084],[11.2,4161],[11.4,4244],[11.7,4335],[12,4417],[12,4494],[12,4577],[12,4661],[12,4744],[12,4827],[12,4910],[12.6,4999],[12.9,5083],[13.4,5166],[13.5,5251],[13.5,5327],[13.5,5410],[13.5,5493],[13.5,5576],[13.5,5660],[13.5,5743],[13.5,5826],[13.5,5909],[13.5,5993],[13.5,6076],[13.8,6165],[13.9,6248],[14.4,6331],[14.8,6415],[14.8,6498],[15,6582],[15,6658],[15,6742],[15,6825],[15,6909],[15,6992],[15,7075],[15,7164],[15,7242],[15,7325],[15,7408],[12.6,7498],[11.5,7581],[11.1,7658],[10.7,7741],[10.6,7830],[10.6,7908],[10.6,7991],[10.6,8080],[10.6,8157],[10.6,8241],[10.6,8324],[10.6,8407],[10.6,8491],[10.6,8574],[10.6,8657],[10.6,8740],[10.6,8829],[10.6,8906],[10.3,8990],[9.1,9079],[8.8,9162],[8.8,9240]]",1,0,431.6399,434.5736,4.999999205,1.5452,"[{""rating"":4.999999205271405,""responseTime"":1.5451999999880286}]",space,2.3819,,434.5737,Not at all,0,434.5763,,,[],,0,12,12,12,1,audio/Narrative8Situation3.wav,audio/Narrative7Situation3.wav,audio/Narrative6Situation3.wav,audio/Narrative5Situation3.wav,4,8,5,3,,,,,,,,,,,,,,,,,,,,,,,,,,,,,,,,,,,,,,,
,,,,,,5efb31fa8cd32f04bf048643,2024-05-13_10h23.21.597,group3.1-3.2-social-tom,2023.2.2,Win32,60.60606061,65c5074098b851296ff0b7ed,6642304edda673a1ae35eca9,,,,,,,,,,,,,,,,,,,,,,,,,,,,,434.5765,1,audio/Narrative7Situation4.wav,437.5846,,437.5847,449.3238,"[[3.9,849],[3.4,931],[3.4,1014],[3.4,1098],[3.4,1181],[3.4,1265],[1.9,1348],[1.8,1431],[1.7,1514],[1.7,1598],[1.7,1681],[1.7,1764],[1.7,1848],[1.7,1930],[1.7,2014],[1.7,2098],[1.7,2181],[1.7,2264],[1.7,2347],[1.7,2430],[1.7,2513],[1.7,2597],[1.7,2680],[1.7,2764],[1.7,2847],[1.7,2930],[1.7,3013],[1.7,3097],[1.7,3180],[1.7,3262],[1.7,3346],[1.7,3429],[1.7,3513],[1.7,3596],[1.7,3679],[1.7,3763],[1.7,3846],[1.7,3929],[1.7,4013],[1.7,4096],[1.7,4179],[1.7,4262],[1.7,4345],[1.7,4428],[1.7,4512],[1.7,4595],[1.7,4678],[1.7,4761],[1.7,4845],[1.7,4928],[1.7,5011],[1.7,5095],[1.7,5178],[1.7,5261],[1.7,5344],[1.7,5428],[1.7,5511],[1.7,5594],[1.7,5677],[1.7,5760],[1.7,5844],[1.7,5927],[1.7,6010],[1.7,6094],[1.7,6177],[1.7,6260],[1.7,6344],[1.7,6427],[1.7,6510],[1.7,6593],[1.7,6676],[1.7,6759],[1.7,6843],[1.7,6926],[1.7,7009],[1.7,7093],[1.7,7176],[1.7,7259],[1.7,7342],[1.7,7426],[1.7,7509],[1.7,7592],[1.7,7676],[1.7,7758],[1.7,7842],[1.7,7925],[1.7,8008],[3.5,8091],[15.7,8175],[23.4,8258],[27.1,8341],[27.6,8425],[27.6,8508],[27.6,8591],[27.6,8674],[27.6,8758],[31.3,8841],[34.3,8924],[36.7,9007],[39.2,9090],[42.8,9174],[44.6,9257],[44.6,9340],[44.6,9424],[44.6,9507],[44.6,9590],[45,9673],[45.7,9756],[46.6,9840],[48.1,9923],[49.7,10006],[50.1,10090],[50.3,10173],[51.4,10256],[51.6,10339],[51.6,10422],[52.4,10506],[52.9,10589],[52.9,10672],[52.9,10756],[52.9,10839],[52.9,10922],[52.9,11005],[52.9,11089],[52.9,11172],[52.9,11255],[52.9,11339],[52.9,11422],[52.9,11505],[52.9,11588],[52.9,11672]]",1,0,449.3242,454.3357,50,4.5401,"[{""rating"":50,""responseTime"":4.540100000023813}]",space,4.4708,,454.3359,Half the time,50,454.3443,,,[],,0,13,13,13,1,audio/Narrative8Situation4.wav,audio/Narrative7Situation4.wav,audio/Narrative6Situation4.wav,audio/Narrative5Situation4.wav,3,3,2,1,,,,,,,,,,,,,,,,,,,,,,,,,,,,,,,,,,,,,,,
,,,,,,5efb31fa8cd32f04bf048643,2024-05-13_10h23.21.597,group3.1-3.2-social-tom,2023.2.2,Win32,60.60606061,65c5074098b851296ff0b7ed,6642304edda673a1ae35eca9,,,,,,,,,,,,,,,,,,,,,,,,,,,,,454.3449,1,audio/Narrative7Situation5.wav,459.3473,,459.3473,467.8396,"[[17.9,82],[19.7,166],[11.8,582],[2.6,665],[1.8,749],[1.8,832],[1.8,915],[1.8,999],[1.8,1082],[1.8,1165],[1.8,1248],[1.8,1332],[1.8,1415],[1.8,1498],[1.8,1582],[1.8,1665],[1.8,1748],[1.8,1831],[1.8,1915],[1.8,1998],[1.8,2081],[1.8,2165],[1.8,2247],[1.8,2331],[1.8,2413],[1.8,2497],[1.8,2581],[1.8,2664],[1.8,2747],[1.8,2831],[1.8,2914],[1.8,2997],[1.8,3080],[1.8,3163],[1.8,3247],[1.8,3330],[1.8,3413],[1.8,3496],[1.8,3580],[1.8,3663],[1.8,3746],[1.8,3829],[1.8,3913],[1.8,3996],[1.8,4079],[1.8,4162],[1.8,4246],[1.8,4329],[1.8,4412],[1.8,4495],[1.8,4579],[1.8,4662],[1.8,4745],[1.8,4828],[1.8,4912],[1.8,4995],[1.8,5078],[1.8,5162],[1.8,5245],[1.8,5328],[1.8,5411],[1.8,5494],[1.8,5577],[2.1,5661],[3.4,5744],[4.1,5827],[4.7,5910],[5.5,5994],[6,6077],[6.7,6160],[7.2,6243],[7.8,6326],[8.3,6410],[8.9,6493],[9.7,6577],[10.3,6660],[11.1,6743],[11.9,6826],[13,6909],[14.6,6993],[15.6,7076],[16.5,7160],[17,7243],[17,7326],[17,7409],[17,7493],[17,7576],[17,7659],[17,7742],[17,7826],[17,7909],[17,7992],[17,8076],[17,8159],[17,8242],[19.6,8325],[21.7,8408],[22.8,8492]]",1,0,467.8397,470.3538,29.6875,2.196,"[{""rating"":29.6875,""responseTime"":2.1959999999999695}]",space,1.9739,,470.3541,Not at all,0,470.3617,,,[],,0,14,14,14,1,audio/Narrative8Situation5.wav,audio/Narrative7Situation5.wav,audio/Narrative6Situation5.wav,audio/Narrative5Situation5.wav,2,5,2,5,,,,,,,,,,,,,,,,,,,,,,,,,,,,,,,,,,,,,,,
,,,,,,5efb31fa8cd32f04bf048643,2024-05-13_10h23.21.597,group3.1-3.2-social-tom,2023.2.2,Win32,60.60606061,65c5074098b851296ff0b7ed,6642304edda673a1ae35eca9,,,,,,,,,,,,,,,,,,,,,,,,,,,,,470.3622,1,audio/Narrative7Situation6.wav,473.3677,,473.3677,483.342,"[[23.4,1004],[12.5,1088],[6.6,1171],[4.9,1254],[3.9,1337],[3.4,1421],[3.4,1504],[3.4,1581],[3.4,1664],[3.4,1753],[3.4,1831],[3.4,1914],[3.4,2003],[3.4,2088],[3.4,2164],[3.4,2247],[3.4,2331],[3.4,2414],[3.4,2497],[3.4,2581],[3.4,2665],[3.4,2746],[3.4,2830],[3.4,2920],[3.4,2997],[4.4,3086],[7.7,3169],[10.1,3252],[13.6,3335],[17.4,3419],[24.9,3502],[29.1,3585],[29.1,3663],[29.1,3750],[29.1,3829],[29.1,3918],[32.7,4001],[39.2,4084],[45.1,4168],[48.4,4252],[48.4,4329],[48.4,4412],[48.4,4495],[48.4,4579],[48.6,4662],[49.4,4748],[49.8,4836],[50.7,4917],[50.7,4994],[50.7,5084],[50.7,5161],[51.3,5244],[52,5334],[52.7,5411],[52.8,5500],[53.4,5583],[55.1,5667],[57,5750],[57.5,5833],[57.5,5910],[57.5,5994],[57.5,6077],[57.5,6160],[57.5,6250],[57.5,6326],[58.8,6416],[61.4,6499],[63.4,6582],[65.3,6665],[67.6,6749],[70.5,6832],[72.3,6915],[74,6999],[74.7,7081],[74.7,7165],[74.7,7243],[74.7,7326],[77,7415],[79.6,7498],[81.3,7581],[82.2,7665],[83.3,7748],[84.7,7831],[85.3,7914],[85.8,7998],[86.4,8081],[86.9,8164],[86.9,8242],[86.9,8325],[86.9,8408],[86.9,8491],[86.9,8575],[86.9,8658],[86.9,8742],[86.9,8824],[86.9,8908],[86.9,8997],[86.9,9074],[86.9,9158],[86.9,9241],[86.9,9330],[86.9,9407],[86.9,9491],[86.9,9580],[86.9,9657],[86.9,9747],[86.9,9830],[86.9,9907]]",1,0,483.3425,484.6239,65.93750318,1.0094,"[{""rating"":65.9375031789144,""responseTime"":1.0093999999761536}]",space,0.7183,,484.624,Half the time,50,484.6313,,,[],,0,15,15,15,1,audio/Narrative8Situation6.wav,audio/Narrative7Situation6.wav,audio/Narrative6Situation6.wav,audio/Narrative5Situation6.wav,2,3,2,3,,,,,,,,,,,,,,,,,,,,,,,,,,,,,,,,,,,,,,,
,,,,,,5efb31fa8cd32f04bf048643,2024-05-13_10h23.21.597,group3.1-3.2-social-tom,2023.2.2,Win32,60.60606061,65c5074098b851296ff0b7ed,6642304edda673a1ae35eca9,,,,,,,,,,,,,,,,,,,,,,,,,,,,,484.6318,1,audio/Narrative7Situation7.wav,489.6358,,489.6358,506.8195,"[[4.5,682],[4,765],[1.5,848],[0.7,932],[0.7,1015],[0.7,1098],[0.7,1182],[0.7,1265],[0.7,1348],[0.7,1432],[0.7,1515],[0.7,1598],[0.7,1682],[0.7,1764],[0.7,1848],[0.7,1931],[0.7,2015],[0.7,2097],[0.7,2181],[0.7,2264],[0.7,2347],[0.7,2430],[0.7,2514],[0.7,2597],[0.7,2680],[0.7,2763],[0.8,2847],[1.3,2930],[1.3,3013],[1.4,3096],[1.7,3179],[1.9,3263],[2,3346],[2.2,3429],[2.6,3512],[2.6,3596],[3.1,3679],[3.9,3762],[4.7,3845],[5.2,3929],[5.9,4012],[6.5,4096],[6.8,4178],[7.1,4262],[7.3,4345],[7.3,4429],[7.3,4512],[7.3,4596],[7.3,4679],[7.3,4762],[7.3,4845],[7.3,4928],[7.3,5012],[7.3,5095],[7.3,5178],[7.3,5261],[7.3,5345],[7.3,5427],[7.3,5511],[7.3,5594],[7.3,5678],[7.3,5761],[7.3,5844],[7.3,5927],[7.3,6010],[7.3,6094],[7.3,6177],[7.3,6260],[7.3,6344],[7.3,6427],[7.3,6509],[7.3,6593],[7.3,6677],[7.3,6760],[7.3,6843],[7.3,6927],[7.3,7009],[7.3,7093],[7.3,7176],[7.3,7259],[7.3,7343],[7.3,7426],[7.3,7509],[7.3,7592],[7.3,7675],[7.3,7759],[7.3,7842],[7.4,7925],[7.5,8008],[7.5,8092],[7.5,8175],[7.5,8258],[7.5,8342],[7.5,8425],[7.5,8508],[7.5,8591],[7.5,8675],[7.5,8758],[7.5,8841],[7.5,8924],[7.5,9007],[7.5,9091],[7.5,9174],[7.5,9257],[7.5,9340],[7.5,9423],[7.5,9507],[7.5,9590],[7.5,9673],[7.5,9757],[7.5,9840],[7.5,9924],[7.5,10007],[7.5,10090],[7.5,10173],[7.5,10256],[7.5,10339],[7.5,10423],[7.5,10506],[7.5,10589],[7.5,10672],[7.5,10755],[7.5,10839],[7.5,10923],[7.5,11006],[7.5,11089],[7.5,11172],[7.5,11255],[7.5,11339],[7.5,11422],[7.5,11505],[7.5,11588],[7.5,11672],[7.5,11755],[7.5,11839],[7.5,11922],[7.5,12005],[7.5,12088],[7.5,12171],[7.5,12254],[7.5,12337],[7.5,12421],[7.5,12505],[7.5,12588],[7.5,12670],[7.5,12754],[7.5,12837],[7.5,12921],[7.5,13003],[7.5,13087],[7.5,13170],[7.5,13254],[7.5,13337],[7.5,13420],[7.5,13503],[7.5,13587],[7.5,13670],[7.5,13753],[7.5,13836],[7.5,13919],[7.5,14003],[7.5,14086],[7.5,14169],[7.5,14252],[7.5,14336],[7.5,14419],[7.5,14503],[7.5,14586],[7.5,14669],[7.5,14752],[7.5,14835],[7.5,14919],[7.5,15002],[7.5,15085],[7.5,15168],[7.5,15251],[7.5,15335],[7.5,15418],[7.5,15501],[7.5,15585],[7.5,15668],[7.5,15752],[7.5,15835],[7.5,15918],[7.5,16001],[7.5,16085],[7.5,16167],[7.5,16251],[7.5,16334],[7.5,16418],[7.5,16501],[7.5,16584],[7.5,16667],[7.5,16750],[7.5,16834],[7.5,16917],[7.5,17000],[7.5,17084],[13.4,17167]]",1,0,506.8197,508.8182,19.79166667,1.57,"[{""rating"":19.791666666666668,""responseTime"":1.57000000000005}]",space,1.4541,,508.8184,Half the time,50,508.8231,,,[],,0,16,16,16,1,audio/Narrative8Situation7.wav,audio/Narrative7Situation7.wav,audio/Narrative6Situation7.wav,audio/Narrative5Situation7.wav,3,5,5,4,,,,,,,,,,,,,,,,,,,,,,,,,,,,,,,,,,,,,,,
,,,,,,5efb31fa8cd32f04bf048643,2024-05-13_10h23.21.597,group3.1-3.2-social-tom,2023.2.2,Win32,60.60606061,65c5074098b851296ff0b7ed,6642304edda673a1ae35eca9,,,,,,,,,,,,,,,,,,,,,,,,,,,,,508.8238,1,audio/Narrative7Situation8.wav,510.8326,,510.8327,520.8564,"[[15.5,915],[8.5,998],[5.8,1081],[5.1,1165],[4.9,1248],[4.1,1332],[2.9,1415],[1.9,1498],[1.4,1581],[1.4,1664],[1.4,1747],[1.4,1831],[1.4,1914],[1.4,1997],[1.4,2081],[1.4,2164],[1.4,2248],[1.4,2331],[1.4,2414],[1.4,2497],[1.4,2581],[1.4,2664],[1.4,2747],[1.4,2830],[1.4,2913],[1.4,2997],[1.4,3080],[1.4,3163],[1.4,3246],[1.4,3330],[1.4,3413],[1.4,3496],[1.4,3579],[1.4,3663],[1.4,3746],[1.4,3829],[1.4,3912],[1.4,3995],[1.4,4079],[1.4,4162],[1.4,4246],[1.4,4329],[1.4,4413],[1.4,4496],[1.4,4578],[1.4,4662],[1.4,4745],[1.4,4828],[1.4,4911],[1.4,4995],[1.5,5078],[1.8,5161],[2.5,5245],[2.8,5328],[3,5411],[3.1,5494],[3.1,5577],[3.1,5661],[3.1,5744],[3.1,5827],[3.1,5910],[3.1,5993],[3.1,6077],[3.1,6160],[3.1,6243],[3.1,6326],[3.1,6410],[3.1,6494],[3.1,6577],[3.1,6660],[3.1,6743],[3.1,6826],[3.1,6909],[3.1,6993],[3.1,7076],[3.1,7159],[3.1,7242],[3.1,7326],[3.1,7409],[3.1,7492],[3.1,7576],[3.1,7659],[3.1,7743],[3.1,7826],[3.1,7909],[3.1,7992],[3.1,8075],[3.1,8158],[3.1,8242],[3.1,8325],[3.1,8408],[3.1,8491],[3.1,8575],[3.1,8658],[3.1,8741],[3.1,8825],[3.1,8908],[3.1,8991],[3.1,9074],[3.1,9158],[3.1,9240],[3.1,9324],[3.1,9407],[3.1,9491],[3.1,9574],[3.1,9657],[3.1,9740],[3.1,9823],[3.1,9907],[4.3,9990]]",1,0,520.8565,522.5053,4.062501589,1.3407,"[{""rating"":4.062501589457196,""responseTime"":1.3406999999881464}]",space,1.1035,,522.5054,Half the time,50,522.5095,,,[],,0,17,17,17,1,audio/Narrative8Situation8.wav,audio/Narrative7Situation8.wav,audio/Narrative6Situation8.wav,audio/Narrative5Situation8.wav,3,2,5,3,,,,,,,,,,,,,,,,,,,,,,,,,,,,,,,,,,,,,,,
,,,,,,5efb31fa8cd32f04bf048643,2024-05-13_10h23.21.597,group3.1-3.2-social-tom,2023.2.2,Win32,60.60606061,65c5074098b851296ff0b7ed,6642304edda673a1ae35eca9,,,,,,,,,,,,,,,,,,,,,,,,,,,,,522.5104,1,audio/Narrative7Situation9.wav,524.52,,524.5202,533.1615,"[[4.2,1248],[5,1331],[6,1414],[6,1498],[6.1,1581],[8.4,1664],[10.8,1747],[10.9,1831],[10.9,1914],[10.9,1998],[10.9,2081],[17.6,2163],[22.9,2247],[25.7,2330],[29,2413],[32.3,2496],[33.1,2580],[33.1,2663],[33.1,2746],[33.1,2830],[34.6,2913],[36.9,2996],[41.8,3079],[46.4,3162],[47.2,3246],[47.2,3329],[47.2,3413],[47.2,3496],[60,3579],[63.5,3662],[63.5,3745],[63.5,3829],[63.5,3912],[70.2,3995],[72.7,4079],[74,4162],[76.3,4245],[78.5,4328],[82,4411],[82.8,4495],[83.8,4578],[84.2,4661],[84.3,4744],[84.3,4828],[84.3,4911],[84.3,4995],[84.3,5078],[84.3,5161],[84.3,5244],[84.3,5328],[84.3,5411],[84.3,5494],[84.3,5577],[84.3,5660],[84.4,5744],[85.2,5827],[86.1,5910],[86.9,5993],[87.4,6076],[87.5,6160],[87.5,6243],[87.5,6326],[87.5,6410],[87.5,6493],[87.5,6576],[87.5,6659],[87.5,6742],[87.5,6826],[87.5,6909],[87.5,6992],[87.5,7076],[87.7,7159],[87.9,7242],[88.3,7326],[88.9,7409],[89.5,7492],[89.6,7575],[89.6,7658],[89.6,7742],[89.6,7825],[89.6,7909],[89.6,7992],[89.6,8075],[89.6,8158],[89.6,8242],[89.6,8324],[89.6,8408],[89.6,8491],[89.6,8575]]",1,0,533.1617,535.2935,90.31249682,1.3529,"[{""rating"":90.31249682108562,""responseTime"":1.3528999999762163}]",space,1.5835,,535.2936,All the time,100,535.302,,,[],,0,18,18,18,1,audio/Narrative8Situation9.wav,audio/Narrative7Situation9.wav,audio/Narrative6Situation9.wav,audio/Narrative5Situation9.wav,3,2,4,3,,,,,,,,,,,,,,,,,,,,,,,,,,,,,,,,,,,,,,,
,,,,,,5efb31fa8cd32f04bf048643,2024-05-13_10h23.21.597,group3.1-3.2-social-tom,2023.2.2,Win32,60.60606061,65c5074098b851296ff0b7ed,6642304edda673a1ae35eca9,,,,,,,,,,,,,,,,,,,,,,,,,,,538.026,540.6047,540.6219,2,audio/Narrative13Situation2.wav,540.622,,540.622,570.3771,"[[61.5,1154],[4.6,1570],[3.5,1647],[3.5,1731],[3.5,1814],[3.1,1897],[1.9,1986],[1.9,2063],[1.9,2147],[1.9,2237],[1.9,2313],[1.9,2397],[1.9,2480],[1.9,2563],[1.9,2647],[1.9,2730],[0.4,2818],[0.4,2896],[0.4,2979],[0.4,3062],[0.4,3146],[0.4,3229],[0.4,3312],[0.4,3396],[0.4,3479],[0.4,3562],[0.4,3652],[0.4,3728],[0.4,3818],[0.4,3895],[0.4,3978],[0.4,4062],[0.4,4145],[0.4,4228],[0.4,4312],[0.4,4395],[0.4,4484],[0.4,4562],[0.4,4644],[0.4,4728],[0.4,4811],[0.4,4894],[0.4,4978],[0.4,5060],[0.4,5144],[0.4,5228],[0.4,5311],[0.4,5394],[0.4,5477],[0.4,5567],[0.4,5644],[0.4,5727],[0.4,5810],[0.4,5893],[0.4,5977],[0.4,6060],[0.4,6143],[0.4,6227],[0.4,6316],[0.4,6400],[0.4,6476],[0.4,6560],[0.4,6643],[0.4,6726],[0.4,6809],[0.4,6892],[0.4,6982],[0.4,7059],[0.4,7142],[0.4,7232],[0.4,7309],[0.4,7392],[0.4,7475],[0.4,7559],[0.4,7642],[0.4,7725],[0.4,7808],[0.4,7891],[0.4,7981],[0.4,8059],[0.4,8141],[0.4,8224],[0.4,8308],[0.4,8391],[0.4,8474],[0.4,8558],[0.4,8647],[0.4,8724],[0.4,8808],[0.4,8891],[0.4,8974],[0.4,9057],[0.4,9140],[0.4,9223],[0.4,9307],[0.4,9390],[0.4,9480],[0.4,9557],[0.4,9640],[0.4,9723],[0.4,9806],[0.4,9889],[0.4,9973],[0.4,10056],[0.4,10140],[0.4,10222],[0.4,10313],[0.4,10389],[0.4,10479],[0.4,10556],[0.4,10639],[0.4,10722],[0.4,10806],[0.4,10889],[0.4,10972],[0.4,11055],[0.4,11139],[0.4,11222],[0.4,11305],[0.4,11388],[0.4,11471],[0.4,11555],[0.4,11638],[0.4,11721],[0.4,11805],[0.4,11893],[0.4,11977],[0.4,12054],[0.4,12138],[0.4,12227],[0.4,12304],[0.4,12387],[0.4,12471],[0.4,12554],[0.4,12637],[0.4,12721],[0.4,12804],[0.4,12887],[0.4,12976],[0.4,13060],[0.4,13137],[0.4,13220],[0.4,13303],[0.4,13386],[0.4,13469],[0.4,13553],[0.4,13643],[0.4,13719],[0.4,13803],[0.4,13892],[0.4,13969],[0.4,14053],[0.4,14136],[0.4,14219],[0.4,14302],[0.4,14385],[4.9,14474],[9.1,14557],[11.1,14641],[12.8,14725],[13.5,14807],[13.8,14892],[14.8,14974],[16.5,15057],[17.6,15140],[18.1,15223],[18.1,15307],[18.1,15385],[18.1,15474],[18.1,15551],[18.1,15634],[18.1,15717],[18.1,15801],[18.1,15884],[18.1,15967],[18.1,16051],[18.1,16140],[18.1,16217],[18.1,16300],[18.1,16389],[18.1,16467],[18.1,16550],[18.1,16633],[18.1,16717],[18.1,16800],[18.1,16883],[18.1,16972],[18.1,17050],[18.1,17134],[18.1,17216],[18.1,17299],[18.1,17383],[18.1,17466],[18.1,17549],[18.1,17632],[18.1,17716],[18.1,17799],[18.1,17882],[18.1,17965],[18.1,18049],[18.1,18132],[18.1,18216],[18.1,18298],[18.1,18382],[18.1,18465],[18.1,18548],[18.1,18636],[18.1,18715],[18.1,18804],[18.1,18881],[18.1,18965],[18.1,19048],[18.1,19131],[18.1,19214],[18.1,19298],[18.1,19381],[18.1,19470],[18.1,19547],[18.1,19630],[18.1,19720],[18.1,19797],[18.1,19880],[18.1,19964],[18.1,20047],[18.1,20130],[18.1,20213],[18.1,20304],[18.1,20380],[18.1,20468],[18.1,20546],[18.1,20630],[18.1,20713],[18.1,20796],[18.1,20879],[18.1,20963],[18.1,21046],[18.1,21129],[18.1,21212],[18.1,21296],[18.1,21379],[18.1,21462],[18.1,21545],[18.1,21635],[18.1,21712],[18.1,21795],[18.1,21879],[18.1,21962],[18.1,22045],[18.1,22132],[17.1,22217],[16,22300],[14.4,22384],[13.6,22467],[13.6,22550],[13.6,22633],[13.6,22711],[13.6,22794],[13.6,22877],[13.6,22967],[13.6,23048],[13.6,23128],[13.6,23211],[13.6,23294],[13.6,23378],[13.6,23466],[13.6,23543],[13.6,23627],[13.6,23710],[13.6,23793],[13.6,23883],[13.6,23960],[13.6,24043],[13.6,24126],[13.6,24209],[13.6,24293],[13.6,24376],[13.6,24465],[13.6,24542],[13.6,24626],[13.6,24715],[13.6,24793],[13.6,24876],[13.6,24959],[13.6,25042],[13.6,25125],[13.6,25214],[13.6,25297],[13.6,25375],[13.6,25458],[13.6,25547],[13.6,25625],[13.6,25708],[13.6,25791],[13.6,25875],[13.6,25958],[13.6,26042],[13.6,26128],[13.6,26208],[13.6,26297],[13.6,26381],[13.6,26458],[13.6,26541],[13.6,26624],[13.6,26707],[13.6,26790],[13.6,26873],[14.3,26965],[15.6,27046],[17.7,27129],[20.2,27213],[21.9,27296],[23.5,27379],[24.2,27456],[25,27546],[25.9,27623],[27.1,27712],[27.6,27795],[28.1,27872],[29,27959],[30,28039],[31.5,28128],[31.8,28212],[32.2,28289],[32.8,28378],[33.8,28461],[33.8,28539],[33.8,28628],[33.8,28706],[33.8,28789],[33.8,28878],[33.8,28955],[33.8,29038],[33.8,29121],[33.8,29211],[33.8,29288],[33.8,29371],[33.8,29460],[33.8,29544],[33.8,29621],[33.8,29710]]",1,0,570.3772,570.3805,,,[],,,,570.3805,Not at all,0,570.3821,,,[],,0,0,0,0,1,audio/Narrative13Situation2.wav,audio/Narrative13Situation2.wav,audio/Narrative13Situation2.wav,audio/Narrative13Situation2.wav,2,2,2,2,,,,,535.3034,538.0253,space,2.2006,,,,,,,,,,,,,,,,,,,,,,,,,,,,,,,
,,,,,,5efb31fa8cd32f04bf048643,2024-05-13_10h23.21.597,group3.1-3.2-social-tom,2023.2.2,Win32,60.60606061,65c5074098b851296ff0b7ed,6642304edda673a1ae35eca9,,,,,,,,,,,,,,,,,,,,,,,,,,,,,570.3822,2,audio/Narrative6Situation1.wav,572.3918,,572.3918,598.9842,"[[36,915],[19.9,1004],[10,1088],[5,1171],[4.3,1248],[1.6,1337],[0.2,1421],[0.1,1498],[0.1,1581],[0.1,1665],[0.1,1748],[0.1,1831],[0.1,1914],[0.1,1998],[0.1,2087],[0.1,2170],[0.1,2247],[0.1,2331],[0.1,2414],[0.1,2497],[0.1,2580],[0.1,2663],[0.1,2747],[0.1,2830],[0.1,2913],[0.1,3002],[0.1,3080],[0.1,3163],[0.1,3247],[0.1,3330],[0.1,3413],[0.1,3496],[0.1,3583],[0.1,3663],[0.1,3746],[0.1,3830],[0.1,3912],[0.1,3995],[0.1,4079],[0.1,4162],[0.1,4246],[0.1,4329],[0.1,4412],[0.1,4495],[0.1,4584],[0.1,4662],[0.1,4745],[0.1,4828],[0.1,4912],[0.1,4995],[0.1,5078],[0.1,5161],[0.1,5251],[0.1,5328],[0.1,5418],[0.1,5494],[0.1,5577],[0.1,5667],[0.1,5744],[0.1,5828],[0.1,5910],[0.1,5994],[0.1,6077],[0.1,6160],[0.1,6244],[0.1,6327],[0.1,6410],[0.1,6499],[0.1,6577],[0.1,6660],[0.1,6743],[0.1,6827],[0.1,6910],[0.1,6993],[0.1,7076],[0.1,7159],[0.1,7242],[0.1,7326],[0.1,7409],[0.1,7493],[0.1,7575],[0.1,7659],[0.1,7749],[0.1,7828],[0.1,7915],[0.1,7992],[0.1,8082],[0.1,8158],[0.1,8248],[0.1,8325],[0.1,8413],[0.1,8491],[0.1,8575],[0.1,8658],[0.1,8741],[0.1,8825],[0.1,8908],[0.1,8991],[0.1,9074],[0.1,9157],[0.1,9240],[0.1,9324],[0.1,9413],[0.1,9490],[0.1,9574],[0.1,9657],[0.1,9740],[0.1,9823],[0.1,9907],[0.1,9990],[0.1,10073],[0.1,10157],[0.1,10245],[0.9,10329],[3.1,10412],[5,10495],[7.3,10579],[9.5,10663],[13,10745],[14.5,10829],[15.6,10912],[17.4,10995],[19.5,11078],[20,11155],[20,11239],[20,11328],[20,11406],[20,11492],[22.3,11577],[33.3,12244],[33.3,12327],[33.1,12410],[31,12493],[30.9,12577],[30.9,12654],[31,12737],[31,12821],[31,12904],[31,12987],[31,13070],[38.6,13159],[41.7,13243],[43.3,13326],[45.4,13409],[46.7,13493],[46.7,13576],[46.7,13653],[46.7,13737],[46.7,13820],[46.7,13903],[46.7,13986],[47.4,14075],[48.3,14159],[49,14242],[49,14319],[49.7,14409],[49.9,14491],[49.9,14569],[49.9,14652],[49.9,14736],[49.9,14819],[49.9,14903],[49.9,14985],[49.9,15075],[49.9,15152],[49.9,15235],[49.9,15318],[49.9,15402],[49.9,15491],[49.9,15568],[49.9,15651],[49.9,15735],[49.9,15818],[50,15901],[50.3,15984],[51.8,16073],[53.1,16154],[54.4,16240],[56.3,16323],[59.2,16407],[60.6,16490],[60.6,16573],[60.6,16651],[60.6,16734],[60.6,16817],[60.6,16906],[60.6,16983],[64.4,17073],[69.5,17982],[67.1,18072],[67.1,18149],[67.1,18232],[67.1,18315],[70.9,18405],[71.4,18488],[71.4,18572],[71.4,18648],[71.4,18737],[71.4,18822],[71.4,18898],[71.6,18981],[72.6,19070],[73.9,19154],[75.2,19237],[76,19321],[76.5,19401],[76.5,19485],[76.5,19571],[76.5,19648],[76.5,19731],[76.5,19814],[76.5,19898],[76.5,19981],[76.5,20064],[76.5,20147],[76.5,20237],[76.5,20314],[76.5,20403],[76.5,20487],[76.5,20563],[76.5,20647],[76.5,20730],[76.5,20813],[76.5,20897],[77.3,20980],[77.6,21069],[78.1,21146],[78.6,21235],[79.2,21319],[79.7,21402],[80.1,21485],[80.2,21562],[80.4,21647],[80.5,21729],[80.6,21818],[80.9,21901],[81.6,21984],[82.3,22068],[83.3,22151],[84.6,22234],[85.3,22312],[85.3,22395],[85.3,22478],[85.3,22561],[85.3,22645],[85.3,22728],[85.3,22812],[85.3,22894],[85.3,22978],[85.3,23061],[85.3,23144],[85.3,23228],[85.3,23311],[85.3,23394],[85.3,23477],[85.3,23567],[85.3,23644],[85.3,23727],[85.3,23817],[85.3,23900],[85.3,23977],[85.3,24060],[85.3,24144],[85.3,24227],[85.3,24310],[85.3,24400],[85.3,24476],[85.3,24560],[85.3,24643],[85.3,24727],[85.3,24809],[85.3,24893],[85.3,24977],[85.3,25059],[85.3,25143],[85.3,25226],[85.3,25309],[85.3,25399],[85.3,25475],[85.3,25559],[85.3,25642],[85.3,25731],[85.3,25809],[85.3,25892],[85.3,25975],[85.3,26059],[85.3,26142],[85.3,26225],[85.3,26308],[85.3,26392],[85.3,26475],[85.3,26558]]",1,0,598.9848,600.1823,87.9166762,0.8011,"[{""rating"":87.91667620340984,""responseTime"":0.80110000002378}]",space,0.6551,,600.1825,Not at all,0,600.186,,,[],,0,1,1,1,1,audio/Narrative7Situation1.wav,audio/Narrative8Situation1.wav,audio/Narrative5Situation1.wav,audio/Narrative6Situation1.wav,2,5,5,2,,,,,,,,,,,,,,,,,,,,,,,,,,,,,,,,,,,,,,,
,,,,,,5efb31fa8cd32f04bf048643,2024-05-13_10h23.21.597,group3.1-3.2-social-tom,2023.2.2,Win32,60.60606061,65c5074098b851296ff0b7ed,6642304edda673a1ae35eca9,,,,,,,,,,,,,,,,,,,,,,,,,,,,,600.1863,2,audio/Narrative6Situation2.wav,603.1963,,603.1963,631.7027,"[[4,23823],[7.8,23900],[8.1,23977],[8.1,24060],[8.1,24143],[8.1,24232],[8.3,24316],[9.6,24399],[10.8,24482],[13.4,24565],[15.8,24649],[18.4,24732],[20.3,24816],[32.9,26064],[33.1,26141],[33.1,26230],[33.1,26308],[33.1,26392],[33.1,26475],[33.1,26557],[33.1,26641],[33.1,26725],[33.1,26808],[33.1,26891],[33.1,26974],[33.1,27057],[33.1,27141],[33.1,27224],[33.1,27314],[33.1,27391],[34.4,27474],[35.4,27563],[36.5,27646],[37.5,27730],[37.9,27807],[38,27896],[38,27979],[38,28057],[38,28140],[38,28223],[38,28307],[38,28389],[38,28472]]",1,0,631.7029,634.2007,14.0625,1.9586,"[{""rating"":14.0625,""responseTime"":1.9585999999642354}]",space,1.9489,,634.2008,Half the time,50,634.2092,,,[],,0,2,2,2,1,audio/Narrative7Situation2.wav,audio/Narrative8Situation2.wav,audio/Narrative5Situation2.wav,audio/Narrative6Situation2.wav,3,3,3,3,,,,,,,,,,,,,,,,,,,,,,,,,,,,,,,,,,,,,,,
,,,,,,5efb31fa8cd32f04bf048643,2024-05-13_10h23.21.597,group3.1-3.2-social-tom,2023.2.2,Win32,60.60606061,65c5074098b851296ff0b7ed,6642304edda673a1ae35eca9,,,,,,,,,,,,,,,,,,,,,,,,,,,,,634.2099,2,audio/Narrative6Situation3.wav,639.218,,639.218,651.8345,"[[0.3,832],[0.3,916],[0.3,993],[0.3,1077],[0.3,1160],[0.3,1243],[0.3,1326],[0.3,1410],[0.3,1493],[0.3,1576],[0.3,1659],[0.3,1742],[0.3,1825],[0.3,1909],[0.3,1992],[0.3,2076],[0.3,2159],[0.3,2248],[0.3,2325],[0.3,2414],[0.3,2492],[0.3,2575],[0.3,2658],[0.3,2742],[0.3,2825],[0.3,2908],[0.3,2997],[0.3,3081],[0.3,3158],[0.3,3247],[0.3,3324],[0.3,3407],[0.3,3491],[0.3,3574],[0.3,3657],[0.3,3741],[0.3,3823],[0.3,3907],[0.3,3991],[0.3,4074],[0.3,4157],[0.3,4240],[0.3,4323],[0.3,4407],[0.3,4496],[0.3,4573],[8.2,4662],[24.2,4745],[25.2,4822],[25.2,4912],[25.2,4995],[50.5,5655],[51.5,5745],[52.3,5828],[52.6,5911],[52.8,5994],[53.4,6078],[54,6161],[54.1,6244],[54.7,6322],[56,6410],[57,6493],[57.8,6577],[58,6660],[58,6738],[58,6821],[58,6904],[58,6987],[58,7076],[58,7154],[58,7237],[58,7320],[58,7409],[58,7487],[58,7570],[59.2,7659],[59.5,7742],[59.5,7820],[59.5,7903],[59.7,7992],[59.7,8076],[59.7,8153],[59.7,8236],[59.7,8320],[59.7,8403],[59.7,8486],[59.7,8576],[59.7,8653],[59.7,8736],[59.7,8819],[59.7,8908],[59.7,8986],[59.7,9069],[59.7,9156],[59.7,9235],[59.7,9319],[59.7,9402],[59.7,9485],[59.7,9569],[59.7,9652],[59.7,9741],[59.7,9818],[59.7,9901],[59.7,9985],[59.7,10068],[59.7,10158],[63.3,10240],[66.9,10324],[69.1,10401],[72.3,11483],[76.1,11572],[78.7,11656],[80.9,11739],[82.6,11822],[84.5,11906],[85.9,11989],[88.4,12072],[89.4,12157],[89.4,12233],[89.4,12316],[89.4,12399],[89.4,12488],[89.4,12566]]",1,0,651.835,653.2494,92.08334287,0.9529,"[{""rating"":92.08334287007649,""responseTime"":0.9529000000356973}]",space,0.8675,,653.2495,Not at all,0,658.7111,0,4.9315,"[{""rating"":0.8333325386047363,""responseTime"":4.315999999999917},{""rating"":0,""responseTime"":4.9314999999999145}]",space,0,3,3,3,1,audio/Narrative7Situation3.wav,audio/Narrative8Situation3.wav,audio/Narrative5Situation3.wav,audio/Narrative6Situation3.wav,8,4,3,5,,,4.9185,,,,,,,,,,,,,,,,,,,,,,,,,,,,,,,,,,,,
,,,,,,5efb31fa8cd32f04bf048643,2024-05-13_10h23.21.597,group3.1-3.2-social-tom,2023.2.2,Win32,60.60606061,65c5074098b851296ff0b7ed,6642304edda673a1ae35eca9,,,,,,,,,,,,,,,,,,,,,,,,,,,,,658.7118,2,audio/Narrative6Situation4.wav,660.7259,,660.726,673.3531,"[[0.4,1248],[1.5,1338],[1.5,1414],[1.5,1498],[1.5,1581],[1.5,1670],[1.5,1748],[1.5,1831],[1.5,1914],[1.5,1998],[1.5,2081],[1.1,2164],[0.7,2247],[0.7,2331],[0.7,2414],[0.7,2497],[0.7,2584],[0.7,2663],[0.7,2753],[0.7,2830],[0.7,2914],[0.7,2997],[0.7,3080],[0.7,3163],[0.7,3246],[0.7,3330],[0.7,3419],[0.7,3496],[0.7,3579],[0.7,3662],[0.7,3746],[0.7,3829],[0.7,3913],[0.7,3996],[0.7,4079],[0.7,4169],[0.7,4245],[0.7,4329],[0.7,4412],[0.7,4495],[0.7,4578],[0.7,4662],[0.7,4745],[0.7,4828],[0.7,4918],[0.7,4994],[0.7,5084],[0.7,5161],[0.7,5245],[0.7,5328],[0.7,5411],[0.7,5494],[0.7,5577],[0.7,5661],[0.7,5744],[0.7,5827],[0.7,5911],[0.7,5994],[0.7,6077],[0.7,6161],[0.7,6243],[0.7,6327],[0.7,6410],[0.7,6493],[0.7,6576],[0.7,6660],[0.7,6743],[0.7,6827],[0.7,6909],[0.7,6993],[0.7,7076],[0.7,7159],[0.7,7243],[0.7,7326],[0.7,7409],[0.7,7492],[0.7,7578],[0.7,7658],[0.7,7742],[0.7,7831],[0.7,7910],[0.7,7992],[0.7,8075],[0.7,8158],[0.7,8242],[0.7,8325],[0.7,8408],[0.7,8491],[1.3,8580],[2,8665],[3.4,8747],[4.8,8830],[6.3,8913],[7.5,8997],[8.9,9080],[10.6,9163],[11.8,9246],[12,9324],[12,9413],[12,9490],[12,9574],[12,9657],[12,9740],[12,9823],[12,9907],[12,9990],[12,10080],[12,10157],[12,10240],[12,10329],[12,10406],[12,10490],[12,10573],[13,10662],[14,10745],[15.1,10829],[15.9,10912],[16.8,10995],[17.6,11078],[18.2,11155],[19.8,11245],[20.8,11328],[22.2,11411],[24.1,11494],[25.8,11572],[26.5,11661],[27.3,11746],[28.9,11827],[31.7,11911],[36,11994],[40.3,12077],[41.7,12160],[41.7,12238],[41.7,12321],[41.7,12404]]",1,0,673.3532,676.1012,31.25,2.4976,"[{""rating"":31.25,""responseTime"":2.4975999999642227}]",space,2.2113,,676.1013,Not at all,0,676.1034,,,[],,0,4,4,4,1,audio/Narrative7Situation4.wav,audio/Narrative8Situation4.wav,audio/Narrative5Situation4.wav,audio/Narrative6Situation4.wav,3,3,1,2,,,,,,,,,,,,,,,,,,,,,,,,,,,,,,,,,,,,,,,
,,,,,,5efb31fa8cd32f04bf048643,2024-05-13_10h23.21.597,group3.1-3.2-social-tom,2023.2.2,Win32,60.60606061,65c5074098b851296ff0b7ed,6642304edda673a1ae35eca9,,,,,,,,,,,,,,,,,,,,,,,,,,,,,676.1038,2,audio/Narrative6Situation5.wav,678.1098,,678.1099,686.0744,"[[21.6,1004],[12,1088],[7.2,1165],[4.8,1254],[1.8,1337],[1.7,1415],[1.6,1506],[2.1,1581],[3.3,1670],[3.6,1748],[3.6,1836],[3.6,1914],[3.6,1997],[3.6,2086],[3.6,2164],[3.6,2247],[3.6,2330],[3.6,2414],[3.6,2497],[3.6,2581],[3.6,2670],[3.6,2747],[3.6,2830],[3.6,2913],[3.6,2997],[3.6,3080],[3.6,3163],[3.6,3246],[3.6,3329],[3.6,3413],[3.6,3502],[3.6,3579],[3.6,3670],[3.6,3746],[3.6,3830],[3.6,3913],[3.6,3995],[3.6,4079],[3.6,4162],[3.6,4245],[3.6,4332],[3.6,4412],[3.6,4495],[3.6,4584],[3.6,4662],[3.6,4745],[3.6,4828],[3.6,4911],[3.6,4995],[3.6,5078],[3.6,5167],[3.6,5244],[3.6,5327],[3.6,5417],[3.6,5494],[3.6,5578],[3.6,5660],[3.6,5744],[3.6,5827],[3.6,5911],[3.6,6000],[3.6,6077],[3.6,6160],[3.6,6243],[3.6,6334],[3.6,6410],[3.6,6493],[3.6,6582],[3.6,6660],[3.6,6744],[3.6,6826],[3.6,6909],[4.6,6999],[5.5,7082],[7.8,7165],[10.5,7248],[15,7332],[19.6,7415],[23.8,7498],[25.8,7581],[26,7664],[27.1,7742],[33.1,7831]]",1,0,686.0745,687.9174,28.95833651,1.4496,"[{""rating"":28.95833651224772,""responseTime"":1.4495999999642208}]",space,1.3022,,687.9175,Not at all,0,687.9223,,,[],,0,5,5,5,1,audio/Narrative7Situation5.wav,audio/Narrative8Situation5.wav,audio/Narrative5Situation5.wav,audio/Narrative6Situation5.wav,5,2,5,2,,,,,,,,,,,,,,,,,,,,,,,,,,,,,,,,,,,,,,,
,,,,,,5efb31fa8cd32f04bf048643,2024-05-13_10h23.21.597,group3.1-3.2-social-tom,2023.2.2,Win32,60.60606061,65c5074098b851296ff0b7ed,6642304edda673a1ae35eca9,,,,,,,,,,,,,,,,,,,,,,,,,,,,,687.9227,2,audio/Narrative6Situation6.wav,689.9317,,689.9317,701.0216,"[[23.9,1088],[0.3,1914],[4,2004],[4.2,2081],[4.2,2164],[4.2,2248],[4.2,2331],[4.2,2414],[4.2,2498],[4.2,2581],[4.2,2664],[4.2,2753],[4.2,2830],[4.2,2913],[4.2,2997],[4.2,3080],[4.2,3169],[4.2,3247],[4.2,3330],[4.2,3413],[4.2,3497],[4.2,3580],[4.2,3663],[4.2,3746],[4.2,3830],[4.2,3913],[4.2,3996],[4.2,4079],[4.2,4163],[4.2,4246],[4.2,4329],[4.2,4412],[4.2,4496],[4.2,4586],[4.2,4662],[4.2,4752],[4.2,4828],[4.2,4912],[4.2,4995],[4.2,5078],[4.2,5162],[4.2,5245],[4.2,5328],[4.2,5411],[4.2,5495],[4.2,5578],[4.2,5668],[4.2,5745],[4.2,5828],[4.2,5911],[4.2,5994],[4.2,6077],[4.2,6160],[4.2,6244],[4.2,6327],[4.2,6410],[4.2,6494],[4.2,6577],[4.2,6660],[4.2,6743],[4.2,6826],[4.2,6910],[4.2,6997],[4.2,7077],[4.2,7160],[4.2,7243],[4.2,7333],[4.2,7410],[4.2,7493],[4.2,7576],[4.2,7659],[4.2,7743],[4.2,7826],[4.2,7909],[4.2,7992],[4.2,8081],[4.2,8158],[4.2,8242],[4.2,8325],[4.2,8408],[4.2,8491],[4.2,8575],[4.2,8658],[4.2,8742],[4.2,8825],[4.2,8908],[4.2,8998],[4.2,9075],[4.2,9158],[4.2,9241],[4.2,9324],[4.2,9413],[4.2,9491],[4.2,9574],[4.2,9658],[4.2,9740],[4.2,9824],[4.2,9907],[4.2,9990],[4.2,10080],[4.2,10158],[4.2,10240],[4.2,10323],[4.2,10407],[4.2,10490],[4.2,10573],[4.2,10663],[4.2,10740],[4.2,10823],[4.2,10906],[4.2,10989],[4.2,11073]]",1,0,701.022,702.3044,3.437499205,1.0173,"[{""rating"":3.437499205271405,""responseTime"":1.0173000000119146}]",space,0.74,,702.3045,All the time,100,702.3117,,,[],,0,6,6,6,1,audio/Narrative7Situation6.wav,audio/Narrative8Situation6.wav,audio/Narrative5Situation6.wav,audio/Narrative6Situation6.wav,3,2,3,2,,,,,,,,,,,,,,,,,,,,,,,,,,,,,,,,,,,,,,,
,,,,,,5efb31fa8cd32f04bf048643,2024-05-13_10h23.21.597,group3.1-3.2-social-tom,2023.2.2,Win32,60.60606061,65c5074098b851296ff0b7ed,6642304edda673a1ae35eca9,,,,,,,,,,,,,,,,,,,,,,,,,,,,,702.312,2,audio/Narrative6Situation7.wav,707.3158,,707.3159,732.1754,"[[3.1,1503],[3.1,1581],[3.1,1669],[3.1,1747],[3.1,1831],[3.1,1914],[9.3,2003],[12,2080],[12,2163],[12,2247],[12,2331],[12,2413],[12,2497],[12.8,2586],[13.5,2669],[14.9,2753],[15.6,2836],[16.7,2919],[17.4,3002],[18.1,3085],[18.6,3169],[19.2,3246],[19.9,3335],[20.6,3419],[21.9,3502],[31.8,12161],[32.5,12244],[33,12327],[33.1,12410],[33.1,12488],[34.4,12576],[35.1,12660],[35.1,12737],[35.1,12821],[35.1,12904],[35.1,12987],[35.1,13071],[35.1,13154],[35.1,13237],[35.1,13326],[35.1,13403],[35.1,13487],[35.1,13570],[35.1,13653],[35.1,13736],[35.1,13820],[35.1,13903],[35.1,13986],[35.1,14070],[35.1,14153],[35.1,14236],[35.1,14319],[35.1,14403],[35.1,14486],[35.1,14569],[35.1,14652],[35.1,14735],[35.1,14819],[35.1,14902],[35.1,14985],[35.1,15069],[35.1,15152],[35.1,15235],[35.1,15318],[35.1,15402],[35.1,15485],[35.1,15574],[35.1,15652],[35.1,15734],[35.1,15818],[35.1,15901],[35.1,15984],[35.1,16068],[35.1,16151],[35.1,16234],[35.1,16318],[35.1,16401],[35.1,16484],[35.1,16567],[38,16656],[41.6,16739],[44.7,16823],[49.6,16906],[54.9,16989],[58.5,17073],[58.8,17150],[58.8,17239],[58.8,17316],[58.8,17400],[58.8,17483],[59.1,17566],[63,17655],[65.7,17739],[69,17822],[71.4,17905],[72.8,17988],[76.8,19068],[76.8,19149],[76.9,19231],[77.1,19320],[77.8,19403],[77.9,19481],[78.1,19564],[78.4,19653],[79.4,19736],[80,19820],[80.5,19903],[81.5,19980],[81.7,20064],[82.3,20153],[82.3,20230],[82.3,20314],[82.3,20397],[82.3,20486],[82.3,20564],[82.3,20647],[82.3,20729],[82.3,20813],[82.3,20896],[82.3,20979],[82.3,21063],[82.3,21146],[82.3,21229],[82.3,21313],[82.3,21396],[82.3,21479],[82.3,21563],[82.3,21646],[82.3,21729],[82.3,21812],[82.3,21895],[82.3,21979],[82.3,22062],[82.3,22145],[82.3,22234],[82.3,22312],[82.3,22395],[82.3,22485],[82.3,22562],[82.3,22645],[82.3,22728],[82.3,22811],[82.3,22895],[82.3,22978],[82.3,23065],[82.3,23144],[82.3,23227],[82.3,23311],[82.3,23401],[82.3,23478],[82.3,23561],[82.3,23644],[82.3,23727],[82.3,23810],[82.3,23900],[82.3,23977],[82.3,24060],[82.3,24143],[82.3,24227],[82.3,24310],[83,24394],[84,24482],[84.2,24559],[84.2,24648],[84.2,24732],[84.2,24809]]",1,0,732.1755,733.798,48.22916985,1.3044,"[{""rating"":48.229169845581055,""responseTime"":1.3043999999762264}]",space,1.0672,,733.7982,Half the time,50,733.8047,,,[],,0,7,7,7,1,audio/Narrative7Situation7.wav,audio/Narrative8Situation7.wav,audio/Narrative5Situation7.wav,audio/Narrative6Situation7.wav,5,3,4,5,,,,,,,,,,,,,,,,,,,,,,,,,,,,,,,,,,,,,,,
,,,,,,5efb31fa8cd32f04bf048643,2024-05-13_10h23.21.597,group3.1-3.2-social-tom,2023.2.2,Win32,60.60606061,65c5074098b851296ff0b7ed,6642304edda673a1ae35eca9,,,,,,,,,,,,,,,,,,,,,,,,,,,,,733.8052,2,audio/Narrative6Situation8.wav,738.8201,,738.8202,745.6803,"[[44.5,670],[15,754],[0.6,837],[0.1,1081],[1.7,1164],[2.9,1254],[2.9,1330],[2.9,1414],[2.9,1503],[2.9,1580],[2.9,1664],[2.9,1747],[2.9,1831],[2.9,1914],[2.9,1997],[2.9,2080],[2.9,2170],[2.9,2247],[2.9,2330],[2.9,2413],[2.9,2496],[2.9,2579],[2.9,2663],[2.9,2746],[2.9,2830],[2.9,2913],[2.9,2996],[2.9,3079],[2.9,3169],[2.9,3246],[2.9,3329],[2.9,3413],[2.9,3496],[2.9,3579],[2.9,3662],[2.9,3745],[2.9,3829],[2.9,3918],[2.9,3999],[2.9,4078],[2.9,4161],[8.4,4250],[15.1,4334],[21.4,4417],[30.4,4500],[34.6,4583],[35.6,4667],[35.6,4744],[35.6,4834],[35.6,4911],[35.6,5000],[35.6,5078],[35.6,5167],[36.1,5244],[39.5,5333],[41.1,5416],[42.7,5500],[51.9,5749],[53.6,5832],[54.2,5910],[54.2,5993],[54.2,6076],[54.2,6159],[54.9,6249],[55.3,6332],[55.3,6409],[55.3,6498],[55.3,6576],[55.3,6659],[55.3,6743],[55.3,6826]]",1,0,745.6807,747.695,34.47916508,1.8077,"[{""rating"":34.47916507720947,""responseTime"":1.807699999988131}]",space,1.4671,,747.6951,Half the time,50,747.6997,,,[],,0,8,8,8,1,audio/Narrative7Situation8.wav,audio/Narrative8Situation8.wav,audio/Narrative5Situation8.wav,audio/Narrative6Situation8.wav,2,3,3,5,,,,,,,,,,,,,,,,,,,,,,,,,,,,,,,,,,,,,,,
,,,,,,5efb31fa8cd32f04bf048643,2024-05-13_10h23.21.597,group3.1-3.2-social-tom,2023.2.2,Win32,60.60606061,65c5074098b851296ff0b7ed,6642304edda673a1ae35eca9,,,,,,,,,,,,,,,,,,,,,,,,,,,,,747.7002,2,audio/Narrative6Situation9.wav,751.7075,,751.7076,761.6653,"[[20.3,1015],[0.5,1514],[2.2,1598],[2.3,1681],[2.3,1764],[2.3,1848],[2.3,1931],[2.3,2014],[2.3,2098],[2.3,2181],[2.3,2264],[2.3,2347],[2.3,2431],[2.3,2514],[2.3,2597],[2.3,2680],[2.3,2764],[2.3,2847],[2.3,2930],[2.3,3013],[2.3,3097],[2.3,3180],[2.3,3263],[2.3,3346],[2.3,3430],[2.3,3513],[2.3,3596],[2.3,3680],[2.3,3763],[2.3,3846],[2.3,3929],[2.3,4012],[2.3,4096],[2.3,4179],[2.3,4262],[2.3,4346],[2.3,4429],[2.3,4512],[2.3,4595],[2.3,4679],[2.3,4762],[2.3,4845],[2.3,4928],[2.3,5012],[2.3,5095],[2.3,5178],[2.3,5262],[2.3,5345],[2.3,5428],[2.3,5511],[2.3,5594],[2.3,5677],[2.3,5762],[2.3,5844],[2.3,5927],[2.3,6010],[2.3,6094],[2.3,6177],[2.3,6261],[2.3,6343],[2.3,6427],[2.3,6510],[2.3,6593],[2.3,6676],[2.3,6760],[2.3,6843],[2.3,6927],[2.3,7009],[2.3,7093],[2.3,7176],[2.3,7259],[2.3,7343],[2.3,7426],[2.3,7509],[2.3,7593],[2.3,7676],[2.3,7759],[2.3,7842],[2.3,7925],[2.3,8008],[2.3,8092],[2.3,8175],[2.3,8258],[2.3,8341],[2.3,8425],[2.3,8508],[2.3,8591],[2.3,8675],[2.3,8758],[2.3,8841],[2.3,8924],[2.3,9008],[2.3,9091],[2.3,9174],[2.3,9258],[2.3,9341],[2.3,9424],[2.3,9507],[2.3,9591],[2.3,9673],[2.3,9757],[2.3,9840],[2.3,9923]]",1,0,761.6656,771.2126,30.72916667,9.2404,"[{""rating"":2.2916674613952637,""responseTime"":0.7778999999761709},{""rating"":30.729166666666664,""responseTime"":9.240399999976148}]",space,9.0015,,771.2128,All the time,100,771.2194,,,[],,0,9,9,9,1,audio/Narrative7Situation9.wav,audio/Narrative8Situation9.wav,audio/Narrative5Situation9.wav,audio/Narrative6Situation9.wav,2,3,3,4,,,,,,,,,,,,,,,,,,,,,,,,,,,,,,,,,,,,,,,
,,,,,,5efb31fa8cd32f04bf048643,2024-05-13_10h23.21.597,group3.1-3.2-social-tom,2023.2.2,Win32,60.60606061,65c5074098b851296ff0b7ed,6642304edda673a1ae35eca9,,,,,,,,,,,,,,,,,,,,,,,,,,,,,771.22,2,audio/Narrative5Situation1.wav,776.2402,,776.2402,789.5225,"[[29.6,916],[25.7,999],[19.9,1082],[13.9,1165],[10.1,1249],[4.9,1332],[0.9,1415]]",1,0,789.5229,791.737,0.208334128,1.7033,"[{""rating"":0.2083341280619322,""responseTime"":1.70330000001195}]",space,1.6666,,791.737,Not at all,0,791.7422,,,[],,0,10,10,10,1,audio/Narrative8Situation1.wav,audio/Narrative7Situation1.wav,audio/Narrative6Situation1.wav,audio/Narrative5Situation1.wav,5,2,2,5,,,,,,,,,,,,,,,,,,,,,,,,,,,,,,,,,,,,,,,
,,,,,,5efb31fa8cd32f04bf048643,2024-05-13_10h23.21.597,group3.1-3.2-social-tom,2023.2.2,Win32,60.60606061,65c5074098b851296ff0b7ed,6642304edda673a1ae35eca9,,,,,,,,,,,,,,,,,,,,,,,,,,,,,791.7425,2,audio/Narrative5Situation2.wav,794.7508,,794.7508,824.2237,"[[0.1,499],[0.1,582],[0.1,665],[0.1,749],[0.1,832],[0.1,915],[0.1,999],[0.1,1081],[0.5,1164],[0.5,1248],[1,1331],[1,1414],[1,1497],[1,1581],[1,1664],[1,1748],[1,1831],[1,1914],[1,1998],[1,2081],[1,2164],[1,2247],[1,2331],[1,2414],[1,2497],[1,2580],[1,2664],[1,2747],[1,2830],[1,2914],[1,2997],[1,3080],[1,3163],[1,3246],[1,3330],[1,3413],[1,3496],[1,3579],[1,3663],[1,3746],[1,3829],[1,3913],[1,3996],[1,4079],[1,4162],[1,4245],[1,4329],[1,4412],[1,4495],[1,4579],[1,4661],[1,4745],[1,4828],[1,4911],[1,4995],[1,5078],[1,5161],[1,5244],[1,5327],[1,5410],[1,5494],[1,5577],[1,5660],[1,5744],[1,5827],[1,5911],[1,5994],[1,6077],[1,6160],[1,6244],[1,6327],[1,6410],[1,6494],[1,6576],[1,6660],[1,6743],[1,6826],[1,6910],[1,6993],[1,7076],[1,7160],[1,7243],[1,7326],[1,7409],[1,7492],[1,7575],[3,7658],[7,7742],[13.8,7825],[15.3,7908],[15.3,7992],[15.3,8075],[15.3,8158],[26.7,8241],[31.8,8325],[31.8,8408],[31.8,8491],[31.8,8575],[50.1,9324],[49.7,9407],[49.9,9490],[51.3,9573],[53.2,9657],[54.7,9740],[55.7,9823],[55.9,9906],[55.9,9990],[55.9,10073],[55.9,10157],[55.9,10240],[55.9,10323],[55.9,10406],[55.9,10490],[55.9,10573],[55.9,10656],[55.9,10740],[55.9,10822],[55.9,10906],[55.9,10989],[55.9,11072],[55.9,11156],[55.9,11239],[55.9,11322],[55.9,11405],[55.9,11489],[55.9,11572],[55.9,11655],[55.9,11738],[55.9,11822],[55.9,11905],[55.9,11989],[55.9,12072],[55.9,12155],[55.9,12238],[55.9,12321],[55.9,12404],[55.9,12488],[55.9,12571],[55.9,12654],[55.9,12738],[55.9,12821],[55.9,12904],[55.9,12987],[55.9,13071],[55.9,13154],[55.9,13237],[55.9,13320],[55.9,13403],[55.9,13487],[55.9,13570],[55.9,13653],[55.9,13736],[55.9,13820],[55.9,13903],[55.9,13986],[55.9,14069],[55.9,14153],[55.9,14236],[55.9,14319],[55.9,14403],[55.9,14486],[55.9,14569],[55.9,14652],[55.9,14736],[55.9,14819],[55.9,14902],[55.9,14985],[55.9,15069],[55.9,15152],[55.9,15235],[55.9,15318],[55.9,15401],[55.9,15485],[55.9,15568],[55.9,15651],[55.9,15735],[55.9,15818],[55.9,15901],[55.9,15984],[56.6,16067],[57.7,16151],[58.9,16234],[59.6,16317],[59.6,16400],[59.6,16484],[59.6,16567],[59.6,16651],[59.6,16734],[59.6,16817],[59.6,16900],[59.6,16984],[59.6,17067],[59.6,17150],[59.6,17237],[59.6,17317],[59.6,17400],[59.6,17483],[59.6,17567],[59.6,17650],[59.6,17733],[59.6,17816],[59.6,17899],[59.6,17983],[59.6,18066],[59.6,18149],[59.6,18233],[59.6,18316],[59.6,18399],[59.6,18482],[59.6,18565],[59.6,18649],[59.6,18732],[59.6,18815],[59.6,18898],[59.6,18982],[59.6,19065],[59.6,19149],[59.6,19232],[59.6,19314],[59.6,19398],[59.6,19481],[59.6,19564],[59.6,19648],[59.6,19731],[59.6,19814],[59.6,19897],[59.6,19981],[59.6,20064],[59.6,20148],[59.6,20230],[59.6,20314],[59.6,20397],[59.6,20481],[59.6,20563],[64.3,20647],[68,20730],[71.9,20813],[73.3,20896],[75.6,20980],[79.6,21063],[80.9,21146],[81.1,21229],[81.1,21313],[81.1,21396],[81.1,21479],[81.1,21562],[81.1,21646],[81.1,21729],[81.1,21812],[81.1,21895],[81.1,21979],[81.1,22062],[81.1,22145],[81.1,22228],[81.1,22312],[81.1,22395],[81.1,22478],[81.1,22562],[81.1,22645],[81.1,22728],[81.1,22811],[81.1,22895],[81.1,22978],[81.1,23061],[81.1,23144],[81.1,23228],[81.1,23311],[81.1,23394],[81.1,23478],[81.1,23560],[81.1,23644],[81.1,23727],[81.1,23810],[81.1,23894],[81.1,23977],[81.1,24060],[81.1,24144],[81.1,24227],[81.1,24309],[81.1,24394],[81.1,24476],[81.1,24560],[81.1,24643],[81.1,24727],[81.1,24810],[81.1,24893],[81.1,24976],[81.1,25059],[81.1,25143],[81.1,25226],[81.1,25309],[81.1,25393],[81.1,25476],[81.1,25559],[81.1,25642],[81.1,25725],[81.1,25808],[81.1,25892],[81.1,25975],[81.1,26058],[81.1,26142],[81.1,26225],[81.1,26308],[81.5,26391],[81.7,26474],[82.1,26558],[82.1,26641],[82.2,26724],[82.3,26807]]",1,0,824.224,825.8788,73.02083174,1.3047,"[{""rating"":73.02083174387613,""responseTime"":1.30470000004766}]",space,1.1077,,825.8789,All the time,100,825.8857,,,[],,0,11,11,11,1,audio/Narrative8Situation2.wav,audio/Narrative7Situation2.wav,audio/Narrative6Situation2.wav,audio/Narrative5Situation2.wav,3,3,3,3,,,,,,,,,,,,,,,,,,,,,,,,,,,,,,,,,,,,,,,
,,,,,,5efb31fa8cd32f04bf048643,2024-05-13_10h23.21.597,group3.1-3.2-social-tom,2023.2.2,Win32,60.60606061,65c5074098b851296ff0b7ed,6642304edda673a1ae35eca9,,,,,,,,,,,,,,,,,,,,,,,,,,,,,825.8862,2,audio/Narrative5Situation3.wav,828.9022,,828.9024,842.822,"[[52.4,837],[4.1,4168],[15.7,4251],[20.7,4334],[25.4,4418],[29.7,4501],[40.1,4584],[40.1,4661],[40.1,4745],[40.1,4828],[40.1,4911],[40.1,4995],[40.1,5084],[40.1,5161],[40.1,5244],[40.1,5327],[40.1,5410],[40.1,5494],[40.1,5577],[40.1,5667],[40.1,5744],[40.1,5833],[40.1,5917],[40.9,5999],[41.7,6083],[42.9,6166],[44.8,6249],[47.4,6333],[47.4,6410],[47.4,6493],[47.4,6576],[47.4,6660],[47.4,6743],[47.4,6826],[47.4,6910],[47.4,6993],[47.4,7076],[47.4,7159],[47.4,7243],[47.4,7326],[47.4,7409],[47.4,7492],[47.4,7575],[47.4,7658],[47.4,7748],[47.4,7825],[48.4,7914],[49.2,7998],[49.8,8075],[50.9,8164],[51.3,8248],[51.3,8330],[51.3,8414],[51.3,8491],[51.3,8574],[51.3,8658],[51.3,8741],[51.3,8824],[51.3,8908],[51.3,8991],[51.3,9074],[51.3,9157],[51.3,9240],[51.3,9324],[51.3,9414],[51.3,9490],[52,9579],[54.4,9662],[56.8,9746],[60,9829],[62.6,9912],[64.9,9996],[66.9,10079],[69,10156],[70.2,10246],[71.4,10323],[71.9,10409],[71.9,10489],[71.9,10573],[71.9,10656],[71.9,10739],[71.9,10822],[73.2,10911],[74.4,10994],[75.7,11078],[76.8,11161],[77.6,11244],[78.4,11328],[78.9,11405],[78.9,11494],[78.9,11572],[78.9,11661],[78.9,11738],[78.9,11822],[78.9,11905],[78.9,11988],[78.9,12071],[78.9,12155],[78.9,12238],[78.9,12321],[78.9,12405],[78.9,12487],[78.9,12571],[78.9,12654],[78.9,12737],[78.9,12820],[78.9,12904],[78.9,12987],[78.9,13070],[78.9,13154],[78.9,13237],[78.9,13326],[78.9,13403],[78.9,13486],[78.9,13577],[78.9,13653],[78.9,13737],[78.9,13820],[78.9,13903]]",1,0,842.8222,844.8706,86.3541762,1.7705,"[{""rating"":86.35417620340984,""responseTime"":1.77049999999997}]",space,1.4992,,844.8707,Not at all,0,844.8776,,,[],,0,12,12,12,1,audio/Narrative8Situation3.wav,audio/Narrative7Situation3.wav,audio/Narrative6Situation3.wav,audio/Narrative5Situation3.wav,4,8,5,3,,,,,,,,,,,,,,,,,,,,,,,,,,,,,,,,,,,,,,,
,,,,,,5efb31fa8cd32f04bf048643,2024-05-13_10h23.21.597,group3.1-3.2-social-tom,2023.2.2,Win32,60.60606061,65c5074098b851296ff0b7ed,6642304edda673a1ae35eca9,,,,,,,,,,,,,,,,,,,,,,,,,,,,,844.878,2,audio/Narrative5Situation4.wav,845.8868,,845.8869,866.284,"[[29.8,1170],[22.7,1253],[20.4,1337],[18.5,1420],[13.3,1503],[8.9,1587],[7.9,1669],[7.9,1747],[7.9,1831],[3,1919],[15.6,5999],[20.9,6076],[20.9,6160],[20.9,6243],[29.9,6332],[45.8,6416],[45.8,6492],[45.8,6582],[45.8,6665],[56,6748],[59.1,7997],[57.9,8080],[57.7,8163],[59,8247],[59.6,8324],[59.6,8413],[59.6,8491],[59.6,8580],[59.6,8657],[59.6,8741],[59.6,8824],[59.6,8907],[59.6,8990],[60.4,9079],[60.9,9162],[61.8,9245],[62.5,9329],[63.2,9407],[63.5,9495],[63.5,9579],[64,9663],[64.1,9745],[64.1,9823],[64.1,9913],[64.1,9995],[64.1,10073],[64.1,10156],[64.1,10245],[64.1,10322],[64.1,10412],[64.1,10489],[64.1,10572],[64.1,10655],[64.1,10739],[64.1,10822],[64.1,10906],[64.1,10988],[64.1,11072],[64.3,11155],[64.3,11238],[64.4,11321],[65.7,11411],[66.4,11494],[66.8,11577],[66.8,11654],[66.8,11744],[66.8,11821],[66.8,11904],[66.8,11993],[66.8,12071],[66.8,12154],[66.8,12237],[66.8,12321],[66.8,12410],[66.8,12487],[66.8,12570],[66.8,12659],[66.8,12743],[66.8,12820],[66.8,12903],[66.8,12987],[66.8,13070],[66.8,13153],[66.8,13243],[66.8,13320],[66.8,13403],[66.8,13492],[66.8,13570],[66.8,13653],[66.8,13736],[66.8,13819],[66.8,13903],[66.8,13986],[66.8,14069],[66.8,14152],[66.8,14235],[66.8,14319],[66.8,14402],[66.8,14485],[66.8,14574],[66.8,14652],[66.8,14735],[66.8,14818],[66.8,14901],[66.8,14991],[66.8,15068],[67,15164],[67.2,15240],[67.4,15324],[67.7,15401],[68.2,15490],[68.4,15567],[68.8,15656],[69.7,15742],[70.4,15824],[70.8,15900],[71.4,15990],[72.2,16073],[73.1,16156],[74.4,16239],[75.5,16322],[76.4,16406],[77.1,16483],[77.9,16566],[78.5,16656],[79.2,16733],[79.6,16816],[80.1,16905],[80.6,16983],[80.6,17066],[80.6,17149],[80.6,17233],[80.6,17316],[80.6,17399],[80.6,17482],[80.6,17566],[80.6,17649],[80.6,17733],[80.6,17816],[80.6,17899],[80.6,17982],[80.6,18071],[81,18154],[82,18237],[82.6,18321],[83.2,18404],[83.3,18481],[83.9,18564],[84.5,18654],[84.5,18732],[84.9,18820],[84.9,18898],[84.9,18981],[84.9,19064],[85.3,19153],[85.4,19230],[85.4,19314],[85.4,19403],[85.4,19481],[85.4,19564],[85.4,19647],[85.4,19730],[85.4,19814],[85.4,19903],[85.4,19987],[85.4,20064],[85.4,20146],[85.4,20230],[85.4,20319],[85.4,20396]]",1,0,866.2846,867.5732,87.70833015,0.9282,"[{""rating"":87.70833015441895,""responseTime"":0.9281999999881236}]",space,0.7187,,867.5733,Not at all,0,867.5769,,,[],,0,13,13,13,1,audio/Narrative8Situation4.wav,audio/Narrative7Situation4.wav,audio/Narrative6Situation4.wav,audio/Narrative5Situation4.wav,3,3,2,1,,,,,,,,,,,,,,,,,,,,,,,,,,,,,,,,,,,,,,,
,,,,,,5efb31fa8cd32f04bf048643,2024-05-13_10h23.21.597,group3.1-3.2-social-tom,2023.2.2,Win32,60.60606061,65c5074098b851296ff0b7ed,6642304edda673a1ae35eca9,,,,,,,,,,,,,,,,,,,,,,,,,,,,,867.5774,2,audio/Narrative5Situation5.wav,872.5782,,872.5784,888.0141,"[[64.4,265],[62,348],[59.5,432],[0.8,1014],[1.3,1098],[1.3,1181],[1.3,1264],[1.4,1347],[1.5,1431],[1.5,1514],[1.5,1597],[1.5,1681],[1.5,1764],[1.5,1847],[1.5,1930],[1.5,2014],[1.5,2097],[1.5,2181],[1.5,2264],[1.5,2347],[1.5,2430],[1.5,2513],[1.5,2597],[1.5,2680],[1.5,2763],[1.5,2846],[1.5,2930],[1.5,3013],[1.5,3096],[1.5,3180],[1.5,3263],[1.5,3346],[1.5,3430],[1.5,3513],[1.5,3596],[1.5,3679],[1.5,3762],[1.5,3845],[1.5,3929],[1.5,4012],[1.5,4095],[1.5,4178],[1.5,4262],[1.5,4345],[1.5,4428],[1.5,4512],[1.5,4595],[1.5,4678],[1.5,4761],[1.5,4845],[1.5,4928],[1.5,5011],[1.5,5095],[1.5,5177],[1.5,5261],[1.5,5344],[1.5,5428],[1.5,5511],[1.5,5594],[1.5,5677],[1.5,5760],[1.5,5843],[1.5,5927],[1.5,6010],[1.5,6093],[1.5,6177],[1.5,6260],[1.5,6343],[1.5,6427],[1.5,6510],[1.5,6592],[1.5,6677],[1.5,6759],[1.5,6842],[1.5,6926],[1.5,7009],[1.5,7092],[1.5,7176],[1.5,7259],[1.5,7342],[1.5,7425],[1.5,7509],[1.5,7592],[1.5,7675],[1.5,7759],[1.5,7841],[1.5,7925],[1.5,8008],[1.5,8091],[1.5,8175],[1.5,8258],[1.5,8341],[1.5,8424],[1.5,8508],[1.5,8591],[1.5,8674],[1.5,8758],[1.5,8841],[1.5,8924],[1.5,9007],[1.5,9091],[1.5,9173],[1.5,9257],[1.5,9340],[1.5,9423],[1.5,9507],[1.5,9590],[1.5,9673],[1.8,9757],[1.8,9839],[1.8,9923],[1.8,10007],[1.8,10090],[1.8,10173],[1.8,10256],[1.8,10340],[1.8,10423],[1.8,10506],[1.8,10589],[1.8,10673],[1.8,10756],[1.8,10839],[1.8,10922],[1.8,11006],[1.8,11089],[1.8,11172],[1.8,11255],[1.8,11338],[1.8,11422],[1.8,11506],[1.8,11588],[1.8,11671],[1.8,11755],[1.8,11838],[1.8,11921],[1.8,12004],[1.8,12088],[1.8,12171],[1.8,12254],[1.8,12337],[1.8,12420],[1.8,12504],[1.8,12587],[1.8,12670],[1.8,12754],[5.2,12837],[11.8,12920],[17.9,13003],[26.8,13087],[30.7,13170],[31.9,13253],[34.3,13336],[39.1,13420],[42,13503],[43.8,13586],[46.4,13669],[47.8,13753],[48.6,13836],[49.6,13919],[50.5,14003],[52.1,14086],[52.8,14169],[52.9,14252],[53,14336],[53,14419],[53,14502],[53,14585],[53,14669],[53,14752],[53,14835],[53,14919],[53,15002],[53,15085],[53,15168],[53,15252],[53,15335],[53,15418]]",1,0,888.0144,889.2958,54.27083174,0.8542,"[{""rating"":54.27083174387614,""responseTime"":0.8541999999881682}]",space,0.7347,,889.2959,Half the time,50,889.3037,,,[],,0,14,14,14,1,audio/Narrative8Situation5.wav,audio/Narrative7Situation5.wav,audio/Narrative6Situation5.wav,audio/Narrative5Situation5.wav,2,5,2,5,,,,,,,,,,,,,,,,,,,,,,,,,,,,,,,,,,,,,,,
,,,,,,5efb31fa8cd32f04bf048643,2024-05-13_10h23.21.597,group3.1-3.2-social-tom,2023.2.2,Win32,60.60606061,65c5074098b851296ff0b7ed,6642304edda673a1ae35eca9,,,,,,,,,,,,,,,,,,,,,,,,,,,,,889.3042,2,audio/Narrative5Situation6.wav,892.3098,,892.3099,897.9878,"[[32.8,582],[8.6,665],[4.8,748],[3,831]]",1,0,897.988,900.502,1.250000795,2.3194,"[{""rating"":1.2500007947285952,""responseTime"":2.319399999976099}]",space,1.9659,,900.5022,Not at all,0,900.5099,,,[],,0,15,15,15,1,audio/Narrative8Situation6.wav,audio/Narrative7Situation6.wav,audio/Narrative6Situation6.wav,audio/Narrative5Situation6.wav,2,3,2,3,,,,,,,,,,,,,,,,,,,,,,,,,,,,,,,,,,,,,,,
,,,,,,5efb31fa8cd32f04bf048643,2024-05-13_10h23.21.597,group3.1-3.2-social-tom,2023.2.2,Win32,60.60606061,65c5074098b851296ff0b7ed,6642304edda673a1ae35eca9,,,,,,,,,,,,,,,,,,,,,,,,,,,,,900.5105,2,audio/Narrative5Situation7.wav,904.5149,,904.5149,925.5617,"[[1.4,1581],[1.4,1664],[1.4,1753],[1.4,1831],[1.4,1914],[1.4,1997],[1.4,2081],[1.4,2171],[1.4,2247],[1.4,2337],[1.4,2414],[1.4,2497],[1.4,2586],[1.4,2663],[1.4,2747],[1.4,2830],[1.4,2914],[1.4,2996],[1.4,3080],[1.4,3169],[1.4,3246],[1.4,3329],[1.4,3413],[1.4,3496],[1.4,3579],[1.4,3663],[1.4,3746],[1.4,3829],[1.4,3913],[1.4,4001],[1.4,4079],[1.4,4163],[1.4,4245],[1.4,4328],[1.4,4412],[1.4,4495],[1.4,4578],[1.4,4662],[1.4,4751],[1.4,4828],[1.4,4912],[1.4,5000],[1.4,5084],[1.4,5161],[1.4,5245],[1.4,5328],[1.4,5411],[1.4,5494],[1.4,5577],[1.4,5666],[1.4,5744],[1.4,5834],[1.4,5911],[1.4,5994],[1.4,6077],[1.4,6160],[1.4,6244],[1.4,6327],[1.4,6410],[1.4,6493],[1.4,6577],[1.4,6660],[1.4,6743],[1.4,6826],[1.4,6910],[1.4,6993],[1.4,7076],[1.4,7159],[1.4,7243],[1.4,7332],[1.4,7409],[4.6,7498],[6,7575],[9.1,7665],[12.4,7748],[15.1,7831],[16.5,7914],[17.5,7998],[18.4,8081],[19.3,8164],[21,8247],[23.3,8330],[24.5,8408],[24.5,8491],[24.5,8575],[24.5,8658],[24.5,8741],[24.5,8825],[24.5,8908],[24.5,8991],[24.5,9074],[24.5,9164],[24.5,9241],[24.5,9324],[24.5,9407],[24.5,9490],[24.5,9574],[24.5,9657],[24.5,9740],[24.5,9827],[24.5,9907],[25.3,9995],[27.9,10079],[29.6,10162],[32,10245],[34.6,10329],[37.5,10412],[40.4,10495],[42.5,10578],[45.4,10662],[45.8,10739],[45.8,10822],[45.8,10906],[45.8,10989],[45.8,11072],[45.8,11156],[45.8,11239],[46.4,11328],[48.3,11411],[49.4,11494],[50.3,11577],[51,11661],[51.8,11738],[53,11827],[54.8,11910],[55.6,11994],[55.7,12077],[55.7,12154],[55.7,12244],[55.7,12321],[55.7,12405],[55.7,12488],[55.7,12571],[55.7,12654],[55.7,12737],[55.7,12820],[55.7,12904],[55.7,12987],[55.7,13070],[55.7,13154],[55.7,13237],[55.7,13320],[55.7,13404],[55.7,13487],[55.7,13570],[55.7,13660],[55.7,13736],[55.7,13819],[55.7,13903],[55.7,13992],[55.7,14069],[55.7,14153],[55.7,14242],[55.7,14319],[55.7,14403],[55.7,14486],[55.7,14569],[56.1,14658],[56.3,14735],[56.5,14819],[56.5,14902],[56.5,14985],[56.5,15069],[56.5,15152],[56.5,15235],[56.5,15319],[56.5,15402],[56.5,15485],[56.5,15574],[56.5,15658],[56.5,15735],[56.5,15824],[56.5,15901],[56.5,15984],[56.5,16068],[56.5,16151],[56.5,16235],[56.5,16317],[56.5,16400],[56.5,16490],[57.3,16573],[58.3,16656],[59.7,16740],[61.5,16823],[62.7,16906],[63.9,16983],[64.5,17073],[65.1,17155],[65.3,17240],[65.3,17316],[65.3,17400],[65.3,17483],[65.3,17566],[65.3,17650],[65.3,17733],[65.3,17816],[65.3,17899],[65.3,17983],[65.3,18066],[65.3,18149],[65.3,18232],[65.3,18316],[65.3,18399],[65.3,18482],[65.3,18565],[65.3,18649],[65.3,18732],[65.3,18815],[65.3,18907],[65.3,18982],[65.3,19065],[65.3,19154],[65.3,19231],[65.3,19320],[65.3,19398],[65.3,19481],[65.3,19565],[65.3,19647],[65.3,19737],[65.3,19814],[65.3,19897],[65.6,19986],[66.7,20070],[67.4,20153],[67.7,20236],[67.7,20314],[67.7,20397],[67.7,20480],[67.7,20563],[67.7,20647],[68.6,20736],[69.1,20813],[69.1,20896],[69.1,20980]]",1,0,925.5619,926.8172,74.06249841,1.0544,"[{""rating"":74.06249841054282,""responseTime"":1.0543999999761127}]",space,0.7013,,926.8174,Half the time,50,926.8233,,,[],,0,16,16,16,1,audio/Narrative8Situation7.wav,audio/Narrative7Situation7.wav,audio/Narrative6Situation7.wav,audio/Narrative5Situation7.wav,3,5,5,4,,,,,,,,,,,,,,,,,,,,,,,,,,,,,,,,,,,,,,,
,,,,,,5efb31fa8cd32f04bf048643,2024-05-13_10h23.21.597,group3.1-3.2-social-tom,2023.2.2,Win32,60.60606061,65c5074098b851296ff0b7ed,6642304edda673a1ae35eca9,,,,,,,,,,,,,,,,,,,,,,,,,,,,,926.8239,2,audio/Narrative5Situation8.wav,929.8248,,929.8249,938.6498,"[[71.4,832],[34.7,920],[20.7,1004],[13.4,1087],[5.8,1170]]",1,0,938.65,940.8142,10.62500079,1.5504,"[{""rating"":10.625000794728596,""responseTime"":1.5503999999762073}]",space,1.6216,,940.8143,Half the time,50,940.8188,,,[],,0,17,17,17,1,audio/Narrative8Situation8.wav,audio/Narrative7Situation8.wav,audio/Narrative6Situation8.wav,audio/Narrative5Situation8.wav,3,2,5,3,,,,,,,,,,,,,,,,,,,,,,,,,,,,,,,,,,,,,,,
,,,,,,5efb31fa8cd32f04bf048643,2024-05-13_10h23.21.597,group3.1-3.2-social-tom,2023.2.2,Win32,60.60606061,65c5074098b851296ff0b7ed,6642304edda673a1ae35eca9,,,,,,,,,,,,,,,,,,,,,,,,,,,,,940.8194,2,audio/Narrative5Situation9.wav,943.8284,,943.8284,983.3751,"[[9.6,998],[6.6,1081],[3.2,1164],[1.8,1248],[1.5,1331],[1,1415],[1,1499],[1,1581],[1,1664],[1,1748],[1,1831],[1,1914],[1,1998],[1,2081],[1,2164],[1,2247],[1,2331],[1,2414],[1,2496],[1,2580],[1,2663],[1,2747],[1,2830],[1,2913],[1,2996],[1,3079],[1,3162],[1,3246],[1,3330],[1,3413],[1,3496],[1,3580],[1,3663],[1,3746],[1,3829],[1,3912],[1,3996],[1,4079],[1,4162],[1,4245],[1,4328],[1,4412],[1,4495],[1,4578],[1,4662],[1,4745],[1,4828],[1,4911],[1,4995],[1,5078],[1,5161],[1,5244],[1,5327],[1,5411],[1,5494],[1,5577],[1,5660],[1,5744],[1,5827],[1,5911],[1,5994],[1,6077],[1,6161],[1,6243],[1,6333],[1,6410],[1,6493],[1,6576],[1,6659],[1,6743],[1,6827],[1,6910],[1,6993],[1,7076],[1,7159],[1,7243],[1,7326],[1,7409],[1,7492],[1,7575],[1,7659],[1,7742],[1,7825],[1,7909],[1,7992],[1,8075],[1,8159],[1,8242],[1,8325],[1,8408],[1,8491],[1,8575],[1,8658],[1,8741],[1,8824],[1,8908],[1,8991],[1,9074],[1,9157],[1,9241],[1,9324],[1,9407],[1,9490],[1,9574],[1,9657],[1,9740],[1,9823],[1,9907],[1,9990],[1,10073],[1,10156],[1,10240],[1,10323],[1,10406],[1,10490],[1,10573],[1,10656],[1,10740],[1,10823],[1,10906],[1,10989],[1,11072],[1,11155],[1,11239],[1,11322],[1,11405],[1,11489],[1,11572],[1,11655],[1,11739],[1,11822],[1,11905],[1,11988],[1,12071],[1,12155],[1,12238],[1,12321],[1,12404],[1,12487],[1,12571],[1,12654],[1,12737],[2.2,12821],[3,12904],[3.5,12987],[5.3,13070],[7.9,13153],[10,13237],[11.6,13319],[11.6,13403],[11.6,13486],[11.6,13570],[11.6,13653],[11.6,13737],[11.6,13820],[11.6,13903],[11.6,13986],[11.6,14069],[11.6,14153],[11.6,14236],[11.6,14320],[11.6,14403],[11.6,14486],[11.6,14569],[11.6,14652],[11.6,14735],[11.6,14819],[11.6,14902],[11.6,14985],[11.6,15068],[11.6,15152],[11.6,15236],[11.6,15318],[11.6,15401],[13.4,15485],[18.4,15568],[23,15651],[23,15735],[23,15818],[23,15901],[23,15984],[23,16068],[23,16151],[23,16234],[23,16317],[23,16401],[23,16484],[23,16567],[23,16650],[23,16733],[23,16817],[23,16900],[23,16983],[23,17067],[23,17150],[23,17233],[23,17316],[23,17400],[23,17483],[23,17566],[23,17649],[23,17732],[23,17816],[23,17899],[23,17983],[23,18066],[23,18149],[23,18232],[23,18316],[23,18399],[23,18482],[23,18565],[23,18649],[23,18732],[23,18815],[23,18899],[26.7,18981],[33.8,19064],[44.2,19148],[47.3,19231],[47.3,19314],[47.3,19398],[47.3,19481],[47.3,19565],[54.5,19647],[56.7,19731],[56.7,19814],[56.7,19897],[56.7,19980],[56.7,20064],[58.3,20147],[59.6,20230],[60.4,20313],[61.4,20397],[62.5,20480],[63.5,20563],[64.4,20646],[65,20730],[65.8,20813],[66.6,20897],[67.1,20980],[67.4,21063],[67.4,21146],[67.4,21230],[67.4,21313],[67.4,21396],[67.4,21480],[67.4,21563],[67.4,21646],[67.4,21729],[67.4,21812],[67.4,21896],[67.4,21979],[67.4,22062],[67.4,22145],[67.4,22228],[68.1,22311],[70.2,22395],[71.9,22478],[72.1,22562],[72.1,22645],[72.1,22728],[72.1,22811],[72.1,22895],[72.1,22978],[72.1,23061],[72.1,23144],[72.1,23228],[72.1,23311],[72.1,23394],[72.1,23477],[72.1,23561],[72.1,23644],[72.1,23727],[72.1,23810],[72.1,23894],[72.1,23977],[72.1,24059],[72.2,24143],[74.3,24226],[75.4,24309],[76.6,24393],[76.9,24476],[77.5,24559],[78.1,24642],[78.1,24726],[78.1,24809],[78.1,24892],[78.1,24976],[78.1,25059],[78.1,25142],[78.1,25226],[78.1,25309],[78.1,25393],[78.1,25476],[78.1,25559],[78.1,25642],[78.1,25725],[78.1,25808],[78.1,25891],[78.1,25975],[78.1,26058],[78.1,26142],[78.1,26225],[78.1,26308],[78.1,26391],[78.1,26475],[78.1,26558],[78.1,26641],[78.1,26725],[78.1,26808],[78.1,26891],[78.1,26974],[78.1,27057],[78.1,27140],[78.1,27224],[78.1,27307],[78.1,27390],[78.1,27474],[78.1,27557],[78.1,27640],[78.1,27723],[78.1,27807],[78.1,27890],[78.1,27973],[78.1,28056],[78.1,28139],[78.1,28223],[78.1,28306],[78.1,28390],[78.1,28473],[78.1,28556],[78.1,28639],[78.1,28722],[78.1,28806],[78.1,28889],[78.1,28972],[78.1,29055],[78.1,29139],[78.1,29222],[78.1,29305],[78.1,29388],[78.1,29472],[78.1,29555],[78.1,29638],[78.1,29721],[78.1,29805],[78.1,29888],[78.1,29971],[78.1,30055],[78.1,30138],[78.1,30221],[78.1,30304],[78.1,30387],[78.1,30471],[78.1,30554],[78.1,30637],[78.1,30721],[78.1,30804],[78.1,30887],[78.1,30970],[78.1,31054],[78.1,31137],[78.1,31220],[79.1,31303],[80.2,31386],[81.3,31470],[81.8,31553],[81.8,31636],[81.8,31720],[81.8,31803],[81.8,31886],[81.8,31970],[81.8,32053],[81.8,32136],[81.8,32219],[81.8,32302],[81.8,32386],[81.8,32469],[81.8,32552],[81.8,32636],[81.8,32719],[81.8,32802],[81.8,32885],[81.8,32969],[81.8,33051],[81.8,33135],[81.8,33218],[81.8,33301],[81.8,33385],[81.8,33468],[81.8,33551],[81.8,33635],[81.8,33718],[81.8,33801],[81.8,33884],[81.8,33967],[81.8,34051],[81.8,34134],[81.8,34217],[81.8,34301],[81.8,34384],[81.8,34467],[81.8,34550],[81.8,34634],[81.8,34717],[81.8,34800],[81.8,34883],[81.8,34967],[81.8,35050],[81.8,35133],[81.8,35217],[81.8,35299],[81.8,35383],[81.8,35466],[81.8,35550],[81.8,35633],[81.8,35716],[81.8,35799],[81.8,35882],[81.8,35966],[81.8,36049],[81.8,36132],[81.8,36215],[81.8,36298],[81.8,36381],[81.8,36465],[81.8,36549],[81.8,36632],[81.8,36715],[81.8,36798],[81.8,36882],[81.8,36965],[81.8,37048],[81.8,37131],[81.8,37215],[81.8,37297],[81.8,37381],[81.8,37464],[81.8,37548],[81.8,37631],[81.8,37714],[81.8,37797],[81.8,37881],[81.8,37964],[81.8,38047],[81.8,38130],[81.8,38213],[82.2,38296],[83.6,38380],[85.9,38463],[88.4,38546],[89.1,38630],[89.1,38713],[89.4,38796],[89.4,38880],[89.4,38963],[89.4,39046],[89.4,39129],[89.4,39212],[89.4,39296],[89.4,39379],[89.4,39462],[89.4,39546]]",1,0,983.3755,984.5248,92.6041762,0.7883,"[{""rating"":92.60417620340984,""responseTime"":0.7883000000119864}]",space,0.6104,,984.5249,All the time,100,984.5318,,,[],,0,18,18,18,1,audio/Narrative8Situation9.wav,audio/Narrative7Situation9.wav,audio/Narrative6Situation9.wav,audio/Narrative5Situation9.wav,3,2,4,3,,,,,,,,,,,,,,,,,,,,,,,,,,,,,,,,,,,,,,,
,,,,,,5efb31fa8cd32f04bf048643,2024-05-13_10h23.21.597,group3.1-3.2-social-tom,2023.2.2,Win32,60.60606061,65c5074098b851296ff0b7ed,6642304edda673a1ae35eca9,,,,,,,,,,,,,,,,,,,,,,,,,,,,,,,,,,,,,,,,,,,,,,,,,,,,,,,,,,,,,,,,,,,,,,,,984.5322,986.2892,space,1.2301,,986.2898,1000.8601,space,14.2375,,,,,,,,,,,,,,,,,,,,,,,,,,
