exp_question,consent.started,consent.stopped,consentResponse.keys,consentResponse.rt,consentResponse.duration,participantID,date,expName,psychopyVersion,OS,frameRate,STUDY_ID,SESSION_ID,opening1.started,opening1.stopped,keyEndingOpening1.keys,keyEndingOpening1.rt,keyEndingOpening1.duration,volumeAdjust.started,volumeAdjust.stopped,endingAdjust.keys,endingAdjust.rt,endingAdjust.duration,opening2.started,opening2.stopped,keyEndingOpening.keys,keyEndingOpening.rt,keyEndingOpening.duration,mouse.x,mouse.y,mouse.leftButton,mouse.midButton,mouse.rightButton,mouse.time,instructionLoop.thisRepN,instructionLoop.thisTrialN,instructionLoop.thisN,instructionLoop.thisIndex,instructionLoop.ran,readyForAudio.started,readyForAudio.stopped,fixation.started,run,audio_played,fixation.stopped,endPractice.keys,audioPre.started,audioPre.stopped,continuousResponses_audio,continuousSlider.response,continuousSlider.rt,intRating.started,intRating.stopped,intQuestionSlider.response,intQuestionSlider.rt,intQuestionSlider.history,confirmResponse.keys,confirmResponse.rt,confirmResponse.duration,catchQuestion.started,catch_label,catch_value,catchQuestion.stopped,catchQuestionSlider.response,catchQuestionSlider.rt,catchQuestionSlider.history,confirmResponse_2.keys,audioRunLoop.thisRepN,audioRunLoop.thisTrialN,audioRunLoop.thisN,audioRunLoop.thisIndex,audioRunLoop.ran,conditions1_1,conditions2_1,conditions1_2,conditions2_2,dur1_1,dur2_1,dur1_2,dur2_2,endPractice.rt,endPractice.duration,confirmResponse_2.rt,confirmResponse_2.duration,runIntervalBreak.started,runIntervalBreak.stopped,endingBreakKey.keys,endingBreakKey.rt,endingBreakKey.duration,connection.started,connection.stopped,connectionEnding.keys,connectionEnding.rt,connectionEnding.duration,readyForText.started,readyForText.stopped,textPre.started,run_dup,textPre.stopped,continuousResponses_text,textRunLoop.thisRepN,textRunLoop.thisTrialN,textRunLoop.thisN,textRunLoop.thisIndex,textRunLoop.ran,text1_1,text1_2,text2_1,text2_2,runBreakText.started,runBreakText.stopped,endingBreakKey_2.keys,ending.started,ending.stopped,endingEnding.keys,endingEnding.rt,endingEnding.duration
tom,0.0003,5.6701,y,5.3631,,5efb5360f3f69c084c1ca850,2024-05-13_12h05.03.976,group3.1-3.2-social-tom,2023.2.2,Win32,166.6666667,65c5074098b851296ff0b7ed,6642375d18f5ac1009ceec9e,,,,,,,,,,,,,,,,,,,,,,,,,,,,,,,,,,,,,,,,,,,,,,,,,,,,,,,,,,,,,,,,,,,,,,,,,,,,,,,,,,,,,,,,,,,,,,,,,,,,,,,,
,,,,,,5efb5360f3f69c084c1ca850,2024-05-13_12h05.03.976,group3.1-3.2-social-tom,2023.2.2,Win32,166.6666667,65c5074098b851296ff0b7ed,6642375d18f5ac1009ceec9e,5.6702,10.2051,space,4.5227,,,,,,,,,,,,,,,,,,,,,,,,,,,,,,,,,,,,,,,,,,,,,,,,,,,,,,,,,,,,,,,,,,,,,,,,,,,,,,,,,,,,,,,,,,,,,,,,,,,,
,,,,,,5efb5360f3f69c084c1ca850,2024-05-13_12h05.03.976,group3.1-3.2-social-tom,2023.2.2,Win32,166.6666667,65c5074098b851296ff0b7ed,6642375d18f5ac1009ceec9e,,,,,,10.2053,18.255,space,7.7373,,,,,,,,,,,,,,,,,,,,,,,,,,,,,,,,,,,,,,,,,,,,,,,,,,,,,,,,,,,,,,,,,,,,,,,,,,,,,,,,,,,,,,,,,,,,,,,
,,,,,,5efb5360f3f69c084c1ca850,2024-05-13_12h05.03.976,group3.1-3.2-social-tom,2023.2.2,Win32,166.6666667,65c5074098b851296ff0b7ed,6642375d18f5ac1009ceec9e,,,,,,,,,,,18.2633,27.4537,space,9.1844,,[],[],[],[],[],[],0,0,0,0,1,,,,,,,,,,,,,,,,,,,,,,,,,,,,,,,,,,,,,,,,,,,,,,,,,,,,,,,,,,,,,,,,,,,,,,,,,,,,,,
,,,,,,5efb5360f3f69c084c1ca850,2024-05-13_12h05.03.976,group3.1-3.2-social-tom,2023.2.2,Win32,166.6666667,65c5074098b851296ff0b7ed,6642375d18f5ac1009ceec9e,,,,,,,,,,,27.4589,42.1336,space,14.6249,,[],[],[],[],[],[],1,0,1,0,1,,,,,,,,,,,,,,,,,,,,,,,,,,,,,,,,,,,,,,,,,,,,,,,,,,,,,,,,,,,,,,,,,,,,,,,,,,,,,,
,,,,,,5efb5360f3f69c084c1ca850,2024-05-13_12h05.03.976,group3.1-3.2-social-tom,2023.2.2,Win32,166.6666667,65c5074098b851296ff0b7ed,6642375d18f5ac1009ceec9e,,,,,,,,,,,42.1389,65.5881,space,23.4269,,[],[],[],[],[],[],2,0,2,0,1,,,,,,,,,,,,,,,,,,,,,,,,,,,,,,,,,,,,,,,,,,,,,,,,,,,,,,,,,,,,,,,,,,,,,,,,,,,,,,
,,,,,,5efb5360f3f69c084c1ca850,2024-05-13_12h05.03.976,group3.1-3.2-social-tom,2023.2.2,Win32,166.6666667,65c5074098b851296ff0b7ed,6642375d18f5ac1009ceec9e,,,,,,,,,,,65.5936,90.5223,space,24.9184,,[],[],[],[],[],[],3,0,3,0,1,,,,,,,,,,,,,,,,,,,,,,,,,,,,,,,,,,,,,,,,,,,,,,,,,,,,,,,,,,,,,,,,,,,,,,,,,,,,,,
,,,,,,5efb5360f3f69c084c1ca850,2024-05-13_12h05.03.976,group3.1-3.2-social-tom,2023.2.2,Win32,166.6666667,65c5074098b851296ff0b7ed,6642375d18f5ac1009ceec9e,,,,,,,,,,,90.5278,102.7588,space,12.2207,,[],[],[],[],[],[],4,0,4,0,1,,,,,,,,,,,,,,,,,,,,,,,,,,,,,,,,,,,,,,,,,,,,,,,,,,,,,,,,,,,,,,,,,,,,,,,,,,,,,,
,,,,,,5efb5360f3f69c084c1ca850,2024-05-13_12h05.03.976,group3.1-3.2-social-tom,2023.2.2,Win32,166.6666667,65c5074098b851296ff0b7ed,6642375d18f5ac1009ceec9e,,,,,,,,,,,,,,,,,,,,,,,,,,,102.7651,105.3421,105.3574,1,audio/Narrative13Situation2.wav,107.3613,,107.3613,137.0921,"[[35.6,1030],[33.9,1115],[33.9,1200],[33.9,1285],[34.6,1370],[36.7,1455],[38.5,1540],[39.4,1625],[40.6,1709],[41.3,1794],[41.5,1879],[42.2,1964],[43.2,2049],[44.6,2134],[45.5,2219],[46.4,2304],[47.2,2389],[48.4,2473],[49.5,2558],[49.9,2643],[49.9,2728],[50.2,2813],[51.9,2898],[51.8,4426],[51.8,4511],[51.9,4596],[51.9,4681],[51.9,4765],[52,4850],[52.1,4935],[52.1,5020],[52.2,5105],[53.2,5190],[55.6,5275],[58.4,5360],[61.9,5445],[64.2,5530],[65.4,5615],[65.5,5699],[66,5784],[66.6,5869],[67.4,5954],[68.3,6039],[69.4,6124],[70.3,6209],[71,6293],[71.6,6378],[72.2,6463],[72.7,6548],[73,6633],[73,6718],[73.1,6803],[73.8,6888],[74.9,6973],[76,7057],[76.9,7142],[77.1,7227],[77.2,7312],[77.3,7397],[77.3,7482],[77.3,7567],[77.3,7652],[77.3,7737],[77.3,7822],[77.3,7907],[77.3,7991],[81.9,8586],[80,8671],[79.5,8755],[79.9,8841],[82.4,8925],[84.9,9010],[86.6,9095],[87.8,9180],[89.3,9265],[90.2,9350],[90.7,9435],[90.9,9519],[90.9,9604],[90.9,9689],[90.9,9774],[90.9,9859],[90.9,9944],[90.9,10029],[90.9,10114],[90.9,10198],[90.9,10283],[90.9,10368],[90.9,10453],[90.9,10538],[90.9,10623],[90.9,10708],[90.9,10793],[90.7,10878],[90.5,10963],[90.2,11047],[89.9,11132],[89.7,11217],[89.5,11302],[89.5,11387],[89.5,11472],[89.5,11557],[89.6,11642],[90.1,11727],[91.4,11812],[92.1,11896],[92.1,11981],[92.1,12066],[92.2,12151],[92.4,12236],[92.4,12321],[92.4,12406],[91.3,12491],[88.9,12576],[86,12661],[83.6,12745],[82,12830],[80.8,12915],[80,13000],[79.6,13085],[79.4,13170],[78.8,13255],[78,13340],[77.4,13425],[76.9,13509],[76,13594],[75.3,13679],[74.6,13764],[73.8,13849],[73.2,13934],[72.9,14019],[72.9,14104],[72.9,14188],[72.9,14274],[72.9,14358],[72.9,14443],[72.9,14528],[73,14613],[73.1,14698],[73.1,14783],[73.1,14868],[73.1,14953],[73.1,15037],[73.1,15122],[73.1,15207],[72.5,15292],[71.3,15377],[70.5,15462],[69.7,15547],[68.6,15632],[67.6,15717],[66.7,15802],[66.3,15886],[65.7,15971],[65.1,16056],[64,16141],[63,16226],[62.8,16311],[62.8,16396],[62.5,16480],[62.1,16566],[62,16650],[62,16735],[62,16820],[61.7,16905],[60.5,16990],[52.4,17584],[51.4,17669],[51.4,17754],[51.4,17839],[51.4,17924],[51.4,18009],[51.4,18093],[51.5,18179],[51.6,18263],[51.8,18348],[52,18433],[52.2,18518],[52.6,18603],[52.8,18688],[53,18773],[53.1,18858],[53.3,18942],[53.6,19027],[54.4,19112],[55.2,19197],[55.9,19282],[56.3,19367],[56.4,19452],[56.4,19537],[56.6,19622],[56.7,19706],[56.9,19791],[56.9,19876],[57.2,19961],[57.8,20046],[58,20131],[58,20216],[58.1,20301],[58.1,20386],[58.1,20470],[58.1,20556],[58.1,20640],[58.1,20725],[58.1,20810],[58.1,20895],[58.1,20980],[58.1,21065],[58.1,21150],[58.1,21235],[58.1,21320],[58.1,21404],[58.1,21489],[58.2,21574],[59,21659],[60.5,21744],[62.8,21829],[65,21914],[67.1,21999],[70.3,22084],[73.1,22168],[74.9,22253],[76.3,22338],[78.1,22423],[79.9,22508],[81.5,22593],[83.1,22678],[84.2,22763],[84.7,22848],[85.2,22932],[85.7,23017],[86.1,23102],[87,23187],[88,23272],[88.9,23357],[89.7,23442],[92.6,24036],[93.1,24121],[93.4,24206],[94.2,24291],[95.1,24376],[95.5,24460],[95.9,24545],[96.3,24630],[96.3,24715],[96.3,24800],[96.3,24885],[96.3,24970],[96.1,25055],[96,25139],[96,25225],[97.2,25309],[99.4,25394],[99.5,25479],[99.5,25564],[99.5,25649],[99.5,25734],[99.5,25819],[99.5,25904],[99.5,25988],[99.5,26074],[99.5,26158],[99.5,26243],[99.5,26328],[99.5,26413],[99.5,26498],[99.5,26583],[99.5,26668],[99.5,26753],[99.5,26837],[99.5,26922],[99.5,27007],[99.5,27092],[99.5,27177],[99.5,27262],[99.5,27347],[99.5,27432],[99.5,27517],[99.5,27601],[99.5,27686],[99.5,27771],[99.5,27856],[99.5,27941],[99.5,28026],[99.5,28111],[99.5,28196],[99.5,28281],[99.5,28365],[99.5,28450],[99.5,28535],[99.5,28620],[99.5,28705],[99.5,28790],[99.5,28875],[99.5,28960],[99.5,29045],[99.5,29129],[99.5,29214],[99.5,29299],[99.2,29384],[99.2,29469],[99.2,29554],[99.2,29639],[99.2,29724]]",1,0,137.0922,143.9803,49.89583333,4.383,"[{""rating"":53.541666666666664,""responseTime"":3.6481999999992922},{""rating"":49.895833333333336,""responseTime"":4.383000000000038}]",space,6.3734,,143.9805,All the time,100,143.9831,,,[],,0,0,0,0,1,audio/Narrative13Situation2.wav,audio/Narrative13Situation2.wav,audio/Narrative13Situation2.wav,audio/Narrative13Situation2.wav,2,2,2,2,,,,,,,,,,,,,,,,,,,,,,,,,,,,,,,,,,,,,
,,,,,,5efb5360f3f69c084c1ca850,2024-05-13_12h05.03.976,group3.1-3.2-social-tom,2023.2.2,Win32,166.6666667,65c5074098b851296ff0b7ed,6642375d18f5ac1009ceec9e,,,,,,,,,,,,,,,,,,,,,,,,,,,,,143.9833,1,audio/Narrative7Situation1.wav,145.9569,space,145.9569,201.8221,"[[999,0],[999,84],[999,169],[999,254],[999,339],[999,424],[999,509],[999,594],[999,679],[999,764],[999,848],[999,933],[999,1018],[999,1103],[999,1188],[999,1273],[999,1358],[65.8,1443],[72.5,1528],[72.5,1612],[72.1,1697],[68.9,1782],[65.3,1867],[62.8,1952],[58.3,2037],[51.3,2122],[47.1,2207],[45,2292],[45,2376],[45.2,2461],[46.7,2546],[47.8,2631],[48.4,2716],[48.8,2801],[48.9,2886],[48.9,2971],[48.9,3056],[48.9,3140],[48.9,3225],[49.1,3310],[51.3,4159],[51.3,4244],[51.3,4329],[51.3,4414],[51.3,4499],[52,4584],[57.1,4668],[62.1,4753],[62.8,4838],[63.1,4923],[65.2,5008],[69.1,5093],[70.6,5178],[71,5263],[72.7,5348],[74.7,5433],[77.3,5518],[79.9,5602],[81.5,5687],[82.5,5772],[83.2,5857],[84.3,5942],[86.6,6027],[88.6,6112],[89.6,6197],[89.6,6281],[89.6,6366],[89.8,6451],[90.1,6536],[90.4,6621],[90.4,6706],[90.4,6791],[90.4,6876],[90.4,6961],[90.4,7045],[90.4,7130],[90.4,7215],[90.4,7300],[90.4,7385],[90.4,7470],[90.4,7555],[90.4,7640],[90.4,7725],[90.4,7809],[90.4,7894],[90.4,7979],[90.4,8064],[90.4,8149],[90.4,8234],[90.4,8319],[90.4,8404],[90.2,8489],[90.2,8574],[90.2,8658],[90.2,8743],[90.2,8828],[90.2,8913],[90.2,8998],[90.2,9083],[90,9168],[89.2,9253],[88.6,9337],[88.4,9422],[88.4,9507],[88.4,9592],[88.2,9677],[87.9,9762],[87.4,9847],[87.1,9932],[87,10017],[87,10102],[87,10187],[87,10271],[86.8,10356],[86.4,10441],[86.1,10526],[85.9,10611],[85.3,10696],[85.2,10781],[85.2,10866],[85.1,10951],[85.1,11035],[84.7,11120],[83.8,11205],[83.4,11290],[83.2,11375],[83,11460],[82.8,11545],[82.5,11630],[82.5,11715],[82.5,11800],[82.5,11884],[82.4,11969],[82.1,12054],[81.9,12139],[81.6,12224],[81.5,12309],[81.5,12394],[81.5,12479],[81.5,12563],[81.5,12649],[81.5,12733],[81.5,12818],[81.5,12903],[81.5,12988],[81.5,13073],[81.5,13158],[81.5,13243],[81.5,13327],[81.5,13412],[81.5,13497],[81.5,13582],[81.5,13667],[81.5,13752],[81.5,13837],[81.5,13922],[81.5,14007],[81.5,14092],[81.5,14177],[81.5,14261],[81.5,14346],[81.5,14431],[81.5,14516],[81.5,14601],[81.5,14686],[81.5,14771],[81.5,14856],[81.5,14941],[81.5,15025],[81.5,15110],[81.5,15195],[81.5,15280],[81.5,15365],[81.5,15450],[81.5,15535],[81.5,15620],[81.5,15705],[81.5,15789],[81.5,15874],[81.5,15959],[81.5,16044],[81.5,16129],[81.5,16214],[81.5,16299],[81.5,16384],[81.5,16469],[81.5,16553],[81.6,16638],[82.1,16723],[82.7,16808],[83.9,16893],[85.3,16978],[86.8,17063],[88.2,17148],[89.7,17233],[90.8,17318],[91.7,17402],[92.5,17487],[93.5,17572],[94.7,17657],[95.2,17742],[95.3,17827],[95.3,17912],[95.3,17997],[95.3,18081],[95.6,18166],[95.7,18251],[95.7,18336],[95.8,18421],[95.8,18506],[95.8,18591],[95.9,18676],[95.9,18761],[95.9,18846],[96,18930],[96.1,19015],[96.1,19100],[96.1,19185],[96.1,19270],[96.1,19355],[96.1,19440],[96.1,19525],[96.1,19610],[96.1,19694],[96.1,19779],[96.1,19864],[96.1,19949],[96.1,20034],[96.3,20119],[96.3,20204],[96.3,20289],[96.1,20374],[96.1,20458],[96.1,20543],[95.7,20628],[95.5,20713],[95.5,20798],[95.5,20883],[95.5,20968],[95.5,21053],[95.5,21138],[95.5,21223],[95.5,21307],[95.9,21392],[95.9,21477],[95.9,21562],[95.9,21647],[96,21732],[96,21817],[96,21902],[96,21987],[96,22071],[96.4,22156],[96.8,22241],[96.8,22326],[96.8,22411],[96.8,22496],[96.8,22581],[96.8,22666],[96.8,22750],[96.8,22836],[96.8,22920],[96.8,23005],[96.8,23090],[96.8,23175],[96.8,23260],[96.8,23345],[96.8,23430],[96.8,23515],[96.8,23599],[96.8,23684],[96.8,23769],[96.8,23854],[96.8,23939],[96.8,24024],[96.8,24109],[96.8,24194],[96.8,24279],[96.8,24364],[96.8,24448],[96.8,24533],[96.8,24618],[96.8,24703],[96.8,24788],[96.8,24873],[96.8,24958],[96.8,25043],[96.8,25127],[96.8,25212],[96.8,25297],[96.8,25382],[96.8,25467],[97.2,25552],[97.4,25637],[97.4,25722],[97.4,25807],[97.4,25892],[97.4,25976],[97.4,26061],[97.4,26146],[97.4,26231],[97.4,26316],[97.4,26401],[97.4,26486],[97.4,26571],[97.4,26656],[97.4,26740],[97.4,26825],[97.4,26910],[97.4,26995],[97.4,27080],[97.4,27165],[97.4,27250],[97.4,27335],[97.4,27420],[97.4,27505],[97.4,27589],[97.4,27674],[97.4,27759],[97.4,27844],[97.4,27929],[97.4,28014],[97.4,28099],[97.4,28184],[97.8,28269],[98.1,28353],[98.3,28438],[98.4,28523],[98.4,28608],[98.4,28693],[98.4,28778],[97.9,28863],[95.8,28948],[93.5,29033],[92.1,29118],[90.8,29202],[89.8,29287],[89.3,29372],[89,29457],[88.5,29542],[88,29627],[87.6,29712],[87.2,29797],[86.8,29882],[86.4,29966],[85.9,30051],[85.3,30136],[84.7,30221],[84.2,30306],[83.6,30391],[83.1,30476],[82.8,30561],[82.8,30646],[82.7,30730],[82.5,30815],[82.4,30900],[82.3,30985],[81.9,31070],[81.6,31155],[81.4,31240],[81.4,31325],[81.4,31409],[81.4,31495],[81.4,31579],[81.4,31664],[81.4,31749],[81.4,31834],[81.4,31919],[82.3,32004],[82.4,32089],[82.4,32174],[82.5,32259],[83,32344],[84.6,32428],[87.5,32513],[88.8,32598],[88.8,32683],[89.4,32768],[90.4,32853],[91.1,32937],[91.1,33023],[91.1,33107],[91.1,33192],[90.9,33277],[86.7,33362],[84.1,33447],[84.2,33532],[93.5,33617],[100,33702],[100,33787],[100,33871],[99.9,33956],[98.9,34041],[98.8,34126],[98.6,34211],[98.1,34296],[96.1,34381],[94.8,34466],[94.9,34551],[96.5,34636],[98,34720],[98.1,34805],[98.1,34890],[98.1,34975],[98.1,35060],[98.1,35145],[98.1,35230],[98.1,35315],[98.1,35399],[98.1,35484],[98.1,35569],[98.1,35654],[98.1,35739],[98.1,35824],[98.1,35909],[98.1,35994],[98.1,36079],[98.1,36163],[98.1,36249],[98.1,36333],[98.1,36418],[98.1,36503],[98.1,36588],[98.1,36673],[98.1,36758],[98.1,36843],[98.1,36928],[98.1,37013],[98.1,37097],[98.1,37182],[98.1,37267],[98.1,37352],[98.1,37437],[98.1,37522],[98.1,37607],[98.1,37692],[98.1,37777],[98.1,37861],[98.1,37946],[98.1,38031],[98.1,38116],[98.1,38201],[98.1,38286],[98.1,38371],[98.1,38456],[98.1,38541],[98.1,38625],[98.1,38710],[98.1,38795],[98.1,38880],[98.1,38965],[98.1,39050],[98.1,39135],[98.1,39220],[98.1,39305],[98.1,39389],[98.1,39474],[98.1,39559],[98.1,39644],[98.1,39729],[98.1,39814],[98.1,39899],[98.1,39984],[98.1,40069],[98.1,40154],[98.1,40238],[98.1,40323],[98.1,40408],[98.1,40493],[98.1,40578],[98.1,40663],[98.1,40748],[98.1,40833],[98.1,40918],[98.1,41002],[98.1,41087],[98.1,41172],[98.1,41257],[98.1,41342],[98.1,41427],[98.1,41512],[98.1,41597],[98.1,41682],[98.1,41766],[98.1,41851],[98.1,41936],[98.1,42021],[98.1,42106],[98.1,42191],[98.1,42276],[98.1,42361],[98.1,42446],[98.1,42531],[98.1,42615],[98.1,42700],[98.1,42785],[98.1,42870],[98.1,42955],[98.1,43040],[98.1,43125],[98.1,43210],[98.1,43295],[98.1,43379],[98.1,43464],[98.1,43549],[98.1,43634],[98.1,43719],[98.1,43804],[98.1,43889],[98.1,43974],[98.1,44059],[98.1,44144],[98.1,44228],[98.1,44313],[98.1,44398],[98.1,44483],[98.1,44568],[98.1,44653],[98.1,44738],[98.1,44823],[98.1,44907],[98.1,44992],[98.1,45077],[98.1,45162],[98.1,45247],[98.1,45332],[98.1,45417],[98.1,45502],[98.1,45586],[98.1,45671],[98.1,45756],[98.1,45841],[98.1,45926],[98.1,46011],[98.1,46096],[98.1,46181],[98.1,46266],[98.1,46351],[98.1,46435],[98.1,46520],[98.1,46605],[98.1,46690],[98.1,46775],[98.1,46860],[98.1,46945],[98.1,47030],[98.1,47115],[98.1,47200],[98.1,47284],[98.1,47369],[98.1,47454],[98.1,47539],[98.1,47624],[98.1,47709],[98.1,47794],[98.1,47879],[98.1,47964],[98.1,48048],[98.1,48133],[98.1,48218],[98.1,48303],[98.1,48388],[98.1,48473],[98.1,48558],[98.1,48643],[98.1,48728],[98.1,48812],[98.1,48897],[98.1,48982],[98.1,49067],[98.1,49152],[98.1,49237],[98.1,49322],[98.1,49407],[98.1,49492],[98.1,49577],[98.1,49661],[98.1,49746],[98.1,49831],[98.1,49916],[98.1,50001],[98.1,50086],[98.1,50171],[98.1,50256],[98.1,50341],[98.1,50426],[98.1,50510],[98.1,50595],[98.1,50680],[98.1,50765],[98.1,50850],[98.1,50935],[98.1,51020],[98.1,51105],[98.1,51190],[98.1,51274],[98.1,51359],[98.1,51444],[98.1,51529],[98.1,51614],[98.1,51699],[98.1,51783],[98.1,51869],[98.1,51953],[98.1,52038],[98.1,52123],[98.1,52208],[98.1,52293],[98.1,52378],[98.1,52463],[98.1,52548],[98.1,52633],[98.1,52717],[98.1,52803],[98.1,52887],[98.1,52972],[98.1,53057],[98.1,53142],[98.1,53227],[98.1,53312],[98.1,53397],[98.1,53481],[98.1,53566],[98.1,53651],[98.1,53736],[98.1,53821],[98.1,53906],[98.1,53991],[98.1,54076],[98.1,54161],[98.1,54245],[98.1,54331],[98.1,54415],[98.1,54500],[98.1,54585],[98.1,54670],[98.1,54755],[98.1,54840],[98.1,54925],[98.1,55009],[98.1,55095],[98.1,55179],[98.1,55264],[98.1,55349],[98.1,55434],[98.1,55519],[98.1,55604],[98.1,55689],[98.1,55774],[98.1,55859]]",1,0,201.8223,212.5549,60.52083333,10.1708,"[{""rating"":53.541666666666664,""responseTime"":9.589599999999677},{""rating"":60.520833333333336,""responseTime"":10.170799999999872}]",space,10.2203,,212.5549,Half the time,50,212.5567,,,[],,0,1,1,1,1,audio/Narrative7Situation1.wav,audio/Narrative8Situation1.wav,audio/Narrative5Situation1.wav,audio/Narrative6Situation1.wav,2,5,5,2,1.9637,,,,,,,,,,,,,,,,,,,,,,,,,,,,,,,,,,,,
,,,,,,5efb5360f3f69c084c1ca850,2024-05-13_12h05.03.976,group3.1-3.2-social-tom,2023.2.2,Win32,166.6666667,65c5074098b851296ff0b7ed,6642375d18f5ac1009ceec9e,,,,,,,,,,,,,,,,,,,,,,,,,,,,,212.5568,1,audio/Narrative7Situation2.wav,215.5623,,215.5623,223.021,"[[64.9,1018],[61.7,1103],[61.5,1188],[61.4,1273],[61.7,1358],[63.9,1443],[64.8,1528],[65.8,1613],[65.8,1697],[65.8,1782],[65.8,1867],[65.8,1952],[65.8,2037],[65.8,2122],[65.8,2207],[65.8,2292],[65.8,2377],[65.8,2461],[65.8,2546],[65.8,2631],[65.8,2716],[65.8,2801],[65.8,2886],[65.8,2971],[65.8,3056],[65.8,3141],[65.8,3225],[65.8,3310],[65.7,3395],[65.7,3480],[65.7,3565],[65.2,3650],[64.9,3735],[64.9,3820],[64.9,3905],[64.9,3990],[65.1,4074],[65.5,4159],[66.4,4244],[67.3,4329],[67.5,4414],[67.5,4499],[67.5,4584],[67.5,4669],[67.5,4754],[67.5,4839],[67.5,4923],[67.5,5008],[67.5,5093],[67.5,5178],[67.5,5263],[68.2,5348],[68.6,5433],[69.2,5518],[69.6,5603],[70,5687],[70.2,5772],[70.3,5857],[70.5,5942],[71.1,6027],[71.9,6112],[72.3,6197],[72.4,6282],[72.4,6366],[72.4,6451],[72.4,6536],[72.4,6621],[72.4,6706],[72.3,6791],[72.3,6876],[72.3,6961],[72.3,7046],[72.4,7131],[72.6,7216],[73.4,7300],[75.6,7385]]",1,0,223.0211,227.2291,48.4375,3.4325,"[{""rating"":58.333333333333336,""responseTime"":2.0690000000000737},{""rating"":48.4375,""responseTime"":3.4325000000000045}]",space,3.6966,,227.2291,All the time,100,227.2307,,,[],,0,2,2,2,1,audio/Narrative7Situation2.wav,audio/Narrative8Situation2.wav,audio/Narrative5Situation2.wav,audio/Narrative6Situation2.wav,3,3,3,3,,,,,,,,,,,,,,,,,,,,,,,,,,,,,,,,,,,,,
,,,,,,5efb5360f3f69c084c1ca850,2024-05-13_12h05.03.976,group3.1-3.2-social-tom,2023.2.2,Win32,166.6666667,65c5074098b851296ff0b7ed,6642375d18f5ac1009ceec9e,,,,,,,,,,,,,,,,,,,,,,,,,,,,,227.2309,1,audio/Narrative7Situation3.wav,235.2332,,235.2332,244.4682,"[[999,5],[999,84],[999,169],[999,254],[999,339],[999,424],[999,509],[999,594],[999,679],[999,763],[999,848],[999,933],[999,1018],[999,1103],[999,1188],[999,1273],[999,1358],[999,1443],[999,1527],[999,1612],[999,1697],[999,1782],[999,1867],[999,1952],[999,2037],[999,2122],[999,2207],[999,2291],[999,2376],[999,2461],[999,2546],[999,2631],[999,2716],[999,2801],[999,2886],[999,2971],[999,3056],[999,3140],[999,3225],[999,3310],[999,3395],[999,3480],[999,3565],[999,3650],[999,3735],[67.8,3820],[72.9,3904],[73.8,3989],[73.8,4074],[73.8,4159],[73.8,4244],[74.7,4329],[75.5,4414],[76.1,4499],[76.9,4584],[77.1,4669],[77.1,4753],[77,4838],[71.3,4923],[61.1,5008],[55.2,5093],[53.3,5178],[53,5263],[53,5348],[52,5433],[48.4,5517],[44.6,5602],[42,5687],[40.6,5772],[39.3,5857],[38.4,5942],[37.8,6027],[37.2,6112],[36,6197],[35.1,6281],[34.5,6366],[33.8,6451],[33,6536],[32.7,6621],[32.6,6706],[32.6,6791],[32.6,6876],[32.6,6961],[32.6,7045],[32.6,7130],[32.6,7215],[32.6,7300],[32.6,7385],[32.6,7470],[32.6,7555],[32.6,7640],[32.6,7725],[32.6,7809],[32.6,7894],[32.6,7979],[32.6,8064],[32.6,8149],[32.6,8234],[32.6,8319],[32.6,8404],[32.6,8489],[32.6,8573],[32.6,8658],[32.6,8743],[32.6,8828],[32.6,8913],[32.6,8998],[32.6,9083],[32.6,9168]]",1,0,244.4683,248.3492,36.35416667,1.0867,"[{""rating"":36.354166666666664,""responseTime"":1.086700000000178}]",space,3.3672,,248.3492,Not at all,0,248.3565,,,[],,0,3,3,3,1,audio/Narrative7Situation3.wav,audio/Narrative8Situation3.wav,audio/Narrative5Situation3.wav,audio/Narrative6Situation3.wav,8,4,3,5,,,,,,,,,,,,,,,,,,,,,,,,,,,,,,,,,,,,,
,,,,,,5efb5360f3f69c084c1ca850,2024-05-13_12h05.03.976,group3.1-3.2-social-tom,2023.2.2,Win32,166.6666667,65c5074098b851296ff0b7ed,6642375d18f5ac1009ceec9e,,,,,,,,,,,,,,,,,,,,,,,,,,,,,248.3567,1,audio/Narrative7Situation4.wav,251.3567,,251.3567,263.0659,"[[28.9,933],[31.3,1018],[38.2,1103],[46.4,1188],[50.3,1273],[52.6,1358],[54.8,1443],[55.7,1528],[55.8,1612],[56,1697],[56.1,1782],[56.1,1867],[56.1,1952],[56.1,2037],[56.1,2122],[56.3,2207],[56.3,2292],[56.3,2376],[56.3,2461],[56.3,2546],[56.5,2631],[57.7,2716],[59.6,2801],[61.1,2886],[61.7,2971],[62.2,3055],[63.1,3140],[63.9,3225],[64,3310],[64,3395],[64,3480],[64,3565],[64,3650],[64,3735],[64,3820],[64,3904],[64,3989],[64,4074],[64.1,4159],[64.1,4244],[64.1,4329],[64.1,4414],[64.1,4499],[64.1,4584],[64.1,4668],[64.1,4753],[64.1,4838],[63.9,4923],[63.8,5008],[63.8,5093],[63.8,5178],[63.8,5263],[63.8,5348],[63.5,5433],[63.4,5517],[63.4,5602],[63.3,5687],[63.1,5772],[62.9,5857],[78.5,6536],[79.9,6621],[80.2,6706],[80.4,6791],[81.1,6876],[83.5,6961],[84.3,7045],[84.3,7130],[84.3,7215],[84.3,7300],[84.3,7385],[84.3,7470],[84.3,7555],[84.3,7640],[84.3,7725],[84.3,7810],[84.3,7894],[84.3,7979],[84.3,8064],[84.3,8149],[84.3,8234],[84.3,8319],[84.3,8404],[84.3,8489],[84.2,8574],[84.2,8658],[84.1,8743],[84.1,8828],[84.1,8913],[84.1,8998],[84.1,9083],[84.1,9168],[84.1,9253],[84.1,9338],[84.1,9422],[84.1,9507],[84.1,9592],[84.1,9677],[84.1,9762],[84.1,9847],[84.1,9932],[84.1,10017],[84.1,10101],[84.1,10187],[84.1,10271],[84.1,10356],[84.1,10441],[84.1,10526],[84.1,10611],[84.1,10696],[84.1,10781],[84.1,10866],[84.1,10951],[84.1,11035],[84.1,11120],[84.1,11205],[83.6,11290],[81.6,11375],[80.6,11460],[80.4,11545],[79.6,11630]]",1,0,263.066,264.9393,57.8125,1.1711,"[{""rating"":71.25,""responseTime"":0.7602000000001681},{""rating"":57.8125,""responseTime"":1.1710999999995693}]",space,1.3618,,264.9393,All the time,100,264.9409,,,[],,0,4,4,4,1,audio/Narrative7Situation4.wav,audio/Narrative8Situation4.wav,audio/Narrative5Situation4.wav,audio/Narrative6Situation4.wav,3,3,1,2,,,,,,,,,,,,,,,,,,,,,,,,,,,,,,,,,,,,,
,,,,,,5efb5360f3f69c084c1ca850,2024-05-13_12h05.03.976,group3.1-3.2-social-tom,2023.2.2,Win32,166.6666667,65c5074098b851296ff0b7ed,6642375d18f5ac1009ceec9e,,,,,,,,,,,,,,,,,,,,,,,,,,,,,264.941,1,audio/Narrative7Situation5.wav,269.942,,269.942,278.4069,"[[46.5,1018],[45.6,1103],[45.1,1188],[45,1273],[45,1358],[45.3,1443],[46.6,1528],[48.2,1612],[50,1697],[51.7,1782],[53.5,1867],[55.2,1952],[57.3,2037],[58.8,2122],[60.2,2207],[60.9,2291],[61.1,2376],[61.1,2461],[61.1,2546],[61.1,2631],[61.1,2716],[61.1,2801],[61.1,2886],[61.1,2971],[61.1,3055],[61.1,3140],[61.1,3225],[61.1,3310],[61.1,3395],[61.1,3480],[61.1,3565],[61.1,3650],[61.1,3735],[61.1,3820],[61.1,3904],[61.1,3989],[61.1,4074],[61.4,4159],[61.9,4244],[61.9,4329],[61.9,4414],[61.9,4499],[61.9,4583],[65.2,4669],[71,4754],[72.6,4838],[72.6,4923],[72.6,5008],[72.6,5093],[75.6,5178],[79.4,5263],[79.5,5348],[79.4,5432],[79.4,5517],[79.4,5602],[79.4,5687],[79.4,5772],[79.1,5857],[79.1,5942],[79.1,6027],[79.1,6112],[79.1,6197],[79.1,6282],[79.1,6366],[79.1,6451],[78.8,6536],[78.2,6621],[78.1,6706],[78.1,6791],[78.1,6876],[78.1,6961],[78.1,7046],[78.1,7130],[78.8,7215],[79.4,7300],[79.6,7385],[79.6,7470],[79.6,7555],[79.6,7640],[79.6,7725],[79.6,7809],[79.6,7894],[79.6,7979],[79.6,8064],[79.6,8149],[79.6,8234],[79.6,8319],[79.6,8404]]",1,0,278.407,280.9355,74.375,1.4863,"[{""rating"":74.375,""responseTime"":1.486299999999801}]",space,2.0144,,280.9355,Not at all,0,280.9372,,,[],,0,5,5,5,1,audio/Narrative7Situation5.wav,audio/Narrative8Situation5.wav,audio/Narrative5Situation5.wav,audio/Narrative6Situation5.wav,5,2,5,2,,,,,,,,,,,,,,,,,,,,,,,,,,,,,,,,,,,,,
,,,,,,5efb5360f3f69c084c1ca850,2024-05-13_12h05.03.976,group3.1-3.2-social-tom,2023.2.2,Win32,166.6666667,65c5074098b851296ff0b7ed,6642375d18f5ac1009ceec9e,,,,,,,,,,,,,,,,,,,,,,,,,,,,,280.9373,1,audio/Narrative7Situation6.wav,283.9431,,283.9431,293.8998,"[[999,5],[999,84],[999,169],[999,254],[999,339],[999,424],[999,509],[999,594],[999,679],[999,764],[999,849],[999,933],[999,1018],[999,1103],[999,1188],[999,1273],[999,1358],[999,1443],[999,1528],[999,1613],[999,1697],[61.5,1782],[62.7,1867],[62.7,1952],[62.7,2037],[62.7,2122],[62.7,2207],[62.7,2292],[62.8,2377],[62.8,2461],[62.6,2546],[60.9,2631],[57.5,2716],[53.9,2801],[51.9,2886],[50.6,2971],[49.8,3056],[49.3,3141],[48.9,3225],[48.9,3310],[48.9,3395],[49,3480],[49,3565],[49,3650],[49,3735],[49,3820],[49,3905],[49,3990],[49,4074],[49,4159],[49,4244],[48.1,4329],[47.4,4414],[47.2,4499],[47.1,4584],[47.1,4669],[47.1,4754],[47.1,4838],[47,4923],[46.9,5008],[46.9,5093],[46.9,5178],[46.8,5263],[46.6,5348],[46.4,5433],[46,5517],[45.5,5602],[44.8,5687],[43.9,5772],[43.1,5857],[42.4,5942],[41.9,6027],[41.4,6112],[40.8,6197],[40.2,6282],[39.9,6367],[39.6,6451],[39.6,6536],[39.6,6621],[39.6,6706],[39.6,6791],[39.6,6876],[39.6,6961],[39.6,7046],[39.6,7130],[39.6,7215],[39.6,7300],[39.6,7385],[39.6,7470],[39.6,7555],[39.6,7640],[39.6,7725],[39.4,7810],[38.6,7895],[37.7,7979],[37,8064],[36.3,8149],[35.7,8234],[35.6,8319],[35.6,8404],[35.6,8489],[35.6,8574],[35.6,8658],[35.6,8743],[35.6,8828],[35.6,8913],[35.6,8998],[35.6,9083],[35.6,9168],[35.6,9253],[35.6,9338],[35.6,9423],[35.6,9507],[35.6,9592],[35.6,9677],[35.6,9762],[35.6,9847],[35.6,9932]]",1,0,293.8998,309.0773,61.45833333,14.8641,"[{""rating"":61.458333333333336,""responseTime"":14.86410000000069}]",space,14.6646,,309.0774,All the time,100,309.079,,,[],,0,6,6,6,1,audio/Narrative7Situation6.wav,audio/Narrative8Situation6.wav,audio/Narrative5Situation6.wav,audio/Narrative6Situation6.wav,3,2,3,2,,,,,,,,,,,,,,,,,,,,,,,,,,,,,,,,,,,,,
,,,,,,5efb5360f3f69c084c1ca850,2024-05-13_12h05.03.976,group3.1-3.2-social-tom,2023.2.2,Win32,166.6666667,65c5074098b851296ff0b7ed,6642375d18f5ac1009ceec9e,,,,,,,,,,,,,,,,,,,,,,,,,,,,,309.079,1,audio/Narrative7Situation7.wav,314.0799,,314.0799,331.2342,"[[55.5,594],[57,679],[59.2,763],[61.1,848],[62.2,933],[63.2,1018],[64.5,1103],[65,1188],[65,1273],[65,1358],[65,1443],[65,1528],[65,1612],[65,1697],[65,1782],[65,1867],[65,1952],[65,2037],[65,2122],[65,2207],[65,2291],[65,2376],[65,2461],[65,2546],[65,2631],[65,2716],[65,2801],[65,2886],[65,2971],[65,3056],[65,3140],[65,3225],[65.7,3310],[66.8,3395],[68,3480],[69.5,3565],[70.9,3650],[72.3,3735],[73.6,3820],[74.2,3904],[74.2,3989],[74.2,4074],[74.2,4159],[74.2,4244],[74.2,4329],[74.2,4414],[74.2,4499],[74.2,4584],[74.2,4669],[74.2,4753],[74.2,4838],[74.2,4923],[74.2,5008],[74.2,5093],[74.2,5178],[74.2,5263],[74.2,5348],[74.2,5433],[74.2,5517],[74.2,5602],[74.2,5687],[74.2,5772],[74.2,5857],[74.2,5942],[74.2,6027],[74.2,6112],[74.2,6197],[74.2,6281],[74.2,6366],[74.2,6451],[74.2,6536],[74.2,6621],[74.2,6706],[74.2,6791],[74.2,6876],[74.2,6961],[74.2,7046],[74.2,7130],[74.2,7215],[74.2,7300],[74.2,7385],[74.2,7470],[74.2,7555],[74.2,7640],[74.2,7725],[74.2,7810],[74.5,7894],[74.8,7979],[74.8,8064],[74.8,8149],[74.8,8234],[74.8,8319],[74.9,8404],[74.9,8489],[74.9,8574],[74.9,8658],[74.9,8743],[74.9,8828],[74.9,8913],[74.9,8998],[74.8,9083],[74.6,9168],[74.6,9253],[74.6,9337],[74.6,9423],[74.6,9507],[74.6,9592],[74.6,9677],[74.6,9762],[74.6,9847],[74.6,9932],[74.6,10017],[74.6,10101],[74.6,10186],[74.6,10271],[74.6,10356],[74.6,10441],[74.6,10526],[74.6,10611],[74.6,10696],[74.6,10781],[74.6,10866],[74.6,10951],[74.6,11035],[74.6,11120],[74.6,11205],[74.6,11290],[74.6,11375],[74.6,11460],[74.6,11545],[74.6,11630],[74.6,11714],[74.6,11799],[74.6,11884],[74.6,11969],[74.6,12054],[74.6,12139],[74.6,12224],[74.6,12309],[74.6,12394],[74.6,12479],[74.6,12564],[74.6,12648],[74.6,12733],[74.6,12818],[74.6,12903],[75.1,12988],[75.5,13073],[75.7,13158],[75.7,13243],[75.7,13327],[75.7,13413],[75.7,13497],[75.7,13582],[75.7,13667],[75.7,13752],[75.7,13837],[75.8,13922],[75.8,14007],[75.8,14091],[75.8,14176],[75.8,14261],[75.8,14346],[75.8,14431],[75.8,14516],[75.9,14601],[76,14686],[76.1,14771],[76.1,14856],[76.1,14940],[76.1,15025],[76.1,15110],[76.1,15195],[76.4,15280],[76.6,15365],[76.8,15450],[76.8,15535],[76.9,15619],[76.9,15704],[76.9,15789],[76.9,15874],[76.9,15959],[76.9,16044],[76.9,16129],[76.9,16214],[76.9,16299],[76.9,16384],[76.9,16469],[76.9,16553],[76.9,16638],[76.9,16723],[76.9,16808],[76.9,16893],[76.9,16978],[76.9,17063],[76.9,17148]]",1,0,331.2342,341.482,70.83333333,10.0109,"[{""rating"":63.645833333333336,""responseTime"":9.545799999999872},{""rating"":70.83333333333334,""responseTime"":10.010900000000447}]",space,9.7326,,341.4821,Half the time,50,341.4836,,,[],,0,7,7,7,1,audio/Narrative7Situation7.wav,audio/Narrative8Situation7.wav,audio/Narrative5Situation7.wav,audio/Narrative6Situation7.wav,5,3,4,5,,,,,,,,,,,,,,,,,,,,,,,,,,,,,,,,,,,,,
,,,,,,5efb5360f3f69c084c1ca850,2024-05-13_12h05.03.976,group3.1-3.2-social-tom,2023.2.2,Win32,166.6666667,65c5074098b851296ff0b7ed,6642375d18f5ac1009ceec9e,,,,,,,,,,,,,,,,,,,,,,,,,,,,,341.4838,1,audio/Narrative7Situation8.wav,343.489,,343.489,353.494,"[[999,0],[999,84],[999,169],[999,254],[999,339],[999,424],[999,509],[999,594],[999,678],[58.5,763],[59.2,848],[60.3,933],[62.1,1018],[62.6,1103],[63.4,1188],[65.3,1273],[67.3,1358],[69.2,1443],[70.4,1527],[71,1612],[72,1697],[72.9,1782],[73.6,1867],[73.6,1952],[73.6,2037],[73.6,2122],[73.6,2207],[73.6,2291],[73.6,2376],[73.6,2461],[73.6,2546],[73.5,2631],[73.4,2716],[73.3,2801],[73.3,2886],[73.3,2971],[73.2,3056],[73.2,3140],[73.1,3225],[73.1,3310],[73.1,3395],[73.1,3480],[73,3565],[73,3650],[72.9,3735],[72.9,3820],[72.8,3904],[72.7,3989],[72.6,4074],[72.5,4159],[72.4,4244],[72,4329],[71.6,4414],[74.3,6961],[75.1,7046],[75.5,7130],[75.8,7215],[76.3,7300],[76.5,7385],[76.6,7470],[76.6,7555],[76.6,7640],[76.6,7724],[76.6,7809],[76.6,7894],[76.6,7979],[76.6,8064],[76.6,8149],[76.6,8234],[76.6,8319],[76.6,8404],[76.6,8489],[76.6,8574],[76.6,8658],[76.6,8743],[76.6,8828],[76.6,8913],[76.6,8998],[76.6,9083],[76.6,9168],[76.6,9253],[76.7,9338],[77,9423],[77.5,9507],[77.9,9592],[77.9,9677],[77.9,9762],[77.9,9847],[78,9932]]",1,0,353.4942,354.9677,84.6875,1.2688,"[{""rating"":84.6875,""responseTime"":1.2687999999998283}]",space,0.9584,,354.9678,Not at all,0,362.7776,0,6.8176,"[{""rating"":0,""responseTime"":5.817700000000059},{""rating"":0,""responseTime"":6.817599999999629}]",space,0,8,8,8,1,audio/Narrative7Situation8.wav,audio/Narrative8Situation8.wav,audio/Narrative5Situation8.wav,audio/Narrative6Situation8.wav,2,3,3,5,,,7.2976,,,,,,,,,,,,,,,,,,,,,,,,,,,,,,,,,,
,,,,,,5efb5360f3f69c084c1ca850,2024-05-13_12h05.03.976,group3.1-3.2-social-tom,2023.2.2,Win32,166.6666667,65c5074098b851296ff0b7ed,6642375d18f5ac1009ceec9e,,,,,,,,,,,,,,,,,,,,,,,,,,,,,362.7778,1,audio/Narrative7Situation9.wav,364.7787,,364.7788,373.3893,"[[12.7,169],[13,254],[13.1,339],[13.2,424],[14,509],[16.4,594],[22.2,679],[29.5,764],[35.9,848],[41.3,933],[45.7,1018],[49.7,1103],[53.3,1188],[56.7,1273],[59.2,1358],[60.1,1443],[60.3,1528],[60.3,1612],[60.3,1697],[60.3,1782],[60.3,1867],[60.3,1952],[60.3,2037],[60.3,2122],[60.3,2207],[60.3,2291],[60.3,2376],[60.3,2461],[60.4,2546],[60.4,2631],[60.4,2716],[60.4,2801],[60.4,2886],[60.4,2971],[60.3,3056],[60.2,3140],[60.1,3225],[60,3310],[59.9,3395],[59.7,3480],[59.6,3565],[59.6,3650],[59.5,3735],[59.4,3819],[59.4,3904],[59.3,3989],[59.2,4074],[59.2,4159],[59.2,4244],[59.1,4329],[59.1,4414],[59.1,4499],[59.1,4584],[59.1,4668],[59.1,4753],[59.1,4838],[59.1,4923],[59.1,5008],[59.1,5093],[59.3,5178],[60.3,5263],[62,5348],[63.8,5432],[65.2,5517],[66.1,5602],[66.9,5687],[67.8,5772],[68.8,5857],[69.9,5942],[70.9,6027],[72,6112],[73,6197],[73.9,6281],[74.4,6366],[74.9,6451],[75.4,6536],[75.9,6621],[76.4,6706],[76.9,6791],[77.6,6876],[78.4,6961],[79.6,7046],[80.6,7130],[81.4,7215],[82.2,7300],[83,7385],[84,7470],[85,7556],[86.1,7640],[87.3,7725],[88.4,7809],[89.8,7894],[91,7979],[92.3,8064],[93.3,8149],[94.2,8234],[95,8319],[95.6,8404],[96.3,8489],[96.4,8574]]",1,0,373.3893,375.7237,93.125,1.5376,"[{""rating"":93.125,""responseTime"":1.537600000000566}]",space,1.8231,,375.7237,Not at all,0,375.7247,,,[],,0,9,9,9,1,audio/Narrative7Situation9.wav,audio/Narrative8Situation9.wav,audio/Narrative5Situation9.wav,audio/Narrative6Situation9.wav,2,3,3,4,,,,,,,,,,,,,,,,,,,,,,,,,,,,,,,,,,,,,
,,,,,,5efb5360f3f69c084c1ca850,2024-05-13_12h05.03.976,group3.1-3.2-social-tom,2023.2.2,Win32,166.6666667,65c5074098b851296ff0b7ed,6642375d18f5ac1009ceec9e,,,,,,,,,,,,,,,,,,,,,,,,,,,,,375.7248,1,audio/Narrative8Situation1.wav,380.7263,,380.7263,396.6316,"[[999,5],[999,84],[999,169],[999,254],[999,339],[999,424],[999,510],[999,594],[999,679],[999,764],[999,848],[999,933],[999,1018],[999,1103],[999,1188],[999,1273],[57.5,1358],[55,1443],[53.9,1528],[53.4,1613],[53.2,1697],[52.8,1782],[52.5,1867],[52.3,1952],[52.3,2037],[52.3,2122],[52.3,2207],[52.3,2292],[52.3,2376],[52.3,2461],[52.3,2546],[52.3,2631],[52.3,2716],[52.3,2801],[52.3,2886],[52.3,2971],[52.3,3056],[52.3,3141],[52.3,3225],[52.3,3310],[52.3,3395],[52.3,3480],[52.3,3565],[52.3,3650],[52.3,3735],[52.3,3820],[52.5,3904],[53.4,3990],[54.6,4074],[55.7,4159],[56.5,4244],[57.2,4329],[58,4414],[58.8,4499],[59.9,4584],[61.4,4669],[62.9,4754],[64.7,4838],[67.1,4923],[69.4,5008],[70.8,5093],[71.3,5178],[71.8,5263],[72.5,5348],[72.9,5433],[73,5518],[73,5602],[73,5687],[73,5772],[73,5857],[73,5942],[73,6027],[73,6112],[73,6197],[73,6281],[73,6366],[73,6451],[73,6536],[73,6621],[73,6706],[73,6791],[73.1,6876],[73.1,6961],[73.1,7045],[73.1,7130],[73.1,7215],[73.1,7300],[73.1,7385],[73.2,7470],[73.2,7555],[73.3,7640],[73.3,7725],[73.3,7810],[73.3,7894],[73.3,7979],[73.3,8064],[74.8,8149],[78.4,8234],[79.9,8319],[79.9,8404],[79.9,8489],[79.9,8574],[79.9,8659],[79.9,8743],[79.9,8828],[79.9,8913],[79.9,8998],[79.9,9083],[79.9,9168],[79.9,9253],[79.9,9338],[79.9,9423],[79.9,9508],[79.9,9592],[79.9,9677],[79.8,9762],[79.8,9847],[79.7,9932],[79.6,10017],[79.6,10102],[79.5,10187],[79.5,10271],[79.5,10356],[79.5,10441],[79.4,10526],[79.3,10611],[79.3,10696],[79.3,10781],[79.3,10866],[79.3,10950],[79.2,11035],[79.2,11120],[79.2,11205],[79.2,11290],[79.2,11375],[79.2,11460],[79.2,11545],[79.1,11630],[79.1,11715],[79.1,11799],[79.1,11884],[79.1,11969],[79,12054],[79,12139],[79,12224],[79,12309],[80.2,12394],[83.5,12479],[86.6,12564],[87.6,12648],[88.3,12733],[89,12818],[89,12903],[89,12988],[89,13073],[89,13158],[89,13243],[89,13328],[89,13413],[88.8,13497],[88.2,13582],[88,13667],[87.9,13752],[87.9,13837],[87.9,13922],[87.9,14007],[87.9,14092],[87.9,14177],[87.9,14261],[87.9,14346],[87.7,14431],[87.6,14516],[87.4,14601],[87.3,14686],[87.3,14771],[87.4,14856],[87.5,14941],[88.1,15025],[88.2,15110],[88.4,15195],[89.2,15280],[89.9,15365],[90.3,15450],[91.1,15535],[92.3,15620],[93.2,15705],[93.6,15789],[94,15874]]",1,0,396.6316,399.3845,49.89583333,2.1874,"[{""rating"":72.60416666666667,""responseTime"":0.9562999999998283},{""rating"":56.56250000000001,""responseTime"":1.723199999999224},{""rating"":49.895833333333336,""responseTime"":2.187399999999343}]",space,2.2378,,399.3845,Half the time,50,399.386,,,[],,0,10,10,10,1,audio/Narrative8Situation1.wav,audio/Narrative7Situation1.wav,audio/Narrative6Situation1.wav,audio/Narrative5Situation1.wav,5,2,2,5,,,,,,,,,,,,,,,,,,,,,,,,,,,,,,,,,,,,,
,,,,,,5efb5360f3f69c084c1ca850,2024-05-13_12h05.03.976,group3.1-3.2-social-tom,2023.2.2,Win32,166.6666667,65c5074098b851296ff0b7ed,6642375d18f5ac1009ceec9e,,,,,,,,,,,,,,,,,,,,,,,,,,,,,399.3861,1,audio/Narrative8Situation2.wav,402.3921,,402.3921,412.4942,"[[999,0],[73.4,85],[75.4,169],[75.2,254],[75.1,339],[75.2,424],[75.4,509],[76.9,594],[59.3,1188],[57.6,1273],[55.4,1358],[54.6,1443],[54,1527],[54,1612],[54,1697],[54,1782],[54,1867],[54,1952],[56,2037],[59,2122],[60.4,2207],[61.7,2292],[62.9,2377],[64,2461],[66.8,2546],[69.9,2631],[71.1,2716],[71.3,2801],[71.3,2886],[71.3,2971],[71.3,3056],[71.3,3140],[71.3,3225],[71.3,3310],[71.7,3395],[72.9,3480],[74.2,3565],[74.5,3650],[74.5,3735],[74.5,3819],[74.5,3904],[74.5,3989],[74.5,4074],[74.5,4159],[74.5,4244],[74.5,4329],[74.5,4414],[74.5,4499],[74.5,4584],[74.5,4668],[74.5,4753],[74.5,4838],[74.6,4923],[74.6,5008],[74.6,5093],[74.6,5178],[74.6,5263],[74.6,5348],[74.6,5432],[74.6,5517],[74.6,5602],[74.6,5687],[74.6,5772],[74.6,5857],[74.6,5942],[74.6,6027],[74.6,6112],[74.6,6196],[74.6,6282],[74.6,6366],[74.6,6451],[74.6,6536],[74.6,6621],[74.6,6706],[74.6,6791],[74.6,6876],[74.6,6961],[74.6,7045],[74.6,7130],[74.6,7215],[74.6,7300],[74.6,7385],[74.6,7470],[74.6,7555],[74.6,7640],[74.6,7725],[74.6,7809],[74.6,7894],[74.6,7979],[74.6,8064],[74.6,8149],[74.6,8234],[74.6,8319],[74.6,8404],[74.6,8489],[74.6,8573],[74.6,8658],[74.6,8743],[74.6,8828],[74.6,8913],[74.6,8998],[74.6,9083],[73.5,9168],[73.5,9253],[74.1,9338],[75.5,9423],[77.2,9507],[78.8,9592],[79.6,9677],[79.9,9762],[80.1,9847],[80.1,9932],[80.1,10017],[80.1,10102]]",1,0,412.4943,416.4417,50.9375,2.8428,"[{""rating"":56.770833333333336,""responseTime"":1.7497000000003027},{""rating"":50.9375,""responseTime"":2.8427999999998974}]",space,3.4326,,416.4417,Half the time,50,416.4426,,,[],,0,11,11,11,1,audio/Narrative8Situation2.wav,audio/Narrative7Situation2.wav,audio/Narrative6Situation2.wav,audio/Narrative5Situation2.wav,3,3,3,3,,,,,,,,,,,,,,,,,,,,,,,,,,,,,,,,,,,,,
,,,,,,5efb5360f3f69c084c1ca850,2024-05-13_12h05.03.976,group3.1-3.2-social-tom,2023.2.2,Win32,166.6666667,65c5074098b851296ff0b7ed,6642375d18f5ac1009ceec9e,,,,,,,,,,,,,,,,,,,,,,,,,,,,,416.4427,1,audio/Narrative8Situation3.wav,420.4438,,420.4438,442.8068,"[[50.1,1188],[48.4,1273],[45.8,1358],[44.3,1443],[43.5,1527],[43.1,1612],[42.9,1697],[42.8,1782],[42.8,1867],[42.8,1952],[42.8,2037],[42.8,2122],[42.8,2207],[42.8,2292],[42.8,2376],[42.8,2461],[42.8,2546],[42.8,2631],[42.8,2716],[42.7,2801],[42.7,2886],[42.7,2971],[42.7,3056],[42.7,3140],[42.7,3225],[42.7,3310],[42.7,3395],[42.7,3480],[42.7,3565],[42.7,3650],[42.7,3735],[42.7,3820],[42.7,3905],[42.6,3989],[42.2,4074],[41.6,4159],[40.7,4244],[40.3,4329],[40.2,4414],[40.2,4499],[40.2,4584],[40.2,4668],[40.2,4753],[40.2,4838],[40.1,4923],[39.7,5008],[39.2,5093],[39,5178],[39,5263],[39,5347],[38.8,5432],[38.6,5517],[38.5,5602],[38.5,5687],[38.5,5772],[38.5,5857],[38.5,5942],[38.5,6027],[38.5,6112],[38.5,6197],[38.5,6281],[38.5,6366],[38.5,6451],[38.5,6536],[38.5,6621],[38.5,6706],[38.5,6791],[38.5,6876],[38.6,6961],[39.5,7046],[40.4,7130],[41.1,7215],[41.7,7300],[42.2,7385],[43,7470],[44.3,7555],[44.8,7640],[44.9,7725],[44.9,7809],[44.9,7894],[45.2,7979],[45.5,8064],[45.8,8149],[46.3,8234],[46.7,8319],[47,8404],[47.1,8489],[47.1,8574],[47.1,8658],[47.2,8743],[47.2,8828],[47.6,8913],[48,8998],[48.3,9083],[48.3,9168],[48.3,9253],[48.4,9337],[48.4,9422],[48.4,9507],[48.4,9592],[48.4,9677],[48.4,9762],[48.4,9847],[48.4,9932],[48.4,10017],[48.4,10102],[48.4,10187],[48.4,10271],[48.4,10356],[48.5,10441],[48.5,10526],[48.5,10611],[48.5,10696],[48.5,10781],[48.5,10866],[48.5,10950],[48.5,11035],[48.5,11120],[48.5,11205],[48.5,11290],[48.6,11375],[51.3,11460],[57.5,11545],[64.7,11630],[71.5,11715],[78,11799],[72.6,14346],[72,14431],[71.7,14516],[71.5,14601],[71.5,14686],[71.5,14771],[71.3,14856],[71,14941],[70.3,15025],[68.1,15110],[65.6,15195],[63.3,15280],[62.2,15365],[61.9,15450],[61.8,15535],[61.5,15620],[76.3,16299],[77,16384],[77,16469],[76.9,16553],[76.8,16638],[76.8,16723],[76.8,16808],[76.7,16893],[76.7,16978],[76.8,17063],[77.5,17148],[77.9,17232],[78,17317],[78,17402],[78,17487],[78,17572],[78,17657],[78.1,17742],[78.2,17827],[78.2,17912],[78.2,17997],[78.2,18081],[78.2,18166],[78.2,18251],[78.2,18336],[78.3,18421],[78.5,18506],[78.9,18591],[78.9,18676],[78.9,18761],[78.9,18845],[78.9,18930],[78.9,19015],[78.9,19100],[78.9,19185],[78.9,19270],[78.9,19355],[78.9,19440],[78.9,19525],[78.9,19610],[78.9,19694],[78.9,19779],[78.9,19864],[78.9,19949],[78.9,20034],[78.9,20119],[78.9,20204],[78.9,20288],[79.1,20374],[79.5,20458],[79.6,20543],[80.1,20628],[81.4,20713],[83,20798],[84.5,20883],[85.3,20968],[85.3,21053],[85.3,21138],[85.3,21222],[85.3,21307],[85.3,21392],[85.3,21477],[85.3,21562],[85.3,21647],[85.3,21732],[85.3,21817],[85.3,21902],[85.3,21987],[85.3,22071],[85.3,22156],[85.3,22241],[85.3,22326]]",1,0,442.8068,446.2025,61.45833333,2.8593,"[{""rating"":61.458333333333336,""responseTime"":2.859300000000758}]",space,2.881,,446.2025,All the time,100,446.2041,,,[],,0,12,12,12,1,audio/Narrative8Situation3.wav,audio/Narrative7Situation3.wav,audio/Narrative6Situation3.wav,audio/Narrative5Situation3.wav,4,8,5,3,,,,,,,,,,,,,,,,,,,,,,,,,,,,,,,,,,,,,
,,,,,,5efb5360f3f69c084c1ca850,2024-05-13_12h05.03.976,group3.1-3.2-social-tom,2023.2.2,Win32,166.6666667,65c5074098b851296ff0b7ed,6642375d18f5ac1009ceec9e,,,,,,,,,,,,,,,,,,,,,,,,,,,,,446.2042,1,audio/Narrative8Situation4.wav,449.21,,449.2101,463.3628,"[[56.5,1188],[58,1273],[59.3,1358],[60.1,1443],[60.9,1527],[62,1612],[62.8,1697],[63.6,1782],[64.3,1867],[64.9,1952],[65.3,2037],[65.8,2122],[66.5,2207],[67.2,2292],[67.7,2377],[67.7,2461],[67.7,2546],[67.7,2631],[67.7,2716],[67.7,2801],[67.7,2886],[67.7,2971],[67.7,3056],[67.7,3141],[67.7,3225],[67.7,3310],[67.7,3395],[67.7,3480],[67.7,3565],[67.7,3650],[67.7,3735],[67.7,3820],[67.7,3904],[67.7,3989],[67.7,4074],[67.7,4159],[67.7,4244],[67.7,4329],[67.7,4414],[67.7,4499],[67.7,4584],[67.7,4669],[67.7,4753],[67.7,4838],[67.7,4923],[67.7,5008],[67.7,5093],[67.7,5178],[67.7,5263],[67.7,5348],[67.7,5433],[67.7,5517],[67.7,5602],[67.7,5687],[67.7,5772],[67.7,5857],[67.7,5942],[67.7,6027],[67.7,6112],[67.7,6197],[67.7,6282],[67.7,6366],[67.7,6451],[67.7,6536],[67.7,6621],[67.7,6706],[67.7,6791],[67.7,6876],[68.1,6961],[71.7,7045],[73,7130],[73,7215],[73,7300],[73,7385],[73,7470],[73.1,7555],[73.3,7640],[73.4,7725],[73.5,7810],[73.6,7894],[73.6,7979],[73.8,8064],[73.9,8149],[74,8234],[74,8319],[74,8404],[74,8489],[74,8573],[74,8658],[74,8743],[74,8828],[74,8913],[74,8998],[74,9083],[74,9168],[74,9253],[74,9338],[74,9423],[74,9507],[74,9592],[74,9677],[74,9762],[74,9847],[74,9932],[74,10017],[74,10102],[74,10187],[74,10271],[74,10356],[74.1,10441],[74.8,10526],[75.4,10611],[75.4,10696],[75.4,10781],[75.4,10866],[75.4,10951],[75.4,11036],[75.6,11120],[75.6,11205],[75.6,11290],[75.6,11375],[75.6,11460],[75.6,11545],[75.6,11630],[75.6,11715],[75.6,11799],[75.6,11884],[75.6,11969],[75.6,12054],[75.6,12139],[75.6,12224],[75.6,12309],[75.6,12394],[75.6,12479],[75.6,12563],[75.6,12648],[75.6,12733],[75.6,12818],[75.6,12903],[75.6,12988],[75.7,13073],[75.7,13158],[75.7,13243],[75.7,13328],[75.7,13412],[75.7,13497],[75.7,13582],[75.7,13667],[75.7,13752],[75.7,13837],[75.7,13922],[75.7,14007],[75.7,14092]]",1,0,463.3628,466.7827,83.22916667,2.59,"[{""rating"":81.66666666666667,""responseTime"":2.0601000000006024},{""rating"":83.22916666666667,""responseTime"":2.589999999999918}]",space,2.9046,,466.7827,Half the time,50,466.7842,,,[],,0,13,13,13,1,audio/Narrative8Situation4.wav,audio/Narrative7Situation4.wav,audio/Narrative6Situation4.wav,audio/Narrative5Situation4.wav,3,3,2,1,,,,,,,,,,,,,,,,,,,,,,,,,,,,,,,,,,,,,
,,,,,,5efb5360f3f69c084c1ca850,2024-05-13_12h05.03.976,group3.1-3.2-social-tom,2023.2.2,Win32,166.6666667,65c5074098b851296ff0b7ed,6642375d18f5ac1009ceec9e,,,,,,,,,,,,,,,,,,,,,,,,,,,,,466.7843,1,audio/Narrative8Situation5.wav,468.7899,,468.7899,477.0184,"[[84.9,1188],[85.9,1273],[85.9,1358],[85.2,1442],[83.6,1527],[83.5,1612],[83.8,1697],[84.9,1782],[85.5,1867],[85.5,1952],[85.6,2037],[85.8,2122],[85.8,2207],[85.8,2291],[85.8,2376],[85.8,2461],[85.8,2546],[85.8,2631],[86,2716],[86.3,2801],[86.5,2886],[86.5,2971],[86.5,3055],[86.5,3140],[86.5,3225],[86.5,3310],[86.5,3395],[86.5,3480],[86.5,3565],[86.5,3650],[86.5,3735],[86.5,3819],[86.5,3904],[86.5,3989],[86.6,4074],[86.8,4159],[87.3,4244],[87.9,4329],[88.3,4414],[88.9,4499],[89.4,4583],[90,4668],[90.6,4754],[91,4838],[91.3,4923],[91.5,5008],[91.6,5093],[91.6,5178],[91.6,5263],[91.6,5348],[91.6,5433],[91.6,5517],[91.6,5602],[91.6,5687],[91.6,5772],[91.6,5857],[91.6,5942],[91.6,6027],[91.6,6111],[91.6,6196],[91.6,6281],[91.6,6366],[91.6,6451],[91.6,6536],[91.6,6621],[91.6,6706],[91.6,6791],[91.6,6876],[91.6,6961],[91.6,7045],[91.6,7130],[91.6,7215],[91.6,7300],[91.6,7385],[91.6,7470],[91.6,7555],[91.6,7640],[91.6,7724],[91.6,7809],[91.6,7894],[91.6,7979],[91.6,8064],[91.6,8149]]",1,0,477.0184,478.8313,91.04166667,1.3801,"[{""rating"":91.04166666666667,""responseTime"":1.3800999999996293}]",space,1.3,,478.8313,Not at all,0,478.833,,,[],,0,14,14,14,1,audio/Narrative8Situation5.wav,audio/Narrative7Situation5.wav,audio/Narrative6Situation5.wav,audio/Narrative5Situation5.wav,2,5,2,5,,,,,,,,,,,,,,,,,,,,,,,,,,,,,,,,,,,,,
,,,,,,5efb5360f3f69c084c1ca850,2024-05-13_12h05.03.976,group3.1-3.2-social-tom,2023.2.2,Win32,166.6666667,65c5074098b851296ff0b7ed,6642375d18f5ac1009ceec9e,,,,,,,,,,,,,,,,,,,,,,,,,,,,,478.8331,1,audio/Narrative8Situation6.wav,480.8384,,480.8384,487.2903,"[[87.9,169],[88.5,254],[89.5,339],[90.5,424],[90.6,509],[90.9,594],[91.5,679],[92,764],[92.2,848],[92.4,933],[92.6,1018],[92.6,1103],[92.6,1188],[92.6,1273],[92.6,1358],[92.6,1443],[92.6,1528],[92.6,1613],[92.6,1697],[92.6,1782],[92.6,1867],[92.6,1952],[92.6,2037],[92.6,2122],[92.6,2207],[92.6,2292],[92.6,2376],[92.6,2461],[92.6,2546],[92.6,2631],[92.6,2716],[92.6,2801],[92.6,2886],[92.6,2971],[92.6,3056],[92.6,3141],[92.6,3225],[92.6,3310],[92.6,3395],[92.6,3480],[92.6,3565],[92.6,3650],[92.6,3735],[92.6,3820],[92.6,3905],[92.6,3990],[92.6,4074],[93,4159],[93.4,4244],[93.6,4329],[93.8,4414],[93.8,4499],[93.8,4584],[93.9,4669],[93.9,4754],[94,4838],[94.1,4923],[94.3,5008],[94.4,5093],[94.4,5178],[94.4,5263],[94.4,5348],[94.4,5433],[94.4,5518],[94.4,5602],[94.4,5687],[94.4,5772],[94.4,5857],[94.4,5942],[94.4,6027],[94.4,6112],[94.4,6197],[94.4,6282],[94.4,6366],[94.4,6451]]",1,0,487.2903,489.7582,89.89583333,2.4656,"[{""rating"":89.89583333333333,""responseTime"":2.4655999999997675}]",space,1.2992,,489.7582,Half the time,50,489.7599,,,[],,0,15,15,15,1,audio/Narrative8Situation6.wav,audio/Narrative7Situation6.wav,audio/Narrative6Situation6.wav,audio/Narrative5Situation6.wav,2,3,2,3,,,,,,,,,,,,,,,,,,,,,,,,,,,,,,,,,,,,,
,,,,,,5efb5360f3f69c084c1ca850,2024-05-13_12h05.03.976,group3.1-3.2-social-tom,2023.2.2,Win32,166.6666667,65c5074098b851296ff0b7ed,6642375d18f5ac1009ceec9e,,,,,,,,,,,,,,,,,,,,,,,,,,,,,489.7599,1,audio/Narrative8Situation7.wav,492.76,,492.76,504.8267,"[[87.9,933],[82.4,1018],[74.2,1103],[67.9,1188],[64,1273],[61.1,1357],[60.6,1442],[60.6,1527],[60.6,1612],[60.6,1697],[60.5,1782],[60.5,1867],[60.5,1952],[60.5,2037],[60.5,2122],[60.5,2206],[60.5,2291],[60.5,2376],[60.5,2461],[60.5,2546],[60.5,2631],[60.5,2716],[60.5,2801],[60.5,2886],[60.5,2970],[60.5,3055],[60.5,3140],[60.5,3225],[60.5,3310],[60.5,3395],[61.1,3480],[62.5,3565],[64.2,3650],[65.4,3734],[65.5,3819],[65.5,3904],[65.5,3989],[65.5,4074],[65.5,4159],[65.5,4244],[65.5,4329],[65.5,4414],[65.5,4498],[65.5,4583],[65.5,4668],[65.5,4753],[65.5,4838],[65.5,4923],[65.5,5008],[65.5,5093],[65.5,5178],[65.5,5263],[65.5,5347],[65.5,5432],[65.5,5517],[65.5,5602],[65.5,5687],[65.5,5772],[65.5,5857],[65.5,5942],[65.5,6026],[65.5,6111],[65.5,6196],[65.5,6281],[65.5,6366],[65.5,6451],[65.5,6536],[65.5,6621],[65.5,6706],[65.1,6791],[64.9,6875],[64.9,6960],[64.9,7045],[64.9,7130],[64.9,7215],[64.9,7300],[65.2,7385],[65.2,7470],[65.2,7555],[65.2,7640],[65.2,7724],[65.2,7809],[65.2,7894],[65.2,7979],[65.2,8064],[65.2,8149],[65.2,8234],[65.2,8319],[65.2,8404],[65.2,8488],[65.2,8573],[65.2,8658],[65.2,8743],[65.2,8828],[65.2,8913],[65.2,8998],[65.2,9083],[65.2,9168],[65.2,9252],[65.2,9337],[65.2,9422],[65.2,9507],[65.2,9592],[65.2,9677],[65.2,9762],[65.2,9847],[65.2,9932],[65.2,10016],[65.2,10101],[65.2,10186],[65.2,10271],[65.2,10356],[65.2,10441],[65.2,10526],[65.2,10611],[65.2,10696],[65.2,10780],[65.2,10865],[65.2,10950],[65.2,11035],[66.4,11120],[67.8,11205],[69,11290],[70.2,11375],[70.8,11460],[70.9,11545],[70.9,11630],[71.1,11714],[71.6,11799],[72,11884],[72.6,11969],[73.4,12054]]",1,0,504.8268,515.0258,50.52083333,9.9272,"[{""rating"":77.60416666666667,""responseTime"":0.8532000000000153},{""rating"":88.02083333333333,""responseTime"":1.3222000000000662},{""rating"":67.5,""responseTime"":8.491200000000163},{""rating"":54.79166666666667,""responseTime"":8.864099999999553},{""rating"":47.8125,""responseTime"":9.178099999999631},{""rating"":50.520833333333336,""responseTime"":9.927200000000084}]",space,9.6871,,515.0258,Half the time,50,515.0267,,,[],,0,16,16,16,1,audio/Narrative8Situation7.wav,audio/Narrative7Situation7.wav,audio/Narrative6Situation7.wav,audio/Narrative5Situation7.wav,3,5,5,4,,,,,,,,,,,,,,,,,,,,,,,,,,,,,,,,,,,,,
,,,,,,5efb5360f3f69c084c1ca850,2024-05-13_12h05.03.976,group3.1-3.2-social-tom,2023.2.2,Win32,166.6666667,65c5074098b851296ff0b7ed,6642375d18f5ac1009ceec9e,,,,,,,,,,,,,,,,,,,,,,,,,,,,,515.0268,1,audio/Narrative8Situation8.wav,518.0273,,518.0274,530.8643,"[[67.2,594],[70.9,679],[72.4,763],[72.7,848],[72.7,933],[72.7,1018],[72.7,1103],[72.7,1188],[72.7,1273],[72.7,1358],[72.8,1442],[72.9,1527],[72.9,1612],[73,1697],[73,1782],[73,1867],[73,1952],[73,2037],[73,2122],[73,2206],[73,2291],[73,2376],[73,2461],[73,2546],[73,2631],[73,2716],[73.1,2801],[73.2,2886],[73.2,2971],[73.2,3056],[73.3,3140],[73.3,3225],[76.1,3310],[80,3395],[81,3480],[81.1,3565],[81.5,3650],[82.4,3735],[83.6,3820],[84.7,3904],[85.5,3989],[86.6,4074],[87.7,4159],[88.6,4244],[89.6,4329],[90,4414],[90,4499],[90,4584],[90,4668],[90,4753],[90,4838],[90,4923],[90,5008],[90,5093],[90,5178],[90,5263],[90,5348],[90,5432],[90,5517],[90,5602],[90,5687],[90.1,5772],[90.1,5857],[90.1,5942],[90.1,6027],[90.1,6112],[90.1,6197],[90.1,6281],[90.1,6366],[90.1,6451],[90.1,6536],[90.2,6621],[90.2,6706],[90.2,6791],[90,6876],[88.6,6961],[88.2,7046],[88,7130],[87.2,7215],[86.5,7300],[86.3,7385],[86.1,7470],[86,7555],[85.9,7640],[85.9,7725],[85.7,7810],[85.7,7894],[85.7,7979],[85.7,8064],[85.7,8149],[85.7,8234],[85.7,8319],[85.7,8404],[85.7,8489],[85.2,8574],[85.7,8658],[86.7,8743],[87.9,8828],[89.1,8913],[89.8,8998],[90.3,9083],[90.8,9168],[91.6,9253],[92.3,9338],[92.6,9422],[92.7,9507],[92.7,9592],[92.9,9677],[92.9,9762],[92.9,9847],[92.9,9932],[92.9,10017],[92.9,10102],[92.9,10186],[92.9,10271],[92.9,10356],[92.9,10441],[92.9,10526],[92.9,10611],[92.9,10696],[92.9,10781],[92.9,10866],[92.9,10950],[92.9,11035],[92.9,11120],[92.9,11205],[92.9,11290],[92.9,11375],[92.9,11460],[92.9,11545],[92.9,11630],[92.9,11714],[92.9,11799],[92.9,11884],[92.9,11969],[92.9,12054],[92.9,12139],[92.9,12224],[92.9,12309],[92.9,12394],[92.9,12479],[92.9,12563],[92.9,12648],[92.9,12733],[92.9,12818]]",1,0,530.8643,539.4261,63.02083333,7.7376,"[{""rating"":89.89583333333333,""responseTime"":3.97400000000016},{""rating"":75.52083333333333,""responseTime"":7.292599999999766},{""rating"":63.020833333333336,""responseTime"":7.737599999999702}]",space,8.0502,,539.4262,Half the time,50,539.4271,,,[],,0,17,17,17,1,audio/Narrative8Situation8.wav,audio/Narrative7Situation8.wav,audio/Narrative6Situation8.wav,audio/Narrative5Situation8.wav,3,2,5,3,,,,,,,,,,,,,,,,,,,,,,,,,,,,,,,,,,,,,
,,,,,,5efb5360f3f69c084c1ca850,2024-05-13_12h05.03.976,group3.1-3.2-social-tom,2023.2.2,Win32,166.6666667,65c5074098b851296ff0b7ed,6642375d18f5ac1009ceec9e,,,,,,,,,,,,,,,,,,,,,,,,,,,,,539.4273,1,audio/Narrative8Situation9.wav,542.4278,,542.4278,553.7246,"[[64.2,848],[64.7,933],[65.2,1018],[65.3,1103],[65.4,1188],[65.4,1273],[65.4,1358],[65.4,1443],[65.6,1527],[65.7,1612],[65.8,1697],[65.9,1782],[66,1867],[66.3,1952],[66.3,2037],[66.3,2122],[66.3,2206],[66.4,2292],[66.4,2376],[66.4,2461],[66.4,2546],[66.4,2631],[66.4,2716],[66.8,2801],[67.6,2886],[68.5,2971],[69.8,3055],[71.7,3140],[73.6,3225],[75.3,3310],[76.5,3395],[77.2,3480],[77.5,3565],[77.8,3650],[78.2,3735],[78.6,3820],[78.9,3904],[79.1,3990],[79.2,4074],[79.4,4159],[79.5,4244],[79.6,4329],[79.7,4414],[79.7,4499],[79.8,4583],[79.9,4668],[79.9,4753],[79.9,4838],[79.9,4923],[80,5008],[80,5093],[80,5178],[80,5263],[80,5348],[80,5432],[80,5517],[80,5602],[80,5687],[80,5772],[80,5857],[80,5942],[80,6027],[80,6112],[80,6197],[80,6281],[80,6366],[80,6451],[80,6536],[80,6621],[80,6706],[80,6791],[80,6876],[80,6961],[80,7045],[80,7130],[80,7215],[80,7300],[80,7385],[80,7470],[80,7555],[80,7640],[80,7725],[80,7809],[80,7894],[80,7979],[80,8064],[80,8149],[80,8234],[80,8319],[80,8404],[80,8489],[80,8574],[80,8658],[80,8743],[80,8828],[80,8913],[80,8998],[80,9083],[80,9168],[80,9253],[80,9338],[80,9423],[80,9507],[80.5,9592],[80.7,9677],[81,9762],[81.7,9847],[82.4,9932],[83.2,10017],[83.6,10102],[83.9,10186],[84.2,10271],[84.7,10356],[85.1,10441],[85.6,10526],[86,10611],[86.5,10696],[86.8,10781],[86.9,10866],[86.9,10951],[86.9,11035],[86.9,11120],[86.9,11205],[87,11290]]",1,0,553.7246,555.7315,69.16666667,1.7313,"[{""rating"":61.5625,""responseTime"":0.8272000000001754},{""rating"":51.979166666666664,""responseTime"":1.3444000000004053},{""rating"":69.16666666666667,""responseTime"":1.7312999999996919}]",space,1.4967,,555.7315,Half the time,50,555.7324,,,[],,0,18,18,18,1,audio/Narrative8Situation9.wav,audio/Narrative7Situation9.wav,audio/Narrative6Situation9.wav,audio/Narrative5Situation9.wav,3,2,4,3,,,,,,,,,,,,,,,,,,,,,,,,,,,,,,,,,,,,,
,,,,,,5efb5360f3f69c084c1ca850,2024-05-13_12h05.03.976,group3.1-3.2-social-tom,2023.2.2,Win32,166.6666667,65c5074098b851296ff0b7ed,6642375d18f5ac1009ceec9e,,,,,,,,,,,,,,,,,,,,,,,,,,,592.9323,595.5096,595.5189,2,audio/Narrative13Situation2.wav,595.5189,,595.5189,625.2523,"[[999,0],[999,81],[999,166],[999,251],[999,336],[999,421],[999,506],[999,590],[999,675],[999,760],[999,845],[999,931],[999,1015],[999,1100],[999,1185],[999,1270],[999,1355],[999,1439],[999,1524],[999,1609],[999,1694],[999,1779],[999,1864],[999,1949],[999,2034],[999,2119],[999,2203],[999,2288],[999,2373],[999,2458],[999,2543],[999,2628],[999,2713],[999,2798],[999,2883],[999,2967],[999,3052],[999,3137],[999,3222],[999,3307],[999,3392],[68.9,3477],[68.9,3562],[69.2,3647],[70,3732],[71.9,3817],[73.3,3901],[74.4,3986],[75.1,4071],[76.5,4156],[77.9,4241],[78.3,4326],[78.3,4411],[78.5,4496],[79,4580],[79.6,4665],[80.1,4750],[80.3,4835],[80.5,4920],[81.1,5005],[81.8,5090],[81.8,5175],[81.8,5260],[81.8,5344],[81.8,5429],[81.8,5514],[81.8,5599],[81.8,5684],[81.8,5769],[81.8,5854],[81.8,5939],[81.8,6024],[81.8,6108],[81.8,6193],[81.8,6278],[82.1,6363],[82.5,6448],[83,6533],[83.5,6618],[84,6703],[84,6788],[84,6872],[83.9,6957],[80.7,7042],[75.9,7127],[72.1,7212],[69,7297],[65.7,7382],[64.2,7467],[63.8,7552],[63.8,7637],[63.8,7722],[64.1,7806],[64.3,7891],[64.8,7976],[64.9,8061],[65.2,8146],[65.7,8231],[66.1,8316],[66.9,8401],[67.6,8486],[67.8,8570],[68,8655],[68,8740],[68.1,8825],[68.3,8910],[69.1,8995],[71.5,9080],[73.3,9165],[73.6,9250],[73.8,9334],[74.2,9419],[74.3,9504],[74.7,9589],[74.8,9674],[74.9,9759],[75,9844],[75.5,9929],[76.3,10014],[76.8,10098],[76.8,10183],[76.9,10268],[76.9,10353],[76.9,10438],[76.9,10523],[76.9,10608],[77,10693],[77.2,10778],[77.2,10863],[77.3,10947],[77.4,11032],[78.2,11117],[80,11202],[81.6,11287],[82.4,11372],[82.7,11457],[82.9,11542],[83,11626],[83.2,11711],[83.3,11796],[83.3,11881],[83.3,11966],[83.3,12051],[83.3,12136],[83.3,12221],[83.3,12306],[82.7,12391],[80.8,12475],[78.3,12560],[74.6,12645],[69.2,12730],[63.2,12815],[58,12900],[54.5,12985],[52.1,13070],[51.1,13155],[51.1,13239],[51.1,13324],[51.1,13409],[51.1,13494],[51.1,13579],[51.1,13664],[51.1,13749],[51.1,13834],[51.1,13919],[49.3,14003],[43.9,14088],[39,14173],[34.4,14258],[30,14343],[26.9,14428],[24.3,14513],[21.8,14598],[19.4,14683],[17.8,14768],[17.5,14852],[17.5,14937],[17.5,15022],[17.5,15107],[17.5,15192],[17.7,15277],[17.9,15362],[17.9,15447],[17.9,15532],[21.7,20201],[21.7,20286],[21.8,20370],[22.1,20455],[22.6,20540],[22.7,20625],[22.7,20710],[23,20795],[23.5,20880],[24.7,20965],[27.8,21050],[34.4,21134],[43.8,21219],[52.7,21304],[67.3,21898],[67.6,21983],[67.7,22068],[67.7,22153],[67.8,22238],[68.5,22323],[69.3,22408],[69.7,22493],[69.9,22578],[70.3,22662],[70.9,22747],[71.7,22832],[72.2,22917],[72.8,23002],[73.4,23087],[74.3,23172],[74.9,23257],[75.4,23342],[76,23427],[76.7,23511],[77.1,23596],[77.4,23681],[77.5,23766],[77.5,23851],[77.5,23936],[77.5,24021],[77.5,24106],[77.6,24190],[78,24275],[78.6,24360],[79.5,24445],[80.3,24530],[81,24615],[81.7,24700],[82.1,24785],[82.5,24870],[82.7,24955],[82.8,25040],[82.8,25125],[82.8,25209],[82.8,25294],[82.8,25379],[82.8,25464],[82.8,25549],[82.8,25634],[82.8,25719],[82.9,25804],[82.9,25888],[82.9,25973],[82.9,26058],[82.9,26143],[82.9,26228],[82.9,26313],[82.9,26398],[82.9,26483],[82.9,26568],[82.9,26652],[82.9,26737],[82.9,26822],[82.9,26907],[82.9,26992],[82.9,27077],[82.9,27162],[82.9,27247],[82.9,27332],[82.9,27416],[82.9,27501],[83,27586],[83,27671],[83,27756],[83,27841],[83,27926],[83,28011],[83,28096],[83,28180],[83,28265],[83,28350],[83.2,28435],[84.1,28520],[85,28605],[85.5,28690],[85.6,28775],[85.6,28860],[85.6,28945],[85.6,29029],[85.6,29114],[85.6,29199],[85.6,29284],[85.6,29369],[85.6,29454],[85.6,29539],[85.6,29624],[85.6,29709]]",1,0,625.2524,625.2534,,,[],,,,625.2535,All the time,100,625.2546,,,[],,0,0,0,0,1,audio/Narrative13Situation2.wav,audio/Narrative13Situation2.wav,audio/Narrative13Situation2.wav,audio/Narrative13Situation2.wav,2,2,2,2,,,,,555.7328,592.9269,space,36.6874,,,,,,,,,,,,,,,,,,,,,,,,,,,,,
,,,,,,5efb5360f3f69c084c1ca850,2024-05-13_12h05.03.976,group3.1-3.2-social-tom,2023.2.2,Win32,166.6666667,65c5074098b851296ff0b7ed,6642375d18f5ac1009ceec9e,,,,,,,,,,,,,,,,,,,,,,,,,,,,,625.2547,2,audio/Narrative5Situation1.wav,630.2548,,630.2549,643.5224,"[[999,5],[999,84],[999,169],[999,254],[999,339],[999,424],[999,509],[57.5,594],[58.9,679],[61.4,764],[62.3,848],[62.3,933],[59.8,1018],[55.1,1103],[49.9,1188],[45,1273],[42.9,1358],[42.8,1442],[42.8,1528],[42.7,1612],[42.6,1697],[42.2,1782],[41.6,1867],[40.1,1952],[33.4,2037],[29.1,2122],[29.1,2207],[31.7,2631],[34.6,2716],[37.1,2801],[38.5,2886],[41,2971],[44.7,3056],[47.5,3140],[48.3,3225],[49.3,3310],[51.3,3395],[53.2,3480],[54.5,3565],[55.3,3650],[56.3,3735],[57.1,3819],[58.4,3904],[59.8,3989],[60.1,4074],[59.7,4159],[55.7,4244],[49.6,4329],[43.8,4414],[40.9,4499],[40.2,4584],[38.9,4669],[36.5,4753],[32.1,4838],[27.8,4923],[25.8,5008],[24.8,5093],[24.1,5178],[23.8,5263],[23.6,5348],[23.6,5432],[23.6,5518],[23.8,5602],[23.9,5687],[23.9,5772],[23.9,5857],[24,5942],[24,6027],[24,6112],[24,6197],[24,6281],[24.2,6366],[27.4,6451],[33.3,6536],[39.5,6621],[44.8,6706],[49.9,6791],[55.7,6876],[61.5,6961],[66,7045],[69.3,7130],[71.7,7215],[73.1,7300],[74.4,7385],[75.8,7470],[77.3,7555],[78.2,7640],[78.3,7725],[78.3,7810],[78.3,7894],[78.3,7979],[78.3,8064],[78.3,8149],[78.3,8234],[78.3,8319],[78.3,8404],[78.3,8489],[78.3,8574],[78.3,8658],[78.3,8743],[78.3,8828],[78.3,8913],[78.9,8998],[80.4,9083],[82.4,9168],[83.6,9253],[84.3,9338],[85,9422],[86.3,9507],[87.6,9592],[88.9,9677],[89.7,9762],[90.2,9847],[90.9,9932],[91.8,10017],[92.5,10102],[93.3,10187],[94.2,10271],[94.8,10356],[95.2,10441],[95.5,10526],[96,10611],[97,10696],[97.9,10781],[98.6,10866],[98.6,10951],[98.6,11035],[98.6,11120],[98.8,11205],[98.8,11290],[98.8,11375],[98.8,11460],[98.8,11545],[98.9,11630],[98.9,11714],[98.9,11799],[98.9,11884],[98.9,11969],[98.9,12054],[98.9,12139],[98.9,12224],[98.9,12309],[98.9,12394],[98.9,12479],[98.9,12563],[98.9,12648],[98.9,12733],[98.9,12818],[98.9,12903],[98.9,12988],[98.9,13073],[98.9,13158],[98.9,13243]]",1,0,643.5224,649.9135,93.54166667,5.9443,"[{""rating"":68.85416666666666,""responseTime"":1.9435000000000855},{""rating"":81.66666666666667,""responseTime"":3.3422000000002754},{""rating"":85.52083333333333,""responseTime"":4.468399999999519},{""rating"":87.70833333333333,""responseTime"":4.872299999999996},{""rating"":89.47916666666667,""responseTime"":5.536700000000337},{""rating"":93.54166666666667,""responseTime"":5.944299999999885}]",space,5.8759,,649.9135,Not at all,0,649.9153,,,[],,0,1,1,1,1,audio/Narrative7Situation1.wav,audio/Narrative8Situation1.wav,audio/Narrative5Situation1.wav,audio/Narrative6Situation1.wav,2,5,5,2,,,,,,,,,,,,,,,,,,,,,,,,,,,,,,,,,,,,,
,,,,,,5efb5360f3f69c084c1ca850,2024-05-13_12h05.03.976,group3.1-3.2-social-tom,2023.2.2,Win32,166.6666667,65c5074098b851296ff0b7ed,6642375d18f5ac1009ceec9e,,,,,,,,,,,,,,,,,,,,,,,,,,,,,649.9155,2,audio/Narrative5Situation2.wav,652.9211,,652.9211,682.3666,"[[999,0],[999,84],[999,169],[999,254],[999,339],[999,424],[999,509],[999,594],[999,679],[999,764],[999,848],[999,933],[999,1018],[41.4,1103],[41.7,1188],[58.2,3225],[65.4,3310],[69.3,3395],[71.9,3480],[76.4,3565],[81.9,3650],[86.7,3735],[88.2,3820],[89.4,3904],[90.3,3989],[90.7,4074],[91.9,4159],[92.4,4244],[92.5,4329],[92.5,4414],[92.5,4499],[92.5,4584],[92.5,4668],[91.9,4754],[86.6,4838],[80,4923],[78.5,5008],[78.5,5093],[79.1,5178],[80.8,5263],[82.4,5348],[83.4,5433],[84.8,5518],[86.1,5602],[86.8,5687],[86.9,5772],[87.1,5857],[87.1,5942],[87.2,6027],[87.3,6112],[87.5,6197],[87.6,6282],[87.6,6366],[87.6,6451],[87.7,6536],[87.9,6621],[88.2,6706],[88.3,6791],[88.3,6876],[88.3,6961],[88.3,7046],[88.3,7130],[88.3,7215],[88.3,7300],[88.3,7385],[88.3,7470],[88.3,7555],[88.4,7640],[88.4,7725],[88.4,7810],[88.4,7894],[88.5,7979],[89.2,8064],[90.1,8149],[90.4,8234],[90.6,8319],[90.7,8404],[90.9,8489],[91.1,8574],[91.3,8658],[91.4,8743],[91.8,8828],[92.1,8913],[92.1,8998],[92.1,9083],[92.1,9168],[92.1,9253],[92.1,9338],[92.1,9423],[92.1,9507],[92.4,9592],[92.6,9677],[92.7,9762],[92.7,9847],[92.7,9932],[92.8,10017],[92.8,10102],[92.8,10187],[92.8,10272],[92.8,10356],[92.8,10441],[92.8,10526],[92.8,10611],[92.8,10696],[92.8,10781],[92.8,10866],[92.8,10951],[92.8,11035],[92.8,11120],[92.8,11205],[92.8,11290],[92.8,11375],[92.8,11460],[92.8,11545],[92.8,11630],[92.8,11715],[92.8,11799],[92.8,11884],[92.9,11969],[93.3,12054],[93.4,12139],[93.5,12224],[93.6,12309],[93.8,12394],[93.8,12479],[93.8,12564],[93.8,12648],[93.8,12733],[93.8,12818],[93.8,12903],[93.8,12988],[93.8,13073],[93.8,13158],[93.8,13243],[93.8,13327],[93.8,13412],[93.8,13497],[93.8,13582],[93.8,13667],[93.8,13752],[93.8,13837],[93.8,13922],[93.8,14007],[94,14092],[94.2,14176],[94.2,14261],[94.3,14346],[94.3,14431],[94.3,14516],[94.3,14601],[94.3,14686],[94.3,14771],[94.3,14856],[94.3,14941],[94.3,15025],[94.3,15110],[94.3,15195],[94.3,15280],[94.3,15365],[94.3,15450],[94.3,15535],[94.3,15620],[94.3,15705],[94.3,15789],[94.3,15874],[94.3,15959],[94.3,16044],[94.8,16129],[95.5,16214],[96.1,16299],[96.4,16384],[96.5,16469],[96.6,16553],[96.7,16638],[96.7,16723],[96.7,16808],[96.7,16893],[96.7,16978],[96.7,17063],[96.7,17148],[96.9,17233],[97,17317],[97,17402],[97.1,17487],[97.1,17572],[97.1,17657],[97.1,17742],[97.2,17827],[97.4,17912],[97.4,17997],[97.4,18082],[97.4,18166],[97.4,18251],[97.4,18336],[97.4,18421],[97.4,18506],[97.4,18591],[97.4,18676],[97.4,18761],[97.4,18846],[97.4,18930],[97.4,19015],[97.4,19100],[97.4,19185],[97.4,19270],[97.1,19355],[95.3,19440],[94.3,19525],[94,19610],[93.8,19695],[93.6,19779],[93.4,19864],[93.2,19949],[93.1,20034],[93.1,20119],[93.1,20204],[93.1,20289],[93.1,20374],[93.1,20459],[93.1,20544],[93,20628],[92.9,20713],[92.8,20798],[92.7,20883],[92.7,20968],[92.7,21053],[92.7,21138],[92.7,21223],[92.7,21307],[92.7,21392],[92.7,21477],[92.6,21562],[92.5,21647],[92.2,21732],[92.1,21817],[91.9,21902],[91.6,21987],[91.3,22072],[90.9,22156],[90.6,22241],[90.1,22326],[98.6,23175],[98.3,23260],[100,23345],[100,23430],[100,23515],[100,23600],[100,23684],[100,23769],[100,23854],[100,23939],[100,24024],[100,24109],[100,24194],[100,24279],[100,24364],[100,24449],[100,24533],[100,24618],[100,24703],[100,24788],[100,24873],[100,24958],[100,25043],[100,25128],[100,25213],[100,25298],[100,25382],[100,25467],[100,25552],[100,25637],[100,25722],[100,25807],[100,25892],[100,25976],[100,26061],[100,26146],[100,26231],[100,26316],[100,26401],[100,26486],[100,26571],[100,26656],[100,26741],[100,26825],[100,26910],[100,26995],[100,27080],[100,27165],[100,27250],[100,27335],[100,27420],[100,27505],[100,27590],[100,27674],[100,27759],[100,27844],[100,27929],[100,28014],[100,28099],[100,28184],[100,28269],[100,28354],[100,28438],[100,28523],[100,28608],[100,28693],[100,28778],[100,28863],[100,28948],[100,29033],[100,29118],[100,29202],[100,29287],[100,29372]]",1,0,682.3667,688.7215,82.70833333,6.1744,"[{""rating"":100,""responseTime"":5.344299999999748},{""rating"":82.70833333333334,""responseTime"":6.1744000000003325}]",space,5.8394,,688.7215,Not at all,0,688.7225,,,[],,0,2,2,2,1,audio/Narrative7Situation2.wav,audio/Narrative8Situation2.wav,audio/Narrative5Situation2.wav,audio/Narrative6Situation2.wav,3,3,3,3,,,,,,,,,,,,,,,,,,,,,,,,,,,,,,,,,,,,,
,,,,,,5efb5360f3f69c084c1ca850,2024-05-13_12h05.03.976,group3.1-3.2-social-tom,2023.2.2,Win32,166.6666667,65c5074098b851296ff0b7ed,6642375d18f5ac1009ceec9e,,,,,,,,,,,,,,,,,,,,,,,,,,,,,688.7227,2,audio/Narrative5Situation3.wav,691.7229,,691.7229,705.615,"[[999,5],[999,84],[999,169],[999,254],[999,339],[999,424],[999,509],[999,594],[999,679],[999,764],[999,848],[999,933],[999,1018],[999,1103],[999,1188],[999,1273],[999,1358],[999,1443],[999,1528],[999,1612],[999,1697],[999,1782],[999,1867],[999,1952],[999,2037],[999,2122],[999,2207],[999,2291],[999,2376],[999,2461],[999,2546],[999,2631],[999,2716],[999,2801],[999,2886],[999,2971],[999,3056],[76.4,3140],[73.6,3225],[73.4,3310],[74.5,3395],[77.7,3480],[81.5,3565],[83.8,3650],[84.8,3735],[85.4,3820],[85.6,3904],[85.6,3989],[83.6,4074],[79,4159],[72.2,4244],[65.4,4329],[62.5,4414],[62.2,4499],[62,4584],[61.5,4669],[60.9,4753],[60.4,4838],[60.3,4923],[60.3,5008],[60.3,5093],[60.9,5178],[61.9,5263],[62.6,5348],[62.9,5433],[62.9,5518],[62.4,5602],[60.7,5687],[59.3,5772],[59.2,5857],[59.2,5942],[59.2,6027],[59.2,6112],[59.4,6197],[61.1,6876],[62.7,6961],[64.3,7046],[66,7131],[67.3,7215],[68,7300],[69.3,7385],[72.1,7470],[76.8,7555],[81.4,7640],[86,7725],[90.2,7810],[93.9,7894],[96.7,7979],[97.9,8064],[98,8149],[98,8234],[98,8319],[98,8404],[98,8489],[98,8574],[98,8658],[98,8743],[97.3,8828],[96,8913],[94.6,8998],[94.2,9083],[94,9168],[93.6,9253],[93.6,9338],[93.6,9423],[93.6,9507],[93.6,9592],[93.6,9677],[93.6,9762],[93.6,9847],[93.6,9932],[93.8,10017],[94.1,10102],[94.4,10187],[94.4,10271],[94.4,10356],[94.4,10441],[94.4,10526],[94.4,10611],[94.4,10696],[94.4,10781],[94.4,10866],[94.4,10951],[94.4,11035],[94.4,11120],[94.4,11205],[94.4,11290],[94.4,11375],[94.4,11460],[94.4,11545],[94.4,11630],[94.4,11715],[94.4,11800],[94.4,11884],[94.4,11969],[94.4,12054],[94.4,12139],[94.4,12224],[94.4,12309],[94.4,12394],[94.4,12479],[94.4,12564],[94.4,12648],[94.4,12733],[94.4,12818],[94.4,12903],[94.4,12988],[94.4,13073],[94.4,13158],[94.4,13243],[94.4,13328],[94.4,13413],[94.4,13497],[94.4,13582],[94.4,13667],[94.4,13752],[94.4,13837]]",1,0,705.6151,711.9272,97.5,5.8307,"[{""rating"":83.02083333333333,""responseTime"":4.8194999999998345},{""rating"":97.5,""responseTime"":5.830699999999069}]",space,5.8021,,711.9272,All the time,100,711.9288,,,[],,0,3,3,3,1,audio/Narrative7Situation3.wav,audio/Narrative8Situation3.wav,audio/Narrative5Situation3.wav,audio/Narrative6Situation3.wav,8,4,3,5,,,,,,,,,,,,,,,,,,,,,,,,,,,,,,,,,,,,,
,,,,,,5efb5360f3f69c084c1ca850,2024-05-13_12h05.03.976,group3.1-3.2-social-tom,2023.2.2,Win32,166.6666667,65c5074098b851296ff0b7ed,6642375d18f5ac1009ceec9e,,,,,,,,,,,,,,,,,,,,,,,,,,,,,711.929,2,audio/Narrative5Situation4.wav,712.934,,712.934,733.3081,"[[88,84],[87.9,169],[87.8,254],[87.8,339],[87.7,424],[87.7,509],[87.7,594],[87.7,679],[87.7,763],[87.7,848],[87.7,933],[87.7,1018],[87.7,1103],[87.7,1188],[87.7,1273],[87.7,1358],[87.7,1442],[87.7,1527],[87.5,1612],[87.2,1697],[86.7,1782],[86.3,1867],[86,1952],[85.9,2037],[85.9,2122],[85.8,2207],[85.5,2291],[85.3,2376],[85.1,2461],[84.9,2546],[84.8,2631],[84.7,2716],[84.6,2801],[84.6,2886],[84.6,2971],[84.6,3055],[84.6,3140],[84.6,3225],[84.6,3310],[84.6,3395],[84.5,3480],[84.5,3565],[84.5,3650],[84.5,3735],[84.5,3819],[84.5,3904],[84.5,3989],[84.5,4074],[84.5,4159],[84.5,4244],[84.5,4329],[84.5,4414],[84.5,4499],[84.5,4584],[84.5,4669],[84.5,4753],[84.5,4838],[84.5,4923],[84.3,5008],[84.2,5093],[83.8,5178],[82.8,5263],[82.1,5348],[81.8,5432],[81.6,5517],[81.6,5602],[81.6,5687],[81.6,5772],[81.5,5857],[81.5,5942],[81.4,6027],[81.1,6112],[80.6,6197],[75.2,7045],[75.1,7130],[74.7,7215],[74.7,7300],[74.7,7385],[74.6,7470],[74.5,7555],[74.4,7640],[74.3,7725],[74.2,7810],[74.2,7894],[73.9,7979],[72.9,8064],[72.8,8149],[72.8,8234],[72.8,8319],[72.8,8404],[72.8,8489],[72.8,8574],[72.8,8658],[72.8,8743],[72.8,8828],[72.8,8913],[72.8,8998],[72.8,9083],[72.8,9168],[72.8,9253],[72.8,9337],[72.8,9422],[72.8,9507],[72.8,9592],[72.8,9677],[72.8,9762],[72.8,9847],[72.8,9932],[72.8,10017],[72.8,10102],[72.8,10186],[72.8,10271],[72.9,10356],[76.5,10441],[82.3,10526],[87.4,11035],[87.4,11120],[87.5,11205],[88.8,11290],[90.2,11375],[91.1,11460],[91.8,11545],[92,11630],[92.1,11715],[92.1,11799],[92.1,11884],[92.1,11969],[92.2,12054],[92.2,12139],[92.2,12224],[92.2,12309],[92.2,12394],[91.1,12479],[89.3,12564],[88.5,12648],[88.5,12733],[88.5,12818],[88.5,12903],[88.5,12988],[88.5,13073],[88.4,13158],[88.3,13243],[87.9,13327],[87.2,13413],[86.9,13497],[86.9,13582],[86.8,13667],[86.7,13752],[86.7,13837],[86.7,13922],[86.6,14007],[85.7,14092],[83.4,14176],[80.5,14261],[78.3,14346],[77,14431],[76.5,14516],[76.5,14601],[76.5,14686],[76,14771],[75.8,14856],[75.7,14940],[75.7,15025],[76.1,15110],[76.3,15195],[76.5,15280],[76.8,15365],[77.4,15450],[78.1,15535],[78.8,15620],[79.2,15704],[79.3,15789],[79.4,15874],[79.5,15959],[79.5,16044],[79.7,16129],[79.8,16214],[79.9,16299],[79.9,16384],[79.9,16469],[79.9,16553],[79.9,16638],[79.9,16723],[79.9,16808],[79.9,16893],[79.9,16978],[79.9,17063],[79.9,17148],[79.9,17232],[79.9,17317],[79.9,17402],[79.9,17487],[79.9,17572],[79.9,17657],[79.9,17742],[79.9,17827],[79.9,17912],[79.9,17997],[79.9,18081],[80,18166],[80.9,18251],[82.5,18336],[83.9,18421],[84.6,18506],[85.2,18591],[85.5,18676],[85.6,18761],[85.6,18846],[85.6,18930],[85.6,19015],[85.6,19100],[85.6,19185],[85.6,19270],[85.6,19355],[85.6,19440],[86.5,19525],[88.8,19609],[89.6,19694],[89.7,19779],[89.8,19864],[90,19949],[90,20034],[90,20119],[90,20204],[90,20289],[90,20374]]",1,0,733.3082,736.4066,76.25,1.0619,"[{""rating"":85.10416666666667,""responseTime"":0.6174999999998363},{""rating"":76.25,""responseTime"":1.0618999999994685}]",space,2.585,,736.4067,Not at all,0,736.4082,,,[],,0,4,4,4,1,audio/Narrative7Situation4.wav,audio/Narrative8Situation4.wav,audio/Narrative5Situation4.wav,audio/Narrative6Situation4.wav,3,3,1,2,,,,,,,,,,,,,,,,,,,,,,,,,,,,,,,,,,,,,
,,,,,,5efb5360f3f69c084c1ca850,2024-05-13_12h05.03.976,group3.1-3.2-social-tom,2023.2.2,Win32,166.6666667,65c5074098b851296ff0b7ed,6642375d18f5ac1009ceec9e,,,,,,,,,,,,,,,,,,,,,,,,,,,,,736.4083,2,audio/Narrative5Situation5.wav,741.4093,,741.4094,756.8111,"[[77.7,1188],[80,1273],[80.4,1358],[80.8,1442],[81.4,1527],[81.7,1612],[82.3,1697],[83,1782],[83.9,1867],[84.5,1952],[84.8,2037],[85.1,2122],[85.3,2206],[85.5,2291],[85.8,2376],[86.1,2461],[86.3,2546],[86.3,2631],[86.3,2716],[86.3,2801],[86.3,2886],[86.6,2971],[86.9,3055],[87.3,3140],[87.6,3225],[87.6,3310],[87.6,3395],[87.6,3480],[87.6,3565],[87.6,3650],[87.7,3735],[87.7,3819],[87.7,3904],[87.7,3989],[87.7,4074],[87.7,4159],[87.7,4244],[87.7,4329],[87.7,4414],[87.7,4499],[87.7,4583],[87.7,4668],[87.7,4753],[87.7,4838],[87.7,4923],[87.7,5008],[87.7,5093],[87.7,5178],[87.7,5263],[87.7,5348],[87.7,5432],[87.9,5517],[87.9,5602],[87.9,5687],[87.9,5772],[87.9,5857],[87.9,5942],[87.9,6027],[87.9,6111],[87.9,6196],[87.9,6281],[87.9,6366],[87.9,6451],[87.8,6536],[87.8,6621],[87.8,6706],[87.9,6791],[87.9,6876],[87.9,6960],[87.9,7045],[87.9,7131],[87.9,7215],[87.9,7300],[87.9,7385],[87.9,7470],[87.9,7555],[87.9,7639],[87.9,7724],[87.9,7809],[87.9,7894],[87.9,7979],[87.9,8064],[87.9,8149],[87.9,8234],[88.1,8319],[89,8404],[89.8,8489],[90.5,8573],[90.5,8658],[90.5,8743],[90.5,8828],[90.5,8913],[90.5,8998],[90.5,9083],[90.5,9168],[90.5,9253],[90.5,9337],[90.6,9422],[90.6,9507],[90.6,9592],[90.6,9677],[90.6,9762],[90.8,9847],[91.1,9932],[91.4,10016],[91.7,10101],[91.8,10186],[91.9,10271],[92,10356],[92.3,10441],[92.7,10526],[93,10611],[93.1,10696],[93.1,10780],[93.2,10865],[93.2,10950],[93.2,11035],[93.2,11120],[93.2,11205],[93.2,11290],[93.2,11375],[93.2,11460],[93.2,11545],[93.2,11630],[93.4,11714],[93.6,11799],[93.9,11884],[94.1,11969],[94.4,12054],[94.8,12139],[95,12224],[95.1,12309],[95.1,12394],[95.1,12478],[95.1,12563],[95.1,12648],[95.1,12733],[95.1,12818],[95.1,12903],[95.1,12988],[95.1,13073],[95.1,13157],[95.1,13242],[95.1,13327],[95.1,13412],[95.1,13497],[95.1,13582],[95.1,13667],[95.1,13752],[95.1,13837],[95.1,13922],[95.1,14006],[95.1,14091],[95.1,14176],[95.1,14261],[95.1,14346],[95.1,14431],[95.1,14516],[95.1,14601],[95.1,14686],[95.2,14770],[96,14855],[97.2,14940],[97.6,15025],[97.6,15110],[97.6,15195],[97.6,15280],[97.6,15365]]",1,0,756.8112,787.0449,84.0625,20.1555,"[{""rating"":69.27083333333334,""responseTime"":18.01159999999959},{""rating"":77.91666666666667,""responseTime"":18.538499999999885},{""rating"":80.10416666666667,""responseTime"":18.931399999999485},{""rating"":81.875,""responseTime"":19.581599999999526},{""rating"":84.0625,""responseTime"":20.155500000000075}]",space,29.7231,,787.0449,All the time,100,787.0466,,,[],,0,5,5,5,1,audio/Narrative7Situation5.wav,audio/Narrative8Situation5.wav,audio/Narrative5Situation5.wav,audio/Narrative6Situation5.wav,5,2,5,2,,,,,,,,,,,,,,,,,,,,,,,,,,,,,,,,,,,,,
,,,,,,5efb5360f3f69c084c1ca850,2024-05-13_12h05.03.976,group3.1-3.2-social-tom,2023.2.2,Win32,166.6666667,65c5074098b851296ff0b7ed,6642375d18f5ac1009ceec9e,,,,,,,,,,,,,,,,,,,,,,,,,,,,,787.0468,2,audio/Narrative5Situation6.wav,790.0524,,790.0524,795.71,"[[75.3,424],[72.2,509],[70.7,594],[69.8,679],[68.3,764],[67.7,849],[67.7,933],[67.7,1018],[67.7,1103],[67.7,1188],[67.7,1273],[67.7,1358],[67.7,1443],[67.7,1528],[67.7,1612],[67.7,1697],[67.7,1782],[67.7,1867],[67.7,1952],[67.7,2037],[67.7,2122],[67.7,2207],[67.7,2292],[67.7,2376],[67.7,2462],[67.7,2546],[67.7,2631],[67.7,2716],[67.7,2801],[67.7,2886],[67.7,2971],[67.7,3056],[67.7,3141],[67.7,3225],[67.7,3310],[67.7,3395],[67.7,3480],[67.7,3565],[67.7,3650],[67.7,3735],[67.7,3820],[67.7,3905],[67.7,3990],[67.7,4074],[67.9,4159],[68.3,4244],[69,4329],[69.7,4414],[70.4,4499],[71,4584],[71.7,4669],[72.1,4754],[72.5,4838],[72.8,4923],[73,5008],[73.1,5093],[73.2,5178],[73.2,5263],[73.2,5348],[73.2,5433],[73.2,5518],[73.4,5602]]",1,0,795.7101,798.6633,87.60416667,1.2547,"[{""rating"":87.60416666666666,""responseTime"":1.2547000000001844}]",space,2.4388,,798.6634,Not at all,0,798.6657,,,[],,0,6,6,6,1,audio/Narrative7Situation6.wav,audio/Narrative8Situation6.wav,audio/Narrative5Situation6.wav,audio/Narrative6Situation6.wav,3,2,3,2,,,,,,,,,,,,,,,,,,,,,,,,,,,,,,,,,,,,,
,,,,,,5efb5360f3f69c084c1ca850,2024-05-13_12h05.03.976,group3.1-3.2-social-tom,2023.2.2,Win32,166.6666667,65c5074098b851296ff0b7ed,6642375d18f5ac1009ceec9e,,,,,,,,,,,,,,,,,,,,,,,,,,,,,798.6659,2,audio/Narrative5Situation7.wav,802.6712,,802.6712,823.6881,"[[999,5],[999,84],[999,169],[999,254],[999,339],[999,424],[999,509],[999,594],[999,679],[999,764],[999,848],[999,933],[999,1018],[999,1103],[50.5,1188],[52.6,1273],[55.2,1358],[56,1443],[56.7,1528],[59.8,1612],[63.2,1697],[64.8,1782],[65.3,1867],[65.3,1952],[65.3,2037],[65.3,2122],[65.3,2207],[65.3,2291],[65.3,2376],[65.3,2461],[65.3,2546],[65.3,2631],[65.3,2716],[65.3,2801],[65.3,2886],[65.3,2971],[65.3,3055],[65.3,3141],[65.3,3225],[65.3,3310],[68.1,3989],[70.2,4074],[71.1,4159],[71.1,4244],[71.9,4329],[73.9,4414],[74.8,4499],[74.8,4584],[74.8,4669],[74.8,4753],[74.8,4838],[74.8,4923],[74.8,5008],[74.8,5093],[74.8,5178],[74.8,5263],[74.8,5348],[74.8,5432],[75.1,5517],[75.6,5602],[76.1,5687],[76.5,5772],[77.2,5857],[78.5,5942],[79.2,6027],[79.3,6111],[79.3,6196],[79.3,6281],[79.3,6366],[79.5,6451],[79.8,6536],[79.9,6621],[80,6706],[80.3,6791],[81.3,6876],[82.1,6961],[82.7,7046],[83.2,7130],[83.8,7215],[84.1,7300],[84.7,7385],[85.4,7470],[85.9,7555],[86.3,7640],[86.4,7725],[86.5,7809],[86.7,7894],[86.9,7979],[87.3,8064],[88,8149],[88.9,8234],[89.4,8319],[89.5,8404],[89.5,8489],[89.5,8574],[89.7,8659],[89.8,8743],[90,8828],[90.3,8913],[90.6,8998],[91,9083],[91.4,9168],[91.7,9253],[92.1,9338],[92.4,9423],[92.4,9507],[92.5,9592],[92.6,9677],[92.9,9762],[93.1,9847],[93.2,9932],[93.3,10017],[93.4,10102],[93.6,10186],[93.9,10271],[94.1,10356],[94.3,10441],[94.5,10526],[94.8,10611],[95,10696],[95.1,10781],[95.1,10866],[95.2,10951],[95.2,11035],[95.3,11120],[95.3,11205],[95.3,11290],[95.3,11375],[95.3,11460],[95.3,11545],[95.3,11630],[95.3,11715],[95.3,11799],[95,11884],[94.4,11969],[93.9,12054],[93.2,12139],[92.6,12224],[92,12309],[91.4,12394],[90.8,12479],[90.1,12563],[89.1,12648],[88.1,12733],[87.6,12818],[87.2,12903],[86.9,12988],[86.6,13073],[86.4,13158],[86.1,13243],[85.6,13328],[85.4,13412],[85.4,13497],[85.4,13582],[85.4,13667],[85.4,13752],[85.4,13837],[85.4,13922],[85.4,14007],[85.4,14092],[85.4,14176],[85.4,14261],[85.4,14346],[85.4,14431],[85.4,14516],[85.4,14601],[85.4,14686],[85.4,14771],[85.4,14856],[85.4,14941],[85.4,15025],[85.4,15110],[85.4,15195],[85.4,15280],[85.4,15365],[85.4,15450],[85.4,15535],[85.4,15620],[85.4,15704],[85.4,15789],[85.4,15874],[85.4,15959],[85.4,16044],[85.4,16129],[85.4,16214],[85.4,16299],[85.4,16384],[85.4,16468],[85.4,16553],[85.4,16638],[85.4,16723],[85.4,16808],[85.4,16893],[85.4,16978],[85.4,17063],[85.6,17148],[85.7,17233],[86.3,17317],[86.8,17402],[86.8,17487],[86.8,17572],[86.8,17657],[86.8,17742],[86.8,17827],[86.8,17912],[86.8,17997],[86.9,18081],[86.9,18166],[86.9,18251],[86.9,18336],[86.9,18421],[86.9,18506],[86.9,18591],[86.9,18676],[86.9,18761],[86.9,18846],[86.9,18930],[86.9,19015],[86.9,19100],[86.9,19185],[86.9,19270],[86.9,19355],[86.9,19440],[86.9,19525],[88,19609],[88.4,19694],[88.5,19779],[89,19864],[89.9,19949],[89.3,20034],[89.3,20119],[89.3,20204],[89.3,20289],[89.3,20374],[89.3,20459],[89.3,20543],[89.3,20628],[89.3,20713],[89.3,20798],[89.3,20883],[89.3,20968]]",1,0,823.6882,826.1075,86.14583333,1.0634,"[{""rating"":86.14583333333333,""responseTime"":1.0634000000002288}]",space,1.9079,,826.1075,Not at all,0,826.1084,,,[],,0,7,7,7,1,audio/Narrative7Situation7.wav,audio/Narrative8Situation7.wav,audio/Narrative5Situation7.wav,audio/Narrative6Situation7.wav,5,3,4,5,,,,,,,,,,,,,,,,,,,,,,,,,,,,,,,,,,,,,
,,,,,,5efb5360f3f69c084c1ca850,2024-05-13_12h05.03.976,group3.1-3.2-social-tom,2023.2.2,Win32,166.6666667,65c5074098b851296ff0b7ed,6642375d18f5ac1009ceec9e,,,,,,,,,,,,,,,,,,,,,,,,,,,,,826.1085,2,audio/Narrative5Situation8.wav,829.109,,829.109,837.9136,"[[78.9,339],[80.3,424],[82.3,509],[84,594],[84.9,679],[85.3,764],[85.7,848],[86.4,933],[86.8,1018],[86.9,1103],[87.3,1188],[88.3,1273],[88.8,1358],[88.9,1443],[88.9,1528],[88.9,1612],[88.9,1697],[88.9,1782],[88.9,1867],[88.9,1952],[88.9,2037],[88.9,2122],[88.9,2207],[88.9,2292],[88.9,2377],[88.9,2461],[88.9,2546],[88.9,2631],[88.9,2716],[88.9,2801],[88.9,2886],[88.9,2971],[88.9,3056],[88.9,3141],[88.9,3225],[88.9,3310],[88.9,3395],[88.9,3480],[88.9,3565],[88.9,3650],[88.9,3735],[88.9,3820],[88.9,3905],[88.9,3990],[88.9,4074],[88.9,4159],[88.9,4244],[88.9,4329],[88.9,4414],[88.9,4499],[88.9,4584],[88.9,4669],[88.9,4754],[88.9,4839],[88.9,4923],[88.9,5008],[88.9,5093],[88.9,5178],[88.9,5263],[88.9,5348],[88.9,5433],[88.9,5518],[88.9,5602],[88.9,5687],[88.9,5772],[88.9,5857],[88.9,5942],[88.9,6027],[88.9,6112],[88.9,6197],[88.9,6282],[88.9,6367],[88.9,6451],[88.9,6536],[88.9,6621],[88.9,6706],[88.9,6791],[88.9,6876],[88.8,6961],[88.4,7046],[88.3,7131],[88.3,7215],[88.3,7300],[88,7385],[88,7470],[88,7555],[88,7640],[88,7725],[88.2,7810],[88.3,7895],[88.3,7979],[88.6,8064],[90.8,8149],[93.3,8234],[93.5,8319],[93.5,8404],[93.4,8489],[93,8574],[91.8,8659],[90,8743]]",1,0,837.9137,839.8903,78.54166667,0.9943,"[{""rating"":78.54166666666667,""responseTime"":0.9942999999998392}]",space,1.4623,,839.8904,All the time,100,839.8919,,,[],,0,8,8,8,1,audio/Narrative7Situation8.wav,audio/Narrative8Situation8.wav,audio/Narrative5Situation8.wav,audio/Narrative6Situation8.wav,2,3,3,5,,,,,,,,,,,,,,,,,,,,,,,,,,,,,,,,,,,,,
,,,,,,5efb5360f3f69c084c1ca850,2024-05-13_12h05.03.976,group3.1-3.2-social-tom,2023.2.2,Win32,166.6666667,65c5074098b851296ff0b7ed,6642375d18f5ac1009ceec9e,,,,,,,,,,,,,,,,,,,,,,,,,,,,,839.8921,2,audio/Narrative5Situation9.wav,842.8979,,842.898,882.4215,"[[52.2,254],[54,339],[56.1,424],[57.4,509],[59.6,594],[62.5,679],[65.4,764],[68,848],[70.2,933],[71.6,1018],[73.2,1103],[75.2,1188],[76.9,1273],[78.5,1358],[79.8,1443],[80.6,1527],[81.3,1612],[81.7,1697],[81.9,1782],[82.1,1867],[82.6,1952],[83.4,2037],[84.6,2122],[86,2207],[87.7,2292],[89.6,2377],[91.4,2461],[93,2546],[93.6,2631],[93.8,2716],[93.8,2801],[93.8,2886],[92.4,2971],[90.3,3056],[88.6,3141],[87.2,3225],[85.3,3310],[83.5,3395],[82.1,3480],[80.8,3565],[79.4,3650],[77.8,3735],[77,3820],[76.9,3905],[76.9,3989],[76.9,4074],[76.9,4159],[78.2,4244],[80.7,4329],[82.8,4414],[84.2,4499],[85.8,4584],[87.8,4669],[89.6,4753],[90.3,4838],[90.4,4923],[90.4,5008],[90.5,5093],[90.5,5178],[90.7,5263],[90.8,5348],[90.8,5432],[90.8,5518],[90.8,5602],[90.8,5687],[90.8,5772],[90.8,5857],[90.8,5942],[90.8,6027],[90.8,6112],[90.8,6197],[90.8,6282],[90.8,6366],[90.8,6451],[90.8,6536],[90.8,6621],[90.8,6706],[90.8,6791],[90.8,6876],[89.8,6961],[86.3,7046],[82.2,7131],[79.6,7215],[78.1,7300],[77.5,7385],[77.5,7470],[77.5,7555],[77.5,7640],[77.5,7725],[77.6,7810],[78.1,7894],[78.6,7979],[79.5,8064],[80.5,8149],[81.5,8234],[82.4,8319],[83.3,8404],[84,8489],[84.5,8574],[84.8,8658],[85,8743],[85.2,8828],[85.7,8913],[86.3,8998],[86.8,9083],[87,9168],[87.2,9253],[87.3,9338],[87.3,9423],[87.3,9507],[87.3,9592],[87.3,9677],[87.3,9762],[87.3,9847],[87.3,9932],[87.3,10017],[87.3,10102],[87.3,10186],[87.3,10271],[87.3,10356],[87.3,10441],[87.3,10526],[87.3,10611],[87.3,10696],[87.3,10781],[87.3,10866],[87.3,10951],[87.3,11036],[87.5,11121],[88.5,11205],[90.1,11290],[91,11375],[91.3,11460],[91.4,11545],[91.5,11630],[91.9,11715],[92.4,11800],[92.8,11885],[93,11969],[93.5,12054],[93.8,12139],[93.8,12224],[93.8,12309],[93.8,12394],[93.8,12479],[93.8,12564],[93.8,12649],[93.8,12733],[93.6,12818],[93.3,12903],[93,12988],[92.5,13073],[92.2,13158],[91.9,13243],[91.5,13328],[91.1,13412],[90.7,13497],[90.4,13582],[90.3,13667],[90.3,13752],[90.1,13837],[90,13922],[89.9,14007],[89.8,14092],[89.8,14176],[89.7,14261],[89.7,14346],[89.6,14431],[89.6,14516],[89.6,14601],[89.5,14686],[89.5,14771],[89.4,14856],[89.4,14940],[89.2,15025],[89.2,15110],[89.2,15195],[89.1,15280],[89.1,15365],[89,15450],[88.6,15535],[88.5,15620],[88.5,15705],[88.5,15790],[88.4,15874],[88.2,15959],[88.1,16044],[88.1,16129],[88.1,16214],[88.1,16299],[88.1,16384],[88.1,16469],[88,16554],[87.8,16639],[87.6,16723],[87.4,16808],[87.2,16893],[87.2,16978],[87.2,17063],[87.2,17148],[87.2,17233],[87.2,17317],[87.2,17402],[87.2,17487],[87.2,17572],[87.2,17657],[87.2,17742],[87.2,17827],[87.2,17912],[87.2,17997],[87.2,18082],[87.2,18166],[87.2,18251],[87.2,18336],[87.2,18421],[87.2,18506],[87.2,18591],[87.2,18676],[87.2,18761],[87.2,18846],[87.2,18930],[87.2,19015],[87.2,19100],[87.2,19185],[87.2,19270],[87.2,19355],[87.2,19440],[87.2,19525],[87.2,19610],[87.2,19694],[87.2,19779],[87.2,19864],[87.2,19949],[87.2,20034],[87.2,20119],[87.2,20204],[87.2,20289],[87.2,20374],[87.2,20459],[87.2,20543],[87.2,20628],[87.2,20713],[87.2,20798],[87.2,20883],[87.2,20968],[87.2,21053],[87.2,21138],[87.2,21223],[87.2,21307],[87.2,21392],[87.2,21477],[87.2,21562],[87.2,21647],[87.2,21732],[86,21817],[82.2,21902],[80.5,21987],[80.5,22072],[80.5,22156],[80.5,22241],[80.5,22326],[80.5,22411],[80.5,22496],[80.5,22581],[80.5,22666],[80.5,22751],[80.5,22835],[80.5,22921],[80.5,23005],[80.5,23090],[80.5,23175],[80.5,23260],[80.5,23345],[80.5,23430],[80.4,23515],[80.4,23599],[80.4,23684],[80.4,23769],[80.4,23854],[80.4,23939],[80.4,24024],[80.5,24109],[83.2,24194],[87.6,24279],[90,24364],[91.5,24449],[93,24533],[94.2,24618],[95,24703],[95.4,24788],[96.3,24873],[96.3,24958],[96.3,25043],[96.3,25128],[96.3,25213],[96.3,25297],[96.3,25382],[96.3,25467],[96.3,25552],[96.3,25637],[96.3,25722],[96.3,25807],[96.3,25892],[96.3,25977],[96.3,26061],[96.3,26146],[96.3,26231],[96.3,26316],[96.3,26401],[96.3,26486],[96.3,26571],[96.3,26656],[96.3,26741],[96.3,26826],[96.3,26910],[96.3,26995],[96.3,27080],[96.3,27165],[96.3,27250],[96.3,27335],[96.3,27420],[96.3,27505],[96.3,27590],[96.3,27674],[96.3,27759],[96.3,27844],[96.3,27929],[96.3,28014],[96.3,28099],[96.3,28184],[96.3,28269],[96.3,28354],[96.3,28438],[96.3,28523],[96.3,28608],[96.3,28693],[96.3,28778],[96.3,28863],[96.3,28948],[96.3,29033],[96.3,29118],[96.3,29203],[96.3,29287],[96.3,29372],[96.3,29457],[96.3,29542],[96.3,29627],[96.3,29712],[96.3,29797],[96.3,29882],[96.3,29966],[96.3,30051],[96.3,30136],[96.3,30221],[96.3,30306],[96.3,30391],[96.3,30476],[96.3,30561],[96.3,30646],[96.3,30730],[96.3,30815],[96.3,30900],[96.3,30985],[96.3,31070],[96.3,31155],[96.3,31240],[96.3,31325],[96.3,31410],[96.3,31495],[96.3,31580],[96.3,31664],[96.3,31749],[96.3,31834],[96.3,31919],[96.3,32004],[96.3,32089],[96.3,32174],[96.3,32259],[96.3,32343],[96.3,32428],[96.3,32513],[96.3,32598],[96.3,32683],[96.3,32768],[96.3,32853],[96.3,32938],[96.3,33023],[96.3,33108],[96.3,33192],[96.3,33277],[96.3,33362],[96.3,33447],[96.3,33532],[96.3,33617],[96.3,33702],[96.3,33787],[96.3,33872],[96.3,33956],[96.3,34041],[96.3,34126],[96.3,34211],[96.3,34296],[96.3,34381],[96.3,34466],[96.3,34551],[96.3,34636],[96.3,34720],[96.3,34805],[96.3,34890],[96.3,34975],[96.3,35060],[96.3,35145],[96.3,35230],[96.3,35315],[96.3,35400],[96.3,35485],[96.3,35569],[96.3,35654],[96.3,35739],[96.3,35824],[96.3,35909],[96.3,35994],[96.3,36079],[96.3,36164],[96.3,36248],[96.3,36333],[96.3,36418],[96.3,36503],[96.3,36588],[96.3,36673],[96.3,36758],[96.3,36843],[96.3,36928],[96.3,37013],[96.3,37097],[96.3,37182],[96.3,37267],[96.3,37352],[96.3,37437],[96.3,37522],[96.3,37607],[96.3,37692],[96.3,37777],[96.3,37862],[96.3,37946],[96.3,38031],[96.3,38116],[96.3,38201],[96.3,38286],[96.3,38371],[96.3,38456],[96.3,38541],[96.3,38626],[96.3,38710],[96.3,38795],[96.3,38880],[96.3,38965],[96.3,39050],[96.3,39135],[96.3,39220],[96.3,39305],[96.3,39390],[96.3,39474]]",1,0,882.4215,916.7725,87.1875,4.6849,"[{""rating"":87.1875,""responseTime"":4.684900000000425}]",space,33.836,,916.7725,Not at all,0,916.7791,,,[],,0,9,9,9,1,audio/Narrative7Situation9.wav,audio/Narrative8Situation9.wav,audio/Narrative5Situation9.wav,audio/Narrative6Situation9.wav,2,3,3,4,,,,,,,,,,,,,,,,,,,,,,,,,,,,,,,,,,,,,
,,,,,,5efb5360f3f69c084c1ca850,2024-05-13_12h05.03.976,group3.1-3.2-social-tom,2023.2.2,Win32,166.6666667,65c5074098b851296ff0b7ed,6642375d18f5ac1009ceec9e,,,,,,,,,,,,,,,,,,,,,,,,,,,,,916.7793,2,audio/Narrative6Situation1.wav,918.7796,,918.7796,945.3449,"[[999,0],[999,85],[999,169],[999,254],[999,339],[999,424],[999,509],[999,594],[999,679],[999,764],[999,848],[999,933],[999,1018],[999,1103],[999,1188],[999,1273],[999,1358],[999,1443],[999,1528],[999,1613],[999,1697],[999,1782],[999,1867],[999,1952],[999,2037],[999,2122],[999,2207],[999,2292],[999,2376],[999,2461],[999,2546],[999,2631],[999,2716],[999,2801],[999,2886],[999,2971],[999,3056],[999,3141],[999,3225],[999,3310],[999,3395],[999,3480],[999,3565],[999,3650],[999,3735],[999,3820],[999,3905],[999,3990],[999,4074],[999,4159],[999,4244],[999,4329],[999,4414],[999,4499],[999,4584],[999,4669],[999,4753],[999,4838],[999,4923],[999,5008],[999,5093],[999,5178],[999,5263],[999,5348],[999,5433],[999,5518],[999,5602],[999,5687],[999,5772],[999,5857],[999,5942],[999,6027],[999,6112],[999,6197],[999,6281],[999,6366],[999,6451],[999,6536],[999,6621],[999,6706],[999,6791],[999,6876],[999,6961],[999,7046],[999,7130],[999,7215],[999,7300],[999,7385],[999,7470],[999,7555],[999,7640],[999,7725],[999,7809],[999,7894],[999,7979],[999,8064],[999,8149],[999,8234],[999,8319],[999,8404],[999,8489],[999,8574],[999,8659],[999,8743],[999,8828],[999,8913],[999,8998],[999,9083],[999,9168],[999,9253],[999,9337],[999,9423],[999,9508],[999,9592],[999,9677],[999,9762],[999,9847],[999,9932],[999,10017],[999,10102],[999,10187],[999,10271],[999,10356],[999,10441],[999,10526],[999,10611],[999,10696],[999,10781],[999,10866],[999,10951],[999,11036],[999,11120],[999,11205],[999,11290],[999,11375],[999,11460],[999,11545],[999,11630],[999,11715],[999,11799],[999,11884],[999,11969],[999,12054],[999,12139],[999,12224],[999,12309],[999,12394],[999,12479],[999,12564],[999,12649],[999,12733],[999,12818],[999,12903],[999,12988],[999,13073],[999,13158],[999,13243],[999,13327],[999,13413],[999,13497],[999,13582],[999,13667],[999,13752],[999,13837],[999,13922],[999,14007],[999,14092],[999,14177],[999,14261],[999,14346],[999,14431],[999,14516],[999,14601],[999,14686],[999,14771],[999,14856],[999,14941],[999,15025],[999,15110],[999,15195],[999,15280],[999,15365],[999,15450],[63.1,15535],[63.1,15620],[63.3,15705],[64.6,15789],[65.6,15874],[66.4,15959],[66.5,16044],[67,16129],[69,16214],[71.4,16299],[73.9,16384],[75.6,16469],[76.7,16554],[77.4,16639],[78.6,16723],[80.2,16808],[81,16893],[81.1,16978],[81.1,17063],[81.1,17148],[81.7,17233],[83,17317],[84.7,17403],[86,17487],[87.3,17572],[87.8,17657],[87.9,17742],[88,17827],[88.2,17912],[88.2,17997],[88.2,18082],[88.2,18167],[88.2,18251],[88.2,18336],[88.2,18421],[88.2,18506],[88.2,18591],[88.2,18676],[88.2,18761],[88.2,18846],[88.2,18931],[88.2,19015],[88.2,19100],[88.2,19185],[88.2,19270],[88.2,19355],[88.2,19440],[88.2,19525],[88.2,19610],[88.2,19694],[88.2,19779],[88.2,19864],[88.2,19949],[88.2,20034],[88.2,20119],[88.2,20204],[88.2,20289],[88.2,20374],[88.2,20459],[88.2,20544],[88.2,20628],[88.2,20713],[88.2,20798],[88.2,20883],[88.2,20968],[88.2,21053],[88.2,21138],[88.2,21223],[88.2,21307],[88.2,21392],[88.2,21477],[88.2,21562],[88.2,21647],[88.2,21732],[88.2,21817],[88.2,21902],[88.2,21987],[88.2,22072],[88.2,22156],[88.2,22241],[88.2,22326],[88.2,22411],[88.2,22496],[88.2,22581],[88.2,22666],[88.2,22751],[88.2,22836],[88.3,22921],[89.6,23005],[91.4,23090],[92.5,23175],[93.1,23260],[93.6,23345],[93.8,23430],[93.8,23515],[93.8,23600],[93.6,23684],[92.5,23769],[91.1,23854],[90,23939],[89.5,24024],[88.9,24109],[88.4,24194],[88.1,24279],[87.7,24364],[87.4,24449],[87,24533],[86.6,24618],[86.4,24703],[86.1,24788],[85.8,24873],[85.7,24958],[85.6,25043],[85.6,25128],[85.6,25212],[85.6,25297],[85.6,25382],[85.6,25467],[85.6,25552],[85.6,25637],[85.6,25722],[85.8,25807],[87.4,25892],[89.2,25977],[90.2,26062],[90.6,26146],[90.7,26231],[90.9,26316],[91.6,26401],[92.5,26486]]",1,0,945.3449,963.2451,93.95833333,16.3548,"[{""rating"":73.33333333333334,""responseTime"":14.56450000000018},{""rating"":81.5625,""responseTime"":15.158799999999928},{""rating"":90,""responseTime"":16.02150000000006},{""rating"":93.95833333333333,""responseTime"":16.35479999999984}]",space,17.3901,,963.2451,Not at all,0,963.246,,,[],,0,10,10,10,1,audio/Narrative8Situation1.wav,audio/Narrative7Situation1.wav,audio/Narrative6Situation1.wav,audio/Narrative5Situation1.wav,5,2,2,5,,,,,,,,,,,,,,,,,,,,,,,,,,,,,,,,,,,,,
,,,,,,5efb5360f3f69c084c1ca850,2024-05-13_12h05.03.976,group3.1-3.2-social-tom,2023.2.2,Win32,166.6666667,65c5074098b851296ff0b7ed,6642375d18f5ac1009ceec9e,,,,,,,,,,,,,,,,,,,,,,,,,,,,,963.2461,2,audio/Narrative6Situation2.wav,966.2466,,966.2466,994.728,"[[999,5],[999,84],[999,169],[999,254],[999,339],[999,424],[58.4,509],[60.1,594],[60.3,679],[60.4,763],[62.5,848],[67,933],[69.2,1018],[69.5,1103],[69.5,1188],[69.5,1273],[69.5,1358],[69.5,1443],[69.5,1528],[69.5,1612],[70.2,1697],[72.7,1782],[76.3,1867],[77.3,1952],[77.3,2037],[77.6,2122],[79.2,2207],[81.9,2292],[83.5,2376],[84.5,2461],[87.6,2546],[90.7,2631],[91.5,2716],[91.6,2801],[91.6,2886],[91.6,2971],[91.6,3056],[91.6,3140],[91.6,3225],[91.6,3310],[91.6,3395],[91.6,3480],[91.6,3565],[91.6,3650],[91.6,3735],[91.6,3820],[91.6,3905],[91.6,3989],[91.6,4074],[91.6,4159],[91.6,4244],[91.6,4329],[91.6,4414],[91.6,4499],[91.6,4584],[91.6,4668],[91.6,4753],[91.6,4838],[91.6,4923],[91.6,5008],[91.6,5093],[91.6,5178],[91.6,5263],[91.6,5348],[91.6,5432],[91.6,5518],[91.6,5602],[91.6,5687],[91.6,5772],[91.6,5857],[91.6,5942],[91.6,6027],[91.6,6112],[91.6,6197],[91.6,6281],[91.6,6366],[91.6,6451],[91.6,6536],[91.6,6621],[91.6,6706],[91.6,6791],[91.6,6876],[91.6,6961],[91.6,7046],[91.6,7130],[91.6,7215],[91.6,7300],[91.6,7385],[91.6,7470],[91.6,7555],[91.6,7640],[91.6,7725],[91.6,7810],[91.6,7894],[91.6,7979],[91.6,8064],[91.6,8149],[91.6,8234],[91.6,8319],[91.6,8404],[91.6,8489],[91.6,8573],[91.6,8658],[91.6,8743],[91.6,8828],[91.6,8913],[91.6,8998],[91.6,9083],[91.6,9168],[91.6,9253],[91.6,9338],[91.6,9422],[91.6,9507],[91.6,9592],[91.6,9677],[91.6,9762],[91.6,9847],[91.6,9932],[91.6,10017],[91.6,10102],[91.6,10186],[91.6,10271],[91.6,10356],[91.6,10441],[91.6,10526],[91.6,10611],[91.6,10696],[91.6,10781],[91.6,10866],[91.6,10951],[91.6,11035],[91.6,11120],[91.6,11205],[91.6,11290],[91.6,11375],[91.6,11460],[91.6,11545],[91.6,11630],[91.6,11715],[91.6,11799],[91.6,11884],[91.6,11969],[91.6,12054],[91.6,12139],[91.6,12224],[91.6,12309],[91.6,12394],[91.6,12479],[91.6,12563],[91.6,12648],[91.6,12733],[91.6,12818],[91.6,12903],[91.6,12988],[91.6,13073],[91.6,13158],[91.6,13243],[91.6,13327],[91.6,13412],[91.6,13497],[91.6,13582],[91.6,13667],[91.6,13752],[91.6,13837],[91.6,13922],[91.6,14007],[91.6,14092],[91.6,14176],[91.6,14261],[91.6,14346],[91.6,14431],[91.6,14516],[91.6,14601],[91.6,14686],[91.6,14771],[91.6,14856],[91.6,14940],[91.6,15025],[91.6,15110],[91.6,15195],[91.6,15280],[91.6,15365],[91.6,15450],[91.6,15535],[91.6,15620],[91.6,15705],[91.6,15789],[91.6,15874],[91.6,15959],[91.6,16044],[91.6,16129],[91.8,16214],[93.2,16299],[93.9,16384],[93.9,16468],[94.1,16553],[95.1,16638],[96.3,16723],[96.7,16808],[96.7,16893],[96.7,16978],[96.7,17063],[96.7,17148],[96.7,17232],[96,17317],[94.3,17402],[91.8,17487],[89.7,17572],[88.2,17657],[86.4,17742],[84.2,17827],[82.9,17912],[82.4,17997],[82.4,18081],[82.4,18166],[82.4,18251],[82.4,18336],[82.6,18421],[82.6,18506],[82.6,18591],[82.6,18676],[82.6,18761],[82.6,18846],[82.6,18931],[82.6,19015],[82.6,19100],[82.6,19185],[82.6,19270],[82.6,19355],[82.6,19440],[82.6,19525],[82.6,19609],[82.6,19694],[82.6,19779],[82.6,19864],[82.6,19949],[82.6,20034],[82.6,20119],[82.6,20204],[82.6,20289],[82.6,20374],[82.6,20458],[82.6,20543],[82.6,20628],[82.6,20713],[82.6,20798],[82.6,20883],[82.6,20968],[82.6,21053],[82.6,21138],[82.6,21222],[82.6,21307],[82.6,21392],[82.6,21477],[82.6,21562],[82.6,21647],[82.6,21732],[82.6,21817],[82.6,21902],[82.6,21987],[82.6,22071],[82.6,22156],[82.6,22241],[82.6,22326],[82.6,22411],[82.6,22496],[82.6,22581],[82.6,22666],[82.6,22750],[82.6,22836],[82.6,22921],[82.6,23005],[82.6,23090],[82.6,23175],[82.6,23260],[82.6,23345],[82.6,23430],[82.6,23514],[82.6,23600],[82.6,23684],[85,23769],[87.2,23854],[87.9,23939],[88.6,24024],[90,24109],[90.9,24194],[91.1,24279],[91.1,24364],[91.1,24448],[91.1,24533],[91.3,24618],[92,24703],[92.6,24788],[92.9,24873],[93.1,24958],[93.3,25043],[93.5,25128],[93.8,25212],[94,25297],[94.3,25382],[94.9,25467],[95.1,25552],[95.2,25637],[95.2,25722],[95.2,25807],[95.2,25892],[94.4,25976],[93.1,26061],[91.4,26146],[90.2,26231],[89.8,26316],[89.8,26401],[89.8,26486],[89.8,26571],[89.8,26656],[89.9,26740],[90.2,26825],[90.5,26910],[90.8,26995],[91.4,27080],[91.6,27165],[91.7,27250],[91.9,27335],[92,27420],[92,27504],[92.4,27589],[92.8,27674],[92.9,27759],[92.9,27844],[92.9,27929],[92.9,28014],[92.9,28099],[93,28184],[93.1,28269],[93.3,28354],[93.3,28438]]",1,0,994.7281,998.2448,97.39583333,1.2635,"[{""rating"":97.39583333333333,""responseTime"":1.2635000000000218}]",space,3.003,,998.2448,Half the time,50,998.2464,,,[],,0,11,11,11,1,audio/Narrative8Situation2.wav,audio/Narrative7Situation2.wav,audio/Narrative6Situation2.wav,audio/Narrative5Situation2.wav,3,3,3,3,,,,,,,,,,,,,,,,,,,,,,,,,,,,,,,,,,,,,
,,,,,,5efb5360f3f69c084c1ca850,2024-05-13_12h05.03.976,group3.1-3.2-social-tom,2023.2.2,Win32,166.6666667,65c5074098b851296ff0b7ed,6642375d18f5ac1009ceec9e,,,,,,,,,,,,,,,,,,,,,,,,,,,,,998.2466,2,audio/Narrative6Situation3.wav,1003.2475,,1003.2476,1015.842,"[[999,5],[999,84],[999,169],[999,254],[999,339],[999,424],[999,509],[999,594],[999,678],[999,763],[999,848],[999,933],[999,1018],[999,1103],[999,1188],[999,1273],[999,1358],[999,1442],[83.9,1528],[78.1,1612],[76.9,1697],[76.9,1782],[78.2,1867],[81.1,1952],[82.7,2037],[83.3,2122],[83.5,2206],[83.5,2291],[83.5,2376],[83.5,2461],[83.5,2546],[83.5,2631],[83.5,2716],[83.5,2801],[83.5,2886],[83.5,2971],[83.5,3056],[83.5,3140],[83.5,3225],[83.5,3310],[83.5,3395],[83.5,3480],[83.5,3565],[83.5,3650],[83.5,3735],[83.5,3819],[83.5,3904],[83.5,3989],[83.5,4074],[83.5,4159],[83.5,4244],[83.5,4329],[83.5,4414],[83.5,4499],[83.5,4584],[83.5,4668],[83.5,4753],[83.5,4838],[83.5,4923],[83.5,5008],[83.5,5093],[83.9,5178],[85.6,5263],[85.6,5347],[85.4,5432],[88,5517],[93,5602],[94.4,5687],[94.8,5772],[95.1,5857],[95.1,5942],[95.1,6027],[95.1,6112],[95.1,6196],[95.1,6281],[95.1,6366],[95.1,6451],[95.1,6536],[95.1,6621],[95.1,6706],[95.1,6791],[95.1,6876],[95.1,6961],[95.1,7045],[95.1,7130],[95.1,7215],[95.1,7300],[95.1,7385],[95.1,7470],[95.1,7555],[95.1,7640],[95.1,7725],[95.1,7809],[95.1,7894],[95.1,7979],[95.1,8064],[95.1,8149],[95.1,8234],[95.1,8319],[95.1,8404],[95.1,8489],[95.1,8574],[95.1,8658],[95.1,8743],[95.1,8828],[95.1,8913],[95.1,8998],[95.1,9083],[95.1,9168],[95.1,9253],[95.1,9337],[95.1,9422],[95.1,9507],[95.1,9592],[95.1,9677],[95.1,9762],[95.1,9847],[95.1,9932],[95.1,10017],[95.1,10101],[95.1,10186],[95,10271],[95,10356],[92.3,10441],[89.1,10526],[88.6,10611],[88.6,10696],[88.6,10781],[88.6,10866],[88.6,10950],[88.6,11035],[88.3,11120],[87.3,11205],[86.5,11290],[85.9,11375],[85.4,11460],[85.3,11545],[85.2,11630],[85.2,11714],[85.2,11799],[84.9,11884],[84.7,11969],[84.5,12054],[84.1,12139],[83,12224],[82.2,12309],[82,12394],[82,12479],[82,12563]]",1,0,1015.842,1026.9143,85,6.6447,"[{""rating"":85.3125,""responseTime"":2.447499999999991},{""rating"":90.20833333333333,""responseTime"":3.8465000000001055},{""rating"":85,""responseTime"":6.6447000000002845}]",space,10.5572,,1026.9144,All the time,100,1035.1367,100,5.4267,"[{""rating"":100,""responseTime"":5.42670000000021}]",space,0,12,12,12,1,audio/Narrative8Situation3.wav,audio/Narrative7Situation3.wav,audio/Narrative6Situation3.wav,audio/Narrative5Situation3.wav,4,8,5,3,,,7.7067,,,,,,,,,,,,,,,,,,,,,,,,,,,,,,,,,,
