exp_question,consent.started,consent.stopped,consentResponse.keys,consentResponse.rt,consentResponse.duration,participantID,date,expName,psychopyVersion,OS,frameRate,STUDY_ID,SESSION_ID,opening1.started,opening1.stopped,keyEndingOpening1.keys,keyEndingOpening1.rt,keyEndingOpening1.duration,volumeAdjust.started,volumeAdjust.stopped,endingAdjust.keys,endingAdjust.rt,endingAdjust.duration,opening2.started,opening2.stopped,keyEndingOpening.keys,keyEndingOpening.rt,keyEndingOpening.duration,mouse.x,mouse.y,mouse.leftButton,mouse.midButton,mouse.rightButton,mouse.time,instructionLoop.thisRepN,instructionLoop.thisTrialN,instructionLoop.thisN,instructionLoop.thisIndex,instructionLoop.ran,readyForAudio.started,readyForAudio.stopped,fixation.started,run,audio_played,fixation.stopped,endPractice.keys,audioPre.started,audioPre.stopped,continuousResponses_audio,continuousSlider.response,continuousSlider.rt,intRating.started,intRating.stopped,intQuestionSlider.response,intQuestionSlider.rt,intQuestionSlider.history,confirmResponse.keys,confirmResponse.rt,confirmResponse.duration,catchQuestion.started,catch_label,catch_value,catchQuestion.stopped,catchQuestionSlider.response,catchQuestionSlider.rt,catchQuestionSlider.history,confirmResponse_2.keys,audioRunLoop.thisRepN,audioRunLoop.thisTrialN,audioRunLoop.thisN,audioRunLoop.thisIndex,audioRunLoop.ran,conditions1_1,conditions2_1,conditions1_2,conditions2_2,dur1_1,dur2_1,dur1_2,dur2_2,endPractice.rt,endPractice.duration,confirmResponse_2.rt,confirmResponse_2.duration,runIntervalBreak.started,runIntervalBreak.stopped,endingBreakKey.keys,endingBreakKey.rt,endingBreakKey.duration,connection.started,connection.stopped,connectionEnding.keys,connectionEnding.rt,connectionEnding.duration,readyForText.started,readyForText.stopped,textPre.started,run_dup,textPre.stopped,continuousResponses_text,textRunLoop.thisRepN,textRunLoop.thisTrialN,textRunLoop.thisN,textRunLoop.thisIndex,textRunLoop.ran,text1_1,text1_2,text2_1,text2_2,runBreakText.started,runBreakText.stopped,endingBreakKey_2.keys,endingBreakKey_2.rt,endingBreakKey_2.duration,ending.started,ending.stopped,endingEnding.keys,endingEnding.rt,endingEnding.duration
tom,0.0101,17.2371,y,16.8606,,5f0151a9e5751c2a5313c45e,2024-02-08_11h02.55.765,group3.1-3.2-social-tom,2023.2.2,Linux x86_64,60.02040694,65c5074098b851296ff0b7ed,65c5165368db58f4163dfd5f,,,,,,,,,,,,,,,,,,,,,,,,,,,,,,,,,,,,,,,,,,,,,,,,,,,,,,,,,,,,,,,,,,,,,,,,,,,,,,,,,,,,,,,,,,,,,,,,,,,,,,,,,,
,,,,,,5f0151a9e5751c2a5313c45e,2024-02-08_11h02.55.765,group3.1-3.2-social-tom,2023.2.2,Linux x86_64,60.02040694,65c5074098b851296ff0b7ed,65c5165368db58f4163dfd5f,17.2375,19.747,space,2.4861,,,,,,,,,,,,,,,,,,,,,,,,,,,,,,,,,,,,,,,,,,,,,,,,,,,,,,,,,,,,,,,,,,,,,,,,,,,,,,,,,,,,,,,,,,,,,,,,,,,,,,
,,,,,,5f0151a9e5751c2a5313c45e,2024-02-08_11h02.55.765,group3.1-3.2-social-tom,2023.2.2,Linux x86_64,60.02040694,65c5074098b851296ff0b7ed,65c5165368db58f4163dfd5f,,,,,,19.7477,37.5236,space,17.4481,,,,,,,,,,,,,,,,,,,,,,,,,,,,,,,,,,,,,,,,,,,,,,,,,,,,,,,,,,,,,,,,,,,,,,,,,,,,,,,,,,,,,,,,,,,,,,,,,
,,,,,,5f0151a9e5751c2a5313c45e,2024-02-08_11h02.55.765,group3.1-3.2-social-tom,2023.2.2,Linux x86_64,60.02040694,65c5074098b851296ff0b7ed,65c5165368db58f4163dfd5f,,,,,,,,,,,37.5478,57.6326,space,20.0678,,[],[],[],[],[],[],0,0,0,0,1,,,,,,,,,,,,,,,,,,,,,,,,,,,,,,,,,,,,,,,,,,,,,,,,,,,,,,,,,,,,,,,,,,,,,,,,,,,,,,,,
,,,,,,5f0151a9e5751c2a5313c45e,2024-02-08_11h02.55.765,group3.1-3.2-social-tom,2023.2.2,Linux x86_64,60.02040694,65c5074098b851296ff0b7ed,65c5165368db58f4163dfd5f,,,,,,,,,,,57.6455,72.8096,space,14.9812,,[],[],[],[],[],[],1,0,1,0,1,,,,,,,,,,,,,,,,,,,,,,,,,,,,,,,,,,,,,,,,,,,,,,,,,,,,,,,,,,,,,,,,,,,,,,,,,,,,,,,,
,,,,,,5f0151a9e5751c2a5313c45e,2024-02-08_11h02.55.765,group3.1-3.2-social-tom,2023.2.2,Linux x86_64,60.02040694,65c5074098b851296ff0b7ed,65c5165368db58f4163dfd5f,,,,,,,,,,,72.8234,205.6284,space,132.7474,,[],[],[],[],[],[],2,0,2,0,1,,,,,,,,,,,,,,,,,,,,,,,,,,,,,,,,,,,,,,,,,,,,,,,,,,,,,,,,,,,,,,,,,,,,,,,,,,,,,,,,
,,,,,,5f0151a9e5751c2a5313c45e,2024-02-08_11h02.55.765,group3.1-3.2-social-tom,2023.2.2,Linux x86_64,60.02040694,65c5074098b851296ff0b7ed,65c5165368db58f4163dfd5f,,,,,,,,,,,205.6418,220.9894,space,15.3222,,[-0.14436968109443632],[-0.2623562812805176],[1],[0],[0],[2.945599999999672],3,0,3,0,1,,,,,,,,,,,,,,,,,,,,,,,,,,,,,,,,,,,,,,,,,,,,,,,,,,,,,,,,,,,,,,,,,,,,,,,,,,,,,,,,
,,,,,,5f0151a9e5751c2a5313c45e,2024-02-08_11h02.55.765,group3.1-3.2-social-tom,2023.2.2,Linux x86_64,60.02040694,65c5074098b851296ff0b7ed,65c5165368db58f4163dfd5f,,,,,,,,,,,220.9902,228.9695,space,7.9577,,[],[],[],[],[],[],4,0,4,0,1,,,,,,,,,,,,,,,,,,,,,,,,,,,,,,,,,,,,,,,,,,,,,,,,,,,,,,,,,,,,,,,,,,,,,,,,,,,,,,,,
,,,,,,5f0151a9e5751c2a5313c45e,2024-02-08_11h02.55.765,group3.1-3.2-social-tom,2023.2.2,Linux x86_64,60.02040694,65c5074098b851296ff0b7ed,65c5165368db58f4163dfd5f,,,,,,,,,,,,,,,,,,,,,,,,,,,228.9867,231.5697,231.6211,1,audio/Narrative13Situation2.wav,233.635,,233.6357,263.4089,"[[999,2],[999,115],[999,198],[999,282],[999,364],[999,450],[999,532],[999,617],[999,700],[999,782],[999,866],[13.6,954],[13.4,1032],[13.3,1117],[13,1199],[13,1284],[13.2,1365],[13.2,1451],[29.4,1533],[58.4,1866],[59.1,1949],[58.5,2034],[53.7,2116],[52.6,2198],[52.1,2283],[51.9,2365],[51.7,2450],[51.4,2532],[51,2616],[50.8,2698],[50.7,2784],[50.5,2867],[50.4,2948],[50.4,3031],[50.4,3114],[50.4,3197],[50.4,3281],[50.4,3365],[50.4,3447],[50.4,3531],[50.4,3614],[50.4,3697],[50.4,3780],[50.4,3864],[50.4,3969],[50.4,4046],[50.4,4130],[50.4,4213],[50.4,4297],[50.4,4380],[50.4,4463],[50.4,4546],[50.4,4629],[50.4,4714],[50.4,4796],[50.4,4880],[50.4,4963],[50.4,5046],[50.4,5130],[50.4,5213],[50.4,5297],[50.4,5379],[50.4,5463],[50.4,5546],[50.4,5630],[50.8,5715],[51.8,5796],[70.5,5880],[90.2,6879],[89.8,6963],[89.6,7047],[89.6,7130],[89.6,7213],[89.6,7296],[89.6,7379],[89.6,7462],[89.6,7545],[89.6,7629],[89.6,7712],[89.6,7795],[89.6,7879],[89.9,7962],[91.3,8046],[91.8,8129],[91.8,8212],[91.8,8295],[91.8,8378],[91.8,8462],[91.8,8545],[91.8,8628],[91.8,8712],[91.8,8795],[91.8,8878],[91.8,8961],[91.8,9045],[91.8,9128],[91.8,9212],[91.8,9295],[91.8,9378],[91.8,9461],[91.8,9545],[91.8,9628],[91.8,9711],[91.8,9794],[91.8,9878],[91.8,9961],[91.8,10044],[91.8,10129],[91.8,10211],[91.8,10294],[91.8,10378],[91.8,10461],[91.8,10545],[91.8,10627],[91.8,10711],[91.8,10794],[91.8,10878],[91.8,10961],[91.8,11044],[91.8,11128],[91.8,11211],[91.8,11294],[91.8,11377],[91.8,11461],[91.8,11544],[91.8,11627],[91.8,11710],[91.8,11794],[91.8,11877],[91.8,11961],[91.8,12044],[91.8,12127],[91.8,12211],[91.8,12294],[91.8,12377],[91.8,12460],[91.8,12543],[91.8,12627],[91.8,12711],[91.8,12794],[91.8,12877],[91.8,12960],[91.8,13044],[91.8,13127],[91.8,13210],[91.8,13293],[91.8,13376],[91.8,13460],[91.8,13543],[91.8,13627],[91.8,13710],[91.8,13793],[91.8,13876],[91.8,13960],[91.8,14044],[91.8,14126],[91.8,14210],[91.8,14293],[91.8,14376],[91.8,14460],[91.8,14543],[91.8,14626],[91.8,14709],[91.8,14792],[91.8,14876],[91.8,14959],[91.8,15043],[91.8,15127],[91.8,15209],[91.8,15293],[91.8,15376],[91.8,15459],[91.8,15542],[91.8,15626],[91.8,15711],[91.8,15793],[91.8,15878],[91.8,15959],[91.8,16042],[91.8,16126],[91.8,16209],[91.8,16292],[91.8,16376],[91.8,16459],[91.8,16542],[91.8,16627],[91.8,16709],[91.8,16792],[91.8,16875],[91.8,16959],[91.8,17042],[91.8,17125],[91.8,17208],[91.8,17292],[91.8,17375],[91.8,17458],[91.8,17543],[91.8,17625],[91.8,17708],[91.8,17791],[91.8,17875],[91.8,17959],[91.8,18042],[91.8,18125],[91.8,18208],[91.8,18291],[91.8,18375],[91.8,18459],[91.8,18541],[91.8,18625],[91.8,18708],[91.8,18792],[91.8,18875],[91.8,18958],[91.8,19042],[91.8,19125],[91.8,19208],[91.8,19292],[91.8,19375],[91.8,19457],[91.8,19541],[91.8,19624],[91.8,19708],[91.8,19791],[91.8,19874],[91.8,19958],[91.8,20041],[91.8,20124],[91.8,20208],[91.8,20291],[91.8,20374],[91.8,20457],[91.8,20541],[91.8,20625],[91.8,20707],[91.8,20790],[91.8,20874],[91.8,20957],[91.8,21042],[91.8,21124],[91.8,21207],[91.8,21290],[91.8,21374],[91.8,21458],[91.8,21541],[91.8,21623],[91.8,21707],[91.8,21791],[91.8,21874],[91.8,21957],[91.8,22040],[91.8,22124],[91.8,22207],[91.8,22290],[91.8,22374],[91.8,22457],[91.8,22540],[91.8,22623],[91.8,22707],[91.8,22790],[91.8,22873],[91.8,22957],[91.8,23040],[91.8,23123],[91.8,23208],[91.8,23290],[91.8,23373],[91.8,23456],[91.8,23540],[91.8,23623],[91.8,23706],[91.8,23789],[91.8,23873],[91.8,23956],[91.8,24040],[91.8,24123],[91.8,24206],[91.8,24289],[91.8,24373],[91.8,24456],[91.8,24540],[91.8,24622],[91.8,24706],[91.8,24789],[91.8,24872],[91.8,24956],[91.8,25039],[91.8,25123],[91.8,25206],[91.8,25289],[91.8,25372],[91.8,25456],[91.8,25539],[91.8,25623],[91.8,25705],[91.8,25789],[91.8,25873],[91.8,25955],[91.8,26039],[91.8,26122],[91.8,26205],[91.8,26289],[91.8,26372],[91.8,26455],[91.8,26539],[91.8,26622],[91.8,26706],[91.8,26789],[91.8,26872],[91.8,26955],[91.8,27039],[91.8,27122],[91.8,27205],[91.8,27289],[91.8,27372],[91.8,27455],[91.8,27538],[91.8,27622],[91.8,27705],[91.8,27788],[91.8,27872],[91.8,27954],[91.8,28039],[91.8,28122],[91.8,28205],[91.8,28288],[91.8,28371],[91.8,28455],[91.8,28538],[91.8,28621],[91.8,28705],[91.8,28788],[91.8,28871],[91.8,28955],[91.8,29038],[91.8,29121],[91.8,29204],[91.8,29288],[91.8,29371],[91.8,29454],[91.8,29538],[91.8,29621],[91.8,29704]]",1,0,263.4101,271.1391,93.67474714,5.2691,"[{""rating"":93.67474713751372,""responseTime"":5.269100000001458}]",space,7.1809,,271.1398,All the time,100,271.1501,,,[],,0,0,0,0,1,audio/Narrative13Situation2.wav,audio/Narrative13Situation2.wav,audio/Narrative13Situation2.wav,audio/Narrative13Situation2.wav,2,2,2,2,,,,,,,,,,,,,,,,,,,,,,,,,,,,,,,,,,,,,,,
,,,,,,5f0151a9e5751c2a5313c45e,2024-02-08_11h02.55.765,group3.1-3.2-social-tom,2023.2.2,Linux x86_64,60.02040694,65c5074098b851296ff0b7ed,65c5165368db58f4163dfd5f,,,,,,,,,,,,,,,,,,,,,,,,,,,,,271.1508,1,audio/Narrative8Situation1.wav,274.6197,space,274.6197,290.5478,"[[999,15],[999,83],[999,166],[999,250],[999,332],[999,416],[999,499],[999,583],[999,667],[999,751],[999,833],[999,917],[999,1000],[999,1085],[999,1166],[999,1249],[999,1333],[54.4,1417],[52.9,1499],[52,1584],[51,1666],[49.8,1750],[49.1,1832],[49,1916],[48.9,2003],[48.9,2082],[48.9,2165],[48.9,2249],[48.9,2332],[48.9,2417],[48.9,2499],[48.9,2582],[48.9,2666],[48.9,2748],[48.9,2832],[48.9,2916],[48.9,2998],[48.9,3082],[48.9,3165],[48.9,3248],[48.9,3332],[48.9,3415],[48.9,3498],[48.9,3581],[48.9,3665],[48.9,3748],[48.9,3831],[48.9,3915],[48.9,3998],[48.9,4081],[48.9,4165],[48.9,4249],[48.9,4331],[48.9,4415],[48.9,4498],[48.9,4581],[48.9,4665],[48.9,4747],[48.9,4831],[48.9,4914],[48.9,4998],[48.9,5082],[48.9,5164],[48.9,5248],[48.9,5331],[48.9,5414],[48.9,5498],[48.9,5580],[48.9,5664],[48.9,5747],[48.9,5831],[48.9,5914],[48.9,5997],[48.9,6081],[48.9,6164],[48.9,6247],[48.9,6330],[48.9,6414],[48.9,6497],[48.9,6580],[48.9,6663],[48.9,6747],[48.9,6830],[48.9,6913],[48.9,6997],[48.9,7080],[48.9,7164],[48.9,7247],[48.9,7330],[48.9,7413],[48.9,7497],[48.9,7580],[48.9,7663],[48.9,7747],[48.9,7830],[48.9,7913],[48.9,7996],[48.9,8081],[48.9,8164],[48.9,8246],[48.9,8330],[48.9,8413],[48.9,8496],[48.9,8581],[48.9,8663],[48.9,8746],[48.9,8829],[48.9,8913],[48.9,8996],[48.9,9079],[48.9,9163],[48.9,9246],[48.9,9329],[48.9,9413],[48.9,9497],[48.9,9579],[48.9,9663],[48.9,9746],[48.9,9829],[48.9,9913],[48.9,9996],[48.9,10079],[48.9,10162],[48.9,10245],[48.9,10329],[48.9,10413],[48.9,10496],[48.9,10579],[48.9,10662],[48.9,10745],[48.9,10830],[48.9,10912],[48.9,10995],[48.9,11079],[48.9,11162],[48.9,11246],[48.9,11329],[48.9,11412],[48.9,11495],[48.9,11579],[49.7,11663],[53.9,11745],[59.5,11829],[60.3,11913],[61.9,11995],[63,12079],[63.6,12163],[64.4,12246],[65.6,12329],[67.3,12413],[68.1,12497],[68.2,12578],[68.2,12661],[68.2,12745],[68.2,12828],[68.2,12911],[68.2,12995],[68.2,13079],[68.2,13162],[68.2,13244],[68.2,13328],[68.2,13412],[68.2,13494],[68.2,13579],[68.2,13661],[68.2,13744],[68.2,13828],[68.2,13911],[68.2,13994],[68.2,14078],[68.2,14161],[68.2,14244],[68.2,14329],[68.2,14411],[68.2,14494],[68.2,14578],[68.2,14662],[68.2,14745],[68.2,14827],[68.2,14911],[68.2,14994],[68.2,15078],[68.2,15161],[68.2,15244],[68.2,15327],[68.2,15411],[68.2,15494],[68.2,15577],[68.2,15661],[68.2,15744],[68.2,15827],[68.2,15910]]",1,0,290.5489,294.5629,55.78968054,3.1636,"[{""rating"":55.789680536809115,""responseTime"":3.163599999999633}]",space,3.471,,294.5631,All the time,100,294.57,,,[],,0,1,1,1,1,audio/Narrative7Situation1.wav,audio/Narrative8Situation1.wav,audio/Narrative5Situation1.wav,audio/Narrative6Situation1.wav,2,5,5,2,3.4538,,,,,,,,,,,,,,,,,,,,,,,,,,,,,,,,,,,,,,
,,,,,,5f0151a9e5751c2a5313c45e,2024-02-08_11h02.55.765,group3.1-3.2-social-tom,2023.2.2,Linux x86_64,60.02040694,65c5074098b851296ff0b7ed,65c5165368db58f4163dfd5f,,,,,,,,,,,,,,,,,,,,,,,,,,,,,294.5705,1,audio/Narrative8Situation2.wav,297.5785,,297.5786,307.7085,"[[55.9,1082],[51.5,1582],[50.9,1665],[50.7,1749],[50.7,1832],[50.7,1915],[50.7,1998],[50.7,2082],[50.7,2166],[50.7,2248],[50.7,2331],[50.7,2415],[50.7,2498],[50.7,2581],[50.7,2665],[50.7,2748],[50.7,2831],[50.7,2915],[50.7,2999],[50.7,3082],[50.7,3164],[50.7,3248],[50.7,3331],[50.7,3414],[50.7,3499],[50.7,3581],[50.7,3664],[50.7,3747],[50.7,3832],[50.7,3915],[50.3,3998],[49.7,4081],[49.5,4165],[49.4,4247],[49.4,4331],[49.4,4414],[49.4,4497],[49.4,4581],[49.4,4664],[49.4,4747],[49.4,4831],[49.4,4914],[49.4,4997],[49.4,5080],[49.4,5164],[49.4,5247],[49.4,5330],[49.4,5414],[49.4,5497],[49.4,5580],[49.4,5664],[49.4,5747],[49.4,5830],[49.4,5914],[49.4,5997],[49.4,6080],[49.4,6163],[49.4,6247],[49.4,6330],[49.4,6414],[49.4,6497],[49.4,6580],[49.4,6663],[49.4,6747],[49.4,6830],[49.4,6913],[49.4,6997],[49.4,7079],[49.4,7163],[49.4,7247],[49.4,7329],[49.4,7413],[49.4,7497],[49.4,7579],[49.4,7663],[49.4,7746],[49.4,7829],[49.4,7912],[49.4,7996],[49.4,8079],[49.4,8163],[49.4,8246],[49.4,8329],[49.4,8413],[49.4,8496],[49.4,8580],[49.4,8662],[49.4,8746],[49.4,8829],[49.4,8913],[49.4,8996],[49.4,9079],[49.4,9162],[49.4,9246],[49.4,9329],[49.4,9412],[49.4,9496],[49.4,9579],[49.4,9662],[49.4,9746],[49.4,9829],[49.4,9912],[49.4,9995],[49.4,10079]]",1,0,307.709,310.9734,50.01335982,2.1924,"[{""rating"":50.01335981824213,""responseTime"":2.192399999998486}]",space,2.7159,,310.9737,Half the time,50,310.9862,,,[],,0,2,2,2,1,audio/Narrative7Situation2.wav,audio/Narrative8Situation2.wav,audio/Narrative5Situation2.wav,audio/Narrative6Situation2.wav,3,3,3,3,,,,,,,,,,,,,,,,,,,,,,,,,,,,,,,,,,,,,,,
,,,,,,5f0151a9e5751c2a5313c45e,2024-02-08_11h02.55.765,group3.1-3.2-social-tom,2023.2.2,Linux x86_64,60.02040694,65c5074098b851296ff0b7ed,65c5165368db58f4163dfd5f,,,,,,,,,,,,,,,,,,,,,,,,,,,,,310.9868,1,audio/Narrative8Situation3.wav,314.9884,,314.9884,337.381,"[[999,13],[999,83],[999,166],[999,249],[999,333],[999,416],[91.6,584],[91.8,669],[91.4,751],[90.9,833],[91.8,918],[93.3,1002],[95,1083],[95.8,1166],[96,1249],[96.2,1333],[97.5,1418],[98.3,1499],[98.8,1583],[99.3,1666],[99.7,1750],[99.7,1833],[99.7,1916],[99.7,1999],[99.7,2082],[99.7,2165],[99.7,2249],[99.7,2332],[99.7,2415],[99.7,2498],[99.7,2582],[99.7,2665],[99.7,2748],[99.7,2832],[99.7,2916],[99.7,2998],[99.7,3082],[99.7,3166],[99.7,3248],[99.7,3332],[99.7,3415],[99.7,3498],[99.7,3582],[99.7,3665],[99.7,3748],[99.7,3831],[99.7,3916],[99.7,3998],[99.7,4082],[99.7,4165],[99.7,4248],[99.7,4331],[99.7,4415],[99.7,4498],[99.7,4581],[99.7,4664],[99.7,4748],[99.7,4831],[99.7,4915],[99.7,4998],[99.7,5081],[99.7,5164],[99.7,5248],[99.7,5331],[99.7,5414],[99.7,5497],[99.7,5581],[99.7,5664],[99.7,5747],[99.7,5831],[99.7,5914],[99.7,5997],[99.7,6081],[99.7,6164],[99.7,6247],[99.7,6331],[99.7,6414],[99.7,6497],[99.7,6582],[99.7,6664],[99.7,6747],[99.7,6831],[99.7,6914],[99.7,6997],[99.7,7081],[99.7,7164],[99.7,7247],[99.7,7330],[99.7,7414],[99.7,7497],[99.7,7580],[99.7,7663],[99.7,7747],[99.7,7830],[99.7,7913],[99.7,7997],[99.7,8080],[99.7,8163],[99.7,8247],[99.7,8330],[99.7,8414],[99.7,8497],[99.7,8580],[99.7,8663],[99.7,8746],[99.7,8830],[99.7,8913],[99.7,8996],[99.7,9079],[99.7,9163],[99.7,9246],[99.7,9329],[99.7,9413],[99.7,9496],[99.7,9579],[99.7,9664],[99.7,9746],[99.7,9829],[99.7,9913],[99.7,9996],[99.7,10079],[99.7,10163],[99.7,10246],[99.7,10329],[99.7,10413],[99.7,10496],[99.7,10579],[99.7,10662],[99.7,10746],[99.7,10829],[99.7,10912],[99.7,10995],[99.7,11079],[99.7,11162],[99.7,11245],[99.7,11329],[99.7,11412],[99.7,11497],[99.7,11579],[99.7,11662],[99.7,11745],[99.7,11829],[99.7,11913],[99.7,11995],[99.7,12079],[99.7,12162],[99.7,12246],[99.7,12329],[99.7,12412],[99.7,12495],[99.7,12578],[99.7,12661],[99.7,12745],[99.7,12828],[99.7,12911],[99.7,12995],[99.7,13078],[99.7,13162],[99.7,13245],[99.7,13328],[99.7,13411],[99.7,13495],[99.7,13578],[99.7,13662],[99.7,13745],[99.7,13828],[99.7,13911],[99.7,13995],[99.7,14078],[99.7,14161],[99.7,14245],[99.7,14328],[99.7,14411],[99.7,14494],[99.7,14579],[99.7,14661],[99.7,14744],[99.7,14828],[99.7,14911],[99.7,14995],[99.7,15077],[99.7,15161],[99.7,15244],[99.7,15327],[99.7,15411],[99.7,15494],[99.7,15577],[99.7,15661],[99.7,15744],[99.7,15827],[99.7,15911],[99.7,15994],[99.7,16077],[99.7,16160],[99.7,16244],[99.7,16327],[99.7,16410],[99.7,16493],[99.7,16577],[99.7,16660],[99.7,16744],[99.7,16827],[99.7,16910],[99.7,16993],[99.7,17077],[99.7,17160],[99.7,17244],[99.7,17327],[99.7,17410],[99.7,17493],[99.7,17577],[99.7,17660],[99.7,17743],[99.7,17827],[99.7,17910],[99.7,17993],[99.7,18076],[99.7,18160],[99.7,18243],[99.7,18326],[99.7,18409],[99.7,18494],[99.7,18576],[99.7,18661],[99.7,18743],[99.7,18826],[99.7,18910],[99.7,18992],[99.7,19076],[99.7,19159],[99.7,19243],[99.7,19326],[99.7,19409],[99.7,19493],[99.7,19576],[99.7,19659],[99.7,19742],[99.7,19826],[99.7,19909],[99.7,19992],[99.7,20077],[99.7,20159],[99.7,20243],[99.7,20325],[99.7,20409],[99.7,20493],[99.7,20575],[99.7,20659],[99.7,20742],[99.7,20826],[99.7,20909],[99.7,20992],[99.7,21075],[99.7,21159],[99.7,21242],[99.7,21325],[99.7,21409],[99.7,21492],[99.7,21575],[99.7,21658],[99.7,21742],[99.7,21825],[99.7,21908],[99.7,21992],[99.7,22075],[99.7,22158],[99.7,22242],[99.7,22325]]",1,0,337.3817,339.4136,99.73399217,1.16,"[{""rating"":99.73399216748263,""responseTime"":1.1599999999999682}]",space,1.4896,,339.4138,Half the time,50,339.4203,,,[],,0,3,3,3,1,audio/Narrative7Situation3.wav,audio/Narrative8Situation3.wav,audio/Narrative5Situation3.wav,audio/Narrative6Situation3.wav,8,4,3,5,,,,,,,,,,,,,,,,,,,,,,,,,,,,,,,,,,,,,,,
,,,,,,5f0151a9e5751c2a5313c45e,2024-02-08_11h02.55.765,group3.1-3.2-social-tom,2023.2.2,Linux x86_64,60.02040694,65c5074098b851296ff0b7ed,65c5165368db58f4163dfd5f,,,,,,,,,,,,,,,,,,,,,,,,,,,,,339.4209,1,audio/Narrative8Situation4.wav,342.4286,,342.4287,356.591,"[[100,583],[100,667],[100,750],[100,833],[100,917],[100,1000],[100,1084],[100,1166],[100,1252],[100,1333],[100,1415],[100,1499],[100,1582],[100,1666],[100,1749],[100,1832],[100,1915],[100,1999],[100,2082],[100,2165],[100,2249],[100,2332],[100,2415],[100,2499],[100,2582],[100,2665],[100,2749],[100,2832],[100,2915],[100,2998],[100,3081],[100,3165],[100,3248],[100,3331],[100,3415],[100,3498],[100,3581],[100,3665],[100,3748],[100,3832],[100,3915],[100,3999],[100,4081],[100,4165],[100,4249],[100,4331],[100,4415],[100,4498],[100,4581],[100,4665],[100,4748],[100,4831],[100,4914],[100,4997],[100,5081],[100,5164],[100,5247],[100,5331],[100,5414],[100,5497],[100,5581],[100,5664],[100,5747],[100,5831],[100,5914],[100,5998],[100,6080],[100,6164],[100,6247],[100,6330],[100,6414],[100,6497],[100,6580],[100,6664],[100,6747],[100,6830],[100,6914],[100,6997],[100,7081],[100,7164],[100,7247],[100,7330],[100,7413],[100,7497],[100,7580],[100,7663],[100,7747],[100,7830],[100,7914],[100,7997],[100,8080],[100,8163],[100,8247],[100,8330],[100,8413],[100,8496],[100,8580],[100,8664],[100,8746],[100,8830],[100,8913],[100,8996],[100,9080],[100,9163],[100,9246],[100,9329],[100,9413],[100,9496],[100,9579],[100,9663],[100,9747],[100,9829],[100,9913],[100,9996],[100,10079],[100,10162],[100,10246],[100,10329],[100,10412],[100,10496],[100,10579],[100,10662],[100,10746],[100,10830],[100,10912],[100,10996],[100,11079],[100,11162],[100,11246],[100,11329],[100,11412],[100,11497],[100,11579],[100,11662],[100,11745],[100,11828],[100,11912],[100,11995],[100,12078],[100,12162],[100,12245],[100,12329],[100,12412],[100,12495],[100,12579],[100,12662],[100,12745],[100,12828],[100,12911],[100,12995],[100,13079],[100,13161],[100,13245],[100,13328],[100,13412],[100,13495],[100,13579],[100,13662],[100,13745],[100,13828],[100,13912],[100,13994],[100,14078],[100,14161]]",1,0,356.592,358.9562,99.03035422,1.8604,"[{""rating"":99.03035422195279,""responseTime"":1.8603999999984921}]",space,1.8173,,358.9564,Half the time,50,358.9624,,,[],,0,4,4,4,1,audio/Narrative7Situation4.wav,audio/Narrative8Situation4.wav,audio/Narrative5Situation4.wav,audio/Narrative6Situation4.wav,3,3,1,2,,,,,,,,,,,,,,,,,,,,,,,,,,,,,,,,,,,,,,,
,,,,,,5f0151a9e5751c2a5313c45e,2024-02-08_11h02.55.765,group3.1-3.2-social-tom,2023.2.2,Linux x86_64,60.02040694,65c5074098b851296ff0b7ed,65c5165368db58f4163dfd5f,,,,,,,,,,,,,,,,,,,,,,,,,,,,,358.9628,1,audio/Narrative8Situation5.wav,360.9724,,360.9725,369.2199,"[[100,583],[100,666],[100,749],[100,833],[100,916],[100,1000],[100,1082],[100,1166],[100,1249],[100,1333],[100,1416],[100,1499],[100,1583],[100,1665],[100,1748],[100,1832],[100,1915],[100,1998],[100,2081],[100,2165],[100,2249],[100,2331],[100,2415],[100,2498],[100,2581],[100,2665],[100,2748],[100,2831],[100,2915],[100,2998],[100,3081],[100,3164],[100,3248],[100,3331],[100,3415],[100,3498],[100,3582],[100,3664],[100,3748],[100,3831],[100,3914],[100,3998],[100,4081],[100,4164],[100,4247],[100,4331],[100,4414],[100,4497],[100,4581],[100,4665],[100,4747],[100,4830],[100,4914],[100,4997],[100,5081],[100,5164],[100,5247],[100,5331],[100,5414],[100,5497],[100,5581],[100,5663],[100,5747],[100,5830],[100,5914],[100,5997],[100,6080],[100,6164],[100,6247],[100,6330],[100,6413],[100,6497],[100,6581],[100,6663],[100,6746],[100,6830],[100,6913],[100,6996],[100,7080],[100,7163],[100,7248],[100,7330],[100,7413],[100,7497],[100,7580],[100,7663],[100,7746],[100,7829],[100,7913],[100,7996],[100,8079],[100,8163],[100,8246]]",1,0,369.2202,372.6519,99.15224581,3.0598,"[{""rating"":99.15224580778734,""responseTime"":3.0597999999988588}]",space,2.8928,,372.6522,All the time,100,372.6665,,,[],,0,5,5,5,1,audio/Narrative7Situation5.wav,audio/Narrative8Situation5.wav,audio/Narrative5Situation5.wav,audio/Narrative6Situation5.wav,5,2,5,2,,,,,,,,,,,,,,,,,,,,,,,,,,,,,,,,,,,,,,,
,,,,,,5f0151a9e5751c2a5313c45e,2024-02-08_11h02.55.765,group3.1-3.2-social-tom,2023.2.2,Linux x86_64,60.02040694,65c5074098b851296ff0b7ed,65c5165368db58f4163dfd5f,,,,,,,,,,,,,,,,,,,,,,,,,,,,,372.6691,1,audio/Narrative8Situation6.wav,374.684,,374.6841,381.1652,"[[100,1417],[100,1500],[100,1584],[100,1666],[100,1749],[100,1833],[100,1916],[100,1999],[100,2081],[100,2165],[100,2248],[100,2331],[100,2415],[100,2498],[100,2582],[100,2665],[100,2748],[100,2831],[100,2915],[100,2998],[100,3081],[100,3165],[100,3248],[100,3332],[100,3414],[100,3498],[100,3581],[100,3664],[100,3748],[100,3831],[100,3914],[100,3998],[100,4081],[100,4164],[100,4248],[100,4331],[100,4415],[100,4497],[100,4581],[100,4665],[100,4747],[100,4831],[100,4914],[100,4997],[100,5081],[100,5164],[100,5247],[100,5331],[100,5414],[100,5497],[100,5580],[100,5664],[100,5747],[100,5830],[100,5914],[100,5997],[100,6080],[100,6163],[100,6248],[100,6330],[100,6414]]",1,0,381.1655,384.9308,98.77473935,3.2125,"[{""rating"":98.77473934503112,""responseTime"":3.2124999999999773}]",space,3.2168,,384.931,Not at all,0,384.9409,,,[],,0,6,6,6,1,audio/Narrative7Situation6.wav,audio/Narrative8Situation6.wav,audio/Narrative5Situation6.wav,audio/Narrative6Situation6.wav,3,2,3,2,,,,,,,,,,,,,,,,,,,,,,,,,,,,,,,,,,,,,,,
,,,,,,5f0151a9e5751c2a5313c45e,2024-02-08_11h02.55.765,group3.1-3.2-social-tom,2023.2.2,Linux x86_64,60.02040694,65c5074098b851296ff0b7ed,65c5165368db58f4163dfd5f,,,,,,,,,,,,,,,,,,,,,,,,,,,,,384.9415,1,audio/Narrative8Situation7.wav,387.947,,387.9472,400.0416,"[[100,500],[100,583],[100,665],[100,748],[100,833],[100,915],[100,998],[100,1081],[100,1165],[100,1248],[100,1331],[100,1414],[100,1498],[100,1581],[100,1664],[100,1747],[100,1831],[100,1914],[100,1998],[100,2081],[100,2164],[100,2247],[100,2331],[100,2414],[100,2497],[100,2581],[100,2663],[100,2749],[100,2830],[100,2913],[100,2997],[100,3080],[100,3163],[100,3247],[100,3330],[100,3413],[100,3497],[100,3580],[100,3663],[100,3747],[100,3830],[100,3914],[100,3996],[100,4080],[100,4163],[100,4246],[100,4330],[100,4413],[100,4496],[100,4579],[100,4663],[100,4747],[100,4829],[100,4913],[100,4996],[100,5079],[100,5163],[100,5247],[100,5329],[100,5413],[100,5496],[100,5579],[100,5663],[100,5746],[100,5829],[100,5912],[100,5996],[100,6079],[100,6162],[100,6246],[100,6329],[100,6412],[100,6496],[100,6579],[100,6662],[100,6746],[100,6829],[100,6912],[100,6996],[100,7079],[100,7162],[100,7245],[100,7328],[100,7413],[100,7495],[100,7579],[100,7662],[100,7745],[100,7830],[100,7912],[100,7995],[100,8078],[100,8162],[100,8245],[100,8328],[100,8411],[100,8495],[100,8578],[100,8661],[100,8745],[100,8828],[100,8912],[100,8995],[100,9078],[100,9162],[100,9245],[100,9328],[100,9411],[100,9495],[100,9578],[100,9661],[100,9744],[100,9828],[100,9911],[100,9994],[100,10078],[100,10161],[100,10244],[100,10327],[100,10411],[100,10495],[100,10578],[100,10661],[100,10744],[100,10827],[100,10911],[100,10994],[100,11077],[100,11161],[100,11244],[100,11327],[100,11411],[100,11494],[100,11577],[100,11660],[100,11744],[100,11827],[100,11910],[100,11994],[100,12077]]",1,0,400.0425,402.5572,99.67410086,1.7658,"[{""rating"":99.67410086189147,""responseTime"":1.765799999998876}]",space,1.9651,,402.5573,Not at all,0,402.5623,,,[],,0,7,7,7,1,audio/Narrative7Situation7.wav,audio/Narrative8Situation7.wav,audio/Narrative5Situation7.wav,audio/Narrative6Situation7.wav,5,3,4,5,,,,,,,,,,,,,,,,,,,,,,,,,,,,,,,,,,,,,,,
,,,,,,5f0151a9e5751c2a5313c45e,2024-02-08_11h02.55.765,group3.1-3.2-social-tom,2023.2.2,Linux x86_64,60.02040694,65c5074098b851296ff0b7ed,65c5165368db58f4163dfd5f,,,,,,,,,,,,,,,,,,,,,,,,,,,,,402.5628,1,audio/Narrative8Situation8.wav,405.5728,,405.5729,418.4351,"[[100,583],[100,667],[100,750],[100,833],[100,916],[100,999],[100,1083],[100,1165],[100,1249],[100,1332],[100,1416],[100,1499],[100,1582],[100,1666],[100,1749],[100,1832],[100,1915],[100,1998],[100,2082],[100,2165],[100,2249],[100,2333],[100,2415],[100,2499],[100,2582],[100,2665],[100,2748],[100,2832],[100,2915],[100,2998],[100,3082],[100,3165],[100,3248],[100,3332],[100,3415],[100,3498],[100,3582],[100,3665],[100,3748],[100,3831],[100,3915],[100,3998],[100,4081],[100,4165],[100,4248],[100,4332],[100,4414],[100,4498],[100,4581],[100,4664],[100,4748],[100,4831],[100,4914],[100,4998],[100,5081],[100,5164],[100,5247],[100,5331],[100,5414],[100,5497],[100,5581],[100,5664],[100,5747],[100,5831],[100,5914],[100,5998],[100,6080],[100,6164],[100,6247],[100,6333],[100,6413],[100,6498],[100,6580],[100,6663],[100,6747],[100,6830],[100,6913],[100,6997],[100,7080],[100,7163],[100,7248],[100,7330],[100,7414],[100,7497],[100,7580],[100,7664],[100,7746],[100,7830],[100,7913],[100,7996],[100,8080],[100,8163],[100,8246],[100,8330],[100,8413],[100,8497],[100,8579],[100,8663],[100,8746],[100,8829],[100,8913],[100,8996],[100,9079],[100,9163],[100,9246],[100,9329],[100,9413],[100,9496],[100,9579],[100,9663],[100,9746],[100,9830],[100,9912],[100,9996],[100,10079],[100,10162],[100,10246],[100,10329],[100,10412],[100,10495],[100,10579],[100,10662],[100,10746],[100,10829],[100,10913],[100,10995],[100,11079],[100,11162],[100,11245],[100,11329],[100,11412],[100,11495],[100,11579],[100,11662],[100,11745],[100,11829],[100,11912],[100,11995],[100,12078],[100,12163],[100,12245],[100,12328],[100,12411],[100,12495],[100,12578],[100,12662],[100,12745],[100,12828]]",1,0,418.4356,420.6175,98.73152324,1.8443,"[{""rating"":98.73152323732613,""responseTime"":1.8443000000007714}]",space,1.6517,,420.6175,Half the time,50,420.632,,,[],,0,8,8,8,1,audio/Narrative7Situation8.wav,audio/Narrative8Situation8.wav,audio/Narrative5Situation8.wav,audio/Narrative6Situation8.wav,2,3,3,5,,,,,,,,,,,,,,,,,,,,,,,,,,,,,,,,,,,,,,,
,,,,,,5f0151a9e5751c2a5313c45e,2024-02-08_11h02.55.765,group3.1-3.2-social-tom,2023.2.2,Linux x86_64,60.02040694,65c5074098b851296ff0b7ed,65c5165368db58f4163dfd5f,,,,,,,,,,,,,,,,,,,,,,,,,,,,,420.6327,1,audio/Narrative8Situation9.wav,423.634,,423.6343,434.9629,"[[100,81],[100,165],[100,248],[100,331],[100,415],[100,499],[100,590],[100,671],[100,751],[100,841],[100,916],[100,998],[100,1083],[100,1165],[100,1248],[100,1331],[100,1414],[100,1498],[100,1581],[100,1665],[100,1748],[100,1831],[100,1914],[100,1998],[100,2081],[100,2164],[100,2248],[100,2331],[100,2414],[100,2497],[100,2581],[100,2664],[100,2747],[100,2831],[100,2915],[100,2998],[100,3082],[100,3164],[100,3247],[100,3330],[100,3414],[100,3497],[100,3581],[100,3663],[100,3747],[100,3830],[100,3914],[100,3997],[100,4080],[100,4164],[100,4247],[100,4330],[100,4413],[100,4497],[100,4580],[100,4664],[100,4747],[100,4830],[100,4913],[100,4996],[100,5080],[100,5163],[100,5246],[100,5330],[100,5413],[100,5498],[100,5579],[100,5664],[100,5747],[100,5829],[100,5913],[100,5996],[100,6081],[100,6163],[100,6246],[100,6329],[100,6413],[100,6496],[100,6580],[100,6662],[100,6747],[100,6830],[100,6912],[100,6996],[100,7079],[100,7163],[100,7246],[100,7330],[100,7413],[100,7496],[100,7579],[100,7662],[100,7745],[100,7829],[100,7913],[100,7995],[100,8079],[100,8162],[100,8246],[100,8329],[100,8412],[100,8495],[100,8579],[100,8662],[100,8745],[100,8829],[100,8912],[100,8995],[100,9079],[100,9162],[100,9245],[100,9328],[100,9412],[100,9496],[100,9578],[100,9662],[100,9746],[100,9829],[100,9912],[100,9995],[100,10079],[100,10161],[100,10245],[100,10328],[100,10411],[100,10495],[100,10579],[100,10661],[100,10746],[100,10829],[100,10911],[100,10995],[100,11078],[100,11161],[100,11245],[100,11328]]",1,0,434.9633,437.5117,99.61579129,2.1646,"[{""rating"":99.61579128728953,""responseTime"":2.1645999999996093}]",space,2.0222,,437.5119,All the time,100,437.5227,,,[],,0,9,9,9,1,audio/Narrative7Situation9.wav,audio/Narrative8Situation9.wav,audio/Narrative5Situation9.wav,audio/Narrative6Situation9.wav,2,3,3,4,,,,,,,,,,,,,,,,,,,,,,,,,,,,,,,,,,,,,,,
,,,,,,5f0151a9e5751c2a5313c45e,2024-02-08_11h02.55.765,group3.1-3.2-social-tom,2023.2.2,Linux x86_64,60.02040694,65c5074098b851296ff0b7ed,65c5165368db58f4163dfd5f,,,,,,,,,,,,,,,,,,,,,,,,,,,,,437.5238,1,audio/Narrative7Situation1.wav,439.5275,,439.5276,495.4076,"[[100,166],[100,250],[100,333],[100,417],[100,499],[100,583],[100,668],[100,752],[100,835],[95.4,918],[36,1167],[43.2,1249],[45.5,1333],[46,1416],[46.2,1500],[46.3,1583],[45.9,1666],[45.2,1750],[45,1833],[44.8,1916],[44.7,1999],[42.9,2083],[35.6,2165],[33.8,2250],[33.6,2332],[33.5,2415],[33.5,2498],[33.5,2581],[33.5,2665],[33.5,2748],[33.5,2832],[33.5,2916],[33.5,2998],[33.5,3082],[33.5,3165],[33.5,3248],[33.5,3331],[33.5,3416],[33.5,3499],[33.5,3582],[33.5,3665],[33.5,3748],[33.5,3831],[33.5,3915],[33.5,3998],[33.5,4081],[33.5,4164],[33.5,4249],[33.5,4331],[33.5,4414],[33.5,4497],[33.5,4581],[48,4665],[50.7,4747],[50.8,4831],[51.5,4915],[51.6,4998],[51.2,5082],[50.8,5164],[50.6,5249],[50.4,5331],[50.3,5414],[50.1,5499],[50,5581],[49.9,5664],[49.9,5747],[49.9,5831],[49.9,5914],[49.9,5998],[49.9,6081],[49.9,6164],[49.9,6248],[49.9,6330],[49.9,6415],[49.9,6497],[49.9,6580],[49.9,6663],[49.9,6747],[49.9,6830],[49.9,6914],[49.9,6997],[49.9,7080],[49.9,7163],[49.9,7246],[49.9,7330],[49.9,7413],[49.9,7497],[49.9,7580],[49.9,7664],[49.9,7747],[49.9,7830],[49.9,7913],[49.9,7996],[49.9,8080],[49.9,8163],[49.9,8247],[49.9,8330],[49.9,8413],[49.9,8497],[49.9,8580],[49.9,8663],[49.9,8746],[49.9,8829],[49.9,8913],[49.9,8996],[49.9,9080],[49.9,9163],[49.9,9247],[49.9,9329],[49.9,9413],[49.9,9497],[49.9,9579],[49.9,9663],[49.9,9746],[49.9,9829],[49.9,9913],[49.9,9996],[49.9,10079],[49.9,10162],[49.9,10245],[49.9,10330],[49.9,10412],[49.9,10496],[49.9,10579],[49.9,10662],[49.9,10745],[49.9,10830],[49.9,10912],[49.9,10996],[49.9,11079],[49.9,11162],[49.9,11246],[49.9,11328],[49.9,11412],[49.9,11495],[49.9,11579],[49.9,11662],[49.9,11745],[49.9,11828],[49.9,11912],[49.9,11995],[49.9,12078],[49.9,12161],[49.9,12245],[49.9,12329],[49.9,12412],[49.9,12495],[49.9,12579],[49.9,12661],[49.9,12746],[49.9,12829],[49.9,12911],[49.9,12995],[49.9,13078],[49.9,13162],[49.9,13245],[49.9,13328],[49.9,13411],[49.9,13495],[51.5,13578],[53.9,13661],[54.5,13745],[54.8,13829],[55.8,13912],[57.3,13995],[57.7,14079],[58.2,14163],[58.6,14245],[58.7,14330],[58.9,14412],[59.1,14495],[59.1,14578],[59.1,14661],[59.2,14744],[59.2,14827],[59.2,14911],[59.2,14994],[59.3,15077],[59.3,15161],[59.3,15244],[59.3,15327],[59.3,15412],[59.3,15494],[59.3,15577],[59.3,15661],[59.3,15744],[59.3,15827],[59.3,15910],[59.3,15994],[59.3,16078],[59.3,16160],[59.3,16244],[59.3,16327],[59.3,16410],[59.3,16494],[59.3,16577],[59.3,16660],[59.3,16744],[59.3,16826],[59.3,16910],[59.3,16993],[59.3,17077],[59.3,17161],[59.3,17248],[59.3,17327],[59.3,17411],[59.3,17493],[59.3,17577],[59.3,17660],[59.3,17743],[59.3,17827],[59.3,17910],[59.3,17993],[59.3,18077],[59.3,18160],[59.3,18244],[59.3,18326],[59.3,18410],[59.3,18492],[59.3,18576],[59.3,18660],[59.3,18743],[59.3,18826],[59.3,18909],[59.3,18992],[59.3,19075],[59.3,19160],[59.3,19242],[59.3,19326],[59.3,19410],[59.3,19492],[59.3,19576],[59.3,19659],[59.3,19743],[59.3,19826],[59.3,19909],[59.3,19993],[59.5,20078],[59.7,20159],[60.1,20242],[60.7,20327],[60.9,20410],[61.1,20494],[61.8,20576],[63.3,20659],[64.2,20743],[65.3,20826],[66.5,20911],[67.6,20992],[68.1,21077],[68.3,21159],[68.5,21242],[68.8,21326],[68.9,21408],[68.9,21492],[68.9,21575],[68.9,21658],[68.9,21742],[68.9,21825],[68.9,21908],[68.9,21992],[68.9,22075],[68.9,22159],[68.9,22241],[68.9,22325],[68.9,22408],[68.9,22491],[68.9,22574],[68.9,22658],[68.9,22741],[68.9,22825],[68.9,22908],[68.9,22991],[68.9,23075],[68.9,23158],[68.9,23241],[68.9,23324],[68.9,23407],[68.9,23491],[68.9,23574],[68.9,23658],[68.9,23741],[68.9,23824],[68.9,23908],[68.9,23991],[68.9,24074],[68.9,24157],[68.9,24241],[68.9,24324],[68.9,24407],[68.9,24491],[68.9,24574],[68.9,24657],[68.9,24740],[68.9,24825],[68.9,24907],[68.9,24991],[68.9,25074],[68.9,25157],[68.9,25241],[68.9,25325],[68.9,25407],[68.9,25490],[68.9,25574],[68.9,25657],[68.9,25740],[68.9,25823],[68.9,25907],[68.9,25990],[68.9,26073],[68.9,26157],[68.9,26240],[68.9,26324],[68.9,26407],[68.9,26490],[68.9,26574],[68.9,26657],[68.9,26740],[68.9,26823],[68.9,26906],[68.9,26990],[68.9,27073],[68.9,27156],[68.9,27240],[68.9,27323],[68.9,27406],[68.9,27490],[68.9,27573],[68.9,27656],[68.9,27740],[68.9,27822],[68.9,27906],[68.9,27989],[68.9,28072],[68.9,28156],[68.9,28240],[68.9,28323],[68.9,28407],[68.9,28489],[68.9,28573],[68.9,28656],[68.9,28739],[68.9,28822],[68.9,28906],[68.9,28989],[68.9,29072],[68.9,29156],[68.9,29240],[68.9,29322],[68.9,29406],[68.9,29489],[68.9,29572],[68.9,29656],[68.9,29739],[68.9,29822],[68.9,29906],[68.9,29989],[68.9,30073],[68.9,30155],[68.9,30239],[68.9,30322],[68.9,30405],[68.9,30489],[68.9,30572],[68.9,30655],[68.9,30738],[68.9,30821],[68.9,30905],[68.9,30988],[68.9,31072],[68.9,31155],[68.9,31238],[68.9,31321],[68.9,31405],[68.9,31488],[68.9,31571],[68.9,31655],[68.9,31739],[68.9,31822],[68.9,31905],[68.9,31988],[68.9,32071],[68.9,32154],[68.9,32238],[68.9,32321],[68.9,32404],[68.9,32488],[68.9,32571],[68.9,32654],[68.9,32738],[68.9,32821],[68.9,32904],[68.9,32988],[68.9,33072],[68.9,33155],[68.9,33238],[68.9,33321],[68.9,33404],[68.9,33487],[68.9,33571],[68.9,33654],[68.9,33737],[68.9,33821],[68.9,33904],[68.9,33987],[68.9,34071],[68.9,34154],[68.9,34237],[68.9,34321],[68.9,34405],[68.9,34488],[68.9,34570],[68.9,34654],[68.9,34737],[68.9,34820],[68.9,34904],[68.9,34987],[68.9,35070],[68.9,35153],[68.9,35237],[68.9,35321],[68.9,35404],[68.9,35487],[68.9,35570],[68.9,35653],[68.9,35737],[68.9,35820],[68.9,35903],[68.9,35987],[68.9,36070],[68.9,36153],[68.9,36236],[68.9,36320],[73.3,36404],[77.3,36487],[78.6,36570],[80.5,36654],[81.9,36737],[82.9,36820],[83.7,36903],[84.8,36988],[86,37071],[87.5,37154],[88.8,37237],[90.7,37320],[94.9,37403],[98.1,37488],[99.5,37570],[100,37653],[100,37737],[100,37820],[100,37903],[100,37986],[100,38069],[100,38152],[100,38235],[100,38319],[100,38403],[100,38485],[100,38569],[100,38652],[100,38735],[100,38819],[100,38902],[100,38986],[100,39069],[100,39152],[100,39235],[100,39319],[100,39402],[100,39485],[100,39569],[100,39652],[100,39736],[100,39819],[100,39902],[100,39985],[100,40068],[100,40152],[100,40235],[100,40318],[100,40402],[100,40485],[100,40569],[100,40651],[100,40735],[100,40818],[100,40901],[100,40985],[100,41068],[100,41151],[100,41235],[100,41318],[100,41401],[100,41485],[100,41568],[100,41651],[100,41734],[100,41817],[100,41902],[100,41984],[100,42068],[100,42151],[100,42235],[100,42318],[100,42401],[100,42484],[100,42568],[100,42650],[100,42734],[100,42817],[100,42901],[100,42984],[100,43067],[100,43151],[100,43235],[100,43317],[100,43400],[100,43484],[100,43567],[100,43651],[100,43734],[100,43817],[100,43900],[100,43984],[100,44067],[100,44152],[100,44234],[100,44317],[100,44401],[100,44484],[100,44567],[100,44650],[100,44733],[100,44817],[100,44900],[100,44984],[100,45067],[100,45150],[100,45233],[100,45317],[100,45400],[100,45483],[100,45566],[100,45649],[100,45733],[100,45817],[100,45900],[100,45983],[100,46066],[100,46149],[100,46233],[100,46317],[100,46399],[100,46482],[100,46566],[100,46649],[100,46734],[100,46816],[100,46899],[100,46982],[100,47066],[100,47150],[100,47237],[100,47319],[100,47399],[100,47482],[100,47566],[100,47649],[100,47732],[100,47816],[100,47899],[100,47982],[100,48066],[100,48149],[100,48232],[100,48315],[100,48399],[100,48482],[100,48566],[100,48649],[100,48732],[100,48815],[100,48899],[100,48982],[100,49065],[100,49148],[100,49232],[100,49315],[100,49398],[100,49481],[100,49566],[100,49648],[100,49731],[100,49816],[100,49898],[100,49982],[100,50065],[100,50148],[100,50232],[100,50315],[100,50398],[100,50481],[100,50565],[100,50648],[100,50731],[100,50815],[100,50898],[100,50981],[100,51065],[100,51148],[100,51232],[100,51314],[100,51398],[100,51481],[100,51564],[100,51648],[100,51731],[100,51814],[100,51897],[100,51981],[100,52064],[100,52147],[100,52231],[100,52314],[100,52398],[100,52481],[100,52564],[100,52647],[100,52731],[100,52814],[100,52897],[100,52980],[100,53064],[100,53147],[100,53230],[100,53314],[100,53397],[100,53481],[100,53564],[100,53647],[100,53731],[100,53813],[100,53897],[100,53980],[100,54064],[100,54149],[100,54230],[100,54313],[100,54397],[100,54480],[100,54564],[100,54646],[100,54730],[100,54813],[100,54896],[100,54980],[100,55064],[100,55146],[100,55230],[100,55313],[100,55397],[100,55480],[100,55563],[100,55646],[100,55729],[100,55813]]",1,0,495.4083,504.5548,83.54106138,7.9741,"[{""rating"":83.54106137902635,""responseTime"":7.974100000001499}]",space,8.6217,,504.5551,All the time,100,504.561,,,[],,0,10,10,10,1,audio/Narrative8Situation1.wav,audio/Narrative7Situation1.wav,audio/Narrative6Situation1.wav,audio/Narrative5Situation1.wav,5,2,2,5,,,,,,,,,,,,,,,,,,,,,,,,,,,,,,,,,,,,,,,
,,,,,,5f0151a9e5751c2a5313c45e,2024-02-08_11h02.55.765,group3.1-3.2-social-tom,2023.2.2,Linux x86_64,60.02040694,65c5074098b851296ff0b7ed,65c5165368db58f4163dfd5f,,,,,,,,,,,,,,,,,,,,,,,,,,,,,504.5617,1,audio/Narrative7Situation2.wav,507.5701,,507.5701,515.0367,"[[999,12],[999,82],[999,167],[999,249],[999,335],[999,416],[999,501],[999,583],[999,667],[999,753],[999,835],[100,1167],[100,1249],[100,1332],[100,1415],[100,1499],[100,1584],[100,1666],[100,1749],[100,1832],[100,1915],[100,1999],[100,2081],[100,2165],[100,2249],[100,2331],[100,2415],[100,2500],[100,2581],[100,2665],[100,2748],[100,2831],[100,2915],[100,2998],[100,3081],[100,3165],[100,3249],[100,3331],[100,3415],[100,3498],[100,3581],[100,3664],[100,3748],[100,3832],[100,3914],[100,3998],[100,4081],[100,4164],[100,4248],[100,4331],[100,4414],[100,4497],[100,4581],[100,4664],[100,4747],[100,4830],[100,4914],[100,4997],[100,5081],[100,5166],[100,5247],[100,5331],[100,5415],[100,5497],[100,5581],[100,5664],[100,5747],[100,5830],[100,5913],[100,5997],[100,6080],[100,6163],[100,6248],[100,6331],[100,6414],[100,6497],[100,6580],[100,6664],[100,6747],[100,6830],[100,6913],[100,6996],[100,7080],[100,7163],[100,7247],[100,7331],[100,7414]]",1,0,515.037,517.6996,99.07379374,2.1771,"[{""rating"":99.07379373798958,""responseTime"":2.1771000000014737}]",space,2.123,,517.6996,Not at all,0,517.711,,,[],,0,11,11,11,1,audio/Narrative8Situation2.wav,audio/Narrative7Situation2.wav,audio/Narrative6Situation2.wav,audio/Narrative5Situation2.wav,3,3,3,3,,,,,,,,,,,,,,,,,,,,,,,,,,,,,,,,,,,,,,,
,,,,,,5f0151a9e5751c2a5313c45e,2024-02-08_11h02.55.765,group3.1-3.2-social-tom,2023.2.2,Linux x86_64,60.02040694,65c5074098b851296ff0b7ed,65c5165368db58f4163dfd5f,,,,,,,,,,,,,,,,,,,,,,,,,,,,,517.7114,1,audio/Narrative7Situation3.wav,525.7135,,525.7137,534.9776,"[[99.3,755],[100,834],[100,1333],[100,1415],[100,1499],[100,1582],[100,1665],[100,1748],[100,1832],[100,1915],[100,1999],[100,2082],[100,2165],[100,2248],[100,2331],[100,2415],[100,2498],[100,2581],[100,2665],[100,2748],[100,2831],[100,2915],[100,2998],[100,3081],[100,3165],[100,3248],[100,3331],[100,3414],[100,3498],[100,3581],[100,3665],[100,3748],[100,3831],[100,3915],[100,3998],[100,4081],[100,4165],[100,4248],[100,4331],[100,4414],[100,4498],[100,4581],[100,4664],[100,4748],[100,4830],[100,4914],[100,4997],[100,5081],[100,5164],[100,5247],[100,5331],[100,5414],[100,5497],[100,5580],[100,5664],[100,5747],[100,5830],[100,5913],[100,5998],[100,6080],[100,6164],[100,6247],[100,6330],[100,6414],[100,6497],[100,6580],[100,6663],[100,6747],[100,6831],[100,6913],[100,6997],[100,7080],[100,7163],[100,7247],[100,7330],[100,7414],[100,7497],[100,7580],[100,7663],[100,7746],[100,7830],[100,7913],[100,7996],[100,8080],[100,8163],[100,8246],[100,8330],[100,8414],[100,8497],[100,8580],[100,8663],[100,8746],[100,8829],[100,8913],[100,8996],[100,9079],[100,9163],[100,9246]]",1,0,534.9779,537.8262,99.21193158,2.5472,"[{""rating"":99.21193157771322,""responseTime"":2.547200000001112}]",space,2.3056,,537.8264,All the time,100,537.8371,,,[],,0,12,12,12,1,audio/Narrative8Situation3.wav,audio/Narrative7Situation3.wav,audio/Narrative6Situation3.wav,audio/Narrative5Situation3.wav,4,8,5,3,,,,,,,,,,,,,,,,,,,,,,,,,,,,,,,,,,,,,,,
,,,,,,5f0151a9e5751c2a5313c45e,2024-02-08_11h02.55.765,group3.1-3.2-social-tom,2023.2.2,Linux x86_64,60.02040694,65c5074098b851296ff0b7ed,65c5165368db58f4163dfd5f,,,,,,,,,,,,,,,,,,,,,,,,,,,,,537.8376,1,audio/Narrative7Situation4.wav,540.8411,,540.8412,552.5544,"[[100,4166],[100,4248],[100,4332],[100,4415],[100,4498],[100,4582],[100,4664],[100,4749],[100,4831],[100,4915],[100,4998],[100,5082],[100,5165],[100,5247],[100,5331],[100,5414],[100,5498],[100,5581],[100,5665],[100,5747],[100,5830],[100,5916],[100,5997],[100,6081],[100,6164],[100,6248],[100,6330],[100,6414],[100,6498],[100,6580],[100,6664],[100,6747],[100,6830],[100,6914],[100,6997],[100,7080],[100,7164],[100,7247],[100,7330],[100,7413],[100,7497],[100,7580],[100,7664],[100,7746],[100,7830],[100,7913],[100,7997],[100,8080],[100,8163],[100,8247],[100,8330],[100,8413],[100,8496],[100,8580],[100,8663],[100,8746],[100,8829],[100,8915],[100,8996],[100,9080],[100,9163],[100,9246],[100,9329],[100,9413],[100,9496],[100,9580],[100,9663],[100,9746],[100,9829],[100,9912],[100,9997],[100,10079],[100,10164],[100,10246],[100,10330],[100,10415],[100,10497],[100,10579],[100,10662],[100,10745],[100,10829],[100,10912],[100,10995],[100,11079],[100,11162],[100,11246],[100,11330],[100,11412],[100,11496],[100,11579],[100,11662]]",1,0,552.5547,556.5689,99.22756122,2.411,"[{""rating"":99.22756122460652,""responseTime"":2.411000000000058}]",space,3.4847,,556.569,Not at all,0,568.3491,0.009034633,9.1944,"[{""rating"":0.009034632938326181,""responseTime"":9.194399999998495}]",space,0,13,13,13,1,audio/Narrative8Situation4.wav,audio/Narrative7Situation4.wav,audio/Narrative6Situation4.wav,audio/Narrative5Situation4.wav,3,3,2,1,,,11.2343,,,,,,,,,,,,,,,,,,,,,,,,,,,,,,,,,,,,
,,,,,,5f0151a9e5751c2a5313c45e,2024-02-08_11h02.55.765,group3.1-3.2-social-tom,2023.2.2,Linux x86_64,60.02040694,65c5074098b851296ff0b7ed,65c5165368db58f4163dfd5f,,,,,,,,,,,,,,,,,,,,,,,,,,,,,568.3503,1,audio/Narrative7Situation5.wav,573.3639,,573.3639,581.8486,"[[999,13],[999,82],[999,168],[999,249],[999,333],[999,416],[999,499],[999,587],[999,669],[999,749],[999,832],[999,916],[999,1002],[999,1087],[999,1171],[999,1253],[999,1337],[100,1421],[100,1499],[100,1587],[100,1667],[100,1749],[100,1837],[100,1918],[100,2003],[100,2086],[100,2169],[100,2253],[100,2334],[100,2418],[100,2498],[100,2585],[100,2668],[100,2749],[100,2834],[100,2915],[100,2998],[100,3081],[100,3165],[100,3248],[100,3331],[100,3417],[100,3498],[100,3583],[100,3664],[100,3748],[100,3831],[100,3914],[100,3998],[100,4081],[100,4164],[100,4248],[100,4331],[100,4414],[100,4498],[100,4584],[100,4664],[100,4748],[100,4830],[100,4914],[100,4997],[100,5083],[100,5164],[100,5250],[100,5333],[100,5418],[100,5501],[100,5584],[100,5663],[100,5747],[100,5830],[100,5913],[100,5997],[100,6081],[100,6163],[100,6250],[100,6330],[100,6415],[100,6497],[100,6583],[100,6663],[100,6750],[100,6830],[100,6916],[100,7000],[100,7080],[100,7166],[100,7246],[100,7333],[100,7414],[100,7496],[100,7583],[100,7663],[100,7746],[100,7829],[100,7913],[100,7996],[100,8079],[100,8162],[100,8247],[100,8329],[100,8416]]",1,0,581.8489,585.1295,99.29636205,2.8061,"[{""rating"":99.29636205447017,""responseTime"":2.806100000001493}]",space,2.7415,,585.1297,All the time,100,585.1388,,,[],,0,14,14,14,1,audio/Narrative8Situation5.wav,audio/Narrative7Situation5.wav,audio/Narrative6Situation5.wav,audio/Narrative5Situation5.wav,2,5,2,5,,,,,,,,,,,,,,,,,,,,,,,,,,,,,,,,,,,,,,,
,,,,,,5f0151a9e5751c2a5313c45e,2024-02-08_11h02.55.765,group3.1-3.2-social-tom,2023.2.2,Linux x86_64,60.02040694,65c5074098b851296ff0b7ed,65c5165368db58f4163dfd5f,,,,,,,,,,,,,,,,,,,,,,,,,,,,,585.1395,1,audio/Narrative7Situation6.wav,588.1419,,588.142,598.1215,"[[100,1753],[100,1999],[100,2082],[100,2169],[100,2252],[100,2331],[100,2419],[100,2498],[100,2581],[100,2665],[100,2748],[100,2835],[100,2915],[100,2998],[100,3081],[100,3165],[100,3248],[100,3331],[100,3418],[100,3500],[100,3581],[100,3666],[100,3752],[100,3834],[100,3919],[100,3997],[100,4081],[100,4163],[100,4247],[100,4330],[100,4414],[100,4498],[100,4581],[100,4665],[100,4747],[100,4835],[100,4916],[100,4997],[100,5081],[100,5164],[100,5247],[100,5331],[100,5413],[100,5500],[100,5581],[100,5667],[100,5747],[100,5832],[100,5913],[100,5997],[100,6080],[100,6163],[100,6250],[100,6330],[100,6413],[100,6497],[100,6580],[100,6665],[100,6746],[100,6830],[100,6913],[100,6997],[100,7080],[100,7163],[100,7250],[100,7330],[100,7413],[100,7496],[100,7581],[100,7663],[100,7747],[100,7834],[100,7916],[100,7996],[100,8083],[100,8163],[100,8250],[100,8329],[100,8413],[100,8496],[100,8579],[100,8662],[100,8746],[100,8832],[100,8912],[100,8996],[100,9079],[100,9162],[100,9246],[100,9329],[100,9415],[100,9495],[100,9579],[100,9662],[100,9746],[100,9829],[100,9916]]",1,0,598.1219,600.9871,99.72799589,2.3867,"[{""rating"":99.72799588785688,""responseTime"":2.386699999999337}]",space,2.3172,,600.9872,Not at all,0,600.9971,,,[],,0,15,15,15,1,audio/Narrative8Situation6.wav,audio/Narrative7Situation6.wav,audio/Narrative6Situation6.wav,audio/Narrative5Situation6.wav,2,3,2,3,,,,,,,,,,,,,,,,,,,,,,,,,,,,,,,,,,,,,,,
,,,,,,5f0151a9e5751c2a5313c45e,2024-02-08_11h02.55.765,group3.1-3.2-social-tom,2023.2.2,Linux x86_64,60.02040694,65c5074098b851296ff0b7ed,65c5165368db58f4163dfd5f,,,,,,,,,,,,,,,,,,,,,,,,,,,,,600.9975,1,audio/Narrative7Situation7.wav,606.0024,,606.0026,623.183,"[[99.5,1499],[99.8,1920],[100,1999],[100,2083],[100,2170],[100,2248],[100,2331],[100,2415],[100,2497],[100,2585],[100,2665],[100,2747],[100,2834],[100,2915],[100,2998],[100,3085],[100,3164],[100,3248],[100,3331],[100,3414],[100,3497],[100,3580],[100,3664],[100,3747],[100,3832],[100,3914],[100,4000],[100,4080],[100,4164],[100,4247],[100,4330],[100,4413],[100,4500],[100,4583],[100,4664],[100,4747],[100,4832],[100,4913],[100,4999],[100,5081],[100,5168],[100,5250],[100,5333],[100,5418],[100,5500],[100,5583],[100,5663],[100,5749],[100,5833],[100,5918],[100,5998],[100,6080],[100,6163],[100,6246],[100,6329],[100,6413],[100,6500],[100,6580],[100,6663],[100,6746],[100,6829],[100,6916],[100,6999],[100,7084],[100,7163],[100,7249],[100,7329],[100,7413],[100,7496],[100,7579],[100,7663],[100,7746],[100,7829],[100,7915],[100,7996],[100,8079],[100,8163],[100,8245],[100,8333],[100,8413],[100,8495],[100,8582],[100,8662],[100,8746],[100,8829],[100,8916],[100,8998],[100,9082],[100,9162],[100,9246],[100,9329],[100,9415],[100,9499],[100,9582],[100,9665],[100,9745],[100,9829],[100,9912],[100,10000],[100,10079],[100,10165],[100,10249],[100,10331],[100,10415],[100,10495],[100,10578],[100,10664],[100,10745],[100,10828],[100,10911],[100,10995],[100,11078],[100,11161],[100,11245],[100,11328],[100,11411],[100,11499],[100,11581],[100,11664],[100,11744],[100,11832],[100,11911],[100,11994],[100,12078],[100,12161],[100,12244],[100,12327],[100,12414],[100,12494],[100,12581],[100,12661],[100,12745],[100,12827],[100,12914],[100,12995],[100,13077],[100,13165],[100,13247],[100,13330],[100,13411],[100,13497],[100,13581],[100,13663]]",1,0,623.1833,627.4439,99.15611524,2.9872,"[{""rating"":99.15611524009425,""responseTime"":2.987199999999234}]",space,3.7181,,627.4439,Half the time,50,627.4563,,,[],,0,16,16,16,1,audio/Narrative8Situation7.wav,audio/Narrative7Situation7.wav,audio/Narrative6Situation7.wav,audio/Narrative5Situation7.wav,3,5,5,4,,,,,,,,,,,,,,,,,,,,,,,,,,,,,,,,,,,,,,,
,,,,,,5f0151a9e5751c2a5313c45e,2024-02-08_11h02.55.765,group3.1-3.2-social-tom,2023.2.2,Linux x86_64,60.02040694,65c5074098b851296ff0b7ed,65c5165368db58f4163dfd5f,,,,,,,,,,,,,,,,,,,,,,,,,,,,,627.4568,1,audio/Narrative7Situation8.wav,629.4596,,629.4612,639.4902,"[[99.6,582],[100,666],[100,748],[100,832],[100,915],[100,998],[100,1081],[100,1164],[100,1249],[100,1330],[100,1414],[100,1497],[100,1580],[100,1664],[100,1747],[100,1830],[100,1914],[100,1997],[100,2080],[100,2163],[100,2247],[100,2330],[100,2413],[100,2497],[100,2580],[100,2663],[100,2747],[100,2830],[100,2913],[100,2997],[100,3080],[100,3163],[100,3246],[100,3330],[100,3413],[100,3496],[100,3581],[100,3663],[100,3746],[100,3830],[100,3913],[100,3996],[100,4079],[100,4163],[100,4246],[100,4329],[100,4412],[100,4496],[100,4579],[100,4662],[100,4746],[100,4829],[100,4912],[100,4996],[100,5079],[100,5163],[100,5246],[100,5329],[100,5412],[100,5495],[100,5579],[100,5662],[100,5746],[100,5829],[100,5912],[100,5996],[100,6079],[100,6162],[100,6245],[100,6329],[100,6412],[100,6496],[100,6579],[100,6662],[100,6745],[100,6828],[100,6912],[100,6995],[100,7078],[100,7162],[100,7245],[100,7329],[100,7414],[100,7495],[100,7578],[100,7662],[100,7745],[100,7828],[100,7911],[100,7995],[100,8078],[100,8162],[100,8245],[100,8328],[100,8412],[100,8495],[100,8578],[100,8661],[100,8744],[100,8828],[100,8911],[100,8994],[100,9078],[100,9161],[100,9244],[100,9328],[100,9411],[100,9494],[100,9577],[100,9661],[100,9744],[100,9827],[100,9911],[100,9994]]",1,0,639.4908,641.4385,99.08617056,1.6922,"[{""rating"":99.08617055957174,""responseTime"":1.692199999999275}]",space,1.4074,,641.4386,Not at all,0,641.4496,,,[],,0,17,17,17,1,audio/Narrative8Situation8.wav,audio/Narrative7Situation8.wav,audio/Narrative6Situation8.wav,audio/Narrative5Situation8.wav,3,2,5,3,,,,,,,,,,,,,,,,,,,,,,,,,,,,,,,,,,,,,,,
,,,,,,5f0151a9e5751c2a5313c45e,2024-02-08_11h02.55.765,group3.1-3.2-social-tom,2023.2.2,Linux x86_64,60.02040694,65c5074098b851296ff0b7ed,65c5165368db58f4163dfd5f,,,,,,,,,,,,,,,,,,,,,,,,,,,,,641.4505,1,audio/Narrative7Situation9.wav,643.4548,,643.4549,652.0847,[],1,0,652.0854,654.2673,99.82295337,1.8136,"[{""rating"":99.82295336520863,""responseTime"":1.8136000000014292}]",space,1.6417,,654.2674,All the time,100,654.2799,,,[],,0,18,18,18,1,audio/Narrative8Situation9.wav,audio/Narrative7Situation9.wav,audio/Narrative6Situation9.wav,audio/Narrative5Situation9.wav,3,2,4,3,,,,,,,,,,,,,,,,,,,,,,,,,,,,,,,,,,,,,,,
,,,,,,5f0151a9e5751c2a5313c45e,2024-02-08_11h02.55.765,group3.1-3.2-social-tom,2023.2.2,Linux x86_64,60.02040694,65c5074098b851296ff0b7ed,65c5165368db58f4163dfd5f,,,,,,,,,,,,,,,,,,,,,,,,,,,676.2229,678.792,678.8186,2,audio/Narrative13Situation2.wav,678.8188,,678.8188,708.5657,"[[86.2,2489],[59.4,2905],[57.6,2988],[55.6,3073],[52.4,3156],[51.3,3238],[51.2,3322],[51,3405],[50.8,3488],[50.6,3571],[50.4,3655],[50.4,3738],[50.4,3821],[50.3,3905],[50.3,3988],[50.2,4071],[50.2,4155],[50.2,4237],[50.2,4321],[50.2,4404],[50.2,4488],[50.2,4570],[50.2,4654],[50.2,4737],[50.2,4820],[50.2,4904],[50.2,4987],[50.2,5070],[50.2,5154],[50.2,5237],[50.2,5321],[50.2,5404],[50.2,5487],[50.2,5570],[50.2,5653],[50.2,5737],[50.2,5821],[50.2,5903],[50.2,5987],[50.2,6070],[50.2,6153],[50.2,6237],[50.2,6320],[50.2,6403],[50.2,6486],[50.2,6570],[50.2,6654],[50.2,6736],[50.2,6820],[50.2,6903],[50.2,6986],[50.2,7070],[50.2,7153],[50.2,7236],[50.2,7320],[50.2,7403],[50.2,7486],[50.2,7569],[50.2,7653],[50.2,7736],[50.2,7819],[50.2,7903],[50.2,7987],[50.2,8069],[50.2,8153],[50.2,8236],[50.2,8319],[50.2,8403],[50.2,8486],[50.2,8569],[50.2,8652],[50.2,8736],[50.2,8820],[50.2,8903],[50.2,8985],[50.2,9069],[50.2,9152],[50.2,9236],[50.2,9319],[50.2,9402],[50.2,9485],[50.2,9569],[50.2,9652],[50.2,9736],[50.2,9819],[50.2,9902],[50.2,9985],[50.2,10070],[50.2,10153],[50.2,10235],[50.2,10318],[50.2,10402],[50.2,10485],[50.2,10568],[50.2,10652],[50.2,10735],[50.2,10818],[50.2,10901],[50.2,10985],[50.2,11068],[50.2,11152],[50.2,11235],[50.2,11318],[50.2,11401],[50.2,11485],[50.2,11568],[50.2,11651],[50.2,11735],[50.2,11818],[50.2,11901],[50.2,11985],[50.2,12068],[50.2,12151],[50.2,12235],[50.2,12318],[50.2,12401],[50.2,12485],[50.2,12568],[50.2,12651],[50.2,12734],[50.2,12818],[50.2,12901],[50.2,12984],[50.2,13067],[50.2,13151],[50.2,13235],[50.2,13317],[50.2,13401],[50.2,13485],[50.2,13567],[50.2,13651],[50.2,13734],[50.2,13817],[50.2,13901],[50.2,13984],[50.2,14067],[50.2,14151],[50.2,14234],[50.2,14317],[50.2,14401],[50.2,14484],[50.2,14567],[50.2,14650],[50.2,14734],[50.2,14817],[50.2,14901],[50.2,14986],[50.2,15067],[50.2,15150],[50.2,15233],[50.2,15317],[50.2,15400],[50.2,15483],[50.2,15566],[50.2,15650],[50.2,15733],[50.2,15817],[50.2,15900],[50.2,15983],[50.2,16067],[50.2,16150],[50.2,16234],[50.2,16317],[50.2,16400],[50.2,16483],[50.2,16566],[50.2,16649],[50.2,16734],[50.2,16816],[50.2,16899],[50.2,16983],[50.2,17066],[50.2,17150],[50.2,17233],[50.2,17316],[50.2,17400],[50.2,17483],[50.2,17566],[50.2,17649],[50.2,17732],[50.2,17816],[50.2,17899],[50.2,17982],[50.2,18067],[50.2,18149],[50.2,18232],[50.2,18316],[50.2,18399],[50.2,18483],[50.2,18566],[50.2,18649],[50.2,18733],[50.2,18815],[50.2,18899],[50.2,18982],[50.2,19065],[50.2,19149],[50.2,19232],[54.9,19315],[59.3,19400],[62.6,19485],[63.6,19567],[66.5,19649],[75.6,19732],[78.1,19816],[79.8,19899],[79.8,19982],[79.8,20065],[79.8,20149],[79.8,20232],[79.8,20315],[79.8,20399],[79.8,20482],[79.8,20565],[79.8,20648],[79.8,20731],[79.8,20815],[79.8,20898],[79.8,20981],[79.8,21064],[79.8,21149],[79.8,21231],[79.8,21315],[79.8,21398],[79.8,21481],[79.8,21565],[80.2,21649],[81.3,21732],[81.8,21815],[81.9,21898],[82.1,21982],[82.3,22065],[82.5,22148],[82.7,22231],[83.7,22315],[84.9,22398],[85.4,22481],[86,22565],[87.4,22648],[87.9,22732],[88,22816],[88.2,22898],[88.2,22981],[88.2,23064],[88.2,23147],[88.2,23230],[88.2,23314],[88.2,23397],[88.3,23481],[88.7,23565],[89.9,23648],[90.2,23731],[90.3,23814],[90.3,23897],[90.3,23980],[90.3,24063],[90.3,24147],[90.3,24230],[90.3,24313],[90.3,24397],[90.3,24480],[90.3,24564],[90.9,24648],[91.5,24731],[91.7,24814],[91.9,24897],[92,24981],[93.1,25065],[95.1,25147],[95.4,25231],[95.5,25313],[95.5,25396],[95.6,25481],[97.3,25564],[98.5,25648],[99.1,25730],[99.7,25814],[100,25898],[100,25981],[100,26063],[100,26146],[100,26229],[100,26313],[100,26396],[100,26480],[100,26563],[100,26646],[100,26729],[100,26813],[100,26896],[100,26979],[100,27062],[100,27146],[100,27230],[100,27314],[100,27396],[100,27479],[100,27562],[100,27646],[100,27729],[100,27812],[100,27895],[100,27979],[100,28062],[100,28146],[100,28229],[100,28312],[100,28395],[100,28479],[100,28562],[100,28645],[100,28729],[100,28812],[100,28895],[100,28979],[100,29062],[100,29145],[100,29228],[100,29312],[100,29395],[100,29478],[100,29562],[100,29645],[100,29728]]",1,0,708.5663,708.583,,,[],,,,708.5831,Not at all,0,708.5932,,,[],,0,0,0,0,1,audio/Narrative13Situation2.wav,audio/Narrative13Situation2.wav,audio/Narrative13Situation2.wav,audio/Narrative13Situation2.wav,2,2,2,2,,,,,654.2812,676.2104,space,21.413,,,,,,,,,,,,,,,,,,,,,,,,,,,,,,,
,,,,,,5f0151a9e5751c2a5313c45e,2024-02-08_11h02.55.765,group3.1-3.2-social-tom,2023.2.2,Linux x86_64,60.02040694,65c5074098b851296ff0b7ed,65c5165368db58f4163dfd5f,,,,,,,,,,,,,,,,,,,,,,,,,,,,,708.5938,2,audio/Narrative6Situation1.wav,710.5969,,710.597,737.188,"[[59.6,1999],[57.6,2083],[57.3,2165],[57.3,2249],[57.3,2332],[57.3,2416],[49.8,2499],[48.6,2583],[48.2,2665],[48,2750],[47.9,2832],[47.9,2915],[48.6,3000],[49.3,3082],[49.4,3165],[49.4,3249],[49.4,3335],[49.4,3416],[49.4,3499],[49.4,3582],[49.4,3665],[49.4,3748],[49.4,3831],[49.4,3915],[49.4,3998],[49.4,4081],[49.4,4165],[49.4,4248],[49.4,4335],[49.4,4415],[49.4,4498],[49.4,4582],[49.4,4665],[49.4,4748],[49.4,4831],[49.4,4914],[49.4,4999],[49.4,5081],[49.4,5165],[49.4,5248],[49.4,5331],[49.4,5414],[49.4,5498],[49.4,5581],[49.4,5664],[49.4,5747],[49.4,5831],[49.4,5915],[49.4,6004],[50.1,6082],[52.6,6165],[54.7,6247],[57.8,6332],[59.7,6415],[60.5,6498],[60.6,6581],[60.6,6664],[60.6,6747],[60.6,6831],[60.6,6914],[64.4,6999],[65.4,7081],[66.2,7164],[66.7,7248],[67.4,7332],[70.5,7419],[73.1,7502],[74.4,7589],[74.6,7664],[74.6,7747],[74.6,7830],[74.6,7914],[74.6,7996],[74.6,8080],[74.6,8164],[74.6,8247],[74.6,8330],[74.6,8413],[74.6,8498],[74.6,8580],[74.6,8663],[74.6,8746],[74.6,8830],[74.6,8914],[75.1,8997],[75.6,9081],[76.1,9163],[76.5,9247],[76.8,9330],[77,9414],[77.2,9497],[77.4,9581],[77.5,9665],[77.5,9746],[77.5,9830],[77.5,9913],[77.5,9996],[77.5,10079],[77.6,10162],[77.6,10246],[77.6,10330],[77.6,10412],[77.6,10496],[77.6,10579],[77.6,10663],[77.6,10746],[77.6,10829],[77.6,10912],[77.6,10995],[77.6,11079],[77.6,11163],[77.6,11245],[77.6,11329],[78.2,11413],[78.9,11496],[79.1,11580],[79.1,11662],[79.2,11746],[80.5,11829],[83.2,11912],[84.1,11997],[84.6,12080],[86.2,12164],[93.4,12246],[95.4,12330],[95.4,12412],[95.4,12495],[95.4,12578],[95.4,12662],[95.4,12745],[95.4,12828],[95.4,12912],[95.8,12995],[100,13078],[100,13163],[100,13245],[100,13331],[100,13411],[100,13495],[100,13578],[100,13661],[100,13745],[100,13828],[100,13911],[100,13995],[100,14077],[100,14161],[100,14245],[100,14328],[100,14411],[100,14495],[100,14577],[100,14661],[100,14745],[100,14827],[100,14911],[100,14994],[100,15078],[100,15161],[100,15244],[100,15327],[100,15411],[100,15494],[100,15577],[100,15661],[100,15744],[100,15827],[100,15911],[100,15994],[100,16077],[100,16161],[100,16244],[100,16328],[100,16410],[100,16494],[100,16577],[100,16660],[100,16744],[100,16827],[100,16910],[100,16994],[100,17077],[100,17160],[100,17245],[100,17329],[100,17410],[100,17493],[100,17576],[100,17661],[100,17743],[100,17827],[100,17910],[100,17993],[100,18077],[100,18160],[100,18243],[100,18327],[100,18409],[100,18493],[100,18577],[100,18660],[100,18744],[100,18827],[100,18910],[100,18992],[100,19076],[100,19160],[100,19243],[100,19327],[100,19411],[100,19492],[100,19576],[100,19659],[100,19742],[100,19826],[100,19910],[100,19992],[100,20076],[100,20159],[100,20242],[100,20327],[100,20409],[100,20492],[100,20575],[100,20659],[100,20742],[100,20825],[100,20909],[100,20992],[100,21075],[100,21159],[100,21242],[100,21325],[100,21409],[100,21493],[100,21576],[100,21659],[100,21742],[100,21826],[100,21908],[100,21991],[100,22075],[100,22158],[100,22242],[100,22329],[100,22408],[100,22492],[100,22575],[100,22658],[100,22741],[100,22825],[100,22908],[100,22991],[100,23075],[100,23158],[100,23242],[100,23324],[100,23408],[100,23491],[100,23575],[100,23658],[100,23741],[100,23825],[100,23908],[100,23991],[100,24075],[100,24157],[100,24241],[100,24324],[100,24408],[100,24491],[100,24575],[100,24657],[100,24742],[100,24824],[100,24909],[100,24991],[100,25074],[100,25158],[100,25241],[100,25324],[100,25407],[100,25490],[100,25574],[100,25657],[100,25740],[100,25824],[100,25907],[100,25991],[100,26073],[100,26157],[100,26240],[100,26323],[100,26407],[100,26490],[100,26573]]",1,0,737.1886,742.1859,99.3354317,4.5158,"[{""rating"":99.33543170353678,""responseTime"":4.515799999998876}]",space,4.4745,,742.1861,Half the time,50,742.1994,,,[],,0,1,1,1,1,audio/Narrative7Situation1.wav,audio/Narrative8Situation1.wav,audio/Narrative5Situation1.wav,audio/Narrative6Situation1.wav,2,5,5,2,,,,,,,,,,,,,,,,,,,,,,,,,,,,,,,,,,,,,,,
,,,,,,5f0151a9e5751c2a5313c45e,2024-02-08_11h02.55.765,group3.1-3.2-social-tom,2023.2.2,Linux x86_64,60.02040694,65c5074098b851296ff0b7ed,65c5165368db58f4163dfd5f,,,,,,,,,,,,,,,,,,,,,,,,,,,,,742.1999,2,audio/Narrative6Situation2.wav,745.2013,,745.2014,773.7084,"[[100,918],[98.6,1001],[80.8,1167],[75.4,1250],[96.4,1583],[99.8,1666],[100,1751],[100,1833],[100,1917],[100,2001],[100,2082],[100,2165],[100,2249],[100,2332],[100,2416],[100,2498],[100,2582],[100,2665],[100,2748],[100,2832],[100,2916],[100,2998],[100,3081],[100,3165],[100,3248],[100,3332],[100,3416],[100,3498],[100,3581],[100,3665],[100,3749],[100,3832],[100,3915],[100,3998],[100,4081],[100,4165],[100,4248],[100,4331],[100,4416],[100,4498],[100,4581],[100,4665],[100,4748],[100,4831],[100,4914],[100,4998],[100,5082],[100,5164],[100,5248],[100,5331],[100,5415],[100,5498],[100,5581],[100,5667],[100,5747],[100,5831],[100,5914],[100,5997],[100,6080],[100,6164],[100,6247],[100,6331],[100,6414],[100,6497],[100,6580],[100,6664],[100,6747],[100,6831],[100,6914],[100,6997],[100,7081],[100,7170],[100,7248],[100,7330],[100,7413],[100,7497],[100,7580],[100,7664],[100,7747],[100,7830],[100,7913],[100,7997],[100,8080],[100,8164],[100,8247],[100,8330],[100,8413],[100,8497],[100,8580],[100,8663],[100,8746],[100,8829],[100,8913],[100,8996],[100,9079],[100,9163],[100,9246],[100,9329],[100,9413],[100,9496],[100,9579],[100,9663],[100,9746],[100,9829],[100,9913],[100,9996],[100,10079],[100,10162],[100,10246],[100,10330],[100,10412],[100,10496],[100,10579],[100,10662],[100,10746],[100,10829],[100,10912],[100,10996],[100,11079],[100,11162],[100,11245],[100,11329],[100,11413],[100,11495],[100,11579],[100,11662],[100,11745],[100,11829],[100,11912],[100,11995],[100,12079],[100,12162],[100,12246],[100,12329],[100,12412],[100,12495],[100,12579],[100,12664],[100,12745],[100,12828],[100,12911],[100,12995],[100,13078],[100,13161],[100,13245],[100,13329],[100,13411],[100,13495],[100,13578],[100,13661],[100,13745],[100,13828],[100,13911],[100,13995],[100,14077],[100,14161],[100,14245],[100,14328],[100,14411],[100,14494],[100,14578],[100,14668],[100,14745],[100,14828],[100,14911],[100,14994],[100,15077],[100,15161],[100,15244],[100,15327],[100,15411],[100,15494],[100,15577],[100,15661],[100,15744],[100,15828],[100,15910],[100,15993],[100,16077],[100,16160],[100,16244],[100,16327],[100,16410],[100,16494],[100,16577],[100,16660],[100,16744],[100,16827],[100,16910],[100,16993],[100,17077],[100,17160],[100,17244],[100,17327],[100,17410],[100,17493],[100,17577],[100,17660],[100,17744],[100,17826],[100,17909],[100,17995],[100,18077],[100,18159],[100,18248],[100,18326],[100,18409],[100,18494],[100,18577],[100,18660],[100,18743],[100,18826],[100,18909],[100,18993],[100,19077],[100,19159],[100,19242],[100,19326],[100,19409],[100,19493],[100,19577],[100,19659],[100,19742],[100,19826],[100,19909],[100,19993],[100,20076],[100,20160],[100,20242],[100,20326],[100,20410],[100,20492],[100,20575],[100,20659],[100,20742],[100,20826],[100,20909],[100,20992],[100,21075],[100,21158],[100,21242],[100,21325],[100,21408],[100,21492],[100,21576],[100,21658],[100,21742],[100,21825],[100,21908],[100,21992],[100,22075],[100,22159],[100,22241],[100,22325],[100,22408],[100,22491],[100,22577],[100,22658],[100,22742],[100,22825],[100,22908],[100,22992],[100,23075],[100,23158],[100,23241],[100,23324],[100,23408],[100,23491],[100,23574],[100,23658],[100,23741],[100,23824],[100,23908],[100,23991],[100,24074],[100,24157],[100,24241],[100,24325],[100,24407],[100,24492],[100,24574],[100,24657],[100,24741],[100,24824],[100,24907],[100,24992],[100,25074],[100,25157],[100,25240],[100,25324],[100,25407],[100,25490],[100,25573],[100,25658],[100,25740],[100,25823],[100,25907],[100,25990],[100,26074],[100,26157],[100,26240],[100,26323],[100,26407],[100,26490],[100,26573],[100,26656],[100,26741],[100,26823],[100,26907],[100,26990],[100,27073],[100,27156],[100,27240],[100,27323],[100,27407],[100,27490],[100,27573],[100,27656],[100,27740],[100,27824],[100,27907],[100,27989],[100,28075],[100,28157],[100,28239],[100,28323],[100,28406],[100,28489]]",1,0,773.7089,776.0413,99.88379192,1.9027,"[{""rating"":99.88379192212665,""responseTime"":1.9026999999992995}]",space,1.7995,,776.0414,All the time,100,776.0525,,,[],,0,2,2,2,1,audio/Narrative7Situation2.wav,audio/Narrative8Situation2.wav,audio/Narrative5Situation2.wav,audio/Narrative6Situation2.wav,3,3,3,3,,,,,,,,,,,,,,,,,,,,,,,,,,,,,,,,,,,,,,,
,,,,,,5f0151a9e5751c2a5313c45e,2024-02-08_11h02.55.765,group3.1-3.2-social-tom,2023.2.2,Linux x86_64,60.02040694,65c5074098b851296ff0b7ed,65c5165368db58f4163dfd5f,,,,,,,,,,,,,,,,,,,,,,,,,,,,,776.0537,2,audio/Narrative6Situation3.wav,781.0564,,781.0565,793.6845,"[[100,1082],[100,1165],[100,1249],[100,1333],[100,1415],[100,1498],[100,1581],[100,1665],[100,1747],[100,1831],[100,1915],[100,1997],[100,2081],[100,2165],[100,2247],[100,2331],[100,2414],[100,2497],[100,2581],[100,2664],[100,2747],[100,2830],[100,2914],[100,2997],[100,3080],[100,3164],[100,3248],[100,3330],[100,3414],[100,3497],[100,3580],[100,3665],[100,3747],[100,3831],[100,3913],[100,3997],[100,4080],[100,4163],[100,4247],[100,4331],[100,4413],[100,4496],[100,4580],[100,4663],[100,4747],[100,4830],[100,4913],[100,4996],[100,5080],[100,5163],[100,5246],[100,5329],[100,5414],[100,5496],[100,5579],[100,5663],[100,5746],[100,5830],[100,5913],[100,5996],[100,6080],[100,6163],[100,6246],[100,6329],[100,6412],[100,6496],[100,6579],[100,6663],[100,6746],[100,6829],[100,6913],[100,6997],[100,7079],[100,7162],[100,7246],[100,7329],[100,7412],[100,7495],[100,7580],[100,7662],[100,7745],[100,7829],[100,7912],[100,7995],[100,8079],[100,8162],[100,8246],[100,8329],[100,8413],[100,8496],[100,8579],[100,8662],[100,8745],[100,8829],[100,8912],[100,8995],[100,9079],[100,9162],[100,9245],[100,9328],[100,9411],[100,9495],[100,9579],[100,9662],[100,9745],[100,9828],[100,9911],[100,9995],[100,10078],[100,10161],[100,10245],[100,10328],[100,10413],[100,10494],[100,10578],[100,10661],[100,10744],[100,10828],[100,10911],[100,10994],[100,11078],[100,11161],[100,11244],[100,11328],[100,11411],[100,11494],[100,11577],[100,11661],[100,11744],[100,11827],[100,11911],[100,11994],[100,12077],[100,12161],[100,12244],[100,12327],[100,12411],[100,12494],[100,12577]]",1,0,793.6865,796.4333,99.78021982,1.5731,"[{""rating"":99.78021981950036,""responseTime"":1.5731000000015456}]",space,2.2061,,796.4334,All the time,100,796.4405,,,[],,0,3,3,3,1,audio/Narrative7Situation3.wav,audio/Narrative8Situation3.wav,audio/Narrative5Situation3.wav,audio/Narrative6Situation3.wav,8,4,3,5,,,,,,,,,,,,,,,,,,,,,,,,,,,,,,,,,,,,,,,
,,,,,,5f0151a9e5751c2a5313c45e,2024-02-08_11h02.55.765,group3.1-3.2-social-tom,2023.2.2,Linux x86_64,60.02040694,65c5074098b851296ff0b7ed,65c5165368db58f4163dfd5f,,,,,,,,,,,,,,,,,,,,,,,,,,,,,796.4413,2,audio/Narrative6Situation4.wav,798.4489,,798.449,811.0954,"[[99.6,1583],[100,1750],[100,1833],[100,1916],[100,2000],[100,2083],[100,2166],[100,2248],[100,2332],[100,2416],[100,2499],[100,2582],[100,2665],[100,2749],[100,2832],[100,2915],[100,2999],[100,3082],[100,3165],[100,3248],[100,3331],[100,3415],[100,3499],[100,3582],[100,3668],[100,3749],[100,3832],[100,3915],[100,3998],[100,4081],[100,4165],[100,4248],[100,4331],[100,4415],[100,4499],[100,4581],[100,4664],[100,4749],[100,4831],[100,4914],[100,4998],[100,5081],[100,5164],[100,5248],[100,5331],[100,5414],[100,5498],[100,5581],[100,5664],[100,5749],[100,5831],[100,5914],[100,5997],[100,6081],[100,6164],[100,6249],[100,6330],[100,6415],[100,6498],[100,6580],[100,6664],[100,6747],[100,6831],[100,6914],[100,6997],[100,7080],[100,7163],[100,7247],[100,7330],[100,7413],[100,7497],[100,7580],[100,7664],[100,7747],[100,7831],[100,7914],[100,7997],[100,8080],[100,8163],[100,8246],[100,8330],[100,8413],[100,8497],[100,8580],[100,8663],[100,8746],[100,8830],[100,8913],[100,8997],[100,9080],[100,9163],[100,9246],[100,9330],[100,9413],[100,9496],[100,9580],[100,9663],[100,9746],[100,9829],[100,9913],[100,9996],[100,10081],[100,10162],[100,10245],[100,10330],[100,10412],[100,10496],[100,10579],[100,10662],[100,10746],[100,10829],[100,10912],[100,10996],[100,11079],[100,11163],[100,11245],[100,11329],[100,11412],[100,11496],[100,11579],[100,11663],[100,11745],[100,11829],[100,11912],[100,11996],[100,12079],[100,12162],[100,12245],[100,12328],[100,12412],[100,12495],[100,12578]]",1,0,811.096,814.028,99.91395205,1.5035,"[{""rating"":99.91395204692076,""responseTime"":1.503500000000031}]",space,2.3996,,814.0281,All the time,100,814.0348,,,[],,0,4,4,4,1,audio/Narrative7Situation4.wav,audio/Narrative8Situation4.wav,audio/Narrative5Situation4.wav,audio/Narrative6Situation4.wav,3,3,1,2,,,,,,,,,,,,,,,,,,,,,,,,,,,,,,,,,,,,,,,
,,,,,,5f0151a9e5751c2a5313c45e,2024-02-08_11h02.55.765,group3.1-3.2-social-tom,2023.2.2,Linux x86_64,60.02040694,65c5074098b851296ff0b7ed,65c5165368db58f4163dfd5f,,,,,,,,,,,,,,,,,,,,,,,,,,,,,814.0355,2,audio/Narrative6Situation5.wav,816.0431,,816.0432,824.0071,"[[100,751],[100,835],[100,917],[100,1000],[100,1082],[100,1166],[100,1248],[100,1333],[100,1415],[100,1499],[100,1582],[100,1665],[100,1749],[100,1831],[100,1915],[100,1998],[100,2081],[100,2165],[100,2248],[100,2331],[100,2415],[100,2498],[100,2581],[100,2665],[100,2748],[100,2831],[100,2916],[100,2999],[100,3081],[100,3165],[100,3248],[100,3331],[100,3415],[100,3499],[100,3581],[100,3664],[100,3748],[100,3831],[100,3915],[100,3998],[100,4081],[100,4164],[100,4247],[100,4331],[100,4415],[100,4498],[100,4581],[100,4664],[100,4747],[100,4831],[100,4914],[100,4997],[100,5080],[100,5164],[100,5247],[100,5330],[100,5413],[100,5497],[100,5580],[100,5664],[100,5747],[100,5831],[100,5913],[100,5997],[100,6080],[100,6165],[100,6247],[100,6330],[100,6413],[100,6497],[100,6581],[100,6663],[100,6747],[100,6830],[100,6913],[100,7000],[100,7080],[100,7163],[100,7246],[100,7330],[100,7414],[100,7496],[100,7580],[100,7663],[100,7746],[100,7830],[100,7913]]",1,0,824.0075,827.2228,99.02450986,2.8262,"[{""rating"":99.02450985999268,""responseTime"":2.8261999999992895}]",space,2.6655,,827.223,Half the time,50,827.2354,,,[],,0,5,5,5,1,audio/Narrative7Situation5.wav,audio/Narrative8Situation5.wav,audio/Narrative5Situation5.wav,audio/Narrative6Situation5.wav,5,2,5,2,,,,,,,,,,,,,,,,,,,,,,,,,,,,,,,,,,,,,,,
,,,,,,5f0151a9e5751c2a5313c45e,2024-02-08_11h02.55.765,group3.1-3.2-social-tom,2023.2.2,Linux x86_64,60.02040694,65c5074098b851296ff0b7ed,65c5165368db58f4163dfd5f,,,,,,,,,,,,,,,,,,,,,,,,,,,,,827.2361,2,audio/Narrative6Situation6.wav,829.2384,,829.2385,840.3182,"[[99.3,1419]]",1,0,840.3186,842.7001,99.87397089,1.4829,"[{""rating"":99.87397089186037,""responseTime"":1.4829000000003134}]",space,1.8489,,842.7003,Half the time,50,842.7056,,,[],,0,6,6,6,1,audio/Narrative7Situation6.wav,audio/Narrative8Situation6.wav,audio/Narrative5Situation6.wav,audio/Narrative6Situation6.wav,3,2,3,2,,,,,,,,,,,,,,,,,,,,,,,,,,,,,,,,,,,,,,,
,,,,,,5f0151a9e5751c2a5313c45e,2024-02-08_11h02.55.765,group3.1-3.2-social-tom,2023.2.2,Linux x86_64,60.02040694,65c5074098b851296ff0b7ed,65c5165368db58f4163dfd5f,,,,,,,,,,,,,,,,,,,,,,,,,,,,,842.7061,2,audio/Narrative6Situation7.wav,847.7145,,847.7147,872.5729,"[[100,668],[100,753],[100,837],[100,917],[100,1000],[100,1082],[100,1166],[100,1249],[100,1332],[100,1416],[100,1499],[100,1582],[100,1665],[100,1749],[100,1832],[100,1916],[100,1999],[100,2082],[100,2165],[100,2249],[100,2332],[100,2415],[100,2499],[100,2582],[100,2666],[100,2749],[100,2832],[100,2916],[100,2999],[100,3082],[100,3165],[100,3248],[100,3332],[100,3416],[100,3498],[100,3582],[100,3665],[100,3748],[100,3831],[100,3915],[100,3999],[100,4081],[100,4164],[100,4249],[100,4331],[100,4414],[100,4498],[100,4581],[100,4665],[100,4748],[100,4831],[100,4915],[100,4998],[100,5081],[100,5164],[100,5248],[100,5331],[100,5414],[100,5498],[100,5581],[100,5664],[100,5748],[100,5832],[100,5914],[100,5997],[100,6080],[100,6164],[100,6248],[100,6331],[100,6415],[100,6497],[100,6581],[100,6664],[100,6747],[100,6831],[100,6913],[100,6998],[100,7081],[100,7163],[100,7247],[100,7330],[100,7413],[100,7497],[100,7580],[100,7663],[100,7747],[100,7830],[100,7913],[100,7997],[100,8080],[100,8163],[100,8248],[100,8330],[100,8414],[100,8497],[100,8580],[100,8664],[100,8746],[100,8830],[100,8913],[100,8996],[100,9080],[100,9163],[100,9246],[100,9330],[100,9413],[100,9496],[100,9579],[100,9663],[100,9747],[100,9829],[100,9913],[100,9996],[100,10079],[100,10163],[100,10246],[100,10329],[100,10412],[100,10496],[100,10580],[100,10663],[100,10746],[100,10829],[100,10913],[100,10996],[100,11080],[100,11162],[100,11246],[100,11330],[100,11413],[100,11496],[100,11579],[100,11662],[100,11745],[100,11829],[100,11912],[100,11996],[100,12079],[100,12162],[100,12245],[100,12328],[100,12412],[100,12495],[100,12578],[100,12662],[100,12745],[100,12829],[100,12912],[100,12995],[100,13079],[100,13161],[100,13245],[100,13328],[100,13411],[100,13495],[100,13578],[100,13662],[100,13744],[100,13829],[100,13911],[100,13995],[100,14078],[100,14161],[100,14246],[100,14327],[100,14411],[100,14494],[100,14578],[100,14661],[100,14745],[100,14827],[100,14911],[100,14994],[100,15077],[100,15161],[100,15244],[100,15327],[100,15411],[100,15494],[100,15577],[100,15662],[100,15744],[100,15828],[100,15910],[100,15994],[100,16077],[100,16160],[100,16244],[100,16327],[100,16410],[100,16494],[100,16577],[100,16660],[100,16744],[100,16827],[100,16910],[100,16993],[100,17077],[100,17161],[100,17245],[100,17327],[100,17410],[100,17493],[100,17577],[100,17660],[100,17743],[100,17827],[100,17910],[100,17993],[100,18077],[100,18160],[100,18244],[100,18326],[100,18409],[100,18493],[100,18576],[100,18660],[100,18745],[100,18826],[100,18910],[100,18993],[100,19076],[100,19159],[100,19243],[100,19326],[100,19409],[100,19493],[100,19576],[100,19659],[100,19743],[100,19826],[100,19909],[100,19993],[100,20076],[100,20159],[100,20243],[100,20326],[100,20409],[100,20492],[100,20576],[100,20659],[100,20742],[100,20825],[100,20908],[100,20992],[100,21076],[100,21158],[100,21242],[100,21326],[100,21408],[100,21491],[100,21576],[100,21658],[100,21743],[100,21825],[100,21909],[100,21992],[100,22075],[100,22158],[100,22241],[100,22325],[100,22409],[100,22491],[100,22575],[100,22658],[100,22741],[100,22825],[100,22908],[100,22991],[100,23075],[100,23158],[100,23241],[100,23324],[100,23408],[100,23491],[100,23574],[100,23658],[100,23741],[100,23825],[100,23907],[100,23991],[100,24074],[100,24158],[100,24241],[100,24324],[100,24408],[100,24492],[100,24574],[100,24657],[100,24741],[100,24824]]",1,0,872.5732,875.5888,99.76786087,2.5096,"[{""rating"":99.76786087058474,""responseTime"":2.5096000000014556}]",space,2.4816,,875.5889,Half the time,50,875.594,,,[],,0,7,7,7,1,audio/Narrative7Situation7.wav,audio/Narrative8Situation7.wav,audio/Narrative5Situation7.wav,audio/Narrative6Situation7.wav,5,3,4,5,,,,,,,,,,,,,,,,,,,,,,,,,,,,,,,,,,,,,,,
,,,,,,5f0151a9e5751c2a5313c45e,2024-02-08_11h02.55.765,group3.1-3.2-social-tom,2023.2.2,Linux x86_64,60.02040694,65c5074098b851296ff0b7ed,65c5165368db58f4163dfd5f,,,,,,,,,,,,,,,,,,,,,,,,,,,,,875.595,2,audio/Narrative6Situation8.wav,880.6032,,880.6033,887.4683,"[[100,916],[100,999],[100,1083],[100,1166],[100,1249],[100,1332],[100,1415],[100,1500],[100,1582],[100,1665],[100,1751],[100,1834],[100,1915],[100,1999],[100,2082],[100,2165],[100,2248],[100,2332],[100,2416],[100,2498],[100,2581],[100,2665],[100,2748],[100,2832],[100,2915],[100,2998],[100,3082],[100,3165],[100,3248],[100,3331],[100,3414],[100,3498],[100,3581],[100,3665],[100,3748],[100,3831],[100,3915],[100,3997],[100,4081],[100,4165],[100,4248],[100,4331],[100,4414],[100,4498],[100,4581],[100,4664],[100,4747],[100,4831],[100,4914],[100,4997],[100,5081],[100,5164],[100,5247],[100,5331],[100,5418],[100,5499],[100,5580],[100,5664],[100,5747],[100,5831],[100,5914],[100,5997],[100,6080],[100,6164],[100,6247],[100,6331],[100,6413],[100,6497],[100,6580],[100,6663],[100,6748],[100,6831]]",1,0,887.4686,890.7494,99.57840167,2.743,"[{""rating"":99.57840166887812,""responseTime"":2.742999999999938}]",space,2.734,,890.7495,All the time,100,890.7614,,,[],,0,8,8,8,1,audio/Narrative7Situation8.wav,audio/Narrative8Situation8.wav,audio/Narrative5Situation8.wav,audio/Narrative6Situation8.wav,2,3,3,5,,,,,,,,,,,,,,,,,,,,,,,,,,,,,,,,,,,,,,,
,,,,,,5f0151a9e5751c2a5313c45e,2024-02-08_11h02.55.765,group3.1-3.2-social-tom,2023.2.2,Linux x86_64,60.02040694,65c5074098b851296ff0b7ed,65c5165368db58f4163dfd5f,,,,,,,,,,,,,,,,,,,,,,,,,,,,,890.7619,2,audio/Narrative6Situation9.wav,894.7647,,894.7648,904.73,"[[100,1167],[100,9830],[100,9913]]",1,0,904.7303,907.1769,99.64458415,1.6941,"[{""rating"":99.64458415309298,""responseTime"":1.6940999999997075}]",space,1.8988,,907.1772,Half the time,50,907.1897,,,[],,0,9,9,9,1,audio/Narrative7Situation9.wav,audio/Narrative8Situation9.wav,audio/Narrative5Situation9.wav,audio/Narrative6Situation9.wav,2,3,3,4,,,,,,,,,,,,,,,,,,,,,,,,,,,,,,,,,,,,,,,
,,,,,,5f0151a9e5751c2a5313c45e,2024-02-08_11h02.55.765,group3.1-3.2-social-tom,2023.2.2,Linux x86_64,60.02040694,65c5074098b851296ff0b7ed,65c5165368db58f4163dfd5f,,,,,,,,,,,,,,,,,,,,,,,,,,,,,907.1902,2,audio/Narrative5Situation1.wav,912.1925,,912.1925,925.4706,"[[999,13],[999,82],[999,166],[999,249],[999,332],[999,415],[999,498],[999,583],[999,667],[999,751],[999,835],[29.6,915],[27,1000],[22.1,1082],[20.5,1167],[19.8,1249],[18,1332],[15.9,1415],[15.9,1498],[15.9,1581],[15.9,1664],[15.9,1749],[15.9,1832],[15.9,1915],[15.9,1998],[15.9,2081],[15.9,2164],[15.9,2248],[15.9,2331],[15.9,2414],[15.8,2498],[15.8,2581],[15.8,2665],[15.8,2748],[15.8,2831],[15.8,2914],[15.8,2998],[15.8,3081],[15.8,3165],[15.8,3248],[15.8,3331],[15.8,3414],[15.8,3497],[15.8,3581],[15.8,3665],[15.8,3748],[15.8,3834],[15.8,3915],[15.8,3997],[15.8,4080],[15.8,4164],[15.8,4247],[15.8,4331],[15.8,4414],[15.8,4497],[15.8,4581],[15.8,4664],[15.8,4748],[15.8,4830],[15.8,4913],[15.8,4997],[15.8,5080],[15.8,5164],[15.8,5247],[15.8,5330],[15.8,5413],[15.8,5497],[15.8,5580],[15.8,5664],[15.8,5747],[15.8,5830],[15.8,5913],[15.8,5997],[15.8,6080],[15.8,6163],[15.8,6246],[15.8,6330],[15.8,6413],[15.8,6497],[15.8,6581],[15.8,6663],[15.8,6746],[15.8,6830],[15.8,6913],[15.8,6996],[15.8,7079],[15.8,7163],[24.9,7247],[26,7329],[28.7,7414],[35.2,7497],[58.5,7580],[64.7,7663],[66.1,7747],[66.2,7829],[66.2,7912],[66.2,7997],[66.2,8079],[66.2,8162],[66.2,8245],[66.1,8329],[66.1,8412],[66.1,8496],[66.1,8579],[66.1,8662],[66.1,8745],[76.5,8829],[81.6,8912],[83.6,8996],[84.9,9079],[86,9163],[87.2,9246],[88.3,9329],[89.6,9413],[90,9496],[90.1,9578],[90.1,9662],[90.1,9745],[90.1,9829],[90.1,9912],[90.1,9995],[90.1,10078],[90.1,10162],[90.1,10245],[90.1,10328],[90.1,10412],[90.1,10495],[90.1,10578],[90.1,10662],[90.1,10745],[90.8,10829],[100,10913],[100,10995],[100,11079],[100,11162],[100,11245],[100,11328],[100,11411],[100,11494],[100,11578],[100,11662],[100,11745],[100,11827],[100,11912],[100,11994],[100,12078],[100,12161],[100,12245],[100,12327],[100,12411],[100,12494],[100,12578],[100,12661],[100,12744],[100,12827],[100,12911],[100,12994],[100,13078],[100,13161],[100,13244]]",1,0,925.471,930.8189,78.13716235,1.4533,"[{""rating"":78.13716234958363,""responseTime"":1.4532999999989897}]",space,4.8015,,930.819,Not at all,0,930.8436,,,[],,0,10,10,10,1,audio/Narrative8Situation1.wav,audio/Narrative7Situation1.wav,audio/Narrative6Situation1.wav,audio/Narrative5Situation1.wav,5,2,2,5,,,,,,,,,,,,,,,,,,,,,,,,,,,,,,,,,,,,,,,
,,,,,,5f0151a9e5751c2a5313c45e,2024-02-08_11h02.55.765,group3.1-3.2-social-tom,2023.2.2,Linux x86_64,60.02040694,65c5074098b851296ff0b7ed,65c5165368db58f4163dfd5f,,,,,,,,,,,,,,,,,,,,,,,,,,,,,930.8445,2,audio/Narrative5Situation2.wav,933.8507,,933.8508,963.3075,"[[78.1,750],[77.9,834],[78,917],[80.3,999],[82.8,1084],[83.1,1166],[83.1,1249],[83.1,1332],[84.5,1416],[86.3,1500],[87.1,1583],[87.3,1665],[87.5,1749],[88.3,1832],[94.6,1916]]",1,0,963.3077,966.4389,99.7903,2.7091,"[{""rating"":99.79030000343155,""responseTime"":2.70909999999958}]",space,2.5857,,966.439,Half the time,50,966.452,,,[],,0,11,11,11,1,audio/Narrative8Situation2.wav,audio/Narrative7Situation2.wav,audio/Narrative6Situation2.wav,audio/Narrative5Situation2.wav,3,3,3,3,,,,,,,,,,,,,,,,,,,,,,,,,,,,,,,,,,,,,,,
,,,,,,5f0151a9e5751c2a5313c45e,2024-02-08_11h02.55.765,group3.1-3.2-social-tom,2023.2.2,Linux x86_64,60.02040694,65c5074098b851296ff0b7ed,65c5165368db58f4163dfd5f,,,,,,,,,,,,,,,,,,,,,,,,,,,,,966.4526,2,audio/Narrative5Situation3.wav,969.4548,,969.4549,983.3666,"[[99.6,1166],[99.4,1250],[99.3,1332],[99.2,1416],[99.2,1499],[99.2,1582],[99.3,1666],[100,1749]]",1,0,983.3669,985.9657,99.80298066,2.092,"[{""rating"":99.80298066034499,""responseTime"":2.0920000000000982}]",space,2.0527,,985.9659,Half the time,50,985.9705,,,[],,0,12,12,12,1,audio/Narrative8Situation3.wav,audio/Narrative7Situation3.wav,audio/Narrative6Situation3.wav,audio/Narrative5Situation3.wav,4,8,5,3,,,,,,,,,,,,,,,,,,,,,,,,,,,,,,,,,,,,,,,
,,,,,,5f0151a9e5751c2a5313c45e,2024-02-08_11h02.55.765,group3.1-3.2-social-tom,2023.2.2,Linux x86_64,60.02040694,65c5074098b851296ff0b7ed,65c5165368db58f4163dfd5f,,,,,,,,,,,,,,,,,,,,,,,,,,,,,985.971,2,audio/Narrative5Situation4.wav,986.9821,,986.9823,1007.3764,"[[100,82],[100,165],[100,248],[100,332],[100,415],[100,498],[100,582],[100,665],[100,749],[100,832],[100,915],[100,998],[100,1082],[100,1165],[100,1248],[100,1331],[100,1415],[100,1498],[100,1581],[100,1665],[100,1748],[100,1831],[100,1914],[100,1998],[100,2081],[100,2164],[100,2248],[100,2331],[100,2414],[100,2498],[100,2581],[100,2664],[100,2747],[100,2831],[100,2914],[100,2997],[100,3081],[100,3164],[100,3248],[100,3331],[100,3414],[100,3498],[100,3580],[100,3664],[100,3747],[100,3830],[100,3914],[100,3997],[100,4080],[100,4164],[100,4247],[100,4330],[100,4414],[100,4497],[100,4581],[100,4664],[100,4747],[100,4830],[100,4913],[100,4997],[100,5080],[100,5163],[100,5247],[100,5330],[100,5414],[100,5497],[100,5580],[100,5663],[100,5746],[100,5830],[100,5913],[100,5996],[100,6080],[100,6163],[100,6246],[100,6330],[100,6413],[100,6496],[100,6580],[100,6663],[100,6747],[100,6830],[100,6913],[100,6996],[100,7080],[100,7164],[100,7246],[100,7329],[100,7413],[100,7496],[100,7579],[100,7663],[100,7746],[100,7829],[100,7912],[100,7996],[100,8080],[100,8162],[100,8246],[100,8329],[100,8412],[100,8496],[100,8579],[100,8662],[100,8745],[100,8829],[100,8912],[100,8995],[100,9079],[100,9162],[100,9245],[100,9328],[100,9413],[100,9495],[100,9578],[100,9662],[100,9745],[100,9829],[100,9912],[100,9995],[100,10078],[100,10162],[100,10245],[100,10328],[100,10411],[100,10495],[100,10578],[100,10662],[100,10745],[100,10828],[100,10912],[100,10994],[100,11078],[100,11162],[100,11244],[100,11328],[100,11411],[100,11494],[100,11578],[100,11661],[100,11745],[100,11828],[100,11911],[100,11994],[100,12078],[100,12161],[100,12244],[100,12327],[100,12411],[100,12494],[100,12577],[100,12661],[100,12744],[100,12827],[100,12912],[100,12994],[100,13077],[100,13160],[100,13244],[100,13327],[100,13410],[100,13494],[100,13577],[100,13660],[100,13744],[100,13827],[100,13910],[100,13994],[100,14077],[100,14160],[100,14243],[100,14327],[100,14410],[100,14494],[100,14576],[100,14660],[100,14743],[100,14827],[100,14910],[100,14993],[100,15077],[100,15160],[100,15243],[100,15326],[100,15410],[100,15493],[100,15576],[100,15660],[100,15743],[100,15826],[100,15910],[100,15993],[100,16076],[100,16159],[100,16243],[100,16326],[100,16410],[100,16493],[100,16576],[100,16659],[100,16742],[100,16826],[100,16909],[100,16992],[100,17076],[100,17159],[100,17242],[100,17326],[100,17409],[100,17492],[100,17576],[100,17659],[100,17742],[100,17825],[100,17909],[100,17993],[100,18075],[100,18159],[100,18242],[100,18325],[100,18408],[100,18492],[100,18576],[100,18659],[100,18742],[100,18825],[100,18908],[100,18992],[100,19075],[100,19158],[100,19242],[100,19325],[100,19408],[100,19492],[100,19575],[100,19658],[100,19741],[100,19825],[100,19908],[100,19991],[100,20075],[100,20158],[100,20242],[100,20326]]",1,0,1007.3768,1008.9568,99.31916758,1.177,"[{""rating"":99.31916757698114,""responseTime"":1.1770000000001346}]",space,1.0444,,1008.9569,Half the time,50,1008.9626,,,[],,0,13,13,13,1,audio/Narrative8Situation4.wav,audio/Narrative7Situation4.wav,audio/Narrative6Situation4.wav,audio/Narrative5Situation4.wav,3,3,2,1,,,,,,,,,,,,,,,,,,,,,,,,,,,,,,,,,,,,,,,
,,,,,,5f0151a9e5751c2a5313c45e,2024-02-08_11h02.55.765,group3.1-3.2-social-tom,2023.2.2,Linux x86_64,60.02040694,65c5074098b851296ff0b7ed,65c5165368db58f4163dfd5f,,,,,,,,,,,,,,,,,,,,,,,,,,,,,1008.9632,2,audio/Narrative5Situation5.wav,1013.9718,,1013.9724,1029.3999,"[[100,499],[100,583],[100,666],[100,749],[100,833],[100,915],[100,1000],[100,1082],[100,1166],[100,1249],[100,1332],[100,1415],[100,1498],[100,1582],[100,1665],[100,1748],[100,1831],[100,1915],[100,1998],[100,2082],[100,2165],[100,2248],[100,2331],[100,2415],[100,2498],[100,2581],[100,2664],[100,2748],[100,2831],[100,2915],[100,2998],[100,3081],[100,3164],[100,3248],[100,3331],[100,3415],[100,3498],[100,3581],[100,3664],[100,3747],[100,3831],[100,3914],[100,3997],[100,4088],[100,4164],[100,4247],[100,4330],[100,4414],[100,4497],[100,4581],[100,4664],[100,4747],[100,4830],[100,4914],[100,4997],[100,5080],[100,5164],[100,5247],[100,5330],[100,5413],[100,5497],[100,5580],[100,5663],[100,5746],[100,5830],[100,5913],[100,5997],[100,6080],[100,6163],[100,6247],[100,6330],[100,6413],[100,6497],[100,6580],[100,6663],[100,6747],[100,6830],[100,6913],[100,6997],[100,7079],[100,7163],[100,7246],[100,7330],[100,7413],[100,7496],[100,7579],[100,7664],[100,7746],[100,7829],[100,7913],[100,7996],[100,8079],[100,8162],[100,8245],[100,8329],[100,8412],[100,8496],[100,8579],[100,8663],[100,8746],[100,8829],[100,8912],[100,8996],[100,9079],[100,9162],[100,9245],[100,9329],[100,9412],[100,9495],[100,9579],[100,9663],[100,9745],[100,9829],[100,9912],[100,9995],[100,10079],[100,10162],[100,10245],[100,10329],[100,10412],[100,10495],[100,10578],[100,10662],[100,10745],[100,10829],[100,10911],[100,10995],[100,11079],[100,11161],[100,11245],[100,11329],[100,11411],[100,11495],[100,11578],[100,11661],[100,11745],[100,11828],[100,11911],[100,11994],[100,12078],[100,12161],[100,12245],[100,12328],[100,12411],[100,12494],[100,12578],[100,12661],[100,12744],[100,12828],[100,12911],[100,12994],[100,13078],[100,13162],[100,13244],[100,13327],[100,13410],[100,13495],[100,13577],[100,13661],[100,13744],[100,13827],[100,13911],[100,13994],[100,14078],[100,14161],[100,14244],[100,14327],[100,14410],[100,14493],[100,14577],[100,14660],[100,14743],[100,14827],[100,14910],[100,14995],[100,15077],[100,15160],[100,15244],[100,15326],[100,15410]]",1,0,1029.4003,1031.0833,99.52431004,1.1931,"[{""rating"":99.52431004358071,""responseTime"":1.1931000000015501}]",space,1.1417,,1031.0835,Half the time,50,1031.0896,,,[],,0,14,14,14,1,audio/Narrative8Situation5.wav,audio/Narrative7Situation5.wav,audio/Narrative6Situation5.wav,audio/Narrative5Situation5.wav,2,5,2,5,,,,,,,,,,,,,,,,,,,,,,,,,,,,,,,,,,,,,,,
,,,,,,5f0151a9e5751c2a5313c45e,2024-02-08_11h02.55.765,group3.1-3.2-social-tom,2023.2.2,Linux x86_64,60.02040694,65c5074098b851296ff0b7ed,65c5165368db58f4163dfd5f,,,,,,,,,,,,,,,,,,,,,,,,,,,,,1031.09,2,audio/Narrative5Situation6.wav,1034.0979,,1034.098,1039.7796,"[[100,667],[100,751],[100,833],[100,916]]",1,0,1039.7799,1042.0618,99.98277075,1.6795,"[{""rating"":99.98277074945095,""responseTime"":1.6794999999999618}]",space,1.7494,,1042.0618,Half the time,50,1042.0666,,,[],,0,15,15,15,1,audio/Narrative8Situation6.wav,audio/Narrative7Situation6.wav,audio/Narrative6Situation6.wav,audio/Narrative5Situation6.wav,2,3,2,3,,,,,,,,,,,,,,,,,,,,,,,,,,,,,,,,,,,,,,,
,,,,,,5f0151a9e5751c2a5313c45e,2024-02-08_11h02.55.765,group3.1-3.2-social-tom,2023.2.2,Linux x86_64,60.02040694,65c5074098b851296ff0b7ed,65c5165368db58f4163dfd5f,,,,,,,,,,,,,,,,,,,,,,,,,,,,,1042.0676,2,audio/Narrative5Situation7.wav,1046.0773,,1046.0774,1067.1196,"[[100,666],[100,750],[100,833],[100,916],[100,999],[100,1082],[100,1166],[100,1249],[100,1332],[100,1415],[100,1498],[100,1583],[100,1665],[100,1749],[100,1832],[100,1915],[100,1999],[100,2082],[100,2165],[100,2248],[100,2332],[100,2414],[100,2499],[100,2581],[100,2665],[100,2748],[100,2831],[100,2915],[100,2998],[100,3081],[100,3164],[100,3248],[100,3332],[100,3415],[100,3498],[100,3581],[100,3664],[100,3748],[100,3831],[100,3914],[100,3998],[100,4081],[100,4164],[100,4248],[100,4331],[100,4414],[100,4497],[100,4581],[100,4665],[100,4747],[100,4831],[100,4914],[100,4997],[100,5081],[100,5164],[100,5247],[100,5331],[100,5414],[100,5497],[100,5580],[100,5664],[100,5747],[100,5830],[100,5913],[100,5997],[100,6080],[100,6164],[100,6247],[100,6330],[100,6414],[100,6497],[100,6580],[100,6663],[100,6747],[100,6831],[100,6913],[100,6997],[100,7080],[100,7163],[100,7247],[100,7330],[100,7413],[100,7497],[100,7580],[100,7663],[100,7747],[100,7829],[100,7913],[100,7996],[100,8079],[100,8163],[100,8246],[100,8329],[100,8413],[100,8496],[100,8580],[100,8662],[100,8746],[100,8829],[100,8913],[100,8996],[100,9079],[100,9162],[100,9246],[100,9329],[100,9412],[100,9496],[100,9579],[100,9662],[100,9746],[100,9829],[100,9913],[100,9996],[100,10079],[100,10162],[100,10246],[100,10329],[100,10412],[100,10495],[100,10579],[100,10662],[100,10746],[100,10828],[100,10912],[100,10995],[100,11078],[100,11162],[100,11245],[100,11328],[100,11412],[100,11495],[100,11578],[100,11662],[100,11745],[100,11828],[100,11911],[100,11995],[100,12078],[100,12162],[100,12245],[100,12328],[100,12411],[100,12495],[100,12579],[100,12661],[100,12745],[100,12828],[100,12912],[100,12995],[100,13077],[100,13161],[100,13244],[100,13327],[100,13411],[100,13494],[100,13577],[100,13660],[100,13744],[100,13827],[100,13911],[100,13994],[100,14078],[100,14161],[100,14244],[100,14327],[100,14411],[100,14494],[100,14577],[100,14660],[100,14744],[100,14828],[100,14911],[100,14994],[100,15077],[100,15161],[100,15244],[100,15327],[100,15410],[100,15493],[100,15577],[100,15660],[100,15743],[100,15828],[100,15910],[100,15994],[100,16076],[100,16160],[100,16244],[100,16326],[100,16410],[100,16493],[100,16576],[100,16660],[100,16743],[100,16827],[100,16910],[100,16993],[100,17076],[100,17160],[100,17243],[100,17326],[100,17409],[100,17492],[100,17576],[100,17659],[100,17743],[100,17827],[100,17909],[100,17992],[100,18076],[100,18159],[100,18244],[100,18326],[100,18409],[100,18492],[100,18576],[100,18659],[100,18743],[100,18826],[100,18909],[100,18992],[100,19075],[100,19159],[100,19242],[100,19326],[100,19409],[100,19492],[100,19575],[100,19659],[100,19742],[100,19826],[100,19908],[100,19992],[100,20075],[100,20159],[100,20242],[100,20325],[100,20409],[100,20492],[100,20575],[100,20658],[100,20742],[100,20826],[100,20909],[100,20991]]",1,0,1067.12,1069.1352,98.46345111,1.1599,"[{""rating"":98.46345111182285,""responseTime"":1.1598999999985153}]",space,1.4671,,1069.1354,All the time,100,1069.1522,,,[],,0,16,16,16,1,audio/Narrative8Situation7.wav,audio/Narrative7Situation7.wav,audio/Narrative6Situation7.wav,audio/Narrative5Situation7.wav,3,5,5,4,,,,,,,,,,,,,,,,,,,,,,,,,,,,,,,,,,,,,,,
,,,,,,5f0151a9e5751c2a5313c45e,2024-02-08_11h02.55.765,group3.1-3.2-social-tom,2023.2.2,Linux x86_64,60.02040694,65c5074098b851296ff0b7ed,65c5165368db58f4163dfd5f,,,,,,,,,,,,,,,,,,,,,,,,,,,,,1069.1528,2,audio/Narrative5Situation8.wav,1072.1676,,1072.1676,1080.9983,"[[98.8,583],[99.4,666],[100,753],[100,833],[100,917],[100,1000],[100,1083],[100,1166],[100,1249],[100,1332],[100,1415],[100,1499],[100,1583],[100,1665],[100,1749],[100,1832],[100,1915],[100,1999],[100,2082],[100,2166],[100,2249],[100,2332],[100,2415],[100,2499],[100,2582],[100,2665],[100,2748],[100,2832],[100,2916],[100,2998],[100,3082],[100,3165],[100,3248],[100,3332],[100,3415],[100,3498],[100,3582],[100,3666],[100,3748],[100,3831],[100,3914],[100,3998],[100,4081],[100,4165],[100,4248],[100,4331],[100,4415],[100,4498],[100,4581],[100,4665],[100,4747],[100,4831],[100,4914],[100,4998],[100,5081],[100,5164],[100,5247],[100,5331],[100,5414],[100,5498],[100,5580],[100,5664],[100,5747],[100,5831],[100,5914],[100,5997],[100,6080],[100,6164],[100,6247],[100,6330],[100,6414],[100,6497],[100,6581],[100,6664],[100,6747],[100,6831],[100,6914],[100,6997],[100,7080],[100,7163],[100,7247],[100,7332],[100,7413],[100,7497],[100,7580],[100,7663],[100,7747],[100,7830],[100,7913],[100,7997],[100,8080],[100,8163],[100,8246],[100,8330],[100,8413],[100,8496],[100,8580],[100,8663],[100,8746],[100,8830]]",1,0,1080.9986,1083.6644,98.91233207,1.7452,"[{""rating"":98.91233206842514,""responseTime"":1.7451999999991585}]",space,2.1177,,1083.6647,All the time,100,1093.8267,99.73036402,9.0209,"[{""rating"":99.73036401617405,""responseTime"":9.020900000000438}]",space,0,17,17,17,1,audio/Narrative8Situation8.wav,audio/Narrative7Situation8.wav,audio/Narrative6Situation8.wav,audio/Narrative5Situation8.wav,3,2,5,3,,,9.6176,,,,,,,,,,,,,,,,,,,,,,,,,,,,,,,,,,,,
