exp_question,consent.started,consent.stopped,consentResponse.keys,consentResponse.rt,consentResponse.duration,participantID,date,expName,psychopyVersion,OS,frameRate,STUDY_ID,SESSION_ID,opening1.started,opening1.stopped,keyEndingOpening1.keys,keyEndingOpening1.rt,keyEndingOpening1.duration,volumeAdjust.started,volumeAdjust.stopped,endingAdjust.keys,endingAdjust.rt,endingAdjust.duration,opening2.started,opening2.stopped,keyEndingOpening.keys,keyEndingOpening.rt,keyEndingOpening.duration,mouse.x,mouse.y,mouse.leftButton,mouse.midButton,mouse.rightButton,mouse.time,instructionLoop.thisRepN,instructionLoop.thisTrialN,instructionLoop.thisN,instructionLoop.thisIndex,instructionLoop.ran,readyForAudio.started,readyForAudio.stopped,fixation.started,fixation.stopped,endPractice.keys,audioPre.started,audioPre.stopped,continuousResponses_audio,continuousSlider.response,continuousSlider.rt,catchQuestion.started,catch_label,catch_value,catchQuestion.stopped,catchQuestionSlider.response,catchQuestionSlider.rt,catchQuestionSlider.history,confirmResponse_2.keys,intRating.started,intRating.stopped,intQuestionSlider.response,intQuestionSlider.rt,intQuestionSlider.history,confirmResponse.keys,confirmResponse.rt,confirmResponse.duration,audioRunLoop.thisRepN,audioRunLoop.thisTrialN,audioRunLoop.thisN,audioRunLoop.thisIndex,audioRunLoop.ran,conditions1_1,conditions2_1,conditions1_2,conditions2_2,dur1_1,dur2_1,dur1_2,dur2_2,endPractice.rt,endPractice.duration,confirmResponse_2.rt,confirmResponse_2.duration,runIntervalBreak.started,runIntervalBreak.stopped,endingBreakKey.keys,endingBreakKey.rt,endingBreakKey.duration,connection.started,connection.stopped,connectionEnding.keys,connectionEnding.rt,connectionEnding.duration,readyForText.started,readyForText.stopped,textPre.started,textPre.stopped,continuousResponses_text,textRunLoop.thisRepN,textRunLoop.thisTrialN,textRunLoop.thisN,textRunLoop.thisIndex,textRunLoop.ran,text1_1,text1_2,text2_1,text2_2,runBreakText.started,runBreakText.stopped,endingBreakKey_2.keys,endingBreakKey_2.rt,endingBreakKey_2.duration,ending.started,ending.stopped,endingEnding.keys,endingEnding.rt,endingEnding.duration
tom,0,3.679,y,3.368,,5f1b0abbb84a5207673cb637,2024-02-05_16h42.10.891,group3.1-3.2-social-tom,2023.2.2,Win32,144.092219,65b1b24e3a500fd6b5dc9abd,65c154888294498f23430e6e,,,,,,,,,,,,,,,,,,,,,,,,,,,,,,,,,,,,,,,,,,,,,,,,,,,,,,,,,,,,,,,,,,,,,,,,,,,,,,,,,,,,,,,,,,,,,,,,,,,,,,,
,,,,,,5f1b0abbb84a5207673cb637,2024-02-05_16h42.10.891,group3.1-3.2-social-tom,2023.2.2,Win32,144.092219,65b1b24e3a500fd6b5dc9abd,65c154888294498f23430e6e,3.679,7.235,space,3.538,,,,,,,,,,,,,,,,,,,,,,,,,,,,,,,,,,,,,,,,,,,,,,,,,,,,,,,,,,,,,,,,,,,,,,,,,,,,,,,,,,,,,,,,,,,,,,,,,,,
,,,,,,5f1b0abbb84a5207673cb637,2024-02-05_16h42.10.891,group3.1-3.2-social-tom,2023.2.2,Win32,144.092219,65b1b24e3a500fd6b5dc9abd,65c154888294498f23430e6e,,,,,,7.235,13.06,space,5.515,,,,,,,,,,,,,,,,,,,,,,,,,,,,,,,,,,,,,,,,,,,,,,,,,,,,,,,,,,,,,,,,,,,,,,,,,,,,,,,,,,,,,,,,,,,,,,
,,,,,,5f1b0abbb84a5207673cb637,2024-02-05_16h42.10.891,group3.1-3.2-social-tom,2023.2.2,Win32,144.092219,65b1b24e3a500fd6b5dc9abd,65c154888294498f23430e6e,,,,,,,,,,,13.064,16.296,space,3.221,,[],[],[],[],[],[],0,0,0,0,1,,,,,,,,,,,,,,,,,,,,,,,,,,,,,,,,,,,,,,,,,,,,,,,,,,,,,,,,,,,,,,,,,,,,,,,,,,,,,
,,,,,,5f1b0abbb84a5207673cb637,2024-02-05_16h42.10.891,group3.1-3.2-social-tom,2023.2.2,Win32,144.092219,65b1b24e3a500fd6b5dc9abd,65c154888294498f23430e6e,,,,,,,,,,,16.296,21.413,space,5.059,,[],[],[],[],[],[],1,0,1,0,1,,,,,,,,,,,,,,,,,,,,,,,,,,,,,,,,,,,,,,,,,,,,,,,,,,,,,,,,,,,,,,,,,,,,,,,,,,,,,
,,,,,,5f1b0abbb84a5207673cb637,2024-02-05_16h42.10.891,group3.1-3.2-social-tom,2023.2.2,Win32,144.092219,65b1b24e3a500fd6b5dc9abd,65c154888294498f23430e6e,,,,,,,,,,,21.414,29.892,space,8.451,,[-0.23020833333333332],[-0.7796296296296297],[1],[0],[0],[7.524000000000001],2,0,2,0,1,,,,,,,,,,,,,,,,,,,,,,,,,,,,,,,,,,,,,,,,,,,,,,,,,,,,,,,,,,,,,,,,,,,,,,,,,,,,,
,,,,,,5f1b0abbb84a5207673cb637,2024-02-05_16h42.10.891,group3.1-3.2-social-tom,2023.2.2,Win32,144.092219,65b1b24e3a500fd6b5dc9abd,65c154888294498f23430e6e,,,,,,,,,,,29.893,34.483,space,4.572,,[],[],[],[],[],[],3,0,3,0,1,,,,,,,,,,,,,,,,,,,,,,,,,,,,,,,,,,,,,,,,,,,,,,,,,,,,,,,,,,,,,,,,,,,,,,,,,,,,,
,,,,,,5f1b0abbb84a5207673cb637,2024-02-05_16h42.10.891,group3.1-3.2-social-tom,2023.2.2,Win32,144.092219,65b1b24e3a500fd6b5dc9abd,65c154888294498f23430e6e,,,,,,,,,,,34.483,35.607,space,1.112,,[],[],[],[],[],[],4,0,4,0,1,,,,,,,,,,,,,,,,,,,,,,,,,,,,,,,,,,,,,,,,,,,,,,,,,,,,,,,,,,,,,,,,,,,,,,,,,,,,,
,,,,,,5f1b0abbb84a5207673cb637,2024-02-05_16h42.10.891,group3.1-3.2-social-tom,2023.2.2,Win32,144.092219,65b1b24e3a500fd6b5dc9abd,65c154888294498f23430e6e,,,,,,,,,,,,,,,,,,,,,,,,,,,35.608,38.183,38.193,40.197,,40.197,69.932,"[[999,0],[999,89],[999,173],[999,256],[999,339],[999,423],[999,506],[999,589],[999,673],[48.4,756],[48.4,841],[49.6,923],[55,1006],[55.1,1089],[55.1,1173],[55.1,1256],[54.4,1339],[52.5,1423],[52.2,1506],[51.4,1589],[50.9,1673],[50.9,1756],[50.9,1839],[50.9,1923],[50.9,2006],[50.9,2089],[50.9,2173],[50.9,2256],[50.9,2339],[50.9,2423],[50.9,2506],[50.9,2589],[50.9,2673],[50.9,2756],[50.9,2839],[50.9,2923],[50.9,3006],[50.9,3089],[50.9,3173],[50.9,3256],[50.9,3339],[50.9,3423],[50.9,3506],[50.9,3589],[50.9,3673],[50.9,3756],[50.9,3839],[50.9,3923],[50.9,4006],[50.9,4089],[50.9,4173],[50.9,4256],[50.9,4339],[53.8,4423],[54.3,4506],[54.6,4589],[55.5,4673],[56.5,4756],[57.2,4839],[58.2,4923],[58.6,5006],[58.9,5089],[58.9,5173],[58.9,5256],[58.9,5339],[58.9,5423],[58.9,5506],[58.9,5588],[58.9,5673],[58.9,5756],[58.9,5839],[58.9,5923],[58.9,6006],[58.9,6089],[58.9,6173],[58.9,6256],[58.9,6339],[58.9,6423],[58.9,6506],[58.9,6588],[58.9,6673],[58.9,6756],[58.9,6839],[58.9,6923],[58.9,7006],[58.9,7088],[58.9,7173],[58.9,7256],[58.9,7339],[58.9,7423],[58.9,7506],[58.9,7589],[58.9,7673],[58.9,7756],[58.9,7839],[58.9,7923],[58.9,8006],[58.9,8088],[58.9,8173],[58.9,8256],[58.9,8338],[58.9,8423],[58.9,8506],[58.9,8589],[58.9,8672],[58.9,8755],[58.9,8839],[58.9,8922],[58.9,9005],[58.9,9089],[58.9,9172],[58.9,9255],[58.9,9339],[58.9,9422],[58.9,9506],[58.9,9589],[58.9,9672],[58.9,9755],[58.9,9839],[58.9,9922],[58.9,10005],[58.9,10089],[58.9,10172],[58.9,10255],[58.9,10339],[58.9,10422],[58.9,10505],[58.9,10589],[58.9,10672],[58.9,10755],[58.9,10839],[58.9,10922],[58.9,11006],[58.9,11089],[59,11173],[59.7,11257],[60.1,11339],[60.5,11422],[61,11506],[61.5,11590],[61.9,11673],[62.3,11756],[62.4,11839],[62.4,11923],[62.4,12006],[62.4,12089],[62.4,12173],[62.4,12256],[62.4,12339],[62.4,12423],[62.4,12506],[62.4,12590],[62.4,12672],[62.4,12756],[62.4,12840],[62.4,12923],[62.4,13006],[62.4,13090],[62.4,13180],[62.4,13263],[62.4,13347],[62.4,13430],[62.4,13513],[62.4,13596],[62.4,13680],[62.4,13763],[62.4,13846],[62.4,13929],[62.4,14013],[62.4,14096],[62.4,14179],[62.4,14263],[62.4,14346],[62.4,14429],[62.4,14513],[62.4,14596],[62.4,14680],[62.4,14762],[62.4,14846],[62.4,14930],[62.4,15012],[62.4,15096],[62.4,15180],[62.4,15263],[62.4,15346],[62.4,15429],[62.4,15512],[62.4,15596],[62.4,15679],[62.4,15763],[62.4,15846],[62.4,15930],[62.4,16013],[62.4,16096],[62.4,16179],[62.4,16263],[62.4,16346],[62.4,16430],[62.4,16513],[62.4,16596],[62.4,16679],[61.7,16763],[61.5,16846],[61.5,16929],[61.5,17012],[61.1,17096],[60.8,17179],[60.6,17263],[60.3,17346],[60.3,17430],[60.3,17512],[60.3,17596],[60.3,17679],[60.3,17763],[60.3,17846],[60.3,17929],[60.3,18013],[60.3,18096],[60.3,18179],[60.3,18263],[60.3,18346],[60.3,18429],[60.3,18512],[60.3,18596],[59.8,18679],[59.7,18762],[59.7,18845],[59.7,18929],[59.7,19013],[59.7,19096],[59.7,19179],[59.7,19263],[59.7,19346],[59.7,19429],[59.7,19512],[59.7,19596],[59.7,19679],[59.7,19762],[58.5,19846],[58.4,19930],[58.4,20012],[58.4,20096],[58.4,20179],[58.4,20262],[58.4,20345],[58.4,20429],[58.4,20512],[58.4,20596],[58.4,20679],[58.4,20762],[58.4,20846],[58.4,20929],[58.4,21012],[58.4,21096],[58.4,21179],[58.4,21262],[58.4,21346],[58.4,21429],[58.4,21512],[58.4,21595],[58.4,21679],[58.4,21763],[58.4,21845],[58.4,21929],[58.4,22012],[58.4,22095],[58.4,22179],[58.4,22262],[58.4,22345],[59.4,22429],[61,22512],[62.1,22596],[63.3,22679],[64.6,22763],[66,22846],[66.4,22929],[66.4,23012],[66.4,23095],[66.4,23179],[66.4,23262],[66.4,23345],[66.4,23429],[66.4,23513],[66.4,23596],[66.4,23678],[66.4,23762],[66.4,23846],[66.4,23929],[66.4,24012],[66.4,24095],[66.4,24179],[66.4,24262],[66.4,24345],[66.4,24429],[66.4,24512],[66.4,24596],[66.4,24678],[66.4,24762],[66.4,24846],[66.4,24929],[66.4,25012],[66.4,25095],[66.4,25178],[66.4,25262],[66.4,25346],[66.4,25429],[66.4,25512],[66.4,25595],[66.4,25679],[66.4,25762],[66.4,25845],[66.4,25929],[66.4,26012],[66.4,26095],[65.6,26179],[65.5,26262],[65.2,26346],[64.3,26428],[64.2,26512],[64.2,26595],[64.2,26679],[64.2,26762],[63.2,26845],[62.8,26929],[62.6,27012],[62.6,27095],[61.9,27179],[60.8,27262],[57.1,27346],[56.1,27428],[56.1,27512],[56.1,27595],[56.1,27678],[56.1,27762],[56.1,27845],[56.1,27928],[56.1,28011],[56,28095],[56,28179],[56,28262],[56,28345],[56,28429],[56,28512],[56,28595],[56,28678],[56,28762],[56,28845],[56,28928],[56,29012],[56,29095],[56,29178],[55.4,29262],[54.7,29346]]",1,0,69.932,Not at all,0,69.935,,,[],,69.935,75.855,58.85416667,4.075,"[{""rating"":58.854166666666664,""responseTime"":4.075000000000003}]",space,5.407,,0,0,0,0,1,audio/Narrative13Situation2.wav,audio/Narrative13Situation2.wav,audio/Narrative13Situation2.wav,audio/Narrative13Situation2.wav,2,2,2,2,,,,,,,,,,,,,,,,,,,,,,,,,,,,,,,,,,,,,,
,,,,,,5f1b0abbb84a5207673cb637,2024-02-05_16h42.10.891,group3.1-3.2-social-tom,2023.2.2,Win32,144.092219,65b1b24e3a500fd6b5dc9abd,65c154888294498f23430e6e,,,,,,,,,,,,,,,,,,,,,,,,,,,,,75.855,77,space,77,92.916,"[[999,0],[999,82],[999,165],[999,250],[999,332],[999,417],[999,500],[999,583],[999,667],[999,750],[57.1,832],[54.8,915],[52.9,1000],[51,1082],[50,1167],[49.6,1250],[49.6,1332],[49.6,1415],[49.6,1498],[49.6,1582],[49.6,1667],[49.6,1750],[49.6,1832],[49.6,1915],[49.6,2000],[49.6,2082],[49.6,2167],[49.6,2250],[49.6,2333],[49.6,2422],[49.6,2506],[49.6,2589],[49.6,2673],[49.6,2756],[49.6,2839],[49.6,2922],[49.6,3006],[49.6,3089],[49.6,3172],[49.6,3256],[49.6,3339],[49.6,3423],[49.6,3506],[49.6,3589],[49.6,3672],[49.6,3756],[49.6,3839],[49.6,3922],[49.6,4006],[49.6,4089],[49.6,4172],[49.6,4256],[49.6,4339],[49.6,4422],[49.6,4506],[49.6,4589],[49.6,4672],[49.6,4756],[49.6,4839],[49.6,4922],[49.6,5006],[49.6,5089],[51.3,5172],[51.3,5256],[51.4,5339],[52.5,5422],[53.1,5506],[53.6,5589],[54.2,5672],[54.3,5756],[54.3,5839],[54.3,5922],[54.3,6006],[54.3,6089],[54.3,6172],[54.3,6256],[54.3,6339],[54.3,6422],[54.3,6506],[54.3,6589],[54.3,6672],[54.3,6756],[54.3,6839],[54.3,6922],[54.3,7006],[54.3,7089],[54.3,7172],[54.3,7256],[54.3,7338],[54.3,7422],[54.3,7506],[54.3,7588],[54.3,7672],[54.3,7756],[54.3,7839],[54.3,7922],[54.3,8006],[54.3,8089],[54.3,8172],[54.3,8256],[54.3,8339],[54.3,8422],[54.3,8506],[54.3,8589],[54.3,8672],[54.3,8756],[54.3,8838],[54.3,8922],[54.3,9006],[54.3,9088],[54.3,9172],[54.3,9256],[54.3,9339],[54.3,9422],[54.3,9506],[54.3,9589],[54.3,9671],[54.3,9756],[54.3,9839],[54.3,9922],[54.3,10006],[54.3,10088],[54.3,10172],[54.3,10256],[54.8,10339],[55.1,10422],[55.5,10506],[56.1,10588],[56.8,10672],[56.8,10756],[57.1,10839],[57.5,10922],[57.5,11006],[57.5,11088],[57.5,11172],[57.5,11256],[57.5,11338],[57.5,11422],[57.5,11506],[57.5,11589],[57.5,11672],[57.5,11756],[57.5,11838],[57.5,11921],[57.5,12006],[57.5,12089],[57.5,12172],[57.5,12256],[57.5,12338],[57.5,12421],[57.5,12506],[57.5,12589],[57.5,12672],[57.5,12756],[57.5,12838],[57.5,12922],[57.5,13006],[57.5,13088],[57.5,13171],[57.5,13256],[57.5,13338],[57.5,13422],[57.5,13506],[57.5,13589],[57.5,13672],[57.5,13756],[57.5,13838],[57.5,13922],[57.5,14006],[57.5,14088],[57.5,14172],[57.5,14256],[57.5,14338],[57.5,14422],[58,14506],[61.7,14588],[62.3,14671],[63.4,14756],[65.4,14838],[70.4,14921],[73.9,15006],[73.9,15088],[73.9,15172],[73.9,15256],[73.9,15338],[73.9,15422],[73.9,15504],[73.9,15588],[73.9,15672],[73.9,15756],[73.9,15838]]",1,0,92.916,All the time,100,102.45,100,8.763,"[{""rating"":99.27083333333333,""responseTime"":6.963999999999999},{""rating"":100,""responseTime"":8.763000000000005}]",space,102.45,104.755,62.8125,2.063,"[{""rating"":62.81250000000001,""responseTime"":2.0630000000000024}]",space,1.792,,0,1,1,1,1,audio/Narrative7Situation1.wav,audio/Narrative8Situation1.wav,audio/Narrative5Situation1.wav,audio/Narrative6Situation1.wav,2,5,5,2,1.14,,9.022,,,,,,,,,,,,,,,,,,,,,,,,,,,,,,,,,,,
,,,,,,5f1b0abbb84a5207673cb637,2024-02-05_16h42.10.891,group3.1-3.2-social-tom,2023.2.2,Win32,144.092219,65b1b24e3a500fd6b5dc9abd,65c154888294498f23430e6e,,,,,,,,,,,,,,,,,,,,,,,,,,,,,104.756,107.762,,107.762,117.865,"[[54.8,665],[49.5,750],[48.3,832],[47.4,916],[47.4,1000],[47.8,1083],[48.4,1166],[49.1,1250],[49.3,1332],[49.3,1416],[49.3,1498],[49.3,1582],[49.3,1665],[49.3,1750],[49.3,1832],[49.3,1915],[49.3,1998],[49.3,2082],[49.3,2166],[49.3,2248],[49.3,2331],[49.4,2415],[49.4,2500],[49.4,2582],[49.4,2666],[49.4,2750],[49.4,2831],[49.4,2915],[49.4,2998],[49.4,3082],[49.4,3165],[49.4,3250],[49.4,3331],[49.4,3415],[49.4,3498],[49.4,3581],[49.4,3665],[49.4,3750],[49.4,3831],[49.5,3915],[55.3,4000],[55.3,4082],[55.3,4166],[55.3,4250],[55.3,4332],[55.3,4415],[55.3,4498],[55.3,4582],[55.3,4665],[55.3,4748],[55.3,4832],[55.3,4915],[55.3,5000],[55.3,5082],[55.3,5165],[55.3,5248],[55.3,5332],[55.3,5415],[55.3,5498],[55.3,5582],[55.3,5665],[55.3,5748],[55.3,5832],[55.3,5915],[55.3,5999],[55.3,6082],[55.3,6165],[55.3,6249],[55.3,6332],[55.3,6415],[55.3,6498],[55.3,6582],[55.3,6665],[55.9,6748],[56.4,6832],[56.7,6915],[57.1,6999],[57.1,7082],[57.1,7165],[57.1,7248],[57.1,7332],[57.1,7415],[57.1,7498],[57.1,7581],[57.1,7665],[57.1,7748],[57.1,7831],[57.1,7915],[57.1,7998],[57.1,8082],[57.1,8165],[57.1,8248],[57.1,8332],[57.1,8414],[57.1,8498],[57.1,8581],[57.1,8664],[59.1,8748],[67.7,8832],[71.3,8915],[71.9,8999],[73.2,9082],[76.6,9165],[78.4,9248],[78.4,9331],[78.4,9414],[78.4,9498],[78.4,9581],[78.4,9664],[78.4,9748],[78.4,9831],[78.4,9915],[78.4,9998],[78.4,10081]]",1,0,117.865,All the time,100,117.866,,,[],,117.866,120.866,65.83333333,2.63,"[{""rating"":68.54166666666667,""responseTime"":1.9470000000000027},{""rating"":65.83333333333333,""responseTime"":2.6299999999999955}]",space,2.48,,0,2,2,2,1,audio/Narrative7Situation2.wav,audio/Narrative8Situation2.wav,audio/Narrative5Situation2.wav,audio/Narrative6Situation2.wav,3,3,3,3,,,,,,,,,,,,,,,,,,,,,,,,,,,,,,,,,,,,,,
,,,,,,5f1b0abbb84a5207673cb637,2024-02-05_16h42.10.891,group3.1-3.2-social-tom,2023.2.2,Win32,144.092219,65b1b24e3a500fd6b5dc9abd,65c154888294498f23430e6e,,,,,,,,,,,,,,,,,,,,,,,,,,,,,120.866,124.871,,124.871,147.238,"[[54.9,501],[52.4,584],[52.4,667],[52.4,751],[52.4,834],[55.3,917],[57.3,1001],[57.3,1084],[57.3,1167],[57.3,1250],[57.3,1334],[57.3,1418],[57.3,1501],[57.3,1584],[57.3,1667],[57.3,1750],[57.3,1834],[57.3,1917],[57.3,2001],[58.1,2084],[61.8,2167],[62.1,2251],[62.7,2334],[63.2,2418],[63.2,2501],[63.2,2584],[63.2,2667],[63.2,2751],[63.2,2832],[63.2,2917],[63.2,3001],[63.2,3084],[63.2,3167],[63.2,3250],[62.7,3334],[62.6,3417],[62.6,3500],[62.6,3584],[62.6,3667],[62.6,3750],[62.6,3834],[62.6,3917],[62.6,4000],[62.6,4082],[62.6,4167],[62.6,4251],[62.6,4334],[62.6,4417],[62.6,4501],[62.6,4584],[62.6,4667],[62.6,4750],[62.6,4834],[62.6,4917],[62.6,5000],[62.6,5082],[62.6,5167],[62.6,5250],[62.6,5332],[62.6,5417],[62.6,5500],[62.6,5582],[61.3,5667],[61,5750],[61,5834],[61.3,5917],[63.5,6000],[65.1,6082],[68.3,6167],[69.6,6250],[69.6,6334],[69.6,6417],[69.6,6500],[69.6,6584],[69.6,6665],[69.6,6750],[69.6,6832],[69.6,6917],[69.6,7000],[69.6,7084],[69.6,7165],[69.6,7250],[69.6,7334],[69.6,7417],[69.6,7500],[69.6,7584],[69.6,7667],[69.6,7750],[69.6,7832],[69.6,7915],[69.6,8000],[69.6,8082],[69.6,8167],[69.6,8250],[69.6,8332],[69.6,8417],[69.6,8500],[69.6,8584],[69.6,8665],[69.6,8750],[69.6,8832],[69.6,8917],[69.6,9000],[69.6,9082],[69.6,9167],[69.6,9250],[69.6,9332],[69.6,9417],[69.9,9500],[74.2,9582],[77.1,9667],[77.6,9750],[77.6,9832],[77.6,9915],[77.6,10000],[77.6,10082],[77.6,10167],[77.6,10250],[77.6,10334],[77.6,10417],[77.6,10500],[77.6,10582],[77.6,10665],[77.6,10750],[77.5,10832],[77.5,10917],[77.5,10998],[77.5,11082],[77.5,11165],[77.5,11250],[77.5,11334],[77.5,11417],[77.5,11500],[77.5,11582],[77.5,11667],[77.5,11750],[77.5,11832],[77.5,11915],[77.5,12000],[77.5,12082],[77.5,12165],[77.5,12248],[77.5,12332],[77.5,12417],[77.5,12500],[77.5,12584],[77.3,12665],[77.3,12750],[77.3,12832],[77.3,12915],[77.3,13000],[77.3,13082],[77.3,13165],[77.3,13250],[77.3,13332],[77.3,13417],[77.3,13500],[77.3,13582],[77.3,13665],[77.3,13748],[77.3,13832],[77.3,13915],[77.3,14000],[77.3,14082],[77.3,14167],[77.3,14250],[77.3,14331],[77.3,14415],[77.3,14500],[77.3,14582],[77.3,14665],[77.3,14748],[77.3,14832],[77.3,14915],[77.3,14998],[77.3,15082],[77.3,15165],[77.3,15250],[77.3,15331],[77.3,15415],[77.3,15500],[77.3,15582],[77.3,15667],[77.3,15748],[77.3,15832],[77.3,15915],[77.3,16000],[77.3,16082],[77.3,16167],[77.3,16248],[77.3,16332],[77.3,16415],[77.3,16500],[77.3,16581],[77.3,16665],[77.3,16750],[77.3,16833],[77.3,16915],[77.3,16998],[77.3,17083],[77.3,17165],[77.3,17250],[77.3,17333],[77.3,17415],[77.3,17500],[77.3,17583],[77.3,17665],[77.3,17748],[77.3,17833],[77.5,17915],[77.6,18000],[77.7,18081],[78.4,18165],[78.4,18248],[78.5,18331],[78.5,18414],[78.5,18500],[78.5,18583],[78.5,18665],[78.5,18748],[78.5,18833],[78.5,18915],[78.5,18998],[78.5,19083],[78.5,19165],[78.5,19250],[78.5,19331],[78.5,19415],[78.5,19498],[79.1,19583],[79.1,19665],[79.1,19748],[79.1,19833],[79.1,19915],[79.1,19998],[79.1,20081],[79.1,20165],[79.1,20250],[79.1,20331],[79.1,20415],[79.1,20498],[79.1,20583],[79.1,20665],[79.1,20748],[79.1,20831],[79.1,20915],[79.1,20998],[79.1,21083],[79.1,21173],[79.1,21256],[79.1,21340],[79.1,21421],[79.1,21506],[79.1,21589],[79.1,21673],[79.1,21756],[79.1,21839],[79.1,21923],[79.1,22006],[79.1,22089],[79.1,22171],[79.1,22256],[79.1,22340]]",1,0,147.239,Half the time,50,147.243,,,[],,147.244,149.627,67.5,1.565,"[{""rating"":67.5,""responseTime"":1.5649999999999977}]",space,1.868,,0,3,3,3,1,audio/Narrative7Situation3.wav,audio/Narrative8Situation3.wav,audio/Narrative5Situation3.wav,audio/Narrative6Situation3.wav,8,4,3,5,,,,,,,,,,,,,,,,,,,,,,,,,,,,,,,,,,,,,,
,,,,,,5f1b0abbb84a5207673cb637,2024-02-05_16h42.10.891,group3.1-3.2-social-tom,2023.2.2,Win32,144.092219,65b1b24e3a500fd6b5dc9abd,65c154888294498f23430e6e,,,,,,,,,,,,,,,,,,,,,,,,,,,,,149.628,152.634,,152.634,166.793,"[[53.4,1250],[53.4,1332],[53.4,1415],[55.6,1500],[57.6,1582],[59.1,1665],[60.1,1748],[60.7,1832],[61.1,1917],[61.5,2000],[61.5,2082],[61.5,2165],[61.5,2250],[61.5,2331],[61.5,2415],[61.5,2500],[61.5,2582],[61.5,2665],[61.5,2748],[61.5,2832],[61.5,2915],[61.5,2998],[61.5,3082],[61.5,3165],[61.5,3250],[61.5,3332],[61.5,3415],[61.5,3500],[61.5,3581],[61.5,3665],[61.5,3748],[61.5,3832],[61.5,3915],[62.4,4000],[64.1,4082],[65.1,4165],[67.2,4248],[71.5,4332],[72.9,4415],[72.9,4498],[72.9,4582],[72.9,4665],[72.9,4748],[72.9,4831],[72.9,4915],[72.9,4998],[72.9,5082],[72.9,5165],[72.9,5250],[72.9,5332],[72.9,5415],[72.9,5498],[72.9,5581],[72.9,5665],[72.9,5748],[72.9,5832],[72.9,5914],[72.9,5998],[73.2,6082],[80.3,6165],[85.7,6250],[87.6,6331],[87.6,6415],[87.6,6500],[87.6,6582],[87.6,6665],[87.6,6748],[87.6,6832],[87.6,6915],[87.6,6998],[87.9,7082],[86.6,7832],[86.6,7915],[86.6,7998],[86.6,8082],[86.6,8165],[86.6,8248],[86.6,8331],[86.6,8421],[86.6,8506],[86.6,8590],[86.6,8673],[86.6,8754],[86.6,8838],[86.6,8923],[86.6,9006],[86.6,9088],[86.6,9171],[86.6,9256],[86.6,9338],[86.6,9421],[86.6,9506],[86.6,9588],[86.6,9671],[86.6,9756]]",1,0,166.793,Not at all,0,166.797,,,[],,166.797,168.501,80.83333333,1.154,"[{""rating"":80.83333333333333,""responseTime"":1.1540000000000248}]",space,1.188,,0,4,4,4,1,audio/Narrative7Situation4.wav,audio/Narrative8Situation4.wav,audio/Narrative5Situation4.wav,audio/Narrative6Situation4.wav,3,3,1,2,,,,,,,,,,,,,,,,,,,,,,,,,,,,,,,,,,,,,,
,,,,,,5f1b0abbb84a5207673cb637,2024-02-05_16h42.10.891,group3.1-3.2-social-tom,2023.2.2,Win32,144.092219,65b1b24e3a500fd6b5dc9abd,65c154888294498f23430e6e,,,,,,,,,,,,,,,,,,,,,,,,,,,,,168.502,170.508,,170.508,178.736,"[[77.8,832],[72.5,915],[72.4,1000],[72,1082],[72,1165],[72,1248],[72,1332],[72,1414],[72,1498],[72,1581],[72,1665],[72,1748],[72,1831],[72,1915],[72,1998],[72,2081],[72,2165],[72,2248],[72,2331],[72,2415],[72,2498],[72.6,2582],[73.1,2664],[73.5,2748],[73.5,2832],[73.5,2915],[73.5,2998],[73.5,3081],[73.5,3165],[75.4,3250],[75.4,3331],[75.4,3414],[75.4,3498],[75.4,3581],[75.4,3665],[75.4,3748],[75.4,3832],[75.4,3914],[75.4,3998],[75.4,4082],[75.4,4164],[75.4,4248],[75.4,4331],[75.4,4414],[75.4,4498],[75.4,4581],[75.4,4665],[75.4,4748],[75.4,4831],[75.4,4915],[75.4,4998],[75.4,5081],[75.4,5165],[75.4,5248],[75.4,5332],[75.4,5414],[75.4,5498],[75.4,5581],[75.4,5665],[75.4,5748],[75.4,5831],[75.4,5915],[75.4,5998],[75.4,6081],[75.4,6164],[75.4,6248],[75.4,6331],[75.4,6414],[75.4,6498],[75.4,6582],[75.4,6664],[75.4,6748],[75.4,6831],[75.4,6915],[75.4,6998],[75.4,7081],[75.4,7164],[75.4,7247],[75.4,7332],[75.4,7414],[75.4,7498],[75.4,7581],[75.4,7664],[75.4,7748],[75.4,7831],[75.4,7914],[75.4,7998],[75.4,8081],[75.4,8165]]",1,0,178.736,Not at all,0,178.738,,,[],,178.738,181.639,70.83333333,2.354,"[{""rating"":70.83333333333334,""responseTime"":2.3540000000000134}]",space,2.383,,0,5,5,5,1,audio/Narrative7Situation5.wav,audio/Narrative8Situation5.wav,audio/Narrative5Situation5.wav,audio/Narrative6Situation5.wav,5,2,5,2,,,,,,,,,,,,,,,,,,,,,,,,,,,,,,,,,,,,,,
,,,,,,5f1b0abbb84a5207673cb637,2024-02-05_16h42.10.891,group3.1-3.2-social-tom,2023.2.2,Win32,144.092219,65b1b24e3a500fd6b5dc9abd,65c154888294498f23430e6e,,,,,,,,,,,,,,,,,,,,,,,,,,,,,181.639,183.646,,183.646,190.103,"[[70.6,2331],[70.5,2415],[70.5,2498],[70.5,2581],[70.5,2665],[70.5,2748],[72.4,2832],[73.1,2915],[73.6,2998],[74.2,3082],[74.3,3165],[74.5,3248],[74.5,3331],[74.5,3415],[74.5,3498],[74.5,3581],[74.5,3665],[74.5,3748],[74.5,3831],[74.5,3915],[74.5,3998],[74.5,4081],[74.5,4164],[74.5,4248],[74.5,4332],[74.5,4415],[74.5,4498],[74.5,4582],[74.5,4665],[74.5,4748],[74.5,4831],[74.5,4915],[74.5,4998],[74.5,5081],[74.5,5165],[74.5,5248],[74.5,5331],[74.5,5414],[74.5,5498],[74.5,5581],[74.5,5664],[74.5,5748],[74.5,5832],[74.5,5914],[74.5,5998],[74.5,6082],[74.5,6165],[74.5,6248],[74.5,6331],[74.5,6415]]",1,0,190.103,Not at all,0,190.105,,,[],,190.105,191.888,72.08333333,1.113,"[{""rating"":72.08333333333333,""responseTime"":1.1129999999999995}]",space,1.264,,0,6,6,6,1,audio/Narrative7Situation6.wav,audio/Narrative8Situation6.wav,audio/Narrative5Situation6.wav,audio/Narrative6Situation6.wav,3,2,3,2,,,,,,,,,,,,,,,,,,,,,,,,,,,,,,,,,,,,,,
,,,,,,5f1b0abbb84a5207673cb637,2024-02-05_16h42.10.891,group3.1-3.2-social-tom,2023.2.2,Win32,144.092219,65b1b24e3a500fd6b5dc9abd,65c154888294498f23430e6e,,,,,,,,,,,,,,,,,,,,,,,,,,,,,191.889,194.895,,194.895,206.97,"[[76.7,832],[78.6,915],[78.8,998],[78.8,1082],[78.8,1165],[78.8,1248],[77.8,1332],[75.8,1415],[75.4,1498],[75.4,1582],[75.4,1665],[75.4,1748],[75.4,1832],[75.4,1915],[75.4,1998],[75.4,2081],[75.4,2165],[75.4,2248],[75.4,2332],[75.4,2415],[75.4,2498],[75.4,2581],[75.4,2665],[75.4,2750],[75,2832],[75,2915],[74.4,2998],[73.4,3081],[73.3,3165],[73.3,3248],[73.3,3331],[74.2,3415],[75.6,3498],[75.9,3581],[76.3,3665],[77.2,3750],[78.4,3832],[79.6,3915],[80.1,4000],[80.4,4081],[80.4,4165],[80.4,4248],[80.4,4332],[80.4,4415],[80.4,4500],[80.4,4581],[80.4,4665],[80.4,4748],[80.4,4832],[80.4,4915],[80.4,4998],[80.4,5082],[80.4,5165],[80.4,5248],[80.4,5331],[80.4,5414],[80.4,5498],[80.4,5582],[80.4,5665],[80.4,5748],[80.4,5831],[80.4,5915],[80.3,5998],[80.3,6081],[80.3,6165],[80.3,6248],[79.1,6331],[78.4,6414],[78.4,6498],[77.7,6581],[75.2,6665],[75,6748],[74.7,6831],[74.7,6915],[74.7,6998],[74.7,7081],[74.7,7165],[74.7,7248],[74.7,7331],[74.7,7415],[74.7,7498],[74.7,7581],[74.7,7664],[74.7,7748],[74.7,7832],[74.7,7914],[74.7,7998],[74.7,8081],[74.7,8165],[74.7,8248],[74.7,8331],[74.7,8415],[74.7,8497],[74.7,8581],[74.7,8665],[74.7,8748],[74.7,8831],[74.7,8914],[74.7,8998],[74.7,9081],[74.7,9165],[74.7,9248],[74.7,9331],[74.7,9414],[74.7,9498],[74.7,9582],[74.7,9665],[74.7,9748],[74.7,9831],[74.7,9914],[74.7,9998],[74.7,10081],[74.7,10164],[75.2,10248],[81.3,10331],[87.6,10414],[88.8,10498],[88.8,10581],[90.3,10664],[91.8,10748],[92.4,10831],[92.4,10915],[92.4,10997],[92.4,11081],[92.4,11164],[92.4,11248],[92.4,11331],[92.4,11415],[92.4,11498],[92.4,11581],[90.6,11664],[89.6,11747],[89.6,11831],[89.5,11914],[89.3,11998]]",1,0,206.971,Not at all,0,206.973,,,[],,206.973,208.693,84.58333333,1.105,"[{""rating"":84.58333333333333,""responseTime"":1.1049999999999898}]",space,1.206,,0,7,7,7,1,audio/Narrative7Situation7.wav,audio/Narrative8Situation7.wav,audio/Narrative5Situation7.wav,audio/Narrative6Situation7.wav,5,3,4,5,,,,,,,,,,,,,,,,,,,,,,,,,,,,,,,,,,,,,,
,,,,,,5f1b0abbb84a5207673cb637,2024-02-05_16h42.10.891,group3.1-3.2-social-tom,2023.2.2,Win32,144.092219,65b1b24e3a500fd6b5dc9abd,65c154888294498f23430e6e,,,,,,,,,,,,,,,,,,,,,,,,,,,,,208.693,211.699,,211.699,224.539,"[[80.6,582],[79.7,665],[77.5,750],[77.5,832],[77.5,917],[77.5,998],[77.5,1082],[77.5,1165],[77.5,1250],[77.5,1332],[77.5,1415],[77.5,1500],[77.5,1582],[77.5,1665],[77.5,1750],[77.5,1832],[77.5,1917],[77.5,2000],[77.5,2082],[77.5,2165],[77.5,2248],[77.5,2332],[77.5,2415],[77.5,2500],[77.5,2582],[77.5,2665],[77.5,2748],[77.5,2832],[77.5,2915],[77.5,3000],[77.5,3082],[77.5,3165],[77.5,3248],[77.5,3332],[77.5,3417],[77.5,3498],[77.5,3582],[77.5,3665],[77.5,3748],[77.5,3832],[77.5,3915],[77.5,4000],[77.5,4082],[77.5,4167],[81.3,8415],[80.9,8498],[81.8,8582],[83.2,8665],[83.8,8748],[83.9,8832],[84.2,8915],[84.2,8998],[84.2,9082],[84.7,9165],[84.7,9250],[84.7,9331],[84.7,9415],[84.7,9498],[84.7,9581],[84.7,9665],[84.7,9750],[84.7,9832],[84.7,9914],[84.7,9998],[84.7,10082],[84.7,10165],[85.8,10248],[87.2,10331],[87.6,10415],[89.3,10500],[89.3,10581],[89.3,10665],[89.3,10748],[89.3,10831],[89.3,10915],[89.3,10998],[89.3,11082],[89.3,11165],[89.3,11248],[89.3,11332],[89.3,11415],[89.3,11498],[89.1,11582],[87.7,11665],[86.8,11748],[85.5,11831],[85.2,11915],[85.2,11998],[85.2,12081],[85.2,12165],[85.2,12248],[85.2,12331],[85.2,12414],[85.2,12498],[85.2,12581],[85.2,12664],[85.2,12748],[85.2,12832]]",1,0,224.539,All the time,100,224.544,,,[],,224.544,226.142,82.91666667,1.089,"[{""rating"":82.91666666666666,""responseTime"":1.0889999999999986}]",space,1.084,,0,8,8,8,1,audio/Narrative7Situation8.wav,audio/Narrative8Situation8.wav,audio/Narrative5Situation8.wav,audio/Narrative6Situation8.wav,2,3,3,5,,,,,,,,,,,,,,,,,,,,,,,,,,,,,,,,,,,,,,
,,,,,,5f1b0abbb84a5207673cb637,2024-02-05_16h42.10.891,group3.1-3.2-social-tom,2023.2.2,Win32,144.092219,65b1b24e3a500fd6b5dc9abd,65c154888294498f23430e6e,,,,,,,,,,,,,,,,,,,,,,,,,,,,,226.143,229.15,,229.15,240.454,"[[80,832],[76.9,914],[76.6,998],[74.8,1081],[73.5,1165],[73.5,1248],[73.5,1332],[73.5,1414],[73.5,1498],[73.5,1581],[73.5,1664],[73.5,1748],[73.5,1832],[73.5,1915],[73.5,1998],[73.5,2081],[73.5,2164],[73.5,2248],[73.5,2331],[73.5,2414],[73.5,2497],[73.5,2581],[73.5,2665],[73.5,2748],[73.5,2832],[73.5,2914],[73.5,2998],[73.5,3081],[73.5,3165],[73.5,3248],[73.5,3331],[73.5,3415],[73.5,3497],[75.2,3581],[77.4,3665],[78.1,3748],[78.2,3831],[79,3914],[79.1,3997],[79.1,4081],[79.1,4164],[79.1,4248],[79.1,4331],[79.1,4414],[79.1,4498],[79.1,4581],[79.1,4665],[79.1,4748],[79.1,4831],[79.1,4914],[79.1,4998],[79.1,5081],[79.1,5164],[79.1,5247],[79.1,5332],[79.1,5414],[79.1,5497],[79.1,5581],[79.1,5664],[79.1,5748],[79.1,5831],[79.1,5915],[79.1,5997],[81,6081],[88.6,6164],[88.8,6247],[88.8,6331],[88.8,6414],[88.8,6497],[88.8,6581],[88.8,6664],[88.8,6748],[88.8,6831],[88.8,6914],[88.8,6998],[88.8,7081],[88.8,7165],[88.8,7247],[88.8,7331],[88.8,7414],[88.8,7497],[88.8,7581],[88.8,7665],[88.8,7747],[88.8,7831],[88.8,7914],[88.8,7997],[88.8,8081],[88.8,8164],[88.8,8247],[88.8,8331],[88.8,8414],[88.8,8497],[88.8,8581],[88.8,8664],[88.8,8748],[88.8,8831],[88.8,8914],[88.8,8997],[88.8,9081],[88.8,9164],[88.8,9247],[88.8,9331],[88.8,9414],[88.8,9498],[88.8,9581],[88.8,9664],[88.8,9748],[88.8,9831],[88.8,9914],[88.8,9997],[88.8,10081],[88.8,10164],[88.8,10247],[88.8,10331],[88.8,10414],[88.8,10497],[88.8,10581],[88.8,10664],[88.8,10747],[88.8,10831],[88.8,10914],[88.8,10998],[88.8,11081],[88.8,11164],[88.8,11247]]",1,0,240.455,Not at all,0,240.457,,,[],,240.457,242.774,85.52083333,1.102,"[{""rating"":85.52083333333333,""responseTime"":1.1019999999999754}]",space,1.798,,0,9,9,9,1,audio/Narrative7Situation9.wav,audio/Narrative8Situation9.wav,audio/Narrative5Situation9.wav,audio/Narrative6Situation9.wav,2,3,3,4,,,,,,,,,,,,,,,,,,,,,,,,,,,,,,,,,,,,,,
,,,,,,5f1b0abbb84a5207673cb637,2024-02-05_16h42.10.891,group3.1-3.2-social-tom,2023.2.2,Win32,144.092219,65b1b24e3a500fd6b5dc9abd,65c154888294498f23430e6e,,,,,,,,,,,,,,,,,,,,,,,,,,,,,242.774,244.78,,244.78,300.651,"[[52.8,1257],[52.8,1340],[52.8,1424],[52.8,1507],[52.1,1590],[50.9,1673],[50.2,1757],[50,1840],[50,1923],[50,2007],[50,2090],[50,2174],[50,2257],[50,2340],[50,2423],[50,2506],[50,2590],[50,2673],[50,2756],[50,2840],[50,2924],[50,3006],[50,3090],[50,3180],[50,3263],[50,3346],[50,3430],[50,3514],[50,3596],[50,3680],[50,3764],[50,3846],[50,3930],[50.3,4013],[51.5,4096],[52.5,4180],[54.2,4264],[55.3,4346],[55.8,4430],[55.8,4514],[55.8,4596],[55.8,4680],[55.8,4764],[55.8,4846],[55.8,4930],[55.8,5014],[55.8,5096],[55.8,5180],[55.8,5263],[55.8,5346],[55.8,5430],[55.8,5514],[55.8,5596],[55.8,5680],[55.8,5763],[55.8,5846],[55.8,5930],[55.8,6013],[55.8,6096],[55.8,6180],[55.8,6264],[55.8,6346],[55.8,6430],[55.8,6513],[55.8,6596],[55.8,6680],[55.8,6763],[55.8,6846],[55.8,6930],[55.8,7013],[55.8,7096],[55.8,7180],[55.8,7263],[55.8,7346],[55.8,7430],[55.8,7514],[55.8,7596],[55.8,7680],[55.8,7763],[55.8,7846],[55.8,7930],[55.8,8013],[57.9,8096],[61,8180],[61.4,8263],[61.4,8346],[61.4,8430],[61.4,8514],[61.4,8596],[61.4,8680],[61.4,8763],[61.4,8846],[61.4,8930],[61.4,9013],[61.4,9096],[61.4,9179],[61.4,9264],[61.4,9346],[61.4,9430],[61.4,9513],[61.4,9596],[61.4,9680],[61.4,9763],[61.4,9846],[61.4,9930],[61.4,10014],[61.4,10096],[61.4,10179],[61.4,10263],[61.4,10346],[61.4,10430],[61.4,10513],[61.4,10596],[61.4,10680],[61.4,10764],[61.4,10846],[61.4,10930],[61.4,11013],[61.4,11096],[61.4,11180],[61.4,11263],[61.4,11346],[61.4,11429],[61.4,11513],[61.4,11596],[61.4,11679],[61.4,11763],[61.4,11846],[61.4,11929],[61.4,12013],[61.4,12096],[61.4,12182],[61.4,12263],[61.4,12346],[61.4,12430],[61.4,12513],[61.4,12596],[61.4,12680],[61.4,12763],[61.4,12846],[61.4,12930],[61.4,13013],[61.4,13096],[61.4,13179],[61.4,13263],[61.8,13346],[62.8,13430],[63.5,13513],[63.8,13596],[64.3,13680],[66.9,13763],[69.9,13846],[70.4,13930],[70.4,14013],[70.4,14096],[70.4,14179],[70.4,14263],[70.4,14346],[70.4,14429],[70.4,14513],[70.4,14596],[70.4,14679],[70.4,14762],[70.4,14846],[70.4,14930],[70.4,15013],[70.4,15096],[70.4,15179],[70.4,15263],[70.4,15346],[70.4,15430],[70.4,15513],[70.4,15596],[70.4,15679],[70.4,15763],[70.4,15846],[70.4,15929],[70.4,16012],[70.4,16096],[70.4,16180],[70.4,16263],[70.4,16346],[70.4,16429],[70.4,16512],[70.4,16596],[70.4,16680],[70.4,16763],[70.4,16846],[70.4,16929],[70.4,17013],[70.4,17096],[70.4,17179],[70.4,17263],[70.4,17346],[70.4,17429],[70.4,17513],[70.4,17596],[70.4,17679],[70.4,17763],[70.4,17846],[70.4,17929],[70.4,18013],[70.4,18096],[70.4,18180],[70.4,18262],[70.4,18345],[70.4,18429],[70.4,18513],[70.4,18596],[70.4,18680],[70.4,18763],[70.4,18846],[70.4,18930],[70.4,19013],[70.4,19096],[70.4,19179],[70.4,19262],[70.4,19346],[70.4,19429],[70.4,19512],[70.4,19596],[70.4,19680],[70.4,19762],[70.4,19846],[70.4,19929],[70.4,20013],[70.4,20096],[70.4,20179],[70.4,20262],[70.4,20346],[70.4,20429],[70.4,20513],[70.4,20595],[70.4,20679],[70.4,20762],[70.4,20846],[70.4,20929],[70.4,21012],[70.4,21096],[70.4,21179],[70.4,21262],[70.4,21345],[70.4,21429],[70.4,21513],[70.4,21596],[70.4,21679],[70.4,21762],[70.4,21846],[70.4,21929],[70.4,22012],[70.4,22096],[70.4,22179],[70.4,22262],[70.4,22345],[70.4,22429],[70.4,22512],[70.4,22595],[70.4,22679],[70.4,22763],[70.4,22846],[70.4,22929],[70.4,23013],[70.4,23096],[70.4,23179],[70.4,23262],[70.4,23346],[70.4,23429],[70.4,23512],[70.4,23596],[70.4,23679],[70.4,23762],[70.4,23845],[70.4,23929],[70.4,24012],[70.4,24095],[70.4,24179],[70.4,24262],[70.4,24345],[70.4,24429],[70.4,24512],[70.4,24595],[70.4,24679],[70.4,24762],[70.4,24846],[70.4,24929],[70.4,25012],[70.4,25096],[70.4,25177],[70.4,25262],[70.4,25345],[70.4,25427],[70.4,25512],[70.4,25596],[70.4,25679],[70.4,25762],[70.4,25846],[70.4,25929],[70.4,26012],[70.4,26096],[70.4,26179],[70.4,26262],[70.4,26345],[70.4,26427],[77.7,34595],[77.7,34678],[77.6,34761],[77.6,34845],[77.6,34928],[77.6,35012],[77.6,35095],[77.6,35178],[77.6,35261],[77.6,35343],[77.6,35428],[77.6,35511],[77.6,35595],[77.6,35678],[77.6,35762],[77.6,35845],[78.8,35928],[78.8,36011],[78.8,36095],[78.8,36178],[78.8,36262],[80.9,36343],[80.4,36428],[80.4,36512],[80.4,36595],[80.4,36678],[80.4,36761],[80.4,36845],[79.4,36928],[79.3,37011],[79.3,37093],[79.3,37178],[79.3,37261],[79.3,37343],[79.3,37427],[79.3,37511],[79,37595],[78.3,37678],[78.3,37762],[85.4,47684],[86,47766],[86.4,47851],[86.6,47934],[86.6,48018],[86.6,48101],[86.6,48185],[86.6,48266],[86.6,48351],[86.6,48434],[86.6,48516],[86.6,48600],[86.6,48684],[86.6,48766],[86.6,48850],[85.2,49350],[85.2,49432],[85.2,49516],[85.2,49601],[85.2,49684],[85.2,49766],[85.2,49851],[85.2,49934],[85.2,50016],[85.2,50101],[85.2,50184],[85.2,50266],[85.2,50351],[85.2,50434],[85.2,50516],[85.2,50601],[85.2,50684],[85.2,50766],[85.2,50850],[85.2,50934],[85.2,51016],[85.2,51100],[85.2,51184],[85.2,51266],[85.2,51350],[85.2,51434],[85.2,51518],[85.2,51600],[85.2,51684],[85.2,51766],[85.2,51851],[85.2,51934],[85.2,52016],[85.2,52101],[85.2,52184],[85.2,52266],[85.2,52350],[85.2,52432],[85.2,52516],[85.2,52600],[85.2,52682],[85.2,52766],[85.2,52850],[85.2,52934],[85.2,53016],[85.2,53100],[85.2,53184],[85.2,53266],[85.2,53351],[85.2,53434],[85.2,53516],[85.2,53600],[85.2,53682],[84.3,55266],[84.3,55350],[84.1,55432],[83.9,55516],[83.9,55601],[83.9,55682],[83.9,55766],[83.9,55850]]",1,0,300.652,Not at all,0,300.654,,,[],,300.654,303.2,79.27083333,2.015,"[{""rating"":79.27083333333333,""responseTime"":2.0149999999999864}]",space,2.029,,0,10,10,10,1,audio/Narrative8Situation1.wav,audio/Narrative7Situation1.wav,audio/Narrative6Situation1.wav,audio/Narrative5Situation1.wav,5,2,2,5,,,,,,,,,,,,,,,,,,,,,,,,,,,,,,,,,,,,,,
,,,,,,5f1b0abbb84a5207673cb637,2024-02-05_16h42.10.891,group3.1-3.2-social-tom,2023.2.2,Win32,144.092219,65b1b24e3a500fd6b5dc9abd,65c154888294498f23430e6e,,,,,,,,,,,,,,,,,,,,,,,,,,,,,303.2,306.2,,306.2,313.665,"[[999,0],[999,82],[999,165],[999,248],[999,332],[999,415],[999,498],[999,581],[999,665],[77,748],[75.8,832],[75.3,915],[75.2,998],[75.2,1082],[75.2,1165],[75.2,1250],[75.2,1331],[75.2,1415],[75.2,1498],[75.2,1581],[75.2,1665],[75.2,1748],[75.2,1831],[75.2,1914],[75.2,1998],[75.2,2082],[75.2,2165],[75.2,2248],[75.2,2332],[75.2,2414],[75.2,2498],[75.2,2581],[75.2,2665],[75.2,2748],[75.2,2831],[75.2,2915],[75.2,2998],[75.2,3082],[75.2,3165],[75.2,3248],[75.2,3331],[75.2,3415],[75.2,3498],[75.2,3581],[75.2,3664],[75.2,3748],[75.2,3831],[75.2,3915],[75.2,3998],[75.2,4088],[75.2,4171],[75.2,4255],[75.2,4338],[75.2,4423],[75.2,4504],[75.2,4589],[75.2,4671],[75.2,4755],[75.2,4838],[75.2,4921],[75.2,5005],[75.2,5088],[75.2,5173],[75.2,5255],[75.2,5338],[75.2,5421],[75.2,5504],[75.2,5588],[75.2,5673],[75.2,5755],[75.2,5838],[75.6,5921],[76.5,6004],[76.9,6088],[77.1,6173],[77.1,6255],[77.1,6338],[77.1,6421],[77.1,6504],[77.1,6588],[77.1,6673],[77.1,6755],[77.1,6838],[77.1,6921],[77.1,7005],[77.1,7088],[78.8,7171],[79.4,7254],[79.4,7338],[79.4,7421]]",1,0,313.665,All the time,100,313.667,,,[],,313.667,330.753,75.625,1.265,"[{""rating"":75.625,""responseTime"":1.2649999999999864}]",space,16.572,,0,11,11,11,1,audio/Narrative8Situation2.wav,audio/Narrative7Situation2.wav,audio/Narrative6Situation2.wav,audio/Narrative5Situation2.wav,3,3,3,3,,,,,,,,,,,,,,,,,,,,,,,,,,,,,,,,,,,,,,
,,,,,,5f1b0abbb84a5207673cb637,2024-02-05_16h42.10.891,group3.1-3.2-social-tom,2023.2.2,Win32,144.092219,65b1b24e3a500fd6b5dc9abd,65c154888294498f23430e6e,,,,,,,,,,,,,,,,,,,,,,,,,,,,,330.754,338.759,,338.759,348.002,"[[999,1],[999,84],[999,167],[999,250],[999,333],[999,417],[999,500],[71.8,584],[72.7,667],[72.7,750],[72.7,834],[72.7,917],[72.7,1001],[72.7,1083],[72.7,1167],[72.7,1251],[72.9,1334],[73.2,1417],[73.2,1500],[73.2,1584],[73.2,1667],[72.2,1750],[72.2,1834],[72.2,1917],[72.2,2000],[72.2,2084],[73.4,2167],[75.6,2250],[77.4,2334],[79,2417],[79.6,2500],[79.6,2583],[79.6,2667],[79.6,2750],[79.6,2834],[79.6,2917],[79.6,3000],[79.6,3084],[79.6,3167],[79.6,3250],[79.6,3333],[79.6,3417],[79.6,3501],[79.6,3583],[79.6,3667],[79.6,3751],[79.6,3834],[79.6,3917],[79.6,4000],[79.6,4084],[79.6,4167],[79.6,4250],[79.6,4333],[79.6,4415],[79.6,4500],[79.6,4584],[79.6,4667],[79.6,4750],[79.6,4833],[79.6,4917],[79.6,5000],[79.6,5083],[79.6,5174],[79.6,5257],[79.6,5340],[79.6,5423],[79.6,5507],[79.6,5591],[79.6,5673],[79.6,5757],[79.6,5841],[79.6,5923],[79.6,6007],[79.6,6090],[79.6,6174],[79.6,6257],[79.6,6340],[79.6,6423],[79.6,6507],[79.6,6590],[79.6,6673],[79.6,6757],[79.6,6841],[79.6,6923],[79.6,7006],[79.6,7090],[79.6,7174],[79.6,7257],[79.6,7340],[79.6,7424],[79.6,7507],[79.6,7590],[79.6,7674],[79.6,7757],[79.6,7840],[79.6,7923],[79.6,8007],[79.6,8090],[79.6,8173],[79.6,8257],[79.6,8340],[79.6,8423],[79.6,8506],[79.6,8590],[79.6,8674],[79.6,8756],[79.6,8840],[79.6,8923],[79.6,9007],[79.6,9090],[79.6,9174]]",1,0,348.002,Not at all,0,348.005,,,[],,348.005,349.481,78.75,1.098,"[{""rating"":78.75,""responseTime"":1.0980000000000132}]",space,0.959,,0,12,12,12,1,audio/Narrative8Situation3.wav,audio/Narrative7Situation3.wav,audio/Narrative6Situation3.wav,audio/Narrative5Situation3.wav,4,8,5,3,,,,,,,,,,,,,,,,,,,,,,,,,,,,,,,,,,,,,,
,,,,,,5f1b0abbb84a5207673cb637,2024-02-05_16h42.10.891,group3.1-3.2-social-tom,2023.2.2,Win32,144.092219,65b1b24e3a500fd6b5dc9abd,65c154888294498f23430e6e,,,,,,,,,,,,,,,,,,,,,,,,,,,,,349.481,352.481,,352.481,364.195,"[[78.1,1000],[77.6,1082],[77.4,1165],[77.4,1248],[77.4,1332],[77.4,1416],[77.4,1500],[77.4,1582],[77.4,1665],[77.4,1750],[77.4,1832],[77.4,1915],[77.4,1998],[77.4,2082],[77.4,2165],[77.4,2248],[77.4,2332],[77.4,2416],[78.6,2498],[79.2,2582],[80.1,2666],[80.6,2750],[80.6,2832],[80.6,2915],[80.6,3000],[80.6,3082],[80.6,3165],[80.6,3250],[80.6,3332],[80.6,3415],[80.6,3498],[80.6,3582],[80.6,3665],[80.6,3748],[80.6,3831],[80.6,3915],[80.6,4000],[80.6,4082],[80.6,4165],[80.6,4248],[80.6,4331],[80.6,4415],[80.6,4500],[80.6,4582],[80.6,4665],[80.6,4748],[80.6,4832],[80.6,4915],[80.6,4998],[80.6,5082],[80.6,5165],[80.6,5248],[80.6,5332],[80.6,5415],[80.6,5500],[80.6,5581],[80.6,5665],[80.6,5748],[80.6,5832],[80.6,5915],[80.6,5998],[80.6,6082],[80.6,6164],[80.6,6248],[80.6,6332],[80.6,6415],[80.6,6498],[80.6,6581],[80.6,6665],[80.6,6750],[80.6,6832],[80.6,6915],[80.6,6998],[80.6,7082],[80.6,7165],[80.6,7250],[80.6,7332],[80.6,7415],[80.6,7498],[80.6,7582],[80.6,7665],[80.6,7748],[80.6,7831],[80.6,7915],[80.6,7998],[81.1,8081],[81.8,8165],[82.5,8248],[82.9,8331],[83.1,8415],[83.2,8498],[83.2,8582],[83.2,8664],[83.2,8748],[83.2,8832],[83.2,8915],[83,8998],[83,9082],[83,9165],[83,9248],[83,9331],[83,9415],[83,9498],[83,9581],[83,9664],[83,9748],[83,9832],[83,9914],[83,9998],[83,10081],[83,10165],[83,10248],[83,10331],[83,10414],[83,10498],[83,10582],[83,10665],[83,10748],[83,10831],[83.4,10915],[83.3,11414],[83.3,11498],[83.3,11581],[83.3,11665]]",1,0,364.196,All the time,100,364.2,,,[],,364.2,367.813,81.04166667,2.707,"[{""rating"":81.04166666666667,""responseTime"":2.7069999999999936}]",space,3.1,,0,13,13,13,1,audio/Narrative8Situation4.wav,audio/Narrative7Situation4.wav,audio/Narrative6Situation4.wav,audio/Narrative5Situation4.wav,3,3,2,1,,,,,,,,,,,,,,,,,,,,,,,,,,,,,,,,,,,,,,
,,,,,,5f1b0abbb84a5207673cb637,2024-02-05_16h42.10.891,group3.1-3.2-social-tom,2023.2.2,Win32,144.092219,65b1b24e3a500fd6b5dc9abd,65c154888294498f23430e6e,,,,,,,,,,,,,,,,,,,,,,,,,,,,,367.814,372.82,,372.82,381.291,"[[78.4,665],[77,750],[76.6,832],[76.6,915],[76.6,1000],[76.6,1082],[76.6,1165],[76.6,1250],[76.6,1332],[76.6,1416],[76.6,1498],[76.6,1582],[76.6,1665],[76.6,1748],[76.6,1832],[76.6,1915],[76.6,2000],[76.6,2082],[76.6,2165],[76.6,2250],[76.6,2332],[76.6,2415],[76.6,2498],[76.6,2582],[76.6,2665],[76.6,2748],[76.6,2832],[76.6,2915],[76.6,2998],[76.6,3082],[80.6,3166],[81.6,3250],[81.6,3331],[81.6,3415],[81.6,3500],[81.6,3582],[81.6,3665],[81.6,3750],[81.6,3832],[81.6,3915],[81.6,3998],[81.6,4082],[81.6,4165],[81.6,4248],[81.6,4331],[81.6,4415],[81.6,4500],[81.6,4581],[81.6,4665],[81.6,4748],[81.6,4831],[81.6,4915],[81.6,4998],[81.6,5082],[81.6,5164],[81.6,5248],[81.6,5332],[81.6,5415],[81.6,5498],[81.6,5581],[81.6,5665],[81.6,5748],[81.6,5832],[81.6,5915],[81.6,5998],[81.6,6081],[81.6,6165],[81.6,6250],[81.6,6331],[81.6,6415],[82.5,6500],[82.9,6582],[83.1,6664],[83.2,6748],[83.2,6831],[83.2,6915],[83.2,6998],[83.2,7081],[83.2,7165],[83.2,7248],[83.2,7332],[83.2,7415],[83.2,7498],[83.2,7581],[83.2,7664],[83.2,7748],[83.2,7831],[83.2,7915],[83.2,7998],[83.2,8082],[83.2,8165],[83.2,8248],[83.2,8331],[83.2,8415]]",1,0,381.292,Not at all,0,381.295,,,[],,381.295,383.069,81.5625,1.346,"[{""rating"":81.5625,""responseTime"":1.3460000000000036}]",space,1.26,,0,14,14,14,1,audio/Narrative8Situation5.wav,audio/Narrative7Situation5.wav,audio/Narrative6Situation5.wav,audio/Narrative5Situation5.wav,2,5,2,5,,,,,,,,,,,,,,,,,,,,,,,,,,,,,,,,,,,,,,
,,,,,,5f1b0abbb84a5207673cb637,2024-02-05_16h42.10.891,group3.1-3.2-social-tom,2023.2.2,Win32,144.092219,65b1b24e3a500fd6b5dc9abd,65c154888294498f23430e6e,,,,,,,,,,,,,,,,,,,,,,,,,,,,,383.07,386.076,,386.076,396.034,"[[79.6,499],[79.5,581],[79.4,665],[79.3,749],[79.3,833],[79.2,915],[79.2,1000],[79.2,1083],[79.2,1165],[79.2,1250],[79.2,1333],[79.2,1417],[79.2,1499],[79.2,1581],[79.2,1665],[79.2,1750],[79.2,1833],[79.2,1917],[79.2,2000],[79.2,2083],[79.2,2165],[79.2,2250],[79.2,2333],[79.2,2415],[79.2,2499],[79.2,2590],[79.2,2673],[79.2,2756],[79.2,2840],[79.2,2923],[79.2,3006],[79.2,3088],[80.5,3173],[81.5,3257],[82.1,3340],[82.5,3423],[82.7,3506],[82.7,3590],[82.7,3673],[82.7,3756],[82.7,3840],[82.7,3923],[82.7,4007],[82.7,4088],[82.7,4173],[82.7,4256],[82.7,4340],[82.7,4423],[82.7,4506],[82.7,4588],[82.7,4673],[82.7,4756],[82.7,4840],[82.7,4922],[82.7,5006],[82.7,5090],[82.7,5172],[82.7,5256],[82.7,5340],[82.7,5423],[82.7,5506],[82.7,5588],[82.7,5673],[82.7,5756],[82.7,5838],[82.7,5922],[82.7,6006],[82.7,6090],[82.7,6173],[82.7,6256],[82.7,6340],[82.7,6422],[82.7,6506],[82.7,6588],[82.7,6673],[82.7,6756],[82.7,6838],[82.7,6923],[82.7,7006],[82.7,7088],[82.7,7173],[82.7,7257],[82.7,7338],[82.7,7422],[82.7,7506],[82.7,7588],[82.7,7673],[82.7,7756],[82.7,7838],[82.7,7923],[82.7,8006],[82.7,8090],[82.7,8173],[82.7,8256],[82.7,8340],[82.7,8423],[82.7,8506],[82.7,8588],[82.7,8672],[82.7,8756],[82.7,8838],[82.7,8922],[82.7,9006],[82.7,9090],[82.7,9172],[82.7,9256],[82.7,9338],[82.7,9423],[82.7,9506],[82.7,9588],[82.7,9673],[82.7,9756],[82.7,9838],[82.7,9923]]",1,0,396.034,Half the time,50,396.038,,,[],,396.038,398.075,81.5625,1.306,"[{""rating"":81.5625,""responseTime"":1.30600000000004}]",space,1.523,,0,15,15,15,1,audio/Narrative8Situation6.wav,audio/Narrative7Situation6.wav,audio/Narrative6Situation6.wav,audio/Narrative5Situation6.wav,2,3,2,3,,,,,,,,,,,,,,,,,,,,,,,,,,,,,,,,,,,,,,
,,,,,,5f1b0abbb84a5207673cb637,2024-02-05_16h42.10.891,group3.1-3.2-social-tom,2023.2.2,Win32,144.092219,65b1b24e3a500fd6b5dc9abd,65c154888294498f23430e6e,,,,,,,,,,,,,,,,,,,,,,,,,,,,,398.076,403.082,,403.082,420.24,"[[80.4,1165],[79.5,1250],[79.1,1332],[79,1415],[79,1500],[79,1582],[79,1665],[79,1748],[79,1832],[79,1915],[79,2000],[79,2082],[79,2165],[79,2248],[79,2331],[79,2415],[79.3,2498],[79.9,2582],[80.4,2665],[80.9,2750],[81.5,2832],[81.6,2914],[81.8,2998],[82.5,3082],[82.7,3165],[83,3248],[83.3,3332],[83.3,3415],[83.3,3498],[83.3,3581],[83.3,3665],[83.3,3748],[83.3,3832],[83.3,3915],[83.3,3998],[83.3,4082],[83.3,4165],[83.3,4250],[83.3,4331],[83.3,4415],[83.3,4498],[83.3,4581],[83.3,4665],[83.3,4748],[83.3,4831],[83.3,4915],[83.3,4998],[83.3,5081],[83.3,5164],[83.3,5248],[83.3,5332],[83.3,5414],[83.3,5498],[83.3,5581],[83.3,5664],[83.3,5748],[83.3,5832],[83.3,5915],[83.3,5998],[83.3,6082],[83.3,6165],[84,6248],[85.1,6331],[86.3,6415],[87.2,6498],[87.9,6581],[88.2,6665],[88.2,6748],[88.2,6831],[88.2,6914],[88.2,6998],[88.2,7082],[88.2,7165],[88.2,7247],[88.2,7331],[88.2,7415],[88.2,7498],[88.2,7581],[88.2,7664],[88.2,7748],[88.2,7832],[88.2,7914],[88.2,7998],[88.2,8081],[88.2,8165],[88.2,8248],[88.2,8331],[88.2,8415],[88.2,8498],[88.2,8581],[88.2,8665],[88.2,8747],[88.2,8831],[88.2,8915],[88.2,8998],[88.2,9081],[88.2,9164],[88.2,9248],[88.2,9331],[88.2,9414],[88.2,9498],[88.2,9581],[88.2,9664],[88.2,9748],[88.2,9831],[88.2,9914],[88.2,9998],[88.2,10081],[88.2,10164],[88.2,10248],[88.2,10331],[88.2,10415],[88.2,10497],[88.2,10581],[88.2,10664],[88.2,10748],[88.2,10831],[88.2,10915],[88.2,10997],[88.2,11081],[88.2,11164],[88.2,11248],[89.7,11331],[90.4,11414],[91,11497],[91,11581],[91,11664],[91,11747],[90.9,11831],[90.7,11915],[90.7,11998],[90.7,12081],[90.7,12164],[90.7,12248],[90.7,12331],[90.7,12415],[90.7,12497],[90.7,12581],[90.7,12664],[90.7,12748],[90.7,12830],[90.7,12914],[90.7,12997],[90.7,13081],[90.7,13165],[90.7,13248],[90.7,13331],[90.7,13414],[90.7,13497],[90.7,13581],[90.7,13664],[90.7,13747],[90.7,13831],[90.7,13914],[90.7,13998],[90.7,14080],[90.7,14164],[90.7,14247],[90.7,14331],[90.7,14414],[90.7,14497],[90.7,14581],[90.7,14664],[90.7,14747],[90.7,14830],[90.7,14914],[90.7,14997],[90.7,15081],[90.7,15164],[90.7,15248],[90.7,15331],[90.7,15414],[90.7,15497],[90.7,15580],[90.7,15664],[90.7,15747],[90.7,15831],[90.7,15913],[90.7,15997],[90.7,16080],[90.7,16164],[90.7,16247],[90.7,16331],[90.7,16414],[90.7,16498],[90.7,16587],[90.7,16671],[90.7,16754],[90.7,16837],[90.7,16921],[90.7,17005],[90.7,17087]]",1,0,420.241,All the time,100,420.243,,,[],,420.243,427.718,89.0625,2.078,"[{""rating"":89.0625,""responseTime"":2.0779999999999745}]",space,6.956,,0,16,16,16,1,audio/Narrative8Situation7.wav,audio/Narrative7Situation7.wav,audio/Narrative6Situation7.wav,audio/Narrative5Situation7.wav,3,5,5,4,,,,,,,,,,,,,,,,,,,,,,,,,,,,,,,,,,,,,,
,,,,,,5f1b0abbb84a5207673cb637,2024-02-05_16h42.10.891,group3.1-3.2-social-tom,2023.2.2,Win32,144.092219,65b1b24e3a500fd6b5dc9abd,65c154888294498f23430e6e,,,,,,,,,,,,,,,,,,,,,,,,,,,,,427.719,429.726,,429.726,439.732,"[[87.6,1081],[86.5,1165],[86.3,1250],[86.3,1331],[86.3,1415],[86.6,1500],[87.5,1582],[87.5,1665],[87.5,1748],[87.5,1832],[87.5,1915],[87.5,1998],[87.5,2081],[87.5,2165],[87.5,2250],[87.5,2331],[87.5,2414],[87.5,2498],[87.5,2581],[87.5,2665],[87.9,2748],[87.9,2832],[88.9,2915],[89.1,2998],[89.1,3082],[89.3,3165],[89.3,3248],[89.3,3331],[89.3,3414],[89.3,3498],[89.3,3581],[89.3,3665],[89.3,3748],[89.2,3831],[89.2,3915],[89.2,3998],[89.2,4081],[89.4,4164],[89.9,4248]]",1,0,439.732,Half the time,50,439.735,,,[],,439.735,441.836,90.52083333,1.472,"[{""rating"":90.52083333333334,""responseTime"":1.4720000000000368}]",space,1.586,,0,17,17,17,1,audio/Narrative8Situation8.wav,audio/Narrative7Situation8.wav,audio/Narrative6Situation8.wav,audio/Narrative5Situation8.wav,3,2,5,3,,,,,,,,,,,,,,,,,,,,,,,,,,,,,,,,,,,,,,
,,,,,,5f1b0abbb84a5207673cb637,2024-02-05_16h42.10.891,group3.1-3.2-social-tom,2023.2.2,Win32,144.092219,65b1b24e3a500fd6b5dc9abd,65c154888294498f23430e6e,,,,,,,,,,,,,,,,,,,,,,,,,,,,,441.836,443.836,,443.836,452.453,"[[999,0],[999,83],[999,165],[999,249],[999,332],[999,415],[999,500],[999,583],[80.6,665],[81.9,750],[83.6,832],[83.6,915],[84,999],[86.1,1083],[88,1165],[89.9,1249],[89.9,1333],[89.9,1415],[89.6,1499],[89.4,1583],[89.4,1665],[89.4,1749],[89.4,1833],[89.4,1915],[89.4,2000],[89.4,2082],[89.4,2165],[89.4,2249],[89.4,2333],[89.4,2415],[89.4,2499],[89.4,2583],[89.4,2665],[89.4,2749],[89.4,2832],[89.4,2915],[89.4,3000],[89.4,3083],[89.4,3165],[89.4,3249],[89.4,3333],[89.6,3415],[89.6,3499],[89.6,3583],[89.6,3665],[89.6,3749],[89.6,3833],[89.6,3915],[89.6,3999],[89.6,4082],[89.6,4165],[89.6,4249],[89.6,4333],[89.6,4415],[89.6,4499],[89.6,4583],[89.6,4665],[89.6,4749],[89.6,4833],[89.6,4915],[89.6,4999],[89.6,5082],[89.6,5165],[89.6,5249],[89.6,5332],[89.6,5415],[89.6,5499],[89.6,5582],[89.6,5665],[89.6,5749],[89.6,5833],[89.6,5915],[89.6,5999],[89.6,6082],[89.6,6165],[89.6,6249],[89.6,6333],[89.6,6415],[89.6,6499],[89.6,6582],[89.6,6665],[89.6,6749],[89.6,6832],[89.6,6915],[89.6,6999],[89.6,7083],[89.6,7165],[89.6,7249],[89.6,7333],[89.6,7415],[89.6,7499],[89.6,7582],[89.6,7665],[89.6,7749],[89.6,7832],[89.6,7915],[89.6,7999],[89.6,8082],[89.6,8165],[89.6,8249],[89.6,8332],[89.6,8415],[89.6,8499],[89.6,8582]]",1,0,452.453,Not at all,0,452.455,,,[],,452.455,453.994,89.58333333,0.815,"[{""rating"":89.58333333333333,""responseTime"":0.8149999999999977}]",space,1.025,,0,18,18,18,1,audio/Narrative8Situation9.wav,audio/Narrative7Situation9.wav,audio/Narrative6Situation9.wav,audio/Narrative5Situation9.wav,3,2,4,3,,,,,,,,,,,,,,,,,,,,,,,,,,,,,,,,,,,,,,
,,,,,,5f1b0abbb84a5207673cb637,2024-02-05_16h42.10.891,group3.1-3.2-social-tom,2023.2.2,Win32,144.092219,65b1b24e3a500fd6b5dc9abd,65c154888294498f23430e6e,,,,,,,,,,,,,,,,,,,,,,,,,,,495.708,498.283,498.291,498.291,,498.291,528.025,"[[55,3165],[55,3249],[55.5,3331],[55.6,3414],[55.6,3497],[55.6,3581],[55.6,3664],[55.6,3747],[55.6,3831],[55.6,3915],[55.6,3999],[55.6,4081],[55.6,4164],[55.6,4249],[55.6,4331],[54.9,4414],[50.4,4497],[49.8,4581],[49.2,4665],[48.3,4749],[47.9,4831],[47.9,4914],[47.9,4999],[47.9,5081],[47.9,5164],[47.9,5249],[47.9,5331],[47.9,5415],[47.9,5497],[47.9,5581],[47.9,5664],[47.9,5749],[47.9,5831],[47.9,5915],[47.9,5997],[47.9,6081],[47.9,6164],[47.9,6249],[47.9,6331],[47.9,6414],[47.9,6497],[47.9,6581],[47.9,6665],[47.9,6747],[47.9,6831],[47.9,6914],[47.9,6999],[47.9,7081],[47.9,7164],[47.9,7247],[47.9,7331],[47.9,7414],[47.9,7497],[47.9,7581],[47.9,7664],[47.9,7747],[47.9,7831],[47.9,7915],[47.9,7999],[47.9,8081],[47.9,8164],[47.9,8249],[47.9,8331],[47.9,8414],[47.9,8499],[47.9,8581],[47.9,8664],[47.9,8747],[47.9,8831],[47.9,8914],[47.9,8997],[47.9,9081],[47.9,9164],[47.9,9249],[47.9,9331],[47.9,9414],[47.9,9497],[47.9,9581],[47.9,9664],[47.9,9749],[47.9,9831],[47.9,9914],[47.9,9997],[47.9,10081],[48.6,10165],[49.1,10247],[49.9,10331],[50.1,10414],[51.3,10497],[51.8,10581],[51.8,10664],[51.8,10747],[51.8,10831],[51.9,10914],[52,10999],[52,11081],[52,11163],[52,11247],[52,11331],[52,11414],[52,11497],[51.9,11581],[51.8,11664],[51.8,11747],[51.8,11831],[51.8,11914],[51.7,11999],[51.7,12081],[51.7,12164],[51.7,12249],[51.7,12331],[51.7,12414],[51.7,12497],[51.7,12581],[51.7,12664],[51.7,12747],[51.7,12831],[51.7,12914],[51.7,12997],[51.7,13081],[51.7,13164],[51.7,13247],[51.7,13331],[51.7,13414],[51.7,13497],[51.3,13581],[50.9,13663],[50.9,13747],[50.9,13831],[50.9,13913],[50.9,13997],[50.9,14081],[50.9,14164],[50.9,14247],[50.9,14331],[50.9,14422],[50.9,14504],[50.9,14587],[50.9,14672],[50.9,14754],[50.9,14837],[50.9,14922],[50.9,15004],[50.9,15088],[51.3,15172],[52.3,15254],[52.9,15337],[54.2,15422],[55,15504],[55,15587],[55,15672],[55,15754],[55,15837],[55,15920],[55,16004],[55,16087],[55,16172],[55,16254],[55,16337],[55,16422],[55,16504],[55,16587],[54.9,16670],[54.9,16754],[54.9,16837],[54.9,16922],[54.9,17004],[54.9,17087],[54.9,17172],[54.9,17254],[54.9,17337],[54.9,17420],[54.9,17920],[55.6,18004],[55.9,18087],[55.9,18172],[55.9,18254],[55,18337],[54.1,18422],[54.1,18504],[54.1,18587],[54.1,18670],[54.1,18754],[54.1,18837],[54.1,18922],[54.1,19004],[54.1,19087],[54.1,19172],[54.1,19254],[54.1,19337],[54.1,19422],[54.1,19504],[54.1,19587],[54.1,19670],[54.1,19754],[54.1,19837],[54.1,19920],[54.1,20004],[54.1,20086],[54.1,20170],[54.1,20254],[54.1,20337],[54.1,20422],[54.1,20504],[55.8,20587],[57.2,20670],[59.9,20754],[60.7,20837],[60.7,20920],[60.7,21004],[60.7,21087],[60.7,21170],[60.7,21254],[60.7,21336],[60.7,21420],[60.7,21504],[60.7,21586],[60.7,21670],[60.7,21754],[60.7,21836],[60.7,21920],[60.7,22004],[60.7,22087],[60.7,22170],[60.7,22254],[60.7,22337],[60.7,22420],[60.7,22504],[60.7,22587],[60.7,22670],[60.7,22754],[60.7,22836],[60.7,22920],[60.7,23004],[60.7,23087],[61.9,23172],[63.4,23254],[63.6,23337],[63.6,23422],[63.6,23504],[63.6,23587],[63.6,23670],[63.6,23754],[63.6,23837],[63.6,23920],[63.6,24004],[63.6,24087],[63.6,24170],[63.6,24254],[63.6,24336],[63.4,24420],[63.3,24504],[72.2,27920],[72.7,28004],[74.2,28087],[74.3,28169],[74.3,28254],[74.3,28336],[74.3,28420],[74.3,28504],[74.3,28586],[74.3,28670],[74.3,28752],[74.3,28836],[74.3,28920],[74.3,29004],[74.3,29086],[74.3,29170],[74.3,29254],[74.3,29336],[74.3,29419],[74.3,29504],[74.3,29587],[74.3,29669]]",1,0,528.025,Half the time,50,528.029,,,[],,528.029,528.03,,,[],,,,0,0,0,0,1,audio/Narrative13Situation2.wav,audio/Narrative13Situation2.wav,audio/Narrative13Situation2.wav,audio/Narrative13Situation2.wav,2,2,2,2,,,,,453.994,495.707,space,41.205,,,,,,,,,,,,,,,,,,,,,,,,,,,,,,
,,,,,,5f1b0abbb84a5207673cb637,2024-02-05_16h42.10.891,group3.1-3.2-social-tom,2023.2.2,Win32,144.092219,65b1b24e3a500fd6b5dc9abd,65c154888294498f23430e6e,,,,,,,,,,,,,,,,,,,,,,,,,,,,,528.03,530.031,,530.031,556.599,"[[999,0],[999,82],[999,167],[999,250],[999,332],[999,417],[999,500],[999,582],[999,665],[999,750],[999,832],[999,915],[999,1000],[999,1083],[999,1165],[999,1250],[999,1333],[999,1417],[999,1500],[51.1,1582],[51,1665],[51,1750],[51,1832],[51,1915],[51,1999],[51,2082],[51,2165],[51,2249],[51,2332],[51,2415],[51,2500],[51,2582],[51,2665],[51,2749],[51,2832],[51,2917],[51,3000],[51,3082],[51,3165],[53.8,3249],[56.8,3332],[58.5,3415],[58.5,3500],[58.5,3582],[58.5,3665],[58.5,3750],[58.5,3831],[58.5,3917],[58.5,3999],[58.5,4082],[58.5,4165],[58.2,4249],[58.2,4332],[58.2,4415],[58.2,4500],[58.2,4582],[58.2,4665],[58.2,4750],[58.2,4832],[58.2,4915],[58.2,4999],[58.2,5082],[58.2,5167],[58.2,5249],[58.2,5332],[58.2,5415],[58.2,5500],[58.2,5582],[58.2,5665],[58.2,5750],[58.2,5832],[57.9,5915],[57.8,5999],[57.4,6081],[57.1,6165],[57.1,6250],[57.1,6331],[57.1,6415],[57.1,6499],[57.1,6582],[57.1,6665],[57.1,6749],[57.1,6832],[57.1,6915],[57.1,7000],[57.1,7081],[57.1,7165],[57.1,7250],[57.1,7332],[57.1,7415],[57.1,7500],[57.1,7582],[57.1,7665],[57.1,7749],[57.1,7831],[57.1,7915],[57.1,7999],[57.1,8081],[57.1,8164],[57.1,8249],[57.1,8331],[57.1,8415],[57.1,8500],[57.1,8582],[57.1,8665],[57.1,8749],[57.1,8832],[57.1,8915],[57.1,8999],[57.1,9081],[57.1,9165],[57.1,9249],[57.1,9332],[57.1,9415],[57.1,9499],[57.1,9582],[56.5,9665],[56.4,9749],[56.4,9832],[56.4,9915],[56.4,9999],[66,10915],[68.2,10999],[69.3,11081],[69.3,11165],[69.3,11249],[69.3,11332],[69.3,11415],[69.3,11499],[69.3,11582],[69.3,11665],[69.3,11749],[69.3,11831],[69.3,11915],[68.8,11999],[68.2,12081],[68.2,12164],[68.2,12249],[68.2,12331],[68.2,12415],[68.2,12500],[68.2,12582],[68.2,12665],[68.2,12749],[68.2,12832],[68.2,12915],[68.2,12999],[68.2,13081],[68.2,13165],[68.2,13249],[68.2,13332],[68.2,13415],[68.2,13499],[68.2,13581],[68.2,13665],[68.2,13749],[68.2,13831],[68.2,13915],[68.2,13999],[68.2,14081],[68.2,14165],[68.2,14249],[68.2,14331],[68.2,14415],[68.2,14499],[68.2,14582],[68.2,14664],[68.2,14749],[68.2,14831],[68.2,14914],[68.2,14999],[68.2,15081],[68.2,15165],[68.3,15247],[68.3,15331],[68.3,15415],[68.3,15499],[68.3,15581],[68.3,15665],[68.3,15749],[68.3,15831],[67,15915],[66.7,15999],[66.7,16081],[66.3,16164],[66.3,16249],[66.3,16331],[66.3,16415],[66.3,16497],[66.3,16581],[66.3,16665],[66.3,16749],[66.3,16831],[66.3,16914],[66.3,16999],[66.3,17081],[66.3,17164],[66.3,17247],[66.3,17331],[66.3,17414],[66.3,17499],[66.3,17581],[66.3,17664],[66.3,17749],[66.3,17831],[66.3,17914],[66.3,17997],[66.3,18081],[66.3,18164],[66.3,18249],[66.3,18331],[66.3,18414],[66.3,18499],[66.3,18581],[66.3,18664],[66.3,18749],[66.3,18831],[66.3,18914],[66.3,18997],[66.3,19081],[66.3,19164],[66.4,19249],[66.5,19331],[66.5,19414],[66.5,19499],[66.5,19581],[66.5,19664],[66.5,19747],[66.5,19831],[66.5,19914],[66.5,19997],[66.5,20081],[66.5,20164],[66.5,20249],[66.5,20331],[66.5,20414],[67.7,20499],[67.9,20581],[67.9,20664],[67.9,20749],[67.9,20831],[67.9,20914],[67.9,20997],[67.9,21081],[67.9,21164],[67.9,21247],[67.9,21331],[69.5,21414],[71.4,21497],[71.8,21581],[71.8,21664],[71.8,21747],[71.8,21831],[71.8,21914],[75.1,21999],[77.4,22081],[77.4,22164],[77.4,22249],[77.4,22331],[77.4,22414],[77.4,22497],[77.4,22581],[77.4,22664],[77.4,22747],[77.4,22831],[77.4,22913],[77.3,22997],[77.3,23081],[77.3,23164],[77.3,23249],[77,23331],[77,23414],[77,23497],[76.6,23581],[76,23664],[75.9,24914],[76.5,24997],[76.5,25081],[76.7,25164],[77.2,25247],[77.4,25331],[77.7,25414],[78.2,25497],[78.2,25581],[78.2,25664],[78.2,25747],[78.2,25831],[78.2,25914],[78.2,25999],[78.2,26081],[78.2,26163],[78.2,26247],[78.2,26331],[78.2,26414],[78.2,26497]]",1,0,556.599,Not at all,0,556.603,,,[],,556.603,559.73,75.72916667,2.315,"[{""rating"":75.72916666666667,""responseTime"":2.314999999999941}]",space,2.609,,0,1,1,1,1,audio/Narrative7Situation1.wav,audio/Narrative8Situation1.wav,audio/Narrative5Situation1.wav,audio/Narrative6Situation1.wav,2,5,5,2,,,,,,,,,,,,,,,,,,,,,,,,,,,,,,,,,,,,,,
,,,,,,5f1b0abbb84a5207673cb637,2024-02-05_16h42.10.891,group3.1-3.2-social-tom,2023.2.2,Win32,144.092219,65b1b24e3a500fd6b5dc9abd,65c154888294498f23430e6e,,,,,,,,,,,,,,,,,,,,,,,,,,,,,559.731,562.737,,562.737,591.229,"[[73,750],[72.8,832],[72.8,915],[72.8,998],[72.8,1082],[72.8,1165],[72.8,1250],[72.8,1332],[72.8,1415],[72.8,1498],[72.8,1582],[72.8,1666],[72.8,1750],[72.8,1832],[72.8,1915],[72.8,2000],[72.8,2082],[72.8,2165],[72.8,2250],[72.8,2332],[72.8,2415],[72.8,2500],[72.8,2583],[72.8,2666],[72.8,2748],[72.8,2832],[72.8,2916],[72.8,3000],[72.8,3082],[72.8,3165],[72.8,3250],[72.8,3332],[72.8,3415],[72.8,3500],[72.8,3582],[72.8,3665],[72.8,3748],[72.8,3832],[72.8,3915],[72.8,3998],[72.8,4082],[72.8,4165],[72.8,4250],[72.8,4332],[72.8,4416],[72.8,4500],[72.8,4582],[72.8,4665],[72.8,4750],[72.8,4832],[72.8,4915],[72.8,4998],[72.8,5082],[72.8,5165],[72.8,5248],[72.8,5332],[72.8,5415],[72.8,5498],[72.8,5582],[73,5666],[74.7,5750],[75.4,5831],[76.8,5915],[77.7,6000],[77.7,6082],[77.7,6165],[77.7,6250],[77.7,6332],[77.7,6415],[77.7,6498],[77.7,6582],[77.7,6665],[77.7,6748],[77.7,6831],[77.7,6916],[77.7,6998],[77.7,7082],[77.7,7165],[77.7,7248],[77.7,7331],[77.7,7415],[77.7,7500],[77.7,7582],[77.7,7665],[77.7,7748],[77.7,7832],[77.7,7915],[77.7,7998],[77.7,8082],[77.7,8165],[77.7,8248],[77.7,8332],[77.7,8415],[77.7,8498],[77.7,8581],[77.7,8665],[77.7,8750],[77.7,8832],[77.7,8915],[77.7,8998],[77.7,9082],[77.7,9165],[77.7,9248],[77.7,9332],[77.7,9415],[77.7,9498],[77.7,9582],[77.7,9665],[77.7,9750],[77.7,9831],[77.7,9915],[77.7,10000],[77.7,10082],[77.7,10165],[77.7,10248],[77.7,10332],[77.7,10415],[77.7,10498],[77.7,10581],[77.7,10665],[77.7,10748],[77.7,10832],[77.7,10914],[77.7,10998],[77.7,11081],[77.9,11165],[77.9,11248],[77.9,11332],[75.9,11415],[75.2,11500],[75.2,11588],[75.2,11673],[75.2,11755],[75.2,11839],[75.2,11921],[75.2,12005],[75.2,12088],[75.2,12173],[75.2,12255],[75.2,12338],[75.2,12423],[75.2,12505],[75.4,12589],[76.4,12671],[77.1,12755],[77.3,12838],[77.3,12923],[77.3,13005],[77.3,13088],[77.3,13173],[77.3,13255],[77.3,13339],[77.3,13423],[77.3,13505],[77.3,13589],[77.3,13673],[77.3,13755],[77.3,13838],[77.3,13921],[77,14005],[77,14088],[77,14171],[77,14255],[77,14338],[76.5,14423],[73.6,14505],[73.3,14589],[73.3,14671],[73.3,14755],[73.5,14838],[74,14923],[74.1,15005],[74.1,15088],[74.1,15171],[74.1,15254],[74.1,15338],[74.1,15423],[75.3,15505],[78.8,15588],[79.4,15671],[79.4,15754],[79.4,15838],[79.9,15921],[80.6,16005],[80.6,16088],[80.6,16173],[80.6,16254],[80.6,16338],[80.6,16423],[80.4,16505],[80.4,16588],[80.4,16671],[80.4,16755],[80.4,16838],[80.4,16923],[80.2,17005],[79,17088],[78.8,17171],[78.8,17255],[78.8,17338],[78.8,17421],[78.8,17505],[78.8,17588],[78.8,17673],[78.8,17754],[78.8,17838],[78.8,17923],[78.8,18005],[78.8,18087],[78.8,18171],[78.8,18255],[78.8,18338],[78.8,18421],[78.8,18505],[78.8,18588],[78.8,18671],[78.8,18754],[78.8,18838],[78.8,18921],[78.8,19004],[78.8,19088],[78.8,19173],[78.8,19254],[78.8,19338],[78.8,19421],[78.8,19505],[78.8,19588],[78.8,19671],[78.8,19755],[78.8,19838],[78.8,19921],[78.8,20004],[78.8,20088],[78.8,20171],[78.8,20254],[78.8,20338],[78.8,20421],[78.8,20504],[78.8,20588],[78.8,20671],[78.8,20754],[78.8,20837],[78.8,20921],[78.8,21005],[78.8,21094],[78.8,21178],[78.8,21262],[78.8,21346],[78.8,21428],[78.8,21511],[78.8,21596],[78.8,21678],[79.2,21761],[80.8,21846],[81.4,21928],[81.8,22011],[81.9,22094],[81.9,22178],[81.9,22262],[81.9,22344],[81.9,22427],[81.9,22511],[81.9,22596],[81.9,22678],[81.9,22761],[81.9,22846],[81.9,22927],[81.9,23011],[81.9,23096],[81.9,23178],[81.9,23261],[81.9,23344],[81.9,23428],[81.9,23512],[81.9,23594],[81.9,23678],[81.9,23761],[81.9,23844],[81.9,23928],[81.9,24011],[81.9,24094],[81.9,24177],[81.9,24261],[81.9,24346],[81.9,24428],[81.9,24511],[81.9,24594],[81.9,24678],[81.9,24761],[81.9,24844],[81.9,24928],[81.9,25011],[81.6,25094],[81.6,25178],[81.6,25261],[81.6,25346],[81.6,25427],[81.6,25511],[81.6,25596],[81.6,25678],[81.6,25761],[81.6,25846],[81.6,25928],[81.6,26011],[81.6,26094],[81.6,26178],[81.6,26261],[81.6,26344],[81.6,26427],[81.6,26511],[81.6,26594],[81.6,26678],[81.6,26761],[81.6,26844],[81.6,26927],[81.6,27011],[81.6,27096],[81.6,27178],[81.6,27261],[81.6,27344],[81.6,27427],[81.6,27511],[81.6,27594],[81.6,27678],[81.6,27761],[81.6,27844],[81.6,27928],[81.6,28011],[81.6,28094],[81.6,28177],[81.6,28260],[80.6,28344],[80.6,28428]]",1,0,591.229,Not at all,0,591.231,,,[],,591.231,593.457,79.27083333,1.187,"[{""rating"":79.27083333333333,""responseTime"":1.1870000000000118}]",space,1.713,,0,2,2,2,1,audio/Narrative7Situation2.wav,audio/Narrative8Situation2.wav,audio/Narrative5Situation2.wav,audio/Narrative6Situation2.wav,3,3,3,3,,,,,,,,,,,,,,,,,,,,,,,,,,,,,,,,,,,,,,
,,,,,,5f1b0abbb84a5207673cb637,2024-02-05_16h42.10.891,group3.1-3.2-social-tom,2023.2.2,Win32,144.092219,65b1b24e3a500fd6b5dc9abd,65c154888294498f23430e6e,,,,,,,,,,,,,,,,,,,,,,,,,,,,,593.458,598.464,,598.464,611.061,"[[76.8,832],[76.6,915],[76.6,1000],[76.6,1082],[76.6,1167],[76.6,1250],[76.6,1332],[76.6,1415],[76.6,1500],[76.6,1582],[76.6,1665],[76.6,1749],[76.6,1831],[76.6,1915],[76.6,2000],[76.6,2081],[76.6,2165],[77.7,2250],[78,2332],[79.4,2415],[81.3,2500],[81.6,2582],[81.6,2665],[81.6,2749],[81.5,2832],[80.8,2915],[80.8,3000],[80.8,3081],[80.8,3165],[80.8,3249],[80.8,3332],[80.8,3417],[80.8,3499],[80.8,3581],[80.8,3665],[80.8,3749],[80.8,3832],[80.8,3915],[80.8,3999],[80.8,4082],[80.8,4165],[80.8,4249],[80.8,4331],[80.8,4415],[80.8,4499],[80.8,4581],[80.8,4665],[80.8,4749],[80.8,4831],[80.8,4915],[80.8,5000],[80.8,5081],[80.8,5165],[80.8,5250],[80.8,5332],[80.8,5415],[80.8,5500],[80.8,5581],[80.8,5665],[80.8,5749],[80.8,5831],[80.8,5915],[80.8,5999],[80.8,6082],[80.8,6165],[80.8,6249],[80.8,6332],[80.8,6414],[80.8,6499],[80.8,6582],[80.8,6665],[80.8,6749],[80.8,6832],[80.8,6915],[80.8,6999],[80.8,7081],[80.8,7165],[80.8,7249],[80.8,7331],[80.8,7415],[80.8,7499],[80.8,7581],[80.8,7665],[80.8,7749],[80.8,7831],[80.8,7915],[80.8,7999],[80.8,8082],[80.8,8165],[80.8,8249],[80.8,8332],[80.8,8414],[80.8,8499],[80.8,8581],[80.8,8665],[80.8,8749],[80.8,8831],[80.8,8915],[80.8,8999],[80.8,9081],[80.8,9165],[80.8,9249],[80.8,9332],[80.8,9415],[80.8,9499],[80.8,9581],[80.8,9665],[80.8,9749],[80.8,9831],[80.8,9915],[80.8,9999],[81.7,10081],[84,10165],[84.7,10249],[86.9,10331],[87,10414],[87,10499],[87,10581],[87,10665],[87,10749],[87,10831],[87,10915],[87,10999],[87,11081],[87,11165],[87,11249],[87,11331],[87,11415],[87,11499],[87,11581],[87,11664],[87,11749],[87,11831],[87,11914],[87,11999],[87,12081],[87,12165],[87,12247],[87,12331],[87,12414],[87,12499],[87,12581]]",1,0,611.061,All the time,100,611.063,,,[],,611.063,613.171,82.1875,1.46,"[{""rating"":82.1875,""responseTime"":1.4600000000000364}]",space,1.594,,0,3,3,3,1,audio/Narrative7Situation3.wav,audio/Narrative8Situation3.wav,audio/Narrative5Situation3.wav,audio/Narrative6Situation3.wav,8,4,3,5,,,,,,,,,,,,,,,,,,,,,,,,,,,,,,,,,,,,,,
,,,,,,5f1b0abbb84a5207673cb637,2024-02-05_16h42.10.891,group3.1-3.2-social-tom,2023.2.2,Win32,144.092219,65b1b24e3a500fd6b5dc9abd,65c154888294498f23430e6e,,,,,,,,,,,,,,,,,,,,,,,,,,,,,613.171,615.178,,615.178,627.781,"[[80.5,83],[80.5,166],[80.5,249],[80.5,333],[80.5,417],[80.5,499],[80.5,583],[80.5,666],[80.5,750],[80.5,833],[80.5,916],[80.5,1000],[80.5,1083],[80.5,1167],[80.5,1249],[80.5,1333],[80.5,1416],[80.5,1500],[80.5,1583],[80.5,1666],[80.5,1749],[80.5,1833],[79.6,1917],[77.8,2000],[76.6,2083],[72.3,2166],[68.9,2250],[67.1,2333],[66.3,2416],[66.3,2500],[66.3,2583],[66.3,2666],[66.5,2749],[67.4,2833],[69.5,2916],[71.3,2999],[71.7,3083],[74.3,3166],[75.8,3249],[75.8,3333],[75.8,3416],[75.8,3500],[76.4,3581],[77.5,3666],[77.5,3749],[77.5,3833],[77.5,3916],[77.5,3999],[77.5,4083],[77.5,4166],[77.5,4249],[77.5,4333],[77.5,4416],[77.5,4499],[77.5,4581],[77.5,4666],[77.4,4749],[77.4,4833],[77.4,4916],[77.4,5000],[77.4,5083],[77.4,5166],[77.4,5249],[77.2,5333],[77.2,5416],[77.2,5500],[77.2,5583],[77.2,5666],[77.2,5749],[77.2,5831],[77.2,5916],[78.1,5999],[79.1,6083],[79.8,6166],[80.4,6250],[80.9,6331],[80.9,6415],[80.9,6499],[80.9,6583],[80.9,6666],[80.9,6749],[80.9,6833],[80.6,6916],[80.4,6999],[80.4,7081],[80.4,7166],[80.4,7250],[80.4,7333],[80.4,7416],[80.4,7499],[80.4,7581],[80.4,7666],[80.4,7749],[80.4,7831],[80.4,7916],[80.4,7999],[80,8083],[80,8166],[80,8249],[80,8333],[79.5,8416],[79.2,8499],[79.2,8581],[79.2,8666],[79.2,8749],[79.2,8831],[79.2,8916],[79.2,8999],[79.2,9083],[79.2,9165],[79.2,9249],[79.2,9333],[79.2,9415],[79.2,9499],[80.1,9583],[84.5,9666],[90,9749],[92.7,9831],[94,9916],[94,9999],[94,10081],[94,10166],[94,10249],[94,10331],[94,10415],[94,10499],[94,10583],[94,10666],[94,10749],[94,10831],[94,10916],[94,10999],[94,11083],[94,11166],[94,11249],[93.9,11331],[93.9,11416],[93.9,11499],[93.9,11581],[93.5,11665],[93.5,11749],[93.5,11831],[93.5,11915],[93.5,11999],[93.5,12081],[93.5,12165],[93.5,12249],[93.5,12331],[93.5,12416],[93.5,12499],[93.5,12581]]",1,0,627.782,Not at all,0,627.786,,,[],,627.786,629.836,82.5,1.177,"[{""rating"":82.5,""responseTime"":1.177000000000021}]",space,1.537,,0,4,4,4,1,audio/Narrative7Situation4.wav,audio/Narrative8Situation4.wav,audio/Narrative5Situation4.wav,audio/Narrative6Situation4.wav,3,3,1,2,,,,,,,,,,,,,,,,,,,,,,,,,,,,,,,,,,,,,,
,,,,,,5f1b0abbb84a5207673cb637,2024-02-05_16h42.10.891,group3.1-3.2-social-tom,2023.2.2,Win32,144.092219,65b1b24e3a500fd6b5dc9abd,65c154888294498f23430e6e,,,,,,,,,,,,,,,,,,,,,,,,,,,,,629.836,631.837,,631.837,639.78,"[[82.8,83],[82.9,166],[82.9,250],[82.2,333],[82,416],[80.5,500],[80.4,583],[80.8,666],[80.9,749],[80.9,831],[80.9,916],[80.9,999],[80.9,1083],[80.7,1166],[79.9,1249],[79.3,1333],[79.2,1416],[79.2,1499],[79.2,1583],[79.2,1666],[79.2,1750],[79.2,1831],[79.2,1915],[82.8,1999],[84.6,2081],[84.6,2166],[84.6,2249],[85.7,2333],[87,2416],[89.4,2499],[89.7,2583],[89.7,2665],[89.7,2749],[89.7,2831],[89.7,2915],[89.7,2999],[89.7,3081],[89.7,3165],[89.7,3249],[89.7,3333],[89.7,3416],[89.7,3499],[89.7,3583],[89.7,3665],[89.7,3749],[89.7,3831],[89.7,3915],[89.7,3999],[89.7,4081],[89.7,4166],[89.7,4249],[89.7,4331],[89.7,4416],[89.7,4499],[89.7,4581],[89.7,4665],[89.7,4749],[89.7,4831],[89.7,4915],[89.7,4999],[89.7,5083],[89.7,5165],[89.7,5249],[89.7,5331],[89.7,5416],[89.7,5499],[89.7,5581],[89.7,5665],[89.7,5748],[89.7,5831],[89.7,5915],[89.7,5998],[89.7,6081],[89.7,6165],[89.7,6248],[89.7,6333],[89.7,6416],[89.7,6499],[89.7,6581],[89.7,6665],[89.7,6749],[89.7,6831],[89.7,6915],[89.7,6998],[89.7,7081],[89.7,7165],[89.7,7249],[89.7,7331],[89.7,7416],[89.7,7498],[89.7,7583],[89.7,7665],[89.7,7749],[89.7,7831],[89.7,7915]]",1,0,639.78,All the time,100,639.783,,,[],,639.783,641.892,86.97916667,1.487,"[{""rating"":86.97916666666667,""responseTime"":1.4869999999999663}]",space,1.588,,0,5,5,5,1,audio/Narrative7Situation5.wav,audio/Narrative8Situation5.wav,audio/Narrative5Situation5.wav,audio/Narrative6Situation5.wav,5,2,5,2,,,,,,,,,,,,,,,,,,,,,,,,,,,,,,,,,,,,,,
,,,,,,5f1b0abbb84a5207673cb637,2024-02-05_16h42.10.891,group3.1-3.2-social-tom,2023.2.2,Win32,144.092219,65b1b24e3a500fd6b5dc9abd,65c154888294498f23430e6e,,,,,,,,,,,,,,,,,,,,,,,,,,,,,641.892,643.898,,643.898,654.96,"[[999,0],[999,82],[999,166],[999,250],[999,332],[999,417],[999,500],[999,582],[999,667],[999,750],[999,832],[999,917],[81.8,1000],[80.9,1082],[80.5,1166],[80.5,1250],[80.5,1332],[80.5,1416],[80.5,1512],[80.5,1590],[80.5,1673],[80.5,1755],[80.5,1840],[80.5,1923],[80.5,2005],[80.5,2090],[80.5,2173],[80.5,2255],[80.5,2340],[80.5,2423],[80.5,2507],[80.5,2590],[80.5,2673],[80.5,2757],[80.5,2840],[80.5,2923],[80.5,3007],[80.5,3090],[80.9,3173],[81.3,3257],[81.8,3340],[82.8,3423],[83.6,3505],[84.6,3590],[85.1,3673],[85.2,3757],[85.6,3840],[85.7,3923],[85.7,4007],[85.7,4090],[85.7,4173],[85.7,4255],[85.7,4340],[85.7,4423],[85.7,4505],[85.7,4590],[85.7,4673],[85.7,4757],[85.7,4840],[85.7,4923],[85.7,5005],[85.7,5090],[85.7,5173],[85.7,5255],[85.7,5339],[85.7,5423],[85.7,5507],[85.7,5590],[85.7,5673],[85.7,5757],[85.5,5840],[85.5,5923],[85.5,6007],[85.5,6090],[85.5,6173],[85.5,6257],[85.5,6339],[85.5,6423],[85.5,6505],[85.5,6590],[85.5,6673],[85.5,6755],[85.5,6840],[85.5,6923],[85.5,7005],[85.5,7090],[85.5,7173],[85.5,7255],[85.5,7340],[85.5,7423],[85.5,7507],[85.5,7589],[85.5,7673],[85.5,7757],[85.5,7840],[85.5,7923],[85.5,8005],[85.5,8090],[85.4,8173],[85.4,8255],[86.7,8339],[87.8,8423],[89.2,8505],[90.5,8590],[90.8,8673],[90.9,8757],[90.9,8839],[90.9,8923],[90.9,9005],[90.9,9090],[90.9,9173],[90.9,9255],[90.9,9339],[90.9,9423],[90.9,9505],[90.9,9589],[90.9,9673],[90.9,9755],[90.9,9840],[90.9,9922],[90.9,10005],[90.9,10089],[90.9,10173],[90.7,10257],[90.6,10339],[90.6,10423],[90.5,10505],[90.5,10590],[90.5,10672],[90.5,10755],[90.5,10839],[90.5,10923],[90.5,11005]]",1,0,654.961,All the time,100,654.963,,,[],,654.963,656.932,89.6875,1.514,"[{""rating"":89.6875,""responseTime"":1.51400000000001}]",space,1.453,,0,6,6,6,1,audio/Narrative7Situation6.wav,audio/Narrative8Situation6.wav,audio/Narrative5Situation6.wav,audio/Narrative6Situation6.wav,3,2,3,2,,,,,,,,,,,,,,,,,,,,,,,,,,,,,,,,,,,,,,
,,,,,,5f1b0abbb84a5207673cb637,2024-02-05_16h42.10.891,group3.1-3.2-social-tom,2023.2.2,Win32,144.092219,65b1b24e3a500fd6b5dc9abd,65c154888294498f23430e6e,,,,,,,,,,,,,,,,,,,,,,,,,,,,,656.933,661.938,,661.938,686.778,"[[999,1],[999,84],[999,167],[999,251],[999,333],[999,417],[999,500],[999,584],[999,667],[88,750],[87.9,833],[87.9,917],[87.9,1000],[87.9,1084],[87.9,1167],[87.9,1250],[87.9,1334],[87.9,1417],[87.9,1501],[87.9,1584],[87.9,1667],[87.9,1750],[87.9,1834],[87.9,1917],[87.9,2000],[87.9,2083],[87.9,2167],[87.9,2250],[87.9,2334],[87.9,2417],[87.9,2500],[87.9,2583],[87.9,2667],[87.9,2750],[87.9,2833],[87.9,2916],[87.9,3001],[87.9,3084],[87.9,3167],[87.9,3250],[87.9,3334],[87.9,3417],[87.9,3500],[87.9,3583],[87.9,3667],[87.9,3750],[87.9,3834],[87.9,3916],[87.9,4000],[87.9,4083],[87.9,4166],[87.9,4250],[87.9,4333],[87.9,4417],[87.9,4500],[87.9,4584],[87.9,4666],[87.9,4750],[87.9,4834],[87.9,4917],[87.9,5000],[87.9,5083],[87.9,5167],[87.9,5250],[87.9,5333],[87.9,5417],[87.9,5500],[87.9,5583],[88.2,5667],[89.4,5750],[89.9,5834],[90,5916],[90.1,6000],[90.1,6083],[90.1,6166],[90.1,6250],[90.1,6334],[90.1,6417],[90.1,6500],[90.1,6583],[90.1,6667],[90.1,6750],[90.1,6833],[90.1,6916],[90.1,7000],[90.1,7084],[90.1,7166],[90.1,7250],[90.1,7333],[90.1,7416],[90.1,7500],[90.1,7584],[90.1,7667],[90.1,7750],[90.1,7833],[90.1,7916],[90.1,7999],[90.1,8083],[90.1,8167],[90.1,8249],[90.1,8333],[90.1,8416],[91.1,8500],[91.6,8583],[91.8,8666],[91.8,8750],[93,8834],[95.2,8917],[97,8999],[97,9083],[97,9167],[97,9250],[97,9333],[97,9417],[97,9500],[97,9583],[97,9666],[97,9749],[97,9833],[97,9924],[97,10006],[97,10090],[97,10173],[97,10256],[97,10339],[97,10423],[97,10507],[97,10590],[97,10674],[97,10756],[97,10840],[97,10923],[97,11007],[97.2,11090],[97.2,11173],[97.2,11256],[97.2,11339],[97.2,11423],[97.2,11506],[97.2,11590],[97.2,11673],[97.2,11757],[97.2,11840],[97.2,11923],[97.2,12006],[97.1,12090],[97.1,12173],[97.1,12256],[97.1,12340],[97.1,12423],[97.1,12507],[97,12590],[97,12673],[97,12756],[97,12840],[97,12923],[97,13007],[97,13089],[97,13173],[97,13256],[97,13340],[97,13423],[97,13506],[97,13590],[97,13673],[97,13757],[97,13840],[97,13923],[97,14006],[97,14090],[97,14173],[97,14256],[97,14339],[97,14423],[97,14507],[97,14589],[97,14673],[97,14756],[97,14840],[96.7,14923],[96.7,15007],[96.7,15089],[96.7,15173],[96.7,15256],[96.7,15339],[96.7,15423],[96.7,15507],[96.7,15590],[96.7,15673],[96.7,15757],[96.7,15839],[96.7,15923],[96.7,16006],[96.7,16090],[96.7,16173],[96.7,16256],[96.7,16339],[96.7,16423],[96.7,16506],[96.7,16590],[96.7,16673],[96.7,16756],[96.7,16840],[96.7,16923],[96.7,17006],[96.7,17089],[96.7,17172],[96.7,17256],[96.7,17339],[96.7,17422],[96.7,17506],[96.7,17590],[96.7,17673],[96.7,17756],[96.7,17839],[96.7,17923],[96.7,18006],[96.7,18090],[96.7,18173],[96.7,18256],[96.7,18339],[96.7,18423],[96.7,18506],[96.7,18589],[96.7,18673],[96.7,18756],[96.7,18840],[96.7,18922],[96.7,19006],[96.7,19089],[96.7,19173],[96.7,19256],[96.7,19340],[96.7,19422],[96.7,19506],[96.7,19589],[96.7,19672],[96.7,19756],[96.7,19840],[96.7,19923],[96.7,20006],[96.7,20089],[96.7,20173],[96.7,20254],[96.7,20339],[96.7,20423],[96.7,20504],[96.7,20589],[96.7,20673],[96.7,20756],[96.7,20839],[96.7,20922],[96.7,21006],[96.7,21089],[96.7,21179],[96.7,21263],[96.7,21346],[96.7,21430],[96.7,21512],[96.7,21596],[96.7,21679],[96.7,21763],[96.7,21846],[96.7,21929],[96.7,22013],[96.7,22096],[96.7,22179],[96.7,22263],[96.7,22346],[96.7,22429],[96.7,22512],[96.7,22596],[96.7,22679],[96.7,22763],[96.7,22846],[96.7,22930],[96.7,23012],[96.7,23096],[96.7,23179],[96.7,23263],[96.7,23346],[96.7,23429],[96.7,23513],[96.7,23596],[96.7,23679],[96.7,23762],[96.7,23846],[96.7,23929],[96.7,24013],[96.7,24096],[96.7,24179],[96.7,24262],[96.7,24346],[96.7,24429],[96.7,24512],[96.7,24596],[96.7,24679],[96.7,24763]]",1,0,686.778,All the time,100,686.781,,,[],,686.781,688.902,96.14583333,1.415,"[{""rating"":96.14583333333333,""responseTime"":1.4149999999999636}]",space,1.602,,0,7,7,7,1,audio/Narrative7Situation7.wav,audio/Narrative8Situation7.wav,audio/Narrative5Situation7.wav,audio/Narrative6Situation7.wav,5,3,4,5,,,,,,,,,,,,,,,,,,,,,,,,,,,,,,,,,,,,,,
,,,,,,5f1b0abbb84a5207673cb637,2024-02-05_16h42.10.891,group3.1-3.2-social-tom,2023.2.2,Win32,144.092219,65b1b24e3a500fd6b5dc9abd,65c154888294498f23430e6e,,,,,,,,,,,,,,,,,,,,,,,,,,,,,688.903,693.909,,693.909,700.748,"[[80.8,999],[84.8,1083],[88.8,1166],[92,1250]]",1,0,700.748,Not at all,0,700.751,,,[],,700.751,703.207,95.10416667,1.742,"[{""rating"":95.10416666666667,""responseTime"":1.7419999999999618}]",space,1.936,,0,8,8,8,1,audio/Narrative7Situation8.wav,audio/Narrative8Situation8.wav,audio/Narrative5Situation8.wav,audio/Narrative6Situation8.wav,2,3,3,5,,,,,,,,,,,,,,,,,,,,,,,,,,,,,,,,,,,,,,
,,,,,,5f1b0abbb84a5207673cb637,2024-02-05_16h42.10.891,group3.1-3.2-social-tom,2023.2.2,Win32,144.092219,65b1b24e3a500fd6b5dc9abd,65c154888294498f23430e6e,,,,,,,,,,,,,,,,,,,,,,,,,,,,,703.207,707.207,,707.207,717.142,"[[94.6,749],[94.6,831],[94.6,916],[94.6,999],[94.6,1081],[94.6,1166],[94.6,1249],[94.6,1331],[94.6,1415],[94.6,1499],[94.6,1583],[94.6,1666],[94.6,1749],[94.6,1831],[94.6,1916],[95.2,1999],[95.3,2081],[95.3,2173],[95.3,2256],[95.3,2340],[95.2,2422],[95.2,2506],[95.1,2589],[95.1,2672],[95.1,2754],[95.1,2839],[95.1,2923],[95.1,3006],[95.1,3089],[95.1,3173],[95.1,3256],[95.1,3340],[95.1,3423],[95.1,3504],[95.1,3589],[95.1,3672],[95.1,3756],[95.1,3839],[95.1,3923],[95.1,4006],[95.1,4091],[95.1,4172],[95.1,4256],[95.1,4339],[94.9,4422],[94.5,4506],[94.5,4589],[94.5,4672],[94.5,4756],[94.5,4839],[94.5,4923],[94.5,5006],[94.5,5089],[94.5,5173],[94.5,5256],[94.5,5339],[94.5,5422],[94.2,5504],[94,5589],[94,5672],[94,5754],[94,5839],[94,5922],[94,6006],[94,6089],[94.3,6172],[94.3,6254],[94.3,6339],[94.3,6422],[94.3,6506],[94.3,6589],[94.3,6672],[94.3,6754],[94.3,6838],[94.3,6922],[94.3,7006],[94.3,7089],[94.3,7172],[94.3,7256],[94.3,7338],[94.3,7422],[94.3,7504],[94.3,7589],[94.3,7672],[94.3,7756],[94.3,7838],[94.3,7922],[94.7,8004],[95.2,8089],[95.2,8172],[95.2,8256],[95.2,8339],[95.2,8422],[95.2,8504],[95.2,8602],[95.2,8679],[95.2,8762],[95.2,8846],[95.2,8929],[95.2,9012],[95.2,9095],[95.2,9179],[95.2,9263],[95.2,9346],[95.2,9429],[95.2,9512],[95.2,9595],[95.2,9679],[95.2,9762],[95.2,9846],[95.2,9927]]",1,0,717.143,All the time,100,717.145,,,[],,717.145,719.067,95,0.898,"[{""rating"":95,""responseTime"":0.8980000000000246}]",space,1.402,,0,9,9,9,1,audio/Narrative7Situation9.wav,audio/Narrative8Situation9.wav,audio/Narrative5Situation9.wav,audio/Narrative6Situation9.wav,2,3,3,4,,,,,,,,,,,,,,,,,,,,,,,,,,,,,,,,,,,,,,
,,,,,,5f1b0abbb84a5207673cb637,2024-02-05_16h42.10.891,group3.1-3.2-social-tom,2023.2.2,Win32,144.092219,65b1b24e3a500fd6b5dc9abd,65c154888294498f23430e6e,,,,,,,,,,,,,,,,,,,,,,,,,,,,,719.068,724.073,,724.073,737.343,"[[57.1,1665],[54.7,1750],[50,1833],[49.9,1915],[49.9,2000],[49.9,2082],[49.9,2166],[49.9,2250],[49.9,2333],[49.9,2416],[49.9,2500],[49.9,2582],[49.9,2666],[49.9,2748],[50,2832],[50.4,2916],[50.4,2998],[50.4,3082],[50.4,3165],[50.4,3250],[51,3332],[51,3415],[51,3500],[51,3582],[51.3,3665],[51.3,3748],[51.3,3832],[51.3,3916],[51.3,4000],[51.3,4082],[51.3,4165],[51.3,4250],[51.3,4332],[51.3,4415],[51.3,4500],[51.3,4582],[51.3,4665],[51.3,4748],[51.3,4831],[51.3,4915],[51.3,4998],[51.3,5082],[51.3,5165],[51.3,5250],[51.3,5332],[51.3,5416],[51.3,5500],[51.3,5582],[51.3,5665],[51.3,5750],[51.3,5832],[51.3,5915],[51.3,6000],[51.3,6082],[51.3,6165],[51.3,6248],[51.3,6332],[51.3,6415],[51.3,6498],[52.4,6582],[58.1,6666],[60.8,6748],[63,6832],[63.3,6915],[63.3,6998],[63.3,7082],[63.3,7165],[64.5,7250],[64.5,7332],[64.5,7415],[64.5,7498],[64.5,7582],[64.5,7665],[64.5,7750],[64.5,7832],[64.5,7915],[64.5,7998],[64.5,8082],[64.5,8165],[64.5,8248],[64.5,8331],[64.5,8415],[64.5,8500],[64.5,8582],[64.5,8664],[64.5,8748],[64.5,8832],[64.5,8915],[64.5,8998],[64.5,9082],[64.5,9165],[64.5,9248],[64.5,9331],[64.5,9415],[64.5,9498],[67.5,9582],[68.3,9665],[69.5,9748],[71.3,9831],[73.1,9915],[73.1,9998],[73.1,10082],[73.1,10165],[73.1,10248],[73.1,10331],[72.9,10415],[72.8,10500],[72.7,10581],[72.7,10665],[72.7,10748],[72.7,10831],[72.7,10915],[72.7,10998],[72.7,11081],[72.7,11165],[72.7,11248],[72.7,11331],[72.7,11415],[72.7,11498],[72.7,11582],[72.7,11665],[72.7,11748],[72.7,11831],[72.7,11915],[72.7,11998],[72.7,12082],[72.7,12165],[72.7,12248],[72.7,12331],[72.7,12414],[72.7,12498],[72.7,12581],[72.7,12664],[72.7,12748],[72.7,12832],[72.7,12915],[72.7,12998],[72.7,13081],[72.7,13165],[72.7,13248]]",1,0,737.343,Not at all,0,737.346,,,[],,737.346,738.989,68.02083333,0.979,"[{""rating"":68.02083333333333,""responseTime"":0.9790000000000418}]",space,1.123,,0,10,10,10,1,audio/Narrative8Situation1.wav,audio/Narrative7Situation1.wav,audio/Narrative6Situation1.wav,audio/Narrative5Situation1.wav,5,2,2,5,,,,,,,,,,,,,,,,,,,,,,,,,,,,,,,,,,,,,,
,,,,,,5f1b0abbb84a5207673cb637,2024-02-05_16h42.10.891,group3.1-3.2-social-tom,2023.2.2,Win32,144.092219,65b1b24e3a500fd6b5dc9abd,65c154888294498f23430e6e,,,,,,,,,,,,,,,,,,,,,,,,,,,,,738.989,741.995,,741.995,771.445,"[[72.8,1084],[72.2,1167],[71.8,1250],[71.8,1334],[71.8,1417],[71.8,1500],[71.8,1584],[71.8,1667],[71.8,1750],[71.8,1833],[71.8,1916],[72.7,2000],[72.8,2083],[72.8,2167],[72.8,2250],[72.8,2333],[72.8,2416],[72.8,2500],[72.9,2584],[72.9,2667],[72.9,2750],[73.3,2834],[73.3,2917],[73.6,3000],[73.6,3084],[73.6,3167],[73.8,3250],[73.8,3333],[74.2,3417],[74.3,3500],[74.3,3583],[74.3,3667],[74.3,3750],[74.3,3834],[74.3,3916],[74.3,4000],[74.3,4083],[74.3,4167],[74.3,4250],[74.3,4333],[74.3,4417],[75.4,4500],[75.4,4583],[75.4,4667],[75.4,4750],[75.4,4833],[75.4,4916],[75.4,5000],[75.4,5083],[75.4,5166],[75.4,5250],[75.4,5334],[75.4,5417],[75.4,5500],[75.4,5583],[75.4,5667],[75.4,5750],[75.4,5833],[75.4,5916],[75.4,6000],[75.4,6083],[75.4,6167],[75.4,6250],[75.4,6333],[75.4,6417],[75.4,6500],[75.4,6583],[75.4,6666],[75.4,6749],[75.4,6833],[75.4,6917],[75.4,7000],[75.4,7083],[76.1,7167],[76.1,7249],[76.1,7333],[76.1,7416],[76.1,7500],[76.1,7583],[76.9,7666],[77.1,7750],[77.1,7833],[77.1,7916],[77.1,8000],[77.1,8083],[77.1,8166],[77.1,8249],[77.1,8333],[77.1,8416],[77.1,8499],[77.1,8583],[77.1,8666],[77.1,8750],[77.1,8833],[77.1,8916],[77.1,9000],[77.1,9083],[77.1,9167],[77.1,9249],[77.1,9333],[77.1,9416],[77.1,9499],[77.1,9583],[77.1,9666],[77.1,9749],[75.4,10666],[76,10749],[76.1,10833],[77,10917],[77.4,11000],[77.4,11083],[77.4,11166],[77.4,11249],[77.4,11344],[77.4,11423],[77.4,11506],[77.4,11589],[77.4,11673],[77.4,11756],[77.4,11839],[77.4,11923],[77.4,12007],[77.4,12090],[77.1,12173],[76.8,12256],[76.8,12340],[76.8,12423],[76.8,12506],[76.8,12589],[76.8,12673],[76.8,12756],[76.8,12839],[76.8,12923],[76.8,13006],[76.8,13090],[76.8,13173],[76.8,13256],[76.8,13339],[76.8,13423],[76.8,13506],[76.8,13590],[76.8,13673],[76.8,13756],[76.8,13840],[76.8,13923],[76.8,14006],[76.8,14089],[76.8,14173],[76.8,14256],[76.8,14339],[76.8,14423],[76.8,14506],[76.8,14589],[76.8,14673],[76.8,14756],[76.8,14839],[76.8,14923],[76.8,15006],[76.8,15090],[76.8,15173],[76.8,15257],[76.8,15339],[76.8,15423],[76.8,15506],[76.8,15590],[76.8,15673],[76.8,15756],[76.8,15839],[76.8,15923],[76.8,16006],[76.8,16089],[76.8,16172],[76.8,16256],[76.8,16340],[76.8,16423],[76.8,16506],[76.8,16589],[76.8,16673],[76.8,16756],[76.8,16839],[76.8,16923],[76.8,17006],[76.8,17090],[76.8,17173],[76.8,17256],[76.8,17339],[76.8,17423],[76.8,17506],[76.8,17590],[76.8,17672],[76.8,17756],[76.8,17839],[78.2,17923],[78.4,18006],[78.4,18089],[78.8,18173],[79,18256],[79,18339],[79,18423],[79,18506],[79,18589],[79,18672],[80.1,18756],[81.1,18839],[81.1,18922],[82.4,19006],[83.2,19089],[84,19173],[84.7,19256],[85.4,19339],[85.5,19423],[86.3,19506],[86.4,19590],[86.4,19672],[86.4,19756],[86.4,19839],[86.4,19922],[86.4,20006],[86.4,20089],[86.4,20172],[86.4,20256],[86.4,20339],[86.4,20422],[86.4,20504],[86.4,20589],[86.4,20673],[86.4,20756],[86.4,20839],[86.4,20922],[86.4,21006],[86.4,21090],[86.4,21173],[86.4,21256],[86.4,21339],[86.4,21423],[86.4,21506],[86.4,21589],[86.4,21672],[86.4,21754],[86.4,21839],[86.4,21922],[86.4,22006],[86.4,22089],[86.4,22173],[86.4,22254],[86.4,22339],[86.4,22422],[86.6,22506],[87.7,22589],[88.9,22672],[89.2,22756],[90.3,22839],[91.6,22922],[91.9,23006],[92.8,23089],[92.8,23173],[92.8,23256],[92.8,23339],[92.6,23422],[92.6,23504],[92.6,23589],[92.6,23672],[92.6,23754],[92.4,23839],[92.3,23922],[92.2,24004],[92.2,24089],[92.2,24173],[92.2,24256],[92.2,24339],[92.2,24422],[92.2,24506],[92.2,24589],[92.2,24672],[92.2,24754],[92.2,24838],[92.2,24922],[92.2,25006],[92.2,25088],[92.2,25172],[92.2,25254],[92.2,25339],[92,25422],[92,25504],[92,25589],[91.6,25672],[91.4,25754],[91.4,25838],[91.4,25922],[91.4,26006],[91.4,26089],[91.4,26172],[91.4,26256],[91.4,26339],[91.4,26422],[91.4,26504],[91.4,26588],[91.4,26672],[91.4,26754],[91.4,26839],[91.4,26922],[91.4,27004],[91.4,27089],[91.4,27172],[91.4,27256],[91.4,27339],[91.4,27422],[91.4,27504],[91.4,27589],[91.4,27672],[91.4,27754],[91.4,27839],[91.4,27922],[91.4,28004],[91.4,28089],[91.4,28172],[91.4,28254],[91.4,28339],[91.4,28422],[91.4,28506],[91.4,28588],[91.4,28672],[91.4,28754],[91.4,28839],[91.4,28922],[91.4,29006],[91.4,29088],[91.4,29172],[91.4,29254],[91.4,29339],[90.9,29422]]",1,0,771.445,All the time,100,771.449,,,[],,771.449,773.223,89.47916667,1.079,"[{""rating"":89.47916666666667,""responseTime"":1.0789999999999509}]",space,1.255,,0,11,11,11,1,audio/Narrative8Situation2.wav,audio/Narrative7Situation2.wav,audio/Narrative6Situation2.wav,audio/Narrative5Situation2.wav,3,3,3,3,,,,,,,,,,,,,,,,,,,,,,,,,,,,,,,,,,,,,,
,,,,,,5f1b0abbb84a5207673cb637,2024-02-05_16h42.10.891,group3.1-3.2-social-tom,2023.2.2,Win32,144.092219,65b1b24e3a500fd6b5dc9abd,65c154888294498f23430e6e,,,,,,,,,,,,,,,,,,,,,,,,,,,,,773.223,776.229,,776.229,790.124,"[[92.3,667],[91.8,750],[91.5,833],[91.5,917],[91.5,1000],[91.5,1082],[91.5,1167],[91.5,1250],[91.5,1332],[91.5,1417],[91.5,1500],[91.5,1582],[91.5,1665],[91.5,1750],[91.5,1832],[91.5,1917],[91.5,2000],[91.5,2082],[91.5,2165],[91.5,2250],[91.5,2333],[91.5,2417],[91.5,2500],[91.5,2582],[91.5,2667],[91.5,2750],[91.5,2832],[91.5,2915],[91.5,3000],[91.5,3082],[91.5,3165],[91.5,3249],[91.5,3332],[91.5,3417],[91.5,3500],[91.5,3582],[91.5,3665],[91.5,3749],[91.5,3832],[91.5,3917],[91.5,4000],[91.5,4082],[91.5,4165],[91.5,4250],[91.5,4332],[91.5,4417],[91.5,4499],[91.5,4582],[91.5,4665],[91.5,4750],[91.5,4832],[91.5,4915],[91.5,4999],[91.5,5082],[91.5,5167],[91.5,5250],[91.5,5332],[91.5,5415],[91.5,5500],[91.5,5582],[91.8,5665],[91.8,5749],[91.8,5832],[91.8,5917],[91.8,5999],[91.8,6082],[91.8,6165],[91.8,6250],[91.8,6332],[91.8,6415],[91.8,6499],[91.8,6582],[91.8,6665],[91.8,6749],[91.8,6831],[91.8,6915],[91.8,7000],[91.8,7082],[91.8,7167],[91.8,7250],[91.8,7332],[91.8,7415],[91.8,7500],[91.8,7582],[91.8,7665],[91.8,7749],[91.8,7831],[91.8,7915],[91.8,7999],[91.8,8082],[91.8,8165],[91.8,8249],[91.8,8332],[91.8,8415],[91.8,8499],[91.7,8582],[91.7,8665],[91.7,8749],[91.7,8832],[91.7,8915],[91.7,9000],[91.7,9081],[91.7,9165],[91.7,9249],[92.1,9332],[92.5,9415],[92.5,9499],[92.5,9581],[92.5,9665],[92.5,9749],[92.5,9831],[92.5,9914],[92.5,9999],[92.5,10082],[92.5,10165],[92.5,10250],[92.5,10331],[92.5,10415],[90.2,10499],[89.8,10582],[89,10665],[88.4,10749],[88.4,10831],[88.4,10915],[88.4,10999],[88.4,11081],[88.4,11165],[88.4,11250],[88.4,11332],[88.4,11415],[88.4,11500],[88.4,11581],[88.4,11665],[88.4,11749],[88.4,11831],[88.4,11914],[88.4,11999],[88.4,12082],[88.4,12165],[88,12249],[87.7,12331],[87.4,12415],[87.2,12499],[87,12581],[87,12665],[87,12750],[87,12831],[87,12915],[87,12999],[87,13081],[87,13165],[86.9,13249],[86.9,13332],[86.9,13415],[86.9,13499],[86.9,13581],[86.9,13664],[86.9,13749],[86.9,13831]]",1,0,790.124,All the time,100,790.127,,,[],,790.127,791.916,87.5,1.12,"[{""rating"":87.5,""responseTime"":1.1200000000000045}]",space,1.273,,0,12,12,12,1,audio/Narrative8Situation3.wav,audio/Narrative7Situation3.wav,audio/Narrative6Situation3.wav,audio/Narrative5Situation3.wav,4,8,5,3,,,,,,,,,,,,,,,,,,,,,,,,,,,,,,,,,,,,,,
,,,,,,5f1b0abbb84a5207673cb637,2024-02-05_16h42.10.891,group3.1-3.2-social-tom,2023.2.2,Win32,144.092219,65b1b24e3a500fd6b5dc9abd,65c154888294498f23430e6e,,,,,,,,,,,,,,,,,,,,,,,,,,,,,791.916,792.916,,792.916,813.289,"[[91,1415],[90.8,1499],[90.7,1582],[90.7,1665],[90.7,1749],[90.7,1832],[90.7,1915],[90.7,2000],[90.7,2081],[90.7,2165],[90.7,2249],[91,2331],[91,2415],[91,2499],[91,2581],[91,2665],[91,2749],[91.5,2831],[92.2,2914],[92.2,2999],[92.2,3082],[92.2,3165],[92.2,3249],[92.2,3331],[92.2,3415],[92.2,3499],[92.2,3582],[92.2,3665],[92.2,3749],[90.2,3832],[89.8,3915],[89.8,3999],[89.8,4081],[89.8,4165],[89.8,4249],[89.8,4331],[89.8,4414],[89.8,4499],[89.8,4581],[89.4,4665],[89.3,4749],[89.3,4832],[89.1,4915],[87.9,4999],[87.6,5081],[87.6,5165],[87.6,5249],[87.6,5331],[87.6,5415],[87.6,5499],[87.6,5581],[87.6,5665],[87.6,5749],[87.6,5831],[88.5,5915],[89.2,5999],[89.2,6081],[89.2,6165],[88.4,6249],[85.3,6331],[85.1,6414],[85.1,6499],[85.1,6581],[85.1,6664],[85.1,6749],[85.1,6831],[85.4,6915],[86.7,6999],[86.7,7081],[86.7,7164],[86.7,7249],[86.7,7331],[86.7,7414],[86.7,7497],[86.7,7581],[86.7,7664],[86.7,7749],[86.7,7831],[86.7,7914],[86.7,7999],[86.7,8082],[86.7,8164],[86.7,8247],[86.7,8331],[86.7,8414],[86.7,8499],[86.7,8581],[86.7,8665],[86.7,8749],[86.7,8831],[86.7,8914],[86.7,8999],[86.7,9081],[86.7,9164],[86.7,9247],[86.7,9331],[86.7,9414],[86.7,9499],[86.7,9581],[86.7,9664],[86.7,9749],[86.7,9831],[86.7,9914],[86.7,9997],[86.7,10081],[86.7,10165],[86.7,10247],[86.7,10331],[86.7,10414],[86.7,10499],[86.7,10581],[86.7,10672],[86.7,10755],[86.7,10838],[86.7,10922],[86.7,11005],[86.7,11088],[86.7,11173],[86.7,11255],[86.7,11338],[86.7,11422],[86.7,11504],[86.7,11588],[86.7,11673],[86.7,11754],[86.7,11838],[86.7,11922],[86.7,12005],[86.7,12088],[86.7,12172],[86.7,12254],[86.7,12338],[86.7,12422],[86.7,12504],[86.7,12588],[86.7,12673],[86.7,12754],[86.7,12838],[86.7,12922],[86.7,13005],[86.7,13088],[86.7,13172],[86.7,13255],[86.7,13338],[86.7,13422],[86.7,13504],[86.7,13587],[86.7,13672],[86.7,13754],[86.7,13838],[86.7,13922],[86.7,14004],[86.7,14088],[86.7,14172],[86.7,14255],[86.7,14338],[86.7,14422],[86.7,14504],[86.7,14588],[86.7,14672],[86.7,14755],[86.7,14837],[86.7,14922],[86.7,15004],[86.7,15087],[86.7,15172],[86.7,15255],[86.7,15337],[86.7,15422],[86.7,15504],[86.7,15588],[86.7,15672],[86.7,15754],[86.7,15838],[86.7,15922],[86.7,16004],[86.7,16087],[86.7,16172],[86.7,16254],[86.7,16337],[86.7,16422],[89.1,16504],[89.2,16587],[89.2,16670],[89.2,16754],[89.2,16837],[89.2,16922],[89.2,17005],[88.4,17088],[88.4,17172],[88.4,17261],[88.5,17346],[88.5,17428],[88.5,17511],[88.5,17595],[88.5,17678],[88.5,17761],[88.5,17845],[88.5,17928],[88.5,18011],[88.5,18095],[88.5,18177],[88.5,18261],[88.5,18345],[91.4,18428],[91.5,18511],[91.5,18595],[91.5,18678],[91.5,18761],[91.5,18845],[91.5,18927],[91.5,19011],[91.5,19095],[91.5,19178],[91.5,19261],[91.5,19345],[91.5,19427],[91.5,19511],[91.5,19596],[91.5,19677],[91.5,19761],[91.5,19845],[91.5,19927],[91.5,20011],[91.5,20096],[91.5,20178],[91.5,20260],[91.5,20346]]",1,0,813.29,Not at all,0,813.292,,,[],,813.292,815.046,91.35416667,1.121,"[{""rating"":91.35416666666667,""responseTime"":1.120999999999981}]",space,1.239,,0,13,13,13,1,audio/Narrative8Situation4.wav,audio/Narrative7Situation4.wav,audio/Narrative6Situation4.wav,audio/Narrative5Situation4.wav,3,3,2,1,,,,,,,,,,,,,,,,,,,,,,,,,,,,,,,,,,,,,,
,,,,,,5f1b0abbb84a5207673cb637,2024-02-05_16h42.10.891,group3.1-3.2-social-tom,2023.2.2,Win32,144.092219,65b1b24e3a500fd6b5dc9abd,65c154888294498f23430e6e,,,,,,,,,,,,,,,,,,,,,,,,,,,,,815.047,820.053,,820.053,835.461,"[[93.8,166],[94,249],[94,333],[94,416],[91.4,499],[89.3,583],[89.3,666],[89.3,750],[89.3,833],[90.2,916],[90.9,999],[90.9,1083],[90.9,1166],[90.9,1250],[90.9,1331],[90.9,1416],[90.9,1499],[90.9,1583],[90.9,1666],[90.9,1749],[90.9,1833],[90.9,1916],[90.9,1999],[90.9,2081],[90.9,2166],[90.9,2250],[90.9,2331],[90.9,2416],[90.9,2499],[90.9,2583],[90.9,2666],[90.9,2749],[90.9,2833],[90.9,2916],[90.9,2999],[90.9,3081],[90.9,3165],[90.9,3249],[92.6,3331],[94.4,3416],[94.5,3499],[94.5,3583],[94.5,3666],[94.5,3749],[94.5,3831],[94.5,3916],[94.5,3999],[94.5,4081],[94.5,4166],[94.5,4249],[94.5,4333],[94.5,4415],[94.5,4499],[94.5,4581],[94.5,4666],[94.5,4749],[94.5,4833],[94.5,4915],[94.5,4999],[94.5,5081],[94.5,5166],[94.5,5249],[94.5,5331],[94.5,5416],[94.5,5499],[94.5,5583],[94.5,5666],[94.5,5749],[94.5,5831],[94.5,5916],[94.5,5999],[94.5,6081],[94.5,6165],[94.5,6248],[94.5,6331],[94.5,6415],[94.5,6499],[94.5,6581],[94.5,6666],[94.5,6748],[94.5,6833],[94.5,6915],[94.5,6999],[94.3,7081],[94.2,7165],[94.2,7249],[94.2,7331],[94.2,7416],[94.2,7499],[94.2,7581],[94.2,7665],[94.2,7749],[94.2,7831],[94.2,7916],[94.2,7998],[94.2,8081],[94.2,8165],[94.2,8249],[94.2,8331],[94.2,8415],[94.2,8499],[94.2,8581],[94.2,8666],[94.2,8749],[94.2,8831],[94.2,8915],[94.2,8999],[94.2,9081],[94.2,9165],[94.2,9248],[94.2,9331],[94.2,9416],[94.2,9499],[94.2,9581],[94.2,9665],[94.2,9749],[94.2,9831],[94.2,9916],[94.2,9998],[94.2,10081],[94.2,10165],[94.2,10248],[94.2,10331],[94.2,10415],[94.2,10499],[94.2,10581],[94.2,10665],[94.2,10748],[94.2,10831],[94.2,10915],[94.2,10999],[94.2,11081],[94.2,11165],[94.2,11249],[94.2,11331],[94.2,11416],[94.2,11498],[94.2,11581],[94.2,11665],[94.2,11749],[94.2,11831],[94.2,11915],[94.2,11998],[94.2,12081],[94.2,12165],[88.8,13998],[88.8,14081],[87.7,14831],[87.6,14915],[87.6,14998],[87.6,15081],[87.6,15165],[87.6,15248],[87.6,15331]]",1,0,835.462,Not at all,0,835.463,,,[],,835.463,837.246,90.625,0.976,"[{""rating"":90.625,""responseTime"":0.9759999999999991}]",space,1.264,,0,14,14,14,1,audio/Narrative8Situation5.wav,audio/Narrative7Situation5.wav,audio/Narrative6Situation5.wav,audio/Narrative5Situation5.wav,2,5,2,5,,,,,,,,,,,,,,,,,,,,,,,,,,,,,,,,,,,,,,
,,,,,,5f1b0abbb84a5207673cb637,2024-02-05_16h42.10.891,group3.1-3.2-social-tom,2023.2.2,Win32,144.092219,65b1b24e3a500fd6b5dc9abd,65c154888294498f23430e6e,,,,,,,,,,,,,,,,,,,,,,,,,,,,,837.246,840.253,,840.253,845.919,"[[92,1500],[92,1581],[92,1665],[92,1749],[92,1832],[92,1915],[92,1999],[92,2081],[92,2165],[92,2249],[92,2331],[92,2415],[92,2499],[92,2582],[92,2665],[92,2749],[92,2832],[92,2915],[92,2999],[92,3081],[92,3165],[92,3249],[91.7,3332],[91.6,3414],[91.3,3499],[91.1,3581],[91.1,3665],[91.1,3750],[91.1,3832],[91.1,3914],[90.8,3999]]",1,0,845.919,All the time,100,845.921,,,[],,845.921,847.537,90.72916667,1.016,"[{""rating"":90.72916666666666,""responseTime"":1.0159999999999627}]",space,1.101,,0,15,15,15,1,audio/Narrative8Situation6.wav,audio/Narrative7Situation6.wav,audio/Narrative6Situation6.wav,audio/Narrative5Situation6.wav,2,3,2,3,,,,,,,,,,,,,,,,,,,,,,,,,,,,,,,,,,,,,,
,,,,,,5f1b0abbb84a5207673cb637,2024-02-05_16h42.10.891,group3.1-3.2-social-tom,2023.2.2,Win32,144.092219,65b1b24e3a500fd6b5dc9abd,65c154888294498f23430e6e,,,,,,,,,,,,,,,,,,,,,,,,,,,,,847.537,851.543,,851.543,872.57,"[[91.8,167],[91.7,250],[91.7,333],[91.7,416],[91.7,500],[91.7,584],[91.7,667],[91.7,750],[91.7,834],[91.7,917],[91.7,1000],[91.7,1084],[91.7,1167],[91.7,1250],[91.7,1333],[91.7,1416],[91.7,1500],[91.7,1583],[91.7,1666],[91.7,1750],[91.7,1833],[91.7,1917],[91.7,2000],[91.7,2083],[91.7,2166],[91.7,2250],[91.7,2334],[91.7,2417],[91.7,2500],[91.7,2583],[91.7,2667],[91.7,2750],[91.7,2833],[91.7,2917],[91.7,3000],[91.7,3083],[91.7,3167],[91.7,3249],[91.7,3333],[91.7,3416],[91.7,3500],[91.7,3584],[91.6,3667],[91.6,3750],[91.6,3833],[91.6,3917],[91.6,3999],[91.6,4083],[91.6,4167],[91.6,4250],[91.6,4333],[91.6,4416],[91.4,4500],[91.4,4584],[91.4,4666],[91.4,4750],[91.4,4833],[91.4,4917],[91.4,5000],[91.4,5084],[91.4,5167],[91.4,5250],[91.4,5333],[91.4,5417],[91.4,5499],[91.4,5583],[91.4,5667],[91.4,5750],[91.4,5833],[90.6,5916],[90.5,6000],[90.5,6083],[90.9,7667],[90.9,7750],[90.9,7833],[90.9,7917],[90.4,7999],[90.4,8083],[90.4,8167],[90.4,8250],[90.4,8333],[90.4,8416],[90.5,8500],[90.5,8583],[90.5,8666],[91.1,8750],[91.8,8833],[92.3,8916],[92.3,9000],[92.3,9081],[92.3,9166],[92.3,9249],[92.3,9333],[92.3,9416],[92.3,9499],[92.3,9583],[95.8,9667],[95.8,9750],[95.8,9833],[95.8,9916],[95.8,10000],[95.8,10083],[95.4,10166],[95.4,10249],[95.4,10333],[95.4,10417],[95.4,10499],[95.4,10583],[95.4,10666],[95.4,10749],[95.4,10833],[95.4,10916],[95.4,11000],[95.4,11083],[95.4,11166],[95.4,11249],[95.4,11333],[95.4,11416],[95.4,11500],[95.4,11581],[95.4,11666],[95.4,11749],[95.4,11833],[95.4,11916],[95.4,11999],[95.4,12083],[95.4,12166],[95.4,12250],[95.4,12331],[95.4,12416],[95.4,12500],[95.4,12583],[95.4,12666],[95.4,12749],[95.4,12833],[95.4,12916],[95.4,12999],[95.4,13081],[95.4,13166],[95.4,13249],[95.4,13333],[95.4,13416],[95.4,13499],[95.4,13581],[95.4,13666],[95.4,13750],[95.4,13833],[95.4,13916],[95.4,13999],[95.4,14083],[95.4,14166],[95.4,14249],[95.4,14333],[95.4,14416],[95.4,14500],[95.4,14581],[95.4,14666],[95.4,14749],[95.4,14831],[95.4,14916],[95.2,14999],[94.5,15081],[94.5,15166],[94.5,15249],[94.5,15333],[94.5,15415],[94.5,15499],[94.5,15583],[94.5,15666],[94.5,15749],[94.5,15831],[94.5,15916],[94.5,15999],[94.5,16081],[94.5,16166],[94.5,16249],[94.5,16333],[94.5,16416],[94.5,16499],[94.5,16581],[94.5,16665],[94.5,16749],[94.5,16831],[94.5,16915],[94.5,16999],[94.5,17081],[94.5,17166],[94.5,17249],[94.5,17333],[94.5,17416],[94.5,17499],[94.5,17581],[94.5,17666],[94.5,17749],[94.5,17831],[94.5,17915],[94.5,17999],[94.5,18081],[94.5,18165],[94.5,18249],[94.5,18331],[94.5,18415],[94.5,18498],[94.5,18581],[94.5,18666],[94.5,18749],[94.5,18831],[94.5,18916],[94.5,18999],[94.5,19081],[94.5,19165],[94.5,19249],[94.5,19333],[94.5,19415],[94.5,19499],[94.5,19581],[94.5,19665],[94.5,19748],[94.5,19831],[94.5,19916],[94.5,19999],[94.5,20081],[94.5,20166],[94.5,20248],[94.5,20331],[94.5,20415],[94.5,20499],[94.5,20581],[94.5,20665],[94.5,20749],[94.5,20831],[94.5,20915],[94.5,20998]]",1,0,872.57,Half the time,50,872.573,,,[],,872.573,874.202,94.47916667,1.049,"[{""rating"":94.47916666666667,""responseTime"":1.0489999999999782}]",space,1.112,,0,16,16,16,1,audio/Narrative8Situation7.wav,audio/Narrative7Situation7.wav,audio/Narrative6Situation7.wav,audio/Narrative5Situation7.wav,3,5,5,4,,,,,,,,,,,,,,,,,,,,,,,,,,,,,,,,,,,,,,
,,,,,,5f1b0abbb84a5207673cb637,2024-02-05_16h42.10.891,group3.1-3.2-social-tom,2023.2.2,Win32,144.092219,65b1b24e3a500fd6b5dc9abd,65c154888294498f23430e6e,,,,,,,,,,,,,,,,,,,,,,,,,,,,,874.202,877.208,,877.209,886.013,"[[94.1,831],[93.2,915],[92.4,999],[91.9,1081],[91.7,1165],[91.7,1249],[91.7,1331],[91.7,1415],[91.7,1499],[91.7,1582],[91.7,1664],[91.7,1749],[91.7,1831],[91.7,1915],[91.7,1999],[91.7,2081],[91.7,2165],[91.7,2249],[91.7,2331],[91.7,2414],[91.7,2499],[91.7,2581],[91.7,2664],[91.7,2747],[91.7,2831],[91.7,2915],[91.7,2999],[91.7,3082],[91.7,3165],[91.7,3249],[91.7,3332],[91.7,3415],[91.7,3499],[91.7,3581],[91.7,3665],[91.7,3749],[91.7,3831],[91.7,3914],[91.7,3999],[91.7,4084],[91.7,4164],[91.7,4249],[91.7,4331],[91.7,4414],[91.7,4499],[91.7,4581],[91.7,4664],[91.7,4749],[91.7,4831],[91.7,4915],[91.7,4997],[91.7,5081],[91.7,5164],[91.7,5249],[91.7,5332],[91.7,5414],[91.7,5499],[92.6,5581],[94.2,5664],[94.9,5749],[95.5,5831],[95.7,5915],[96.1,5997],[96.4,6081],[96.5,6164],[96.5,6247],[96.5,6331],[96.5,6415],[96.5,6499],[96.5,6581],[96.5,6664],[96.5,6749],[96.5,6831],[96.5,6914],[96.5,6997],[96.5,7081],[96.5,7164],[96.5,7249],[96.5,7331],[96.5,7414],[96.5,7497],[96,7583],[95.9,7664],[95.6,7749],[95.6,7831],[95.6,7914],[95.6,7997],[95.6,8081],[95.6,8164],[95.1,8249],[94.9,8331],[94.9,8414],[95,8497],[95,8581],[95,8664],[95,8747]]",1,0,886.013,Half the time,50,891.096,49.58333333,4.208,"[{""rating"":95,""responseTime"":0.6209999999999809},{""rating"":50.10416666666667,""responseTime"":2.2040000000000646},{""rating"":50,""responseTime"":2.4320000000000164},{""rating"":49.583333333333336,""responseTime"":4.208000000000084}]",space,891.096,893.52,96.25,1.92,"[{""rating"":96.25,""responseTime"":1.919999999999959}]",space,1.91,,0,17,17,17,1,audio/Narrative8Situation8.wav,audio/Narrative7Situation8.wav,audio/Narrative6Situation8.wav,audio/Narrative5Situation8.wav,3,2,5,3,,,4.568,,,,,,,,,,,,,,,,,,,,,,,,,,,,,,,,,,,
