exp_question,consent.started,consent.stopped,consentResponse.keys,consentResponse.rt,consentResponse.duration,participantID,date,expName,psychopyVersion,OS,frameRate,STUDY_ID,SESSION_ID,opening1.started,opening1.stopped,keyEndingOpening1.keys,keyEndingOpening1.rt,keyEndingOpening1.duration,volumeAdjust.started,volumeAdjust.stopped,endingAdjust.keys,endingAdjust.rt,endingAdjust.duration,opening2.started,opening2.stopped,keyEndingOpening.keys,keyEndingOpening.rt,keyEndingOpening.duration,mouse.x,mouse.y,mouse.leftButton,mouse.midButton,mouse.rightButton,mouse.time,instructionLoop.thisRepN,instructionLoop.thisTrialN,instructionLoop.thisN,instructionLoop.thisIndex,instructionLoop.ran,readyForAudio.started,readyForAudio.stopped,fixation.started,run,audio_played,fixation.stopped,endPractice.keys,audioPre.started,audioPre.stopped,continuousResponses_audio,continuousSlider.response,continuousSlider.rt,intRating.started,intRating.stopped,intQuestionSlider.response,intQuestionSlider.rt,intQuestionSlider.history,confirmResponse.keys,confirmResponse.rt,confirmResponse.duration,catchQuestion.started,catch_label,catch_value,catchQuestion.stopped,catchQuestionSlider.response,catchQuestionSlider.rt,catchQuestionSlider.history,confirmResponse_2.keys,audioRunLoop.thisRepN,audioRunLoop.thisTrialN,audioRunLoop.thisN,audioRunLoop.thisIndex,audioRunLoop.ran,conditions1_1,conditions2_1,conditions1_2,conditions2_2,dur1_1,dur2_1,dur1_2,dur2_2,endPractice.rt,endPractice.duration,confirmResponse_2.rt,confirmResponse_2.duration,runIntervalBreak.started,runIntervalBreak.stopped,endingBreakKey.keys,endingBreakKey.rt,endingBreakKey.duration,connection.started,connection.stopped,connectionEnding.keys,connectionEnding.rt,connectionEnding.duration,readyForText.started,readyForText.stopped,textPre.started,run_dup,textPre.stopped,continuousResponses_text,textRunLoop.thisRepN,textRunLoop.thisTrialN,textRunLoop.thisN,textRunLoop.thisIndex,textRunLoop.ran,text1_1,text1_2,text2_1,text2_2,runBreakText.started,runBreakText.stopped,endingBreakKey_2.keys,endingBreakKey_2.rt,endingBreakKey_2.duration,ending.started,ending.stopped,endingEnding.keys,endingEnding.rt,endingEnding.duration
tom,0.0004,4.5465,y,4.2311,,5f2de2dbf9dbae126ed085b0,2024-02-08_16h02.37.667,group3.1-3.2-social-tom,2023.2.2,Win32,59.88023952,65c5074098b851296ff0b7ed,65c5415f92271d9844ea7b68,,,,,,,,,,,,,,,,,,,,,,,,,,,,,,,,,,,,,,,,,,,,,,,,,,,,,,,,,,,,,,,,,,,,,,,,,,,,,,,,,,,,,,,,,,,,,,,,,,,,,,,,,,
,,,,,,5f2de2dbf9dbae126ed085b0,2024-02-08_16h02.37.667,group3.1-3.2-social-tom,2023.2.2,Win32,59.88023952,65c5074098b851296ff0b7ed,65c5415f92271d9844ea7b68,4.5468,44.2878,space,39.696,,,,,,,,,,,,,,,,,,,,,,,,,,,,,,,,,,,,,,,,,,,,,,,,,,,,,,,,,,,,,,,,,,,,,,,,,,,,,,,,,,,,,,,,,,,,,,,,,,,,,,
,,,,,,5f2de2dbf9dbae126ed085b0,2024-02-08_16h02.37.667,group3.1-3.2-social-tom,2023.2.2,Win32,59.88023952,65c5074098b851296ff0b7ed,65c5415f92271d9844ea7b68,,,,,,44.288,51.6627,space,7.0618,,,,,,,,,,,,,,,,,,,,,,,,,,,,,,,,,,,,,,,,,,,,,,,,,,,,,,,,,,,,,,,,,,,,,,,,,,,,,,,,,,,,,,,,,,,,,,,,,
,,,,,,5f2de2dbf9dbae126ed085b0,2024-02-08_16h02.37.667,group3.1-3.2-social-tom,2023.2.2,Win32,59.88023952,65c5074098b851296ff0b7ed,65c5415f92271d9844ea7b68,,,,,,,,,,,51.6712,59.305,space,7.6022,,[],[],[],[],[],[],0,0,0,0,1,,,,,,,,,,,,,,,,,,,,,,,,,,,,,,,,,,,,,,,,,,,,,,,,,,,,,,,,,,,,,,,,,,,,,,,,,,,,,,,,
,,,,,,5f2de2dbf9dbae126ed085b0,2024-02-08_16h02.37.667,group3.1-3.2-social-tom,2023.2.2,Win32,59.88023952,65c5074098b851296ff0b7ed,65c5415f92271d9844ea7b68,,,,,,,,,,,59.3154,69.2873,space,9.8206,,[],[],[],[],[],[],1,0,1,0,1,,,,,,,,,,,,,,,,,,,,,,,,,,,,,,,,,,,,,,,,,,,,,,,,,,,,,,,,,,,,,,,,,,,,,,,,,,,,,,,,
,,,,,,5f2de2dbf9dbae126ed085b0,2024-02-08_16h02.37.667,group3.1-3.2-social-tom,2023.2.2,Win32,59.88023952,65c5074098b851296ff0b7ed,65c5415f92271d9844ea7b68,,,,,,,,,,,69.2961,94.087,space,24.7323,,[],[],[],[],[],[],2,0,2,0,1,,,,,,,,,,,,,,,,,,,,,,,,,,,,,,,,,,,,,,,,,,,,,,,,,,,,,,,,,,,,,,,,,,,,,,,,,,,,,,,,
,,,,,,5f2de2dbf9dbae126ed085b0,2024-02-08_16h02.37.667,group3.1-3.2-social-tom,2023.2.2,Win32,59.88023952,65c5074098b851296ff0b7ed,65c5415f92271d9844ea7b68,,,,,,,,,,,94.0971,109.637,space,15.5076,,[],[],[],[],[],[],3,0,3,0,1,,,,,,,,,,,,,,,,,,,,,,,,,,,,,,,,,,,,,,,,,,,,,,,,,,,,,,,,,,,,,,,,,,,,,,,,,,,,,,,,
,,,,,,5f2de2dbf9dbae126ed085b0,2024-02-08_16h02.37.667,group3.1-3.2-social-tom,2023.2.2,Win32,59.88023952,65c5074098b851296ff0b7ed,65c5415f92271d9844ea7b68,,,,,,,,,,,109.646,118.4702,space,8.8023,,[],[],[],[],[],[],4,0,4,0,1,,,,,,,,,,,,,,,,,,,,,,,,,,,,,,,,,,,,,,,,,,,,,,,,,,,,,,,,,,,,,,,,,,,,,,,,,,,,,,,,
,,,,,,5f2de2dbf9dbae126ed085b0,2024-02-08_16h02.37.667,group3.1-3.2-social-tom,2023.2.2,Win32,59.88023952,65c5074098b851296ff0b7ed,65c5415f92271d9844ea7b68,,,,,,,,,,,,,,,,,,,,,,,,,,,118.4813,121.0534,121.0876,1,audio/Narrative13Situation2.wav,123.0933,,123.0935,152.8369,"[[999,1],[999,109],[999,193],[999,276],[999,359],[999,443],[999,526],[999,609],[999,693],[999,776],[999,860],[999,943],[999,1027],[999,1109],[999,1193],[999,1276],[999,1359],[999,1443],[999,1527],[999,1609],[999,1692],[999,1776],[999,1860],[999,1943],[28.6,2027],[24.2,2110],[21,2193],[20.1,2277],[17.8,2360],[16.3,2444],[14,2527],[11.4,2610],[9,2693],[6.5,2777],[4.9,2860],[4.1,2943],[3.1,3027],[2.7,3110],[2.4,3193],[1.8,3276],[1.5,3360],[1.1,3444],[1.1,3526],[1.1,3609],[1.1,3693],[1.1,3776],[1.7,3860],[4,3943],[7.2,4033],[10.6,4117],[12.8,4200],[13.5,4283],[13.9,4366],[13.9,4449],[13.9,4533],[13.9,4616],[13.9,4699],[13.9,4783],[13.9,4866],[13.9,4949],[13.9,5033],[13.9,5116],[13.9,5199],[13.9,5283],[13.9,5366],[13.9,5449],[13.9,5532],[13.9,5617],[13.9,5699],[14.1,5783],[14.3,5866],[14.3,5949],[14.3,6033],[14.3,6116],[14.3,6199],[14.3,6283],[14.3,6366],[14.3,6449],[14.3,6533],[14.3,6616],[14.3,6699],[14.3,6782],[14.3,6866],[14.3,6949],[14.3,7032],[14.3,7116],[14.3,7199],[14.3,7283],[14.3,7366],[14.3,7449],[14.3,7532],[14.3,7616],[14.3,7699],[14.3,7782],[14.3,7866],[14.3,7949],[14.3,8033],[14.3,8116],[14.3,8199],[14.3,8282],[14.3,8366],[14.3,8449],[14.3,8533],[14.3,8617],[14.3,8700],[14.3,8783],[14.3,8866],[14.3,8949],[14.3,9033],[14.3,9116],[14.3,9199],[14.3,9283],[14.3,9367],[14.3,9449],[14.3,9533],[14.3,9616],[14.3,9699],[14.3,9782],[14.3,9866],[14.1,9958],[13.5,10033],[12.6,10116],[12.2,10200],[11.9,10283],[11.5,10367],[11,10450],[10.6,10533],[10.3,10616],[9.6,10700],[9,10783],[8.1,10867],[7.6,10950],[7,11033],[6.8,11116],[6.5,11199],[6.4,11282],[6.4,11366],[6.4,11449],[6.3,11533],[6.1,11616],[5.8,11700],[5.5,11783],[5.1,11867],[4.6,11950],[4.1,12033],[3.6,12116],[3.4,12199],[2.7,12284],[2.3,12366],[2.3,12449],[2.3,12533],[2.3,12616],[2.3,12699],[2.3,12783],[2.3,12866],[2.3,12949],[2.3,13033],[2.3,13116],[2.3,13199],[2.3,13282],[2.3,13366],[2.3,13449],[2.3,13532],[2.3,13616],[2.3,13699],[2.3,13782],[2.3,13866],[2.3,13949],[2.3,14049],[2.3,14132],[2.3,14216],[2.3,14299],[2.3,14382],[2.3,14466],[2.3,14549],[2.3,14632],[2.3,14716],[2.3,14799],[2.3,14882],[2.3,14966],[2.3,15049],[2.3,15132],[2.3,15216],[2.3,15299],[2.3,15382],[2.3,15466],[2.3,15549],[2.3,15632],[2.3,15716],[2.3,15799],[2.3,15883],[2.3,15966],[2.3,16049],[2.3,16133],[2.3,16216],[2.3,16299],[2.3,16383],[2.3,16466],[2.3,16549],[2.3,16632],[2.3,16716],[2.3,16799],[2.3,16883],[2.3,16966],[2.3,17049],[2.3,17132],[2.3,17216],[2.3,17299],[2.3,17382],[2.3,17466],[2.3,17549],[2.3,17632],[2.3,17709],[2.3,17799],[2.3,17882],[2.3,17966],[2.3,18049],[2.3,18132],[2.3,18216],[2.3,18299],[2.3,18382],[2.3,18459],[2.3,18549],[2.3,18632],[2.3,18716],[2.3,18799],[2.3,18884],[2.3,18966],[2.3,19049],[2.3,19132],[2.3,19216],[2.3,19292],[2.3,19376],[2.3,19466],[2.3,19549],[2.3,19626],[2.3,19716],[2.3,19792],[2.3,19882],[2.3,19966],[3.6,20051],[4.4,20133],[6.6,20217],[7.4,20299],[7.4,20382],[7.8,20467],[8.8,20550],[9.7,20633],[10.3,20716],[11.1,20799],[11.9,20883],[12.6,20966],[14.2,21050],[15.3,21133],[16.8,21216],[16.9,21299],[16.9,21382],[16.9,21462],[16.9,21549],[16.9,21632],[17.2,21716],[17.6,21799],[18.5,21883],[18,21966],[18,22049],[18,22132],[18,22216],[18,22299],[18,22382],[18,22466],[18,22549],[18,22632],[18,22716],[18,22799],[18,22882],[18,22966],[18.8,23049],[18.9,23133],[18.9,23209],[18.9,23299],[18.9,23382],[18.9,23466],[18.9,23549],[18.9,23633],[18.9,23714],[18.9,23799],[18.9,23883],[18.9,23966],[18.9,24049],[18.9,24132],[18.9,24216],[18.9,24299],[18.9,24383],[18.9,24459],[18.9,24549],[18.9,24632],[18.9,24716],[18.9,24799],[18.9,24882],[18.9,24966],[18.9,25049],[18.9,25132],[18.9,25216],[18.9,25299],[18.9,25376],[18.9,25466],[18.9,25549],[18.9,25632],[18.9,25716],[18.9,25799],[18.9,25882],[18.9,25962],[18.9,26049],[18.9,26132],[18.9,26215],[18.9,26299],[18.9,26382],[18.9,26466],[18.9,26549],[18.9,26632],[18.9,26716],[18.9,26799],[18.9,26883],[18.9,26966],[18.9,27049],[18.9,27129],[18.9,27216],[18.9,27292],[18.9,27382],[18.9,27465],[18.9,27549],[18.9,27627],[18.9,27716],[18.9,27796],[18.9,27876],[18.9,27966],[18.9,28042],[18.9,28132],[18.9,28209],[18.9,28299],[18.9,28382],[18.9,28459],[18.9,28549],[18.9,28632],[18.9,28716],[18.9,28800],[18.9,28886],[18.9,28966],[18.9,29050],[18.9,29132],[18.9,29216],[18.9,29299],[18.9,29382],[38.3,29476],[38.4,29559],[44.7,29643],[50.4,29726]]",1,0,152.8374,157.5208,7.708333333,2.8889,"[{""rating"":7.708333333333334,""responseTime"":2.88890000009539}]",space,4.1365,,157.5212,All the time,100,157.5262,,,[],,0,0,0,0,1,audio/Narrative13Situation2.wav,audio/Narrative13Situation2.wav,audio/Narrative13Situation2.wav,audio/Narrative13Situation2.wav,2,2,2,2,,,,,,,,,,,,,,,,,,,,,,,,,,,,,,,,,,,,,,,
,,,,,,5f2de2dbf9dbae126ed085b0,2024-02-08_16h02.37.667,group3.1-3.2-social-tom,2023.2.2,Win32,59.88023952,65c5074098b851296ff0b7ed,65c5415f92271d9844ea7b68,,,,,,,,,,,,,,,,,,,,,,,,,,,,,157.5265,1,audio/Narrative7Situation1.wav,159.8861,space,159.8863,215.7756,"[[999,1],[999,89],[999,173],[999,256],[999,340],[999,422],[999,506],[999,589],[999,672],[999,756],[999,840],[999,923],[999,1006],[999,1089],[999,1173],[999,1256],[999,1340],[999,1423],[999,1506],[38.5,1590],[38.2,1673],[38.2,1756],[38.2,1839],[38.2,1923],[38.2,2006],[36.8,2092],[30.4,2168],[21.6,2256],[14.2,2340],[9.2,2423],[3.5,2506],[1.1,2590],[0.8,2672],[0.7,2756],[0.6,2839],[0.6,2916],[0.6,3006],[0.6,3089],[1.1,3173],[1.1,3256],[1.1,3339],[1.1,3422],[1.1,3503],[1.1,3589],[1.1,3672],[1.1,3753],[1.1,3839],[1.1,3923],[1.1,4006],[1.1,4089],[1.1,4173],[1.1,4256],[1.1,4339],[1.1,4423],[1.1,4506],[1.1,4589],[1.1,4673],[1.1,4756],[1.1,4839],[1.1,4923],[1.1,5006],[1.1,5089],[1.1,5173],[1.1,5256],[1.1,5332],[1.1,5422],[1.1,5506],[1.1,5589],[1.1,5672],[1.1,5756],[1.1,5839],[1.1,5916],[1.1,6006],[1.1,6089],[1.1,6172],[1.1,6256],[1.1,6339],[1.1,6423],[1.1,6507],[1.1,6589],[1.1,6672],[1.1,6749],[1.1,6839],[1.1,6922],[1.1,7006],[1.1,7089],[1.1,7173],[1.1,7256],[1.1,7339],[1.1,7423],[1.1,7506],[1.1,7589],[1.1,7673],[1.1,7756],[1.1,7839],[1.1,7923],[1.1,8006],[1.1,8089],[1.1,8171],[1.1,8256],[1.1,8339],[1.1,8422],[1.1,8506],[1.1,8589],[1.1,8672],[1.1,8756],[1.1,8839],[1.1,8922],[1.1,9006],[1.1,9089],[1.1,9172],[1.1,9256],[1.1,9339],[1.1,9423],[1.1,9506],[1.1,9589],[1.1,9673],[1.1,9749],[1.1,9839],[1.1,9923],[1.1,10006],[1.1,10089],[1.1,10173],[1.1,10256],[1.1,10339],[1.1,10423],[1.1,10506],[1.1,10589],[1.1,10673],[1.1,10756],[1.1,10839],[1.1,10922],[1.1,11006],[1.1,11089],[1.1,11172],[1.1,11256],[1.1,11339],[1.1,11422],[1.1,11506],[1.1,11589],[1.1,11672],[1.1,11756],[1.1,11839],[1.1,11922],[1.1,12006],[1.1,12083],[1.1,12173],[1.1,12249],[1.1,12339],[1.1,12422],[1.1,12506],[1.1,12589],[1.1,12672],[1.1,12756],[1.1,12839],[1.1,12923],[1.1,13006],[1.1,13082],[1.1,13173],[1.1,13256],[1.1,13339],[1.1,13423],[1.1,13506],[1.1,13589],[1.1,13673],[1.1,13749],[1.1,13839],[1.1,13923],[1.1,14006],[1.1,14089],[1.1,14172],[1.1,14256],[1.1,14339],[1.1,14422],[1.1,14506],[1.1,14582],[1.1,14672],[1.1,14756],[1.1,14839],[1.1,14922],[1.1,15006],[1.1,15089],[1.1,15172],[1.1,15256],[1.1,15339],[1.1,15422],[1.1,15506],[1.1,15589],[1.1,15672],[1.1,15756],[1.1,15839],[1.1,15923],[1.1,16006],[1.1,16089],[1.1,16166],[1.1,16256],[1.1,16339],[1.1,16423],[1.1,16506],[1.1,16589],[1.1,16666],[1.1,16756],[1.1,16839],[1.1,16916],[1.1,17006],[1.1,17089],[1.1,17172],[1.1,17266],[1.1,17349],[1.1,17432],[1.1,17516],[1.1,17599],[1.1,17682],[1.1,17766],[1.1,17849],[5.1,17933],[12.3,18016],[15.1,18099],[27.3,18183],[40.6,18266],[44.3,18349],[47.8,18433],[50.2,18516],[50.3,18599],[50.4,18683],[50.4,18766],[50.4,18849],[50.4,18932],[50.4,19016],[50.4,19099],[50.4,19182],[50.4,19266],[50.4,19349],[50.4,19432],[50.4,19516],[50.4,19599],[50.4,19682],[50.4,19766],[51,19849],[52.1,19933],[52.3,20016],[52.4,20099],[52.4,20182],[52.4,20266],[52.4,20349],[52.4,20433],[52.4,20516],[52.4,20599],[52.4,20682],[52.4,20766],[52.4,20849],[52.4,20932],[52.1,21016],[52,21106],[52,21189],[52,21273],[52,21355],[51.9,21439],[51.8,21522],[51.4,21606],[51.3,21689],[51.1,21773],[51.1,21855],[51.1,21939],[51.1,22022],[51.1,22106],[51.1,22183],[51.1,22267],[51.1,22356],[51.1,22439],[51.1,22522],[51.1,22606],[51.1,22689],[51.1,22772],[51.7,22856],[53,22939],[56.1,23023],[58.8,23107],[60.4,23189],[62.9,23273],[65.6,23357],[68,23439],[70.9,23523],[71.6,23606],[74.4,23689],[76.7,23773],[77.3,23856],[78,23939],[79.2,24023],[81,24123],[81.7,24206],[82.2,24289],[84,24373],[85.1,24456],[87.8,24557],[88.1,24639],[89.4,24740],[90.1,24823],[90.2,24906],[90.9,24990],[91.1,25066],[91.3,25156],[91.5,25239],[91.6,25319],[92.9,25406],[93.1,25489],[93.2,25573],[93.3,25656],[93.6,25739],[93.8,25823],[93.8,25906],[93.8,25989],[93.8,26072],[94,26156],[94,26239],[94.1,26322],[94.1,26406],[94.2,26482],[94.2,26566],[94.2,26656],[95.9,26739],[95.9,26816],[95.9,26899],[95.9,26989],[95.9,27073],[95.9,27156],[95.9,27239],[95.9,27316],[95.9,27406],[95.9,27489],[95.9,27573],[95.9,27656],[95.9,27739],[95.9,27822],[95.9,27906],[96.3,27990],[96.7,28067],[96.8,28149],[96.9,28239],[97,28322],[97.1,28406],[97.1,28489],[97.1,28573],[97.4,28656],[97.5,28739],[97.5,28822],[97.5,28906],[97.5,28989],[97.5,29066],[97.5,29156],[97.5,29239],[97.5,29322],[97.5,29406],[97.5,29489],[97.5,29572],[97.5,29655],[97.5,29739],[97.5,29823],[97.5,29906],[97.5,29989],[97.5,30073],[97.5,30156],[97.5,30239],[97.5,30322],[97.5,30405],[97.5,30489],[97.5,30566],[97.5,30655],[97.5,30738],[97.5,30822],[97.5,30906],[97.5,30989],[97.5,31073],[97.5,31156],[97.5,31239],[97.5,31322],[97.5,31406],[97.5,31489],[97.5,31572],[97.5,31656],[97.5,31739],[97.5,31822],[97.5,31899],[97.5,31989],[97.5,32073],[97.5,32156],[97.5,32241],[97.5,32316],[97.5,32400],[97.5,32489],[97.5,32567],[97.5,32649],[97.5,32739],[97.5,32822],[97.5,32906],[97.5,32989],[97.5,33073],[97.5,33152],[97.5,33239],[97.5,33315],[97.5,33406],[97.5,33489],[97.5,33573],[97.5,33655],[97.5,33739],[97.5,33816],[97.5,33905],[97.5,33989],[97.5,34066],[97.5,34155],[97.5,34239],[97.5,34316],[97.5,34405],[97.5,34489],[97.5,34575],[97.5,34655],[97.5,34739],[97.5,34822],[97.5,34906],[97.5,34989],[97.5,35075],[97.5,35157],[97.5,35239],[97.5,35322],[97.5,35406],[97.5,35489],[97.5,35575],[97.5,35656],[97.5,35739],[97.5,35822],[97.5,35899],[97.5,35989],[97.5,36073],[97.5,36155],[97.5,36239],[97.5,36322],[97.5,36405],[97.5,36489],[97.5,36575],[97.5,36655],[97.5,36739],[97.5,36823],[97.5,36905],[97.5,36989],[97.5,37072],[97.5,37156],[97.5,37239],[97.5,37332],[97.5,37415],[97.5,37499],[97.5,37582],[97.5,37666],[97.5,37749],[97.5,37832],[97.5,37915],[97.5,37999],[97.5,38082],[97.5,38165],[97.5,38249],[97.5,38332],[97.5,38416],[97.5,38499],[97.5,38582],[97.5,38665],[97.5,38749],[97.5,38832],[97.5,38915],[97.5,38999],[97.5,39089],[97.5,39173],[97.5,39255],[97.5,39339],[97.5,39422],[97.5,39505],[97.5,39583],[97.5,39672],[97.5,39755],[97.5,39839],[97.5,39921],[97.5,40005],[97.5,40090],[97.5,40172],[97.5,40255],[97.5,40339],[97.5,40422],[97.5,40506],[97.5,40582],[97.5,40672],[97.5,40755],[97.5,40839],[97.5,40922],[97.5,41005],[97.5,41082],[97.5,41172],[97.5,41256],[97.5,41339],[97.5,41422],[97.5,41499],[97.5,41589],[97.5,41672],[97.5,41749],[97.5,41839],[97.5,41922],[97.5,42006],[97.5,42089],[97.5,42172],[97.5,42250],[97.5,42332],[97.5,42423],[97.5,42507],[97.5,42589],[97.5,42672],[97.5,42756],[97.5,42839],[97.5,42922],[97.5,43006],[97.5,43089],[97.5,43166],[97.5,43255],[97.5,43339],[97.5,43415],[97.5,43505],[97.5,43589],[97.5,43672],[97.5,43755],[97.5,43839],[97.5,43922],[97.5,44005],[97.5,44082],[97.5,44172],[97.5,44255],[97.5,44339],[97.5,44418],[97.5,44505],[97.5,44582],[97.5,44665],[97.5,44755],[97.5,44839],[97.5,44922],[97.5,45002],[97.5,45089],[97.5,45172],[97.5,45249],[97.5,45339],[97.5,45422],[97.5,45506],[97.5,45583],[97.5,45672],[97.5,45756],[97.5,45839],[97.5,45922],[97.5,46005],[97.5,46089],[97.5,46172],[93,46266],[91.5,46349],[91.5,46432],[93.9,46516],[88.1,46599],[83.2,46682],[76.7,46766],[69.7,46849],[63.5,46932],[61.6,47016],[61.1,47099],[61.1,47182],[61.1,47265],[61.1,47355],[61.1,47432],[61.1,47522],[61.1,47605],[61.1,47689],[61.1,47765],[61.1,47855],[61.1,47939],[61.1,48022],[61.1,48106],[61.1,48188],[61.1,48272],[61.1,48355],[61.1,48439],[61.1,48522],[61.1,48605],[61.1,48688],[61.1,48772],[61.1,48849],[61.1,48938],[61.1,49015],[61.1,49105],[61.1,49188],[61.1,49272],[61.1,49355],[61.1,49439],[61.1,49522],[61.1,49602],[61.1,49688],[61.1,49772],[61.1,49855],[61.1,49938],[61.1,50015],[61.1,50105],[61.1,50189],[61.1,50272],[61.1,50355],[61.1,50439],[61.1,50522],[61.1,50599],[61.1,50689],[61.1,50772],[61.1,50855],[61.1,50939],[61.1,51015],[61.1,51099],[61.1,51182],[61.1,51266],[61.1,51355],[61.1,51439],[61.1,51522],[61.1,51605],[61.1,51682],[61.1,51765],[61.1,51855],[61.1,51932],[61.1,52019],[61.1,52105],[61.1,52189],[61.1,52272],[61.1,52349],[61.1,52438],[61.1,52523],[61.1,52605],[61.1,52688],[61.1,52772],[61.1,52855],[61.1,52938],[61.1,53022],[61.1,53105],[61.1,53188],[61.1,53272],[61.1,53355],[61.1,53432],[61.1,53522],[61.1,53602],[61.1,53685],[61.1,53772],[61.1,53855],[61.1,53939],[61.1,54022],[61.1,54105],[61.1,54189],[61.1,54265],[61.1,54355],[61.1,54439],[61.1,54522],[61.1,54605],[61.1,54689],[61.1,54772],[61.1,54855],[61.1,54935],[61.1,55022],[61.1,55099],[61.1,55182],[61.1,55272],[61.1,55356],[61.1,55432],[61.1,55522],[61.1,55606],[61.1,55682],[61.1,55772],[61.1,55855]]",1,0,215.7761,220.252,66.97916667,3.054,"[{""rating"":66.97916666666667,""responseTime"":3.054000000000002}]",space,3.9242,,220.2521,All the time,100,220.2541,,,[],,0,1,1,1,1,audio/Narrative7Situation1.wav,audio/Narrative8Situation1.wav,audio/Narrative5Situation1.wav,audio/Narrative6Situation1.wav,2,5,5,2,2.33,,,,,,,,,,,,,,,,,,,,,,,,,,,,,,,,,,,,,,
,,,,,,5f2de2dbf9dbae126ed085b0,2024-02-08_16h02.37.667,group3.1-3.2-social-tom,2023.2.2,Win32,59.88023952,65c5074098b851296ff0b7ed,65c5415f92271d9844ea7b68,,,,,,,,,,,,,,,,,,,,,,,,,,,,,220.2544,1,audio/Narrative7Situation2.wav,223.2686,,223.2687,230.759,"[[999,0],[999,83],[999,166],[999,249],[999,333],[999,416],[999,499],[999,583],[999,666],[999,749],[999,833],[999,916],[999,999],[999,1083],[999,1166],[999,1249],[999,1333],[999,1416],[999,1499],[999,1583],[999,1666],[999,1749],[999,1833],[999,1916],[999,1999],[999,2083],[999,2166],[999,2249],[999,2333],[999,2416],[999,2499],[999,2583],[999,2666],[999,2749],[999,2833],[999,2916],[999,2999],[999,3083],[999,3166],[999,3249],[999,3333],[999,3416],[999,3499],[999,3583],[999,3666],[999,3749],[999,3833],[999,3916],[999,4006],[999,4090],[999,4173],[999,4250],[999,4339],[999,4423],[999,4506],[999,4589],[999,4673],[999,4756],[999,4839],[999,4923],[999,5006],[999,5083],[999,5173],[999,5256],[999,5339],[999,5423],[999,5509],[999,5590],[999,5673],[999,5756],[999,5833],[999,5916],[999,6006],[999,6090],[999,6173],[999,6257],[999,6333],[999,6416],[999,6506],[999,6583],[999,6673],[999,6749],[999,6839],[999,6923],[999,7006],[999,7089],[999,7169],[999,7256],[999,7339],[999,7423]]",1,0,230.7594,234.2756,1.458333333,1.9295,"[{""rating"":1.4583333333333337,""responseTime"":1.9294999999999902}]",space,2.9673,,234.2758,Half the time,50,234.2799,,,[],,0,2,2,2,1,audio/Narrative7Situation2.wav,audio/Narrative8Situation2.wav,audio/Narrative5Situation2.wav,audio/Narrative6Situation2.wav,3,3,3,3,,,,,,,,,,,,,,,,,,,,,,,,,,,,,,,,,,,,,,,
,,,,,,5f2de2dbf9dbae126ed085b0,2024-02-08_16h02.37.667,group3.1-3.2-social-tom,2023.2.2,Win32,59.88023952,65c5074098b851296ff0b7ed,65c5415f92271d9844ea7b68,,,,,,,,,,,,,,,,,,,,,,,,,,,,,234.2803,1,audio/Narrative7Situation3.wav,242.2851,,242.2852,251.535,"[[999,10],[999,89],[999,175],[999,256],[999,339],[999,424],[999,506],[999,590],[999,673],[999,756],[999,833],[999,916],[999,999],[999,1090],[999,1173],[999,1256],[999,1333],[999,1416],[999,1507],[999,1590],[999,1673],[999,1749],[999,1839],[999,1916],[999,2006],[999,2083],[999,2173],[999,2256],[999,2339],[999,2423],[999,2506],[999,2589],[999,2673],[14.9,2757],[14.7,2840],[14.4,2924],[14.4,3006],[14.4,3089],[14.5,3173],[14.5,3256],[14.6,3339],[14.6,3416],[14.6,3506],[14.7,3589],[14.1,3674],[13,3756],[11.7,3840],[10.7,3924],[9.3,4007],[8.8,4090],[7.8,4174],[7,4257],[5.7,4340],[5.5,4423],[4.6,4507],[3.9,4590],[3.4,4673],[2.6,4757],[2.2,4840],[1.7,4923],[1.5,5016],[1.4,5100],[1.3,5183],[1.3,5266],[1.3,5349],[1.3,5432],[1.3,5516],[1.3,5599],[1.3,5684],[1.3,5766],[1.3,5849],[1.3,5933],[1.3,6016],[1.3,6099],[1.3,6183],[1.3,6266],[1.3,6349],[1.3,6433],[1.3,6516],[1.3,6599],[1.3,6682],[1.3,6766],[1.3,6849],[1.3,6933],[1.3,7016],[1.3,7099],[1.3,7182],[1.3,7266],[1.3,7349],[1.3,7432],[1.3,7516],[1.3,7599],[1.3,7683],[1.3,7766],[1.3,7849],[1.3,7933],[1.3,8016],[1.3,8099],[1.3,8182],[1.3,8266],[1.3,8349],[1.3,8432],[1.3,8516],[1.3,8599],[1.3,8683],[1.3,8766],[1.3,8849],[1.3,8932],[1.3,9016],[1.3,9099],[1.3,9182]]",1,0,251.5352,255.2017,0.3125,2.1986,"[{""rating"":0.3124999999999989,""responseTime"":2.1985999999046157}]",space,3.1176,,255.2017,All the time,100,255.2047,,,[],,0,3,3,3,1,audio/Narrative7Situation3.wav,audio/Narrative8Situation3.wav,audio/Narrative5Situation3.wav,audio/Narrative6Situation3.wav,8,4,3,5,,,,,,,,,,,,,,,,,,,,,,,,,,,,,,,,,,,,,,,
,,,,,,5f2de2dbf9dbae126ed085b0,2024-02-08_16h02.37.667,group3.1-3.2-social-tom,2023.2.2,Win32,59.88023952,65c5074098b851296ff0b7ed,65c5415f92271d9844ea7b68,,,,,,,,,,,,,,,,,,,,,,,,,,,,,255.205,1,audio/Narrative7Situation4.wav,258.2183,,258.2183,269.9749,"[[999,0],[999,83],[999,173],[999,249],[999,339],[999,423],[999,499],[999,589],[999,673],[999,756],[999,839],[999,920],[999,1006],[999,1089],[999,1166],[999,1256],[999,1333],[999,1416],[999,1506],[999,1590],[999,1666],[999,1756],[999,1840],[999,1916],[999,1999],[999,2090],[999,2173],[999,2256],[999,2333],[999,2416],[999,2506],[999,2583],[999,2673],[999,2756],[999,2840],[40.8,2923],[35.1,3007],[32.5,3090],[29.2,3173],[22.3,3257],[15.2,3340],[10,3423],[7.7,3507],[5.7,3590],[5.5,3673],[5.2,3757],[4.8,3833],[2.7,3923],[1.1,4007],[1.6,6684],[14.4,7016],[14.1,7099],[13.5,7183],[13.5,7266],[13.5,7349],[13.5,7432],[13.5,7516],[13.5,7599],[13.5,7683],[13.5,7766],[13.5,7849],[13.5,7933],[13.5,8016],[13.5,8099],[13.5,8183],[13.5,8266],[13.5,8349],[13.5,8432],[13.5,8516],[13.5,8599],[13.5,8683],[13.5,8766],[13.5,8849],[13.5,8932],[13.5,9016],[13.5,9099],[13.5,9182],[13.5,9273],[13.5,9357],[13.5,9433],[13.5,9522],[13.5,9607],[13.5,9682],[13.5,9773],[13.5,9856],[13.5,9939],[13.5,10016],[13.5,10099],[13.5,10189],[13.5,10273],[13.5,10349],[13.5,10436],[13.5,10516],[13.5,10606],[13.5,10686],[13.5,10766],[13.5,10849],[13.5,10939],[13.5,11023],[13.5,11106],[13.5,11189],[13.5,11266],[13.5,11349],[13.5,11432],[13.5,11523],[13.5,11606],[13.5,11689]]",1,0,269.975,272.5084,13.02083333,1.4578,"[{""rating"":13.020833333333332,""responseTime"":1.4577999997138704}]",space,1.9892,,272.5084,Half the time,50,280.1513,49.89583333,5.0028,"[{""rating"":49.895833333333336,""responseTime"":5.002800000190746}]",space,0,4,4,4,1,audio/Narrative7Situation4.wav,audio/Narrative8Situation4.wav,audio/Narrative5Situation4.wav,audio/Narrative6Situation4.wav,3,3,1,2,,,7.0813,,,,,,,,,,,,,,,,,,,,,,,,,,,,,,,,,,,,
,,,,,,5f2de2dbf9dbae126ed085b0,2024-02-08_16h02.37.667,group3.1-3.2-social-tom,2023.2.2,Win32,59.88023952,65c5074098b851296ff0b7ed,65c5415f92271d9844ea7b68,,,,,,,,,,,,,,,,,,,,,,,,,,,,,280.1517,1,audio/Narrative7Situation5.wav,285.1679,,285.1681,293.668,[],1,0,293.6682,297.1748,18.02083333,2.3806,"[{""rating"":18.020833333333336,""responseTime"":2.380599999904632}]",space,2.9404,,297.1749,Half the time,50,297.1767,,,[],,0,5,5,5,1,audio/Narrative7Situation5.wav,audio/Narrative8Situation5.wav,audio/Narrative5Situation5.wav,audio/Narrative6Situation5.wav,5,2,5,2,,,,,,,,,,,,,,,,,,,,,,,,,,,,,,,,,,,,,,,
,,,,,,5f2de2dbf9dbae126ed085b0,2024-02-08_16h02.37.667,group3.1-3.2-social-tom,2023.2.2,Win32,59.88023952,65c5074098b851296ff0b7ed,65c5415f92271d9844ea7b68,,,,,,,,,,,,,,,,,,,,,,,,,,,,,297.177,1,audio/Narrative7Situation6.wav,300.1909,,300.191,310.1678,"[[23.3,9750],[33.6,9826],[33.6,9910]]",1,0,310.168,312.6345,36.77083333,0.6001,"[{""rating"":36.77083333333333,""responseTime"":0.6000999999046144}]",space,1.933,,312.6345,All the time,100,312.6377,,,[],,0,6,6,6,1,audio/Narrative7Situation6.wav,audio/Narrative8Situation6.wav,audio/Narrative5Situation6.wav,audio/Narrative6Situation6.wav,3,2,3,2,,,,,,,,,,,,,,,,,,,,,,,,,,,,,,,,,,,,,,,
,,,,,,5f2de2dbf9dbae126ed085b0,2024-02-08_16h02.37.667,group3.1-3.2-social-tom,2023.2.2,Win32,59.88023952,65c5074098b851296ff0b7ed,65c5415f92271d9844ea7b68,,,,,,,,,,,,,,,,,,,,,,,,,,,,,312.638,1,audio/Narrative7Situation7.wav,317.641,,317.6411,334.8241,"[[40.7,600],[40.7,682],[40.7,766],[40.7,843],[40.7,926],[40.7,1016],[40.7,1099],[40.7,1182],[40.7,1259],[40.7,1343],[40.7,1426],[40.7,1516],[40.7,1593],[40.7,1682],[40.7,1759],[40.7,1851],[40.7,1932],[40.7,2016],[40.7,2099],[40.7,2176],[40.2,2266],[16.1,2766],[15.3,2849],[12.2,2933],[10.7,3016],[10.7,3100],[10.7,3182],[10.7,3266],[11.5,3350],[13.4,3433],[13.4,3516],[13.4,3599],[13.4,3683],[13.4,3766],[13.4,3849],[13.4,3932],[13.4,4016],[13.4,4099],[13.4,4182],[13.4,4263],[13.4,4343],[13.4,4432],[13.4,4509],[13.4,4599],[13.4,4682],[13.4,4759],[13.4,4849],[13.4,4926],[13.4,5016],[13.4,5092],[13.4,5183],[13.4,5266],[13.4,5344],[13.4,5426],[13.4,5509],[13.4,5599],[13.4,5683],[13.4,5759],[13.4,5843],[13.4,5933],[13.4,6016],[13.4,6099],[13.4,6182],[13.4,6259],[13.4,6349],[13.4,6426],[13.4,6516],[13.4,6599],[13.4,6679],[13.4,6766],[13.4,6846],[13.4,6926],[13.4,7013],[13.4,7099],[13.4,7176],[13.4,7266],[13.4,7342],[13.4,7426],[13.4,7509],[13.4,7592],[13.4,7682],[13.4,7766],[13.4,7849],[13.4,7926],[13.4,8016],[13.4,8099],[13.4,8183],[13.4,8266],[13.4,8342],[13.4,8426],[13.4,8516],[13.4,8599],[13.4,8683],[13.4,8759],[13.4,8849],[13.4,8926],[13.4,9016],[13.4,9099],[13.4,9183],[13.4,9266],[13.4,9348],[13.4,9433],[13.4,9509],[13.4,9599],[13.4,9682],[13.4,9774],[13.4,9849],[13.4,9932],[13.4,10016],[13.4,10092],[13.4,10182],[13.4,10259],[13.4,10349],[13.4,10426],[13.4,10516],[13.4,10599],[13.4,10679],[13.4,10766],[13.4,10849],[13.4,10932],[13.4,11016],[13.4,11099],[13.4,11182],[13.4,11259],[13.4,11342],[13.4,11426],[13.4,11516],[13.4,11599],[13.4,11683],[13.4,11766],[13.4,11849],[13.4,11933],[13.4,12016],[13.4,12092],[13.4,12176],[13.4,12266],[13.4,12349],[13.4,12432],[13.4,12509],[13.4,12599],[13.4,12676],[13.4,12766],[13.4,12842],[13.4,12926],[13.4,13016],[13.4,13092],[13.4,13182],[13.4,13266],[13.4,13346],[13.4,13426],[13.4,13516],[13.4,13599],[13.4,13682],[13.4,13766],[13.4,13849],[13.4,13926],[13.4,14016],[13.4,14099],[13.4,14182],[13.4,14259],[13.4,14349],[13.4,14432],[13.4,14516],[13.4,14599],[13.4,14683],[13.4,14762],[13.4,14849],[13.4,14932],[13.4,15016],[13.4,15099],[13.4,15176],[13.4,15266],[13.4,15350],[13.4,15427],[13.4,15510],[13.4,15601],[13.4,15682],[13.4,15759],[13.4,15849],[13.4,15932],[13.4,16009],[13.4,16099],[13.4,16182],[13.4,16259],[13.4,16346],[13.4,16432],[13.4,16516],[13.4,16592],[13.4,16682],[13.4,16766],[13.4,16849],[13.4,16932],[13.4,17016],[13.4,17099],[13.4,17182]]",1,0,334.8242,339.0007,50,3.0732,"[{""rating"":50,""responseTime"":3.0732000002860786}]",space,3.6275,,339.0008,All the time,100,339.0027,,,[],,0,7,7,7,1,audio/Narrative7Situation7.wav,audio/Narrative8Situation7.wav,audio/Narrative5Situation7.wav,audio/Narrative6Situation7.wav,5,3,4,5,,,,,,,,,,,,,,,,,,,,,,,,,,,,,,,,,,,,,,,
,,,,,,5f2de2dbf9dbae126ed085b0,2024-02-08_16h02.37.667,group3.1-3.2-social-tom,2023.2.2,Win32,59.88023952,65c5074098b851296ff0b7ed,65c5415f92271d9844ea7b68,,,,,,,,,,,,,,,,,,,,,,,,,,,,,339.003,1,audio/Narrative7Situation8.wav,341.0173,,341.0173,351.0573,"[[52.7,9940],[52.7,10023]]",1,0,351.0573,354.2239,67.08333333,2.059,"[{""rating"":67.08333333333334,""responseTime"":2.059000000000026}]",space,2.6188,,354.224,Half the time,50,354.2268,,,[],,0,8,8,8,1,audio/Narrative7Situation8.wav,audio/Narrative8Situation8.wav,audio/Narrative5Situation8.wav,audio/Narrative6Situation8.wav,2,3,3,5,,,,,,,,,,,,,,,,,,,,,,,,,,,,,,,,,,,,,,,
,,,,,,5f2de2dbf9dbae126ed085b0,2024-02-08_16h02.37.667,group3.1-3.2-social-tom,2023.2.2,Win32,59.88023952,65c5074098b851296ff0b7ed,65c5415f92271d9844ea7b68,,,,,,,,,,,,,,,,,,,,,,,,,,,,,354.2271,1,audio/Narrative7Situation9.wav,356.2338,,356.2338,364.8671,"[[66.4,8350],[66,8433],[66,8516],[63.1,8599]]",1,0,364.8672,369.7904,48.64583333,2.4618,"[{""rating"":48.645833333333336,""responseTime"":2.461800000190692}]",space,4.3838,,369.7905,Half the time,50,369.7924,,,[],,0,9,9,9,1,audio/Narrative7Situation9.wav,audio/Narrative8Situation9.wav,audio/Narrative5Situation9.wav,audio/Narrative6Situation9.wav,2,3,3,4,,,,,,,,,,,,,,,,,,,,,,,,,,,,,,,,,,,,,,,
,,,,,,5f2de2dbf9dbae126ed085b0,2024-02-08_16h02.37.667,group3.1-3.2-social-tom,2023.2.2,Win32,59.88023952,65c5074098b851296ff0b7ed,65c5415f92271d9844ea7b68,,,,,,,,,,,,,,,,,,,,,,,,,,,,,369.7927,1,audio/Narrative8Situation1.wav,374.8002,,374.8003,390.74,[],1,0,390.7402,423.89,24.27083333,2.7742,"[{""rating"":24.270833333333336,""responseTime"":2.774199999809298}]",space,32.6077,,423.8901,All the time,100,423.8929,,,[],,0,10,10,10,1,audio/Narrative8Situation1.wav,audio/Narrative7Situation1.wav,audio/Narrative6Situation1.wav,audio/Narrative5Situation1.wav,5,2,2,5,,,,,,,,,,,,,,,,,,,,,,,,,,,,,,,,,,,,,,,
,,,,,,5f2de2dbf9dbae126ed085b0,2024-02-08_16h02.37.667,group3.1-3.2-social-tom,2023.2.2,Win32,59.88023952,65c5074098b851296ff0b7ed,65c5415f92271d9844ea7b68,,,,,,,,,,,,,,,,,,,,,,,,,,,,,423.8933,1,audio/Narrative8Situation2.wav,426.9061,,426.9061,437.0229,[],1,0,437.023,442.1079,30.72916667,3.271,"[{""rating"":30.729166666666664,""responseTime"":3.271000000000015}]",space,4.5511,,442.108,All the time,100,442.1106,,,[],,0,11,11,11,1,audio/Narrative8Situation2.wav,audio/Narrative7Situation2.wav,audio/Narrative6Situation2.wav,audio/Narrative5Situation2.wav,3,3,3,3,,,,,,,,,,,,,,,,,,,,,,,,,,,,,,,,,,,,,,,
,,,,,,5f2de2dbf9dbae126ed085b0,2024-02-08_16h02.37.667,group3.1-3.2-social-tom,2023.2.2,Win32,59.88023952,65c5074098b851296ff0b7ed,65c5415f92271d9844ea7b68,,,,,,,,,,,,,,,,,,,,,,,,,,,,,442.111,1,audio/Narrative8Situation3.wav,446.123,,446.1231,468.5062,"[[999,8],[999,82],[999,159],[999,249],[999,332],[999,416],[999,495],[999,582],[999,663],[999,742],[999,832],[999,909],[999,999],[999,1082],[999,1166],[999,1249],[999,1326],[999,1409],[999,1499],[999,1576],[999,1659],[999,1742],[999,1826],[999,1909],[999,2004],[999,2076],[999,2159],[999,2249],[999,2326],[999,2416],[999,2499],[999,2582],[999,2659],[999,2742],[999,2832],[999,2918],[999,2992],[999,3082],[999,3165],[999,3249],[999,3332],[999,3417],[999,3499],[999,3582],[999,3659],[999,3742],[999,3826],[999,3917],[999,3992],[999,4082],[999,4166],[999,4249],[999,4332],[999,4409],[999,4496],[999,4583],[999,4666],[999,4749],[999,4832],[999,4916],[999,4999],[999,5076],[999,5166],[999,5249],[999,5332],[999,5416],[999,5492],[999,5582],[999,5666],[999,5749],[999,5832],[999,5916],[999,5997],[999,6082],[999,6166],[33.9,6259],[34.3,6326],[34.3,6409],[34.3,6492],[34.3,6576],[34.3,6659],[32.6,6743],[31.9,6826],[31.8,6909],[31.7,6992],[31.7,7076],[31.7,7159],[31.7,7242],[31.7,7326],[31.7,7409],[31.7,7492],[31.7,7576],[31.7,7660],[31.7,7743],[31.7,7827],[31.7,7909],[31.7,7992],[31.7,8076],[31.7,8159],[32,8243],[33.4,8326],[35.7,8409],[37.8,8493],[39.8,8577],[40.9,8660],[41,8743],[41,8827],[41,8909],[41,8993],[41,9076],[41,9159],[34.6,9243],[24.3,9326],[18.8,9409],[15.6,9493],[13,9576],[11.5,9660],[10.9,9742],[10.9,9826],[10.8,9909],[10.8,9992],[10.8,10076],[10.8,10159],[10.8,10242],[10.8,10326],[10.8,10409],[12,10493],[17.7,10576],[20.2,10659],[20.2,10742],[20.2,10826],[19.7,10909],[17.1,10992],[15.3,11077],[13.1,11159],[12,11243],[10.7,11326],[10.7,11409],[10.7,11500],[10.7,11582],[10.7,11665],[10.7,11749],[10.7,11832],[10.6,11917],[10.6,11999],[10.6,12082],[10.6,12166],[10.6,12249],[10.6,12332],[10.6,12416],[10.6,12499],[10.6,12582],[10.6,12665],[10.6,12749],[10.6,12832],[10.6,12915],[10.6,12999],[10.6,13082],[10.6,13166],[10.6,13249],[10.6,13332],[10.6,13415],[10.6,13499],[10.6,13583],[10.6,13665],[10.6,13749],[10.6,13832],[10.6,13916],[10.6,13999],[10.6,14082],[10.6,14165],[10.6,14249],[10.6,14332],[10.6,14416],[10.6,14499],[10.6,14582],[10.6,14666],[10.6,14749],[10.4,14833],[10.2,14924],[10,14999],[9.8,15082],[9.8,15166],[9.8,15249],[9.8,15332],[9.8,15418],[9.8,15499],[9.8,15582],[9.8,15666],[9.8,15749],[9.8,15832],[9.8,15916],[9.8,15999],[9.8,16083],[9.8,16165],[9.8,16249],[9.8,16332],[9.8,16415],[9.8,16499],[9.8,16583],[9.8,16665],[9.8,16749],[9.8,16832],[9.8,16916],[9.8,16999],[9.8,17082],[9.8,17165],[9.8,17249],[9.8,17332],[9.8,17416],[9.8,17499],[9.8,17582],[9.8,17666],[9.8,17749],[9.8,17833],[9.8,17917],[9.8,18000],[9.8,18082],[9.8,18166],[9.8,18249],[9.8,18332],[9.8,18416],[9.8,18499],[9.8,18582],[9.8,18665],[9.8,18749],[9.8,18832],[9.8,18917],[9.8,18999],[9.8,19082],[9.8,19166],[9.8,19249],[9.8,19332],[9.8,19416],[9.8,19499],[9.8,19583],[9.8,19665],[9.8,19749],[9.8,19832],[9.8,19915],[9.8,19999],[9.8,20082],[9.8,20165],[9.8,20249],[9.8,20332],[9.8,20416],[9.8,20499],[9.8,20582],[9.8,20665],[9.8,20749],[9.8,20832],[9.8,20917],[9.8,20999],[9.8,21082],[9.8,21165],[9.8,21249],[9.8,21332],[9.8,21416],[9.8,21509],[9.8,21599],[9.8,21682],[9.8,21759],[9.8,21849],[9.8,21933],[9.8,22016],[9.8,22099],[9.8,22182],[9.8,22266],[9.8,22349]]",1,0,468.5063,474.9896,11.77083333,1.9397,"[{""rating"":11.770833333333336,""responseTime"":1.9396999998093065}]",space,5.9335,,474.9897,All the time,100,475.0005,,,[],,0,12,12,12,1,audio/Narrative8Situation3.wav,audio/Narrative7Situation3.wav,audio/Narrative6Situation3.wav,audio/Narrative5Situation3.wav,4,8,5,3,,,,,,,,,,,,,,,,,,,,,,,,,,,,,,,,,,,,,,,
,,,,,,5f2de2dbf9dbae126ed085b0,2024-02-08_16h02.37.667,group3.1-3.2-social-tom,2023.2.2,Win32,59.88023952,65c5074098b851296ff0b7ed,65c5415f92271d9844ea7b68,,,,,,,,,,,,,,,,,,,,,,,,,,,,,475.0008,1,audio/Narrative8Situation4.wav,478.0189,,478.019,492.1989,"[[9.5,12762],[9.5,12846],[9.5,12929],[9.5,13013],[9.5,13096],[9.6,13180],[9.8,13263],[9.8,13346],[9.8,13429],[10.1,13513],[10.4,13597],[11.3,13679],[11.3,13762],[11.4,13847],[11.4,13929],[11.4,14013],[11.4,14096],[11.4,14179]]",1,0,492.199,494.8893,19.375,1.7063,"[{""rating"":19.374999999999996,""responseTime"":1.706299999713906}]",space,2.1492,,494.8893,Half the time,50,494.8922,,,[],,0,13,13,13,1,audio/Narrative8Situation4.wav,audio/Narrative7Situation4.wav,audio/Narrative6Situation4.wav,audio/Narrative5Situation4.wav,3,3,2,1,,,,,,,,,,,,,,,,,,,,,,,,,,,,,,,,,,,,,,,
,,,,,,5f2de2dbf9dbae126ed085b0,2024-02-08_16h02.37.667,group3.1-3.2-social-tom,2023.2.2,Win32,59.88023952,65c5074098b851296ff0b7ed,65c5415f92271d9844ea7b68,,,,,,,,,,,,,,,,,,,,,,,,,,,,,494.8925,1,audio/Narrative8Situation5.wav,496.8988,,496.8988,505.1488,"[[20.8,757],[19.2,850],[17.7,933],[17.5,1016],[17.5,1099],[17.5,1184],[17.5,1266],[17.5,1349],[17.5,1433],[17.5,1516],[17.5,1599],[17.5,1683],[17.5,1766],[17.5,1849],[17.5,1933],[17.5,2016],[17.5,2099],[17.5,2183],[17.5,2266],[17.5,2349],[17.5,2433],[17.5,2516],[17.3,2600],[16.9,2684],[15.5,2766],[15,2850],[14.3,2933],[14.3,3016],[13.5,3100],[13.2,3183],[12.9,3266],[12.7,3349],[12.6,3433],[12.6,3516],[12.6,3599],[12.6,3684],[12.6,3766],[12.6,3849],[12.6,3933],[13,4016],[13,4099],[13,4183],[13,4266],[13,4349],[13,4433],[13,4516],[13,4599],[13,4684],[13,4766],[13,4849],[13,4933],[13,5016],[13,5099],[13,5183],[13,5266],[13,5349],[13,5433],[13,5516],[13,5599],[13,5683],[13,5766],[13,5849],[13,5933],[13,6016],[13,6099],[13,6186],[13,6266],[13,6349],[13,6433],[13,6516],[13,6599],[13,6683],[13,6766],[13,6849],[13,6932],[12.8,7016],[12,7100],[11.8,7183],[11.8,7266],[11.7,7350],[11.7,7434],[11.7,7516],[11.7,7599],[11.7,7683],[13.2,7766],[14.6,7850],[16.8,7933],[19.4,8016],[21.1,8100],[22.7,8184]]",1,0,505.149,509.272,15.72916667,2.1301,"[{""rating"":15.729166666666666,""responseTime"":2.1300999999045303}]",space,3.5697,,509.2722,All the time,100,509.2749,,,[],,0,14,14,14,1,audio/Narrative8Situation5.wav,audio/Narrative7Situation5.wav,audio/Narrative6Situation5.wav,audio/Narrative5Situation5.wav,2,5,2,5,,,,,,,,,,,,,,,,,,,,,,,,,,,,,,,,,,,,,,,
,,,,,,5f2de2dbf9dbae126ed085b0,2024-02-08_16h02.37.667,group3.1-3.2-social-tom,2023.2.2,Win32,59.88023952,65c5074098b851296ff0b7ed,65c5415f92271d9844ea7b68,,,,,,,,,,,,,,,,,,,,,,,,,,,,,509.2752,1,audio/Narrative8Situation6.wav,511.2819,,511.282,517.756,"[[17,5006],[17.6,5090],[17.7,5173],[17.8,5253],[17.8,5339],[17.8,5423],[17.8,5506],[17.8,5586],[17.8,5673],[17.8,5756],[17.8,5833],[17.8,5916],[17.8,5999],[17.8,6089],[19.2,6174],[22.1,6256],[24.7,6357],[26.7,6441]]",1,0,517.7562,520.472,18.85416667,1.7824,"[{""rating"":18.854166666666668,""responseTime"":1.782400000095322}]",space,2.176,,520.4721,Not at all,0,520.4759,,,[],,0,15,15,15,1,audio/Narrative8Situation6.wav,audio/Narrative7Situation6.wav,audio/Narrative6Situation6.wav,audio/Narrative5Situation6.wav,2,3,2,3,,,,,,,,,,,,,,,,,,,,,,,,,,,,,,,,,,,,,,,
,,,,,,5f2de2dbf9dbae126ed085b0,2024-02-08_16h02.37.667,group3.1-3.2-social-tom,2023.2.2,Win32,59.88023952,65c5074098b851296ff0b7ed,65c5415f92271d9844ea7b68,,,,,,,,,,,,,,,,,,,,,,,,,,,,,520.4761,1,audio/Narrative8Situation7.wav,523.4818,,523.4819,535.5988,[],1,0,535.5991,555.5993,15.3125,8.2124,"[{""rating"":15.312500000000002,""responseTime"":8.21239999961847}]",space,19.4782,,555.5993,All the time,100,555.6155,,,[],,0,16,16,16,1,audio/Narrative8Situation7.wav,audio/Narrative7Situation7.wav,audio/Narrative6Situation7.wav,audio/Narrative5Situation7.wav,3,5,5,4,,,,,,,,,,,,,,,,,,,,,,,,,,,,,,,,,,,,,,,
,,,,,,5f2de2dbf9dbae126ed085b0,2024-02-08_16h02.37.667,group3.1-3.2-social-tom,2023.2.2,Win32,59.88023952,65c5074098b851296ff0b7ed,65c5415f92271d9844ea7b68,,,,,,,,,,,,,,,,,,,,,,,,,,,,,555.6159,1,audio/Narrative8Situation8.wav,558.6314,,558.6315,571.4881,"[[999,0],[999,82],[999,166],[999,249],[999,332],[999,416],[999,499],[999,583],[999,666],[999,749],[999,833],[999,916],[999,1000],[31.8,1083],[25.8,1167],[21.1,1250],[19.9,1333],[19.9,1416],[19.2,1500],[18.5,1583],[17.5,1666],[17.2,1749],[17,1832],[16.9,1916],[16.9,1999],[16.9,2083],[16.9,2166],[16.9,2249],[16.9,2332],[16.9,2416],[16.9,2499],[16.9,2582],[16.9,2666],[16.9,2749],[16.9,2833],[16.9,2916],[16.9,2999],[16.9,3082],[16.9,3166],[16.9,3249],[16.9,3333],[16.9,3416],[16.9,3499],[16.9,3582],[16.9,3666],[16.9,3749],[16.9,3832],[16.9,3916],[16.9,3999],[16.9,4083],[16.9,4166],[16.9,4249],[16.9,4332],[16.9,4416],[16.9,4499],[16.9,4583],[16.9,4666],[16.9,4749],[16.9,4832],[16.9,4916],[16.9,4999],[16.9,5083],[16.9,5166],[16.9,5249],[16.9,5332],[16.9,5416],[16.9,5499],[16.9,5582],[16.9,5666],[16.9,5750],[16.9,5833],[16.9,5916],[16.9,6000],[16.9,6082],[16.9,6166],[16.9,6249],[16.9,6332],[16.9,6416],[16.9,6499],[16.9,6582],[16.9,6666],[16.9,6749],[16.9,6832],[16.9,6916],[16.9,6999],[16.9,7082],[16.9,7166],[16.9,7249],[16.9,7332],[16.9,7416],[16.9,7499],[16.9,7582],[16.9,7666],[16.9,7749],[16.9,7832],[16.9,7916],[16.9,7999],[16.9,8082],[16.9,8166],[16.9,8249],[16.9,8332],[16.9,8416],[16.9,8499],[16.9,8582],[16.9,8666],[16.9,8749],[16.9,8832],[16.9,8916],[16.9,8999],[16.9,9082],[16.9,9172],[16.9,9256],[16.9,9339],[16.9,9422],[16.9,9499],[16.9,9589],[16.9,9673],[16.9,9756],[16.9,9839],[16.9,9922],[16.9,10008],[16.9,10089],[16.9,10172],[16.9,10256],[16.9,10336],[16.9,10423],[16.9,10507],[16.9,10589],[16.9,10673],[16.9,10756],[16.9,10839],[16.9,10922],[16.9,11006],[16.9,11089],[16.9,11173],[16.9,11256],[16.9,11339],[16.9,11423],[16.9,11506],[16.9,11589],[16.9,11666],[16.9,11756],[16.9,11839],[16.9,11923],[16.9,12006],[16.9,12089],[16.9,12173],[16.9,12256],[16.9,12339],[16.9,12422],[16.9,12505],[16.9,12590],[16.9,12673],[16.9,12756],[16.9,12840]]",1,0,571.4883,574.739,57.39583333,2.2082,"[{""rating"":57.395833333333336,""responseTime"":2.208199999809267}]",space,2.7178,,574.7391,Half the time,50,574.7421,,,[],,0,17,17,17,1,audio/Narrative8Situation8.wav,audio/Narrative7Situation8.wav,audio/Narrative6Situation8.wav,audio/Narrative5Situation8.wav,3,2,5,3,,,,,,,,,,,,,,,,,,,,,,,,,,,,,,,,,,,,,,,
,,,,,,5f2de2dbf9dbae126ed085b0,2024-02-08_16h02.37.667,group3.1-3.2-social-tom,2023.2.2,Win32,59.88023952,65c5074098b851296ff0b7ed,65c5415f92271d9844ea7b68,,,,,,,,,,,,,,,,,,,,,,,,,,,,,574.7423,1,audio/Narrative8Situation9.wav,577.7479,,577.748,589.0716,"[[999,8],[999,83],[999,166],[999,256],[999,340],[999,422],[999,506],[999,586],[999,673],[999,756],[999,840],[999,923],[999,1006],[999,1089],[999,1172],[999,1249],[999,1339],[999,1423],[999,1506],[999,1589],[999,1672],[999,1756],[999,1839],[999,1923],[999,1999],[999,2083],[999,2166],[999,2256],[999,2338],[999,2423],[999,2506],[999,2589],[999,2673],[999,2756],[999,2839],[999,2923],[999,3006],[999,3089],[999,3172],[999,3256],[999,3333],[999,3423],[999,3506],[999,3590],[999,3672],[999,3756],[999,3839],[999,3920],[999,4006],[999,4083],[999,4166],[999,4256],[999,4339],[999,4423],[999,4506],[999,4589],[999,4666],[999,4756],[999,4839],[999,4916],[999,5006],[999,5089],[999,5172],[999,5256],[999,5333],[999,5422],[999,5502],[999,5589],[999,5672],[999,5756],[999,5840],[999,5919],[999,5999],[999,6086],[999,6166],[999,6256],[999,6333],[999,6416],[999,6506],[999,6589],[999,6672],[999,6757],[999,6840],[999,6923],[999,7007],[999,7089],[999,7172],[999,7256],[999,7339],[999,7423],[999,7506],[999,7589],[999,7666],[999,7756],[999,7840],[999,7923],[39.5,8000],[47.4,8083],[48.1,8166],[48.6,8250],[48.9,8333],[48.9,8416],[48.9,8499],[48.9,8583],[48.9,8666],[48.9,8750],[48.9,8833],[41.8,8916],[36.6,9000],[34.4,9083],[31.7,9166],[29.8,9250],[28.5,9333],[28.2,9416],[28.2,9499],[28.2,9583],[28.2,9666],[28.2,9749],[28.2,9833],[28.2,9916],[28.2,10000],[28.2,10089],[28.2,10173],[28.2,10256],[28.2,10339],[28.2,10422],[28.2,10506],[28.2,10589],[28.2,10672],[28.2,10756],[28.2,10839],[28.2,10923],[28.2,11006],[28.2,11089],[28.2,11173],[28.2,11256]]",1,0,589.0716,591.3225,41.35416667,1.3326,"[{""rating"":41.35416666666667,""responseTime"":1.3325999999046871}]",space,1.7006,,591.3225,All the time,100,591.3266,,,[],,0,18,18,18,1,audio/Narrative8Situation9.wav,audio/Narrative7Situation9.wav,audio/Narrative6Situation9.wav,audio/Narrative5Situation9.wav,3,2,4,3,,,,,,,,,,,,,,,,,,,,,,,,,,,,,,,,,,,,,,,
,,,,,,5f2de2dbf9dbae126ed085b0,2024-02-08_16h02.37.667,group3.1-3.2-social-tom,2023.2.2,Win32,59.88023952,65c5074098b851296ff0b7ed,65c5415f92271d9844ea7b68,,,,,,,,,,,,,,,,,,,,,,,,,,,617.1488,619.7139,619.7344,2,audio/Narrative13Situation2.wav,619.7345,,619.7345,649.4709,"[[34.4,2819],[34.4,2903],[34.1,2986],[33,3069],[33,3152],[33,3235],[31,3320],[24.9,3403],[20.2,3486],[17.1,3569],[15.1,3653],[13,3736],[12.9,3819],[13,3904],[13.1,3986],[13.1,4062],[13.1,4152],[13.1,4232],[14.8,4320],[15.3,4403],[16.8,4486],[16.9,4569],[16.9,4652],[16.9,4736],[16.9,4819],[16.9,4903],[16.9,4986],[16.9,5069],[16.9,5153],[16.9,5237],[16.9,5319],[16.9,5402],[16.9,5486],[16.9,5566],[16.9,5652],[16.6,5735],[16.6,5812],[16.6,5902],[16.6,5986],[16.6,6062],[16.6,6152],[16.6,6236],[16.6,6319],[16.6,6403],[16.6,6486],[16.6,6562],[16.6,6652],[16.8,6736],[20.1,6819],[24.2,6902],[28.5,6986],[32.9,7069],[38.6,7153],[45.9,7236],[51.7,7319],[56.9,7403],[57,7485],[57,7569],[57,7652],[57,7735],[57,7819],[57,7902],[57,7985],[57,8069],[57,8162],[57,8245],[57,8329],[57,8412],[57,8495],[57,8579],[57,8662],[57,8745],[57,8829],[57,8912],[57,8995],[57,9079],[57,9162],[57,9245],[57,9329],[57,9412],[57,9495],[57,9579],[57,9662],[57,9745],[57,9829],[57,9912],[57,9995],[57,10079],[57,10162],[57,10245],[57,10329],[57,10412],[57,10495],[57,10579],[57,10662],[57,10745],[57,10829],[55.9,10913],[52.5,10996],[50.3,11079],[48.2,11163],[47.1,11246],[45.8,11329],[44.7,11413],[43.8,11496],[42.9,11579],[42.5,11662],[42.1,11746],[41.9,11829],[41.6,11913],[40.6,11996],[38.4,12079],[33.5,12162],[30.3,12246],[26.1,12329],[21.6,12412],[17.3,12496],[13.8,12579],[12.8,12663],[11.8,12746],[11.6,12829],[11.6,12912],[11.6,12995],[11.6,13079],[11.6,13162],[11.6,13245],[11.6,13329],[11.6,13412],[11.6,13495],[11.6,13579],[11.6,13662],[11.6,13745],[11.6,13829],[11.6,13912],[11.6,13995],[11.7,14079],[11.7,14162],[11.7,14245],[12.7,14329],[12.7,14412],[12.7,14495],[12.7,14579],[12.7,14662],[12.7,14745],[12.7,14829],[12.7,14912],[12.7,14995],[12.7,15079],[12.7,15163],[12.7,15246],[12.7,15329],[12.7,15412],[12.7,15495],[12.7,15579],[12.7,15662],[12.7,15745],[12.7,15829],[12.7,15912],[12.7,15995],[12.7,16079],[12.7,16162],[12.7,16245],[12.7,16329],[12.7,16412],[12.7,16495],[12.7,16579],[12.7,16662],[12.7,16745],[12.7,16829],[12.7,16912],[12.7,16995],[12.7,17079],[12.7,17162],[12.7,17245],[12.7,17329],[12.7,17412],[12.7,17495],[12.7,17579],[12.7,17662],[12.7,17745],[12.7,17829],[12.7,17912],[12.7,17995],[12.7,18079],[12.7,18169],[12.7,18252],[12.7,18336],[12.7,18415],[12.7,18502],[12.7,18586],[12.7,18669],[12.7,18752],[12.7,18835],[12.7,18918],[12.7,19002],[12.7,19085],[12.7,19168],[12.7,19252],[12.7,19335],[12.7,19412],[12.7,19495],[12.7,19579],[12.7,19669],[12.7,19752],[12.7,19835],[12.7,19915],[12.7,20002],[12.7,20086],[12.7,20169],[12.7,20252],[12.7,20335],[12.7,20412],[12.7,20502],[12.7,20579],[12.7,20669],[12.7,20752],[12.7,20829],[12.7,20919],[12.7,21002],[12.7,21085],[12.7,21169],[12.7,21252],[12.7,21329],[12.7,21415],[12.7,21502],[12.7,21586],[12.7,21662],[12.7,21752],[12.7,21832],[12.7,21919],[12.7,22002],[12.7,22086],[12.7,22169],[12.7,22252],[12.7,22335],[12.7,22419],[12.7,22502],[12.7,22585],[12.7,22668],[12.7,22752],[12.7,22835],[12.7,22919],[12.7,22995],[12.7,23085],[12.7,23168],[12.7,23252],[12.7,23335],[12.7,23419],[12.7,23502],[12.7,23585],[12.7,23662],[12.7,23749],[12.7,23835],[12.7,23919],[12.7,24002],[12.7,24085],[12.7,24169],[12.7,24252],[12.7,24336],[12.7,24412],[12.7,24502],[12.7,24586],[12.7,24669],[12.7,24752],[12.7,24836],[12.7,24912],[12.7,24995],[12.7,25108],[12.7,25186],[12.7,25262],[12.7,25354],[12.7,25472],[12.7,25552],[12.7,25636],[12.7,25722],[12.7,25796],[12.7,25885],[12.7,25969],[12.7,26081],[12.7,26146],[12.7,26229],[12.7,26313],[12.7,26396],[12.7,26481],[12.7,26562],[12.7,26645],[12.7,26746],[12.7,26812],[12.7,26896],[12.7,26980],[12.7,27062],[12.7,27145],[12.7,27229],[12.7,27313],[12.7,27395],[12.7,27479],[12.7,27562],[12.7,27645],[12.7,27729],[12.7,27812],[12.7,27895],[12.7,27979],[12.7,28062],[12.7,28155],[12.7,28236],[12.7,28318],[12.7,28402],[12.7,28486],[12.7,28569],[12.7,28652],[12.7,28735],[12.7,28818],[12.7,28902],[12.7,28985],[12.7,29069],[12.7,29152],[12.7,29235],[12.7,29319],[12.7,29403],[12.7,29485],[12.7,29569],[12.7,29652],[12.7,29736]]",1,0,649.4711,649.4834,,,[],,,,649.4834,All the time,100,649.4849,,,[],,0,0,0,0,1,audio/Narrative13Situation2.wav,audio/Narrative13Situation2.wav,audio/Narrative13Situation2.wav,audio/Narrative13Situation2.wav,2,2,2,2,,,,,591.3276,617.1238,space,25.2848,,,,,,,,,,,,,,,,,,,,,,,,,,,,,,,
,,,,,,5f2de2dbf9dbae126ed085b0,2024-02-08_16h02.37.667,group3.1-3.2-social-tom,2023.2.2,Win32,59.88023952,65c5074098b851296ff0b7ed,65c5415f92271d9844ea7b68,,,,,,,,,,,,,,,,,,,,,,,,,,,,,649.4851,2,audio/Narrative5Situation1.wav,654.497,,654.497,667.8035,"[[21.4,674],[25.3,757],[25.8,839],[25.8,923],[25.8,1006],[25.5,1090],[17.3,1175],[6.6,1257],[1.1,1340]]",1,0,667.8036,673.0371,5.625,4.4894,"[{""rating"":24.895833333333332,""responseTime"":3.0287000002861078},{""rating"":12.5,""responseTime"":3.989300000190724},{""rating"":5.625000000000002,""responseTime"":4.489400000095316}]",space,4.7005,,673.0372,Not at all,0,673.04,,,[],,0,1,1,1,1,audio/Narrative7Situation1.wav,audio/Narrative8Situation1.wav,audio/Narrative5Situation1.wav,audio/Narrative6Situation1.wav,2,5,5,2,,,,,,,,,,,,,,,,,,,,,,,,,,,,,,,,,,,,,,,
,,,,,,5f2de2dbf9dbae126ed085b0,2024-02-08_16h02.37.667,group3.1-3.2-social-tom,2023.2.2,Win32,59.88023952,65c5074098b851296ff0b7ed,65c5415f92271d9844ea7b68,,,,,,,,,,,,,,,,,,,,,,,,,,,,,673.0404,2,audio/Narrative5Situation2.wav,676.0467,,676.0467,705.5211,[],1,0,705.5211,713.3035,6.458333333,6.7213,"[{""rating"":6.458333333333332,""responseTime"":6.721299999714006}]",space,7.2459,,713.3035,Half the time,50,720.7198,49.89583333,3.7986,"[{""rating"":49.895833333333336,""responseTime"":3.7985999999045816}]",space,0,2,2,2,1,audio/Narrative7Situation2.wav,audio/Narrative8Situation2.wav,audio/Narrative5Situation2.wav,audio/Narrative6Situation2.wav,3,3,3,3,,,6.8668,,,,,,,,,,,,,,,,,,,,,,,,,,,,,,,,,,,,
,,,,,,5f2de2dbf9dbae126ed085b0,2024-02-08_16h02.37.667,group3.1-3.2-social-tom,2023.2.2,Win32,59.88023952,65c5074098b851296ff0b7ed,65c5415f92271d9844ea7b68,,,,,,,,,,,,,,,,,,,,,,,,,,,,,720.7301,2,audio/Narrative5Situation3.wav,723.7461,,723.7462,737.6627,"[[49.7,7757],[48,8173],[53.9,8256],[54.7,8340],[56.4,8423],[58.2,8506],[58.8,8589],[58.8,8669],[58.8,8756],[58.8,8839],[58.8,8916],[58.8,9006],[58.8,9089],[58.8,9173],[58.8,9256],[58.8,9339],[58.8,9423],[58.8,9499],[58.8,9583],[58.8,9673],[58.8,9753],[58.8,9839],[58.8,9923],[58.8,9999],[58.8,10083],[58.8,10172],[58.8,10256],[58.8,10339],[58.8,10422],[58.8,10499],[58.8,10589],[58.8,10673],[58.8,10749],[58.8,10832],[58.8,10923],[58.8,10999],[58.8,11090],[58.8,11173],[58.8,11256],[58.8,11339],[58.8,11416],[58.8,11502],[58.8,11589],[58.8,11666],[58.8,11753],[58.8,11839],[58.8,11916],[58.8,11999],[58.8,12090],[58.8,12173],[58.8,12256],[58.8,12339],[58.8,12423],[58.8,12506],[58.8,12589],[58.8,12666],[58.8,12749],[58.8,12839],[58.8,12916],[58.8,13006],[58.8,13089],[58.8,13172],[58.8,13256],[58.8,13339],[58.8,13422],[58.8,13506],[58.8,13589],[58.8,13672],[58.8,13749],[58.8,13839],[58.8,13916]]",1,0,737.6629,740.5033,51.35416667,2.0964,"[{""rating"":51.354166666666664,""responseTime"":2.0964000000954}]",space,2.2929,,740.5033,Half the time,50,740.5053,,,[],,0,3,3,3,1,audio/Narrative7Situation3.wav,audio/Narrative8Situation3.wav,audio/Narrative5Situation3.wav,audio/Narrative6Situation3.wav,8,4,3,5,,,,,,,,,,,,,,,,,,,,,,,,,,,,,,,,,,,,,,,
,,,,,,5f2de2dbf9dbae126ed085b0,2024-02-08_16h02.37.667,group3.1-3.2-social-tom,2023.2.2,Win32,59.88023952,65c5074098b851296ff0b7ed,65c5415f92271d9844ea7b68,,,,,,,,,,,,,,,,,,,,,,,,,,,,,740.5056,2,audio/Narrative5Situation4.wav,741.5126,,741.5127,761.919,"[[48.9,89],[48.9,172],[48.9,256],[48.9,339],[48.8,423],[48.6,499],[48.6,589],[48.6,673],[48.6,756],[41.1,833],[26.4,923],[20.9,1006],[19.3,1090],[18.3,1173],[18.3,1256],[17.1,1340],[13,1423],[5.7,1506],[2.1,1590],[1.6,1666],[1.6,1756],[1.6,1832],[1.6,1922],[1.6,2006],[1.6,2083],[1.6,2173],[1.6,2256],[1.6,2339],[1.6,2422],[1.6,2506],[1.6,2589],[1.6,2672],[1.6,2756],[1.6,2836],[1.6,2922],[1.6,2999],[1.6,3089],[1.6,3173],[1.6,3249],[1.6,3339],[1.6,3422],[1.6,3499],[1.6,3589],[1.6,3674],[1.6,3756],[1.6,3839],[1.6,3919],[1.6,4007],[1.6,4092],[1.6,4173],[1.6,4257],[1.6,4332],[1.6,4422],[1.6,4506],[1.6,4589],[1.6,4673],[1.6,4752],[1.6,4833],[1.6,4923],[1.6,5002],[1.6,5089],[1.6,5173],[1.6,5252],[1.6,5339],[1.6,5423],[1.6,5506],[1.6,5589],[1.6,5673],[1.6,5756],[1.6,5839],[1.6,5916],[1.6,6004],[1.6,6090],[1.6,6172],[1.6,6256],[1.6,6339],[1.6,6422],[1.6,6506],[1.6,6599],[1.6,6683],[1.6,6766],[1.6,6849],[1.6,6933],[1.6,7016],[1.6,7099],[1.6,7182],[1.6,7266],[1.6,7349],[1.6,7432],[1.6,7516],[1.6,7599],[1.6,7682],[1.6,7766],[1.6,7849],[1.6,7933],[1.6,8016],[1.6,8099],[1.6,8183],[1.6,8266],[1.6,8349],[1.6,8433],[1.6,8516],[1.6,8599],[1.6,8683],[1.6,8766],[1.6,8849],[1.6,8933],[1.6,9016],[1.6,9099],[1.6,9183],[1.6,9266],[1.6,9349],[1.6,9432],[1.6,9516],[1.6,9599],[3.1,9685],[5.4,9766],[9.4,9849],[14.1,9934],[21.5,10016],[30.4,10099],[37.3,10183],[41,10266],[43,10349],[44.4,10433],[46.9,10516],[47.7,10599],[47.9,10682],[48.6,10766],[49.4,10849],[49.5,10933],[49.5,11016],[49.6,11099],[49.7,11182],[49.7,11266],[49.8,11349],[49.8,11432],[49.8,11516],[49.8,11599],[49.8,11682],[49.8,11766],[49.8,11849],[49.8,11932],[49.8,12016],[49.8,12099],[49.8,12182],[49.8,12266],[49.8,12349],[49.8,12432],[49.8,12516],[49.8,12599],[49.8,12683],[49.8,12766],[49.8,12849],[49.8,12932],[49.8,13016],[49.8,13099],[49.8,13182],[49.8,13266],[49.8,13349],[49.8,13432],[49.8,13516],[49.8,13599],[49.8,13682],[49.8,13766],[49.8,13849],[49.8,13932],[49.8,14016],[49.8,14101],[49.8,14183],[49.8,14266],[49.8,14356],[49.8,14439],[49.8,14522],[49.8,14599],[49.8,14683],[49.8,14772],[49.8,14856],[49.8,14939],[49.8,15022],[49.8,15106],[49.8,15182],[49.8,15272],[49.8,15356],[49.8,15439],[49.8,15522],[49.8,15599],[49.8,15689],[49.8,15766],[49.8,15852],[49.8,15939],[49.8,16016],[49.8,16099],[49.8,16189],[49.8,16273],[49.8,16356],[49.8,16439],[49.8,16523],[49.8,16606],[49.8,16689],[49.8,16766],[49.8,16854],[49.8,16939],[49.8,17019],[49.8,17106],[49.8,17189],[49.8,17272],[49.8,17356],[49.8,17439],[49.8,17516],[49.8,17606],[49.8,17682],[49.8,17772],[49.8,17856],[49.8,17939],[49.8,18022],[49.8,18106],[49.8,18189],[49.8,18272],[49.8,18349],[49.8,18432],[49.8,18522],[49.8,18602],[49.8,18686],[49.8,18773],[49.8,18856],[49.8,18939],[49.8,19023],[49.8,19106],[49.8,19189],[49.8,19273],[49.8,19352],[49.8,19439],[49.8,19516],[49.8,19606],[49.8,19689],[49.8,19766],[49.8,19849],[49.8,19939],[49.8,20022],[49.8,20106],[49.8,20189],[49.8,20269],[49.8,20356]]",1,0,761.9192,764.7457,48.54166667,1.9564,"[{""rating"":48.541666666666664,""responseTime"":1.9564000000953001}]",space,2.2863,,764.7458,Not at all,0,764.7511,,,[],,0,4,4,4,1,audio/Narrative7Situation4.wav,audio/Narrative8Situation4.wav,audio/Narrative5Situation4.wav,audio/Narrative6Situation4.wav,3,3,1,2,,,,,,,,,,,,,,,,,,,,,,,,,,,,,,,,,,,,,,,
,,,,,,5f2de2dbf9dbae126ed085b0,2024-02-08_16h02.37.667,group3.1-3.2-social-tom,2023.2.2,Win32,59.88023952,65c5074098b851296ff0b7ed,65c5415f92271d9844ea7b68,,,,,,,,,,,,,,,,,,,,,,,,,,,,,764.7514,2,audio/Narrative5Situation5.wav,769.7531,,769.7531,785.1787,"[[42.5,1666],[40.2,1749],[32.7,1832],[25.9,1916],[19.7,2000],[12,2083],[3.5,2183],[1.9,2265],[0.6,2865],[1.1,2949],[1.1,3025],[1.1,3115],[1.1,3199],[1.1,3282],[1.1,3365],[1.1,3449],[1.1,3525],[1.1,3615],[1.1,3699],[1.1,3782],[1.1,3865],[1.1,3949],[1.1,4032],[1.1,4115],[1.1,4198],[1.1,4282],[1.1,4358],[1.1,4448],[1.1,4532],[1.1,4615],[1.1,4698],[1.1,4782],[1.1,4865],[1.1,4948],[1.1,5032],[1.1,5108],[1.1,5198],[1.1,5282],[1.1,5365],[1.1,5448],[1.1,5532],[1.1,5615],[1.1,5698],[1.1,5782],[1.1,5860],[1.1,5949],[1.1,6026],[1.1,6116],[1.1,6198],[1.1,6275],[1.1,6365],[1.1,6449],[1.1,6532],[1.1,6608],[1.1,6698],[1.1,6779],[1.1,6865],[1.1,6948],[1.1,7032],[1.1,7108],[1.1,7199],[1.1,7282],[1.1,7365],[1.1,7449],[1.1,7525],[1.1,7615],[1.1,7692],[1.1,7778],[1.1,7865],[1.1,7949],[1.1,8032],[1.1,8108],[1.1,8198],[1.1,8282],[1.1,8375],[1.1,8458],[1.1,8542],[1.1,8625],[1.1,8708],[1.1,8792],[1.1,8875],[1.1,8958],[1.1,9042],[1.1,9125],[1.1,9208],[1.1,9292],[1.1,9375],[1.1,9458],[1.1,9542],[1.1,9625],[1.1,9708],[1.1,9792],[1.1,9875],[1.1,9958],[1.1,10042],[1.1,10125],[1.1,10208],[1.1,10292],[1.1,10375],[1.1,10458],[1.1,10542],[1.1,10625],[1.1,10708],[1.1,10792],[1.1,10875],[1.1,10958],[1.1,11042],[1.1,11125],[1.1,11208],[1.1,11292],[1.1,11375],[1.1,11458],[1.1,11542],[1.1,11625],[1.1,11708],[1.1,11792],[1.1,11875],[1.1,11958],[1.1,12042],[1.1,12125],[1.1,12208],[1.1,12292],[1.1,12375],[1.1,12458],[1.1,12542],[1.1,12625],[1.1,12708],[1.1,12792],[1.1,12875],[1.1,12958],[1.1,13042],[1.1,13125],[1.1,13208],[1.1,13292],[1.1,13375],[1.1,13458],[1.1,13542],[1.1,13625],[1.1,13708],[1.1,13792],[1.1,13875],[1.1,13958],[1.1,14042],[1.1,14125],[1.1,14208],[1.1,14292],[1.1,14375],[1.1,14458],[1.1,14542],[1.1,14625],[1.1,14708],[1.1,14792],[1.1,14875],[1.1,14958],[1.1,15042],[1.1,15125],[1.1,15208],[1.1,15292],[1.1,15375]]",1,0,785.179,786.9954,6.666666667,1.0181,"[{""rating"":6.666666666666665,""responseTime"":1.018100000381537}]",space,1.2859,,786.9955,Half the time,50,786.9987,,,[],,0,5,5,5,1,audio/Narrative7Situation5.wav,audio/Narrative8Situation5.wav,audio/Narrative5Situation5.wav,audio/Narrative6Situation5.wav,5,2,5,2,,,,,,,,,,,,,,,,,,,,,,,,,,,,,,,,,,,,,,,
,,,,,,5f2de2dbf9dbae126ed085b0,2024-02-08_16h02.37.667,group3.1-3.2-social-tom,2023.2.2,Win32,59.88023952,65c5074098b851296ff0b7ed,65c5415f92271d9844ea7b68,,,,,,,,,,,,,,,,,,,,,,,,,,,,,786.999,2,audio/Narrative5Situation6.wav,790.0123,,790.0124,795.6853,[],1,0,795.6853,798.3189,0.729166667,1.9417,"[{""rating"":0.7291666666666641,""responseTime"":1.941699999809316}]",space,2.0761,,798.319,Not at all,0,798.3217,,,[],,0,6,6,6,1,audio/Narrative7Situation6.wav,audio/Narrative8Situation6.wav,audio/Narrative5Situation6.wav,audio/Narrative6Situation6.wav,3,2,3,2,,,,,,,,,,,,,,,,,,,,,,,,,,,,,,,,,,,,,,,
,,,,,,5f2de2dbf9dbae126ed085b0,2024-02-08_16h02.37.667,group3.1-3.2-social-tom,2023.2.2,Win32,59.88023952,65c5074098b851296ff0b7ed,65c5415f92271d9844ea7b68,,,,,,,,,,,,,,,,,,,,,,,,,,,,,798.3219,2,audio/Narrative5Situation7.wav,802.3285,,802.3285,823.3686,[],1,0,823.3686,825.9858,16.5625,1.7576,"[{""rating"":16.562500000000004,""responseTime"":1.7575999999046417}]",space,2.0784,,825.986,Half the time,50,825.9897,,,[],,0,7,7,7,1,audio/Narrative7Situation7.wav,audio/Narrative8Situation7.wav,audio/Narrative5Situation7.wav,audio/Narrative6Situation7.wav,5,3,4,5,,,,,,,,,,,,,,,,,,,,,,,,,,,,,,,,,,,,,,,
,,,,,,5f2de2dbf9dbae126ed085b0,2024-02-08_16h02.37.667,group3.1-3.2-social-tom,2023.2.2,Win32,59.88023952,65c5074098b851296ff0b7ed,65c5415f92271d9844ea7b68,,,,,,,,,,,,,,,,,,,,,,,,,,,,,825.9902,2,audio/Narrative5Situation8.wav,828.9948,,828.9949,837.8116,"[[14.3,7250],[14.3,7333],[15.2,7416],[26.6,7500],[58.1,7833],[58.5,7916],[58.6,7999],[58.6,8083],[58.6,8166],[58.6,8250],[58.6,8333],[58.6,8416],[58.6,8499],[58.6,8583],[58.6,8666],[58.6,8751]]",1,0,837.8117,840.3519,58.85416667,0.9897,"[{""rating"":58.854166666666664,""responseTime"":0.9897000002861205}]",space,2.0005,,840.352,All the time,100,840.3543,,,[],,0,8,8,8,1,audio/Narrative7Situation8.wav,audio/Narrative8Situation8.wav,audio/Narrative5Situation8.wav,audio/Narrative6Situation8.wav,2,3,3,5,,,,,,,,,,,,,,,,,,,,,,,,,,,,,,,,,,,,,,,
,,,,,,5f2de2dbf9dbae126ed085b0,2024-02-08_16h02.37.667,group3.1-3.2-social-tom,2023.2.2,Win32,59.88023952,65c5074098b851296ff0b7ed,65c5415f92271d9844ea7b68,,,,,,,,,,,,,,,,,,,,,,,,,,,,,840.3545,2,audio/Narrative5Situation9.wav,843.3679,,843.368,882.9112,"[[52.4,17193],[52.7,17276],[47.2,17367],[21.8,17783],[25.4,17867],[27.4,17967],[28.2,18050],[32.8,18133],[39.3,18216],[44.3,18300],[50.3,18384],[53.4,18466],[56.3,18550],[58.4,18633],[59.6,18717],[62.5,18800],[64,18883],[64.6,18967],[65,19050],[65,19132],[65,19216],[65,19299],[65,19383],[65,19466],[65,19546],[65,19633],[65,19716],[65,19799],[65,19883],[65,19966],[65,20049],[65,20126],[65,20216],[65,20299],[65,20377],[65,20466],[65,20549],[65,20626],[65,20716],[65,20799],[65,20877],[65,20959],[65,21049],[65,21133],[67.4,21216],[68.1,21300],[69.8,21406],[70.7,21476],[70.7,21566],[71,21650],[71.3,21732],[71.3,21809],[71.3,21894],[71.3,21983],[71.5,22066],[72.8,22150],[76.6,22233],[79,22317],[80.9,22401],[83,22483],[85,22583],[86.6,22666],[86.8,22749],[86.9,22835],[86.9,22916],[86.9,23000],[86.9,23083],[86.9,23166],[86.9,23249],[86.9,23332],[86.9,23416],[86.9,23493],[86.9,23576],[86.9,23666],[86.9,23743],[86.9,23833],[86.9,23916],[86.9,23996],[86.9,24083],[86.9,24166],[86.9,24249],[86.9,24332],[86.9,24416],[86.9,24499],[86.9,24583],[86.9,24666],[86.9,24750],[86.9,24832],[86.9,24932],[86.9,25016],[86.9,25099],[86.9,25183],[86.9,25262],[86.9,25349],[86.9,25426],[86.9,25509],[86.9,25599],[86.9,25683],[86.9,25766],[86.9,25849],[86.9,25933],[86.9,26016],[86.9,26100],[86.9,26182],[86.9,26259],[86.9,26349],[86.9,26426],[86.9,26516],[86.9,26599],[86.9,26682],[86.9,26766],[86.9,26849],[86.9,26932],[86.9,27013],[86.9,27092],[86.9,27182],[86.9,27266],[86.9,27342],[86.9,27432],[86.9,27516],[86.9,27599],[86.9,27682],[86.9,27759],[86.9,27849],[86.9,27926],[86.9,28016],[86.9,28099],[86.9,28176],[86.9,28266],[86.9,28349],[86.9,28426],[86.9,28516],[86.9,28599],[86.9,28683],[86.9,28766],[86.9,28849],[86.9,28932],[86.9,29016],[86.9,29093],[86.9,29182],[86.9,29259],[86.9,29342],[86.9,29426],[86.9,29516],[86.9,29592],[86.9,29676],[86.9,29766],[86.9,29849],[86.9,29932],[86.9,30016],[86.9,30096],[86.9,30182],[86.9,30262],[86.9,30349],[86.9,30432],[86.9,30516],[86.9,30599],[86.9,30682],[86.9,30766],[86.9,30849],[86.9,30933],[86.9,31016],[86.9,31099],[85.6,31193],[84.4,31276],[84.3,31359],[83.8,31442],[83.2,31526],[82.9,31609],[81.7,31693],[81.5,31776],[81.5,31859],[80.8,31942],[80.2,32026],[79.4,32109],[79.1,32192],[79,32276],[78.2,32359],[77.9,32443],[77.1,32526],[76.7,32609],[75.8,32692],[75.7,32776],[74.7,32859],[74.3,32944],[74.1,33026],[73.1,33109],[73,33194],[72.5,33276],[72.4,33359],[72.3,33442],[71.9,33526],[71.9,33609],[71.8,33692],[71.8,33776],[71.7,33859],[71.4,33943],[71.4,34026],[71.3,34109],[70.8,34193],[70.5,34276],[70.5,34359],[70.5,34442],[70.5,34526],[70.5,34609],[70.5,34693],[70.5,34776],[70.5,34859],[70.5,34942],[70.5,35026],[70.5,35109],[70.5,35193],[70.5,35276],[70.5,35359],[70.5,35443],[70.5,35526],[70.5,35609],[70.5,35693],[70.5,35776],[70.5,35859],[70.5,35943],[69.8,36027],[69.8,36109],[69.8,36193],[69.8,36276],[71.1,36360],[71.7,36442],[73.1,36527],[74.7,36610],[77.1,36693],[78.3,36776],[78.4,36859],[78.9,36943],[78.9,37026],[78.9,37109],[78.9,37192],[78.9,37276],[78.9,37359],[78.9,37443],[78.9,37526],[78.9,37609],[78.9,37692],[78.9,37776],[78.9,37859],[78.9,37942],[78.9,38026],[78.9,38109],[78.9,38192],[78.9,38276],[78.9,38359],[78.9,38442],[78.9,38526],[78.9,38609],[78.9,38693],[78.9,38776],[78.9,38859],[78.9,38942],[78.9,39026],[78.9,39109],[78.9,39192],[78.9,39276],[73,39359],[73,39442],[73,39526]]",1,0,882.9113,886.4117,89.16666667,2.107,"[{""rating"":89.16666666666666,""responseTime"":2.1070000000000846}]",space,2.9681,,886.4118,Half the time,50,886.418,,,[],,0,9,9,9,1,audio/Narrative7Situation9.wav,audio/Narrative8Situation9.wav,audio/Narrative5Situation9.wav,audio/Narrative6Situation9.wav,2,3,3,4,,,,,,,,,,,,,,,,,,,,,,,,,,,,,,,,,,,,,,,
,,,,,,5f2de2dbf9dbae126ed085b0,2024-02-08_16h02.37.667,group3.1-3.2-social-tom,2023.2.2,Win32,59.88023952,65c5074098b851296ff0b7ed,65c5415f92271d9844ea7b68,,,,,,,,,,,,,,,,,,,,,,,,,,,,,886.4184,2,audio/Narrative6Situation1.wav,888.4275,,888.4276,915.0174,"[[75.6,1506],[75.6,1590],[75.6,1673],[75.6,1756],[75.6,1839],[75.7,1923],[75.7,1999],[75.8,2089],[75.8,2173],[76,2257],[76,2333],[76,2423],[76,2499],[76,2589],[76,2673],[76,2756],[76,2840],[76,2923],[76,3006],[76,3089],[76,3173],[76,3249],[76.1,3340],[76.1,3423],[76.3,3506],[76.3,3590],[76.3,3673],[76.3,3756],[76.3,3836],[76.3,3923],[76.5,4006],[76.5,4083],[76.5,4166],[76.5,4256],[76.5,4340],[76.5,4423],[76.5,4506],[76.5,4590],[76.5,4671],[76.5,4756],[76.5,4839],[76.5,4923],[76.5,5006],[76.5,5083],[76.5,5172],[76.5,5256],[76.5,5339],[76.5,5423],[76.6,5506],[76.9,5589],[76.9,5673],[76.9,5756],[76.8,5840],[76.7,5916],[76.7,6006],[76.7,6089],[76.6,6173],[75.8,6256],[85.1,6673],[85,6756],[85,6840],[85.7,6923],[85.7,7006],[85.7,7089],[85.7,7172],[85.7,7253],[85.7,7339],[85.7,7416],[85.7,7503],[85.7,7589],[85.7,7673],[85.7,7756],[85.7,7832],[85.7,7923],[85.7,8007],[85.7,8089],[85.7,8171],[85.7,8256],[85.7,8336],[85.7,8423],[85.7,8506],[85.7,8589],[85.7,8666],[85.7,8756],[85.7,8839],[85.7,8923],[85.7,8999],[85.7,9089],[85.7,9166],[85.7,9252],[85.7,9339],[85.7,9423],[85.7,9506],[85.7,9589],[85.7,9673],[85.7,9756],[85.7,9840],[85.7,9939],[85.7,10023],[85.7,10106],[85.7,10182],[85.7,10272],[85.7,10358],[85.7,10439],[85.7,10522],[85.7,10606],[85.7,10682],[85.7,10772],[85.7,10856],[85.7,10939],[85.7,11023],[85.7,11106],[85.7,11189],[85.7,11273],[85.7,11356],[85.7,11439],[85.7,11523],[85.7,11603],[85.7,11689],[85.7,11773],[85.7,11856],[85.7,11939],[85.7,12023],[85.7,12106],[85.7,12189],[85.7,12273],[85.7,12356],[85.7,12439],[85.7,12516],[85.7,12606],[85.7,12689],[85.7,12772],[85.7,12857],[85.7,12939],[86.3,13033],[87,13100],[90.5,13183],[92.6,13267],[95.8,13350],[99.2,13433],[100,13516],[100,13599],[100,13682],[100,13766],[100,13850],[100,13933],[100,14017],[100,14099],[100,14183],[100,14266],[100,14349],[100,14433],[100,14516],[100,14599],[100,14683],[100,14766],[100,14850],[100,14932],[100,15016],[100,15099],[100,15183],[100,15266],[100,15351],[100,15432],[100,15516],[100,15599],[100,15683],[100,15766],[100,15851],[100,15933],[100,16016],[100,16099],[100,16183],[100,16266],[100,16350],[100,16432],[100,16516],[100,16599],[100,16682],[100,16766],[100,16851],[100,16933],[100,17016],[100,17099],[100,17182],[100,17266],[100,17351],[100,17433],[100,17516],[100,17599],[100,17682],[100,17766],[100,17849],[100,17932],[100,18018],[100,18100],[100,18183],[100,18267],[100,18350],[100,18432],[100,18516],[100,18599],[100,18682],[100,18766],[100,18850],[100,18933],[100,19016],[100,19099],[100,19182],[100,19266],[100,19350],[100,19432],[100,19516],[100,19599],[100,19682],[100,19766],[100,19851],[100,19939],[100,20022],[100,20106],[100,20189],[100,20272],[100,20358],[100,20439],[100,20522],[100,20606],[100,20689],[100,20772],[100,20857],[100,20939],[100,21023],[100,21106],[100,21189],[100,21273],[100,21358],[100,21439],[100,21523],[100,21606],[100,21689],[100,21773],[100,21856],[100,21939],[100,22023],[100,22106],[100,22189],[100,22272],[100,22357],[100,22439],[100,22523],[100,22606],[100,22689],[100,22772],[100,22857],[100,22940],[100,23023],[100,23106],[100,23189],[100,23272],[100,23357],[100,23439],[100,23522],[100,23606],[100,23689],[100,23772],[100,23856],[100,23939],[100,24023],[100,24106],[100,24189],[100,24273],[100,24356],[100,24439],[100,24523],[100,24606],[100,24689],[100,24773],[100,24856],[100,24939],[100,25023],[100,25106],[100,25189],[100,25272],[100,25356],[100,25439],[100,25523],[100,25606],[100,25690],[100,25773],[100,25856],[100,25939],[100,26022],[100,26106],[100,26189],[100,26272],[100,26356],[100,26439],[100,26522]]",1,0,915.0177,917.7508,99.16666667,1.9224,"[{""rating"":99.16666666666667,""responseTime"":1.9223999996185057}]",space,2.1839,,917.7509,All the time,100,917.7537,,,[],,0,10,10,10,1,audio/Narrative8Situation1.wav,audio/Narrative7Situation1.wav,audio/Narrative6Situation1.wav,audio/Narrative5Situation1.wav,5,2,2,5,,,,,,,,,,,,,,,,,,,,,,,,,,,,,,,,,,,,,,,
,,,,,,5f2de2dbf9dbae126ed085b0,2024-02-08_16h02.37.667,group3.1-3.2-social-tom,2023.2.2,Win32,59.88023952,65c5074098b851296ff0b7ed,65c5415f92271d9844ea7b68,,,,,,,,,,,,,,,,,,,,,,,,,,,,,917.7541,2,audio/Narrative6Situation2.wav,920.7604,,920.7605,949.2669,"[[97.7,12099],[96.9,12183],[86.4,12516],[87.4,12599],[94.7,12683],[98.9,12774],[99.1,12856],[99.1,12939],[99.1,13019],[97.4,13107],[94.2,13190],[93.4,13273],[93.4,13356],[93.4,13439],[93.4,13523],[93.4,13599],[93.4,13689],[93.4,13773],[93.4,13856],[93.4,13939],[93.4,14023],[93.4,14106],[93.4,14189],[93.4,14273],[93.4,14356],[93.4,14439],[93.4,14523],[93.4,14606],[93.4,14689],[93.4,14773],[93.4,14856],[93.4,14939],[93.4,15022],[93.4,15106],[93.4,15182],[93.4,15273],[93.4,15353],[93.4,15439],[93.4,15522],[93.4,15606],[93.4,15682],[93.4,15773],[93.4,15856],[93.4,15934],[93.4,16016],[93.4,16106],[93.4,16189],[93.4,16272],[93.4,16356],[93.4,16439],[93.4,16516],[93.4,16606],[93.4,16690],[93.4,16772],[93.4,16849],[93.4,16933],[93.4,17019],[93.4,17106],[93.4,17189],[93.4,17272],[93.4,17356],[93.4,17439],[93.4,17522],[93.4,17613],[93.4,17689],[93.4,17772],[93.4,17852],[93.4,17939],[93.4,18022],[93.4,18099],[93.4,18189],[93.4,18272],[93.4,18356],[93.4,18439],[93.4,18523],[93.4,18599],[93.4,18689],[93.4,18773],[93.4,18856],[93.4,18939],[93.4,19016],[93.4,19106],[93.4,19189],[93.4,19273],[93.3,19356],[93.3,19449],[93.3,19533],[93.3,19616],[93.3,19699],[93.3,19782],[93.3,19866],[93.3,19949],[93.3,20033],[93,20116],[93,20199],[93,20282],[93.3,20366],[95,20449],[96.3,20534],[97.3,20616],[97.4,20699],[97.4,20782],[97.4,20866],[97.4,20949],[97.4,21034],[100,21116],[100,21206],[100,21289],[100,21372],[100,21456],[100,21533],[100,21622],[100,21706],[100,21789],[100,21873],[100,21957],[100,22041],[100,22123],[100,22206],[100,22289],[100,22373],[100,22456],[100,22540],[100,22623],[100,22706],[100,22789],[100,22866],[100,22956],[100,23039],[100,23123],[100,23206],[100,23289],[100,23373],[100,23456],[100,23541],[100,23622],[100,23706],[100,23789],[100,23873],[100,23956],[100,24042],[100,24125],[100,24206],[100,24291],[100,24366],[100,24468],[100,24556],[100,24633],[100,24724],[100,24799],[100,24890],[100,24973],[100,25058],[100,25139],[100,25217],[100,25306],[100,25390],[100,25474],[100,25556],[100,25639],[100,25723],[100,25806],[100,25890],[100,25972],[100,26056],[100,26133],[100,26224],[100,26308],[100,26389],[100,26466],[100,26558],[100,26639],[100,26722],[100,26799],[100,26889],[100,26966],[100,27055],[100,27139],[100,27222],[100,27299],[100,27389],[100,27469],[100,27558],[100,27639],[100,27716],[100,27806],[100,27889],[100,27969],[100,28049],[100,28132],[100,28220],[100,28306],[100,28390],[100,28472]]",1,0,949.267,951.6335,98.125,1.0282,"[{""rating"":98.125,""responseTime"":1.0282000002860059}]",space,1.8191,,951.6336,All the time,100,951.6353,,,[],,0,11,11,11,1,audio/Narrative8Situation2.wav,audio/Narrative7Situation2.wav,audio/Narrative6Situation2.wav,audio/Narrative5Situation2.wav,3,3,3,3,,,,,,,,,,,,,,,,,,,,,,,,,,,,,,,,,,,,,,,
,,,,,,5f2de2dbf9dbae126ed085b0,2024-02-08_16h02.37.667,group3.1-3.2-social-tom,2023.2.2,Win32,59.88023952,65c5074098b851296ff0b7ed,65c5415f92271d9844ea7b68,,,,,,,,,,,,,,,,,,,,,,,,,,,,,951.6356,2,audio/Narrative6Situation3.wav,956.6434,,956.6435,969.2772,"[[999,9],[999,83],[999,166],[999,256],[999,341],[999,423],[999,506],[999,589],[999,673],[999,756],[999,839],[999,923],[999,1006],[999,1090],[82.3,1169],[67.5,1257],[57.1,1340],[55.1,1423],[55.1,1506],[55.2,1589],[55.2,1673],[54.6,1757],[50.4,1850],[49.2,1933],[49.2,2016],[48.9,2099],[48.9,2183],[48.9,2266],[48.9,2349],[48.9,2433],[48.9,2516],[48.9,2599],[48.8,2683],[48.8,2766],[49.1,2850],[49.1,2933],[49.3,3016],[49.3,3099],[49.3,3183],[49.3,3266],[49.3,3349],[49.3,3433],[49.3,3516],[49.4,3599],[49.6,3683],[50.3,3766],[50.7,3849],[50.7,3933],[50.8,4016],[50.8,4099],[50.8,4183],[50.8,4266],[50.8,4349],[50.9,4433],[51.1,4516],[51.5,4600],[51.7,4683],[51.7,4766],[51.7,4849],[51.7,4933],[51.7,5016],[51.7,5099],[51.7,5184],[51.7,5266],[51.7,5349],[51.7,5433],[51.6,5516],[51.5,5599],[51.5,5684],[51.5,5766],[51.5,5849],[51.5,5932],[51.5,6016],[51.5,6099],[51.5,6183],[51.5,6266],[51.5,6349],[52,6433],[52,6516],[52,6599],[52,6683],[52,6767],[52,6849],[52,6933],[52,7016],[52,7099],[52,7183],[52,7266],[52,7349],[52,7433],[52,7516],[52,7599],[52,7683],[52,7766],[52,7849],[52,7932],[52,8016],[52,8099],[52,8183],[52,8266],[52,8349],[52,8433],[52,8516],[52,8599],[52,8683],[52,8773],[52,8856],[52,8939],[52,9023],[52,9106],[52,9189],[52,9273],[52,9349],[52,9439],[52,9523],[52,9606],[52,9689],[52,9773],[52,9849],[52,9939],[52,10023],[52,10106],[52,10190],[52,10273],[52,10356],[52,10439],[52,10522],[52,10606],[52,10683],[52,10773],[52,10856],[52,10939],[52,11023],[52,11106],[52,11190],[52,11273],[52,11349],[52,11439],[52,11523],[52,11606],[52,11689],[52,11773],[52,11866],[52,11949],[52,12032],[52,12116],[52,12199],[52,12283],[52,12366],[52,12449],[52,12533],[50.9,12616]]",1,0,969.2774,971.06,50.20833333,0.9601,"[{""rating"":50.208333333333336,""responseTime"":0.960099999904628}]",space,1.2339,,971.0602,Not at all,0,971.0632,,,[],,0,12,12,12,1,audio/Narrative8Situation3.wav,audio/Narrative7Situation3.wav,audio/Narrative6Situation3.wav,audio/Narrative5Situation3.wav,4,8,5,3,,,,,,,,,,,,,,,,,,,,,,,,,,,,,,,,,,,,,,,
,,,,,,5f2de2dbf9dbae126ed085b0,2024-02-08_16h02.37.667,group3.1-3.2-social-tom,2023.2.2,Win32,59.88023952,65c5074098b851296ff0b7ed,65c5415f92271d9844ea7b68,,,,,,,,,,,,,,,,,,,,,,,,,,,,,971.0635,2,audio/Narrative6Situation4.wav,973.0767,,973.0768,985.6939,"[[49.5,12599]]",1,0,985.694,987.7998,47.5,1.1579,"[{""rating"":47.5,""responseTime"":1.1578999996185075}]",space,1.5662,,987.7999,Half the time,50,987.8026,,,[],,0,13,13,13,1,audio/Narrative8Situation4.wav,audio/Narrative7Situation4.wav,audio/Narrative6Situation4.wav,audio/Narrative5Situation4.wav,3,3,2,1,,,,,,,,,,,,,,,,,,,,,,,,,,,,,,,,,,,,,,,
,,,,,,5f2de2dbf9dbae126ed085b0,2024-02-08_16h02.37.667,group3.1-3.2-social-tom,2023.2.2,Win32,59.88023952,65c5074098b851296ff0b7ed,65c5415f92271d9844ea7b68,,,,,,,,,,,,,,,,,,,,,,,,,,,,,987.8029,2,audio/Narrative6Situation5.wav,989.8098,,989.8099,997.793,"[[999,0],[999,90],[999,173],[999,256],[999,340],[999,423],[999,507],[999,590],[46.7,673],[46.8,756],[46.8,839],[46.3,923],[45.5,1007],[45.2,1090],[45.1,1173],[45,1256],[45,1339],[45,1422],[45,1506],[45,1590],[45,1669],[43.1,1757],[38.4,2008],[34.8,2090],[31.8,2173],[29.4,2256],[28.6,2340],[27.6,2423],[26.5,2507],[24.9,2589],[24,2673],[23.2,2756],[22.7,2840],[21.1,2923],[20.5,3007],[20.5,3090],[20.5,3173],[20.3,3256],[20.2,3332],[20.2,3422],[20.2,3506],[20.2,3582],[20.2,3672],[20.2,3756],[20.2,3839],[20.2,3922],[20.2,4006],[20.2,4089],[20.2,4172],[20.2,4256],[20.2,4339],[20.2,4423],[20.2,4499],[20.2,4582],[20.2,4672],[20.2,4756],[20.2,4839],[20.2,4919],[20.2,5006],[20.2,5089],[20.2,5173],[20.2,5249],[20.2,5339],[20.2,5423],[20.2,5506],[20.2,5589],[20.2,5673],[20.2,5756],[20.2,5839],[20.2,5923],[20.2,6006],[20.2,6089],[20.2,6173],[20.2,6256],[20.2,6339],[20.2,6422],[20.2,6506],[20.2,6582],[20.2,6672],[20.2,6756],[20.2,6832],[20.2,6922],[20.2,7006],[20.2,7089],[20.2,7173],[20.2,7249],[20.2,7341],[20.2,7422],[20.2,7503],[20.2,7589],[20.2,7666],[20.2,7752],[20.2,7839],[20.2,7922]]",1,0,997.7931,1000.9666,25,1.6131,"[{""rating"":25,""responseTime"":1.613099999904648}]",space,2.6341,,1000.9667,All the time,100,1000.9692,,,[],,0,14,14,14,1,audio/Narrative8Situation5.wav,audio/Narrative7Situation5.wav,audio/Narrative6Situation5.wav,audio/Narrative5Situation5.wav,2,5,2,5,,,,,,,,,,,,,,,,,,,,,,,,,,,,,,,,,,,,,,,
,,,,,,5f2de2dbf9dbae126ed085b0,2024-02-08_16h02.37.667,group3.1-3.2-social-tom,2023.2.2,Win32,59.88023952,65c5074098b851296ff0b7ed,65c5415f92271d9844ea7b68,,,,,,,,,,,,,,,,,,,,,,,,,,,,,1000.9696,2,audio/Narrative6Situation6.wav,1002.9827,,1002.9827,1014.0762,"[[32.9,9010],[33.5,9093],[35.8,9176],[37,9260],[39.9,9344],[49.4,9426],[56,9510],[62.4,9593],[88.4,9844],[94,9927],[95.8,10010],[95.9,10093],[95.9,10176],[96.1,10259],[96.1,10343],[96.1,10426],[96.1,10509],[96.1,10593],[96.1,10676],[96.1,10759],[96.1,10843],[96.1,10926],[96.1,11009],[96.1,11093]]",1,0,1014.0763,1016.4663,88.125,1.1395,"[{""rating"":88.125,""responseTime"":1.1394999999999982}]",space,1.8506,,1016.4663,Not at all,0,1016.4692,,,[],,0,15,15,15,1,audio/Narrative8Situation6.wav,audio/Narrative7Situation6.wav,audio/Narrative6Situation6.wav,audio/Narrative5Situation6.wav,2,3,2,3,,,,,,,,,,,,,,,,,,,,,,,,,,,,,,,,,,,,,,,
,,,,,,5f2de2dbf9dbae126ed085b0,2024-02-08_16h02.37.667,group3.1-3.2-social-tom,2023.2.2,Win32,59.88023952,65c5074098b851296ff0b7ed,65c5415f92271d9844ea7b68,,,,,,,,,,,,,,,,,,,,,,,,,,,,,1016.4694,2,audio/Narrative6Situation7.wav,1021.4759,,1021.476,1046.3324,"[[65.3,9166],[65.2,9249],[65.2,9333],[65.2,9416],[65.2,9499],[65.2,9583],[65.2,9666],[65.2,9749],[65.2,9833],[65.2,9916],[65.2,9999],[65.2,10083],[65.2,10166],[65.2,10249],[65.2,10333],[65.2,10416],[65.2,10499],[65.2,10583],[65.2,10666],[65.2,10749],[65.2,10833],[65.2,10916],[65.2,10999],[65.2,11083],[65.2,11166],[65.2,11249],[65.2,11333],[65.2,11416],[65.2,11499],[65.2,11583],[65.2,11666],[65.2,11749],[65.2,11833],[65.2,11916],[65.2,11999],[65.2,12083],[65.2,12166],[65.2,12249],[65.2,12333],[65.2,12416],[65.2,12499],[65.2,12583],[65.2,12666],[65.2,12750],[65.2,12833],[65.2,12916],[65.2,12999],[65.2,13083],[65.2,13167],[65.2,13249],[65.2,13333],[65.2,13416],[65.2,13499],[65.2,13583],[65.2,13666],[65.2,13749],[65.2,13833],[65.2,13916],[65.2,13999],[65.2,14083],[65.2,14166],[65.2,14249],[65.2,14333],[65.2,14416],[65.2,14499],[65.2,14583],[65.2,14666],[65.2,14749],[65.2,14833],[65.2,14916],[65.2,14999],[65.2,15083],[65.2,15166],[65.2,15249],[65.2,15333],[65.2,15416],[65.2,15499],[65.2,15583],[65.2,15668],[65.2,15750],[65.2,15834],[65.2,15917],[65.2,15999],[65.2,16083],[65.2,16166],[65.2,16249],[65.2,16333],[65.2,16416],[65.2,16499],[65.2,16583],[65.2,16666],[65.2,16749],[65.2,16833],[65.2,16916],[65.2,16999],[65.2,17089],[65.2,17172],[65.2,17256],[65.2,17339],[65.2,17423],[65.2,17506],[65.2,17590],[65.2,17673],[65.2,17756],[65.2,17839],[65.2,17923],[65.2,18006],[65.2,18089],[65.2,18173],[65.2,18256],[65.2,18339],[65.2,18422],[65.2,18506],[65.2,18589],[65.2,18672],[65.2,18756],[65.2,18839],[65.2,18922],[65.2,19006],[65.2,19089],[65.2,19173],[65.2,19256],[65.2,19340],[65.2,19423],[65.2,19506],[65.2,19589],[65.2,19673],[65.2,19756],[65.2,19839],[65.2,19923],[65.2,20006],[65.2,20089],[65.2,20173],[66,20256],[66.1,20339],[66.4,20423],[66.4,20506],[66.4,20589],[66.4,20673],[66.4,20756],[66.4,20839],[66.4,20922],[66.4,21006],[66.4,21089],[66.4,21172],[66.4,21256],[66.4,21339],[66.4,21423],[66.4,21506],[66.4,21589],[66.4,21672],[66.4,21756],[66.4,21839],[66.4,21922],[66.4,22006],[66.4,22089],[66.4,22172],[66.4,22256],[66.4,22339],[66.4,22423],[66.4,22506],[66.4,22589],[66.4,22673],[66.4,22756],[66.4,22840],[66.4,22923],[66.4,23006],[66.4,23089],[66.4,23173],[66.4,23256],[66.4,23339],[66.4,23423],[66.4,23506],[66.4,23589],[66.4,23673],[66.4,23756],[66.4,23839],[66.4,23922],[66.4,24006],[66.4,24089],[66.4,24172],[66.4,24256],[66.4,24339],[66.4,24422],[66.4,24506],[66.4,24589],[66.4,24672],[66.4,24756],[66.4,24839]]",1,0,1046.3325,1047.8503,65.10416667,0.8079,"[{""rating"":65.10416666666666,""responseTime"":0.8079000000952874}]",space,0.9835,,1047.8509,Half the time,50,1047.858,,,[],,0,16,16,16,1,audio/Narrative8Situation7.wav,audio/Narrative7Situation7.wav,audio/Narrative6Situation7.wav,audio/Narrative5Situation7.wav,3,5,5,4,,,,,,,,,,,,,,,,,,,,,,,,,,,,,,,,,,,,,,,
,,,,,,5f2de2dbf9dbae126ed085b0,2024-02-08_16h02.37.667,group3.1-3.2-social-tom,2023.2.2,Win32,59.88023952,65c5074098b851296ff0b7ed,65c5415f92271d9844ea7b68,,,,,,,,,,,,,,,,,,,,,,,,,,,,,1047.8588,2,audio/Narrative6Situation8.wav,1052.86,,1052.8601,1059.7423,[],1,0,1059.7424,1063.7089,10.83333333,2.8226,"[{""rating"":10.833333333333334,""responseTime"":2.8225999999046962}]",space,3.4367,,1063.709,All the time,100,1063.7114,,,[],,0,17,17,17,1,audio/Narrative8Situation8.wav,audio/Narrative7Situation8.wav,audio/Narrative6Situation8.wav,audio/Narrative5Situation8.wav,3,2,5,3,,,,,,,,,,,,,,,,,,,,,,,,,,,,,,,,,,,,,,,
,,,,,,5f2de2dbf9dbae126ed085b0,2024-02-08_16h02.37.667,group3.1-3.2-social-tom,2023.2.2,Win32,59.88023952,65c5074098b851296ff0b7ed,65c5415f92271d9844ea7b68,,,,,,,,,,,,,,,,,,,,,,,,,,,,,1063.7117,2,audio/Narrative6Situation9.wav,1067.7255,,1067.7255,1077.6822,"[[999,9],[999,83],[999,166],[999,249],[999,333],[999,416],[999,499],[999,583],[999,666],[999,750],[999,843],[999,923],[999,1006],[999,1090],[20.7,1173],[21.1,1257],[21.9,1340],[23.1,1424],[24.9,1506],[24.5,1590],[21,1673],[18.4,1757],[11.8,1840],[11.5,1923],[11.5,2006],[11.5,2089],[11.5,2173],[11.5,2256],[11.5,2339],[11.5,2423],[11.5,2506],[11.5,2589],[11.5,2673],[11.5,2756],[11.5,2839],[11.5,2923],[11.5,3006],[11.5,3089],[11.5,3173],[11.5,3256],[11.5,3340],[11.5,3423],[11.5,3506],[11.5,3589],[11.5,3673],[11.5,3756],[11.5,3840],[11.5,3923],[11.5,4006],[11.5,4090],[11.5,4189],[11.5,4273],[11.5,4356],[11.5,4433],[11.5,4523],[11.5,4600],[11.5,4689],[11.5,4773],[11.5,4856],[11.5,4939],[11.5,5023],[11.5,5106],[11.5,5190],[11.5,5269],[11.5,5349],[11.5,5440],[11.5,5523],[11.5,5606],[11.5,5689],[11.5,5766],[11.5,5856],[11.5,5939],[11.5,6023],[11.5,6106],[11.5,6190],[11.5,6273],[11.5,6356],[11.5,6440],[11.5,6523],[11.5,6606],[11.5,6683],[11.5,6773],[11.5,6856],[11.5,6939],[11.5,7022],[11.5,7099],[11.5,7189],[12.4,7281],[14.2,7357],[14.8,7440],[15.2,7523],[16,7607],[16.1,7682],[16.1,7773],[16.1,7856],[16.1,7939],[16.1,8023],[16.1,8106],[16.1,8189],[16.1,8273],[16.1,8356],[16.1,8439],[16.1,8523],[16.1,8606],[16.1,8682],[16.1,8773],[16.1,8856],[16.1,8939],[16.1,9023],[16.1,9106],[16.1,9189],[16.1,9269],[16.1,9349],[16.1,9432],[16.1,9516],[16.1,9606],[16.1,9689],[16.1,9773],[16.1,9856],[16.1,9941]]",1,0,1077.6823,1079.7086,14.58333333,1.102,"[{""rating"":14.583333333333332,""responseTime"":1.1020000000000891}]",space,1.4704,,1079.7086,Half the time,50,1079.7115,,,[],,0,18,18,18,1,audio/Narrative8Situation9.wav,audio/Narrative7Situation9.wav,audio/Narrative6Situation9.wav,audio/Narrative5Situation9.wav,3,2,4,3,,,,,,,,,,,,,,,,,,,,,,,,,,,,,,,,,,,,,,,
,,,,,,5f2de2dbf9dbae126ed085b0,2024-02-08_16h02.37.667,group3.1-3.2-social-tom,2023.2.2,Win32,59.88023952,65c5074098b851296ff0b7ed,65c5415f92271d9844ea7b68,,,,,,,,,,,,,,,,,,,,,,,,,,,,,,,,,,,,,,,,,,,,,,,,,,,,,,,,,,,,,,,,,,,,,,,,1079.7117,1102.5752,space,22.3325,,1102.5759,1134.716,space,31.8202,,,,,,,,,,,,,,,,,,,,,,,,,,
,,,,,,5f2de2dbf9dbae126ed085b0,2024-02-08_16h02.37.667,group3.1-3.2-social-tom,2023.2.2,Win32,59.88023952,65c5074098b851296ff0b7ed,65c5415f92271d9844ea7b68,,,,,,,,,,,,,,,,,,,,,,,,,,,,,1137.335,1,audio/Narrative8Situation9.wav,1139.3413,,,,,,,1171.2016,1174.6809,87.8125,2.1791,"[{""rating"":87.8125,""responseTime"":2.1790999999045653}]",space,2.9227,,1171.1987,All the time,100,1171.2016,,,[],,,,,,,,,,,2,2,2,2,,,,,,,,,,,,,,,1134.7269,1137.3081,1139.3417,3,1171.1985,"[[22.2,4840],[29.7,4923],[35.6,5006],[35.6,5089],[35.6,5172],[35.9,5256],[36.4,5339],[36.5,5425],[38,5507],[42.5,5591],[44.5,5673],[44.5,5756],[44.5,5839],[44.5,5923],[44.5,5999],[44.5,6089],[44.5,6173],[44.5,6256],[44.5,6339],[44.5,6422],[44.5,6506],[44.5,6582],[44.5,6672],[44.5,6752],[44.5,6839],[44.5,6923],[44.5,7006],[44.5,7084],[44.5,7173],[44.5,7256],[44.5,7339],[44.5,7415],[44.5,7506],[44.5,7590],[44.5,7672],[44.5,7756],[44.5,7839],[44.5,7915],[44.5,8006],[44.5,8091],[44.5,8172],[44.5,8249],[44.5,8339],[44.5,8422],[44.5,8501],[44.5,8591],[44.5,8672],[44.5,8753],[44.5,8839],[44.5,8923],[44.5,8999],[44.5,9083],[44.5,9172],[43.8,9256],[42.5,9350],[40.1,9433],[38.6,9516],[36.3,9599],[33.9,9682],[32,9766],[31.4,9849],[30.6,9932],[30.5,10016],[30,10099],[29.5,10182],[28.9,10266],[28,10349],[27.6,10432],[26.9,10516],[26.5,10599],[26,10682],[25.4,10766],[25.3,10849],[25.3,10932],[25.3,11015],[29.4,11099],[34.6,11183],[39.2,11266],[42.2,11349],[46.5,11432],[49.3,11516],[51.1,11599],[52.8,11682],[53.5,11766],[54.4,11849],[54.9,11932],[55,12016],[55,12099],[55,12182],[55.3,12265],[55.3,12349],[55.3,12432],[55.3,12515],[55.3,12599],[55.3,12682],[55.3,12765],[55.3,12849],[55.4,12932],[55.8,13016],[56.3,13099],[57,13183],[57.6,13266],[58.1,13349],[58.2,13432],[58.3,13515],[58.3,13599],[58.5,13682],[58.5,13765],[58.5,13849],[58.6,13932],[58.6,14015],[58.6,14099],[58.9,14182],[59.2,14265],[59.6,14349],[60.1,14432],[60.6,14516],[61,14599],[61.8,14682],[62.6,14766],[64.1,14849],[65.3,14932],[67.6,15016],[69.5,15099],[71.6,15183],[73.1,15266],[74.2,15349],[74.8,15432],[75.2,15515],[75.7,15599],[76.1,15682],[76.5,15766],[76.6,15849],[76.9,15932],[77.4,16016],[78.3,16099],[79.9,16182],[81.3,16266],[82.6,16349],[83.3,16432],[84.1,16516],[84.2,16599],[84.2,16682],[84.2,16765],[84.2,16849],[84.2,16932],[84.2,17015],[84.2,17099],[84.2,17182],[84.2,17266],[84.2,17349],[84.2,17432],[84.2,17515],[84.2,17600],[84.2,17682],[84.2,17765],[84.2,17849],[84.2,17932],[84.2,18015],[84.2,18099],[84.2,18182],[84.2,18265],[83.4,18349],[75.8,18432],[70.2,18516],[63.3,18600],[56.8,18690],[53.3,18770],[50,18856],[46.7,18940],[44.6,19023],[41.9,19108],[39.9,19190],[38.4,19273],[36.5,19365],[34.7,19449],[34,19532],[33.1,19616],[32.7,19699],[32.2,19782],[32,19865],[32,19949],[32,20032],[32,20115],[32,20199],[32,20282],[32,20365],[32,20449],[32,20532],[32,20616],[32,20699],[32,20782],[32,20865],[32,20949],[32,21032],[32.3,21116],[32.9,21199],[32.9,21282],[32.9,21365],[33.3,21449],[34,21533],[34,21616],[34,21699],[34,21782],[34,21865],[34,21949],[34,22032],[34,22116],[34,22199],[34,22282],[34,22365],[34,22449],[34,22532],[34,22615],[34,22699],[34,22782],[34.4,22866],[35,22949],[35,23032],[35,23115],[35,23199],[35,23282],[35,23365],[35,23449],[35,23532],[35,23615],[35,23699],[35,23782],[35.1,23866],[35.1,23949],[35.2,24032],[35.5,24116],[35.8,24199],[35.8,24282],[35.8,24365],[35.8,24449],[35.8,24532],[35.8,24615],[36.1,24699],[36.1,24782],[36.9,24865],[38.2,24949],[38.9,25032],[40,25116],[41,25199],[43.6,25282],[45.7,25365],[47.9,25449],[49.5,25532],[51.5,25617],[54,25699],[58.2,25783],[63.9,25866],[70.4,25949],[74.6,26032],[77.9,26116],[79.6,26199],[80.5,26282],[82,26366],[83,26449],[83,26532],[83,26616],[83,26699],[83,26782],[83,26865],[83,26949],[83,27032],[83,27115],[83,27199],[83,27282],[83,27365],[83,27449],[83,27532],[83,27615],[83,27699],[83,27782],[83,27865],[83,27949],[83,28032],[83,28115],[83,28199],[83,28282],[83,28365],[83,28449],[83,28532],[83,28616],[83,28699],[83,28782],[83,28865],[83,28949],[83,29032],[83,29116],[83,29199],[83,29282],[83,29372],[83,29455],[83,29539],[83,29624],[83,29705],[83,29789],[83,29872],[83,29955],[77.3,30039],[77.2,30123],[77.2,30205],[77.2,30289],[77.2,30368],[77.2,30449],[77.4,30536],[80.5,30623],[82.7,30706],[84.2,30789],[84.2,30872],[84.2,30955],[84.3,31039],[82,31123],[80.7,31206],[79,31289],[76.5,31372],[75,31455],[75,31539],[75,31616],[75,31706],[75,31789]]",0,0,0,0,1,"Larry had recently lost his family, job and home, and was now living on his own in the park. He had most of his belongings, including some clothes, a blanket, and his mother’s special necklace. His family had been very important to him and he felt as though he did not have much going for him. One of his first days in the park he came across a family that did not have much food and looked very cold. He decided to give them some of his food and his blanket.","Larry had recently lost his family, job and home, and was now living on his own in the park. He had most of his belongings, including some clothes, a blanket, and his mother’s special necklace. His family had been very important to him and he felt as though he did not have much going for him. One of his first days in the park he came across a family that did not have much food and looked very cold. He decided to give them some of his food and his blanket.","Larry had recently lost his family, job and home, and was now living on his own in the park. He had most of his belongings, including some clothes, a blanket, and his mother’s special necklace. His family had been very important to him and he felt as though he did not have much going for him. One of his first days in the park he came across a family that did not have much food and looked very cold. He decided to give them some of his food and his blanket.","Larry had recently lost his family, job and home, and was now living on his own in the park. He had most of his belongings, including some clothes, a blanket, and his mother’s special necklace. His family had been very important to him and he felt as though he did not have much going for him. One of his first days in the park he came across a family that did not have much food and looked very cold. He decided to give them some of his food and his blanket.",,,,,,,,,,
,,,,,,5f2de2dbf9dbae126ed085b0,2024-02-08_16h02.37.667,group3.1-3.2-social-tom,2023.2.2,Win32,59.88023952,65c5074098b851296ff0b7ed,65c5415f92271d9844ea7b68,,,,,,,,,,,,,,,,,,,,,,,,,,,,,1174.6814,1,audio/Narrative8Situation9.wav,1176.5742,space,,,,,,1210.1098,1213.5238,67.91666667,1.9214,"[{""rating"":67.91666666666667,""responseTime"":1.9214000000954456}]",space,2.8672,,1210.1077,All the time,100,1210.1098,,,[],,,,,,,,,,,6,2,3,9,1.8756,,,,,,,,,,,,,,,,1176.5743,3,1210.1075,"[[85.9,1256],[1.1,2549],[1.1,2632],[1.1,2716],[1.1,2799],[1.1,2884],[1.1,2966],[1.1,3049],[1.1,3133],[1.1,3216],[1.1,3299],[1.1,3404],[1.1,3483],[1.1,3566],[1.1,3649],[1.1,3733],[1.1,3816],[1.1,3899],[1.1,3982],[1.1,4066],[1.1,4149],[1.1,4233],[1.1,4316],[1.1,4399],[1.1,4483],[1.1,4566],[1.1,4649],[1.1,4733],[1.1,4816],[1.1,4899],[1.1,4983],[1.1,5066],[1.1,5149],[1.1,5233],[1.1,5316],[1.1,5406],[1.1,5489],[1.1,5573],[1.1,5649],[1.1,5739],[1.1,5823],[1.1,5906],[1.1,5989],[1.1,6073],[1.1,6156],[1.1,6239],[1.1,6323],[1.1,6406],[1.1,6489],[1.1,6573],[1.1,6656],[1.1,6739],[1.1,6823],[1.1,6899],[1.1,6989],[1.1,7073],[1.1,7149],[1.1,7239],[1.1,7323],[1.1,7406],[1.1,7489],[1.1,7573],[1.1,7656],[1.1,7739],[1.1,7823],[1.1,7899],[1.1,7989],[1.1,8073],[1.1,8156],[1.1,8239],[1.1,8319],[1.1,8399],[1.1,8486],[1.1,8566],[1.1,8656],[1.1,8739],[1.1,8817],[1.1,8906],[1.1,8982],[1.1,9073],[1.1,9156],[1.1,9239],[1.1,9323],[1.1,9399],[1.1,9489],[1.1,9572],[1.1,9656],[1.1,9732],[1.1,9822],[1.1,9906],[1.1,9989],[1.1,10072],[1.1,10156],[1.1,10239],[1.1,10316],[1.1,10406],[1.1,10489],[1.1,10573],[1.1,10656],[1.1,10740],[1.1,10823],[1.1,10906],[1.1,10989],[3.1,11583],[14,11673],[23.6,11757],[33.4,11840],[41.8,11923],[44.1,12007],[46.1,12090],[47.3,12167],[47.7,12256],[47.8,12340],[48.6,12422],[48.6,12506],[48.8,12590],[48.9,12673],[48.9,12757],[48.9,12839],[48.9,12922],[48.9,13006],[48.9,13089],[48.9,13173],[48.9,13256],[48.9,13339],[48.9,13437],[48.9,13523],[48.9,13600],[48.9,13689],[48.9,13773],[48.9,13856],[48.9,13936],[48.9,14022],[48.9,14106],[48.9,14182],[48.9,14273],[48.9,14358],[48.9,14439],[48.9,14523],[48.9,14606],[48.9,14682],[48.9,14772],[48.9,14856],[48.9,14932],[48.9,15022],[48.9,15099],[48.9,15189],[48.9,15272],[48.9,15349],[48.9,15436],[48.9,15522],[48.9,15606],[48.9,15689],[48.9,15773],[48.9,15849],[48.9,15932],[52,16040],[55.2,16123],[55.6,16206],[58.2,16290],[61,16374],[62.9,16456],[65.3,16540],[68.6,16639],[71,16723],[73,16807],[74.5,16890],[75.4,16990],[76.8,17073],[78.3,17156],[76.8,17239],[76.8,17322],[76.8,17406],[76.8,17489],[76.8,17572],[76.8,17656],[76.8,17739],[76.8,17822],[76.8,17899],[76.8,17982],[76.8,18072],[76.7,18156],[76.4,18256],[76.4,18339],[76.4,18423],[76.4,18506],[79,18589],[79,18672],[79,18756],[79,18839],[79,18922],[79,19006],[79,19089],[79,19172],[79,19256],[79,19339],[79,19423],[79,19499],[79,19582],[79,19672],[79,19752],[79,19839],[79,19923],[79,20006],[79,20089],[79,20172],[79,20256],[79,20339],[79,20422],[79,20506],[79,20589],[79,20666],[79,20756],[79,20839],[79,20919],[79,21006],[79,21089],[79,21166],[79,21256],[79,21339],[79,21422],[79,21499],[79,21589],[79,21672],[79,21757],[79,21839],[79,21922],[79,22002],[79,22089],[79,22172],[79,22256],[79,22339],[79,22422],[79,22506],[79,22589],[79,22673],[79,22756],[79,22839],[79,22923],[79,23006],[79,23089],[79,23173],[79,23256],[79,23339],[79,23423],[79,23499],[79,23589],[79,23673],[79,23756],[79,23839],[79,23922],[79,24006],[79,24089],[79,24169],[79,24256],[79,24332],[79,24422],[79,24506],[79,24589],[79,24672],[79,24756],[79,24839],[79,24923],[79,24999],[79,25089],[79,25172],[79,25256],[79,25332],[79,25422],[79,25506],[79,25582],[79,25672],[79,25756],[79,25839],[79,25922],[79,26006],[79,26089],[79,26172],[79,26256],[79,26339],[79,26422],[79,26499],[79,26589],[79,26673],[79,26749],[79,26839],[79,26923],[79,27006],[79,27089],[79,27172],[79,27256],[79,27339],[79,27422],[79,27499],[79,27589],[79,27669],[79,27756],[79,27839],[79,27922],[79,28006],[79,28089],[79,28166],[79,28256],[79,28339],[79,28422],[79,28506],[79,28589],[79,28672],[79,28749],[79,28839],[79,28922],[79,29006],[79,29089],[79,29166],[79,29256],[79,29339],[79,29423],[80.1,29507],[82.8,29590],[84.4,29673],[84.8,29749],[85.8,29839],[86.8,29923],[88.2,30007],[89.6,30089],[90.3,30173],[90.6,30249],[91.3,30339],[91.8,30423],[92.4,30499],[93.3,30589],[93.3,30672],[93.8,30756],[93.8,30832],[93.8,30922],[93.8,30999],[93.8,31089],[93.8,31173],[93.8,31256],[93.8,31339],[93.8,31422],[93.8,31505],[93.9,31585],[94.4,31679],[94.4,31756],[94.5,31839],[94.9,31922],[94.9,32006],[94.9,32082],[94.9,32182],[94.9,32249],[94.9,32332],[94.9,32416],[94.9,32499],[94.9,32582],[95,32666],[95,32749],[95.1,32833],[95.2,32916],[95.2,32999],[95.2,33082],[95.2,33166],[95.2,33249],[95.2,33333],[95.2,33416],[95.2,33499]]",0,1,1,1,1,"It was just another Sunday afternoon for Lucy, she was on her way to the farmer's market to pick up some produce. When she arrived at the old train depot that housed the market, she noticed two men fighting on the steps. Before she could call for help, one of the men crumpled to his knees. The other man dropped an object that appeared to be a knife and ran off. When Lucy approached the crime scene she realized that the man who had been murdered was the Mayor and that he had a gunshot wound.","One day at work, Margaret walked up to her partner, Al, to ask him to talk to the chief of staff at the local hospital where she worked as a nurse.","Luke always thought of himself as an honest man. That's why during his evening jog around the swamp, he pondered his recent affair with the receptionist at work. Luke looked up at the sky and asked God why he was so weak and unfaithful. He thought of the impact this would have on his family and told God of his conflicted feelings toward telling his wife Marta.","Linda and Amy had been best friends since kindergarten, they even found homes on the same street in the forest on the edge of town. Their biggest fight had been over who gets the bigger slice of cake, until Amy married Dan. Linda loathed Dan, she thought he was manipulative and had a violent temper. She only put up with him because Amy loved him. ",,,,,,,,,,
,,,,,,5f2de2dbf9dbae126ed085b0,2024-02-08_16h02.37.667,group3.1-3.2-social-tom,2023.2.2,Win32,59.88023952,65c5074098b851296ff0b7ed,65c5415f92271d9844ea7b68,,,,,,,,,,,,,,,,,,,,,,,,,,,,,1213.5243,1,audio/Narrative8Situation9.wav,1217.5405,,,,,,,1236.0839,1238.7137,48.75,1.4757,"[{""rating"":48.75,""responseTime"":1.4756999998091942}]",space,2.0839,,1236.0804,Half the time,50,1236.0838,,,[],,,,,,,,,,,4,5,2,2,,,,,,,,,,,,,,,,,1217.5406,3,1236.0802,"[[62,1673],[60.1,1756],[57.1,1840],[46.1,1925],[37.4,2007],[20.3,2090],[9.9,2173],[6.3,2257],[1.9,6690],[4.3,6773],[6.1,6856],[6.1,6939],[6.1,7022],[6.1,7099],[6.1,7189],[6.1,7272],[6.1,7356],[6.5,7440],[6.7,7523],[7.1,7606],[7.3,7690],[8.3,7773],[9.6,7856],[12.5,7940],[16.4,8023],[18.8,8106],[20.6,8190],[23.3,8273],[26,8356],[31,8456],[34.2,8539],[37.1,8623],[39.9,8706],[40.6,8789],[44.3,8873],[47.4,8957],[50,9040],[52.1,9123],[52.9,9206],[53.8,9289],[53.9,9373],[53.9,9449],[53.9,9539],[55.1,9623],[57,9706],[58.5,9789],[60.5,9873],[62.1,9956],[63.4,10042],[64.5,10123],[65.8,10206],[66.5,10289],[66.6,10372],[66.6,10456],[66.6,10539],[66.6,10622],[66.6,10706],[66.6,10790],[66.7,10866],[66.7,10956],[66.7,11033],[66.7,11116],[66.7,11206],[66.7,11289],[68.2,11373],[69.7,11457],[72,11540],[74.4,11623],[78,11706],[79.8,11789],[80.9,11873],[81.8,11956],[82.4,12039],[83,12123],[83.3,12199],[84,12289],[85,12373],[89,12456],[93.2,12540],[94.9,12624],[95.1,12706],[95.1,12789],[95.1,12873],[95.1,12955],[95.5,13039],[95.5,13123],[95.6,13206],[95.9,13290],[96,13372],[96.1,13466],[96.4,13552],[96.5,13639],[96.6,13723],[96.6,13806],[96.6,13882],[96.6,13972],[96.6,14056],[96.6,14139],[96.6,14216],[96.6,14306],[96.6,14389],[96.6,14469],[96.6,14556],[96.6,14639],[96.6,14722],[96.6,14806],[96.6,14885],[96.6,14972],[96.6,15056],[96.6,15139],[96.6,15222],[96.6,15306],[96.6,15389],[96.6,15472],[95.3,15556],[94.4,15640],[91.7,15723],[90.2,15806],[88,15890],[86.5,15974],[85.6,16056],[83.5,16139],[81.9,16223],[78.9,16306],[74.7,16389],[71.5,16473],[68.3,16556],[67,16639],[65.3,16724],[64,16806],[62.1,16889],[60.9,16973],[60.1,17056],[60.1,17139],[60.1,17222],[60.1,17299],[59.6,17389],[58.6,17473],[57.3,17557],[56.4,17640],[54.6,17723],[53.1,17806],[52.6,17891],[51.6,17977],[51.5,18056],[51.3,18132],[50.8,18223],[50.5,18306],[50.5,18382],[50.5,18472]]",0,2,2,2,1,On the ground beside him was a pen that she had mistaken for a knife. Lucy looked for the gunman and saw a suspicious man in black with distinct pointy features darting into an alley across the street. Cops who were nearby chased the man who had fled and arrested him.,"While waiting outside the chief of staff's office, Al heard nondescript shouting and yelling, there was a loud clatter in the room and then an eerie silence. An unfamiliar employee ran hastily out of the office with a terrified look on their face.","Suddenly, Luke heard a woman call out his name and when he turned around he saw Carly, his receptionist, across the road with a gun in her hand. Carly ran to him and explained how she had followed him here to confess her love. She exclaimed if Luke didn't love her back that she would kill him and his family. Carly explained that the only way they could be together is to kill Marta.","This feeling of hate between Amy and Dan was mutual, Dan didn't like how much time his wife spent with her and thought Amy was creating distance between their marriage. That's why Dan decided to try and tarnish Linda's reputation with his wife, in hopes it would get rid of her. He came home one afternoon and exclaimed that Linda had tried to kiss him. Amy was taken aback and immediately called Linda to confront her about these accusations. When Linda arrived she denied having made a move on Dan, but discovered Dan had enlisted the help of his friend Will who said he witnessed it all happen.",,,,,,,,,,
,,,,,,5f2de2dbf9dbae126ed085b0,2024-02-08_16h02.37.667,group3.1-3.2-social-tom,2023.2.2,Win32,59.88023952,65c5074098b851296ff0b7ed,65c5415f92271d9844ea7b68,,,,,,,,,,,,,,,,,,,,,,,,,,,,,1238.7143,1,audio/Narrative8Situation9.wav,1240.7301,,,,,,,1252.6183,1255.1232,94.0625,1.4269,"[{""rating"":94.0625,""responseTime"":1.4269000000954293}]",space,1.9703,,1252.6068,Half the time,50,1252.6182,,,[],,,,,,,,,,,2,2,1,4,,,,,,,,,,,,,,,,,1240.7303,3,1252.6066,"[[55.6,3083],[84.2,3166],[92.3,3250],[94.1,3333],[94.3,3416],[94.3,3499],[94.3,3582],[94.3,3666],[94.3,3742],[94.3,3832],[94.3,3909],[94.3,4001],[94.3,4085],[94.3,4166],[94.3,4249],[94.3,4332],[94.3,4421],[94.3,4505],[94.3,4576],[94.3,4660],[94.3,4743],[94.3,4826],[94.3,4909],[94.3,4993],[94.3,5076],[94.3,5193],[94.3,5276],[94.3,5359],[94.3,5443],[94.3,5526],[94.3,5609],[94.3,5701],[94.3,5783],[94.3,5866],[94.3,5949],[94.3,6029],[94.3,6116],[94.3,6196],[94.3,6282],[94.3,6366],[94.3,6446],[94.3,6532],[94.3,6616],[94.3,6699],[94.3,6799],[94.3,6882],[94.3,6966],[94.3,7049],[94.3,7132],[94.3,7209],[94.3,7292],[94.3,7382],[94.3,7466],[94.3,7542],[94.3,7632],[94.3,7709],[94.3,7801],[94.3,7882],[94.3,7966],[94.3,8042],[94.3,8142],[94.3,8226],[94.3,8309],[94.3,8392],[94.3,8476],[94.3,8559],[94.3,8642],[94.3,8726],[94.3,8809],[94.3,8892],[94.3,8976],[94.3,9059],[94.3,9142],[94.3,9226],[94.3,9309],[94.3,9392],[94.3,9476],[94.3,9559],[94.3,9643],[94.3,9726],[94.3,9809],[94.3,9892],[94.3,9976],[94.3,10059],[94.3,10142],[94.3,10226],[94.3,10309],[94.3,10392],[94.3,10476],[94.3,10559],[94.3,10642],[94.3,10726],[94.3,10809],[94.3,10892],[94.3,10976],[94.3,11059],[94.3,11142],[94.3,11227],[94.3,11309],[94.3,11392],[94.3,11476],[94.3,11559],[94.3,11642],[94.3,11726],[94.3,11809]]",0,3,3,3,1,"But Lucy knew the charged man was innocent, which meant the killer was free. Lucy vowed to find out who the real murderer was and to stop him at all costs.","Al explained to the chief of staff that Margaret wanted to be excused from her absences last week. The chief of staff, Susan, revealed that she wanted to fire Margaret and never see her again. Susan and Al had been having an affair and she wanted Margaret ""out of the picture"". Al was conflicted, but agreed it would be for the best.","Luke thought of his child and felt like this was his only option. He agreed to the plan and called his wife to meet him at the swamp to watch the sunset with him. When she arrived, Marta called out for her husband, but found Carly waiting for her. She immediately drew her gun and shot her in the chest, knocking her unconscious.","Since it was their word against her own, she decided to go home and admit defeat. She knew how much it would hurt Amy to know the truth.",,,,,,,,,,
