exp_question,consent.started,consent.stopped,consentResponse.keys,consentResponse.rt,consentResponse.duration,participantID,date,expName,psychopyVersion,OS,frameRate,STUDY_ID,SESSION_ID,opening1.started,opening1.stopped,keyEndingOpening1.keys,keyEndingOpening1.rt,keyEndingOpening1.duration,volumeAdjust.started,volumeAdjust.stopped,endingAdjust.keys,endingAdjust.rt,endingAdjust.duration,opening2.started,opening2.stopped,keyEndingOpening.keys,keyEndingOpening.rt,keyEndingOpening.duration,mouse.x,mouse.y,mouse.leftButton,mouse.midButton,mouse.rightButton,mouse.time,instructionLoop.thisRepN,instructionLoop.thisTrialN,instructionLoop.thisN,instructionLoop.thisIndex,instructionLoop.ran,readyForAudio.started,readyForAudio.stopped,fixation.started,run,audio_played,fixation.stopped,endPractice.keys,audioPre.started,audioPre.stopped,continuousResponses_audio,continuousSlider.response,continuousSlider.rt,intRating.started,intRating.stopped,intQuestionSlider.response,intQuestionSlider.rt,intQuestionSlider.history,confirmResponse.keys,confirmResponse.rt,confirmResponse.duration,catchQuestion.started,catch_label,catch_value,catchQuestion.stopped,catchQuestionSlider.response,catchQuestionSlider.rt,catchQuestionSlider.history,confirmResponse_2.keys,audioRunLoop.thisRepN,audioRunLoop.thisTrialN,audioRunLoop.thisN,audioRunLoop.thisIndex,audioRunLoop.ran,conditions1_1,conditions2_1,conditions1_2,conditions2_2,dur1_1,dur2_1,dur1_2,dur2_2,endPractice.rt,endPractice.duration,confirmResponse_2.rt,confirmResponse_2.duration,runIntervalBreak.started,runIntervalBreak.stopped,endingBreakKey.keys,endingBreakKey.rt,endingBreakKey.duration,connection.started,connection.stopped,connectionEnding.keys,connectionEnding.rt,connectionEnding.duration,readyForText.started,readyForText.stopped,textPre.started,run_dup,textPre.stopped,continuousResponses_text,textRunLoop.thisRepN,textRunLoop.thisTrialN,textRunLoop.thisN,textRunLoop.thisIndex,textRunLoop.ran,text1_1,text1_2,text2_1,text2_2,runBreakText.started,runBreakText.stopped,endingBreakKey_2.keys,endingBreakKey_2.rt,endingBreakKey_2.duration,ending.started,ending.stopped,endingEnding.keys,endingEnding.rt,endingEnding.duration
social,0.0004,6.3752,y,6.061,,5f4c722074dfe876eaa57716,2024-05-13_09h52.39.604,group3.1-3.2-social-tom,2023.2.2,Win32,59.52380952,65c5074098b851296ff0b7ed,6642373933dcfd98075410f2,,,,,,,,,,,,,,,,,,,,,,,,,,,,,,,,,,,,,,,,,,,,,,,,,,,,,,,,,,,,,,,,,,,,,,,,,,,,,,,,,,,,,,,,,,,,,,,,,,,,,,,,,,
,,,,,,5f4c722074dfe876eaa57716,2024-05-13_09h52.39.604,group3.1-3.2-social-tom,2023.2.2,Win32,59.52380952,65c5074098b851296ff0b7ed,6642373933dcfd98075410f2,6.3759,12.0772,space,5.6721,,,,,,,,,,,,,,,,,,,,,,,,,,,,,,,,,,,,,,,,,,,,,,,,,,,,,,,,,,,,,,,,,,,,,,,,,,,,,,,,,,,,,,,,,,,,,,,,,,,,,,
,,,,,,5f4c722074dfe876eaa57716,2024-05-13_09h52.39.604,group3.1-3.2-social-tom,2023.2.2,Win32,59.52380952,65c5074098b851296ff0b7ed,6642373933dcfd98075410f2,,,,,,12.0777,52.3326,space,39.9347,,,,,,,,,,,,,,,,,,,,,,,,,,,,,,,,,,,,,,,,,,,,,,,,,,,,,,,,,,,,,,,,,,,,,,,,,,,,,,,,,,,,,,,,,,,,,,,,,
,,,,,,5f4c722074dfe876eaa57716,2024-05-13_09h52.39.604,group3.1-3.2-social-tom,2023.2.2,Win32,59.52380952,65c5074098b851296ff0b7ed,6642373933dcfd98075410f2,,,,,,,,,,,52.3357,61.7968,space,9.4457,,[],[],[],[],[],[],0,0,0,0,1,,,,,,,,,,,,,,,,,,,,,,,,,,,,,,,,,,,,,,,,,,,,,,,,,,,,,,,,,,,,,,,,,,,,,,,,,,,,,,,,
,,,,,,5f4c722074dfe876eaa57716,2024-05-13_09h52.39.604,group3.1-3.2-social-tom,2023.2.2,Win32,59.52380952,65c5074098b851296ff0b7ed,6642373933dcfd98075410f2,,,,,,,,,,,61.8034,83.2641,space,21.3775,,[],[],[],[],[],[],1,0,1,0,1,,,,,,,,,,,,,,,,,,,,,,,,,,,,,,,,,,,,,,,,,,,,,,,,,,,,,,,,,,,,,,,,,,,,,,,,,,,,,,,,
,,,,,,5f4c722074dfe876eaa57716,2024-05-13_09h52.39.604,group3.1-3.2-social-tom,2023.2.2,Win32,59.52380952,65c5074098b851296ff0b7ed,6642373933dcfd98075410f2,,,,,,,,,,,83.2646,99.2976,space,15.9901,,[],[],[],[],[],[],2,0,2,0,1,,,,,,,,,,,,,,,,,,,,,,,,,,,,,,,,,,,,,,,,,,,,,,,,,,,,,,,,,,,,,,,,,,,,,,,,,,,,,,,,
,,,,,,5f4c722074dfe876eaa57716,2024-05-13_09h52.39.604,group3.1-3.2-social-tom,2023.2.2,Win32,59.52380952,65c5074098b851296ff0b7ed,6642373933dcfd98075410f2,,,,,,,,,,,99.3049,124.316,space,25,,[],[],[],[],[],[],3,0,3,0,1,,,,,,,,,,,,,,,,,,,,,,,,,,,,,,,,,,,,,,,,,,,,,,,,,,,,,,,,,,,,,,,,,,,,,,,,,,,,,,,,
,,,,,,5f4c722074dfe876eaa57716,2024-05-13_09h52.39.604,group3.1-3.2-social-tom,2023.2.2,Win32,59.52380952,65c5074098b851296ff0b7ed,6642373933dcfd98075410f2,,,,,,,,,,,124.3229,140.1171,space,15.7812,,[],[],[],[],[],[],4,0,4,0,1,,,,,,,,,,,,,,,,,,,,,,,,,,,,,,,,,,,,,,,,,,,,,,,,,,,,,,,,,,,,,,,,,,,,,,,,,,,,,,,,
,,,,,,5f4c722074dfe876eaa57716,2024-05-13_09h52.39.604,group3.1-3.2-social-tom,2023.2.2,Win32,59.52380952,65c5074098b851296ff0b7ed,6642373933dcfd98075410f2,,,,,,,,,,,,,,,,,,,,,,,,,,,140.1253,142.7009,142.7175,1,audio/Narrative13Situation2.wav,144.718,,144.7182,174.4702,"[[999,1],[999,99],[999,182],[999,266],[999,349],[999,432],[999,515],[999,598],[999,682],[999,765],[50.6,849],[50.6,932],[50.6,1015],[50.6,1099],[50.6,1182],[50.6,1265],[50.6,1349],[50.9,1432],[52.6,1516],[56.1,1599],[57,1682],[56.4,1765],[55.7,1849],[54.7,1932],[63.6,5016],[61.7,5099],[60,5182],[59.8,5266],[91,5349],[93.3,5432],[93.3,5516],[93.3,5599],[93.3,5682],[93.3,5766],[93.8,5849],[93.8,5932],[93.8,6016],[93.8,6099],[93.8,6183],[93.8,6266],[93.8,6349],[93.8,6433],[93.8,6516],[93.8,6599],[93.8,6683],[93.8,6766],[93.8,6849],[95.7,6933],[100,7016],[100,7099],[100,7182],[100,7266],[100,7349],[100,7433],[100,7516],[100,7599],[100,7683],[100,7766],[100,7849],[100,7932],[100,8016],[100,8099],[100,8182],[100,8266],[100,8349],[100,8432],[100,8516],[100,8599],[100,8683],[100,8766],[100,8849],[100,8933],[100,9016],[100,9100],[100,9183],[100,9266],[100,9349],[100,9433],[100,9516],[100,9599],[100,9683],[100,9767],[100,9850],[100,9933],[100,10016],[100,10099],[100,10182],[100,10266],[100,10349],[100,10433],[100,10517],[100,10600],[100,10683],[100,10766],[100,10850],[100,10933],[100,11016],[100,11100],[100,11183],[100,11266],[100,11349],[100,11433],[100,11516],[100,11599],[100,11683],[100,11766],[100,11849],[100,11933],[100,12016],[100,12100],[100,12183],[100,12266],[100,12349],[100,12433],[100,12516],[100,12600],[100,12683],[100,12766],[100,12849],[100,12933],[100,13016],[100,13099],[100,13183],[100,13266],[100,13349],[100,13433],[100,13516],[100,13599],[100,13683],[100,13766],[100,13849],[100,13933],[100,14016],[100,14100],[100,14183],[100,14266],[100,14349],[100,14433],[100,14516],[100,14599],[100,14683],[100,14766],[100,14849],[100,14933],[100,15016],[100,15099],[100,15183],[100,15267],[100,15350],[100,15433],[100,15517],[100,15600],[100,15683],[100,15767],[100,15850],[100,15933],[100,16017],[100,16100],[100,16183],[100,16266],[100,16350],[100,16433],[100,16516],[100,16600],[100,16683],[100,16766],[100,16850],[100,16934],[100,17017],[100,17100],[100,17184],[100,17267],[100,17350],[100,17434],[100,17517],[100,17600],[100,17683],[100,17767],[100,17850],[100,17934],[100,18017],[100,18100],[100,18183],[100,18266],[97.3,18350],[88.8,18434],[77.5,19517],[80.6,19600],[83.1,19683],[83.5,19766],[83.5,19850],[83.5,19933],[83.5,20016],[80.6,20100],[77.7,20183],[76.6,20267],[76.2,20350],[75.6,20433],[75.5,20516],[75.5,20600],[75.5,20683],[75.5,20767],[72,20851],[66.8,20935],[63,21017],[60.8,21100],[60.2,21184],[59.7,21267],[58.8,21350],[58.1,21433],[57.6,21517],[55.3,21600],[52.5,21683],[51.3,21767],[50.3,21850],[47.4,24434],[47.5,24517],[48,24600],[48,24683],[48,24767],[48,24850],[48,24933],[48,25017],[48,25100],[48,25183],[48,25267],[48,25350],[50,25434],[52.5,25517],[53.4,25601],[53.7,25683],[53.7,25767],[53.7,25850],[53.7,25934],[53.7,26017],[53.7,26100],[53.7,26183],[53.4,26267],[51.6,26351],[50.1,26434],[48.2,26517],[46.3,26601],[46.2,26684],[46.2,26767],[46.2,26850],[46.2,26934],[46.2,27017],[46.2,27100],[46.2,27184],[46.3,27268],[46.3,27351],[46.6,27435],[46.6,27517],[46.8,27600],[46.8,27684],[46.8,27767],[46.8,27850],[46.8,27934],[46.8,28017],[46.8,28101],[46.8,28184],[46.8,28267],[46.8,28351],[46.8,28434],[46.8,28517],[46.8,28601],[46.8,28684],[45.6,28768],[42.5,28851],[38.7,28934],[36.1,29017],[36.1,29100],[36.1,29184],[34.2,29267],[30.7,29351],[27,29434],[25.4,29517],[25,29600],[24.8,29684]]",1,0,174.4704,184.2038,44.58272328,6.8064,"[{""rating"":18.08199121522694,""responseTime"":3.9226000000238344},{""rating"":41.36163982430454,""responseTime"":5.236700000047676},{""rating"":44.582723279648604,""responseTime"":6.806400000035751}]",space,9.1908,,184.2041,Partially,50,184.2073,,,[],,0,0,0,0,1,audio/Narrative13Situation2.wav,audio/Narrative13Situation2.wav,audio/Narrative13Situation2.wav,audio/Narrative13Situation2.wav,2,2,2,2,,,,,,,,,,,,,,,,,,,,,,,,,,,,,,,,,,,,,,,
,,,,,,5f4c722074dfe876eaa57716,2024-05-13_09h52.39.604,group3.1-3.2-social-tom,2023.2.2,Win32,59.52380952,65c5074098b851296ff0b7ed,6642373933dcfd98075410f2,,,,,,,,,,,,,,,,,,,,,,,,,,,,,184.2074,1,audio/Narrative7Situation1.wav,185.8534,space,185.8535,241.7407,"[[57.9,416],[57.9,499],[57.9,583],[57.9,666],[58.5,749],[58.5,833],[58.3,917],[56.9,999],[56.9,1083],[56.9,1166],[56.9,1249],[56.9,1332],[56.9,1416],[56.9,1499],[56.9,1583],[56.9,1666],[56.9,1749],[56.9,1833],[56.9,1916],[56.9,1999],[58.9,2083],[71.5,2166],[81.6,2250],[87.3,2333],[87.3,2416],[87.3,2499],[87.3,2583],[87.3,2667],[87.3,2750],[87.3,2833],[87.3,2916],[87.3,2999],[87.3,3083],[87.3,3166],[87.3,3250],[87.3,3333],[87.3,3416],[87.3,3499],[87.3,3583],[87.3,3666],[87.3,3750],[87.3,3833],[87.3,3916],[87.3,4000],[87.3,4083],[87.3,4166],[87.3,4250],[87.3,4333],[87.3,4417],[87.3,4500],[87.3,4583],[87.3,4667],[91,4750],[100,4833],[100,4917],[100,5000],[100,5083],[100,5166],[100,5250],[100,5333],[100,5416],[100,5500],[100,5583],[100,5666],[100,5750],[100,5833],[100,5916],[100,6000],[100,6083],[100,6167],[100,6250],[100,6333],[100,6417],[100,6500],[100,6583],[100,6667],[100,6750],[100,6833],[100,6917],[100,7000],[100,7083],[100,7167],[100,7250],[100,7333],[100,7416],[100,7500],[100,7583],[100,7666],[100,7750],[100,7833],[100,7916],[100,8000],[100,8083],[100,8166],[100,8250],[100,8333],[100,8417],[100,8500],[100,8583],[100,8667],[100,8750],[100,8833],[100,8916],[100,9000],[100,9083],[100,9167],[100,9250],[100,9333],[100,9417],[100,9500],[100,9583],[100,9666],[100,9750],[100,9833],[100,9917],[100,10000],[100,10083],[100,10167],[100,10250],[100,10333],[100,10417],[100,10500],[100,10583],[100,10667],[100,10750],[100,10833],[100,10917],[100,11000],[100,11083],[100,11167],[100,11250],[100,11333],[100,11417],[100,11500],[100,11584],[100,11667],[100,11750],[100,11834],[100,11917],[100,12000],[100,12084],[100,12167],[100,12251],[100,12334],[100,12417],[100,12500],[100,12583],[100,12667],[100,12750],[100,12834],[100,12917],[100,13001],[100,13084],[100,13168],[98.9,13250],[98.9,13334],[98.9,13418],[98.9,13500],[98.9,13584],[98.9,13667],[98.9,13750],[98.9,13833],[98.9,13917],[98.9,14000],[98.9,14084],[98.9,14167],[98.9,14250],[98.9,14334],[100,14417],[100,14500],[100,14583],[100,14667],[100,14750],[100,14834],[100,14917],[100,15000],[100,15084],[100,15167],[100,15251],[99.8,15334],[98.9,15418],[98.6,15501],[98.6,15584],[98.6,15667],[98.6,15751],[98.6,15834],[99,15917],[99.9,16000],[99.9,16084],[99.9,16167],[99.9,16250],[99.9,16334],[99.9,16417],[99.9,16500],[99.9,16584],[99.9,16667],[99.9,16750],[99.9,16834],[99.9,16917],[99.9,17000],[99.9,17084],[99.9,17168],[99.9,17251],[99.9,17334],[99.9,17417],[99.9,17501],[99.9,17584],[99.9,17668],[99.9,17751],[99.9,17834],[99.9,17917],[99.9,18001],[99.9,18084],[99.9,18167],[99.9,18250],[99.9,18334],[99.9,18417],[99.9,18500],[99.9,18584],[99.9,18667],[99.9,18751],[99.9,18834],[99.9,18917],[99.9,19001],[99.9,19084],[99.9,19167],[99.9,19251],[99.9,19334],[99.9,19417],[99.9,19501],[99.9,19584],[99.9,19668],[99.9,19751],[99.9,19835],[99.9,19918],[99.5,20001],[99.3,20084],[99.3,20168],[99.3,20251],[98.5,20334],[98.5,20417],[98.6,20501],[98.8,20584],[98.8,20667],[98.8,20751],[98.8,20834],[98.8,20917],[98.8,21001],[98.8,21084],[98.2,21168],[93.2,21251],[90,21334],[88.2,21418],[85,21501],[75.2,22085],[78.3,22168],[78.6,22251],[78.6,22334],[75.5,22418],[72.3,22501],[67.1,22584],[63.8,22668],[61.6,22751],[59.5,22834],[58.8,22918],[58.6,23001],[58.6,23084],[58.6,23168],[56,23251],[54.2,23334],[52,23418],[50.4,23501],[49.3,23584],[48.7,23668],[47.5,23751],[45.9,23834],[45.8,23918],[43.3,24001],[40.6,24084],[38.9,24168],[38.9,24251],[39,24335],[42.5,24418],[51.8,24501],[51.9,24584],[51.9,24668],[51.9,24751],[51.9,24834],[51.9,24918],[51.9,25001],[51.9,25084],[51.9,25168],[51.9,25252],[51.9,25334],[51.9,25418],[51.9,25501],[51.9,25585],[51.9,25668],[51.9,25751],[51.9,25835],[51.9,25918],[51.9,26001],[51.9,26084],[51.9,26168],[51.9,26251],[51.9,26334],[51.9,26418],[51.9,26501],[51.9,26584],[51.9,26668],[51.9,26751],[51.9,26834],[51.9,26918],[51.9,27001],[51.9,27084],[51.9,27168],[51.9,27251],[51.9,27334],[51.9,27418],[51.9,27501],[51.9,27585],[51.9,27668],[51.9,27751],[51.9,27835],[51.9,27918],[51.9,28002],[51.9,28085],[51.9,28168],[52,28251],[52,28335],[52,28418],[52,28501],[52,28585],[52,28668],[52.6,28752],[54,28835],[56,28918],[56.7,29002],[58.9,29085],[63.5,29168],[67.9,29251],[72.4,29335],[76.1,29418],[80.3,29501],[84.3,29585],[86.3,29668],[89.5,29751],[91.9,29835],[93.9,29918],[95.7,30002],[98,30087],[100,30168],[100,30251],[100,30335],[100,30418],[100,30501],[100,30585],[100,30668],[100,30751],[100,30835],[100,30918],[100,31001],[100,31085],[100,31168],[100,31251],[100,31335],[100,31418],[100,31502],[100,31585],[100,31668],[100,31752],[100,31835],[100,31918],[100,32002],[100,32085],[100,32168],[100,32252],[100,32335],[100,32418],[100,32502],[100,32585],[100,32668],[100,32751],[100,32835],[100,32918],[100,33002],[100,33085],[100,33168],[100,33251],[100,33335],[100,33418],[100,33501],[100,33585],[100,33668],[100,33752],[100,33835],[100,33918],[100,34002],[100,34085],[100,34168],[100,34252],[100,34335],[100,34418],[100,34502],[100,34585],[100,34668],[100,34752],[100,34836],[100,34918],[100,35002],[100,35085],[100,35168],[100,35252],[100,35335],[100,35418],[100,35502],[100,35585],[100,35668],[100,35752],[100,35835],[100,35918],[100,36002],[100,36085],[100,36168],[100,36252],[100,36335],[100,36418],[100,36502],[100,36585],[100,36668],[100,36752],[100,36835],[100,36919],[100,37002],[100,37085],[100,37168],[100,37252],[100,37336],[100,37418],[100,37502],[100,37585],[100,37668],[100,37752],[100,37835],[100,37918],[100,38002],[100,38085],[100,38168],[100,38252],[100,38335],[100,38418],[100,38502],[100,38585],[100,38668],[100,38752],[100,38835],[100,38918],[100,39002],[100,39085],[100,39168],[100,39252],[100,39336],[100,39418],[100,39502],[100,39585],[100,39669],[100,39752],[100,39835],[100,39918],[100,40002],[100,40085],[100,40168],[100,40252],[100,40336],[100,40419],[100,40502],[100,40585],[100,40668],[100,40752],[100,40835],[100,40919],[100,41002],[100,41086],[100,41169],[100,41252],[100,41336],[100,41419],[100,41502],[100,41586],[100,41669],[100,41752],[100,41836],[100,41919],[100,42002],[100,42086],[100,42169],[100,42252],[100,42336],[100,42419],[100,42502],[100,42586],[100,42669],[100,42752],[100,42836],[100,42919],[100,43002],[100,43086],[100,43169],[100,43252],[100,43336],[100,43419],[100,43502],[100,43585],[100,43669],[100,43752],[100,43836],[100,43919],[100,44002],[100,44085],[100,44169],[100,44252],[100,44335],[100,44419],[100,44502],[100,44585],[100,44669],[100,44752],[100,44835],[100,44919],[100,45002],[100,45085],[100,45169],[100,45252],[100,45336],[100,45419],[100,45504],[100,45585],[100,45669],[100,45752],[100,45836],[100,45919],[100,46002],[100,46086],[100,46170],[100,46252],[100,46335],[100,46419],[100,46502],[100,46586],[100,46669],[100,46752],[100,46836],[100,46919],[100,47002],[100,47086],[100,47169],[100,47252],[100,47336],[100,47419],[100,47502],[100,47586],[100,47669],[100,47752],[100,47836],[100,47919],[100,48002],[100,48086],[100,48169],[100,48252],[100,48336],[100,48419],[100,48502],[100,48586],[100,48669],[100,48752],[100,48836],[100,48919],[100,49002],[100,49086],[100,49169],[100,49252],[100,49336],[100,49419],[100,49503],[100,49586],[100,49669],[100,49752],[100,49836],[100,49919],[100,50002],[100,50086],[100,50169],[100,50252],[100,50336],[100,50419],[100,50503],[100,50586],[100,50669],[100,50753],[100,50836],[100,50919],[100,51003],[100,51086],[100,51170],[100,51253],[100,51336],[100,51420],[100,51503],[100,51586],[100,51669],[100,51753],[100,51836],[100,51919],[100,52003],[100,52086],[100,52170],[100,52253],[100,52336],[100,52420],[100,52503],[100,52586],[100,52670],[100,52753],[100,52836],[100,52920],[100,53003],[100,53086],[100,53170],[100,53253],[100,53336],[100,53420],[100,53503],[100,53586],[100,53670],[100,53753],[100,53836],[100,53920],[100,54003],[100,54086],[100,54170],[100,54253],[100,54336],[100,54420],[100,54503],[100,54586],[100,54670],[100,54753],[100,54836],[100,54920],[100,55003],[100,55086],[100,55170],[100,55253],[100,55336],[100,55420],[100,55503],[100,55586],[100,55670],[100,55753],[100,55836]]",1,0,241.7411,247.7076,100,3.4964,"[{""rating"":96.70571010248902,""responseTime"":2.8404999999999916},{""rating"":100,""responseTime"":3.4963999999761484}]",space,5.4389,,247.7077,Not at all,0,247.711,,,[],,0,1,1,1,1,audio/Narrative7Situation1.wav,audio/Narrative8Situation1.wav,audio/Narrative5Situation1.wav,audio/Narrative6Situation1.wav,2,5,5,2,1.6288,,,,,,,,,,,,,,,,,,,,,,,,,,,,,,,,,,,,,,
,,,,,,5f4c722074dfe876eaa57716,2024-05-13_09h52.39.604,group3.1-3.2-social-tom,2023.2.2,Win32,59.52380952,65c5074098b851296ff0b7ed,6642373933dcfd98075410f2,,,,,,,,,,,,,,,,,,,,,,,,,,,,,247.7111,1,audio/Narrative7Situation2.wav,250.7245,,250.7245,258.1923,"[[999,7],[999,83],[999,166],[999,249],[999,333],[999,416],[999,500],[999,583],[999,666],[999,749],[999,833],[999,916],[999,1000],[999,1083],[999,1166],[999,1250],[999,1333],[999,1416],[999,1499],[999,1583],[999,1666],[999,1749],[999,1833],[90.1,2083],[90.1,2166],[90.7,2250],[96,2333],[96.3,2416],[97,2500],[98.3,2583],[98.9,2666],[99.3,2749],[100,2833],[100,2916],[100,2999],[100,3083],[100,3166],[100,3250],[100,3333],[100,3416],[100,3499],[100,3583],[100,3666],[100,3749],[100,3833],[100,3916],[100,4000],[100,4083],[100,4166],[100,4250],[100,4333],[100,4417],[100,4500],[100,4583],[100,4666],[100,4750],[100,4833],[100,4917],[100,5000],[100,5083],[100,5167],[100,5250],[100,5333],[100,5417],[100,5500],[100,5583],[100,5666],[100,5750],[100,5833],[100,5917],[100,6000],[100,6083],[100,6167],[100,6250],[100,6334],[100,6416],[100,6500],[100,6583],[100,6667],[100,6750],[100,6833],[100,6917],[100,7000],[100,7083],[100,7167],[100,7250],[100,7333],[100,7417]]",1,0,258.1925,263.9917,100,3.3741,"[{""rating"":100,""responseTime"":3.374099999964244}]",space,5.2539,,263.9918,Partially,50,264.0009,,,[],,0,2,2,2,1,audio/Narrative7Situation2.wav,audio/Narrative8Situation2.wav,audio/Narrative5Situation2.wav,audio/Narrative6Situation2.wav,3,3,3,3,,,,,,,,,,,,,,,,,,,,,,,,,,,,,,,,,,,,,,,
,,,,,,5f4c722074dfe876eaa57716,2024-05-13_09h52.39.604,group3.1-3.2-social-tom,2023.2.2,Win32,59.52380952,65c5074098b851296ff0b7ed,6642373933dcfd98075410f2,,,,,,,,,,,,,,,,,,,,,,,,,,,,,264.0011,1,audio/Narrative7Situation3.wav,272.0098,,272.0098,281.2772,"[[999,7],[999,82],[999,165],[999,249],[999,332],[999,415],[999,499],[999,582],[999,666],[999,749],[999,832],[999,915],[999,999],[999,1082],[999,1165],[999,1249],[999,1332],[999,1416],[999,1499],[999,1582],[999,1666],[999,1749],[999,1833],[999,1916],[999,1999],[999,2082],[999,2166],[999,2249],[59.1,2332],[65.8,2416],[73.7,2499],[75.5,2583],[83.4,2666],[91,2749],[92.2,2832],[92.2,2915],[92.2,2999],[92.2,3082],[91,3166],[86.5,3249],[77.5,3332],[76.6,3415],[76.6,3499],[76.6,3582],[76.6,3665],[76.4,3749],[76.4,3832],[76.4,3915],[76.2,3999],[76.2,4082],[76.2,4166],[76.1,4249],[76.1,4332],[75.2,4416],[72,4499],[61.6,4583],[57.5,4666],[56.6,4749],[56.6,4833],[56.6,4916],[56.6,4999],[56.6,5083],[56.6,5166],[56.6,5250],[56.6,5332],[56.6,5416],[56.6,5499],[54.1,5583],[49.7,5666],[45.3,5749],[45.3,5832],[45.8,5916],[46.6,5999],[46.8,6082],[47.1,6166],[49.3,6249],[49.9,6332],[50,6416],[50,6499],[50,6582],[50,6666],[52,6749],[56.1,6833],[57.2,6916],[58.6,6999],[60.1,7082],[62.7,7166],[66.5,7249],[67.9,7333],[67.9,7416],[68.7,7499],[70.1,7582],[70.2,7666],[70.2,7749],[70.2,7833],[70.2,7916],[70.2,8000],[70.2,8083],[70.4,8166],[70.4,8249],[70.4,8333],[70.4,8416],[70.4,8500],[70.4,8583],[70.4,8666],[70.4,8750],[70.4,8833],[70.4,8916],[70.4,9000],[70.4,9083],[57.5,9166],[44.9,9250]]",1,0,281.2774,286.7438,27.45241581,4.0111,"[{""rating"":43.557833089311856,""responseTime"":2.795000000000016},{""rating"":27.452415812591507,""responseTime"":4.011100000023873}]",space,4.9178,,286.7439,Not at all,0,286.7471,,,[],,0,3,3,3,1,audio/Narrative7Situation3.wav,audio/Narrative8Situation3.wav,audio/Narrative5Situation3.wav,audio/Narrative6Situation3.wav,8,4,3,5,,,,,,,,,,,,,,,,,,,,,,,,,,,,,,,,,,,,,,,
,,,,,,5f4c722074dfe876eaa57716,2024-05-13_09h52.39.604,group3.1-3.2-social-tom,2023.2.2,Win32,59.52380952,65c5074098b851296ff0b7ed,6642373933dcfd98075410f2,,,,,,,,,,,,,,,,,,,,,,,,,,,,,286.7474,1,audio/Narrative7Situation4.wav,289.7608,,289.7608,301.4943,"[[999,0],[999,82],[999,166],[999,249],[999,332],[999,415],[999,499],[999,582],[999,665],[999,749],[999,832],[999,916],[999,999],[999,1082],[999,1165],[999,1249],[999,1332],[999,1416],[999,1499],[999,1582],[999,1665],[999,1749],[999,1832],[999,1915],[999,1999],[999,2082],[999,2166],[999,2249],[999,2332],[999,2416],[999,2500],[999,2583],[999,2666],[999,2749],[999,2833],[999,2916],[999,3000],[999,3082],[999,3166],[999,3249],[999,3333],[999,3416],[67.1,3499],[68.6,3583],[69,3666],[69.5,3749],[69.5,3832],[69.5,3916],[69.5,3999],[69.5,4082],[69.5,4166],[69.5,4249],[69.5,4332],[69.5,4416],[69.5,4499],[69.5,4582],[69.5,4666],[69.5,4749],[69.5,4832],[69.5,4916],[65.4,5000],[50.4,5083],[49.4,5166],[48.8,5249],[45,5333],[38.1,5416],[36.4,5499],[34.8,5583],[31.4,5666],[29.2,5749],[25.7,5833],[24.7,5916],[19.4,5999],[18.5,6082],[17.6,6166],[16.9,6249],[16.9,6332],[16.9,6416],[16.9,6499],[16.9,6583],[16.2,6666],[12.8,6749],[9.9,6833],[7.4,6916],[3.6,6999],[1.1,7083],[1.4,9333],[3.7,9416],[3.9,9499],[3.9,9583],[3.9,9666],[3.9,9750],[3.9,9833],[3.9,9917],[2.7,10000]]",1,0,301.4945,305.2445,0,2.6584,"[{""rating"":0,""responseTime"":2.6583999999761545}]",space,3.2008,,305.2446,Not at all,0,305.2464,,,[],,0,4,4,4,1,audio/Narrative7Situation4.wav,audio/Narrative8Situation4.wav,audio/Narrative5Situation4.wav,audio/Narrative6Situation4.wav,3,3,1,2,,,,,,,,,,,,,,,,,,,,,,,,,,,,,,,,,,,,,,,
,,,,,,5f4c722074dfe876eaa57716,2024-05-13_09h52.39.604,group3.1-3.2-social-tom,2023.2.2,Win32,59.52380952,65c5074098b851296ff0b7ed,6642373933dcfd98075410f2,,,,,,,,,,,,,,,,,,,,,,,,,,,,,305.2468,1,audio/Narrative7Situation5.wav,310.2615,,310.2616,318.7455,"[[999,6],[999,83],[999,166],[999,250],[999,333],[999,417],[999,499],[999,583],[999,667],[999,749],[999,833],[999,916],[999,1000],[999,1083],[53.5,1166],[51.8,1583],[50.6,1667],[43.9,1750],[35.9,1833],[31.4,1917],[27.6,2000],[24.1,2083],[20.3,2167],[18.4,2250],[16.6,2333],[14.6,2417],[14,2500],[13,2583],[12.4,2667],[12.1,2749],[11.9,2833],[11.9,2916],[11.9,3000],[11.9,3083],[16.9,3167],[27.5,3250],[39.5,3333],[49.9,3417],[54.4,3500],[55.3,3583],[55.3,3666],[53.5,3750],[51.2,3833],[51.2,3916],[51.2,4000],[51.2,4083],[51.2,4166],[51.2,4250],[51.2,4333],[51.2,4417],[51.2,4500],[51.2,4583],[51.2,4667],[51.2,4750],[51.2,4833],[51.2,4917],[51.2,5000],[51.2,5083],[51.2,5167],[51.2,5250],[51.2,5333],[51.2,5417],[51.2,5500],[51.2,5584],[51.2,5667],[51.2,5750],[51.2,5834],[51.2,5917],[51.2,6000],[51.2,6083],[51.2,6167],[51.2,6250],[51.2,6334],[51.2,6417],[51.2,6500],[51.2,6584],[51.2,6667],[51.2,6750],[51.2,6834],[51.2,6917],[51.2,7000],[51.2,7084],[57.2,7167],[67,7250],[67.1,7333],[67.1,7417],[67.1,7500],[67.1,7583],[67.1,7667],[67.1,7750],[67.1,7833],[67.1,7917],[67.1,8000],[67.1,8084],[67.1,8167],[67.1,8250],[67.1,8334],[67.1,8417]]",1,0,318.7456,322.279,50.87847731,2.3715,"[{""rating"":62.15226939970717,""responseTime"":1.4313999999761222},{""rating"":50.87847730600292,""responseTime"":2.371499999999969}]",space,3.0062,,322.2792,Definitely yes,100,322.2827,,,[],,0,5,5,5,1,audio/Narrative7Situation5.wav,audio/Narrative8Situation5.wav,audio/Narrative5Situation5.wav,audio/Narrative6Situation5.wav,5,2,5,2,,,,,,,,,,,,,,,,,,,,,,,,,,,,,,,,,,,,,,,
,,,,,,5f4c722074dfe876eaa57716,2024-05-13_09h52.39.604,group3.1-3.2-social-tom,2023.2.2,Win32,59.52380952,65c5074098b851296ff0b7ed,6642373933dcfd98075410f2,,,,,,,,,,,,,,,,,,,,,,,,,,,,,322.2829,1,audio/Narrative7Situation6.wav,325.297,,325.2971,335.2805,"[[999,0],[999,81],[999,165],[999,248],[999,332],[999,415],[999,498],[999,582],[51.3,665],[50.9,749],[50.1,832],[50,915],[50,998],[50,1082],[50,1165],[50.9,1249],[51,1333],[51,1415],[51,1499],[50.9,1582],[50.9,1665],[50.7,1749],[50.6,1832],[50.6,1915],[50.6,1998],[52,2082],[57.5,2165],[64.3,2249],[68.9,2332],[73.4,2415],[77.8,2499],[97.9,3165],[97.7,3249],[97.6,3332],[97.3,3415],[99.6,3499],[99.6,3582],[100,3665],[100,3749],[100,3832],[100,3915],[100,3999],[100,4082],[100,4165],[100,4249],[100,4332],[100,4415],[100,4499],[100,4582],[100,4665],[100,4749],[100,4832],[100,4916],[100,4999],[100,5082],[100,5165],[100,5249],[100,5332],[100,5416],[100,5499],[100,5583],[100,5666],[100,5749],[100,5832],[100,5916],[100,5999],[100,6082],[100,6166],[100,6249],[100,6332],[100,6416],[100,6499],[100,6583],[100,6666],[100,6749],[100,6833],[100,6916],[100,6999],[100,7082],[100,7166],[100,7249],[100,7332],[100,7415],[100,7499],[100,7582],[100,7666],[100,7749],[100,7832],[100,7916],[100,7999],[100,8082],[100,8165],[100,8249],[100,8332],[99.3,8416],[99.3,8499],[99.3,8582],[99.3,8665],[99.3,8749],[100,8832],[100,8916],[100,8999],[100,9083],[100,9165],[100,9249],[100,9332],[100,9416],[100,9499],[100,9583],[100,9666],[100,9749],[100,9833],[100,9916]]",1,0,335.2807,337.6969,100,1.3718,"[{""rating"":100,""responseTime"":1.3718000000118877}]",space,1.871,,337.697,Definitely yes,100,337.6999,,,[],,0,6,6,6,1,audio/Narrative7Situation6.wav,audio/Narrative8Situation6.wav,audio/Narrative5Situation6.wav,audio/Narrative6Situation6.wav,3,2,3,2,,,,,,,,,,,,,,,,,,,,,,,,,,,,,,,,,,,,,,,
,,,,,,5f4c722074dfe876eaa57716,2024-05-13_09h52.39.604,group3.1-3.2-social-tom,2023.2.2,Win32,59.52380952,65c5074098b851296ff0b7ed,6642373933dcfd98075410f2,,,,,,,,,,,,,,,,,,,,,,,,,,,,,337.7001,1,audio/Narrative7Situation7.wav,342.7142,,342.7142,359.8982,"[[999,7],[999,82],[999,165],[999,249],[999,333],[999,416],[999,499],[63.8,583],[67.6,666],[77.1,749],[83.5,833],[87.8,916],[88.7,999],[88.7,1082],[88.7,1165],[88.7,1249],[88.7,1332],[88.7,1416],[88.7,1499],[91,1583],[98.8,1666],[100,1750],[100,1832],[100,1916],[100,1999],[100,2082],[100,2166],[100,2249],[100,2332],[100,2416],[100,2499],[100,2582],[100,2666],[100,2749],[100,2832],[100,2916],[100,2999],[100,3083],[100,3166],[100,3249],[100,3332],[100,3416],[100,3499],[100,3582],[100,3666],[100,3749],[100,3832],[100,3916],[100,3999],[100,4082],[100,4166],[100,4249],[100,4332],[100,4416],[100,4499],[100,4582],[100,4666],[100,4749],[100,4832],[100,4916],[100,4999],[100,5082],[100,5166],[100,5249],[100,5333],[100,5416],[100,5499],[100,5583],[100,5666],[100,5749],[100,5833],[100,5916],[100,5999],[100,6083],[100,6166],[100,6249],[100,6333],[100,6416],[100,6499],[100,6583],[100,6666],[100,6749],[100,6833],[100,6916],[100,6999],[100,7083],[100,7166],[100,7249],[100,7333],[100,7416],[100,7499],[100,7583],[100,7666],[100,7749],[100,7833],[100,7916],[100,8000],[100,8083],[100,8166],[100,8249],[100,8333],[100,8416],[100,8499],[100,8583],[100,8666],[100,8749],[100,8833],[100,8916],[100,9000],[100,9083],[100,9166],[100,9250],[100,9333],[100,9416],[100,9500],[100,9584],[100,9666],[100,9750],[100,9833],[100,9917],[100,10000],[100,10083],[100,10167],[100,10250],[100,10333],[100,10417],[100,10500],[100,10583],[100,10666],[100,10750],[100,10833],[100,10916],[100,11000],[100,11083],[100,11166],[100,11250],[100,11333],[100,11416],[100,11500],[100,11583],[100,11666],[100,11750],[100,11833],[100,11917],[100,12000],[100,12083],[100,12167],[100,12250],[100,12334],[100,12417],[100,12500],[100,12584],[100,12667],[100,12750],[100,12834],[100,12916],[100,13000],[100,13083],[100,13167],[100,13250],[100,13333],[100,13417],[100,13500],[100,13583],[100,13667],[100,13750],[100,13833],[100,13918],[100,14000],[100,14083],[100,14167],[100,14250],[100,14334],[100,14417],[100,14500],[100,14583],[100,14666],[100,14750],[100,14833],[100,14916],[100,15000],[100,15083],[100,15166],[100,15250],[100,15333],[100,15416],[100,15500],[100,15583],[100,15666],[100,15750],[100,15833],[100,15917],[100,16000],[100,16084],[100,16167],[100,16250],[100,16334],[100,16417],[100,16500],[100,16584],[100,16667],[97.6,16750],[97.3,16834],[96.6,16917],[96.6,17000],[96.6,17083],[96.6,17167]]",1,0,359.8984,363.1156,98.6090776,2.3364,"[{""rating"":92.89897510980967,""responseTime"":1.710300000011955},{""rating"":98.6090775988287,""responseTime"":2.3364000000357805}]",space,2.6684,,363.1156,Partially,50,373.6158,49.85358712,9.1596,"[{""rating"":50.43923865300146,""responseTime"":5.012400000035768},{""rating"":35.651537335285504,""responseTime"":7.095600000023865},{""rating"":49.85358711566617,""responseTime"":9.159600000023886}]",space,0,7,7,7,1,audio/Narrative7Situation7.wav,audio/Narrative8Situation7.wav,audio/Narrative5Situation7.wav,audio/Narrative6Situation7.wav,5,3,4,5,,,9.9576,,,,,,,,,,,,,,,,,,,,,,,,,,,,,,,,,,,,
,,,,,,5f4c722074dfe876eaa57716,2024-05-13_09h52.39.604,group3.1-3.2-social-tom,2023.2.2,Win32,59.52380952,65c5074098b851296ff0b7ed,6642373933dcfd98075410f2,,,,,,,,,,,,,,,,,,,,,,,,,,,,,373.6162,1,audio/Narrative7Situation8.wav,375.6329,,375.633,385.6665,"[[999,0],[999,83],[999,166],[999,249],[999,332],[999,416],[999,499],[999,582],[999,666],[999,749],[999,833],[999,916],[999,999],[58.6,1083],[67.9,1249],[74,1332],[74.7,1416],[78.6,1499],[86,1583],[88.1,1666],[90.1,1749],[91.4,1833],[92.9,1916],[92.9,1999],[92.2,2083],[91.7,2166],[91.6,2249],[91.6,2332],[91.6,2416],[92,2499],[94.9,2583],[97.9,2666],[99,2749],[99.3,2832],[99.3,2916],[99.3,2999],[99.3,3083],[99.3,3166],[100,3250],[100,3333],[100,3416],[100,3500],[100,3583],[100,3666],[100,3749],[100,3833],[100,3916],[100,4000],[100,4083],[100,4166],[100,4250],[100,4333],[100,4417],[100,4500],[100,4583],[100,4666],[100,4749],[100,4833],[100,4916],[100,4999],[100,5083],[100,5166],[100,5250],[100,5333],[100,5416],[100,5500],[100,5583],[100,5666],[100,5750],[100,5833],[100,5917],[100,6000],[100,6083],[100,6166],[100,6250],[100,6333],[100,6417],[100,6500],[100,6583],[100,6666],[100,6750],[100,6833],[100,6916],[100,7000],[100,7083],[100,7166],[100,7250],[100,7333],[100,7417],[100,7500],[100,7583],[100,7666],[100,7749],[100,7833],[100,7916],[100,8000],[100,8083],[100,8166],[100,8250],[100,8333],[100,8417],[100,8500],[100,8583],[100,8666],[100,8750],[100,8833],[100,8916],[100,9000],[100,9083],[100,9167],[100,9250],[100,9333],[100,9417],[100,9500],[100,9583],[100,9667],[100,9750],[100,9833],[100,9916],[100,10000]]",1,0,385.6666,387.9667,100,1.6554,"[{""rating"":100,""responseTime"":1.6554000000357405}]",space,1.772,,387.9668,Partially,50,387.9684,,,[],,0,8,8,8,1,audio/Narrative7Situation8.wav,audio/Narrative8Situation8.wav,audio/Narrative5Situation8.wav,audio/Narrative6Situation8.wav,2,3,3,5,,,,,,,,,,,,,,,,,,,,,,,,,,,,,,,,,,,,,,,
,,,,,,5f4c722074dfe876eaa57716,2024-05-13_09h52.39.604,group3.1-3.2-social-tom,2023.2.2,Win32,59.52380952,65c5074098b851296ff0b7ed,6642373933dcfd98075410f2,,,,,,,,,,,,,,,,,,,,,,,,,,,,,387.9691,1,audio/Narrative7Situation9.wav,389.9836,,389.9837,398.6174,"[[999,0],[999,83],[999,166],[999,249],[999,333],[999,416],[999,499],[999,583],[999,666],[999,749],[999,833],[999,916],[999,1000],[69.5,1083],[70.4,1166],[78.1,1250],[87.6,1333],[93.8,1416],[96.9,1500],[100,1583],[100,1666],[100,1749],[100,1833],[100,1916],[100,1999],[100,2083],[100,2166],[100,2249],[100,2333],[100,2416],[100,2499],[100,2583],[100,2666],[100,2749],[100,2833],[100,2916],[100,2999],[100,3083],[100,3166],[100,3250],[100,3333],[100,3416],[100,3499],[100,3583],[100,3666],[100,3750],[100,3833],[100,3916],[100,4000],[100,4083],[100,4166],[100,4250],[100,4333],[100,4416],[100,4500],[100,4583],[100,4666],[100,4749],[100,4833],[100,4916],[100,5000],[100,5083],[100,5166],[100,5250],[100,5333],[100,5416],[100,5500],[100,5583],[100,5666],[100,5750],[100,5833],[100,5916],[100,6000],[100,6083],[100,6166],[100,6250],[100,6333],[100,6416],[100,6500],[100,6583],[100,6666],[100,6750],[100,6833],[100,6916],[100,7000],[100,7083],[100,7167],[100,7250],[100,7333],[100,7417],[100,7500],[100,7584],[100,7667],[100,7750],[100,7834],[100,7917],[100,8000],[100,8083],[100,8167],[100,8250],[100,8333],[100,8416],[100,8500],[100,8583]]",1,0,398.6175,401.301,100,1.8927,"[{""rating"":100,""responseTime"":1.8927000000476824}]",space,2.1432,,401.3011,Not at all,0,401.3041,,,[],,0,9,9,9,1,audio/Narrative7Situation9.wav,audio/Narrative8Situation9.wav,audio/Narrative5Situation9.wav,audio/Narrative6Situation9.wav,2,3,3,4,,,,,,,,,,,,,,,,,,,,,,,,,,,,,,,,,,,,,,,
,,,,,,5f4c722074dfe876eaa57716,2024-05-13_09h52.39.604,group3.1-3.2-social-tom,2023.2.2,Win32,59.52380952,65c5074098b851296ff0b7ed,6642373933dcfd98075410f2,,,,,,,,,,,,,,,,,,,,,,,,,,,,,401.3043,1,audio/Narrative8Situation1.wav,406.3179,,406.3179,422.2361,"[[999,6],[999,83],[999,166],[999,250],[999,333],[999,417],[999,500],[999,583],[999,666],[999,750],[999,833],[999,916],[999,1000],[999,1083],[999,1166],[999,1251],[999,1334],[71.5,1417],[73,1500],[69.5,1584],[61.1,1667],[54.8,1750],[52.6,1833],[52.6,1916],[52.6,2000],[52.5,2083],[51.5,2166],[50.3,2250],[50.4,2333],[50.6,2416],[50.6,2500],[50.6,2583],[50.6,2666],[50.6,2750],[50.6,2833],[49.9,2916],[49.7,3000],[49.7,3083],[49.7,3166],[49.7,3250],[49.7,3334],[49.7,3417],[49.7,3500],[49.7,3583],[49.7,3667],[49.7,3750],[49.7,3833],[49.7,3917],[49.7,4000],[49.7,4083],[49.7,4167],[49.7,4250],[51.3,4334],[54.1,4417],[55.6,4500],[56,4583],[58.2,4667],[59.5,4750],[60.8,4833],[66.5,5500],[65.1,5584],[64.3,5666],[64.2,5750],[64.2,5833],[64.2,5916],[64.2,6000],[64.2,6083],[64.2,6166],[64.2,6250],[64.2,6333],[64.2,6416],[64.2,6500],[64.2,6583],[64.2,6666],[64.2,6750],[64.2,6833],[64.2,6917],[64.8,7000],[65.1,7083],[65.1,7167],[65.7,7250],[68.4,7334],[69.9,7417],[71.2,7500],[72.4,7584],[72.8,7667],[73.6,7750],[73.7,7833],[74.3,7917],[74.7,8000],[75.3,8083],[75.3,8167],[75.3,8250],[75.3,8334],[75.3,8417],[75.3,8500],[75.3,8584],[75.3,8667],[75.3,8750],[75.3,8834],[75.3,8917],[75.3,9000],[75.3,9083],[75.3,9167],[75.3,9250],[75.3,9334],[75.3,9417],[75.3,9500],[84.7,9584],[86,9667],[86,9750],[86,9834],[88.4,9917],[89.2,10000],[90.1,10084],[92.8,10167],[94.5,10250],[94.5,10334],[95.4,10418],[96.4,10501],[96.4,10584],[97,10668],[98.2,10750],[99.6,10833],[99.8,10917],[99.9,11000],[99.9,11084],[99.9,11167],[99.9,11251],[99.9,11334],[99.9,11417],[99.9,11501],[100,11584],[100,11667],[100,11751],[100,11834],[100,11917],[100,12001],[100,12084],[100,12168],[100,12251],[100,12334],[100,12417],[100,12501],[100,12584],[100,12667],[100,12751],[100,12834],[100,12917],[100,13000],[100,13084],[100,13167],[100,13251],[100,13334],[100,13417],[100,13501],[100,13584],[100,13667],[100,13751],[100,13834],[100,13917],[100,14000],[100,14084],[100,14167],[100,14250],[100,14334],[100,14417],[100,14501],[100,14585],[100,14667],[100,14751],[100,14834],[100,14918],[100,15001],[100,15084],[100,15167],[100,15251],[100,15334],[100,15417],[100,15501],[100,15584],[100,15668],[100,15751],[100,15834],[100,15918]]",1,0,422.2362,424.4025,100,1.564,"[{""rating"":100,""responseTime"":1.5639999999999645}]",space,1.627,,424.4026,Not at all,0,424.4039,,,[],,0,10,10,10,1,audio/Narrative8Situation1.wav,audio/Narrative7Situation1.wav,audio/Narrative6Situation1.wav,audio/Narrative5Situation1.wav,5,2,2,5,,,,,,,,,,,,,,,,,,,,,,,,,,,,,,,,,,,,,,,
,,,,,,5f4c722074dfe876eaa57716,2024-05-13_09h52.39.604,group3.1-3.2-social-tom,2023.2.2,Win32,59.52380952,65c5074098b851296ff0b7ed,6642373933dcfd98075410f2,,,,,,,,,,,,,,,,,,,,,,,,,,,,,424.4041,1,audio/Narrative8Situation2.wav,427.4196,,427.4196,437.5535,"[[999,0],[999,83],[999,166],[999,249],[999,333],[999,416],[999,500],[53.2,583],[53.1,666],[51.8,750],[50.9,833],[50.9,916],[50.9,999],[50.9,1083],[50.9,1166],[50.9,1249],[50.9,1333],[50.9,1416],[50.9,1499],[50.9,1583],[50.9,1666],[50.9,1750],[50.9,1833],[50.9,1916],[50.9,1999],[50.9,2083],[50.9,2166],[50.9,2249],[50.9,2333],[50.9,2416],[50.9,2500],[50.9,2583],[50.9,2666],[50.9,2750],[50.9,2833],[50.9,2916],[50.9,3000],[50.9,3083],[50.9,3166],[50.9,3250],[50.9,3333],[50.9,3416],[50.9,3500],[50.9,3583],[50.9,3666],[50.9,3750],[50.9,3833],[50.9,3917],[50.9,4000],[50.9,4083],[50.9,4166],[50.9,4250],[50.9,4333],[50.9,4417],[50.9,4500],[50.7,4583],[50.7,4667],[50.7,4750],[50.7,4833],[50.7,4917],[50.6,5001],[47.8,5084],[44.1,5167],[41.9,5250],[40.6,5333],[39.9,5416],[39.6,5500],[38.7,5583],[38.4,5666],[37.8,5750],[37.7,5833],[37.7,5916],[37.6,6002],[35.7,6083],[35.7,6167],[35.7,6250],[35.7,6334],[35.7,6416],[35.7,6500],[35.7,6583],[35.7,6666],[35.7,6750],[35.7,6833],[35.7,6916],[35.7,7000],[35.7,7083],[35.7,7167],[35.7,7250],[35.7,7333],[35.4,7416],[35.4,7500],[35.4,7583],[35.4,7666],[35.4,7750],[35.2,7833],[34,7917],[33.6,8000],[23.9,9250],[22.9,9333],[22,9417],[20.4,9500],[16.2,9583],[14.6,9667],[13.8,9750],[13.1,9833],[12.4,9916],[12.4,10000],[12.4,10083]]",1,0,437.5535,439.6701,19.54612006,1.6587,"[{""rating"":19.54612005856515,""responseTime"":1.6586999999880732}]",space,1.566,,439.6702,Partially,50,439.6731,,,[],,0,11,11,11,1,audio/Narrative8Situation2.wav,audio/Narrative7Situation2.wav,audio/Narrative6Situation2.wav,audio/Narrative5Situation2.wav,3,3,3,3,,,,,,,,,,,,,,,,,,,,,,,,,,,,,,,,,,,,,,,
,,,,,,5f4c722074dfe876eaa57716,2024-05-13_09h52.39.604,group3.1-3.2-social-tom,2023.2.2,Win32,59.52380952,65c5074098b851296ff0b7ed,6642373933dcfd98075410f2,,,,,,,,,,,,,,,,,,,,,,,,,,,,,439.6732,1,audio/Narrative8Situation3.wav,443.6873,,443.6873,466.0557,"[[999,7],[999,83],[999,166],[999,249],[999,333],[999,416],[999,499],[999,583],[999,666],[999,750],[43.9,833],[41.7,916],[39.2,1000],[39,1083],[36.5,1166],[24.1,1249],[14.7,1333],[11.5,1416],[10.3,1500],[10.2,1583],[10.2,1666],[10.2,1749],[10.2,1833],[10.2,1916],[10.2,1999],[10,2083],[9.9,2166],[9.9,2249],[9.9,2333],[9.9,2416],[9.9,2499],[9.9,2583],[9.9,2666],[9.9,2749],[9.9,2833],[9.9,2916],[9.9,2999],[9.9,3083],[9.9,3166],[9.9,3249],[9.9,3333],[9.9,3416],[9.9,3499],[9.9,3583],[9.9,3666],[14.1,3750],[25,3833],[32.9,3917],[38,4000],[39.5,4083],[45,4166],[46.2,4250],[46.6,4333],[48.1,4416],[48.4,4500],[48.4,4583],[48.4,4666],[48.8,4750],[49.1,4833],[49.1,4916],[50.1,5000],[51.2,5083],[51.2,5166],[51.2,5250],[51.2,5333],[51.2,5416],[51.2,5500],[51.2,5584],[50.9,5667],[50,5751],[49.6,5834],[49.6,5916],[49.6,6000],[49.6,6084],[49.6,6167],[49.9,6250],[49.9,6333],[49.9,6416],[49.9,6500],[49.9,6584],[49.9,6667],[49.9,6750],[49.9,6833],[49.9,6917],[49.9,7000],[49.9,7084],[49.9,7166],[49.9,7250],[49.9,7333],[49.9,7416],[49.9,7500],[49.9,7584],[49.9,7667],[49.9,7750],[49.9,7834],[49.9,7917],[49.9,8000],[49.9,8083],[49.9,8167],[49.9,8250],[49.9,8333],[49.9,8417],[49.9,8500],[49.9,8584],[49.9,8667],[49.9,8750],[49.9,8833],[49.9,8917],[49.9,9000],[49.9,9083],[49.9,9167],[49.9,9250],[49.9,9333],[49.9,9417],[49.9,9500],[49.9,9584],[49.9,9667],[49.9,9750],[49.9,9834],[49.9,9917],[50.4,10001],[51.8,10084],[56,10167],[58.2,10250],[59.2,10334],[61.9,10417],[68.3,10500],[69.9,10584],[70.4,10667],[70.9,10750],[70.9,10833],[70.9,10917],[70.9,11000],[70.9,11083],[71.7,11167],[74.9,11250],[75.8,11334],[76.1,11417],[76.1,11500],[76.1,11584],[76.1,11667],[76.1,11751],[76.1,11834],[76.1,11917],[76.1,12000],[76.1,12083],[76.1,12167],[76.1,12250],[76.1,12334],[76.4,12417],[77.7,12501],[79.4,12584],[95.2,13417],[94.8,13500],[94.7,13583],[94.7,13667],[94.7,13750],[95.7,13834],[96.1,13917],[96.9,14000],[96.9,14084],[96.9,14167],[97.6,14251],[100,14334],[100,14417],[100,14501],[100,14584],[100,14667],[100,14751],[100,14833],[100,14917],[100,15001],[100,15084],[100,15167],[100,15250],[100,15334],[100,15417],[100,15500],[100,15584],[100,15667],[100,15751],[100,15834],[100,15917],[100,16001],[100,16084],[100,16167],[100,16251],[100,16334],[100,16417],[100,16501],[100,16584],[100,16667],[100,16750],[100,16834],[100,16917],[100,17000],[100,17084],[100,17167],[100,17251],[100,17334],[100,17417],[100,17501],[100,17584],[100,17667],[100,17751],[100,17834],[100,17917],[100,18001],[100,18084],[100,18167],[100,18251],[100,18334],[100,18418],[100,18501],[100,18584],[100,18667],[100,18751],[100,18834],[100,18918],[100,19001],[100,19084],[100,19168],[100,19251],[100,19334],[100,19417],[100,19501],[100,19584],[100,19668],[100,19751],[100,19834],[100,19917],[100,20001],[100,20084],[100,20167],[100,20251],[100,20334],[100,20418],[100,20501],[100,20584],[100,20668],[100,20751],[100,20834],[100,20918],[100,21001],[100,21084],[100,21168],[100,21251],[100,21334],[100,21417],[100,21501],[100,21584],[100,21668],[100,21751],[100,21834],[100,21918],[100,22001],[100,22084],[100,22168],[100,22251],[100,22334]]",1,0,466.0559,469.3223,86.89604685,2.0699,"[{""rating"":86.89604685212299,""responseTime"":2.069899999976144}]",space,2.7181,,469.3224,Not at all,0,469.3251,,,[],,0,12,12,12,1,audio/Narrative8Situation3.wav,audio/Narrative7Situation3.wav,audio/Narrative6Situation3.wav,audio/Narrative5Situation3.wav,4,8,5,3,,,,,,,,,,,,,,,,,,,,,,,,,,,,,,,,,,,,,,,
,,,,,,5f4c722074dfe876eaa57716,2024-05-13_09h52.39.604,group3.1-3.2-social-tom,2023.2.2,Win32,59.52380952,65c5074098b851296ff0b7ed,6642373933dcfd98075410f2,,,,,,,,,,,,,,,,,,,,,,,,,,,,,469.3253,1,audio/Narrative8Situation4.wav,472.3398,,472.3399,486.5233,"[[999,7],[999,82],[999,165],[999,249],[999,332],[999,415],[999,499],[999,582],[999,665],[999,749],[999,832],[999,915],[999,999],[63.5,1082],[68.9,1165],[79.3,1249],[92.8,1332],[93.3,1416],[94.1,1499],[94.1,1582],[94.9,1666],[99.2,1749],[99,1832],[95.5,1916],[91.9,1999],[92,2082],[93.5,2165],[99.8,2249],[100,2332],[100,2416],[100,2499],[100,2582],[100,2666],[100,2749],[100,2832],[100,2916],[100,2999],[100,3082],[100,3166],[100,3249],[100,3332],[100,3416],[100,3499],[100,3582],[100,3666],[100,3749],[100,3832],[100,3916],[100,3999],[100,4082],[100,4166],[100,4249],[100,4332],[100,4416],[100,4499],[100,4582],[100,4666],[100,4749],[100,4832],[100,4916],[100,4999],[100,5082],[100,5166],[100,5249],[100,5333],[100,5416],[100,5499],[100,5583],[100,5666],[100,5749],[100,5833],[100,5916],[100,5999],[100,6083],[100,6166],[100,6249],[100,6333],[100,6416],[100,6499],[100,6583],[100,6666],[100,6750],[100,6833],[100,6916],[100,6999],[100,7083],[100,7166],[100,7250],[100,7333],[100,7416],[100,7500],[100,7583],[100,7666],[100,7750],[100,7832],[100,7916],[100,8000],[100,8083],[100,8166],[100,8249],[100,8333],[100,8416],[100,8500],[100,8583],[100,8666],[100,8750],[100,8833],[100,8916],[100,9000],[100,9083],[100,9166],[100,9250],[100,9333],[100,9416],[100,9500],[100,9583],[100,9666],[100,9750],[100,9833],[100,9916],[100,10000],[100,10083],[100,10166],[100,10250],[100,10333],[100,10416],[100,10499],[100,10583],[100,10666],[100,10750],[100,10833],[100,10916],[100,11000],[100,11083],[100,11166],[100,11250],[100,11333],[100,11416],[100,11500],[100,11583],[100,11666],[100,11750],[100,11833],[100,11916],[100,12000],[100,12083],[100,12166],[100,12250],[100,12333],[100,12416],[100,12500],[100,12583],[100,12666],[100,12750],[100,12833],[100,12916],[100,12999],[100,13083],[100,13166],[100,13250],[100,13333],[100,13416],[100,13500],[100,13583],[100,13666],[100,13750],[100,13833],[100,13916],[100,14000],[100,14083],[100,14166]]",1,0,486.5235,488.957,100,1.9852,"[{""rating"":100,""responseTime"":1.985200000047655}]",space,1.9106,,488.957,Definitely yes,100,488.9602,,,[],,0,13,13,13,1,audio/Narrative8Situation4.wav,audio/Narrative7Situation4.wav,audio/Narrative6Situation4.wav,audio/Narrative5Situation4.wav,3,3,2,1,,,,,,,,,,,,,,,,,,,,,,,,,,,,,,,,,,,,,,,
,,,,,,5f4c722074dfe876eaa57716,2024-05-13_09h52.39.604,group3.1-3.2-social-tom,2023.2.2,Win32,59.52380952,65c5074098b851296ff0b7ed,6642373933dcfd98075410f2,,,,,,,,,,,,,,,,,,,,,,,,,,,,,488.9604,1,audio/Narrative8Situation5.wav,490.9738,,490.9738,499.2078,"[[999,0],[999,83],[999,166],[999,250],[999,333],[999,417],[999,499],[999,583],[999,666],[999,750],[999,833],[999,916],[80.6,1000],[80.2,1083],[79.9,1166],[79.9,1249],[79.9,1333],[79.9,1416],[79.9,1499],[79.9,1583],[79.9,1666],[79.9,1750],[79.9,1833],[79.9,1916],[83.8,2000],[95.4,2083],[100,2167],[100,2250],[100,2333],[100,2416],[100,2500],[100,2583],[100,2666],[100,2750],[100,2833],[100,2916],[100,3000],[100,3083],[100,3167],[100,3250],[100,3333],[100,3417],[100,3500],[100,3583],[100,3666],[100,3750],[100,3833],[100,3917],[100,4000],[100,4083],[100,4167],[100,4250],[100,4333],[100,4416],[100,4500],[100,4583],[100,4666],[100,4750],[100,4833],[100,4916],[100,5000],[100,5083],[100,5166],[100,5250],[100,5333],[100,5416],[100,5500],[100,5583],[100,5667],[100,5750],[100,5833],[100,5917],[100,6000],[100,6083],[100,6167],[100,6250],[100,6333],[100,6417],[100,6500],[100,6583],[100,6667],[100,6750],[100,6833],[100,6916],[100,7000],[100,7083],[100,7167],[100,7250],[100,7334],[100,7417],[100,7500],[100,7583],[100,7667],[100,7750],[100,7833],[100,7917],[100,8000],[100,8083],[100,8167]]",1,0,499.208,500.9743,100,1.3178,"[{""rating"":100,""responseTime"":1.317800000011914}]",space,1.2172,,500.9743,Definitely yes,100,500.976,,,[],,0,14,14,14,1,audio/Narrative8Situation5.wav,audio/Narrative7Situation5.wav,audio/Narrative6Situation5.wav,audio/Narrative5Situation5.wav,2,5,2,5,,,,,,,,,,,,,,,,,,,,,,,,,,,,,,,,,,,,,,,
,,,,,,5f4c722074dfe876eaa57716,2024-05-13_09h52.39.604,group3.1-3.2-social-tom,2023.2.2,Win32,59.52380952,65c5074098b851296ff0b7ed,6642373933dcfd98075410f2,,,,,,,,,,,,,,,,,,,,,,,,,,,,,500.9764,1,audio/Narrative8Situation6.wav,502.9913,,502.9914,509.4587,"[[999,0],[999,83],[999,166],[999,249],[999,333],[999,416],[91,500],[91.3,583],[91.3,666],[91.3,749],[91,833],[90.7,916],[90.7,999],[90.7,1083],[90.7,1166],[90.7,1249],[90.7,1333],[90.7,1416],[100,1500],[100,1583],[100,1666],[100,1749],[100,1833],[100,1916],[100,1999],[100,2083],[100,2166],[100,2249],[100,2333],[100,2416],[100,2499],[100,2583],[100,3503],[100,3587],[100,3670],[100,3753],[100,3833],[100,3919],[100,3999],[100,4083],[100,4168],[100,4253],[100,4336],[100,4416],[100,4502],[100,4583],[100,4670],[100,4750],[100,4833],[100,4916],[100,5003],[100,5087],[100,5170],[100,5249],[100,5335],[100,5420],[100,5503],[100,5587],[100,5666],[100,5753],[100,5836],[100,5916],[100,6003],[100,6083],[100,6167],[100,6250],[100,6337],[100,6420]]",1,0,509.4588,511.0296,100,1.5629,"[{""rating"":100,""responseTime"":1.5629000000358246}]",space,0.3465,,511.0296,Partially,50,511.0317,,,[],,0,15,15,15,1,audio/Narrative8Situation6.wav,audio/Narrative7Situation6.wav,audio/Narrative6Situation6.wav,audio/Narrative5Situation6.wav,2,3,2,3,,,,,,,,,,,,,,,,,,,,,,,,,,,,,,,,,,,,,,,
,,,,,,5f4c722074dfe876eaa57716,2024-05-13_09h52.39.604,group3.1-3.2-social-tom,2023.2.2,Win32,59.52380952,65c5074098b851296ff0b7ed,6642373933dcfd98075410f2,,,,,,,,,,,,,,,,,,,,,,,,,,,,,511.0319,1,audio/Narrative8Situation7.wav,514.0418,,514.042,526.1467,"[[999,0],[999,83],[999,170],[999,253],[999,333],[999,416],[999,500],[999,583],[999,666],[999,750],[999,833],[999,917],[999,1003],[999,1087],[80.9,1170],[81.6,1254],[81.8,1333],[81.8,1420],[81.8,1500],[81.8,1583],[81.8,1670],[86.7,1754],[96.7,1837],[99.3,1920],[100,2004],[100,2083],[100,2168],[100,2250],[100,2337],[100,2416],[100,2500],[100,2585],[100,2670],[100,2753],[100,2833],[100,2921],[100,3004],[100,3083],[100,3167],[100,3253],[100,3337],[100,3420],[100,3503],[100,3587],[100,3670],[100,3753],[100,3833],[100,3920],[100,4004],[100,4083],[100,4170],[100,4250],[100,4335],[100,4420],[100,4500],[100,4587],[100,4667],[100,4750],[100,4837],[100,4920],[100,5000],[100,5085],[100,5166],[100,5250],[100,5333],[100,5417],[100,5500],[100,5587],[100,5667],[100,5754],[92.9,5837],[87.3,5921],[85.6,6004],[77.7,6087],[70.2,6171],[67.9,6254],[64.2,6338],[60,6420],[57.2,6504],[54.4,6587],[53.7,6670],[51.8,7254],[52.3,7337],[52.3,7420],[52.3,7503],[52.3,7587],[52.3,7666],[51.5,7754],[51.3,7837],[51.3,7919],[51.3,8003],[51.3,8087],[51.3,8170],[51.3,8254],[51.3,8334],[51.3,8417],[51.3,8503],[51.3,8587],[51.3,8667],[51.3,8754],[51.3,8833],[51.3,8920],[51.3,9004],[51.3,9087],[51.3,9167],[51.3,9250],[51.3,9333],[51.3,9417],[51.3,9500],[51.3,9583],[51.3,9667],[51.3,9750],[51.3,9833],[51.3,9920],[51.3,10004],[51.3,10087],[51.3,10167],[51.3,10250],[51.3,10337],[51.3,10417],[51.3,10500],[51.3,10587],[51.3,10667],[51.3,10754],[51.3,10837],[51.3,10917],[51.3,11000],[51.3,11084],[51.3,11167],[51.3,11252],[51.3,11334],[50,11421],[40.3,11504],[33.2,11588],[32.6,11667],[32.6,11754],[33,11837],[39.8,11921],[45,12005],[47.4,12088]]",1,0,526.1467,528.0135,48.97510981,0.9735,"[{""rating"":48.97510980966325,""responseTime"":0.9734999999999445}]",space,1.3317,,528.0136,Partially,50,528.0146,,,[],,0,16,16,16,1,audio/Narrative8Situation7.wav,audio/Narrative7Situation7.wav,audio/Narrative6Situation7.wav,audio/Narrative5Situation7.wav,3,5,5,4,,,,,,,,,,,,,,,,,,,,,,,,,,,,,,,,,,,,,,,
,,,,,,5f4c722074dfe876eaa57716,2024-05-13_09h52.39.604,group3.1-3.2-social-tom,2023.2.2,Win32,59.52380952,65c5074098b851296ff0b7ed,6642373933dcfd98075410f2,,,,,,,,,,,,,,,,,,,,,,,,,,,,,528.0147,1,audio/Narrative8Situation8.wav,531.0263,,531.0264,543.8808,"[[999,6],[999,86],[999,166],[999,253],[999,333],[999,420],[999,503],[999,586],[999,670],[999,753],[999,836],[49.1,920],[51.6,1003],[54.5,1087],[54.5,1166],[54.5,1249],[54.5,1336],[54.5,1420],[52.8,1504],[52.6,1586],[52.6,1669],[52.6,1753],[52.6,1836],[52.6,1916],[52.6,2003],[52.6,2083],[52.6,2167],[52.6,2249],[52.5,2333],[52.3,2420],[52.2,2500],[52.2,2583],[52.2,2670],[52.2,2750],[52.2,2837],[52.2,2920],[52.2,3000],[52.2,3087],[52.2,3167],[52.2,3254],[52.2,3333],[52.2,3420],[52.2,3503],[52.2,3583],[52.2,3670],[52.2,3750],[52.2,3836],[52.2,3917],[48.1,4004],[46.2,4087],[45.9,4167],[45.9,4254],[45.9,4333],[45.9,4420],[45.9,4503],[45.9,4586],[45.9,4670],[45.9,4750],[45.9,4833],[45.9,4920],[45.9,5000],[45.9,5083],[45.9,5170],[45.9,5250],[45.9,5333],[45.9,5418],[45.9,5502],[45.9,5587],[45.9,5667],[45.9,5750],[46.2,5837],[49.4,5921],[53.7,6004],[58.6,6088],[63.5,6171],[72,6255],[85.3,6337],[90.1,6420],[93.8,6504],[93.9,6587],[93.9,6667],[93.9,6750],[93.9,6837],[93.9,6916],[93.9,7000],[93.9,7083],[93.9,7170],[93.9,7254],[93.9,7337],[93.9,7420],[93.9,7500],[93.9,7587],[93.9,7670],[93.9,7750],[93.9,7833],[93.9,7917],[93.9,8003],[93.9,8083],[93.9,8167],[93.9,8250],[93.9,8333],[93.9,8420],[93.9,8504],[93.9,8583],[93.9,8667],[93.9,8750],[93.9,8833],[93.9,8920],[93.9,9000],[94.1,9087],[94.1,9170],[94.5,9254],[100,9337],[100,9421],[100,9500],[100,9583],[100,9670],[100,9753],[100,9837],[100,9920],[100,10003],[100,10087],[100,10170],[100,10254],[100,10337],[100,10420],[100,10500],[100,10587],[100,10667],[100,10750],[100,10834],[100,10920],[100,11004],[100,11083],[100,11167],[100,11254],[100,11333],[100,11417],[100,11500],[100,11583],[100,11667],[100,11750],[100,11837],[100,11917],[100,12002],[100,12087],[100,12170],[100,12250],[100,12335],[100,12420],[100,12500],[100,12587],[100,12667],[100,12754],[100,12837]]",1,0,543.8809,545.7478,99.78038067,1.41,"[{""rating"":99.78038067349927,""responseTime"":1.4099999999999682}]",space,1.3335,,545.7478,Definitely yes,100,545.7501,,,[],,0,17,17,17,1,audio/Narrative8Situation8.wav,audio/Narrative7Situation8.wav,audio/Narrative6Situation8.wav,audio/Narrative5Situation8.wav,3,2,5,3,,,,,,,,,,,,,,,,,,,,,,,,,,,,,,,,,,,,,,,
,,,,,,5f4c722074dfe876eaa57716,2024-05-13_09h52.39.604,group3.1-3.2-social-tom,2023.2.2,Win32,59.52380952,65c5074098b851296ff0b7ed,6642373933dcfd98075410f2,,,,,,,,,,,,,,,,,,,,,,,,,,,,,545.7502,1,audio/Narrative8Situation9.wav,548.7608,,548.7609,560.0652,"[[98.6,1003],[65.8,1087],[55,1170],[53.5,1253],[53.5,1337],[53.5,1420],[53.5,1503],[53.5,1583],[53.5,1670],[58.8,1754],[71.5,1837],[87.5,1921],[91.3,2000],[92.3,2087],[96.6,2170],[100,2253],[100,2333],[100,2420],[100,2500],[100,2586],[100,2666],[100,2750],[100,2833],[100,2916],[100,3000],[100,3083],[100,3170],[100,3253],[100,3337],[100,3420],[100,3503],[100,3587],[100,3666],[100,3750],[100,3833],[100,3916],[100,4003],[100,4083],[100,4166],[100,4250],[100,4333],[100,4420],[100,4502],[100,4583],[100,4670],[100,4754],[100,4837],[100,4920],[100,5003],[100,5087],[100,5170],[100,5250],[100,5337],[100,5417],[100,5504],[100,5587],[100,5670],[100,5750],[100,5833],[100,5917],[100,6003],[100,6083],[100,6170],[100,6250],[100,6335],[100,6417],[100,6503],[100,6583],[100,6670],[100,6750],[100,6837],[100,6917],[100,7004],[100,7083],[100,7170],[100,7254],[100,7337],[100,7420],[100,7500],[100,7583],[100,7670],[100,7750],[100,7833],[100,7920],[100,8000],[100,8087],[100,8170],[100,8250],[100,8334],[100,8417],[100,8504],[100,8587],[100,8671],[100,8754],[100,8835],[100,8921],[100,9000],[100,9084],[100,9167],[100,9254],[100,9337],[100,9417],[100,9504],[100,9587],[100,9669],[100,9754],[100,9833],[100,9917],[100,10004],[100,10087],[100,10170],[100,10254],[100,10334],[100,10420],[100,10500],[100,10583],[100,10667],[100,10752],[100,10837],[100,10920],[100,11004],[100,11083],[100,11167],[100,11250]]",1,0,560.0653,562.3658,99.4875549,1.6265,"[{""rating"":99.48755490483163,""responseTime"":1.6264999999999645}]",space,1.7643,,562.3658,Not at all,0,562.3678,,,[],,0,18,18,18,1,audio/Narrative8Situation9.wav,audio/Narrative7Situation9.wav,audio/Narrative6Situation9.wav,audio/Narrative5Situation9.wav,3,2,4,3,,,,,,,,,,,,,,,,,,,,,,,,,,,,,,,,,,,,,,,
,,,,,,5f4c722074dfe876eaa57716,2024-05-13_09h52.39.604,group3.1-3.2-social-tom,2023.2.2,Win32,59.52380952,65c5074098b851296ff0b7ed,6642373933dcfd98075410f2,,,,,,,,,,,,,,,,,,,,,,,,,,,565.1409,567.7122,567.7213,2,audio/Narrative13Situation2.wav,567.7214,,567.7215,597.4665,"[[99,578],[95.1,661],[93,744],[92.2,828],[90.8,911],[88.1,994],[86.2,1077],[85.7,1161],[75.8,1244],[68.4,1327],[61.6,1411],[60.2,1494],[58.8,1578],[57.8,1661],[57.8,1744],[65.5,1827],[66.5,1911],[72.4,1995],[76.4,2077],[80.6,2161],[81.9,2240],[81.9,2324],[81.8,2411],[80.3,2494],[67.7,2578],[57.2,2661],[56.4,2744],[54.4,2828],[51.5,2911],[51.3,2990],[51.3,3077],[51.3,3161],[51.3,3240],[51.3,3327],[51.3,3407],[51.3,3494],[51.3,3578],[51.3,3660],[51.3,3744],[51.3,3824],[51.3,3907],[51.3,3990],[51.3,4077],[51.3,4161],[51.3,4241],[51.3,4327],[51.3,4408],[51.3,4491],[51.3,4574],[51.3,4657],[51.3,4744],[51.3,4828],[51.3,4907],[51.3,4994],[51.3,5074],[51.3,5161],[51.3,5244],[51.3,5324],[51.3,5411],[51.3,5494],[51.3,5577],[51.3,5661],[51.3,5741],[51.3,5824],[51.3,5911],[51.3,5994],[51.3,6074],[51.3,6161],[51.3,6241],[51.3,6324],[51.3,6411],[51.3,6494],[51.3,6574],[51.3,6662],[51.3,6745],[51.3,6824],[51.3,6908],[51.3,6994],[51.3,7074],[51.3,7158],[51.3,7245],[51.3,7328],[51.3,7408],[51.3,7491],[51.3,7574],[51.3,7661],[51.3,7744],[51.3,7828],[51.3,7908],[51.3,7991],[51.3,8078],[51.3,8161],[51.3,8241],[51.3,8324],[51.3,8411],[51.3,8493],[51.3,8574],[56.3,8662],[100,9578],[100,9661],[100,9745],[100,9824],[100,9911],[100,9991],[100,10074],[100,10162],[100,10241],[100,10328],[100,10411],[100,10495],[100,10578],[100,10661],[100,10744],[100,10824],[100,10907],[100,10994],[100,11074],[100,11161],[100,11244],[100,11328],[100,11408],[100,11494],[100,11578],[100,11658],[100,11744],[100,11828],[100,11908],[100,11991],[100,12074],[100,12158],[100,12244],[100,12324],[100,12411],[100,12491],[100,12574],[100,12661],[100,12745],[100,12824],[100,12908],[100,12991],[100,13077],[100,13157],[100,13244],[100,13328],[100,13411],[100,13495],[100,13578],[100,13658],[100,13741],[100,13824],[100,13911],[100,13995],[100,14074],[100,14161],[100,14245],[100,14328],[100,14408],[100,14491],[100,14578],[100,14660],[100,14745],[100,14828],[100,14912],[100,14995],[100,15074],[100,15160],[100,15245],[100,15328],[100,15408],[100,15491],[100,15578],[100,15662],[100,15741],[100,15824],[100,15908],[100,15995],[100,16075],[100,16162],[100,16245],[100,16325],[100,16411],[100,16495],[100,16575],[100,16662],[100,16746],[100,16825],[100,16912],[100,16991],[100,17075],[100,17162],[100,17245],[100,17329],[100,17408],[100,17492],[100,17579],[100,17660],[100,17745],[100,17825],[100,17908],[100,17995],[100,18079],[100,18159],[100,18245],[100,18325],[100,18408],[100,18495],[100,18578],[100,18662],[100,18745],[100,18827],[100,18908],[100,18995],[100,19079],[100,19158],[100,19245],[100,19328],[100,19411],[100,19495],[100,19575],[100,19662],[100,19745],[100,19829],[100,19908],[100,19995],[100,20075],[100,20162],[100,20245],[100,20325],[100,20408],[100,20495],[100,20578],[100,20658],[100,20742],[100,20825],[100,20912],[100,20995],[100,21078],[100,21162],[100,21245],[100,21329],[100,21408],[100,21495],[100,21575],[100,21658],[100,21745],[100,21825],[100,21908],[100,21995],[100,22075],[100,22159],[100,22245],[100,22325],[100,22412],[100,22492],[100,22575],[100,22662],[100,22745],[100,22825],[100,22908],[100,22995],[100,23078],[100,23162],[100,23245],[100,23328],[100,23412],[100,23495],[100,23578],[100,23662],[100,23745],[100,23828],[100,23912],[100,23992],[100,24075],[100,24162],[100,24245],[100,24325],[100,24412],[100,24494],[100,24579],[100,24662],[100,24745],[100,24829],[100,24912],[100,24995],[100,25079],[100,25158],[100,25242],[100,25329],[100,25412],[100,25495],[100,25578],[100,25658],[100,25742],[100,25827],[100,25910],[100,25992],[100,26075],[100,26161],[100,26242],[100,26327],[100,26411],[100,26494],[100,26577],[100,26659],[100,26744],[100,26827],[100,26911],[100,26992],[100,27078],[100,27161],[100,27242],[100,27327],[100,27410],[100,27494],[100,27578],[100,27661],[100,27744],[100,27828],[100,27911],[100,27995],[100,28077],[100,28161],[100,28245],[100,28326],[100,28411],[100,28495],[100,28578],[100,28661],[100,28746],[100,28828],[100,28911],[100,28994],[100,29077],[100,29161],[100,29245],[100,29328],[100,29410],[100,29494],[100,29578],[100,29662],[100,29744]]",1,0,597.4666,597.4776,,,[],,,,597.4777,Not at all,0,597.479,,,[],,0,0,0,0,1,audio/Narrative13Situation2.wav,audio/Narrative13Situation2.wav,audio/Narrative13Situation2.wav,audio/Narrative13Situation2.wav,2,2,2,2,,,,,562.3683,565.1338,space,2.2496,,,,,,,,,,,,,,,,,,,,,,,,,,,,,,,
,,,,,,5f4c722074dfe876eaa57716,2024-05-13_09h52.39.604,group3.1-3.2-social-tom,2023.2.2,Win32,59.52380952,65c5074098b851296ff0b7ed,6642373933dcfd98075410f2,,,,,,,,,,,,,,,,,,,,,,,,,,,,,597.4793,2,audio/Narrative5Situation1.wav,600.2676,space,600.2677,613.568,"[[97.4,333],[97.3,415],[96.7,1166],[97.7,1249],[99,1333],[99.3,1416],[99.3,1498],[99.3,1582],[99.3,1666],[99.5,1749],[100,1832],[100,1915],[100,1998],[100,2081],[100,2163],[100,2249],[94.2,2332],[82.4,2416],[76.2,2499],[71.2,2583],[61,2666],[60,2749],[56.4,2833],[52.8,2916],[50.9,3000],[50.4,3082],[50.4,3165],[50.3,3249],[50.3,3329],[50.3,3413],[50.4,3499],[50.4,3582],[50.4,3663],[50.4,3748],[50.4,3833],[50.4,3915],[50.4,3998],[50.4,4082],[50.4,4165],[50.4,4248],[50.4,4332],[50.4,4415],[50.4,4499],[50.4,4582],[50.4,4665],[50.4,4749],[50.4,4832],[50.4,4915],[50.4,4996],[50.4,5082],[50.4,5165],[50.4,5246],[50.4,5332],[50.4,5413],[50.4,5499],[50.4,5582],[50.4,5663],[50.4,5746],[50.4,5830],[50.4,5913],[50.9,5999],[50.9,6080],[50.9,6163],[50.9,6246],[50.9,6333],[50.9,6416],[50.9,6499],[50.9,6582],[50.9,6666],[50.6,6749],[44,6833],[37,6916],[35.7,6997],[34.3,7083],[31.4,7166],[27.7,7250],[24.7,7333],[20.9,7417],[18.7,7500],[17.2,7582],[17.2,7663],[17.2,7749],[17.2,7830],[17.1,7914],[16.5,7999],[16.5,8080],[16.3,8164],[16.3,8249],[16.3,8333],[16.3,8413],[16.3,8497],[16.3,8582],[16.3,8666],[16.3,8749],[16.3,8832],[16.3,8913],[16.3,8999],[16.3,9083],[16.3,9166],[16.3,9249],[16.3,9333],[16.3,9416],[16.3,9497],[16.3,9583],[17.5,9666],[22.6,9750],[27.9,9833],[32,9916],[37.1,10000],[38.9,10084],[43.1,10167],[45,10250],[47.1,10334],[50.7,10416],[55.7,10500],[63,10583],[68.6,10667],[72.8,10750],[75.6,10833],[78.8,10917],[83.1,11000],[87.3,11084],[88.7,11166],[88.9,11250],[89.5,11333],[89.8,11416],[90,11500],[90.1,11583],[90.1,11666],[90.1,11747],[90.1,11833],[90.1,11916],[90.1,11997],[90.1,12083],[90.1,12167],[90.1,12250],[90.1,12330],[90.1,12416],[90.1,12497],[90.1,12583],[90.1,12666],[90.1,12747],[90.1,12833],[90.1,12916],[90.1,12999],[90.1,13083],[90.1,13164],[90.1,13250]]",1,0,613.568,617.5354,84.84626647,2.8334,"[{""rating"":84.84626647144948,""responseTime"":2.833399999976109}]",space,3.4315,,617.5355,Definitely yes,100,617.5376,,,[],,0,1,1,1,1,audio/Narrative7Situation1.wav,audio/Narrative8Situation1.wav,audio/Narrative5Situation1.wav,audio/Narrative6Situation1.wav,2,5,5,2,2.7789,,,,,,,,,,,,,,,,,,,,,,,,,,,,,,,,,,,,,,
,,,,,,5f4c722074dfe876eaa57716,2024-05-13_09h52.39.604,group3.1-3.2-social-tom,2023.2.2,Win32,59.52380952,65c5074098b851296ff0b7ed,6642373933dcfd98075410f2,,,,,,,,,,,,,,,,,,,,,,,,,,,,,617.5378,2,audio/Narrative5Situation2.wav,620.5524,,620.5525,650.0047,"[[999,6],[999,83],[999,163],[999,250],[999,333],[999,416],[999,500],[999,583],[999,666],[999,750],[54.5,833],[51.6,917],[50.3,996],[50.3,1083],[50,1166],[50,1246],[50,1333],[50,1417],[50,1496],[50.4,1584],[50.4,1663],[50.4,1748],[50.4,1830],[50.4,1917],[50.4,1996],[50.4,2083],[50.4,2166],[50.4,2250],[50.4,2333],[50.4,2413],[50.4,2500],[50.4,2580],[50.4,2663],[50.4,2750],[50.4,2833],[50.4,2913],[50.4,3000],[50.4,3080],[50.4,3167],[50.4,3250],[50.4,3334],[50.4,3413],[51.5,3500],[52.5,3584],[53.8,3667],[55.3,3750],[56.6,3836],[58.3,3917],[60,4000],[61,4084],[61.9,4167],[62.2,4250],[62.2,4330],[62.2,4413],[62.2,4496],[62.2,4580],[62.2,4663],[62.2,4746],[62.2,4833],[62.2,4913],[60.4,5000],[57.8,5084],[57.5,5163],[56.4,5250],[55,5334],[52.5,5417],[51,5500],[50.1,5584],[50.1,5663],[50,5746],[50,5834],[50,5913],[50,6000],[50,6083],[50,6163],[50,6247],[50,6330],[50,6417],[50,6500],[56.7,6584],[61,6668],[65.1,6751],[65.7,6834],[66.5,6917],[68,7001],[68.9,7084],[69.6,7168],[69.9,7250],[69.9,7334],[69.9,7417],[69.9,7500],[69.9,7580],[69.9,7663],[69.9,7746],[69.9,7830],[69.9,7917],[69.9,8000],[69.9,8084],[69.9,8163],[69.9,8247],[70.6,8334],[72.7,8418],[76.2,8500],[80.3,8584],[81.2,8668],[81.2,8750],[81.3,8834],[81.9,8918],[82.2,8997],[82.7,9084],[82.7,9167],[82.7,9247],[82.7,9334],[82.7,9413],[82.7,9496],[82.7,9580],[82.7,9667],[82.7,9750],[82.7,9830],[82.7,9913],[82.7,10000],[82.7,10080],[82.7,10167],[82.7,10247],[82.7,10330],[82.7,10417],[82.7,10501],[75.5,10584],[68.4,10668],[62.9,10751],[57.9,10834],[55.1,10918],[54.4,10997],[54.4,11080],[54.4,11163],[54.4,11247],[54.4,11334],[54.4,11414],[54.4,11500],[52.3,11585],[50.9,11667],[50.9,11747],[50.9,11832],[50.9,11918],[50.9,12000],[50.9,12080],[50.9,12163],[50.9,12251],[50.9,12330],[50.9,12414],[50.9,12501],[50.9,12584],[50.9,12667],[50.9,12747],[50.9,12832],[50.9,12917],[50.9,13001],[50.9,13084],[50.9,13164],[50.9,13251],[50.9,13330],[50.9,13414],[50.9,13497],[50.9,13584],[50.9,13664],[50.9,13747],[50.9,13834],[50.9,13918],[50.9,13997],[50.9,14084],[50.9,14168],[50.9,14247],[50.9,14334],[50.9,14417],[54.5,14502],[59.2,14584],[63.2,14668],[66.3,14752],[74,14835],[76.2,14918],[79.3,15001],[81.6,15084],[84.4,15168],[85.9,15251],[88.2,15334],[96.4,16002],[96.4,16084],[96.4,16167],[96.4,16247],[96.4,16334],[96.4,16418],[97.3,16501],[97.6,16584],[97.9,16668],[97.9,16747],[97.9,16831],[98.2,16918],[99,17001],[100,17085],[100,17167],[100,17251],[100,17334],[100,17416],[92,17501],[64.6,17585],[53.1,17668],[41.8,17751],[33.2,17835],[26.4,17919],[22.2,18001],[14.7,18085],[13.7,18168],[12.1,18251],[9.9,18335],[8.4,18418],[8.4,18497],[7.8,18584],[7.8,18668],[7.8,18751],[7.8,18835],[7.8,18917],[8.1,19001],[8.1,19081],[8.1,19168],[8.1,19251],[8.1,19334],[8.1,19414],[8.1,19498],[8.1,19584],[8.3,19668],[8.3,19751],[8.6,19831],[10.8,19918],[24.2,20001],[38.4,20084],[51.5,20168],[63.2,20251],[69.8,20335],[76.6,20418],[82.1,20501],[87.9,20585],[90.7,20668],[93.2,20751],[96.9,20835],[98.8,20918],[98.8,21001],[98.8,21084],[98.8,21168],[98.8,21247],[98.8,21334],[98.8,21414],[98.8,21497],[98.8,21584],[98.8,21668],[98.8,21747],[98.8,21834],[98.8,21914],[98.8,22001],[98.8,22084],[98.8,22164],[98.8,22251],[98.8,22331],[98.8,22418],[98.8,22501],[98.8,22581],[99.2,22665],[100,22751],[100,22835],[100,22918],[100,23002],[100,23081],[100,23168],[100,23248],[100,23331],[100,23418],[100,23498],[100,23584],[100,23664],[100,23747],[100,23831],[100,23918],[100,24001],[100,24084],[100,24168],[100,24248],[100,24335],[100,24418],[100,24501],[100,24585],[100,24668],[100,24752],[100,24831],[100,24914],[100,25002],[100,25081],[100,25164],[100,25251],[100,25331],[100,25415],[100,25502],[100,25581],[100,25669],[100,25752],[100,25835],[100,25918],[100,26002],[100,26081],[100,26168],[100,26252],[100,26331],[100,26414],[100,26498],[100,26585],[100,26668],[100,26748],[100,26835],[100,26918],[100,26998],[100,27085],[100,27164],[100,27252],[100,27336],[99.9,27415],[99.9,27498],[99.9,27581],[99.9,27668],[100,27752],[100,27835],[100,27919],[100,27998],[100,28081],[100,28165],[100,28252],[100,28335],[100,28418],[100,28502],[100,28581],[100,28668],[100,28751],[100,28832],[100,28918],[100,29002],[100,29085],[100,29168],[100,29252],[100,29332],[100,29418]]",1,0,650.0049,651.8719,100,1.2496,"[{""rating"":100,""responseTime"":1.249600000023861}]",space,1.3337,,651.8719,Partially,50,651.874,,,[],,0,2,2,2,1,audio/Narrative7Situation2.wav,audio/Narrative8Situation2.wav,audio/Narrative5Situation2.wav,audio/Narrative6Situation2.wav,3,3,3,3,,,,,,,,,,,,,,,,,,,,,,,,,,,,,,,,,,,,,,,
,,,,,,5f4c722074dfe876eaa57716,2024-05-13_09h52.39.604,group3.1-3.2-social-tom,2023.2.2,Win32,59.52380952,65c5074098b851296ff0b7ed,6642373933dcfd98075410f2,,,,,,,,,,,,,,,,,,,,,,,,,,,,,651.8742,2,audio/Narrative5Situation3.wav,654.8881,,654.8882,668.79,"[[999,6],[999,83],[999,167],[999,250],[999,333],[999,416],[47.4,500],[44.3,583],[44.4,667],[45.3,750],[46.6,833],[48.5,916],[48.7,1000],[49,1084],[49.7,1167],[50.3,1246],[50.3,1333],[50.3,1413],[50.3,1500],[50.3,1583],[50.3,1663],[50.3,1746],[50.3,1833],[50.3,1913],[50.3,2000],[50.3,2079],[50,2167],[47.5,2250],[38,2333],[27.7,2416],[20.1,2500],[16.2,2583],[15.3,2667],[13.8,2750],[13.7,2829],[13.7,2913],[13.7,3000],[13.7,3079],[13.7,3166],[13.7,3250],[13.7,3333],[13.7,3413],[13.7,3496],[13.7,3583],[13.7,3666],[13.7,3746],[13.7,3833],[13.7,3913],[13.7,3996],[13.7,4080],[13.7,4163],[13.7,4250],[13.7,4334],[13.7,4416],[13.7,4500],[14.1,4584],[17.3,4667],[18.7,4750],[21.7,4834],[26.1,4917],[27.9,5001],[30.2,5084],[33.2,5167],[35.9,5250],[37.1,5334],[39.3,5417],[41.5,5500],[45,5584],[51.3,5667],[63,5751],[76.2,5834],[85.1,5917],[94.4,6000],[99.8,6084],[100,6167],[100,6250],[100,6330],[100,6413],[100,6496],[100,6583],[100,6667],[100,6750],[100,6830],[100,6913],[100,7000],[100,7080],[100,7165],[100,7246],[100,7334],[100,7417],[100,7500],[99.9,7583],[99.6,7667],[99.6,7746],[99.6,7834],[99.9,7917],[100,8000],[100,8084],[100,8167],[100,8250],[100,8334],[100,8417],[100,8497],[100,8580],[100,8663],[100,8749],[100,8830],[100,8917],[100,8997],[100,9080],[100,9163],[100,9247],[100,9334],[100,9417],[100,9497],[100,9583],[100,9663],[100,9747],[100,9833],[100,9913],[100,10000],[100,10083],[87.3,10168],[54.4,10250],[50.1,10333],[50.4,10417],[47.2,10500],[28.2,10584],[12.7,10668],[11.2,10751],[8.3,10834],[4.5,10918],[4.5,10997],[4.5,11080],[4.5,11167],[4.5,11250],[4.5,11330],[4.5,11413],[4.5,11499],[4.5,11580],[4.5,11666],[4.5,11747],[4.5,11834],[4.5,11914],[4.5,12001],[4.5,12080],[4.5,12163],[4.5,12247],[4.5,12334],[4.5,12417],[4.5,12497],[4.5,12580],[4.5,12664],[4.5,12749],[4.5,12834],[4.5,12914],[4.5,12997],[4.5,13084],[4.5,13167],[4.5,13249],[4.5,13330],[6.2,13424],[11.8,13501],[15.9,13584],[28.3,13667],[34.5,13751],[38.4,13834]]",1,0,668.7902,675.5069,47.2181552,6.4826,"[{""rating"":12.518301610541727,""responseTime"":2.4856999999880145},{""rating"":47.218155197657396,""responseTime"":6.482599999964236}]",space,6.1804,,675.5069,Not at all,0,675.5095,,,[],,0,3,3,3,1,audio/Narrative7Situation3.wav,audio/Narrative8Situation3.wav,audio/Narrative5Situation3.wav,audio/Narrative6Situation3.wav,8,4,3,5,,,,,,,,,,,,,,,,,,,,,,,,,,,,,,,,,,,,,,,
,,,,,,5f4c722074dfe876eaa57716,2024-05-13_09h52.39.604,group3.1-3.2-social-tom,2023.2.2,Win32,59.52380952,65c5074098b851296ff0b7ed,6642373933dcfd98075410f2,,,,,,,,,,,,,,,,,,,,,,,,,,,,,675.5098,2,audio/Narrative5Situation4.wav,676.5235,,676.5235,696.9413,"[[999,0],[999,82],[999,166],[999,249],[999,329],[999,416],[999,499],[999,582],[999,666],[999,749],[999,832],[999,916],[63.5,1000],[55,1083],[51.2,1166],[50,1249],[50,1329],[49.9,1412],[49.9,1495],[49.9,1579],[49.9,1666],[50.4,1750],[50.6,1829],[50.6,1915],[50.6,1995],[50.3,2082],[50.3,2165],[50.7,2249],[61.1,2333],[62,2416],[65.8,2500],[91.3,3083],[90.7,3166],[91.1,3249],[91.6,3332],[91.6,3412],[91.6,3499],[91.6,3583],[91.6,3662],[91.6,3750],[91.6,3832],[91.6,3916],[91.6,3995],[91.6,4082],[91.6,4166],[91.6,4245],[91.4,4329],[86,4417],[76.2,4500],[56.7,4583],[39.8,4667],[27.7,4750],[15.7,4833],[10,4916],[6.8,5000],[4.3,5083],[3.9,5166],[3.9,5246],[3.9,5329],[3.9,5413],[3.9,5499],[3.9,5579],[3.9,5662],[3.9,5745],[3.9,5829],[3.9,5916],[3.9,5995],[3.9,6079],[3.9,6166],[3.9,6250],[3.9,6333],[3.9,6412],[3.9,6500],[2.3,6583],[0.1,9584],[56.3,9667],[67.4,9750],[69.5,9833],[77.8,9917],[100,10000],[100,10083],[100,10166],[100,10249],[100,10333],[100,10417],[100,10496],[100,10580],[100,10667],[100,10750],[100,10833],[100,10917],[100,11000],[100,11080],[100,11167],[100,11246],[100,11333],[100,11417],[100,11496],[100,11580],[100,11667],[100,11750],[100,11833],[100,11913],[100,11996],[100,12083],[100,12163],[100,12249],[100,12330],[100,12417],[100,12500],[100,12583],[100,12667],[100,12746],[100,12834],[100,12917],[100,12996],[100,13080],[100,13167],[100,13246],[100,13330],[100,13413],[100,13496],[100,13583],[100,13666],[100,13750],[100,13830],[100,13917],[100,13996],[100,14083],[100,14167],[100,14246],[100,14334],[100,14413],[100,14496],[100,14584],[100,14663],[100,14750],[100,14830],[100,14913],[100,15000],[100,15080],[100,15163],[100,15250],[100,15330],[100,15417],[100,15503],[100,15580],[100,15667],[100,15746],[100,15830],[100,15917],[100,15997],[100,16080],[100,16167],[100,16250],[100,16330],[100,16417],[100,16497],[100,16582],[100,16663],[100,16746],[100,16834],[100,16917],[100,17000],[100,17084],[100,17167],[100,17250],[100,17334],[100,17413],[100,17500],[100,17584],[100,17667],[100,17750],[100,17830],[100,17913],[100,18001],[100,18080],[100,18163],[100,18250],[100,18330],[100,18417],[100,18497],[100,18583],[100,18667],[100,18750],[100,18833],[100,18913],[100,18996],[100,19080],[100,19163],[100,19246],[100,19333],[100,19413],[100,19497],[100,19584],[100,19667],[100,19750],[100,19834],[100,19917],[100,20001],[100,20080],[100,20163],[100,20250],[100,20330],[100,20417]]",1,0,696.9414,698.7249,100,1.4763,"[{""rating"":100,""responseTime"":1.4763000000119746}]",space,1.2492,,698.725,Not at all,0,698.7263,,,[],,0,4,4,4,1,audio/Narrative7Situation4.wav,audio/Narrative8Situation4.wav,audio/Narrative5Situation4.wav,audio/Narrative6Situation4.wav,3,3,1,2,,,,,,,,,,,,,,,,,,,,,,,,,,,,,,,,,,,,,,,
,,,,,,5f4c722074dfe876eaa57716,2024-05-13_09h52.39.604,group3.1-3.2-social-tom,2023.2.2,Win32,59.52380952,65c5074098b851296ff0b7ed,6642373933dcfd98075410f2,,,,,,,,,,,,,,,,,,,,,,,,,,,,,698.7266,2,audio/Narrative5Situation5.wav,703.738,,703.738,719.1602,"[[999,7],[999,86],[999,166],[999,249],[999,336],[999,420],[999,500],[999,583],[999,670],[999,753],[52.3,837],[54.1,920],[54.2,1003],[54.2,1086],[53.4,1170],[51.8,1254],[50.9,1336],[50.9,1416],[50.9,1503],[50.9,1587],[50.9,1666],[50.9,1753],[50.9,1833],[50.9,1920],[50.9,2000],[50.9,2083],[50.9,2170],[48,2254],[28.8,2337],[25.5,2421],[23.6,2504],[17.8,2587],[31.1,3837],[41.8,3921],[49.7,4004],[53.8,4087],[58.1,4170],[60.8,4254],[62.2,4337],[65.7,4420],[66.5,4503],[66.5,4583],[66.5,4666],[66.5,4754],[66.5,4833],[66.5,4920],[66.5,5000],[66.5,5086],[66.5,5166],[66.5,5254],[66.5,5333],[66.5,5420],[48.8,5587],[31.6,5670],[18.1,5754],[6.7,5837],[5.3,5920],[5.3,6003],[5.3,6083],[5.3,6170],[5.3,6250],[5.3,6337],[5.3,6416],[5.3,6503],[5.3,6583],[5.3,6666],[5.3,6753],[5.3,6836],[5.3,6916],[5.3,7003],[5.3,7087],[5.3,7166],[5.3,7253],[9.2,7337],[27.5,7420],[43.6,7504],[46.6,7587],[51.2,7670],[54.4,7754],[56.9,7837],[56.9,7916],[56.9,8004],[79.9,8670],[79.9,8754],[79.9,8837],[80,8918],[80,9004],[80,9084],[80,9170],[80,9250],[80.2,9337],[80.2,9420],[80.2,9500],[80.2,9587],[80.7,9670],[80.7,9754],[80.9,9837],[80.9,9917],[80.9,10004],[80.9,10087],[80.9,10167],[80.9,10254],[80.9,10337],[80.9,10417],[80.9,10500],[80.9,10587],[80.9,10667],[80.9,10753],[80.9,10833],[80.9,10917],[84.6,11004],[95.7,11088],[95.8,11171],[95.8,11254],[96.6,11338],[97.3,11421],[97.9,11504],[97.9,11583],[98,11670],[100,11754],[100,11837],[100,11921],[100,12004],[100,12083],[100,12170],[100,12254],[100,12337],[100,12420],[100,12500],[100,12587],[100,12667],[100,12750],[100,12837],[100,12920],[100,13000],[100,13087],[100,13170],[100,13254],[100,13337],[100,13417],[100,13502],[100,13587],[100,13670],[100,13754],[100,13834],[100,13917],[100,14004],[100,14087],[100,14167],[100,14254],[100,14337],[100,14417],[100,14504],[100,14583],[100,14667],[100,14750],[100,14834],[100,14917],[100,15004],[100,15084],[100,15171],[100,15254],[100,15338]]",1,0,719.1605,721.0221,100,0.9922,"[{""rating"":100,""responseTime"":0.9921999999880882}]",space,1.3118,,721.0222,Partially,50,721.0255,,,[],,0,5,5,5,1,audio/Narrative7Situation5.wav,audio/Narrative8Situation5.wav,audio/Narrative5Situation5.wav,audio/Narrative6Situation5.wav,5,2,5,2,,,,,,,,,,,,,,,,,,,,,,,,,,,,,,,,,,,,,,,
,,,,,,5f4c722074dfe876eaa57716,2024-05-13_09h52.39.604,group3.1-3.2-social-tom,2023.2.2,Win32,59.52380952,65c5074098b851296ff0b7ed,6642373933dcfd98075410f2,,,,,,,,,,,,,,,,,,,,,,,,,,,,,721.0257,2,audio/Narrative5Situation6.wav,724.026,,724.026,729.723,"[[999,6],[999,83],[999,166],[999,246],[999,333],[999,417],[999,499],[50.9,583],[51.2,666],[51.3,749],[51.3,833],[51.6,916],[51.8,999],[51.8,1083],[51.8,1163],[51.8,1249],[51.8,1333],[51.8,1413],[51.8,1496],[51.8,1579],[51.8,1667],[51.8,1746],[51.8,1833],[51.8,1917],[51.8,2000],[51.8,2083],[51.8,2163],[51.8,2246],[51.8,2330],[51.8,2417],[51.8,2496],[51.8,2580],[51.8,2663],[51.8,2746],[51.8,2830],[51.8,2913],[51.8,2996],[52.8,3084],[55.7,3167],[56.9,3251],[57,3330],[57.2,3417],[57.8,3501],[58.6,3584],[60.4,3667],[60.7,3749],[60.8,3830],[61.3,3917],[62.2,4000],[62.4,4083],[62.4,4167],[62.4,4250],[62.4,4330],[62.4,4413],[62.4,4500],[62.4,4580],[63,4667],[65.4,4750],[66.8,4834],[69.2,4917],[71.2,5000],[71.5,5083],[72.5,5167],[73.7,5251],[74.3,5334],[75.2,5416],[75.6,5500],[75.6,5583],[75.6,5663]]",1,0,729.7231,731.4937,75.03660322,1.6013,"[{""rating"":75.03660322108345,""responseTime"":1.601300000011861}]",space,1.2487,,731.4938,Not at all,0,731.4958,,,[],,0,6,6,6,1,audio/Narrative7Situation6.wav,audio/Narrative8Situation6.wav,audio/Narrative5Situation6.wav,audio/Narrative6Situation6.wav,3,2,3,2,,,,,,,,,,,,,,,,,,,,,,,,,,,,,,,,,,,,,,,
,,,,,,5f4c722074dfe876eaa57716,2024-05-13_09h52.39.604,group3.1-3.2-social-tom,2023.2.2,Win32,59.52380952,65c5074098b851296ff0b7ed,6642373933dcfd98075410f2,,,,,,,,,,,,,,,,,,,,,,,,,,,,,731.496,2,audio/Narrative5Situation7.wav,735.5071,,735.5072,756.5786,"[[999,6],[999,86],[999,169],[999,253],[999,336],[999,420],[55.1,503],[51.8,586],[49.7,670],[49.6,753],[49.6,836],[49.4,919],[49.4,1003],[49.4,1082],[49.4,1170],[49.4,1253],[49.4,1333],[49.6,1419],[50.1,1503],[50.4,1586],[50.4,1666],[50.4,1749],[50.4,1832],[50.4,1916],[50.4,2003],[50.4,2086],[50.4,2169],[50.4,2249],[50.4,2332],[50.4,2419],[50.4,2499],[50.4,2586],[50.4,2669],[50.4,2753],[50.4,2836],[40,2920],[34.3,3003],[33.9,3086],[33.9,3169],[33.9,3249],[33.9,3336],[33.9,3416],[33.9,3503],[33.9,3587],[33.9,3670],[33.9,3749],[33.9,3836],[33.9,3919],[33.9,3999],[33.9,4086],[33.9,4169],[33.9,4253],[33.9,4336],[33.9,4416],[33.9,4503],[33.9,4582],[33.9,4666],[38.1,4753],[42.1,4837],[43.7,4920],[46,5003],[49.3,5087],[51.3,5170],[51.3,5253],[51.3,5333],[51.3,5419],[51.3,5499],[51.3,5582],[51.3,5669],[51.3,5753],[51.3,5832],[51.2,5920],[50.7,6003],[50.4,6086],[50.4,6168],[50.4,6250],[50.4,6337],[50.4,6416],[50.4,6499],[50.4,6587],[50.4,6666],[50.4,6749],[50.4,6837],[50.4,6920],[50.4,7003],[50.4,7086],[50.4,7167],[50.4,7250],[50.4,7335],[50.4,7420],[52.2,7504],[52.8,7587],[52.8,7666],[52.8,7753],[52.8,7837],[52.8,7916],[52.8,8003],[52.8,8087],[52.8,8166],[52.8,8253],[52.8,8337],[52.8,8416],[52.8,8503],[52.8,8585],[54,8670],[54.5,8753],[54.5,8833],[51.5,8920],[36.5,9004],[33.9,9087],[33.7,9170],[29.5,9254],[21.7,9337],[20,9420],[20,9500],[20,9583],[20,9666],[20,9753],[20,9837],[19.5,9920],[19.5,10003],[19.5,10086],[19.5,10166],[19.5,10253],[18.2,10337],[14.3,10420],[13.5,10504],[13.4,10583],[13.4,10670],[13.4,10750],[13.4,10836],[13.4,10917],[13.4,11003],[13.4,11083],[13.4,11170],[13.4,11250],[13.4,11336],[13.4,11416],[13.4,11503],[13.4,11587],[13.4,11670],[13.4,11754],[13.4,11833],[13.4,11916],[13.4,12003],[13.4,12083],[13.4,12167],[13.4,12254],[13.4,12333],[13.4,12420],[13.4,12503],[13.4,12586],[13.4,12670],[13.4,12750],[13.4,12833],[13.4,12917],[13.4,13003],[13.4,13087],[13.4,13170],[13.4,13254],[13.4,13337],[13.4,13417],[13.4,13503],[13.4,13587],[13.4,13670],[13.4,13754],[13.4,13834],[13.4,13916],[13.4,14003],[14.7,14085],[39.6,14171],[52.5,14254],[53.7,14335],[56.3,14421],[59.2,14504],[64.3,14588],[71.2,14670],[77.8,14754],[81,14837],[82.8,14921],[84,15004],[85.4,15087],[87,15171],[88.5,15250],[89.5,15337],[89.5,15416],[89.5,15500],[89.7,15583],[89.7,15667],[90.4,15754],[90.6,15833],[90.6,15920],[90.6,16004],[90.6,16083],[90.6,16167],[90.6,16254],[90.6,16337],[56.1,16421],[6.4,16837],[6.4,16920],[5.8,17004],[0.2,17087]]",1,0,756.5787,758.9453,5.783308931,1.6869,"[{""rating"":5.783308931185943,""responseTime"":1.6869000000357346}]",space,1.8174,,758.9454,Not at all,0,758.9466,,,[],,0,7,7,7,1,audio/Narrative7Situation7.wav,audio/Narrative8Situation7.wav,audio/Narrative5Situation7.wav,audio/Narrative6Situation7.wav,5,3,4,5,,,,,,,,,,,,,,,,,,,,,,,,,,,,,,,,,,,,,,,
,,,,,,5f4c722074dfe876eaa57716,2024-05-13_09h52.39.604,group3.1-3.2-social-tom,2023.2.2,Win32,59.52380952,65c5074098b851296ff0b7ed,6642373933dcfd98075410f2,,,,,,,,,,,,,,,,,,,,,,,,,,,,,758.9468,2,audio/Narrative5Situation8.wav,761.9623,,761.9624,770.7965,"[[999,6],[999,82],[999,166],[999,249],[999,332],[999,416],[999,499],[999,583],[999,666],[999,749],[999,833],[999,916],[50.6,999],[49.9,1083],[49.9,1166],[49.9,1246],[49.9,1333],[49.9,1412],[49.9,1499],[49.9,1583],[49.9,1662],[49.9,1746],[49.9,1833],[49.9,1912],[32.6,2000],[0.4,2416],[2.3,2500],[2.7,2582],[2.7,2666],[2.7,2750],[2.7,2833],[2.7,2916],[2.7,2996],[2.7,3079],[2.7,3166],[2.7,3249],[2.7,3329],[2.7,3416],[2.7,3500],[2.7,3583],[2.7,3662],[2.7,3746],[2.7,3830],[2.7,3912],[2.7,3996],[2.7,4079],[2.7,4166],[2.7,4246],[2.7,4333],[2.7,4416],[2.7,4496],[2.7,4583],[2.7,4663],[2.7,4749],[2.7,4831],[2.7,4916],[2.7,4999],[2.7,5083],[2.7,5163],[2.7,5250],[2.7,5329],[2.7,5413],[2.7,5500],[2.7,5579],[2.7,5666],[2.7,5746],[2.7,5833],[2.7,5913],[2.7,5996],[2.7,6083],[2.7,6163],[2.7,6250],[2.7,6333],[2.7,6413],[2.7,6500],[2.7,6580],[2.7,6663],[2.7,6750],[2.7,6829],[2.7,6913],[2.7,7000],[2.7,7080],[2.7,7163],[2.7,7250],[2.7,7334],[2.7,7413],[2.7,7500],[2.7,7580],[2.7,7663],[2.7,7750],[2.7,7833],[2.7,7913],[2.7,8000],[2.7,8083],[2.7,8166],[2.7,8246],[2.7,8329],[2.7,8413],[2.7,8496],[9.2,8589],[23.8,8667],[35.9,8750],[40.3,8833]]",1,0,770.7966,773.4461,5.05124451,1.9989,"[{""rating"":5.051244509516839,""responseTime"":1.9988999999761745}]",space,2.0856,,773.4462,Definitely yes,100,773.4485,,,[],,0,8,8,8,1,audio/Narrative7Situation8.wav,audio/Narrative8Situation8.wav,audio/Narrative5Situation8.wav,audio/Narrative6Situation8.wav,2,3,3,5,,,,,,,,,,,,,,,,,,,,,,,,,,,,,,,,,,,,,,,
,,,,,,5f4c722074dfe876eaa57716,2024-05-13_09h52.39.604,group3.1-3.2-social-tom,2023.2.2,Win32,59.52380952,65c5074098b851296ff0b7ed,6642373933dcfd98075410f2,,,,,,,,,,,,,,,,,,,,,,,,,,,,,773.4486,2,audio/Narrative5Situation9.wav,776.463,,776.4631,816.0157,"[[999,0],[999,82],[999,166],[999,249],[999,333],[999,416],[999,500],[55.1,583],[47.8,666],[47.1,749],[47.1,829],[47.1,912],[47.7,1000],[48.1,1079],[48.1,1166],[48.7,1250],[49,1329],[49.4,1417],[49.4,1496],[51.5,1583],[60.8,1667],[50.6,2250],[50.4,2333],[51.6,2417],[52.6,2500],[55.7,2583],[59.1,2667],[59.5,2749],[59.5,2831],[59.5,2912],[59.5,2999],[59.5,3079],[59.5,3163],[59.5,3250],[59.5,3333],[59.5,3413],[59.5,3500],[59.5,3580],[59.5,3666],[59.5,3750],[59.5,3830],[59.5,3917],[59.5,3996],[59.5,4080],[60.1,4167],[62.9,4251],[65.5,4333],[71.1,4417],[74.3,4500],[75.3,4584],[75.6,4667],[75.8,4750],[75.8,4833],[75.9,4913],[75.9,5000],[75.9,5083],[75.9,5163],[75.9,5250],[75.9,5333],[75.9,5413],[75.9,5500],[75.9,5583],[75.9,5663],[75.9,5750],[75.9,5833],[75.9,5913],[75.9,6000],[75.9,6080],[75.9,6167],[75.9,6249],[75.9,6330],[75.9,6416],[75.9,6500],[75.9,6580],[75.9,6667],[79,6750],[81.6,6834],[82.9,6917],[84.4,7000],[86.3,7084],[86.9,7167],[88.1,7250],[88.4,7330],[88.8,7417],[89.2,7500],[91.3,7584],[92,7667],[94.2,7750],[96.9,7835],[98.6,7917],[100,8001],[100,8084],[100,8167],[100,8246],[100,8333],[100,8417],[100,8500],[100,8580],[100,8666],[100,8750],[100,8833],[100,8913],[100,8996],[100,9084],[100,9163],[100,9246],[100,9334],[100,9417],[100,9500],[100,9583],[100,9663],[100,9750],[100,9834],[100,9913],[100,10000],[100,10084],[100,10163],[100,10250],[100,10332],[100,10417],[100,10500],[100,10583],[100,10663],[100,10750],[100,10834],[100,10917],[100,10997],[100,11080],[100,11167],[100,11250],[100,11334],[100,11417],[100,11496],[100,11580],[100,11667],[100,11751],[100,11830],[100,11917],[100,11997],[100,12083],[100,12167],[100,12250],[100,12330],[100,12417],[100,12500],[100,12584],[100,12667],[100,12746],[100,12830],[100,12913],[100,13000],[100,13080],[100,13167],[100,13250],[100,13333],[100,13413],[100,13500],[100,13583],[100,13667],[100,13750],[100,13834],[100,13913],[100,14000],[100,14080],[100,14167],[100,14247],[100,14334],[100,14417],[100,14497],[100,14580],[100,14663],[100,14747],[100,14834],[100,14913],[100,15000],[100,15080],[100,15167],[100,15247],[100,15331],[100,15413],[100,15500],[100,15580],[100,15663],[100,15750],[100,15831],[100,15917],[100,16001],[100,16084],[100,16167],[100,16251],[100,16330],[100,16413],[100,16497],[100,16580],[100,16663],[100,16747],[100,16830],[100,16913]]",1,0,816.0159,818.433,100,1.4596,"[{""rating"":100,""responseTime"":1.4595999999643254}]",space,1.8833,,818.433,Partially,50,818.435,,,[],,0,9,9,9,1,audio/Narrative7Situation9.wav,audio/Narrative8Situation9.wav,audio/Narrative5Situation9.wav,audio/Narrative6Situation9.wav,2,3,3,4,,,,,,,,,,,,,,,,,,,,,,,,,,,,,,,,,,,,,,,
,,,,,,5f4c722074dfe876eaa57716,2024-05-13_09h52.39.604,group3.1-3.2-social-tom,2023.2.2,Win32,59.52380952,65c5074098b851296ff0b7ed,6642373933dcfd98075410f2,,,,,,,,,,,,,,,,,,,,,,,,,,,,,818.4352,2,audio/Narrative6Situation1.wav,820.4492,,820.4492,847.0177,"[[999,0],[999,82],[999,166],[999,247],[999,334],[999,417],[999,500],[999,583],[999,667],[999,750],[999,833],[999,917],[999,1000],[999,1083],[51.9,1167],[51.9,1250],[51.9,1333],[51.9,1413],[51.9,1500],[51.9,1580],[51.9,1666],[51.9,1746],[51.9,1830],[51.9,1913],[51.8,2000],[51.2,2082],[51.2,2166],[51.2,2250],[51.2,2333],[51.2,2417],[50.9,2501],[50.6,2584],[50,2667],[49.7,2750],[49.7,2830],[49.7,2917],[49.7,3000],[49.7,3083],[49.7,3167],[49.7,3250],[49.7,3330],[49.7,3417],[49.7,3500],[49.7,3579],[49.7,3663],[49.7,3750],[49,3834],[48.8,3913],[48.8,3996],[48.8,4084],[48.8,4167],[48.8,4247],[48.8,4333],[48.8,4417],[48.8,4496],[48.8,4580],[48.8,4667],[48.8,4746],[48.8,4833],[48.8,4917],[48.8,4996],[48.8,5083],[45,5167],[42.2,5251],[41.1,5334],[41.1,5413],[44.4,5500],[59.1,5584],[69.2,5667],[69.5,5746],[71.2,5834],[72.8,5917],[100,6500],[100,6583],[100,6663],[100,6746],[100,6830],[100,6913],[100,7000],[100,7084],[100,7163],[100,7250],[100,7330],[100,7416],[100,7496],[100,7584],[100,7663],[100,7750],[100,7830],[100,7917],[100,7997],[100,8084],[100,8167],[100,8246],[100,8333],[100,8413],[100,8497],[100,8580],[100,8667],[100,8747],[100,8833],[100,8913],[100,9000],[100,9080],[100,9163],[100,9250],[100,9330],[100,9417],[100,9500],[100,9580],[100,9667],[100,9746],[100,9830],[100,9917],[100,10000],[100,10083],[100,10167],[100,10247],[100,10333],[100,10417],[100,10500],[100,10584],[100,10666],[100,10747],[100,10834],[100,10917],[100,10996],[100,11083],[100,11167],[100,11250],[100,11334],[100,11413],[100,11497],[100,11582],[100,11664],[100,11750],[100,11834],[100,11914],[100,12001],[100,12080],[100,12167],[100,12251],[100,12330],[100,12417],[100,12501],[100,12584],[100,12667],[100,12747],[100,12830],[100,12914],[100,13000],[100,13080],[100,13167],[100,13251],[100,13330],[100,13413],[100,13501],[100,13580],[100,13667],[100,13750],[100,13834],[100,13917],[100,14001],[100,14080],[100,14167],[100,14251],[100,14330],[100,14418],[100,14497],[100,14580],[100,14667],[100,14747],[100,14834],[100,14914],[100,14997],[100,15084],[100,15167],[100,15247],[100,15334],[100,15414],[100,15501],[100,15585],[100,15663],[100,15751],[100,15830],[100,15914],[100,16001],[100,16084],[100,16167],[100,16249],[100,16330],[100,16417],[100,16501],[100,16581],[100,16668],[100,16747],[100,16831],[100,16914],[100,16997],[100,17080],[100,17164],[100,17247],[100,17330],[100,17414],[100,17497],[100,17583],[100,17668],[91,17751],[86.2,18418],[88.5,18501],[88.5,18580],[88.7,18663],[88.1,18751],[87.2,18834],[85.4,18918],[83.4,19001],[81.9,19084],[81.6,19164],[81.6,19250],[81.5,19334],[80.9,19418],[80.9,19501],[80.9,19584],[80.9,19666],[80.9,19751],[80.9,19831],[80.9,19914],[80.9,20001],[80.5,20081],[73.1,20168],[65.7,20251],[61,20335],[56.3,20418],[51.8,20502],[46.9,20585],[40.8,20668],[35.5,20751],[32.6,20834],[31.8,20918],[31.8,21001],[32.6,21085],[35.1,21168],[43.7,21252],[57.2,21335],[68.4,21418],[77.4,21502],[82.1,21585],[89.8,21668],[98.2,21751],[100,21834],[100,21918],[100,22001],[100,22081],[100,22164],[100,22251],[100,22335],[100,22418],[100,22501],[100,22584],[100,22667],[100,22751],[100,22831],[100,22918],[100,22997],[100,23085],[100,23168],[100,23247],[100,23334],[100,23414],[100,23501],[100,23585],[100,23668],[100,23751],[100,23835],[100,23918],[100,24001],[100,24081],[100,24167],[100,24247],[100,24335],[100,24414],[100,24501],[100,24581],[100,24668],[100,24750],[100,24835],[100,24914],[100,24998],[100,25085],[100,25168],[100,25248],[100,25331],[100,25418],[100,25501],[100,25585],[100,25664],[100,25748],[100,25833],[100,25918],[100,26000],[100,26081],[100,26164],[100,26248],[100,26331],[100,26418],[100,26501]]",1,0,847.0179,850.2016,100,2.9438,"[{""rating"":89.97071742313322,""responseTime"":1.9100999999642454},{""rating"":100,""responseTime"":2.9437999999522617}]",space,2.6501,,850.2016,Definitely yes,100,850.2037,,,[],,0,10,10,10,1,audio/Narrative8Situation1.wav,audio/Narrative7Situation1.wav,audio/Narrative6Situation1.wav,audio/Narrative5Situation1.wav,5,2,2,5,,,,,,,,,,,,,,,,,,,,,,,,,,,,,,,,,,,,,,,
,,,,,,5f4c722074dfe876eaa57716,2024-05-13_09h52.39.604,group3.1-3.2-social-tom,2023.2.2,Win32,59.52380952,65c5074098b851296ff0b7ed,6642373933dcfd98075410f2,,,,,,,,,,,,,,,,,,,,,,,,,,,,,850.2038,2,audio/Narrative6Situation2.wav,853.2178,,853.2179,881.7188,"[[999,6],[999,79],[999,163],[999,249],[999,333],[59.1,417],[61.9,500],[66,583],[66.1,663],[64.5,750],[59.1,833],[56.1,917],[55.3,1000],[55,1083],[53.4,1166],[51.9,1250],[46.5,2083],[35.8,2167],[34.3,2250],[32.6,2334],[27,2417],[20.1,2500],[16,2584],[16,2663],[13.4,2750],[11.1,2834],[10.9,2917],[10.9,2996],[10.9,3083],[10.9,3167],[10.9,3246],[10.9,3333],[10.9,3413],[10.9,3500],[11.6,3584],[21.7,3667],[30.2,3750],[32.1,3834],[32.3,3913],[32.3,4000],[32.3,4080],[32.3,4163],[32.3,4250],[34.9,4334],[38,4417],[43.6,4500],[57.2,4584],[70.6,4667],[84,4750],[91.7,4834],[94.8,4917],[95.8,5001],[97.7,5083],[99.2,5167],[99.2,5246],[99.2,5330],[99.2,5417],[99.2,5497],[99.2,5584],[99.2,5667],[99.2,5750],[99.2,5833],[99.2,5913],[99.2,6000],[99.2,6083],[99.2,6163],[99.2,6247],[99.2,6334],[99.2,6413],[99.2,6500],[99.2,6583],[99.2,6663],[99.2,6750],[99.2,6834],[99.2,6917],[99.2,6996],[99.2,7080],[99.2,7163],[99.2,7250],[99.2,7330],[99.2,7417],[99.2,7500],[99.2,7580],[99.2,7667],[99.3,7751],[100,7834],[100,7917],[100,7996],[100,8084],[100,8167],[100,8247],[100,8334],[100,8417],[100,8500],[100,8583],[100,8667],[100,8750],[100,8834],[100,8913],[100,9000],[100,9084],[100,9163],[100,9250],[100,9330],[100,9417],[82.7,9501],[68.4,9584],[62,9667],[57.2,9751],[56.1,9834],[54.1,9917],[54,9996],[53.5,10084],[52.2,10168],[51.3,10251],[50.6,10330],[50.4,10417],[50.3,10497],[50.3,10580],[50,10667],[50,10750],[50,10830],[50,10917],[50,10997],[50,11083],[50,11167],[50,11247],[50,11334],[50,11417],[50,11497],[50,11584],[50,11667],[50,11747],[50,11834],[50,11917],[50,12000],[50,12080],[50,12163],[50,12250],[50,12334],[50,12413],[50,12500],[50,12584],[50,12667],[50,12750],[50,12830],[50,12917],[50,12997],[50,13084],[50,13167],[50,13251],[50.1,13331],[62.2,13418],[68.7,13501],[76.1,13585],[82.5,13668],[91.3,13751],[99,13834],[100,13917],[100,14001],[100,14080],[100,14167],[100,14247],[100,14330],[100,14417],[100,14499],[100,14581],[100,14664],[100,14751],[100,14831],[100,14918],[100,15001],[100,15081],[100,15166],[100,15251],[100,15330],[100,15417],[100,15501],[100,15580],[100,15667],[100,15751],[100,15834],[100,15915],[100,16000],[100,16080],[100,16167],[100,16251],[100,16334],[100,16415],[100,16500],[100,16580],[100,16667],[100,16751],[100,16830],[100,16917],[100,17000],[100,17084],[100,17167],[100,17250],[100,17334],[100,17417],[100,17500],[100,17584],[100,17664],[100,17750],[100,17834],[100,17917],[100,18001],[100,18080],[100,18167],[100,18247],[100,18334],[100,18417],[100,18500],[100,18580],[100,18667],[100,18747],[100,18833],[100,18917],[100,19000],[100,19083],[100,19166],[100,19247],[100,19333],[100,19416],[100,19499],[100,19583],[100,19666],[100,19749],[100,19833],[100,19917],[100,20000],[99.8,20083],[99.6,20166],[99.6,20250],[99.6,20333],[99.6,20416],[99.8,20500],[99.9,20580],[99.9,20666],[100,20750],[100,20833],[100,20916],[100,21000],[100,21083],[100,21164],[100,21249],[100,21333],[100,21416],[100,21500],[100,21584],[99.8,21664],[99.8,21750],[99.8,21833],[99.8,21917],[99.8,21997],[99.9,22083],[99.9,22166],[99.9,22250],[99.9,22332],[99.9,22416],[99.9,22500],[99.9,22582],[99.9,22666],[99.9,22747],[99.9,22833],[99.9,22917],[99.9,23000],[99.9,23083],[99.9,23166],[100,23257],[100,23333],[100,23417],[100,23500],[100,23583],[100,23666],[100,23750],[100,23833],[100,23917],[100,24000],[100,24081],[100,24166],[100,24250],[100,24333],[100,24416],[100,24500],[100,24583],[100,24666],[100,24750],[100,24831],[100,24916],[100,24997],[100,25083],[100,25167],[100,25250],[100,25333],[100,25417],[100,25497],[100,25583],[100,25667],[100,25749],[100,25833],[100,25916],[100,26000],[100,26083],[100,26167],[100,26250],[100,26331],[100,26417],[100,26500],[100,26581],[100,26667],[100,26750],[100,26833],[100,26914],[100,26998],[100,27083],[100,27164],[100,27248],[100,27333],[100,27417],[100,27498],[100,27583],[100,27667],[100,27750],[100,27831],[100,27914],[100,28000],[100,28083],[100,28164],[100,28250],[100,28333],[100,28417],[100,28500]]",1,0,881.719,883.7023,100,1.7104,"[{""rating"":99.3411420204978,""responseTime"":0.8438999999760881},{""rating"":100,""responseTime"":1.7103999999760617}]",space,1.4266,,883.7024,Definitely yes,100,883.7036,,,[],,0,11,11,11,1,audio/Narrative8Situation2.wav,audio/Narrative7Situation2.wav,audio/Narrative6Situation2.wav,audio/Narrative5Situation2.wav,3,3,3,3,,,,,,,,,,,,,,,,,,,,,,,,,,,,,,,,,,,,,,,
,,,,,,5f4c722074dfe876eaa57716,2024-05-13_09h52.39.604,group3.1-3.2-social-tom,2023.2.2,Win32,59.52380952,65c5074098b851296ff0b7ed,6642373933dcfd98075410f2,,,,,,,,,,,,,,,,,,,,,,,,,,,,,883.7038,2,audio/Narrative6Situation3.wav,888.7198,,888.7198,901.3528,"[[32.4,666],[28.3,749],[28.3,832],[28.5,914],[35.1,999],[41.4,1083],[50.6,1166],[51.3,1249],[51.6,1333],[51.6,1416],[51.6,1499],[51.6,1580],[51.6,1664],[51.5,1750],[51.5,1830],[51.5,1916],[51.5,1997],[51.5,2081],[50.7,2167],[40.6,2250],[30.2,2334],[21.2,2417],[16.5,2500],[16,2583],[16,2666],[16,2749],[16,2833],[16,2914],[15.9,3000],[15.9,3083],[15.9,3166],[15.9,3247],[15.9,3333],[15.6,3417],[15.2,3497],[14.6,3584],[14,3667],[14,3750],[14,3833],[14,3915],[14,4000],[14,4080],[14,4164],[14,4247],[14,4330],[14,4417],[14,4499],[14,4584],[14,4664],[14,4751],[14,4831],[14,4917],[14,4997],[14,5080],[14,5163],[14,5251],[14,5330],[12.8,5417],[7,6001],[6.7,6084],[6.7,6164],[6.2,6251],[5.5,6334],[4.5,6418],[2.3,6501],[2,6584],[2,6663],[2,6747],[2,6830],[2,6913],[2,7001],[3.6,7081],[35.4,7168],[72.5,7251],[87,7335],[89.4,7418],[93.6,7501],[93.6,7580],[94.1,7667],[95.7,7751],[96.1,7834],[96.7,7918],[98.2,8001],[98.5,8084],[98.5,8165],[98.8,8247],[98.8,8330],[98.8,8417],[98.8,8501],[98.8,8580],[98.8,8664],[98.8,8747],[98.8,8834],[98.8,8917],[98.8,8997],[98.8,9084],[98.8,9164],[98.8,9251],[98.8,9330],[98.8,9418],[98.8,9501],[98.8,9580],[98.8,9668],[98.8,9747],[98.8,9834],[98.8,9914],[98.8,9997],[98.8,10084],[98.8,10164],[98.8,10247],[98.8,10331],[98.8,10414],[98.8,10501],[98.8,10584],[98.8,10667],[98.8,10751],[98.8,10834],[98.8,10917],[98.8,10999],[98.8,11084],[98.8,11167],[98.8,11251],[98.8,11331],[98.8,11414],[98.8,11498],[98.8,11581],[98.8,11668],[98.8,11747],[98.8,11834],[98.8,11914],[98.8,12001],[98.8,12084],[98.8,12164],[98.8,12247],[99.8,12335],[100,12414],[100,12497],[100,12584]]",1,0,901.353,903.5222,100,1.4016,"[{""rating"":100,""responseTime"":1.4016000000239046}]",space,1.6314,,903.5223,Not at all,0,906.8884,0,2.4816,"[{""rating"":0,""responseTime"":2.481600000023832}]",space,0,12,12,12,1,audio/Narrative8Situation3.wav,audio/Narrative7Situation3.wav,audio/Narrative6Situation3.wav,audio/Narrative5Situation3.wav,4,8,5,3,,,2.8165,,,,,,,,,,,,,,,,,,,,,,,,,,,,,,,,,,,,
,,,,,,5f4c722074dfe876eaa57716,2024-05-13_09h52.39.604,group3.1-3.2-social-tom,2023.2.2,Win32,59.52380952,65c5074098b851296ff0b7ed,6642373933dcfd98075410f2,,,,,,,,,,,,,,,,,,,,,,,,,,,,,906.8886,2,audio/Narrative6Situation4.wav,908.905,,908.905,921.5229,"[[999,0],[999,83],[999,163],[999,246],[999,329],[999,412],[999,500],[999,583],[999,667],[999,748],[999,833],[999,916],[999,1000],[999,1083],[999,1166],[999,1250],[999,1331],[999,1416],[999,1496],[999,1579],[999,1663],[999,1746],[999,1829],[999,1917],[999,2000],[999,2083],[999,2163],[999,2250],[52,2333],[51.9,2414],[51.5,2500],[51.3,2583],[51.2,2666],[50.7,2750],[50.6,2829],[50.1,2917],[49.9,3000],[49.7,3083],[49.7,3167],[49.7,3250],[49.7,3330],[49.7,3417],[49.7,3500],[49.7,3580],[49.9,3667],[51.5,3751],[54.8,3834],[60.4,3917],[63.6,4000],[66.1,4083],[67.4,4167],[69,4250],[70.1,4334],[70.8,4416],[70.8,4496],[70.8,4584],[70.8,4663],[70.8,4746],[70.8,4833],[70.8,4913],[70.8,5000],[70.8,5084],[70.8,5163],[70.8,5250],[70.8,5332],[70.8,5413],[70.8,5500],[70.8,5580],[70.8,5663],[70.8,5750],[73,5834],[79.1,5917],[81.8,6001],[83.5,6085],[87.6,6167],[90,6250],[90.6,6334],[90.7,6417],[90.7,6496],[90.7,6583],[90.7,6667],[91,6747],[95.2,6834],[97.3,6917],[97.9,7000],[98.5,7082],[99,7167],[100,7250],[100,7333],[100,7416],[100,7500],[100,7583],[100,7666],[100,7747],[100,7834],[100,7917],[100,8000],[100,8080],[100,8167],[100,8250],[100,8330],[100,8417],[100,8497],[100,8580],[100,8663],[100,8750],[100,8830],[100,8917],[100,8997],[100,9080],[100,9167],[100,9250],[100,9330],[100,9417],[100,9500],[100,9583],[100,9667],[100,9747],[100,9834],[100,9917],[100,10000],[100,10080],[100,10167],[100,10250],[100,10334],[100,10417],[100,10497],[100,10584],[100,10664],[100,10751],[100,10830],[100,10914],[100,10997],[100,11084],[100,11167],[100,11250],[100,11334],[100,11413],[100,11500],[100,11580],[100,11668],[100,11751],[100,11830],[100,11913],[100,11997],[100,12081],[100,12167],[100,12247],[100,12330],[100,12417],[100,12501],[100,12584]]",1,0,921.5231,923.2395,100,1.4769,"[{""rating"":100,""responseTime"":1.4768999999761263}]",space,1.1686,,923.2395,Partially,50,923.2417,,,[],,0,13,13,13,1,audio/Narrative8Situation4.wav,audio/Narrative7Situation4.wav,audio/Narrative6Situation4.wav,audio/Narrative5Situation4.wav,3,3,2,1,,,,,,,,,,,,,,,,,,,,,,,,,,,,,,,,,,,,,,,
,,,,,,5f4c722074dfe876eaa57716,2024-05-13_09h52.39.604,group3.1-3.2-social-tom,2023.2.2,Win32,59.52380952,65c5074098b851296ff0b7ed,6642373933dcfd98075410f2,,,,,,,,,,,,,,,,,,,,,,,,,,,,,923.242,2,audio/Narrative6Situation5.wav,925.2523,,925.2524,933.2202,"[[999,0],[999,83],[999,170],[999,253],[999,337],[999,420],[999,504],[999,587],[999,670],[999,753],[999,836],[999,920],[52,1004],[51.8,1086],[51.5,1171],[51.3,1250],[51.2,1337],[50.6,1420],[50.4,1503],[50.4,1586],[50.4,1666],[50,1754],[50,1833],[50,1920],[50,2004],[50,2085],[52.8,2170],[53.7,2254],[53.7,2337],[53.7,2420],[55,2504],[59.5,2587],[65.8,2671],[68.9,2754],[71.5,2838],[73.7,2920],[74.3,3004],[75.2,3087],[78.7,3170],[80,3254],[80.3,3333],[80.5,3420],[81.9,3504],[82.8,3587],[83.5,3670],[84.8,3754],[87.3,3838],[91.1,3921],[94.4,4004],[100,4087],[100,4171],[100,4254],[100,4337],[100,4420],[100,4504],[100,4583],[100,4670],[100,4754],[100,4837],[100,4920],[100,5000],[100,5084],[100,5171],[100,5254],[100,5337],[100,5420],[100,5500],[100,5583],[100,5670],[100,5754],[100,5834],[100,5917],[100,6000],[100,6083],[100,6170],[100,6250],[100,6334],[100,6420],[100,6504],[100,6583],[100,6671],[100,6750],[100,6838],[100,6917],[100,7004],[100,7088],[100,7167],[100,7250],[100,7337],[100,7417],[100,7504],[100,7583],[100,7667],[100,7754],[100,7834],[100,7917]]",1,0,933.2203,935.2407,100,1.4968,"[{""rating"":100,""responseTime"":1.4968000000119446}]",space,1.4985,,935.2407,Partially,50,935.242,,,[],,0,14,14,14,1,audio/Narrative8Situation5.wav,audio/Narrative7Situation5.wav,audio/Narrative6Situation5.wav,audio/Narrative5Situation5.wav,2,5,2,5,,,,,,,,,,,,,,,,,,,,,,,,,,,,,,,,,,,,,,,
,,,,,,5f4c722074dfe876eaa57716,2024-05-13_09h52.39.604,group3.1-3.2-social-tom,2023.2.2,Win32,59.52380952,65c5074098b851296ff0b7ed,6642373933dcfd98075410f2,,,,,,,,,,,,,,,,,,,,,,,,,,,,,935.2422,2,audio/Narrative6Situation6.wav,937.257,,937.2571,948.3247,"[[999,0],[999,83],[999,166],[999,250],[999,333],[999,416],[999,499],[999,583],[50.9,667],[50.4,750],[50.1,833],[49.7,917],[49.7,996],[49.7,1083],[49.7,1166],[49.7,1250],[49.7,1333],[50.1,1417],[50.3,1496],[50.4,1579],[50.4,1662],[50.4,1749],[50.4,1829],[50.4,1913],[50.4,1999],[50.4,2079],[51.2,2166],[55.6,2250],[58.1,2333],[58.1,2412],[58.1,2499],[58.1,2583],[58.1,2666],[58.1,2750],[58.1,2833],[58.1,2917],[58.1,2996],[62.2,3083],[72.4,3166],[77.2,3250],[80.9,3334],[86.3,3417],[91,3500],[95.4,3584],[97.4,3667],[98.9,3750],[99.2,3833],[99.5,3916],[99.8,4000],[99.9,4079],[99.9,4163],[99.9,4249],[99.9,4329],[99.9,4412],[99.9,4500],[99.9,4579],[99.9,4663],[99.9,4750],[99.9,4833],[99.9,4915],[99.9,5000],[99.9,5083],[99.9,5163],[99.9,5246],[99.9,5329],[99.9,5413],[99.9,5496],[99.9,5583],[99.9,5667],[99.9,5746],[99.9,5829],[99.9,5916],[99.9,6000],[99.9,6079],[99.9,6167],[99.9,6252],[99.9,6333],[99.9,6416],[99.9,6500],[99.9,6579],[99.9,6663],[99.9,6750],[99.9,6833],[99.9,6913],[99.9,6997],[99.9,7083],[99.9,7163],[99.9,7250],[99.9,7334],[99.9,7413],[99.9,7500],[99.9,7584],[99.9,7667],[99.9,7747],[99.9,7833],[99.9,7916],[99.9,8000],[99.9,8083],[99.9,8167],[99.9,8250],[99.9,8330],[99.9,8417],[99.9,8500],[99.9,8583],[99.9,8663],[99.9,8746],[99.9,8833],[99.9,8917],[99.9,9000],[99.9,9083],[99.9,9167],[99.9,9250],[99.9,9334],[99.9,9417],[99.9,9500],[99.9,9583],[99.9,9665],[100,9750],[100,9833],[100,9917],[100,10000],[100,10084],[100,10167],[100,10250],[100,10330],[100,10413],[100,10500],[100,10580],[100,10663],[100,10751],[100,10834],[100,10917],[100,11000]]",1,0,948.3248,949.5416,100,1.1162,"[{""rating"":100,""responseTime"":1.1161999999881118}]",space,0.6797,,949.5417,Partially,50,949.5429,,,[],,0,15,15,15,1,audio/Narrative8Situation6.wav,audio/Narrative7Situation6.wav,audio/Narrative6Situation6.wav,audio/Narrative5Situation6.wav,2,3,2,3,,,,,,,,,,,,,,,,,,,,,,,,,,,,,,,,,,,,,,,
