exp_question,consent.started,consent.stopped,consentResponse.keys,consentResponse.rt,consentResponse.duration,participantID,date,expName,psychopyVersion,OS,frameRate,STUDY_ID,SESSION_ID,opening1.started,opening1.stopped,keyEndingOpening1.keys,keyEndingOpening1.rt,keyEndingOpening1.duration,volumeAdjust.started,volumeAdjust.stopped,endingAdjust.keys,endingAdjust.rt,endingAdjust.duration,opening2.started,opening2.stopped,keyEndingOpening.keys,keyEndingOpening.rt,keyEndingOpening.duration,mouse.x,mouse.y,mouse.leftButton,mouse.midButton,mouse.rightButton,mouse.time,instructionLoop.thisRepN,instructionLoop.thisTrialN,instructionLoop.thisN,instructionLoop.thisIndex,instructionLoop.ran,readyForAudio.started,readyForAudio.stopped,fixation.started,run,audio_played,fixation.stopped,endPractice.keys,audioPre.started,audioPre.stopped,continuousResponses_audio,continuousSlider.response,continuousSlider.rt,intRating.started,intRating.stopped,intQuestionSlider.response,intQuestionSlider.rt,intQuestionSlider.history,confirmResponse.keys,confirmResponse.rt,confirmResponse.duration,catchQuestion.started,catch_label,catch_value,catchQuestion.stopped,catchQuestionSlider.response,catchQuestionSlider.rt,catchQuestionSlider.history,confirmResponse_2.keys,audioRunLoop.thisRepN,audioRunLoop.thisTrialN,audioRunLoop.thisN,audioRunLoop.thisIndex,audioRunLoop.ran,conditions1_1,conditions2_1,conditions1_2,conditions2_2,dur1_1,dur2_1,dur1_2,dur2_2,endPractice.rt,endPractice.duration,confirmResponse_2.rt,confirmResponse_2.duration,runIntervalBreak.started,runIntervalBreak.stopped,endingBreakKey.keys,endingBreakKey.rt,endingBreakKey.duration,connection.started,connection.stopped,connectionEnding.keys,connectionEnding.rt,connectionEnding.duration,readyForText.started,readyForText.stopped,textPre.started,run_dup,textPre.stopped,continuousResponses_text,textRunLoop.thisRepN,textRunLoop.thisTrialN,textRunLoop.thisN,textRunLoop.thisIndex,textRunLoop.ran,text1_1,text1_2,text2_1,text2_2,runBreakText.started,runBreakText.stopped,endingBreakKey_2.keys,endingBreakKey_2.rt,endingBreakKey_2.duration,ending.started,ending.stopped,endingEnding.keys,endingEnding.rt,endingEnding.duration
tom,0.0005,358.8672,y,358.5511,,5f58d7941af44708223b94da,2024-02-08_16h05.36.684,group3.1-3.2-social-tom,2023.2.2,Win32,60.24096386,65c5074098b851296ff0b7ed,65c5417b19dd7ea3569ed423,,,,,,,,,,,,,,,,,,,,,,,,,,,,,,,,,,,,,,,,,,,,,,,,,,,,,,,,,,,,,,,,,,,,,,,,,,,,,,,,,,,,,,,,,,,,,,,,,,,,,,,,,,
,,,,,,5f58d7941af44708223b94da,2024-02-08_16h05.36.684,group3.1-3.2-social-tom,2023.2.2,Win32,60.24096386,65c5074098b851296ff0b7ed,65c5417b19dd7ea3569ed423,358.8674,362.464,space,3.5579,,,,,,,,,,,,,,,,,,,,,,,,,,,,,,,,,,,,,,,,,,,,,,,,,,,,,,,,,,,,,,,,,,,,,,,,,,,,,,,,,,,,,,,,,,,,,,,,,,,,,,
,,,,,,5f58d7941af44708223b94da,2024-02-08_16h05.36.684,group3.1-3.2-social-tom,2023.2.2,Win32,60.24096386,65c5074098b851296ff0b7ed,65c5417b19dd7ea3569ed423,,,,,,362.4641,368.8308,space,6.0409,,,,,,,,,,,,,,,,,,,,,,,,,,,,,,,,,,,,,,,,,,,,,,,,,,,,,,,,,,,,,,,,,,,,,,,,,,,,,,,,,,,,,,,,,,,,,,,,,
,,,,,,5f58d7941af44708223b94da,2024-02-08_16h05.36.684,group3.1-3.2-social-tom,2023.2.2,Win32,60.24096386,65c5074098b851296ff0b7ed,65c5417b19dd7ea3569ed423,,,,,,,,,,,368.8392,378.9811,space,10.1187,,[],[],[],[],[],[],0,0,0,0,1,,,,,,,,,,,,,,,,,,,,,,,,,,,,,,,,,,,,,,,,,,,,,,,,,,,,,,,,,,,,,,,,,,,,,,,,,,,,,,,,
,,,,,,5f58d7941af44708223b94da,2024-02-08_16h05.36.684,group3.1-3.2-social-tom,2023.2.2,Win32,60.24096386,65c5074098b851296ff0b7ed,65c5417b19dd7ea3569ed423,,,,,,,,,,,378.9871,403.2806,space,24.2193,,[],[],[],[],[],[],1,0,1,0,1,,,,,,,,,,,,,,,,,,,,,,,,,,,,,,,,,,,,,,,,,,,,,,,,,,,,,,,,,,,,,,,,,,,,,,,,,,,,,,,,
,,,,,,5f58d7941af44708223b94da,2024-02-08_16h05.36.684,group3.1-3.2-social-tom,2023.2.2,Win32,60.24096386,65c5074098b851296ff0b7ed,65c5417b19dd7ea3569ed423,,,,,,,,,,,403.2866,427.6139,space,24.2923,,[],[],[],[],[],[],2,0,2,0,1,,,,,,,,,,,,,,,,,,,,,,,,,,,,,,,,,,,,,,,,,,,,,,,,,,,,,,,,,,,,,,,,,,,,,,,,,,,,,,,,
,,,,,,5f58d7941af44708223b94da,2024-02-08_16h05.36.684,group3.1-3.2-social-tom,2023.2.2,Win32,60.24096386,65c5074098b851296ff0b7ed,65c5417b19dd7ea3569ed423,,,,,,,,,,,427.6196,477.4972,space,49.8602,,[],[],[],[],[],[],3,0,3,0,1,,,,,,,,,,,,,,,,,,,,,,,,,,,,,,,,,,,,,,,,,,,,,,,,,,,,,,,,,,,,,,,,,,,,,,,,,,,,,,,,
,,,,,,5f58d7941af44708223b94da,2024-02-08_16h05.36.684,group3.1-3.2-social-tom,2023.2.2,Win32,60.24096386,65c5074098b851296ff0b7ed,65c5417b19dd7ea3569ed423,,,,,,,,,,,477.5031,487.3976,space,9.8695,,[],[],[],[],[],[],4,0,4,0,1,,,,,,,,,,,,,,,,,,,,,,,,,,,,,,,,,,,,,,,,,,,,,,,,,,,,,,,,,,,,,,,,,,,,,,,,,,,,,,,,
,,,,,,5f58d7941af44708223b94da,2024-02-08_16h05.36.684,group3.1-3.2-social-tom,2023.2.2,Win32,60.24096386,65c5074098b851296ff0b7ed,65c5417b19dd7ea3569ed423,,,,,,,,,,,,,,,,,,,,,,,,,,,487.4048,489.9807,489.999,1,audio/Narrative13Situation2.wav,492.0139,,492.0141,521.7811,"[[999,0],[999,100],[999,182],[999,266],[999,349],[999,432],[999,519],[999,599],[999,683],[999,766],[999,850],[999,940],[999,1019],[999,1100],[50.7,2183],[51.5,2350],[51.4,2439],[51.4,2516],[51.4,2600],[51.4,2682],[51,2766],[50.5,2850],[50.5,2932],[50.5,3016],[50.4,3100],[50.4,3182],[50.4,3266],[50.4,3349],[50.4,3439],[50.4,3519],[50.4,3600],[50.4,3683],[50.4,3766],[50.4,3849],[50.4,3939],[50.4,4016],[50.4,4100],[50.4,4182],[50.4,4266],[50.4,4350],[50.4,4432],[50.4,4516],[50.4,4599],[50.4,4683],[50.4,4767],[50.4,4849],[50.4,4932],[50.4,5016],[50.4,5099],[50.4,5183],[50.4,5266],[50.4,5349],[50.4,5432],[50.4,5520],[50.4,5600],[50.4,5683],[50.4,5766],[50.4,5849],[50.4,5939],[50.4,6016],[50.4,6099],[50.4,6182],[50.4,6266],[50.4,6350],[50.4,6432],[50.4,6520],[50.4,6600],[50.4,6683],[50.4,6766],[50.4,6850],[50.4,6932],[50.4,7016],[50.4,7099],[50.4,7182],[50.4,7266],[50.4,7350],[50.4,7432],[50.4,7516],[50.4,7600],[50.4,7682],[50.4,7766],[50.4,7850],[50.4,7939],[50.4,8019],[50.4,8100],[50.4,8182],[50.4,8266],[50.4,8349],[50.4,8432],[50.4,8520],[50.4,8599],[50.4,8682],[50.4,8766],[50.4,8849],[50.4,8932],[50.4,9019],[50.4,9099],[50.4,9183],[50.4,9266],[50.4,9349],[50.4,9432],[50.4,9516],[50.4,9599],[50.4,9683],[50.4,9766],[50.4,9850],[50.4,9939],[50.4,10016],[50.4,10099],[50.4,10187],[50.4,10267],[50.4,10350],[50.4,10434],[50.4,10517],[50.4,10600],[50.4,10683],[50.4,10774],[50.4,10853],[50.4,10932],[50.4,11016],[50.4,11099],[50.4,11182],[50.4,11269],[50.4,11349],[50.4,11433],[50.4,11516],[50.4,11599],[50.4,11682],[50.4,11766],[50.4,11849],[50.4,11932],[50.4,12016],[50.4,12099],[50.4,12182],[50.4,12268],[50.4,12349],[50.4,12432],[50.4,12517],[50.4,12599],[50.4,12682],[50.4,12766],[50.4,12849],[50.4,12932],[50.4,13016],[50.4,13099],[50.4,13187],[50.4,13266],[50.4,13349],[50.4,13432],[50.4,13516],[50.4,13606],[50.4,13687],[50.4,13768],[50.4,13849],[50.4,13932],[50.4,14016],[50.4,14099],[50.4,14182],[50.4,14268],[50.4,14350],[50.4,14433],[50.4,14516],[50.4,14599],[50.4,14682],[50.4,14768],[50.4,14849],[50.4,14932],[50.4,15016],[50.4,15106],[50.4,15183],[50.4,15266],[50.4,15349],[50.4,15432],[50.4,15516],[50.4,15599],[50.4,15682],[50.4,15766],[50.4,15849],[50.4,15932],[50.4,16016],[50.4,16099],[50.4,16183],[50.4,16268],[50.4,16350],[45.7,16433],[42.1,16516],[42.1,16606],[42.1,16682],[42.1,16766],[42.1,16851],[42.1,16933],[42.1,17016],[42.1,17099],[42.1,17182],[42.1,17266],[42.1,17349],[42.1,17432],[42.1,17516],[42.1,17599],[42.1,17687],[42.1,17766],[42.1,17849],[42.1,17932],[42.1,18016],[42.1,18106],[42.1,18182],[42.1,18266],[42.1,18349],[42.1,18433],[42.1,18516],[42.1,18599],[42.1,18682],[42.1,18766],[42.1,18849],[42.1,18933],[42.1,19016],[42.1,19099],[42.1,19183],[42.1,19266],[42.1,19349],[42.1,19433],[42.1,19516],[42.1,19599],[42.1,19682],[42.1,19766],[42.1,19849],[42.1,19932],[42.1,20016],[42.1,20099],[42.1,20182],[42.1,20266],[42.1,20349],[42.1,20432],[42.1,20516],[42.1,20599],[42.1,20682],[42.1,20766],[42.1,20849],[42.1,20933],[42.1,21016],[42.1,21107],[42.1,21182],[42.1,21266],[42.1,21350],[42.1,21432],[42.1,21516],[42.1,21599],[42.1,21682],[42.1,21766],[42.1,21849],[42.1,21933],[42.1,22016],[42.1,22099],[42.1,22182],[42.1,22266],[42.1,22349],[42.1,22432],[45.5,22517],[51.1,22601],[54.7,22687],[56.3,22766],[56.3,22849],[56.5,22932],[56.9,23017],[57,23107],[57.7,23188],[59.4,23268],[59.6,23349],[60.9,23433],[61.3,23516],[61.3,23606],[61.3,23682],[61.3,23768],[61.3,23850],[61.3,23933],[61.3,24016],[61.3,24099],[61.3,24182],[61.3,24266],[61.3,24349],[61.3,24432],[64.5,24517],[65.6,24607],[66.7,24688],[67.6,24766],[67.8,24849],[68.6,24932],[68.6,25016],[70.4,25106],[70.4,25188],[71.7,25268],[71.8,25349],[72.4,25432],[73.3,25516],[73.3,25606],[73.3,25683],[73.3,25766],[73.3,25849],[73.3,25932],[73.3,26016],[73.3,26099],[73.3,26182],[73.3,26266],[73.3,26349],[73.3,26432],[73.3,26516],[73.3,26599],[73.3,26688],[73.3,26766],[73.3,26849],[73.3,26932],[73.3,27016],[73.3,27099],[73.3,27188],[73.3,27266],[73.3,27349],[73.3,27432],[73.3,27516],[73.3,27599],[73.3,27688],[73.3,27766],[73.3,27849],[73.3,27932],[73.3,28016],[73.3,28106],[73.3,28182],[73.3,28266],[73.3,28349],[73.3,28432],[73.3,28516],[73.3,28602],[73.3,28682],[73.3,28766],[73.3,28849],[73.3,28932],[73.3,29016],[73.3,29101],[73.3,29182],[73.3,29266],[73.3,29349],[73.3,29433],[73.3,29516],[73.3,29599],[73.3,29682],[73.3,29766]]",1,0,521.7814,536.3988,63.22916667,13.4852,"[{""rating"":76.5625,""responseTime"":4.905500000000075},{""rating"":63.22916666666667,""responseTime"":13.485200000047712}]",space,14.0552,,536.399,All the time,100,536.4032,,,[],,0,0,0,0,1,audio/Narrative13Situation2.wav,audio/Narrative13Situation2.wav,audio/Narrative13Situation2.wav,audio/Narrative13Situation2.wav,2,2,2,2,,,,,,,,,,,,,,,,,,,,,,,,,,,,,,,,,,,,,,,
,,,,,,5f58d7941af44708223b94da,2024-02-08_16h05.36.684,group3.1-3.2-social-tom,2023.2.2,Win32,60.24096386,65c5074098b851296ff0b7ed,65c5417b19dd7ea3569ed423,,,,,,,,,,,,,,,,,,,,,,,,,,,,,536.4035,1,audio/Narrative7Situation1.wav,538.7474,space,538.7474,594.6337,"[[62.6,2506],[58.9,2587],[58.3,2668],[56.1,2751],[55.7,2833],[52.1,2917],[50.8,2999],[50.8,3086],[48.2,3168],[47.8,3250],[47.8,3333],[47.8,3417],[47.7,3501],[47.6,3589],[47.6,3670],[47.8,3750],[48.2,3835],[48.9,3917],[48.9,3999],[49.2,4089],[49.8,4168],[50.4,4249],[50.4,4333],[50.4,4417],[50.4,4499],[50.4,4586],[50.4,4668],[50.4,4749],[50.4,4833],[50.4,4917],[50.4,5006],[50.4,5083],[50.4,5166],[50.4,5249],[50.4,5333],[50.4,5416],[50.4,5499],[50.4,5588],[50.4,5666],[50.4,5749],[52.6,5833],[54,5917],[54,5999],[54.5,6087],[56,6168],[57.2,6249],[57.2,6333],[57.2,6416],[57.2,6506],[57.2,6582],[57.2,6666],[57.2,6749],[57.2,6833],[57.2,6916],[57.2,6999],[57.2,7083],[57.2,7166],[57.2,7249],[57.2,7333],[57.2,7416],[57.2,7499],[57.2,7586],[57.2,7666],[57.2,7749],[57.2,7833],[57.2,7917],[57.2,7999],[57.2,8083],[57.2,8167],[57.2,8249],[57.2,8333],[57.2,8417],[57.2,8499],[57.2,8587],[57.2,8666],[57.2,8749],[57.2,8833],[57.2,8916],[57.2,9006],[57.2,9083],[57.2,9166],[57.2,9249],[57.2,9333],[57.2,9416],[57.2,9499],[57.2,9583],[57.2,9666],[57.2,9749],[57.2,9833],[57.2,9916],[57.2,9999],[57.2,10082],[57.2,10166],[57.2,10249],[57.2,10333],[57.2,10417],[57.2,10499],[57.2,10583],[57.2,10668],[57.2,10749],[57.2,10833],[57.2,10916],[57.2,11006],[57.2,11087],[57.2,11167],[57.2,11249],[57.2,11333],[57.2,11416],[57.2,11506],[57.2,11587],[57.2,11669],[57.2,11749],[57.2,11833],[57.2,11917],[57.2,11999],[57.2,12088],[57.2,12167],[57.2,12249],[57.2,12333],[57.2,12416],[57.2,12499],[57.2,12583],[57.2,12666],[57.2,12749],[57.2,12833],[57.2,12916],[57.2,12999],[57.2,13083],[57.2,13166],[57.2,13249],[57.2,13333],[57.2,13416],[57.2,13499],[57.2,13583],[57.2,13666],[57.2,13750],[57.2,13833],[57.2,13916],[57.2,13999],[57.2,14083],[57.2,14166],[57.2,14249],[57.2,14333],[57.2,14416],[57.2,14506],[57.2,14583],[57.2,14666],[57.2,14750],[57.2,14833],[57.2,14916],[57.2,14999],[57.2,15083],[57.2,15167],[57.2,15249],[57.2,15333],[57.2,15416],[57.2,15499],[57.2,15582],[57.2,15667],[57.2,15750],[57.2,15833],[57.2,15916],[57.2,15999],[57.2,16083],[57.2,16166],[57.2,16249],[57.2,16333],[57.2,16416],[57.2,16499],[57.2,16583],[57.2,16666],[57.2,16749],[57.2,16833],[57.2,16917],[57.2,17006],[57.2,17087],[57.2,17166],[57.2,17249],[57.2,17333],[57.2,17417],[57.2,17499],[57.2,17587],[57.2,17666],[57.2,17750],[57.2,17833],[57.2,17916],[57.2,18006],[57.2,18083],[57.2,18166],[57.2,18249],[57.2,18332],[57.2,18417],[57.2,18506],[57.2,18583],[57.2,18666],[57.2,18749],[57.2,18833],[57.2,18916],[57.2,19006],[57.2,19082],[57.2,19167],[57.2,19249],[57.2,19333],[57.2,19417],[57.2,19499],[57.2,19587],[57.2,19666],[57.2,19749],[57.2,19833],[57.2,19916],[57.2,19999],[57.2,20083],[57.2,20166],[57.2,20249],[57.2,20333],[57.2,20416],[57.2,20499],[57.2,20583],[57.2,20666],[57.2,20749],[57.2,20833],[57.2,20916],[57.2,21006],[57.2,21083],[57.2,21168],[57.2,21249],[57.2,21333],[57.2,21416],[57.2,21507],[57.2,21583],[57.2,21666],[57.2,21750],[57.2,21833],[57.2,21916],[57.2,21999],[57.2,22087],[57.2,22166],[57.2,22249],[57.2,22333],[57.2,22417],[57.2,22506],[57.2,22583],[57.2,22668],[57.2,22750],[57.2,22833],[57.2,22916],[57.2,22999],[57.2,23083],[57.2,23166],[57.2,23249],[57.2,23333],[57.2,23417],[57.2,23499],[57.2,23583],[57.2,23668],[57.2,23749],[57.2,23833],[57.2,23917],[57.2,23999],[57.2,24083],[57.2,24166],[57.2,24249],[57.2,24333],[57.2,24416],[57.2,24499],[57.2,24583],[57.2,24666],[57.2,24749],[57.2,24833],[57.2,24916],[57.2,24999],[57.2,25083],[57.2,25166],[57.2,25249],[57.2,25333],[57.2,25416],[57.2,25499],[57.2,25583],[57.2,25666],[57.2,25749],[57.2,25833],[57.2,25916],[57.2,25999],[57.2,26083],[57.2,26166],[57.2,26250],[57.2,26332],[57.2,26416],[57.2,26499],[57.2,26583],[57.2,26668],[57.2,26751],[57.2,26839],[57.2,26921],[57.2,27001],[57.2,27083],[57.2,27167],[57.2,27251],[57.2,27334],[57.2,27418],[57.2,27500],[57.2,27583],[57.2,27667],[57.2,27757],[57.2,27838],[57.2,27918],[57.2,28000],[57.2,28084],[57.2,28166],[57.2,28257],[57.2,28338],[57.2,28418],[57.2,28500],[57.2,28583],[57.2,28667],[57.2,28757],[57.2,28839],[57.2,28918],[57.2,28999],[57.2,29083],[57.2,29167],[57.2,29257],[57.2,29338],[57.2,29419],[57.2,29500],[57.2,29583],[57.2,29667],[57.2,29756],[57.2,29833],[57.2,29918],[57.2,29999],[57.2,30083],[57.2,30167],[57.2,30249],[57.2,30333],[57.2,30418],[57.2,30499],[57.2,30583],[57.2,30666],[57.2,30756],[57.2,30838],[57.2,30916],[57.2,30999],[57.2,31083],[57.2,31166],[57.2,31249],[57.2,31337],[57.2,31416],[57.2,31499],[57.2,31583],[57.2,31667],[57.2,31749],[57.2,31838],[57.2,31917],[57.2,32000],[57.2,32083],[57.2,32166],[57.2,32249],[57.2,32337],[57.2,32417],[57.5,32500],[57.5,32583],[62.6,32667],[66.6,32757],[65.9,32833],[66.4,32918],[66.6,33000],[69.6,33084],[71.1,33166],[72.1,33257],[72.9,33337],[73.5,33418],[75.4,33500],[76.1,33583],[78.2,33668],[79,33749],[79.1,33833],[79.1,33918],[79.1,33999],[79.1,34084],[79.1,34166],[79.1,34249],[79.1,34333],[79.1,34416],[79.1,34499],[79.1,34583],[79.1,34666],[79.1,34756],[79.1,34833],[79.1,34916],[79.1,34999],[79.1,35083],[79.1,35166],[79.1,35249],[79.1,35333],[79.1,35416],[79.1,35499],[79.1,35583],[79.1,35666],[79.1,35749],[79.1,35837],[79.1,35916],[79.1,35999],[79.1,36083],[79.1,36167],[79.1,36256],[79.1,36333],[79.1,36416],[79.1,36499],[79.1,36583],[79.1,36666],[79.1,36749],[79.1,36833],[79.1,36916],[79.1,37000],[79.1,37083],[79.1,37166],[79.1,37256],[79.1,37333],[79.1,37416],[79.1,37499],[79.1,37583],[79.1,37666],[79.1,37749],[79.1,37833],[79.1,37916],[79.1,37999],[79.1,38083],[79.1,38166],[79.1,38249],[79.1,38333],[79.1,38416],[79.1,38499],[79.1,38583],[79.1,38666],[79.1,38749],[79.1,38833],[79.1,38916],[79.1,38999],[79.1,39083],[79.1,39166],[79.1,39249],[79.1,39337],[79.1,39416],[79.1,39499],[79.1,39583],[79.1,39666],[79.1,39756],[79.1,39833],[79.1,39916],[79.1,39999],[79.1,40083],[79.1,40166],[79.1,40249],[79.1,40333],[79.1,40416],[79.1,40499],[79.1,40583],[79.1,40667],[79.1,40756],[79.1,40833],[79.1,40916],[79.1,40999],[79.1,41083],[79.1,41167],[79.1,41249],[79.1,41333],[79.1,41416],[79.1,41499],[79.1,41583],[79.1,41666],[79.1,41749],[79.1,41837],[79.1,41916],[79.1,41999],[79.1,42083],[79.1,42166],[79.1,42249],[79.1,42333],[79.1,42416],[79.1,42499],[79.1,42583],[82.1,42673],[84.2,42749],[84.2,42833],[84.2,42917],[84.2,42999],[84.2,43083],[84.8,43166],[87.5,43257],[88.2,43333],[88.2,43416],[89.1,43500],[90.7,43583],[90.9,43667],[90.9,43749],[90.9,43833],[91.1,43916],[91.1,43999],[91,44083],[91,44167],[91,44249],[91,44333],[91,44416],[91,44499],[91,44583],[91,44667],[91,44756],[91,44833],[91,44916],[91,44999],[91,45083],[91,45166],[91,45249],[91,45333],[91,45416],[91,45499],[91,45583],[91,45666],[91,45756],[91,45833],[91,45916],[91,46000],[91,46083],[91,46166],[91,46249],[91,46333],[91,46416],[91,46499],[91,46582],[91,46666],[91,46756],[91,46833],[91,46916],[91,47000],[91,47083],[91,47167],[91,47249],[91,47333],[91,47416],[91,47499],[91,47583],[91,47667],[91,47750],[91,47833],[91,47918],[91,47999],[91,48083],[91,48166],[91,48249],[91,48337],[91,48417],[91,48499],[91,48583],[91,48666],[91,48749],[91,48837],[91,48916],[91,48999],[91,49083],[91,49166],[91,49249],[91,49338],[91,49418],[91,49499],[91,49583],[91,49666],[91,49749],[91,49833],[91,49916],[91,49999],[91,50083],[91,50166],[91,50249],[91,50333],[91,50416],[91,50499],[91,50583],[91,50666],[91,50749],[91,50833],[91,50916],[91,50999],[91,51083],[91,51167],[91,51249],[91,51337],[91,51416],[91,51499],[91,51583],[91,51666],[91,51749],[91,51833],[91,51916],[91,51999],[91,52083],[91,52166],[91,52249],[91,52333],[91,52416],[91,52499],[91,52583],[91,52667],[91,52749],[91,52833],[91,52916],[91,52999],[91,53083],[91,53166],[91,53256],[91,53333],[91,53418],[91,53499],[91,53583],[91,53666],[91,53749],[91,53838],[91,53916],[91,53999],[91,54083],[91,54166],[91,54249],[91,54337],[91,54416],[91,54499],[91,54583],[91,54666],[91,54749],[91,54833],[91,54916],[91,54999],[91,55083],[91,55166],[91,55249],[91,55337],[91,55416],[91,55499],[91,55583],[91,55666],[91,55749],[91,55837]]",1,0,594.634,600.2143,68.22916667,1.8897,"[{""rating"":68.22916666666666,""responseTime"":1.8896999998092952}]",space,5.0448,,600.2143,Half the time,50,600.2221,,,[],,0,1,1,1,1,audio/Narrative7Situation1.wav,audio/Narrative8Situation1.wav,audio/Narrative5Situation1.wav,audio/Narrative6Situation1.wav,2,5,5,2,2.332,,,,,,,,,,,,,,,,,,,,,,,,,,,,,,,,,,,,,,
,,,,,,5f58d7941af44708223b94da,2024-02-08_16h05.36.684,group3.1-3.2-social-tom,2023.2.2,Win32,60.24096386,65c5074098b851296ff0b7ed,65c5417b19dd7ea3569ed423,,,,,,,,,,,,,,,,,,,,,,,,,,,,,600.2222,1,audio/Narrative7Situation2.wav,603.2306,,603.2307,610.714,"[[58.8,2083],[58.8,2166],[58,2252],[55,2338],[55,2416],[55,2499],[55,2582],[55,2666],[55,2749],[55,2838],[55,2916],[55,3000],[55,3083],[58.6,3167],[60.3,3251],[62.7,3336],[64.5,3423],[64.5,3499],[64.5,3583],[64.5,3667],[64.5,3751],[64.5,3832],[64.5,3916],[64.5,3999],[64.5,4083],[64.5,4166],[64.5,4249],[64.5,4332],[64.5,4416],[64.5,4499],[64.5,4582],[64.5,4666],[64.5,4750],[64.5,4833],[64.5,4916],[64.5,4999],[64.5,5083],[64.5,5166],[64.5,5249],[64.5,5332],[64.5,5416],[64.5,5499],[64.5,5583],[64.5,5666],[64.5,5749],[64.5,5832],[64.5,5916],[64.5,5999],[64.5,6083],[64.5,6166],[64.5,6249],[64.5,6332],[64.5,6416],[64.5,6499],[64.5,6582],[64.5,6666],[64.5,6749],[64.5,6839],[64.5,6916],[64.5,6999],[64.5,7083],[64.5,7167],[64.5,7250],[64.5,7339],[64.5,7416]]",1,0,610.7141,615.1474,57.91666667,2.3722,"[{""rating"":57.91666666666666,""responseTime"":2.372200000047769}]",space,3.8874,,615.1475,Half the time,50,615.1489,,,[],,0,2,2,2,1,audio/Narrative7Situation2.wav,audio/Narrative8Situation2.wav,audio/Narrative5Situation2.wav,audio/Narrative6Situation2.wav,3,3,3,3,,,,,,,,,,,,,,,,,,,,,,,,,,,,,,,,,,,,,,,
,,,,,,5f58d7941af44708223b94da,2024-02-08_16h05.36.684,group3.1-3.2-social-tom,2023.2.2,Win32,60.24096386,65c5074098b851296ff0b7ed,65c5417b19dd7ea3569ed423,,,,,,,,,,,,,,,,,,,,,,,,,,,,,615.149,1,audio/Narrative7Situation3.wav,623.1639,,623.1639,632.414,"[[57.8,750],[57.8,835],[57.8,916],[57.8,999],[57.8,1083],[57.8,1166],[57.8,1250],[57.8,1333],[57.8,1417],[57.8,1499],[57.8,1583],[57.8,1666],[57.8,1749],[57.8,1834],[57.8,1916],[57.8,1999],[57.8,2083],[57.8,2166],[57.8,2250],[57.8,2333],[57.8,2416],[57.8,2499],[57.8,2583],[57.8,2666],[57.8,2749],[57.8,2833],[57.8,2916],[57.8,2999],[57.8,3083],[57.8,3167],[57.8,3250],[57.8,3333],[57.8,3422],[57.8,3503],[57.8,3583],[57.8,3666],[57.8,3750],[57.8,3835],[57.8,3916],[57.8,3999],[57.8,4083],[57.8,4166],[57.9,4255],[57.9,4333],[57.9,4416],[57.9,4499],[57.9,4583],[57.9,4666],[57.9,4750],[57.9,4835],[57.9,4916],[58.1,5003],[58.1,5083],[59.2,5167],[60,5250],[60,5333],[60,5416],[60,5499],[60,5583],[60,5666],[60,5750],[60,5833],[60,5916],[60,5999],[60,6083],[60,6166],[60,6250],[60,6335],[60,6416],[60.1,6500],[62,6585],[63.8,6667],[65.1,6750],[65.2,6835],[65.2,6916],[65.2,6999],[65.3,7083],[67,7167],[70,7251],[70.4,7333],[70.4,7416],[71.9,7504],[72.5,7584],[73.1,7667],[73.1,7750],[73.1,7833],[74.2,7923],[74.2,7999],[77.4,8084],[78.1,8166],[78.2,8249],[78.2,8333],[78.2,8416],[78.2,8499],[78.2,8583],[78.2,8666],[78.2,8750],[78.2,8833],[78.2,8916],[78.2,8999],[78.2,9083],[78.2,9166],[78.2,9249]]",1,0,632.4141,640.1805,71.35416667,4.9669,"[{""rating"":72.08333333333333,""responseTime"":2.3602000000475982},{""rating"":71.35416666666666,""responseTime"":4.966899999856878}]",space,7.2363,,640.1805,Half the time,50,640.1814,,,[],,0,3,3,3,1,audio/Narrative7Situation3.wav,audio/Narrative8Situation3.wav,audio/Narrative5Situation3.wav,audio/Narrative6Situation3.wav,8,4,3,5,,,,,,,,,,,,,,,,,,,,,,,,,,,,,,,,,,,,,,,
,,,,,,5f58d7941af44708223b94da,2024-02-08_16h05.36.684,group3.1-3.2-social-tom,2023.2.2,Win32,60.24096386,65c5074098b851296ff0b7ed,65c5417b19dd7ea3569ed423,,,,,,,,,,,,,,,,,,,,,,,,,,,,,640.1816,1,audio/Narrative7Situation4.wav,643.1971,,643.1972,654.918,"[[999,5],[999,83],[999,166],[999,250],[999,333],[999,416],[999,499],[999,583],[999,666],[999,750],[999,835],[999,922],[999,1002],[60.9,1084],[60.9,1166],[60.9,1250],[60.9,1333],[60.9,1416],[60.9,1499],[60.9,1583],[60.9,1666],[60.9,1750],[60.9,1835],[60.9,1916],[60.9,2001],[60.9,2083],[60.9,2166],[60.9,2249],[60.9,2333],[60.9,2416],[60.9,2499],[60.9,2583],[60.9,2666],[60.9,2749],[60.9,2834],[60.9,2923],[60.9,3004],[60.9,3085],[60.9,3166],[60.9,3251],[60.9,3333],[60.9,3418],[60.9,3506],[60.9,3583],[60.9,3666],[60.9,3750],[61.9,3835],[62.4,3922],[64.2,4003],[64.7,4083],[66.5,4167],[67.3,4249],[67.7,4335],[67.7,4416],[67.7,4499],[68.2,4583],[69.8,4667],[70.2,4750],[70.3,4836],[71.5,4922],[71.9,4999],[71.9,5083],[71.9,5166],[71.9,5250],[71.9,5333],[71.9,5422],[72,5502],[72,5583],[72,5666],[72,5750],[72,5835],[72,5916],[72,6000],[72,6083],[72,6167],[72,6250],[72,6333],[72,6416],[72,6499],[72,6583],[72,6666],[72,6750],[72,6833],[72,6922],[72,6999],[72,7083],[72,7167],[72,7250],[72,7333],[72,7416],[72,7500],[72,7583],[72,7667],[72,7750],[72,7834],[72,7923],[72,8000],[72,8083],[72,8166],[72,8250],[72,8334],[72,8418],[72,8500],[72,8588],[72,8666],[72,8750],[72,8835],[72,8916],[72,9004],[72,9083],[72,9166],[72,9250],[72,9333],[72,9416],[72,9504],[72,9586],[72,9666],[72,9750],[72,9833],[72,9918],[72,10000],[72,10090],[72,10167],[72,10249],[71.4,10336],[70.5,10418],[70.5,10500],[70.5,10583],[69.8,10670],[69.1,10751],[69.1,10833],[69,10917],[69,11001],[69,11083],[69,11166],[69,11251],[69,11333],[69,11417],[69,11499],[69,11583],[69,11672]]",1,0,654.9183,660.5973,55.9375,3.6034,"[{""rating"":55.93749999999999,""responseTime"":3.6034000000953483}]",space,5.1333,,660.5973,Half the time,50,660.5983,,,[],,0,4,4,4,1,audio/Narrative7Situation4.wav,audio/Narrative8Situation4.wav,audio/Narrative5Situation4.wav,audio/Narrative6Situation4.wav,3,3,1,2,,,,,,,,,,,,,,,,,,,,,,,,,,,,,,,,,,,,,,,
,,,,,,5f58d7941af44708223b94da,2024-02-08_16h05.36.684,group3.1-3.2-social-tom,2023.2.2,Win32,60.24096386,65c5074098b851296ff0b7ed,65c5417b19dd7ea3569ed423,,,,,,,,,,,,,,,,,,,,,,,,,,,,,660.5985,1,audio/Narrative7Situation5.wav,665.6145,,665.6146,674.1139,"[[55.9,1255],[55.9,1332],[55.9,1416],[55.8,1499],[55.8,1582],[55.8,1665],[55.8,1756],[55.8,1832],[55.8,1915],[55.8,1999],[55.8,2082],[55.8,2166],[55.8,2249],[55.8,2332],[55.8,2415],[55.8,2499],[55.8,2582],[55.8,2665],[55.8,2749],[55.8,2832],[55.8,2915],[55.8,2999],[55.8,3082],[55.8,3165],[55.8,3249],[55.9,3337],[56.4,3415],[56.4,3499],[56.4,3582],[56.4,3665],[56.4,3749],[56.4,3836],[57.3,3917],[57.3,3999],[57.6,4083],[58.1,4166],[58.1,4249],[58.1,4332],[58.1,4415],[58.1,4499],[58.1,4582],[58.1,4665],[58.1,4749],[58.1,4832],[58.1,4916],[58.1,4999],[58.1,5082],[58.1,5166],[58.1,5249],[58.1,5332],[58.1,5415],[58.1,5499],[58.1,5582],[58.1,5665],[58.1,5755],[58.1,5835],[58.1,5915],[58.1,5999],[58.1,6083],[58.2,6165],[58.8,6255],[59.1,6332],[59.1,6415],[60,6500],[60.2,6582],[60.5,6666],[60.6,6749],[61.1,6832],[61.7,6916],[61.7,6999],[61.8,7082],[61.8,7165],[61.8,7249],[61.8,7332],[61.8,7415],[61.8,7499],[61.8,7584],[61.8,7665],[61.8,7755],[61.8,7832],[61.8,7915],[61.8,7999],[61.8,8082],[61.8,8165],[61.8,8249],[61.8,8332],[61.8,8415],[61.8,8499]]",1,0,674.1139,752.3307,53.75,1.8254,"[{""rating"":53.75,""responseTime"":1.825400000095442}]",space,77.6777,,752.3308,Half the time,50,752.3377,,,[],,0,5,5,5,1,audio/Narrative7Situation5.wav,audio/Narrative8Situation5.wav,audio/Narrative5Situation5.wav,audio/Narrative6Situation5.wav,5,2,5,2,,,,,,,,,,,,,,,,,,,,,,,,,,,,,,,,,,,,,,,
,,,,,,5f58d7941af44708223b94da,2024-02-08_16h05.36.684,group3.1-3.2-social-tom,2023.2.2,Win32,60.24096386,65c5074098b851296ff0b7ed,65c5417b19dd7ea3569ed423,,,,,,,,,,,,,,,,,,,,,,,,,,,,,752.3378,1,audio/Narrative7Situation6.wav,755.3523,,755.3523,765.3473,"[[53.6,661],[53.8,745],[53.8,828],[53.8,913],[53.8,994],[53.8,1078],[53.8,1161],[53.8,1244],[53.8,1328],[53.8,1418],[53.8,1494],[53.8,1578],[53.8,1661],[53.8,1744],[53.8,1828],[53.8,1918],[53.8,1994],[53.8,2078],[53.8,2161],[53.8,2244],[53.8,2328],[53.8,2411],[53.8,2499],[53.8,2578],[53.8,2661],[53.8,2744],[53.8,2828],[53.8,2918],[53.8,2994],[53.8,3078],[53.8,3161],[53.8,3245],[54,3334],[54.4,3419],[56.3,3500],[57.3,3578],[62.1,3662],[62.2,3744],[62.2,3828],[62.5,3911],[62.5,3994],[62.5,4078],[62.8,4161],[62.8,4244],[63.2,4328],[63.3,4411],[63.6,4500],[63.9,4578],[64.7,4661],[64.9,4744],[65.4,4829],[65.6,4911],[65.6,4994],[65.6,5080],[65.4,5162],[64.2,5245],[64.2,5328],[64.2,5411],[64.2,5494],[64.2,5578],[64.2,5661],[64,5745],[63.5,5829],[63.3,5911],[63.3,6000],[63.3,6078],[63.3,6161],[63.2,6245],[63.2,6328],[63.2,6418],[63.2,6494],[63.2,6578],[63.2,6662],[63.2,6745],[63.2,6828],[63.3,6911],[63.8,7000],[63.8,7078],[63.8,7161],[63.8,7244],[63.8,7328],[62.6,7419],[61.5,7500],[61.3,7578],[60.5,7662],[60.3,7744],[60.3,7828],[60.3,7911],[60.3,7994],[60.3,8078],[59.9,8162],[59.1,8245],[59,8328],[58.2,8414],[58.1,8495],[58,8578],[58,8661],[58,8744],[58,8829],[59.8,8913],[60.5,8994],[60.7,9080],[61,9161],[61,9244],[61.4,9328],[61.5,9411],[61.9,9494],[61.9,9578],[61.9,9661],[61.9,9744],[61.6,9828],[60.6,9911],[60.6,9994]]",1,0,765.3475,769.3472,50,2.2114,"[{""rating"":50,""responseTime"":2.2114000000954093}]",space,3.4728,,769.3473,Half the time,50,769.3483,,,[],,0,6,6,6,1,audio/Narrative7Situation6.wav,audio/Narrative8Situation6.wav,audio/Narrative5Situation6.wav,audio/Narrative6Situation6.wav,3,2,3,2,,,,,,,,,,,,,,,,,,,,,,,,,,,,,,,,,,,,,,,
,,,,,,5f58d7941af44708223b94da,2024-02-08_16h05.36.684,group3.1-3.2-social-tom,2023.2.2,Win32,60.24096386,65c5074098b851296ff0b7ed,65c5417b19dd7ea3569ed423,,,,,,,,,,,,,,,,,,,,,,,,,,,,,769.3484,1,audio/Narrative7Situation7.wav,774.3639,,774.364,791.5473,"[[49.7,171],[49.7,249],[48.5,333],[48.5,416],[48.5,499],[48.5,590],[49,666],[49.2,749],[49.2,833],[49.2,916],[49.2,1000],[49.2,1083],[49.2,1166],[49.2,1249],[49.2,1333],[49.5,1417],[49.8,1499],[49.8,1583],[49.8,1666],[49.8,1750],[49.8,1833],[49.8,1917],[49.7,2000],[49.7,2090],[49.7,2166],[49.7,2249],[49.7,2333],[49.9,2417],[50,2500],[50,2583],[50.1,2671],[50.1,2752],[50.1,2833],[50.1,2917],[50.1,3000],[50.1,3083],[50.8,3172],[51.8,3255],[54.6,3336],[55.3,3417],[55.6,3501],[55.8,3584],[56,3666],[56,3753],[56.3,3833],[57.1,3919],[58.4,4000],[59.7,4085],[61.7,4172],[62.4,4252],[62.5,4333],[62.5,4416],[62.5,4500],[62.5,4583],[62.5,4671],[62.5,4749],[62.7,4833],[62.9,4916],[64.3,5000],[65.3,5086],[65.8,5166],[65.8,5251],[67.2,5341],[67.2,5421],[67.2,5501],[66,5584],[64.5,5668],[63.6,5750],[63.6,5836],[63.9,5921],[66.4,6000],[67.5,6084],[68.2,6168],[68.5,6250],[68,6339],[64.3,6419],[64.3,6500],[65.7,6583],[65.7,6667],[64.3,6752],[64.3,6833],[65.9,6919],[66.6,6999],[67.2,7083],[72.2,7168],[72.2,7250],[72.2,7334],[73.3,7423],[74.5,7503],[74.8,7585],[74.9,7667],[75.1,7752],[75.1,7835],[75.1,7916],[75.1,7999],[75.1,8083],[75.1,8166],[76.5,8251],[76.5,8333],[75.4,8422],[74.7,8500],[72.3,8584],[71,8666],[71,8749],[73.3,8835],[74.7,8916],[74.7,9002],[72.2,9084],[72.2,9167],[72.2,9252],[73.6,9334],[73.6,9417],[72.3,9501],[72.4,9583],[74.3,9672],[74.3,9753],[73.2,9836],[73.8,9917],[74.2,10000],[73.8,10089],[73.8,10166],[74.6,10249],[74.6,10333],[74.4,10417],[74.4,10499],[75.3,10589],[77.6,10670],[77.6,10749],[76.9,10833],[75,10916],[76.4,11000],[77.5,11083],[76.7,11169],[76.4,11249],[76.7,11334],[76.7,11416],[76.5,11500],[76.5,11583],[76.7,11666],[76.7,11749],[74.2,11833],[74.1,11916],[75.5,12000],[75.7,12083],[75,12170],[74.6,12249],[75.1,12333],[75.3,12416],[75,12502],[75,12583],[75.2,12666],[75.2,12749],[75.5,12833],[75.6,12917],[75.8,12999],[76.5,13083],[76.5,13166],[75.5,13250],[75.2,13333],[75.2,13416],[76.8,13500],[75.7,13590],[74.9,13666],[75.2,13750],[75.9,13833],[76.5,13917],[77.1,14000],[77.1,14083],[75.5,14169],[75.4,14249],[75.6,14333],[76,14416],[75.8,14500],[75.3,14583],[75.3,14666],[75.5,14750],[75.5,14833],[75.5,14917],[75.5,14999],[75.9,15089],[76,15166],[76,15249],[75.2,15333],[75.2,15416],[75.2,15502],[75.2,15583],[75.2,15666],[75.2,15749],[75.2,15833],[77.3,15917],[80.1,16000],[80.9,16083],[81.5,16170],[83.2,16250],[85.6,16333],[86.7,16416],[86.9,16500],[88.8,16590],[89,16666],[89.3,16749],[89.7,16833],[89.7,16916],[89.7,16999],[89.7,17089],[89.7,17166]]",1,0,791.5474,793.7305,73.64583333,1.0306,"[{""rating"":73.64583333333333,""responseTime"":1.0305999999046662}]",space,1.6401,,793.7306,Not at all,0,805.0504,0,7.303,"[{""rating"":0,""responseTime"":7.302999999999997}]",space,0,7,7,7,1,audio/Narrative7Situation7.wav,audio/Narrative8Situation7.wav,audio/Narrative5Situation7.wav,audio/Narrative6Situation7.wav,5,3,4,5,,,10.7716,,,,,,,,,,,,,,,,,,,,,,,,,,,,,,,,,,,,
,,,,,,5f58d7941af44708223b94da,2024-02-08_16h05.36.684,group3.1-3.2-social-tom,2023.2.2,Win32,60.24096386,65c5074098b851296ff0b7ed,65c5417b19dd7ea3569ed423,,,,,,,,,,,,,,,,,,,,,,,,,,,,,805.0557,1,audio/Narrative7Situation8.wav,807.0668,,807.0668,817.1139,"[[16.8,664],[19.7,748],[18.6,832],[44.3,1000],[44.3,1080],[44.7,1163],[48.8,1248],[49.2,1330],[55.9,1419],[83,1832],[89.5,1913],[87.2,1997],[86.5,2081],[84.2,2164],[84,2247],[84,2330],[84,2413],[84,2497],[84,2580],[84,2663],[84,2746],[84,2830],[84,2913],[84,2997],[83.6,3081],[83.4,3163],[83.4,3247],[83.4,3330],[83.4,3413],[83.4,3497],[83.4,3580],[83.4,3663],[83.4,3747],[83.4,3830],[83.4,3913],[83.4,3999],[83.4,4080],[83.4,4163],[83.4,4247],[83.4,4330],[83.4,4413],[83.4,4497],[83.4,4580],[83.4,4663],[83.4,4747],[83.4,4832],[83.4,4913],[83.4,4997],[83.4,5080],[83.4,5163],[83.4,5247],[83.4,5330],[83.4,5413],[83.4,5497],[83.4,5580],[83.4,5663],[83.4,5747],[83.4,5830],[83.4,5913],[83.4,5999],[83.4,6081],[83.4,6164],[83.4,6247],[83.4,6330],[83.4,6413],[83.4,6500],[83.4,6580],[83.4,6664],[83.4,6747],[83.4,6832],[84.2,6919],[84.9,7000],[85.8,7080],[85.8,7163],[85.8,7248],[85.8,7330],[85.8,7413],[85.8,7496],[88,7581],[88.8,7663],[88.8,7747],[88.8,7832],[88.8,7919],[89.8,7997],[91.4,8081],[92.2,8164],[92.7,8247],[93.3,8332],[93.5,8419],[93.6,8497],[93.9,8581],[94,8663],[94.3,8747],[94.3,8830],[94.3,8913],[94.3,8997],[94.3,9080],[94.3,9163],[94.3,9246],[94.3,9338],[94.3,9413],[94.3,9497],[94.6,9581],[94.6,9663],[94.6,9747],[94.6,9830],[94.6,9920],[93.3,9999]]",1,0,817.114,819.4312,86.04166667,1.3871,"[{""rating"":86.04166666666666,""responseTime"":1.3871000001430502}]",space,1.7952,,819.4313,Half the time,50,819.433,,,[],,0,8,8,8,1,audio/Narrative7Situation8.wav,audio/Narrative8Situation8.wav,audio/Narrative5Situation8.wav,audio/Narrative6Situation8.wav,2,3,3,5,,,,,,,,,,,,,,,,,,,,,,,,,,,,,,,,,,,,,,,
,,,,,,5f58d7941af44708223b94da,2024-02-08_16h05.36.684,group3.1-3.2-social-tom,2023.2.2,Win32,60.24096386,65c5074098b851296ff0b7ed,65c5417b19dd7ea3569ed423,,,,,,,,,,,,,,,,,,,,,,,,,,,,,819.4331,1,audio/Narrative7Situation9.wav,821.4472,,821.4473,830.0807,"[[86.4,833],[86.8,917],[89.8,1000],[89.8,1083],[89.7,1166],[87.9,1251],[86.8,1333],[87,1416],[87,1499],[87,1590],[87.1,1666],[87.6,1750],[88.4,1834],[89.1,1917],[89.1,2000],[89.2,2083],[89.9,2166],[90.2,2250],[90.6,2333],[91,2416],[91,2500],[91,2583],[91,2666],[91.1,2751],[91.1,2833],[91.1,2916],[91.1,3000],[91.1,3083],[91.1,3166],[91.1,3249],[91.1,3333],[91.1,3416],[91.1,3499],[91.3,3589],[91.5,3670],[91.5,3749],[91.8,3833],[91.9,3916],[91.9,3999],[91.9,4090],[91.9,4166],[91.9,4249],[91.9,4333],[91.9,4417],[91.9,4499],[91.9,4589],[91.9,4666],[91.9,4750],[91.9,4833],[92.2,4917],[92.5,4999],[92.7,5089],[92.7,5166],[92.7,5251],[92.7,5333],[92.3,5417],[92,5499],[92,5583],[92,5670],[92,5749],[92,5833],[92,5916],[92,5999],[92,6083],[92,6166],[92,6249],[92,6333],[92,6417],[92,6499],[92,6589],[92,6666],[92,6749],[92,6833],[92,6916],[92,6999],[92,7083],[92.2,7170],[92.2,7249],[92.4,7333],[92.7,7416],[92.8,7500],[92.8,7583],[93.3,7670],[93.9,7749],[93.9,7833],[93.9,7916],[93.9,7999],[93.9,8083],[93.9,8171],[93.9,8250],[93.2,8334],[93.2,8416],[93.2,8499],[93.2,8583]]",1,0,830.0807,832.3306,95.52083333,1.0693,"[{""rating"":95.52083333333333,""responseTime"":1.0692999999523636}]",space,1.7016,,832.3307,Half the time,50,832.3317,,,[],,0,9,9,9,1,audio/Narrative7Situation9.wav,audio/Narrative8Situation9.wav,audio/Narrative5Situation9.wav,audio/Narrative6Situation9.wav,2,3,3,4,,,,,,,,,,,,,,,,,,,,,,,,,,,,,,,,,,,,,,,
,,,,,,5f58d7941af44708223b94da,2024-02-08_16h05.36.684,group3.1-3.2-social-tom,2023.2.2,Win32,60.24096386,65c5074098b851296ff0b7ed,65c5417b19dd7ea3569ed423,,,,,,,,,,,,,,,,,,,,,,,,,,,,,832.3318,1,audio/Narrative8Situation1.wav,837.3472,,837.3472,853.2815,"[[94,4583],[86.5,4674],[81.6,4750],[68.2,4835],[61.6,5084],[54.3,5169],[46.5,5250],[46.5,5335],[46.3,5416],[46.9,5500],[47,5583],[47,5666],[47.4,5750],[43.2,5836],[30.7,5917],[30.6,6000],[30.1,6084],[20.8,6174],[15.3,6250],[14.8,6333],[8.9,6417],[5.5,6500],[5.5,6583],[5.5,6674],[5.5,6749],[5.5,6833],[5.5,6916],[5.5,6999],[5.5,7083],[5.5,7166],[5.5,7249],[5.5,7333],[5.5,7416],[5.5,7500],[5.5,7583],[5.5,7666],[5.5,7750],[5.5,7833],[5.5,7916],[5.5,8000],[5.5,8084],[5.5,8166],[5.5,8249],[5.5,8333],[5.5,8416],[5.5,8500],[5.5,8583],[5.5,8666],[5.5,8750],[5.5,8833],[5.5,8916],[5.5,9000],[5.5,9083],[5.5,9166],[5.5,9254],[5.5,9333],[5.5,9416],[5.5,9500],[5.5,9583],[5.5,9666],[5.5,9749],[5.5,9833],[5.5,9916],[5.5,9999],[5.5,10083],[5.5,10166],[5.5,10254],[5.5,10333],[5.5,10416],[5.5,10499],[5.5,10583],[5.5,10673],[5.5,10750],[5.5,10833],[5.5,10916],[5.5,10999],[5.5,11083],[5.5,11166],[5.5,11255],[5.5,11333],[5.5,11416],[5.5,11500],[5.9,11589],[6.1,11673],[6.4,11750],[6.5,11833],[6.5,11917],[7,12000],[7,12084],[7,12166],[5.6,12250],[4.7,12333],[4.7,12416],[3.6,12500],[3.6,12583],[4.3,12674],[4.6,12750],[4.8,12833],[5,12916],[7.4,13000],[7.8,13083],[7.7,13169],[6.7,13255],[4.6,13335],[4.6,13416],[4.6,13499],[4.6,13583],[4.6,13666],[4.7,13750],[4.8,13833],[5,13916],[5.4,14000],[5.4,14083],[5.4,14166],[5.5,14254],[5.5,14333],[5.5,14416],[5.5,14499],[5.2,14583],[4.8,14674],[4.4,14754],[4.4,14833],[4.4,14917],[4.4,15000],[4.4,15083],[4.4,15166],[4.4,15250],[4.4,15333],[4.4,15416],[4.6,15500],[4.6,15583],[4.6,15666],[4.4,15755],[4.2,15833],[4,15917]]",1,0,853.2817,855.2806,2.395833333,1.0399,"[{""rating"":2.3958333333333357,""responseTime"":1.039900000095372}]",space,1.46,,855.2806,All the time,100,855.2821,,,[],,0,10,10,10,1,audio/Narrative8Situation1.wav,audio/Narrative7Situation1.wav,audio/Narrative6Situation1.wav,audio/Narrative5Situation1.wav,5,2,2,5,,,,,,,,,,,,,,,,,,,,,,,,,,,,,,,,,,,,,,,
,,,,,,5f58d7941af44708223b94da,2024-02-08_16h05.36.684,group3.1-3.2-social-tom,2023.2.2,Win32,60.24096386,65c5074098b851296ff0b7ed,65c5417b19dd7ea3569ed423,,,,,,,,,,,,,,,,,,,,,,,,,,,,,855.2822,1,audio/Narrative8Situation2.wav,858.2972,,858.2972,868.4315,"[[2.3,1256],[2.3,1337],[2.3,1416],[2.3,1500],[2.4,1583],[2.4,1666],[2.4,1750],[2.4,1833],[2.4,1916],[2.4,2000],[2.6,2083],[2.6,2166],[2.6,2250],[2.6,2333],[2.8,2416],[3.3,2500],[3.4,2583],[3.4,2667],[3.3,2750],[2.6,2837],[2.1,2918],[2.4,3000],[3.2,3084],[3.6,3167],[3.9,3256],[3.9,3333],[3.8,3416],[3.8,3499],[3.1,3584],[2.7,3668],[2.6,3756],[2.8,3833],[3.8,3919],[4.9,4000],[4.9,4084],[5.3,4168],[6,4250],[6.1,4336],[6.9,4419],[7.1,4500],[7.1,4583],[6.8,4667],[5.9,4757],[5.3,4838],[4.6,4919],[4.6,5000],[5.2,5083],[5.8,5167],[6.1,5257],[6.1,5333],[6.1,5416],[5.7,5500],[5.4,5583],[5.4,5666],[6.4,5757],[6.6,5833],[6.5,5916],[6.1,6000],[5.8,6083],[5.8,6166],[5.8,6250],[5.9,6333],[6.4,6418],[6.4,6499],[6.4,6583],[6,6666],[5.6,6757],[5.6,6833],[5.6,6916],[5.6,7000],[5.6,7083],[5.6,7167],[5.6,7249],[5.6,7334],[5.9,7418],[5.9,7499],[5.9,7583],[5.9,7667],[5.1,7757],[5,7837],[5,7916],[5,8000],[5,8083],[5,8167],[5,8250],[5.5,8338],[5.5,8416],[5.5,8500],[5.3,8584],[4.8,8666],[4.7,8757],[4.7,8833],[4.7,8916],[4.7,9000],[4.7,9083],[4.9,9166],[7.6,9257],[8.8,9338],[9.4,9418],[10.2,9501],[12.1,9583],[13.4,9667],[16.6,9757],[18.6,9833],[22.4,9919],[23.4,10000],[25,10083]]",1,0,868.4316,872.4813,23.33333333,2.4163,"[{""rating"":30.104166666666664,""responseTime"":1.9640000000000555},{""rating"":23.333333333333332,""responseTime"":2.4162999999523436}]",space,3.5163,,872.4814,All the time,100,872.4824,,,[],,0,11,11,11,1,audio/Narrative8Situation2.wav,audio/Narrative7Situation2.wav,audio/Narrative6Situation2.wav,audio/Narrative5Situation2.wav,3,3,3,3,,,,,,,,,,,,,,,,,,,,,,,,,,,,,,,,,,,,,,,
,,,,,,5f58d7941af44708223b94da,2024-02-08_16h05.36.684,group3.1-3.2-social-tom,2023.2.2,Win32,60.24096386,65c5074098b851296ff0b7ed,65c5417b19dd7ea3569ed423,,,,,,,,,,,,,,,,,,,,,,,,,,,,,872.4824,1,audio/Narrative8Situation3.wav,876.4974,,876.4974,898.9006,"[[20.8,416],[21.1,500],[22,583],[22.8,671],[24.2,750],[25.7,834],[28.1,917],[30.8,1000],[32.5,1083],[34,1166],[35.4,1251],[37.4,1333],[38.5,1417],[39.9,1500],[40.9,1589],[41.9,1670],[43.2,1749],[44.5,1834],[45.5,1917],[46.4,2001],[47.8,2090],[48.5,2166],[49,2249],[49.5,2333],[50.3,2417],[50.7,2499],[51.1,2589],[51.1,2666],[51.1,2749],[51.1,2833],[51.1,2916],[51.1,2999],[52.4,3089],[53.9,3166],[54.1,3250],[54.2,3333],[54.6,3416],[54.8,3499],[54.8,3583],[54.8,3666],[54.8,3749],[54.8,3833],[55.2,3917],[55.8,4001],[56.6,4083],[56.8,4170],[57.2,4251],[57.6,4334],[58.2,4417],[58.8,4500],[59.2,4583],[59.8,4666],[60.5,4751],[61,4834],[61,4916],[61,5000],[61,5083],[61.1,5170],[58.4,5251],[57,5333],[57,5417],[57,5500],[57.7,5589],[61.6,5666],[62.1,5750],[63.8,5833],[64.5,5917],[64.7,6000],[64.9,6083],[65,6166],[65,6249],[64.5,6334],[61.1,6417],[60.4,6500],[59.4,6589],[58.3,6670],[58.1,6749],[58.1,6833],[58.4,6916],[58.4,7000],[60,7090],[63.3,7170],[63.6,7251],[65.2,7334],[65.6,7416],[65.6,7500],[65.4,7583],[62.8,7670],[62.7,7749],[62.7,7833],[63,7917],[64.6,8001],[65.2,8083],[65.2,8166],[64.4,8251],[62.5,8333],[62.5,8416],[62.5,8499],[63.3,8583],[63.9,8670],[64.5,8751],[65.2,8834],[65.4,8916],[65.4,8999],[64.7,9090],[63.1,9170],[62.3,9251],[61.7,9333],[61.5,9417],[61.5,9500],[62,9583],[62.9,9671],[63.8,9751],[64,9833],[64,9916],[62.9,10001],[61.3,10090],[61,10166],[61,10249],[62.2,10335],[62.7,10420],[63.4,10501],[63.6,10590],[63.6,10666],[62.7,10751],[62.1,10834],[62.1,10917],[63.2,11000],[64.6,11090],[64.8,11166],[64.5,11250],[63.6,11333],[64,11416],[64.6,11500],[64.3,11586],[62.9,11671],[63.1,11752],[63.2,11833],[63.2,11916],[63.6,12001],[64,12085],[64,12166],[63.9,12250],[63,12334],[63,12416],[64.4,12500],[64.5,12583],[63.5,12671],[63.4,12750],[65.1,12841],[65.2,12916],[64.9,13002],[64.3,13083],[65.5,13167],[65.5,13250],[64.9,13340],[64.5,13417],[64.9,13501],[64.9,13583],[64.9,13666],[65,13750],[65.3,13839],[65.3,13916],[63.9,14000],[65.5,14084],[66.8,14166],[66.7,14250],[64.8,14339],[65.1,14419],[65.2,14499],[64.9,14583],[64.5,14667],[66.1,14749],[64.9,14839],[64.2,14920],[64.4,14999],[64.4,15083],[63.9,15167],[64,15250],[65,15333],[65,15416],[64.7,15500],[67.1,15584],[68.5,15666],[67.2,15750],[66,15833],[66.7,15919],[66.5,16000],[66,16083],[66.5,16167],[66.5,16250],[65.6,16333],[65.6,16416],[66.5,16499],[65.8,16583],[64.6,16666],[66.1,16751],[67.5,16833],[65.4,16920],[65.5,17001],[65.7,17083],[65.7,17166],[65.7,17249],[65.9,17333],[65.7,17416],[65.6,17499],[67.2,17749],[65.1,17838],[64.1,17919],[64.1,18000],[63.9,18084],[63.3,18167],[63,18249],[62.9,18333],[63.5,18416],[63.4,18500],[63.1,18583],[63.1,18666],[64.3,18757],[63.9,18833],[62.7,18916],[62.7,18999],[63.3,19084],[64.7,19166],[63.8,19252],[63.3,19333],[63.3,19416],[63.3,19499],[61.5,19583],[59.8,19666],[61,19750],[64.3,19838],[61.9,19919],[58.2,19999],[58.9,20084],[62.6,20167],[62.6,20249],[62.6,20333],[63.4,20416],[63.4,20499],[63.4,20583],[63.1,20667],[62.4,20752],[61.7,20833],[61.7,20916],[61.7,21000],[60.8,21084],[60.8,21167],[62.5,21252],[64.8,21339],[67.3,21419],[68.8,21500],[69.5,21583],[69.5,21667],[69.5,21749],[67.6,21839],[64.6,21919],[64.2,22000],[63.1,22083],[62.8,22167],[62.8,22249],[62.8,22333]]",1,0,898.9008,901.0306,58.95833333,0.7789,"[{""rating"":58.958333333333336,""responseTime"":0.7788999998568897}]",space,1.5914,,901.0307,Not at all,0,901.0321,,,[],,0,12,12,12,1,audio/Narrative8Situation3.wav,audio/Narrative7Situation3.wav,audio/Narrative6Situation3.wav,audio/Narrative5Situation3.wav,4,8,5,3,,,,,,,,,,,,,,,,,,,,,,,,,,,,,,,,,,,,,,,
,,,,,,5f58d7941af44708223b94da,2024-02-08_16h05.36.684,group3.1-3.2-social-tom,2023.2.2,Win32,60.24096386,65c5074098b851296ff0b7ed,65c5417b19dd7ea3569ed423,,,,,,,,,,,,,,,,,,,,,,,,,,,,,901.0322,1,audio/Narrative8Situation4.wav,904.0473,,904.0473,918.2484,"[[61,2338],[61.1,2416],[61.1,2499],[61.1,2583],[61.1,2668],[61.1,2750],[61.1,2833],[61.1,2916],[61.1,3001],[60.9,3085],[60.9,3167],[61,3253],[61,3339],[61,3416],[61,3500],[61.1,3583],[61.1,3667],[61.4,3752],[61.8,3833],[61.9,3916],[61.9,4000],[61.9,4083],[61.9,4167],[61.6,4251],[61.6,4333],[61,4420],[60.9,4500],[60.9,4586],[60.9,4674],[60.9,4754],[61.3,4835],[61.5,4916],[61.5,5000],[61.5,5083],[61.5,5168],[61.4,5253],[61.3,5333],[61.1,5417],[61.1,5499],[61,5584],[60.8,5673],[60.8,5749],[60.8,5833],[60.9,5916],[61.5,5999],[62.1,6084],[62.3,6166],[62.3,6254],[61.3,6334],[61,6416],[61,6500],[61,6584],[61,6667],[61.5,6753],[61.9,6838],[61.9,6919],[61.7,7000],[60.3,7085],[60.3,7166],[60.3,7256],[60.8,7336],[60.8,7417],[60.8,7500],[60.8,7583],[60.8,7666],[60.5,7756],[60.5,7833],[60.5,7916],[60.5,7999],[61.6,8083],[62.1,8167],[62.1,8250],[59.9,8336],[59.9,8416],[60.6,8506],[61.6,8583],[61.6,8668],[61.6,8750],[61.6,8834],[61.9,8917],[61.9,9000],[61.5,9089],[61.5,9167],[61.6,9250],[61.6,9333],[61.6,9416],[61.6,9499],[61.6,9583],[61.6,9666],[61.3,9749],[61.3,9833],[62,9923],[62.3,10004],[62.3,10083],[62.3,10166],[62.3,10249],[62.6,10334],[65.4,10423],[65.9,10504],[66.8,10585],[67.7,10667],[67.7,10750],[67.7,10833],[67.7,10916],[67.7,10999],[67.7,11085],[67.7,11166],[67.7,11249],[67.7,11333],[67.7,11423],[67.7,11499],[67.7,11583],[67.4,11667],[67.4,11750],[67.4,11834],[67.4,11916],[67.3,12000],[66.8,12085],[66.3,12166],[65.8,12250],[65.6,12333],[65.6,12416],[65.6,12500],[66.5,12586],[67.8,12667],[68.4,12749],[68.5,12833],[68.6,12916],[68.6,12999],[67.7,13085],[67.4,13167],[67.1,13249],[65.8,13333],[64.9,13424],[64.8,13499],[64.4,13583],[64.1,13667],[64.1,13750],[64.4,13834],[64.8,13919],[65.9,14006],[66.5,14086],[66.9,14166]]",1,0,918.2485,956.114,57.39583333,1.4897,"[{""rating"":57.395833333333336,""responseTime"":1.4897000000477192}]",space,37.3139,,956.1141,Not at all,0,956.1211,,,[],,0,13,13,13,1,audio/Narrative8Situation4.wav,audio/Narrative7Situation4.wav,audio/Narrative6Situation4.wav,audio/Narrative5Situation4.wav,3,3,2,1,,,,,,,,,,,,,,,,,,,,,,,,,,,,,,,,,,,,,,,
,,,,,,5f58d7941af44708223b94da,2024-02-08_16h05.36.684,group3.1-3.2-social-tom,2023.2.2,Win32,60.24096386,65c5074098b851296ff0b7ed,65c5417b19dd7ea3569ed423,,,,,,,,,,,,,,,,,,,,,,,,,,,,,956.1212,1,audio/Narrative8Situation5.wav,958.1306,,958.1306,966.3647,"[[999,0],[999,83],[999,166],[999,250],[999,333],[999,416],[999,499],[999,583],[999,666],[999,750],[999,833],[999,916],[999,999],[999,1083],[999,1166],[999,1249],[999,1333],[999,1416],[999,1499],[999,1584],[55.9,1667],[59.9,1750],[60.6,1833],[60.8,1922],[67.8,2000],[85.8,2084],[85.3,2167],[76.3,2251],[76.1,2333],[75.7,2416],[75.6,2500],[78.5,2584],[85.5,2667],[85.2,2750],[85.1,2833],[85.1,2921],[85.1,2999],[85.1,3083],[85.1,3167],[85.1,3249],[85.1,3333],[85.1,3421],[84.4,3499],[84.4,3583],[84.4,3666],[84.4,3749],[84.4,3833],[84.4,3916],[84.4,4000],[82.4,4084],[78.6,4166],[78.1,4250],[78.1,4340],[78.1,4416],[78.1,4499],[78.1,4583],[78.1,4666],[78,4749],[78,4833],[78,4916],[78,5000],[78,5083],[78,5166],[78,5249],[78,5333],[73.8,5422],[72,5502],[70.6,5583],[70.4,5667],[70.4,5750],[70.4,5833],[72.7,5923],[73.6,6000],[73.6,6083],[74.1,6167],[74.6,6249],[74.6,6333],[74.6,6416],[74.6,6500],[74.6,6583],[74.6,6666],[74.6,6750],[71.3,6835],[71.3,6916],[70.8,7002],[70.8,7083],[70.8,7166],[69.8,7251],[69.7,7333],[70.4,7416],[72.4,7503],[72.4,7583],[69.9,7667],[64.8,7750],[64.8,7833],[69,7922],[70.1,7999],[70.1,8083],[70.1,8166]]",1,0,966.3648,968.5368,64.47916667,0.8109,"[{""rating"":64.47916666666667,""responseTime"":0.8108999998569288}]",space,1.6306,,968.5368,Not at all,0,968.5377,,,[],,0,14,14,14,1,audio/Narrative8Situation5.wav,audio/Narrative7Situation5.wav,audio/Narrative6Situation5.wav,audio/Narrative5Situation5.wav,2,5,2,5,,,,,,,,,,,,,,,,,,,,,,,,,,,,,,,,,,,,,,,
,,,,,,5f58d7941af44708223b94da,2024-02-08_16h05.36.684,group3.1-3.2-social-tom,2023.2.2,Win32,60.24096386,65c5074098b851296ff0b7ed,65c5417b19dd7ea3569ed423,,,,,,,,,,,,,,,,,,,,,,,,,,,,,968.5378,1,audio/Narrative8Situation6.wav,970.5527,,970.5528,977.0307,"[[64.7,494],[64.7,577],[64.7,661],[64.7,744],[64.7,827],[64.9,913],[64.9,994],[64.9,1077],[65.2,1162],[65.4,1244],[65.5,1328],[66.1,1411],[66.5,1494],[66.5,1577],[66.5,1661],[66.5,1744],[65.9,1828],[65.6,1913],[65.6,1999],[65.6,2077],[65.6,2161],[65.6,2244],[65.6,2328],[65.6,2411],[65.6,2494],[65.6,2577],[65.6,2660],[65.6,2744],[65.6,2828],[65.6,2911],[65.6,2994],[65.6,3077],[65.6,3161],[65.6,3244],[65.6,3328],[65.6,3410],[65.6,3494],[65.6,3577],[65.6,3661],[65.6,3744],[67.1,3828],[67.3,3913],[67.4,3999],[67.3,4077],[67.1,4160],[67.1,4244],[66.7,4327],[66.4,4413],[66.4,4494],[66.4,4577],[67,4662],[67.1,4744],[67.3,4827],[67.4,4912],[67.4,5000],[67.4,5077],[67.4,5161],[67.3,5244],[67.3,5328],[67.3,5410],[67.3,5494],[67.2,5577],[67.2,5660],[67.1,5744],[67,5828],[67,5911],[67,5994],[67,6077],[67,6160],[67,6244],[67,6327],[67,6411]]",1,0,977.0307,979.5806,60.625,1.3224,"[{""rating"":60.62499999999999,""responseTime"":1.3224000000952856}]",space,1.9852,,979.5806,Half the time,50,979.5823,,,[],,0,15,15,15,1,audio/Narrative8Situation6.wav,audio/Narrative7Situation6.wav,audio/Narrative6Situation6.wav,audio/Narrative5Situation6.wav,2,3,2,3,,,,,,,,,,,,,,,,,,,,,,,,,,,,,,,,,,,,,,,
,,,,,,5f58d7941af44708223b94da,2024-02-08_16h05.36.684,group3.1-3.2-social-tom,2023.2.2,Win32,60.24096386,65c5074098b851296ff0b7ed,65c5417b19dd7ea3569ed423,,,,,,,,,,,,,,,,,,,,,,,,,,,,,979.5824,1,audio/Narrative8Situation7.wav,982.5972,,982.5973,994.6973,"[[58.1,423],[57.6,504],[57.4,584],[57.4,668],[57.4,749],[57.9,834],[59.7,923],[60.6,1004],[60.6,1083],[60.6,1166],[60.8,1250],[60.9,1333],[60.9,1416],[60.9,1500],[60.9,1583],[60.7,1667],[60.7,1749],[60.7,1833],[60.7,1916],[60.7,2003],[60.6,2083],[60.4,2166],[60.4,2249],[60.4,2333],[60.4,2416],[60.4,2499],[60.5,2583],[61.4,2667],[61.9,2750],[61.9,2833],[61.3,2923],[59.3,3003],[58.5,3084],[58.5,3166],[58.5,3250],[58.5,3334],[60.4,3423],[60.6,3503],[60.9,3584],[61.5,3667],[62,3750],[62,3834],[61.1,3923],[59.6,3999],[59.6,4083],[59.8,4167],[62.7,4250],[62.7,4333],[62.7,4416],[62.7,4499],[63.2,4584],[64.5,4666],[64.5,4750],[64.5,4834],[63.8,4923],[62.8,5004],[62.3,5083],[62.2,5166],[62.2,5249],[63.3,5333],[63.3,5416],[64.5,5504],[65.1,5583],[65,5667],[63.8,5750],[63.5,5833],[63.5,5916],[63.4,6003],[62.8,6084],[62.1,6166],[62.2,6250],[66.6,6335],[66.6,6417],[65.2,6501],[62.2,6584],[62.1,6674],[62.1,6753],[62.1,6833],[62.1,6918],[65.1,7002],[65.1,7083],[62.9,7171],[62.2,7249],[62.5,7334],[62.8,7416],[63.2,7501],[63.1,7590],[61.3,7671],[60.3,7750],[60.9,7833],[62,7917],[62.6,8001],[61.6,8090],[61,8166],[61.5,8250],[64.9,8333],[64.8,8416],[62.2,8500],[62,8590],[64.7,8667],[64.9,8752],[64.2,8833],[64.3,8916],[64.9,9000],[64.2,9090],[63.4,9166],[63.8,9251],[68.1,9334],[67.5,9417],[66.7,9499],[66.9,9590],[66.9,9666],[66.7,9750],[68.6,9834],[69.7,9917],[74.7,10000],[77.7,10090],[81.4,10171],[82.5,10252],[83.6,10334],[84.4,10416],[84.4,10499],[84.4,10590],[84.3,10671],[84.3,10749],[84.3,10833],[84.3,10916],[84.3,10999],[84.3,11090],[84.3,11166],[84.3,11251],[84.3,11333],[84.3,11416],[83.6,11501],[82.3,11583],[82.3,11666],[82.3,11751],[81.8,11833],[81.8,11917],[81.4,12000],[81.4,12083]]",1,0,994.6974,996.6806,76.66666667,1.0579,"[{""rating"":73.95833333333334,""responseTime"":0.6259999999999764},{""rating"":76.66666666666666,""responseTime"":1.0578999998569998}]",space,1.4232,,996.6807,Not at all,0,996.6821,,,[],,0,16,16,16,1,audio/Narrative8Situation7.wav,audio/Narrative7Situation7.wav,audio/Narrative6Situation7.wav,audio/Narrative5Situation7.wav,3,5,5,4,,,,,,,,,,,,,,,,,,,,,,,,,,,,,,,,,,,,,,,
,,,,,,5f58d7941af44708223b94da,2024-02-08_16h05.36.684,group3.1-3.2-social-tom,2023.2.2,Win32,60.24096386,65c5074098b851296ff0b7ed,65c5417b19dd7ea3569ed423,,,,,,,,,,,,,,,,,,,,,,,,,,,,,996.6822,1,audio/Narrative8Situation8.wav,999.6973,,999.6974,1012.5651,"[[78.8,417],[78.8,499],[78,583],[78,669],[78,750],[78,833],[76.8,917],[76.4,999],[76.7,1083],[79.3,1168],[79.3,1249],[80.1,1333],[80.5,1416],[81.8,1507],[83.1,1583],[83.1,1666],[81.6,1750],[79.4,1834],[79.3,1916],[80.3,2007],[80.5,2083],[80.6,2166],[80.8,2249],[80.8,2333],[80.8,2416],[81,2500],[85.2,2587],[85.2,2666],[85.2,2749],[85.2,2833],[85.2,2916],[85.2,2999],[85.2,3083],[85.2,3166],[82.4,3250],[81.9,3333],[81.9,3416],[82.1,3500],[85.3,3583],[85.3,3667],[85.3,3749],[84.7,3833],[84.7,3917],[88.5,4007],[91.9,4091],[93.1,4166],[93.1,4249],[92.7,4333],[90.8,4417],[90.1,4499],[90,4583],[90,4666],[90,4749],[90,4833],[90,4916],[90.3,5000],[89.9,5087],[87.8,5166],[87.4,5250],[87,5334],[87.3,5417],[88.5,5499],[89,5588],[87.2,5666],[82.2,5750],[82.1,5834],[87.4,5917],[90,5999],[91.8,6087],[91.1,6167],[84.7,6250],[82.9,6333],[85.3,6417],[89.6,6499],[89.7,6587],[88,6668],[87.8,6750],[90.3,6834],[91.8,6917],[91.4,6999],[90.7,7087],[90.7,7166],[90.9,7250],[91.3,7333],[89.9,7417],[89.4,7506],[89.4,7587],[89.8,7668],[90.5,7750],[90.3,7833],[88.9,7917],[87.3,8006],[87.3,8083],[88.2,8168],[89.5,8250],[89.3,8334],[88.9,8416],[87.9,8500],[87.7,8583],[88.6,8669],[89.7,8750],[89.2,8833],[88.4,8917],[87.8,8999],[89.6,9087],[90.1,9166],[89.6,9250],[87,9333],[85.8,9417],[88,9506],[89.6,9587],[89.4,9668],[87,9750],[86.9,9833],[89.3,9917],[89.7,9999],[87.8,10087],[86.9,10168],[87.8,10250],[88.1,10333],[87.3,10417],[85.5,10506],[85.2,10583],[85.2,10666],[96.7,10750],[97.3,10833],[90.3,10917],[87.7,10999],[88.4,11087],[88.5,11166],[88.5,11249],[88.3,11333],[88.3,11416],[90.1,11507],[90.7,11587],[87.5,11666],[85.2,11750],[86.3,11833],[88.2,11917],[88.3,12006],[86,12083],[85.2,12168],[87.7,12251],[89,12333],[88.1,12417],[83.9,12507],[87.1,12587],[89.1,12668],[89.2,12750],[87,12833]]",1,0,1012.5652,1014.5817,86.5625,1.0403,"[{""rating"":86.5625,""responseTime"":1.0402999999523672}]",space,1.4602,,1014.5818,Half the time,50,1014.5835,,,[],,0,17,17,17,1,audio/Narrative8Situation8.wav,audio/Narrative7Situation8.wav,audio/Narrative6Situation8.wav,audio/Narrative5Situation8.wav,3,2,5,3,,,,,,,,,,,,,,,,,,,,,,,,,,,,,,,,,,,,,,,
,,,,,,5f58d7941af44708223b94da,2024-02-08_16h05.36.684,group3.1-3.2-social-tom,2023.2.2,Win32,60.24096386,65c5074098b851296ff0b7ed,65c5417b19dd7ea3569ed423,,,,,,,,,,,,,,,,,,,,,,,,,,,,,1014.5836,1,audio/Narrative8Situation9.wav,1017.5981,,1017.5981,1028.9317,"[[87.1,82],[87.2,170],[88,251],[87.7,333],[87,416],[87,499],[87,590],[86.9,666],[86.9,751],[87.8,832],[87.9,916],[87.8,999],[87.5,1082],[87.8,1170],[87.7,1251],[85.3,1332],[85,1415],[88.6,1499],[88.5,1589],[85.8,1671],[85.9,1751],[86.9,1832],[86.3,1915],[86.3,1999],[88.5,2084],[88.6,2165],[87.1,2251],[87,2332],[87,2416],[86.4,2500],[85.6,2589],[85.5,2671],[89.1,2751],[89.2,2833],[86.7,2916],[85.9,2999],[88.6,3082],[88.4,3171],[86.6,3252],[87.8,3333],[88.5,3416],[87.9,3499],[87.2,3582],[88.4,3665],[88.5,3749],[88.5,3832],[88.6,3916],[89.5,3999],[88.4,4090],[87.3,4165],[87.3,4250],[89.1,4332],[89.4,4415],[89.1,4500],[88.6,4582],[88.6,4665],[88.4,4751],[87.8,4832],[87.5,4916],[88.5,5000],[89.7,5082],[89.7,5170],[89.4,5249],[89.4,5333],[90.3,5417],[90.3,5499],[88.9,5584],[88.9,5665],[89,5751],[89.8,5832],[89.8,5915],[91.3,6000],[92.8,6082],[95.5,6165],[95.5,6249],[95.5,6332],[95.5,6415],[95.5,6499],[95.6,6582],[95.9,6665],[96.1,6749],[96.3,6832],[96.3,6915],[96.3,6999],[96.3,7082],[96.3,7171],[96.3,7249],[96.3,7332],[96.5,7415],[97.1,7499],[97.1,7582],[97.1,7665],[97.1,7749],[97.1,7832],[97.1,7915],[97.1,7999],[97.1,8082],[97,8170],[96.6,8251],[95.6,8333],[95.2,8415],[94.9,8500],[94.2,8582],[93.2,8671],[93.1,8749],[93.1,8832],[93.8,8916],[94.4,9000],[95,9090],[95.1,9165],[95.1,9251],[95.1,9332],[94.4,9416],[92.9,9500],[92.9,9582],[93.4,9671],[94.7,9752],[94.9,9832],[94.9,9915],[94.9,9999],[94,10084],[93.9,10165],[93.9,10249],[93.9,10332],[93.9,10416],[94,10499],[94.2,10582],[94.2,10666],[94.3,10750],[94.3,10833],[94.3,10916],[94.3,11001],[94.2,11082],[91.8,11169],[91.8,11249],[91.8,11333]]",1,0,1028.9319,1030.6648,92.91666667,0.704,"[{""rating"":92.91666666666667,""responseTime"":0.7039999999999509}]",space,1.1922,,1030.6648,All the time,100,1030.6666,,,[],,0,18,18,18,1,audio/Narrative8Situation9.wav,audio/Narrative7Situation9.wav,audio/Narrative6Situation9.wav,audio/Narrative5Situation9.wav,3,2,4,3,,,,,,,,,,,,,,,,,,,,,,,,,,,,,,,,,,,,,,,
,,,,,,5f58d7941af44708223b94da,2024-02-08_16h05.36.684,group3.1-3.2-social-tom,2023.2.2,Win32,60.24096386,65c5074098b851296ff0b7ed,65c5417b19dd7ea3569ed423,,,,,,,,,,,,,,,,,,,,,,,,,,,1033.482,1036.0639,1036.0719,2,audio/Narrative13Situation2.wav,1036.072,,1036.072,1065.8325,"[[76.4,826],[2.8,1415],[2.4,1496],[1.8,1576],[1.8,1658],[1.8,1741],[1.8,1825],[1.8,1908],[1.8,1991],[1.8,2075],[1.8,2158],[1.8,2242],[1.8,2325],[1.8,2408],[1.8,2491],[1.8,2575],[1.8,2659],[1.8,2741],[1.8,2825],[1.8,2908],[1.8,2991],[1.8,3075],[1.8,3158],[1.8,3242],[1.8,3326],[1.8,3408],[1.8,3491],[1.8,3575],[1.8,3658],[1.8,3741],[1.8,3826],[1.8,3908],[1.8,3991],[1.8,4075],[1.8,4158],[1.8,4241],[1.8,4326],[1.8,4408],[1.8,4496],[1.8,4575],[1.8,4658],[1.8,4741],[1.8,4825],[1.8,4908],[1.8,4997],[1.8,5075],[1.8,5158],[1.8,5241],[1.9,5325],[2.2,5408],[2.2,5491],[2.2,5575],[2.2,5658],[2.2,5741],[2.2,5825],[2.2,5908],[2.2,5996],[2.2,6075],[2.2,6158],[2.2,6241],[2.2,6325],[2.2,6408],[2.2,6491],[2.2,6577],[2.2,6658],[2.2,6741],[2.2,6825],[2.2,6908],[2.2,6991],[2.2,7075],[2.2,7158],[2.2,7242],[2.2,7325],[2.2,7415],[2.2,7491],[2.2,7575],[2.2,7658],[2.2,7741],[2.2,7825],[2.2,7908],[2.2,7991],[2.2,8075],[2.2,8158],[2.2,8241],[2.2,8325],[2.2,8408],[2.2,8491],[2.2,8575],[2.2,8658],[2.2,8741],[2.2,8825],[2.2,8908],[2.2,8996],[2.2,9075],[2.2,9158],[2.2,9241],[2.2,9325],[2.2,9415],[2.2,9491],[2.2,9575],[2.2,9658],[2.2,9741],[2.2,9825],[2.2,9915],[2.2,9991],[2.2,10075],[2.2,10158],[2.2,10241],[2.2,10326],[2.2,10408],[2.2,10491],[2.2,10575],[2.2,10658],[2.2,10741],[2.2,10825],[2.2,10908],[2.2,10991],[2.2,11077],[2.2,11158],[2.2,11241],[2.2,11325],[2.2,11408],[2.2,11491],[2.2,11575],[2.1,11659],[2,11742],[2,11825],[1.5,11916],[1.5,11991],[1.5,12075],[1.5,12158],[1.5,12242],[1.6,12325],[1.6,12408],[1.7,12491],[1.7,12575],[1.7,12659],[1.7,12741],[1.7,12825],[1.7,12908],[1.7,12991],[1.7,13075],[1.7,13158],[1.7,13241],[1.7,13325],[1.7,13408],[1.7,13491],[1.7,13575],[1.7,13658],[1.7,13742],[1.7,13825],[1.7,13915],[1.7,13991],[1.7,14075],[1.7,14158],[1.7,14241],[1.7,14325],[1.7,14408],[1.7,14491],[1.7,14575],[1.8,14658],[1.9,14742],[1.9,14825],[1.9,14908],[1.9,14991],[1.9,15075],[1.9,15159],[1.9,15241],[1.9,15325],[1.9,15408],[1.9,15491],[1.9,15575],[1.9,15658],[1.9,15741],[1.9,15826],[1.9,15908],[1.9,15991],[1.9,16075],[1.9,16159],[1.9,16241],[1.9,16325],[1.9,16408],[1.9,16491],[1.9,16575],[1.9,16658],[1.9,16741],[1.9,16825],[1.9,16916],[1.9,16991],[1.9,17075],[1.9,17158],[1.9,17241],[1.9,17325],[1.9,17408],[1.9,17491],[1.9,17575],[1.9,17658],[1.9,17741],[1.9,17825],[1.9,17908],[1.9,17991],[1.9,18075],[1.9,18158],[1.9,18241],[1.9,18325],[1.8,18408],[1.8,18491],[1.8,18575],[1.8,18658],[1.8,18741],[1.8,18825],[1.8,18908],[1.8,18991],[1.8,19077],[1.8,19158],[1.8,19241],[1.8,19325],[1.8,19408],[1.8,19496],[1.8,19575],[1.8,19658],[1.8,19741],[1.8,19826],[1.8,19908],[1.8,19991],[1.8,20075],[1.8,20159],[1.8,20241],[1.7,20325],[1.6,20415],[1.6,20496],[1.6,20575],[1.6,20658],[1.6,20741],[1.6,20825],[1.6,20908],[1.6,20991],[1.6,21075],[1.6,21158],[1.6,21241],[1.6,21325],[1.6,21411],[1.6,21491],[1.6,21577],[1.6,21658],[1.6,21741],[1.7,21826],[2,21908],[2.2,21996],[2.2,22075],[2.5,22159],[2.8,22242],[4.1,22326],[7.1,22411],[8.9,22498],[9.1,22575],[9.4,22659],[9.6,22741],[10.3,22826],[10.9,22908],[11.9,22997],[12.9,23075],[14,23159],[14.1,23242],[14.4,23326],[15,23416],[15.4,23497],[15.4,23575],[16.8,23659],[12.4,23742],[11.4,23825],[11.4,23915],[11.4,23991],[11.4,24077],[11.3,24159],[11.5,24242],[14.3,24326],[16.4,24416],[16.4,24496],[16.4,24575],[16.4,24658],[16.4,24741],[16.4,24825],[16.4,24916],[16.4,24991],[16.4,25077],[16.9,25159],[17.7,25241],[17.7,25325],[17.7,25416],[17.8,25491],[17.8,25577],[17.8,25658],[17.8,25741],[17.8,25825],[17.8,25908],[17.8,25991],[17.8,26075],[17.8,26159],[17.9,26242],[17.9,26325],[17.9,26415],[17.9,26491],[17.9,26575],[17.9,26658],[18.1,26742],[18.2,26826],[18.2,26908],[18.2,26991],[18.2,27075],[18.2,27158],[18.3,27242],[18.4,27325],[18.5,27408],[19.1,27492],[19.4,27575],[19.4,27658],[19.6,27742],[20.2,27825],[20.7,27911],[21.9,27997],[22.6,28075],[22.8,28159],[23.2,28242],[24.1,28326],[25.3,28410],[27.1,28491],[27.9,28577],[28,28658],[28,28741],[28,28825],[28,28908],[28,28997],[28.2,29075],[31,29159],[32.5,29242],[32.6,29325],[32.6,29408],[32.6,29491],[33.4,29577],[34.1,29664],[34.5,29745]]",1,0,1065.8329,1065.8344,,,[],,,,1065.8344,Half the time,50,1065.8361,,,[],,0,0,0,0,1,audio/Narrative13Situation2.wav,audio/Narrative13Situation2.wav,audio/Narrative13Situation2.wav,audio/Narrative13Situation2.wav,2,2,2,2,,,,,1030.6672,1033.4818,space,2.2837,,,,,,,,,,,,,,,,,,,,,,,,,,,,,,,
,,,,,,5f58d7941af44708223b94da,2024-02-08_16h05.36.684,group3.1-3.2-social-tom,2023.2.2,Win32,60.24096386,65c5074098b851296ff0b7ed,65c5417b19dd7ea3569ed423,,,,,,,,,,,,,,,,,,,,,,,,,,,,,1065.8363,2,audio/Narrative5Situation1.wav,1070.8473,,1070.8473,1084.1306,"[[999,5],[999,84],[999,167],[999,257],[999,333],[999,416],[999,499],[999,583],[999,666],[999,750],[999,833],[999,918],[999,1000],[999,1083],[999,1167],[34.4,1257],[29.5,1333],[10,1752],[9.7,1833],[9.6,1916],[1.4,2000],[1.4,2083],[1.4,2166],[1.4,2249],[1.4,2333],[1.3,2416],[1.3,2500],[1.3,2583],[1.3,2667],[1.3,2749],[1.3,2833],[1.3,2916],[1.3,2999],[1.3,3083],[1.3,3166],[1.3,3249],[1.3,3333],[1.3,3416],[1.3,3500],[1.3,3583],[1.3,3667],[1.3,3749],[1.3,3833],[1.3,3916],[1.3,4000],[1.3,4083],[1.3,4166],[1.3,4250],[1.3,4333],[1.3,4416],[1.6,4501],[1.8,4583],[2.1,4667],[4.1,4757],[4.1,4833],[5.2,4918],[6.6,4999],[6.9,5084],[7.1,5166],[7.1,5249],[7.1,5333],[7.1,5416],[7.1,5499],[7.1,5584],[7.1,5667],[7.1,5749],[7.1,5833],[7.1,5916],[7.1,5999],[7.1,6083],[9.6,6167],[10.5,6252],[17.7,6338],[20.6,6416],[20.9,6500],[22.2,6583],[23.5,6667],[25.8,6752],[27.1,6833],[28.2,6916],[29.8,7000],[30.2,7083],[30.5,7167],[30.6,7252],[33.6,7333],[37.7,7419],[43.6,7500],[55.4,8167],[55.4,8250],[55.4,8338],[55.4,8416],[55.4,8500],[55.4,8583],[55.4,8666],[55.4,8749],[55.4,8833],[55.4,8919],[55.4,8999],[55.4,9083],[55.4,9166],[55.4,9257],[55.4,9333],[55.4,9416],[55.7,9500],[56.3,9583],[56.3,9667],[56.6,9749],[57,9833],[57.7,9916],[57.7,9999],[57.7,10083],[57.7,10167],[57.7,10249],[57.7,10338],[57.7,10416],[57.7,10500],[57.9,10583],[59.4,10667],[62.8,10752],[62.8,10833],[62.8,10916],[63.4,11000],[63.4,11083],[63.9,11167],[64.3,11250],[64.7,11338],[65,11416],[65.5,11500],[66.1,11584],[66.9,11667],[69.2,11752],[69.5,11838],[69.8,11916],[69.8,11999],[69.8,12083],[69.8,12166],[70.4,12257],[70.4,12333],[70.7,12419],[70.7,12499],[70.7,12583],[70.7,12667],[70.7,12749],[70.7,12838],[70.7,12920],[70.7,12999],[70.7,13083],[70.7,13166],[70.7,13249]]",1,0,1084.1307,1087.8639,51.45833333,1.5639,"[{""rating"":51.45833333333333,""responseTime"":1.563899999856858}]",space,3.1937,,1087.864,Not at all,0,1087.8656,,,[],,0,1,1,1,1,audio/Narrative7Situation1.wav,audio/Narrative8Situation1.wav,audio/Narrative5Situation1.wav,audio/Narrative6Situation1.wav,2,5,5,2,,,,,,,,,,,,,,,,,,,,,,,,,,,,,,,,,,,,,,,
,,,,,,5f58d7941af44708223b94da,2024-02-08_16h05.36.684,group3.1-3.2-social-tom,2023.2.2,Win32,60.24096386,65c5074098b851296ff0b7ed,65c5417b19dd7ea3569ed423,,,,,,,,,,,,,,,,,,,,,,,,,,,,,1087.8657,2,audio/Narrative5Situation2.wav,1090.8805,,1090.8805,1120.3308,"[[52,1167],[52.6,1250],[53.4,1338],[53.6,1416],[53.6,1500],[53.6,1583],[54.2,1667],[54.4,1750],[54.4,1833],[54.4,1916],[54.4,2000],[58.9,2084],[59.6,2167],[62,2257],[62.7,2333],[62.7,2416],[62.7,2500],[62.9,2583],[62.9,2667],[62.6,2757],[61.8,2838],[61,2919],[60.4,3000],[59.9,3083],[59.8,3167],[59.8,3250],[59.8,3333],[59.8,3418],[59.8,3500],[64.9,3584],[66.8,3667],[68.3,3757],[70,3837],[70.1,3916],[70.1,4000],[70.1,4083],[67.5,4167],[65.4,4250],[63.1,4338],[61.4,4418],[61.3,4500],[63,4584],[64.9,4667],[66.9,4757],[67.7,4838],[67.7,4916],[67.3,5000],[66.4,5084],[65.3,5167],[63.9,5257],[63.5,5338],[63,5416],[62.6,5500],[61.9,5584],[61.9,5666],[62.9,5757],[65.2,5838],[66.4,5917],[67.1,6000],[67.1,6083],[64,6167],[62.6,6250],[61.5,6338],[61.5,6416],[61.5,6500],[61.7,6584],[62.5,6667],[63.2,6757],[63.3,6833],[63.9,6917],[64.1,7000],[64.6,7084],[64.8,7167],[64.6,7257],[61.7,7338],[61.6,7416],[61,7500],[60.4,7584],[60.4,7667],[60.4,7757],[61.3,7837],[63,7918],[64.7,8000],[66.8,8084],[69.1,8167],[70.7,8252],[71.7,8338],[72,8418],[72,8500],[72,8583],[72,8666],[71.6,8757],[70.8,8838],[70.3,8919],[69.5,9000],[69.5,9083],[69.5,9167],[70.2,9257],[72.6,9338],[73.3,9419],[73.4,9500],[73.4,9583],[71.4,9667],[71.1,9750],[71,9833],[71,9916],[71.6,10000],[73.4,10084],[75,10167],[75.4,10250],[75.4,10333],[75.4,10416],[75.2,10500],[74.2,10584],[74.2,10666],[74.2,10757],[74.7,10838],[75.4,10919],[75.4,11000],[74.5,11084],[73.6,11167],[73.4,11257],[73.4,11333],[73.5,11416],[73.9,11500],[74.5,11584],[75.3,11667],[75.8,11750],[75.8,11833],[75.8,11916],[74.6,12001],[74.3,12083],[74.2,12166],[74.2,12250],[75,12337],[76.5,12419],[76.5,12500],[76.4,12583],[75.7,12666],[74.5,12757],[74.2,12833],[74.2,12916],[74.6,13000],[74.9,13083],[75.2,13167],[76.9,13252],[78.6,13339],[78.6,13416],[78.6,13500],[76.4,13584],[75.1,13667],[75.1,13757],[75.1,13833],[75.1,13918],[74.4,14000],[74,14083],[73.9,14167],[73.6,14250],[73.6,14333],[73.6,14416],[74,14500],[76,14584],[76.7,14667],[78,14757],[78.8,14838],[78.8,14916],[79.5,15000],[80.3,15084],[82,15167],[84.9,15257],[86.7,15338],[87.7,15419],[88.2,15500],[89.2,15584],[89.7,15667],[90.2,15757],[90.5,15833],[90.8,15916],[90.8,16000],[90.8,16083],[90.8,16166],[90.8,16257],[91.1,16333],[92.7,16418],[92.7,16500],[92.7,16584],[92.7,16666],[92.6,16750],[92.5,16833],[92,16919],[91.7,17000],[90.6,17084],[90.4,17166],[90.4,17257],[90.4,17333],[90.4,17416],[90.7,17500],[91,17583],[91.4,17667],[91.4,17750],[91,17833],[89.4,17919],[89.2,18000],[87.9,18084],[87.3,18166],[87.3,18250],[87.6,18338],[87.9,18416],[87.9,18500],[88,18584],[88,18667],[88,18750],[88,18833],[88.2,18919],[88.3,19000],[88.3,19083],[89.1,19167],[89.1,19250],[89.7,19338],[89.7,19416],[89.7,19500],[89.7,19583],[89.7,19667],[88.9,19750],[88.5,19833],[88.3,19918],[88.3,20000],[88.3,20083],[88.5,20167],[88.9,20250],[88.9,20333],[89.1,20418],[89.3,20500],[89.4,20583],[89.4,20667],[89.1,20757],[88.9,20833],[88.6,20919],[87.7,21001],[87.4,21083],[87.4,21166],[87.8,21250],[88.9,21338],[89.6,21419],[90,21500],[90.7,21584],[91.1,21667],[91.1,21750],[89.3,21838],[88.8,21916],[87.9,22000],[86.6,22084],[85.1,22167],[85,22257],[85.4,22338],[86.3,22416],[87.8,22500],[88.1,22583],[88.1,22667],[88.2,22757],[88.2,22838],[88.3,22918],[88.8,23000],[88.8,23083],[88.8,23167],[88.2,23250],[87.4,23333],[86.8,23418],[86.8,23500],[86.8,23583],[86.6,23666],[86.1,23750],[86.1,23833],[86.1,23916],[86.1,24000],[86.1,24083],[86.1,24167],[86.1,24257],[87.1,24338],[88.3,24419],[89.9,24500],[91.1,24584],[92.5,24667],[95.4,24757],[96.4,24833],[96.4,24916],[96.9,25000],[97.7,25084],[97.7,25167],[97.7,25250],[97.7,25333],[98.1,25419],[98.3,25500],[98.3,25583],[98.3,25666],[98.3,25756],[98.3,25833],[98.3,25916],[98.3,26000],[98.3,26083],[98.3,26167],[98.3,26250],[98.3,26333],[98.3,26416],[98.3,26500],[98.3,26583],[98.3,26667],[98.3,26750],[98.3,26833],[98.3,26918],[98.3,27000],[98.3,27083],[98.3,27166],[98.3,27250],[98.3,27335],[98.3,27416],[98.3,27500],[98.3,27583],[98.3,27666],[98.3,27750],[98.3,27833],[98.2,27916],[98.2,28000],[98.2,28083],[98.2,28167],[98.2,28257],[98.2,28333],[97.9,28418],[97.5,28500],[97.4,28583],[97.2,28666],[97.2,28757],[97.2,28833],[97.2,28918],[97.2,29000],[97.2,29083],[97.2,29167],[97.2,29250],[97.2,29333],[97.2,29416]]",1,0,1120.3309,1122.214,85,1.0881,"[{""rating"":85,""responseTime"":1.0880999999046708}]",space,1.34,,1122.214,All the time,100,1122.2157,,,[],,0,2,2,2,1,audio/Narrative7Situation2.wav,audio/Narrative8Situation2.wav,audio/Narrative5Situation2.wav,audio/Narrative6Situation2.wav,3,3,3,3,,,,,,,,,,,,,,,,,,,,,,,,,,,,,,,,,,,,,,,
,,,,,,5f58d7941af44708223b94da,2024-02-08_16h05.36.684,group3.1-3.2-social-tom,2023.2.2,Win32,60.24096386,65c5074098b851296ff0b7ed,65c5417b19dd7ea3569ed423,,,,,,,,,,,,,,,,,,,,,,,,,,,,,1122.2158,2,audio/Narrative5Situation3.wav,1125.2306,,1125.2307,1139.1541,"[[85.1,583],[86,667],[88.5,750],[89.2,833],[89.6,924],[90.6,1005],[91.8,1085],[92.2,1166],[94,1250],[94.7,1334],[95.3,1416],[95.7,1504],[95.9,1585],[95.9,1666],[95.9,1750],[95.9,1833],[95.9,1916],[95.9,2004],[95.9,2083],[95.9,2166],[96,2250],[96,2333],[96,2423],[96.5,2504],[96.5,2584],[96.5,2666],[96.5,2749],[96.5,2833],[96.6,2923],[96.6,2999],[96.8,3083],[96.8,3166],[96.8,3249],[96.8,3333],[96.8,3416],[96.8,3500],[96.8,3583],[96.8,3666],[96.8,3749],[96.8,3834],[96.8,3916],[96.8,3999],[96.8,4083],[96.8,4166],[96.8,4249],[96.8,4333],[96.8,4416],[96.8,4500],[96.8,4583],[96.9,4666],[97.3,4750],[97.6,4833],[97.6,4916],[97.6,4999],[97.6,5083],[97.6,5167],[97.6,5249],[97.6,5333],[97.6,5416],[97.6,5499],[97.6,5583],[97.5,5666],[97.4,5750],[97.4,5833],[97.2,5923],[97.2,6004],[97.2,6084],[97.3,6167],[97.4,6250],[97.6,6333],[97.7,6423],[97.7,6499],[97.7,6584],[97.7,6666],[97.7,6750],[97.7,6833],[97.7,6923],[97.7,6999],[97.7,7083],[97.7,7166],[97.7,7249],[97.7,7333],[97.7,7416],[97.7,7499],[97.7,7584],[97.7,7666],[97.7,7749],[97.7,7833],[97.7,7916],[97.7,7999],[97.7,8083],[97.7,8166],[97.7,8249],[97.7,8333],[97.7,8416],[97.7,8499],[97.7,8583],[97.7,8666],[97.7,8749],[97.7,8834],[97.7,8916],[97.5,9004],[97.5,9083],[97.4,9167],[96.9,9250],[96.8,9334],[96.8,9416],[96.8,9499],[96.8,9583],[96.8,9666],[96.8,9749],[97.1,9833],[97.5,9923],[97.6,9999],[97.6,10083],[97.6,10166],[97.6,10249],[97.6,10333],[97.6,10423],[97.5,10504],[97.5,10583],[97.5,10667],[97.5,10749],[97.5,10833],[97.7,10923],[97.8,10999],[98.3,11085],[98.4,11166],[98.4,11249],[98.4,11333],[98.4,11416],[98.4,11504],[98.3,11585],[98.3,11666],[98.3,11749],[98.3,11833],[98.1,11924],[97.9,12004],[97.9,12083],[97.9,12166],[97.9,12249],[98.1,12333],[98.3,12423],[98.3,12499],[98.3,12583],[98,12667],[97.9,12750],[97.9,12833],[97.9,12916],[97.9,13004],[97.9,13083],[97.9,13166],[97.9,13250],[98.1,13333],[98.2,13416],[98.2,13499],[98.2,13583],[98.2,13666],[98.2,13749],[98.2,13833],[98.2,13923]]",1,0,1139.1543,1141.4806,95.72916667,1.2033,"[{""rating"":95.72916666666667,""responseTime"":1.2032999999523781}]",space,1.7832,,1141.4806,Half the time,50,1141.4822,,,[],,0,3,3,3,1,audio/Narrative7Situation3.wav,audio/Narrative8Situation3.wav,audio/Narrative5Situation3.wav,audio/Narrative6Situation3.wav,8,4,3,5,,,,,,,,,,,,,,,,,,,,,,,,,,,,,,,,,,,,,,,
,,,,,,5f58d7941af44708223b94da,2024-02-08_16h05.36.684,group3.1-3.2-social-tom,2023.2.2,Win32,60.24096386,65c5074098b851296ff0b7ed,65c5417b19dd7ea3569ed423,,,,,,,,,,,,,,,,,,,,,,,,,,,,,1141.4823,2,audio/Narrative5Situation4.wav,1142.4972,,1142.4973,1162.8974,"[[95.9,666],[95.9,749],[95.9,833],[95.9,917],[95.9,999],[95.9,1083],[95.9,1166],[96.1,1253],[96.4,1333],[96.6,1417],[97,1501],[97,1583],[97,1673],[97.2,1750],[97.3,1833],[97.3,1916],[97.3,2000],[97.3,2083],[97.2,2173],[97,2254],[96.6,2334],[96.6,2416],[96.6,2499],[96.6,2583],[96.6,2666],[96.6,2754],[96.3,2835],[96.3,2916],[96.3,3000],[96.7,3083],[97,3173],[97.3,3249],[97.3,3334],[97.3,3417],[97.3,3500],[97.3,3583],[97.3,3673],[97.3,3753],[97.3,3834],[97.1,3916],[97.1,3999],[97.1,4083],[97.1,4166],[97.1,4249],[97.1,4333],[97.1,4416],[97.1,4499],[97.1,4583],[97.1,4673],[97.1,4749],[97.3,4833],[97.3,4916],[97.3,5000],[97.3,5083],[97.3,5166],[97.3,5254],[97.3,5333],[97.3,5416],[97.1,5500],[97.1,5584],[97.1,5673],[97.1,5750],[97.1,5837],[97.1,5918],[97.4,6000],[97.5,6085],[97.7,6167],[97.7,6250],[97.7,6333],[97.7,6418],[97.3,6500],[96.7,6584],[96.6,6666],[96.6,6749],[96.6,6833],[97,6917],[97.6,7001],[97.6,7083],[97.6,7166],[97.6,7249],[97.4,7335],[97.2,7416],[97.1,7499],[96.9,7583],[96.9,7666],[96.9,7750],[96.9,7835],[96.9,7916],[96.9,8000],[97.1,8084],[97.3,8174],[97.3,8250],[97.3,8337],[97.3,8417],[97.3,8500],[97.2,8584],[97.2,8668],[97.2,8751],[97.2,8833],[96.8,8921],[96.8,9000],[96.8,9084],[96.8,9167],[96.8,9250],[96.8,9333],[96.5,9421],[96.1,9500],[96.1,9583],[96,9668],[96,9750],[96,9833],[96,9916],[96.4,10000],[97,10084],[97.1,10167],[97.1,10251],[97.1,10334],[97.1,10424],[97.1,10500],[96.7,10583],[96.3,10667],[95.9,10752],[95.2,10835],[95.2,10916],[95.2,10999],[95.2,11083],[95.3,11166],[95.7,11251],[96.3,11334],[96.3,11416],[96.4,11499],[96.5,11583],[96.5,11667],[96.5,11749],[96,11834],[95.3,11923],[95.2,12000],[95.1,12085],[94.5,12168],[94.5,12250],[94.5,12334],[94.5,12417],[95.1,12507],[95.6,12590],[96.1,12672],[96.4,12752],[96.5,12833],[96.5,12918],[96.4,13000],[95.9,13086],[95.7,13167],[95.2,13250],[95.2,13334],[95.2,13418],[95.2,13505],[95.4,13586],[96.3,13667],[97.3,13750],[97.3,13833],[97.3,13918],[97.3,13999],[97.2,14086],[96.9,14173],[96.6,14254],[96.4,14334],[96.4,14417],[96.4,14501],[96.6,14585],[97,14669],[97.6,14752],[97.7,14833],[97.7,14916],[97.7,14999],[97.5,15085],[96.8,15172],[96.4,15252],[95.8,15334],[95.8,15416],[95.8,15500],[96.5,15591],[97.1,15671],[97.2,15752],[97.7,15834],[97.7,15917],[97.7,16000],[97.2,16090],[96.7,16171],[96.7,16249],[96.7,16333],[96.7,16416],[97,16500],[97.4,16583],[97.5,16671],[97.5,16751],[97.6,16833],[98,16917],[98.4,17000],[98.4,17090],[98.2,17171],[97.4,17252],[96.9,17333],[96.4,17416],[95.9,17501],[95.9,17590],[95.7,17666],[95.7,17749],[96.1,17833],[97,17916],[97.3,17999],[97.4,18083],[97.4,18170],[97.4,18249],[96.9,18334],[96.3,18417],[95.8,18500],[95.6,18590],[95.6,18666],[95.6,18751],[95.6,18833],[95.6,18917],[95.6,19000],[95.6,19083],[95.6,19166],[93.5,19251],[93.5,19333],[93.5,19416],[95.1,19501],[96.4,19583],[96.4,19666],[96.4,19749],[96.4,19833],[96.4,19916],[96.4,20000],[96.4,20090],[95.8,20171],[95.8,20249],[95.8,20333]]",1,0,1162.8975,1165.1042,97.29166667,1.0387,"[{""rating"":97.29166666666667,""responseTime"":1.038700000047811}]",space,1.6741,,1165.1043,Half the time,50,1165.1053,,,[],,0,4,4,4,1,audio/Narrative7Situation4.wav,audio/Narrative8Situation4.wav,audio/Narrative5Situation4.wav,audio/Narrative6Situation4.wav,3,3,1,2,,,,,,,,,,,,,,,,,,,,,,,,,,,,,,,,,,,,,,,
,,,,,,5f58d7941af44708223b94da,2024-02-08_16h05.36.684,group3.1-3.2-social-tom,2023.2.2,Win32,60.24096386,65c5074098b851296ff0b7ed,65c5417b19dd7ea3569ed423,,,,,,,,,,,,,,,,,,,,,,,,,,,,,1165.1054,2,audio/Narrative5Situation5.wav,1170.1139,,1170.1139,1185.548,"[[96.4,506],[96.6,586],[99.5,667],[99.6,750],[99.3,833],[96.7,917],[96.7,1005],[96.7,1086],[96.6,1166],[96.6,1250],[96.7,1333],[96.7,1417],[96.7,1505],[96.8,1586],[97.2,1667],[97.2,1750],[97.3,1834],[97.3,1917],[97.3,1999],[97.3,2083],[97.3,2166],[97.4,2250],[97.4,2333],[97.4,2417],[97.4,2500],[97.4,2583],[97.4,2666],[97.6,2749],[97.7,2833],[97.7,2917],[97.7,3000],[97.7,3083],[97.7,3166],[97.7,3250],[97.6,3334],[97.6,3417],[97.5,3506],[97.5,3583],[97.5,3666],[97.5,3750],[97.5,3833],[97.5,3916],[97.5,4000],[97.5,4083],[97.7,4166],[97.7,4250],[97.7,4333],[97.7,4416],[97.5,4500],[97,4587],[97,4667],[96.9,4749],[96.9,4833],[97,4917],[97.2,4999],[97.7,5083],[97.7,5166],[97.7,5250],[97.7,5333],[97.7,5416],[97.5,5499],[97.3,5583],[97.3,5667],[97.3,5750],[97.3,5833],[97.3,5917],[97.3,5999],[97.7,6087],[98.1,6167],[98.5,6250],[98.8,6334],[98.9,6417],[98.9,6499],[98.6,6587],[98.1,6667],[97.7,6750],[97.5,6833],[97.5,6916],[97.5,6999],[97.9,7087],[98.5,7168],[98.6,7249],[98.6,7333],[98.6,7416],[98.6,7500],[98.5,7583],[98.4,7666],[98,7750],[97.7,7833],[97.7,7916],[97.7,8000],[97.7,8083],[97.7,8167],[97.7,8250],[97.7,8333],[97.6,8416],[97.6,8499],[97.5,8587],[97.4,8666],[97.3,8749],[97.3,8833],[97.3,8917],[98,9006],[98.2,9083],[98.2,9166],[98.2,9250],[98.2,9333],[98.2,9417],[98.2,9499],[98.2,9583],[98.2,9666],[98.1,9750],[97.7,9834],[97.7,9916],[97.7,9999],[97.7,10083],[97.5,10166],[97.5,10249],[97.5,10333],[97.5,10417],[97.5,10499],[97.5,10587],[97.5,10666],[97.5,10750],[97.5,10833],[97.5,10916],[97.5,11000],[97.5,11083],[97.5,11167],[97.5,11250],[97.5,11333],[97.5,11416],[97.5,11500],[97.5,11583],[97.5,11666],[97.5,11749],[97.5,11833],[97.5,11917],[97.5,12001],[97.5,12084],[97.6,12169],[97.6,12250],[97.6,12333],[97.6,12416],[97.6,12501],[97.6,12584],[97.6,12666],[97.6,12750],[97.6,12833],[97.6,12916],[97.6,12999],[97.6,13083],[97.6,13166],[97.6,13250],[97.6,13333],[97.6,13416],[97.6,13500],[97.6,13583],[97.6,13666],[97.6,13753],[97.6,13834],[97.6,13916],[97.6,14000],[97.6,14083],[97.6,14166],[97.6,14250],[97.8,14334],[98,14416],[98,14500],[98,14583],[97.6,14673],[96.9,14749],[96.7,14833],[96.7,14917],[96.7,15000],[96.7,15083],[96.7,15166],[96.7,15250],[96.7,15333],[96.7,15416]]",1,0,1185.5481,1187.4307,94.6875,0.8071,"[{""rating"":94.6875,""responseTime"":0.8071000001430093}]",space,1.3304,,1187.4307,Not at all,0,1187.4322,,,[],,0,5,5,5,1,audio/Narrative7Situation5.wav,audio/Narrative8Situation5.wav,audio/Narrative5Situation5.wav,audio/Narrative6Situation5.wav,5,2,5,2,,,,,,,,,,,,,,,,,,,,,,,,,,,,,,,,,,,,,,,
,,,,,,5f58d7941af44708223b94da,2024-02-08_16h05.36.684,group3.1-3.2-social-tom,2023.2.2,Win32,60.24096386,65c5074098b851296ff0b7ed,65c5417b19dd7ea3569ed423,,,,,,,,,,,,,,,,,,,,,,,,,,,,,1187.4322,2,audio/Narrative5Situation6.wav,1190.4481,,1190.4481,1196.1478,"[[95.7,916],[96.7,999],[96.7,1082],[96.9,1165],[96.9,1249],[96.9,1338],[96.9,1415],[96.9,1499],[96.9,1583],[96.9,1665],[96.9,1749],[96.9,1832],[96.9,1915],[96.9,1999],[96.9,2082],[96.9,2165],[96.9,2249],[96.9,2332],[96.9,2415],[96.9,2499],[96.9,2582],[96.9,2666],[96.9,2749],[96.9,2832],[96.9,2915],[96.9,2999],[96.9,3083],[96.9,3166],[96.9,3249],[96.9,3332],[97,3416],[97,3499],[97,3582],[97,3666],[97,3749],[97,3832],[97,3919],[97,3999],[97.4,4083],[97.5,4166],[97.5,4249],[97.5,4332],[97.7,4416],[97.8,4499],[97.8,4582],[97.8,4666],[97.8,4749],[97.8,4839],[97.8,4915],[97.6,4999],[97.6,5082],[97.6,5165],[97.6,5249],[97.6,5339],[97.6,5415],[97.6,5499],[97.6,5582],[97.6,5666]]",1,0,1196.1479,1199.0478,96.77083333,2.1229,"[{""rating"":94.16666666666667,""responseTime"":1.3999000000953856},{""rating"":96.77083333333334,""responseTime"":2.122900000095342}]",space,2.364,,1199.0478,All the time,100,1199.0491,,,[],,0,6,6,6,1,audio/Narrative7Situation6.wav,audio/Narrative8Situation6.wav,audio/Narrative5Situation6.wav,audio/Narrative6Situation6.wav,3,2,3,2,,,,,,,,,,,,,,,,,,,,,,,,,,,,,,,,,,,,,,,
,,,,,,5f58d7941af44708223b94da,2024-02-08_16h05.36.684,group3.1-3.2-social-tom,2023.2.2,Win32,60.24096386,65c5074098b851296ff0b7ed,65c5417b19dd7ea3569ed423,,,,,,,,,,,,,,,,,,,,,,,,,,,,,1199.0492,2,audio/Narrative5Situation7.wav,1203.0639,,1203.064,1224.114,"[[97.1,416],[97.1,499],[96.9,584],[96.9,666],[96.9,749],[96.9,833],[96.9,917],[96.9,1000],[96.9,1083],[96.9,1168],[96.9,1256],[96.9,1336],[96.9,1416],[96.9,1499],[96.9,1584],[96.9,1668],[96.7,1755],[96.7,1833],[96.7,1916],[96.7,2000],[96.7,2083],[96.7,2168],[96.7,2249],[96.7,2336],[96.7,2416],[96.7,2499],[96.6,2583],[96.6,2666],[96.6,2749],[96.6,2836],[96.6,2916],[96.6,2999],[96.7,3083],[96.9,3168],[97.1,3250],[97.2,3335],[97.2,3416],[97.2,3499],[97.2,3583],[97.2,3668],[97.2,3749],[97.2,3833],[97.2,3916],[97.2,3999],[97.2,4083],[97.2,4166],[97.2,4249],[97.2,4333],[97.2,4416],[97.2,4499],[97.2,4584],[97.2,4666],[97.2,4749],[97.2,4833],[97.2,4916],[97.2,4999],[97.2,5083],[97.2,5168],[97.2,5249],[97.2,5333],[97.2,5416],[97.2,5501],[97.2,5583],[97.2,5666],[97.2,5750],[97.2,5834],[97.2,5916],[97.2,6000],[97.2,6083],[97.2,6170],[97.2,6250],[97.2,6334],[97.2,6423],[97.2,6505],[97.2,6583],[97.2,6666],[97.2,6749],[97.2,6834],[97.2,6923],[97.2,6999],[97.2,7083],[97.2,7166],[97.2,7249],[97.2,7334],[97.2,7416],[97.2,7504],[97.2,7585],[97.2,7666],[97.2,7749],[97.2,7834],[97.2,7916],[97.1,8000],[96.9,8083],[96.9,8166],[96.9,8249],[96.9,8333],[96.7,8418],[96.7,8505],[96.6,8583],[96.6,8666],[96.6,8750],[96.6,8833],[96.6,8916],[96.6,9004],[96.6,9083],[96.6,9167],[96.6,9249],[96.6,9333],[96.6,9418],[96.6,9505],[96.6,9583],[96.6,9666],[96.6,9750],[96.6,9833],[96.6,9918],[96.6,9999],[96.6,10085],[96.6,10167],[96.6,10249],[96.6,10333],[96.3,10419],[96.3,10499],[96.3,10583],[96.3,10667],[96.3,10749],[96.3,10833],[96.3,10916],[96.3,11004],[96.3,11086],[95.8,11167],[95.7,11249],[95.7,11333],[95.7,11423],[95.7,11499],[95.7,11583],[95.7,11666],[95.7,11749],[95.7,11833],[95.7,11924],[95.7,11999],[95.8,12083],[95.8,12166],[95.8,12249],[95.9,12333],[95.9,12416],[95.9,12499],[95.9,12583],[95.9,12666],[95.6,12750],[94.1,12833],[94.1,12918],[94,13005],[94.2,13083],[94.4,13167],[94.6,13249],[94.9,13333],[94.9,13416],[94.9,13506],[94.9,13583],[94.9,13666],[94.5,13750],[94.2,13833],[94.2,13916],[94.2,13999],[94.2,14083],[94.3,14167],[94.5,14250],[94.6,14334],[94.8,14417],[94.9,14505],[94.9,14583],[94.9,14666],[94.8,14750],[94.8,14833],[94.6,14918],[94.6,14999],[94.6,15083],[94.6,15167],[94.6,15250],[94.6,15333],[94.4,15418],[94.4,15505],[94.4,15585],[94.2,15667],[94.1,15749],[94.1,15833],[93.9,15918],[93.9,15999],[93.9,16085],[93.9,16166],[93.9,16249],[93.9,16333],[94.1,16416],[94.1,16504],[94.5,16586],[94.5,16666],[94.5,16749],[94.5,16834],[94.5,16916],[94.5,17000],[94.5,17083],[94.5,17166],[94.5,17250],[94.5,17333],[94.5,17418],[94.5,17499],[94.5,17586],[94.4,17666],[93.9,17750],[93.9,17833],[93.9,17918],[93.9,17999],[93.9,18083],[93.9,18166],[93.9,18250],[93.9,18333],[94.1,18418],[94.1,18499],[94.1,18583],[94.1,18666],[94.1,18749],[93.9,18833],[93.9,18918],[93.9,18999],[93.9,19085],[93.9,19166],[93.9,19249],[93.9,19333],[93.9,19424],[93.9,19499],[93.9,19583],[93.9,19666],[93.9,19750],[93.9,19833],[93.9,19918],[93.9,19999],[93.9,20083],[93.9,20166],[93.9,20250],[93.9,20333],[93.9,20424],[93.9,20505],[93.9,20583],[93.9,20666],[93.9,20749],[93.9,20833],[93.9,20916],[93.9,20999]]",1,0,1224.1141,1225.948,95,1.0034,"[{""rating"":95,""responseTime"":1.0033999998568106}]",space,1.2948,,1225.948,Half the time,50,1225.9495,,,[],,0,7,7,7,1,audio/Narrative7Situation7.wav,audio/Narrative8Situation7.wav,audio/Narrative5Situation7.wav,audio/Narrative6Situation7.wav,5,3,4,5,,,,,,,,,,,,,,,,,,,,,,,,,,,,,,,,,,,,,,,
,,,,,,5f58d7941af44708223b94da,2024-02-08_16h05.36.684,group3.1-3.2-social-tom,2023.2.2,Win32,60.24096386,65c5074098b851296ff0b7ed,65c5417b19dd7ea3569ed423,,,,,,,,,,,,,,,,,,,,,,,,,,,,,1225.9496,2,audio/Narrative5Situation8.wav,1228.9646,,1228.9646,1237.7808,"[[94.4,165],[94.4,249],[94.4,332],[94.4,416],[94.4,499],[94.4,588],[94.4,669],[94.4,749],[94.4,833],[94.3,917],[94.3,999],[94.3,1082],[94.2,1166],[94.2,1249],[94.2,1332],[94.2,1416],[94.2,1501],[94.2,1582],[94.2,1665],[94.2,1749],[94.2,1832],[94.2,1916],[94.2,2000],[94.2,2082],[94.2,2165],[94.2,2249],[94.2,2332],[94.2,2416],[94.3,2501],[94.4,2582],[94.5,2666],[94.5,2749],[94.5,2832],[94.5,2915],[94.5,3000],[94.5,3082],[94.5,3169],[94.5,3249],[94.5,3332],[94.5,3415],[94.5,3499],[94.5,3582],[94.5,3669],[94.5,3749],[94.5,3832],[94.2,3916],[94.2,3999],[94.2,4082],[94.2,4165],[94.2,4250],[94.2,4332],[94.2,4416],[94.2,4499],[94.2,4582],[94.2,4665],[94.2,4749],[94.2,4832],[94.2,4916],[94.2,4999],[94.2,5082],[94.2,5165],[94.2,5249],[94.2,5332],[94.2,5416],[94.2,5499],[94.2,5588],[94.2,5665],[94.2,5749],[94.2,5832],[94.2,5917],[94.3,5999],[94.3,6082],[94.3,6165],[94.3,6249],[94.5,6332],[94.5,6415],[94.6,6500],[94.9,6588],[94.9,6669],[94.9,6749],[94.9,6832],[94.9,6915],[94.9,7001],[94.9,7088],[94.9,7165],[94.9,7249],[94.9,7332],[94.9,7415],[94.9,7499],[94.9,7582],[94.9,7665],[94.9,7749],[94.9,7832],[94.9,7917],[94.9,7999],[94.9,8082],[94.9,8165],[94.9,8249],[94.9,8332],[94.9,8416],[94.9,8499],[94.9,8582],[94.9,8666],[94.9,8749]]",1,0,1237.7808,1239.5973,95.41666667,0.7401,"[{""rating"":95.41666666666666,""responseTime"":0.7400999999047144}]",space,1.2637,,1239.5973,All the time,100,1239.5987,,,[],,0,8,8,8,1,audio/Narrative7Situation8.wav,audio/Narrative8Situation8.wav,audio/Narrative5Situation8.wav,audio/Narrative6Situation8.wav,2,3,3,5,,,,,,,,,,,,,,,,,,,,,,,,,,,,,,,,,,,,,,,
,,,,,,5f58d7941af44708223b94da,2024-02-08_16h05.36.684,group3.1-3.2-social-tom,2023.2.2,Win32,60.24096386,65c5074098b851296ff0b7ed,65c5417b19dd7ea3569ed423,,,,,,,,,,,,,,,,,,,,,,,,,,,,,1239.5988,2,audio/Narrative5Situation9.wav,1242.6139,,1242.6139,1282.1476,"[[96.3,503],[95.7,584],[95.7,667],[95.7,750],[95.6,833],[95.6,916],[95.4,1004],[95.3,1083],[95.1,1166],[95.1,1250],[95.1,1333],[95.1,1423],[95.1,1503],[95.1,1584],[95.1,1666],[95.1,1750],[95.2,1834],[95.9,1924],[95.9,2005],[95.9,2099],[95.9,2183],[95.8,2266],[95.4,2349],[95.4,2433],[94.8,2516],[94.7,2599],[94.7,2683],[94.7,2766],[94.7,2849],[94.7,2933],[94.7,3016],[94.7,3100],[94.7,3183],[94.4,3266],[94.4,3349],[94.4,3433],[94.4,3516],[94.4,3599],[94.4,3683],[94.4,3766],[94.4,3849],[94.4,3933],[94.4,4016],[94.4,4099],[94.4,4183],[94.4,4266],[94.4,4349],[94.4,4433],[94.4,4516],[94.4,4600],[94.4,4683],[94.4,4766],[94.4,4849],[94.4,4933],[94.4,5016],[94.4,5099],[94.4,5183],[94.4,5266],[94.4,5350],[94.4,5433],[94.5,5517],[94.7,5599],[94.7,5683],[95.2,5766],[95.9,5850],[96.8,5933],[97.4,6016],[97.5,6099],[97.5,6183],[97.5,6266],[97.6,6350],[97.8,6433],[98.1,6516],[98.1,6599],[98.1,6683],[98.1,6766],[98.1,6849],[98.1,6933],[98.1,7016],[98.1,7099],[98.1,7183],[98.1,7266],[98,7349],[97.9,7433],[97.9,7516],[97.7,7600],[97.5,7683],[97.5,7766],[97.5,7849],[97.5,7933],[97.5,8016],[97.5,8099],[97.6,8183],[97.6,8266],[97.6,8349],[97.6,8433],[97.7,8516],[97.8,8600],[97.8,8683],[98.1,8766],[98.1,8849],[98.1,8933],[98.1,9016],[98.1,9099],[98.1,9183],[98.1,9266],[98.1,9349],[98.1,9433],[98.1,9516],[98.1,9599],[98.1,9683],[98.1,9766],[97.9,9849],[97.9,9933],[97.7,10016],[97.6,10100],[97.6,10183],[97.6,10266],[97.6,10349],[97.6,10433],[97.6,10516],[97.8,10599],[97.8,10683],[97.8,10766],[97.8,10849],[97.9,10933],[98,11016],[98,11099],[98,11183],[98,11266],[98,11349],[98,11433],[98,11516],[98,11599],[98,11683],[98,11766],[97.8,11850],[97.8,11933],[97.8,12016],[97.8,12099],[97.8,12183],[97.8,12266],[97.8,12349],[97.8,12433],[97.8,12516],[97.8,12600],[97.8,12683],[97.8,12766],[97.9,12849],[97.9,12933],[98.1,13017],[98.1,13099],[98.1,13183],[98.1,13266],[98.1,13349],[98.1,13433],[98.1,13516],[98.1,13599],[98.1,13683],[98.1,13766],[98.1,13849],[98.1,13933],[98.1,14016],[98.1,14099],[98.1,14183],[98.1,14266],[98.1,14349],[98.1,14433],[98.1,14516],[98.1,14600],[97.9,14683],[97.9,14766],[97.9,14849],[97.9,14933],[97.9,15016],[97.9,15099],[97.9,15183],[97.9,15266],[97.9,15349],[97.9,15433],[97.9,15516],[97.9,15599],[97.9,15683],[97.9,15766],[97.9,15849],[97.9,15933],[97.9,16016],[97.9,16099],[97.9,16183],[97.9,16266],[97.9,16350],[97.9,16433],[97.9,16516],[97.9,16600],[97.9,16683],[97.9,16766],[97.9,16850],[97.9,16933],[97.9,17017],[97.9,17100],[97.9,17183],[97.9,17266],[98.1,17349],[98.1,17433],[98.1,17516],[98.1,17599],[98.1,17683],[98.1,17766],[98.1,17849],[98.1,17933],[98.1,18016],[98.1,18099],[98.1,18183],[98.1,18266],[98,18349],[98,18433],[98,18516],[98,18599],[97.9,18683],[97.8,18766],[97.8,18849],[97.8,18933],[97.9,19016],[98.4,19100],[98.8,19183],[99.1,19266],[99.1,19349],[99.1,19433],[99.1,19516],[98.9,19599],[98.9,19683],[98.9,19766],[98.9,19849],[98.9,19933],[98.9,20016],[98.9,20099],[98.9,20183],[98.9,20266],[98.9,20350],[98.9,20433],[99,20516],[99.3,20599],[99.3,20683],[99.3,20766],[99.6,20850],[100,20933],[100,21017],[100,21099],[100,21183],[100,21266],[100,21350],[100,21433],[99.8,21516],[99.8,21599],[99.8,21683],[99.8,21766],[99.8,21850],[99.8,21933],[99.6,22016],[99.5,22099],[99.2,22183],[99.1,22266],[99.1,22349],[99.1,22433],[99.1,22516],[99.1,22599],[99.1,22683],[99.5,22766],[99.5,22849],[99.5,22933],[99.5,23016],[99.5,23099],[99.3,23183],[99.3,23266],[99.3,23350],[99.3,23433],[99.3,23516],[99.3,23599],[99.3,23683],[99.3,23766],[99.3,23849],[99.3,23933],[99.3,24016],[99.3,24099],[99.3,24183],[99.3,24266],[99.3,24349],[99.3,24433],[99.3,24516],[99.3,24599],[99.3,24683],[99.3,24766],[99.3,24849],[99.3,24933],[99.3,25016],[99.3,25099],[99.3,25183],[99.3,25266],[99.3,25350],[99.3,25433],[99.3,25516],[99.3,25599],[99.3,25683],[99.3,25766],[99.3,25850],[99.3,25933],[99.3,26016],[99.3,26099],[99.3,26183],[99.3,26266],[99.3,26349],[99.3,26433],[99.3,26516],[99.3,26599],[99.3,26683],[99.3,26766],[99.3,26850],[99.3,26933],[99.3,27016],[99.3,27099],[99.3,27183],[99.3,27266],[99.3,27349],[99.3,27433],[99.3,27516],[99.3,27599],[99.3,27683],[99.2,27766],[99.2,27849],[99.2,27933],[99.2,28016],[99.2,28099],[99.2,28183],[99.2,28266],[99.2,28349],[99.2,28433],[99.2,28516],[99.2,28599],[99.2,28683],[99.2,28766],[99.2,28849],[99.2,28933],[99.2,29016],[99.2,29100],[99.2,29183],[99.2,29266],[99.2,29349],[99.2,29433],[99.2,29516],[99.2,29599],[99.2,29683],[99.2,29766],[99.2,29849],[99.2,29933],[99.2,30016],[99.2,30099],[99.2,30183],[99.4,30266],[99.4,30349],[99.4,30433],[99.4,30516],[99.4,30600],[99.4,30683],[99.4,30766],[99.4,30849],[99.4,30933],[99.3,31016],[99.3,31099],[99.3,31183],[99.3,31266],[99.3,31349],[99.3,31433],[99.3,31516],[99.3,31599],[99.3,31683],[99.3,31766],[99.3,31850],[99.3,31935],[99.3,32016],[99.3,32099],[99.3,32183],[99.3,32266],[99.3,32350],[99.3,32433],[99.3,32517],[99.3,32600],[99.3,32683],[99.3,32766],[99.3,32850],[99.3,32933],[99.3,33016],[99.1,33100],[98.9,33183],[98.9,33266],[98.9,33350],[98.9,33433],[98.9,33516],[98.9,33599],[98.9,33683],[98.9,33766],[98.9,33849],[98.9,33933],[98.9,34016],[98.9,34099],[98.9,34183],[98.9,34266],[98.9,34350],[98.9,34433],[98.9,34516],[98.9,34600],[98.9,34683],[98.9,34767],[98.9,34850],[98.9,34933],[98.9,35016],[98.9,35099],[98.9,35183],[98.9,35266],[98.9,35350],[98.9,35433],[98.9,35516],[98.9,35600],[98.9,35683],[98.9,35766],[98.9,35850],[98.9,35933],[98.9,36016],[98.9,36100],[98.9,36183],[98.9,36266],[98.5,36350],[98.1,36433],[98.1,36516],[98.1,36600],[98.1,36683],[98.1,36767],[98.1,36850],[98.1,36933],[98.1,37016],[98.1,37100],[98.1,37183],[98.1,37266],[98.1,37350],[98.1,37433],[98.1,37516],[98.1,37600],[98.1,37683],[98.1,37766],[98.1,37849],[98.1,37933],[98.1,38016],[98.1,38100],[98.1,38183],[98.1,38267],[98.1,38350],[98.1,38433],[98.1,38516],[98.1,38600],[98.1,38684],[98.1,38767],[98.1,38850],[98.1,38933],[98.1,39016],[98.1,39100],[98.1,39183],[98.1,39266],[98.1,39350],[98.1,39433],[98.1,39516]]",1,0,1282.1478,1283.9474,96.66666667,0.8693,"[{""rating"":96.66666666666667,""responseTime"":0.8692999999523181}]",space,1.2541,,1283.9474,Half the time,50,1283.9488,,,[],,0,9,9,9,1,audio/Narrative7Situation9.wav,audio/Narrative8Situation9.wav,audio/Narrative5Situation9.wav,audio/Narrative6Situation9.wav,2,3,3,4,,,,,,,,,,,,,,,,,,,,,,,,,,,,,,,,,,,,,,,
,,,,,,5f58d7941af44708223b94da,2024-02-08_16h05.36.684,group3.1-3.2-social-tom,2023.2.2,Win32,60.24096386,65c5074098b851296ff0b7ed,65c5417b19dd7ea3569ed423,,,,,,,,,,,,,,,,,,,,,,,,,,,,,1283.9489,2,audio/Narrative6Situation1.wav,1285.964,,1285.964,1312.5472,"[[9.7,1999],[8.4,2083],[1.8,2416],[2.2,2499],[2.7,2583],[2.7,2666],[3,2749],[3,2833],[3,2916],[3,2999],[3,3083],[3,3166],[3,3249],[3,3333],[3,3416],[3,3499],[3,3583],[3,3666],[3.2,3750],[8.9,3833],[10.4,3916],[19,4000],[56.8,4584],[56.1,4666],[54.7,4750],[53.1,4833],[52.6,4916],[50.6,5000],[50.4,5083],[50.4,5166],[50.4,5250],[50.4,5333],[50.4,5416],[50.4,5499],[50.4,5583],[50.4,5666],[50.4,5749],[50.4,5833],[50.4,5916],[50.4,5999],[50.4,6083],[50.4,6166],[50.7,6250],[50.7,6333],[50.7,6416],[50.7,6499],[50.7,6583],[50.7,6666],[50.9,6750],[50.9,6833],[50.9,6916],[50.9,6999],[50.9,7083],[50.9,7166],[50.9,7249],[50.9,7333],[50.9,7416],[50.9,7499],[50.9,7583],[50.9,7666],[50.9,7749],[50.9,7833],[50.9,7916],[50.9,8000],[50.9,8083],[50.9,8166],[52.1,8250],[56.1,8333],[57.4,8416],[57.6,8499],[58,8583],[58,8666],[58,8749],[58,8833],[58.9,8916],[59.4,9000],[61.5,9083],[71.6,9166],[73.9,9249],[73.9,9333],[74,9416],[74,9499],[74.3,9583],[76.4,9666],[78,9749],[78.3,9833],[78.3,9916],[78.3,10000],[78.2,10083],[78.2,10166],[78.2,10249],[79,10333],[79.2,10416],[79.3,10500],[79.4,10583],[79.9,10666],[80.4,10749],[80.6,10833],[81.1,10916],[81.1,10999],[81.1,11083],[81.1,11166],[81.1,11250],[81.1,11333],[81.1,11416],[81.1,11499],[81.1,11583],[81.7,11666],[82.4,11750],[82.8,11833],[83.5,11916],[84.2,12000],[84.5,12083],[84.7,12166],[84.7,12249],[84.7,12333],[84.7,12416],[84.7,12499],[84.7,12583],[84.7,12666],[84.7,12749],[84.7,12833],[84.7,12916],[84.7,12999],[84.7,13083],[84.7,13166],[84.7,13249],[84.7,13333],[84.7,13416],[84.7,13499],[84.7,13583],[84.7,13666],[84.7,13749],[84.7,13833],[84.7,13916],[84.7,13999],[84.7,14083],[84.7,14166],[84.7,14250],[84.7,14333],[84.7,14416],[84.7,14500],[84.7,14583],[84.7,14666],[84.7,14749],[84.8,14833],[85.1,14916],[86.4,14999],[86.9,15083],[87.3,15167],[88,15250],[88.8,15333],[89.3,15416],[89.4,15500],[89.9,15583],[90.6,15667],[91,15750],[91.1,15833],[91.4,15916],[91.4,15999],[91.8,16083],[91.8,16166],[91.8,16249],[91.3,16333],[91.3,16416],[91.3,16499],[91.3,16583],[91.3,16666],[91.3,16749],[91.3,16833],[91.3,16916],[91.3,16999],[91.3,17083],[91.3,17166],[90.9,17249],[90.9,17333],[90.9,17416],[90.9,17499],[90.8,17583],[90.8,17666],[90.8,17749],[90.8,17833],[90.8,17916],[90.8,17999],[90.8,18083],[90.8,18166],[90.7,18250],[90.5,18333],[90.1,18416],[90.1,18499],[90.1,18583],[90.1,18666],[90.1,18749],[90.1,18833],[90.1,18916],[90.1,18999],[90.1,19083],[90.1,19166],[90.1,19249],[90.1,19333],[90.1,19416],[90.1,19499],[90.1,19583],[90.1,19666],[90.1,19750],[90.1,19833],[90.1,19916],[90.1,19999],[90.1,20083],[90.1,20166],[90.1,20249],[90.1,20333],[90.3,20416],[90.3,20499],[90.5,20583],[90.5,20666],[90.5,20750],[90.5,20833],[90.5,20916],[90.5,20999],[90.5,21083],[90.5,21166],[90.5,21249],[90.5,21333],[90.5,21416],[90.5,21499],[90.5,21583],[90.5,21666],[90.5,21749],[90.5,21833],[90.5,21916],[90.5,21999],[90.5,22083],[90.5,22166],[90.4,22250],[90.3,22333],[90.3,22416],[90.3,22500],[90.3,22583],[90.3,22666],[90.3,22749],[90.3,22833],[89.8,22916],[89.5,22999],[89.5,23083],[89.5,23166],[89.5,23250],[89.5,23333],[89.5,23416],[89.5,23499],[89.5,23583],[89.5,23666],[89.5,23749],[88.9,23833],[88.9,23916],[88.9,23999],[88.9,24083],[88.9,24166],[88.9,24249],[88.9,24333],[88.9,24416],[88.9,24499],[88.9,24583],[88.9,24666],[88.9,24749],[88.9,24833],[88.9,24916],[88.9,25000],[88.9,25083],[88.9,25166],[88.9,25249],[88.9,25333],[88.9,25416],[88.9,25499],[88.9,25583],[88.9,25666],[88.9,25749],[88.9,25833],[88.9,25916],[88.9,26000],[88.9,26083],[88.9,26166],[88.9,26249],[88.9,26333],[89.3,26416],[89.9,26499],[90.9,26583]]",1,0,1312.5475,1314.9307,88.75,1.4396,"[{""rating"":88.75,""responseTime"":1.4396000001429456}]",space,1.8574,,1314.9308,All the time,100,1314.9323,,,[],,0,10,10,10,1,audio/Narrative8Situation1.wav,audio/Narrative7Situation1.wav,audio/Narrative6Situation1.wav,audio/Narrative5Situation1.wav,5,2,2,5,,,,,,,,,,,,,,,,,,,,,,,,,,,,,,,,,,,,,,,
,,,,,,5f58d7941af44708223b94da,2024-02-08_16h05.36.684,group3.1-3.2-social-tom,2023.2.2,Win32,60.24096386,65c5074098b851296ff0b7ed,65c5417b19dd7ea3569ed423,,,,,,,,,,,,,,,,,,,,,,,,,,,,,1314.9326,2,audio/Narrative6Situation2.wav,1317.9473,,1317.9473,1346.4639,"[[86.6,333],[86.6,416],[86.7,500],[86.8,583],[86.8,668],[86.8,750],[86.8,833],[86.8,916],[86.8,999],[86.8,1083],[86.8,1166],[86.8,1249],[86.8,1333],[86.8,1416],[86.9,1500],[87.2,1583],[87.5,1666],[87.6,1749],[87.6,1833],[87.6,1916],[87.5,2000],[87.1,2083],[87,2166],[86.6,2250],[86.1,2333],[85.9,2416],[85.8,2500],[85.8,2583],[85.7,2666],[85.7,2749],[85.7,2833],[85.7,2916],[85.7,2999],[85.7,3083],[85.7,3166],[85.7,3249],[85.7,3333],[85.7,3416],[85.7,3499],[85.7,3583],[85.7,3666],[85.7,3749],[85.7,3833],[85.7,3916],[85.7,4000],[85.7,4083],[85.7,4166],[85.7,4250],[85.7,4333],[85.7,4416],[85.7,4499],[85.8,4583],[86.5,4666],[87.8,4750],[88.6,4833],[88.6,4916],[88.6,5000],[88.6,5083],[88.6,5166],[88.6,5250],[88.2,5333],[87.6,5416],[87.5,5499],[87.5,5583],[87.3,5666],[87.3,5750],[87,5833],[86.8,5916],[86.5,6000],[85.8,6083],[85.2,6166],[85.1,6249],[85.1,6333],[85.1,6416],[85.1,6499],[85,6583],[85,6666],[85,6749],[85,6833],[85.5,6916],[85.8,7000],[86.8,7083],[87.6,7167],[88.4,7250],[89.4,7333],[90.3,7417],[91.4,7500],[91.4,7583],[91.6,7667],[91.8,7749],[91.8,7833],[92,7916],[92,7999],[92,8083],[92,8166],[92,8249],[92,8333],[92,8416],[92,8500],[92,8583],[92,8666],[92.1,8749],[92.1,8833],[92.1,8916],[92.4,9000],[92.5,9083],[92.2,9166],[92.2,9249],[92,9333],[91,9416],[91,9499],[91,9583],[91,9666],[91,9750],[91,9833],[91.3,9916],[91.6,10000],[91.9,10083],[91.9,10166],[91.9,10249],[91.9,10333],[91.9,10416],[91.9,10499],[91.9,10583],[91.9,10666],[91.9,10749],[91.9,10833],[91.9,10916],[91.9,10999],[91.9,11083],[91.9,11166],[91.9,11249],[91.9,11333],[92.1,11416],[92.1,11500],[92.4,11583],[92.4,11666],[92.4,11750],[92.4,11833],[92.4,11916],[92.4,11999],[92.4,12083],[92.4,12166],[92.4,12249],[92.4,12333],[92.4,12416],[92.4,12499],[92.4,12583],[92.4,12666],[92.4,12749],[92.4,12833],[92.4,12916],[92.4,13000],[92.4,13083],[92.4,13166],[92.4,13249],[92.4,13333],[92.4,13416],[92.4,13499],[92.4,13583],[92.4,13666],[92.4,13749],[92.4,13833],[92.4,13916],[92.4,13999],[92.4,14083],[92.4,14166],[92.4,14249],[92.4,14333],[92.4,14416],[92.4,14499],[92.4,14583],[92.4,14666],[92.4,14749],[92.5,14833],[92.5,14916],[92.5,14999],[92.5,15083],[92.5,15166],[92.5,15249],[92.5,15333],[92.5,15416],[92.5,15500],[92.5,15583],[92.5,15666],[92.5,15750],[92.5,15833],[92.5,15916],[92.5,16000],[92.5,16083],[92.5,16166],[92.5,16250],[92.5,16333],[92.5,16416],[92.5,16500],[92.5,16583],[92.5,16667],[92.5,16749],[92.5,16833],[92.5,16916],[92.5,16999],[92.5,17083],[92.5,17166],[92.5,17250],[92.5,17333],[92.5,17416],[92.5,17500],[92.5,17583],[92.5,17666],[92.5,17750],[92.5,17833],[92.5,17916],[92.5,17999],[92.5,18083],[92.5,18166],[92.5,18250],[92.5,18333],[92.5,18416],[92.6,18500],[94.7,18583],[95,18666],[95.8,18750],[96.3,18833],[96.3,18916],[96.3,19000],[96.3,19083],[96.3,19166],[96.3,19249],[96.4,19333],[96.4,19416],[96.4,19500],[96.4,19583],[96.4,19666],[96.4,19750],[96.4,19833],[96.4,19916],[96.4,20000],[96.4,20083],[96.4,20166],[96.4,20250],[96.4,20333],[96.4,20416],[96.4,20499],[96.4,20583],[96.4,20666],[96.4,20750],[96.4,20833],[96.4,20916],[96.4,20999],[96.4,21083],[96.4,21166],[96.4,21250],[96.4,21333],[96.4,21416],[96.4,21499],[96.4,21583],[96.4,21666],[96.4,21749],[96.4,21833],[96.4,21916],[96.4,21999],[96.4,22083],[96.4,22166],[96.4,22250],[96.4,22333],[96.4,22416],[96.4,22499],[96.4,22583],[96.4,22666],[96.4,22749],[96.4,22833],[96.4,22916],[96.4,22999],[96.4,23083],[96.4,23166],[96.4,23249],[96.4,23333],[96.4,23416],[96.4,23500],[96.4,23583],[96.4,23666],[96.4,23749],[96.4,23833],[96.4,23916],[96.4,24000],[96.4,24083],[96.4,24166],[96.4,24249],[96.4,24333],[96.4,24416],[96.4,24499],[96.4,24583],[96.4,24666],[96.4,24749],[96.4,24833],[96.4,24916],[96.4,24999],[96.4,25083],[96.4,25166],[96.4,25249],[96.4,25333],[96.4,25416],[96.4,25499],[96.4,25583],[96.4,25666],[96.4,25749],[96.4,25833],[96.4,25916],[96.4,25999],[96.4,26083],[96.4,26166],[96.4,26249],[96.4,26333],[96.4,26416],[96.4,26499],[96.4,26583],[96.4,26666],[96.4,26749],[96.4,26833],[96.4,26916],[96.4,27000],[96.4,27083],[96.4,27166],[96.4,27249],[96.4,27333],[96.4,27416],[96.4,27500],[96.4,27583],[96.4,27666],[96.4,27749],[96.4,27833],[96.4,27916],[96.4,27999],[96.4,28083],[96.4,28166],[96.4,28249],[96.4,28333],[96.4,28416],[96.4,28500]]",1,0,1346.4641,1355.0809,90.72916667,3.8022,"[{""rating"":90.72916666666666,""responseTime"":3.802200000047833}]",space,8.0668,,1355.081,Not at all,0,1355.0883,,,[],,0,11,11,11,1,audio/Narrative8Situation2.wav,audio/Narrative7Situation2.wav,audio/Narrative6Situation2.wav,audio/Narrative5Situation2.wav,3,3,3,3,,,,,,,,,,,,,,,,,,,,,,,,,,,,,,,,,,,,,,,
,,,,,,5f58d7941af44708223b94da,2024-02-08_16h05.36.684,group3.1-3.2-social-tom,2023.2.2,Win32,60.24096386,65c5074098b851296ff0b7ed,65c5417b19dd7ea3569ed423,,,,,,,,,,,,,,,,,,,,,,,,,,,,,1355.0885,2,audio/Narrative6Situation3.wav,1360.0974,,1360.0975,1372.7141,"[[72.6,82],[72.6,166],[72.5,250],[74.3,333],[77.5,416],[82.5,500],[85.3,583],[87.9,666],[90.7,749],[90.7,833],[90.9,916],[90.9,999],[90.8,1083],[90.4,1166],[90.2,1249],[89.9,1332],[89.9,1416],[89.9,1499],[89.9,1583],[89.9,1666],[89.9,1749],[89.9,1832],[89.9,1916],[89.9,1999],[89.9,2082],[89.9,2166],[89.9,2249],[89.9,2333],[89.9,2416],[89.9,2499],[89.9,2582],[89.9,2666],[89.9,2749],[89.9,2833],[89.9,2916],[89.9,2999],[89.9,3083],[89.9,3166],[89.9,3249],[89.9,3332],[89.9,3416],[89.9,3499],[89.9,3582],[89.9,3666],[89.9,3749],[89.9,3833],[89.9,3916],[89.9,3999],[89.9,4082],[89.9,4166],[89.9,4249],[89.9,4332],[89.9,4416],[89.9,4499],[90.6,4583],[91.1,4666],[91.6,4750],[92.6,4833],[92.7,4916],[93.4,5000],[96.1,5082],[96.1,5166],[96.1,5249],[96.1,5332],[96.1,5416],[96.1,5499],[96.1,5582],[96.3,5666],[96.3,5749],[96.3,5832],[96.3,5916],[95.9,5999],[95.6,6083],[95.6,6166],[95.6,6249],[95.6,6333],[95.6,6416],[95.6,6499],[95.6,6582],[95.6,6666],[95.6,6749],[95.6,6833],[95.6,6916],[95.6,6999],[95.6,7083],[95.6,7166],[95.6,7249],[95.6,7333],[95.6,7416],[95.9,7500],[95.9,7582],[95.9,7666],[95.9,7749],[95.9,7833],[95.9,7916],[96,7999],[96,8083],[96,8166],[96,8249],[96,8333],[96,8416],[96,8499],[96,8583],[96.1,8666],[96.3,8749],[96.4,8832],[96.1,8916],[94.7,9000],[93.6,9083],[93.6,9166],[93.8,9250],[94,9333],[94.3,9416],[94.3,9499],[94.3,9583],[94.3,9666],[94.3,9749],[94.1,9833],[94.1,9916],[94.1,9999],[94.1,10082],[94.1,10166],[94.1,10249],[94.1,10333],[94.1,10416],[94.1,10499],[94.1,10583],[94.1,10666],[94.1,10749],[94.1,10832],[94.1,10916],[94.1,10999],[94.1,11082],[94.1,11166],[94.1,11249],[94.1,11332],[94.1,11416],[94.3,11499],[94.3,11582],[94.3,11666],[94.3,11749],[94.3,11832],[94.3,11916],[94.3,11999],[94.3,12083],[94.2,12166],[94.2,12249],[94.2,12333],[94.2,12416],[94.2,12499],[94.2,12582]]",1,0,1372.7142,1374.8973,98.02083333,0.9362,"[{""rating"":98.02083333333333,""responseTime"":0.93620000004762}]",space,1.6555,,1374.8973,Half the time,50,1374.8988,,,[],,0,12,12,12,1,audio/Narrative8Situation3.wav,audio/Narrative7Situation3.wav,audio/Narrative6Situation3.wav,audio/Narrative5Situation3.wav,4,8,5,3,,,,,,,,,,,,,,,,,,,,,,,,,,,,,,,,,,,,,,,
