exp_question,consent.started,consent.stopped,consentResponse.keys,consentResponse.rt,consentResponse.duration,participantID,date,expName,psychopyVersion,OS,frameRate,STUDY_ID,SESSION_ID,opening1.started,opening1.stopped,keyEndingOpening1.keys,keyEndingOpening1.rt,keyEndingOpening1.duration,volumeAdjust.started,volumeAdjust.stopped,endingAdjust.keys,endingAdjust.rt,endingAdjust.duration,opening2.started,opening2.stopped,keyEndingOpening.keys,keyEndingOpening.rt,keyEndingOpening.duration,mouse.x,mouse.y,mouse.leftButton,mouse.midButton,mouse.rightButton,mouse.time,instructionLoop.thisRepN,instructionLoop.thisTrialN,instructionLoop.thisN,instructionLoop.thisIndex,instructionLoop.ran,readyForAudio.started,readyForAudio.stopped,fixation.started,run,audio_played,fixation.stopped,endPractice.keys,audioPre.started,audioPre.stopped,continuousResponses_audio,continuousSlider.response,continuousSlider.rt,intRating.started,intRating.stopped,intQuestionSlider.response,intQuestionSlider.rt,intQuestionSlider.history,confirmResponse.keys,confirmResponse.rt,confirmResponse.duration,catchQuestion.started,catch_label,catch_value,catchQuestion.stopped,catchQuestionSlider.response,catchQuestionSlider.rt,catchQuestionSlider.history,confirmResponse_2.keys,confirmResponse_2.rt,confirmResponse_2.duration,audioRunLoop.thisRepN,audioRunLoop.thisTrialN,audioRunLoop.thisN,audioRunLoop.thisIndex,audioRunLoop.ran,conditions1_1,conditions2_1,conditions1_2,conditions2_2,dur1_1,dur2_1,dur1_2,dur2_2,endPractice.rt,endPractice.duration,runIntervalBreak.started,runIntervalBreak.stopped,endingBreakKey.keys,endingBreakKey.rt,endingBreakKey.duration,connection.started,connection.stopped,connectionEnding.keys,connectionEnding.rt,connectionEnding.duration,readyForText.started,readyForText.stopped,textPre.started,run_dup,textPre.stopped,continuousResponses_text,textRunLoop.thisRepN,textRunLoop.thisTrialN,textRunLoop.thisN,textRunLoop.thisIndex,textRunLoop.ran,text1_1,text1_2,text2_1,text2_2,runBreakText.started,runBreakText.stopped,endingBreakKey_2.keys,endingBreakKey_2.rt,endingBreakKey_2.duration,ending.started,ending.stopped,endingEnding.keys,endingEnding.rt,endingEnding.duration
tom,0.0008,4.6777,y,4.3125,,5f6b8930b9d9530b1b065360,2024-05-13_11h41.33.635,group3.1-3.2-social-tom,2023.2.2,Win32,30.03003003,65c5074098b851296ff0b7ed,6642348d0a99afe9cb4cad10,,,,,,,,,,,,,,,,,,,,,,,,,,,,,,,,,,,,,,,,,,,,,,,,,,,,,,,,,,,,,,,,,,,,,,,,,,,,,,,,,,,,,,,,,,,,,,,,,,,,,,,,,,
,,,,,,5f6b8930b9d9530b1b065360,2024-05-13_11h41.33.635,group3.1-3.2-social-tom,2023.2.2,Win32,30.03003003,65c5074098b851296ff0b7ed,6642348d0a99afe9cb4cad10,4.6783,10.4978,space,5.7163,,,,,,,,,,,,,,,,,,,,,,,,,,,,,,,,,,,,,,,,,,,,,,,,,,,,,,,,,,,,,,,,,,,,,,,,,,,,,,,,,,,,,,,,,,,,,,,,,,,,,,
,,,,,,5f6b8930b9d9530b1b065360,2024-05-13_11h41.33.635,group3.1-3.2-social-tom,2023.2.2,Win32,30.03003003,65c5074098b851296ff0b7ed,6642348d0a99afe9cb4cad10,,,,,,10.498,51.1887,space,40.3342,,,,,,,,,,,,,,,,,,,,,,,,,,,,,,,,,,,,,,,,,,,,,,,,,,,,,,,,,,,,,,,,,,,,,,,,,,,,,,,,,,,,,,,,,,,,,,,,,
,,,,,,5f6b8930b9d9530b1b065360,2024-05-13_11h41.33.635,group3.1-3.2-social-tom,2023.2.2,Win32,30.03003003,65c5074098b851296ff0b7ed,6642348d0a99afe9cb4cad10,,,,,,,,,,,51.2015,64.6385,space,13.3787,,[],[],[],[],[],[],0,0,0,0,1,,,,,,,,,,,,,,,,,,,,,,,,,,,,,,,,,,,,,,,,,,,,,,,,,,,,,,,,,,,,,,,,,,,,,,,,,,,,,,,,
,,,,,,5f6b8930b9d9530b1b065360,2024-05-13_11h41.33.635,group3.1-3.2-social-tom,2023.2.2,Win32,30.03003003,65c5074098b851296ff0b7ed,6642348d0a99afe9cb4cad10,,,,,,,,,,,64.6559,78.4081,space,13.5438,,[],[],[],[],[],[],1,0,1,0,1,,,,,,,,,,,,,,,,,,,,,,,,,,,,,,,,,,,,,,,,,,,,,,,,,,,,,,,,,,,,,,,,,,,,,,,,,,,,,,,,
,,,,,,5f6b8930b9d9530b1b065360,2024-05-13_11h41.33.635,group3.1-3.2-social-tom,2023.2.2,Win32,30.03003003,65c5074098b851296ff0b7ed,6642348d0a99afe9cb4cad10,,,,,,,,,,,78.4245,86.2887,space,7.7708,,[],[],[],[],[],[],2,0,2,0,1,,,,,,,,,,,,,,,,,,,,,,,,,,,,,,,,,,,,,,,,,,,,,,,,,,,,,,,,,,,,,,,,,,,,,,,,,,,,,,,,
,,,,,,5f6b8930b9d9530b1b065360,2024-05-13_11h41.33.635,group3.1-3.2-social-tom,2023.2.2,Win32,30.03003003,65c5074098b851296ff0b7ed,6642348d0a99afe9cb4cad10,,,,,,,,,,,86.3037,107.7576,space,21.4088,,[],[],[],[],[],[],3,0,3,0,1,,,,,,,,,,,,,,,,,,,,,,,,,,,,,,,,,,,,,,,,,,,,,,,,,,,,,,,,,,,,,,,,,,,,,,,,,,,,,,,,
,,,,,,5f6b8930b9d9530b1b065360,2024-05-13_11h41.33.635,group3.1-3.2-social-tom,2023.2.2,Win32,30.03003003,65c5074098b851296ff0b7ed,6642348d0a99afe9cb4cad10,,,,,,,,,,,107.7739,115.3271,space,7.5032,,[],[],[],[],[],[],4,0,4,0,1,,,,,,,,,,,,,,,,,,,,,,,,,,,,,,,,,,,,,,,,,,,,,,,,,,,,,,,,,,,,,,,,,,,,,,,,,,,,,,,,
,,,,,,5f6b8930b9d9530b1b065360,2024-05-13_11h41.33.635,group3.1-3.2-social-tom,2023.2.2,Win32,30.03003003,65c5074098b851296ff0b7ed,6642348d0a99afe9cb4cad10,,,,,,,,,,,,,,,,,,,,,,,,,,,115.3447,117.908,117.9518,1,audio/Narrative13Situation2.wav,119.9781,,119.9785,149.7653,"[[98,2630],[6.3,3306],[6.5,3377],[6.5,3446],[6.5,3515],[7,3590],[7.1,3665],[7.2,3738],[8.3,3812],[8.8,3890],[8.8,3958],[8.8,4027],[8.8,4096],[8.8,4166],[9.2,4240],[9.9,4315],[10.9,4390],[11.4,4461],[12.2,4534],[16.1,4610],[19.7,4685],[21.1,4759],[22.4,4834],[24.7,4910],[28,4984],[31.8,5055],[32.9,5145],[33,5226],[33,5305],[33,5381],[32.9,5459],[32.9,5538],[32.8,5615],[32.8,5687],[32.8,5756],[32.8,5826],[32.8,5899],[32.8,5969],[32.8,6038],[32.8,6107],[32.8,6179],[32.8,6251],[32.8,6322],[32.8,6398],[32.8,6466],[32.8,6534],[32.8,6604],[32.8,6674],[32.2,6748],[31.6,6825],[31.5,6899],[31.5,6970],[31.4,7045],[31.3,7117],[31.3,7178],[31.3,7264],[31.3,7335],[31.3,7407],[31.3,7482],[31.3,7557],[31.3,7631],[31.3,7702],[31.3,7770],[31.3,7843],[31.3,7915],[30.8,7985],[28.6,8059],[26.9,8134],[25.3,8209],[22.2,8283],[18,8359],[16.1,8434],[15.6,8510],[15.2,8584],[15.2,8654],[15.2,8726],[15.2,8795],[15.2,8865],[15.2,8933],[15.2,9003],[15.2,9075],[15.2,9146],[15.2,9215],[15.2,9285],[15.2,9356],[15.2,9426],[15.2,9496],[15.2,9564],[15.2,9634],[15.2,9707],[15.2,9776],[15.2,9846],[15.2,9915],[15.2,9987],[15.2,10057],[15.2,10125],[15.2,10196],[15.2,10268],[15.2,10339],[15.2,10409],[15.2,10478],[15.1,10549],[15.1,10621],[15.1,10693],[14.9,10762],[14.9,10834],[14.9,10906],[14.9,10976],[14.8,11048],[14.8,11119],[14.8,11190],[14.7,11260],[14.7,11334],[14.7,11403],[14.7,11473],[14.9,11543],[15.6,11621],[15.7,11698],[15.7,11773],[15.8,11849],[15.8,11925],[15.8,12004],[15.8,12074],[15.8,12152],[15.8,12230],[15.8,12305],[15.8,12385],[15.8,12464],[15.8,12538],[15.8,12614],[15.7,12687],[15.6,12759],[15.2,12834],[14.4,12906],[14.1,12980],[14,13051],[14,13120],[14,13189],[14,13261],[14,13333],[14,13401],[14,13476],[14,13550],[14,13619],[14,13688],[14,13759],[14,13831],[14,13904],[14,13974],[14,14050],[14,14117],[14,14185],[14,14257],[14,14329],[14,14398],[14,14467],[14,14538],[14,14609],[14,14681],[14,14750],[14,14819],[14,14892],[14,14964],[14,15032],[14,15103],[14,15174],[14,15244],[14,15314],[14,15389],[14,15459],[14,15534],[14,15609],[14,15683],[14,15759],[14,15829],[14,15898],[14,15969],[14,16042],[14,16112],[14,16183],[14,16255],[14,16325],[14,16394],[14,16463],[14,16533],[14,16605],[14,16675],[14,16746],[14,16817],[14,16889],[14,16959],[14,17020],[14,17103],[14,17172],[14,17242],[13.8,17311],[11.1,17398],[10,17474],[9.9,17544],[9.7,17617],[9.5,17690],[9.4,17762],[9.4,17833],[9.3,17905],[9.1,17975],[9.1,18047],[9.1,18118],[9.1,18188],[9.2,18262],[9.2,18332],[9.5,18404],[10.4,18477],[11.1,18553],[11.5,18625],[12.2,18703],[12.8,18775],[13.8,18849],[15.9,18925],[17,19000],[17.8,19074],[18.6,19149],[19.1,19222],[19.5,19295],[20.1,19369],[20.2,19441],[20.2,19513],[20.2,19584],[20.2,19660],[20.3,19730],[20.5,19802],[20.7,19877],[20.7,19948],[20.7,20016],[20.7,20085],[20.7,20153],[20.7,20225],[20.7,20296],[20.7,20365],[20.7,20434],[20.7,20502],[20.7,20574],[20.7,20648],[20.7,20717],[20.7,20787],[20.7,20858],[20.7,20929],[20.7,20998],[20.7,21070],[20.7,21141],[20.7,21210],[20.7,21278],[20.7,21348],[20.7,21416],[20.7,21487],[20.7,21547],[20.7,21635],[20.7,21708],[20.7,21779],[20.7,21848],[20.7,21920],[20.7,21993],[20.7,22064],[20.7,22130],[20.7,22200],[20.7,22272],[20.7,22353],[20.7,22425],[20.7,22495],[20.7,22569],[20.7,22638],[20.7,22709],[20.7,22777],[20.7,22846],[20.7,22921],[20.7,22994],[20.7,23067],[20.7,23139],[20.7,23208],[20.7,23279],[20.7,23348],[20.7,23419],[20.7,23491],[20.7,23560],[20.7,23630],[20.7,23694],[20.7,23788],[20.7,23857],[20.7,23925],[20.7,23993],[20.7,24064],[20.7,24135],[20.7,24205],[20.7,24277],[20.7,24349],[20.7,24419],[20.7,24487],[20.7,24556],[20.7,24625],[20.7,24695],[20.7,24767],[20.7,24835],[20.7,24905],[20.7,24974],[20.7,25045],[20.7,25125],[20.7,25204],[20.7,25278],[20.7,25348],[20.7,25417],[20.7,25487],[20.7,25556],[20.7,25628],[20.7,25710],[20.7,25782],[20.7,25853],[20.7,25923],[20.7,25994],[20.7,26064],[20.7,26134],[20.7,26203],[20.7,26274],[20.7,26346],[20.7,26420],[20.7,26490],[20.7,26561],[20.7,26630],[20.7,26700],[20.7,26770],[20.7,26843],[20.7,26913],[20.7,26985],[20.7,27054],[20.7,27126],[20.7,27196],[20.7,27265],[20.7,27334],[20.7,27405],[20.7,27479],[20.7,27538],[20.7,27625],[20.7,27695],[20.7,27764],[20.7,27830],[20.7,27899],[20.7,27969],[20.7,28041],[20.7,28109],[20.7,28178],[20.7,28247],[20.7,28317],[20.7,28389],[20.7,28460],[20.7,28529],[20.7,28597],[20.7,28668],[20.7,28740],[20.7,28810],[20.7,28879],[20.7,28955],[20.7,29023],[20.7,29089],[20.7,29156],[20.7,29226],[20.7,29295],[20.7,29364],[20.7,29435],[20.7,29505],[20.7,29573],[20.7,29643],[20.7,29712],[20.7,29784]]",1,0,149.7663,157.0883,15.3125,4.5362,"[{""rating"":14.687499999999998,""responseTime"":3.585000000000008},{""rating"":15.312500000000002,""responseTime"":4.5362000000477}]",space,6.7177,,157.0891,Half the time,50,162.6542,50.20833333,3.7816,"[{""rating"":50.208333333333336,""responseTime"":3.781600000143044}]",space,4.9814,,0,0,0,0,1,audio/Narrative13Situation2.wav,audio/Narrative13Situation2.wav,audio/Narrative13Situation2.wav,audio/Narrative13Situation2.wav,2,2,2,2,,,,,,,,,,,,,,,,,,,,,,,,,,,,,,,,,,,,,
,,,,,,5f6b8930b9d9530b1b065360,2024-05-13_11h41.33.635,group3.1-3.2-social-tom,2023.2.2,Win32,30.03003003,65c5074098b851296ff0b7ed,6642348d0a99afe9cb4cad10,,,,,,,,,,,,,,,,,,,,,,,,,,,,,162.6556,1,audio/Narrative7Situation1.wav,175.3129,space,175.313,231.2175,"[[999,17],[999,96],[999,165],[999,234],[999,304],[999,380],[999,450],[999,515],[999,583],[999,651],[999,722],[999,793],[999,864],[999,934],[999,1003],[999,1073],[999,1144],[999,1215],[999,1283],[999,1352],[999,1420],[999,1493],[999,1563],[999,1632],[999,1712],[999,1781],[999,1851],[999,1922],[999,1999],[10.6,2068],[10.4,2142],[10.3,2214],[10,2290],[9.6,2363],[9.4,2436],[9.3,2512],[9.3,2578],[9.3,2647],[9.3,2716],[9.3,2787],[9.7,2861],[10.1,2940],[10.3,3009],[10.3,3078],[10.3,3143],[10.3,3212],[10.3,3281],[10.2,3351],[9.4,3429],[7.6,3500],[6.6,3577],[6.5,3649],[6.4,3722],[5.4,3796],[4.5,3870],[4.1,3944],[4,4014],[4,4093],[4,4159],[4,4227],[4,4294],[4,4364],[4.1,4435],[5,4510],[5.6,4582],[5.7,4654],[5.7,4723],[5.7,4792],[5.7,4861],[5.7,4931],[5.6,5003],[5.3,5076],[4.7,5150],[4.5,5223],[4.4,5299],[4.4,5368],[4.3,5438],[4.3,5508],[4.2,5576],[4.2,5647],[4.2,5719],[4.2,5789],[4.2,5857],[4.2,5926],[4.2,5997],[4.2,6069],[4.2,6138],[4.2,6207],[4.2,6278],[4.2,6349],[4.2,6420],[4.2,6489],[4.2,6559],[4.2,6631],[4.2,6700],[4.2,6772],[4.2,6846],[4.2,6914],[4.2,6983],[4.2,7052],[4.2,7120],[4.2,7190],[4.2,7261],[4.2,7332],[4.2,7391],[4.2,7479],[4.2,7549],[4.2,7618],[4.2,7687],[4.2,7757],[4.2,7830],[4.2,7900],[4.2,7969],[4.2,8039],[4.2,8118],[4.2,8188],[4.2,8257],[4.2,8327],[4.2,8397],[4.2,8471],[4.2,8538],[4.2,8609],[4.2,8680],[4.2,8749],[4.2,8818],[4.2,8889],[4.2,8961],[4.2,9030],[4.2,9090],[4.2,9173],[4.2,9245],[4.2,9313],[4.2,9383],[4.2,9458],[4.2,9530],[4.2,9597],[4.2,9664],[4.2,9733],[4.2,9805],[4.2,9876],[4.2,9946],[4.2,10016],[5.1,10102],[5.5,10179],[5.6,10248],[5.6,10320],[5.6,10391],[5.6,10461],[5.6,10530],[5.6,10602],[5.6,10674],[5.5,10743],[5.5,10814],[5.5,10885],[5.5,10957],[5.5,11032],[5.5,11102],[5.5,11170],[5.5,11239],[5.5,11307],[5.5,11376],[5.5,11445],[5.4,11518],[5.4,11589],[5.4,11658],[5.4,11726],[5.4,11800],[5.4,11869],[5.4,11947],[5.6,12021],[5.7,12091],[5.7,12162],[5.8,12234],[6,12308],[6.5,12388],[6.5,12458],[6.5,12527],[6.5,12602],[6.5,12670],[6.5,12739],[6.6,12809],[6.6,12882],[6.6,12952],[6.6,13022],[6.6,13092],[6.6,13163],[6.6,13235],[6.6,13303],[6.6,13373],[6.6,13445],[6.6,13514],[6.6,13584],[6.6,13653],[6.6,13721],[6.6,13794],[6.6,13868],[6.6,13935],[6.6,14002],[6.6,14071],[6.6,14144],[6.6,14215],[6.6,14283],[6.9,14356],[7,14429],[6.7,14500],[6.7,14570],[6.8,14641],[6.9,14715],[6.9,14785],[6.9,14856],[7.1,14929],[7.8,15001],[8.1,15082],[8.2,15149],[8.8,15223],[9.2,15295],[9.8,15365],[10.7,15439],[11.1,15510],[11.4,15582],[11.4,15655],[11.4,15723],[11.5,15795],[11.5,15863],[11.5,15933],[11.7,16006],[12.1,16079],[12.4,16152],[12.7,16228],[13.2,16305],[13.5,16379],[14.1,16450],[14.6,16523],[15.1,16594],[16.5,16668],[20.1,16743],[22.9,16820],[24.4,16892],[25.1,16964],[26.4,17042],[27.2,17117],[28.3,17192],[30,17266],[31,17342],[32,17421],[33.4,17493],[34.1,17572],[34.4,17660],[35.6,17726],[36.5,17800],[36.5,17869],[36.5,17940],[36.6,18009],[36.7,18080],[36.7,18152],[36.8,18222],[36.8,18293],[36.8,18364],[36.8,18434],[36.9,18503],[36.9,18572],[36.9,18640],[36.9,18710],[36.9,18786],[36.9,18854],[36.9,18921],[36.9,18989],[36.9,19057],[36.9,19128],[36.9,19198],[36.8,19270],[36.7,19342],[36.7,19413],[36.7,19484],[36.7,19553],[36.7,19621],[36.9,19693],[37.2,19768],[37.2,19841],[37.3,19913],[37.3,19983],[37.5,20054],[37.6,20125],[37.7,20203],[37.7,20272],[37.7,20343],[37.8,20415],[38.1,20486],[38.4,20559],[38.4,20629],[38.5,20698],[38.5,20766],[38.5,20838],[38.6,20910],[38.6,20980],[38.5,21050],[38.5,21121],[38.5,21181],[37.8,21277],[37.2,21351],[36.9,21425],[36.3,21508],[35.9,21578],[35.8,21646],[35.2,21719],[33.8,21792],[33.5,21864],[33.4,21935],[33.1,22009],[33.1,22079],[33,22149],[33,22220],[33.2,22291],[33.9,22364],[34.2,22440],[34.4,22511],[34.6,22581],[34.7,22655],[34.9,22732],[35,22806],[35.1,22875],[35.2,22945],[35.2,23013],[35.2,23089],[35.2,23157],[35.2,23224],[35.2,23293],[35.2,23365],[35.2,23436],[35.1,23509],[35.1,23576],[35.1,23648],[35.1,23721],[35.2,23790],[35.3,23861],[35.5,23934],[35.5,24010],[35.5,24079],[35.5,24148],[35.2,24220],[34.6,24292],[34.2,24365],[33.3,24443],[32.4,24515],[32,24590],[31.7,24661],[31,24735],[30.7,24809],[30.6,24878],[30.4,24951],[30.2,25023],[30.1,25094],[30.2,25158],[30.2,25247],[30.2,25318],[30.2,25395],[30,25470],[29.4,25544],[28.9,25628],[28.4,25702],[28,25774],[27.9,25847],[27.9,25918],[27.4,25989],[26.9,26064],[26.3,26137],[25.2,26212],[24.7,26288],[24.2,26359],[23.6,26433],[23.1,26510],[22.8,26583],[22.6,26661],[22.2,26733],[21.9,26802],[21.5,26877],[21.4,26949],[21.1,27019],[21,27091],[20.9,27162],[20.8,27222],[20.8,27308],[20.8,27380],[20.7,27449],[20.6,27523],[20.6,27594],[20.6,27662],[20.5,27732],[20.5,27803],[20.5,27875],[20.4,27951],[20.3,28028],[20.3,28103],[20.2,28177],[20.2,28245],[20.2,28312],[20.2,28381],[20.1,28452],[20.1,28524],[20.1,28591],[20.1,28660],[20.1,28729],[20,28799],[20,28871],[19.8,28942],[19.6,29014],[19.4,29087],[19,29162],[18.9,29239],[18.9,29309],[18.9,29377],[18.8,29450],[18.8,29522],[18.8,29590],[18.6,29660],[18.6,29728],[18.6,29807],[18.5,29883],[18.5,29956],[18.4,30025],[18.4,30094],[18.1,30167],[17.8,30243],[17,30319],[16.6,30391],[16.3,30464],[16,30543],[15.9,30612],[15.8,30683],[15.8,30756],[15.7,30825],[15.7,30898],[15.7,30969],[15.6,31038],[15.6,31107],[15.5,31177],[15.5,31250],[15.5,31310],[15.5,31398],[15.6,31469],[17.1,31541],[18,31619],[18.1,31687],[18.1,31763],[18.1,31833],[18.1,31898],[18,31965],[18,32032],[18,32101],[18,32169],[18,32238],[18,32308],[18,32379],[18,32449],[18,32517],[18,32586],[18,32656],[18,32727],[18,32798],[18,32868],[18,32936],[18,33007],[18,33078],[18,33152],[18,33225],[18,33294],[18,33362],[18,33428],[18,33495],[18,33564],[18,33633],[18,33701],[18,33774],[18,33845],[18,33914],[18,33983],[18,34053],[18,34125],[20.5,34197],[26.9,34418],[27.5,34493],[28.9,34572],[30.8,34650],[31.5,34720],[31.9,34792],[32.7,34863],[33.9,34940],[34.5,35010],[35.1,35083],[35.3,35156],[35.6,35226],[35.8,35296],[35.8,35367],[35.9,35439],[35.9,35509],[36.3,35585],[36.4,35658],[36.4,35726],[36.4,35800],[36.4,35875],[36.4,35943],[36.4,36009],[36.4,36076],[36.4,36144],[36.3,36216],[36.3,36287],[36.3,36356],[36.1,36425],[36,36496],[36,36573],[36,36640],[35.9,36710],[35.8,36782],[35.8,36853],[35.8,36922],[35.8,36992],[35.8,37064],[35.8,37136],[35.7,37205],[35.7,37273],[35.7,37352],[35.6,37418],[35.6,37484],[35.6,37551],[35.6,37618],[35.6,37687],[35.8,37758],[36.5,37832],[36.6,37903],[36.6,37973],[36.8,38045],[36.8,38116],[36.8,38185],[36.8,38253],[36.8,38322],[36.4,38396],[34.2,38470],[33,38550],[32.6,38622],[31.9,38695],[31.5,38768],[31.3,38839],[30.9,38913],[30.6,38984],[30.6,39053],[30.6,39125],[30.5,39197],[30.5,39267],[31.5,39340],[32.3,39417],[32.8,39486],[33.6,39561],[34.1,39632],[34.5,39708],[35,39781],[35.3,39862],[35.4,39934],[35.5,40008],[35.7,40077],[35.8,40143],[35.8,40211],[36,40281],[36.1,40351],[36.1,40422],[36.1,40494],[36.3,40563],[36.3,40634],[36.3,40704],[36.3,40775],[36.3,40842],[36.3,40912],[36.3,40981],[36.3,41053],[36.3,41124],[36.3,41199],[36.4,41271],[36.4,41338],[36.5,41408],[36.5,41476],[36.5,41544],[36.5,41612],[36.5,41682],[36.5,41754],[36.5,41824],[36.5,41894],[36.5,41963],[36.5,42035],[36.5,42107],[36.5,42175],[36.5,42247],[36.5,42318],[36.5,42388],[36.5,42457],[36.5,42536],[36.5,42607],[36.5,42674],[36.6,42741],[36.6,42812],[36.1,42888],[35.5,42958],[35,43031],[34.6,43103],[34.3,43175],[34.2,43247],[34,43319],[33.6,43391],[33.6,43461],[33.6,43521],[33.5,43614],[33.8,43686],[34.9,43760],[36,43824],[36.9,43918],[38.5,43991],[40.7,44072],[42.2,44149],[43.5,44218],[44.6,44289],[44.6,44359],[44.7,44430],[45,44502],[45,44571],[45.1,44644],[45.2,44716],[45.4,44788],[45.4,44860],[45.4,44931],[45.1,45001],[44.5,45074],[44.1,45148],[43.3,45220],[42.8,45302],[42.7,45374],[42.4,45445],[42,45514],[42,45572],[41.9,45658],[41.3,45731],[40.9,45803],[40.8,45875],[40.6,45948],[40.3,46020],[39.7,46096],[38.8,46169],[37.9,46243],[37.4,46315],[36.9,46388],[36.3,46463],[36.1,46533],[36.1,46604],[35.9,46679],[35.7,46757],[35.4,46830],[35.2,46899],[35,46971],[35,47043],[35,47111],[34.9,47181],[34.9,47253],[34.9,47323],[34.8,47392],[34.7,47461],[34.7,47530],[34.7,47600],[34.7,47672],[34.6,47743],[34.6,47812],[34.6,47883],[34.6,47958],[34.6,48025],[34.6,48094],[34.6,48164],[34.6,48241],[34.6,48308],[34.6,48375],[34.6,48442],[34.5,48512],[34.5,48584],[34.3,48655],[34.2,48726],[34.2,48797],[34,48870],[33.4,48942],[33.3,49013],[33.2,49086],[32.2,49159],[31.7,49233],[31.6,49303],[31.3,49373],[30.3,49448],[30.1,49523],[29.8,49602],[29.2,49670],[29,49739],[28.5,49809],[28.4,49881],[28.3,49953],[28.3,50022],[28.1,50092],[27.6,50171],[27.4,50238],[27.1,50310],[26,50397],[25.4,50473],[25,50551],[23.8,50629],[23,50703],[22.7,50777],[22,50850],[21.3,50929],[21,51001],[20.7,51070],[19.4,51143],[19.2,51214],[19,51284],[18,51359],[17.8,51431],[17.6,51502],[17.3,51574],[16.6,51649],[16.4,51720],[16,51793],[15.3,51866],[15.2,51937],[14.9,52012],[14.2,52084],[13.5,52159],[13.3,52239],[13.1,52310],[12.7,52382],[12.7,52451],[12.6,52522],[12.3,52602],[12.3,52668],[12.2,52748],[11.9,52820],[11.8,52893],[11.7,52964],[11.7,53033],[11.6,53111],[11.6,53179],[11.6,53247],[11.6,53318],[11.6,53389],[11.6,53459],[11.6,53528],[11.5,53598],[11.5,53673],[11.5,53740],[11.5,53807],[11.5,53874],[11.5,53943],[11.5,54014],[11.5,54085],[11.5,54157],[11.5,54229],[11.5,54295],[11.5,54367],[11.5,54438],[11.5,54506],[11.5,54574],[11.5,54643],[11.5,54711],[11.5,54782],[11.5,54854],[11.5,54922],[11.5,54992],[11.5,55060],[11.5,55138],[11.5,55208],[11.5,55274],[11.5,55341],[11.5,55410],[11.5,55481],[11.4,55554],[11.3,55624],[11.3,55694],[11.3,55765],[11.3,55835],[11.3,55904]]",1,0,231.218,235.6465,27.39583333,2.482,"[{""rating"":27.39583333333333,""responseTime"":2.4819999999999993}]",space,3.842,,235.6467,Not at all,0,235.6601,,,[],,,,0,1,1,1,1,audio/Narrative7Situation1.wav,audio/Narrative8Situation1.wav,audio/Narrative5Situation1.wav,audio/Narrative6Situation1.wav,2,5,5,2,12.6144,,,,,,,,,,,,,,,,,,,,,,,,,,,,,,,,,,,,
,,,,,,5f6b8930b9d9530b1b065360,2024-05-13_11h41.33.635,group3.1-3.2-social-tom,2023.2.2,Win32,30.03003003,65c5074098b851296ff0b7ed,6642348d0a99afe9cb4cad10,,,,,,,,,,,,,,,,,,,,,,,,,,,,,235.6605,1,audio/Narrative7Situation2.wav,238.679,,238.6809,246.2027,"[[45.4,148],[45.4,217],[45.4,292],[45.2,362],[45.1,429],[45.1,495],[45.1,562],[44.7,634],[43.3,711],[40.7,786],[32.3,864],[25.2,960],[22.6,1028],[15.6,1101],[10.6,1177],[9.1,1250],[8.1,1324],[5.8,1406],[4.4,1476],[4.2,1543],[4.2,1611],[4.1,1680],[4.4,1756],[5.2,1834],[7,1911],[9.1,1982],[11.9,2058],[12.5,2130],[12.7,2204],[12.9,2276],[12.9,2344],[12.9,2414],[12.9,2485],[13,2556],[13,2624],[13.4,2700],[13.6,2774],[13.6,2850],[13.6,2919],[13.6,2990],[13.5,3059],[13.3,3130],[13.2,3203],[13.1,3274],[12.5,3345],[12.2,3422],[12.1,3491],[12,3564],[11.7,3634],[11.7,3705],[11.3,3776],[10.5,3850],[10.2,3924],[10,3995],[9.7,4071],[9.6,4139],[9.5,4213],[9.4,4283],[9.1,4354],[9.1,4423],[9.1,4491],[9.1,4561],[9,4633],[10,4705],[12.5,4780],[13.6,4854],[14.4,4931],[14.7,5001],[14.8,5069],[15.8,5143],[17.7,5219],[19.3,5292],[21.5,5367],[23.3,5450],[24.5,5519],[25.8,5593],[28.6,5663],[30.6,5737],[31.6,5813],[32.3,5887],[32.9,5961],[33.1,6032],[33.2,6103],[33.5,6175],[33.6,6247],[33.6,6315],[33.6,6384],[33.6,6451],[33.8,6526],[34.9,6601],[35.7,6674],[35.8,6746],[36.4,6819],[38.2,6897],[40,6967],[40.2,7038],[40.6,7112],[41.6,7185],[42.1,7260],[43,7334],[44,7411],[44.4,7484]]",1,0,246.203,250.2864,41.66666667,3.0311,"[{""rating"":41.66666666666667,""responseTime"":3.0310999999046544}]",space,3.4961,,250.2865,Half the time,50,250.2989,,,[],,,,0,2,2,2,1,audio/Narrative7Situation2.wav,audio/Narrative8Situation2.wav,audio/Narrative5Situation2.wav,audio/Narrative6Situation2.wav,3,3,3,3,,,,,,,,,,,,,,,,,,,,,,,,,,,,,,,,,,,,,
,,,,,,5f6b8930b9d9530b1b065360,2024-05-13_11h41.33.635,group3.1-3.2-social-tom,2023.2.2,Win32,30.03003003,65c5074098b851296ff0b7ed,6642348d0a99afe9cb4cad10,,,,,,,,,,,,,,,,,,,,,,,,,,,,,250.2993,1,audio/Narrative7Situation3.wav,258.3236,,258.3236,267.5841,"[[999,15],[999,88],[999,156],[999,229],[999,300],[999,369],[999,438],[999,506],[999,577],[999,649],[999,718],[999,789],[999,866],[999,940],[999,1009],[999,1084],[999,1161],[999,1237],[999,1307],[27.9,1379],[27.6,1451],[27,1521],[24.6,1596],[24.2,1668],[24,1741],[21.1,1816],[14.8,1889],[12.7,1967],[10.3,2037],[5.4,2112],[4.5,2184],[4.3,2258],[4.2,2331],[4.2,2400],[4.4,2470],[4.8,2549],[5.2,2624],[6.1,2699],[6.7,2766],[6.9,2836],[7.6,2910],[8.9,2982],[9.7,3057],[10.8,3124],[14.4,3210],[19.4,3283],[28.2,3359],[32.8,3431],[35.6,3504],[37.6,3580],[38.6,3654],[39.3,3730],[39.4,3808],[40,3878],[40.6,3949],[40.8,4021],[41.1,4092],[42.3,4168],[42.7,4241],[42.7,4310],[42.9,4381],[43.2,4457],[43.3,4528],[43.5,4599],[43.8,4673],[43.8,4742],[44.1,4814],[44.8,4889],[45.1,4960],[45.1,5030],[45.2,5103],[45.2,5173],[45.2,5251],[45.2,5324],[45.4,5394],[45.4,5467],[45.5,5538],[45.8,5609],[45.9,5681],[45.9,5753],[46.1,5823],[46.6,5898],[46.6,5970],[46.8,6039],[46.9,6109],[47,6182],[47.2,6254],[48.6,6329],[50.1,6413],[50.6,6482],[51.7,6557],[52.8,6629],[52.9,6697],[53.2,6775],[53.9,6853],[54.2,6929],[54.5,7000],[55.1,7072],[55.5,7146],[55.5,7216],[55.5,7286],[55.6,7355],[55.6,7427],[55.6,7498],[55.6,7568],[55.3,7650],[55.3,7718],[55.3,7790],[55.6,7879],[55.7,7948],[55.9,8020],[56.1,8092],[56.1,8163],[56.3,8231],[56.5,8302],[56.5,8374],[56.6,8447],[56.8,8517],[56.9,8591],[56.9,8660],[56.9,8727],[56.9,8797],[56.9,8866],[56.8,8941],[56.8,9015],[56.7,9089],[56.5,9158],[56.5,9227]]",1,0,267.5843,271.2582,61.25,2.5264,"[{""rating"":61.25000000000001,""responseTime"":2.52640000009535}]",space,3.0862,,271.2584,Half the time,50,271.2671,,,[],,,,0,3,3,3,1,audio/Narrative7Situation3.wav,audio/Narrative8Situation3.wav,audio/Narrative5Situation3.wav,audio/Narrative6Situation3.wav,8,4,3,5,,,,,,,,,,,,,,,,,,,,,,,,,,,,,,,,,,,,,
,,,,,,5f6b8930b9d9530b1b065360,2024-05-13_11h41.33.635,group3.1-3.2-social-tom,2023.2.2,Win32,30.03003003,65c5074098b851296ff0b7ed,6642348d0a99afe9cb4cad10,,,,,,,,,,,,,,,,,,,,,,,,,,,,,271.2679,1,audio/Narrative7Situation4.wav,274.2856,,274.2857,286.075,"[[999,15],[999,86],[999,152],[999,221],[999,282],[999,376],[999,447],[999,518],[999,591],[999,663],[999,740],[999,814],[999,892],[999,966],[999,1035],[999,1106],[999,1175],[999,1247],[999,1320],[45.9,1395],[44.9,1471],[43.1,1545],[41,1618],[39.2,1697],[38.2,1765],[37.7,1839],[37.2,1914],[37.1,1986],[37.1,2058],[37.1,2126],[37,2196],[37,2270],[37,2344],[37,2411],[37,2477],[37,2544],[37,2612],[37,2683],[37,2754],[37,2826],[37,2894],[37,2963],[36.7,3031],[35.2,3127],[33.8,3195],[32.9,3269],[29.6,3344],[26,3419],[24.8,3495],[24.4,3568],[23.6,3649],[22.8,3724],[22.2,3795],[21.8,3867],[21.4,3941],[20.9,4019],[20.8,4090],[20.7,4161],[20.6,4233],[20.1,4304],[19.2,4379],[18.6,4452],[17.8,4525],[16.1,4601],[15.5,4674],[14.9,4751],[14.3,4830],[14.1,4905],[14.1,4972],[13.6,5045],[13.4,5117],[13.3,5185],[13.2,5263],[12.9,5329],[12.8,5401],[12.8,5470],[12.8,5539],[12.8,5611],[12.8,5682],[12.8,5751],[12.8,5820],[12.8,5891],[13.9,5967],[14.6,6045],[14.6,6118],[14.6,6186],[14.6,6254],[14.5,6324],[14.4,6396],[14.4,6465],[14.4,6535],[14.5,6605],[14.5,6677],[14.7,6747],[15.1,6819],[15.2,6894],[15.2,6964],[15.2,7032],[15.2,7100],[15.2,7170],[15.2,7242],[15.2,7310],[16.1,7389],[17.5,7466],[18.4,7539],[19.7,7611],[20.5,7681],[20.9,7756],[21.4,7828],[22.1,7899],[22.5,7976],[22.6,8045],[22.7,8115],[22.8,8197],[22.8,8266],[22.8,8332],[23.1,8422],[23.4,8489],[23.6,8565],[24.3,8641],[25.1,8710],[26.1,8782],[27.5,8856],[29.7,8929],[30.1,9005],[30.2,9075],[30.4,9145],[31,9219],[31.9,9296],[32.5,9366],[33,9441],[33.1,9510],[33.3,9585],[33.8,9661],[34,9734],[34,9808],[34,9875],[34.4,9944],[34.4,10015],[34.4,10085],[34.4,10155],[34.7,10226],[34.8,10297],[34.8,10370],[34.9,10431],[34.9,10515],[34.9,10586],[34.9,10654],[34.9,10722],[34.9,10792],[34.9,10864],[34.9,10934],[34.9,11002],[34.9,11071],[34.9,11142],[34.9,11219],[34.9,11287],[34.7,11355],[34.7,11430],[34.6,11503],[34.4,11580],[34.4,11650],[34.4,11720],[34.4,11788]]",1,0,286.0752,288.5308,15,1.6843,"[{""rating"":15.000000000000002,""responseTime"":1.6843000001907171}]",space,1.8669,,288.5309,Not at all,0,294.754,0,4.7295,"[{""rating"":0,""responseTime"":4.729499999999973}]",space,5.6347,,0,4,4,4,1,audio/Narrative7Situation4.wav,audio/Narrative8Situation4.wav,audio/Narrative5Situation4.wav,audio/Narrative6Situation4.wav,3,3,1,2,,,,,,,,,,,,,,,,,,,,,,,,,,,,,,,,,,,,,
,,,,,,5f6b8930b9d9530b1b065360,2024-05-13_11h41.33.635,group3.1-3.2-social-tom,2023.2.2,Win32,30.03003003,65c5074098b851296ff0b7ed,6642348d0a99afe9cb4cad10,,,,,,,,,,,,,,,,,,,,,,,,,,,,,294.7566,1,audio/Narrative7Situation5.wav,299.7629,,299.763,308.2704,"[[999,15],[999,88],[999,156],[999,228],[999,300],[999,369],[999,444],[999,516],[999,588],[999,658],[999,734],[999,806],[999,881],[999,957],[38.8,1029],[28.9,1103],[22.4,1178],[18.1,1252],[16.1,1329],[13.5,1399],[11.3,1472],[9.7,1548],[8.5,1627],[7.7,1696],[7.3,1767],[7,1841],[6.8,1904],[6.7,1993],[6.7,2063],[6.7,2132],[6.6,2201],[6.6,2273],[6.7,2344],[7,2416],[7.3,2489],[7.7,2561],[7.9,2632],[8,2702],[8,2773],[8.1,2849],[8.1,2920],[8.1,2990],[8.1,3060],[8.1,3129],[7.9,3199],[7.9,3270],[7.9,3342],[7.8,3412],[7.7,3483],[7.7,3555],[7.7,3625],[8.2,3696],[8.9,3770],[10.4,3845],[14.2,3918],[18.8,3983],[22.4,4074],[25.7,4146],[27.2,4223],[29,4295],[30,4368],[30.2,4441],[30.4,4512],[31.7,4587],[33.1,4659],[35.8,4733],[37.2,4808],[37.5,4879],[37.6,4953],[37.7,5027],[38.2,5100],[38.6,5172],[39.1,5243],[39.4,5316],[39.5,5388],[39.5,5458],[39.5,5531],[39.5,5601],[39.5,5669],[39.5,5738],[40.1,5810],[40.5,5883],[40.9,5955],[41.8,6029],[43.5,6104],[44.4,6179],[45,6249],[45.7,6325],[45.9,6392],[46.4,6467],[47,6538],[47.3,6611],[47.5,6684],[47.8,6755],[49.1,6833],[49.7,6905],[49.9,6976],[50.4,7052],[50.9,7122],[50.9,7194],[51.3,7267],[51.6,7338],[51.6,7411],[51.6,7481],[51.6,7550],[51.6,7620],[51.6,7691],[51.6,7762],[51.6,7834],[51.6,7904],[51.5,7977],[51.5,8047],[51.5,8116],[51.5,8185],[51.8,8263],[52.1,8332],[52.1,8400],[52.1,8471]]",1,0,308.2706,313.6076,57.5,2.9406,"[{""rating"":57.49999999999999,""responseTime"":2.9405999999046344}]",space,4.7522,,313.6077,Half the time,50,313.62,,,[],,,,0,5,5,5,1,audio/Narrative7Situation5.wav,audio/Narrative8Situation5.wav,audio/Narrative5Situation5.wav,audio/Narrative6Situation5.wav,5,2,5,2,,,,,,,,,,,,,,,,,,,,,,,,,,,,,,,,,,,,,
,,,,,,5f6b8930b9d9530b1b065360,2024-05-13_11h41.33.635,group3.1-3.2-social-tom,2023.2.2,Win32,30.03003003,65c5074098b851296ff0b7ed,6642348d0a99afe9cb4cad10,,,,,,,,,,,,,,,,,,,,,,,,,,,,,313.6208,1,audio/Narrative7Situation6.wav,316.6222,,316.6223,326.6337,"[[999,15],[999,91],[999,163],[999,231],[999,301],[999,373],[999,446],[999,521],[999,593],[999,660],[999,727],[999,797],[999,858],[999,940],[999,1009],[999,1077],[999,1147],[999,1218],[999,1289],[999,1362],[999,1434],[999,1510],[999,1581],[999,1655],[999,1728],[999,1800],[22.7,1877],[23.6,1952],[24.7,2025],[25.2,2096],[25.3,2166],[25.3,2237],[25.3,2307],[25.3,2377],[25.3,2446],[25.8,2518],[27.4,2592],[33.1,2668],[34.8,2740],[36.7,2813],[39.6,2888],[40.9,2960],[41.1,3032],[41.1,3107],[40.9,3177],[40.9,3245],[40.9,3317],[40.6,3389],[40.4,3460],[40.1,3534],[39.7,3607],[38.9,3681],[38.4,3754],[37.7,3826],[35.4,3902],[33.1,3975],[31.8,4049],[30.7,4122],[29.3,4197],[28.9,4270],[28.2,4341],[26.8,4422],[25.7,4493],[25.5,4570],[25.2,4639],[25,4707],[24.9,4778],[24.6,4851],[23.8,4923],[23.1,4999],[22.9,5070],[22.2,5144],[21.1,5217],[20.8,5288],[20.4,5362],[18.8,5437],[18.1,5511],[17.9,5582],[17.6,5660],[17.3,5731],[17.2,5800],[17.1,5869],[16.8,5941],[16.7,6013],[16.7,6081],[16.7,6141],[16.5,6227],[16.5,6297],[16.4,6367],[16.3,6438],[16.1,6511],[15.8,6583],[15.8,6653],[15.6,6727],[15.3,6798],[15,6875],[15,6943],[14.9,7012],[14.9,7084],[14.8,7155],[14.8,7227],[14.6,7297],[14.4,7372],[14.3,7447],[14.1,7520],[14.1,7593],[13.8,7665],[13.8,7738],[13.8,7807],[13.6,7870],[13.5,7956],[13.4,8032],[13.4,8101],[13.3,8172],[13.3,8243],[13.3,8311],[13.3,8381],[13.2,8459],[13.2,8534],[13.2,8607],[13.1,8675],[13.1,8749],[13.1,8820],[13.1,8890],[13.1,8966],[13.1,9037],[13.1,9105],[13.1,9174],[13.1,9242],[13.1,9312],[13.1,9383],[13.1,9456],[13.1,9523],[13.1,9591],[13.1,9659],[13.1,9729],[13.1,9799],[13.1,9870],[13.1,9941],[13.1,10011]]",1,0,326.6339,329.1901,10,1.4399,"[{""rating"":9.999999999999998,""responseTime"":1.439900000095406}]",space,1.9641,,329.1903,All the time,100,329.2029,,,[],,,,0,6,6,6,1,audio/Narrative7Situation6.wav,audio/Narrative8Situation6.wav,audio/Narrative5Situation6.wav,audio/Narrative6Situation6.wav,3,2,3,2,,,,,,,,,,,,,,,,,,,,,,,,,,,,,,,,,,,,,
,,,,,,5f6b8930b9d9530b1b065360,2024-05-13_11h41.33.635,group3.1-3.2-social-tom,2023.2.2,Win32,30.03003003,65c5074098b851296ff0b7ed,6642348d0a99afe9cb4cad10,,,,,,,,,,,,,,,,,,,,,,,,,,,,,329.2032,1,audio/Narrative7Situation7.wav,334.2348,,334.2349,351.4803,"[[999,14],[999,79],[999,150],[999,219],[999,291],[999,358],[999,429],[999,502],[999,571],[999,640],[999,713],[999,784],[999,854],[999,924],[999,995],[999,1066],[10.9,1140],[12.2,1211],[12.5,1284],[12.8,1356],[13.2,1438],[13.6,1504],[15,1577],[17.8,1650],[18.4,1722],[18.4,1794],[18.5,1865],[20.3,1937],[25.4,2012],[26.3,2087],[26.9,2164],[28,2238],[30,2310],[31.6,2385],[33,2458],[35.8,2532],[38.6,2606],[39.4,2683],[40.5,2758],[41.1,2829],[41.5,2898],[41.8,2972],[41.9,3044],[41.9,3111],[42.2,3182],[42.3,3253],[42.3,3324],[42.3,3395],[42.3,3466],[42.2,3538],[41.9,3611],[41.8,3683],[41.6,3756],[41.6,3826],[41.6,3895],[41.6,3963],[41.6,4032],[41.6,4108],[41.6,4176],[41.6,4250],[41.6,4320],[41.6,4389],[41.6,4458],[41.6,4526],[41.6,4595],[41.6,4663],[41.6,4734],[41.6,4805],[41.6,4874],[41.6,4942],[41.6,5011],[41.6,5081],[41.6,5152],[41.6,5224],[41.6,5291],[41.6,5359],[41.6,5429],[41.9,5501],[42.7,5572],[42.3,5645],[41.4,5724],[40.4,5794],[39.9,5867],[39.6,5939],[39.5,6009],[39.5,6081],[39.5,6152],[39.5,6220],[39.5,6289],[39.5,6358],[39.5,6427],[39.5,6488],[39.5,6581],[39.5,6651],[39.4,6721],[39.2,6791],[38.6,6865],[37.9,6939],[37.6,7009],[37,7098],[35.3,7174],[34.7,7240],[34.7,7310],[34.5,7382],[34.1,7455],[34,7525],[33.9,7597],[33.5,7671],[33.4,7740],[33.3,7801],[33.3,7895],[33.3,7965],[33.3,8032],[33.2,8102],[32.9,8175],[32.7,8249],[32.6,8321],[32.3,8395],[32.1,8467],[32.1,8541],[32.1,8611],[32.1,8679],[33.5,8750],[35.8,8825],[39.2,8898],[42.1,8971],[49.1,9047],[50.8,9118],[50.9,9191],[51.5,9264],[51.8,9335],[51.8,9407],[52.1,9478],[52.9,9551],[53.1,9626],[53.4,9697],[54.1,9776],[54.5,9851],[54.5,9923],[54.8,9996],[55.1,10067],[55.1,10138],[55.1,10210],[55.2,10278],[55.2,10348],[55.3,10418],[55.3,10491],[55.5,10561],[55.5,10630],[55.5,10701],[55.8,10774],[55.9,10844],[56.1,10914],[56.1,10985],[56.5,11057],[56.6,11129],[56.6,11204],[56.7,11272],[56.7,11339],[56.7,11408],[56.9,11485],[57,11556],[57,11627],[57,11698],[57.4,11772],[57.6,11844],[57.9,11915],[58,11987],[58.2,12056],[58.3,12126],[58.3,12196],[58.4,12267],[58.5,12337],[58.5,12407],[58.6,12477],[58.6,12551],[58.8,12617],[58.6,12688],[58.6,12758],[58.6,12834],[58.8,12902],[58.8,12970],[59,13041],[59.1,13114],[59.1,13186],[59.1,13254],[59.1,13322],[59.1,13392],[59.1,13463],[59.1,13534],[59.1,13604],[59.1,13672],[59.1,13742],[59.1,13813],[59.1,13883],[59.1,13952],[59.1,14027],[59.2,14097],[59.3,14164],[59.3,14232],[59.6,14302],[59.6,14371],[59.6,14443],[59.6,14515],[59.6,14583],[59.6,14651],[59.6,14721],[59.6,14789],[59.6,14862],[59.5,14932],[59.4,15014],[59.4,15083],[59.4,15152],[59.3,15230],[59.3,15295],[59.3,15361],[59,15434],[58.9,15502],[58.8,15574],[58.1,15648],[57.4,15721],[57.3,15794],[57.3,15864],[57.2,15933],[57.1,16006],[57.1,16080],[56.9,16148],[56.8,16222],[56.8,16282],[56.4,16374],[55,16447],[54.6,16520],[54.5,16594],[54,16664],[53.5,16743],[53.4,16810],[53.3,16879],[52.6,16952],[52.4,17025],[52.2,17096],[51.7,17168],[51.3,17244]]",1,0,351.4811,355.7675,53.75,2.4057,"[{""rating"":53.75,""responseTime"":2.405700000047659}]",space,3.6912,,355.7695,All the time,100,355.7768,,,[],,,,0,7,7,7,1,audio/Narrative7Situation7.wav,audio/Narrative8Situation7.wav,audio/Narrative5Situation7.wav,audio/Narrative6Situation7.wav,5,3,4,5,,,,,,,,,,,,,,,,,,,,,,,,,,,,,,,,,,,,,
,,,,,,5f6b8930b9d9530b1b065360,2024-05-13_11h41.33.635,group3.1-3.2-social-tom,2023.2.2,Win32,30.03003003,65c5074098b851296ff0b7ed,6642348d0a99afe9cb4cad10,,,,,,,,,,,,,,,,,,,,,,,,,,,,,355.7783,1,audio/Narrative7Situation8.wav,357.7804,,357.7804,367.8457,"[[999,0],[999,81],[999,145],[999,214],[999,284],[999,356],[999,427],[999,498],[999,568],[999,640],[999,711],[999,780],[999,851],[999,924],[999,992],[999,1065],[999,1134],[999,1205],[999,1274],[999,1342],[999,1411],[999,1479],[999,1551],[999,1620],[999,1691],[999,1759],[999,1833],[22.3,1911],[22.9,1980],[23,2053],[23,2125],[23.2,2199],[23.3,2282],[24.1,2359],[29.4,2430],[39.8,2509],[43.8,2585],[44.2,2661],[45.4,2741],[47.1,2818],[49.7,2903],[52.1,2977],[52.9,3055],[53.8,3132],[55,3209],[55.5,3288],[55.8,3365],[56.6,3446],[56.9,3518],[57.2,3589],[57.4,3659],[57.8,3733],[58,3806],[58.5,3879],[58.5,3950],[58.5,4017],[58.4,4088],[58.4,4162],[58.4,4233],[58.3,4302],[58.2,4372],[58.2,4446],[58.2,4515],[58.2,4582],[58.2,4651],[58.2,4720],[58.2,4788],[58.3,4861],[58.3,4931],[58.6,5002],[58.6,5074],[58.8,5147],[58.9,5216],[58.9,5285],[58.9,5353],[58.9,5424],[58.9,5496],[58.9,5565],[58.8,5634],[58.8,5710],[58.8,5777],[58.8,5844],[59,5913],[59.1,5984],[59.1,6054],[59.1,6125],[59.1,6196],[59,6265],[58.1,6340],[56.9,6414],[56.8,6483],[56.8,6555],[56.4,6631],[56.3,6702],[56.3,6774],[56.1,6845],[55.9,6918],[55.9,6989],[55.9,7062],[55.9,7130],[55.8,7201],[55.8,7274],[55.7,7343],[55.5,7413],[55.5,7486],[55.5,7558],[55.5,7627],[55.5,7696],[55.5,7767],[55.5,7839],[55.5,7907],[55.7,7977],[56.1,8051],[56.6,8124],[57,8196],[57.1,8270],[57.1,8341],[57.1,8415],[57,8486],[56.4,8559],[55.5,8632],[55.1,8705],[54.7,8778],[52.9,8853],[50.7,8926],[49.8,9000],[49.1,9073],[48.1,9149],[47.5,9221],[47,9293],[46.3,9367],[45.8,9440],[45.5,9512],[45.1,9590],[44.5,9663],[44.2,9734],[43.8,9813],[43.3,9888],[43.2,9958],[43.1,10029]]",1,0,367.8459,371.3027,54.79166667,2.2985,"[{""rating"":54.79166666666667,""responseTime"":2.29849999999999}]",space,2.8657,,371.3028,All the time,100,371.3113,,,[],,,,0,8,8,8,1,audio/Narrative7Situation8.wav,audio/Narrative8Situation8.wav,audio/Narrative5Situation8.wav,audio/Narrative6Situation8.wav,2,3,3,5,,,,,,,,,,,,,,,,,,,,,,,,,,,,,,,,,,,,,
,,,,,,5f6b8930b9d9530b1b065360,2024-05-13_11h41.33.635,group3.1-3.2-social-tom,2023.2.2,Win32,30.03003003,65c5074098b851296ff0b7ed,6642348d0a99afe9cb4cad10,,,,,,,,,,,,,,,,,,,,,,,,,,,,,371.312,1,audio/Narrative7Situation9.wav,373.3377,,373.3377,382.0133,"[[999,0],[999,76],[999,148],[999,216],[999,285],[999,357],[999,426],[999,496],[999,566],[999,635],[999,709],[999,783],[999,859],[999,932],[999,1009],[999,1081],[999,1152],[999,1226],[48.1,1298],[48.4,1372],[48.4,1444],[48.4,1514],[47.7,1587],[45,1662],[39.6,1736],[35.1,1811],[34,1884],[33.3,1963],[32.7,2033],[32.6,2110],[32.4,2178],[32.3,2250],[32.2,2324],[32.1,2396],[31.8,2469],[31.8,2538],[31.7,2606],[30.8,2678],[29.8,2755],[29.2,2827],[28.3,2902],[27.3,2976],[27,3049],[27,3120],[26.6,3191],[26.1,3263],[26.1,3336],[26,3403],[25.8,3474],[25.7,3545],[25.7,3617],[25.7,3689],[25.6,3762],[25.5,3834],[25.5,3893],[25.3,3982],[25.2,4054],[25.2,4123],[25.1,4194],[24.9,4256],[24.9,4347],[24.8,4417],[24.7,4487],[24.7,4556],[24.7,4628],[24.6,4710],[24.6,4786],[24.5,4853],[24.5,4927],[24.3,5017],[24.2,5082],[24.1,5149],[23.8,5222],[23.5,5292],[23.1,5366],[22.6,5438],[22.3,5510],[22.3,5579],[22.3,5647],[22.2,5718],[22.2,5789],[22.2,5860],[22.1,5933],[21.9,6002],[21.9,6072],[21.9,6157],[21.7,6232],[21.6,6298],[21.6,6367],[21.5,6438],[21.5,6511],[21.5,6578],[21.5,6650],[21.5,6721],[21.5,6791],[21.5,6861],[21.5,6931],[21.5,6999],[21.5,7071],[21.5,7141],[21.5,7211],[21.5,7280],[21.5,7350],[21.5,7421],[21.5,7491],[21.5,7559],[21.5,7628],[21.5,7697],[21.5,7767],[21.5,7838],[21.5,7911],[21.5,7979],[21.5,8048],[21.5,8119],[21.5,8189],[21.5,8258],[21.5,8326],[21.5,8395],[21.5,8466],[21.5,8536],[21.5,8606],[21.5,8675]]",1,0,382.0135,384.9007,15,1.2544,"[{""rating"":15.000000000000002,""responseTime"":1.2544000000953588}]",space,2.2962,,384.9007,Half the time,50,384.9124,,,[],,,,0,9,9,9,1,audio/Narrative7Situation9.wav,audio/Narrative8Situation9.wav,audio/Narrative5Situation9.wav,audio/Narrative6Situation9.wav,2,3,3,4,,,,,,,,,,,,,,,,,,,,,,,,,,,,,,,,,,,,,
,,,,,,5f6b8930b9d9530b1b065360,2024-05-13_11h41.33.635,group3.1-3.2-social-tom,2023.2.2,Win32,30.03003003,65c5074098b851296ff0b7ed,6642348d0a99afe9cb4cad10,,,,,,,,,,,,,,,,,,,,,,,,,,,,,384.9131,1,audio/Narrative8Situation1.wav,389.9221,,389.9221,405.9028,"[[30.4,1315],[28.8,1390],[26.5,1465],[22.7,1540],[19,1615],[16.6,1689],[13.9,1763],[11.8,1835],[11.5,1909],[11.4,1980],[10.7,2053],[10.6,2130],[10.6,2197],[10.6,2264],[10.6,2334],[10.6,2404],[10.6,2476],[10.6,2545],[10.6,2614],[10.6,2682],[9.8,2756],[8.2,2832],[7.9,2900],[7.4,2992],[7.1,3063],[7.1,3135],[7,3207],[7,3276],[7,3345],[7,3413],[7,3485],[7,3556],[7,3628],[7,3697],[7,3768],[7,3839],[7,3908],[7,3977],[7,4046],[7,4117],[7,4187],[7,4254],[7,4324],[7,4393],[7,4462],[7,4534],[7,4603],[7,4672],[7,4747],[7,4823],[7,4891],[7,4959],[7,5030],[7,5098],[7,5170],[7,5238],[7,5308],[7,5378],[7,5449],[7,5520],[7,5589],[7,5659],[7,5731],[7,5800],[7,5868],[7,5936],[7,6004],[7,6078],[7,6148],[7,6216],[7,6286],[7,6354],[7,6428],[7,6508],[7,6588],[7,6660],[7,6731],[7,6801],[7,6869],[7,6938],[7,7009],[7,7080],[7,7148],[7,7218],[7,7291],[7,7368],[7,7444],[7,7513],[7,7584],[7,7659],[7,7731],[7,7811],[7,7879],[7,7949],[7,8019],[7,8093],[7,8168],[7,8244],[7,8317],[7,8394],[7,8468],[7,8546],[7,8609],[7,8691],[7,8760],[7,8819],[7,8905],[7,8974],[7,9041],[7,9111],[7,9180],[7,9249],[7,9320],[7,9391],[7,9459],[7,9528],[7,9598],[7,9669],[7,9740],[7,9806],[7,9875],[7.4,9961],[7.9,10032],[8.1,10104],[8.3,10174],[9.4,10246],[11.9,10322],[14.6,10396],[18.9,10469],[23.1,10543],[29.5,10619],[34.9,10692],[37.2,10768],[38.2,10842],[38.5,10915],[38.5,10988],[38.5,11056],[39.2,11128],[40.5,11202],[41.3,11278],[42.6,11353],[43.4,11427],[43.5,11501],[43.8,11572],[44,11641],[44.2,11716],[44.2,11787],[44.3,11857],[44.3,11928],[44.3,11999],[44.3,12066],[44.5,12137],[44.7,12208],[45,12281],[45.8,12354],[47.1,12427],[47.7,12502],[49,12573],[50.4,12650],[50.8,12721],[51.5,12796],[52.2,12872],[52.8,12945],[53.5,13020],[54.9,13094],[55.7,13169],[56,13242],[56.5,13319],[56.9,13387],[56.9,13458],[56.9,13529],[56.9,13597],[57.2,13668],[57.2,13739],[57.4,13803],[57.8,13894],[58.1,13967],[58.3,14038],[59.1,14111],[60,14184],[60.6,14260],[60.9,14331],[61.4,14408],[61.6,14479],[62.4,14551],[64,14627],[64.5,14700],[64.6,14770],[64.7,14843],[65,14916],[65,14985],[65,15056],[65.1,15127],[65.1,15197],[65.1,15270],[65.1,15339],[65.1,15400],[65.1,15488],[65.1,15557],[65.1,15628],[65.1,15697],[65.1,15771],[65.1,15841],[65.1,15910],[65.1,15980]]",1,0,405.9029,409.3699,35.625,2.5005,"[{""rating"":35.625,""responseTime"":2.500500000000045}]",space,2.8835,,409.37,All the time,100,409.3811,,,[],,,,0,10,10,10,1,audio/Narrative8Situation1.wav,audio/Narrative7Situation1.wav,audio/Narrative6Situation1.wav,audio/Narrative5Situation1.wav,5,2,2,5,,,,,,,,,,,,,,,,,,,,,,,,,,,,,,,,,,,,,
,,,,,,5f6b8930b9d9530b1b065360,2024-05-13_11h41.33.635,group3.1-3.2-social-tom,2023.2.2,Win32,30.03003003,65c5074098b851296ff0b7ed,6642348d0a99afe9cb4cad10,,,,,,,,,,,,,,,,,,,,,,,,,,,,,409.3816,1,audio/Narrative8Situation2.wav,412.4016,,412.4017,422.575,"[[999,3],[999,78],[999,150],[999,223],[999,295],[999,363],[999,432],[999,507],[33.5,578],[33,655],[32.8,727],[32.6,799],[32.6,873],[32.6,943],[32.6,1012],[33.2,1085],[34.7,1159],[37.7,1232],[39.2,1309],[40,1381],[40.6,1456],[40.6,1526],[40.7,1596],[43.1,1672],[45.3,1742],[45.4,1811],[45.4,1883],[45.5,1955],[45.2,2027],[43.5,2103],[40,2175],[38.5,2249],[37.3,2323],[36.7,2395],[35.8,2470],[34.6,2547],[34.3,2617],[33.4,2691],[31.6,2765],[30.2,2839],[29.5,2912],[27.2,2988],[22.8,3062],[20.4,3136],[19.2,3213],[18.4,3287],[18.2,3356],[18,3428],[18,3499],[17.9,3568],[17.9,3638],[17.9,3707],[17.9,3779],[17.9,3851],[17.9,3909],[17.9,3994],[17.9,4064],[17.9,4133],[17.9,4201],[17.9,4271],[17.9,4344],[17.9,4412],[17.9,4482],[17.8,4552],[17.5,4623],[17.4,4695],[17.1,4766],[16.9,4836],[16.7,4908],[16.6,4979],[16.6,5047],[16.6,5116],[16.6,5185],[16.6,5256],[16.5,5328],[16.5,5396],[16.5,5465],[16.5,5533],[16.5,5604],[16.5,5677],[16.5,5743],[16.5,5812],[16.5,5881],[16.8,5952],[19.9,6027],[23,6097],[26.4,6172],[27.8,6247],[28.5,6317],[30.1,6392],[33.6,6465],[38.4,6540],[41.8,6613],[42.8,6687],[43.9,6760],[45.1,6833],[47.4,6919],[48.9,6987],[49.8,7059],[50.4,7131],[51.1,7207],[51.7,7281],[52.4,7354],[52.7,7427],[52.8,7496],[52.8,7567],[52.8,7638],[52.8,7708],[52.8,7777],[52.8,7849],[52.8,7920],[52.8,7991],[52.8,8059],[52.8,8129],[52.8,8205],[52.8,8271],[52.8,8338],[52.8,8403],[52.8,8471],[52.8,8540],[52.8,8609],[52.7,8681],[52.7,8752],[52.7,8821],[52.7,8890],[52.7,8960],[52.7,9031],[52.7,9103],[52.7,9171],[52.7,9240],[52.7,9311],[52.7,9383],[52.7,9450],[52.6,9526],[52.5,9597],[52.2,9670],[52,9740],[51.9,9812],[51.8,9883],[51.5,9953],[50.6,10029],[49.3,10101],[48.3,10173]]",1,0,422.5757,425.2342,29.375,1.5329,"[{""rating"":32.1875,""responseTime"":1.00620000004767},{""rating"":29.375,""responseTime"":1.5328999998569088}]",space,2.0637,,425.2342,Half the time,50,425.2456,,,[],,,,0,11,11,11,1,audio/Narrative8Situation2.wav,audio/Narrative7Situation2.wav,audio/Narrative6Situation2.wav,audio/Narrative5Situation2.wav,3,3,3,3,,,,,,,,,,,,,,,,,,,,,,,,,,,,,,,,,,,,,
,,,,,,5f6b8930b9d9530b1b065360,2024-05-13_11h41.33.635,group3.1-3.2-social-tom,2023.2.2,Win32,30.03003003,65c5074098b851296ff0b7ed,6642348d0a99afe9cb4cad10,,,,,,,,,,,,,,,,,,,,,,,,,,,,,425.246,1,audio/Narrative8Situation3.wav,429.2735,,429.2737,451.6792,"[[30.1,796],[28.5,876],[26.9,946],[24.3,1021],[22,1095],[19.9,1168],[18.3,1245],[17.2,1321],[17,1391],[17,1459],[17.4,1530],[25,1605],[32.6,1675],[39.7,1748],[46.9,1824],[49.9,1900],[50.9,1972],[52.3,2046],[53.3,2121],[54.4,2193],[55.4,2269],[56.8,2342],[58,2418],[58.8,2492],[59.2,2564],[59.3,2636],[59.3,2704],[59.3,2772],[59.3,2847],[57.9,2921],[53.4,2999],[51.8,3071],[51.3,3150],[51,3224],[50.8,3298],[50.7,3371],[50.1,3446],[49.6,3520],[49.3,3596],[49.2,3673],[49.2,3750],[49.2,3819],[49.2,3887],[49.2,3964],[49.2,4036],[49.2,4109],[52,4186],[55.3,4265],[57.8,4345],[59,4416],[59.5,4488],[60.2,4562],[60.5,4635],[60.7,4712],[60.8,4784],[60.9,4853],[61.1,4928],[61.6,5001],[61.9,5077],[62,5150],[62,5221],[62,5294],[62,5364],[62.2,5434],[62.4,5508],[62.5,5581],[62.5,5649],[62.5,5725],[62.5,5799],[62.5,5872],[62.5,5945],[62.5,6013],[62.5,6086],[62.5,6158],[62.5,6225],[62.5,6295],[62.5,6364],[62.5,6436],[62.5,6498],[62.5,6589],[62.5,6661],[62.5,6734],[62.5,6807],[62.6,6879],[63.2,6958],[63.5,7036],[63.5,7109],[63.5,7180],[63.5,7252],[63.5,7322],[63.4,7394],[63.3,7468],[63.1,7541],[63.1,7610],[63.1,7682],[63.3,7755],[63.4,7826],[63.5,7899],[63.6,7975],[63.6,8042],[63.6,8111],[63.8,8172],[63.9,8255],[63.9,8324],[63.9,8399],[63.5,8472],[63.5,8540],[63.5,8608],[63.4,8677],[63.3,8751],[63.1,8820],[63.1,8889],[63.1,8957],[63,9030],[62.5,9105],[61.9,9177],[61.8,9249],[61.8,9318],[61.5,9389],[59.9,9466],[58.6,9536],[57.2,9612],[55.9,9685],[54.6,9757],[53.9,9832],[53.3,9904],[53,9982],[53,10047],[52.8,10117],[52.3,10188],[52.2,10260],[52.2,10332],[52.1,10402],[52.1,10470],[51.9,10542],[51.8,10613],[51.5,10683],[51.3,10755],[50.9,10828],[50.5,10902],[50.3,10975],[50,11049],[49.2,11125],[48.6,11199],[48.3,11277],[47.9,11348],[47.4,11419],[46.8,11495],[46.3,11566],[45.5,11639],[45.1,11712],[44.9,11786],[44.5,11856],[44.2,11928],[43.9,12000],[43.3,12073],[42.8,12146],[42.6,12216],[42.3,12290],[42,12366],[41.8,12435],[41.7,12509],[41.4,12579],[41.3,12654],[41,12725],[40.6,12794],[40.2,12864],[40.1,12936],[40,13007],[39.8,13078],[39.5,13151],[39.5,13222],[39.4,13292],[39.3,13362],[39.3,13435],[39.2,13507],[39.1,13577],[39,13647],[39,13719],[38.9,13790],[38.9,13859],[38.9,13927],[38.6,14000],[38.4,14072],[38.2,14150],[38.1,14219],[38,14290],[37.8,14360],[37.8,14429],[37.8,14500],[37.8,14570],[37.8,14638],[37.7,14708],[37.6,14780],[37.4,14856],[37.1,14925],[36.7,14997],[36.4,15069],[36.1,15140],[36,15212],[35.7,15286],[35.6,15356],[35.5,15428],[35.3,15501],[34.9,15579],[34.5,15656],[34.3,15729],[34.2,15814],[34,15896],[33.8,15979],[33.6,16051],[33.5,16122],[33.4,16190],[33.2,16265],[33.2,16334],[33.2,16403],[33.1,16475],[33,16547],[32.9,16616],[32.8,16688],[32.7,16764],[32.6,16835],[32.4,16904],[32.2,16976],[31.7,17050],[30.9,17120],[30.5,17194],[29.9,17267],[29.1,17340],[28.5,17414],[28.2,17485],[27.9,17559],[27.8,17631],[27.7,17701],[27.6,17774],[27.5,17846],[27.5,17915],[27.3,17984],[27.1,18062],[26.9,18131],[26.7,18205],[26.5,18276],[26.4,18346],[26.4,18415],[26.3,18485],[26.3,18557],[26.3,18618],[26.3,18704],[26.3,18776],[26.1,18846],[25.9,18916],[25.9,18989],[25.9,19058],[25.9,19128],[25.9,19196],[25.9,19266],[25.9,19337],[25.8,19419],[25.7,19490],[25.6,19559],[25.4,19622],[25.2,19704],[24.9,19777],[24.6,19851],[24.4,19925],[24.3,19995],[24.2,20065],[24.2,20136],[24.2,20205],[24.2,20275],[24.2,20345],[24.1,20417],[24,20498],[24,20569],[24,20640],[24,20714],[23.9,20783],[23.8,20855],[23.6,20924],[23.5,20994],[23.5,21066],[23.4,21138],[23.4,21207],[23.4,21277],[23.3,21352],[23.3,21421],[23.2,21489],[23.1,21561],[22.9,21637],[22.9,21706],[22.9,21775],[22.9,21846],[22.8,21918],[22.8,21990],[22.8,22065],[22.8,22133],[22.8,22199],[22.8,22267],[22.8,22336],[22.8,22405]]",1,0,451.6795,454.9981,35.72916667,1.8766,"[{""rating"":35.729166666666664,""responseTime"":1.876599999904613}]",space,2.7176,,454.9985,All the time,100,455.0085,,,[],,,,0,12,12,12,1,audio/Narrative8Situation3.wav,audio/Narrative7Situation3.wav,audio/Narrative6Situation3.wav,audio/Narrative5Situation3.wav,4,8,5,3,,,,,,,,,,,,,,,,,,,,,,,,,,,,,,,,,,,,,
,,,,,,5f6b8930b9d9530b1b065360,2024-05-13_11h41.33.635,group3.1-3.2-social-tom,2023.2.2,Win32,30.03003003,65c5074098b851296ff0b7ed,6642348d0a99afe9cb4cad10,,,,,,,,,,,,,,,,,,,,,,,,,,,,,455.0089,1,audio/Narrative8Situation4.wav,458.0333,,458.0334,472.2572,"[[999,15],[999,84],[999,155],[999,225],[999,291],[999,359],[999,431],[999,502],[999,575],[44,649],[42.2,724],[34.9,800],[31.5,1035],[31.5,1106],[31.1,1175],[30.7,1248],[30.4,1321],[29.1,1394],[27.8,1470],[27.7,1542],[27.7,1614],[27.7,1685],[27.7,1754],[27.6,1823],[27.6,1896],[27.5,1967],[27.5,2028],[27.4,2113],[25.5,2195],[22.6,2269],[19.7,2346],[17,2418],[16,2495],[15.5,2569],[15.2,2639],[15.1,2713],[15.1,2780],[15,2858],[15,2929],[15,2997],[15,3064],[15.1,3134],[15.4,3206],[15.8,3281],[16.1,3355],[16.6,3427],[17,3504],[17,3578],[17,3654],[17,3725],[17,3798],[17,3872],[17,3942],[17,4009],[17,4079],[17,4148],[17,4216],[17,4286],[17,4357],[17,4426],[17,4495],[17,4564],[17,4634],[17,4705],[16.8,4777],[16.7,4847],[16.7,4918],[16.7,4990],[17.4,5062],[17.7,5132],[17.7,5204],[18.1,5281],[18.2,5352],[18.2,5424],[18.2,5492],[18.2,5560],[18.2,5629],[18.2,5699],[18.2,5768],[18.2,5841],[18.1,5910],[18.1,5978],[18.1,6050],[18.1,6121],[18.1,6188],[18,6259],[17.8,6328],[17.8,6400],[17.8,6470],[17.8,6548],[17.8,6621],[17.8,6687],[18.1,6756],[18.6,6827],[20.8,6905],[21.7,6975],[23.1,7050],[25.3,7122],[26.9,7196],[30.6,7271],[32.9,7344],[35.3,7420],[38.5,7497],[40.8,7568],[41.3,7642],[42.2,7720],[43.2,7795],[43.3,7871],[43.4,7940],[43.4,8010],[43.4,8082],[43.5,8150],[43.6,8220],[43.6,8289],[43.6,8360],[43.6,8431],[43.6,8501],[43.6,8569],[43.6,8640],[43.6,8711],[43.6,8779],[43.6,8851],[43.6,8920],[43.6,8992],[43.5,9069],[43.5,9137],[43,9209],[42.8,9279],[42.8,9350],[42.6,9419],[42.5,9491],[42.5,9563],[42.5,9632],[42.4,9700],[42.4,9772],[42.4,9843],[42.3,9915],[42.3,9975],[42.3,10057],[42.3,10127],[42.3,10196],[42.3,10264],[42.3,10334],[42.7,10408],[43,10480],[43,10557],[43,10627],[43.2,10696],[43.5,10766],[43.9,10838],[44,10911],[44.1,10981],[44.1,11050],[44.1,11122],[44.1,11192],[43.2,11267],[42,11337],[41.5,11409],[40.7,11480],[39.7,11555],[39.1,11630],[38.3,11701],[37.3,11775],[36.9,11849],[36.5,11927],[35.8,11993],[35.3,12077],[34.9,12146],[34.1,12221],[33.8,12294],[33.6,12366],[33.4,12440],[33.3,12511],[33.3,12582],[33.2,12655],[32.1,12728],[31.6,12802],[30.9,12876],[30.4,12951],[30.2,13026],[30,13094],[29.5,13170],[29.4,13238],[29.4,13305],[29.2,13375],[29.1,13448],[29.1,13519],[29.1,13578],[29.1,13667],[29.1,13735],[29.1,13804],[29,13874],[29,13945],[29,14017],[28.9,14086],[28.9,14155],[28.9,14223]]",1,0,472.2574,475.0279,40.625,1.8793,"[{""rating"":40.625,""responseTime"":1.8793000001907672}]",space,2.1711,,475.0285,Not at all,0,475.0389,,,[],,,,0,13,13,13,1,audio/Narrative8Situation4.wav,audio/Narrative7Situation4.wav,audio/Narrative6Situation4.wav,audio/Narrative5Situation4.wav,3,3,2,1,,,,,,,,,,,,,,,,,,,,,,,,,,,,,,,,,,,,,
,,,,,,5f6b8930b9d9530b1b065360,2024-05-13_11h41.33.635,group3.1-3.2-social-tom,2023.2.2,Win32,30.03003003,65c5074098b851296ff0b7ed,6642348d0a99afe9cb4cad10,,,,,,,,,,,,,,,,,,,,,,,,,,,,,475.0392,1,audio/Narrative8Situation5.wav,477.0551,,477.0551,485.3538,"[[34.2,78],[33.8,150],[33.1,222],[32.9,296],[32.8,367],[32.4,437],[31.7,510],[30.9,585],[30.3,657],[30.3,729],[30.3,790],[30.3,884],[30.3,953],[30.3,1023],[30.3,1093],[30.3,1163],[30.3,1232],[30.3,1300],[30.3,1369],[30.3,1440],[30.3,1513],[30.3,1582],[30.3,1651],[30.3,1723],[30.3,1794],[30.3,1863],[30.3,1932],[30.3,2001],[30.3,2073],[30.3,2142],[30.3,2212],[30.3,2281],[30.3,2355],[30.3,2425],[30.3,2493],[30.3,2559],[30.3,2631],[33,2703],[35,2777],[36,2848],[37.7,2923],[38.9,2998],[41.7,3073],[43.6,3148],[43.9,3222],[43.9,3293],[43.6,3363],[43.5,3435],[42.6,3509],[39.7,3593],[38.4,3662],[37.5,3735],[36,3809],[34.5,3882],[32.5,3957],[29.5,4030],[28,4105],[26.8,4178],[24.4,4253],[23.1,4326],[22.9,4399],[22.8,4472],[22.8,4540],[22.8,4609],[22.8,4679],[22.8,4750],[22.8,4822],[22.7,4898],[22.6,4969],[22.6,5035],[22.6,5102],[22.6,5172],[22.5,5240],[22.5,5313],[23.2,5387],[24.6,5460],[26.1,5536],[27.4,5609],[28.5,5684],[29.9,5756],[31.3,5831],[32.9,5904],[35.7,5978],[37.8,6053],[40.7,6127],[42.5,6205],[43.3,6283],[43.5,6351],[44,6421],[44.4,6495],[44.5,6564],[44.6,6635],[44.7,6705],[44.7,6776],[44.7,6848],[44.7,6915],[44.7,6984],[44.6,7053],[44.6,7127],[44.4,7199],[44.2,7270],[44,7343],[43.8,7415],[43.6,7485],[43.5,7560],[43.5,7633],[43.4,7699],[43.3,7767],[43.2,7839],[43.2,7912],[43.2,7982],[43.2,8050],[43.1,8122],[43.1,8195],[43.1,8264]]",1,0,485.354,487.6751,32.29166667,1.3808,"[{""rating"":32.291666666666664,""responseTime"":1.3807999999522735}]",space,1.7397,,487.6751,All the time,100,487.687,,,[],,,,0,14,14,14,1,audio/Narrative8Situation5.wav,audio/Narrative7Situation5.wav,audio/Narrative6Situation5.wav,audio/Narrative5Situation5.wav,2,5,2,5,,,,,,,,,,,,,,,,,,,,,,,,,,,,,,,,,,,,,
,,,,,,5f6b8930b9d9530b1b065360,2024-05-13_11h41.33.635,group3.1-3.2-social-tom,2023.2.2,Win32,30.03003003,65c5074098b851296ff0b7ed,6642348d0a99afe9cb4cad10,,,,,,,,,,,,,,,,,,,,,,,,,,,,,487.6874,1,audio/Narrative8Situation6.wav,489.6933,,489.6935,496.2256,"[[28.2,77],[27.5,147],[27,218],[26.6,295],[26.4,362],[25.7,436],[25.6,508],[25.3,580],[24.4,653],[24.2,726],[24.1,797],[23.5,871],[23.4,944],[23.2,1016],[21.8,1090],[19.8,1164],[18.6,1239],[17.8,1310],[16.8,1385],[16.6,1460],[16.6,1528],[16.6,1598],[17.2,1670],[23.6,1744],[31.3,1817],[33.5,1891],[34.8,1963],[34.8,2036],[35,2107],[36.5,2184],[37.6,2258],[39.9,2327],[42,2403],[43.8,2475],[44.6,2549],[45.1,2624],[45.3,2699],[45.3,2769],[45.3,2835],[45.3,2906],[45.3,2975],[45.3,3045],[45.3,3118],[45.4,3189],[45.4,3260],[45.4,3330],[45.4,3401],[45.3,3471],[45.1,3541],[45.1,3612],[45.1,3672],[44.9,3765],[44.9,3834],[44.9,3903],[44.9,3973],[44.8,4036],[44.8,4127],[44.7,4189],[44.4,4280],[44.4,4351],[44.4,4420],[43.9,4494],[43.8,4564],[43.6,4633],[43.2,4705],[43.1,4777],[43.1,4848],[42.8,4919],[42.5,4994],[42.4,5064],[42.2,5133],[41.7,5210],[41.4,5283],[41.3,5351],[40.5,5424],[40.3,5496],[40.1,5569],[39.6,5641],[39.4,5715],[39.3,5785],[39.2,5856],[39,5930],[38.9,5999],[38.9,6070],[38.6,6144],[38.5,6213],[38.5,6281],[38.4,6351],[38.3,6423],[38.3,6495]]",1,0,496.2257,498.7942,58.54166667,1.6588,"[{""rating"":58.54166666666667,""responseTime"":1.6587999999522367}]",space,1.9885,,498.7942,Not at all,0,498.8057,,,[],,,,0,15,15,15,1,audio/Narrative8Situation6.wav,audio/Narrative7Situation6.wav,audio/Narrative6Situation6.wav,audio/Narrative5Situation6.wav,2,3,2,3,,,,,,,,,,,,,,,,,,,,,,,,,,,,,,,,,,,,,
,,,,,,5f6b8930b9d9530b1b065360,2024-05-13_11h41.33.635,group3.1-3.2-social-tom,2023.2.2,Win32,30.03003003,65c5074098b851296ff0b7ed,6642348d0a99afe9cb4cad10,,,,,,,,,,,,,,,,,,,,,,,,,,,,,498.8079,1,audio/Narrative8Situation7.wav,501.8396,,501.8397,513.9885,"[[999,1],[999,76],[999,147],[999,214],[999,291],[999,352],[999,443],[999,517],[999,586],[999,663],[30.1,740],[30,810],[29.9,881],[29.8,952],[29.5,1027],[29.5,1099],[29.5,1167],[29.4,1235],[29.4,1305],[29.4,1367],[29.3,1457],[29.3,1527],[29.3,1595],[29.3,1664],[27.9,1738],[27.1,1819],[26.5,1891],[25.2,1957],[24.6,2043],[23.9,2114],[22.8,2190],[21.8,2264],[21.5,2336],[21.1,2413],[20.8,2488],[20.5,2562],[20.5,2630],[20.4,2699],[20.3,2771],[20.2,2843],[20.1,2911],[20.1,2982],[19.9,3057],[19.8,3126],[19.7,3197],[19.4,3275],[19.2,3354],[19.2,3425],[18.8,3498],[18.6,3577],[18.4,3651],[18.3,3722],[18.3,3791],[18.1,3862],[18.1,3934],[18.1,4002],[18,4072],[18,4142],[18,4211],[18,4281],[17.9,4353],[17.9,4422],[17.8,4492],[17.7,4563],[17.2,4637],[17.2,4707],[17.2,4778],[17.1,4856],[17.1,4924],[17.1,4994],[17.1,5064],[17.1,5133],[17,5202],[17,5272],[17,5342],[17,5413],[17,5484],[16.7,5555],[16.4,5629],[16.4,5698],[16.3,5769],[15.8,5844],[15.8,5913],[15.8,5983],[15.8,6052],[15.7,6112],[15.7,6197],[15.7,6266],[15.7,6334],[15.7,6402],[15.7,6470],[15.6,6542],[15.6,6614],[15.6,6681],[15.6,6741],[15.6,6826],[15.6,6896],[15.6,6965],[15.6,7034],[15.6,7105],[15.6,7175],[15.5,7245],[15.5,7314],[15.5,7382],[15.5,7451],[15.5,7523],[15.5,7595],[15.4,7669],[15.4,7739],[15.4,7810],[15.4,7879],[15.2,7949],[15.2,8020],[14.9,8094],[14.7,8165],[14.6,8236],[14.6,8308],[14.4,8379],[14.4,8447],[14.3,8519],[14.3,8590],[14.3,8661],[14.3,8729],[14.3,8799],[14.3,8870],[14.6,8941],[14.8,9014],[14.9,9093],[14.9,9160],[15,9229],[15,9300],[15,9371],[15.2,9443],[16,9517],[17.5,9591],[20.3,9664],[22.3,9738],[23.4,9813],[25.1,9886],[26.5,9959],[27.6,10033],[29.8,10107],[33.3,10180],[36.3,10260],[37.7,10338],[38,10405],[38.1,10474],[38.5,10547],[39.9,10621],[40.8,10694],[42.2,10768],[43.3,10842],[43.9,10917],[44,10988],[44,11057],[44,11127],[44,11199],[44,11268],[44,11336],[44,11405],[44,11479],[44,11549],[43.9,11617],[43.6,11687],[43.5,11756],[43.4,11829],[43.2,11901],[43.1,11972],[42.9,12045],[42.9,12115]]",1,0,513.9887,517.7411,41.45833333,3.7476,"[{""rating"":41.45833333333333,""responseTime"":3.7475999999046508}]",space,1.4083,,517.7413,Half the time,50,517.7503,,,[],,,,0,16,16,16,1,audio/Narrative8Situation7.wav,audio/Narrative7Situation7.wav,audio/Narrative6Situation7.wav,audio/Narrative5Situation7.wav,3,5,5,4,,,,,,,,,,,,,,,,,,,,,,,,,,,,,,,,,,,,,
,,,,,,5f6b8930b9d9530b1b065360,2024-05-13_11h41.33.635,group3.1-3.2-social-tom,2023.2.2,Win32,30.03003003,65c5074098b851296ff0b7ed,6642348d0a99afe9cb4cad10,,,,,,,,,,,,,,,,,,,,,,,,,,,,,517.7506,1,audio/Narrative8Situation8.wav,520.7835,,520.7835,533.7151,"[[999,2],[999,74],[999,145],[999,217],[999,288],[999,363],[999,432],[999,501],[999,570],[999,643],[999,718],[999,790],[999,866],[999,938],[999,1010],[999,1087],[25.8,1157],[25.5,1231],[24.4,1304],[21.7,1380],[20.6,1450],[19.9,1521],[17.6,1601],[16.8,1673],[16.7,1744],[16.6,1808],[16.6,1895],[16.4,1966],[16.4,2035],[16.4,2104],[16.4,2174],[16.4,2245],[16.4,2315],[16.4,2384],[16.4,2452],[16.4,2521],[16.4,2589],[16.4,2661],[16.4,2729],[16.4,2797],[16.4,2867],[16.4,2936],[16.4,3006],[16.4,3079],[16.4,3136],[16.4,3223],[16.4,3294],[16.4,3363],[16.4,3431],[16.4,3499],[16.4,3569],[16.4,3641],[16.4,3712],[16.4,3780],[16.4,3849],[16.4,3920],[16.4,3991],[16.4,4059],[16.4,4129],[16.4,4198],[17.6,4287],[19,4360],[20.4,4431],[21.5,4515],[21.8,4584],[22,4655],[22,4724],[22,4793],[21.9,4864],[21.8,4939],[21.8,5007],[21.7,5077],[21.6,5149],[21.6,5219],[21.5,5291],[21.5,5362],[21.4,5434],[21.4,5504],[21.4,5572],[21.8,5650],[22.1,5724],[22.2,5801],[22.2,5868],[22.2,5937],[22.1,6008],[22,6085],[21.9,6166],[21.7,6237],[21.7,6306],[21.7,6374],[21.5,6444],[21.5,6516],[21.4,6588],[21.4,6656],[21.3,6726],[21.3,6798],[21.3,6868],[21.3,6937],[21.1,7006],[21,7077],[21,7149],[21,7223],[21,7291],[21,7361],[21,7431],[21,7501],[21,7569],[21,7638],[21.6,7711],[22.1,7783],[22.1,7852],[22.1,7922],[22.3,7994],[22.3,8064],[22.3,8132],[22.2,8202],[21,8277],[18.8,8351],[16.9,8427],[15.9,8506],[15.1,8580],[14.6,8651],[14.3,8721],[14.1,8794],[13.9,8866],[13.8,8936],[13.8,9007],[13.9,9079],[14.3,9150],[16.1,9224],[17.7,9299],[19.1,9373],[21.3,9447],[23.9,9521],[26.1,9600],[27.6,9674],[29,9746],[31.1,9825],[33.5,9896],[35.6,9968],[37.2,10042],[37.8,10113],[38.6,10187],[39.5,10261],[40.6,10335],[41.4,10411],[41.6,10481],[41.6,10553],[41.7,10624],[42.5,10700],[43,10772],[43.4,10846],[44.2,10920],[44.5,10997],[44.8,11058],[44.9,11139],[45,11209],[45,11278],[45,11347],[45,11418],[44.9,11489],[44.1,11561],[42.2,11635],[41,11710],[40.3,11784],[40.1,11858],[40,11930],[39.7,12007],[38.9,12083],[37.7,12159],[37.3,12233],[37.2,12305],[40.2,12377],[50,12453]]",1,0,533.7181,536.3643,28.4375,1.7724,"[{""rating"":28.4375,""responseTime"":1.7723999998569298}]",space,2.0345,,536.365,Half the time,50,536.372,,,[],,,,0,17,17,17,1,audio/Narrative8Situation8.wav,audio/Narrative7Situation8.wav,audio/Narrative6Situation8.wav,audio/Narrative5Situation8.wav,3,2,5,3,,,,,,,,,,,,,,,,,,,,,,,,,,,,,,,,,,,,,
,,,,,,5f6b8930b9d9530b1b065360,2024-05-13_11h41.33.635,group3.1-3.2-social-tom,2023.2.2,Win32,30.03003003,65c5074098b851296ff0b7ed,6642348d0a99afe9cb4cad10,,,,,,,,,,,,,,,,,,,,,,,,,,,,,536.373,1,audio/Narrative8Situation9.wav,539.3868,,539.3869,550.7417,"[[12.9,354],[12.9,425],[12.9,501],[12.9,568],[13.1,641],[13.1,713],[13.1,784],[13.1,854],[13.1,926],[12.9,999],[12.9,1068],[12.8,1137],[12.5,1210],[11.7,1283],[11.5,1356],[11.3,1432],[11,1501],[11,1569],[11,1639],[10.9,1710],[10.9,1780],[10.8,1851],[10.8,1921],[10.8,1994],[10.8,2063],[10.8,2132],[10.7,2204],[10.7,2277],[10.7,2347],[10.7,2416],[10.7,2486],[10.7,2557],[10.6,2629],[10.1,2701],[9.9,2780],[9.7,2849],[9.6,2918],[9.6,2990],[9.6,3059],[9.5,3126],[9.5,3196],[9.5,3264],[9.5,3335],[9.5,3407],[9.5,3476],[9.2,3547],[9.1,3620],[9,3694],[9,3763],[8.9,3835],[8.9,3907],[8.9,3981],[8.9,4042],[8.9,4133],[8.8,4204],[8.8,4272],[8.8,4342],[8.8,4412],[8.8,4483],[8.8,4554],[8.8,4624],[8.8,4697],[8.8,4769],[8.8,4836],[8.8,4904],[8.8,4973],[8.8,5042],[8.8,5111],[8.8,5183],[8.8,5252],[8.8,5321],[8.8,5398],[8.8,5467],[8.8,5535],[8.8,5602],[8.8,5669],[8.8,5738],[8.8,5811],[8.8,5883],[8.8,5951],[8.8,6020],[8.8,6087],[8.8,6155],[8.8,6225],[8.8,6296],[8.8,6366],[8.8,6434],[8.8,6502],[8.8,6571],[8.8,6641],[8.8,6711],[9.1,6785],[9.5,6862],[9.9,6934],[10.2,7002],[10.4,7072],[10.5,7143],[10.5,7214],[10.3,7284],[10.1,7354],[10,7426],[10,7496],[10.1,7564],[10.1,7633],[10.4,7703],[10.5,7775],[10.5,7845],[10.6,7914],[10.6,7983],[10.6,8052],[10.6,8124],[10.6,8197],[10.5,8276],[10.5,8342],[10.4,8412],[10.4,8480],[10.4,8547],[10.3,8615],[10.3,8686],[10.2,8757],[10.1,8832],[10.1,8897],[10,8972],[9.8,9044],[9.7,9114],[9.5,9186],[9,9260],[8.8,9332],[8.6,9404],[8.4,9479],[8.2,9555],[10.9,9631],[15.3,9705],[21.6,9776],[24.5,9852],[26.6,9923],[28.4,9996],[31.7,10071],[36.4,10147],[44.8,10361],[45,10435],[45,10506],[45.4,10576],[45.7,10650],[45.7,10721],[45.7,10790],[45.7,10864],[45.7,10936],[45.5,11003],[45.4,11073],[45.3,11142],[45.1,11214],[45.1,11286],[45.1,11354]]",1,0,550.7419,553.391,38.85416667,1.895,"[{""rating"":38.854166666666664,""responseTime"":1.8949999999999818}]",space,2.0619,,553.391,Half the time,50,553.4001,,,[],,,,0,18,18,18,1,audio/Narrative8Situation9.wav,audio/Narrative7Situation9.wav,audio/Narrative6Situation9.wav,audio/Narrative5Situation9.wav,3,2,4,3,,,,,,,,,,,,,,,,,,,,,,,,,,,,,,,,,,,,,
,,,,,,5f6b8930b9d9530b1b065360,2024-05-13_11h41.33.635,group3.1-3.2-social-tom,2023.2.2,Win32,30.03003003,65c5074098b851296ff0b7ed,6642348d0a99afe9cb4cad10,,,,,,,,,,,,,,,,,,,,,,,,,,,560.4639,563.0233,563.0447,2,audio/Narrative13Situation2.wav,563.0451,,563.0451,592.8481,"[[33,294],[33.1,367],[33.2,437],[33.2,509],[33.4,581],[34.5,660],[34.6,738],[34.6,813],[34.7,889],[34.8,963],[34.8,1036],[34.9,1109],[34.5,1177],[33.6,1247],[33.1,1320],[32.2,1393],[24.9,1465],[21.7,1543],[21.6,1611],[19.7,1685],[17.3,1758],[17.1,1829],[16.9,1901],[16.6,1973],[16.6,2051],[16.6,2125],[16.7,2205],[16.9,2275],[16.9,2343],[16.5,2412],[15.2,2487],[15.2,2555],[17.1,2622],[20.5,2706],[23.5,2783],[26.9,2859],[27,2935],[27,3006],[27,3077],[26.8,3151],[26.7,3222],[26.7,3298],[26.7,3366],[26.6,3435],[26.5,3502],[26.1,3572],[23.6,3647],[21.8,3725],[20.9,3794],[19.2,3869],[18.6,3941],[18.5,4013],[18.5,4082],[19,4153],[26.5,4226],[28.4,4304],[28.6,4373],[28.8,4447],[28.9,4519],[28.9,4587],[29.5,4665],[30.8,4738],[32.2,4810],[33.8,4884],[35.9,4954],[37.2,5029],[37.8,5102],[38.2,5173],[38.5,5247],[38.5,5315],[38.4,5385],[38.4,5458],[38.4,5533],[38.6,5615],[39.7,5686],[40,5758],[40,5832],[40,5905],[40.4,5979],[40.8,6050],[40.8,6119],[40.8,6191],[40.7,6262],[40.7,6330],[40.7,6399],[40.7,6466],[40.6,6537],[40.6,6609],[40.6,6678],[40.6,6747],[40.6,6817],[40.6,6888],[40.6,6961],[40.6,7037],[40.6,7106],[40.6,7173],[40.6,7241],[40.6,7307],[40.6,7375],[40.6,7442],[40.6,7510],[40.6,7579],[40.6,7648],[40.6,7720],[40.6,7790],[40.6,7859],[40.6,7927],[40.6,7995],[40.6,8065],[40.6,8136],[40.6,8206],[40.6,8265],[40.6,8352],[40.6,8427],[40.6,8496],[40.6,8565],[40.6,8633],[40.6,8704],[40.6,8772],[40.6,8841],[40.6,8910],[40.6,8980],[40.6,9048],[40.6,9120],[40.6,9189],[40.6,9258],[40.6,9326],[40.6,9397],[40.6,9468],[40.6,9536],[40.6,9605],[40.6,9674],[40.6,9745],[41.5,9834],[42.3,9904],[43.4,9972],[44.3,10049],[44.4,10120],[44.7,10192],[45.2,10264],[45.2,10334],[45.3,10402],[45.5,10473],[45.6,10536],[45.6,10629],[45.6,10702],[45.7,10771],[45.7,10840],[45.7,10911],[45.7,10982],[45.6,11052],[45.6,11120],[45.4,11200],[45.3,11271],[45.1,11339],[45.1,11409],[45.1,11479],[45,11561],[45,11638],[45,11710],[44.9,11782],[44.8,11856],[44.8,11929],[44.8,12003],[44.7,12077],[44.3,12151],[42.7,12227],[40.3,12303],[38.2,12382],[35.8,12461],[32.7,12540],[31.1,12620],[28.9,12695],[23,12767],[20.1,12843],[19.5,12913],[18.9,12983],[18.3,13057],[18,13130],[17.9,13201],[17.4,13274],[17.1,13345],[16.8,13416],[16.7,13489],[16.6,13563],[16.4,13637],[16.4,13706],[16.4,13774],[16.3,13847],[16,13918],[16,13989],[16,14057],[16,14127],[17.1,14202],[18.3,14275],[19.1,14348],[19.3,14420],[19.3,14489],[19.4,14562],[20.1,14637],[21,14713],[21.6,14788],[21.9,14866],[22,14935],[22,15003],[22.1,15071],[22.1,15139],[22.2,15209],[22.5,15282],[22.6,15355],[22.7,15424],[22.7,15492],[22.9,15571],[23,15640],[23.1,15709],[23.1,15781],[23.1,15853],[23.1,15922],[23.1,15991],[23.1,16061],[23.1,16132],[22.3,16208],[20.7,16284],[20,16355],[19,16431],[18.8,16501],[18.6,16571],[18.4,16640],[18.1,16714],[18,16785],[18,16855],[17.6,16927],[17.5,17000],[17.3,17071],[17,17144],[16.8,17215],[16.7,17283],[16.6,17353],[16.6,17427],[16.6,17497],[16.6,17567],[16.5,17632],[16.5,17701],[16.4,17771],[16.1,17844],[16,17916],[15.9,17986],[15.9,18057],[15.8,18132],[15.7,18199],[15.5,18269],[15.4,18341],[15.3,18412],[15.7,18483],[16.6,18557],[21.6,18633],[31.5,18714],[37.9,18780],[40.5,18852],[41.6,18927],[42,18999],[42.2,19071],[42.7,19146],[43.3,19216],[43.4,19288],[43.5,19359],[43.8,19431],[43.9,19501],[44,19573],[44.2,19646],[44.2,19715],[44.2,19786],[44.5,19863],[44.7,19937],[44.7,20005],[44.7,20074],[44.8,20142],[44.8,20210],[44.8,20279],[44.6,20348],[43.8,20423],[42.8,20495],[42.5,20567],[42.3,20640],[41.5,20712],[39.3,20788],[38.4,20860],[37.4,20934],[35.9,21008],[35.4,21086],[34.8,21158],[32.9,21229],[32.1,21302],[31.5,21377],[29.7,21448],[26.7,21593],[25.7,21668],[23.9,21814],[23.1,21888],[19.6,22108],[17.8,22183],[17,22263],[16.3,22335],[15.8,22405],[14.9,22475],[13.9,22550],[13.2,22622],[12.6,22697],[12.1,22774],[11.6,22845],[11.4,22918],[11.1,22988],[11,23060],[10.9,23133],[10.6,23204],[10.6,23274],[10.6,23345],[10.6,23414],[10.8,23483],[11.6,23555],[12.3,23637],[12.5,23707],[12.9,23779],[13.2,23853],[13.9,23923],[14.2,23998],[15.1,24072],[15.5,24143],[15.5,24213],[15.7,24284],[15.7,24352],[15.7,24423],[15.7,24494],[16,24564],[16.7,24637],[18.3,24713],[20.6,24785],[22.5,24866],[24.7,24942],[27,25014],[29.5,25086],[30.9,25159],[33.2,25231],[37.1,25305],[40.5,25737],[40.7,25812],[40.7,25882],[40.7,25957],[40.7,26028],[40.7,26102],[40.7,26174],[42.4,26247],[44.7,26325],[46.5,26401],[50,26475],[51.8,26545],[52.5,26622],[54.1,26692],[56.3,26763],[56.9,26838],[57.2,26911],[57.7,26984],[57.8,27056],[57.8,27123],[57.7,27193],[57.7,27263],[57.7,27333],[57.8,27409],[58.6,27480],[58.9,27552],[58.9,27621],[59,27691],[59,27759],[59,27831],[59,27902],[59.1,27973],[59.2,28042],[59.4,28117],[59.6,28189],[59.7,28264],[60.1,28336],[60.3,28407],[60.4,28477],[60.4,28549],[60.4,28621],[60.4,28689],[60.4,28757],[60.3,28835],[60.3,28894],[60.3,28984],[60.2,29057],[60.2,29136],[60.2,29205],[60.2,29273],[60.2,29345],[60.2,29417],[60.2,29486],[60.2,29555],[60.2,29616],[60.2,29697],[60.2,29768]]",1,0,592.8484,592.8582,,,[],,,,592.8583,All the time,100,592.8622,,,[],,,,0,0,0,0,1,audio/Narrative13Situation2.wav,audio/Narrative13Situation2.wav,audio/Narrative13Situation2.wav,audio/Narrative13Situation2.wav,2,2,2,2,,,553.4018,560.4475,space,6.4814,,,,,,,,,,,,,,,,,,,,,,,,,,,,,,,
,,,,,,5f6b8930b9d9530b1b065360,2024-05-13_11h41.33.635,group3.1-3.2-social-tom,2023.2.2,Win32,30.03003003,65c5074098b851296ff0b7ed,6642348d0a99afe9cb4cad10,,,,,,,,,,,,,,,,,,,,,,,,,,,,,592.8625,2,audio/Narrative5Situation1.wav,597.8812,,597.8813,611.1954,"[[55,748],[49.5,821],[43.8,895],[36.9,968],[33.4,1046],[31.5,1118],[28.5,1192],[23.6,1266],[14.3,1415],[13,1486],[12.6,1560],[12.5,1628],[11.6,1701],[11.5,1773],[11.5,1843],[11.5,1919],[11.4,1990],[11.4,2059],[11.4,2125],[11.4,2193],[11.4,2262],[11.4,2330],[11.4,2399],[11.4,2470],[11.4,2541],[11.4,2610],[11.4,2678],[11.4,2746],[11.4,2816],[11.4,2888],[11.4,2957],[11.4,3026],[11.4,3095],[11.4,3165],[11.4,3240],[11.4,3318],[11.4,3388],[11.4,3455],[11.6,3523],[12.1,3596],[12.1,3665],[12.1,3736],[12.1,3807],[12.1,3876],[12.1,3945],[12.1,4016],[12.1,4097],[12.1,4169],[12.1,4229],[12.1,4316],[12.1,4387],[12.1,4457],[12.1,4525],[12.1,4597],[12.1,4668],[12.1,4736],[12.1,4805],[12.1,4882],[12.1,4951],[12.1,5018],[12.1,5086],[12.1,5155],[12.4,5225],[12.9,5299],[13.1,5370],[13.3,5441],[13.5,5514],[14,5587],[14.5,5658],[14.9,5732],[15.3,5804],[15.7,5876],[16.9,5952],[18.1,6026],[19.2,6100],[20.2,6172],[22.9,6252],[24.8,6327],[29.2,6399],[34.4,6471],[36.4,6545],[37.4,6619],[41.8,6695],[48.9,6769],[51,6844],[52.2,6921],[52.6,6995],[54,7068],[55.6,7145],[57.1,7217],[58.6,7294],[60.7,7373],[62.2,7446],[62.5,7517],[63,7589],[63.6,7667],[64.1,7735],[64.2,7807],[64.5,7880],[64.7,7949],[64.7,8020],[64.7,8091],[64.8,8162],[64.8,8232],[64.8,8302],[64.8,8374],[64.8,8443],[64.8,8511],[64.8,8580],[64.3,8657],[63.9,8727],[63.8,8797],[63.8,8856],[63.8,8937],[63.8,9008],[63.5,9078],[63.2,9150],[62.7,9226],[62.3,9297],[61.8,9371],[60.9,9445],[60.3,9518],[60.1,9590],[60,9660],[59.8,9730],[59.8,9802],[59.8,9875],[59.7,9944],[60.6,10018],[63,10100],[64.5,10170],[65.5,10241],[67.2,10315],[68.9,10387],[69.4,10459],[69.7,10532],[69.8,10602],[69.8,10672],[69.8,10742],[70,10814],[70.9,10889],[71,10960],[71.4,11035],[71.5,11105],[71.5,11174],[71.5,11234],[71.5,11320],[71.4,11391],[71.4,11464],[71.4,11534],[71.3,11605],[71,11674],[71,11745],[71,11817],[70.9,11887],[70.8,11956],[70.8,12025],[70.8,12098],[70.7,12167],[70.7,12236],[70.7,12307],[70.6,12379],[70.6,12448],[70.6,12524],[70.4,12595],[70.3,12666],[70.2,12735],[69.7,12806],[68.9,12871],[68.8,12961],[68.8,13032],[68.4,13106],[68.4,13173],[68.4,13245],[68.3,13313]]",1,0,611.1955,613.9085,70.72916667,1.1831,"[{""rating"":70.72916666666667,""responseTime"":1.1830999999045844}]",space,2.1128,,613.9091,Not at all,0,613.921,,,[],,,,0,1,1,1,1,audio/Narrative7Situation1.wav,audio/Narrative8Situation1.wav,audio/Narrative5Situation1.wav,audio/Narrative6Situation1.wav,2,5,5,2,,,,,,,,,,,,,,,,,,,,,,,,,,,,,,,,,,,,,
,,,,,,5f6b8930b9d9530b1b065360,2024-05-13_11h41.33.635,group3.1-3.2-social-tom,2023.2.2,Win32,30.03003003,65c5074098b851296ff0b7ed,6642348d0a99afe9cb4cad10,,,,,,,,,,,,,,,,,,,,,,,,,,,,,613.9214,2,audio/Narrative5Situation2.wav,616.9383,,616.9389,646.4361,"[[999,1],[999,72],[999,141],[999,212],[999,285],[999,357],[999,428],[64.2,502],[64.5,575],[64.8,649],[64.9,721],[65.1,793],[65.3,866],[65.3,939],[65.1,1009],[65.1,1079],[65.3,1159],[65.5,1232],[65.9,1302],[66.4,1371],[66.5,1440],[66.6,1510],[66.9,1584],[67.3,1656],[67.8,1729],[67.9,1802],[68,1872],[68,1942],[68,2013],[68,2084],[68.2,2155],[68.4,2228],[68.8,2302],[69.1,2373],[69.1,2444],[69.1,2516],[69.3,2588],[69.5,2662],[69.5,2730],[69.6,2801],[70,2871],[70,2942],[70,3012],[70.4,3085],[70.7,3157],[70.7,3228],[70.7,3299],[70.6,3369],[70.4,3442],[70.1,3514],[69.8,3584],[69.5,3658],[69.1,3735],[69,3802],[69,3873],[68.9,3950],[68.6,4023],[68.6,4092],[68.6,4160],[68.4,4232],[68.3,4304],[68.3,4376],[68.1,4447],[68,4517],[68,4589],[67.9,4660],[67.8,4732],[67.8,4801],[67.8,4872],[67.7,4945],[67.7,5014],[67.7,5082],[67,5158],[66.5,5231],[66.3,5299],[65.9,5377],[65.2,5449],[65.1,5520],[65.1,5590],[64.5,5669],[64.3,5740],[64.3,5810],[63.9,5881],[63.5,5954],[63.3,6027],[63.1,6097],[62.5,6172],[62.1,6243],[61.6,6314],[59.3,6389],[57.7,6462],[56.9,6537],[56.1,6610],[54.8,6688],[54.3,6761],[54,6833],[53.5,6906],[53.2,6976],[53.1,7049],[53.1,7121],[53,7189],[52.8,7260],[52.8,7334],[52.8,7403],[52.7,7473],[52.6,7543],[52.6,7616],[52.5,7686],[52.5,7756],[52.1,7829],[50.7,7913],[50.4,7988],[50.3,8051],[49.8,8121],[49.5,8201],[49.5,8276],[49,8350],[47.3,8423],[47,8496],[45.9,8570],[44.3,8637],[43.6,8716],[43.2,8788],[40.9,8862],[40.1,8936],[39.8,9007],[39.5,9081],[39,9155],[38.9,9232],[38.3,9309],[37.7,9383],[37.7,9453],[37.6,9526],[37,9599],[36.9,9668],[36.7,9742],[36.1,9814],[36.1,9883],[36,9952],[36,10023],[36,10095],[36,10165],[36,10234],[36,10304],[35.9,10377],[35.8,10448],[35.6,10522],[35.6,10597],[35.6,10671],[35.6,10737],[35.6,10821],[35.6,10888],[35.6,10960],[35.6,11028],[35.8,11097],[36.5,11170],[36.6,11243],[36.6,11312],[36.8,11382],[36.8,11452],[36.8,11524],[36.8,11592],[36.7,11662],[36.6,11734],[36.5,11807],[36.4,11878],[36.3,11947],[36.1,12025],[36,12096],[36,12166],[35.8,12237],[35.6,12312],[35.6,12381],[35.5,12453],[35.4,12523],[35.4,12592],[35.3,12661],[35.2,12733],[35.2,12807],[35.2,12875],[34.8,12946],[34.8,13019],[34.8,13089],[34.6,13160],[34.2,13234],[34.2,13303],[34.2,13372],[33.9,13440],[33.9,13519],[33.8,13586],[33.8,13651],[33.6,13730],[33.6,13801],[33.6,13869],[33.6,13938],[34.4,14009],[35.4,14084],[35.7,14156],[35.7,14223],[35.7,14294],[35.4,14379],[34.8,14453],[34.6,14524],[34.4,14597],[34,14673],[33.8,14742],[33.6,14817],[33.5,14885],[33.2,14954],[33.2,15024],[33.1,15095],[33,15167],[32.9,15237],[32.9,15306],[32.9,15378],[32.9,15449],[32.9,15518],[32.9,15587],[32.9,15659],[32.9,15730],[32.9,15799],[32.9,15867],[32.9,15937],[36.8,16010],[39.4,16084],[40.2,16163],[41.3,16235],[42.4,16310],[45.9,16383],[50.4,16458],[54.7,16531],[55.8,16603],[56.3,16677],[57.6,16749],[57.9,16821],[58.2,16898],[59,16967],[59.8,17042],[60.2,17115],[60.8,17188],[61.4,17262],[61.4,17332],[61.6,17406],[62,17479],[62.4,17549],[62.6,17621],[63,17693],[63.8,17768],[64.3,17841],[64.9,17911],[65.8,17985],[66.1,18059],[66.4,18129],[67.2,18203],[67.8,18277],[67.8,18346],[68,18418],[68,18490],[68,18558],[67.9,18629],[67.9,18699],[67.9,18770],[67.8,18840],[67.8,18911],[67.5,18987],[67.2,19056],[67,19125],[65.7,19198],[63.8,19274],[62.7,19349],[62.3,19419],[61.8,19495],[61.5,19563],[61.3,19636],[61,19707],[60.5,19779],[60.2,19853],[59.7,19925],[59,20000],[58.3,20073],[57.9,20147],[57.6,20222],[57.4,20292],[57.1,20367],[57,20436],[56.9,20506],[56.8,20574],[56.7,20647],[56.5,20719],[56.3,20790],[56.3,20860],[56.3,20931],[56,21004],[56,21075],[56,21146],[55.4,21219],[54.6,21293],[54.2,21367],[53.6,21438],[52.9,21517],[52.8,21588],[52.8,21658],[52.5,21731],[52.3,21802],[52.2,21872],[51.9,21946],[51.6,22017],[51.5,22086],[51.4,22157],[50.7,22230],[50.4,22302],[50.1,22374],[49.4,22448],[49,22520],[48.8,22592],[48.4,22665],[47.6,22739],[47.4,22817],[47.4,22885],[47.1,22956],[46.9,23029],[46.9,23097],[46.8,23167],[46.4,23240],[46.3,23311],[46.3,23380],[45.9,23450],[45.8,23522],[45.7,23593],[45.5,23663],[45.2,23738],[45.2,23808],[45.2,23876],[45.1,23945],[45,24015],[45.7,24094],[50.3,24379],[50.6,24449],[52.7,24527],[55.1,24597],[55.8,24672],[56.1,24746],[56.4,24817],[56.5,24889],[56.6,24957],[57.4,25030],[58,25107],[58.1,25174],[58.2,25243],[58.3,25315],[58.4,25391],[58.8,25460],[59,25531],[59.1,25603],[59.2,25671],[59.5,25741],[60.1,25817],[60.2,25886],[60.2,25953],[60.2,26023],[60.2,26098],[60.2,26169],[60.2,26239],[60.2,26307],[60.2,26379],[60.6,26452],[61,26524],[61.3,26597],[61.5,26679],[61.6,26750],[61.6,26818],[61.6,26886],[61.6,26954],[61.6,27022],[61.6,27094],[61.8,27165],[62.1,27247],[62,27952],[61.9,28021],[61.7,28096],[61.7,28172],[61.6,28242],[61.3,28316],[61.3,28387],[61.1,28455],[60.9,28528],[60.8,28599],[60.7,28669],[60.5,28744],[60.4,28816],[60.4,28884],[60.4,28955],[60.4,29026],[60.3,29098],[60.3,29167],[60.9,29240],[61.7,29313],[62.7,29391],[62.9,29461]]",1,0,646.4365,649.1565,73.95833333,1.5595,"[{""rating"":73.95833333333334,""responseTime"":1.559500000000071}]",space,2.1287,,649.1567,All the time,100,649.1661,,,[],,,,0,2,2,2,1,audio/Narrative7Situation2.wav,audio/Narrative8Situation2.wav,audio/Narrative5Situation2.wav,audio/Narrative6Situation2.wav,3,3,3,3,,,,,,,,,,,,,,,,,,,,,,,,,,,,,,,,,,,,,
,,,,,,5f6b8930b9d9530b1b065360,2024-05-13_11h41.33.635,group3.1-3.2-social-tom,2023.2.2,Win32,30.03003003,65c5074098b851296ff0b7ed,6642348d0a99afe9cb4cad10,,,,,,,,,,,,,,,,,,,,,,,,,,,,,649.1664,2,audio/Narrative5Situation3.wav,652.1928,,652.1928,666.1483,"[[999,17],[999,85],[999,149],[999,224],[999,291],[999,360],[999,432],[999,508],[999,585],[52.6,657],[51.3,730],[51.1,804],[51.1,875],[53,954],[55.7,1022],[63.6,1102],[67.2,1175],[67.4,1245],[67.5,1319],[67.5,1389],[67.3,1462],[67.2,1533],[67,1605],[66.9,1678],[66.8,1755],[66.7,1836],[66.6,1909],[66.6,1974],[66.6,2044],[66.6,2119],[66.6,2184],[66.5,2250],[66.5,2317],[66.5,2385],[66.5,2453],[67.1,2525],[67.4,2599],[67.4,2667],[67.8,2739],[68.2,2812],[68.3,2883],[68.3,2953],[68.3,3020],[68.3,3093],[68.3,3165],[68.3,3234],[68.3,3307],[68.3,3379],[68.3,3447],[68.3,3515],[68.3,3583],[68.3,3658],[68.3,3729],[68.3,3799],[68.3,3868],[68.3,3937],[68.3,4008],[68.3,4079],[68.3,4147],[68.3,4216],[68.3,4289],[68.2,4362],[68.2,4429],[68.2,4497],[68.2,4567],[68.2,4636],[68.2,4707],[68.2,4780],[68.1,4854],[68.1,4930],[68.1,5002],[68.1,5075],[68.1,5154],[68.1,5226],[68.1,5293],[68.1,5361],[68.1,5430],[68.1,5498],[68.1,5570],[68.1,5640],[68.1,5713],[68.1,5780],[68.1,5849],[68.1,5920],[68.1,5992],[68.1,6062],[68.1,6131],[68.1,6202],[68.1,6278],[68.1,6346],[68.1,6415],[68,6487],[68,6556],[68,6624],[68,6693],[67.9,6762],[67.8,6835],[67.8,6906],[67.8,6974],[67.5,7045],[67.1,7120],[66.3,7194],[63.8,7273],[61,7346],[59.3,7425],[57.7,7492],[56.9,7578],[56.7,7651],[56.7,7718],[56.7,7785],[57.6,7856],[58.5,7928],[58.8,8003],[59,8073],[59.5,8147],[60.2,8220],[61.1,8293],[62.2,8367],[62.7,8438],[62.9,8510],[63.2,8584],[63.6,8657],[64.1,8735],[64.7,8805],[65.3,8877],[65.3,8948],[65.4,9019],[65.6,9090],[65.7,9163],[65.8,9234],[66.3,9305],[66.6,9378],[67.1,9450],[67.6,9522],[68,9596],[68.2,9668],[68.5,9745],[69.4,9814],[69.9,9886],[69.9,9956],[69.9,10027],[70,10098],[70,10174],[70,10243],[70.1,10315],[70.4,10385],[70.4,10455],[70.8,10530],[71.5,10601],[71.8,10676],[72.5,10748],[74.3,10823],[75.6,10897],[76.5,10970],[76.7,11044],[76.8,11114],[76.8,11183],[76.8,11253],[76.9,11326],[76.9,11394],[76.9,11463],[76.9,11535],[76.7,11609],[76,11682],[75.8,11750],[75.6,11821],[74.7,11895],[74.5,11967],[74.4,12043],[73.4,12116],[72.4,12190],[72.3,12261],[72.2,12330],[71.8,12402],[71.8,12475],[71.6,12545],[70.8,12618],[70.5,12690],[70.4,12765],[70.4,12837],[70.3,12904],[70.3,12972],[70.3,13044],[70.3,13112],[70.2,13185],[70.2,13255],[70.2,13324],[70.1,13394],[70.1,13462],[70.1,13533],[70.1,13602],[70.1,13673],[70.1,13742],[70.2,13812],[70.2,13883],[70.4,13955]]",1,0,666.1488,667.9659,76.14583333,1.0402,"[{""rating"":76.14583333333333,""responseTime"":1.0402000000476619}]",space,1.2185,,667.9662,Not at all,0,667.9763,,,[],,,,0,3,3,3,1,audio/Narrative7Situation3.wav,audio/Narrative8Situation3.wav,audio/Narrative5Situation3.wav,audio/Narrative6Situation3.wav,8,4,3,5,,,,,,,,,,,,,,,,,,,,,,,,,,,,,,,,,,,,,
,,,,,,5f6b8930b9d9530b1b065360,2024-05-13_11h41.33.635,group3.1-3.2-social-tom,2023.2.2,Win32,30.03003003,65c5074098b851296ff0b7ed,6642348d0a99afe9cb4cad10,,,,,,,,,,,,,,,,,,,,,,,,,,,,,667.9767,2,audio/Narrative5Situation4.wav,669.0072,,669.0072,689.4422,"[[999,2],[999,79],[999,147],[999,213],[999,281],[999,351],[999,419],[999,490],[999,561],[999,631],[999,698],[999,778],[72.2,850],[72.4,926],[73,997],[74,1069],[76.8,1438],[76,1518],[74.3,1585],[72.9,1660],[72.7,1732],[72.6,1804],[72.5,1875],[72.5,1944],[72.1,2014],[70.2,2088],[68.8,2163],[68.2,2234],[67.1,2310],[64.8,2382],[63.8,2458],[63.3,2532],[60.9,2609],[59.8,2679],[59.5,2749],[59.1,2822],[58.8,2891],[58.8,2961],[58.8,3029],[58.8,3099],[58.8,3171],[59.3,3243],[60.3,3317],[60.9,3391],[61,3461],[61,3534],[60.9,3604],[61.3,3674],[61.6,3746],[61.7,3818],[62.2,3894],[62.8,3968],[63.5,4042],[64.2,4103],[64.4,4185],[64.4,4254],[64.4,4322],[64.4,4391],[64.2,4464],[63.9,4538],[63.9,4609],[63.9,4677],[63.9,4748],[63.8,4819],[62.7,4891],[60.4,4965],[58.9,5039],[58.6,5114],[58.5,5183],[57.9,5251],[57.5,5321],[57.2,5397],[56.4,5468],[55.1,5540],[54.7,5614],[54.1,5688],[52.6,5762],[52.2,5835],[52,5908],[51.7,5980],[51.4,6053],[51,6126],[50.7,6199],[50.4,6270],[50.1,6346],[50,6421],[49.6,6493],[49.4,6564],[49.2,6635],[48.9,6707],[48.6,6781],[48.4,6852],[48.3,6924],[48,6996],[47.9,7067],[47.8,7136],[47.3,7210],[47.3,7272],[47.3,7358],[47.2,7430],[47.2,7499],[47.2,7568],[47.1,7639],[47,7711],[47,7780],[47,7852],[46.8,7925],[46.7,7992],[46.7,8059],[46.7,8126],[46.4,8197],[46.4,8268],[46.3,8340],[46.1,8412],[46.1,8480],[46,8552],[45.9,8624],[45.8,8694],[45.8,8762],[45.7,8832],[45.7,8903],[45.7,8973],[45.7,9043],[45.7,9111],[45.6,9181],[45.6,9255],[45.6,9323],[45.5,9390],[45.5,9459],[45.5,9526],[45.5,9595],[45.5,9668],[45.5,9737],[45.5,9807],[45.5,9879],[45.5,9944],[45.5,10016],[45.5,10088],[45.5,10157],[45.5,10227],[45.5,10298],[45.5,10368],[45.5,10439],[45.5,10512],[45.5,10582],[45.5,10653],[45.5,10722],[45.2,10792],[45,10865],[44.8,10939],[44.6,11010],[44.5,11083],[44.3,11155],[43.5,11227],[43.1,11302],[43.1,11371],[43.1,11439],[43.1,11509],[43.1,11580],[43.1,11650],[43.1,11724],[43.1,11797],[43.1,11865],[43.1,11931],[42.6,12002],[41.8,12079],[41.1,12150],[40.9,12221],[40.5,12294],[40,12368],[40,12436],[39.9,12507],[39.5,12585],[39.2,12660],[38.6,12738],[38.1,12810],[37.7,12882],[37.6,12953],[37.4,13025],[37.3,13102],[37.2,13183],[37.1,13264],[36.9,13339],[36.8,13410],[36.7,13481],[36.6,13552],[36.6,13623],[36.6,13694],[36.6,13767],[36.6,13841],[36.6,13913],[36.6,13982],[36.6,14042],[36.5,14128],[36.5,14199],[36.5,14275],[36.5,14342],[36.5,14409],[36.5,14480],[36.5,14551],[36.5,14622],[36.5,14696],[36.5,14767],[36.5,14838],[36.5,14908],[36.5,14978],[36.5,15047],[36.5,15115],[36.5,15186],[36.5,15245],[36.5,15336],[36.5,15406],[36.5,15475],[36.1,15545],[35.9,15620],[35.9,15692],[35.7,15761],[35.6,15833],[35.5,15904],[35.5,15972],[35.5,16041],[35.4,16120],[35.4,16192],[35.3,16268],[35.2,16338],[35,16411],[34.9,16483],[34.9,16554],[34.8,16624],[34.8,16694],[34.7,16767],[34.6,16838],[34.5,16910],[34.3,16983],[33.6,17054],[33.4,17124],[33.2,17199],[32.9,17270],[32.8,17340],[32.8,17409],[32.7,17482],[32.7,17555],[32.7,17625],[32.6,17700],[32.6,17769],[32.6,17840],[32.6,17911],[32.6,17982],[32.6,18050],[32.6,18119],[32.6,18191],[32.6,18261],[32.6,18332],[32.6,18398],[32.6,18469],[32.6,18529],[32.6,18611],[32.6,18681],[32.6,18750],[32.6,18819],[32.6,18888],[32.6,18955],[32.6,19031],[32.6,19101],[32.6,19170],[32.6,19241],[32.6,19310],[32.6,19381],[32.6,19450],[32.6,19519],[32.6,19591],[32.6,19664],[32.6,19731],[32.6,19800],[32.7,19872],[33.3,19944],[33.4,20014],[33.4,20082],[33.4,20141],[33.4,20224],[33.4,20295],[33.4,20365],[33.4,20434]]",1,0,689.4424,692.8165,25.625,2.563,"[{""rating"":25.624999999999996,""responseTime"":2.563000000000102}]",space,2.7781,,692.8166,Not at all,0,692.824,,,[],,,,0,4,4,4,1,audio/Narrative7Situation4.wav,audio/Narrative8Situation4.wav,audio/Narrative5Situation4.wav,audio/Narrative6Situation4.wav,3,3,1,2,,,,,,,,,,,,,,,,,,,,,,,,,,,,,,,,,,,,,
,,,,,,5f6b8930b9d9530b1b065360,2024-05-13_11h41.33.635,group3.1-3.2-social-tom,2023.2.2,Win32,30.03003003,65c5074098b851296ff0b7ed,6642348d0a99afe9cb4cad10,,,,,,,,,,,,,,,,,,,,,,,,,,,,,692.8252,2,audio/Narrative5Situation5.wav,697.8357,,697.8357,713.2922,"[[999,16],[999,98],[999,169],[999,244],[999,312],[999,381],[999,456],[999,530],[999,602],[999,677],[999,752],[999,831],[24.8,901],[24.7,974],[24.2,1047],[22.8,1122],[22.7,1192],[22.5,1266],[18.8,1343],[16.8,1413],[16.7,1485],[16.6,1556],[17.1,1630],[18.2,1706],[18.2,1775],[18.2,1845],[18.3,1918],[18.3,1988],[18.3,2063],[18.3,2134],[18.3,2202],[18.3,2261],[18.3,2348],[18.3,2419],[18.3,2479],[18.3,2565],[18.3,2635],[18.3,2704],[18.3,2773],[18.3,2842],[18.3,2913],[18.3,2985],[18.3,3052],[18.3,3122],[18.3,3192],[18.3,3261],[18.3,3333],[18.3,3402],[18.3,3471],[18.3,3540],[18.3,3615],[18.3,3684],[18.3,3752],[18.3,3820],[18.3,3893],[18.3,3964],[18.3,4033],[18.3,4102],[18.3,4171],[18.3,4242],[17,4316],[22.2,4389],[23,4464],[30,4536],[40.4,4612],[44.6,4686],[52.5,4762],[59.6,4835],[63.8,4910],[64.2,4984],[64.4,5055],[64.5,5129],[64.6,5199],[64.9,5271],[65,5345],[65.1,5413],[65.1,5483],[64.8,5554],[64.2,5629],[63.9,5702],[63.9,5772],[63.8,5843],[63.6,5913],[63.6,5983],[63.5,6057],[63.5,6126],[63.5,6195],[63.5,6264],[63.5,6334],[63.5,6405],[63.5,6474],[63.5,6542],[63.5,6611],[63.5,6679],[63.5,6748],[63.5,6819],[63.5,6891],[63.5,6959],[63.5,7028],[63.5,7097],[63.5,7165],[63.5,7238],[63.5,7307],[63.5,7383],[63.5,7454],[63.5,7522],[63.5,7591],[63.5,7662],[63.5,7734],[63.5,7805],[63.5,7875],[63.5,7946],[63.5,8018],[63.5,8088],[63.5,8157],[63.5,8225],[63.5,8300],[63.5,8372],[63.5,8454],[63.5,8519],[63.5,8588],[63.5,8656],[63.5,8725],[63.5,8797],[63.5,8869],[63.5,8938],[63.5,9008],[63.5,9079],[63.5,9150],[63.5,9219],[63.5,9289],[63.5,9359],[65.2,9444],[67.9,9519],[68.8,9591],[68.9,9665],[68.9,9732],[68.9,9802],[68.9,9870],[68.9,9938],[68.8,10012],[68.6,10082],[68.6,10151],[68.6,10220],[68.6,10291],[68.6,10365],[68.6,10434],[68.9,10505],[69,10579],[69,10650],[69.1,10720],[69.1,10791],[69.1,10863],[69.2,10933],[69.2,11002],[69.2,11062],[69.2,11143],[69.2,11213],[69.2,11283],[69.2,11342],[69.2,11424],[69.1,11495],[69,11566],[68.9,11639],[68.8,11712],[68.6,11782],[68.5,11853],[68.5,11925],[68.4,11997],[68.3,12066],[68.2,12139],[68.2,12209],[68,12280],[67.8,12353],[67.8,12425],[67.8,12493],[67.8,12561],[67.8,12630],[67.8,12700],[67.8,12771],[67.8,12840],[67.8,12908],[67.8,12976],[67.8,13045],[67.8,13117],[67.8,13187],[67.8,13258],[67.8,13326],[67.8,13395],[67.8,13466],[67.8,13537],[67.8,13605],[67.8,13673],[67.8,13741],[67.8,13811],[67.8,13883],[67.8,13955],[67.8,14024],[67.8,14092],[67.8,14161],[67.8,14231],[67.8,14302],[67.8,14370],[67.8,14440],[67.8,14508],[67.8,14579],[67.8,14650],[67.8,14720],[67.8,14792],[67.8,14861],[67.8,14935],[67.8,15002],[67.8,15071],[67.8,15140],[67.8,15208],[67.8,15280],[67.8,15351],[67.8,15420]]",1,0,713.2946,716.7806,59.0625,2.5456,"[{""rating"":59.06249999999999,""responseTime"":2.5455999999046526}]",space,2.8972,,716.7807,All the time,100,716.7929,,,[],,,,0,5,5,5,1,audio/Narrative7Situation5.wav,audio/Narrative8Situation5.wav,audio/Narrative5Situation5.wav,audio/Narrative6Situation5.wav,5,2,5,2,,,,,,,,,,,,,,,,,,,,,,,,,,,,,,,,,,,,,
,,,,,,5f6b8930b9d9530b1b065360,2024-05-13_11h41.33.635,group3.1-3.2-social-tom,2023.2.2,Win32,30.03003003,65c5074098b851296ff0b7ed,6642348d0a99afe9cb4cad10,,,,,,,,,,,,,,,,,,,,,,,,,,,,,716.7932,2,audio/Narrative5Situation6.wav,719.8071,,719.8072,725.5281,"[[58.3,648],[59.4,716],[59.3,789],[57.8,864],[55.5,939],[53.5,1013],[52.4,1087],[51.9,1161],[51.6,1223],[51.3,1306],[50.8,1378],[50.2,1450],[49.9,1523],[49.8,1592],[49.8,1662],[49.8,1730],[49.9,1802],[52.2,1878],[54.2,1952],[55.8,2025],[56.9,2101],[57.8,2174],[59,2248],[60.7,2322],[61.8,2399],[62.3,2469],[62.5,2541],[62.8,2619],[63.8,2701],[65.6,2780],[67,2860],[68,2928],[69,3004],[70.2,3077],[71.1,3150],[71.8,3230],[72.1,3297],[72.2,3371],[72,3442],[70.6,3519],[70.5,3588],[70.5,3657],[70.5,3725],[70.5,3797],[70.4,3869],[70.4,3929],[70.4,4013],[70.4,4085],[70.4,4153],[70.4,4222],[70.4,4292],[70.4,4363],[70.4,4434],[70.4,4502],[70.4,4572],[70.4,4644],[70.4,4715],[70.4,4784],[70.4,4853],[70.4,4921],[70.4,4993],[70.4,5063],[70.4,5130],[70.4,5200],[70.4,5268],[70.4,5336],[70.4,5408],[70.4,5477],[70.4,5547],[70.4,5616],[70.4,5685]]",1,0,725.5281,727.7905,81.97916667,1.5054,"[{""rating"":81.97916666666667,""responseTime"":1.5054000000952783}]",space,1.6839,,727.791,Not at all,0,727.8018,,,[],,,,0,6,6,6,1,audio/Narrative7Situation6.wav,audio/Narrative8Situation6.wav,audio/Narrative5Situation6.wav,audio/Narrative6Situation6.wav,3,2,3,2,,,,,,,,,,,,,,,,,,,,,,,,,,,,,,,,,,,,,
,,,,,,5f6b8930b9d9530b1b065360,2024-05-13_11h41.33.635,group3.1-3.2-social-tom,2023.2.2,Win32,30.03003003,65c5074098b851296ff0b7ed,6642348d0a99afe9cb4cad10,,,,,,,,,,,,,,,,,,,,,,,,,,,,,727.8021,2,audio/Narrative5Situation7.wav,731.8071,,731.8071,752.8758,"[[78,82],[77.6,154],[76.6,229],[76.1,300],[76.1,371],[76.1,442],[75.8,515],[75.5,589],[74.8,662],[72.4,739],[72.3,811],[72,881],[69.3,959],[68.6,1030],[68.6,1099],[68.4,1171],[68.1,1245],[67.5,1318],[64.8,1392],[62.6,1463],[62.3,1537],[62.1,1610],[61.5,1682],[61.3,1756],[61,1830],[61,1901],[61,1972],[60.9,2048],[60.9,2117],[60.8,2190],[60.6,2261],[60.6,2332],[60.5,2404],[60.2,2477],[60.1,2548],[59.8,2620],[59.4,2693],[59.1,2765],[58.6,2839],[58,2912],[57.5,2987],[55.7,3060],[54.9,3135],[54.4,3209],[54.3,3281],[54.2,3358],[54.2,3425],[54,3494],[54,3567],[54,3636],[53.9,3705],[53.9,3774],[53.8,3846],[53.8,3920],[53.8,3989],[53.8,4057],[53.8,4125],[53.6,4198],[53.5,4271],[53.1,4345],[52.9,4417],[52.7,4487],[51.8,4563],[51.6,4632],[51.6,4706],[51.3,4777],[50.9,4852],[50.8,4922],[50.4,4994],[49.8,5067],[49.7,5137],[49.6,5207],[49.5,5279],[49.2,5351],[49.2,5421],[48.9,5494],[48.5,5567],[48.4,5637],[48.4,5707],[48.1,5780],[47.9,5853],[47.9,5925],[47.8,5997],[47.8,6066],[47.7,6136],[47.7,6200],[47.6,6279],[47.4,6352],[47.4,6423],[47.3,6495],[47.1,6568],[47,6635],[46.4,6709],[46,6782],[45.9,6853],[45.7,6927],[45.4,6998],[45.2,7070],[45.2,7141],[44.7,7214],[44.5,7286],[44.5,7357],[44.2,7430],[44,7502],[43.9,7575],[43.9,7649],[43.9,7713],[43.9,7782],[43.9,7853],[43.9,7924],[43.9,7993],[44.5,8064],[45.1,8137],[45.2,8209],[45.7,8279],[46.1,8352],[46.1,8424],[46,8494],[47.4,8565],[59.1,9226],[59,9300],[58.3,9372],[58.2,9443],[57.7,9517],[57.4,9590],[57.2,9660],[57.2,9731],[57.4,9803],[57.5,9877],[57.5,9947],[57.6,10019],[57.6,10087],[58,10160],[58.4,10237],[58.6,10304],[58.6,10372],[58.8,10441],[58.8,10514],[59,10583],[59.5,10655],[59.8,10727],[59.9,10800],[59.9,10869],[59.9,10940],[59.9,11000],[59.8,11086],[59.8,11155],[59.8,11223],[59.8,11294],[59.8,11365],[59.8,11434],[59.7,11503],[59.7,11572],[59.7,11643],[59.7,11716],[59.7,11784],[59.7,11855],[59.7,11926],[59.7,11997],[59.8,12066],[60,12137],[60,12208],[60,12278],[60,12346],[60,12414],[60.1,12486],[60.3,12560],[60.4,12639],[60.4,12709],[60.5,12781],[60.5,12851],[60.5,12921],[60.5,12997],[60.5,13062],[60.5,13135],[60.5,13203],[60.5,13280],[60.5,13354],[60.5,13427],[60.5,13495],[60.5,13564],[60.5,13633],[60.5,13705],[60.5,13775],[60.5,13844],[60.4,13914],[60.4,13984],[60.4,14056],[60.4,14126],[60.4,14194],[60.4,14263],[60.4,14332],[60.4,14404],[60.4,14472],[60.4,14540],[60.4,14612],[60.3,14681],[60.2,14754],[60.2,14823],[60.2,14893],[60.2,14962],[60.1,15036],[60.1,15109],[60.1,15182],[60.1,15254],[60.1,15322],[60.1,15392],[60.1,15460],[60.1,15531],[60.1,15602],[60,15674],[60,15742],[60,15814],[60,15887],[60,15955],[60,16024],[60,16091],[60,16162],[60,16234],[60,16304],[60,16373],[60,16441],[60,16511],[60,16583],[60,16652],[60,16728],[60,16801],[60,16877],[60,16939],[60,17033],[60,17107],[60,17182],[60,17254],[60,17324],[60,17397],[60,17469],[60,17537],[60,17610],[60,17683],[60,17754],[60,17828],[60,17903],[60,17973],[60,18034],[60,18128],[60,18201],[60,18260],[60,18342],[60,18429],[60,18498],[60,18567],[60,18638],[60,18711],[60.1,18794],[62.1,18867],[62.3,18940],[62.3,19013],[61.8,19085],[60.9,19162],[60.8,19233],[60.8,19303],[60.8,19373],[60.8,19446],[60.8,19518],[60.8,19593],[60.8,19663],[60.8,19735],[60.8,19807],[60.8,19878],[60.8,19948],[60.8,20021],[60.8,20094],[60.8,20165],[60.8,20239],[60.8,20312],[60.8,20387],[60.8,20460],[60.8,20531],[60.8,20604],[60.8,20676],[60.8,20744],[60.8,20817],[60.8,20889],[60.8,20960],[60.8,21032]]",1,0,752.876,756.9374,62.8125,3.4796,"[{""rating"":62.81250000000001,""responseTime"":3.479600000143023}]",space,3.4793,,756.9375,Half the time,50,756.9484,,,[],,,,0,7,7,7,1,audio/Narrative7Situation7.wav,audio/Narrative8Situation7.wav,audio/Narrative5Situation7.wav,audio/Narrative6Situation7.wav,5,3,4,5,,,,,,,,,,,,,,,,,,,,,,,,,,,,,,,,,,,,,
,,,,,,5f6b8930b9d9530b1b065360,2024-05-13_11h41.33.635,group3.1-3.2-social-tom,2023.2.2,Win32,30.03003003,65c5074098b851296ff0b7ed,6642348d0a99afe9cb4cad10,,,,,,,,,,,,,,,,,,,,,,,,,,,,,756.9487,2,audio/Narrative5Situation8.wav,759.9779,,759.978,768.819,"[[999,16],[999,86],[999,156],[999,230],[999,300],[999,369],[62.5,442],[64.2,517],[64.7,589],[64.2,667],[64,737],[64,811],[63.8,883],[63.8,951],[63.8,1028],[63.5,1096],[63.5,1163],[63.4,1222],[63.4,1309],[62.6,1381],[61.1,1454],[60.6,1528],[60,1600],[59.4,1673],[59.3,1746],[59.3,1815],[59.2,1888],[59.3,1960],[60.8,2031],[61.9,2104],[63,2179],[64.7,2253],[65,2327],[65,2396],[65,2466],[65,2537],[65,2608],[65.3,2678],[65.5,2748],[65.7,2824],[66.4,2898],[67.6,2978],[67.8,3058],[67.8,3128],[67.8,3193],[67.9,3262],[67.9,3331],[68,3404],[67.4,3475],[67.4,3544],[67.4,3603],[67.4,3685],[67.4,3755],[67.4,3825],[67.4,3894],[67.4,3962],[67.4,4033],[67.4,4105],[67.4,4172],[67.4,4242],[67.4,4310],[67.4,4381],[67.4,4453],[67.4,4520],[67.4,4588],[67.4,4658],[67.4,4727],[67.4,4799],[67.4,4869],[67.4,4937],[67.4,5006],[67.4,5075],[67.4,5145],[67.4,5217],[67.4,5287],[67.4,5354],[67.4,5429],[67.4,5500],[67.4,5569],[67.4,5638],[67.4,5711],[67.4,5783],[67.4,5853],[68.4,5921],[76.5,6503],[76,6577],[75.9,6650],[75.9,6733],[76.4,6799],[76.4,6868],[76.4,6937],[76.9,7009],[77.8,7082],[78.2,7154],[78.5,7227],[78.6,7300],[78.6,7368],[78.6,7437],[78.6,7508],[78.8,7579],[78.8,7649],[78.9,7720],[79,7792],[79,7861],[79,7929],[79,7998],[79,8067],[78.9,8140],[78.9,8211],[78.9,8281],[78.9,8351],[78.9,8421],[78.9,8492],[78.9,8560],[78.8,8629],[78.8,8698],[78.8,8769],[78.8,8840]]",1,0,768.8192,771.8243,69.27083333,1.6343,"[{""rating"":69.27083333333334,""responseTime"":1.6342999999523045}]",space,2.4141,,771.8244,Not at all,0,771.8349,,,[],,,,0,8,8,8,1,audio/Narrative7Situation8.wav,audio/Narrative8Situation8.wav,audio/Narrative5Situation8.wav,audio/Narrative6Situation8.wav,2,3,3,5,,,,,,,,,,,,,,,,,,,,,,,,,,,,,,,,,,,,,
