exp_question,consent.started,consent.stopped,consentResponse.keys,consentResponse.rt,consentResponse.duration,participantID,date,expName,psychopyVersion,OS,frameRate,STUDY_ID,SESSION_ID,opening1.started,opening1.stopped,keyEndingOpening1.keys,keyEndingOpening1.rt,keyEndingOpening1.duration,volumeAdjust.started,volumeAdjust.stopped,endingAdjust.keys,endingAdjust.rt,endingAdjust.duration,opening2.started,opening2.stopped,keyEndingOpening.keys,keyEndingOpening.rt,keyEndingOpening.duration,mouse.x,mouse.y,mouse.leftButton,mouse.midButton,mouse.rightButton,mouse.time,instructionLoop.thisRepN,instructionLoop.thisTrialN,instructionLoop.thisN,instructionLoop.thisIndex,instructionLoop.ran,readyForAudio.started,readyForAudio.stopped,fixation.started,run,audio_played,fixation.stopped,endPractice.keys,audioPre.started,audioPre.stopped,continuousResponses_audio,continuousSlider.response,continuousSlider.rt,intRating.started,intRating.stopped,intQuestionSlider.response,intQuestionSlider.rt,intQuestionSlider.history,confirmResponse.keys,confirmResponse.rt,confirmResponse.duration,catchQuestion.started,catch_label,catch_value,catchQuestion.stopped,catchQuestionSlider.response,catchQuestionSlider.rt,catchQuestionSlider.history,confirmResponse_2.keys,audioRunLoop.thisRepN,audioRunLoop.thisTrialN,audioRunLoop.thisN,audioRunLoop.thisIndex,audioRunLoop.ran,conditions1_1,conditions2_1,conditions1_2,conditions2_2,dur1_1,dur2_1,dur1_2,dur2_2,endPractice.rt,endPractice.duration,confirmResponse_2.rt,confirmResponse_2.duration,runIntervalBreak.started,runIntervalBreak.stopped,endingBreakKey.keys,endingBreakKey.rt,endingBreakKey.duration,connection.started,connection.stopped,connectionEnding.keys,connectionEnding.rt,connectionEnding.duration,readyForText.started,readyForText.stopped,textPre.started,run_dup,textPre.stopped,continuousResponses_text,textRunLoop.thisRepN,textRunLoop.thisTrialN,textRunLoop.thisN,textRunLoop.thisIndex,textRunLoop.ran,text1_1,text1_2,text2_1,text2_2,runBreakText.started,runBreakText.stopped,endingBreakKey_2.keys,endingBreakKey_2.rt,endingBreakKey_2.duration,ending.started,ending.stopped,endingEnding.keys,endingEnding.rt,endingEnding.duration
tom,0.0026,11.7369,y,11.4166,,5fb0a3d6a8e4224b973e750b,2024-02-08_13h22.13.209,group3.1-3.2-social-tom,2023.2.2,Win32,59.52380952,65c5074098b851296ff0b7ed,65c545acc283c23b8dc55025,,,,,,,,,,,,,,,,,,,,,,,,,,,,,,,,,,,,,,,,,,,,,,,,,,,,,,,,,,,,,,,,,,,,,,,,,,,,,,,,,,,,,,,,,,,,,,,,,,,,,,,,,,
,,,,,,5fb0a3d6a8e4224b973e750b,2024-02-08_13h22.13.209,group3.1-3.2-social-tom,2023.2.2,Win32,59.52380952,65c5074098b851296ff0b7ed,65c545acc283c23b8dc55025,11.7371,18.0693,space,6.302,,,,,,,,,,,,,,,,,,,,,,,,,,,,,,,,,,,,,,,,,,,,,,,,,,,,,,,,,,,,,,,,,,,,,,,,,,,,,,,,,,,,,,,,,,,,,,,,,,,,,,
,,,,,,5fb0a3d6a8e4224b973e750b,2024-02-08_13h22.13.209,group3.1-3.2-social-tom,2023.2.2,Win32,59.52380952,65c5074098b851296ff0b7ed,65c545acc283c23b8dc55025,,,,,,18.0696,35.8681,space,17.4772,,,,,,,,,,,,,,,,,,,,,,,,,,,,,,,,,,,,,,,,,,,,,,,,,,,,,,,,,,,,,,,,,,,,,,,,,,,,,,,,,,,,,,,,,,,,,,,,,
,,,,,,5fb0a3d6a8e4224b973e750b,2024-02-08_13h22.13.209,group3.1-3.2-social-tom,2023.2.2,Win32,59.52380952,65c5074098b851296ff0b7ed,65c545acc283c23b8dc55025,,,,,,,,,,,35.8836,45.7893,space,9.8949,,[],[],[],[],[],[],0,0,0,0,1,,,,,,,,,,,,,,,,,,,,,,,,,,,,,,,,,,,,,,,,,,,,,,,,,,,,,,,,,,,,,,,,,,,,,,,,,,,,,,,,
,,,,,,5fb0a3d6a8e4224b973e750b,2024-02-08_13h22.13.209,group3.1-3.2-social-tom,2023.2.2,Win32,59.52380952,65c5074098b851296ff0b7ed,65c545acc283c23b8dc55025,,,,,,,,,,,45.8065,60.3656,space,14.4854,,[],[],[],[],[],[],1,0,1,0,1,,,,,,,,,,,,,,,,,,,,,,,,,,,,,,,,,,,,,,,,,,,,,,,,,,,,,,,,,,,,,,,,,,,,,,,,,,,,,,,,
,,,,,,5fb0a3d6a8e4224b973e750b,2024-02-08_13h22.13.209,group3.1-3.2-social-tom,2023.2.2,Win32,59.52380952,65c5074098b851296ff0b7ed,65c545acc283c23b8dc55025,,,,,,,,,,,60.3788,80.6324,space,20.2161,,[-0.30600292825768666],[-0.7734375],[1],[0],[0],[15.666599999994048],2,0,2,0,1,,,,,,,,,,,,,,,,,,,,,,,,,,,,,,,,,,,,,,,,,,,,,,,,,,,,,,,,,,,,,,,,,,,,,,,,,,,,,,,,
,,,,,,5fb0a3d6a8e4224b973e750b,2024-02-08_13h22.13.209,group3.1-3.2-social-tom,2023.2.2,Win32,59.52380952,65c5074098b851296ff0b7ed,65c545acc283c23b8dc55025,,,,,,,,,,,80.6527,95.9802,space,15.3047,,[],[],[],[],[],[],3,0,3,0,1,,,,,,,,,,,,,,,,,,,,,,,,,,,,,,,,,,,,,,,,,,,,,,,,,,,,,,,,,,,,,,,,,,,,,,,,,,,,,,,,
,,,,,,5fb0a3d6a8e4224b973e750b,2024-02-08_13h22.13.209,group3.1-3.2-social-tom,2023.2.2,Win32,59.52380952,65c5074098b851296ff0b7ed,65c545acc283c23b8dc55025,,,,,,,,,,,95.9963,102.7968,space,6.7824,,[],[],[],[],[],[],4,0,4,0,1,,,,,,,,,,,,,,,,,,,,,,,,,,,,,,,,,,,,,,,,,,,,,,,,,,,,,,,,,,,,,,,,,,,,,,,,,,,,,,,,
,,,,,,5fb0a3d6a8e4224b973e750b,2024-02-08_13h22.13.209,group3.1-3.2-social-tom,2023.2.2,Win32,59.52380952,65c5074098b851296ff0b7ed,65c545acc283c23b8dc55025,,,,,,,,,,,,,,,,,,,,,,,,,,,102.8166,105.3967,105.43,1,audio/Narrative13Situation2.wav,107.4307,,107.4312,137.1967,"[[999,2],[999,97],[999,181],[999,264],[999,347],[999,430],[999,514],[999,597],[999,681],[999,764],[999,848],[999,932],[999,1015],[999,1097],[999,1181],[999,1265],[26.7,1348],[26.7,1431],[26.7,1515],[26.9,1597],[26.7,1682],[27,1764],[28.2,1847],[29.1,1932],[29.9,2016],[30.4,2099],[30.5,2181],[30.5,2264],[30.5,2347],[30.5,2431],[30.5,2514],[30.5,2597],[30.5,2681],[30.5,2764],[30.5,2848],[30.5,2931],[30.5,3014],[32.1,3098],[33.2,3182],[34.2,3265],[34.5,3347],[34.6,3431],[34.6,3514],[34.6,3597],[34.6,3681],[34.6,3764],[34,3848],[29.6,3932],[25.8,4015],[24.4,4098],[23.6,4180],[23.2,4265],[22.9,4348],[22.8,4432],[22.2,4515],[21.6,4598],[21.2,4681],[21.2,4764],[20.9,4848],[20.4,4932],[20,5014],[19.4,5098],[19.3,5180],[19.3,5264],[19.3,5347],[19.3,5431],[19.3,5514],[19.3,5598],[19.3,5681],[19.3,5764],[19.3,5847],[19.3,5931],[19.3,6014],[19.3,6097],[19.3,6180],[19.3,6264],[19.3,6347],[19.3,6431],[19.3,6514],[19,6599],[17.2,6682],[16.9,6765],[16.8,6847],[16.8,6931],[16.8,7015],[15.6,7115],[14.9,7199],[14.7,7281],[14.6,7364],[14,7449],[13.1,7531],[12.4,7614],[11.8,7698],[11.5,7782],[11.5,7864],[11.5,7947],[11.5,8031],[11.5,8114],[11.2,8198],[10.5,8281],[9.7,8365],[9,8448],[8.3,8531],[7.8,8615],[7.7,8698],[7.4,8781],[7.1,8865],[6.8,8947],[6.7,9031],[6.7,9114],[7,9199],[7.1,9281],[7.7,9365],[10.6,9448],[13.7,9532],[14.7,9615],[15.7,9699],[16.3,9782],[16.5,9864],[16.5,9948],[16.5,10031],[16.5,10114],[16.5,10197],[16.5,10280],[16.8,10364],[17.6,10447],[18.7,10531],[19,10613],[19.4,10698],[19.7,10780],[20.4,10865],[21.4,10947],[22.6,11031],[23.4,11115],[23.6,11197],[24.4,11281],[26.3,11365],[27.5,11449],[28.5,11531],[29.2,11615],[30.5,11699],[31.8,11781],[32.4,11864],[32.9,11948],[33.2,12031],[34,12114],[35.1,12199],[35.2,12280],[35.4,12363],[35.8,12448],[36.5,12531],[37.1,12614],[37.7,12698],[38,12781],[38.1,12864],[38.1,12948],[38.1,13030],[38.1,13114],[38.1,13197],[38.1,13280],[38.1,13364],[38.1,13447],[38.1,13531],[38.1,13614],[38.1,13697],[38.1,13781],[38.1,13864],[39.9,13948],[41.1,14030],[41.2,14113],[41.2,14198],[41.5,14280],[41.9,14365],[42.4,14449],[42.7,14530],[43.1,14613],[43.3,14698],[43.6,14781],[43.7,14863],[43.7,14947],[43.9,15030],[43.9,15114],[44,15197],[44,15280],[44.4,15363],[45,15447],[45.3,15530],[45.5,15613],[45.5,15697],[45.3,15782],[45.3,15863],[45.3,15947],[45.3,16030],[45.3,16114],[45.3,16197],[45.3,16280],[45.3,16364],[45.3,16447],[45.3,16530],[45.3,16614],[45.3,16697],[45.3,16780],[45.3,16863],[44.1,16948],[42.5,17032],[41.4,17114],[40.9,17197],[40.8,17280],[40.5,17365],[40.3,17447],[39.9,17531],[39.6,17614],[39.3,17698],[39.2,17780],[38.7,17863],[38.3,17948],[38.1,18031],[38.1,18114],[38.1,18197],[38,18280],[37.8,18364],[37.8,18448],[37.7,18530],[37.7,18614],[37.4,18698],[37.1,18781],[36.8,18863],[36.4,18947],[35.8,19031],[35.2,19115],[34.9,19198],[34.6,19280],[34.2,19363],[33.9,19449],[33.7,19530],[33.6,19613],[33.6,19697],[33.5,19780],[33.3,19863],[33.2,19947],[32.9,20031],[32.7,20115],[32.6,20197],[32.4,20280],[32.3,20363],[32.1,20447],[31.8,20531],[31.7,20614],[31.6,20697],[31.6,20780],[31.6,20864],[31.6,20948],[31.6,21030],[31.7,21114],[32.1,21198],[32.7,21281],[33.5,21364],[34.2,21447],[34.6,21530],[35.1,21615],[37.3,21697],[39.5,21781],[41.2,21865],[42.2,21948],[43.1,22030],[44.7,22114],[46.6,22197],[47.8,22281],[49,22364],[49.9,22447],[50.4,22531],[51,22614],[52.5,22698],[53.8,22781],[55.1,22864],[56.1,22948],[57.2,23031],[58.2,23114],[59.4,23198],[61,23280],[61.9,23364],[62.6,23449],[63.3,23531],[63.9,23614],[64.5,23697],[64.5,23781],[64.5,23863],[64.5,23947],[64.5,24030],[64.5,24113],[64.5,24197],[64.5,24280],[64.5,24363],[64.5,24446],[64.5,24530],[64.5,24614],[64.5,24697],[64.5,24780],[64.5,24863],[64.5,24947],[64.5,25030],[64.5,25113],[65.7,25197],[66.1,25280],[66.4,25364],[67,25448],[67.6,25531],[68,25613],[68.3,25697],[68.4,25780],[69,25864],[69.8,25947],[70.5,26031],[71.2,26114],[71.7,26198],[72,26281],[72.3,26363],[72.7,26448],[73.3,26531],[74,26614],[74.3,26698],[74.5,26780],[74.5,26863],[74.5,26947],[74.5,27030],[74.5,27112],[74.5,27197],[74.5,27280],[74.5,27363],[74.5,27447],[74.5,27530],[74.5,27613],[74.5,27696],[74.5,27780],[74.5,27863],[74.5,27947],[74.5,28030],[74.5,28113],[74.5,28197],[74.5,28280],[74.5,28363],[74.5,28447],[74.5,28530],[74.5,28613],[74.5,28697],[74.5,28780],[74.5,28864],[74.5,28947],[74.5,29030],[74.5,29113],[74.5,29196],[74.5,29279],[74.5,29362],[74.5,29445],[74.5,29529],[74.5,29613],[74.5,29696]]",1,0,137.1971,144.8966,74.45095168,6.0898,"[{""rating"":74.45095168374817,""responseTime"":6.0897999999821195}]",space,7.1541,,144.8973,Not at all,0,144.9061,,,[],,0,0,0,0,1,audio/Narrative13Situation2.wav,audio/Narrative13Situation2.wav,audio/Narrative13Situation2.wav,audio/Narrative13Situation2.wav,2,2,2,2,,,,,,,,,,,,,,,,,,,,,,,,,,,,,,,,,,,,,,,
,,,,,,5fb0a3d6a8e4224b973e750b,2024-02-08_13h22.13.209,group3.1-3.2-social-tom,2023.2.2,Win32,59.52380952,65c5074098b851296ff0b7ed,65c545acc283c23b8dc55025,,,,,,,,,,,,,,,,,,,,,,,,,,,,,144.9066,1,audio/Narrative7Situation1.wav,147.5616,space,147.562,203.4599,"[[30.7,2167],[26.6,2250],[25.5,2333],[24.8,2415],[24.5,2499],[24.4,2582],[24.1,2665],[23.9,2748],[23.9,2831],[24.1,2915],[24.1,2998],[24.1,3081],[24.1,3166],[24.1,3248],[24.1,3332],[24.1,3415],[24.7,3500],[27.2,3583],[32.6,3665],[35.7,3749],[37.7,3832],[39.2,3916],[40.8,3999],[42.5,4081],[44.9,4165],[46.3,4249],[48.7,4332],[51.5,4415],[52.2,4499],[52.5,4581],[53.2,4665],[54.4,4749],[55,4831],[55,4915],[55,4998],[55,5082],[55,5165],[55,5248],[55,5332],[55,5415],[55.3,5499],[55.7,5582],[56.6,5666],[57.3,5749],[57.5,5832],[57.6,5915],[57.8,5998],[57.8,6082],[57.9,6166],[57.9,6248],[58.3,6332],[58.5,6415],[58.6,6498],[58.6,6581],[58.6,6664],[58.6,6748],[58.6,6832],[58.6,6914],[58.6,6998],[58.6,7081],[58.6,7165],[58.6,7248],[58.6,7331],[58.6,7415],[58.6,7498],[58.6,7582],[58.6,7665],[58.5,7749],[58.3,7832],[58.2,7915],[58.2,7998],[58.1,8081],[58.1,8165],[58.1,8248],[58.1,8331],[58.1,8415],[58.1,8498],[58.1,8582],[58.1,8665],[58.1,8748],[58.1,8831],[57.9,8914],[57.9,8998],[57.6,9082],[57.5,9165],[57.5,9248],[57.5,9331],[57.5,9415],[57.3,9499],[56.9,9582],[56.1,9666],[55.6,9749],[55.4,9831],[55.3,9915],[55.3,9998],[55.3,10081],[55.3,10164],[55.3,10248],[55.3,10331],[55.3,10415],[55.1,10498],[55.1,10581],[55.1,10664],[55.1,10748],[55.1,10831],[55.4,10914],[56.1,10998],[56.7,11082],[56.9,11165],[57.2,11249],[57.5,11332],[57.8,11415],[57.9,11498],[58.3,11582],[58.3,11665],[58.2,11748],[58.2,11831],[58.2,11915],[58.2,11997],[58.2,12082],[59.4,12166],[60.7,12249],[61.1,12332],[61.4,12415],[61.4,12497],[61.6,12581],[61.7,12665],[61.7,12748],[61.9,12832],[62,12914],[62.3,12997],[62.3,13081],[62.4,13164],[62.4,13247],[62.6,13331],[62.6,13414],[62.6,13498],[62.6,13581],[62.7,13664],[62.7,13747],[62.7,13831],[62.7,13914],[62.7,13997],[62.7,14081],[62.7,14164],[62.7,14247],[62.7,14331],[62.7,14414],[62.7,14497],[62.7,14581],[62.7,14666],[62.7,14748],[62.7,14831],[62.7,14915],[62.7,14997],[62.7,15080],[62.7,15164],[62.7,15247],[62.7,15331],[62.7,15414],[62.7,15498],[62.7,15581],[63,15665],[63.5,15747],[63.5,15831],[63.5,15915],[62.2,15997],[58.9,16082],[57.8,16165],[57.3,16248],[56.7,16332],[56,16415],[55.4,16499],[54.7,16582],[53.7,16664],[52.9,16748],[52.3,16832],[51.8,16915],[51.6,16997],[51.5,17081],[51.5,17164],[51.5,17247],[51.3,17331],[51.2,17414],[51,17497],[51,17581],[51,17664],[51,17747],[51,17831],[51,17914],[51,17997],[51,18081],[51,18164],[51,18247],[51,18331],[51,18414],[50.3,18498],[50,18582],[50,18664],[49.9,18747],[49.7,18832],[49.7,18914],[49.7,18998],[49.7,19081],[49.7,19164],[49.1,19248],[48.1,19331],[47.4,19414],[46.8,19497],[46.2,19582],[46,19664],[46,19747],[46,19831],[46,19914],[46,19997],[46,20081],[46,20164],[46,20247],[46,20330],[46,20414],[46,20497],[46,20581],[46,20664],[45.8,20748],[45.8,20831],[45.8,20914],[45.8,20997],[45.8,21082],[45.9,21164],[45.9,21247],[45.9,21330],[45.9,21414],[45.9,21497],[45.9,21580],[45.9,21664],[45.9,21747],[45.9,21830],[45.9,21914],[45.9,21997],[45.9,22080],[45.9,22163],[45.9,22247],[45.9,22330],[45.9,22414],[45.9,22498],[45.8,22582],[45.3,22665],[45,22747],[44.6,22831],[44.3,22915],[44,22997],[43.7,23081],[43.4,23165],[43.3,23247],[43.1,23332],[43,23414],[42.8,23497],[42.8,23581],[42.8,23664],[42.8,23747],[42.8,23830],[42.8,23914],[42.8,23997],[42.8,24080],[42.8,24164],[42.8,24247],[43,24331],[43.1,24414],[43.1,24497],[43.1,24581],[43.1,24664],[43.1,24747],[43.1,24831],[43.1,24914],[43.1,24997],[43.1,25080],[43.3,25164],[43.3,25247],[43.3,25331],[43.6,25415],[43.6,25497],[43.6,25580],[43.6,25664],[43.6,25747],[43.6,25831],[43.6,25914],[43.6,25997],[43.7,26081],[43.7,26164],[43.9,26247],[43.9,26330],[43.9,26414],[44,26498],[44.1,26580],[44.4,26663],[44.9,26747],[45.3,26831],[45.6,26914],[45.9,26997],[46,27080],[46.2,27164],[46.3,27248],[46.5,27331],[46.6,27413],[46.8,27497],[46.8,27580],[46.8,27664],[46.9,27747],[46.9,27831],[47.1,27914],[47.2,27997],[47.2,28081],[47.2,28163],[47.4,28247],[47.5,28330],[47.8,28414],[48,28497],[48,28581],[48.4,28665],[48.5,28747],[49,28831],[49.1,28913],[49.3,28997],[49.6,29080],[49.9,29164],[50,29248],[50.1,29330],[50.3,29413],[50.7,29498],[51,29580],[51.5,29664],[51.6,29746],[51.9,29830],[52.3,29914],[52.9,29997],[53.7,30081],[54.1,30164],[54.2,30247],[54.4,30330],[54.2,30413],[54.2,30497],[54.2,30581],[54.2,30663],[54.2,30747],[54.2,30830],[54.2,30913],[54.2,30996],[54.2,31080],[54.7,31164],[55.6,31247],[55.9,31330],[56,31413],[56.4,31498],[57.3,31582],[57.6,31663],[57.8,31747],[58.1,31830],[58.2,31913],[58.2,31996],[58.8,32081],[60.1,32164],[60.8,32247],[61.1,32330],[61.3,32413],[61.4,32496],[61.4,32580],[61.4,32663],[60.5,32747],[59.4,32830],[58.3,32914],[57.3,32997],[56.3,33081],[55.4,33164],[54.5,33247],[54.2,33331],[54,33414],[53.7,33498],[53.2,33580],[52.2,33665],[50.7,33747],[49.9,33831],[48.7,33914],[48.4,33997],[48.4,34079],[48.4,34163],[48.4,34246],[48.4,34330],[48.4,34413],[47.5,34496],[46.3,34581],[45.8,34663],[45.6,34746],[45.6,34830],[45.6,34913],[45.5,34997],[45.5,35080],[44.9,35164],[44.1,35247],[44,35330],[43.9,35413],[43.9,35496],[43.9,35580],[43.9,35663],[43.9,35747],[43.9,35830],[43.9,35913],[43.9,35997],[43.9,36080],[43.9,36163],[43.9,36247],[43.9,36330],[43.9,36413],[43.9,36496],[43.9,36580],[43.9,36663],[43.9,36746],[43.9,36830],[43.9,36913],[43.9,36996],[43.9,37080],[43.9,37163],[43.9,37246],[43.9,37330],[43.6,37414],[43.3,37496],[43.1,37580],[43.1,37663],[43.1,37747],[43.1,37831],[43.1,37913],[43.1,37997],[43.1,38080],[43.1,38163],[43.1,38246],[43.1,38330],[42.5,38413],[40.9,38496],[40.3,38580],[40,38663],[40,38747],[39.6,38831],[38.6,38914],[38.1,38996],[37.7,39080],[37.3,39164],[37.1,39247],[36.8,39331],[36.7,39415],[36.5,39497],[36.4,39579],[36.4,39663],[36.4,39747],[36.8,39831],[38,39914],[38.9,39999],[39.8,40080],[40.8,40163],[41.9,40247],[43,40331],[43.3,40413],[43.4,40496],[43.4,40580],[43.6,40663],[43.6,40746],[43.7,40829],[44.1,40913],[44.6,40997],[44.9,41080],[45,41164],[45,41246],[45,41329],[44.9,41414],[43.9,41497],[43.1,41581],[42.8,41663],[42.4,41747],[42.1,41829],[42.1,41913],[43,41996],[44.3,42080],[44.9,42164],[45.9,42247],[46.3,42329],[46.3,42413],[46.3,42496],[46.5,42579],[47.4,42664],[48,42747],[48.1,42831],[48,42913],[47.5,42996],[47.1,43080],[46.3,43163],[45.6,43246],[45.6,43329],[47.2,43414],[48.1,43498],[48.2,43580],[49,43664],[50.4,43747],[50.9,43830],[50.9,43912],[50.9,43997],[50.4,44081],[48.8,44164],[48.2,44247],[48.1,44331],[47.5,44414],[46,44497],[45.6,44580],[45.5,44663],[45.6,44746],[48,44830],[48.8,44914],[48.8,44996],[48.8,45079],[48.7,45163],[47.2,45247],[46,45329],[45.3,45413],[44.7,45497],[44.3,45579],[44.1,45663],[44.1,45747],[44.7,45831],[45,45913],[44.9,45998],[44.4,46081],[44.1,46164],[43.9,46247],[43.4,46329],[42.4,46414],[41.8,46496],[41.8,46579],[41.7,46663],[41.7,46746],[41.7,46829],[41.9,46913],[42.5,46997],[43,47079],[43.4,47163],[44,47246],[44.4,47330],[44.7,47413],[45.2,47496],[45.3,47579],[45.6,47664],[45.8,47747],[45.9,47829],[46.2,47912],[46.5,47997],[46.8,48080],[47.1,48163],[47.2,48247],[47.1,48331],[45.6,48413],[44.7,48496],[44.1,48579],[43.4,48663],[43,48746],[42.5,48830],[41.8,48913],[41.7,48996],[41.5,49080],[41.5,49162],[41.4,49246],[41.4,49329],[41.4,49413],[41.4,49497],[40.9,49580],[40.3,49663],[40,49747],[40,49829],[40,49913],[40,49996],[40,50079],[40,50163],[40,50247],[40,50329],[40,50413],[40,50497],[40,50579],[39.9,50663],[39.9,50746],[39.9,50829],[39.8,50913],[39.5,50996],[38.9,51080],[38.7,51163],[38.6,51246],[38.6,51329],[38.6,51413],[38.4,51497],[38.4,51579],[38.3,51662],[37.7,51746],[37.6,51829],[37.6,51912],[37.6,51996],[37.1,52080],[36.1,52163],[34.9,52247],[34.2,52329],[33.6,52413],[33,52496],[32.7,52581],[32.7,52662],[32.7,52746],[32.7,52829],[32.7,52912],[32.7,52996],[32.7,53079],[32.7,53162],[32.7,53246],[32.3,53329],[31.1,53413],[30.5,53497],[30.2,53579],[30.1,53662],[30.1,53746],[30.1,53829],[30.1,53912],[30.2,53996],[30.2,54079],[30.2,54163],[30.2,54246],[30.2,54329],[30.2,54413],[30.2,54496],[30.2,54579],[30.2,54662],[30.7,54747],[31.3,54830],[31.8,54913],[32.4,54997],[32.9,55079],[33.3,55163],[34,55247],[34.6,55330],[34.9,55412],[35.1,55496],[35.1,55579],[35.1,55662],[35.1,55746],[35.1,55829]]",1,0,203.4604,208.2088,32.57686676,1.8869,"[{""rating"":32.57686676427526,""responseTime"":1.8869000000059373}]",space,4.204,,208.2091,All the time,100,208.2265,,,[],,0,1,1,1,1,audio/Narrative7Situation1.wav,audio/Narrative8Situation1.wav,audio/Narrative5Situation1.wav,audio/Narrative6Situation1.wav,2,5,5,2,2.6302,,,,,,,,,,,,,,,,,,,,,,,,,,,,,,,,,,,,,,
,,,,,,5fb0a3d6a8e4224b973e750b,2024-02-08_13h22.13.209,group3.1-3.2-social-tom,2023.2.2,Win32,59.52380952,65c5074098b851296ff0b7ed,65c545acc283c23b8dc55025,,,,,,,,,,,,,,,,,,,,,,,,,,,,,208.2267,1,audio/Narrative7Situation2.wav,211.2414,,211.2417,218.7241,"[[999,1],[999,83],[999,166],[999,249],[999,332],[999,415],[999,499],[999,582],[999,665],[999,750],[999,833],[999,917],[999,999],[999,1082],[999,1165],[999,1249],[999,1332],[999,1415],[999,1499],[999,1583],[999,1665],[999,1749],[999,1832],[33.3,1916],[32,1999],[29.6,2082],[28.6,2165],[28.3,2248],[28.2,2331],[28.2,2415],[28.2,2498],[28.2,2581],[28.2,2665],[28.2,2748],[28.2,2832],[28.2,2915],[28.2,2999],[28.2,3082],[28.2,3166],[28.2,3249],[28.2,3332],[28.2,3415],[28.2,3499],[28.2,3582],[28.2,3666],[28.2,3749],[28.2,3832],[28.2,3916],[28.2,3999],[28.2,4082],[28.2,4166],[28.2,4249],[28.2,4332],[28.2,4415],[28.2,4499],[28.2,4582],[28.2,4665],[28.2,4749],[28.2,4832],[29.6,4916],[31.7,4999],[31.8,5082],[31.8,5165],[31.8,5249],[31.8,5332],[31.8,5415],[31.8,5498],[31.8,5582],[31.8,5665],[31.8,5749],[31.8,5832],[31.8,5915],[31.8,5999],[31.8,6082],[31.8,6165],[31.8,6249],[32,6332],[32.1,6415],[32.1,6499],[32.1,6582],[32.1,6666],[32.7,6749],[38,6832],[39.5,6915],[39.5,6999],[39.5,7082],[39.5,7165],[39.5,7249],[39.5,7332],[39.5,7415]]",1,0,218.7246,221.8243,34.18740849,1.9722,"[{""rating"":34.18740849194729,""responseTime"":1.9721999999881064}]",space,2.5685,,221.8245,Half the time,50,221.8322,,,[],,0,2,2,2,1,audio/Narrative7Situation2.wav,audio/Narrative8Situation2.wav,audio/Narrative5Situation2.wav,audio/Narrative6Situation2.wav,3,3,3,3,,,,,,,,,,,,,,,,,,,,,,,,,,,,,,,,,,,,,,,
,,,,,,5fb0a3d6a8e4224b973e750b,2024-02-08_13h22.13.209,group3.1-3.2-social-tom,2023.2.2,Win32,59.52380952,65c5074098b851296ff0b7ed,65c545acc283c23b8dc55025,,,,,,,,,,,,,,,,,,,,,,,,,,,,,221.8325,1,audio/Narrative7Situation3.wav,229.8404,,229.8406,239.1069,"[[33.6,1750],[32.9,1832],[32.4,1917],[32.1,1999],[32,2082],[32,2166],[32.1,2249],[32.1,2333],[32.1,2416],[32.1,2499],[32.1,2583],[32.1,2665],[32.1,2749],[32.1,2832],[31.7,2916],[30.8,3000],[29.8,3084],[29.2,3166],[29.1,3249],[28.9,3334],[28.8,3416],[28.8,3499],[28.3,3583],[27.3,3666],[26.7,3751],[26.4,3833],[25.8,3916],[25.1,3999],[24.7,4084],[24.7,4165],[24.7,4249],[24.7,4332],[25.1,4416],[27.3,4499],[32,4583],[33.2,4666],[33.2,4749],[33.6,4832],[34.6,4916],[35.5,4999],[35.9,5082],[36.4,5167],[37.7,5250],[38.9,5334],[39.8,5417],[40,5499],[40.2,5582],[40.2,5665],[40.2,5749],[40.2,5834],[40.8,5917],[41.7,5999],[42.1,6084],[42.2,6166],[42.2,6249],[42.2,6333],[42.2,6415],[42.2,6499],[42.2,6582],[42.2,6665],[42.2,6748],[42.2,6832],[42.2,6915],[42.2,6998],[42.2,7082],[42.2,7165],[42.2,7249],[42.2,7332],[42.2,7415],[42.2,7498],[42.2,7582],[42.2,7665],[42.2,7749],[42.2,7832],[42.2,7916],[42.2,7999],[42.2,8082],[42.2,8165],[42.2,8248],[42.7,8333],[42.8,8415],[43.1,8499],[43.3,8583],[43.3,8665],[43.3,8749],[43.3,8832],[43.3,8915],[43.4,8999],[43.4,9082],[43.4,9166],[43.4,9248]]",1,0,239.1073,242.1566,43.55783309,1.6556,"[{""rating"":43.557833089311856,""responseTime"":1.655599999994024}]",space,2.5014,,242.1569,Half the time,50,242.1615,,,[],,0,3,3,3,1,audio/Narrative7Situation3.wav,audio/Narrative8Situation3.wav,audio/Narrative5Situation3.wav,audio/Narrative6Situation3.wav,8,4,3,5,,,,,,,,,,,,,,,,,,,,,,,,,,,,,,,,,,,,,,,
,,,,,,5fb0a3d6a8e4224b973e750b,2024-02-08_13h22.13.209,group3.1-3.2-social-tom,2023.2.2,Win32,59.52380952,65c5074098b851296ff0b7ed,65c545acc283c23b8dc55025,,,,,,,,,,,,,,,,,,,,,,,,,,,,,242.1619,1,audio/Narrative7Situation4.wav,245.173,,245.1733,256.9062,"[[42.4,1749],[41.2,1833],[40.3,1917],[39.8,2000],[39.5,2082],[39.3,2165],[39.2,2250],[38.3,2333],[37.3,2416],[37.1,2500],[37,2582],[37,2665],[37,2749],[37,2832],[37,2915],[37,2999],[37,3082],[37,3165],[37,3249],[39.5,3333],[41.2,3416],[41.5,3499],[41.5,3582],[41.5,3665],[41.9,3748],[41.9,3833],[42.1,3915],[42.1,3999],[41.2,4083],[38.3,4166],[37.1,4249],[37,4332],[37,4416],[37,4499],[37,4582],[37,4665],[35.4,4750],[32.3,4833],[30.8,4916],[30.2,5000],[29.2,5083],[28.3,5166],[27.5,5250],[26.7,5332],[26.3,5416],[25.5,5500],[25,5582],[24.7,5666],[24.4,5750],[24.1,5833],[23.8,5916],[23.6,5999],[23.2,6083],[23.1,6165],[22.9,6249],[22.9,6332],[22.9,6415],[22.9,6499],[22.9,6582],[22.9,6665],[22.9,6749],[22.9,6832],[22.9,6915],[22.9,6999],[22.9,7082],[22.9,7165],[22.9,7249],[22.9,7332],[22.9,7415],[23.1,7499],[23.5,7583],[23.9,7665],[24.1,7749],[24.2,7831],[24.2,7915],[24.2,7998],[24.2,8082],[24.2,8165],[24.4,8248],[24.4,8333],[23.9,8416],[23.6,8499],[23.4,8582],[23.1,8665],[22.6,8750],[22.2,8832],[22.2,8915],[22.2,8999],[22.2,9082],[22.2,9166],[22.2,9248],[22.2,9332],[22.2,9415],[21.3,9499],[19.5,9583],[19.4,9666],[19.1,9748],[19,9832],[19,9916],[19,9999],[18.5,10082],[18.1,10166],[17.9,10249],[17.9,10332],[17.9,10415],[17.9,10499],[18.2,10583],[18.5,10665],[18.7,10748],[19,10832],[19.1,10915],[19.3,10999],[19.5,11082],[20,11165],[20.3,11249],[20.3,11332],[20.3,11415],[20.3,11498],[20.3,11582],[20.3,11665]]",1,0,256.9068,259.9561,20.27818448,2.1469,"[{""rating"":20.278184480234263,""responseTime"":2.146900000005928}]",space,2.5034,,259.9563,All the time,100,259.9618,,,[],,0,4,4,4,1,audio/Narrative7Situation4.wav,audio/Narrative8Situation4.wav,audio/Narrative5Situation4.wav,audio/Narrative6Situation4.wav,3,3,1,2,,,,,,,,,,,,,,,,,,,,,,,,,,,,,,,,,,,,,,,
,,,,,,5fb0a3d6a8e4224b973e750b,2024-02-08_13h22.13.209,group3.1-3.2-social-tom,2023.2.2,Win32,59.52380952,65c5074098b851296ff0b7ed,65c545acc283c23b8dc55025,,,,,,,,,,,,,,,,,,,,,,,,,,,,,259.9622,1,audio/Narrative7Situation5.wav,264.9722,,264.9724,273.4726,"[[20.6,1417],[20.7,1499],[20.7,1582],[20.4,1667],[20.3,1749],[20.1,1833],[20,1917],[20,1999],[19.8,2082],[19.8,2166],[19.8,2249],[19.8,2333],[19.8,2416],[19.8,2499],[19.8,2583],[19.8,2665],[19.8,2749],[19.8,2832],[19.8,2916],[19.8,2999],[20,3083],[20.1,3166],[20.3,3250],[20.7,3333],[20.9,3416],[21.7,3499],[22,3582],[22.3,3666],[22.3,3749],[22.6,3833],[23.1,3916],[23.2,3999],[23.5,4083],[23.8,4167],[23.8,4249],[23.8,4332],[23.8,4416],[23.8,4499],[23.8,4583],[23.8,4666],[23.8,4749],[23.8,4832],[23.8,4916],[23.8,4998],[23.8,5081],[23.8,5165],[24.7,5248],[26,5332],[26.9,5416],[27.3,5498],[27.6,5581],[27.6,5666],[27.6,5748],[27.6,5832],[27.6,5916],[27.6,5999],[27.6,6082],[27.6,6165],[27.6,6249],[27.6,6332],[27.6,6416],[27.6,6499],[27.6,6582],[27.6,6666],[27.6,6749],[27.6,6832],[27.6,6916],[28.5,6999],[29.2,7082],[29.4,7166],[29.4,7249],[29.4,7332],[29.4,7416],[29.5,7498],[29.5,7582],[29.5,7666],[29.5,7748],[29.5,7831],[29.5,7916],[29.5,7999],[29.5,8082],[29.1,8167],[28.5,8249],[27.9,8333],[25.7,8416],[23.6,8499]]",1,0,273.4729,276.5221,11.34699854,2.3045,"[{""rating"":11.346998535871155,""responseTime"":2.304499999999962}]",space,2.5059,,276.5223,All the time,100,276.5262,,,[],,0,5,5,5,1,audio/Narrative7Situation5.wav,audio/Narrative8Situation5.wav,audio/Narrative5Situation5.wav,audio/Narrative6Situation5.wav,5,2,5,2,,,,,,,,,,,,,,,,,,,,,,,,,,,,,,,,,,,,,,,
,,,,,,5fb0a3d6a8e4224b973e750b,2024-02-08_13h22.13.209,group3.1-3.2-social-tom,2023.2.2,Win32,59.52380952,65c5074098b851296ff0b7ed,65c545acc283c23b8dc55025,,,,,,,,,,,,,,,,,,,,,,,,,,,,,276.5268,1,audio/Narrative7Situation6.wav,279.5385,,279.5386,289.5207,"[[10.8,1167],[10.2,1250],[10.2,1332],[10.2,1416],[10.3,1499],[10.8,1582],[11.1,1666],[11.3,1749],[11.6,1832],[12.4,1916],[12.8,1998],[13,2082],[13,2166],[13.1,2249],[13.3,2332],[13.5,2416],[14,2500],[14.9,2585],[15.9,2667],[16.8,2751],[17.8,2833],[18.4,2915],[19,3000],[19.4,3082],[20,3167],[20.6,3250],[20.7,3332],[20.9,3415],[21.2,3498],[21.7,3582],[22,3665],[22.3,3749],[22.3,3832],[22.3,3915],[22.3,3999],[22.3,4082],[22.3,4165],[22.3,4249],[22.3,4332],[22.3,4415],[21.3,4500],[20.1,4583],[19.8,4666],[19.7,4750],[19.3,4832],[19.1,4915],[19.8,5000],[20.3,5083],[20.6,5166],[20.6,5250],[20.6,5332],[20.4,5416],[20.3,5499],[19.8,5582],[19.5,5666],[19.1,5750],[18.8,5832],[18.5,5916],[18.4,6000],[18.4,6083],[18.4,6166],[18.4,6248],[18.5,6331],[18.5,6417],[17.8,6499],[16.6,6583],[16,6665],[15.6,6750],[15.6,6832],[15.6,6915],[15.6,6999],[15.6,7082],[15.6,7165],[15.6,7248],[15.6,7332],[15.9,7417],[17.2,7500],[18.7,7583],[19.1,7665],[19.3,7749],[19.4,7833],[19.7,7916],[20.9,7999],[21.2,8082],[21.3,8165],[21.3,8248],[21.3,8332],[21.3,8415],[21.3,8498],[21.3,8582],[21.3,8665],[20.9,8750],[20.4,8832],[20,8915],[19.4,9000],[19,9082],[18.8,9165],[18.7,9248],[18.7,9332],[18.4,9416],[18.1,9499],[17.9,9583],[17.9,9665],[17.9,9749],[17.9,9832],[17.9,9915]]",1,0,289.521,292.5713,17.78916545,1.3476,"[{""rating"":17.789165446559295,""responseTime"":1.3475999999940314}]",space,2.5225,,292.5715,Half the time,50,292.578,,,[],,0,6,6,6,1,audio/Narrative7Situation6.wav,audio/Narrative8Situation6.wav,audio/Narrative5Situation6.wav,audio/Narrative6Situation6.wav,3,2,3,2,,,,,,,,,,,,,,,,,,,,,,,,,,,,,,,,,,,,,,,
,,,,,,5fb0a3d6a8e4224b973e750b,2024-02-08_13h22.13.209,group3.1-3.2-social-tom,2023.2.2,Win32,59.52380952,65c5074098b851296ff0b7ed,65c545acc283c23b8dc55025,,,,,,,,,,,,,,,,,,,,,,,,,,,,,292.5786,1,audio/Narrative7Situation7.wav,297.5879,,297.588,314.7698,"[[16.9,1416],[15.9,1500],[15.7,1582],[15.4,1665],[15.4,1749],[15.6,1831],[15.6,1915],[15.6,1999],[15.6,2082],[15.9,2167],[17.6,2250],[18.5,2333],[19.4,2416],[20,2500],[20.7,2583],[21,2665],[21.2,2749],[21.2,2832],[21.3,2915],[21.4,2998],[21.6,3081],[21.7,3165],[21.7,3249],[21.7,3331],[22.2,3415],[22.6,3499],[23.4,3582],[24.1,3665],[24.2,3748],[24.2,3832],[24.2,3915],[24.2,3998],[24.2,4081],[24.2,4165],[24.2,4248],[24.2,4331],[24.2,4415],[24.2,4498],[24.2,4581],[24.2,4665],[24.2,4748],[24.2,4831],[24.2,4915],[24.2,4998],[24.2,5082],[24.2,5165],[24.2,5248],[24.4,5334],[25,5415],[25.1,5498],[25.1,5581],[25.3,5665],[25.4,5748],[25.5,5832],[25.5,5915],[25.5,5998],[25.8,6082],[25.8,6165],[25.8,6249],[25.8,6332],[25.8,6415],[25.8,6498],[25.8,6582],[25.8,6665],[25.8,6748],[25.8,6831],[25.8,6915],[25.8,6998],[25.8,7081],[25.8,7165],[25.8,7248],[25.8,7331],[25.8,7415],[25.8,7498],[25.8,7581],[25.8,7665],[25.8,7748],[25.8,7832],[25.8,7915],[25.8,7998],[25.8,8082],[25.8,8165],[25.8,8248],[25.8,8331],[25.8,8415],[25.8,8498],[25.8,8581],[25.8,8665],[25.8,8748],[25.8,8831],[25.8,8915],[25.8,8999],[25.8,9082],[26.6,9166],[27.5,9247],[27.7,9333],[27.7,9415],[27.7,9498],[27.7,9581],[27.7,9665],[27.7,9748],[27.7,9831],[27.7,9914],[27.7,9998],[27.7,10081],[27.7,10165],[27.7,10248],[27.7,10331],[27.7,10415],[27.7,10498],[27.7,10581],[27.7,10664],[27.7,10747],[27.7,10831],[27.7,10915],[27.7,10998],[27.7,11082],[27.7,11165],[27.7,11248],[27.7,11331],[27.7,11415],[27.9,11498],[28,11581],[28,11665],[28,11748],[28.2,11831],[28.5,11916],[28.9,11998],[29.2,12081],[29.4,12165],[29.5,12248],[29.5,12331],[29.5,12415],[29.5,12498],[29.9,12582],[30.7,12665],[30.8,12748],[30.8,12831],[30.8,12914],[30.8,12998],[30.8,13081],[30.8,13165],[30.8,13248],[30.8,13331],[30.8,13415],[30.8,13498],[30.8,13581],[30.8,13665],[30.8,13748],[30.8,13831],[30.8,13915],[30.8,13998],[30.8,14081],[30.8,14164],[30.8,14247],[30.8,14331],[30.8,14415],[30.8,14497],[30.8,14581],[30.8,14665],[30.8,14747],[30.8,14831],[30.8,14915],[30.8,14997],[30.8,15081],[30.8,15165],[30.8,15248],[30.8,15331],[30.8,15415],[30.8,15498],[30.8,15581],[30.8,15664],[30.8,15747],[30.8,15831],[30.8,15915],[30.8,15997],[27,16082],[24.8,16165],[23.6,16249],[23.1,16332],[22.9,16414],[22.9,16497],[23.1,16582],[23.2,16665],[23.2,16747],[23.2,16831],[23.2,16915],[23.2,16998],[23.2,17081],[23.2,17164]]",1,0,314.7703,318.9033,25.84187408,1.4229,"[{""rating"":25.841874084919468,""responseTime"":1.4229000000059386}]",space,3.6084,,318.9035,Not at all,0,318.9094,,,[],,0,7,7,7,1,audio/Narrative7Situation7.wav,audio/Narrative8Situation7.wav,audio/Narrative5Situation7.wav,audio/Narrative6Situation7.wav,5,3,4,5,,,,,,,,,,,,,,,,,,,,,,,,,,,,,,,,,,,,,,,
,,,,,,5fb0a3d6a8e4224b973e750b,2024-02-08_13h22.13.209,group3.1-3.2-social-tom,2023.2.2,Win32,59.52380952,65c5074098b851296ff0b7ed,65c545acc283c23b8dc55025,,,,,,,,,,,,,,,,,,,,,,,,,,,,,318.9098,1,audio/Narrative7Situation8.wav,320.9192,,320.9194,330.936,"[[26.4,2917],[27.9,3000],[28.5,3084],[28.6,3166],[28.6,3249],[28.6,3333],[28.6,3416],[28.8,3499],[28.9,3582],[28.9,3666],[28.9,3749],[28.9,3833],[28.9,3915],[29.1,4000],[29.5,4083],[29.6,4166],[29.6,4250],[29.8,4332],[29.9,4416],[29.9,4499],[30.2,4583],[30.4,4667],[31.1,4750],[31.4,4833],[31.7,4916],[31.7,4999],[31.7,5083],[31.7,5165],[31.7,5251],[31.7,5333],[31.7,5416],[31.7,5499],[31.7,5583],[31.7,5666],[31.7,5749],[31.7,5833],[31.7,5915],[31.7,5999],[31.7,6083],[31.7,6166],[31.7,6249],[31.7,6332],[31.7,6416],[31.7,6500],[31.7,6583],[31.7,6665],[31.7,6749],[31.7,6832],[31.7,6916],[31.7,6999],[31.7,7083],[31.7,7166],[31.7,7250],[31.7,7333],[31.7,7415],[31.7,7500],[31.7,7583],[31.7,7666],[31.7,7749],[31.7,7832],[31.7,7916],[31.7,7999],[31.7,8083],[31.7,8166],[31.7,8250],[31.7,8333],[31.7,8415],[31.7,8499],[31.7,8583],[31.7,8666],[31.7,8749],[31.7,8832],[31.7,8916],[31.7,9000],[31.7,9083],[31.7,9166],[31.7,9250],[31.7,9332],[31.7,9416],[31.7,9500],[31.7,9583],[31.7,9666],[31.7,9749],[31.7,9832],[31.7,9916],[31.7,9999]]",1,0,330.9363,336.0892,33.45534407,2.7769,"[{""rating"":33.45534407027818,""responseTime"":2.7769000000059805}]",space,4.5945,,336.0893,Half the time,50,336.0921,,,[],,0,8,8,8,1,audio/Narrative7Situation8.wav,audio/Narrative8Situation8.wav,audio/Narrative5Situation8.wav,audio/Narrative6Situation8.wav,2,3,3,5,,,,,,,,,,,,,,,,,,,,,,,,,,,,,,,,,,,,,,,
,,,,,,5fb0a3d6a8e4224b973e750b,2024-02-08_13h22.13.209,group3.1-3.2-social-tom,2023.2.2,Win32,59.52380952,65c5074098b851296ff0b7ed,65c545acc283c23b8dc55025,,,,,,,,,,,,,,,,,,,,,,,,,,,,,336.0924,1,audio/Narrative7Situation9.wav,338.1048,,338.1049,346.7232,"[[34.5,2584],[35.4,2667],[36.1,2751],[36.5,2834],[36.7,2915],[36.7,2999],[37.1,3084],[37.7,3167],[38.1,3250],[38.3,3333],[38.3,3417],[38.4,3501],[39.8,3584],[41.1,3667],[41.7,3750],[41.9,3834],[41.9,3917],[41.9,4000],[41.9,4084],[41.9,4167],[41.9,4251],[41.9,4333],[41.9,4417],[41.9,4500],[41.9,4584],[42.1,4667],[42.5,4752],[42.5,4834],[42.7,4917],[42.8,5001],[43,5084],[43,5166],[43,5250],[43,5334],[43,5414],[43,5500],[43,5584],[43,5667],[43.6,5751],[45,5835],[45.6,5913],[45.9,5996],[46,6083],[46,6164],[46,6250],[46,6330],[46,6416],[46,6499],[46,6583],[46,6667],[46,6750],[46,6834],[46,6916],[45.8,7002],[45,7083],[44.6,7167],[44.6,7246],[44.6,7333],[44.6,7417],[44.6,7501],[44.6,7579],[44.6,7667],[44.6,7751],[44.6,7834],[44.6,7917],[44.6,8001],[44.6,8084],[44.6,8167],[44.6,8250],[44.6,8334],[44.6,8417],[44.6,8500],[44.6,8583]]",1,0,346.7233,348.6869,44.58272328,1.0664,"[{""rating"":44.582723279648604,""responseTime"":1.066400000005956}]",space,1.4285,,348.687,All the time,100,348.6897,,,[],,0,9,9,9,1,audio/Narrative7Situation9.wav,audio/Narrative8Situation9.wav,audio/Narrative5Situation9.wav,audio/Narrative6Situation9.wav,2,3,3,4,,,,,,,,,,,,,,,,,,,,,,,,,,,,,,,,,,,,,,,
,,,,,,5fb0a3d6a8e4224b973e750b,2024-02-08_13h22.13.209,group3.1-3.2-social-tom,2023.2.2,Win32,59.52380952,65c5074098b851296ff0b7ed,65c545acc283c23b8dc55025,,,,,,,,,,,,,,,,,,,,,,,,,,,,,348.6898,1,audio/Narrative8Situation1.wav,353.705,,353.7051,369.6346,"[[44.1,1584],[43.9,1667],[43.4,1748],[42.7,1834],[42.4,1916],[42.4,2001],[42.4,2083],[42.4,2166],[42.4,2249],[41.5,2333],[38.4,2416],[35.1,2500],[34.3,2582],[34.3,2666],[34.3,2749],[34.3,2832],[34.3,2916],[34.3,2999],[34.3,3084],[31.4,3165],[27,3250],[25.4,3332],[24.1,3415],[23.4,3499],[23.2,3582],[23.4,3666],[23.5,3749],[23.8,3832],[24.1,3915],[24.4,3999],[24.5,4082],[24.5,4162],[24.5,4249],[24.5,4333],[24.5,4417],[24.5,4499],[24.5,4579],[24.5,4665],[24.5,4749],[24.5,4828],[24.5,4916],[24.5,4995],[24.5,5083],[24.5,5167],[24.5,5250],[24.8,5333],[25.5,5417],[26.3,5501],[26.9,5584],[27.6,5667],[27.7,5745],[27.9,5833],[28,5917],[28,5999],[28.2,6079],[28.2,6166],[28.2,6249],[28.2,6338],[28.2,6416],[28.2,6495],[28.2,6583],[28.2,6666],[28.2,6750],[28.2,6834],[28.2,6916],[28.2,6998],[28.3,7084],[28.5,7166],[28.5,7250],[29.1,7335],[29.6,7416],[29.8,7495],[29.9,7578],[29.9,7666],[29.9,7750],[29.9,7828],[29.9,7916],[29.9,8000],[29.9,8083],[29.9,8166],[29.9,8250],[29.9,8329],[29.9,8416],[29.9,8495],[29.9,8582],[29.9,8666],[29.9,8749],[29.9,8833],[29.9,8916],[29.9,8999],[29.9,9083],[29.9,9162],[29.9,9249],[29.9,9333],[29.9,9416],[29.9,9499],[29.9,9579],[29.9,9665],[29.9,9749],[29.9,9833],[29.9,9912],[29.9,10000],[29.9,10078],[29.9,10166],[29.9,10250],[29.9,10329],[29.9,10416],[29.9,10499],[29.9,10583],[29.9,10666],[29.9,10750],[29.9,10833],[30.1,10928],[30.8,11012],[31.6,11096],[31.7,11178],[31.8,11262],[31.8,11345],[31.8,11429],[31.8,11512],[31.8,11595],[32,11679],[32.7,11763],[33,11845],[33.2,11928],[33.2,12012],[33.2,12095],[33.2,12178],[33.2,12262],[33.2,12345],[33.2,12428],[33.2,12511],[33.2,12595],[33.2,12679],[33.2,12763],[33.2,12846],[33.2,12928],[33.2,13012],[33.2,13095],[33.2,13178],[33.2,13262],[33.2,13345],[33.2,13428],[33.2,13512],[33.2,13595],[33.2,13678],[33.2,13761],[33.2,13845],[33.2,13928],[33.2,14011],[33.6,14096],[34.6,14178],[34.8,14261],[34.8,14345],[34.8,14429],[34.3,14512],[33.3,14595],[32.7,14678],[32.4,14763],[32.3,14846],[32.1,14929],[31.8,15013],[31.8,15095],[31.7,15179],[31.7,15262],[31.7,15344],[31.7,15429],[31.7,15512],[31.7,15595],[31.7,15679],[31.7,15762],[31.7,15845],[31.7,15928]]",1,0,369.635,372.6004,32.86969253,2.138,"[{""rating"":32.86969253294289,""responseTime"":2.1380000000000337}]",space,2.4187,,372.6005,Half the time,50,372.6059,,,[],,0,10,10,10,1,audio/Narrative8Situation1.wav,audio/Narrative7Situation1.wav,audio/Narrative6Situation1.wav,audio/Narrative5Situation1.wav,5,2,2,5,,,,,,,,,,,,,,,,,,,,,,,,,,,,,,,,,,,,,,,
,,,,,,5fb0a3d6a8e4224b973e750b,2024-02-08_13h22.13.209,group3.1-3.2-social-tom,2023.2.2,Win32,59.52380952,65c5074098b851296ff0b7ed,65c545acc283c23b8dc55025,,,,,,,,,,,,,,,,,,,,,,,,,,,,,372.6063,1,audio/Narrative8Situation2.wav,375.617,,375.6171,385.7496,"[[32.6,4915],[32.1,4999],[31.7,5083],[31,5166],[30.8,5248],[30.4,5333],[29.5,5416],[28.6,5499],[28.5,5582],[28,5666],[26.9,5750],[26.1,5832],[26,5915],[26,5999],[26,6082],[26,6166],[26,6249],[26,6332],[26,6415],[26,6499],[26,6582],[26,6665],[26,6749],[26,6832],[26,6915],[26,6999],[26,7082],[26,7166],[26,7249],[26,7332],[26,7415],[26,7498],[26.1,7583],[28.9,7666],[31.6,7750],[32,7832],[32,7915],[32,7998],[32.1,8082],[32.1,8165],[32.7,8250],[37.8,8332],[43.6,8417],[48.2,8500],[49.4,8582],[50.1,8666],[50.6,8749],[50.6,8832],[50.7,8915],[50.9,8998],[51.5,9082],[51.8,9165],[52,9250],[53.2,9332],[54.5,9416],[56,9500],[57.3,9583],[57.6,9665],[58.1,9749],[60.1,9833],[60.8,9915],[61,9998],[61,10082]]",1,0,385.7499,388.9162,61.71303075,1.471,"[{""rating"":61.71303074670571,""responseTime"":1.4710000000000036}]",space,2.6406,,388.9164,Half the time,50,388.9198,,,[],,0,11,11,11,1,audio/Narrative8Situation2.wav,audio/Narrative7Situation2.wav,audio/Narrative6Situation2.wav,audio/Narrative5Situation2.wav,3,3,3,3,,,,,,,,,,,,,,,,,,,,,,,,,,,,,,,,,,,,,,,
,,,,,,5fb0a3d6a8e4224b973e750b,2024-02-08_13h22.13.209,group3.1-3.2-social-tom,2023.2.2,Win32,59.52380952,65c5074098b851296ff0b7ed,65c545acc283c23b8dc55025,,,,,,,,,,,,,,,,,,,,,,,,,,,,,388.9202,1,audio/Narrative8Situation3.wav,392.9324,,392.9326,415.3156,"[[61.6,1332],[61.4,1416],[61,1500],[60.2,1583],[59.7,1667],[59.7,1749],[59.5,1833],[59.2,1916],[58.9,2000],[58.9,2083],[58.9,2166],[59.1,2250],[59.1,2332],[59.1,2416],[59.1,2499],[59.1,2583],[59.1,2666],[59.1,2750],[59.1,2832],[61.4,2917],[63.6,3001],[64.5,3084],[64.9,3167],[65.5,3250],[66.3,3333],[67,3417],[67.6,3500],[68,3583],[68.4,3666],[69.2,3750],[69.6,3832],[69.6,3916],[69.6,3999],[69.6,4082],[69.6,4166],[69.6,4249],[69.6,4332],[69.6,4416],[69.6,4499],[69.6,4582],[69.6,4666],[68.9,4750],[68.4,4834],[68.3,4916],[68.3,5000],[68.3,5082],[68.4,5166],[68.4,5249],[68.4,5333],[68.4,5416],[68,5500],[65.4,5582],[63.8,5667],[63.6,5750],[63.6,5832],[63.6,5916],[63.6,5999],[63.2,6083],[62.4,6166],[62.3,6249],[62.3,6333],[62.3,6416],[62.3,6499],[62.3,6582],[62.3,6666],[62.3,6749],[62.3,6832],[62.3,6916],[62.3,6999],[62.7,7083],[62.9,7165],[63,7250],[63,7332],[62.9,7417],[62.3,7500],[61.7,7582],[61.1,7667],[60.5,7750],[60.2,7833],[60.2,7916],[60.1,7999],[60,8083],[59.2,8166],[58.6,8250],[58.5,8333],[58.5,8416],[58.5,8499],[58.5,8582],[58.3,8666],[58.2,8749],[57.9,8833],[57.6,8916],[57.5,8999],[57.5,9083],[57.5,9166],[57.5,9249],[57.5,9333],[57.5,9416],[57.6,9499],[57.9,9583],[58.1,9666],[58.2,9750],[58.3,9833],[58.5,9916],[58.8,10000],[59.1,10084],[59.2,10165],[59.4,10250],[59.4,10332],[59.4,10416],[59.4,10499],[59.4,10582],[58.5,10666],[58.1,10750],[57.2,10833],[56.6,10916],[56.3,10999],[56.3,11082],[56.3,11166],[56.1,11250],[56,11332],[56,11415],[55.9,11499],[55.9,11583],[55.9,11666],[55.9,11749],[55.9,11832],[55.9,11916],[55.9,11999],[55.9,12082],[55.9,12166],[55.9,12249],[55.9,12333],[55.9,12416],[55.9,12499],[55.9,12582],[55.9,12666],[55.9,12749],[55.9,12832],[55.9,12916],[55.9,12999],[55.9,13082],[55.9,13166],[55.9,13249],[55.9,13332],[55.9,13416],[55.9,13499],[55.9,13582],[55.9,13665],[55.9,13749],[55.9,13832],[55.9,13916],[55.9,13999],[55.9,14082],[55.9,14166],[55.9,14249],[55.9,14332],[55.9,14415],[55.9,14499],[56.4,14582],[56.9,14666],[57,14749],[57.3,14832],[57.3,14915],[57.5,14999],[57.6,15083],[58.1,15166],[58.5,15249],[58.6,15332],[58.6,15416],[58.8,15499],[59.2,15583],[59.8,15667],[60.2,15749],[60.2,15832],[60.7,15917],[62,16000],[62.6,16082],[63.6,16167],[64.2,16250],[65.5,16332],[67.3,16416],[68.3,16499],[68.6,16582],[68.6,16666],[68.6,16749],[68.6,16832],[68.6,16915],[68.6,16998],[68.6,17082],[68.6,17166],[68.4,17249],[68.2,17332],[68.6,17417],[69.3,17500],[69.8,17582],[69.9,17666],[70.1,17749],[70.1,17833],[70.1,17915],[70.1,17999],[70.1,18082],[70.1,18166],[70.1,18249],[70.1,18332],[70.1,18416],[70.1,18498],[70.9,18583],[71.5,18667],[71.7,18750],[71.7,18833],[72.1,18917],[73,18999],[73.4,19082],[73.6,19166],[73.9,19248],[74,19332],[74.2,19416],[74.3,19499],[74.3,19582],[74.5,19666],[74.5,19749],[74.6,19832],[74.6,19916],[74.6,19999],[74.7,20082],[74.7,20166],[74.7,20249],[74.7,20332],[74.7,20416],[74.7,20499],[74.7,20582],[75.2,20666],[75.6,20748],[75.8,20832],[75.8,20915],[76.2,20999],[76.6,21082],[77.2,21166],[78,21250],[78.6,21332],[78.8,21417],[79.1,21498],[80,21585],[80.5,21666],[80.6,21748],[80.6,21832],[80.6,21916],[80.6,21999],[80.6,22082],[80.6,22166],[80.6,22249],[80.6,22332]]",1,0,415.3162,417.8145,81.62518302,1.4929,"[{""rating"":81.62518301610542,""responseTime"":1.4929000000059318}]",space,1.975,,417.8146,All the time,100,417.8186,,,[],,0,12,12,12,1,audio/Narrative8Situation3.wav,audio/Narrative7Situation3.wav,audio/Narrative6Situation3.wav,audio/Narrative5Situation3.wav,4,8,5,3,,,,,,,,,,,,,,,,,,,,,,,,,,,,,,,,,,,,,,,
,,,,,,5fb0a3d6a8e4224b973e750b,2024-02-08_13h22.13.209,group3.1-3.2-social-tom,2023.2.2,Win32,59.52380952,65c5074098b851296ff0b7ed,65c545acc283c23b8dc55025,,,,,,,,,,,,,,,,,,,,,,,,,,,,,417.8191,1,audio/Narrative8Situation4.wav,420.8315,,420.8318,435.0145,"[[999,17],[999,82],[999,166],[999,249],[999,333],[999,416],[999,499],[999,583],[999,666],[999,750],[999,833],[999,916],[999,998],[58.6,1083],[58.2,1165],[58.1,1249],[58.1,1332],[58.1,1416],[58.1,1499],[58.1,1582],[58.1,1666],[58.1,1749],[62.3,1833],[66.7,1916],[67.3,1999],[67.4,2082],[67.4,2166],[67.4,2249],[67.4,2333],[67.4,2416],[67.4,2499],[67.4,2582],[67.4,2666],[68,2750],[68.6,2833],[68.7,2916],[68.9,2999],[69.6,3084],[70.4,3166],[71.1,3249],[71.8,3333],[72.4,3417],[72.8,3499],[73.1,3582],[73.6,3665],[73.7,3749],[74.2,3833],[74.6,3916],[75.2,4000],[75.9,4084],[76.4,4165],[76.5,4249],[76.6,4332],[76.6,4416],[76.6,4499],[76.6,4582],[76.6,4665],[76.6,4749],[76.6,4833],[76.6,4915],[75.8,4999],[73.9,5083],[72.4,5167],[72,5250],[71.8,5332],[71.7,5416],[71.5,5499],[71.5,5582],[71.2,5665],[71.1,5749],[70.8,5833],[70.6,5915],[70.8,5999],[71.4,6083],[72.5,6167],[73.7,6249],[76.2,6333],[78,6416],[79.3,6500],[80,6583],[80.5,6666],[81.3,6750],[81.8,6832],[82.1,6915],[82.1,6999],[82.4,7084],[82.8,7166],[83.2,7250],[83.2,7332],[83.4,7415],[83.7,7499],[84.3,7583],[84.6,7667],[84.8,7749],[85,7832],[85.1,7916],[85.4,7999],[85.7,8083],[85.9,8165],[85.9,8249],[86,8331],[86,8416],[86,8499],[86,8582],[86,8666],[86,8749],[86,8832],[86,8915],[86,8999],[86,9082],[86,9166],[86.2,9250],[87.6,9332],[88.1,9416],[88.1,9498],[88.1,9582],[88.2,9666],[88.4,9749],[88.7,9833],[89.2,9916],[89.4,9999],[89.7,10082],[89.7,10166],[89.7,10248],[89.7,10332],[89.7,10416],[89.7,10499],[89.7,10582],[89.7,10665],[89.7,10749],[89.5,10832],[89.5,10916],[89.5,10998],[89.5,11082],[89.2,11167],[88.7,11249],[88.4,11332],[88.2,11416],[88.2,11499],[88.1,11583],[87.8,11666],[86.7,11749],[85.7,11833],[84.8,11916],[84.3,12000],[83.8,12081],[83.4,12165],[82.9,12248],[82.5,12332],[82.4,12416],[82.4,12499],[82.2,12582],[82.2,12665],[81.8,12750],[81.6,12832],[81.5,12915],[80.9,13000],[80.6,13081],[80.5,13166],[80.2,13249],[79.7,13332],[79.3,13415],[79.1,13498],[79,13582],[78.8,13665],[78.8,13748],[78.8,13832],[78.8,13915],[78.8,13999],[78.8,14082],[78.8,14166]]",1,0,435.0147,439.4641,78.40409956,1.4886,"[{""rating"":78.40409956076135,""responseTime"":1.488599999993994}]",space,3.9018,,439.4643,All the time,100,439.4828,,,[],,0,13,13,13,1,audio/Narrative8Situation4.wav,audio/Narrative7Situation4.wav,audio/Narrative6Situation4.wav,audio/Narrative5Situation4.wav,3,3,2,1,,,,,,,,,,,,,,,,,,,,,,,,,,,,,,,,,,,,,,,
,,,,,,5fb0a3d6a8e4224b973e750b,2024-02-08_13h22.13.209,group3.1-3.2-social-tom,2023.2.2,Win32,59.52380952,65c5074098b851296ff0b7ed,65c545acc283c23b8dc55025,,,,,,,,,,,,,,,,,,,,,,,,,,,,,439.4831,1,audio/Narrative8Situation5.wav,441.497,,441.4971,449.7303,"[[77.5,834],[76.5,918],[76.2,1001],[76.2,1083],[76.2,1166],[76.4,1249],[76.8,1333],[76.9,1416],[77.2,1500],[77.5,1583],[77.8,1666],[78,1750],[78,1832],[78,1916],[77.5,2000],[76.4,2083],[74.6,2166],[73,2250],[71.7,2332],[71.4,2416],[70.9,2500],[70.6,2583],[70.5,2666],[70.5,2750],[70.5,2833],[70.6,2916],[70.6,2999],[70.8,3083],[70.9,3166],[70.9,3249],[70.9,3333],[70.9,3416],[70.9,3499],[71.2,3583],[71.4,3666],[71.5,3750],[71.7,3833],[71.7,3916],[71.8,4000],[72.8,4083],[74,4167],[74.3,4249],[74.3,4332],[74.5,4416],[74.5,4500],[74.5,4583],[74.5,4666],[74.5,4749],[74.5,4832],[74.5,4916],[74.5,4999],[74.6,5083],[74.6,5166],[74.7,5249],[75,5333],[75,5417],[75.2,5499],[75.6,5583],[76.1,5667],[76.2,5749],[76.2,5833],[76.4,5916],[76.5,5999],[76.6,6082],[76.6,6165],[76.6,6249],[76.6,6332],[76.6,6416],[76.6,6499],[76.6,6582],[76.6,6666],[76.6,6749],[76.6,6832],[76.6,6915],[76.6,6999],[76.8,7082],[77.8,7167],[78.3,7249],[78.4,7333],[78.4,7416],[78.4,7499],[77.4,7584],[73.9,7666],[71.4,7749],[70.4,7832],[68.9,7917],[67.7,7999],[67.3,8082],[67.3,8166]]",1,0,449.7307,451.9803,64.20204978,1.458,"[{""rating"":64.20204978038068,""responseTime"":1.4580000000000837}]",space,1.7065,,451.9804,All the time,100,451.9839,,,[],,0,14,14,14,1,audio/Narrative8Situation5.wav,audio/Narrative7Situation5.wav,audio/Narrative6Situation5.wav,audio/Narrative5Situation5.wav,2,5,2,5,,,,,,,,,,,,,,,,,,,,,,,,,,,,,,,,,,,,,,,
,,,,,,5fb0a3d6a8e4224b973e750b,2024-02-08_13h22.13.209,group3.1-3.2-social-tom,2023.2.2,Win32,59.52380952,65c5074098b851296ff0b7ed,65c545acc283c23b8dc55025,,,,,,,,,,,,,,,,,,,,,,,,,,,,,451.9844,1,audio/Narrative8Situation6.wav,453.9963,,453.9963,460.4632,"[[63.6,2833],[62.9,2917],[62.6,3001],[62.3,3083],[61.7,3167],[61.3,3249],[60.5,3333],[59.8,3416],[59.5,3500],[59.5,3583],[59.4,3667],[59.2,3750],[58.8,3833],[58.6,3916],[58.6,3999],[58.6,4082],[58.6,4166],[58.8,4250],[59.1,4333],[59.4,4416],[60.4,4500],[61,4583],[61.9,4667],[62.7,4750],[63.2,4832],[63.8,4917],[64.3,5000],[65.4,5083],[65.7,5167],[65.8,5249],[66,5332],[66.3,5417],[66.7,5500],[67,5582],[67,5666],[67,5749],[67,5832],[67.1,5916],[67.3,5999],[67.7,6083],[68.3,6166],[68.4,6249],[68.4,6332],[68.4,6416]]",1,0,460.4636,462.8626,64.0556369,1.855,"[{""rating"":64.05563689604685,""responseTime"":1.8550000000000182}]",space,1.8661,,462.8628,Half the time,50,462.8666,,,[],,0,15,15,15,1,audio/Narrative8Situation6.wav,audio/Narrative7Situation6.wav,audio/Narrative6Situation6.wav,audio/Narrative5Situation6.wav,2,3,2,3,,,,,,,,,,,,,,,,,,,,,,,,,,,,,,,,,,,,,,,
,,,,,,5fb0a3d6a8e4224b973e750b,2024-02-08_13h22.13.209,group3.1-3.2-social-tom,2023.2.2,Win32,59.52380952,65c5074098b851296ff0b7ed,65c545acc283c23b8dc55025,,,,,,,,,,,,,,,,,,,,,,,,,,,,,462.8669,1,audio/Narrative8Situation7.wav,465.8795,,465.8797,477.9799,"[[64.1,1999],[64.1,2082],[64.1,2165],[64.1,2249],[63.9,2332],[63.6,2415],[63.3,2499],[63.3,2582],[63.3,2666],[63,2749],[62.6,2832],[62.3,2916],[62.2,2999],[61.9,3083],[61,3166],[60.8,3250],[60.4,3332],[60.2,3416],[60.5,3500],[61,3581],[61.9,3666],[62.4,3750],[62.6,3832],[62.9,3915],[63.5,3999],[64.1,4082],[64.2,4165],[64.2,4249],[64.2,4333],[64.2,4416],[64.2,4499],[64.2,4582],[64.2,4666],[64.2,4749],[64.2,4832],[64.2,4915],[64.2,4999],[64.2,5082],[64.2,5166],[64.2,5249],[64.2,5332],[64.2,5415],[64.2,5499],[64.2,5582],[64.2,5666],[64.2,5749],[64.2,5832],[64.2,5915],[64.2,5999],[64.2,6082],[64.2,6165],[64.2,6249],[64.2,6332],[64.2,6415],[64.2,6498],[64.2,6582],[64.2,6666],[64.2,6749],[64.2,6832],[64.2,6916],[64.3,7000],[64.9,7083],[65.2,7165],[65.4,7249],[65.8,7334],[66.5,7416],[66.7,7499],[67,7583],[67.1,7665],[67.1,7749],[67.3,7833],[67.3,7915],[67.1,7999],[67.1,8083],[67.3,8165],[67.6,8249],[67.7,8332],[67.7,8415],[67.7,8498],[67.7,8582],[67.7,8665],[67.9,8749],[68.3,8832],[68.4,8916],[68.4,8999],[68.4,9082],[68.4,9165],[68.4,9249],[68.4,9332],[68.4,9415],[68.4,9499],[68.4,9582],[68.4,9665],[68.4,9749],[68.4,9832],[68.4,9916],[68.4,9999],[68.4,10082],[68.4,10165],[68.4,10249],[68.4,10332],[68.4,10415],[68.4,10498],[68.4,10582],[68.4,10665],[68.4,10749],[68.4,10832],[68.4,10915],[68.4,10998],[68.4,11082],[68.4,11165],[68.4,11249],[68.4,11332],[68.4,11415],[68.4,11499],[68.6,11584],[68.9,11666],[69.3,11749],[69.9,11833],[70.1,11915],[70.2,11999],[71.1,12082]]",1,0,477.9802,480.4791,72.69399707,1.8135,"[{""rating"":72.69399707174232,""responseTime"":1.8134999999999764}]",space,1.9493,,480.4792,Not at all,0,480.4846,,,[],,0,16,16,16,1,audio/Narrative8Situation7.wav,audio/Narrative7Situation7.wav,audio/Narrative6Situation7.wav,audio/Narrative5Situation7.wav,3,5,5,4,,,,,,,,,,,,,,,,,,,,,,,,,,,,,,,,,,,,,,,
,,,,,,5fb0a3d6a8e4224b973e750b,2024-02-08_13h22.13.209,group3.1-3.2-social-tom,2023.2.2,Win32,59.52380952,65c5074098b851296ff0b7ed,65c545acc283c23b8dc55025,,,,,,,,,,,,,,,,,,,,,,,,,,,,,480.485,1,audio/Narrative8Situation8.wav,483.4955,,483.4957,496.362,"[[72.5,1499],[72.4,1582],[72.3,1666],[72.3,1750],[72.3,1833],[72.3,1916],[72.3,1999],[72.3,2083],[72.3,2166],[72,2249],[71.5,2332],[71.2,2416],[70.9,2499],[70.5,2582],[69.9,2666],[69.3,2750],[69.2,2832],[69.2,2915],[69.2,2999],[69.2,3083],[69.2,3166],[69.2,3249],[69,3334],[69,3416],[69,3499],[69.2,3582],[70.2,3666],[71.5,3749],[73.1,3833],[73.6,3915],[73.6,3999],[73.6,4083],[73.6,4165],[73.6,4248],[73.6,4333],[73.6,4415],[73.6,4498],[74.2,4583],[75.5,4666],[75.8,4750],[75.8,4832],[75.8,4915],[75.8,4999],[75.9,5083],[75.9,5165],[76.1,5249],[76.1,5332],[76.5,5417],[77.2,5499],[77.5,5583],[77.7,5666],[79.6,5750],[82.2,5834],[83.4,5916],[83.8,5998],[84,6082],[84.3,6165],[84.4,6248],[84.6,6332],[84.6,6415],[84.6,6499],[84.6,6582],[84.6,6665],[84.6,6748],[84.6,6832],[84.6,6915],[84.6,6999],[84.6,7083],[84.6,7165],[84.6,7248],[84.6,7332],[84.6,7416],[84.6,7499],[84.6,7582],[84.6,7665],[84.6,7749],[84.6,7833],[84.6,7915],[84.6,7999],[84.6,8082],[84.6,8165],[84.6,8249],[84.6,8332],[84.6,8415],[84.6,8498],[84.6,8582],[84.6,8665],[84.6,8749],[84.6,8832],[84.6,8915],[84.6,8998],[84.6,9082],[84.6,9165],[84.6,9248],[84.6,9332],[84.6,9415],[84.6,9499],[84.6,9582],[84.6,9665],[84.6,9749],[84.6,9832],[84.6,9915],[84.6,9999],[84.6,10081],[84.6,10165],[84.6,10249],[84.3,10332],[84,10415],[84,10499],[84,10582],[84,10665],[84.3,10749],[84.4,10832],[84.6,10915],[84.6,10998],[84.6,11082],[84.6,11165],[84.6,11248],[84.6,11332],[84.6,11415],[84.6,11499],[84.3,11583],[84.1,11665],[83.8,11748],[83.5,11833],[83.5,11915],[83.7,12000],[83.8,12082],[83.8,12165],[83.8,12248],[83.8,12332],[83.8,12415],[83.8,12499],[83.8,12582],[83.8,12665],[83.8,12749],[83.8,12832]]",1,0,496.3622,499.5609,86.16398243,1.5704,"[{""rating"":86.16398243045388,""responseTime"":1.5703999999760754}]",space,2.6577,,499.561,Half the time,50,499.5671,,,[],,0,17,17,17,1,audio/Narrative8Situation8.wav,audio/Narrative7Situation8.wav,audio/Narrative6Situation8.wav,audio/Narrative5Situation8.wav,3,2,5,3,,,,,,,,,,,,,,,,,,,,,,,,,,,,,,,,,,,,,,,
,,,,,,5fb0a3d6a8e4224b973e750b,2024-02-08_13h22.13.209,group3.1-3.2-social-tom,2023.2.2,Win32,59.52380952,65c5074098b851296ff0b7ed,65c545acc283c23b8dc55025,,,,,,,,,,,,,,,,,,,,,,,,,,,,,499.5675,1,audio/Narrative8Situation9.wav,502.5775,,502.5778,513.8942,"[[999,1],[999,83],[999,166],[999,249],[999,332],[999,416],[999,499],[999,583],[999,667],[999,750],[999,833],[999,916],[999,1000],[999,1083],[999,1166],[999,1249],[999,1333],[999,1416],[66.7,1501],[67.3,1584],[67.3,1667],[67.3,1750],[67,1834],[66.8,1916],[66.8,2001],[66.7,2082],[66.1,2167],[64.8,2250],[63,2332],[62.6,2416],[62.9,2500],[65.1,2583],[66.7,2667],[67.4,2749],[68.4,2833],[69.3,2917],[70.2,3001],[70.5,3084],[70.5,3166],[70.8,3249],[72.3,3333],[73,3416],[73.1,3500],[73.1,3583],[73.1,3666],[73.1,3750],[73.1,3833],[73.1,3916],[73.1,4000],[73.1,4082],[73.1,4166],[73.1,4250],[73.1,4332],[73.1,4416],[73.1,4500],[73.1,4582],[73.1,4666],[73.1,4750],[73.1,4832],[73.1,4916],[73.1,5000],[73.1,5082],[73.1,5166],[73.1,5249],[73.1,5332],[73.1,5416],[73.1,5500],[73.1,5583],[73.1,5666],[73.1,5748],[73.1,5832],[73.1,5916],[73.1,5999],[73.1,6083],[73.1,6166],[73.1,6250],[74,6337],[76.4,6417],[77.8,6501],[79.1,6583],[80.3,6667],[80.6,6749],[80.6,6833],[80.6,6916],[80.3,7001],[79.7,7083],[79.4,7165],[79,7249],[78.6,7333],[78.6,7415],[78.6,7499],[78.6,7582],[78.6,7665],[78.6,7749],[78.6,7832],[78.6,7916],[78.6,7999],[78.6,8082],[78.6,8166],[78.6,8250],[78.6,8332],[78.6,8416],[78.6,8499],[78.6,8582],[78.6,8665],[78.6,8749],[78.6,8832],[78.7,8916],[79.1,9000],[79.3,9082],[79.4,9167],[79.4,9249],[79.6,9333],[81.9,9416],[84.4,9499],[84.8,9583],[84.8,9665],[84.7,9751],[84.6,9832],[84.6,9915],[84.6,9999],[84.6,10082],[84.6,10165],[84.6,10249],[84.6,10332],[84.6,10416],[84.6,10499],[84.6,10582],[84.6,10665],[84.6,10748],[84.6,10832],[84.6,10915],[84.6,10998],[84.6,11081],[84.6,11166],[84.6,11248]]",1,0,513.8947,516.4107,88.65300146,1.707,"[{""rating"":88.65300146412885,""responseTime"":1.7069999999999936}]",space,1.9722,,516.4109,Not at all,0,545.3095,0.366032211,23.1041,"[{""rating"":0.36603221083455484,""responseTime"":23.10410000002389}]",space,0,18,18,18,1,audio/Narrative8Situation9.wav,audio/Narrative7Situation9.wav,audio/Narrative6Situation9.wav,audio/Narrative5Situation9.wav,3,2,4,3,,,28.3487,,,,,,,,,,,,,,,,,,,,,,,,,,,,,,,,,,,,
,,,,,,5fb0a3d6a8e4224b973e750b,2024-02-08_13h22.13.209,group3.1-3.2-social-tom,2023.2.2,Win32,59.52380952,65c5074098b851296ff0b7ed,65c545acc283c23b8dc55025,,,,,,,,,,,,,,,,,,,,,,,,,,,605.3256,607.9063,607.9319,2,audio/Narrative13Situation2.wav,607.9321,,607.9321,637.6882,[],1,0,637.6885,637.7061,,,[],,,,637.7062,Half the time,50,637.7077,,,[],,0,0,0,0,1,audio/Narrative13Situation2.wav,audio/Narrative13Situation2.wav,audio/Narrative13Situation2.wav,audio/Narrative13Situation2.wav,2,2,2,2,,,,,545.3118,605.3079,,,,,,,,,,,,,,,,,,,,,,,,,,,,,,,,,
,,,,,,5fb0a3d6a8e4224b973e750b,2024-02-08_13h22.13.209,group3.1-3.2-social-tom,2023.2.2,Win32,59.52380952,65c5074098b851296ff0b7ed,65c545acc283c23b8dc55025,,,,,,,,,,,,,,,,,,,,,,,,,,,,,637.7079,2,audio/Narrative5Situation1.wav,642.7211,,642.7214,656.021,"[[2.1,3582],[4.9,3666],[5.8,3749],[6.2,3833],[15.2,3917],[21,4001],[21.2,4082],[21.3,4167],[23.2,4250],[24.4,4333],[25.7,4417],[28.8,4501],[30.4,4584],[32.4,4667],[34.8,4750],[34.8,4832],[34.8,4916],[34.8,4999],[34.6,5084],[33.6,5167],[32.3,5249],[32.1,5332],[32.1,5416],[32.1,5499],[32.1,5582],[32.1,5666],[32.1,5749],[32.1,5832],[32.1,5915],[32.1,5998],[32.1,6081],[32.1,6166],[32.1,6249],[32.1,6332],[32.1,6416],[32.1,6499],[32.1,6582],[32.1,6666],[32.1,6749],[32.1,6832],[32.1,6916],[32.1,6999],[32.1,7082],[32.1,7166],[32.1,7249],[32.1,7332],[32.1,7416],[32.1,7499],[32.1,7582],[32.1,7665],[32.1,7749],[32.1,7832],[32.1,7916],[32.1,7999],[32.1,8082],[32.1,8165],[32.1,8248],[32.1,8332],[32.1,8415],[32.1,8499],[31.3,8585],[27.7,8667],[25.5,8750],[23.9,8833],[23.8,8915],[23.8,8998],[23.8,9081],[23.8,9165],[23.8,9248],[23.8,9332],[23.8,9416],[23.8,9498],[23.8,9582],[23.8,9666],[23.8,9749],[23.8,9832],[23.8,9916],[23.8,9999],[23.8,10082],[23.8,10165],[23.8,10249],[23.8,10332],[23.8,10415],[23.8,10499],[23.8,10582],[23.8,10666],[23.8,10749],[23.8,10832],[23.8,10915],[23.8,10999],[23.8,11082],[23.8,11165],[23.8,11249],[23.8,11332],[23.8,11415],[23.8,11499],[23.8,11582],[23.8,11666],[23.8,11748],[23.8,11832],[23.8,11915],[23.8,11999],[23.8,12082],[23.8,12166],[23.8,12248],[23.8,12332],[23.8,12416],[23.8,12499],[23.8,12582],[23.8,12666],[23.8,12748],[23.8,12831],[23.8,12916],[23.8,12998],[23.8,13082],[23.8,13166],[23.8,13248]]",1,0,656.0215,658.6373,18.52122987,2.0487,"[{""rating"":18.521229868228406,""responseTime"":2.0486999999880027}]",space,2.0704,,658.6375,Not at all,0,658.6435,,,[],,0,1,1,1,1,audio/Narrative7Situation1.wav,audio/Narrative8Situation1.wav,audio/Narrative5Situation1.wav,audio/Narrative6Situation1.wav,2,5,5,2,,,,,,,,,,,,,,,,,,,,,,,,,,,,,,,,,,,,,,,
,,,,,,5fb0a3d6a8e4224b973e750b,2024-02-08_13h22.13.209,group3.1-3.2-social-tom,2023.2.2,Win32,59.52380952,65c5074098b851296ff0b7ed,65c545acc283c23b8dc55025,,,,,,,,,,,,,,,,,,,,,,,,,,,,,658.6441,2,audio/Narrative5Situation2.wav,661.6537,,661.654,691.119,"[[19.7,7005],[20.9,7082],[20.9,7165],[20.9,7249],[20.9,7333],[20.9,7415],[20.9,7498],[22.5,7583],[22.6,7665],[22.8,7749],[23.4,7833],[23.9,7915],[24.2,7998],[24.5,8081],[24.8,8165],[24.8,8248],[24.8,8331],[24.8,8415],[24.8,8498],[24.8,8582],[24.8,8665],[24.8,8749],[24.8,8831],[24.8,8916],[24.8,8998],[24.8,9082],[24.8,9165],[24.8,9249],[24.8,9331],[24.8,9415],[24.8,9499],[24.8,9582],[24.8,9665],[24.8,9749],[24.8,9832],[24.8,9915],[24.8,9998],[24.8,10081],[24.8,10165],[24.8,10248],[24.8,10331],[24.8,10415],[24.8,10498],[24.8,10581],[24.8,10665],[24.8,10748],[24.8,10832],[24.8,10915],[24.8,10998],[24.8,11082],[24.8,11165],[25.5,11249],[25.8,11333],[27.3,11415],[28.6,11499],[28.6,11581],[28.6,11665],[28.6,11748],[28.6,11831],[28.6,11915],[28.6,11998],[28.6,12082],[28.6,12165],[28.6,12248],[28.6,12331],[28.6,12415],[28.6,12499],[28.6,12581],[28.6,12665],[28.6,12748],[28.6,12831],[28.6,12915],[28.6,12998],[28.6,13081],[28.6,13165],[28.6,13248],[28.6,13331],[28.6,13415],[28.6,13498],[28.6,13581],[28.6,13665],[28.6,13748],[28.6,13831],[28.6,13915],[28.6,13998],[28.6,14081],[28.6,14165],[28.6,14248],[28.6,14331],[28.6,14415],[28.6,14498],[28.6,14581],[28.6,14665],[28.6,14748],[28.6,14831],[28.6,14915],[28.6,14998],[28.6,15082],[28.6,15165],[28.6,15248],[28.6,15331],[28.6,15415],[28.6,15498],[28.6,15581],[28.6,15665],[28.6,15748],[28.6,15832],[26.7,15915],[25.7,15998],[25.4,16081],[25.5,16166],[25.5,16248],[25.5,16331],[25.5,16415],[25.5,16498],[25.5,16581],[25.5,16665],[25.5,16748],[25.5,16831],[25.5,16914],[25.5,16998],[25.5,17081],[25.5,17164],[25.5,17248],[25.5,17331],[25.5,17414],[25.5,17498],[25.5,17581],[25.5,17665],[25.5,17748],[25.5,17831],[25.5,17915],[25.5,17998],[25.5,18081],[25.5,18165],[25.5,18248],[25.5,18331],[25.5,18415],[25.5,18498],[25.5,18581],[25.5,18665],[25.5,18748],[25.5,18831],[25.5,18914],[25.5,18998],[25.5,19081],[25.5,19165],[25.5,19248],[25.5,19331],[25.5,19415],[25.5,19498],[25.5,19582],[25.5,19665],[25.5,19748],[25.5,19831],[25.5,19914],[25.5,19998],[25.5,20083],[25.5,20165],[25.5,20248],[25.5,20331],[25.5,20415],[25.5,20498],[25.5,20581],[25.5,20664],[25.5,20747],[25.5,20831],[25.5,20915],[25.5,20998],[25.5,21081],[25.5,21165],[25.5,21248],[25.5,21331],[25.5,21414],[25.5,21497],[25.5,21581],[25.5,21665],[25.5,21747],[25.5,21831],[25.5,21914],[25.5,21998],[25.5,22081],[25.5,22164],[25.5,22248],[25.5,22331],[25.5,22415],[25.5,22498],[25.5,22581],[25.5,22664],[25.5,22748],[25.5,22831],[25.5,22914],[25.5,22998],[25.5,23080],[25.5,23165],[25.5,23248],[25.5,23331],[25.5,23414],[25.5,23498],[25.5,23581],[25.5,23664],[25.5,23748],[25.5,23831],[25.5,23915],[25.5,23998],[25.5,24081],[25.5,24164],[25.5,24248],[25.5,24331],[25.5,24414],[25.5,24497],[26.4,24581],[27.5,24664],[27.5,24748],[28.2,24831],[28.8,24915],[28.9,24998],[29.2,25083],[29.8,25165],[30.2,25249],[30.4,25332],[30.4,25414],[30.4,25498],[30.5,25582],[30.5,25664],[31.1,25748],[31.3,25831],[31.3,25914],[31.3,25998],[31.3,26081],[31.3,26164],[31.3,26248],[31.3,26331],[31.3,26414],[31.3,26498],[31.3,26581],[31.3,26664],[31.3,26748],[31.3,26831],[31.3,26914],[31.3,26998],[31.3,27081],[31.3,27164],[31.3,27248],[31.3,27331],[31.3,27414],[31.3,27498],[31.3,27581],[31.3,27664],[31.3,27748],[31.3,27831],[31.3,27914],[31.3,27997],[31.3,28081],[31.3,28164],[31.3,28248],[31.3,28331],[31.3,28414],[31.3,28497],[31.3,28581],[31.3,28664],[31.3,28748],[31.3,28831],[31.3,28914],[31.3,28997],[31.3,29081],[31.3,29164],[31.3,29247],[31.3,29331],[31.3,29414]]",1,0,691.1195,693.7857,31.84480234,1.8344,"[{""rating"":31.844802342606148,""responseTime"":1.834400000005985}]",space,2.1181,,693.7859,All the time,100,693.7925,,,[],,0,2,2,2,1,audio/Narrative7Situation2.wav,audio/Narrative8Situation2.wav,audio/Narrative5Situation2.wav,audio/Narrative6Situation2.wav,3,3,3,3,,,,,,,,,,,,,,,,,,,,,,,,,,,,,,,,,,,,,,,
,,,,,,5fb0a3d6a8e4224b973e750b,2024-02-08_13h22.13.209,group3.1-3.2-social-tom,2023.2.2,Win32,59.52380952,65c5074098b851296ff0b7ed,65c545acc283c23b8dc55025,,,,,,,,,,,,,,,,,,,,,,,,,,,,,693.793,2,audio/Narrative5Situation3.wav,696.8022,,696.8025,710.7187,"[[29.9,1416],[29.4,1499],[29.1,1582],[29.1,1665],[29.1,1749],[27.3,1834],[25.7,1915],[25.5,1999],[25.5,2082],[25.5,2165],[25.5,2248],[25.5,2332],[25.5,2415],[25.5,2498],[25.5,2582],[25.5,2665],[25.5,2748],[25.5,2832],[25.5,2915],[25.5,2998],[25.5,3082],[25.5,3165],[25.5,3248],[25.5,3332],[25.5,3415],[25.5,3499],[25.5,3582],[25.5,3665],[25.5,3748],[25.5,3832],[25.5,3915],[25.5,3998],[25.5,4082],[25.5,4165],[25.5,4248],[25.5,4332],[25.5,4415],[25.5,4498],[25.5,4583],[25.5,4665],[25.5,4748],[25.5,4832],[25.5,4915],[25.5,4998],[25.5,5081],[25.5,5165],[25.5,5248],[25.5,5332],[25.5,5415],[25.5,5498],[25.5,5582],[25.5,5665],[25.5,5749],[25.5,5832],[25.5,5917],[25.5,5998],[25.5,6082],[25.5,6165],[25.5,6249],[25.5,6332],[25.5,6415],[25.5,6499],[25.5,6582],[25.5,6665],[25.5,6748],[25.5,6832],[25.5,6915],[25.5,6998],[25.5,7082],[25.5,7165],[25.5,7248],[25.5,7331],[25.5,7415],[25.5,7498],[25.5,7582],[25.5,7665],[25.5,7748],[25.5,7832],[25.5,7915],[25.5,7998],[25.5,8082],[25.5,8165],[25.5,8248],[25.5,8332],[25.5,8415],[25.5,8498],[25.5,8582],[25.5,8665],[25.5,8748],[25.5,8832],[25.5,8915],[25.5,8998],[25.5,9082],[25.5,9164],[25.5,9248],[25.5,9332],[25.5,9415],[25.5,9498],[25.5,9581],[22.9,9665],[22,9748],[22,9832],[22,9915],[21.7,9998],[20.7,10083],[19.5,10165],[19.5,10248],[19.5,10332],[19.5,10415],[19.5,10498],[19.5,10581],[19.5,10665],[19.5,10748],[19.5,10832],[19.5,10915],[19.5,10998],[19.5,11082],[19.5,11164],[19.5,11248],[19.5,11332],[19.5,11415],[19.5,11498],[19.5,11582],[19.5,11664],[19.5,11748],[19.5,11831],[19.5,11914],[19.5,11998],[19.5,12082],[19.5,12165],[19.5,12248],[19.5,12332],[19.5,12414],[19.5,12498],[19.5,12581],[19.5,12664],[19.5,12748],[19.5,12831],[19.5,12914],[19.5,12999],[19.5,13082],[19.5,13164],[19.5,13248],[19.5,13331],[19.5,13415],[19.5,13498],[19.5,13582],[19.5,13665],[19.5,13748],[19.5,13832],[19.5,13915]]",1,0,710.7191,725.0172,26.86676428,13.0223,"[{""rating"":26.866764275256223,""responseTime"":13.02230000001191}]",space,13.7548,,725.0174,Not at all,0,725.0202,,,[],,0,3,3,3,1,audio/Narrative7Situation3.wav,audio/Narrative8Situation3.wav,audio/Narrative5Situation3.wav,audio/Narrative6Situation3.wav,8,4,3,5,,,,,,,,,,,,,,,,,,,,,,,,,,,,,,,,,,,,,,,
,,,,,,5fb0a3d6a8e4224b973e750b,2024-02-08_13h22.13.209,group3.1-3.2-social-tom,2023.2.2,Win32,59.52380952,65c5074098b851296ff0b7ed,65c545acc283c23b8dc55025,,,,,,,,,,,,,,,,,,,,,,,,,,,,,725.0205,2,audio/Narrative5Situation4.wav,726.0341,,726.0342,746.4336,"[[24.7,1083],[21.6,1167],[21.2,1249],[21.2,1332],[21,1416],[22.6,1499],[26.7,1583],[28.3,1666],[28.5,1749],[28.6,1832],[29.6,1916],[30.1,1999],[30.1,2082],[30.1,2166],[30.1,2249],[30.1,2333],[30.1,2415],[30.1,2499],[30.1,2582],[30.1,2666],[30.1,2749],[30.1,2832],[30.1,2915],[30.1,2999],[30.1,3082],[30.1,3166],[30.1,3249],[30.1,3332],[30.1,3416],[30.1,3499],[30.1,3582],[30.1,3666],[30.1,3749],[30.1,3832],[30.1,3916],[30.1,3999],[30.1,4083],[30.1,4166],[30.1,4249],[30.1,4333],[30.1,4416],[30.1,4499],[30.1,4583],[30.1,4666],[30.1,4749],[30.1,4833],[30.1,4916],[30.1,4999],[30.1,5082],[30.1,5166],[30.1,5249],[30.1,5333],[30.1,5415],[30.1,5499],[30.1,5583],[30.1,5666],[30.1,5749],[30.1,5832],[30.1,5916],[30.1,5998],[30.1,6082],[30.1,6165],[30.1,6249],[30.1,6333],[30.1,6416],[30.1,6499],[30.1,6582],[30.1,6666],[30.1,6749],[30.1,6832],[30.1,6915],[30.1,6999],[30.1,7082],[30.1,7165],[30.1,7249],[30.1,7332],[30.1,7415],[30.1,7499],[30.1,7582],[30.1,7665],[30.1,7749],[30.1,7832],[30.1,7916],[30.1,7998],[30.1,8083],[30.1,8165],[30.1,8249],[30.1,8332],[30.1,8415],[30.1,8499],[30.1,8582],[30.1,8665],[30.4,8750],[32,8832],[32.7,8917],[33,9000],[33.5,9083],[34,9166],[34.9,9250],[35.8,9332],[36.2,9415],[36.7,9499],[37,9582],[37.1,9665],[37.1,9748],[37.1,9832],[37.1,9915],[37.1,9999],[37.1,10082],[37.1,10165],[37.1,10249],[37.1,10333],[37.1,10415],[37.1,10499],[37.1,10582],[37.1,10665],[37.1,10748],[37.1,10832],[37.1,10915],[37.1,10998],[37.1,11082],[37.1,11165],[37.1,11248],[37.1,11332],[37.1,11415],[37.1,11498],[37.1,11582],[37.1,11665],[37.1,11748],[37.1,11831],[37.1,11915],[37.1,11999],[37.1,12081],[37.1,12164],[37.1,12248],[37.1,12331],[37.1,12414],[37.1,12498],[37.1,12582],[37.1,12665],[37.1,12749],[37.1,12831],[37.1,12915],[37.1,12998],[37.1,13081],[37.1,13165],[37.1,13249],[37.1,13331],[37.1,13415],[37.1,13498],[37.1,13582],[37.1,13665],[37.1,13749],[37.1,13831],[37.1,13915],[37.1,13998],[37.1,14082],[37.1,14165],[37.1,14249],[37.1,14331],[37.1,14415],[37.1,14498],[37.1,14581],[37.1,14665],[37.1,14748],[37.1,14831],[37.1,14915],[37.1,14998],[37.1,15081],[38,15166],[41.2,15249],[42.1,15332],[42.2,15415],[42.2,15498],[42.7,15582],[43.9,15665],[44.1,15749],[45.5,15832],[46.8,15915],[47.4,15999],[48,16082],[48.8,16165],[49.3,16249],[49.6,16333],[49.7,16415],[49.9,16498],[49.9,16581],[49.9,16665],[49.9,16751],[49.9,16831],[49.9,16915],[49.9,16998],[49.9,17081],[49.9,17165],[49.9,17248],[49.9,17332],[49.9,17415],[49.9,17498],[49.9,17581],[49.9,17665],[49.9,17748],[49.9,17831],[49.9,17915],[49.9,17998],[49.9,18081],[49.9,18165],[49.9,18248],[49.9,18333],[49.9,18415],[49.9,18499],[49.9,18582],[50,18665],[50.7,18750],[51.5,18832],[51.8,18915],[51.5,18999],[50.4,19083],[49.1,19166],[47.4,19250],[45.9,19333],[45.5,19416],[45.2,19499],[44.9,19581],[44.7,19666],[44.7,19748],[44.7,19831],[44.7,19915],[44.7,19998],[44.7,20081],[44.7,20165],[44.7,20248],[44.7,20331]]",1,0,746.434,748.5328,44.14348463,1.1715,"[{""rating"":44.143484626647144,""responseTime"":1.1715000000000373}]",space,1.5582,,748.533,All the time,100,748.5383,,,[],,0,4,4,4,1,audio/Narrative7Situation4.wav,audio/Narrative8Situation4.wav,audio/Narrative5Situation4.wav,audio/Narrative6Situation4.wav,3,3,1,2,,,,,,,,,,,,,,,,,,,,,,,,,,,,,,,,,,,,,,,
,,,,,,5fb0a3d6a8e4224b973e750b,2024-02-08_13h22.13.209,group3.1-3.2-social-tom,2023.2.2,Win32,59.52380952,65c5074098b851296ff0b7ed,65c545acc283c23b8dc55025,,,,,,,,,,,,,,,,,,,,,,,,,,,,,748.5388,2,audio/Narrative5Situation5.wav,753.5494,,753.5496,768.9822,"[[44,1667],[42.7,1750],[42.2,1833],[42.2,1915],[42.2,1999],[42.2,2082],[41.9,2165],[38.3,2250],[36.7,2332],[36.4,2415],[36.4,2499],[36.5,2582],[36.5,2665],[36.5,2749],[36.5,2832],[36.5,2916],[36.5,2998],[36.5,3082],[36.5,3165],[36.5,3249],[36.5,3332],[36.5,3415],[36.5,3499],[36.5,3582],[36.5,3666],[36.5,3749],[36.5,3832],[36.5,3915],[36.5,3999],[36.5,4082],[36.5,4165],[36.5,4249],[36.5,4332],[36.5,4416],[36.5,4498],[36.5,4582],[36.5,4665],[36.5,4748],[36.5,4832],[36.5,4915],[36.5,4999],[36.5,5082],[36.5,5165],[36.5,5248],[36.5,5332],[36.5,5415],[36.5,5498],[36.5,5582],[36.5,5665],[36.5,5749],[36.5,5832],[36.5,5915],[36.5,5998],[36.5,6082],[36.5,6165],[36.5,6248],[36.5,6332],[36.5,6415],[36.5,6498],[36.5,6582],[36.5,6665],[36.5,6749],[36.5,6832],[36.5,6915],[36.5,6999],[36.5,7082],[36.5,7165],[36.5,7248],[36.2,7338],[35.8,7417],[33.6,7499],[32.3,7583],[31.3,7667],[30.5,7750],[30.1,7832],[29.8,7917],[29.8,7999],[29.8,8082],[29.8,8165],[29.8,8249],[29.8,8332],[29.8,8415],[29.8,8498],[29.8,8582],[29.8,8666],[29.8,8749],[29.8,8832],[29.8,8915],[29.8,8998],[29.8,9082],[29.8,9165],[29.8,9248],[29.8,9332],[29.8,9415],[29.8,9498],[29.8,9582],[29.8,9665],[29.8,9748],[29.8,9832],[29.8,9915],[29.8,9998],[29.8,10082],[29.8,10165],[29.8,10248],[29.8,10332],[29.8,10415],[29.8,10498],[29.8,10582],[29.8,10665],[29.8,10748],[29.8,10832],[29.8,10914],[29.8,10998],[29.8,11082],[29.8,11165],[29.8,11248],[29.8,11332],[29.8,11415],[29.8,11498],[29.8,11582],[29.8,11665],[29.8,11748],[28.9,11833],[28.2,11917],[27.9,11999],[27.7,12082],[27.7,12165],[28,12250],[28.6,12333],[29.2,12416],[29.2,12498],[29.2,12582],[29.2,12665],[29.2,12748],[29.2,12832],[29.2,12914],[29.2,12998],[29.2,13082],[29.2,13165],[29.2,13248],[29.2,13331],[29.2,13415],[29.2,13498],[29.2,13582],[29.2,13665],[29.2,13748],[29.2,13832],[29.2,13915],[29.2,13998],[29.2,14082],[29.2,14165],[29.2,14248],[29.2,14332],[29.2,14415],[29.2,14498],[29.2,14582],[29.2,14665],[29.2,14748],[29.2,14832],[29.2,14915],[29.2,14998],[29.2,15082],[29.2,15165],[29.2,15248],[29.2,15332],[29.2,15415]]",1,0,768.9827,773.598,29.20937042,2.7571,"[{""rating"":29.209370424597363,""responseTime"":2.7570999999940113}]",space,4.0762,,773.5981,All the time,100,773.602,,,[],,0,5,5,5,1,audio/Narrative7Situation5.wav,audio/Narrative8Situation5.wav,audio/Narrative5Situation5.wav,audio/Narrative6Situation5.wav,5,2,5,2,,,,,,,,,,,,,,,,,,,,,,,,,,,,,,,,,,,,,,,
,,,,,,5fb0a3d6a8e4224b973e750b,2024-02-08_13h22.13.209,group3.1-3.2-social-tom,2023.2.2,Win32,59.52380952,65c5074098b851296ff0b7ed,65c545acc283c23b8dc55025,,,,,,,,,,,,,,,,,,,,,,,,,,,,,773.6025,2,audio/Narrative5Situation6.wav,776.6153,,776.6154,782.2983,[],1,0,782.2987,786.1312,26.57393851,2.5943,"[{""rating"":26.57393850658858,""responseTime"":2.594299999982127}]",space,3.2833,,786.1316,All the time,100,786.135,,,[],,0,6,6,6,1,audio/Narrative7Situation6.wav,audio/Narrative8Situation6.wav,audio/Narrative5Situation6.wav,audio/Narrative6Situation6.wav,3,2,3,2,,,,,,,,,,,,,,,,,,,,,,,,,,,,,,,,,,,,,,,
,,,,,,5fb0a3d6a8e4224b973e750b,2024-02-08_13h22.13.209,group3.1-3.2-social-tom,2023.2.2,Win32,59.52380952,65c5074098b851296ff0b7ed,65c545acc283c23b8dc55025,,,,,,,,,,,,,,,,,,,,,,,,,,,,,786.1356,2,audio/Narrative5Situation7.wav,790.1474,,790.1475,811.1971,"[[27.2,2000],[27.3,2083],[27.3,2166],[27.3,2249],[27.3,2333],[28.3,2416],[29.2,2500],[29.4,2583],[29.5,2667],[29.5,2749],[30.2,2834],[31.3,2917],[31.6,3000],[31.8,3083],[31.8,3166],[31.8,3249],[31.8,3332],[31.8,3416],[31.7,3499],[31.6,3583],[31.4,3666],[31.3,3750],[31.1,3833],[31,3916],[31,4000],[31,4083],[31,4166],[31,4250],[31,4333],[31,4416],[31,4500],[31,4583],[31,4666],[31,4749],[31,4833],[31,4916],[31,4999],[31,5082],[31,5166],[31,5250],[31,5333],[31,5416],[31,5499],[31,5582],[31,5666],[31,5749],[31,5833],[31,5916],[31,5999],[31,6083],[31,6166],[31,6249],[31,6332],[31,6416],[31,6500],[31,6582],[31,6666],[31,6749],[31,6832],[31,6915],[31,7000],[31,7083],[31,7165],[31,7249],[31,7333],[31,7415],[31,7499],[31,7584],[31,7666],[31,7750],[31,7832],[31,7915],[31,7999],[31,8082],[31,8165],[31,8249],[31,8332],[31,8415],[31,8499],[31,8583],[31,8666],[31,8749],[31,8832],[31,8916],[31,8999],[31,9083],[31,9166],[31,9249],[31,9332],[30.1,9421],[28.3,9500],[27.6,9583],[27.2,9667],[27,9749],[26.9,9832],[26.7,9916],[26.7,10000],[26.7,10082],[26.7,10166],[26.7,10249],[26.7,10333],[26.7,10416],[26.7,10499],[26.7,10583],[26.7,10665],[26.7,10750],[26.7,10832],[26.7,10916],[26.7,10999],[26.7,11082],[26.7,11166],[26.7,11249],[26.7,11332],[26.7,11416],[26.7,11499],[26.7,11583],[26.7,11665],[26.7,11749],[26.7,11832],[26.7,11915],[26.7,11999],[26.7,12082],[26.7,12166],[26.7,12249],[26.7,12332],[26.7,12415],[26.7,12499],[26.7,12581],[26.7,12665],[26.7,12749],[26.7,12832],[26.7,12916],[26.7,12999],[26.7,13082],[26.7,13166],[26.7,13249],[26.7,13331],[26.7,13415],[26.7,13499],[26.7,13582],[26.7,13665],[26.7,13749],[26.7,13832],[26.7,13915],[26.7,13999],[26.7,14082],[26.7,14166],[26.7,14249],[26.7,14332],[26.7,14415],[26.7,14499],[26.7,14582],[26.7,14665],[26.7,14748],[26.7,14833],[26.7,14915],[26.7,14999],[26.7,15082],[26.7,15165],[26.7,15249],[25.8,15332],[25,15415],[24.8,15499],[24.2,15582],[23.9,15666],[23.9,15749],[23.9,15832],[24.1,15916],[24.1,15999],[24.1,16082],[24.1,16165],[24.1,16249],[24.1,16332],[24.1,16415],[24.1,16499],[24.1,16582],[24.1,16665],[24.1,16749],[24.1,16832],[24.1,16915],[24.1,16999],[24.1,17082],[24.1,17165],[24.1,17249],[24.1,17332],[24.1,17415],[24.1,17499],[24.1,17582],[24.1,17666],[24.1,17748],[24.1,17832],[24.1,17915],[24.1,17998],[24.1,18082],[24.1,18166],[24.1,18248],[24.1,18332],[24.1,18415],[24.1,18499],[24.1,18582],[24.1,18665],[24.1,18749],[24.1,18832],[24.1,18915],[24.1,18998],[24.1,19082],[24.1,19165],[24.1,19249],[24.1,19332],[24.1,19415],[24.1,19499],[24.1,19582],[24.1,19666],[24.1,19749],[24.1,19832],[24.1,19915],[24.1,19999],[25.1,20091],[26.3,20166],[26.6,20249],[26.6,20332],[26.7,20415],[26.9,20499],[26.9,20582],[26.9,20665],[26.9,20749],[26.9,20831],[26.9,20915],[26.9,20999]]",1,0,811.1975,813.7301,25.25622255,1.692,"[{""rating"":25.256222547584184,""responseTime"":1.6920000000000073}]",space,1.9861,,813.7303,Not at all,0,813.7357,,,[],,0,7,7,7,1,audio/Narrative7Situation7.wav,audio/Narrative8Situation7.wav,audio/Narrative5Situation7.wav,audio/Narrative6Situation7.wav,5,3,4,5,,,,,,,,,,,,,,,,,,,,,,,,,,,,,,,,,,,,,,,
,,,,,,5fb0a3d6a8e4224b973e750b,2024-02-08_13h22.13.209,group3.1-3.2-social-tom,2023.2.2,Win32,59.52380952,65c5074098b851296ff0b7ed,65c545acc283c23b8dc55025,,,,,,,,,,,,,,,,,,,,,,,,,,,,,813.7362,2,audio/Narrative5Situation8.wav,816.7462,,816.7465,825.5798,"[[27.6,2749],[28.5,2832],[28.8,2916],[29.6,2999],[30.2,3082],[31.7,3167],[33.3,3251],[34.5,3332],[35.5,3417],[36.4,3500],[36.7,3583],[36.7,3666],[36.8,3749],[36.8,3832],[36.8,3915],[36.8,3999],[36.8,4082],[36.8,4166],[36.8,4249],[36.8,4332],[36.8,4415],[36.8,4499],[36.8,4582],[36.8,4666],[36.8,4749],[36.8,4832],[36.8,4915],[36.8,4999],[36.8,5082],[36.8,5165],[36.8,5249],[36.8,5332],[36.8,5415],[36.8,5499],[36.8,5582],[36.8,5665],[36.8,5749],[36.8,5832],[36.8,5915],[36.8,5999],[36.8,6082],[36.8,6165],[36.8,6249],[36.8,6332],[36.8,6415],[36.8,6498],[36.8,6582],[36.8,6666],[36.8,6749],[40.9,6833],[43,6916],[44.4,7000],[47.2,7083],[48.5,7167],[50.1,7250],[53.1,7333],[54.4,7416],[56.1,7500],[59.5,7584],[60.5,7665],[60.7,7749],[60.7,7832],[60.7,7915],[60.7,7999],[60.7,8082],[60.7,8166],[60.7,8249],[60.7,8332],[60.7,8415],[60.7,8499],[60.7,8582],[60.7,8666],[60.7,8749],[60.7,8832]]",1,0,825.5801,828.0785,61.42020498,1.3882,"[{""rating"":61.420204978038065,""responseTime"":1.388200000017946}]",space,1.9505,,828.0786,All the time,100,828.0817,,,[],,0,8,8,8,1,audio/Narrative7Situation8.wav,audio/Narrative8Situation8.wav,audio/Narrative5Situation8.wav,audio/Narrative6Situation8.wav,2,3,3,5,,,,,,,,,,,,,,,,,,,,,,,,,,,,,,,,,,,,,,,
,,,,,,5fb0a3d6a8e4224b973e750b,2024-02-08_13h22.13.209,group3.1-3.2-social-tom,2023.2.2,Win32,59.52380952,65c5074098b851296ff0b7ed,65c545acc283c23b8dc55025,,,,,,,,,,,,,,,,,,,,,,,,,,,,,828.082,2,audio/Narrative5Situation9.wav,831.0955,,831.0957,870.6276,"[[999,1],[999,82],[999,166],[999,250],[999,332],[999,416],[999,499],[999,582],[999,666],[999,749],[999,833],[999,916],[999,1000],[999,1082],[999,1166],[999,1249],[999,1333],[999,1417],[51.5,1500],[50.6,1583],[50.3,1667],[50.1,1749],[50.1,1832],[50.1,1916],[51.2,1999],[52.2,2083],[52.8,2166],[53.4,2250],[54.5,2333],[55.6,2417],[55.9,2499],[56.1,2582],[56.3,2666],[56.6,2751],[56.9,2833],[57,2916],[57.3,2999],[57.5,3082],[57.5,3166],[57.5,3249],[57.5,3332],[57.5,3416],[57.5,3499],[57.5,3582],[57.5,3666],[57.5,3749],[57.5,3833],[57.5,3916],[57.5,3999],[57.5,4082],[57.5,4166],[57.5,4249],[57.5,4332],[57.5,4416],[57.5,4499],[57.5,4582],[57.5,4666],[57.5,4749],[57.5,4832],[57.5,4916],[57.5,4999],[57.5,5082],[57.5,5166],[57.5,5249],[57.5,5332],[57.5,5416],[57.5,5499],[57.5,5582],[57.5,5665],[57.5,5749],[57.5,5832],[57.5,5916],[57.5,5999],[57.5,6082],[57.5,6166],[57.5,6249],[57.5,6332],[57.5,6415],[57.5,6499],[57.5,6582],[57.5,6665],[57.5,6749],[57.5,6832],[57.5,6916],[57.5,6999],[57.5,7082],[57.5,7165],[57.5,7249],[57.5,7332],[57.5,7416],[57.5,7499],[57.5,7582],[57.5,7666],[57.5,7749],[57.5,7832],[57.5,7916],[57.5,7999],[57.5,8082],[57.5,8166],[57.5,8249],[57.5,8332],[57.5,8416],[57.5,8499],[57.5,8582],[57.5,8666],[57.5,8749],[57.5,8832],[57.5,8915],[57.5,8998],[57.5,9081],[57.5,9165],[57.5,9248],[57.5,9331],[57.5,9415],[58.2,9499],[59.4,9583],[59.8,9666],[60.2,9748],[60.4,9831],[60.5,9915],[60.5,9999],[60.5,10082],[60.5,10165],[60.5,10249],[60.5,10332],[60.5,10416],[60.5,10499],[60.5,10582],[60.5,10665],[60.5,10749],[60.5,10832],[60.5,10916],[60.5,10999],[60.5,11082],[60.5,11165],[60.5,11249],[60.5,11331],[60.5,11415],[60.5,11499],[60.5,11582],[60.5,11665],[60.5,11749],[60.5,11832],[60.5,11915],[60.5,11999],[60.5,12082],[60.5,12165],[60.5,12249],[60.5,12332],[60.5,12415],[60.5,12499],[60.5,12582],[60.5,12665],[60.5,12749],[60.5,12832],[60.5,12915],[60.5,12999],[60.5,13082],[60.5,13165],[60.5,13248],[60.5,13332],[60.5,13415],[60.5,13499],[60.5,13582],[60.5,13665],[60.5,13749],[60.5,13831],[60.5,13915],[60.5,13999],[60.5,14082],[60.5,14165],[60.5,14248],[60.5,14331],[60.5,14415],[60.5,14499],[60.5,14582],[60.5,14665],[60.5,14749],[60.5,14831],[60.5,14915],[60.5,14999],[60.5,15082],[60.5,15165],[60.5,15248],[60.5,15331],[60.5,15416],[60.5,15499],[60.5,15582],[60.5,15665],[60.5,15748],[60.5,15834],[60.5,15915],[60.5,15998],[60.5,16081],[60.5,16165],[60.5,16248],[60.5,16331],[60.5,16415],[60.5,16499],[60.5,16582],[60.5,16665],[60.5,16749],[60.5,16831],[60.5,16915],[60.5,16999],[60.5,17082],[60.5,17165],[60.5,17249],[60.5,17332],[60.5,17415],[60.5,17498],[60.5,17582],[60.5,17665],[60.5,17748],[60.5,17832],[60.5,17915],[60.5,17998],[60.5,18081],[60.5,18165],[60.5,18249],[60.5,18332],[60.5,18415],[60.7,18504],[61.1,18581],[61.4,18665],[62.2,18749],[62.9,18832],[63.2,18916],[63.5,18999],[63.6,19081],[63.9,19166],[64.1,19248],[64.5,19332],[65.1,19415],[65.1,19498],[65.1,19581],[65.1,19665],[65.1,19749],[65.4,19832],[65.8,19916],[66.4,19999],[66.8,20082],[67.4,20165],[67.6,20248],[67.6,20331],[67.6,20415],[67.6,20498],[67.6,20581],[67.6,20665],[67.6,20748],[67.6,20831],[67.6,20915],[67.6,20998],[67.6,21081],[67.6,21165],[67.6,21249],[67.6,21331],[67.6,21415],[67.6,21498],[67.6,21581],[67.6,21666],[67.6,21748],[67.6,21831],[67.6,21915],[67.6,21998],[67.6,22082],[67.6,22165],[67.6,22248],[67.6,22332],[67.6,22415],[67.6,22499],[67.6,22581],[67.6,22665],[67.6,22748],[67.6,22831],[67.6,22915],[67.6,22998],[67.6,23081],[67.6,23165],[67.6,23248],[67.6,23331],[67.6,23415],[67.6,23498],[67.6,23582],[67.6,23665],[67.6,23748],[67.6,23832],[67.6,23915],[67.6,23999],[67.6,24082],[67.6,24165],[67.6,24248],[67.6,24331],[67.6,24415],[67.6,24498],[67.6,24581],[67.6,24664],[67.6,24748],[67.6,24831],[69.3,24914],[70.2,24998],[70.5,25081],[70.8,25165],[70.8,25248],[70.8,25331],[70.8,25415],[70.8,25498],[70.8,25581],[70.8,25665],[70.8,25749],[70.8,25832],[70.8,25915],[70.8,25998],[70.8,26082],[70.8,26165],[70.8,26248],[70.8,26331],[70.8,26415],[70.8,26498],[70.8,26582],[70.8,26664],[70.8,26748],[70.8,26832],[70.8,26915],[70.8,26998],[70.8,27082],[70.8,27165],[70.8,27248],[70.8,27331],[70.8,27414],[70.8,27499],[70.8,27582],[70.8,27665],[70.8,27748],[70.8,27831],[70.8,27915],[70.8,27998],[70.8,28082],[70.8,28164],[70.8,28248],[70.8,28331],[70.8,28415],[70.8,28498],[70.8,28581],[70.8,28664],[70.8,28748],[70.8,28831],[70.8,28915],[70.8,28998],[70.8,29081],[70.8,29164],[70.8,29248],[70.8,29330],[70.8,29415],[70.8,29498],[70.8,29581],[70.8,29664],[70.8,29748],[70.8,29831],[70.8,29914],[70.8,29998],[70.8,30081],[70.8,30164],[70.8,30248],[70.8,30331],[70.8,30414],[70.8,30498],[70.8,30581],[70.8,30664],[70.8,30748],[70.8,30832],[70.8,30914],[70.8,30998],[70.8,31081],[70.8,31164],[70.8,31248],[70.8,31331],[70.8,31414],[70.8,31498],[70.8,31581],[70.8,31664],[70.8,31748],[70.8,31831],[70.8,31914],[70.8,31998],[70.8,32082],[70.8,32164],[70.8,32248],[70.8,32332],[70.8,32414],[70.8,32498],[70.8,32581],[70.8,32664],[70.8,32748],[70.8,32832],[70.8,32915],[70.8,32998],[71.2,33082],[71.7,33164],[72.3,33248],[72.7,33331],[73.1,33415],[73.6,33498],[73.9,33582],[73.9,33664],[73.9,33748],[73.9,33831],[73.9,33914],[73.9,33998],[73.9,34081],[73.9,34164],[73.9,34248],[73.9,34331],[73.9,34414],[73.9,34497],[73.9,34582],[73.9,34664],[73.9,34748],[73.9,34832],[73.9,34914],[73.9,34997],[73.9,35082],[73.9,35164],[73.9,35248],[73.9,35331],[73.9,35414],[73.9,35498],[73.9,35581],[73.9,35664],[73.9,35748],[73.9,35831],[73.9,35914],[73.9,35998],[73.9,36081],[73.9,36164],[73.9,36248],[73.9,36331],[73.9,36414],[73.9,36497],[73.9,36581],[73.9,36664],[73.9,36748],[73.9,36831],[73.9,36914],[73.9,36998],[73.9,37081],[73.9,37164],[73.9,37247],[73.9,37331],[73.9,37414],[73.9,37498],[73.9,37581],[73.9,37664],[73.9,37747],[73.9,37831],[73.9,37914],[73.9,37997],[73.9,38081],[73.9,38164],[73.9,38248],[73.9,38331],[73.9,38414],[73.9,38498],[73.9,38580],[73.9,38664],[73.9,38748],[73.9,38831],[73.9,38914],[73.9,38998],[73.9,39081],[73.9,39164],[73.9,39248],[73.9,39331],[73.9,39414],[73.9,39497]]",1,0,870.6282,874.7941,75.03660322,1.9597,"[{""rating"":75.03660322108345,""responseTime"":1.9596999999880609}]",space,3.6188,,874.7943,Not at all,0,874.8,,,[],,0,9,9,9,1,audio/Narrative7Situation9.wav,audio/Narrative8Situation9.wav,audio/Narrative5Situation9.wav,audio/Narrative6Situation9.wav,2,3,3,4,,,,,,,,,,,,,,,,,,,,,,,,,,,,,,,,,,,,,,,
,,,,,,5fb0a3d6a8e4224b973e750b,2024-02-08_13h22.13.209,group3.1-3.2-social-tom,2023.2.2,Win32,59.52380952,65c5074098b851296ff0b7ed,65c545acc283c23b8dc55025,,,,,,,,,,,,,,,,,,,,,,,,,,,,,874.8005,2,audio/Narrative6Situation1.wav,876.8103,,876.8105,903.3927,"[[71.1,2416],[68.6,2499],[68,2583],[67.1,2666],[61.7,2750],[52.2,2832],[47.7,2916],[44.1,2999],[43.3,3082],[43,3166],[43,3249],[44.9,3333],[50.6,3416],[55.1,3500],[59.5,3584],[62.2,3665],[65.5,3749],[68.4,3833],[70.8,3918],[72.1,4000],[72.8,4083],[73.6,4167],[74.6,4250],[76.1,4333],[77.1,4416],[77.5,4499],[77.5,4582],[77.5,4666],[77.5,4749],[77.5,4832],[77.5,4916],[77.5,4999],[77.5,5082],[77.5,5165],[77.5,5248],[77.5,5332],[77.5,5415],[77.5,5499],[77.5,5582],[77.5,5666],[77.5,5749],[77.5,5832],[77.5,5915],[77.5,5999],[77.5,6082],[77.5,6165],[77.5,6249],[77.5,6332],[77.5,6416],[77.5,6499],[77.5,6582],[77.5,6665],[77.5,6749],[77.5,6832],[77.5,6916],[77.5,6999],[77.5,7082],[77.5,7165],[77.5,7249],[77.5,7332],[77.5,7416],[77.5,7498],[77.5,7582],[77.5,7665],[77.5,7748],[77.5,7832],[77.5,7915],[77.5,7998],[77.5,8081],[77.5,8165],[77.5,8248],[77.5,8332],[77.5,8416],[77.5,8499],[77.5,8582],[77.5,8665],[77.5,8749],[77.5,8832],[77.5,8915],[77.5,8999],[77.5,9082],[77.5,9165],[78.6,9249],[79,9333],[79.3,9416],[79.6,9498],[80.3,9582],[80.5,9665],[79.4,9749],[78.1,9833],[77.4,9917],[76.9,9999],[76.8,10082],[76.6,10166],[76.6,10249],[76.6,10331],[76.6,10415],[76.6,10499],[76.6,10583],[76.6,10665],[76.6,10749],[76.6,10832],[76.6,10915],[76.6,10998],[76.6,11082],[76.6,11164],[76.6,11248],[76.6,11332],[76.6,11415],[76.6,11498],[76.6,11582],[76.6,11665],[76.6,11748],[76.6,11832],[76.6,11915],[76.6,11999],[76.6,12081],[76.6,12165],[76.6,12249],[76.6,12331],[76.6,12415],[76.6,12499],[76.6,12582],[76.6,12665],[76.6,12749],[76.6,12831],[76.6,12915],[76.6,12998],[76.6,13082],[76.6,13166],[76.6,13248],[76.6,13332],[76.6,13415],[76.6,13499],[76.6,13582],[76.6,13665],[76.6,13748],[76.6,13832],[76.6,13915],[76.6,13999],[76.6,14082],[76.8,14171],[77.1,14249],[77.8,14332],[79.1,14415],[79.9,14498],[80.3,14581],[81.2,14666],[82.4,14749],[82.7,14833],[82.7,14915],[82.4,14998],[81.2,15082],[79.7,15166],[78.4,15249],[77.4,15333],[76.8,15414],[76.6,15498],[76.6,15582],[76.6,15665],[76.6,15748],[76.6,15831],[76.6,15915],[76.6,15998],[76.6,16081],[76.6,16165],[76.6,16248],[76.6,16332],[76.6,16415],[76.6,16498],[76.6,16581],[76.6,16665],[76.6,16748],[76.6,16831],[76.6,16915],[76.6,16998],[76.6,17081],[76.6,17165],[76.6,17248],[76.6,17332],[76.6,17415],[76.6,17498],[76.6,17582],[76.6,17665],[76.6,17748],[76.6,17831],[76.6,17915],[76.6,17998],[76.6,18081],[76.6,18165],[76.6,18248],[76.6,18331],[76.6,18414],[76.6,18498],[76.6,18582],[76.6,18665],[76.6,18748],[76.6,18831],[76.6,18915],[76.6,18998],[76.6,19082],[76.6,19165],[76.6,19248],[76.6,19331],[76.6,19415],[76.6,19498],[76.6,19582],[76.6,19665],[76.6,19748],[76.6,19831],[76.6,19914],[76.6,19998],[76.6,20081],[76.6,20165],[76.6,20248],[76.6,20331],[76.6,20415],[76.6,20498],[76.6,20581],[76.6,20665],[76.6,20748],[76.6,20831],[76.6,20914],[76.6,20998],[76.6,21081],[76.6,21165],[76.6,21248],[76.6,21331],[76.6,21415],[76.6,21498],[76.6,21581],[76.6,21665],[76.6,21748],[76.6,21831],[76.6,21914],[76.6,21998],[76.6,22081],[76.6,22165],[76.6,22248],[76.6,22331],[76.6,22414],[76.6,22498],[76.6,22581],[76.6,22664],[76.6,22748],[76.6,22831],[76.6,22915],[76.6,22998],[76.6,23082],[76.4,23166],[74.9,23249],[73.9,23332],[73.1,23415],[72.5,23498],[72.4,23582],[72.4,23664],[73.3,23749],[76.1,23831],[76.5,23914],[76.6,23999],[76.8,24081],[77.2,24166],[77.7,24249],[78.6,24333],[79.6,24415],[80.2,24498],[81.8,24583],[84.6,24666],[85.3,24748],[86,24833],[86.3,24916],[86.3,24998],[86.5,25081],[86.5,25164],[86.3,25249],[86.2,25331],[85.6,25415],[85.1,25497],[84.7,25581],[84.6,25664],[84.7,25747],[85.3,25832],[85.6,25915],[85.9,25998],[86.2,26082],[87,26166],[88.4,26249],[88.7,26331],[88.7,26415],[88.7,26497],[88.7,26581]]",1,0,903.3932,905.2257,88.65300146,1.0216,"[{""rating"":88.65300146412885,""responseTime"":1.0216000000239092}]",space,1.2862,,905.2262,Not at all,0,905.2298,,,[],,0,10,10,10,1,audio/Narrative8Situation1.wav,audio/Narrative7Situation1.wav,audio/Narrative6Situation1.wav,audio/Narrative5Situation1.wav,5,2,2,5,,,,,,,,,,,,,,,,,,,,,,,,,,,,,,,,,,,,,,,
,,,,,,5fb0a3d6a8e4224b973e750b,2024-02-08_13h22.13.209,group3.1-3.2-social-tom,2023.2.2,Win32,59.52380952,65c5074098b851296ff0b7ed,65c545acc283c23b8dc55025,,,,,,,,,,,,,,,,,,,,,,,,,,,,,905.2303,2,audio/Narrative6Situation2.wav,908.2421,,908.2423,936.7585,"[[87.9,1667],[87.3,1750],[86.9,1832],[86.6,1916],[86.3,1999],[85.4,2083],[84.7,2166],[84.4,2249],[83.8,2333],[82.8,2416],[81.3,2499],[80.5,2583],[80.5,2665],[80.5,2749],[80.5,2832],[80.5,2915],[80.5,2999],[80.5,3082],[80.5,3165],[80.5,3249],[80.5,3332],[80.5,3415],[80.5,3498],[80.5,3582],[80.5,3665],[80.5,3749],[80.5,3832],[80.5,3915],[80.5,3999],[80.5,4082],[80.5,4165],[80.5,4249],[80.5,4332],[80.5,4415],[80.5,4498],[80.5,4582],[80.5,4665],[80.5,4749],[80.5,4832],[80.5,4915],[80.5,4999],[80.5,5082],[80.5,5165],[80.5,5249],[80.5,5332],[80.5,5415],[80.5,5498],[80.5,5583],[80.5,5665],[80.5,5748],[80.5,5832],[80.5,5915],[80.5,5998],[80.5,6082],[80.5,6165],[80.5,6249],[80.5,6332],[80.5,6415],[80.5,6499],[80.5,6582],[80.5,6665],[80.5,6748],[80.5,6832],[80.5,6915],[80.5,6998],[80.5,7082],[80.5,7165],[80.5,7248],[80.5,7332],[80.5,7415],[80.5,7499],[80.5,7582],[80.5,7665],[80.5,7749],[80.5,7832],[80.5,7915],[80.5,7999],[80.5,8082],[80.5,8165],[80.5,8248],[80.5,8332],[80.5,8415],[80.5,8499],[80.5,8582],[79.9,8666],[79.3,8748],[78.8,8833],[78.6,8915],[78.3,8999],[78,9082],[78,9165],[78,9248],[78,9332],[78,9415],[78,9499],[78,9581],[78,9665],[78,9748],[78,9831],[78,9915],[78,9998],[78,10082],[78,10165],[78,10248],[78,10332],[78,10415],[78,10498],[78,10582],[78,10665],[78,10748],[78,10832],[78,10915],[78,10998],[78,11082],[78,11165],[78,11248],[78,11332],[78,11415],[78,11498],[78,11581],[78,11665],[78,11748],[78,11832],[78,11915],[78,11998],[78,12082],[78,12165],[78,12249],[78,12332],[78,12415],[78,12499],[78,12581],[78,12665],[78,12748],[78,12832],[78,12915],[78,12998],[78,13082],[78,13164],[78,13248],[78,13332],[78,13415],[78,13498],[78,13582],[78,13665],[78,13749],[77.2,13836],[76.4,13915],[75.9,13998],[75.3,14083],[74.7,14165],[74.7,14248],[74.7,14332],[74.7,14415],[74.7,14498],[74.7,14581],[74.7,14665],[74.7,14748],[74.7,14832],[74.7,14915],[74.7,14998],[74.7,15081],[74.7,15165],[74.7,15248],[74.7,15332],[74.7,15415],[74.7,15499],[74.7,15582],[74.7,15665],[74.7,15749],[74.7,15832],[74.7,15915],[74.7,15998],[74.7,16082],[74.7,16165],[74.7,16248],[74.7,16332],[74.7,16415],[74.7,16498],[74.7,16582],[74.7,16664],[74.7,16748],[74.7,16831],[74.7,16915],[74.7,16998],[74.7,17082],[74.7,17165],[74.7,17248],[74.7,17332],[74.7,17415],[74.7,17498],[74.7,17581],[74.7,17664],[74.7,17748],[74.7,17831],[74.7,17915],[74.7,17998],[74.7,18082],[74.7,18164],[74.7,18248],[74.7,18332],[74.7,18414],[74.7,18498],[74.7,18582],[73.7,18665],[73.1,18748],[72.8,18833],[72.8,18915],[72.8,18998],[72.8,19082],[72.8,19164],[72.8,19248],[72.8,19332],[72.8,19415],[72.8,19498],[72.8,19581],[72.8,19665],[72.8,19748],[72.8,19831],[72.8,19915],[72.8,19998],[72.8,20082],[72.8,20164],[72.8,20248],[72.8,20331],[72.8,20415],[72.8,20498],[72.8,20581],[72.8,20664],[72.8,20748],[72.8,20831],[72.8,20914],[72.8,20998],[72.8,21082],[72.8,21164],[72.8,21248],[72.8,21331],[72.8,21415],[72.8,21498],[72.8,21583],[72.8,21665],[72.8,21748],[72.8,21831],[72.8,21915],[72.8,21998],[72.8,22081],[72.8,22165],[72.8,22248],[72.8,22331],[72.8,22414],[72.8,22497],[72.8,22581],[72.8,22664],[72.8,22748],[72.8,22832],[72.8,22914],[72.8,22998],[72.8,23081],[72.8,23164],[72.8,23248],[72.8,23331],[73,23416],[73.9,23499],[74.3,23581],[74.6,23666],[74.7,23748],[74.7,23831],[74.7,23914],[74.7,23997],[74.7,24081],[74.7,24164],[74.7,24248],[74.7,24331],[74.7,24414],[74.7,24498],[74.7,24581],[74.7,24664],[74.7,24748],[74.7,24831],[74.7,24915],[74.7,24998],[74.7,25082],[74.7,25165],[74.7,25248],[74.7,25331],[74.7,25415],[74.7,25498],[74.7,25581],[74.7,25665],[74.7,25748],[74.7,25831],[74.7,25915],[74.7,25998],[74.7,26081],[74.7,26164],[74.7,26248],[74.7,26331],[74.7,26414],[74.7,26498],[74.7,26581],[74.7,26664],[74.7,26748],[74.7,26831],[74.7,26914],[74.7,26998],[74.7,27081],[74.7,27165],[74.7,27248],[74.7,27331],[74.7,27415],[74.7,27498],[74.7,27581],[74.7,27665],[75.8,27748],[76.5,27832],[76.6,27914],[77.1,27998],[77.1,28081],[77.1,28165],[77.1,28248],[77.1,28331],[77.1,28415],[77.1,28498]]",1,0,936.759,939.6579,76.93997072,2.229,"[{""rating"":76.93997071742314,""responseTime"":2.228999999999928}]",space,2.351,,939.6581,Not at all,0,939.6616,,,[],,0,11,11,11,1,audio/Narrative8Situation2.wav,audio/Narrative7Situation2.wav,audio/Narrative6Situation2.wav,audio/Narrative5Situation2.wav,3,3,3,3,,,,,,,,,,,,,,,,,,,,,,,,,,,,,,,,,,,,,,,
,,,,,,5fb0a3d6a8e4224b973e750b,2024-02-08_13h22.13.209,group3.1-3.2-social-tom,2023.2.2,Win32,59.52380952,65c5074098b851296ff0b7ed,65c545acc283c23b8dc55025,,,,,,,,,,,,,,,,,,,,,,,,,,,,,939.662,2,audio/Narrative6Situation3.wav,944.6736,,944.6738,957.2901,"[[76.4,1250],[75.5,1334],[75,1416],[74.9,1499],[74.9,1583],[74.7,1666],[74.5,1750],[73.9,1834],[73,1918],[72.1,2000],[71.2,2084],[70.8,2167],[69.8,2251],[68.6,2333],[68.6,2416],[68.6,2499],[68.6,2582],[69.2,2666],[70.6,2749],[72,2833],[73,2917],[74,3000],[74.9,3084],[75.3,3167],[75.5,3249],[75.9,3332],[76.5,3416],[76.6,3499],[76.8,3582],[76.8,3666],[76.8,3749],[76.8,3833],[76.8,3915],[76.8,3998],[76.8,4081],[76.8,4166],[76.8,4249],[76.8,4332],[76.8,4416],[76.8,4499],[76.8,4583],[76.8,4666],[76.8,4749],[76.8,4832],[76.8,4916],[76.8,4999],[76.8,5082],[76.8,5165],[76.8,5249],[76.8,5332],[76.8,5415],[76.8,5499],[76.8,5583],[76.8,5665],[76.8,5748],[76.8,5833],[76.8,5915],[76.8,5999],[76.8,6082],[76.8,6165],[76.8,6249],[76.8,6333],[76.8,6416],[76.8,6499],[76.8,6582],[76.8,6665],[76.8,6749],[76.8,6832],[76.8,6915],[76.8,6999],[76.8,7082],[76.8,7165],[76.8,7249],[76.8,7332],[76.8,7416],[76.8,7499],[76.8,7583],[76.8,7665],[76.8,7749],[76.8,7833],[76.8,7915],[76.8,7999],[76.8,8082],[76.8,8165],[76.8,8249],[76.8,8333],[76.8,8415],[76.8,8499],[76.8,8582],[76.8,8665],[76.8,8749],[76.8,8832],[76.8,8916],[76.8,8999],[76.8,9082],[76.8,9165],[76.8,9249],[76.8,9332],[76.8,9415],[76.8,9499],[76.8,9583],[76.8,9666],[76.8,9749],[76.8,9832],[76.9,9916],[78.1,10000],[79.3,10083],[80.3,10165],[81,10249],[81.6,10332],[82.2,10416],[82.5,10498],[83.5,10583],[84.3,10666],[84.3,10749],[84.3,10832],[84.3,10915],[84.3,10999],[84.3,11082],[84.3,11165],[84.3,11249],[84.3,11333],[84.3,11415],[84.3,11499],[84.3,11582],[84.3,11665],[84.3,11749],[84.3,11832],[84.3,11915],[84.3,11999],[84.3,12082],[84.3,12165],[84.3,12249],[84.3,12332],[84.3,12415],[84.3,12498],[84.3,12583]]",1,0,957.2904,959.7898,84.40702782,1.5718,"[{""rating"":84.40702781844803,""responseTime"":1.57180000001199}]",space,1.9744,,959.7899,Not at all,0,959.7933,,,[],,0,12,12,12,1,audio/Narrative8Situation3.wav,audio/Narrative7Situation3.wav,audio/Narrative6Situation3.wav,audio/Narrative5Situation3.wav,4,8,5,3,,,,,,,,,,,,,,,,,,,,,,,,,,,,,,,,,,,,,,,
,,,,,,5fb0a3d6a8e4224b973e750b,2024-02-08_13h22.13.209,group3.1-3.2-social-tom,2023.2.2,Win32,59.52380952,65c5074098b851296ff0b7ed,65c545acc283c23b8dc55025,,,,,,,,,,,,,,,,,,,,,,,,,,,,,959.7938,2,audio/Narrative6Situation4.wav,961.8059,,961.806,974.406,"[[82.8,6916],[81.3,6999],[80,7082],[79.4,7166],[78.6,7251],[77.2,7333],[76.4,7417],[74.6,7500],[73,7583],[71.8,7666],[69.6,7749],[68.9,7832],[68.9,7916],[71.4,8000],[73.9,8083],[74.7,8167],[75.8,8250],[76.9,8334],[77.4,8417],[77.7,8500],[77.8,8582],[78,8665],[78.4,8749],[79.7,8833],[81,8916],[81.3,8999],[81.2,9083],[79,9167],[77.8,9250],[76.2,9333],[75.8,9415],[75.6,9499],[75.3,9583],[74.3,9666],[73.7,9749],[73.4,9832],[73.9,9916],[73.9,9999],[73.9,10082],[73.9,10166],[73.9,10249],[73.9,10332],[74.2,10417],[75.9,10499],[78.8,10583],[80,10666],[80.7,10749],[82.8,10832],[85.6,10916],[86.9,11000],[87.6,11083],[88.7,11166],[89.2,11249],[90.3,11333],[91.7,11416],[92,11499],[92.2,11582],[92.2,11665],[92,11749],[92,11832],[92,11916],[92,11999],[92,12082],[92,12165],[92,12249],[92,12332],[92,12415],[92,12499],[92,12582]]",1,0,974.4066,975.5563,91.43484627,0.6057,"[{""rating"":91.43484626647145,""responseTime"":0.605699999988019}]",space,0.607,,975.5566,Not at all,0,975.5598,,,[],,0,13,13,13,1,audio/Narrative8Situation4.wav,audio/Narrative7Situation4.wav,audio/Narrative6Situation4.wav,audio/Narrative5Situation4.wav,3,3,2,1,,,,,,,,,,,,,,,,,,,,,,,,,,,,,,,,,,,,,,,
,,,,,,5fb0a3d6a8e4224b973e750b,2024-02-08_13h22.13.209,group3.1-3.2-social-tom,2023.2.2,Win32,59.52380952,65c5074098b851296ff0b7ed,65c545acc283c23b8dc55025,,,,,,,,,,,,,,,,,,,,,,,,,,,,,975.5602,2,audio/Narrative6Situation5.wav,977.572,,977.5723,985.5384,"[[90.3,4250],[89.5,4334],[88.9,4416],[87,4499],[83.8,4583],[81.3,4666],[80.5,4750],[79.1,4832],[77.7,4916],[77.7,4999],[77.7,5082],[77.7,5165],[77.7,5249],[77.7,5333],[77.7,5415],[77.7,5499],[77.7,5582],[77.7,5666],[77.7,5749],[77.7,5832],[77.7,5915],[77.7,5998],[77.7,6082],[77.7,6165],[77.7,6249],[77.7,6332],[77.7,6415],[77.7,6499],[77.7,6582],[77.5,6666],[78,6749],[80.5,6833],[81.6,6915],[82.5,6999],[83.4,7083],[84,7167],[84.8,7249],[85.6,7333],[86.7,7416],[87.6,7500],[87.8,7582],[87.8,7665],[87.8,7749],[87.8,7832],[87.8,7915]]",1,0,985.5388,987.8054,87.77452416,1.1056,"[{""rating"":87.77452415812593,""responseTime"":1.1055999999939559}]",space,1.7175,,987.8057,Not at all,0,987.8097,,,[],,0,14,14,14,1,audio/Narrative8Situation5.wav,audio/Narrative7Situation5.wav,audio/Narrative6Situation5.wav,audio/Narrative5Situation5.wav,2,5,2,5,,,,,,,,,,,,,,,,,,,,,,,,,,,,,,,,,,,,,,,
,,,,,,5fb0a3d6a8e4224b973e750b,2024-02-08_13h22.13.209,group3.1-3.2-social-tom,2023.2.2,Win32,59.52380952,65c5074098b851296ff0b7ed,65c545acc283c23b8dc55025,,,,,,,,,,,,,,,,,,,,,,,,,,,,,987.8102,2,audio/Narrative6Situation6.wav,989.8214,,989.8217,1000.9048,"[[87.6,668],[86.5,751],[84.1,834],[83.2,917],[82.4,1000],[80.7,1083],[78.8,1166],[77.7,1250],[76.6,1334],[76.2,1415],[75.9,1499],[75.8,1583],[75.6,1665],[75.6,1749],[75.6,1832],[75.8,1915],[75.8,1999],[75.5,2082],[74,2166],[72.7,2250],[71.8,2332],[71.4,2416],[71.1,2499],[71.4,2583],[72.4,2666],[73.3,2749],[74.3,2833],[75,2917],[76.2,3000],[77.7,3083],[79,3167],[81,3250],[82.4,3333],[82.5,3416],[82.7,3499],[83.1,3583],[85,3666],[86.7,3750],[87,3832],[87.2,3916],[87.2,3999],[87.2,4082],[87.2,4165],[87.2,4249],[87.2,4332],[87.2,4415],[87.2,4499],[87.2,4582],[87.9,4666],[88.5,4749],[88.9,4833],[89.4,4915],[90.1,5000],[90.7,5083],[90.7,5165],[90.8,5249],[90.8,5332],[90.8,5415],[91,5499],[91.1,5583],[91.1,5665],[91.3,5749],[91.4,5832],[91.6,5915],[92,6000],[92.2,6083],[92.5,6166],[93,6250],[93.2,6332],[93.3,6417],[93.3,6499],[93.3,6582],[93.5,6665],[93.8,6750],[93.8,6832],[93.8,6915],[93.8,6999],[93.8,7082],[93.8,7165],[93.8,7249],[93.8,7332],[93.8,7415],[93.9,7499],[94.2,7582],[94.7,7666],[94.8,7749],[95.2,7834],[95.4,7915],[95.7,7999],[95.7,8082],[95.8,8167],[96,8249],[96,8332],[96.1,8416],[96.1,8499],[96.3,8582],[96.7,8666],[96.9,8749],[97,8832],[97.3,8915],[97.4,8999],[97.7,9082],[98,9166],[98,9249],[98.2,9332],[98.2,9415],[98.2,9499],[98.2,9582],[98.2,9665],[98.2,9749],[98.2,9832],[98.2,9915],[98.2,9999],[98.2,10082],[98.2,10165],[98.2,10249],[98.2,10331],[98.2,10415],[98.2,10499],[98.2,10582],[98.2,10666],[98.2,10749],[98.2,10832],[98.2,10915],[98.2,10999],[98.2,11082]]",1,0,1000.9053,1003.0879,99.19472914,1.4553,"[{""rating"":99.19472913616399,""responseTime"":1.4552999999821168}]",space,1.6414,,1003.0881,All the time,100,1003.093,,,[],,0,15,15,15,1,audio/Narrative8Situation6.wav,audio/Narrative7Situation6.wav,audio/Narrative6Situation6.wav,audio/Narrative5Situation6.wav,2,3,2,3,,,,,,,,,,,,,,,,,,,,,,,,,,,,,,,,,,,,,,,
