exp_question,consent.started,consent.stopped,consentResponse.keys,consentResponse.rt,consentResponse.duration,participantID,date,expName,psychopyVersion,OS,frameRate,STUDY_ID,SESSION_ID,opening1.started,opening1.stopped,keyEndingOpening1.keys,keyEndingOpening1.rt,keyEndingOpening1.duration,volumeAdjust.started,volumeAdjust.stopped,endingAdjust.keys,endingAdjust.rt,endingAdjust.duration,opening2.started,opening2.stopped,keyEndingOpening.keys,keyEndingOpening.rt,keyEndingOpening.duration,mouse.x,mouse.y,mouse.leftButton,mouse.midButton,mouse.rightButton,mouse.time,instructionLoop.thisRepN,instructionLoop.thisTrialN,instructionLoop.thisN,instructionLoop.thisIndex,instructionLoop.ran,readyForAudio.started,readyForAudio.stopped,fixation.started,run,audio_played,fixation.stopped,endPractice.keys,audioPre.started,audioPre.stopped,continuousResponses_audio,continuousSlider.response,continuousSlider.rt,intRating.started,intRating.stopped,intQuestionSlider.response,intQuestionSlider.rt,intQuestionSlider.history,confirmResponse.keys,confirmResponse.rt,confirmResponse.duration,catchQuestion.started,catch_label,catch_value,catchQuestion.stopped,catchQuestionSlider.response,catchQuestionSlider.rt,catchQuestionSlider.history,confirmResponse_2.keys,audioRunLoop.thisRepN,audioRunLoop.thisTrialN,audioRunLoop.thisN,audioRunLoop.thisIndex,audioRunLoop.ran,conditions1_1,conditions2_1,conditions1_2,conditions2_2,dur1_1,dur2_1,dur1_2,dur2_2,endPractice.rt,endPractice.duration,confirmResponse_2.rt,confirmResponse_2.duration,runIntervalBreak.started,runIntervalBreak.stopped,endingBreakKey.keys,endingBreakKey.rt,endingBreakKey.duration,connection.started,connection.stopped,connectionEnding.keys,connectionEnding.rt,connectionEnding.duration,readyForText.started,readyForText.stopped,textPre.started,run_dup,textPre.stopped,continuousResponses_text,textRunLoop.thisRepN,textRunLoop.thisTrialN,textRunLoop.thisN,textRunLoop.thisIndex,textRunLoop.ran,text1_1,text1_2,text2_1,text2_2,runBreakText.started,runBreakText.stopped,endingBreakKey_2.keys,endingBreakKey_2.rt,endingBreakKey_2.duration,ending.started,ending.stopped,endingEnding.keys,endingEnding.rt,endingEnding.duration
social,0.0004,25.4642,y,25.1457,,5fb2c8b4b04a8594fc0a3825,2024-02-08_16h20.38.359,group3.1-3.2-social-tom,2023.2.2,Linux x86_64,59.88023952,65c5074098b851296ff0b7ed,65c54579655c38d7add30981,,,,,,,,,,,,,,,,,,,,,,,,,,,,,,,,,,,,,,,,,,,,,,,,,,,,,,,,,,,,,,,,,,,,,,,,,,,,,,,,,,,,,,,,,,,,,,,,,,,,,,,,,,
,,,,,,5fb2c8b4b04a8594fc0a3825,2024-02-08_16h20.38.359,group3.1-3.2-social-tom,2023.2.2,Linux x86_64,59.88023952,65c5074098b851296ff0b7ed,65c54579655c38d7add30981,25.4648,33.279,space,7.7752,,,,,,,,,,,,,,,,,,,,,,,,,,,,,,,,,,,,,,,,,,,,,,,,,,,,,,,,,,,,,,,,,,,,,,,,,,,,,,,,,,,,,,,,,,,,,,,,,,,,,,
,,,,,,5fb2c8b4b04a8594fc0a3825,2024-02-08_16h20.38.359,group3.1-3.2-social-tom,2023.2.2,Linux x86_64,59.88023952,65c5074098b851296ff0b7ed,65c54579655c38d7add30981,,,,,,33.2794,53.5584,space,19.9442,,,,,,,,,,,,,,,,,,,,,,,,,,,,,,,,,,,,,,,,,,,,,,,,,,,,,,,,,,,,,,,,,,,,,,,,,,,,,,,,,,,,,,,,,,,,,,,,,
,,,,,,5fb2c8b4b04a8594fc0a3825,2024-02-08_16h20.38.359,group3.1-3.2-social-tom,2023.2.2,Linux x86_64,59.88023952,65c5074098b851296ff0b7ed,65c54579655c38d7add30981,,,,,,,,,,,53.5806,65.6223,space,12.0193,,[],[],[],[],[],[],0,0,0,0,1,,,,,,,,,,,,,,,,,,,,,,,,,,,,,,,,,,,,,,,,,,,,,,,,,,,,,,,,,,,,,,,,,,,,,,,,,,,,,,,,
,,,,,,5fb2c8b4b04a8594fc0a3825,2024-02-08_16h20.38.359,group3.1-3.2-social-tom,2023.2.2,Linux x86_64,59.88023952,65c5074098b851296ff0b7ed,65c54579655c38d7add30981,,,,,,,,,,,65.6376,107.3454,space,41.5607,,[],[],[],[],[],[],1,0,1,0,1,,,,,,,,,,,,,,,,,,,,,,,,,,,,,,,,,,,,,,,,,,,,,,,,,,,,,,,,,,,,,,,,,,,,,,,,,,,,,,,,
,,,,,,5fb2c8b4b04a8594fc0a3825,2024-02-08_16h20.38.359,group3.1-3.2-social-tom,2023.2.2,Linux x86_64,59.88023952,65c5074098b851296ff0b7ed,65c54579655c38d7add30981,,,,,,,,,,,107.3739,131.8061,space,24.3538,,[],[],[],[],[],[],2,0,2,0,1,,,,,,,,,,,,,,,,,,,,,,,,,,,,,,,,,,,,,,,,,,,,,,,,,,,,,,,,,,,,,,,,,,,,,,,,,,,,,,,,
,,,,,,5fb2c8b4b04a8594fc0a3825,2024-02-08_16h20.38.359,group3.1-3.2-social-tom,2023.2.2,Linux x86_64,59.88023952,65c5074098b851296ff0b7ed,65c54579655c38d7add30981,,,,,,,,,,,131.8241,192.7089,space,60.8608,,[-0.009375],[0.234375],[1],[0],[0],[18.269699999928463],3,0,3,0,1,,,,,,,,,,,,,,,,,,,,,,,,,,,,,,,,,,,,,,,,,,,,,,,,,,,,,,,,,,,,,,,,,,,,,,,,,,,,,,,,
,,,,,,5fb2c8b4b04a8594fc0a3825,2024-02-08_16h20.38.359,group3.1-3.2-social-tom,2023.2.2,Linux x86_64,59.88023952,65c5074098b851296ff0b7ed,65c54579655c38d7add30981,,,,,,,,,,,192.7378,203.2729,space,10.5089,,[],[],[],[],[],[],4,0,4,0,1,,,,,,,,,,,,,,,,,,,,,,,,,,,,,,,,,,,,,,,,,,,,,,,,,,,,,,,,,,,,,,,,,,,,,,,,,,,,,,,,
,,,,,,5fb2c8b4b04a8594fc0a3825,2024-02-08_16h20.38.359,group3.1-3.2-social-tom,2023.2.2,Linux x86_64,59.88023952,65c5074098b851296ff0b7ed,65c54579655c38d7add30981,,,,,,,,,,,,,,,,,,,,,,,,,,,203.3058,205.8886,205.9235,1,audio/Narrative13Situation2.wav,207.9387,,207.9392,237.7171,"[[999,3],[999,123],[999,199],[999,282],[999,365],[999,448],[999,531],[999,615],[999,697],[999,781],[999,865],[999,948],[999,1030],[999,1114],[999,1197],[999,1281],[999,1364],[999,1447],[999,1531],[999,1614],[999,1698],[999,1788],[999,1865],[999,1948],[999,2030],[999,2114],[6.6,2199],[5.5,2281],[4.1,2364],[4.1,2448],[3.8,2531],[3.6,2615],[3.3,2698],[2.7,2781],[1.6,2865],[1.6,2948],[1.6,3031],[1.6,3114],[1.6,3197],[1.6,3280],[1.6,3363],[1.6,3448],[1.6,3531],[1.6,3614],[1.6,3698],[1.6,3781],[1.6,3864],[1.6,3948],[1.6,4030],[1.6,4114],[1.6,4197],[1.6,4281],[1.6,4364],[1.6,4447],[1.6,4531],[1.6,4613],[1.6,4698],[1.6,4780],[1.6,4864],[1.6,4947],[1.6,5030],[1.6,5113],[1.6,5197],[1.6,5281],[1.6,5363],[1.6,5447],[1.6,5530],[1.6,5614],[1.6,5697],[1.6,5780],[1.6,5864],[1.6,5947],[1.6,6030],[1.6,6113],[1.6,6196],[1.6,6280],[1.6,6363],[1.6,6447],[1.6,6530],[1.6,6613],[1.6,6697],[1.6,6780],[1.6,6863],[1.6,6947],[1.6,7030],[1.6,7113],[1.6,7197],[1.6,7280],[1.6,7363],[1.6,7446],[1.6,7530],[1.9,7616],[1.9,7696],[1.9,7779],[1.9,7863],[1.9,7946],[1.9,8030],[1.9,8113],[2,8196],[2,8279],[2,8364],[2,8446],[2,8529],[2,8613],[2.8,8697],[5.2,8780],[5.2,8863],[5.2,8946],[5.2,9029],[5.2,9113],[5.2,9196],[5.2,9279],[5.2,9363],[4.7,9446],[4.4,9529],[3.8,9613],[3,9696],[2.7,9779],[2.5,9863],[2.5,9946],[2.5,10029],[2.5,10112],[2.5,10196],[2.5,10279],[2.5,10363],[2.5,10446],[2.5,10529],[4.5,10612],[6.4,10696],[43.4,10780],[82.2,10863],[90.8,10946],[90.8,11029],[90.8,11112],[90.8,11196],[92.5,11278],[93.3,11363],[94.5,11446],[94.5,11529],[94.5,11612],[96.3,11696],[97.8,11779],[97.8,11862],[97.8,11945],[99.5,12029],[100,12112],[100,12195],[100,12279],[100,12362],[100,12445],[100,12528],[100,12612],[100,12695],[100,12779],[100,12861],[100,12945],[100,13029],[100,13112],[100,13195],[100,13278],[100,13362],[100,13445],[100,13528],[100,13612],[100,13695],[100,13778],[100,13861],[100,13945],[100,14028],[100,14111],[100,14195],[100,14278],[100,14362],[100,14445],[100,14528],[100,14612],[100,14694],[100,14778],[100,14861],[100,14945],[100,15028],[100,15111],[100,15194],[100,15278],[100,15361],[100,15444],[100,15528],[100,15611],[100,15694],[100,15778],[100,15861],[100,15945],[100,16027],[92.5,16112],[88.9,16195],[88.9,16278],[87.5,16361],[81.4,16444],[56.7,16529],[48.6,16611],[47.7,16694],[67.2,16778],[100,16862],[100,16944],[100,17028],[100,17112],[68.9,17195],[31.3,17277],[8.1,17361],[8.1,17444]]",1,0,237.7178,252.0626,23.125,10.9437,"[{""rating"":23.125,""responseTime"":10.94370000004767}]",space,13.803,,252.0634,Not at all,0,252.0695,,,[],,0,0,0,0,1,audio/Narrative13Situation2.wav,audio/Narrative13Situation2.wav,audio/Narrative13Situation2.wav,audio/Narrative13Situation2.wav,2,2,2,2,,,,,,,,,,,,,,,,,,,,,,,,,,,,,,,,,,,,,,,
,,,,,,5fb2c8b4b04a8594fc0a3825,2024-02-08_16h20.38.359,group3.1-3.2-social-tom,2023.2.2,Linux x86_64,59.88023952,65c5074098b851296ff0b7ed,65c54579655c38d7add30981,,,,,,,,,,,,,,,,,,,,,,,,,,,,,252.0701,1,audio/Narrative8Situation1.wav,254.4274,space,254.4275,270.3571,"[[999,2],[999,82],[999,165],[999,249],[999,332],[999,415],[999,499],[999,582],[999,667],[999,750],[999,834],[999,916],[999,999],[999,1083],[999,1166],[999,1249],[999,1333],[999,1416],[999,1499],[999,1583],[999,1665],[999,1749],[6.7,9347],[17.3,9430],[32.8,9514],[40.5,9596],[40.5,9680],[47.3,9764],[50.9,9847],[50.9,9930],[50.9,10013],[50.8,10097],[50.8,10180],[50.8,10263],[50.8,10346],[50.8,10430],[50.8,10513],[50.8,10596],[50.8,10680],[50.8,10763],[50.8,10847],[50.8,10930],[50.8,11013],[50.8,11096],[50.8,11180],[50.8,11263],[50.8,11347],[50.8,11429],[50.8,11513],[50.8,11597],[50.8,11680],[50.8,11763],[50.8,11846],[50.8,11929],[50.8,12013],[50.8,12096],[50.8,12180],[50.8,12263],[50.8,12347],[50.8,12429],[50.8,12513],[50.8,12597],[50.8,12679],[50.8,12763],[50.8,12847],[50.8,12929],[50.8,13012],[50.8,13096],[50.8,13179],[50.8,13263],[50.8,13346],[50.8,13430],[50.8,13512],[50.8,13596],[50.8,13679],[50.8,13762],[50.8,13846],[50.8,13929],[50.8,14013],[50.8,14096],[50.8,14180],[50.8,14263],[50.8,14345],[50.8,14430],[50.5,14530],[50.5,14612],[50.5,14696],[50.5,14778],[50.5,14862],[50.5,14945],[50.5,15029],[50.5,15112],[45.9,15196]]",1,0,270.3575,276.8554,21.71875,3.6575,"[{""rating"":21.718749999999996,""responseTime"":3.6575000000000273}]",space,5.9538,,276.8556,Partially,50,282.1208,49.84375,4.4538,"[{""rating"":49.84375,""responseTime"":4.4537999999523095}]",space,0,1,1,1,1,audio/Narrative7Situation1.wav,audio/Narrative8Situation1.wav,audio/Narrative5Situation1.wav,audio/Narrative6Situation1.wav,2,5,5,2,2.3417,,4.7197,,,,,,,,,,,,,,,,,,,,,,,,,,,,,,,,,,,,
,,,,,,5fb2c8b4b04a8594fc0a3825,2024-02-08_16h20.38.359,group3.1-3.2-social-tom,2023.2.2,Linux x86_64,59.88023952,65c5074098b851296ff0b7ed,65c54579655c38d7add30981,,,,,,,,,,,,,,,,,,,,,,,,,,,,,282.1211,1,audio/Narrative8Situation2.wav,285.1368,,285.1368,295.2682,"[[49.2,1999],[34.4,2082],[0.5,2582],[0.5,2665],[0.5,2749],[0.5,2832],[0.5,2915],[0.5,2998],[0.5,3082],[0.5,3165],[0.5,3248],[0.5,3332],[0.5,3414],[0.5,3498],[0.6,3582],[0.6,3665],[0.6,3748],[0.6,3831],[0.6,3914],[0.6,3998],[0.6,4082],[0.6,4164],[0.6,4248],[0.6,4332],[0.6,4415],[0.6,4498],[0.8,4582],[0.8,4665],[0.9,4749],[1.3,4832],[1.3,4916],[1.3,4998],[1.3,5081],[1.1,5165],[0.8,5248],[0.8,5332],[0.8,5415],[0.8,5498],[0.8,5582],[0.5,5665],[0.2,5748]]",1,0,295.2683,301.5327,0,5.141,"[{""rating"":1.4062499999999978,""responseTime"":3.9647999999522767},{""rating"":0,""responseTime"":5.140999999999963}]",space,5.7166,,301.5328,Not at all,0,301.5411,,,[],,0,2,2,2,1,audio/Narrative7Situation2.wav,audio/Narrative8Situation2.wav,audio/Narrative5Situation2.wav,audio/Narrative6Situation2.wav,3,3,3,3,,,,,,,,,,,,,,,,,,,,,,,,,,,,,,,,,,,,,,,
,,,,,,5fb2c8b4b04a8594fc0a3825,2024-02-08_16h20.38.359,group3.1-3.2-social-tom,2023.2.2,Linux x86_64,59.88023952,65c5074098b851296ff0b7ed,65c54579655c38d7add30981,,,,,,,,,,,,,,,,,,,,,,,,,,,,,301.5417,1,audio/Narrative8Situation3.wav,305.5487,,305.5488,327.9433,"[[999,27],[999,98],[999,182],[999,266],[999,349],[999,432],[999,516],[999,599],[999,683],[999,766],[999,849],[999,932],[999,1015],[999,1098],[999,1182],[999,1265],[999,1349],[999,1432],[999,1515],[999,1598],[999,1682],[999,1765],[999,1849],[999,1932],[999,2015],[999,2099],[999,2182],[999,2265],[999,2349],[999,2432],[999,2515],[999,2598],[999,2682],[999,2765],[999,2848],[999,2932],[999,3015],[999,3099],[999,3182],[999,3265],[999,3348],[8.8,8267],[23,8348],[32.5,8431],[37.7,8514],[41.7,8598],[43.4,8680],[46.4,8763],[48,8847],[48.6,8930],[48.6,9013],[48.9,9096],[49.1,9180],[49.2,9264],[49.2,9347],[49.4,9430],[49.4,9513],[49.4,9597],[49.4,9680],[49.4,9763],[49.4,9847],[49.4,9930],[49.4,10013],[49.4,10096],[49.4,10179],[49.4,10263],[49.4,10346],[49.4,10430],[49.4,10513],[49.4,10596],[49.4,10679],[49.4,10763],[49.4,10846],[49.4,10929],[49.4,11013],[49.4,11096],[49.4,11180],[49.4,11263],[49.4,11346],[49.4,11430],[49.4,11513],[49.4,11596],[49.4,11680],[49.4,11763],[49.4,11846],[49.4,11930],[49.4,12013],[49.4,12096],[49.4,12179],[49.4,12263],[49.4,12346],[49.4,12430],[49.4,12513],[49.4,12596],[49.4,12679],[49.4,12763],[49.4,12845],[49.4,12929],[49.4,13012],[49.4,13096],[49.4,13179],[49.4,13263],[49.4,13345],[49.4,13429],[49.4,13513],[49.4,13596],[49.4,13679],[49.4,13762],[49.4,13846],[49.4,13929],[49.4,14012],[49.4,14096],[49.4,14178],[49.4,14262],[49.4,14346],[49.4,14429],[49.4,14512],[49.4,14596],[49.4,14679],[49.4,14762],[49.4,14846],[49.4,14929],[49.4,15012],[49.4,15095],[49.5,15179],[49.7,15262],[49.7,15345],[49.8,15428],[49.8,15512],[49.8,15595],[49.8,15678],[49.8,15762],[49.8,15845],[49.8,15929],[49.8,16011],[49.8,16095],[49.8,16179],[49.8,16261],[49.8,16345],[49.8,16428],[49.8,16512],[49.8,16595],[49.8,16678],[49.8,16761],[49.8,16844],[49.8,16928],[49.8,17011],[49.8,17094],[49.8,17178],[49.8,17262],[49.8,17345],[49.8,17428],[49.8,17511],[50.2,17595],[52.7,17678],[52.7,17761],[52.7,17844],[52.7,17927],[52.2,18011],[52,18095],[52,18177],[52,18261],[52,18344],[52,18428],[57.3,18511],[100,19094],[99.7,19177],[99.7,19261],[99.8,19344],[100,19427],[100,19510],[100,19594],[100,19677],[100,19764],[100,19844],[100,19927],[100,20010],[100,20094],[100,20179],[100,20261],[99.4,20344],[99.2,20427],[99.2,20510],[99.2,20594],[99.2,20677],[99.2,20760],[99.2,20844],[99.1,20927],[99.1,21010],[99.2,21093],[99.2,21177],[99.4,21260],[99.5,21344],[99.5,21427],[99.5,21510],[99.5,21594],[99.5,21677],[99.5,21761],[99.5,21843],[99.5,21927],[99.5,22011],[99.5,22094],[99.5,22177],[99.5,22261],[99.5,22344]]",1,0,327.9436,332.5249,100,3.4217,"[{""rating"":98.4375,""responseTime"":2.2038999999761586},{""rating"":100,""responseTime"":3.4217000000476787}]",space,4.0423,,332.525,Partially,50,332.5317,,,[],,0,3,3,3,1,audio/Narrative7Situation3.wav,audio/Narrative8Situation3.wav,audio/Narrative5Situation3.wav,audio/Narrative6Situation3.wav,8,4,3,5,,,,,,,,,,,,,,,,,,,,,,,,,,,,,,,,,,,,,,,
,,,,,,5fb2c8b4b04a8594fc0a3825,2024-02-08_16h20.38.359,group3.1-3.2-social-tom,2023.2.2,Linux x86_64,59.88023952,65c5074098b851296ff0b7ed,65c54579655c38d7add30981,,,,,,,,,,,,,,,,,,,,,,,,,,,,,332.5324,1,audio/Narrative8Situation4.wav,335.5409,,335.541,349.7215,"[[46.6,1416],[24.2,1500],[13.6,1583],[12.8,1666],[10.5,1749],[6.6,2249],[10.3,2332],[10.3,2415],[10.3,2499],[7,2583],[49.4,2916],[54.5,2998],[52,3082],[47.7,3165],[47.7,3248],[47.7,3332],[47.7,3415],[49.1,3499],[49.1,3582],[49.1,3665],[49.1,3748],[49.1,3832],[49.4,3915],[98.6,3999],[100,5415],[100,5498],[100,5581],[100,5664],[100,5748],[100,5831],[100,5915],[87,5998],[66.4,6081],[52.7,6164],[50.2,6248],[49.5,6331],[49.2,6414],[42,6498],[30.8,6581],[0.2,8664],[0.3,8747],[1.4,8830],[2.5,8914],[3.9,8998],[6.7,9081],[16.4,9164],[26.6,9247],[44.8,9330],[48.4,9413],[48.4,9497],[48.4,9580],[48.4,9664],[48.4,9747],[49.8,9830],[50,9913],[50,9996],[50,10081],[50,10163],[50,10247],[50,10330],[50,10414],[50,10497],[50,10580],[50,10664],[50,10747],[50,10831],[85.5,10914],[100,10998],[100,11080],[100,11163],[100,11246],[100,11330],[100,11413],[100,11496],[100,11580],[100,11663],[100,11746],[100,11830],[100,11913],[100,11996],[100,12080],[100,12163],[100,12246],[100,12330],[100,12413],[100,12497],[100,12579],[100,12663],[100,12746],[100,12829],[100,12913],[100,12996],[100,13080],[100,13163],[100,13246],[100,13329],[100,13413],[100,13497],[100,13579],[100,13662],[100,13746],[100,13830],[100,13912],[100,13997],[100,14079],[100,14163]]",1,0,349.7218,351.9702,99.6875,1.425,"[{""rating"":99.6875,""responseTime"":1.4250000000000114}]",space,1.7007,,351.9704,Not at all,0,351.9759,,,[],,0,4,4,4,1,audio/Narrative7Situation4.wav,audio/Narrative8Situation4.wav,audio/Narrative5Situation4.wav,audio/Narrative6Situation4.wav,3,3,1,2,,,,,,,,,,,,,,,,,,,,,,,,,,,,,,,,,,,,,,,
,,,,,,5fb2c8b4b04a8594fc0a3825,2024-02-08_16h20.38.359,group3.1-3.2-social-tom,2023.2.2,Linux x86_64,59.88023952,65c5074098b851296ff0b7ed,65c54579655c38d7add30981,,,,,,,,,,,,,,,,,,,,,,,,,,,,,351.9764,1,audio/Narrative8Situation5.wav,353.9861,,353.9863,362.2343,"[[999,0],[999,83],[999,166],[999,250],[999,333],[999,416],[999,499],[48.6,588],[48.6,666],[48.6,749],[48.6,833],[48.6,915],[48.6,999],[48.6,1082],[48.6,1166],[48.6,1249],[48.6,1333],[48.6,1415],[48.6,1499],[48.6,1582],[48.6,1666],[48.6,1749],[48.6,1832],[48.6,1915],[48.6,1999],[48.6,2082],[48.6,2166],[48.6,2249],[48.8,2332],[49.5,2416],[49.5,2499],[49.5,2582],[62,2666],[100,2749],[100,2832],[100,2915],[100,2998],[100,3082],[100,3165],[100,3249],[100,3332],[100,3415],[100,3499],[100,3582],[100,3665],[100,3748],[100,3831],[100,3915],[100,3998],[100,4082],[100,4165],[100,4248],[100,4332],[100,4415],[100,4498],[100,4581],[100,4665],[100,4748],[100,4831],[100,4915],[100,4999],[100,5082],[100,5165],[100,5248],[100,5331],[100,5414],[100,5498],[100,5582],[100,5665],[100,5748],[100,5831],[100,5915],[100,5999],[100,6081],[100,6164],[100,6248],[100,6331],[100,6415],[100,6497],[100,6581],[100,6664],[100,6747],[100,6831],[100,6914],[100,6998],[100,7081],[100,7165],[100,7247],[100,7331],[100,7414],[100,7498],[100,7581],[100,7665],[100,7748],[100,7831],[100,7914],[100,7998],[100,8080],[100,8165],[100,8247]]",1,0,362.2346,365.0006,99.375,1.8995,"[{""rating"":99.375,""responseTime"":1.899499999999989}]",space,2.2251,,365.001,Partially,50,365.0073,,,[],,0,5,5,5,1,audio/Narrative7Situation5.wav,audio/Narrative8Situation5.wav,audio/Narrative5Situation5.wav,audio/Narrative6Situation5.wav,5,2,5,2,,,,,,,,,,,,,,,,,,,,,,,,,,,,,,,,,,,,,,,
,,,,,,5fb2c8b4b04a8594fc0a3825,2024-02-08_16h20.38.359,group3.1-3.2-social-tom,2023.2.2,Linux x86_64,59.88023952,65c5074098b851296ff0b7ed,65c54579655c38d7add30981,,,,,,,,,,,,,,,,,,,,,,,,,,,,,365.008,1,audio/Narrative8Situation6.wav,367.0163,,367.0164,373.4824,"[[999,0],[999,83],[999,166],[999,250],[999,333],[999,416],[999,500],[999,583],[999,667],[999,749],[999,833],[999,916],[999,999],[999,1083],[999,1166],[999,1250],[999,1333],[999,1416],[999,1500],[999,1583],[49.5,1666],[48.1,1749],[48.1,1833],[48.1,1916],[48.1,1999],[48.1,2082],[48.1,2166],[48.1,2249],[48.1,2332],[49.1,2416],[49.1,2499],[49.2,2582],[49.2,2665],[49.2,2749],[49.2,2832],[49.2,2916],[49.2,2999],[49.2,3082],[49.2,3165],[49.2,3249],[10,3999],[9.7,4082],[30.5,4166],[44.5,4248],[44.7,4333],[44.5,4416],[44.5,4499],[46.9,4582],[47,4665],[47,4748],[47.8,4832],[48.8,4915],[48.8,4998],[48.8,5081],[48.8,5164],[48.8,5248],[48.8,5331],[48.8,5415],[48.8,5498],[48.8,5582],[48.8,5665],[48.8,5748],[48.9,5831],[49.2,5915],[49.4,5998],[49.4,6081],[49.4,6164],[49.4,6248],[49.4,6331],[49.4,6415]]",1,0,373.4826,375.2982,99.21875,1.1549,"[{""rating"":99.21875,""responseTime"":1.1548999999761804}]",space,1.2719,,375.2983,Partially,50,375.3021,,,[],,0,6,6,6,1,audio/Narrative7Situation6.wav,audio/Narrative8Situation6.wav,audio/Narrative5Situation6.wav,audio/Narrative6Situation6.wav,3,2,3,2,,,,,,,,,,,,,,,,,,,,,,,,,,,,,,,,,,,,,,,
,,,,,,5fb2c8b4b04a8594fc0a3825,2024-02-08_16h20.38.359,group3.1-3.2-social-tom,2023.2.2,Linux x86_64,59.88023952,65c5074098b851296ff0b7ed,65c54579655c38d7add30981,,,,,,,,,,,,,,,,,,,,,,,,,,,,,375.3026,1,audio/Narrative8Situation7.wav,378.3143,,378.3144,390.411,"[[999,27],[999,98],[999,182],[999,265],[999,350],[999,436],[999,516],[999,603],[999,690],[999,765],[999,849],[999,932],[999,1015],[999,1099],[999,1181],[999,1265],[999,1348],[999,1431],[999,1515],[999,1598],[999,1682],[999,1765],[999,1848],[999,1932],[999,2015],[999,2098],[999,2182],[999,2265],[999,2349],[999,2431],[999,2515],[999,2599],[999,2682],[999,2765],[999,2848],[999,2932],[98,3014],[98.4,3098],[99.8,3182],[99.8,3265],[99.8,3348],[100,3432],[100,3514],[100,3598],[100,3681],[100,3765],[100,3848],[100,3931],[100,4015],[100,4098],[100,4181],[100,4264],[100,4348],[100,4431],[100,4514],[100,4598],[100,4681],[100,4764],[100,4848],[100,4930],[100,5014],[100,5098],[100,5181],[100,5264],[100,5347],[100,5431],[100,5514],[100,5597],[100,5680],[100,5764],[100,5847],[100,5931],[100,6014],[100,6097],[100,6181],[100,6263],[100,6347],[100,6431],[100,6514],[100,6597],[100,6680],[100,6763],[100,6847],[100,6930],[100,7013],[100,7097],[100,7180],[100,7263],[100,7347],[100,7430],[100,7514],[100,7597],[100,7680],[100,7763],[100,7847],[100,7930],[100,8013],[100,8097],[100,8180],[100,8264],[100,8347],[100,8430],[100,8513],[100,8597],[100,8680],[100,8763],[100,8847],[100,8930],[100,9013],[100,9097],[100,9180],[100,9263],[100,9346],[100,9430],[100,9513],[100,9596],[100,9680],[100,9763],[100,9846],[100,9930],[100,10013],[100,10096],[100,10180],[100,10263],[100,10346],[100,10430],[100,10512],[100,10596],[100,10679],[100,10762],[100,10846],[100,10929],[100,11013],[100,11096],[100,11180],[100,11263],[100,11363],[100,11446],[100,11529],[100,11612],[100,11696],[100,11779],[100,11862],[100,11945],[100,12029]]",1,0,390.4111,398.0091,100,2.7725,"[{""rating"":98.90625,""responseTime"":2.0087999999523163},{""rating"":100,""responseTime"":2.7724999999999795}]",space,7.0475,,398.0093,Partially,50,398.0249,,,[],,0,7,7,7,1,audio/Narrative7Situation7.wav,audio/Narrative8Situation7.wav,audio/Narrative5Situation7.wav,audio/Narrative6Situation7.wav,5,3,4,5,,,,,,,,,,,,,,,,,,,,,,,,,,,,,,,,,,,,,,,
,,,,,,5fb2c8b4b04a8594fc0a3825,2024-02-08_16h20.38.359,group3.1-3.2-social-tom,2023.2.2,Linux x86_64,59.88023952,65c5074098b851296ff0b7ed,65c54579655c38d7add30981,,,,,,,,,,,,,,,,,,,,,,,,,,,,,398.0254,1,audio/Narrative8Situation8.wav,401.0411,,401.0412,413.8884,"[[999,13],[999,83],[999,166],[999,249],[999,333],[999,416],[999,500],[999,583],[999,666],[999,749],[999,832],[999,916],[999,999],[999,1082],[999,1166],[999,1249],[999,1333],[999,1416],[999,1500],[999,1582],[999,1666],[999,1749],[999,1833],[999,1915],[999,1999],[999,2082],[999,2165],[999,2249],[999,2333],[999,2415],[999,2500],[999,2583],[999,2667],[999,2749],[999,2833],[999,2916],[50,2999],[50,3082],[50,3166],[50,3249],[50,3333],[51.3,3416],[51.3,3499],[51.6,3582],[51.6,3666],[51.6,3749],[51.3,3833],[50.5,3916],[50.5,3999],[50.5,4082],[12.5,4583],[7.2,4665],[7,4748],[5.8,4832],[2.2,4915],[2.8,5416],[4.2,5498],[4.2,5582],[5.3,5666],[7,5749],[54.8,6499],[53.4,6581],[49.1,6665],[48.4,6748],[48.4,6832],[48.4,6915],[48.6,6998],[48.6,7081],[50.6,7165],[69.5,7248],[89.4,7333],[93.3,7415],[93.4,7498],[58.1,7581],[33.9,7665],[45.2,7749],[48.4,7831],[50.9,7914],[54.1,7998],[54.1,8081],[52.8,8165],[52.7,8248],[52,8331],[46.3,8415],[47,8498],[49.1,8581],[84.1,8664],[92.8,8748],[93.4,8831],[100,8915],[100,8997],[100,9081],[100,9165],[100,9247],[100,9331],[100,9414],[100,9497],[100,9581],[100,9665],[100,9747],[100,9831],[100,9914],[100,9997],[100,10081],[100,10163],[100,10247],[100,10330],[100,10414],[100,10497],[100,10581],[100,10664],[100,10747],[100,10830],[100,10914]]",1,0,413.8887,419.0866,100,4.1778,"[{""rating"":98.59375,""responseTime"":3.585700000047666},{""rating"":100,""responseTime"":4.1778000000715}]",space,4.6599,,419.0868,Partially,50,419.0907,,,[],,0,8,8,8,1,audio/Narrative7Situation8.wav,audio/Narrative8Situation8.wav,audio/Narrative5Situation8.wav,audio/Narrative6Situation8.wav,2,3,3,5,,,,,,,,,,,,,,,,,,,,,,,,,,,,,,,,,,,,,,,
,,,,,,5fb2c8b4b04a8594fc0a3825,2024-02-08_16h20.38.359,group3.1-3.2-social-tom,2023.2.2,Linux x86_64,59.88023952,65c5074098b851296ff0b7ed,65c54579655c38d7add30981,,,,,,,,,,,,,,,,,,,,,,,,,,,,,419.0914,1,audio/Narrative8Situation9.wav,422.1034,,422.1035,433.4361,"[[999,0],[999,82],[999,166],[999,249],[999,333],[999,415],[999,499],[999,582],[999,666],[999,749],[1.1,2415],[1.4,2499],[1.6,2582],[1.6,2664],[1.6,2749],[1.6,2832],[0.5,2915],[0.5,2998],[0.5,3082],[21.6,3165],[48.4,3249],[48.4,3332],[48.4,3415],[48.4,3498],[48.4,3581],[48.4,3666],[47,3749],[46.9,3832],[43.3,3915],[2,3998],[30.9,4332],[30.9,4415],[30.9,4498],[36.9,4582],[39.1,4665],[42.7,4748],[45.8,4831],[46.4,4915],[50.9,4998],[50.9,5081],[50.9,5165],[50.9,5247],[77.8,5332],[100,5415],[100,5497],[100,5580],[100,5664],[100,5748],[100,5831],[100,5914],[100,5998],[100,6081],[100,6164],[100,6248],[100,6331],[100,6414],[100,6497],[100,6580],[100,6664],[100,6747],[100,6831],[100,6914],[100,6997],[100,7081],[100,7164],[100,7247],[100,7331],[100,7414],[100,7497],[100,7580],[100,7664],[100,7747],[100,7830],[100,7914],[100,7997],[100,8080],[100,8163],[100,8247],[100,8331],[100,8414],[100,8497],[100,8580],[100,8663],[100,8747],[100,8830],[100,8914],[100,8997],[100,9080],[100,9163],[100,9247],[100,9330],[100,9413],[100,9496],[100,9580],[100,9663],[100,9746],[100,9830],[100,9913],[100,9997],[100,10080],[100,10163],[100,10246],[100,10330],[100,10413],[100,10497],[100,10580],[100,10663],[100,10746],[100,10830],[100,10912],[100,10996],[100,11080],[100,11163],[100,11246],[100,11332]]",1,0,433.4364,437.5323,99.6875,1.4942,"[{""rating"":99.6875,""responseTime"":1.4942000000477265}]",space,3.5523,,437.5324,Definitely yes,100,437.5363,,,[],,0,9,9,9,1,audio/Narrative7Situation9.wav,audio/Narrative8Situation9.wav,audio/Narrative5Situation9.wav,audio/Narrative6Situation9.wav,2,3,3,4,,,,,,,,,,,,,,,,,,,,,,,,,,,,,,,,,,,,,,,
,,,,,,5fb2c8b4b04a8594fc0a3825,2024-02-08_16h20.38.359,group3.1-3.2-social-tom,2023.2.2,Linux x86_64,59.88023952,65c5074098b851296ff0b7ed,65c54579655c38d7add30981,,,,,,,,,,,,,,,,,,,,,,,,,,,,,437.5366,1,audio/Narrative7Situation1.wav,439.5488,,439.5488,495.4354,"[[75,249],[74.8,333],[74.5,416],[74.5,499],[74.7,583],[74.7,666],[75.2,749],[75.2,833],[74.5,915],[74.1,999],[73.1,1082],[72.5,1166],[67.5,1249],[64.4,1333],[62.2,1416],[51.6,1499],[51.4,1583],[50.8,1666],[48.4,1749],[48.4,1832],[48.4,1915],[46.9,1999],[47,2082],[47,2165],[45.9,2249],[40.3,2332],[40.2,2415],[25.5,2499],[12.7,2583],[6.1,2665],[1.7,2749],[0.2,2999],[0.2,3081],[0.2,3165],[0.2,3248],[0.2,3331],[0.2,3416],[0.2,3498],[0.6,3582],[0.8,3665],[1.1,3748],[1.1,3831],[0.8,3915],[6.9,8598],[62,8681],[62,8765],[60.3,8848],[53,8930],[53,9014],[50.9,9097],[46.6,9181],[50.5,9263],[50.6,9347],[50.6,9430],[50.6,9514],[50.8,9596],[50.8,9680],[50.8,9763],[50.8,9847],[50.8,9930],[50.8,10014],[50.8,10098],[50.8,10198],[50.8,10280],[50.8,10364],[50.8,10447],[50.8,10530],[50.8,10613],[50.8,10697],[50.8,10781],[50.8,10863],[50.8,10946],[50.8,11030],[50.8,11114],[50.8,11197],[50.8,11280],[50.8,11364],[50.8,11447],[50.8,11530],[50.8,11613],[50.8,11696],[50.8,11780],[50.8,11863],[50.8,11946],[50.8,12030],[50.8,12114],[50.8,12196],[50.8,12280],[50.8,12363],[50.8,12446],[51.1,12530],[51.1,12613],[51.1,12696],[51.1,12779],[51.1,12863],[51.1,12946],[51.1,13030],[51.1,13112],[51.1,13196],[51.1,13280],[51.1,13363],[51.1,13447],[31.3,13535],[2.8,13613],[21.4,17962],[23.9,18045],[30,18129],[30.3,18211],[30.3,18295],[15,18378],[1.6,18462],[0.9,22794],[1.9,22877],[1.9,22960],[1.9,23043],[1.9,23127],[1.4,27211],[1.4,27293],[18.9,35041],[32.5,35125],[40.3,35208],[44.1,35291],[44.2,35374],[45,35458],[49.1,35541],[49.5,35625],[49.7,35707],[49.7,35791],[49.7,35874],[49.7,35958],[49.7,36040],[49.7,36124],[49.7,36207],[49.7,36290],[49.7,36374],[49.7,36457],[49.7,36541],[100,36624],[100,36708],[99.5,36791],[98.6,36874],[98.6,36957],[98.6,37041],[100,37124],[100,37207],[100,37290],[100,37374],[100,37457],[100,37540],[100,37624],[100,37707],[100,37790],[100,37873],[100,37957],[100,38041],[100,38124],[100,38207],[100,38290],[100,38374],[100,38457],[100,38540],[100,38624],[100,38706],[100,38790],[100,38873],[100,38957],[100,39040],[100,39123],[100,39207],[100,39290],[100,39373],[100,39457],[100,39540],[100,39623],[99.2,39707],[95.8,39790],[95.6,39873],[95.9,39956],[96.7,40040],[97.8,40123],[99.1,40207],[99.2,40290],[99.2,40373],[99.7,40457],[100,40540],[100,40623],[100,40706],[100,40789],[100,40873],[100,40956],[100,41039],[100,41123],[100,41206],[100,41290],[100,41373],[100,41456],[100,41540],[100,41623],[100,41706],[100,41790],[100,41872],[100,41956],[100,42039],[100,42122],[100,42206],[100,42289],[100,42372],[100,42456],[100,42539],[100,42622],[100,42706],[100,42790],[100,42873],[100,42956],[100,43039],[100,43122],[100,43206],[100,43289],[100,43372],[100,43455],[100,43539],[100,43622],[100,43706],[100,43788],[100,43872],[100,43955],[100,44039],[100,44123],[100,44205],[100,44288],[100,44372],[100,44455],[100,44539],[100,44622],[100,44705],[100,44789],[100,44872],[100,44955],[100,45038],[100,45122],[100,45205],[100,45288],[100,45372],[100,45455],[100,45538],[100,45621],[100,45705],[100,45788],[100,45871],[100,45955],[100,46039],[100,46122],[97.3,46212],[96.6,46288],[96.6,46372],[100,46455],[100,46538],[100,46622],[100,46705],[100,46788],[100,46871],[91.1,46955],[71.6,47038],[57.2,47121],[40.3,47205],[24.1,48871],[85.3,48954],[98.3,49037],[98.3,49121],[98.3,49204],[95.5,49287],[95.5,49371],[99.2,49454],[99.1,49537],[99.1,49620],[99.1,49704],[100,49787],[100,49871],[100,49954],[100,50037],[100,50120],[100,50204],[100,50287],[100,50370],[100,50454],[100,50537],[100,50620],[100,50703],[100,50787],[100,50870],[100,50953],[100,51037],[100,51120],[100,51204],[100,51287],[100,51370],[100,51454],[100,51536],[100,51620],[100,51703],[100,51787],[100,51871],[100,51953],[100,52037],[100,52120],[100,52209],[100,52286],[100,52370],[100,52454],[100,52537],[100,52620],[100,52704],[100,52786],[100,52870],[100,52953],[100,53037],[100,53120],[100,53203],[100,53287],[100,53370],[100,53453],[100,53537],[100,53620],[100,53703],[100,53787],[100,53870],[100,53954],[100,54037],[100,54119],[100,54203],[100,54286],[100,54370],[100,54453],[100,54536],[100,54619],[100,54703],[100,54786],[100,54869],[100,54953],[100,55036],[100,55119],[100,55202],[100,55286],[100,55369],[100,55452],[100,55536],[100,55626],[100,55702],[100,55785],[100,55869]]",1,0,495.4357,499.4508,100,3.0699,"[{""rating"":95.625,""responseTime"":1.7213999999761427},{""rating"":100,""responseTime"":3.069899999976087}]",space,3.4673,,499.451,Definitely yes,100,499.4547,,,[],,0,10,10,10,1,audio/Narrative8Situation1.wav,audio/Narrative7Situation1.wav,audio/Narrative6Situation1.wav,audio/Narrative5Situation1.wav,5,2,2,5,,,,,,,,,,,,,,,,,,,,,,,,,,,,,,,,,,,,,,,
,,,,,,5fb2c8b4b04a8594fc0a3825,2024-02-08_16h20.38.359,group3.1-3.2-social-tom,2023.2.2,Linux x86_64,59.88023952,65c5074098b851296ff0b7ed,65c54579655c38d7add30981,,,,,,,,,,,,,,,,,,,,,,,,,,,,,499.4553,1,audio/Narrative7Situation2.wav,502.467,,502.4671,509.9485,"[[999,0],[999,83],[999,166],[999,249],[999,332],[999,416],[999,499],[999,582],[999,665],[999,749],[999,833],[999,916],[999,999],[999,1082],[999,1166],[23.9,1250],[10.5,1332],[8.3,1415],[4.2,1499],[11.4,4181],[43,4264],[44.8,4348],[49.2,4431],[50.2,4515],[51.6,4598],[51.6,4681],[51.6,4764],[51.6,4847],[56.3,4932],[100,5015],[100,5098],[100,5182],[100,5264],[100,5348],[100,5431],[100,5514],[100,5597],[100,5681],[100,5764],[100,5847],[100,5931],[100,6014],[100,6098],[100,6181],[100,6265],[100,6347],[100,6431],[100,6514],[100,6598],[100,6680],[100,6764],[100,6847],[100,6931],[100,7014],[100,7098],[100,7180],[100,7264],[100,7347],[100,7430]]",1,0,509.9487,539.7411,79.6875,27.5869,"[{""rating"":98.75,""responseTime"":0.910100000023931},{""rating"":100,""responseTime"":1.5982000000477683},{""rating"":80.3125,""responseTime"":27.039700000047674},{""rating"":79.6875,""responseTime"":27.586899999976254}]",space,29.2502,,539.7412,Not at all,0,539.7458,,,[],,0,11,11,11,1,audio/Narrative8Situation2.wav,audio/Narrative7Situation2.wav,audio/Narrative6Situation2.wav,audio/Narrative5Situation2.wav,3,3,3,3,,,,,,,,,,,,,,,,,,,,,,,,,,,,,,,,,,,,,,,
,,,,,,5fb2c8b4b04a8594fc0a3825,2024-02-08_16h20.38.359,group3.1-3.2-social-tom,2023.2.2,Linux x86_64,59.88023952,65c5074098b851296ff0b7ed,65c54579655c38d7add30981,,,,,,,,,,,,,,,,,,,,,,,,,,,,,539.7463,1,audio/Narrative7Situation3.wav,547.7558,,547.756,557.0203,"[[999,28],[999,99],[999,183],[999,266],[999,349],[999,432],[999,516],[999,599],[999,682],[999,766],[999,849],[999,932],[999,1015],[999,1099],[999,1182],[999,1266],[999,1349],[999,1432],[999,1516],[999,1599],[999,1682],[999,1765],[999,1849],[999,1932],[999,2015],[999,2099],[999,2182],[999,2265],[999,2349],[999,2432],[10.9,2515],[9.8,2599],[4.5,2765],[4.5,2849],[4.1,2932],[12.7,6765],[31.9,6848],[38.6,6931],[44.1,7014],[45,7097],[49.8,7181],[49.8,7264],[49.8,7348],[49.8,7430],[49.8,7514],[49.8,7597],[49.8,7681],[49.8,7764],[49.8,7847],[49.8,7931],[49.8,8014],[49.8,8097],[49.8,8181],[49.8,8264],[49.8,8347],[49.8,8431],[49.8,8513],[49.8,8597],[49.8,8680],[49.8,8764],[49.8,8847],[49.8,8930],[49.8,9014],[49.8,9097],[49.8,9181],[49.8,9264]]",1,0,557.0204,561.6018,49.84375,2.5056,"[{""rating"":49.84375,""responseTime"":2.5056000000238328}]",space,4.0419,,561.6019,Partially,50,561.6056,,,[],,0,12,12,12,1,audio/Narrative8Situation3.wav,audio/Narrative7Situation3.wav,audio/Narrative6Situation3.wav,audio/Narrative5Situation3.wav,4,8,5,3,,,,,,,,,,,,,,,,,,,,,,,,,,,,,,,,,,,,,,,
,,,,,,5fb2c8b4b04a8594fc0a3825,2024-02-08_16h20.38.359,group3.1-3.2-social-tom,2023.2.2,Linux x86_64,59.88023952,65c5074098b851296ff0b7ed,65c54579655c38d7add30981,,,,,,,,,,,,,,,,,,,,,,,,,,,,,561.606,1,audio/Narrative7Situation4.wav,564.6181,,564.6182,576.3485,"[[49.7,750],[49.7,833],[49.7,916],[49.7,999],[49.7,1082],[49.7,1166],[49.7,1249],[49.7,1332],[49.7,1416],[49.7,1499],[49.7,1582],[49.7,1666],[49.7,1749],[49.7,1833],[49.7,1916],[49.7,1999],[49.7,2082],[49.7,2166],[49.7,2249],[49.7,2333],[49.7,2415],[49.7,2498],[49.7,2582],[49.7,2666],[49.7,2749],[49.7,2832],[49.7,2916],[49.7,2999],[49.7,3082],[49.7,3166],[49.7,3249],[49.7,3332],[49.7,3416],[49.7,3499],[49.7,3582],[49.7,3665],[49.7,3748],[49.7,3832],[49.7,3916],[49.7,3999],[49.7,4082],[49.7,4166],[49.7,4249],[49.7,4332],[49.7,4415],[49.7,4498],[49.7,4582],[49.7,4665],[49.7,4748],[49.7,4832],[49.7,4915],[49.7,4998],[49.7,5091],[49.7,5165],[49.4,5249],[2.7,5332],[9.2,6332],[20.3,6415],[48.3,6498],[48.3,6581],[48.3,6665],[38.9,6748],[3.6,6831]]",1,0,576.3487,581.3482,0,3.493,"[{""rating"":0,""responseTime"":3.493000000000052}]",space,4.4499,,581.3483,Not at all,0,581.3544,,,[],,0,13,13,13,1,audio/Narrative8Situation4.wav,audio/Narrative7Situation4.wav,audio/Narrative6Situation4.wav,audio/Narrative5Situation4.wav,3,3,2,1,,,,,,,,,,,,,,,,,,,,,,,,,,,,,,,,,,,,,,,
,,,,,,5fb2c8b4b04a8594fc0a3825,2024-02-08_16h20.38.359,group3.1-3.2-social-tom,2023.2.2,Linux x86_64,59.88023952,65c5074098b851296ff0b7ed,65c54579655c38d7add30981,,,,,,,,,,,,,,,,,,,,,,,,,,,,,581.355,1,audio/Narrative7Situation5.wav,586.3631,,586.3632,594.8616,"[[2,1083],[1.9,1166]]",1,0,594.8618,597.5938,0.3125,1.3137,"[{""rating"":0.3124999999999989,""responseTime"":1.3137000000476746}]",space,2.1879,,597.594,Not at all,0,597.5979,,,[],,0,14,14,14,1,audio/Narrative8Situation5.wav,audio/Narrative7Situation5.wav,audio/Narrative6Situation5.wav,audio/Narrative5Situation5.wav,2,5,2,5,,,,,,,,,,,,,,,,,,,,,,,,,,,,,,,,,,,,,,,
,,,,,,5fb2c8b4b04a8594fc0a3825,2024-02-08_16h20.38.359,group3.1-3.2-social-tom,2023.2.2,Linux x86_64,59.88023952,65c5074098b851296ff0b7ed,65c54579655c38d7add30981,,,,,,,,,,,,,,,,,,,,,,,,,,,,,597.5986,1,audio/Narrative7Situation6.wav,600.6098,,600.6099,610.5908,"[[0.5,665],[0.5,750],[0.5,833],[0.3,916],[0.3,999],[30.2,2166],[36.9,2249],[37.3,2332],[40.2,2416],[45.6,2499],[46.3,2582],[46.6,2665],[48.1,2749],[48.1,2832],[48.6,2916],[48.6,2998],[48.6,3082],[48.6,3165],[48.6,3248],[48.9,3332],[48.9,3415],[48.9,3499],[48.9,3582],[49.1,3665],[49.1,3749],[49.1,3832],[60.8,3915],[100,3998],[100,4082],[100,4165],[100,4249],[100,4331],[100,4415],[100,4498],[100,4582],[100,4665],[100,4748],[100,4831],[100,4915],[100,4998],[100,5081],[100,5165],[100,5249],[100,5331],[100,5415],[100,5498],[100,5582],[100,5665],[100,5747],[100,5831],[100,5914],[100,5998],[100,6081],[100,6164],[100,6248],[100,6331],[100,6415],[100,6498],[100,6581],[100,6664],[100,6748],[100,6831],[100,6914],[100,6997],[100,7081],[100,7164],[100,7247],[100,7331],[100,7414],[100,7498],[100,7581],[100,7664],[100,7747],[100,7830],[100,7914],[100,7997],[100,8080],[100,8163],[100,8247],[100,8330],[100,8414],[100,8497],[100,8581],[100,8664],[100,8747],[100,8831],[100,8913],[100,8997],[100,9080],[100,9163],[100,9247],[100,9331],[100,9414],[100,9497],[100,9581],[100,9663],[100,9747],[100,9830],[100,9913]]",1,0,610.591,612.1241,99.21875,0.8844,"[{""rating"":99.21875,""responseTime"":0.8844000000954111}]",space,0.9923,,612.1242,Definitely yes,100,612.1303,,,[],,0,15,15,15,1,audio/Narrative8Situation6.wav,audio/Narrative7Situation6.wav,audio/Narrative6Situation6.wav,audio/Narrative5Situation6.wav,2,3,2,3,,,,,,,,,,,,,,,,,,,,,,,,,,,,,,,,,,,,,,,
,,,,,,5fb2c8b4b04a8594fc0a3825,2024-02-08_16h20.38.359,group3.1-3.2-social-tom,2023.2.2,Linux x86_64,59.88023952,65c5074098b851296ff0b7ed,65c54579655c38d7add30981,,,,,,,,,,,,,,,,,,,,,,,,,,,,,612.1309,1,audio/Narrative7Situation7.wav,617.1392,,617.1393,634.3303,"[[999,13],[999,82],[999,165],[999,249],[999,332],[999,416],[999,499],[999,582],[999,665],[999,749],[999,833],[8.9,916],[5,999],[3.8,1083],[1.1,1165],[9.7,1416],[30.8,1499],[47.7,1582],[52.2,1665],[39.4,1749],[38.3,4499],[51.9,4581],[54.4,4664],[54.5,4748],[45.9,4832],[27.3,4915],[0.5,6415],[24.8,6498],[49.7,6581],[50,6664],[50.5,6748],[53.8,6830],[53.8,6914],[65,6998],[85.6,7081],[96.3,7164],[98,7247],[98,7331],[99.4,7414],[99.4,7498],[99.5,7581],[99.8,7664],[99.8,7747],[100,7830],[100,7913],[100,7997],[100,8081],[100,8164],[100,8247],[100,8330],[100,8413],[100,8496],[100,8581],[100,8664],[100,8747],[100,8831],[100,8913],[100,8996],[100,9080],[100,9164],[100,9247],[100,9330],[100,9413],[100,9497],[99.8,9580],[41.7,9664],[33.3,9747],[27.8,9831],[10.2,9914],[10.2,9997],[10.2,10080],[7,10163],[1.9,10247],[1.9,10330],[2.3,10413],[40.2,10497],[79.8,10580],[92,10664],[100,10747],[100,10830],[100,10913],[100,10997],[100,11080],[100,11163],[100,11247],[100,11330],[100,11413],[100,11496],[100,11579],[100,11663],[100,11746],[100,11830],[100,11913],[100,11996],[100,12079],[100,12163],[100,12246],[100,12330],[100,12413],[100,12496],[100,12581],[100,12663],[100,12746],[100,12829],[100,12913],[100,12996],[100,13079],[100,13163],[100,13246],[100,13329],[100,13413],[100,13496],[100,13579],[100,13663],[100,13746],[100,13829],[100,13912],[100,13996],[100,14080],[100,14162],[100,14245],[100,14329],[100,14413],[100,14495],[100,14579],[100,14662],[100,14745],[100,14829],[100,14912],[100,14996],[100,15079],[100,15162],[100,15246],[100,15328],[100,15413],[100,15495],[100,15578],[100,15662],[100,15745],[100,15829],[100,15912],[100,15996],[100,16079],[100,16162],[100,16245],[100,16329],[100,16412],[100,16495],[100,16579],[100,16662],[100,16745],[100,16829],[100,16912],[100,16995],[100,17079],[100,17161]]",1,0,634.3306,637.9506,100,2.5334,"[{""rating"":97.34375,""responseTime"":1.9581000000238191},{""rating"":100,""responseTime"":2.5333999999761545}]",space,3.0839,,637.9507,Definitely yes,100,637.9543,,,[],,0,16,16,16,1,audio/Narrative8Situation7.wav,audio/Narrative7Situation7.wav,audio/Narrative6Situation7.wav,audio/Narrative5Situation7.wav,3,5,5,4,,,,,,,,,,,,,,,,,,,,,,,,,,,,,,,,,,,,,,,
,,,,,,5fb2c8b4b04a8594fc0a3825,2024-02-08_16h20.38.359,group3.1-3.2-social-tom,2023.2.2,Linux x86_64,59.88023952,65c5074098b851296ff0b7ed,65c54579655c38d7add30981,,,,,,,,,,,,,,,,,,,,,,,,,,,,,637.9549,1,audio/Narrative7Situation8.wav,639.9673,,639.9673,649.9979,"[[3.1,583],[19.8,1832],[24.1,1915],[25.9,7265],[29.4,7348],[52.7,7431],[52.7,7515],[52,7597],[52.2,7681],[52.2,7764],[52.2,7848],[52.2,7930],[67.5,8015],[86.1,8097],[100,8181],[100,8264],[100,8347],[100,8430],[100,8514],[100,8596],[100,8681],[100,8764],[100,8847],[100,8930],[100,9013],[100,9097],[100,9181],[100,9264],[100,9347],[100,9431],[100,9513],[100,9597],[100,9680],[100,9763],[100,9847],[100,9930],[100,10013]]",1,0,649.998,653.1976,73.90625,2.8553,"[{""rating"":49.21875,""responseTime"":1.3058000000714856},{""rating"":70,""responseTime"":2.312600000023849},{""rating"":73.90625,""responseTime"":2.855300000071452}]",space,2.6758,,653.1977,Partially,50,653.2011,,,[],,0,17,17,17,1,audio/Narrative8Situation8.wav,audio/Narrative7Situation8.wav,audio/Narrative6Situation8.wav,audio/Narrative5Situation8.wav,3,2,5,3,,,,,,,,,,,,,,,,,,,,,,,,,,,,,,,,,,,,,,,
,,,,,,5fb2c8b4b04a8594fc0a3825,2024-02-08_16h20.38.359,group3.1-3.2-social-tom,2023.2.2,Linux x86_64,59.88023952,65c5074098b851296ff0b7ed,65c54579655c38d7add30981,,,,,,,,,,,,,,,,,,,,,,,,,,,,,653.2016,1,audio/Narrative7Situation9.wav,655.2135,,655.2136,663.861,"[[70.8,82],[68.4,166],[43.9,249],[16.3,333],[11.7,416],[8.6,499],[4.5,583],[3.9,666],[3.9,749],[3.9,832],[2.3,916],[1.6,999],[1.6,1082],[1.6,1166],[1.6,1249],[1.7,1332],[1.7,1415],[2.3,1499],[11.6,1583],[37.3,1666],[35.8,1750],[3.4,1832],[3.1,1916],[39.7,1999],[46.7,2082],[46.9,2165],[46.9,2249],[49.1,2332],[49.4,2415],[50.2,2507],[95.6,2590],[100,2668],[100,2749],[100,2832],[100,2914],[100,2999],[100,3082],[100,3165],[100,3249],[100,3332],[100,3415],[98.8,3499],[98.8,3582],[99.7,3665],[99.7,3748],[100,3832],[100,3915],[100,3998],[100,4082],[100,4165],[100,4248],[100,4331],[100,4415],[100,4498],[100,4581],[100,4664],[100,4748],[100,4831],[100,4914],[100,4998],[100,5081],[100,5165],[100,5248],[100,5332],[100,5414],[100,5498],[100,5581],[100,5664],[100,5748],[100,5831],[100,5914],[100,5998],[100,6081],[100,6164],[100,6248],[100,6330],[100,6414],[100,6497],[100,6581],[100,6664],[100,6748],[100,6831],[100,6914],[100,6999],[100,7080],[100,7164],[100,7248],[100,7330],[100,7414],[100,7498],[100,7581],[100,7664],[100,7748],[100,7830],[100,7914],[100,7998],[100,8080],[100,8164],[100,8247],[100,8330],[100,8414],[100,8497],[100,8581]]",1,0,663.8612,666.1603,100,1.6575,"[{""rating"":99.375,""responseTime"":0.9102999999522581},{""rating"":100,""responseTime"":1.6575000000000273}]",space,1.7723,,666.1604,Partially,50,666.1625,,,[],,0,18,18,18,1,audio/Narrative8Situation9.wav,audio/Narrative7Situation9.wav,audio/Narrative6Situation9.wav,audio/Narrative5Situation9.wav,3,2,4,3,,,,,,,,,,,,,,,,,,,,,,,,,,,,,,,,,,,,,,,
,,,,,,5fb2c8b4b04a8594fc0a3825,2024-02-08_16h20.38.359,group3.1-3.2-social-tom,2023.2.2,Linux x86_64,59.88023952,65c5074098b851296ff0b7ed,65c54579655c38d7add30981,,,,,,,,,,,,,,,,,,,,,,,,,,,683.1047,685.6759,685.6968,2,audio/Narrative13Situation2.wav,685.697,,685.697,715.4521,"[[999,0],[999,75],[999,158],[999,241],[999,325],[999,408],[999,492],[999,575],[999,658],[999,742],[999,824],[999,908],[999,991],[999,1074],[999,1158],[999,1242],[999,1324],[36.9,1409],[7,1825],[7.3,1908],[5.2,1991],[1.9,2074],[1.3,2158],[1.3,2241],[0.3,2325],[0.2,3074],[0.2,3158],[1.3,3241],[1.3,3324],[1.3,3407],[1.3,3491],[18,8676],[32.8,8756],[32.8,8840],[34.2,8923],[52.8,9006],[52.8,9089],[52.8,9173],[52.8,9256],[52.8,9339],[88.3,9423],[100,9506],[100,9589],[100,9673],[100,9757],[100,9840],[100,9923],[100,10005],[100,10090],[100,10173],[100,10256],[100,10339],[100,10423],[100,10506],[100,10589],[100,10673],[100,10756],[100,10839],[100,10923],[100,11005],[100,11089],[100,11172],[100,11255],[100,11339],[100,11422],[100,11505],[100,11589],[100,11672],[100,11756],[100,11839],[100,11922],[100,12006],[100,12088],[100,12172],[100,12255],[100,12338],[100,12422],[100,12505],[100,12588],[100,12672],[100,12755],[100,12838],[100,12921],[100,13005],[100,13088],[100,13171],[100,13255],[100,13338],[100,13421],[100,13505],[100,13589],[100,13671],[100,13755],[100,13838],[100,13922],[100,14005],[100,14088],[100,14171],[100,14255],[100,14338],[100,14421],[100,14505],[100,14588],[100,14671],[100,14754],[100,14838],[100,14921],[100,15005],[100,15088],[100,15172],[100,15255],[100,15338],[100,15421],[100,15504],[74.2,15588]]",1,0,715.4524,715.4567,,,[],,,,715.4568,Partially,50,715.4601,,,[],,0,0,0,0,1,audio/Narrative13Situation2.wav,audio/Narrative13Situation2.wav,audio/Narrative13Situation2.wav,audio/Narrative13Situation2.wav,2,2,2,2,,,,,666.1635,683.0905,space,16.4015,,,,,,,,,,,,,,,,,,,,,,,,,,,,,,,
,,,,,,5fb2c8b4b04a8594fc0a3825,2024-02-08_16h20.38.359,group3.1-3.2-social-tom,2023.2.2,Linux x86_64,59.88023952,65c5074098b851296ff0b7ed,65c54579655c38d7add30981,,,,,,,,,,,,,,,,,,,,,,,,,,,,,715.4607,2,audio/Narrative6Situation1.wav,717.4648,,717.4648,744.0591,"[[0.8,1166],[0.8,1249],[0.8,1332],[0.9,1416],[0.9,1499],[0.9,1582],[0.9,1665],[0.9,1749],[0.9,1833],[0.9,1915],[0.9,2000],[0.9,2083],[0.9,2166],[0.9,2249],[0.9,2333],[0.9,2415],[0.9,2498],[0.9,2582],[0.9,2666],[0.9,2748],[0.9,2832],[0.9,2916],[0.9,2998],[0.9,3082],[0.9,3166],[0.9,3249],[0.9,3332],[1.1,3415],[1.1,3499],[1.1,3582],[1.1,3665],[1.1,3749],[0.5,3832],[0.8,3915],[0.8,3999],[0.8,4081],[0.8,4165],[0.8,4249],[0.8,4332],[0.8,4415],[0.8,4499],[0.8,4581],[0.8,4665],[0.8,4748],[0.8,4832],[0.8,4915],[0.8,4998],[1.9,5082],[54.2,5165],[60.5,5248],[59.4,5332],[52.5,5415],[51.6,5498],[54.1,5582],[98,5665],[100,5749],[100,5831],[100,5916],[94.8,5999],[96.4,6081],[96.6,6165],[96.6,6248],[98,6332],[99.7,6414],[99.7,6498],[99.7,6582],[99.5,6665],[99.5,6748],[99.5,6831],[99.5,6915],[99.5,6998],[99.5,7081],[99.5,7164],[99.5,7248],[99.5,7331],[82.3,7415],[49.1,8248],[88.6,8331],[86.9,8414],[86.9,8498],[86.9,8580],[86.9,8664],[86.9,8747],[88.8,8831],[92,8914],[92.7,8998],[93.6,9081],[97.7,9164],[98.8,9248],[98.8,9331],[98.8,9414],[98.8,9497],[98.8,9581],[98.3,9664],[98.3,9748],[98.3,9831],[100,9914],[100,9997],[100,10080],[100,10164],[100,10247],[95.9,10331],[56.9,10414],[37.7,10498],[12.3,10581],[10.5,10664],[3,10748],[2,10830],[2,10913],[2,10997],[2,11080],[2,11163],[1.1,11247],[0.3,11331],[0.2,14762],[0.2,14846],[0.2,14929],[0.2,15013],[0.2,15096],[0.2,15179],[0.2,15263],[0.2,15346],[0.2,15429],[0.2,15512],[0.2,15596],[0.2,15679],[0.2,15762],[0.2,15846],[0.2,15929],[0.2,16012],[0.2,16095],[0.2,16179],[0.2,16262],[0.2,16345],[0.3,16429],[0.3,16512],[0.3,16596],[0.3,16678],[0.3,16762],[0.3,16845],[0.3,16928],[0.3,17012],[0.3,17095],[0.3,17178],[0.3,17262],[0.3,17345],[0.3,17429],[0.3,17512],[0.3,17595],[0.3,17679],[0.3,17762],[0.3,17845],[0.3,17928],[0.3,18011],[0.3,18095],[0.3,18178],[0.3,18261],[0.3,18345],[0.3,18428],[0.3,18511],[0.3,18595],[0.3,18679],[0.3,18762],[0.3,18845],[0.3,18928],[0.3,19011],[0.8,19094],[0.9,19178],[0.9,19262],[1.1,19345],[1.1,19428],[1.1,19511],[1.1,19595],[1.1,19678],[1.1,19762],[1.1,19844],[1.1,19928],[1.1,20011],[1.1,20094],[1.1,20178],[1.1,20261],[1.1,20345],[1.1,20427],[1.1,20511],[1.1,20595],[1.1,20677],[1.1,20761],[1.1,20844],[1.1,20927],[1.1,21011],[1.1,21094],[1.1,21177],[1.1,21262],[1.1,21345],[1.1,21427],[1.1,21512],[1.1,21595],[1.1,21677],[1.1,21761],[1.1,21844],[1.1,21927],[1.1,22010],[1.1,22094],[1.1,22177],[1.1,22261],[1.1,22344],[1.1,22428],[1.1,22511],[1.1,22594],[1.1,22678],[1.1,22761],[1.1,22844],[1.1,22927],[1.1,23011],[1.1,23094],[1.1,23177],[1.1,23261],[1.1,23344],[1.1,23427],[1.1,23511],[1.1,23594],[0.9,23693],[0.9,23761],[0.9,23844],[0.9,23927],[0.9,24011],[0.9,24094],[0.9,24177],[0.9,24260],[0.9,24343],[0.9,24427],[0.9,24510],[0.9,24593],[0.9,24677],[0.9,24760],[0.9,24843],[0.9,24927],[0.9,25010],[0.9,25093],[0.9,25177],[0.9,25260],[0.9,25344],[0.9,25427],[0.9,25510],[0.9,25593],[0.9,25677],[0.9,25761],[0.9,25844],[0.9,25927],[0.9,26010],[0.9,26093],[0.9,26176],[0.9,26260],[0.9,26343],[0.9,26426],[0.9,26510],[0.9,26594]]",1,0,744.0593,746.3751,0.9375,0.1796,"[{""rating"":0.9375000000000022,""responseTime"":0.17960000002381094}]",space,1.7691,,746.3752,Definitely yes,100,746.3818,,,[],,0,1,1,1,1,audio/Narrative7Situation1.wav,audio/Narrative8Situation1.wav,audio/Narrative5Situation1.wav,audio/Narrative6Situation1.wav,2,5,5,2,,,,,,,,,,,,,,,,,,,,,,,,,,,,,,,,,,,,,,,
,,,,,,5fb2c8b4b04a8594fc0a3825,2024-02-08_16h20.38.359,group3.1-3.2-social-tom,2023.2.2,Linux x86_64,59.88023952,65c5074098b851296ff0b7ed,65c54579655c38d7add30981,,,,,,,,,,,,,,,,,,,,,,,,,,,,,746.3825,2,audio/Narrative6Situation2.wav,749.3905,,749.3905,777.9009,"[[1.7,371],[1.7,449],[1.1,533],[0.9,616],[0.9,700],[0.2,783],[0.2,866],[0.6,5865],[41.9,5965],[90.6,6048],[90.6,6131],[90.6,6215],[100,6298],[100,6381],[100,6465],[100,6548],[100,6631],[100,6715],[100,6798],[100,6881],[100,6965],[100,7048],[100,7131],[100,7214],[100,7297],[100,7381],[100,7464],[100,7548],[100,7630],[100,7714],[100,7797],[100,7880],[100,7964],[100,8048],[100,8131],[100,8214],[100,8297],[100,8381],[100,8464],[100,8548],[100,8630],[100,8715],[100,8797],[100,8881],[100,8963],[100,9047],[100,9130],[100,9215],[100,9297],[100,9381],[100,9464],[100,9547],[100,9630],[100,9714],[100,9797],[100,9880],[100,9963],[100,10047],[100,10130],[100,10214],[100,10297],[100,10380],[100,10463],[100,10546],[100,10630],[100,10713],[100,10798],[100,10880],[100,10963],[100,11047],[100,11130],[100,11214],[100,11297],[100,11380],[100,11464],[100,11547],[100,11630],[100,11714],[100,11796],[100,11880],[100,11963],[100,12047],[100,12129],[100,12213],[100,12296],[100,12379],[100,12463],[100,12547],[100,12629],[100,12714],[100,12796],[100,12880],[100,12964],[100,13047],[100,13130],[100,13213],[100,13296],[100,13379],[100,13462],[100,13547],[100,13629],[100,13712],[100,13797],[100,13879],[100,13963],[100,14046],[100,14130],[100,14212],[100,14297],[100,14379],[100,14463],[100,14546],[100,14629],[100,14712],[100,14796],[100,14880],[100,14963],[100,15046],[100,15129],[100,15212],[100,15296],[100,15380],[100,15462],[100,15545],[100,15630],[100,15712],[100,15796],[100,15879],[100,15963],[100,16046],[100,16129],[100,16212],[100,16295],[100,16379],[100,16462],[100,16546],[100,16629],[100,16712],[100,16796],[100,16878],[100,16962],[100,17046],[100,17129],[100,17212],[100,17296],[100,17378],[100,17462],[100,17546],[100,17629],[100,17712],[100,17796],[100,17878],[100,17962],[100,18045],[100,18129],[100,18212],[100,18295],[100,18378],[100,18462],[100,18545],[100,18629],[100,18712],[100,18796],[100,18878],[100,18962],[100,19046],[100,19128],[100,19211],[100,19295],[100,19378],[100,19461],[100,19545],[100,19628],[100,19712],[100,19795],[100,19878],[100,19961],[100,20045],[100,20128],[100,20211],[100,20295],[100,20378],[100,20461],[100,20545],[100,20629],[100,20711],[100,20794],[100,20878],[100,20962],[100,21045],[100,21128],[100,21211],[100,21295],[100,21378],[100,21461],[100,21544],[100,21627],[100,21711],[100,21794],[100,21878],[100,21961],[100,22045],[100,22128],[100,22211],[100,22294],[100,22378],[100,22461],[100,22544],[100,22627],[100,22711],[100,22794],[100,22878],[100,22961],[100,23044],[100,23128],[100,23211],[100,23294],[100,23377],[100,23461],[100,23544],[100,23628],[100,23711],[100,23794],[100,23877],[100,23960],[100,24044],[100,24128],[100,24211],[100,24294],[100,24377],[100,24461],[100,24544],[100,24627],[100,24710],[100,24794],[100,24877],[100,24960],[100,25044],[100,25127],[100,25211],[100,25293],[100,25377],[100,25460],[100,25543],[100,25627],[100,25710],[100,25794],[100,25876],[100,25960],[100,26044],[100,26127],[100,26210],[100,26293],[100,26376],[100,26460],[100,26543],[100,26627],[100,26710],[100,26793],[100,26877],[100,26960],[100,27043],[100,27126],[100,27210],[100,27293],[100,27376],[100,27460],[100,27543],[100,27626],[100,27710],[100,27792],[100,27876],[100,27959],[100,28042],[100,28126],[100,28210],[100,28293],[100,28376],[100,28459]]",1,0,777.9011,780.1834,100,2.0819,"[{""rating"":98.90625,""responseTime"":1.3260000000000218},{""rating"":100,""responseTime"":2.0818999999761445}]",space,1.7457,,780.1834,Partially,50,780.1892,,,[],,0,2,2,2,1,audio/Narrative7Situation2.wav,audio/Narrative8Situation2.wav,audio/Narrative5Situation2.wav,audio/Narrative6Situation2.wav,3,3,3,3,,,,,,,,,,,,,,,,,,,,,,,,,,,,,,,,,,,,,,,
,,,,,,5fb2c8b4b04a8594fc0a3825,2024-02-08_16h20.38.359,group3.1-3.2-social-tom,2023.2.2,Linux x86_64,59.88023952,65c5074098b851296ff0b7ed,65c54579655c38d7add30981,,,,,,,,,,,,,,,,,,,,,,,,,,,,,780.1898,2,audio/Narrative6Situation3.wav,785.1992,,785.1992,797.8127,"[[999,26],[999,99],[999,182],[999,266],[999,350],[999,433],[13.6,516],[10.8,598],[9.5,682],[4.2,766],[1.7,849],[1.7,932],[1.6,1015],[1.9,1099],[2,1182],[2,1265],[2.5,1349],[2.3,1432],[2.3,1515],[3,1599],[3,1682],[3,1765],[3.6,1849],[3.6,1932],[3.6,2015],[2.2,2099],[2,2182],[2,2265],[2,2348],[1.7,2432],[1.1,2516],[0.2,7433],[0.2,7514],[0.2,7597],[0.2,7680],[0.3,7764],[0.3,7847],[0.3,7930],[0.3,8013],[0.3,8097],[0.3,8180],[0.3,8264],[0.3,8347],[0.3,8430],[0.3,8514],[0.3,8597],[0.3,8680],[0.3,8763],[0.3,8847],[0.3,8930],[0.3,9014],[0.3,9096],[0.3,9180],[0.3,9264],[0.3,9347],[59.1,10013],[80.8,10180],[99.5,10263],[98.9,10347],[98.8,10429],[97.7,10513],[97.7,10596],[97.7,10679],[98,10763],[100,10846],[100,10929],[100,11013],[100,11096],[100,11180],[100,11262],[100,11346],[100,11429],[100,11513],[100,11596],[100,11679],[100,11762],[100,11847],[100,11930],[100,12012],[100,12096],[100,12180],[100,12262],[97,12347],[95.9,12430],[90.2,12512],[83.3,12596]]",1,0,797.8128,803.0275,74.375,1.1087,"[{""rating"":74.375,""responseTime"":1.1086999999284899}]",space,4.666,,803.0276,Not at all,0,803.0445,,,[],,0,3,3,3,1,audio/Narrative7Situation3.wav,audio/Narrative8Situation3.wav,audio/Narrative5Situation3.wav,audio/Narrative6Situation3.wav,8,4,3,5,,,,,,,,,,,,,,,,,,,,,,,,,,,,,,,,,,,,,,,
,,,,,,5fb2c8b4b04a8594fc0a3825,2024-02-08_16h20.38.359,group3.1-3.2-social-tom,2023.2.2,Linux x86_64,59.88023952,65c5074098b851296ff0b7ed,65c54579655c38d7add30981,,,,,,,,,,,,,,,,,,,,,,,,,,,,,803.045,2,audio/Narrative6Situation4.wav,805.0606,,805.0606,817.6753,"[[5.9,83],[5.9,167],[5.8,250],[0.6,417],[11.3,12602]]",1,0,817.6754,824.1063,49.375,2.0724,"[{""rating"":49.375,""responseTime"":2.0724000000952856}]",space,5.8924,,824.1063,Partially,50,824.1381,,,[],,0,4,4,4,1,audio/Narrative7Situation4.wav,audio/Narrative8Situation4.wav,audio/Narrative5Situation4.wav,audio/Narrative6Situation4.wav,3,3,1,2,,,,,,,,,,,,,,,,,,,,,,,,,,,,,,,,,,,,,,,
,,,,,,5fb2c8b4b04a8594fc0a3825,2024-02-08_16h20.38.359,group3.1-3.2-social-tom,2023.2.2,Linux x86_64,59.88023952,65c5074098b851296ff0b7ed,65c54579655c38d7add30981,,,,,,,,,,,,,,,,,,,,,,,,,,,,,824.1386,2,audio/Narrative6Situation5.wav,826.1555,,826.1556,834.1206,"[[46.3,1583],[46.3,1665],[46.3,1748],[46.3,1832],[45,1916],[28.3,1999],[58.1,2582],[38.3,2666],[42.3,2749],[51.6,2832],[79.4,2916],[93.6,3000],[97.5,3082],[100,3166],[100,3249],[100,3332],[100,3415],[100,3498],[100,3582],[100,3665],[100,3748],[100,3832],[100,3915],[100,3998],[100,4082],[100,4165],[100,4248],[100,4331],[100,4415],[100,4499],[100,4581],[100,4666],[100,4749],[100,4832],[100,4915],[100,4998],[100,5081],[100,5165],[100,5248],[100,5331],[100,5415],[100,5498],[100,5582],[100,5664],[100,5748],[100,5831],[100,5915],[100,5998],[100,6081],[100,6165],[100,6248],[100,6331],[100,6414],[100,6498],[100,6581],[100,6664],[100,6747],[100,6831],[100,6914],[100,6997],[100,7081],[100,7164],[100,7248],[100,7331],[100,7415],[100,7498],[100,7581],[100,7664],[100,7748],[100,7831],[100,7914]]",1,0,834.1208,836.22,100,1.441,"[{""rating"":99.0625,""responseTime"":0.8445000000000391},{""rating"":100,""responseTime"":1.441000000000031}]",space,1.5509,,836.22,Definitely yes,100,836.2236,,,[],,0,5,5,5,1,audio/Narrative7Situation5.wav,audio/Narrative8Situation5.wav,audio/Narrative5Situation5.wav,audio/Narrative6Situation5.wav,5,2,5,2,,,,,,,,,,,,,,,,,,,,,,,,,,,,,,,,,,,,,,,
,,,,,,5fb2c8b4b04a8594fc0a3825,2024-02-08_16h20.38.359,group3.1-3.2-social-tom,2023.2.2,Linux x86_64,59.88023952,65c5074098b851296ff0b7ed,65c54579655c38d7add30981,,,,,,,,,,,,,,,,,,,,,,,,,,,,,836.2241,2,audio/Narrative6Situation6.wav,838.236,,838.2361,849.3005,"[[100,499],[100,582],[100,666],[100,750],[100,832],[100,916],[100,999],[100,1082],[100,1166],[100,1249],[100,1333],[100,1416],[100,1499],[100,1582],[100,1665],[100,1749],[100,1832],[100,1916],[100,1999],[100,2082],[100,2165],[100,2249],[100,2332],[100,2415],[100,2499],[100,2582],[51.7,2666],[20,2749],[23,2832],[39.7,2916],[47.8,2998],[49.4,3082],[79.1,3165],[63.4,3249],[79.4,3333],[100,3416],[100,3499],[100,3582],[100,3668],[100,3749],[100,3832],[100,3915],[100,3998],[100,4081],[100,4165],[100,4248],[100,4331],[100,4415],[100,4498],[100,4582],[100,4665],[100,4748],[100,4831],[100,4914],[100,4997],[100,5082],[100,5164],[100,5248],[100,5332],[100,5415],[100,5498],[100,5582],[100,5664],[100,5748],[100,5831],[100,5914],[100,5998],[100,6081],[100,6165],[100,6247],[100,6331],[100,6415],[100,6498],[100,6581],[100,6664],[100,6748],[100,6831],[100,6915],[100,6998],[100,7081],[100,7164],[100,7248],[100,7331],[100,7414],[100,7497],[100,7581],[100,7664],[100,7747],[100,7831],[100,7914],[100,7998],[100,8081],[100,8164],[100,8248],[100,8331],[100,8414],[100,8497],[100,8581],[100,8664],[100,8747],[100,8831],[100,8913],[100,8997],[100,9081],[100,9164],[100,9247],[100,9331],[100,9413],[100,9497],[100,9580],[100,9664],[100,9746],[100,9830],[100,9913],[100,9997],[100,10081],[100,10164],[100,10247],[100,10330],[100,10414],[100,10497],[100,10580],[100,10663],[100,10747],[100,10830],[100,10914],[100,10997]]",1,0,849.3008,855.4317,99.6875,1.2168,"[{""rating"":99.6875,""responseTime"":1.2167999999522863}]",space,5.5905,,855.4318,Partially,50,855.4485,,,[],,0,6,6,6,1,audio/Narrative7Situation6.wav,audio/Narrative8Situation6.wav,audio/Narrative5Situation6.wav,audio/Narrative6Situation6.wav,3,2,3,2,,,,,,,,,,,,,,,,,,,,,,,,,,,,,,,,,,,,,,,
,,,,,,5fb2c8b4b04a8594fc0a3825,2024-02-08_16h20.38.359,group3.1-3.2-social-tom,2023.2.2,Linux x86_64,59.88023952,65c5074098b851296ff0b7ed,65c54579655c38d7add30981,,,,,,,,,,,,,,,,,,,,,,,,,,,,,855.4489,2,audio/Narrative6Situation7.wav,860.464,,860.4641,885.3252,"[[8,166],[8,249],[8,333],[8.6,416],[9.2,500],[9.2,582],[1.1,917],[1.4,999],[1.3,1083],[1.1,1166],[1.1,1249],[1.1,1332],[1.1,1415],[0.8,1499],[0.2,1582],[0.2,1666],[0.2,1749],[0.8,1833],[3.8,1916],[13.4,1999],[28,2083],[34.4,2166],[37.3,2249],[43.1,2332],[45.3,2416],[47.3,2499],[48.8,2582],[48.9,2665],[48.9,2749],[49.2,2832],[49.2,2915],[49.2,2998],[49.2,3082],[49.2,3165],[49.2,3249],[49.2,3331],[49.2,3415],[49.2,3498],[49.2,3582],[49.2,3665],[49.2,3748],[49.2,3831],[49.2,3915],[49.2,3998],[49.2,4082],[49.2,4165],[49.2,4248],[49.2,4331],[49.2,4415],[49.2,4499],[49.2,4581],[49.2,4664],[49.2,4748],[49.2,4832],[48.1,4915],[8.6,4999],[1.7,5749],[14.1,6998],[28.9,7081],[31.7,7164],[37.2,7249],[39.1,7331],[50.5,7415],[74.5,7498],[100,7581],[100,7664],[100,7748],[100,7830],[100,7914],[100,7998],[100,8081],[100,8164],[100,8248],[100,8331],[100,8414],[100,8498],[100,8581],[100,8664],[100,8748],[100,8831],[100,8914],[100,8997],[100,9080],[100,9164],[100,9255],[100,9331],[100,9416],[100,9497],[100,9581],[100,9663],[100,9747],[100,9830],[100,9914],[100,9997],[100,10081],[100,10163],[100,10247],[100,10330],[100,10414],[100,10497],[100,10581],[100,10664],[100,10747],[100,10830],[100,10913],[100,10997],[100,11080],[100,11164],[100,11247],[100,11330],[100,11413],[100,11497],[100,11580],[100,11664],[100,11747],[100,11830],[100,11913],[100,11997],[100,12080],[100,12164],[100,12246],[100,12330],[100,12413],[100,12497],[100,12580],[100,12663],[100,12746],[100,12830],[100,12913],[100,12996],[100,13080],[100,13163],[100,13246],[100,13329],[100,13413],[100,13496],[100,13580],[100,13663],[100,13746],[100,13829],[100,13913],[100,13996],[100,14080],[100,14163],[100,14246],[100,14329],[100,14413],[100,14496],[100,14580],[100,14663],[100,14746],[100,14830],[100,14913],[100,14996],[100,15079],[100,15163],[100,15246],[100,15329],[100,15413],[100,15495],[100,15579],[100,15662],[100,15746],[100,15829],[100,15913],[100,15995],[100,16079],[100,16162],[100,16245],[100,16329],[100,16412],[100,16495],[100,16579],[100,16662],[100,16746],[100,16829],[100,16912],[100,16996],[100,17078],[100,17162],[100,17246],[100,17329],[100,17412],[100,17495],[100,17579],[100,17662],[100,17745],[100,17828],[100,17912],[100,17995],[100,18078],[100,18162],[100,18245],[100,18329],[100,18412],[100,18495],[100,18578],[100,18662],[100,18745],[100,18828],[100,18912],[100,18995],[100,19078],[100,19162],[100,19245],[100,19328],[100,19411],[100,19494],[100,19578],[100,19662],[100,19744],[100,19828],[100,19911],[100,19995],[100,20078],[100,20161],[100,20244],[100,20329],[100,20411],[100,20495],[100,20578],[100,20661],[100,20744],[100,20827],[100,20912],[100,20995],[100,21077],[100,21161],[100,21244],[100,21327],[100,21412],[100,21494],[100,21578],[100,21661],[100,21744],[100,21827],[100,21911],[100,21994],[100,22077],[100,22161],[100,22244],[100,22327],[100,22411],[100,22494],[100,22578],[100,22660],[100,22744],[100,22827],[100,22911],[100,22994],[100,23077],[100,23160],[100,23244],[100,23327],[100,23411],[100,23494],[100,23577],[100,23661],[100,23744],[100,23827],[100,23910],[100,23994],[100,24077],[100,24161],[100,24245],[100,24327],[100,24411],[100,24494],[100,24577],[100,24661],[100,24744],[100,24826]]",1,0,885.3253,886.9411,99.375,0.9258,"[{""rating"":99.375,""responseTime"":0.9258000000714901}]",space,1.0666,,886.9411,Not at all,0,886.9444,,,[],,0,7,7,7,1,audio/Narrative7Situation7.wav,audio/Narrative8Situation7.wav,audio/Narrative5Situation7.wav,audio/Narrative6Situation7.wav,5,3,4,5,,,,,,,,,,,,,,,,,,,,,,,,,,,,,,,,,,,,,,,
,,,,,,5fb2c8b4b04a8594fc0a3825,2024-02-08_16h20.38.359,group3.1-3.2-social-tom,2023.2.2,Linux x86_64,59.88023952,65c5074098b851296ff0b7ed,65c54579655c38d7add30981,,,,,,,,,,,,,,,,,,,,,,,,,,,,,886.9447,2,audio/Narrative6Situation8.wav,891.9566,,891.9567,898.8219,"[[81.4,683],[31.6,767],[0.9,1183],[1.3,1266],[1.3,1349],[1.3,1432],[1.3,1516],[1.3,1599],[1.1,1682],[1.1,1766],[1.1,1849]]",1,0,898.8221,901.3378,0,2.2172,"[{""rating"":0.3124999999999989,""responseTime"":1.6343999999761536},{""rating"":0,""responseTime"":2.217200000047683}]",space,1.9703,,901.3379,Not at all,0,901.3402,,,[],,0,8,8,8,1,audio/Narrative7Situation8.wav,audio/Narrative8Situation8.wav,audio/Narrative5Situation8.wav,audio/Narrative6Situation8.wav,2,3,3,5,,,,,,,,,,,,,,,,,,,,,,,,,,,,,,,,,,,,,,,
,,,,,,5fb2c8b4b04a8594fc0a3825,2024-02-08_16h20.38.359,group3.1-3.2-social-tom,2023.2.2,Linux x86_64,59.88023952,65c5074098b851296ff0b7ed,65c54579655c38d7add30981,,,,,,,,,,,,,,,,,,,,,,,,,,,,,901.3406,2,audio/Narrative6Situation9.wav,905.3536,,905.3537,915.3174,"[[0.6,916],[0.8,999],[0.8,1082],[0.8,1165]]",1,0,915.3175,917.5006,0,1.7423,"[{""rating"":0.9375000000000022,""responseTime"":1.1079000000953556},{""rating"":0,""responseTime"":1.7423000000715092}]",space,1.6604,,917.5007,Partially,50,917.5064,,,[],,0,9,9,9,1,audio/Narrative7Situation9.wav,audio/Narrative8Situation9.wav,audio/Narrative5Situation9.wav,audio/Narrative6Situation9.wav,2,3,3,4,,,,,,,,,,,,,,,,,,,,,,,,,,,,,,,,,,,,,,,
,,,,,,5fb2c8b4b04a8594fc0a3825,2024-02-08_16h20.38.359,group3.1-3.2-social-tom,2023.2.2,Linux x86_64,59.88023952,65c5074098b851296ff0b7ed,65c54579655c38d7add30981,,,,,,,,,,,,,,,,,,,,,,,,,,,,,917.5069,2,audio/Narrative5Situation1.wav,922.5156,,922.5156,935.8131,[],1,0,935.8132,941.1617,22.8125,3.3406,"[{""rating"":22.812500000000004,""responseTime"":3.340600000023869}]",space,4.8052,,941.1618,Not at all,0,941.165,,,[],,0,10,10,10,1,audio/Narrative8Situation1.wav,audio/Narrative7Situation1.wav,audio/Narrative6Situation1.wav,audio/Narrative5Situation1.wav,5,2,2,5,,,,,,,,,,,,,,,,,,,,,,,,,,,,,,,,,,,,,,,
,,,,,,5fb2c8b4b04a8594fc0a3825,2024-02-08_16h20.38.359,group3.1-3.2-social-tom,2023.2.2,Linux x86_64,59.88023952,65c5074098b851296ff0b7ed,65c54579655c38d7add30981,,,,,,,,,,,,,,,,,,,,,,,,,,,,,941.1653,2,audio/Narrative5Situation2.wav,944.1772,,944.1773,973.6373,"[[1.9,500],[1.9,583],[0.5,666],[4.5,8832],[31.9,8915],[33.4,8998],[35.6,9082],[37.7,9165],[43.9,9248],[44.8,9331],[45.3,9414],[48.8,9498],[48.8,9581],[48.8,9664],[48.8,9747],[48.8,9830],[48.8,9914],[48.9,9997],[48.9,10081],[49.1,10164],[49.1,10247],[49.1,10331],[49.2,10414],[49.2,10497],[49.2,10580],[49.2,10664],[49.2,10747],[49.2,10831],[49.2,10914],[49.2,10997],[49.2,11081],[49.2,11163],[49.2,11247],[49.2,11330],[49.2,11414],[49.2,11497],[49.2,11580],[49.2,11664],[49.2,11747],[49.2,11830],[49.2,11913],[49.2,11997],[49.2,12080],[49.2,12163],[49.2,12247],[49.2,12330],[49.2,12413],[49.2,12496],[49.2,12580],[49.2,12663],[49.2,12747],[49.2,12830],[49.2,12914],[49.2,12997],[49.2,13079],[49.2,13163],[49.2,13247],[49.2,13330],[49.2,13413],[49.2,13497],[49.2,13580],[49.2,13663],[49.2,13746],[49.2,13829],[49.2,13913],[49.2,13996],[49.2,14080],[49.2,14163],[49.2,14247],[49.2,14330],[49.2,14413],[49.2,14496],[49.2,14580],[49.2,14663],[49.2,14746],[49.2,14829],[49.2,14913],[49.2,14996],[49.2,15080],[49.2,15163],[49.2,15246],[49.2,15329],[49.2,15413],[49.2,15496],[49.2,15579],[49.2,15663],[49.2,15746],[49.2,15829],[49.2,15913],[49.2,15996],[49.2,16079],[49.2,16162],[49.2,16246],[49.2,16329],[49.2,16413],[49.2,16496],[49.2,16579],[49.2,16663],[49.2,16746],[49.2,16829],[49.2,16912],[49.2,16996],[49.2,17079],[49.2,17162],[49.2,17245],[49.2,17329],[49.2,17413],[49.2,17495],[49.2,17579],[49.2,17662],[49.2,17745],[49.2,17829],[49.2,17912],[49.2,17995],[49.2,18079],[49.2,18162],[49.2,18245],[49.2,18329],[49.2,18412],[49.2,18496],[49.2,18579],[49.2,18662],[49.2,18745],[49.2,18828],[49.2,18912],[49.2,18995],[49.2,19078],[49.2,19162],[49.2,19245],[49.2,19328],[49.2,19412],[49.2,19495],[49.2,19579],[49.2,19662],[49.2,19745],[49.2,19828],[49.2,19912],[49.2,19995],[49.2,20078],[49.2,20162],[49.2,20245],[49.2,20328],[49.2,20412],[49.2,20495],[49.2,20578],[49.2,20661],[49.2,20745],[49.2,20828],[49.2,20912],[49.2,20995],[49.2,21078],[49.2,21162],[49.2,21245],[49.2,21328],[49.2,21411],[49.2,21495],[49.2,21578],[49.2,21661],[49.2,21744],[49.2,21828],[49.2,21911],[49.2,21994],[49.2,22077],[49.2,22161],[49.2,22244],[54.4,22328],[100,22412],[100,22494],[100,22577],[100,22661],[100,22744],[100,22827],[100,22911],[100,22994],[100,23077],[100,23161],[100,23245],[100,23327],[100,23410],[100,23494],[100,23577],[100,23661],[100,23744],[100,23827],[100,23911],[100,23994],[100,24077],[100,24161],[100,24244],[100,24327],[100,24411],[100,24494],[100,24577],[100,24660],[100,24744],[100,24827],[100,24910],[100,24994],[100,25077],[100,25160],[100,25243],[100,25327],[100,25411],[100,25494],[100,25577],[100,25660],[99.8,25744],[99.7,25827],[99.7,25910],[99.7,25993],[97.5,26077],[92.3,26160],[0.3,26743],[0.3,26827],[0.5,26910],[0.5,26993],[0.5,27076],[9.2,29077],[58.1,29159],[65.6,29243],[65.9,29326],[49.8,29410]]",1,0,973.6376,975.8029,73.75,0.965,"[{""rating"":73.75,""responseTime"":0.9650000000000318}]",space,1.6209,,975.803,Partially,50,975.8062,,,[],,0,11,11,11,1,audio/Narrative8Situation2.wav,audio/Narrative7Situation2.wav,audio/Narrative6Situation2.wav,audio/Narrative5Situation2.wav,3,3,3,3,,,,,,,,,,,,,,,,,,,,,,,,,,,,,,,,,,,,,,,
,,,,,,5fb2c8b4b04a8594fc0a3825,2024-02-08_16h20.38.359,group3.1-3.2-social-tom,2023.2.2,Linux x86_64,59.88023952,65c5074098b851296ff0b7ed,65c54579655c38d7add30981,,,,,,,,,,,,,,,,,,,,,,,,,,,,,975.8065,2,audio/Narrative5Situation3.wav,978.82,,978.8201,992.7348,"[[12.8,1182],[7.3,1266],[3.6,1349],[15.8,5448],[47.3,5531],[49.2,5614],[49.2,5697],[56.6,5781],[66.9,5864],[88.4,5948],[100,6031],[100,6113],[100,6197],[100,6281],[100,6363],[100,6447],[100,6531],[100,6613],[100,6698],[100,6781],[100,6864],[100,6947],[100,7034],[100,7119],[100,7196],[100,7281],[100,7363],[100,7446],[100,7531],[100,7613],[100,7696],[100,7780],[100,7863],[100,7947],[100,8029],[100,8113],[97.2,8197],[68.4,8280],[16.4,8364],[16.4,8447],[16.1,8530],[12.3,8613],[7.3,8697],[7.3,8780],[6.4,8864],[3.9,8947],[0.9,9030],[1.7,10197],[2.3,10279],[2.3,10363],[2.3,10446],[2.7,10530],[2.7,10613],[8.9,11696],[22.8,11780],[79.8,11864],[81.9,11946],[1.3,12613],[1.3,12696],[1.4,12779],[1.4,12862],[1.4,12946],[1.3,13362],[17.3,13446],[47.3,13530],[58.4,13613],[61.3,13696],[63.1,13778],[65.5,13863]]",1,0,992.735,994.7826,50,1.3894,"[{""rating"":50,""responseTime"":1.389399999976149}]",space,1.5086,,994.7826,Not at all,0,994.7855,,,[],,0,12,12,12,1,audio/Narrative8Situation3.wav,audio/Narrative7Situation3.wav,audio/Narrative6Situation3.wav,audio/Narrative5Situation3.wav,4,8,5,3,,,,,,,,,,,,,,,,,,,,,,,,,,,,,,,,,,,,,,,
,,,,,,5fb2c8b4b04a8594fc0a3825,2024-02-08_16h20.38.359,group3.1-3.2-social-tom,2023.2.2,Linux x86_64,59.88023952,65c5074098b851296ff0b7ed,65c54579655c38d7add30981,,,,,,,,,,,,,,,,,,,,,,,,,,,,,994.7858,2,audio/Narrative5Situation4.wav,995.799,,995.799,1016.1941,"[[15.5,82],[14.4,165],[13.4,249],[12,332],[6.3,416],[5.2,499],[2.2,583],[44.2,3498],[48.8,3582],[48.8,3664],[4.8,3749],[0.5,5998],[0.9,6081],[0.9,6164],[0.9,6248],[0.9,6331],[0.9,6414],[21.4,15162],[38.1,15245],[38.1,15329],[38.9,15412],[79.8,15496],[91.7,15579],[91.7,15662],[98.1,15746],[100,15828],[100,15911],[100,15995],[100,16078],[100,16162],[100,16246],[100,16329],[100,16413],[100,16496],[100,16579],[100,16662],[100,16746],[100,16829],[100,16912],[100,16995],[100,17078],[100,17162],[100,17245],[100,17329],[100,17412],[100,17495],[100,17578],[100,17662],[100,17745],[100,17828],[100,17911],[100,17994],[100,18078],[100,18162],[100,18245],[100,18328],[100,18412],[100,18494],[100,18578],[100,18661],[100,18745],[100,18828],[100,18911],[100,18995],[100,19078],[100,19161],[100,19244],[100,19327],[100,19411],[100,19495],[100,19577],[100,19661],[100,19744],[100,19828],[100,19911],[100,19994],[100,20077],[100,20161],[100,20244],[100,20327]]",1,0,1016.1942,1017.8268,100,1.3108,"[{""rating"":98.75,""responseTime"":0.7287000000476382},{""rating"":100,""responseTime"":1.3107999999522235}]",space,1.1068,,1017.8269,Definitely yes,100,1017.8324,,,[],,0,13,13,13,1,audio/Narrative8Situation4.wav,audio/Narrative7Situation4.wav,audio/Narrative6Situation4.wav,audio/Narrative5Situation4.wav,3,3,2,1,,,,,,,,,,,,,,,,,,,,,,,,,,,,,,,,,,,,,,,
,,,,,,5fb2c8b4b04a8594fc0a3825,2024-02-08_16h20.38.359,group3.1-3.2-social-tom,2023.2.2,Linux x86_64,59.88023952,65c5074098b851296ff0b7ed,65c54579655c38d7add30981,,,,,,,,,,,,,,,,,,,,,,,,,,,,,1017.833,2,audio/Narrative5Situation5.wav,1022.8425,,1022.8425,1038.2722,"[[7,666],[5.5,749],[5,833],[4.7,916],[3.1,1000],[2.5,1083],[2.2,1166],[1.3,1249],[1.1,1332],[0.9,1415],[0.5,1499],[0.5,1582],[0.3,1665],[0.3,1749],[0.3,1834],[0.3,1915],[0.3,1999],[0.3,2082],[0.3,2165],[0.3,2248],[0.3,2332],[0.3,2415],[0.3,2499],[0.3,2582],[0.3,2665],[0.3,2748],[0.3,2832],[0.3,2915],[0.3,2999],[0.3,3081],[0.3,3165],[0.3,3248],[0.3,3332],[0.3,3415],[0.3,3498],[0.3,3582],[0.3,3665],[0.3,3748],[0.3,3832],[0.3,3915],[0.3,3999],[0.3,4081],[0.3,4165],[0.3,4249],[0.3,4332],[0.3,4415],[0.3,4498],[0.3,4581],[0.3,4665],[0.3,4748],[0.3,4832],[0.3,4915],[0.3,4998],[0.3,5081],[0.3,5164],[0.3,5248],[0.3,5331],[0.3,5415],[0.5,5498],[0.5,5581],[0.5,5664],[0.5,5748],[0.5,5831],[0.5,5915],[0.5,5998],[0.5,6081],[0.5,6164],[0.5,6248],[0.5,6331],[0.5,6414],[0.5,6498],[0.5,6581],[0.5,6665],[0.5,6747],[0.5,6831],[0.5,6914],[0.5,6997],[0.6,7081],[0.6,7165],[0.6,7248],[0.6,7330],[0.8,7415],[0.8,7497],[0.8,7581],[0.8,7664],[0.8,7748],[0.8,7831],[0.8,7913],[0.8,7997],[0.8,8080],[0.8,8164],[0.8,8247],[0.8,8331],[0.8,8414],[0.8,8497],[0.8,8580],[0.8,8664],[0.8,8747],[0.8,8831],[0.8,8914],[0.8,8997],[0.8,9080],[0.8,9163],[0.8,9247],[0.8,9330],[0.8,9413],[0.8,9497],[0.8,9580],[0.8,9663],[0.8,9747],[0.8,9830],[0.8,9913],[0.8,9996],[0.8,10079],[0.8,10163],[0.8,10247],[0.8,10330],[0.8,10413],[0.8,10496],[0.8,10579],[0.8,10663],[0.8,10746],[0.8,10830],[0.8,10913],[0.8,10996],[0.8,11080],[0.8,11163],[0.8,11247],[0.8,11329],[0.8,11413],[0.8,11496],[0.8,11579],[0.8,11663],[0.8,11746],[0.8,11829],[0.8,11912],[0.8,11996],[0.8,12079],[0.8,12163],[0.8,12247],[0.8,12329],[0.8,12412],[0.8,12496],[0.8,12579],[0.8,12663],[0.8,12746],[0.8,12829],[0.8,12913],[0.8,12996],[0.8,13079],[0.8,13163],[0.8,13246],[0.8,13329],[0.8,13412],[0.8,13495],[0.8,13579],[0.8,13662],[0.8,13746],[0.8,13830],[0.8,13912],[0.8,13996],[0.8,14080],[0.8,14162],[0.8,14246],[0.8,14329],[0.8,14412],[0.8,14496],[0.8,14579],[0.8,14662],[0.8,14746],[0.8,14829],[0.8,14913],[0.8,14996],[0.8,15079],[0.8,15162],[0.8,15246],[0.8,15329],[0.8,15412]]",1,0,1038.2726,1041.1048,0,2.0213,"[{""rating"":0.78125,""responseTime"":1.2102000000475073},{""rating"":0,""responseTime"":2.0213000000715056}]",space,2.3087,,1041.1049,Definitely yes,100,1041.1072,,,[],,0,14,14,14,1,audio/Narrative8Situation5.wav,audio/Narrative7Situation5.wav,audio/Narrative6Situation5.wav,audio/Narrative5Situation5.wav,2,5,2,5,,,,,,,,,,,,,,,,,,,,,,,,,,,,,,,,,,,,,,,
,,,,,,5fb2c8b4b04a8594fc0a3825,2024-02-08_16h20.38.359,group3.1-3.2-social-tom,2023.2.2,Linux x86_64,59.88023952,65c5074098b851296ff0b7ed,65c54579655c38d7add30981,,,,,,,,,,,,,,,,,,,,,,,,,,,,,1041.1077,2,audio/Narrative5Situation6.wav,1044.1206,,1044.1208,1049.8187,"[[5.3,1916],[10,2000],[28.1,2083],[36.6,2165],[39.7,2250],[71.6,2333],[87.5,2416],[92.7,2499],[92.7,2582],[92.7,2665],[94.5,2749],[95.5,2832],[97.5,2915],[97.5,2999],[97.7,3082],[100,3165],[100,3248],[100,3332],[100,3415],[100,3499],[100,3582],[100,3665],[100,3748],[100,3832],[100,3915],[100,3998],[100,4082],[100,4164],[100,4248],[100,4331],[100,4414],[100,4499],[100,4581],[100,4665],[100,4748],[100,4831],[100,4915],[100,4998],[100,5081],[100,5164],[100,5248],[100,5332],[100,5415],[100,5498],[100,5590],[100,5665]]",1,0,1049.819,1053.0355,100,2.8408,"[{""rating"":99.0625,""responseTime"":2.0969000000952747},{""rating"":100,""responseTime"":2.8408000000715674}]",space,2.6892,,1053.0356,Definitely yes,100,1059.4498,100,4.9939,"[{""rating"":99.84375,""responseTime"":4.309700000047542},{""rating"":100,""responseTime"":4.993899999976065}]",space,0,15,15,15,1,audio/Narrative8Situation6.wav,audio/Narrative7Situation6.wav,audio/Narrative6Situation6.wav,audio/Narrative5Situation6.wav,2,3,2,3,,,5.8639,,,,,,,,,,,,,,,,,,,,,,,,,,,,,,,,,,,,
,,,,,,5fb2c8b4b04a8594fc0a3825,2024-02-08_16h20.38.359,group3.1-3.2-social-tom,2023.2.2,Linux x86_64,59.88023952,65c5074098b851296ff0b7ed,65c54579655c38d7add30981,,,,,,,,,,,,,,,,,,,,,,,,,,,,,1059.4504,2,audio/Narrative5Situation7.wav,1063.4656,,1063.4657,1084.4948,"[[38.1,600],[34.7,683],[18.4,767],[9.8,849],[7,933],[3.9,1016],[2,5448],[9.4,5532],[31.1,5616],[41.1,5699],[56.3,5781],[60.8,5865],[60.8,5948],[57.8,6032],[53,6115],[52,6198],[49.8,6282],[48.4,6365],[48.4,6448],[48.4,6531],[48.6,6615],[48.8,6699],[49.1,6781],[49.2,6865],[49.4,6948],[49.4,7032],[49.4,7115],[49.4,7198],[49.4,7281],[49.4,7364],[49.4,7448],[49.4,7531],[49.4,7615],[49.4,7698],[37.8,7782],[2,7865]]",1,0,1084.495,1088.3773,0,1.65,"[{""rating"":0.15625000000000222,""responseTime"":0.7977000000478256},{""rating"":0,""responseTime"":1.650000000000091}]",space,3.3326,,1088.3774,Partially,50,1088.3839,,,[],,0,16,16,16,1,audio/Narrative8Situation7.wav,audio/Narrative7Situation7.wav,audio/Narrative6Situation7.wav,audio/Narrative5Situation7.wav,3,5,5,4,,,,,,,,,,,,,,,,,,,,,,,,,,,,,,,,,,,,,,,
,,,,,,5fb2c8b4b04a8594fc0a3825,2024-02-08_16h20.38.359,group3.1-3.2-social-tom,2023.2.2,Linux x86_64,59.88023952,65c5074098b851296ff0b7ed,65c54579655c38d7add30981,,,,,,,,,,,,,,,,,,,,,,,,,,,,,1088.3847,2,audio/Narrative5Situation8.wav,1091.3925,,1091.3926,1100.2075,"[[6.9,100],[6.9,183],[6.9,266],[6.7,350],[6.7,435],[6.4,516],[3.3,600],[1.6,683],[0.3,766]]",1,0,1100.2077,1103.39,0,2.2955,"[{""rating"":1.093749999999999,""responseTime"":1.7174999999999727},{""rating"":0,""responseTime"":2.2954999999999472}]",space,2.6411,,1103.3901,Not at all,0,1103.3931,,,[],,0,17,17,17,1,audio/Narrative8Situation8.wav,audio/Narrative7Situation8.wav,audio/Narrative6Situation8.wav,audio/Narrative5Situation8.wav,3,2,5,3,,,,,,,,,,,,,,,,,,,,,,,,,,,,,,,,,,,,,,,
,,,,,,5fb2c8b4b04a8594fc0a3825,2024-02-08_16h20.38.359,group3.1-3.2-social-tom,2023.2.2,Linux x86_64,59.88023952,65c5074098b851296ff0b7ed,65c54579655c38d7add30981,,,,,,,,,,,,,,,,,,,,,,,,,,,,,1103.3934,2,audio/Narrative5Situation9.wav,1106.4058,,1106.4059,1145.9635,"[[0.6,2349],[4.1,2432],[5.9,2516],[5.9,2599],[4.7,2682],[4.2,2765],[4.1,2849],[4.1,2932],[3,3016],[2.5,3099],[4.7,7867],[24.8,7948],[29.1,8031],[38.4,8115],[51.7,8198],[52.3,8280],[52.5,8364],[52.3,8447],[50.3,8531],[47.2,8614],[47.2,8698],[47.2,8780],[47.2,8864],[47.2,8947],[47,9031],[47.7,9114],[47.7,9197],[48.1,9280],[49.2,9364],[49.5,9447],[49.5,9530],[49.5,9614],[49.5,9697],[49.5,9781],[49.5,9863],[49.5,9946],[49.5,10030],[49.5,10114],[49.5,10197],[49.5,10280],[49.5,10364],[49.5,10447],[49.5,10530],[49.5,10614],[49.5,10696],[49.5,10780],[49.5,10863],[49.5,10946],[49.5,11030],[49.5,11114],[48.6,11197],[48.6,11281],[48.6,11369],[48.6,11447],[48.6,11529],[48.6,11613],[48.6,11697],[48.4,11780],[37.5,11864],[0.6,12947],[0.9,13030],[0.9,13113],[0.9,13196],[0.9,13280],[0.9,13363],[0.9,13446],[0.9,13529],[0.9,13612],[0.9,13696],[0.9,13779],[0.9,13863],[0.9,13946],[0.9,14029],[0.9,14113],[0.9,14196],[0.9,14279],[0.9,14362],[0.9,14445],[0.9,14529],[0.9,14612],[0.9,14695],[0.9,14779],[0.9,14862],[0.9,14945],[0.9,15029],[0.9,15112],[0.9,15196],[0.9,15279],[0.9,15362],[0.9,15445],[0.9,15528],[0.9,15612],[0.9,15695],[0.9,15778],[0.9,15863],[0.9,15946],[0.9,16028],[0.9,16112],[0.9,16195],[0.9,16279],[0.9,16362],[0.9,16445],[45,16529],[92.3,16945],[95.2,17196],[98,17279],[98.1,17362],[98.1,17445],[98.3,17528],[98.1,17612],[97.3,17696],[96.9,17778],[64.4,17862],[70.8,17945],[85.5,18028],[83.3,18112],[39.1,18196],[13.8,18279]]",1,0,1145.9637,1152.8287,23.75,4.1418,"[{""rating"":0.78125,""responseTime"":1.2869999999998072},{""rating"":0,""responseTime"":1.8512000000475837},{""rating"":15.937499999999998,""responseTime"":3.627200000047651},{""rating"":23.75,""responseTime"":4.141799999952127}]",space,6.3181,,1152.8288,Not at all,0,1152.8328,,,[],,0,18,18,18,1,audio/Narrative8Situation9.wav,audio/Narrative7Situation9.wav,audio/Narrative6Situation9.wav,audio/Narrative5Situation9.wav,3,2,4,3,,,,,,,,,,,,,,,,,,,,,,,,,,,,,,,,,,,,,,,
,,,,,,5fb2c8b4b04a8594fc0a3825,2024-02-08_16h20.38.359,group3.1-3.2-social-tom,2023.2.2,Linux x86_64,59.88023952,65c5074098b851296ff0b7ed,65c54579655c38d7add30981,,,,,,,,,,,,,,,,,,,,,,,,,,,,,,,,,,,,,,,,,,,,,,,,,,,,,,,,,,,,,,,,,,,,,,,,1152.8333,1173.8738,space,20.5135,,1173.8756,1197.5866,space,23.3768,,,,,,,,,,,,,,,,,,,,,,,,,,
,,,,,,5fb2c8b4b04a8594fc0a3825,2024-02-08_16h20.38.359,group3.1-3.2-social-tom,2023.2.2,Linux x86_64,59.88023952,65c5074098b851296ff0b7ed,65c54579655c38d7add30981,,,,,,,,,,,,,,,,,,,,,,,,,,,,,1200.2101,1,audio/Narrative7Situation9.wav,1202.2167,,,,,,,1234.1677,1239.5917,74.375,2.3625,"[{""rating"":74.375,""responseTime"":2.362500000000182}]",space,4.883,,1234.1615,Partially,50,1234.1676,,,[],,,,,,,,,,,2,2,2,2,,,,,,,,,,,,,,,1197.6178,1200.1674,1202.2174,3,1234.1611,"[[999,1],[999,82],[999,165],[999,248],[999,332],[999,415],[999,498],[999,582],[999,665],[999,749],[999,832],[999,915],[999,999],[999,1082],[999,1165],[999,1248],[999,1332],[999,1415],[999,1498],[999,1581],[999,1665],[999,1748],[999,1832],[999,1915],[999,1998],[999,2082],[999,2165],[999,2248],[999,2332],[999,2415],[999,2498],[999,2581],[999,2664],[999,2747],[999,2831],[999,2915],[999,2998],[999,3082],[999,3165],[999,3248],[999,3331],[999,3415],[999,3498],[999,3581],[999,3664],[999,3748],[999,3831],[999,3914],[999,3998],[999,4081],[999,4164],[999,4248],[999,4331],[999,4414],[999,4497],[999,4581],[999,4664],[999,4747],[999,4831],[999,4914],[999,4997],[999,5081],[999,5164],[999,5247],[999,5331],[999,5414],[999,5497],[999,5581],[999,5664],[999,5748],[999,5830],[999,5914],[999,5997],[999,6081],[999,6164],[999,6248],[999,6330],[999,6413],[999,6497],[999,6580],[999,6664],[999,6747],[999,6830],[999,6914],[999,6997],[999,7080],[999,7164],[999,7247],[999,7330],[999,7414],[999,7497],[999,7580],[999,7664],[999,7747],[999,7831],[999,7913],[999,7996],[999,8080],[999,8164],[999,8247],[999,8330],[999,8413],[999,8497],[999,8580],[999,8663],[999,8747],[999,8830],[999,8913],[999,8996],[999,9080],[999,9163],[999,9247],[999,9330],[999,9413],[999,9496],[999,9579],[999,9663],[999,9746],[999,9829],[999,9913],[999,9996],[999,10079],[999,10163],[999,10246],[999,10330],[999,10413],[999,10496],[999,10579],[999,10663],[999,10746],[999,10829],[999,10913],[999,10996],[999,11079],[999,11163],[999,11246],[999,11329],[999,11413],[999,11496],[999,11579],[999,11662],[999,11746],[999,11829],[999,11913],[999,11996],[999,12079],[999,12162],[999,12246],[999,12329],[999,12412],[999,12496],[999,12579],[999,12663],[999,12745],[999,12829],[999,12912],[999,12996],[999,13079],[999,13162],[999,13245],[999,13329],[999,13413],[999,13495],[999,13579],[999,13662],[999,13745],[999,13828],[999,13912],[999,13996],[999,14079],[999,14162],[999,14245],[999,14329],[999,14412],[999,14495],[999,14578],[999,14662],[999,14745],[999,14829],[999,14912],[999,14996],[999,15079],[999,15162],[999,15245],[999,15329],[999,15412],[999,15495],[999,15579],[999,15663],[14.4,15758],[14.4,15829],[14.4,15912],[18,15995],[17.3,16079],[17.2,16161],[18.1,16245],[18.6,16328],[18.6,16412],[18.8,16495],[19.7,16578],[20.8,16661],[20.8,16745],[20.8,16828],[20.8,16911],[20.8,16995],[21.1,17078],[21.4,17161],[21.4,17245],[21.4,17328],[21.4,17412],[21.4,17495],[21.3,17578],[21.3,17661],[21.3,17744],[21.3,17828],[21.3,17912],[21.3,17994],[21.3,18078],[21.3,18161],[21.3,18244],[21.3,18328],[21.3,18411],[21.3,18494],[21.3,18578],[21.3,18661],[21.3,18744],[21.3,18827],[21.3,18911],[21.3,18994],[21.3,19077],[21.3,19161],[21.3,19244],[21.3,19327],[21.3,19411],[21.3,19494],[21.3,19577],[21.3,19661],[21.3,19744],[21.3,19827],[21.3,19911],[21.3,19994],[21.3,20077],[21.3,20160],[21.3,20244],[21.3,20327],[21.3,20411],[21.3,20493],[21.3,20577],[21.3,20661],[21.3,20744],[21.3,20827],[21.3,20910],[21.3,20994],[21.3,21077],[21.3,21160],[21.3,21243],[21.3,21327],[21.3,21410],[21.3,21494],[21.3,21577],[21.3,21660],[21.3,21743],[21.3,21827],[21.3,21910],[21.3,21994],[21.3,22077],[21.4,22176],[30.8,22260],[35.8,22343],[61.4,22427],[61.6,22510],[59.8,22593],[56.7,22677],[54.1,22760],[53.9,22844],[50.9,22927],[50.9,23010],[50.9,23093],[50.9,23176],[50.9,23259],[50.9,23343],[50.9,23426],[50.9,23509],[50.9,23593],[50.9,23676],[50.9,23759],[50.9,23843],[50.9,23926],[50.9,24010],[50.9,24093],[50.9,24176],[50.9,24260],[50.9,24344],[50.9,24426],[50.9,24509],[48.8,24593],[33.8,24676],[30.6,24760],[30,24842],[30,24926],[29.1,25010],[25.5,25093],[25.6,25177],[53.6,25260],[55.9,25342],[55.9,25425],[55.9,25510],[52.2,25593],[52.2,25676],[52.2,25759],[52.2,25843],[52.2,25926],[52.2,26009],[52.2,26092],[52.2,26175],[52.2,26259],[52.2,26342],[52.2,26426],[52.2,26509],[52.2,26592],[52.2,26675],[52.2,26759],[52.2,26842],[52.2,26925],[52.2,27009],[52.2,27092],[52.2,27175],[52.2,27259],[52.2,27342],[57.3,27425],[89.7,27543],[92.2,27625],[100,27708],[95,27792],[78.9,27875],[80,27959],[86.7,28042],[86.7,28125],[90.3,28209],[95.3,28291],[95.3,28375],[95.3,28459],[95.3,28542],[86.7,28625],[85.5,28708],[85,28791],[81.7,28875],[78,28958],[78,29042],[77.7,29125],[77.7,29208],[77.7,29291],[77.7,29375],[77.7,29458],[77.7,29542],[77.7,29625],[77.7,29708],[77.7,29792],[77.7,29875],[77.7,29958],[77.7,30042],[77.7,30125],[77.7,30208],[82.2,30292],[100,30375],[100,30458],[100,30541],[100,30624],[100,30708],[100,30792],[100,30881],[100,30960],[100,31042],[100,31124],[100,31209],[100,31292],[100,31375],[100,31458],[100,31541],[100,31624],[100,31708],[100,31791],[100,31875]]",0,0,0,0,1,"Larry had recently lost his family, job and home, and was now living on his own in the park. He had most of his belongings, including some clothes, a blanket, and his mother’s special necklace. His family had been very important to him and he felt as though he did not have much going for him. One of his first days in the park he came across a family that did not have much food and looked very cold. He decided to give them some of his food and his blanket.","Larry had recently lost his family, job and home, and was now living on his own in the park. He had most of his belongings, including some clothes, a blanket, and his mother’s special necklace. His family had been very important to him and he felt as though he did not have much going for him. One of his first days in the park he came across a family that did not have much food and looked very cold. He decided to give them some of his food and his blanket.","Larry had recently lost his family, job and home, and was now living on his own in the park. He had most of his belongings, including some clothes, a blanket, and his mother’s special necklace. His family had been very important to him and he felt as though he did not have much going for him. One of his first days in the park he came across a family that did not have much food and looked very cold. He decided to give them some of his food and his blanket.","Larry had recently lost his family, job and home, and was now living on his own in the park. He had most of his belongings, including some clothes, a blanket, and his mother’s special necklace. His family had been very important to him and he felt as though he did not have much going for him. One of his first days in the park he came across a family that did not have much food and looked very cold. He decided to give them some of his food and his blanket.",,,,,,,,,,
,,,,,,5fb2c8b4b04a8594fc0a3825,2024-02-08_16h20.38.359,group3.1-3.2-social-tom,2023.2.2,Linux x86_64,59.88023952,65c5074098b851296ff0b7ed,65c54579655c38d7add30981,,,,,,,,,,,,,,,,,,,,,,,,,,,,,1239.5941,1,audio/Narrative7Situation9.wav,1242.2742,space,,,,,,1266.1699,1269.6181,0,2.6247,"[{""rating"":0.6249999999999978,""responseTime"":2.1611000000239073},{""rating"":0,""responseTime"":2.624700000047824}]",space,2.9094,,1266.1358,Definitely yes,100,1266.1699,,,[],,,,,,,,,,,6,2,3,9,2.6631,,,,,,,,,,,,,,,,1242.2743,3,1266.1356,"[[999,23],[999,99],[999,183],[999,266],[999,349],[999,432],[999,515],[999,599],[999,682],[999,766],[999,849],[999,932],[999,1015],[999,1099],[999,1182],[999,1265],[999,1349],[999,1432],[999,1515],[999,1598],[999,1681],[999,1765],[999,1849],[999,1932],[999,2015],[999,2099],[999,2182],[999,2265],[999,2348],[999,2432],[999,2515],[999,2598],[999,2681],[999,2764],[999,2848],[999,2932],[999,3015],[999,3098],[999,3181],[999,3265],[999,3348],[999,3432],[999,3515],[999,3598],[999,3682],[999,3765],[999,3848],[999,3932],[999,4014],[999,4098],[999,4182],[999,4264],[999,4348],[999,4431],[999,4514],[999,4598],[999,4681],[999,4764],[999,4848],[999,4931],[999,5015],[999,5098],[999,5180],[999,5264],[999,5347],[999,5431],[999,5514],[999,5598],[999,5681],[999,5765],[999,5847],[999,5931],[999,6014],[999,6098],[999,6181],[999,6264],[999,6347],[999,6431],[999,6514],[999,6597],[999,6680],[999,6764],[999,6848],[999,6931],[999,7014],[999,7097],[999,7181],[999,7264],[999,7347],[999,7431],[999,7514],[999,7597],[999,7681],[999,7764],[999,7847],[999,7930],[999,8013],[999,8097],[999,8181],[999,8263],[999,8347],[999,8431],[999,8513],[999,8597],[999,8680],[999,8764],[999,8847],[999,8930],[999,9014],[999,9097],[999,9181],[999,9263],[999,9347],[999,9431],[999,9513],[999,9597],[999,9680],[999,9763],[999,9846],[999,9930],[999,10013],[999,10096],[999,10180],[999,10263],[999,10347],[999,10430],[999,10513],[999,10596],[999,10680],[999,10763],[999,10847],[999,10930],[999,11013],[999,11096],[999,11180],[999,11263],[999,11346],[999,11429],[999,11513],[999,11596],[999,11680],[999,11763],[999,11846],[999,11929],[999,12013],[999,12096],[999,12179],[999,12262],[999,12346],[999,12429],[999,12512],[999,12596],[999,12679],[999,12763],[999,12846],[999,12930],[999,13013],[999,13096],[999,13180],[999,13263],[999,13346],[999,13429],[999,13513],[999,13596],[999,13679],[999,13762],[999,13846],[999,13929],[999,14012],[999,14096],[999,14179],[999,14262],[999,14345],[999,14430],[999,14512],[999,14596],[999,14679],[999,14762],[999,14845],[999,14929],[999,15012],[999,15095],[999,15179],[999,15262],[999,15345],[999,15429],[999,15512],[999,15595],[999,15678],[999,15762],[999,15845],[999,15928],[999,16011],[999,16095],[999,16179],[999,16262],[999,16345],[999,16429],[999,16512],[999,16595],[999,16678],[999,16762],[999,16845],[999,16928],[999,17012],[999,17095],[999,17178],[999,17262],[999,17345],[999,17428],[999,17512],[999,17595],[999,17678],[999,17761],[999,17845],[999,17928],[999,18011],[999,18095],[999,18178],[999,18261],[999,18345],[999,18428],[999,18511],[999,18594],[999,18677],[999,18761],[999,18844],[999,18928],[999,19012],[999,19094],[999,19178],[999,19261],[999,19345],[999,19428],[999,19511],[999,19595],[999,19678],[999,19761],[999,19844],[999,19927],[999,20011],[999,20094],[999,20177],[999,20261],[999,20344],[999,20428],[999,20510],[999,20595],[999,20678],[999,20761],[999,20844],[999,20927],[999,21010],[999,21094],[999,21177],[999,21260],[999,21344],[999,21428],[999,21510],[999,21595],[999,21678],[999,21760],[999,21844],[999,21927],[999,22010],[999,22094],[999,22177],[999,22260],[999,22343],[999,22427],[999,22510],[999,22595],[999,22677],[999,22760],[999,22844],[999,22927],[999,23010],[999,23094],[999,23177],[999,23260],[999,23344],[999,23427],[999,23510],[999,23594],[999,23676],[999,23760],[999,23844]]",0,1,1,1,1,"It was just another Sunday afternoon for Lucy, she was on her way to the farmer's market to pick up some produce. When she arrived at the old train depot that housed the market, she noticed two men fighting on the steps. Before she could call for help, one of the men crumpled to his knees. The other man dropped an object that appeared to be a knife and ran off. When Lucy approached the crime scene she realized that the man who had been murdered was the Mayor and that he had a gunshot wound.","One day at work, Margaret walked up to her partner, Al, to ask him to talk to the chief of staff at the local hospital where she worked as a nurse.","Luke always thought of himself as an honest man. That's why during his evening jog around the swamp, he pondered his recent affair with the receptionist at work. Luke looked up at the sky and asked God why he was so weak and unfaithful. He thought of the impact this would have on his family and told God of his conflicted feelings toward telling his wife Marta.","Linda and Amy had been best friends since kindergarten, they even found homes on the same street in the forest on the edge of town. Their biggest fight had been over who gets the bigger slice of cake, until Amy married Dan. Linda loathed Dan, she thought he was manipulative and had a violent temper. She only put up with him because Amy loved him. ",,,,,,,,,,
,,,,,,5fb2c8b4b04a8594fc0a3825,2024-02-08_16h20.38.359,group3.1-3.2-social-tom,2023.2.2,Linux x86_64,59.88023952,65c5074098b851296ff0b7ed,65c54579655c38d7add30981,,,,,,,,,,,,,,,,,,,,,,,,,,,,,1269.619,1,audio/Narrative7Situation9.wav,1274.633,,,,,,,1300.8935,1304.2091,100,2.6439,"[{""rating"":98.4375,""responseTime"":1.6876999999285545},{""rating"":100,""responseTime"":2.6438999999761563}]",space,2.7763,,1300.8602,Partially,50,1300.8934,,,[],,,,,,,,,,,4,5,2,2,,,,,,,,,,,,,,,,,1274.6331,3,1300.86,"[[999,28],[999,99],[999,182],[999,265],[999,349],[999,432],[999,516],[999,599],[999,682],[999,765],[999,849],[999,932],[999,1015],[999,1099],[999,1182],[999,1265],[999,1349],[999,1432],[999,1515],[999,1598],[999,1682],[999,1765],[999,1849],[999,1932],[999,2015],[999,2098],[999,2182],[999,2266],[999,2349],[999,2432],[999,2515],[999,2599],[999,2681],[999,2765],[999,2849],[999,2931],[999,3015],[999,3098],[999,3181],[999,3265],[999,3348],[999,3432],[999,3515],[999,3598],[999,3682],[999,3765],[999,3848],[999,3931],[999,4015],[999,4098],[999,4182],[999,4264],[999,4348],[999,4431],[999,4514],[999,4598],[999,4682],[999,4765],[999,4848],[999,4931],[999,5014],[999,5098],[999,5181],[999,5264],[999,5348],[999,5431],[999,5514],[999,5598],[999,5681],[999,5764],[999,5847],[999,5931],[999,6014],[999,6097],[999,6181],[999,6264],[999,6348],[999,6431],[999,6514],[999,6597],[999,6681],[999,6764],[999,6847],[999,6931],[999,7014],[999,7097],[999,7181],[999,7264],[999,7347],[999,7431],[999,7514],[999,7597],[999,7680],[999,7764],[999,7847],[999,7931],[999,8014],[999,8097],[999,8181],[999,8263],[999,8347],[999,8430],[999,8514],[999,8597],[999,8681],[999,8764],[999,8847],[999,8930],[999,9014],[999,9097],[999,9180],[999,9264],[999,9347],[999,9430],[999,9514],[999,9597],[999,9680],[999,9764],[999,9847],[999,9930],[999,10014],[999,10096],[999,10180],[999,10263],[999,10347],[999,10430],[999,10513],[999,10596],[999,10680],[999,10763],[60.5,10863],[70.9,10947],[69.1,11030],[57.5,11113],[56.4,11197],[56.3,11280],[55.3,11363],[51.9,11446],[51.9,11529],[51.3,11613],[50,11697],[49.1,11779],[48.9,11863],[49.5,11946],[52,12030],[91.6,12114],[100,12529],[100,12613],[100,12696],[100,12780],[99.4,12863],[99.2,12946],[98.9,13029],[98.9,13113],[98.9,13196],[98.9,13279],[98.9,13363],[98.9,13446],[100,13529],[100,13613],[100,13695],[100,13779],[100,13863],[100,13946],[100,14029],[100,14113],[100,14196],[100,14279],[100,14362],[100,14445],[100,14528],[100,14613],[100,14695],[100,14779],[100,14862],[100,14945],[100,15051],[100,15137],[100,15212],[100,15296],[100,15393],[100,15462],[100,15545],[100,15629],[100,15711],[100,15795],[100,15879],[100,15962],[100,16045],[100,16129],[100,16211],[100,16295],[100,16378],[100,16462],[100,16545],[100,16628],[100,16712],[100,16796],[100,16879],[100,16962],[100,17045],[100,17129],[100,17212],[100,17295],[100,17378],[100,17462],[100,17545],[100,17628],[100,17711],[100,17795],[100,17879],[100,17961],[100,18045],[100,18128],[100,18211],[100,18295],[100,18378],[100,18462],[100,18545],[100,18628],[100,18712],[100,18795],[100,18878],[100,18961],[100,19044],[100,19128],[100,19211],[100,19295],[100,19378],[100,19461],[100,19545],[100,19628],[100,19711],[100,19794],[100,19878],[100,19961],[100,20045],[100,20127],[100,20211],[100,20294],[100,20378],[100,20461],[100,20545],[100,20628],[100,20711],[100,20794],[100,20877],[100,20961],[100,21044],[100,21127],[100,21211],[100,21294],[100,21377],[100,21460],[100,21544],[100,21627],[100,21711],[100,21794],[100,21877],[100,21960],[100,22044],[100,22127],[100,22210],[100,22293],[100,22377],[100,22461],[100,22543],[100,22627],[100,22710],[100,22793],[100,22877],[100,22960],[100,23044],[100,23127],[100,23210],[100,23293],[100,23376],[100,23460],[100,23544],[100,23626],[100,23710],[100,23793],[100,23877],[100,23960],[100,24043],[100,24126],[100,24210],[100,24293],[100,24376],[100,24460],[100,24543],[100,24627],[100,24709],[100,24793],[100,24876],[100,24960],[100,25043],[100,25126],[100,25210],[100,25292],[100,25376],[100,25460],[100,25543],[100,25626],[100,25710],[100,25793],[100,25876],[100,25960],[100,26043],[100,26126],[100,26209]]",0,2,2,2,1,On the ground beside him was a pen that she had mistaken for a knife. Lucy looked for the gunman and saw a suspicious man in black with distinct pointy features darting into an alley across the street. Cops who were nearby chased the man who had fled and arrested him.,"While waiting outside the chief of staff's office, Al heard nondescript shouting and yelling, there was a loud clatter in the room and then an eerie silence. An unfamiliar employee ran hastily out of the office with a terrified look on their face.","Suddenly, Luke heard a woman call out his name and when he turned around he saw Carly, his receptionist, across the road with a gun in her hand. Carly ran to him and explained how she had followed him here to confess her love. She exclaimed if Luke didn't love her back that she would kill him and his family. Carly explained that the only way they could be together is to kill Marta.","This feeling of hate between Amy and Dan was mutual, Dan didn't like how much time his wife spent with her and thought Amy was creating distance between their marriage. That's why Dan decided to try and tarnish Linda's reputation with his wife, in hopes it would get rid of her. He came home one afternoon and exclaimed that Linda had tried to kiss him. Amy was taken aback and immediately called Linda to confront her about these accusations. When Linda arrived she denied having made a move on Dan, but discovered Dan had enlisted the help of his friend Will who said he witnessed it all happen.",,,,,,,,,,
,,,,,,5fb2c8b4b04a8594fc0a3825,2024-02-08_16h20.38.359,group3.1-3.2-social-tom,2023.2.2,Linux x86_64,59.88023952,65c5074098b851296ff0b7ed,65c54579655c38d7add30981,,,,,,,,,,,,,,,,,,,,,,,,,,,,,1304.2101,1,audio/Narrative7Situation9.wav,1306.2259,,,,,,,1328.8218,1331.7029,100,2.4029,"[{""rating"":99.84375,""responseTime"":1.8697000000477146},{""rating"":100,""responseTime"":2.4029000000953147}]",space,2.3348,,1328.7877,Not at all,0,1328.8217,,,[],,,,,,,,,,,2,2,1,4,,,,,,,,,,,,,,,,,1306.226,3,1328.7875,"[[100,3756],[99.2,3831],[86.7,3915],[62.2,4082],[57.8,4165],[54.5,4248],[51.3,4332],[50.8,4415],[50,4498],[50,4581],[50,4664],[50,4748],[50,4831],[50,4914],[50,4998],[50,5081],[50,5164],[50,5248],[50,5332],[50,5414],[50,5498],[50,5581],[50,5665],[50,5748],[57.2,5831],[82,5914],[100,6914],[100,6998],[100,7081],[100,7164],[100,7248],[100,7330],[100,7414],[100,7497],[100,7581],[100,7663],[100,7747],[100,7830],[100,7914],[100,7997],[100,8080],[100,8164],[100,8247],[100,8330],[100,8413],[100,8497],[100,8580],[100,8663],[100,8747],[100,8830],[100,8914],[100,8996],[100,9080],[100,9163],[100,9247],[100,9329],[100,9413],[100,9496],[100,9580],[100,9663],[100,9746],[100,9829],[100,9913],[100,9996],[100,10080],[100,10163],[100,10246],[100,10330],[100,10413],[100,10496],[100,10579],[100,10663],[100,10746],[100,10829],[100,10913],[100,10996],[100,11080],[100,11162],[100,11246],[100,11329],[100,11412],[100,11496],[100,11579],[100,11662],[100,11746],[100,11829],[100,11912],[100,11996],[100,12079],[100,12163],[100,12246],[100,12329],[100,12412],[100,12495],[100,12579],[100,12662],[100,12745],[100,12829],[100,12912],[100,12995],[100,13079],[100,13162],[100,13245],[100,13329],[100,13412],[100,13495],[100,13578],[100,13662],[100,13745],[100,13828],[100,13912],[100,13995],[100,14079],[100,14162],[100,14245],[100,14328],[100,14412],[100,14495],[100,14578],[100,14662],[100,14745],[100,14829],[100,14912],[100,14995],[100,15079],[100,15162],[100,15245],[100,15328],[100,15411],[100,15495],[100,15578],[100,15661],[100,15746],[100,15828],[100,15912],[100,15995],[100,16079],[100,16162],[100,16245],[100,16328],[100,16411],[100,16495],[100,16578],[100,16662],[100,16745],[100,16828],[100,16912],[100,16995],[100,17078],[100,17161],[100,17245],[100,17328],[100,17411],[100,17495],[100,17578],[100,17661],[100,17745],[100,17828],[100,17911],[100,17995],[100,18078],[100,18161],[100,18244],[100,18328],[100,18411],[100,18495],[100,18578],[100,18661],[100,18745],[100,18828],[100,18911],[100,18995],[100,19078],[100,19161],[100,19245],[100,19327],[100,19411],[100,19494],[100,19577],[100,19661],[100,19744],[100,19827],[100,19911],[100,19994],[100,20084],[100,20161],[100,20244],[100,20327],[100,20411],[100,20494],[100,20578],[100,20660],[100,20744],[100,20828],[100,20910],[100,20994],[100,21077],[100,21161],[100,21244],[100,21327],[100,21410],[100,21494],[100,21577],[100,21661],[100,21744],[100,21827],[100,21910],[100,21994],[100,22077],[100,22160],[100,22244],[100,22327],[100,22411],[100,22494]]",0,3,3,3,1,"But Lucy knew the charged man was innocent, which meant the killer was free. Lucy vowed to find out who the real murderer was and to stop him at all costs.","Al explained to the chief of staff that Margaret wanted to be excused from her absences last week. The chief of staff, Susan, revealed that she wanted to fire Margaret and never see her again. Susan and Al had been having an affair and she wanted Margaret ""out of the picture"". Al was conflicted, but agreed it would be for the best.","Luke thought of his child and felt like this was his only option. He agreed to the plan and called his wife to meet him at the swamp to watch the sunset with him. When she arrived, Marta called out for her husband, but found Carly waiting for her. She immediately drew her gun and shot her in the chest, knocking her unconscious.","Since it was their word against her own, she decided to go home and admit defeat. She knew how much it would hurt Amy to know the truth.",,,,,,,,,,
