exp_question,consent.started,consent.stopped,consentResponse.keys,consentResponse.rt,consentResponse.duration,participantID,date,expName,psychopyVersion,OS,frameRate,STUDY_ID,SESSION_ID,opening1.started,opening1.stopped,keyEndingOpening1.keys,keyEndingOpening1.rt,keyEndingOpening1.duration,volumeAdjust.started,volumeAdjust.stopped,endingAdjust.keys,endingAdjust.rt,endingAdjust.duration,opening2.started,opening2.stopped,keyEndingOpening.keys,keyEndingOpening.rt,keyEndingOpening.duration,mouse.x,mouse.y,mouse.leftButton,mouse.midButton,mouse.rightButton,mouse.time,instructionLoop.thisRepN,instructionLoop.thisTrialN,instructionLoop.thisN,instructionLoop.thisIndex,instructionLoop.ran,readyForAudio.started,readyForAudio.stopped,fixation.started,run,audio_played,fixation.stopped,endPractice.keys,audioPre.started,audioPre.stopped,continuousResponses_audio,continuousSlider.response,continuousSlider.rt,intRating.started,intRating.stopped,intQuestionSlider.response,intQuestionSlider.rt,intQuestionSlider.history,confirmResponse.keys,confirmResponse.rt,confirmResponse.duration,catchQuestion.started,catch_label,catch_value,catchQuestion.stopped,catchQuestionSlider.response,catchQuestionSlider.rt,catchQuestionSlider.history,confirmResponse_2.keys,audioRunLoop.thisRepN,audioRunLoop.thisTrialN,audioRunLoop.thisN,audioRunLoop.thisIndex,audioRunLoop.ran,conditions1_1,conditions2_1,conditions1_2,conditions2_2,dur1_1,dur2_1,dur1_2,dur2_2,endPractice.rt,endPractice.duration,confirmResponse_2.rt,confirmResponse_2.duration,runIntervalBreak.started,runIntervalBreak.stopped,endingBreakKey.keys,endingBreakKey.rt,endingBreakKey.duration,connection.started,connection.stopped,connectionEnding.keys,connectionEnding.rt,connectionEnding.duration,readyForText.started,readyForText.stopped,textPre.started,run_dup,textPre.stopped,continuousResponses_text,textRunLoop.thisRepN,textRunLoop.thisTrialN,textRunLoop.thisN,textRunLoop.thisIndex,textRunLoop.ran,text1_1,text1_2,text2_1,text2_2,runBreakText.started,runBreakText.stopped,endingBreakKey_2.keys,endingBreakKey_2.rt,endingBreakKey_2.duration,ending.started,ending.stopped,endingEnding.keys,endingEnding.rt,endingEnding.duration
tom,0.001,140.953,y,140.634,,60079f45348bb62bdcd363ff,2024-02-08_16h02.45.945,group3.1-3.2-social-tom,2023.2.2,Win32,62.5,65c5074098b851296ff0b7ed,65c5413c767d4aba90b9ed7a,,,,,,,,,,,,,,,,,,,,,,,,,,,,,,,,,,,,,,,,,,,,,,,,,,,,,,,,,,,,,,,,,,,,,,,,,,,,,,,,,,,,,,,,,,,,,,,,,,,,,,,,,,
,,,,,,60079f45348bb62bdcd363ff,2024-02-08_16h02.45.945,group3.1-3.2-social-tom,2023.2.2,Win32,62.5,65c5074098b851296ff0b7ed,65c5413c767d4aba90b9ed7a,140.953,181.612,space,40.587,0,,,,,,,,,,,,,,,,,,,,,,,,,,,,,,,,,,,,,,,,,,,,,,,,,,,,,,,,,,,,,,,,,,,,,,,,,,,,,,,,,,,,,,,,,,,,,,,,,,,,,
,,,,,,60079f45348bb62bdcd363ff,2024-02-08_16h02.45.945,group3.1-3.2-social-tom,2023.2.2,Win32,62.5,65c5074098b851296ff0b7ed,65c5413c767d4aba90b9ed7a,,,,,,181.612,220.821,space,38.878,,,,,,,,,,,,,,,,,,,,,,,,,,,,,,,,,,,,,,,,,,,,,,,,,,,,,,,,,,,,,,,,,,,,,,,,,,,,,,,,,,,,,,,,,,,,,,,,,
,,,,,,60079f45348bb62bdcd363ff,2024-02-08_16h02.45.945,group3.1-3.2-social-tom,2023.2.2,Win32,62.5,65c5074098b851296ff0b7ed,65c5413c767d4aba90b9ed7a,,,,,,,,,,,220.838,255.453,space,34.567,0.01,[],[],[],[],[],[],0,0,0,0,1,,,,,,,,,,,,,,,,,,,,,,,,,,,,,,,,,,,,,,,,,,,,,,,,,,,,,,,,,,,,,,,,,,,,,,,,,,,,,,,,
,,,,,,60079f45348bb62bdcd363ff,2024-02-08_16h02.45.945,group3.1-3.2-social-tom,2023.2.2,Win32,62.5,65c5074098b851296ff0b7ed,65c5413c767d4aba90b9ed7a,,,,,,,,,,,255.485,315.811,space,60.099,,[],[],[],[],[],[],1,0,1,0,1,,,,,,,,,,,,,,,,,,,,,,,,,,,,,,,,,,,,,,,,,,,,,,,,,,,,,,,,,,,,,,,,,,,,,,,,,,,,,,,,
,,,,,,60079f45348bb62bdcd363ff,2024-02-08_16h02.45.945,group3.1-3.2-social-tom,2023.2.2,Win32,62.5,65c5074098b851296ff0b7ed,65c5413c767d4aba90b9ed7a,,,,,,,,,,,315.839,424.77,space,108.836,,"[0.3604167302449544,-0.22395833333333334]","[-0.7462963528103299,-0.7722223069932725]","[1,1]","[0,0]","[0,0]","[101.39600000000002,105.90800000000002]",2,0,2,0,1,,,,,,,,,,,,,,,,,,,,,,,,,,,,,,,,,,,,,,,,,,,,,,,,,,,,,,,,,,,,,,,,,,,,,,,,,,,,,,,,
,,,,,,60079f45348bb62bdcd363ff,2024-02-08_16h02.45.945,group3.1-3.2-social-tom,2023.2.2,Win32,62.5,65c5074098b851296ff0b7ed,65c5413c767d4aba90b9ed7a,,,,,,,,,,,424.8,490.945,space,66.106,,[],[],[],[],[],[],3,0,3,0,1,,,,,,,,,,,,,,,,,,,,,,,,,,,,,,,,,,,,,,,,,,,,,,,,,,,,,,,,,,,,,,,,,,,,,,,,,,,,,,,,
,,,,,,60079f45348bb62bdcd363ff,2024-02-08_16h02.45.945,group3.1-3.2-social-tom,2023.2.2,Win32,62.5,65c5074098b851296ff0b7ed,65c5413c767d4aba90b9ed7a,,,,,,,,,,,490.977,501.537,space,10.534,0.005,[0.7416666348775228],[-0.67962971440068],[1],[0],[0],[8.833000000000084],4,0,4,0,1,,,,,,,,,,,,,,,,,,,,,,,,,,,,,,,,,,,,,,,,,,,,,,,,,,,,,,,,,,,,,,,,,,,,,,,,,,,,,,,,
,,,,,,60079f45348bb62bdcd363ff,2024-02-08_16h02.45.945,group3.1-3.2-social-tom,2023.2.2,Win32,62.5,65c5074098b851296ff0b7ed,65c5413c767d4aba90b9ed7a,,,,,,,,,,,,,,,,,,,,,,,,,,,501.579,504.155,504.219,1,audio/Narrative13Situation2.wav,506.22,,506.222,535.988,"[[999,13],[999,181],[999,266],[999,353],[999,431],[999,516],[999,598],[999,682],[999,764],[999,850],[999,931],[999,1014],[999,1098],[999,1190],[999,1266],[999,1350],[999,1432],[999,1517],[999,1598],[999,1682],[999,1766],[999,1848],[999,1932],[999,2014],[999,2099],[999,2189],[999,2269],[999,2346],[999,2432],[999,2519],[999,2601],[999,2681],[999,2764],[999,2846],[999,2931],[999,3024],[999,3098],[999,3182],[999,3264],[999,3351],[999,3430],[999,3514],[999,3598],[999,3680],[999,3764],[999,3846],[999,3932],[999,4014],[999,4098],[999,4182],[999,4264],[999,4348],[999,4432],[999,4514],[999,4596],[999,4680],[999,4763],[999,4855],[999,4931],[999,5017],[999,5096],[999,5180],[999,5264],[999,5346],[999,5431],[999,5514],[999,5596],[999,5680],[999,5764],[999,5846],[999,5930],[999,6014],[999,6100],[999,6181],[999,6264],[999,6346],[999,6436],[999,6518],[999,6596],[999,6681],[999,6763],[999,6850],[999,6931],[999,7014],[999,7098],[999,7184],[999,7264],[999,7346],[999,7430],[999,7513],[999,7599],[999,7680],[999,7769],[999,7848],[999,7932],[999,8013],[999,8096],[999,8180],[999,8263],[999,8351],[999,8430],[999,8513],[999,8600],[999,8680],[999,8763],[999,8846],[999,8930],[999,9013],[999,9098],[999,9180],[999,9263],[999,9351],[999,9430],[999,9516],[999,9629],[999,9700],[999,9780],[999,9877],[999,9947],[999,10028],[999,10113],[999,10197],[999,10293],[999,10365],[999,10447],[999,10530],[999,10620],[999,10699],[999,10785],[999,10870],[999,10950],[999,11033],[999,11112],[999,11200],[999,11282],[999,11363],[999,11447],[999,11530],[999,11613],[999,11705],[999,11780],[999,11868],[999,11947],[999,12031],[999,12115],[999,12197],[999,12283],[999,12368],[999,12451],[999,12530],[999,12612],[999,12697],[999,12791],[999,12864],[999,12946],[999,13031],[999,13112],[999,13197],[999,13280],[999,13363],[999,13450],[999,13528],[999,13615],[999,13699],[999,13782],[999,13862],[999,13945],[999,14037],[999,14117],[999,14197],[999,14278],[999,14362],[999,14451],[999,14528],[999,14620],[999,14696],[999,14780],[999,14862],[999,14946],[999,15028],[999,15119],[999,15269],[999,15329],[999,15413],[999,15507],[999,15579],[999,15662],[999,15748],[999,15831],[999,15911],[999,15997],[999,16079],[999,16162],[999,16245],[999,16328],[999,16412],[999,16495],[999,16588],[999,16661],[999,16744],[999,16829],[999,16912],[999,16995],[999,17081],[999,17162],[999,17245],[999,17328],[999,17411],[999,17506],[999,17578],[999,17662],[999,17747],[999,17828],[999,17915],[999,17995],[999,18083],[999,18161],[999,18245],[999,18328],[999,18427],[999,18495],[999,18580],[999,18663],[999,18749],[999,18829],[999,18915],[999,19000],[999,19081],[999,19162],[999,19245],[999,19328],[999,19412],[999,19495],[999,19578],[999,19673],[999,19745],[999,19827],[999,19910],[999,19997],[999,20078],[999,20172],[999,20247],[999,20329],[999,20413],[999,20494],[999,20579],[999,20670],[999,20745],[999,20829],[999,20910],[999,21003],[999,21078],[999,21161],[999,21252],[999,21331],[999,21413],[999,21495],[999,21577],[999,21668],[999,21749],[999,21828],[999,21913],[999,21994],[999,22089],[999,22165],[999,22250],[999,22327],[999,22413],[999,22497],[999,22580],[999,22660],[999,22749],[999,22830],[999,22916],[999,22994],[999,23083],[999,23160],[999,23248],[999,23330],[999,23413],[999,23498],[999,23581],[999,23665],[999,23749],[999,23833],[999,23913],[999,24000],[999,24077],[999,24160],[999,24245],[999,24328],[999,24412],[999,24500],[999,24579],[999,24660],[999,24745],[999,24830],[999,24920],[999,25004],[999,25094],[999,25176],[999,25259],[999,25344],[999,25427],[999,25509],[999,25593],[999,25677],[999,25764],[999,25843],[999,25930],[999,26019],[999,26100],[999,26177],[999,26259],[999,26348],[999,26426],[999,26511],[999,26598],[999,26680],[999,26761],[999,26845],[999,26927],[999,27011],[999,27091],[999,27177],[999,27259],[999,27346],[999,27427],[999,27511],[999,27594],[999,27681],[999,27759],[999,27841],[999,27926],[999,28014],[999,28091],[999,28177],[999,28264],[999,28348],[999,28427],[999,28513],[999,28593],[999,28677],[999,28759],[999,28846],[999,28926],[999,29009],[999,29107],[999,29181],[999,29259],[999,29343],[999,29429],[999,29509],[999,29593],[999,29697]]",1,0,535.992,628.106,59.68750318,88.84,"[{""rating"":36.04166507720947,""responseTime"":24.206999999999994},{""rating"":31.87499841054281,""responseTime"":31.497999999999934},{""rating"":54.166666666666664,""responseTime"":31.66599999999994},{""rating"":36.56249841054281,""responseTime"":75.75099999999998},{""rating"":33.22916825612386,""responseTime"":75.79399999999998},{""rating"":23.125004768371582,""responseTime"":80.93700000000001},{""rating"":59.68750317891439,""responseTime"":88.83999999999992}]",space,91.567,0.001,628.129,Half the time,50,628.139,,,[],,0,0,0,0,1,audio/Narrative13Situation2.wav,audio/Narrative13Situation2.wav,audio/Narrative13Situation2.wav,audio/Narrative13Situation2.wav,2,2,2,2,,,,,,,,,,,,,,,,,,,,,,,,,,,,,,,,,,,,,,,
,,,,,,60079f45348bb62bdcd363ff,2024-02-08_16h02.45.945,group3.1-3.2-social-tom,2023.2.2,Win32,62.5,65c5074098b851296ff0b7ed,65c5413c767d4aba90b9ed7a,,,,,,,,,,,,,,,,,,,,,,,,,,,,,628.139,1,audio/Narrative8Situation1.wav,642.381,space,642.384,658.334,"[[999,28],[999,125],[999,208],[999,294],[999,375],[999,458],[999,543],[999,625],[999,710],[999,793],[999,879],[999,961],[999,1043],[999,1125],[999,1208],[999,1293],[999,1375],[999,1458],[999,1549],[999,1629],[999,1708],[999,1792],[999,1879],[999,1960],[999,2043],[999,2129],[999,2213],[999,2298],[999,2379],[999,2457],[999,2544],[999,2626],[999,2708],[999,2792],[999,2875],[999,2961],[999,3051],[999,3125],[999,3208],[999,3292],[999,3375],[999,3457],[999,3544],[999,3625],[999,3721],[999,3793],[999,3875],[999,3958],[999,4043],[999,4128],[999,4215],[999,4307],[999,4379],[999,4460],[999,4542],[999,4629],[999,4710],[999,4796],[999,4874],[999,4957],[999,5042],[999,5125],[999,5207],[999,5291],[999,5380],[999,5457],[999,5542],[999,5625],[999,5712],[999,5792],[999,5876],[999,5961],[999,6042],[999,6126],[999,6211],[999,6292],[999,6379],[999,6463],[999,6542],[999,6626],[999,6715],[999,6791],[999,6874],[999,6958],[999,7049],[999,7125],[999,7208],[999,7293],[999,7375],[999,7463],[999,7541],[999,7625],[999,7715],[999,7792],[999,7875],[999,7957],[999,8041],[999,8129],[999,8206],[999,8293],[999,8375],[999,8457],[999,8541],[999,8624],[999,8710],[999,8789],[999,8878],[999,8956],[999,9049],[999,9125],[999,9208],[999,9289],[999,9374],[999,9537],[999,9611],[999,9691],[999,9775],[999,9857],[999,9941],[999,10025],[999,10106],[999,10189],[999,10274],[999,10356],[999,10490],[999,10573],[999,10657],[999,10740],[999,10823],[999,10907],[999,10990],[999,11073],[999,11157],[999,11240],[999,11325],[999,11407],[999,11490],[999,11572],[999,11657],[999,11740],[999,11823],[999,11907],[999,11990],[999,12075],[999,12157],[999,12240],[999,12323],[999,12407],[999,12490],[999,12576],[999,12657],[999,12748],[999,12888],[999,12976],[999,13057],[999,13143],[999,13230],[999,13309],[999,13398],[999,13472],[999,13557],[999,13640],[999,13726],[999,13814],[999,13965],[999,14043],[999,14134],[999,14217],[999,14297],[999,14375],[999,14467],[999,14551],[999,14634],[999,14716],[999,14799],[999,14885],[999,14958],[999,15047],[999,15134],[999,15216],[999,15301],[999,15384],[999,15469],[999,15549],[999,15638],[999,15711],[999,15799],[999,15883]]",1,0,658.335,666.373,63.22917144,4.405,"[{""rating"":63.229171435038246,""responseTime"":4.405000000000086}]",space,7.5,,666.374,Half the time,50,666.387,,,[],,0,1,1,1,1,audio/Narrative7Situation1.wav,audio/Narrative8Situation1.wav,audio/Narrative5Situation1.wav,audio/Narrative6Situation1.wav,2,5,5,2,14.187,,,,,,,,,,,,,,,,,,,,,,,,,,,,,,,,,,,,,,
,,,,,,60079f45348bb62bdcd363ff,2024-02-08_16h02.45.945,group3.1-3.2-social-tom,2023.2.2,Win32,62.5,65c5074098b851296ff0b7ed,65c5413c767d4aba90b9ed7a,,,,,,,,,,,,,,,,,,,,,,,,,,,,,666.387,1,audio/Narrative8Situation2.wav,669.389,,669.389,679.511,"[[64.4,2953],[65.5,3043],[65.3,3128],[65.3,3210],[63.9,3293],[63.1,3375],[61,3460],[60.8,3543],[60.8,3625],[60.8,3711],[60.8,3794],[60.8,3879],[60.8,3958],[38.9,4043],[32.4,4125],[32.4,4211],[32.4,4293],[32.4,4375],[32.4,4458],[32.4,4542],[32.4,4629],[32.4,4701],[32.4,4793],[32.4,4875],[32.4,4951],[32.4,5044],[32.4,5121],[32.4,5208],[32.4,5292],[32.4,5375],[32.4,5457],[32.4,5542],[32.4,5629],[32.4,5711],[32.4,5792],[32.4,5875],[32.4,5961],[32.4,6042],[32.4,6129],[32.4,6214],[32.4,6296],[32.4,6376],[32.4,6460],[32.4,6533],[32.4,6625],[32.4,6710],[32.4,6792],[32.4,6875],[32.4,6957],[32.4,7043],[32.4,7125],[32.4,7210],[32.4,7294],[32.4,7376],[32.4,7461],[32.4,7546],[32.4,7628],[32.4,7708],[32.4,7793],[32.4,7875],[32.4,7957],[32.4,8041],[32.4,8126],[32.4,8211],[32.4,8288],[32.4,8378],[32.4,8456],[32.4,8543],[32.4,8624],[32.4,8708],[32.4,8792],[32.4,8875],[32.4,8961],[32.4,9041],[32.4,9125],[32.4,9211],[32.4,9291],[32.4,9373],[32.4,9460],[50.9,9561],[56.5,9644],[61.7,9726],[68.8,9807],[69,9880],[70.1,9971],[74.3,10053]]",1,0,679.513,683.459,83.43750636,1.669,"[{""rating"":83.43750635782878,""responseTime"":1.6689999999999827}]",space,3.418,,683.46,Not at all,0,683.467,,,[],,0,2,2,2,1,audio/Narrative7Situation2.wav,audio/Narrative8Situation2.wav,audio/Narrative5Situation2.wav,audio/Narrative6Situation2.wav,3,3,3,3,,,,,,,,,,,,,,,,,,,,,,,,,,,,,,,,,,,,,,,
,,,,,,60079f45348bb62bdcd363ff,2024-02-08_16h02.45.945,group3.1-3.2-social-tom,2023.2.2,Win32,62.5,65c5074098b851296ff0b7ed,65c5413c767d4aba90b9ed7a,,,,,,,,,,,,,,,,,,,,,,,,,,,,,683.468,1,audio/Narrative8Situation3.wav,687.484,,687.484,709.872,"[[999,36],[999,117],[999,201],[999,284],[999,366],[999,449],[999,534],[999,617],[999,703],[999,784],[999,866],[999,951],[999,1033],[999,1121],[999,1203],[999,1288],[999,1370],[999,1451],[999,1533],[999,1617],[999,1706],[999,1786],[999,1866],[999,1951],[999,2045],[999,2129],[999,2211],[999,2297],[999,2379],[999,2462],[45.1,2544],[44.2,2627],[39.2,2714],[34.5,2798],[34.5,2877],[34.4,2961],[40.6,3052],[40.6,3139],[40.6,3217],[66.1,3308],[72.7,3390],[80.6,3467],[80.6,3550],[80.6,3634],[80.2,3727],[79.7,3799],[79.7,3882],[79.7,3967],[79.7,4049],[79.7,4146],[79.7,4226],[79.7,4309],[79.7,4393],[79.7,4476],[79.7,4560],[79.7,4645],[79.7,4726],[79.7,4812],[79.7,4895],[79.7,4976],[79.7,5062],[79.7,5145],[79.7,5227],[79.7,5312],[79.7,5395],[79.7,5468],[79.7,5559],[79.7,5643],[79.7,5726],[79.7,5813],[79.7,5894],[79.7,5975],[79.7,6059],[79.7,6146],[79.7,6228],[79.7,6309],[79.7,6395],[79.7,6467],[79.7,6559],[79.7,6645],[79.7,6726],[79.7,6810],[79.7,6894],[79.7,6976],[79.7,7060],[79.7,7145],[79.7,7226],[79.7,7309],[79.7,7395],[79.7,7475],[79.7,7560],[79.7,7644],[79.7,7726],[79.7,7812],[79.7,7893],[79.7,7977],[79.7,8059],[79.7,8144],[79.7,8226],[79.7,8309],[79.7,8396],[79.7,8476],[79.7,8559],[79.7,8643],[79.7,8726],[79.7,8809],[79.7,8891],[79.7,8976],[79.7,9059],[79.7,9144],[79.7,9226],[79.7,9309],[79.7,9389],[79.7,9480],[79.7,9559],[79.7,9643],[79.7,9726],[79.7,9812],[79.7,9894],[79.7,9980],[79.7,10062],[79.7,10143],[79.7,10226],[79.7,10312],[79.7,10396],[79.7,10476],[79.7,10559],[79.7,10646],[79.7,10726],[79.7,10812],[79.7,10893],[79.7,10976],[79.7,11058],[79.7,11143],[79.7,11226],[79.7,11310],[79.7,11394],[79.7,11476],[79.7,11557],[79.7,11641],[79.7,11728],[79.7,11809],[79.7,11896],[79.7,11976],[79.7,12062],[79.7,12144],[79.7,12225],[79.7,12310],[79.7,12394],[79.7,12476],[79.7,12558],[79.7,12645],[79.7,12727],[79.7,12810],[79.7,12891],[79.7,12975],[79.7,13062],[79.7,13144],[79.7,13226],[79.7,13309],[79.7,13391],[79.7,13476],[79.7,13562],[79.7,13648],[79.7,13726],[79.7,13800],[79.7,13895],[79.7,13976],[79.7,14058],[79.7,14141],[79.7,14226],[79.7,14312],[79.7,14391],[79.7,14476],[79.7,14558],[79.7,14643],[79.7,14718],[79.7,14808],[79.7,14893],[79.7,14976],[79.7,15057],[79.7,15141],[79.7,15228],[79.7,15307],[79.7,15391],[79.7,15476],[79.7,15559],[79.7,15640],[79.7,15726],[79.7,15809],[79.7,15891],[79.7,15975],[79.7,16057],[79.7,16145],[79.7,16216],[79.7,16307],[79.7,16391],[79.7,16476],[79.7,16557],[79.7,16640],[79.7,16725],[79.7,16802],[79.7,16895],[79.7,16971],[79.7,17057],[79.7,17144],[79.7,17228],[79.7,17309],[79.7,17390],[79.7,17473],[79.7,17552],[79.7,17640],[79.7,17723],[79.7,17807],[79.7,17890],[79.7,17971],[79.7,18048],[79.7,18141],[79.7,18223],[79.7,18307],[79.7,18390],[79.7,18473],[79.7,18549],[79.7,18640],[79.7,18716],[79.7,18807],[79.7,18894],[79.7,18977],[79.7,19057],[79.7,19140],[79.7,19228],[79.7,19307],[79.7,19384],[79.7,19476],[79.7,19557],[79.7,19631],[79.7,19725],[79.7,19807],[79.7,19890],[79.7,19975],[79.7,20057],[79.7,20139],[79.7,20216],[79.7,20307],[79.7,20394],[79.7,20467],[79.7,20558],[79.7,20641],[79.7,20726],[79.7,20809],[79.7,20889],[79.7,20973],[79.7,21059],[79.7,21140],[79.7,21226],[79.7,21307],[79.7,21394],[79.7,21472],[79.7,21559],[79.7,21640],[79.7,21723],[79.7,21808],[79.7,21891],[79.7,21973],[79.7,22053],[79.7,22140],[79.7,22222],[79.7,22299],[79.7,22386]]",1,0,709.872,716.913,69.16666826,5.291,"[{""rating"":69.16666825612387,""responseTime"":5.29099999999994}]",space,6.496,,716.913,All the time,100,716.92,,,[],,0,3,3,3,1,audio/Narrative7Situation3.wav,audio/Narrative8Situation3.wav,audio/Narrative5Situation3.wav,audio/Narrative6Situation3.wav,8,4,3,5,,,,,,,,,,,,,,,,,,,,,,,,,,,,,,,,,,,,,,,
,,,,,,60079f45348bb62bdcd363ff,2024-02-08_16h02.45.945,group3.1-3.2-social-tom,2023.2.2,Win32,62.5,65c5074098b851296ff0b7ed,65c5413c767d4aba90b9ed7a,,,,,,,,,,,,,,,,,,,,,,,,,,,,,716.92,1,audio/Narrative8Situation4.wav,719.932,,719.933,734.104,"[[68.4,5287],[68.4,5373],[44.5,5461],[44.5,5538],[44.5,5624],[44.5,5710],[44.5,5790],[44.4,5873],[43.8,5955],[43.5,6038],[42.9,6124],[42.9,6206],[42.9,6288],[42.9,6371],[40.3,6456],[40.3,6538],[40.3,6625],[39.2,6707],[39,6790],[38.3,6873],[36.8,6956],[36.8,7038],[36.8,7125],[36.8,7205],[36.8,7288],[36.8,7374],[36.8,7456],[36.8,7538],[36.8,7620],[36.8,7706],[36.8,7793],[36.8,7871],[36.8,7957],[36.8,8043],[36.8,8120],[36.8,8208],[36.1,8293],[36.1,8373],[36.1,8458],[36.1,8538],[36.1,8614],[36.1,8710],[34.6,8790],[34.6,8871],[34.6,8952],[34.6,9032],[34.6,9121],[34.6,9203],[34.6,9287],[34.6,9370],[34.6,9455],[35.2,9542]]",1,0,734.104,738.917,39.89583651,3.351,"[{""rating"":39.895836512247726,""responseTime"":3.350999999999999}]",space,4.27,,738.917,Not at all,0,738.94,,,[],,0,4,4,4,1,audio/Narrative7Situation4.wav,audio/Narrative8Situation4.wav,audio/Narrative5Situation4.wav,audio/Narrative6Situation4.wav,3,3,1,2,,,,,,,,,,,,,,,,,,,,,,,,,,,,,,,,,,,,,,,
,,,,,,60079f45348bb62bdcd363ff,2024-02-08_16h02.45.945,group3.1-3.2-social-tom,2023.2.2,Win32,62.5,65c5074098b851296ff0b7ed,65c5413c767d4aba90b9ed7a,,,,,,,,,,,,,,,,,,,,,,,,,,,,,738.94,1,audio/Narrative8Situation5.wav,740.941,,740.941,749.199,[],1,0,749.2,782.624,32.29166667,30.713,"[{""rating"":32.291666666666664,""responseTime"":30.712999999999965}]",space,32.888,,782.625,All the time,100,782.635,,,[],,0,5,5,5,1,audio/Narrative7Situation5.wav,audio/Narrative8Situation5.wav,audio/Narrative5Situation5.wav,audio/Narrative6Situation5.wav,5,2,5,2,,,,,,,,,,,,,,,,,,,,,,,,,,,,,,,,,,,,,,,
,,,,,,60079f45348bb62bdcd363ff,2024-02-08_16h02.45.945,group3.1-3.2-social-tom,2023.2.2,Win32,62.5,65c5074098b851296ff0b7ed,65c5413c767d4aba90b9ed7a,,,,,,,,,,,,,,,,,,,,,,,,,,,,,782.635,1,audio/Narrative8Situation6.wav,784.639,,784.64,791.122,"[[999,5],[999,94],[999,176],[999,258],[999,341],[999,430],[999,511],[999,591],[999,677],[999,759],[999,841],[999,928],[999,1009],[999,1093],[999,1177],[999,1259],[999,1346],[999,1428],[999,1509],[999,1595],[999,1677],[999,1762],[999,1844],[999,1931],[999,2009],[999,2096],[999,2182],[999,2262],[999,2344],[999,2431],[999,2511],[999,2591],[999,2681],[999,2764],[999,2846],[999,2926],[999,3008],[999,3099],[999,3176],[999,3259],[999,3341],[999,3426],[999,3508],[999,3594],[999,3680],[999,3759],[999,3845],[999,3926],[999,4016],[999,4096],[999,4181],[999,4263],[999,4346],[999,4428],[999,4514],[999,4595],[999,4680],[999,4759],[999,4845],[999,4925],[999,5013],[999,5095],[999,5182],[999,5258],[999,5346],[33.5,5442],[28.5,5526],[25.3,5606],[25.3,5692],[25.3,5776],[25.3,5859],[25.3,5941],[25.3,6024],[25.3,6109],[25.3,6197],[25.3,6276],[25.3,6358],[25.3,6442]]",1,0,791.122,793.841,24.58333174,0.038,"[{""rating"":24.58333174387614,""responseTime"":0.038000000000010914}]",space,2.189,,793.842,All the time,100,793.85,,,[],,0,6,6,6,1,audio/Narrative7Situation6.wav,audio/Narrative8Situation6.wav,audio/Narrative5Situation6.wav,audio/Narrative6Situation6.wav,3,2,3,2,,,,,,,,,,,,,,,,,,,,,,,,,,,,,,,,,,,,,,,
,,,,,,60079f45348bb62bdcd363ff,2024-02-08_16h02.45.945,group3.1-3.2-social-tom,2023.2.2,Win32,62.5,65c5074098b851296ff0b7ed,65c5413c767d4aba90b9ed7a,,,,,,,,,,,,,,,,,,,,,,,,,,,,,793.85,1,audio/Narrative8Situation7.wav,796.863,,796.863,808.98,"[[999,46],[999,132],[999,219],[999,299],[999,389],[999,467],[999,549],[999,636],[999,716],[999,812],[999,882],[999,966],[999,1049],[999,1132],[999,1216],[999,1299],[999,1384],[999,1469],[999,1551],[999,1636],[999,1721],[999,1807],[999,1885],[999,1975],[999,2050],[999,2133],[999,2216],[999,2302],[999,2385],[999,2468],[999,2549],[999,2640],[999,2718],[999,2801],[999,2883],[999,2971],[45.1,3060],[45.9,3140],[46.8,3226],[48.9,3304],[48.9,3386],[48.9,3473],[48.9,3552],[48.9,3637],[48.9,3719],[48.9,3800],[49.5,3882],[49.5,3966],[49.5,4052],[49.5,4136],[49.5,4218],[49.5,4307],[49.5,4384],[49.5,4469],[49.5,4548],[49.5,4633],[49.5,4717],[49.5,4799],[49.5,4883],[49.5,4966],[49.5,5049],[49.5,5134],[49.5,5216],[49.5,5300],[49.5,5383],[45.9,5471],[43.4,5553],[43.2,5635],[41,5716],[40.5,5798],[40.5,5883],[40.5,5971],[40.5,6056],[40.5,6131],[40.5,6219],[40.5,6300],[40.5,6383],[40.5,6466],[40.5,6550],[40.5,6634],[40.5,6721],[40.5,6800],[40.6,6884],[32.7,8302],[42,8550],[44.4,8641],[44.4,8716],[40.2,8799],[39.2,8881],[39,8971],[39.3,9056],[49.7,9134],[52.1,9214],[52.1,9298],[53.1,9387],[54.5,9467],[54.5,9551],[54.5,9634],[54.5,9716],[54.5,9800],[54.5,9883],[54.5,9966],[54.5,10050],[54.6,10142],[54.6,10217],[54.6,10298],[54.6,10381],[54.6,10468],[54.6,10548],[54.6,10632],[54.6,10716],[54.6,10798],[54.6,10883],[54.6,10964],[54.6,11048],[54.6,11132],[54.3,11214],[54.1,11308],[53.4,11385],[53.2,11468],[52.8,11548],[52.7,11633],[52.7,11717],[52.5,11801],[52.3,11889],[52,11966],[52,12049]]",1,0,808.982,813.176,61.97916667,1.672,"[{""rating"":61.979166666666664,""responseTime"":1.6720000000000255}]",space,3.649,,813.176,All the time,100,813.183,,,[],,0,7,7,7,1,audio/Narrative7Situation7.wav,audio/Narrative8Situation7.wav,audio/Narrative5Situation7.wav,audio/Narrative6Situation7.wav,5,3,4,5,,,,,,,,,,,,,,,,,,,,,,,,,,,,,,,,,,,,,,,
,,,,,,60079f45348bb62bdcd363ff,2024-02-08_16h02.45.945,group3.1-3.2-social-tom,2023.2.2,Win32,62.5,65c5074098b851296ff0b7ed,65c5413c767d4aba90b9ed7a,,,,,,,,,,,,,,,,,,,,,,,,,,,,,813.183,1,audio/Narrative8Situation8.wav,816.184,,816.184,829.06,"[[999,28],[999,115],[999,195],[999,278],[999,359],[999,446],[999,525],[999,609],[999,696],[999,778],[999,859],[999,942],[999,1025],[999,1113],[999,1192],[999,1275],[999,1360],[999,1441],[999,1528],[999,1609],[999,1692],[999,1781],[999,1858],[999,1942],[999,2025],[999,2108],[999,2192],[999,2280],[999,2358],[999,2447],[999,2532],[999,2608],[999,2694],[999,2775],[999,2859],[999,2945],[999,3028],[999,3119],[999,3201],[999,3276],[999,3369],[999,3453],[999,3537],[999,3609],[999,3695],[999,3781],[999,3872],[999,3956],[999,4035],[999,4121],[999,4200],[999,4286],[999,4369],[999,4451],[999,4527],[999,4623],[999,4706],[999,4787],[999,4870],[999,4953],[999,5033],[999,5119],[999,5194],[999,5277],[999,5359],[999,5451],[999,5537],[999,5610],[999,5701],[999,5788],[999,5870],[999,5956],[999,6038],[999,6125],[999,6206],[37.2,6302],[37.4,6379],[38.2,6459],[39.5,6549],[45.2,6628],[45.6,6710],[45.8,6791],[45.8,6875],[45.8,6959],[48.1,7045],[52.4,7132],[61,7216],[66.1,7294],[66.1,7379],[66.1,7460],[66.9,7545],[66.9,7631],[66.9,7711],[66.9,7795],[67.1,7884],[67.1,7966],[67.1,8043],[67.1,8124],[67.1,8206],[67.1,8296],[67.1,8375],[67.1,8458],[67.1,8549],[67.1,8626],[67.1,8710],[67.1,8793],[67.1,8876],[67.1,8956],[67.1,9043],[67.1,9127],[67.1,9209],[67.1,9290],[67.1,9376],[67.1,9458],[69.4,9543],[69.4,9626],[70.5,9709],[70.5,9791],[70.5,9876],[70.5,9959],[70.5,10044],[70.5,10126],[70.5,10206],[70.5,10290],[70.5,10374],[70.5,10460],[70.5,10544],[70.5,10627],[70.5,10709],[70.5,10790],[70.5,10876],[70.5,10959],[70.5,11040],[70.5,11125],[70.5,11209],[70.5,11291],[70.5,11375],[70.5,11458],[70.5,11540],[70.5,11624],[70.5,11713],[70.5,11797],[70.5,11874],[70.5,11956],[70.5,12043],[70.5,12124],[70.5,12213],[70.5,12292],[70.5,12379],[70.5,12456],[70.5,12541],[70.5,12626],[70.5,12708],[70.5,12798],[70.5,12876]]",1,0,829.062,834.484,74.79166985,4.005,"[{""rating"":74.79166984558105,""responseTime"":4.0049999999999955}]",space,4.896,,834.484,All the time,100,834.486,,,[],,0,8,8,8,1,audio/Narrative7Situation8.wav,audio/Narrative8Situation8.wav,audio/Narrative5Situation8.wav,audio/Narrative6Situation8.wav,2,3,3,5,,,,,,,,,,,,,,,,,,,,,,,,,,,,,,,,,,,,,,,
,,,,,,60079f45348bb62bdcd363ff,2024-02-08_16h02.45.945,group3.1-3.2-social-tom,2023.2.2,Win32,62.5,65c5074098b851296ff0b7ed,65c5413c767d4aba90b9ed7a,,,,,,,,,,,,,,,,,,,,,,,,,,,,,834.486,1,audio/Narrative8Situation9.wav,837.489,,837.489,848.79,[],1,0,848.79,867.083,74.79166985,16.409,"[{""rating"":74.79166984558105,""responseTime"":16.408999999999992}]",space,17.749,,867.083,All the time,100,900.044,100,21.393,"[{""rating"":99.89584287007649,""responseTime"":19.493000000000052},{""rating"":100,""responseTime"":21.39300000000003}]",space,0,9,9,9,1,audio/Narrative7Situation9.wav,audio/Narrative8Situation9.wav,audio/Narrative5Situation9.wav,audio/Narrative6Situation9.wav,2,3,3,4,,,32.416,,,,,,,,,,,,,,,,,,,,,,,,,,,,,,,,,,,,
,,,,,,60079f45348bb62bdcd363ff,2024-02-08_16h02.45.945,group3.1-3.2-social-tom,2023.2.2,Win32,62.5,65c5074098b851296ff0b7ed,65c5413c767d4aba90b9ed7a,,,,,,,,,,,,,,,,,,,,,,,,,,,,,900.086,1,audio/Narrative7Situation1.wav,902.102,,902.102,957.986,"[[999,2],[999,91],[999,174],[999,258],[999,348],[999,425],[999,508],[999,591],[999,673],[999,759],[999,849],[999,924],[999,1007],[999,1090],[999,1174],[999,1257],[999,1344],[999,1425],[999,1508],[999,1596],[999,1673],[999,1758],[999,1841],[999,1924],[999,2008],[999,2091],[999,2177],[999,2258],[999,2340],[999,2425],[999,2507],[999,2590],[999,2674],[999,2759],[999,2840],[999,2923],[999,3016],[999,3091],[999,3174],[98.5,3257],[86.8,3360],[81.7,3453],[59.1,6201],[56.6,6302],[52.7,6384],[51,6466],[37.7,6552],[33.6,6634],[33.6,6715],[33.5,6804],[33.5,6876],[33.5,6966],[33.5,7052],[33.5,7126],[33.5,7220],[33.5,7302],[33.5,7384],[33.5,7471],[33.5,7551],[33.5,7634],[33.5,7709],[33.5,7790],[33.5,7887],[33.5,7966],[33.5,8051],[33.5,8134],[33.5,8208],[33.5,8300],[33.5,8377],[33.5,8468],[33.5,8552],[33.5,8633],[33.5,8718],[33.5,8804],[33.5,8876],[33.5,8960],[33.5,9041],[33.5,9124],[33.5,9205],[33.5,9292],[33.5,9372],[33.5,9456],[33.5,9540],[33.5,9624],[33.5,9709],[33.5,9792],[33.5,9875],[33.5,9956],[33.5,10040],[33.5,10131],[33.5,10208],[33.5,10293],[33.5,10375],[33.5,10456],[33.5,10540],[33.5,10624],[33.5,10706],[33.5,10788],[33.5,10872],[33.5,10959],[33.5,11045],[33.5,11122],[33.5,11208],[33.5,11288],[33.5,11376],[33.5,11458],[33.5,11538],[33.5,11629],[33.5,11706],[33.5,11788],[33.5,11876],[33.5,11956],[33.5,12038],[33.5,12122],[33.5,12206],[33.5,12290],[33.5,12373],[33.5,12456],[33.5,12540],[33.5,12624],[33.5,12706],[33.5,12790],[33.5,12878],[33.5,12963],[33.5,13040],[33.5,13124],[33.5,13205],[33.5,13293],[33.5,13377],[33.5,13455],[33.5,13538],[33.5,13626],[33.5,13704],[33.5,13788],[33.5,13882],[33.5,13956],[33.5,14042],[33.5,14123],[33.5,14208],[33.5,14298],[33.5,14374],[33.5,14455],[33.5,14540],[33.5,14620],[33.5,14704],[33.5,14788],[33.5,14873],[33.4,14985],[26.1,15066],[24.7,15153],[24.3,15232],[23,15319],[23,15400],[23,15482],[23,15567],[23,15650],[23,15732],[23,15815],[23,15901],[23,15980],[23,16065],[23,16150],[23,16235],[23,16319],[23,16399],[23,16480],[23,16567],[23,16650],[23,16732],[23,16815],[23,16900],[23,16971],[23,17056],[23,17137],[23,17225],[23,17309],[23,17388],[23,17470],[23,17554],[23,17639],[23,17724],[23,17806],[23,17887],[23,17977],[23,18055],[23,18137],[23,18221],[23,18305],[23,18391],[23,18474],[23,18557],[23,18638],[23,18724],[23,18804],[23,18887],[23,18975],[23,19054],[23,19139],[23,19223],[23,19306],[23,19393],[23,19473],[23,19554],[23,19637],[23,19721],[23,19804],[23,19887],[23,19970],[23,20054],[23,20139],[23,20221],[23,20302],[23,20389],[23,20471],[23,20554],[23,20636],[17.5,20733],[17.5,20806],[17.5,20889],[17.5,20971],[17.5,21054],[17.5,21139],[17.5,21223],[17.5,21304],[17.5,21394],[17.5,21473],[17.5,21554],[19.2,21639],[23.4,21721],[24.6,26069],[24.6,26152],[24.3,26235],[22.5,26319],[22.5,26402],[20.2,26489],[19.6,26570],[19.4,26662],[17.9,26735],[17.9,26819],[17.5,26902],[17.3,26999],[17.3,27072],[17.3,27166],[17.3,27250],[17.3,27322],[17.3,27415],[17.3,27495],[17.3,27580],[17.3,27663],[17.3,27747],[17.3,27830],[17.3,27913],[17.3,27998],[17.3,28081],[17.3,28163],[17.3,28247],[17.3,28333],[17.3,28406],[17.3,28498],[17.3,28579],[17.3,28666],[17.3,28745],[17.3,28831],[17.3,28912],[17.3,28987],[17.3,29079],[17.3,29162],[17.3,29249],[17.3,29329],[17.3,29416],[17.3,29495],[17.3,29581],[17.3,29663],[17.3,29747],[17.3,29831],[17.3,29912],[17.3,29995],[17.3,30071],[17.3,30165],[17.3,30250],[17.3,30333],[17.3,30416],[17.3,30495],[17.3,30577],[20.7,30681],[23.2,30763],[24.8,30845],[25.3,30927],[26,31013],[27.6,31098],[28.6,31182],[30.5,31264],[31.3,31346],[31.3,31421],[31.7,31513],[33.6,31596],[34.6,31682],[35.7,31761],[35.9,31846],[36.5,31930],[36.7,32012],[36.7,32098],[36.7,32168],[36.7,32262],[36.7,32348],[36.7,32429],[36.7,32513],[36.7,32599],[36.7,32677],[36.7,32767],[36.7,32849],[36.7,32932],[36.7,33002],[36.7,33085],[36.7,33167],[36.7,33253],[36.7,33336],[36.7,33418],[36.7,33503],[36.7,33585],[36.7,33670],[36.7,33753],[36.7,33834],[36.7,33918],[36.7,34003],[36.7,34084],[36.7,34168],[36.7,34253],[36.7,34336],[36.7,34418],[36.7,34503],[36.7,34583],[36.7,34667],[36.7,34754],[36.7,34836],[36.7,34920],[36.7,35004],[36.7,35084],[36.7,35177],[36.7,35253],[36.7,35336],[36.7,35423],[36.7,35501],[36.7,35585],[36.7,35667],[36.7,35753],[36.7,35834],[36.7,35918],[36.7,36007],[36.7,36084],[36.7,36168],[36.7,36254],[36.7,36334],[36.7,36420],[36.7,36503],[36.7,36588],[36.7,36668],[36.7,36753],[36.7,36835],[36.7,36918],[36.7,37002],[36.7,37091],[36.7,37166],[36.7,37253],[36.7,37340],[36.7,37418],[36.7,37502],[36.7,37586],[36.7,37668],[36.7,37750],[36.7,37835],[36.7,37918],[36.7,38001],[36.7,38083],[36.7,38167],[36.7,38261],[36.7,38333],[36.7,38418],[36.7,38506],[36.7,38586],[36.7,38668],[36.7,38754],[36.7,38834],[36.7,38916],[36.7,39004],[36.7,39084],[36.7,39168],[36.7,39252],[36.7,39333],[36.7,39418],[36.7,39499],[36.7,39586],[36.7,39668],[36.7,39751],[36.7,39831],[36.7,39918],[36.7,40003],[36.7,40089],[36.7,40168],[36.7,40249],[36.7,40335],[36.7,40416],[36.7,40502],[36.7,40585],[36.7,40668],[36.7,40751],[36.7,40834],[36.7,40916],[36.7,41006],[36.7,41091],[36.7,41166],[36.7,41254],[36.7,41334],[36.7,41416],[36.7,41504],[36.7,41586],[36.7,41668],[36.7,41750],[36.7,41833],[36.7,41916],[36.7,42002],[36.7,42081],[36.7,42168],[36.7,42249],[36.7,42336],[36.7,42417],[36.7,42500],[36.7,42588],[36.7,42665],[36.7,42749],[36.7,42833],[36.7,42918],[36.7,43001],[36.7,43081],[36.7,43165],[36.7,43253],[36.7,43338],[36.7,43417],[36.7,43504],[36.7,43584],[36.7,43670],[36.7,43754],[36.7,43833],[36.7,43916],[36.7,44004],[36.7,44086],[36.7,44175],[36.7,44254],[36.7,44331],[36.7,44415],[36.7,44501],[36.7,44583],[36.7,44668],[36.7,44751],[36.7,44834],[36.7,44916],[36.7,44999],[36.7,45085],[36.7,45166],[36.7,45250],[36.7,45336],[36.7,45416],[36.7,45499],[36.7,45585],[36.7,45668],[36.7,45754],[36.7,45833],[36.7,45917],[36.7,45999],[36.7,46090],[36.7,46167],[36.7,46248],[36.7,46339],[36.7,46418],[36.7,46508],[36.7,46586],[36.7,46668],[36.7,46751],[36.7,46835],[36.7,46915],[36.7,46999],[36.7,47083],[36.7,47174],[36.7,47249],[36.7,47333],[36.7,47415],[36.7,47499],[36.7,47585],[36.7,47663],[36.7,47750],[36.7,47835],[36.7,47918],[36.7,48004],[36.7,48084],[36.7,48168],[36.7,48256],[36.7,48339],[36.7,48420],[36.7,48500],[36.7,48586],[36.7,48670],[36.7,48753],[36.7,48839],[36.7,48916],[36.7,49002],[36.7,49081],[36.7,49167],[36.7,49247],[36.7,49330],[36.7,49417],[36.7,49500],[36.7,49581],[36.7,49666],[36.7,49754],[36.7,49833],[36.7,49918],[36.7,49999],[36.7,50081],[36.7,50173],[36.7,50247],[36.7,50331],[36.7,50413],[36.7,50498],[36.7,50583],[36.7,50663],[36.7,50753],[36.7,50834],[36.7,50915],[36.7,51003],[36.7,51081],[36.7,51166],[36.7,51250],[36.7,51333],[36.7,51417],[36.7,51502],[36.7,51586],[36.7,51668],[36.7,51750],[36.7,51836],[36.7,51917],[36.7,52000],[36.7,52084],[36.7,52168],[36.7,52254],[36.7,52340],[36.7,52416],[36.7,52501],[36.7,52584],[36.7,52671],[36.7,52749],[36.7,52831],[36.7,52916],[36.7,52995],[36.7,53081],[36.7,53163],[36.7,53250],[36.7,53335],[36.7,53417],[36.7,53504],[36.7,53581],[36.7,53663],[36.7,53747],[36.7,53831],[36.7,53913],[36.7,53999],[36.7,54085],[36.7,54166],[36.7,54249],[36.7,54331],[36.7,54416],[36.7,54499],[36.7,54583],[36.7,54667],[36.7,54747],[36.7,54833],[36.7,54913],[36.7,55000],[36.7,55080],[36.7,55163],[36.7,55249],[36.7,55329],[36.7,55415],[36.7,55495],[36.7,55580],[36.7,55663],[36.7,55747],[36.7,55831]]",1,0,957.986,976.913,60.9375,3.082,"[{""rating"":60.9375,""responseTime"":3.0819999999999936}]",space,18.399,,976.913,Not at all,0,976.955,,,[],,0,10,10,10,1,audio/Narrative8Situation1.wav,audio/Narrative7Situation1.wav,audio/Narrative6Situation1.wav,audio/Narrative5Situation1.wav,5,2,2,5,,,,,,,,,,,,,,,,,,,,,,,,,,,,,,,,,,,,,,,
,,,,,,60079f45348bb62bdcd363ff,2024-02-08_16h02.45.945,group3.1-3.2-social-tom,2023.2.2,Win32,62.5,65c5074098b851296ff0b7ed,65c5413c767d4aba90b9ed7a,,,,,,,,,,,,,,,,,,,,,,,,,,,,,976.956,1,audio/Narrative7Situation2.wav,979.971,,979.971,987.453,[],1,0,987.453,992.079,18.54166985,2.28,"[{""rating"":18.541669845581055,""responseTime"":2.2799999999999727}]",space,4.086,,992.079,Not at all,0,992.091,,,[],,0,11,11,11,1,audio/Narrative8Situation2.wav,audio/Narrative7Situation2.wav,audio/Narrative6Situation2.wav,audio/Narrative5Situation2.wav,3,3,3,3,,,,,,,,,,,,,,,,,,,,,,,,,,,,,,,,,,,,,,,
,,,,,,60079f45348bb62bdcd363ff,2024-02-08_16h02.45.945,group3.1-3.2-social-tom,2023.2.2,Win32,62.5,65c5074098b851296ff0b7ed,65c5413c767d4aba90b9ed7a,,,,,,,,,,,,,,,,,,,,,,,,,,,,,992.098,1,audio/Narrative7Situation3.wav,1000.101,,1000.101,1009.366,"[[21.7,2950],[24.7,3036],[25.2,3115],[26,3200],[26.8,3285],[28.2,3365],[28.2,3450],[30,3534],[30,3617],[30,3701],[30,3775],[30,3867],[30,3949],[30,4035],[30,4109],[30,4199],[30,4282],[30,4365],[30,4449],[30,4532],[30,4617],[30,4703],[30,4785],[30,4865],[30,4949],[30,5026],[30,5115],[30,5200],[30,5282],[30,5366],[30,5448],[30,5537],[30,5618],[30,5699],[30,5774],[30,5867],[30,5950],[30,6032],[30,6115],[30,6201],[30,6278],[30,6365],[30,6449],[30,6531],[30,6615],[30,6698],[30,6786],[30,6866],[30,6948],[30,7025],[30,7111],[30,7190],[30,7284],[30,7366],[30,7451],[30,7530],[30,7607],[30,7698],[30,7782],[30,7865],[30,7949],[30,8031],[30,8109],[30,8201],[30,8280],[30,8356],[30,8452],[30,8524],[30,8615],[30,8700],[30,8781],[30,8866],[30,8950],[30,9035],[30,9105],[30,9200]]",1,0,1009.366,1013.116,23.75000318,1.98,"[{""rating"":23.750003178914387,""responseTime"":1.9800000000000182}]",space,3.217,,1013.117,Not at all,0,1013.124,,,[],,0,12,12,12,1,audio/Narrative8Situation3.wav,audio/Narrative7Situation3.wav,audio/Narrative6Situation3.wav,audio/Narrative5Situation3.wav,4,8,5,3,,,,,,,,,,,,,,,,,,,,,,,,,,,,,,,,,,,,,,,
,,,,,,60079f45348bb62bdcd363ff,2024-02-08_16h02.45.945,group3.1-3.2-social-tom,2023.2.2,Win32,62.5,65c5074098b851296ff0b7ed,65c5413c767d4aba90b9ed7a,,,,,,,,,,,,,,,,,,,,,,,,,,,,,1013.129,1,audio/Narrative7Situation4.wav,1016.138,,1016.138,1027.888,"[[26.1,5655],[26.1,5730],[26.1,5816],[38.5,5910],[38.8,5983],[42.7,6071],[49.6,6150],[51.6,6232],[51.6,6316],[50.7,6401],[48.9,6481],[48.2,6571],[46.3,6647],[45.8,6732],[40,6819],[38.5,6898],[37.3,6982],[36.7,7065],[36.7,7148],[36.7,7234],[37.5,7315],[47.8,7403],[51.6,7485],[57.2,7570],[58.9,7652],[62.4,7734],[62.5,7824],[62.5,7898],[62.5,7983],[62.5,8067],[62.5,8151],[62.5,8238],[62.5,8319],[62.5,8398],[62.5,8480],[62.5,8564],[62.5,8654],[62.5,8733],[62.5,8815],[62.5,8900],[62.5,8982],[62.5,9064],[62.5,9146],[62.5,9231],[62.5,9314],[62.5,9398],[62.5,9481],[62.5,9565],[62.5,9647],[62.5,9740],[62.5,9814],[62.5,9898],[62.5,9982],[62.5,10064],[62.5,10148],[62.5,10230],[62.5,10316],[62.5,10398],[62.5,10488],[62.5,10564],[62.5,10648],[62.5,10733],[62.5,10815],[62.5,10898],[62.5,10982],[62.5,11065],[62.5,11146],[62.5,11232],[62.5,11315],[62.5,11398],[62.5,11481],[62.5,11568],[62.5,11646],[62.5,11731]]",1,0,1027.89,1033.147,61.35416826,2.736,"[{""rating"":61.35416825612386,""responseTime"":2.7359999999998763}]",space,4.713,,1033.148,All the time,100,1033.163,,,[],,0,13,13,13,1,audio/Narrative8Situation4.wav,audio/Narrative7Situation4.wav,audio/Narrative6Situation4.wav,audio/Narrative5Situation4.wav,3,3,2,1,,,,,,,,,,,,,,,,,,,,,,,,,,,,,,,,,,,,,,,
,,,,,,60079f45348bb62bdcd363ff,2024-02-08_16h02.45.945,group3.1-3.2-social-tom,2023.2.2,Win32,62.5,65c5074098b851296ff0b7ed,65c5413c767d4aba90b9ed7a,,,,,,,,,,,,,,,,,,,,,,,,,,,,,1033.164,1,audio/Narrative7Situation5.wav,1038.168,,1038.169,1046.678,[],1,0,1046.678,1061.514,27.08333333,11.031,"[{""rating"":27.083333333333336,""responseTime"":11.030999999999949}]",space,14.3,,1061.516,Not at all,0,1061.54,,,[],,0,14,14,14,1,audio/Narrative8Situation5.wav,audio/Narrative7Situation5.wav,audio/Narrative6Situation5.wav,audio/Narrative5Situation5.wav,2,5,2,5,,,,,,,,,,,,,,,,,,,,,,,,,,,,,,,,,,,,,,,
,,,,,,60079f45348bb62bdcd363ff,2024-02-08_16h02.45.945,group3.1-3.2-social-tom,2023.2.2,Win32,62.5,65c5074098b851296ff0b7ed,65c5413c767d4aba90b9ed7a,,,,,,,,,,,,,,,,,,,,,,,,,,,,,1061.542,1,audio/Narrative7Situation6.wav,1064.544,,1064.544,1074.522,"[[999,34],[999,101],[999,182],[999,269],[999,351],[999,435],[999,516],[999,606],[999,682],[999,773],[999,855],[999,938],[999,1017],[999,1102],[999,1184],[999,1273],[999,1352],[999,1435],[999,1518],[999,1603],[999,1690],[999,1774],[999,1854],[999,1938],[999,2019],[999,2103],[999,2194],[999,2278],[999,2355],[999,2437],[999,2523],[999,2598],[999,2691],[999,2774],[999,2861],[999,2934],[999,3029],[999,3113],[999,3193],[999,3281],[999,3360],[999,3446],[999,3527],[999,3613],[999,3692],[999,3777],[999,3863],[999,3943],[999,4028],[999,4111],[999,4194],[999,4280],[999,4362],[999,4443],[999,4528],[999,4612],[999,4693],[999,4778],[999,4864],[999,4946],[999,5027],[65.4,5132],[65.4,5218],[65.4,5299],[65.4,5383],[66,5464],[66,5548],[66,5633],[66,5716],[66,5798],[66,5883],[66,5964],[66,6048],[66,6139],[66,6228],[66,6312],[66,6385],[66,6479],[66,6557],[66,6648],[66,6728],[66,6809],[66,6892],[66,6976],[66,7059],[66,7144],[66,7229],[66,7308],[66,7394],[66,7478],[66,7558],[66,7643],[66,7725],[66,7809],[66,7892],[66,7977],[66,8060],[66,8142],[66,8226],[66,8308],[66,8393],[66,8477],[66,8560],[66,8643],[66,8727],[66,8810],[66,8893],[66,8976],[66,9063],[66,9134],[66,9225],[66,9310],[66,9396],[66,9472],[66,9558],[66,9642],[66,9726],[66,9810],[66,9895],[66,9977]]",1,0,1074.522,1080.434,60.72916985,1.71,"[{""rating"":60.729169845581055,""responseTime"":1.7100000000000364}]",space,5.376,,1080.434,Not at all,0,1080.467,,,[],,0,15,15,15,1,audio/Narrative8Situation6.wav,audio/Narrative7Situation6.wav,audio/Narrative6Situation6.wav,audio/Narrative5Situation6.wav,2,3,2,3,,,,,,,,,,,,,,,,,,,,,,,,,,,,,,,,,,,,,,,
,,,,,,60079f45348bb62bdcd363ff,2024-02-08_16h02.45.945,group3.1-3.2-social-tom,2023.2.2,Win32,62.5,65c5074098b851296ff0b7ed,65c5413c767d4aba90b9ed7a,,,,,,,,,,,,,,,,,,,,,,,,,,,,,1080.467,1,audio/Narrative7Situation7.wav,1085.475,,1085.475,1102.656,"[[17.5,3968],[17.5,4048],[17.5,4142],[17.5,4214],[17.5,4298],[17.5,4382],[17.5,4465],[17.5,4551],[17.5,4636],[17.5,4714],[17.9,4805]]",1,0,1102.657,1132.605,28.3333381,25.621,"[{""rating"":28.333338101704918,""responseTime"":25.620999999999867}]",space,29.409,,1132.606,Not at all,0,1132.628,,,[],,0,16,16,16,1,audio/Narrative8Situation7.wav,audio/Narrative7Situation7.wav,audio/Narrative6Situation7.wav,audio/Narrative5Situation7.wav,3,5,5,4,,,,,,,,,,,,,,,,,,,,,,,,,,,,,,,,,,,,,,,
,,,,,,60079f45348bb62bdcd363ff,2024-02-08_16h02.45.945,group3.1-3.2-social-tom,2023.2.2,Win32,62.5,65c5074098b851296ff0b7ed,65c5413c767d4aba90b9ed7a,,,,,,,,,,,,,,,,,,,,,,,,,,,,,1132.629,1,audio/Narrative7Situation8.wav,1134.634,,1134.635,1144.665,"[[34.5,8619],[36.3,8696],[38.1,8780],[39.8,8862],[40.3,8943],[42.1,9030],[42.5,9111],[42.5,9196],[42.5,9278],[42.5,9360],[42.5,9443],[42.5,9528],[42.5,9613],[42.5,9697],[42.5,9779],[42.5,9862],[42.5,9944],[42.5,10028]]",1,0,1144.666,1211.037,42.50000318,54.449,"[{""rating"":42.50000317891438,""responseTime"":54.44900000000007}]",space,65.833,,1211.038,Half the time,50,1211.077,,,[],,0,17,17,17,1,audio/Narrative8Situation8.wav,audio/Narrative7Situation8.wav,audio/Narrative6Situation8.wav,audio/Narrative5Situation8.wav,3,2,5,3,,,,,,,,,,,,,,,,,,,,,,,,,,,,,,,,,,,,,,,
,,,,,,60079f45348bb62bdcd363ff,2024-02-08_16h02.45.945,group3.1-3.2-social-tom,2023.2.2,Win32,62.5,65c5074098b851296ff0b7ed,65c5413c767d4aba90b9ed7a,,,,,,,,,,,,,,,,,,,,,,,,,,,,,1211.077,1,audio/Narrative7Situation9.wav,1213.083,,1213.083,1221.699,"[[42.6,4360],[39.7,4459],[39.7,4540],[39.7,4625],[39.7,4707],[39.7,4792],[32.3,4876],[32.3,4959],[31.7,5043],[31.6,5125],[31.3,5209],[31.3,5294],[31.3,5366],[31.3,5459],[31.3,5545],[31.3,5625],[31.3,5709],[31.3,5792],[31.3,5876],[31.4,5956],[47.9,7955],[49.8,8034],[62.6,8120],[69.4,8203],[69.6,8284],[69.6,8365],[69.6,8451],[69.7,8534],[69.7,8614]]",1,0,1221.7,1251.011,71.45833174,1.333,"[{""rating"":71.45833174387613,""responseTime"":1.3330000000000837}]",space,28.765,,1251.011,All the time,100,1251.061,,,[],,0,18,18,18,1,audio/Narrative8Situation9.wav,audio/Narrative7Situation9.wav,audio/Narrative6Situation9.wav,audio/Narrative5Situation9.wav,3,2,4,3,,,,,,,,,,,,,,,,,,,,,,,,,,,,,,,,,,,,,,,
,,,,,,60079f45348bb62bdcd363ff,2024-02-08_16h02.45.945,group3.1-3.2-social-tom,2023.2.2,Win32,62.5,65c5074098b851296ff0b7ed,65c5413c767d4aba90b9ed7a,,,,,,,,,,,,,,,,,,,,,,,,,,,1302.535,1305.098,1305.143,2,audio/Narrative13Situation2.wav,1305.143,,1305.143,1334.896,"[[58.3,2571],[31.8,2655],[31.6,2739],[31.6,2821],[31.4,2905],[31,2990],[31,3072],[31,3153],[31,3240],[31,3320],[31,3403],[31,3509],[31,3597],[31,3681],[31,3766],[31,3839],[31,3923],[31,4004],[31,4093],[31,4171],[31,4255],[31,4338],[31,4423],[31,4506],[31,4596],[31,4675],[31,4754],[31,4840],[31,4923],[31,5003],[31,5090],[31,5171],[31,5256],[31,5338],[31,5421],[31,5504],[31,5595],[31,5672],[31,5755],[31,5845],[41.6,5926],[41.9,6003],[41.9,6086],[41.9,6171],[41.9,6254],[41.9,6339],[41.9,6420],[41.9,6505],[41.9,6589],[41.9,6677],[41.9,6755],[41.9,6839],[41.9,6927],[41.9,7005],[41.9,7089],[41.9,7174],[41.9,7259],[41.9,7341],[41.9,7423],[41.9,7503],[41.9,7586],[41.9,7670],[41.9,7753],[41.9,7842],[41.9,7922],[41.9,8004],[41.9,8092],[41.9,8172],[41.9,8253],[41.9,8336],[41.9,8428],[41.9,8502],[41.9,8586],[41.9,8671],[41.9,8753],[41.9,8839],[41.9,8919],[41.9,9005],[41.9,9085],[41.9,9172],[41.9,9254],[41.9,9346],[41.9,9421],[41.9,9502],[41.9,9585],[41.9,9672],[41.9,9752],[42,9844],[44.8,9923],[45.1,10009],[45.3,10093],[45.6,10171],[46.3,10257],[46.3,10336],[46.3,10423],[46.3,10502],[46.3,10585],[46.3,10669],[46.3,10755],[46.3,10838],[46.3,10919],[46.3,11002],[45,11088],[43.4,11172],[43.4,11253],[42.8,11336],[37.5,11425],[35.9,11504],[31.6,11586],[31.5,11680],[31.5,11753],[31.5,11838],[31.5,11922],[31.5,12005],[31.5,12095],[31.5,12174],[31.5,12257],[31.5,12336],[31.5,12423],[31.5,12504],[31.5,12586],[31.5,12670],[31.5,12753],[31.5,12836],[31.5,12923],[31.5,13003],[31.5,13086],[31.5,13171],[31.5,13252],[31.5,13335],[31.5,13422],[31.5,13506],[31.5,13585],[31.5,13670],[31.5,13753],[31.5,13836],[31.5,13924],[31.5,14003],[31.5,14086],[31.5,14168],[31.5,14255],[31.5,14336],[31.5,14428],[31.5,14501],[31.5,14588],[31.5,14679],[31.5,14751],[31.5,14835],[31.5,14920],[31.5,15001],[31.5,15086],[31.5,15170],[31.5,15253],[31.5,15336],[31.5,15418],[31.5,15503],[31.5,15585],[29.3,15692],[21.3,15774],[20.4,15855],[20.1,15946],[20.1,16028],[20.1,16113],[20.1,16195],[20.1,16278],[20.1,16365],[20.1,16446],[20.1,16528],[20.1,16615],[20.1,16694],[20.1,16782],[20.1,16867],[20.1,16945],[20.1,17033],[20.1,17111],[20.1,17194],[20.1,17281],[20.1,17362],[20.1,17448],[20.1,17527],[20.1,17615],[20.1,17699],[20.1,17784],[20.1,17861],[20.1,17945],[20.1,18031],[20.1,18115],[20.1,18199],[20.1,18282],[20.1,18365],[20.1,18444],[20.1,18527],[20.1,18615],[20.1,18699],[20.1,18782],[20.1,18865],[20.1,18945],[20.1,19019],[20.1,19114],[20.1,19197],[20.1,19282],[20.1,19353],[20.1,19432],[20.1,19519],[20.1,19608],[20.1,19686],[20.1,19767],[20.1,19852],[20.1,19934],[20.1,20019],[20.1,20104],[20.1,20185],[20.1,20272],[20.1,20350],[20.1,20432],[20.1,20520],[20.1,20600],[20.1,20685],[20.1,20769],[20.1,20851],[20.1,20935],[20.1,21017],[20.1,21102],[20.1,21186],[20.1,21270],[20.1,21352],[20.1,21435],[20.1,21518],[20.1,21599],[20.1,21682],[20.1,21766],[20.1,21853],[20.1,21935],[20.1,22016],[20.1,22103],[20.1,22186],[20.1,22267],[20.1,22354],[20.1,22436],[20.1,22519],[20.1,22600],[20.1,22696],[20.1,22782],[20.1,22882],[20.1,22961],[20.1,23034],[20.1,23127],[20.1,23210],[20.1,23295],[20.1,23377],[20.1,23464],[20.1,23547],[20.1,23627],[20.1,23711],[20.1,23796],[20.1,23879],[20.1,23963],[20.1,24044],[20.1,24129],[20.1,24209],[20.1,24294],[20.1,24378],[20.1,24461],[20.1,24546],[20.1,24630],[20.1,24710],[20.1,24794],[20.1,24877],[20.1,24961],[20.1,25046],[20.1,25127],[20.1,25211],[20.1,25297],[20.1,25379],[20.1,25461],[20.1,25547],[20.1,25629],[20.1,25709],[20.1,25793],[20.1,25877],[20.1,25960],[20.1,26046],[20.1,26127],[20.1,26206],[20.1,26293],[20.1,26376],[20.1,26461],[20.1,26542],[20.1,26629],[20.1,26711],[20.1,26793],[20.1,26879],[20.1,26960],[20.1,27042],[20.1,27127],[20.1,27211],[20.1,27293],[20.1,27377],[20.1,27459],[20.1,27544],[20.1,27630],[20.1,27711],[20.1,27793],[20.1,27879],[20.1,27960],[20.1,28034],[20.1,28128],[20.1,28201],[20.1,28283],[20.1,28365],[20.1,28449],[20.1,28540],[20.1,28618],[20.1,28706],[20.1,28790],[20.1,28868],[20.1,28949],[20.1,29035],[20.1,29115],[20.1,29201],[20.1,29284],[20.1,29365],[20.1,29454],[20.1,29534],[20.1,29615],[20.1,29706]]",1,0,1334.898,1334.932,,,[],,,,1334.932,All the time,100,1334.935,,,[],,0,0,0,0,1,audio/Narrative13Situation2.wav,audio/Narrative13Situation2.wav,audio/Narrative13Situation2.wav,audio/Narrative13Situation2.wav,2,2,2,2,,,,,1251.066,1302.51,space,50.911,,,,,,,,,,,,,,,,,,,,,,,,,,,,,,,
,,,,,,60079f45348bb62bdcd363ff,2024-02-08_16h02.45.945,group3.1-3.2-social-tom,2023.2.2,Win32,62.5,65c5074098b851296ff0b7ed,65c5413c767d4aba90b9ed7a,,,,,,,,,,,,,,,,,,,,,,,,,,,,,1334.935,2,audio/Narrative6Situation1.wav,1336.945,,1336.946,1363.553,"[[20.5,1917],[20.5,2000],[22.3,2081],[22.3,2162],[22.3,2247],[22.3,2329],[22.3,2412],[22.3,2497],[22.3,2583],[22.3,2661],[22.3,2743],[22.3,2830],[22.3,2916],[22.3,2994],[22.3,3077],[22.3,3163],[22.3,3249],[22.3,3326],[22.3,3415],[22.3,3497],[22.3,3579],[22.3,3661],[22.3,3746],[22.3,3827],[22.3,3913],[22.3,3994],[22.3,4076],[22.3,4161],[22.3,4248],[22.3,4328],[22.3,4413],[22.3,4496],[22.3,4583],[22.3,4660],[22.3,4743],[22.3,4827],[22.3,4911],[22.3,4993],[22.3,5077],[22.3,5163],[22.3,5246],[23.4,5334],[26,5413],[30.9,5496],[43.2,5579],[47,5664],[51.9,5743],[52.1,5831],[52.5,5913],[62.3,6000],[64.1,6083],[64.1,6161],[64.1,6246],[64.1,6329],[64.1,6412],[64.1,6496],[64.1,6576],[64.1,6661],[64.1,6750],[64.1,6826],[64.1,6910],[64.1,6996],[64.1,7078],[64.1,7163],[64.6,7249],[64.6,7329],[66.8,7411],[67.4,7493],[67.8,7586],[70,7662],[70,7743],[70.3,7831],[71.9,7912],[71.9,7997],[71.9,8078],[71.9,8160],[71.9,8243],[71.9,8326],[71.9,8412],[71.9,8493],[71.9,8578],[71.9,8661],[71.9,8743],[71.9,8828],[71.9,8912],[71.9,8996],[71.9,9076],[71.9,9160],[71.9,9246],[71.9,9326],[71.9,9414],[71.9,9492],[71.9,9578],[71.9,9662],[71.9,9743],[71.9,9826],[71.9,9912],[71.9,10001],[71.9,10076],[71.9,10163],[71.9,10242],[71.9,10328],[71.9,10410],[71.9,10494],[71.9,10576],[71.9,10662],[71.9,10743],[71.9,10828],[71.9,10910],[71.9,10996],[71.9,11076],[71.9,11163],[71.9,11243],[71.9,11326],[71.9,11408],[71.9,11493],[71.9,11576],[71.9,11660],[71.9,11741],[71.9,11826],[71.9,11911],[71.9,11992],[71.9,12077],[71.9,12158],[71.9,12243],[71.9,12325],[71.9,12415],[71.9,12492],[71.9,12577],[71.9,12662],[71.9,12743],[71.9,12826],[71.9,12910],[71.9,13001],[71.9,13076],[71.9,13160],[71.9,13241],[71.9,13326],[71.9,13411],[71.9,13492],[71.9,13579],[71.9,13662],[71.9,13741],[71.9,13828],[71.9,13908],[71.9,13991],[71.9,14075],[71.9,14160],[71.9,14243],[71.9,14326],[71.9,14408],[71.9,14496],[71.9,14577],[71.9,14658],[71.9,14743],[71.9,14826],[71.9,14916],[71.9,15000],[71.9,15078],[71.9,15158],[71.9,15241],[71.9,15325],[71.9,15412],[71.9,15497],[71.9,15576],[71.9,15665],[71.9,15744],[71.9,15826],[71.9,15911],[71.9,15992],[71.9,16078],[71.9,16158],[71.9,16241],[71.9,16326],[71.9,16407],[71.9,16491],[71.9,16576],[71.9,16660],[71.9,16741],[71.9,16827],[71.9,16910],[71.9,16993],[71.9,17077],[71.9,17157],[71.9,17243],[71.9,17334],[71.9,17410],[71.9,17491],[71.9,17575],[71.9,17657],[71.9,17741],[71.9,17824],[71.9,17911],[71.9,17997],[71.9,18075],[71.9,18162],[71.9,18240],[71.9,18326],[71.9,18417],[71.9,18491],[71.9,18583],[71.9,18663],[71.9,18741],[71.9,18827],[71.9,18907],[71.9,18992],[71.9,19077],[71.9,19160],[71.9,19240],[71.9,19325],[71.9,19414],[71.9,19492],[71.9,19576],[71.9,19658],[71.9,19742],[71.9,19826],[71.9,19907],[71.9,19993],[71.9,20077],[71.9,20157],[71.9,20241],[71.9,20327],[71.9,20410],[71.9,20490],[71.9,20577],[71.9,20658],[71.9,20743],[71.9,20826],[71.9,20910],[71.9,20990],[71.9,21074],[71.9,21156],[71.9,21244],[71.9,21326],[71.9,21411],[71.9,21492],[71.9,21575],[71.9,21662],[71.9,21741],[71.9,21825],[71.9,21908],[71.9,21991],[71.9,22077],[71.9,22157],[71.9,22244],[71.9,22324],[71.9,22406],[71.9,22490],[71.9,22574],[71.9,22656],[71.9,22740],[71.9,22824],[71.9,22905],[71.9,22999],[71.9,23074],[71.9,23162],[71.9,23240],[71.9,23324],[71.9,23410],[71.9,23490],[71.9,23576],[71.9,23663],[71.9,23742],[71.9,23824],[71.9,23908],[71.9,24000],[71.9,24076],[71.9,24161],[71.9,24241],[71.9,24325],[71.9,24412],[71.9,24492],[71.9,24573],[71.9,24658],[71.9,24741],[71.9,24823],[71.9,24910],[71.9,24994],[71.9,25075],[71.9,25161],[71.9,25241],[71.9,25326],[71.9,25410],[71.9,25494],[71.9,25576],[71.9,25660],[71.9,25741],[71.9,25824],[71.9,25910],[71.9,25990],[71.9,26074],[71.9,26161],[71.9,26241],[71.9,26325],[71.9,26405],[71.9,26491],[71.9,26575]]",1,0,1363.555,1369.068,71.875,3.53,"[{""rating"":71.875,""responseTime"":3.5299999999999727}]",space,4.971,,1369.068,Half the time,50,1369.082,,,[],,0,1,1,1,1,audio/Narrative7Situation1.wav,audio/Narrative8Situation1.wav,audio/Narrative5Situation1.wav,audio/Narrative6Situation1.wav,2,5,5,2,,,,,,,,,,,,,,,,,,,,,,,,,,,,,,,,,,,,,,,
,,,,,,60079f45348bb62bdcd363ff,2024-02-08_16h02.45.945,group3.1-3.2-social-tom,2023.2.2,Win32,62.5,65c5074098b851296ff0b7ed,65c5413c767d4aba90b9ed7a,,,,,,,,,,,,,,,,,,,,,,,,,,,,,1369.082,2,audio/Narrative6Situation2.wav,1372.084,,1372.084,1400.582,"[[72.1,14770],[72.1,14864],[72.1,14947],[72.1,15029],[71.5,15123],[71.3,15197],[70.5,15287],[69.1,15364],[69.1,15448],[69.1,15533],[69.1,15618],[69.1,15701],[69.1,15784],[69.1,15864],[69.1,15951],[69.1,16033],[68.8,16124]]",1,0,1400.583,1423.574,30.72916667,20.265,"[{""rating"":30.729166666666664,""responseTime"":20.264999999999873}]",space,22.454,,1423.574,Not at all,0,1423.582,,,[],,0,2,2,2,1,audio/Narrative7Situation2.wav,audio/Narrative8Situation2.wav,audio/Narrative5Situation2.wav,audio/Narrative6Situation2.wav,3,3,3,3,,,,,,,,,,,,,,,,,,,,,,,,,,,,,,,,,,,,,,,
,,,,,,60079f45348bb62bdcd363ff,2024-02-08_16h02.45.945,group3.1-3.2-social-tom,2023.2.2,Win32,62.5,65c5074098b851296ff0b7ed,65c5413c767d4aba90b9ed7a,,,,,,,,,,,,,,,,,,,,,,,,,,,,,1423.582,2,audio/Narrative6Situation3.wav,1428.59,,1428.59,1441.222,"[[999,29],[999,119],[999,200],[999,288],[999,365],[999,449],[999,533],[999,616],[999,703],[999,782],[999,866],[999,951],[999,1076],[999,1162],[999,1245],[999,1317],[999,1411],[999,1490],[999,1578],[999,1662],[999,1742],[999,1827],[999,1902],[999,1993],[999,2076],[999,2160],[999,2244],[999,2326],[999,2410],[999,2494],[999,2576],[999,2662],[999,2741],[999,2830],[999,2908],[999,2992],[999,3076],[999,3163],[999,3244],[999,3326],[999,3413],[999,3492],[999,3577],[999,3651],[999,3745],[999,3826],[999,3912],[999,3997],[999,4067],[999,4162],[999,4242],[999,4326],[999,4408],[999,4487],[999,4576],[999,4660],[999,4732],[999,4820],[999,4912],[999,4993],[999,5081],[999,5152],[999,5231],[999,5317],[999,5403],[999,5483],[999,5567],[999,5651],[999,5732],[999,5817],[999,5900],[999,5985],[999,6065],[999,6148],[999,6235],[999,6316],[999,6400],[999,6484],[999,6567],[999,6650],[999,6731],[999,6816],[999,6898],[999,6982],[999,7065],[999,7147],[999,7232],[999,7315],[999,7398],[999,7482],[999,7567],[999,7648],[999,7735],[999,7814],[999,7901],[999,7984],[999,8067],[999,8150],[999,8231],[999,8325],[999,8398],[999,8480],[999,8566],[999,8652],[999,8730],[999,8816],[999,8896],[999,8982],[999,9069],[999,9148],[999,9230],[999,9315],[999,9401],[999,9480],[999,9565],[999,9647],[999,9731],[999,9815],[999,9900],[999,9981],[999,10073],[999,10147],[999,10231],[49.6,10334],[58.3,10421],[69.9,10502],[70.1,10581],[70.1,10666],[70.4,10752],[70.6,10831],[70.7,10913],[70.7,11000],[70.7,11080],[70.7,11170],[70.7,11251],[70.7,11330],[70.7,11418],[70.7,11501],[70.6,11586],[70.4,11668]]",1,0,1441.222,1445.835,71.25000159,2.638,"[{""rating"":71.25000158945718,""responseTime"":2.63799999999992}]",space,4.079,,1445.838,Half the time,50,1445.855,,,[],,0,3,3,3,1,audio/Narrative7Situation3.wav,audio/Narrative8Situation3.wav,audio/Narrative5Situation3.wav,audio/Narrative6Situation3.wav,8,4,3,5,,,,,,,,,,,,,,,,,,,,,,,,,,,,,,,,,,,,,,,
,,,,,,60079f45348bb62bdcd363ff,2024-02-08_16h02.45.945,group3.1-3.2-social-tom,2023.2.2,Win32,62.5,65c5074098b851296ff0b7ed,65c5413c767d4aba90b9ed7a,,,,,,,,,,,,,,,,,,,,,,,,,,,,,1445.855,2,audio/Narrative6Situation4.wav,1447.855,,1447.855,1460.478,"[[68.9,1432],[47,1682],[42.5,1765],[33.4,1849],[33.4,1932],[33.2,2014],[33.2,2104],[33.2,2181],[33.2,2270],[33.2,2348],[33.5,2432],[33.5,2514],[33.5,2597],[33.5,2684],[33.5,2764],[33.5,2853],[33.5,2931],[33.5,3013],[33.5,3099],[33.5,3181],[33.5,3264],[33.5,3346],[33.5,3430],[33.5,3515],[33.5,3600],[33.5,3680],[33.5,3765],[33.5,3847],[33.5,3932],[33.5,4057],[33.5,4140],[33.5,4216],[33.5,4308],[33.5,4390],[33.5,4466],[33.5,4558],[33.5,4643],[33.5,4724],[33.5,4807],[33.5,4890],[33.5,4975],[33.5,5060],[33.5,5142],[33.5,5225],[33.5,5308],[33.5,5383],[33.5,5477],[33.5,5562],[33.5,5640],[33.5,5725],[33.5,5809],[33.5,5890],[33.5,5974],[33.5,6059],[33.5,6139],[33.5,6224],[33.5,6299],[33.5,6395],[33.5,6474],[33.5,6558],[33.5,6640],[33.5,6724],[33.5,6807],[33.5,6893],[33.5,6976],[33.5,7057],[33.5,7140],[33.5,7224],[33.5,7300],[33.5,7390],[33.5,7477],[33.5,7553],[33.5,7641],[33.5,7724],[33.5,7811],[33.5,7882],[33.5,7973],[33.5,8059],[33.5,8142],[33.5,8221],[33.5,8306],[33.5,8392],[33.5,8478],[33.5,8561],[33.5,8639],[33.5,8723],[33.5,8809],[33.5,8894],[33.5,8973],[33.5,9057],[33.5,9132],[33.5,9223],[33.5,9311],[33.5,9389],[33.5,9473],[33.5,9560],[33.5,9640],[33.5,9728],[33.5,9806],[33.5,9892],[33.5,9973],[33.5,10056],[33.5,10142],[33.5,10226],[33.5,10306],[33.5,10392],[33.5,10475],[33.5,10556],[33.5,10639],[33.5,10714],[33.5,10808],[33.5,10890],[33.5,10976],[33.5,11056],[33.5,11140],[33.5,11223],[33.5,11305],[33.5,11381],[33.5,11474],[33.5,11558],[33.5,11641],[33.5,11724],[33.5,11806],[33.5,11890],[33.5,11973],[33.5,12059],[33.5,12131],[33.5,12223],[33.5,12301],[33.5,12393],[33.5,12472],[33.5,12557]]",1,0,1460.478,1464.939,70.00000477,2.539,"[{""rating"":70.00000476837158,""responseTime"":2.5389999999999873}]",space,3.93,,1464.939,All the time,100,1464.961,,,[],,0,4,4,4,1,audio/Narrative7Situation4.wav,audio/Narrative8Situation4.wav,audio/Narrative5Situation4.wav,audio/Narrative6Situation4.wav,3,3,1,2,,,,,,,,,,,,,,,,,,,,,,,,,,,,,,,,,,,,,,,
,,,,,,60079f45348bb62bdcd363ff,2024-02-08_16h02.45.945,group3.1-3.2-social-tom,2023.2.2,Win32,62.5,65c5074098b851296ff0b7ed,65c5413c767d4aba90b9ed7a,,,,,,,,,,,,,,,,,,,,,,,,,,,,,1464.962,2,audio/Narrative6Situation5.wav,1466.966,,1466.966,1474.946,"[[68.8,1932],[68.8,2016],[68.2,2104],[68.2,2184],[68.2,2276],[68.2,2353],[68.2,2435],[68.2,2517],[68.2,2601],[68.2,2693],[68.2,2770],[68.2,2856],[68.2,2935],[68.2,3019],[68.2,3104],[68.2,3182],[68.2,3265],[68.2,3351],[68.2,3436],[68.2,3519],[68.2,3599],[68.2,3686],[68.2,3766],[68.2,3855],[68.2,3936],[68.2,4060],[68.2,4144],[68.2,4226],[68.2,4308],[68.2,4394],[68.2,4477],[68.2,4559],[68.2,4645],[68.2,4726],[68.2,4809],[68.2,4892],[68.2,4974],[68.2,5059],[68.2,5142],[68.2,5228],[68.2,5310],[68.2,5393],[68.2,5468],[68.2,5558],[68.2,5642],[68.2,5726],[68.2,5808],[68.2,5894],[68.2,5978],[68.2,6060],[68.2,6143],[68.2,6226],[68.2,6311],[68.2,6393],[68.2,6474],[68.2,6561],[68.2,6643],[68.2,6726],[68.2,6808],[68.2,6894],[68.2,6976],[68.2,7061],[68.2,7145],[68.2,7224],[68.2,7300],[68.2,7392],[68.2,7480],[68.2,7558],[68.2,7647],[68.2,7729],[68.2,7808],[68.2,7895],[68.2,7979]]",1,0,1474.946,1483.94,36.77083651,7.103,"[{""rating"":36.77083651224772,""responseTime"":7.102999999999838}]",space,8.468,,1483.94,Not at all,0,1483.951,,,[],,0,5,5,5,1,audio/Narrative7Situation5.wav,audio/Narrative8Situation5.wav,audio/Narrative5Situation5.wav,audio/Narrative6Situation5.wav,5,2,5,2,,,,,,,,,,,,,,,,,,,,,,,,,,,,,,,,,,,,,,,
,,,,,,60079f45348bb62bdcd363ff,2024-02-08_16h02.45.945,group3.1-3.2-social-tom,2023.2.2,Win32,62.5,65c5074098b851296ff0b7ed,65c5413c767d4aba90b9ed7a,,,,,,,,,,,,,,,,,,,,,,,,,,,,,1483.953,2,audio/Narrative6Situation6.wav,1485.964,,1485.964,1497.061,[],1,0,1497.061,1502.773,74.89583492,2.364,"[{""rating"":74.89583492279053,""responseTime"":2.3640000000000327}]",space,5.182,,1502.773,Half the time,50,1502.787,,,[],,0,6,6,6,1,audio/Narrative7Situation6.wav,audio/Narrative8Situation6.wav,audio/Narrative5Situation6.wav,audio/Narrative6Situation6.wav,3,2,3,2,,,,,,,,,,,,,,,,,,,,,,,,,,,,,,,,,,,,,,,
,,,,,,60079f45348bb62bdcd363ff,2024-02-08_16h02.45.945,group3.1-3.2-social-tom,2023.2.2,Win32,62.5,65c5074098b851296ff0b7ed,65c5413c767d4aba90b9ed7a,,,,,,,,,,,,,,,,,,,,,,,,,,,,,1502.788,2,audio/Narrative6Situation7.wav,1507.795,,1507.796,1532.637,"[[59.9,4306],[59.6,4388],[28,5639],[28,5712],[28,5805],[28,5888],[28,5971],[28,6055],[28,6138],[28,6221],[28,6308],[28,6388],[28,6471],[28,6555],[28,6642],[28,6725],[28,6808],[28,6879],[28,6971],[28,7057],[28,7138],[28,7224],[28,7308],[28,7391],[28,7461],[28,7554],[28,7638],[28,7721],[28,7805],[28,7889],[28,7971],[28,8054],[28,8132],[28,8224],[28,8305],[28,8388],[28,8466],[28,8556],[28,8631],[28,8721],[28,8804],[28,8879],[28,8970],[28,9054],[28,9137],[28,9223],[28,9304],[28,9379],[28,9473],[28,9556],[28,9637],[28,9711],[28,9802],[28,9888],[28,9961],[28,10045],[28,10131],[28,10212],[28,10293],[28,10378],[28,10461],[28,10543],[28,10627],[28,10711],[28,10794],[28,10880],[28,10959],[28,11043],[28,11125],[28,11219],[28,11293],[28,11375],[28,11461],[28,11544],[28,11633],[28,11710],[28,11795],[28,11881],[28,11961],[28,12043],[28,12128],[28,12210],[28,12292],[28,12375],[28,12461],[28,12543],[28,12625],[28,12711],[28,12802],[28,12878],[28,12961],[28,13042],[28,13125],[28,13211],[28,13303],[28,13375],[28,13459],[28,13546],[28,13625],[27.8,13727],[26.9,13808],[25.3,13892],[9.5,14647],[9.9,14726],[10.4,14808],[10.4,14897],[10.4,14976],[10.4,15058],[10.4,15144],[10.4,15230],[10.4,15308],[10.4,15394],[10.4,15475],[10.4,15557],[10.4,15644],[10.4,15728],[10.4,15807],[10.4,15891],[10.4,15975],[10.4,16057],[10.4,16141],[10.4,16225],[10.4,16308],[10.4,16392],[10.4,16475],[10.4,16557],[10.4,16641],[10.4,16724],[10.4,16808],[10.4,16894],[10.4,16980],[10.4,17058],[10.4,17156],[10.4,17240],[10.4,17322],[10.4,17402],[10.7,17486],[10.7,17569],[10.7,17656],[10.7,17727],[10.7,17820],[10.7,17902],[10.7,17988],[10.7,18072],[10.7,18153],[10.7,18237],[10.7,18320],[10.7,18406],[10.7,18489],[10.7,18571],[10.7,18657],[10.7,18735],[10.7,18819],[10.7,18903],[10.7,18987],[10.7,19069],[10.7,19153],[10.7,19239],[10.7,19320],[10.7,19402],[10.7,19485],[10.7,19569],[10.7,19651],[10.7,19735],[10.7,19820],[10.7,19902],[10.7,19984],[10.7,20067],[10.7,20152],[10.7,20235],[10.7,20311],[10.7,20401],[10.7,20484],[10.7,20569],[10.7,20656],[10.7,20734],[10.7,20816],[10.7,20903],[10.7,20988],[10.7,21071],[10.7,21151],[10.7,21233],[10.7,21320],[10.7,21403],[10.7,21485],[10.7,21567],[10.7,21653],[10.7,21739],[10.7,21817],[10.7,21901],[10.7,21984],[10.7,22067],[10.7,22154],[10.7,22235],[10.7,22317],[10.7,22406],[10.7,22485],[10.7,22567],[10.7,22654],[10.7,22736],[10.7,22819],[10.7,22898],[10.7,22984],[10.7,23070],[10.7,23162],[10.7,23227],[10.7,23311],[10.7,23399],[10.7,23480],[10.7,23562],[10.7,23644],[10.7,23730],[10.7,23815],[10.7,23899],[10.7,23977],[10.7,24064],[10.7,24143],[10.7,24228],[10.7,24310],[10.7,24391],[10.7,24475],[10.7,24565],[10.7,24641],[10.7,24727],[10.7,24808]]",1,0,1532.639,1536.732,14.89583254,2.637,"[{""rating"":14.895832538604736,""responseTime"":2.6369999999999436}]",space,3.55,,1536.733,All the time,100,1536.748,,,[],,0,7,7,7,1,audio/Narrative7Situation7.wav,audio/Narrative8Situation7.wav,audio/Narrative5Situation7.wav,audio/Narrative6Situation7.wav,5,3,4,5,,,,,,,,,,,,,,,,,,,,,,,,,,,,,,,,,,,,,,,
,,,,,,60079f45348bb62bdcd363ff,2024-02-08_16h02.45.945,group3.1-3.2-social-tom,2023.2.2,Win32,62.5,65c5074098b851296ff0b7ed,65c5413c767d4aba90b9ed7a,,,,,,,,,,,,,,,,,,,,,,,,,,,,,1536.749,2,audio/Narrative6Situation8.wav,1541.751,,1541.751,1548.614,"[[11.5,4881],[11.5,4965],[11.5,5048],[11.5,5131],[11.5,5214],[11.5,5298],[11.5,5393],[11.5,5475],[11.5,5559],[11.5,5641],[11.5,5726],[11.5,5812],[11.5,5894],[11.5,5974],[11.5,6058],[11.5,6144],[11.5,6225],[11.5,6309],[11.5,6396],[11.5,6478],[11.5,6560],[11.5,6643],[11.5,6727],[11.5,6813]]",1,0,1548.615,1554.305,18.54166985,2.81,"[{""rating"":18.541669845581055,""responseTime"":2.8099999999999454}]",space,5.157,,1554.306,Half the time,50,1569.646,50.10416508,9.301,"[{""rating"":50.10416507720947,""responseTime"":9.30099999999993}]",space,0,8,8,8,1,audio/Narrative7Situation8.wav,audio/Narrative8Situation8.wav,audio/Narrative5Situation8.wav,audio/Narrative6Situation8.wav,2,3,3,5,,,14.795,,,,,,,,,,,,,,,,,,,,,,,,,,,,,,,,,,,,
,,,,,,60079f45348bb62bdcd363ff,2024-02-08_16h02.45.945,group3.1-3.2-social-tom,2023.2.2,Win32,62.5,65c5074098b851296ff0b7ed,65c5413c767d4aba90b9ed7a,,,,,,,,,,,,,,,,,,,,,,,,,,,,,1569.682,2,audio/Narrative6Situation9.wav,1573.694,,1573.694,1583.639,"[[999,30],[999,100],[999,183],[999,272],[999,351],[999,433],[999,519],[999,599],[999,683],[999,768],[999,851],[999,932],[999,1018],[999,1099],[999,1183],[999,1278],[999,1356],[999,1437],[999,1518],[999,1599],[999,1685],[999,1768],[999,1849],[999,1934],[999,2029],[999,2111],[999,2196],[999,2278],[999,2359],[999,2442],[999,2529],[999,2602],[999,2694],[999,2777],[999,2860],[999,2943],[999,3028],[999,3108],[999,3195],[999,3278],[999,3360],[18.6,3443],[18.2,3544],[18.1,3626],[18.1,3711],[18.1,3796],[18.1,3869],[18.5,3962],[18.5,4042],[18.5,4130],[18.5,4211]]",1,0,1583.639,1588.096,23.75000318,1.953,"[{""rating"":23.750003178914387,""responseTime"":1.9529999999999745}]",space,3.905,,1588.096,Not at all,0,1588.14,,,[],,0,9,9,9,1,audio/Narrative7Situation9.wav,audio/Narrative8Situation9.wav,audio/Narrative5Situation9.wav,audio/Narrative6Situation9.wav,2,3,3,4,,,,,,,,,,,,,,,,,,,,,,,,,,,,,,,,,,,,,,,
,,,,,,60079f45348bb62bdcd363ff,2024-02-08_16h02.45.945,group3.1-3.2-social-tom,2023.2.2,Win32,62.5,65c5074098b851296ff0b7ed,65c5413c767d4aba90b9ed7a,,,,,,,,,,,,,,,,,,,,,,,,,,,,,1588.14,2,audio/Narrative5Situation1.wav,1593.141,,1593.141,1606.44,"[[999,32],[999,99],[999,182],[999,269],[999,352],[999,436],[999,519],[999,599],[999,686],[999,768],[999,849],[999,933],[999,1029],[999,1110],[999,1192],[999,1267],[999,1362],[999,1443],[999,1518],[999,1611],[999,1693],[999,1777],[999,1860],[999,1944],[999,2028],[999,2110],[999,2193],[999,2276],[999,2357],[999,2444],[999,2518],[999,2610],[999,2696],[999,2778],[999,2860],[999,2946],[999,3028],[999,3111],[999,3192],[999,3276],[999,3361],[999,3442],[999,3528],[999,3610],[999,3694],[999,3777],[999,3860],[999,3937],[999,4028],[999,4102],[999,4192],[999,4267],[999,4360],[999,4442],[999,4527],[999,4615],[999,4696],[999,4779],[999,4859],[999,4942],[999,5028],[999,5111],[999,5193],[999,5276],[999,5359],[999,5443],[999,5528],[999,5610],[999,5683],[999,5778],[999,5863],[999,5947],[999,6019],[999,6110],[999,6192],[999,6276],[999,6361],[999,6434],[999,6529],[999,6601],[999,6694],[999,6776],[999,6859],[999,6942],[999,7018],[999,7110],[999,7198],[999,7268],[999,7347],[999,7432],[999,7517],[999,7599],[999,7684],[999,7770],[999,7850],[999,7936],[999,8017],[999,8101],[999,8183],[999,8266],[999,8350],[999,8432],[999,8517],[999,8600],[999,8684],[999,8765],[999,8856],[999,8936],[999,9017],[999,9100],[999,9182],[999,9267],[999,9350],[999,9438],[999,9514],[999,9602],[999,9681],[999,9767],[999,9849],[999,9932],[999,10016],[999,10099],[999,10182],[999,10264],[999,10352],[999,10437],[999,10516],[999,10597],[999,10682],[999,10767],[999,10847],[999,10934],[999,11019],[999,11100],[999,11184],[30.5,11289],[53.3,11365],[53.3,11449],[51.5,11542],[41.4,11615],[36.9,11700],[36.9,11784],[35.5,11864],[34.3,11950],[34,12033],[33.5,12115],[33.4,12198],[33.4,12285],[33.4,12364],[33.4,12447],[33.4,12530]]",1,0,1606.44,1617.506,28.02083492,8.575,"[{""rating"":28.020834922790527,""responseTime"":8.575000000000045}]",space,10.524,,1617.506,Not at all,0,1617.516,,,[],,0,10,10,10,1,audio/Narrative8Situation1.wav,audio/Narrative7Situation1.wav,audio/Narrative6Situation1.wav,audio/Narrative5Situation1.wav,5,2,2,5,,,,,,,,,,,,,,,,,,,,,,,,,,,,,,,,,,,,,,,
,,,,,,60079f45348bb62bdcd363ff,2024-02-08_16h02.45.945,group3.1-3.2-social-tom,2023.2.2,Win32,62.5,65c5074098b851296ff0b7ed,65c5413c767d4aba90b9ed7a,,,,,,,,,,,,,,,,,,,,,,,,,,,,,1617.516,2,audio/Narrative5Situation2.wav,1620.524,,1620.524,1650.011,"[[29.5,4968],[31.6,5391],[30.9,5471],[30.9,5555],[30.9,5637],[30.7,5721],[30.7,5807],[30.7,5889],[30.9,5974],[30.9,6055],[30.9,6136],[30.9,6221],[30.9,6304],[30.9,6386],[30.9,6474],[30.4,6556],[15.5,25751],[15.2,25855],[15.2,25939],[15.2,26022],[14.7,26105],[14.7,26192],[14.7,26277]]",1,0,1650.012,1689.56,34.68750318,16.219,"[{""rating"":34.68750317891439,""responseTime"":16.21900000000005}]",space,39.011,,1689.56,Half the time,50,1689.602,,,[],,0,11,11,11,1,audio/Narrative8Situation2.wav,audio/Narrative7Situation2.wav,audio/Narrative6Situation2.wav,audio/Narrative5Situation2.wav,3,3,3,3,,,,,,,,,,,,,,,,,,,,,,,,,,,,,,,,,,,,,,,
,,,,,,60079f45348bb62bdcd363ff,2024-02-08_16h02.45.945,group3.1-3.2-social-tom,2023.2.2,Win32,62.5,65c5074098b851296ff0b7ed,65c5413c767d4aba90b9ed7a,,,,,,,,,,,,,,,,,,,,,,,,,,,,,1689.602,2,audio/Narrative5Situation3.wav,1692.609,,1692.609,1706.546,"[[999,3],[999,96],[999,182],[999,261],[999,383],[999,462],[999,546],[999,628],[999,713],[999,796],[999,878],[999,962],[999,1046],[999,1131],[999,1211],[999,1296],[999,1379],[999,1469],[999,1545],[999,1631],[999,1711],[999,1795],[999,1878],[999,1961],[999,2046],[999,2129],[999,2211],[999,2295],[999,2383],[999,2463],[999,2546],[999,2631],[999,2711],[999,2795],[999,2878],[999,2971],[999,3055],[999,3138],[999,3219],[999,3298],[999,3387],[999,3475],[999,3556],[999,3629],[999,3711],[999,3795],[999,3891],[999,3973],[999,4056],[999,4138],[999,4250],[999,4311],[999,4394],[999,4478],[999,4567],[999,4644],[999,4728],[999,4814],[999,4894],[999,4979],[999,5060],[999,5144],[999,5228],[999,5310],[999,5394],[999,5478],[999,5561],[999,5644],[999,5726],[999,5810],[999,5894],[999,5978],[999,6060],[999,6144],[999,6226],[999,6310],[999,6394],[999,6476],[999,6560],[999,6644],[999,6728],[999,6810],[999,6894],[999,6978],[999,7060],[999,7144],[999,7231],[999,7311],[999,7394],[999,7478],[999,7561],[999,7644],[999,7726],[999,7810],[999,7897],[999,7978],[999,8066],[999,8144],[999,8226],[999,8310],[999,8394],[999,8488],[999,8560],[28.7,8668],[28.5,8743],[28.5,8826],[28.5,8912],[23.8,9000],[23.8,9077],[23.4,9164],[21,9243],[21,9329],[21,9414],[21,9493],[19.4,9586],[19.4,9660],[19.4,9742],[19.4,9828],[18.5,9911],[17.9,9993],[16.8,10080],[16.5,10161],[15.9,10249],[15,10329],[15,10410],[14.5,10497],[14.5,10586],[14.5,10671],[14.5,10754],[14.5,10837],[14.5,10913],[14.5,11006],[14.5,11086],[14,11171],[12.1,11256],[11.5,11336],[11.5,11422],[11.5,11503],[11.5,11587],[11.5,11673],[11.5,11753],[29.4,11836],[30,11921],[30,12004],[30,12081],[30,12171],[30,12254],[30,12328],[30,12411],[30,12503],[30,12587],[30,12673],[30,12754],[30,12828],[30,12921],[29.8,13004],[28.7,13087],[28.7,13171],[24.2,13254],[24.2,13329],[22.2,13421],[22.2,13502],[20.1,13586],[19.9,13672],[19.7,13757],[19.7,13837],[19.5,13922]]",1,0,1706.546,1711.772,15.10416667,2.999,"[{""rating"":16.979169845581055,""responseTime"":0.6030000000000655},{""rating"":15.104166666666668,""responseTime"":2.9990000000000236}]",space,4.693,,1711.772,Half the time,50,1711.813,,,[],,0,12,12,12,1,audio/Narrative8Situation3.wav,audio/Narrative7Situation3.wav,audio/Narrative6Situation3.wav,audio/Narrative5Situation3.wav,4,8,5,3,,,,,,,,,,,,,,,,,,,,,,,,,,,,,,,,,,,,,,,
,,,,,,60079f45348bb62bdcd363ff,2024-02-08_16h02.45.945,group3.1-3.2-social-tom,2023.2.2,Win32,62.5,65c5074098b851296ff0b7ed,65c5413c767d4aba90b9ed7a,,,,,,,,,,,,,,,,,,,,,,,,,,,,,1711.813,2,audio/Narrative5Situation4.wav,1712.82,,1712.821,1733.221,"[[18,17618],[65,18204],[66,18285],[66,18369],[66,18453],[66.1,18537],[66.2,18623],[66.2,18704],[66.2,18788],[66.2,18874],[66.2,18961],[66.2,19039],[66.2,19125],[66.2,19202],[66.2,19289],[66.2,19362],[66.2,19455],[66.2,19537],[66.2,19621],[66.2,19704],[66.2,19786],[66.2,19872],[66.2,19954],[66.2,20038],[66.2,20124],[66.2,20202],[66.2,20289],[66.2,20369]]",1,0,1733.221,1742.294,77.18749841,9.072,"[{""rating"":77.1874984105428,""responseTime"":9.071999999999889}]",space,2.383,,1742.294,All the time,100,1742.301,,,[],,0,13,13,13,1,audio/Narrative8Situation4.wav,audio/Narrative7Situation4.wav,audio/Narrative6Situation4.wav,audio/Narrative5Situation4.wav,3,3,2,1,,,,,,,,,,,,,,,,,,,,,,,,,,,,,,,,,,,,,,,
,,,,,,60079f45348bb62bdcd363ff,2024-02-08_16h02.45.945,group3.1-3.2-social-tom,2023.2.2,Win32,62.5,65c5074098b851296ff0b7ed,65c5413c767d4aba90b9ed7a,,,,,,,,,,,,,,,,,,,,,,,,,,,,,1742.301,2,audio/Narrative5Situation5.wav,1747.305,,1747.305,1762.727,"[[74.6,2615],[74.1,2701],[71.4,2786],[68.3,2868],[66.9,2951],[66,3035],[64.5,3116],[64.5,3199],[64.5,3285],[64.5,3365],[63.5,3451],[61.8,3535],[61.8,3615],[44,3700],[36.6,3784],[36.6,3858],[36.6,3949],[33,4033],[29.2,4115],[29.2,4199],[29.2,4282],[29.7,4369],[31.4,4450],[38.8,4533],[48.9,4615],[55,4700],[59.8,4784],[59.8,4865],[59.8,4949],[59.8,5033],[60.5,5115],[61.8,5191],[67,5282],[67.5,5366],[68,5450],[68,5526],[68,5612],[68.1,5699],[68.1,5782],[68.1,5863],[68.1,5948],[68.1,6034],[68.1,6116],[68.1,6199],[68.1,6274],[68.1,6358],[68.1,6449],[68.1,6532],[69.8,6615],[72.6,6698],[73.6,6785],[74.2,6862],[74.2,6948],[74.4,7034],[74.8,7115],[74.8,7201],[74.8,7275],[74.8,7365],[74.8,7450],[74.8,7527],[74.8,7616],[74.8,7698],[74.8,7784],[74.8,7866],[74.8,7948],[74.8,8032],[74.8,8116],[74.8,8198],[74.8,8283],[74.8,8365],[74.8,8450],[74.8,8530],[74.8,8614],[75.9,8698],[76,8780],[76,8859],[76,8950],[76,9030],[76,9114],[76.6,9200],[76.7,9283],[76.9,9365],[77.4,9448],[77.4,9533],[77.4,9614],[77.4,9698],[77.4,9778],[77.4,9855],[77.4,9951],[77.4,10024],[77.5,10110],[77.5,10196],[77.5,10284],[77.5,10365],[77.5,10449],[77.5,10530],[77.5,10615],[77.5,10700],[77.5,10778],[77.5,10856],[77.5,10948],[77.5,11032],[77.5,11114],[77.5,11200],[77.5,11280],[77.5,11366],[77.5,11449],[77.5,11525],[77.5,11616],[77.5,11697],[77.5,11780],[77.5,11865],[77.5,11947],[77.5,12029],[77.5,12115],[77.5,12198],[77.5,12278],[77.5,12364],[77.5,12441],[77.5,12533],[77.5,12614],[77.5,12698],[77.5,12778],[77.5,12859],[77.5,12950],[77.5,13032],[77.5,13115],[77.5,13199],[77.5,13280],[77.5,13365],[77.5,13447],[77.5,13533],[77.5,13615],[77.5,13699],[77.5,13779],[77.5,13855],[77.5,13949],[77.5,14029],[77.5,14115],[77.5,14200],[77.5,14283],[77.5,14364],[77.5,14450],[77.5,14533],[77.5,14614],[77.5,14697],[77.5,14784],[77.5,14864],[77.5,14936],[77.5,15019],[77.5,15103],[77.5,15186],[77.5,15270],[77.5,15354]]",1,0,1762.728,1786.445,77.08333333,21.865,"[{""rating"":77.08333333333333,""responseTime"":21.86500000000001}]",space,23.176,,1786.446,Not at all,0,1786.464,,,[],,0,14,14,14,1,audio/Narrative8Situation5.wav,audio/Narrative7Situation5.wav,audio/Narrative6Situation5.wav,audio/Narrative5Situation5.wav,2,5,2,5,,,,,,,,,,,,,,,,,,,,,,,,,,,,,,,,,,,,,,,
,,,,,,60079f45348bb62bdcd363ff,2024-02-08_16h02.45.945,group3.1-3.2-social-tom,2023.2.2,Win32,62.5,65c5074098b851296ff0b7ed,65c5413c767d4aba90b9ed7a,,,,,,,,,,,,,,,,,,,,,,,,,,,,,1786.466,2,audio/Narrative5Situation6.wav,1789.469,,1789.469,1795.164,"[[77.2,4983],[77.2,5060],[73.6,5144],[73.6,5229],[72.3,5314],[71.5,5393],[71.5,5477],[71.5,5560],[71.4,5643]]",1,0,1795.164,1800.49,56.14583492,3.331,"[{""rating"":56.14583492279053,""responseTime"":3.3309999999999036}]",space,4.795,,1800.491,All the time,100,1800.513,,,[],,0,15,15,15,1,audio/Narrative8Situation6.wav,audio/Narrative7Situation6.wav,audio/Narrative6Situation6.wav,audio/Narrative5Situation6.wav,2,3,2,3,,,,,,,,,,,,,,,,,,,,,,,,,,,,,,,,,,,,,,,
,,,,,,60079f45348bb62bdcd363ff,2024-02-08_16h02.45.945,group3.1-3.2-social-tom,2023.2.2,Win32,62.5,65c5074098b851296ff0b7ed,65c5413c767d4aba90b9ed7a,,,,,,,,,,,,,,,,,,,,,,,,,,,,,1800.513,2,audio/Narrative5Situation7.wav,1804.516,,1804.516,1825.571,"[[36.6,9632],[35,9715],[35,9801],[33,9882],[25,9965],[25,10049],[24.7,10134],[24.7,10216],[24.7,10302],[24.7,10383],[24.7,10463],[24.7,10548],[24.7,10631],[24.7,10715],[24.7,10804],[24.7,10881],[24.7,10965],[24.7,11048],[24.7,11132],[24.7,11216],[24.7,11301],[24.7,11384],[23.9,11463],[23.9,11548],[23.6,11631],[23,11713],[23,11798],[21,11883],[21,11963],[21,12057],[21,12133],[20.7,12215],[20.7,12298],[20.4,12381],[19.9,12465],[19.9,12549],[19.9,12631],[19.9,12717],[19.6,12801],[19.6,12884],[19.6,12965],[19.6,13048],[19.6,13134],[19.6,13213],[19.6,13298],[19.6,13381],[19.6,13463],[19.6,13548],[19.6,13630],[19.6,13715],[19.6,13798],[19.6,13881],[19.6,13963],[19.6,14047],[19.6,14130],[19.6,14213],[19.6,14298],[19.6,14381],[19.6,14466],[19.6,14547],[19.6,14632],[19.6,14712],[19.6,14797],[19.6,14881],[19.6,14968],[19.6,15058],[19.6,15141],[19.6,15225],[19.6,15307],[19.6,15384],[19.6,15477],[19.6,15558],[19.6,15645],[19.6,15726],[19.6,15807],[19.6,15893],[19.6,15976],[19.6,16059],[19.6,16141],[19.6,16225],[19.6,16309],[19.6,16386],[19.6,16463],[19.6,16548],[19.6,16658],[19.6,16734],[19.6,16817],[19.6,16897],[13.3,16984],[13.1,17063],[13.1,17147],[13.1,17230],[13.1,17314],[13.1,17398],[13.1,17480],[13.1,17564],[13.1,17645],[13.1,17730],[13.1,17813],[13.1,17907],[13.1,17990],[13.1,18075],[13.1,18157],[13.1,18240],[13.1,18324],[13.1,18408],[13.1,18494],[13.1,18577],[13.1,18662],[13.1,18740],[13.1,18826],[13.1,18908],[13.1,18992],[13.1,19066],[13.1,19157],[13.1,19240],[13.1,19324],[13.1,19409],[13.1,19482],[13.1,19576],[13.1,19659],[13.1,19740],[13.1,19825],[13.1,19910],[13.1,19991],[13.1,20074],[13.1,20155],[13.1,20240],[13.1,20325],[13.1,20412],[13.1,20490],[13.1,20576],[13.1,20653],[13.1,20740],[13.1,20823],[13.1,20909],[13.1,20995]]",1,0,1825.571,1832.545,32.91666508,5.314,"[{""rating"":32.91666507720947,""responseTime"":5.314000000000078}]",space,6.436,,1832.546,Not at all,0,1832.559,,,[],,0,16,16,16,1,audio/Narrative8Situation7.wav,audio/Narrative7Situation7.wav,audio/Narrative6Situation7.wav,audio/Narrative5Situation7.wav,3,5,5,4,,,,,,,,,,,,,,,,,,,,,,,,,,,,,,,,,,,,,,,
,,,,,,60079f45348bb62bdcd363ff,2024-02-08_16h02.45.945,group3.1-3.2-social-tom,2023.2.2,Win32,62.5,65c5074098b851296ff0b7ed,65c5413c767d4aba90b9ed7a,,,,,,,,,,,,,,,,,,,,,,,,,,,,,1832.559,2,audio/Narrative5Situation8.wav,1835.563,,1835.563,1844.386,"[[35.1,7074],[52.5,7161],[53.7,7240],[55.5,7325],[69.9,7406],[76,7823],[76,7911],[76,7990],[76,8074],[76,8155],[76,8240],[76,8322],[76,8405],[76,8489],[76,8573],[76,8658],[76,8740],[76,8823]]",1,0,1844.386,1874.979,70.62500318,21.478,"[{""rating"":70.6250031789144,""responseTime"":21.478000000000065}]",space,30.061,,1874.98,Not at all,0,1875.007,,,[],,0,17,17,17,1,audio/Narrative8Situation8.wav,audio/Narrative7Situation8.wav,audio/Narrative6Situation8.wav,audio/Narrative5Situation8.wav,3,2,5,3,,,,,,,,,,,,,,,,,,,,,,,,,,,,,,,,,,,,,,,
,,,,,,60079f45348bb62bdcd363ff,2024-02-08_16h02.45.945,group3.1-3.2-social-tom,2023.2.2,Win32,62.5,65c5074098b851296ff0b7ed,65c5413c767d4aba90b9ed7a,,,,,,,,,,,,,,,,,,,,,,,,,,,,,1875.008,2,audio/Narrative5Situation9.wav,1878.022,,1878.022,1917.572,"[[73.1,2529],[73.1,2614],[74.1,2696],[74.1,2779],[74.1,2863],[59.2,3456],[58,3537],[57.2,3624],[55.3,3705],[42.2,3788],[40.5,3877],[40.5,3963],[40.5,4043],[40.5,4126],[40.5,4205],[40.5,4293],[40.5,4373],[40.5,4456],[40.5,4540],[40.5,4624],[40.5,4707],[40.5,4793],[40.5,4876],[40.5,4960],[40.5,5040],[40.5,5124],[40.5,5203],[40.5,5289],[40.5,5375],[40.5,5455],[40.5,5540],[40.5,5625],[40.5,5710],[40.5,5789],[40.5,5873],[40.5,5956],[40.5,6040],[40.5,6123],[40.5,6209],[40.5,6290],[40.5,6372],[40.5,6446],[40.5,6541],[40.5,6626],[40.5,6707],[40.5,6788],[40.5,6875],[40.5,6949],[40.5,7042],[40.5,7122],[40.5,7206],[40.5,7280],[40.5,7375],[40.5,7460],[40.5,7538],[40.5,7620],[40.5,7705],[40.5,7788],[40.5,7873],[40.5,7956],[40.5,8038],[40.5,8125],[40.5,8207],[40.5,8288],[40.5,8374],[40.5,8460],[40.5,8538],[40.5,8625],[40.5,8705],[40.5,8789],[40.5,8872],[40.5,8957],[40.5,9038],[40.5,9123],[40.5,9204],[40.5,9288],[40.5,9372],[40.5,9447],[40.5,9538],[40.5,9622],[40.5,9696],[40.5,9788],[40.5,9873],[40.5,9959],[40.5,10042],[40.5,10120],[40.5,10207],[40.5,10288],[40.5,10375],[40.5,10455],[40.5,10533],[40.5,10615],[40.5,10706],[40.5,10788],[40.5,10865],[40.5,10957],[40.5,11038],[40.5,11122],[40.5,11204],[40.5,11291],[40.5,11373],[40.5,11452],[40.5,11540],[40.5,11622],[40.5,11704],[40.5,11788],[40.5,11870],[40.5,11947],[40.5,12038],[40.5,12124],[40.5,12207],[40.5,12288],[40.5,12372],[40.5,12456],[40.5,12538],[40.5,12623],[40.5,12704],[40.5,12787],[40.5,12865],[40.5,12953],[40.5,13041],[40.5,13123],[40.5,13204],[40.5,13288],[40.5,13374],[40.5,13449],[40.5,13538],[40.5,13620],[40.5,13703],[40.5,13789],[40.5,13860],[40.5,13943],[40.5,14028],[40.5,14111],[40.5,14197],[40.5,14277],[40.5,14360],[40.5,14445],[40.5,14528],[40.5,14609],[40.5,14694],[40.5,14780],[40.5,14863],[40.5,14943],[40.5,15028],[40.5,15111],[40.5,15193],[40.5,15278],[40.5,15363],[40.5,15443],[40.5,15534],[40.5,15615],[40.5,15695],[40.5,15777],[40.5,15859],[40.5,15945],[40.5,16033],[40.5,16109],[40.5,16195],[40.5,16278],[40.5,16364],[40.5,16443],[40.5,16531],[40.5,16610],[40.5,16694],[40.5,16787],[40.5,16861],[40.5,16942],[40.5,17027],[40.5,17113],[40.5,17192],[40.5,17278],[40.5,17363],[40.5,17442],[40.5,17530],[40.5,17611],[40.5,17701],[40.5,17777],[40.5,17861],[40.5,17944],[40.5,18033],[40.5,18111],[40.5,18193],[40.5,18278],[40.5,18359],[40.5,18443],[40.5,18528],[40.5,18615],[40.5,18694],[40.5,18778],[40.5,18859],[40.5,18944],[40.5,19030],[40.5,19109],[40.5,19194],[40.5,19278],[40.5,19358],[40.5,19445],[40.5,19528],[40.5,19610],[40.5,19692],[40.5,19776],[40.5,19859],[40.5,19944],[40.5,20028],[40.5,20111],[40.5,20192],[40.5,20276],[40.5,20364],[40.5,20445],[40.5,20528],[40.5,20610],[40.5,20692],[40.5,20782],[40.5,20863],[40.5,20944],[40.5,21026],[40.5,21108],[40.5,21192],[40.5,21277],[40.5,21359],[40.5,21442],[40.5,21528],[40.5,21611],[40.5,21694],[40.5,21776],[40.5,21858],[40.5,21942],[40.5,22028],[40.5,22111],[40.5,22193],[40.5,22278],[40.5,22360],[40.5,22443],[40.5,22527],[40.5,22615],[40.5,22697],[40.5,22776],[40.5,22859],[40.5,22942],[40.5,23026],[40.5,23110],[40.5,23192],[40.5,23280],[40.5,23359],[40.5,23443],[40.5,23524],[40.5,23607],[40.5,23692],[40.5,23778],[40.5,23857],[40.5,23942],[40.5,24027],[40.5,24107],[40.5,24193],[40.5,24278],[40.5,24363],[40.5,24444],[40.5,24527],[40.5,24615],[40.5,24694],[40.5,24777],[40.5,24860],[40.5,24944],[40.5,25027],[40.5,25113],[40.5,25195],[40.5,25278],[40.5,25361],[40.5,25443],[40.5,25524],[40.5,25607],[40.5,25693],[40.5,25776],[40.5,25858],[40.5,25941],[40.5,26028],[40.5,26108],[40.5,26193],[40.5,26273],[40.5,26360],[40.5,26442],[40.5,26528],[40.5,26611],[40.5,26692],[40.5,26778],[40.5,26857],[40.5,26942],[40.5,27024],[40.5,27117],[40.5,27191],[40.5,27276],[40.5,27357],[40.5,27442],[40.5,27524],[40.5,27607],[40.5,27691],[40.5,27776],[40.5,27863],[40.5,27941],[40.5,28023],[40.5,28113],[40.5,28191],[40.5,28277],[40.5,28365],[40.5,28442],[40.5,28527],[40.5,28610],[40.5,28694],[40.5,28774],[40.5,28865],[41,28961],[35.8,29042],[22,29124],[22,29207],[22,29295],[21.7,29375],[21.3,29462],[21.3,29543],[21.3,29624],[21.3,29706],[21.3,29789],[23.1,29874],[36,29957],[37,30043],[40.9,30124],[55.2,30206],[58,30296],[60.5,30375],[61.4,30459],[61.4,30540],[61.4,30624],[62,30711],[64.1,30790],[65.4,30878],[68.9,30956],[70.1,31040],[70.7,31124],[72,31211],[73.6,31295],[76.3,31374],[77.8,31456],[78.5,31541],[79.7,31628],[82.1,31714],[83.1,31795],[83.1,31873],[83.1,31956],[83.1,32039],[83.1,32123],[83.1,32205],[83.1,32289],[83.1,32375],[83.1,32455],[83.1,32540],[83.1,32626],[83.1,32705],[83.1,32790],[83.1,32875],[83.1,32957],[83.1,33039],[83.1,33125],[83.1,33206],[83.1,33288],[83.1,33374],[83.1,33455],[83.1,33541],[83.1,33623],[83.1,33709],[83.1,33789],[83.1,33873],[83.1,33956],[83.1,34042],[83.1,34124],[83.1,34207],[83.1,34293],[83.1,34374],[83.1,34456],[83.1,34546],[83.1,34625],[83.1,34705],[83.1,34789],[83.1,34874],[83.1,34955],[83.1,35039],[83.1,35123],[83.1,35209],[83.1,35288],[83.1,35372],[83.1,35459],[83.1,35539],[83.1,35634],[83.1,35716],[83.1,35800],[83.1,35884],[83.1,35966],[83.1,36050],[83.1,36134],[83.1,36216],[83.1,36303],[83.1,36383],[83.1,36465],[83.1,36549],[83.1,36637],[83.1,36709],[83.1,36798],[83.1,36884],[83.1,36969],[83.1,37051],[83.1,37125],[83.1,37215],[83.1,37301],[83.1,37383],[83.1,37465],[83.1,37549],[83.1,37634],[83.1,37715],[83.1,37800],[83.1,37884],[83.1,37969],[83.1,38049],[83.1,38134],[83.1,38216],[83.1,38301],[83.1,38384],[83.1,38468],[83.1,38539],[83.1,38633],[83.1,38721],[83.1,38799],[83.1,38885],[83.1,38966],[83.1,39053],[83.1,39134],[83.1,39219],[83.1,39300],[83.1,39383],[83.1,39465],[83.1,39549]]",1,0,1917.572,1931.908,82.50000477,11.603,"[{""rating"":82.50000476837158,""responseTime"":11.603000000000065}]",space,13.808,,1931.909,All the time,100,1931.923,,,[],,0,18,18,18,1,audio/Narrative8Situation9.wav,audio/Narrative7Situation9.wav,audio/Narrative6Situation9.wav,audio/Narrative5Situation9.wav,3,2,4,3,,,,,,,,,,,,,,,,,,,,,,,,,,,,,,,,,,,,,,,
,,,,,,60079f45348bb62bdcd363ff,2024-02-08_16h02.45.945,group3.1-3.2-social-tom,2023.2.2,Win32,62.5,65c5074098b851296ff0b7ed,65c5413c767d4aba90b9ed7a,,,,,,,,,,,,,,,,,,,,,,,,,,,,,,,,,,,,,,,,,,,,,,,,,,,,,,,,,,,,,,,,,,,,,,,,1931.923,1938.189,space,5.748,,1938.193,2045.509,space,106.977,,,,,,,,,,,,,,,,,,,,,,,,,,
,,,,,,60079f45348bb62bdcd363ff,2024-02-08_16h02.45.945,group3.1-3.2-social-tom,2023.2.2,Win32,62.5,65c5074098b851296ff0b7ed,65c5413c767d4aba90b9ed7a,,,,,,,,,,,,,,,,,,,,,,,,,,,,,2048.143,1,audio/Narrative7Situation9.wav,2048.622,space,,,,,,2080.575,2157.485,34.5833381,65.972,"[{""rating"":34.58333810170492,""responseTime"":65.97200000000021}]",space,76.375,,2080.561,Half the time,50,2080.575,,,[],,,,,,,,,,,2,2,2,2,0.472,,,,,,,,,,,,,,2045.548,2048.102,2048.624,3,2080.561,"[[70.8,4300],[70.7,4376],[70.1,4461],[69,4548],[67.8,4631],[67.6,4711],[67.6,4798],[67.6,4876],[67.6,4965],[67.6,5044],[67.6,5126],[67.6,5211],[67.6,5293],[67.6,5376],[67.6,5460],[67.6,5543],[67.6,5626],[67.6,5710],[67.6,5793],[67.6,5876],[67.6,5960],[67.6,6074],[67.6,6153],[67.6,6240],[67.6,6320],[67.6,6396],[67.6,6487],[67.6,6563],[67.6,6655],[67.6,6756],[67.6,6827],[67.6,6911],[67.6,6994],[67.6,7079],[67.6,7160],[67.6,7242],[67.6,7326],[67.6,7412],[67.6,7494],[67.6,7577],[67.6,7662],[67.6,7748],[67.6,7829],[67.6,7913],[67.6,7998],[67.6,8077],[67.6,8175],[67.6,8253],[67.6,8340],[67.6,8421],[39.2,8503],[32.4,8590],[32.4,8670],[32.4,8753],[30.6,8836],[24.9,8916],[24.9,8996],[24.9,9084],[23.1,9161],[19.7,9242],[19.7,9327],[19.6,9412],[19.6,9494],[19.6,9584],[19.6,9663],[19.6,9744],[19.6,9827],[19.6,9912],[19.6,9992],[19.6,10077],[19.6,10162],[19.6,10246],[19.6,10327],[19.6,10410],[19.6,10492],[19.6,10581],[19.6,10660],[19.6,10746],[19.6,10827],[19.6,10911],[19.6,10994],[19.6,11077],[19.6,11160],[19.6,11242],[19.7,11336],[20.1,11410],[20.3,11500],[22.2,11576],[22.3,11661],[24.8,11746],[26.5,11833],[28.7,11912],[31.3,12000],[33.5,12079],[33.8,12162],[33.8,12244],[33.9,12325],[33.9,12412],[33.9,12494],[33.9,12576],[33.9,12659],[33.9,12742],[33.9,12825],[33.9,12910],[33.9,12992],[33.9,13077],[33.9,13157],[33.9,13242],[33.9,13327],[33.9,13411],[33.9,13494],[33.9,13575],[33.9,13661],[33.9,13749],[33.9,13826],[33.9,13909],[33.9,13992],[33.9,14076],[33.9,14159],[33.9,14244],[33.9,14327],[33.9,14407],[38.9,14494],[42.2,14579],[47.2,14662],[51,14744],[51.6,14829],[53.2,14912],[54.7,14994],[57.3,15081],[58.3,15157],[58.3,15242],[58.3,15325],[58.6,15412],[59.5,15492],[59.5,15575],[59.9,15659],[60.3,15742],[60.6,15826],[60.8,15911],[60.8,15990],[60.8,16083],[60.8,16161],[60.8,16244],[60.8,16325],[60.8,16407],[60.8,16490],[60.8,16576],[60.8,16657],[60.8,16742],[60.8,16824],[60.8,16919],[60.8,16994],[60.8,17075],[60.8,17159],[60.8,17242],[60.8,17325],[60.8,17407],[60.8,17494],[60.8,17577],[60.8,17663],[60.8,17740],[60.8,17824],[60.8,17910],[60.8,17990],[60.8,18074],[59.2,18157],[50.2,18240],[45.1,18326],[44.1,18409],[44.1,18492],[44.1,18576],[44.1,18659],[44.1,18740],[44.1,18824],[43.6,18912],[43.5,18990],[43.5,19077],[43.5,19157],[43.5,19240],[43.5,19324],[43.5,19410],[43.5,19492],[43.5,19574],[43.5,19657],[43.5,19740],[43.5,19827],[43.5,19909],[43.5,19990],[43.5,20084],[43.5,20157],[43.5,20240],[43.5,20324],[43.5,20409],[43.5,20501],[43.5,20574],[43.5,20657],[43.5,20744],[43.5,20824],[43.5,20907],[43.5,20990],[43.5,21074],[43.5,21157],[43.5,21240],[43.5,21323],[43.5,21407],[42.6,21492],[29.7,21575],[26.8,21657],[26.8,21740],[26.8,21824],[26.8,21909],[26.8,21990],[26.8,22073],[26.7,22159],[26.7,22242],[26.7,22324],[26.7,22409],[26.7,22492],[26.7,22576],[26.7,22659],[26.7,22739],[26.7,22826],[26.7,22910],[26.7,22992],[26.7,23076],[26.7,23157],[26.7,23240],[26.7,23323],[26.7,23407],[26.7,23490],[26.7,23574],[26.7,23657],[26.7,23740],[26.7,23825],[26.7,23909],[26.7,23990],[29.9,24073],[33.9,24166],[45.3,24240],[53,24331],[53.7,24407],[53.7,24492],[53.7,24576],[53.7,24657],[53.7,24740],[53.7,24825],[53.7,24909],[53.7,24994],[53.7,25079],[53.7,25161],[53.7,25240],[53.7,25323],[53.7,25407],[53.7,25492],[53.7,25577],[53.7,25657],[53.7,25740],[53.7,25825],[53.7,25905],[53.7,25990],[53.7,26076],[53.7,26157],[53.7,26240],[53.7,26322],[53.7,26407],[53.7,26490],[53.7,26574],[53.7,26657],[53.7,26742],[53.7,26822],[53.7,26907],[53.7,26997],[53.7,27077],[53.7,27159],[53.7,27240],[53.7,27325],[53.7,27405],[53.7,27492],[53.7,27577],[53.7,27657],[53.7,27740],[53.7,27824],[53.7,27905],[53.7,27990],[53.7,28072],[53.7,28157],[53.7,28240],[53.7,28325],[53.7,28407],[53.7,28490],[53.7,28572],[53.7,28657],[53.7,28746],[53.7,28829],[53.7,28905],[53.7,28989],[53.7,29072],[53.7,29157],[53.7,29239],[53.7,29322],[53.7,29407],[53.7,29489],[53.7,29575],[53.7,29657],[53.7,29738],[53.7,29822],[53.7,29905],[53.7,29989],[53.7,30073],[53.7,30161],[54.1,30242],[60.8,30352],[61.4,30436],[61.4,30519],[61.6,30601],[63.5,30684],[63.5,30765],[63.5,30853],[63.5,30932],[63.5,31019],[63.5,31099],[63.5,31186],[63.5,31266],[63.5,31352],[63.5,31432],[63.5,31519],[63.5,31599],[63.5,31682],[63.5,31766],[55.4,31849],[34.8,31936]]",0,0,0,0,1,"Larry had recently lost his family, job and home, and was now living on his own in the park. He had most of his belongings, including some clothes, a blanket, and his mother’s special necklace. His family had been very important to him and he felt as though he did not have much going for him. One of his first days in the park he came across a family that did not have much food and looked very cold. He decided to give them some of his food and his blanket.","Larry had recently lost his family, job and home, and was now living on his own in the park. He had most of his belongings, including some clothes, a blanket, and his mother’s special necklace. His family had been very important to him and he felt as though he did not have much going for him. One of his first days in the park he came across a family that did not have much food and looked very cold. He decided to give them some of his food and his blanket.","Larry had recently lost his family, job and home, and was now living on his own in the park. He had most of his belongings, including some clothes, a blanket, and his mother’s special necklace. His family had been very important to him and he felt as though he did not have much going for him. One of his first days in the park he came across a family that did not have much food and looked very cold. He decided to give them some of his food and his blanket.","Larry had recently lost his family, job and home, and was now living on his own in the park. He had most of his belongings, including some clothes, a blanket, and his mother’s special necklace. His family had been very important to him and he felt as though he did not have much going for him. One of his first days in the park he came across a family that did not have much food and looked very cold. He decided to give them some of his food and his blanket.",,,,,,,,,,
,,,,,,60079f45348bb62bdcd363ff,2024-02-08_16h02.45.945,group3.1-3.2-social-tom,2023.2.2,Win32,62.5,65c5074098b851296ff0b7ed,65c5413c767d4aba90b9ed7a,,,,,,,,,,,,,,,,,,,,,,,,,,,,,2157.524,1,audio/Narrative7Situation9.wav,2162.837,space,,,,,,2186.753,2192.978,50.2083381,2.934,"[{""rating"":50.20833810170492,""responseTime"":2.9340000000001965}]",space,5.671,,2186.746,All the time,100,2186.753,,,[],,,,,,,,,,,6,2,3,9,5.291,,,,,,,,,,,,,,,,2162.838,3,2186.745,"[[48.1,1942],[42.3,2024],[42,2108],[37.5,2196],[35.1,2274],[34.6,2359],[34.6,2443],[34,2526],[33.8,2611],[33.8,2691],[33.8,2777],[33.8,2860],[33.5,2951],[33.5,3024],[33.5,3112],[33.5,3193],[33.5,3277],[33.5,3362],[33.5,3441],[33.5,3524],[33.5,3608],[33.5,3691],[33.5,3774],[33.5,3858],[33.5,3940],[33.5,4025],[33.5,4112],[33.5,4193],[33.5,4277],[33.5,4358],[33.5,4442],[33.5,4525],[33.5,4608],[33.5,4691],[33.5,4778],[33.5,4856],[33.5,4940],[33.5,5024],[33.5,5110],[33.5,5195],[33.5,5274],[33.5,5360],[33.5,5445],[33.5,5524],[33.5,5606],[33.5,5691],[33.5,5774],[33.5,5856],[33.5,5940],[33.5,6034],[33.5,6117],[29.3,6202],[23.1,6286],[23.1,6373],[23.1,6451],[23.1,6534],[23.1,6620],[23.1,6702],[23.1,6787],[23.1,6867],[23.1,6951],[23.1,7034],[23.1,7119],[23.1,7202],[23.1,7289],[23.1,7369],[23.1,7451],[23.1,7534],[23.1,7620],[23.1,7701],[23.1,7789],[23.1,7872],[23.1,7951],[23.1,8038],[23.1,8120],[23.1,8201],[23.1,8285],[23.1,8367],[23.1,8451],[23.1,8537],[23.1,8621],[23.1,8701],[23.1,8786],[28.5,8867],[35.3,8951],[35.9,9034],[44.5,9120],[47.9,9200],[47.9,9286],[47.9,9372],[47.9,9450],[47.9,9534],[47.9,9617],[47.9,9700],[47.9,9776],[47.9,9862],[47.9,9951],[47.9,10034],[47.9,10106],[47.9,10190],[47.9,10273],[47.9,10356],[48.1,10442],[44.4,10528],[44.4,10608],[44.4,10692],[44.4,10774],[44.4,10858],[44.4,10939],[44.4,11023],[44.4,11106],[44.4,11189],[44.4,11274],[44.4,11356],[44.4,11439],[44.4,11524],[44.4,11609],[44.4,11691],[44.4,11773],[44.4,11856],[44.4,11941],[44.9,12021],[46.7,12109],[53.9,12193],[54,12273],[54,12359],[54,12439],[54,12524],[54,12608],[54,12689],[54,12776],[54,12859],[54,12943],[54,13024],[54,13108],[54,13193],[54,13278],[54,13358],[54,13442],[54,13527],[54,13613],[54,13690],[54,13775],[54,13858],[54,13943],[54,14028],[54,14110],[54,14191],[54,14274],[54,14358],[54,14447],[54,14521],[54,14606],[54,14692],[54,14773],[54,14858],[54,14941],[54,15024],[54,15110],[54,15189],[54,15273],[54,15356],[54,15438],[54,15523],[54,15606],[55.6,15691],[77.4,15775],[79.5,15856],[79.5,15945],[79.5,16021],[76.3,16106],[76.3,16188],[72.1,16278],[71,16356],[71,16439],[69.9,16523],[69.7,16610],[69.7,16692],[69.7,16773],[69.7,16856],[69.7,16941],[69.7,17024],[69.7,17105],[69.7,17188],[69.7,17273],[69.7,17356],[69.7,17438],[69.7,17521],[69.7,17605],[69.7,17688],[69.7,17771],[69.7,17856],[69.7,17939],[69.7,18025],[69.7,18106],[69.7,18190],[69.7,18271],[69.7,18356],[69.7,18440],[69.7,18523],[69.7,18612],[69.7,18688],[69.6,18774],[69.6,18858],[70.5,18943],[71,19023],[71.9,19109],[74.2,19190],[74.9,19280],[74.9,19356],[74.9,19439],[75.2,19525],[75.2,19606],[75.2,19690],[75.2,19771],[75.2,19858],[75.2,19939],[75.2,20023],[75.2,20114],[75.2,20188],[75.2,20271],[75.2,20354],[75.2,20438],[75.2,20521],[75.2,20606],[75.2,20688],[75.2,20774],[75.2,20856],[75.2,20938],[75.2,21021],[75.2,21105],[75.2,21190],[75.2,21271],[75.2,21354],[75.2,21437],[75.2,21524],[75.2,21605],[75.2,21689],[75.2,21771],[75.2,21856],[75.2,21940],[59.3,22025],[56.6,22105],[56.5,22187],[56.5,22271],[56.5,22354],[56.5,22437],[56.5,22523],[56.5,22603],[56.5,22690],[56.5,22769],[56.5,22858],[56.5,22940],[56.5,23021],[56.5,23105],[56.5,23187],[56.5,23271],[56.5,23356],[56.5,23439],[56.5,23519],[56.5,23606],[56.5,23691],[56.5,23771],[56.5,23853]]",0,1,1,1,1,"It was just another Sunday afternoon for Lucy, she was on her way to the farmer's market to pick up some produce. When she arrived at the old train depot that housed the market, she noticed two men fighting on the steps. Before she could call for help, one of the men crumpled to his knees. The other man dropped an object that appeared to be a knife and ran off. When Lucy approached the crime scene she realized that the man who had been murdered was the Mayor and that he had a gunshot wound.","One day at work, Margaret walked up to her partner, Al, to ask him to talk to the chief of staff at the local hospital where she worked as a nurse.","Luke always thought of himself as an honest man. That's why during his evening jog around the swamp, he pondered his recent affair with the receptionist at work. Luke looked up at the sky and asked God why he was so weak and unfaithful. He thought of the impact this would have on his family and told God of his conflicted feelings toward telling his wife Marta.","Linda and Amy had been best friends since kindergarten, they even found homes on the same street in the forest on the edge of town. Their biggest fight had been over who gets the bigger slice of cake, until Amy married Dan. Linda loathed Dan, she thought he was manipulative and had a violent temper. She only put up with him because Amy loved him. ",,,,,,,,,,
