exp_question,consent.started,consent.stopped,consentResponse.keys,consentResponse.rt,consentResponse.duration,participantID,date,expName,psychopyVersion,OS,frameRate,STUDY_ID,SESSION_ID,opening1.started,opening1.stopped,keyEndingOpening1.keys,keyEndingOpening1.rt,keyEndingOpening1.duration,volumeAdjust.started,volumeAdjust.stopped,endingAdjust.keys,endingAdjust.rt,endingAdjust.duration,opening2.started,opening2.stopped,keyEndingOpening.keys,keyEndingOpening.rt,keyEndingOpening.duration,mouse.x,mouse.y,mouse.leftButton,mouse.midButton,mouse.rightButton,mouse.time,instructionLoop.thisRepN,instructionLoop.thisTrialN,instructionLoop.thisN,instructionLoop.thisIndex,instructionLoop.ran,readyForAudio.started,readyForAudio.stopped,fixation.started,run,audio_played,fixation.stopped,endPractice.keys,audioPre.started,audioPre.stopped,continuousResponses_audio,continuousSlider.response,continuousSlider.rt,intRating.started,intRating.stopped,intQuestionSlider.response,intQuestionSlider.rt,intQuestionSlider.history,confirmResponse.keys,confirmResponse.rt,confirmResponse.duration,catchQuestion.started,catch_label,catch_value,catchQuestion.stopped,catchQuestionSlider.response,catchQuestionSlider.rt,catchQuestionSlider.history,confirmResponse_2.keys,audioRunLoop.thisRepN,audioRunLoop.thisTrialN,audioRunLoop.thisN,audioRunLoop.thisIndex,audioRunLoop.ran,conditions1_1,conditions2_1,conditions1_2,conditions2_2,dur1_1,dur2_1,dur1_2,dur2_2,endPractice.rt,endPractice.duration,confirmResponse_2.rt,confirmResponse_2.duration,runIntervalBreak.started,runIntervalBreak.stopped,endingBreakKey.keys,endingBreakKey.rt,endingBreakKey.duration,connection.started,connection.stopped,connectionEnding.keys,connectionEnding.rt,connectionEnding.duration,readyForText.started,readyForText.stopped,textPre.started,run_dup,textPre.stopped,continuousResponses_text,textRunLoop.thisRepN,textRunLoop.thisTrialN,textRunLoop.thisN,textRunLoop.thisIndex,textRunLoop.ran,text1_1,text1_2,text2_1,text2_2,runBreakText.started,runBreakText.stopped,endingBreakKey_2.keys,ending.started,ending.stopped,endingEnding.keys,endingEnding.rt,endingEnding.duration
social,0.0006,2201.6164,y,2201.3022,,6074b929f753216d88c77e88,2024-02-08_13h03.18.972,group3.1-3.2-social-tom,2023.2.2,Win32,82.6446281,65c5074098b851296ff0b7ed,65c54182cb8cbf64dc83158b,,,,,,,,,,,,,,,,,,,,,,,,,,,,,,,,,,,,,,,,,,,,,,,,,,,,,,,,,,,,,,,,,,,,,,,,,,,,,,,,,,,,,,,,,,,,,,,,,,,,,,,,
,,,,,,6074b929f753216d88c77e88,2024-02-08_13h03.18.972,group3.1-3.2-social-tom,2023.2.2,Win32,82.6446281,65c5074098b851296ff0b7ed,65c54182cb8cbf64dc83158b,2201.6166,2210.0457,space,8.4061,,,,,,,,,,,,,,,,,,,,,,,,,,,,,,,,,,,,,,,,,,,,,,,,,,,,,,,,,,,,,,,,,,,,,,,,,,,,,,,,,,,,,,,,,,,,,,,,,,,,
,,,,,,6074b929f753216d88c77e88,2024-02-08_13h03.18.972,group3.1-3.2-social-tom,2023.2.2,Win32,82.6446281,65c5074098b851296ff0b7ed,65c54182cb8cbf64dc83158b,,,,,,2210.0458,2242.1939,space,31.8264,,,,,,,,,,,,,,,,,,,,,,,,,,,,,,,,,,,,,,,,,,,,,,,,,,,,,,,,,,,,,,,,,,,,,,,,,,,,,,,,,,,,,,,,,,,,,,,
,,,,,,6074b929f753216d88c77e88,2024-02-08_13h03.18.972,group3.1-3.2-social-tom,2023.2.2,Win32,82.6446281,65c5074098b851296ff0b7ed,65c54182cb8cbf64dc83158b,,,,,,,,,,,2242.2023,2251.684,space,9.4611,,[],[],[],[],[],[],0,0,0,0,1,,,,,,,,,,,,,,,,,,,,,,,,,,,,,,,,,,,,,,,,,,,,,,,,,,,,,,,,,,,,,,,,,,,,,,,,,,,,,,
,,,,,,6074b929f753216d88c77e88,2024-02-08_13h03.18.972,group3.1-3.2-social-tom,2023.2.2,Win32,82.6446281,65c5074098b851296ff0b7ed,65c54182cb8cbf64dc83158b,,,,,,,,,,,2251.6893,2278.0809,space,26.331,,[],[],[],[],[],[],1,0,1,0,1,,,,,,,,,,,,,,,,,,,,,,,,,,,,,,,,,,,,,,,,,,,,,,,,,,,,,,,,,,,,,,,,,,,,,,,,,,,,,,
,,,,,,6074b929f753216d88c77e88,2024-02-08_13h03.18.972,group3.1-3.2-social-tom,2023.2.2,Win32,82.6446281,65c5074098b851296ff0b7ed,65c54182cb8cbf64dc83158b,,,,,,,,,,,2278.0868,2308.5631,space,30.4449,,[],[],[],[],[],[],2,0,2,0,1,,,,,,,,,,,,,,,,,,,,,,,,,,,,,,,,,,,,,,,,,,,,,,,,,,,,,,,,,,,,,,,,,,,,,,,,,,,,,,
,,,,,,6074b929f753216d88c77e88,2024-02-08_13h03.18.972,group3.1-3.2-social-tom,2023.2.2,Win32,82.6446281,65c5074098b851296ff0b7ed,65c54182cb8cbf64dc83158b,,,,,,,,,,,2308.5689,2341.1102,space,32.5159,,[],[],[],[],[],[],3,0,3,0,1,,,,,,,,,,,,,,,,,,,,,,,,,,,,,,,,,,,,,,,,,,,,,,,,,,,,,,,,,,,,,,,,,,,,,,,,,,,,,,
,,,,,,6074b929f753216d88c77e88,2024-02-08_13h03.18.972,group3.1-3.2-social-tom,2023.2.2,Win32,82.6446281,65c5074098b851296ff0b7ed,65c54182cb8cbf64dc83158b,,,,,,,,,,,2341.1158,2355.9811,space,14.8419,,[],[],[],[],[],[],4,0,4,0,1,,,,,,,,,,,,,,,,,,,,,,,,,,,,,,,,,,,,,,,,,,,,,,,,,,,,,,,,,,,,,,,,,,,,,,,,,,,,,,
,,,,,,6074b929f753216d88c77e88,2024-02-08_13h03.18.972,group3.1-3.2-social-tom,2023.2.2,Win32,82.6446281,65c5074098b851296ff0b7ed,65c54182cb8cbf64dc83158b,,,,,,,,,,,,,,,,,,,,,,,,,,,2355.988,2358.5684,2358.581,1,audio/Narrative13Situation2.wav,2360.5863,,2360.5864,2390.335,"[[58.2,114],[57.7,201],[58,284],[57.2,370],[56.3,454],[55.8,539],[56.2,624],[50.4,1047],[50.2,1126],[50.2,1207],[50.2,1290],[50.2,1374],[50.2,1459],[50.2,1544],[50.2,1629],[50.2,1714],[50.2,1799],[50.2,1883],[50.2,1968],[50.2,2054],[50.2,2138],[50.2,2223],[50.2,2308],[50.2,2393],[50.2,2477],[50.2,2562],[50.2,2647],[49,2732],[43.9,2817],[37.8,2902],[34.4,2987],[29.6,3072],[29.1,3156],[26.9,3241],[23.5,3326],[21.5,3411],[18.7,3497],[16.4,3581],[15,3666],[13.3,3750],[12.7,3835],[12.2,3920],[12.2,4005],[12.2,4089],[12.2,4175],[12.2,4259],[12.2,4344],[12.2,4429],[12.2,4513],[12.2,4599],[12.2,4683],[12.2,4768],[12.2,4853],[12.2,4938],[12.2,5023],[12.2,5108],[12.2,5193],[12.2,5277],[12.2,5362],[12.2,5447],[12.2,5531],[12.2,5617],[12.2,5701],[12.2,5786],[12.2,5871],[12.2,5956],[12.2,6041],[12.2,6127],[12.2,6210],[12.2,6295],[12.2,6380],[12.2,6465],[12.2,6550],[12.2,6634],[12.2,6720],[12.2,6804],[12.2,6889],[12.2,6974],[12.2,7059],[12.2,7143],[12.2,7229],[12.2,7313],[12.2,7398],[12.2,7483],[12.2,7568],[12.2,7653],[12.2,7737],[12.2,7823],[12.2,7907],[12.2,7992],[12.2,8077],[12.2,8162],[12.2,8246],[12.2,8332],[12.2,8416],[12.2,8501],[12.2,8586],[12.2,8671],[13.3,8756],[20.3,8841],[31.5,8926],[39.7,9010],[47.9,9095],[55.4,9180],[64.4,9265],[70.6,9350],[92.2,9859],[83.6,9948],[83.6,10028],[83.6,10113],[87.9,10198],[88.4,10283],[88.4,10367],[88.9,10453],[89.1,10537],[89.1,10622],[89.3,10707],[89.3,10792],[89.3,10876],[89.3,10961],[89.3,11046],[89.3,11131],[89.3,11216],[89.3,11301],[89.3,11385],[89.3,11471],[89.3,11555],[89.3,11640],[89.3,11725],[89.7,11810],[91,11895],[91.5,11980],[92.5,12065],[93.2,12150],[94.5,12234],[95,12319],[96.4,12404],[96.6,12488],[96.6,12573],[96.6,12658],[96.6,12743],[97.1,12828],[97.1,12913],[97.1,12997],[97.1,13082],[97.1,13167],[97.1,13253],[97.1,13337],[97.1,13422],[97.1,13507],[97.1,13591],[97.1,13676],[97.1,13761],[97.1,13846],[97.1,13931],[97.1,14015],[97.1,14100],[97.1,14185],[97.1,14270],[97.1,14355],[97.1,14440],[97.1,14525],[97.1,14609],[97.1,14694],[97.1,14779],[97.1,14864],[97.1,14949],[97.1,15033],[96.8,15118],[96.8,15203],[96.8,15288],[96.8,15373],[96.8,15459],[96.8,15543],[96.8,15627],[96.8,15713],[96.8,15797],[96.8,15882],[96.8,15967],[96.8,16052],[96.8,16136],[96.8,16221],[96.8,16306],[96.8,16391],[96.8,16477],[96.8,16561],[96.8,16645],[96.8,16730],[91.4,16816],[79.3,16900],[69.2,16985],[55.5,17071],[43.9,17156],[35.8,17240],[22.3,17325],[14.3,17409],[8.9,17495],[8.3,17579],[8.2,17664],[7,17749],[4.5,17834],[4.1,17918],[4.1,18003],[4.1,18088],[4.1,18173],[4.1,18258],[4.1,18342],[4.1,18427],[4.1,18513],[4.1,18597],[4.1,18682],[4.1,18766],[4.1,18852],[4.1,18936],[4.1,19021],[4.1,19106],[4.1,19191],[4.1,19275],[4.1,19361],[4.1,19445],[4.1,19530],[4.1,19615],[4.1,19700],[4.1,19786],[4.1,19869],[4.1,19954],[4.1,20039],[4.1,20124],[4.1,20209],[4.1,20294],[4.1,20378],[4.1,20463],[4.1,20548],[4.1,20633],[4.1,20718],[4.1,20803],[4.1,20887],[4.1,20972],[4.1,21057],[4.1,21142],[4.1,21227],[4.1,21312],[4.1,21396],[4.1,21481],[4.1,21566],[4.1,21651],[4.1,21736],[4.1,21820],[4.1,21905],[4.1,21991],[4.1,22075],[4.1,22161],[4.1,22246],[4.1,22330],[4.1,22415],[4.1,22500],[4.1,22584],[4.1,22670],[4.1,22754],[4.1,22839],[4.1,22923],[4.1,23009],[4.1,23094],[4.1,23178],[4.1,23263],[4.1,23348],[4.1,23433],[4.1,23517],[4.1,23603],[4.1,23687],[4.1,23772],[4.1,23857],[4.1,23942],[4.1,24026],[4.1,24112],[4.1,24196],[4.1,24282],[4.1,24366],[3.6,24451],[3,24536],[2.6,24622],[2.2,24705],[2.1,24791],[2.1,24875],[2.1,24960],[2.1,25044],[2.1,25130],[2.1,25215],[2.1,25299],[1.5,25385],[1.2,25469],[1.2,25554],[1.2,25638],[1.2,25724],[1.2,25808],[1.2,25893],[1.2,25978],[1.2,26063],[1.2,26148],[1.2,26233],[1.2,26317],[1.2,26402],[1.2,26487],[1.2,26571],[1.2,26656],[1,26742],[0.8,26826],[0.8,26911],[0.8,26996],[0.8,27081],[0.8,27165],[0.8,27251],[0.8,27336],[0.8,27420],[0.8,27505],[0.8,27589],[0.8,27676],[0.8,27759],[0.8,27844],[0.8,27929],[0.8,28014],[0.8,28099],[0.8,28184],[0.8,28268],[0.8,28353],[0.8,28438],[0.8,28524],[0.8,28608],[0.8,28692],[0.8,28777],[0.8,28862],[0.8,28947],[0.8,29032],[0.8,29117],[0.8,29201],[0.8,29286],[0.8,29372],[0.8,29456],[0.8,29541],[0.8,29626],[0.8,29711]]",1,0,2390.3352,2400.2544,38.24678,8.3072,"[{""rating"":38.24678000358519,""responseTime"":8.307199999928343}]",space,9.3929,,2400.2545,Definitely yes,100,2400.2568,,,[],,0,0,0,0,1,audio/Narrative13Situation2.wav,audio/Narrative13Situation2.wav,audio/Narrative13Situation2.wav,audio/Narrative13Situation2.wav,2,2,2,2,,,,,,,,,,,,,,,,,,,,,,,,,,,,,,,,,,,,,
,,,,,,6074b929f753216d88c77e88,2024-02-08_13h03.18.972,group3.1-3.2-social-tom,2023.2.2,Win32,82.6446281,65c5074098b851296ff0b7ed,65c54182cb8cbf64dc83158b,,,,,,,,,,,,,,,,,,,,,,,,,,,,,2400.257,1,audio/Narrative7Situation1.wav,2404.3992,space,2404.3992,2460.2895,"[[999,5],[999,90],[999,175],[999,260],[999,344],[999,430],[999,514],[999,599],[999,684],[999,769],[999,854],[999,939],[999,1024],[999,1108],[999,1193],[999,1278],[999,1363],[999,1448],[999,1533],[999,1617],[999,1703],[42.7,1787],[41.9,1872],[41.9,1956],[41.9,2041],[41.9,2126],[41.9,2211],[41.9,2296],[41.9,2381],[41.9,2466],[41.9,2551],[41.9,2636],[41.9,2721],[41.9,2805],[41.9,2890],[41.9,2974],[40.8,3060],[38.4,3145],[36.9,3230],[35.9,3314],[34.5,3400],[33.6,3484],[30.8,3569],[30,3653],[29.3,3739],[26.2,3823],[22.6,3909],[22.3,3993],[22.3,4078],[22.3,4163],[20.8,4248],[18.8,4333],[17.6,4418],[16.5,4502],[15.8,4587],[14.8,4672],[14.5,4757],[14.5,4842],[14.5,4926],[14.4,5011],[14.4,5096],[13.1,5181],[13.1,5265],[13.1,5350],[13.1,5435],[13.1,5521],[13.1,5604],[13.1,5690],[13.1,5775],[13.1,5860],[13.1,5944],[13.1,6029],[11.5,6114],[11.3,6199],[10.6,6284],[9.6,6369],[9.1,6454],[9.1,6539],[9.1,6623],[9.1,6708],[9.1,6793],[9.1,6878],[9.1,6962],[9.1,7047],[9.1,7132],[9.1,7217],[9.1,7302],[9.1,7386],[9.1,7471],[8.9,7557],[7.8,7641],[7.3,7725],[7.1,7811],[6.8,7896],[6.6,7980],[6.6,8065],[6.6,8150],[6.6,8235],[6.6,8320],[6.6,8404],[5.8,8490],[5.5,8574],[5.5,8659],[5.5,8744],[5.5,8829],[5.5,8913],[5.5,8998],[5.5,9083],[5.5,9168],[5.5,9253],[5.5,9338],[5.5,9422],[5.5,9507],[5.5,9592],[5.5,9677],[5.5,9762],[5.5,9847],[5.5,9931],[5.5,10017],[5.5,10101],[5.5,10186],[5.5,10271],[5.5,10356],[5.5,10441],[5.5,10525],[5.5,10610],[5.5,10695],[5.5,10781],[5.5,10865],[5.5,10950],[5.5,11034],[5.5,11119],[5.5,11204],[5,11290],[4.4,11374],[4.2,11459],[4.2,11543],[4.2,11628],[4.2,11713],[4.2,11798],[4.2,11883],[4.2,11967],[4.2,12052],[4.2,12137],[4.2,12222],[4.2,12307],[4.2,12392],[4.2,12477],[4.2,12562],[4.2,12646],[4.2,12731],[4.2,12816],[4.2,12901],[4.2,12986],[4.2,13070],[4.2,13155],[4.2,13240],[4.2,13325],[4.2,13410],[4.2,13495],[4.2,13579],[4.2,13664],[4.2,13750],[4.2,13834],[4.2,13919],[4.2,14004],[4.2,14088],[4.2,14173],[4.2,14263],[4.2,14343],[4.2,14428],[4.2,14513],[4.2,14598],[4.2,14683],[4.2,14767],[4.2,14852],[3.6,14937],[3.6,15022],[3.6,15107],[3.6,15191],[2.9,15277],[2.8,15361],[2.8,15446],[2.8,15531],[2.8,15616],[2.8,15701],[2.8,15786],[2.8,15870],[2.8,15955],[2.8,16040],[2.8,16125],[2.8,16210],[2.6,16294],[2.6,16379],[2.6,16464],[2.6,16549],[2.6,16634],[2.6,16732],[2.6,16833],[2.6,16913],[2.6,16997],[2.6,17082],[2.6,17167],[2.6,17252],[2.6,17337],[2.6,17422],[2.6,17506],[2.6,17591],[2.6,17676],[2.1,17762],[1.7,17846],[1.7,17931],[1.7,18016],[1.7,18100],[1.7,18185],[1.7,18275],[1.2,18355],[1.2,18440],[1.2,18524],[1.2,18609],[1.2,18694],[1.2,18779],[1.2,18864],[1.2,18949],[1.2,19033],[1.2,19118],[1.2,19203],[1.2,19288],[1.2,19373],[1.2,19458],[1.7,19543],[1.7,19628],[1.7,19712],[1.7,19797],[1.7,19882],[1.7,19967],[1.7,20051],[1.7,20136],[1.7,20221],[1.7,20306],[1.7,20391],[1.7,20476],[1.7,20561],[1.7,20646],[1.7,20730],[1.7,20816],[1.7,20900],[1.7,20986],[1.7,21070],[1.7,21154],[1.7,21240],[1.7,21324],[1.7,21409],[1.7,21494],[1.7,21579],[1.7,21663],[1.7,21748],[1.7,21833],[1.7,21918],[1.7,22003],[1.7,22088],[1.7,22173],[1.7,22258],[1.7,22342],[1.7,22427],[1.7,22512],[1.7,22597],[1.7,22682],[1.7,22766],[1.7,22851],[1.7,22936],[1.7,23021],[1.7,23106],[1.7,23193],[1.7,23275],[1.7,23360],[1.7,23446],[1.7,23532],[1.7,23617],[1.7,23707],[1.7,23792],[1.7,23871],[1.7,23953],[1.7,24034],[1.7,24118],[1.7,24202],[1.7,24287],[1.7,24372],[1.7,24457],[1.7,24542],[1.7,24627],[1.7,24712],[1.7,24797],[1.7,24882],[1.7,24966],[1.7,25051],[1.7,25136],[1.7,25221],[1.7,25305],[1.7,25390],[1.7,25475],[1.7,25560],[1.7,25644],[1.7,25731],[1.7,25815],[1.7,25900],[1.7,25984],[1.7,26069],[1.7,26154],[1.7,26239],[1.7,26324],[1.7,26409],[1.7,26493],[1.7,26578],[1.7,26663],[1.7,26748],[1.7,26833],[1.7,26918],[1.7,27002],[1.7,27087],[1.7,27172],[1.7,27257],[1.7,27342],[1.7,27427],[1.7,27511],[1.7,27596],[1.7,27681],[1.7,27766],[1.7,27851],[1.7,27936],[1.7,28021],[1.7,28105],[1.7,28190],[1.7,28275],[1.7,28360],[1.7,28445],[1.7,28529],[1.7,28614],[1.7,28700],[1.7,28784],[1.7,28869],[1.7,28954],[1.7,29039],[1.7,29123],[1.7,29208],[1.7,29293],[1.7,29378],[1.7,29463],[1.7,29543],[1.7,29622],[1.7,29701],[1.7,29785],[1.7,29865],[1.7,29947],[1.7,30032],[1.7,30117],[1.7,30202],[1.7,30287],[1.7,30371],[1.7,30457],[1.7,30535],[1.7,30621],[1.7,30708],[1.7,30790],[1.7,30875],[1.7,30960],[1.7,31044],[1.7,31129],[1.7,31214],[1.7,31299],[1.7,31384],[1.7,31469],[1.7,31553],[1.7,31638],[1.7,31723],[1.7,31808],[1.7,31893],[1.7,31978],[1.7,32062],[1.7,32147],[1.7,32233],[1.7,32317],[1.7,32402],[1.7,32487],[1.7,32572],[1.7,32656],[1.7,32741],[1.7,32826],[1.7,32911],[2,32996],[2,33081],[2,33165],[2,33251],[2.2,33335],[2.2,33420],[2.2,33504],[2.2,33590],[2.2,33674],[2.2,33759],[2.2,33844],[2.2,33929],[2.2,34014],[2.2,34099],[2.6,34184],[3,34268],[3.4,34353],[4.5,34438],[5.1,34523],[5.2,34607],[5.7,34693],[6.2,34778],[6.7,34862],[7.3,34947],[7.9,35032],[8.5,35117],[8.5,35201],[8.8,35287],[9.4,35371],[9.8,35456],[10.4,35541],[11.2,35626],[11.6,35710],[12.5,35796],[13,35880],[13.3,35965],[13.5,36050],[14,36135],[14.4,36220],[14.8,36304],[15.4,36389],[15.4,36474],[16.3,36559],[18.4,36644],[22.4,36729],[26.8,36814],[31.2,37838],[30.5,37922],[30.5,38008],[31.7,38092],[33.2,38177],[33.3,38262],[33.3,38346],[33.3,38431],[33.3,38516],[33.6,38601],[33.9,38686],[33.9,38771],[33.9,38856],[33.9,38940],[33.9,39025],[33.9,39111],[33.9,39195],[33.9,39280],[33.9,39365],[33.9,39451],[33.9,39534],[33.9,39619],[33.9,39704],[33.9,39789],[33.9,39873],[33.9,39958],[33.9,40043],[33.9,40128],[34.6,40213],[35.1,40299],[35.3,40383],[35.3,40467],[35.3,40552],[35.3,40637],[35.3,40722],[35.3,40807],[36.2,40892],[36.4,40976],[36.4,41061],[36.9,41146],[37.2,41231],[37.4,41316],[37.8,41401],[37.8,41486],[37.8,41570],[37.8,41655],[38.3,41740],[38.7,41825],[39.4,41910],[40.7,41995],[41.2,42079],[41.2,42164],[42.2,42249],[43.9,42335],[44.4,42419],[45.6,42504],[46.9,42589],[48.7,42674],[51,42760],[53.8,42843],[54.7,42928],[56.3,43013],[56.8,43097],[56.8,43182],[56.8,43267],[56.8,43352],[56.8,43438],[56.8,43522],[56.8,43607],[56.8,43692],[56.8,43776],[56.8,43861],[59.4,43946],[63.6,44031],[69,44115],[72.7,44201],[75.6,44285],[79,44370],[79.7,44455],[83.1,44540],[83.6,44624],[84.7,44711],[84.7,44794],[85.6,44879],[85.6,44964],[85.6,45049],[85.6,45133],[85.6,45219],[85.7,45303],[86.6,45388],[86.6,45473],[86.6,45558],[86.6,45643],[86.6,45727],[86.6,45812],[86.6,45897],[86.6,45982],[86.6,46067],[86.6,46152],[86.6,46237],[86.6,46321],[86.6,46406],[86.6,46491],[86.6,46576],[86.6,46661],[86.6,46746],[86.6,46830],[86.6,46915],[86.6,47000],[86.6,47085],[87.3,47170],[87.8,47254],[87.9,47339],[87.9,47424],[87.9,47509],[87.9,47594],[87.9,47679],[87.9,47764],[87.9,47849],[87.9,47933],[87.9,48018],[87.9,48103],[87.9,48188],[87.9,48273],[87.9,48358],[87.9,48443],[87.9,48527],[87.9,48612],[87.9,48697],[87.9,48782],[87.2,48867],[85.8,48952],[85.3,49036],[85.1,49121],[85.1,49206],[85.1,49291],[85.1,49376],[85.1,49461],[84.6,49546],[82.2,49630],[79.7,49715],[79,49800],[77.6,49885],[76.1,49970],[74.6,50054],[73.9,50139],[73.9,50224],[73.9,50309],[73.9,50393],[73.8,50479],[72.4,50564],[71.5,50648],[71.2,50733],[70.3,50818],[69.8,50903],[69.8,50988],[69.8,51072],[69.8,51158],[69.8,51242],[69.8,51327],[69.8,51412],[69.8,51496],[69.2,51582],[69.2,51666],[69.2,51764],[69.2,51842],[69.2,51927],[68.5,52012],[68.5,52097],[68.5,52181],[68.5,52266],[68.5,52351],[68.5,52436],[68.5,52520],[68.5,52607],[68.5,52691],[68.5,52776],[68.5,52860],[68.5,52945],[68.5,53030],[68.5,53114],[68.5,53200],[68.5,53284],[68.5,53369],[68.6,53454],[69.4,53539],[69.4,53624],[69.5,53709],[71.1,53793],[72.8,53878],[73.9,53963],[74.9,54048],[76.5,54133],[77.9,54218],[78.8,54303],[79.3,54389],[79.3,54472],[79.3,54557],[79.3,54642],[79.3,54727],[79.2,54812],[76.1,54896],[74.7,54981],[74.6,55066],[74.6,55151],[74.6,55235],[74.6,55321],[74.6,55405],[74.6,55490],[74.6,55575],[74.6,55659],[74.6,55744],[74.6,55830]]",1,0,2460.2897,2469.477,31.68684273,6.7384,"[{""rating"":25.673562128076412,""responseTime"":5.9388999999764565},{""rating"":31.68684272932468,""responseTime"":6.738399999976082}]",space,8.6582,,2469.477,Definitely yes,100,2469.478,,,[],,0,1,1,1,1,audio/Narrative7Situation1.wav,audio/Narrative8Situation1.wav,audio/Narrative5Situation1.wav,audio/Narrative6Situation1.wav,2,5,5,2,4.1165,,,,,,,,,,,,,,,,,,,,,,,,,,,,,,,,,,,,
,,,,,,6074b929f753216d88c77e88,2024-02-08_13h03.18.972,group3.1-3.2-social-tom,2023.2.2,Win32,82.6446281,65c5074098b851296ff0b7ed,65c54182cb8cbf64dc83158b,,,,,,,,,,,,,,,,,,,,,,,,,,,,,2469.4781,1,audio/Narrative7Situation2.wav,2472.4828,,2472.4828,2479.9667,"[[999,5],[999,89],[999,174],[999,259],[999,344],[999,429],[999,514],[999,599],[999,685],[999,768],[999,853],[999,938],[999,1023],[999,1108],[999,1193],[999,1278],[999,1362],[999,1447],[999,1532],[999,1617],[999,1701],[999,1787],[45.3,1871],[44.1,1956],[44.1,2041],[43.9,2126],[42.9,2211],[42.4,2300],[42.4,2382],[42.4,2465],[42.4,2550],[42.4,2635],[42.4,2720],[42.4,2805],[42.4,2890],[42.4,2974],[42.4,3059],[42.6,3144],[45.5,3229],[46.2,3314],[46.2,3398],[46.2,3483],[46.2,3568],[46.2,3653],[46.2,3738],[44.7,3823],[44.3,3908],[44,3992],[44,4077],[44,4162],[44,4247],[44,4332],[44,4417],[44.4,4502],[45.4,4587],[46.5,4671],[46.7,4756],[46.7,4841],[46.7,4926],[46.7,5010],[46.7,5095],[46.7,5180],[46.7,5265],[46.7,5349],[47.5,5436],[49.5,5520],[51.6,5605],[52.2,5689],[52.2,5774],[52.2,5858],[52.2,5944],[52.2,6029],[52.2,6113],[52.2,6198],[52.2,6283],[52.2,6368],[52.2,6453],[52.2,6539],[52.2,6622],[52.2,6708],[52.2,6792],[52.2,6877],[52.2,6962],[52.6,7047],[53.3,7131],[53.3,7216],[53.3,7301],[53.3,7386],[53.3,7471]]",1,0,2479.9667,2486.0387,50.11714031,5.4416,"[{""rating"":50.11714030708752,""responseTime"":5.4416000000237545}]",space,5.5393,,2486.0387,Definitely yes,100,2486.0398,,,[],,0,2,2,2,1,audio/Narrative7Situation2.wav,audio/Narrative8Situation2.wav,audio/Narrative5Situation2.wav,audio/Narrative6Situation2.wav,3,3,3,3,,,,,,,,,,,,,,,,,,,,,,,,,,,,,,,,,,,,,
,,,,,,6074b929f753216d88c77e88,2024-02-08_13h03.18.972,group3.1-3.2-social-tom,2023.2.2,Win32,82.6446281,65c5074098b851296ff0b7ed,65c54182cb8cbf64dc83158b,,,,,,,,,,,,,,,,,,,,,,,,,,,,,2486.0399,1,audio/Narrative7Situation3.wav,2494.0497,,2494.0498,2503.3027,"[[57.2,1023],[57.2,1108],[57.2,1193],[57.2,1278],[57.2,1362],[57.2,1447],[57.2,1532],[57.2,1617],[56.9,1702],[54.4,1787],[53,1872],[52.5,1957],[51.9,2041],[51.9,2126],[51.9,2211],[51.9,2296],[51.9,2381],[51.9,2466],[51.4,2551],[48.6,2635],[45.8,2720],[43.8,2805],[41.1,2890],[39.2,2975],[39,3060],[38.5,3145],[36.6,3229],[31.4,3314],[30.2,3400],[30.2,3483],[29.5,3569],[28.2,3653],[27.7,3739],[27.7,3823],[27.7,3908],[27.7,3993],[27.7,4077],[27.3,4162],[27.3,4247],[27.3,4332],[27.3,4417],[25.8,4502],[23.2,4587],[20.5,4672],[15.3,5265],[16.5,5350],[19,5436],[19,5520],[15.8,5606],[13.1,5690],[12.3,5774],[11.7,5859],[11.6,5944],[11,6029],[11,6114],[11,6198],[11,6283],[11,6368],[11,6453],[11,6538],[11,6623],[11,6708],[11,6792],[11,6878],[10.1,6963],[9.2,7047],[9.2,7132],[9.2,7216],[9.2,7301],[9.2,7386],[9.2,7471],[9.2,7556],[9.2,7640],[9.2,7726],[9.2,7810],[9.2,7895],[9.2,7980],[9.2,8065],[9.2,8150],[9.2,8235],[9.2,8320],[9.2,8404],[9.2,8489],[9.2,8574],[9.2,8659],[9.2,8743],[9.4,8829],[9.4,8913],[9.1,8998],[8.5,9083],[7.6,9168],[7.3,9252]]",1,0,2503.3028,2506.9093,0.99570405,2.6604,"[{""rating"":0.9957040498666914,""responseTime"":2.660399999976107}]",space,3.0787,,2506.9093,Partially,50,2506.9108,,,[],,0,3,3,3,1,audio/Narrative7Situation3.wav,audio/Narrative8Situation3.wav,audio/Narrative5Situation3.wav,audio/Narrative6Situation3.wav,8,4,3,5,,,,,,,,,,,,,,,,,,,,,,,,,,,,,,,,,,,,,
,,,,,,6074b929f753216d88c77e88,2024-02-08_13h03.18.972,group3.1-3.2-social-tom,2023.2.2,Win32,82.6446281,65c5074098b851296ff0b7ed,65c54182cb8cbf64dc83158b,,,,,,,,,,,,,,,,,,,,,,,,,,,,,2506.9109,1,audio/Narrative7Situation4.wav,2509.9143,,2509.9144,2521.6402,"[[40.8,2042],[37.2,2127],[34.2,2212],[30.7,2296],[20.5,2381],[13.1,2466],[11,2551],[9.2,2636],[9.1,2721],[8.7,2806],[7.7,2890],[6.3,2975],[5.2,3060],[5.1,3144],[4.2,3230],[3.5,3315],[3.3,3399],[3.3,3484],[2.9,3568],[2.6,3653],[2.6,3738],[2.6,3823],[2.6,3908],[2.3,3993],[2.1,4078],[1.9,4162],[1.6,4247],[1.6,4332],[1.6,4417],[1.6,4502],[1.6,4587],[1.6,4671],[1.6,4756],[1.6,4841],[1.7,4927],[1.7,5011],[1.7,5096],[1.7,5181],[1.7,5265],[1.7,5350],[1.7,5435],[1.7,5520],[1.7,5605],[1.7,5689],[1.7,5774],[1.7,5859],[1.7,5944],[1.7,6029],[1.7,6114],[1.7,6198],[1.7,6283],[1.7,6368],[1.7,6453],[1.7,6538],[1.7,6623],[1.7,6707],[3.9,6793],[4.8,6877],[4.8,6962],[4.8,7047],[4.8,7132],[4.8,7217],[4.8,7302],[4.8,7386],[4.8,7472],[4.8,7556],[4.8,7641],[4.8,7726],[4.8,7810],[4.8,7895],[4.8,7981],[4.8,8065],[4.8,8150],[4.8,8235],[4.8,8320],[4.8,8405],[4.8,8489],[4.8,8574],[4.8,8659],[4.8,8744],[4.8,8829],[4.8,8914],[4.8,8998],[4.7,9084],[3.5,9168],[2.9,9254],[2.6,9338],[1.9,9423],[1.4,9507],[0.5,9592],[0.1,9677]]",1,0,2521.6404,2526.1675,0.527137102,3.6663,"[{""rating"":0.5271371017052273,""responseTime"":3.666299999952571}]",space,3.999,,2526.1676,Partially,50,2526.1685,,,[],,0,4,4,4,1,audio/Narrative7Situation4.wav,audio/Narrative8Situation4.wav,audio/Narrative5Situation4.wav,audio/Narrative6Situation4.wav,3,3,1,2,,,,,,,,,,,,,,,,,,,,,,,,,,,,,,,,,,,,,
,,,,,,6074b929f753216d88c77e88,2024-02-08_13h03.18.972,group3.1-3.2-social-tom,2023.2.2,Win32,82.6446281,65c5074098b851296ff0b7ed,65c54182cb8cbf64dc83158b,,,,,,,,,,,,,,,,,,,,,,,,,,,,,2526.1686,1,audio/Narrative7Situation5.wav,2531.172,,2531.1721,2539.6624,"[[15.9,1618],[6.6,1703],[6.6,1788],[6.6,1872],[6.6,1958],[6.6,2042],[2.6,2127],[2.2,2211],[1.6,2297],[0.2,2382],[0.6,5351],[1,5436],[1,5520],[1,5606],[1,5690],[1.1,5775],[2,5860],[2.4,5946],[2.4,6030],[2.4,6114],[2.9,6200],[3,6284],[3.2,6369],[3.6,6454],[3.6,6539],[3.6,6624],[3.9,6708],[4.4,6793],[4.6,6878],[4.6,6963],[4.8,7048],[4.8,7132],[4.8,7217],[4.8,7302],[4.8,7387],[4.5,7473],[3.7,7557],[3.5,7641],[3.3,7726],[3.3,7811],[3.3,7896],[3.3,7981],[3.3,8066],[3.3,8150],[3.3,8235],[3.3,8320],[3.3,8405],[3.3,8490]]",1,0,2539.6626,2542.0562,0,1.5035,"[{""rating"":0,""responseTime"":1.5035000000002583}]",space,1.8667,,2542.0562,Not at all,0,2564.7262,0,16.4396,"[{""rating"":0.2928536276244842,""responseTime"":15.082699999928082},{""rating"":0,""responseTime"":16.439600000023802}]",space,0,5,5,5,1,audio/Narrative7Situation5.wav,audio/Narrative8Situation5.wav,audio/Narrative5Situation5.wav,audio/Narrative6Situation5.wav,5,2,5,2,,,22.1431,,,,,,,,,,,,,,,,,,,,,,,,,,,,,,,,,,
,,,,,,6074b929f753216d88c77e88,2024-02-08_13h03.18.972,group3.1-3.2-social-tom,2023.2.2,Win32,82.6446281,65c5074098b851296ff0b7ed,65c54182cb8cbf64dc83158b,,,,,,,,,,,,,,,,,,,,,,,,,,,,,2564.7317,1,audio/Narrative7Situation6.wav,2567.7319,,2567.7319,2577.7069,"[[999,5],[999,90],[999,175],[999,260],[999,346],[999,430],[999,515],[999,599],[999,684],[999,769],[999,855],[999,939],[999,1023],[999,1109],[999,1194],[999,1279],[999,1368],[999,1454],[999,1538],[999,1624],[999,1709],[999,1793],[999,1879],[999,1963],[999,2048],[999,2133],[999,2218],[999,2302],[999,2387],[999,2472],[999,2557],[999,2642],[999,2726],[999,2811],[999,2897],[999,2981],[999,3067],[999,3151],[999,3236],[999,3320],[999,3405],[999,3490],[999,3575],[999,3661],[999,3745],[999,3829],[999,3914],[999,3999],[999,4084],[999,4169],[999,4253],[999,4339],[999,4423],[999,4508],[999,4593],[999,4678],[999,4763],[999,4847],[999,4933],[999,5018],[999,5102],[999,5187],[34.4,5278],[59.4,5351],[67.6,5435],[70.2,5520],[70.4,5605],[75.3,5690],[81.7,5775],[87.3,5860],[94.3,5945],[94.7,6029],[95.2,6115],[95.5,6199],[95.5,6284],[95.5,6369],[95.4,6454],[93,6538],[88.1,6623],[83.3,6709],[83.3,6793],[83.3,6878],[83.3,6962],[83.3,7047],[83.3,7132],[83.3,7217],[83.3,7306],[83.3,7387],[83.3,7471],[84,7557],[84,7641],[84,7727],[84,7811],[84,7896],[83.6,7981],[83.6,8065],[83.6,8150],[83.6,8235],[83.6,8320],[83.6,8413],[83.6,8496],[83.6,8580],[83.6,8665],[83.6,8750],[83.6,8835],[83.6,8920],[83.6,9005],[83.6,9090],[83.6,9174],[83.6,9259],[83.6,9344],[83.6,9429],[83.6,9514],[83.6,9598],[83.6,9683],[83.6,9768],[83.6,9853],[83.6,9938]]",1,0,2577.7071,2580.9494,86.50917566,1.8725,"[{""rating"":86.50917566421596,""responseTime"":1.8724999999999454}]",space,2.7155,,2580.9494,Definitely yes,100,2580.9509,,,[],,0,6,6,6,1,audio/Narrative7Situation6.wav,audio/Narrative8Situation6.wav,audio/Narrative5Situation6.wav,audio/Narrative6Situation6.wav,3,2,3,2,,,,,,,,,,,,,,,,,,,,,,,,,,,,,,,,,,,,,
,,,,,,6074b929f753216d88c77e88,2024-02-08_13h03.18.972,group3.1-3.2-social-tom,2023.2.2,Win32,82.6446281,65c5074098b851296ff0b7ed,65c54182cb8cbf64dc83158b,,,,,,,,,,,,,,,,,,,,,,,,,,,,,2580.9511,1,audio/Narrative7Situation7.wav,2585.9607,,2585.9607,2603.1339,"[[999,5],[999,84],[999,169],[999,253],[999,339],[999,423],[999,508],[999,593],[999,678],[999,762],[999,847],[999,932],[999,1017],[999,1106],[999,1187],[999,1271],[999,1357],[999,1441],[999,1527],[999,1611],[999,1696],[999,1781],[999,1866],[999,1951],[999,2035],[999,2120],[50.7,2205],[50.6,2290],[50.7,2374],[50.7,2459],[50.7,2544],[50,2629],[48.1,2714],[46.4,2799],[45.8,2883],[45.2,2968],[44.1,3054],[43.8,3138],[43.8,3223],[43.8,3308],[43.8,3392],[43.8,3477],[43.8,3562],[42.2,3647],[41.9,3732],[41.5,3817],[41.5,3901],[41.5,3986],[41.5,4071],[41.5,4156],[41.5,4241],[41.5,4326],[41.5,4410],[41.5,4495],[41.5,4580],[41.5,4665],[41.5,4750],[41.5,4835],[41.5,4919],[41.5,5004],[41.5,5089],[41.5,5174],[41.5,5259],[41.5,5344],[41.5,5428],[41.5,5513],[41.5,5598],[41.5,5683],[41.5,5768],[41.5,5853],[41.5,5938],[41.5,6022],[41.5,6107],[41.5,6192],[41.5,6277],[41.9,6363],[42.2,6447],[42.8,6531],[43.9,6616],[45.1,6702],[46.1,6786],[47,6871],[47.6,6957],[47.6,7040],[48.1,7125],[48.6,7211],[49.7,7295],[50.1,7380],[50.5,7465],[51.6,7550],[53.3,7635],[54,7719],[55.4,7805],[56.1,7889],[56.3,7974],[57.1,8059],[57.7,8144],[58.3,8229],[58.7,8314],[59.1,8398],[59.1,8483],[59.1,8568],[59.1,8652],[59.1,8737],[59.1,8822],[59.1,8907],[59,8992],[59,9077],[59,9161],[59,9247],[59,9331],[59,9416],[59,9501],[59,9586],[59,9670],[59,9755],[59,9841],[59,9925],[59,10010],[59,10095],[59,10179],[59,10264],[59,10349],[59,10434],[59,10519],[59,10604],[59,10689],[59,10773],[59,10858],[59,10943],[59,11028],[59,11113],[59,11198],[59,11282],[59.4,11368],[59.4,11452],[59.4,11537],[59.4,11622],[59.4,11707],[59.4,11792],[59.4,11876],[59.4,11962],[59.4,12047],[59.3,12131],[59.3,12216],[58.3,12301],[58.3,12385],[57.5,12470],[57.5,12555],[57.2,12640],[57.2,12725],[57.2,12810],[57.2,12894],[56.5,12980],[54.4,13064],[52.5,13150],[50.4,13234],[48.5,13319],[48.3,13404],[47.6,13488],[47.4,13574],[46.5,13658],[45.7,13743],[44.4,13828],[44.3,13913],[44.3,13998],[44.3,14082],[44.3,14167],[44.3,14252],[44.7,14337],[47.9,14422],[51.6,14507],[54.4,14591],[58.5,14676],[62,14761],[65.7,14846],[67.8,14931],[68.7,15015],[68.7,15100],[68.7,15188],[68.7,15270],[68.7,15355],[68.7,15439],[68.7,15524],[68.7,15609],[68.7,15694],[68.7,15779],[68.7,15864],[69,15949],[69,16033],[70.2,16119],[71.9,16204],[72.3,16288],[72.3,16373],[72.3,16458],[72.3,16543],[70.6,16628],[69.8,16712],[69.7,16797],[69.7,16882],[69.7,16967],[69.7,17051],[69.7,17137]]",1,0,2603.134,2606.2306,70.89027263,1.4485,"[{""rating"":70.89027262565766,""responseTime"":1.4484999999999673}]",space,2.5701,,2606.2306,Definitely yes,100,2606.2315,,,[],,0,7,7,7,1,audio/Narrative7Situation7.wav,audio/Narrative8Situation7.wav,audio/Narrative5Situation7.wav,audio/Narrative6Situation7.wav,5,3,4,5,,,,,,,,,,,,,,,,,,,,,,,,,,,,,,,,,,,,,
,,,,,,6074b929f753216d88c77e88,2024-02-08_13h03.18.972,group3.1-3.2-social-tom,2023.2.2,Win32,82.6446281,65c5074098b851296ff0b7ed,65c54182cb8cbf64dc83158b,,,,,,,,,,,,,,,,,,,,,,,,,,,,,2606.2316,1,audio/Narrative7Situation8.wav,2608.2424,,2608.2424,2618.2716,"[[70.8,1872],[70.4,1957],[70.3,2042],[70.1,2127],[70.1,2211],[70.1,2297],[70.1,2381],[70.1,2466],[70.1,2551],[70.1,2636],[69.8,2721],[66.1,2806],[55.8,2891],[52.9,2975],[52.9,3060],[52.9,3145],[52.9,3230],[52.9,3314],[52.9,3399],[52.9,3484],[52.9,3569],[52.9,3654],[52.9,3739],[52.9,3824],[52.9,3909],[52.9,3993],[52.9,4078],[52.9,4164],[52.9,4249],[52.9,4335],[52.9,4418],[52.9,4503],[52.9,4592],[52.9,4673],[52.9,4758],[52.9,4843],[52.9,4929],[52.9,5013],[52.9,5101],[52.9,5181],[52.9,5267],[54.3,5351],[56.4,5435],[57.3,5520],[58.4,5606],[59,5691],[59.7,5775],[60.6,5860],[60.8,5944],[60.8,6030],[60.8,6114],[60.8,6199],[60.8,6284],[60.8,6369],[60.8,6453],[60.8,6539],[60.8,6623],[60.8,6708],[60.8,6793],[60.8,6878],[60.8,6962],[60.8,7047],[60.8,7132],[60.8,7217],[60.8,7302],[60.8,7387],[60.8,7471],[60.8,7556],[60.8,7642],[60.8,7726],[60.8,7811],[60.8,7896],[60.8,7980],[62.4,8066],[66.5,8151],[73.2,8235],[74.8,8320],[78.4,8405],[78.9,8490],[81.5,8574],[85.1,8659],[85.4,8744],[85.4,8829],[85.6,8914],[85.6,8999],[85.6,9083],[85.6,9168],[85.6,9254],[85.6,9338],[85.6,9423],[85.6,9508],[85.6,9592],[85.6,9677],[85.4,9762],[85.1,9847],[84.9,9932],[84.7,10017]]",1,0,2618.2717,2620.9926,88.77392068,1.2909,"[{""rating"":88.77392068017252,""responseTime"":1.2908999999763182}]",space,2.1934,,2620.9926,Not at all,0,2620.994,,,[],,0,8,8,8,1,audio/Narrative7Situation8.wav,audio/Narrative8Situation8.wav,audio/Narrative5Situation8.wav,audio/Narrative6Situation8.wav,2,3,3,5,,,,,,,,,,,,,,,,,,,,,,,,,,,,,,,,,,,,,
,,,,,,6074b929f753216d88c77e88,2024-02-08_13h03.18.972,group3.1-3.2-social-tom,2023.2.2,Win32,82.6446281,65c5074098b851296ff0b7ed,65c54182cb8cbf64dc83158b,,,,,,,,,,,,,,,,,,,,,,,,,,,,,2620.9941,1,audio/Narrative7Situation9.wav,2623.0044,,2623.0044,2631.6402,"[[85.6,1024],[83.5,1108],[74.6,1196],[70.8,1278],[56.1,1448],[56,1533],[56.1,1618],[56.3,1702],[56.3,1787],[56.3,1872],[56.3,1957],[58.2,2042],[61.5,2127],[62.4,2211],[65.9,2297],[68.8,2382],[73.7,2466],[79.3,2551],[82.6,2637],[83.5,2721],[85.1,2806],[86.5,2890],[86.5,2975],[87.7,3060],[87.7,3145],[87.7,3229],[87.7,3314],[87.7,3399],[88.5,3484],[89.1,3569],[89.6,3654],[91.7,3739],[92.5,3823],[92.5,3909],[92.6,3994],[92.6,4078],[93.3,4163],[94.1,4248],[95,4332],[95,4417],[95,4503],[95,4587],[96.8,4672],[96.8,4757],[96.8,4842],[96.8,4927],[96.8,5012],[96.8,5097],[97.1,5181],[97.5,5266],[98.5,5351],[98.5,5435],[98.5,5520],[98.5,5605],[98.5,5690],[99,5775],[99,5860],[99.9,5944],[99.9,6029],[100,6115],[100,6199],[100,6284],[100,6369],[100,6453],[100,6538],[100,6623],[100,6708],[100,6793],[100,6878],[100,6963],[100,7047],[100,7132],[100,7217],[100,7302],[100,7387],[100,7472],[100,7556],[100,7641],[100,7726],[100,7811],[100,7895],[100,7981],[100,8065],[100,8150],[100,8235],[100,8320],[100,8405],[100,8489],[100,8576]]",1,0,2631.6403,2634.7248,99.39476674,1.9813,"[{""rating"":99.3947667386562,""responseTime"":1.9812999999526255}]",space,2.5579,,2634.7249,Partially,50,2634.7263,,,[],,0,9,9,9,1,audio/Narrative7Situation9.wav,audio/Narrative8Situation9.wav,audio/Narrative5Situation9.wav,audio/Narrative6Situation9.wav,2,3,3,4,,,,,,,,,,,,,,,,,,,,,,,,,,,,,,,,,,,,,
,,,,,,6074b929f753216d88c77e88,2024-02-08_13h03.18.972,group3.1-3.2-social-tom,2023.2.2,Win32,82.6446281,65c5074098b851296ff0b7ed,65c54182cb8cbf64dc83158b,,,,,,,,,,,,,,,,,,,,,,,,,,,,,2634.7264,1,audio/Narrative8Situation1.wav,2639.73,,2639.73,2655.6618,"[[100,684],[51.9,1109],[55.4,1193],[52.1,1278],[52.1,1363],[51.9,1447],[51.6,1533],[50.4,1618],[49.9,1702],[49.9,1787],[49.9,1872],[49.9,1957],[49.9,2041],[49.9,2126],[49.9,2211],[49.9,2296],[49.9,2381],[49.9,2466],[49.9,2551],[49.9,2635],[49.9,2721],[49.9,2805],[48,2890],[45.2,2975],[43,3060],[40.1,3145],[39.7,3229],[39.7,3315],[39,3399],[39,3484],[39,3569],[39,3653],[39,3739],[39,3823],[38,3908],[38,3993],[36.4,4078],[31.9,4163],[28,4248],[25.1,4332],[23,4418],[22.8,4502],[21.4,4587],[21.4,4671],[21.4,4756],[19.4,4842],[18.1,4926],[17.8,5011],[17.2,5096],[16.2,5181],[14.5,5265],[13.7,5350],[13.6,5435],[13.6,5520],[13.6,5605],[13.6,5689],[11.9,5775],[9.6,5860],[9.1,5944],[8.2,6030],[7.1,6114],[6.6,6199],[4.5,6284],[4.2,6368],[4.2,6453],[4.2,6538],[4.2,6623],[4.2,6708],[4.2,6792],[4.2,6877],[4.2,6962],[4.2,7047],[4.2,7132],[4.2,7217],[4.2,7301],[4.2,7387],[4.2,7476],[4.2,7556],[4.2,7641],[4.2,7726],[4.2,7810],[4.2,7895],[4.2,7980],[4.2,8065],[4.2,8150],[4.2,8235],[4.2,8320],[4.2,8404],[4.2,8490],[4.2,8574],[4.2,8660],[4.2,8744],[4.2,8829],[4.2,8913],[4.2,8998],[4.2,9083],[4.2,9168],[4.2,9253],[4.2,9338],[4.2,9423],[4.2,9507],[4.2,9592],[9.3,9677],[15.4,9762],[27.5,9847],[33.2,9932],[41.9,10017],[44.4,10101],[45.1,10186],[45.1,10271],[45.1,10356],[45.1,10441],[47.9,10526],[52.2,10610],[53,10695],[55.9,10780],[55.9,10865],[55.9,10950],[55.9,11034],[55.9,11119],[55.9,11204],[55.9,11289],[55.9,11374],[57.6,11460],[59.4,11544],[60.1,11628],[60.1,11713],[60.1,11798],[60.1,11883],[60.5,11969],[61.1,12052],[61.1,12137],[61.1,12222],[61.1,12307],[60.8,12392],[60.7,12477],[60.7,12561],[60.7,12646],[62,12731],[62.4,12816],[62.4,12901],[62.4,12985],[62.4,13071],[62.4,13155],[62.4,13240],[62.4,13326],[62.4,13411],[62.4,13495],[62.4,13580],[62.4,13664],[62.4,13752],[62.4,13834],[62.4,13919],[62.4,14004],[62.4,14089],[62.4,14173],[62.4,14258],[62.4,14343],[62.4,14428],[62.4,14513],[62.4,14597],[62.4,14683],[62.4,14768],[62.4,14852],[62.4,14937],[62.4,15022],[62.4,15106],[62.4,15192],[62.4,15276],[62.4,15362],[62.4,15446],[62.4,15531],[62.4,15616],[62.4,15701],[62.2,15786],[61.6,15871]]",1,0,2655.6619,2659.6912,51.13237108,2.4178,"[{""rating"":51.13237107802544,""responseTime"":2.4178000000715656}]",space,3.5025,,2659.6912,Definitely yes,100,2659.6927,,,[],,0,10,10,10,1,audio/Narrative8Situation1.wav,audio/Narrative7Situation1.wav,audio/Narrative6Situation1.wav,audio/Narrative5Situation1.wav,5,2,2,5,,,,,,,,,,,,,,,,,,,,,,,,,,,,,,,,,,,,,
,,,,,,6074b929f753216d88c77e88,2024-02-08_13h03.18.972,group3.1-3.2-social-tom,2023.2.2,Win32,82.6446281,65c5074098b851296ff0b7ed,65c54182cb8cbf64dc83158b,,,,,,,,,,,,,,,,,,,,,,,,,,,,,2659.6928,1,audio/Narrative8Situation2.wav,2662.7031,,2662.7031,2672.8231,"[[51.9,2642],[43,2727],[40.5,2811],[37.6,2896],[37.6,2981],[37.6,3066],[37.6,3150],[37.6,3235],[37.6,3320],[36.4,3405],[33.7,3490],[31.7,3576],[29.8,3659],[29.8,3744],[29.8,3829],[29.8,3914],[29.8,3999],[29.8,4084],[29.8,4168],[29.8,4254],[26.2,4339],[21.5,4423],[17.4,4508],[13.7,4594],[13.6,4678],[12.4,4763],[11.1,4847],[8.3,4932],[8.3,5017],[8,5102],[5.9,5188],[5.9,5271],[5.9,5356],[5.9,5441],[5.9,5526],[5.9,5612],[5.9,5696],[5.9,5780],[5.9,5865],[5.9,5950],[5.9,6035],[5.9,6120],[5.9,6205],[5.9,6289],[5.9,6375],[5.9,6460],[5.9,6544],[5.9,6629],[5.9,6714],[5.9,6799],[5.9,6883],[5.9,6968],[5.9,7053],[5.9,7138],[5.9,7223],[5.9,7308],[5.9,7393],[5.9,7477],[5.9,7562],[5.9,7647],[5.9,7732],[5.9,7818],[5.9,7902],[5.9,7987],[5.9,8071],[5.9,8156],[5.9,8241],[5.9,8326],[5.9,8411],[5.9,8495],[5.9,8580],[5.9,8665],[5.9,8750],[5.9,8834],[5.9,8919],[5.9,9005],[5.9,9089],[5.9,9174],[5.9,9259],[5.9,9344],[5.9,9428],[5.9,9514],[5.9,9599],[5.9,9683],[5.9,9768],[5.9,9853],[5.9,9938],[5.9,10023],[5.9,10108]]",1,0,2672.8232,2675.2592,0,1.6311,"[{""rating"":0,""responseTime"":1.6311000000237073}]",space,1.9033,,2675.2592,Definitely yes,100,2675.2601,,,[],,0,11,11,11,1,audio/Narrative8Situation2.wav,audio/Narrative7Situation2.wav,audio/Narrative6Situation2.wav,audio/Narrative5Situation2.wav,3,3,3,3,,,,,,,,,,,,,,,,,,,,,,,,,,,,,,,,,,,,,
,,,,,,6074b929f753216d88c77e88,2024-02-08_13h03.18.972,group3.1-3.2-social-tom,2023.2.2,Win32,82.6446281,65c5074098b851296ff0b7ed,65c54182cb8cbf64dc83158b,,,,,,,,,,,,,,,,,,,,,,,,,,,,,2675.2602,1,audio/Narrative8Situation3.wav,2679.2708,,2679.2709,2701.6507,"[[24.2,1285],[22.5,1369],[22.9,1454],[23.3,1538],[23.3,1624],[23.3,1709],[23.3,1793],[23.2,1879],[23.2,1963],[20.5,2048],[18.3,2132],[17.4,2217],[16.7,2302],[14.8,2387],[9.4,2472],[9.4,2557],[9.1,2642],[9.1,2727],[6.6,2812],[5.6,2908],[5.6,2987],[5.6,3072],[5.6,3157],[5.6,3241],[5.6,3326],[5.6,3411],[5.6,3496],[5.6,3581],[5.6,3666],[5.6,3750],[5.6,3835],[5.6,3920],[5.6,4005],[5.6,4090],[5.6,4174],[5.6,4259],[5.6,4344],[5.6,4429],[5.6,4514],[5.6,4599],[5.6,4684],[5.6,4769],[5.6,4854],[5.6,4938],[5.6,5024],[5.6,5108],[5.6,5193],[5.6,5278],[5.6,5362],[5.6,5447],[5.6,5532],[5.6,5617],[5.6,5702],[5.6,5786],[5.6,5871],[5.6,5956],[5.6,6041],[5.6,6126],[5.6,6211],[5.5,6301],[4.9,6381],[4.2,6466],[3.6,6550],[3.5,6635],[3.5,6720],[3.5,6805],[3.5,6890],[3.5,6974],[3.5,7059],[3.5,7145],[3.5,7229],[2.2,7314],[2.2,7399],[2.2,7483],[2.2,7568],[2.2,7653],[2.2,7738],[2.2,7822],[1.9,7907],[1.9,7992],[1.2,8077],[1,8162],[0.8,8247],[0.8,8332],[0.8,8416],[0.8,8501],[0.8,8586],[0.8,8672],[0.3,8756],[0.3,8841],[0.2,8925],[0.2,9010],[0.2,9095],[0.2,9180],[0.2,9265],[0.2,9350],[0.2,9434],[0.2,9520],[0.2,9604],[0.2,9689],[0.2,9774],[0.2,9859],[0.2,9944],[0.2,10029],[0.2,10114],[0.2,10198],[0.2,10283],[0.2,10368],[0.2,10453],[0.2,10538],[0.2,10623],[0.2,10707],[0.2,10792],[0.2,10877],[0.2,10962],[0.2,11047],[0.2,11131],[0.2,11216],[0.2,11301],[0.2,11386],[0.2,11471],[0.2,11556],[0.2,11640],[0.2,11725],[0.2,11810],[0.2,11895],[0.2,11980],[0.2,12065],[0.2,12150],[0.2,12234],[0.2,12319],[0.2,12404],[0.2,12489],[0.2,12573],[0.2,12658],[0.2,12743],[0.2,12828],[0.2,12913],[0.2,12998],[0.2,13083],[0.2,13168],[0.2,13252],[0.2,13337],[0.2,13422],[0.2,13507],[0.2,13592],[0.2,13677],[0.2,13761],[0.2,13847],[0.2,13931],[0.2,14016],[0.2,14101],[0.2,14185],[0.2,14270],[0.2,14355],[0.2,14440],[0.2,14525],[0.2,14610],[0.2,14694],[0.2,14780],[0.2,14864],[0.2,14949],[0.2,15034],[0.2,15119],[0.2,15204],[0.2,15289],[0.2,15373],[0.2,15458],[0.2,15543],[0.2,15628],[0.2,15713],[0.2,15798],[0.2,15883],[0.2,15967],[0.2,16056],[0.2,16137],[0.2,16221],[0.2,16307],[0.2,16392],[0.2,16476],[0.2,16561],[0.2,16646],[0.2,16731],[0.2,16815],[0.2,16901],[0.2,16986],[0.2,17070],[0.2,17155],[0.2,17240],[0.2,17324],[0.2,17409],[0.2,17495],[0.2,17579],[0.2,17664],[0.2,17749],[0.2,17834],[0.2,17919],[0.2,18004],[0.2,18088],[0.2,18173],[0.2,18258],[0.2,18342],[0.2,18427],[0.2,18512],[0.2,18598],[0.2,18682],[0.2,18767],[0.2,18851],[0.2,18936],[0.2,19022],[0.2,19106],[0.2,19192],[0.2,19276],[0.2,19363],[0.2,19445],[0.2,19530],[0.2,19616],[0.2,19700],[0.2,19785],[0.2,19870],[0.2,19955],[0.2,20040],[0.2,20125],[0.2,20210],[0.2,20294],[0.2,20379],[0.2,20464],[0.2,20549],[0.2,20634],[0.2,20719],[0.2,20803],[0.2,20888],[0.2,20972],[0.2,21058],[0.2,21142],[0.2,21228],[0.2,21312],[0.2,21397],[0.2,21481],[0.2,21566],[0.2,21651],[0.2,21737],[0.2,21822],[0.2,21906],[0.2,21990],[0.2,22076],[0.8,22161],[1.7,22245],[3,22330]]",1,0,2701.6509,2704.7165,0,2.2057,"[{""rating"":0,""responseTime"":2.2056999999285836}]",space,2.5394,,2704.7166,Partially,50,2704.7179,,,[],,0,12,12,12,1,audio/Narrative8Situation3.wav,audio/Narrative7Situation3.wav,audio/Narrative6Situation3.wav,audio/Narrative5Situation3.wav,4,8,5,3,,,,,,,,,,,,,,,,,,,,,,,,,,,,,,,,,,,,,
,,,,,,6074b929f753216d88c77e88,2024-02-08_13h03.18.972,group3.1-3.2-social-tom,2023.2.2,Win32,82.6446281,65c5074098b851296ff0b7ed,65c54182cb8cbf64dc83158b,,,,,,,,,,,,,,,,,,,,,,,,,,,,,2704.7181,1,audio/Narrative8Situation4.wav,2707.722,,2707.722,2721.9025,"[[999,5],[999,90],[999,176],[999,260],[999,345],[999,430],[999,515],[999,600],[999,685],[999,769],[999,854],[999,938],[999,1024],[999,1109],[999,1194],[999,1279],[999,1364],[999,1448],[999,1533],[999,1618],[999,1702],[999,1787],[999,1872],[999,1957],[999,2042],[999,2128],[999,2212],[999,2297],[999,2398],[9.9,2491],[9.4,2575],[9.5,2648],[10.4,2733],[12.6,2817],[16,2903],[18.8,2987],[18.8,3072],[18.8,3157],[18.8,3241],[18.8,3327],[18.8,3411],[18.8,3496],[18.8,3581],[18.8,3666],[18.8,3750],[16,3836],[13.6,3921],[11.2,4005],[10.6,4090],[9,4175],[8.9,4260],[8.7,4345],[8.5,4429],[8,4514],[8,4599],[8,4684],[8,4769],[8,4854],[8,4939],[8,5023],[8,5109],[8,5193],[8,5278],[8,5363],[8,5448],[8,5533],[8,5617],[8,5702],[8,5787],[8,5871],[8,5957],[8,6041],[7.3,6126],[6.1,6211],[4.7,6296],[4.7,6380],[4.7,6465],[4.7,6550],[4.7,6635],[4.7,6720],[4.7,6805],[4.7,6889],[4.7,6974],[4.7,7060],[4.7,7144],[4.7,7229],[4.7,7314],[4.7,7398],[4.7,7483],[4.7,7568],[4.7,7658],[4.7,7738],[4.7,7823],[4.7,7908],[4.7,7992],[4.7,8078],[4.8,8163],[4.8,8247],[4.8,8332],[4.8,8417],[4.8,8502],[4.8,8586],[4.8,8671],[4.8,8756],[4.8,8841],[4.8,8925],[4.8,9011],[4.8,9096],[4.8,9180],[4.8,9266],[5,9350],[5,9435],[5,9519],[5,9605],[5.8,9689],[6.7,9775],[7.6,9859],[14.7,9944],[23.1,10030],[33.1,10114],[42.6,10199],[48.4,10284],[51.6,10369],[53.7,10453],[58.2,10538],[58.7,10623],[58.7,10707],[58.7,10792],[58.7,10878],[58.7,10962],[58.7,11047],[58.7,11132],[58.7,11216],[58.7,11301],[58.7,11387],[58.7,11471],[58.7,11556],[58.7,11641],[58.7,11726],[58.7,11810],[58.7,11895],[58.7,11980],[58.7,12065],[58.7,12150],[58.7,12235],[58.7,12319],[58.7,12404],[60.5,12491],[62.2,12581],[64.8,12665],[66.6,12750],[68.7,12835],[69.7,12920],[70.1,13004],[70.1,13090],[71.6,13174],[72.8,13259],[73.5,13343],[73.9,13429],[74.4,13514],[74.4,13598],[75.6,13684],[76,13768],[76,13852],[76,13937],[76,14022],[76,14107]]",1,0,2721.9025,2728.9384,69.40648206,1.6661,"[{""rating"":69.40648205632253,""responseTime"":1.6661000000235617}]",space,6.5079,,2728.9385,Partially,50,2728.9448,,,[],,0,13,13,13,1,audio/Narrative8Situation4.wav,audio/Narrative7Situation4.wav,audio/Narrative6Situation4.wav,audio/Narrative5Situation4.wav,3,3,2,1,,,,,,,,,,,,,,,,,,,,,,,,,,,,,,,,,,,,,
,,,,,,6074b929f753216d88c77e88,2024-02-08_13h03.18.972,group3.1-3.2-social-tom,2023.2.2,Win32,82.6446281,65c5074098b851296ff0b7ed,65c54182cb8cbf64dc83158b,,,,,,,,,,,,,,,,,,,,,,,,,,,,,2728.9449,1,audio/Narrative8Situation5.wav,2730.9501,,2730.9501,2739.1977,"[[63.3,2127],[60.5,2211],[56,2296],[54.8,2381],[52.6,2467],[52.6,2550],[53.3,2639],[56.2,2721],[59.1,2806],[62.9,2890],[68.8,2976],[76.5,3060],[77.6,3144],[78.6,3229],[80.5,3314],[83.7,3399],[84.7,3484],[84.7,3569],[84.9,3654],[85.4,3738],[86.1,3823],[86.1,3908],[86.1,3993],[86.1,4078],[86.1,4162],[87.1,4247],[87.7,4332],[87.7,4416],[87.7,4502],[87.7,4587],[87.8,4671],[87.8,4757],[87.8,4842],[87.8,4926],[88.7,5011],[89.7,5096],[89.7,5181],[89.7,5265],[89.7,5351],[90.1,5435],[90.3,5520],[91,5605],[91.5,5690],[91.9,5774],[92.2,5860],[92.4,5944],[92.6,6029],[92.6,6114],[92.6,6199],[92.6,6283],[92.6,6368],[92.6,6453],[92.6,6538],[92.6,6623],[92.6,6708],[92.6,6792],[92.6,6878],[92.6,6962],[92.7,7047],[94.5,7132],[95.5,7217],[96.2,7302],[96.4,7386],[96.5,7471],[96.9,7555],[96.9,7641],[96.9,7727],[97.3,7811],[97.6,7895],[97.6,7980],[97.6,8065],[97.6,8150],[98.3,8235]]",1,0,2739.1977,2756.929,97.28621547,2.4845,"[{""rating"":97.28621547192964,""responseTime"":2.4845000000000255}]",space,17.1985,,2756.929,Definitely yes,100,2756.9358,,,[],,0,14,14,14,1,audio/Narrative8Situation5.wav,audio/Narrative7Situation5.wav,audio/Narrative6Situation5.wav,audio/Narrative5Situation5.wav,2,5,2,5,,,,,,,,,,,,,,,,,,,,,,,,,,,,,,,,,,,,,
,,,,,,6074b929f753216d88c77e88,2024-02-08_13h03.18.972,group3.1-3.2-social-tom,2023.2.2,Win32,82.6446281,65c5074098b851296ff0b7ed,65c54182cb8cbf64dc83158b,,,,,,,,,,,,,,,,,,,,,,,,,,,,,2756.936,1,audio/Narrative8Situation6.wav,2758.9404,,2758.9405,2765.4187,"[[96.1,2981],[96.1,3060],[93.8,3145],[88.3,3230],[73.9,3315],[66.9,3399],[58.6,3484],[55.5,3569],[55.5,3654],[55.5,3739],[55.5,3823],[55.5,3909],[55.5,3993],[55.5,4078],[55.5,4163],[55.5,4248],[55.5,4332],[55.5,4417],[55.5,4502],[55.8,4587],[59.1,4673],[59.4,4756],[59.4,4841],[59.4,4926],[59.4,5011],[59.4,5096],[59.4,5181],[59.4,5265],[59.4,5350],[59.4,5435],[59.4,5520],[59.4,5605],[59.4,5690],[59.4,5774],[59.4,5860],[59.4,5944],[59.4,6029],[59.4,6114],[59.4,6199],[59.4,6283],[59.4,6369],[59.4,6453]]",1,0,2765.4188,2767.3761,66.28270002,1.1693,"[{""rating"":66.28270001865802,""responseTime"":1.1692999999527274}]",space,1.4303,,2767.3761,Definitely yes,100,2767.3769,,,[],,0,15,15,15,1,audio/Narrative8Situation6.wav,audio/Narrative7Situation6.wav,audio/Narrative6Situation6.wav,audio/Narrative5Situation6.wav,2,3,2,3,,,,,,,,,,,,,,,,,,,,,,,,,,,,,,,,,,,,,
,,,,,,6074b929f753216d88c77e88,2024-02-08_13h03.18.972,group3.1-3.2-social-tom,2023.2.2,Win32,82.6446281,65c5074098b851296ff0b7ed,65c54182cb8cbf64dc83158b,,,,,,,,,,,,,,,,,,,,,,,,,,,,,2767.3771,1,audio/Narrative8Situation7.wav,2770.3815,,2770.3815,2782.4711,"[[66.8,600],[65.4,685],[59.4,1194],[64.7,1364],[69.3,1448],[69.7,1533],[70.2,1618],[70.2,1702],[68.7,1788],[61.5,1873],[51.1,1957],[45.3,2042],[37.6,2127],[30.5,2212],[25.1,2297],[25.1,2381],[24.4,2466],[18.1,2551],[17.3,2636],[13.8,2721],[13.9,2805],[13.9,2890],[13.9,2976],[13.9,3060],[14.9,3145],[16,3230],[16,3315],[16,3399],[16,3484],[16,3569],[16,3654],[16,3738],[16,3823],[16,3908],[16,3993],[16,4079],[16,4163],[16,4248],[16,4332],[16,4417],[16,4502],[16,4587],[16,4672],[16,4757],[16,4841],[16,4926],[16,5011],[16,5096],[16,5181],[16,5266],[16,5350],[16,5435],[16,5520],[16,5605],[16,5690],[16,5775],[16,5860],[16,5945],[16,6029],[16.2,6114],[16.2,6199],[16.2,6284],[16.2,6369],[16.2,6453],[16.2,6540],[16.2,6623],[16.2,6708],[16.2,6793],[16.2,6878],[16.2,6962],[16.2,7047],[16.2,7132],[16.2,7217],[16.2,7302],[16.2,7387],[16.2,7471],[16.2,7556],[16.2,7641],[16.2,7726],[16.2,7812],[16.2,7896],[16.2,7980],[16.2,8065],[16.2,8150],[16.2,8235],[16.2,8320],[16.2,8406],[16.2,8490],[16.2,8575],[16.2,8659],[16.2,8744],[16.2,8830],[15.5,8914],[14.4,8999],[13.3,9084],[11.7,9169],[11.2,9253],[10.1,9338],[9.9,9423],[9.9,9508],[9,9592],[8.7,9678],[7.8,9762],[7,9848],[6.6,9932],[6.1,10017],[6.1,10101],[5.2,10187],[5.2,10271],[5.2,10356],[4.4,10441],[4.2,10526],[4.2,10610],[4.2,10695],[4.2,10806],[4.2,10896],[4.2,10986],[4.2,11071],[4.2,11156],[4.2,11242],[4.2,11326],[4.2,11410],[4.2,11496],[4.2,11580],[4.2,11665],[4.2,11750],[4.2,11835],[4.2,11920],[4.2,12005],[4.2,12089]]",1,0,2782.4712,2784.6104,1.620461172,1.4359,"[{""rating"":2.635688368431804,""responseTime"":1.04879999995228},{""rating"":1.6204611723760087,""responseTime"":1.4358999999763}]",space,1.6125,,2784.6105,Definitely yes,100,2784.6113,,,[],,0,16,16,16,1,audio/Narrative8Situation7.wav,audio/Narrative7Situation7.wav,audio/Narrative6Situation7.wav,audio/Narrative5Situation7.wav,3,5,5,4,,,,,,,,,,,,,,,,,,,,,,,,,,,,,,,,,,,,,
,,,,,,6074b929f753216d88c77e88,2024-02-08_13h03.18.972,group3.1-3.2-social-tom,2023.2.2,Win32,82.6446281,65c5074098b851296ff0b7ed,65c54182cb8cbf64dc83158b,,,,,,,,,,,,,,,,,,,,,,,,,,,,,2784.6114,1,audio/Narrative8Situation8.wav,2787.6159,,2787.6159,2800.4697,"[[999,5],[999,91],[999,175],[999,260],[999,346],[999,430],[999,515],[999,600],[999,684],[999,770],[999,855],[999,939],[999,1024],[999,1109],[24,1194],[29,1278],[29,1363],[26.9,1449],[25.8,1533],[23.7,1618],[22.5,1703],[21.5,1788],[20.1,1873],[17.9,1958],[17.1,2042],[16.9,2126],[16.9,2211],[16.9,2296],[16.9,2381],[16.9,2466],[16.9,2551],[16.9,2635],[16.9,2721],[16.9,2806],[16.9,2891],[16.9,2975],[16.9,3060],[16.9,3145],[16.9,3230],[16.9,3314],[16.9,3399],[16.9,3484],[16.9,3569],[16.9,3654],[16.9,3739],[16.9,3823],[16.9,3908],[16.9,3993],[16.9,4078],[16.9,4163],[16.9,4247],[16.9,4332],[16.9,4417],[16.9,4502],[16.9,4587],[16.9,4672],[16.9,4757],[16.9,4842],[16.9,4926],[16.9,5011],[16.9,5096],[16.9,5181],[16.9,5266],[16.9,5351],[16.9,5435],[16.9,5520],[16.9,5605],[16.9,5690],[16.9,5776],[16.9,5859],[16.9,5944],[16.9,6029],[16.9,6114],[16.9,6199],[16.9,6284],[16.9,6369],[16.9,6454],[16.9,6538],[16.9,6623],[16.9,6708],[16.6,6793],[15.5,6878],[15.1,6962],[14.4,7048],[13.7,7132],[12.7,7217],[12.4,7302],[12.4,7387],[12.4,7471],[12.4,7556],[12.4,7641],[11.9,7726],[11,7811],[10.3,7896],[9.9,7981],[9.8,8066],[9.8,8151],[9.8,8235],[9.8,8320],[9.8,8406],[9.8,8490],[9.8,8574],[9.8,8659],[9.9,8744],[10,8829],[10,8914],[10,8999],[10,9083],[10,9168],[10,9253],[10,9338],[10,9423],[10,9510],[10,9593],[10,9677],[10,9762],[10,9847],[10,9932],[10,10017],[10.5,10102],[10.8,10186],[11.2,10271],[11.3,10356],[11.3,10441],[11.6,10526],[12.1,10611],[12.3,10695],[12.3,10780],[12.8,10866],[13.9,10950],[14.4,11036],[14.7,11120],[14.7,11205],[14.7,11289],[14.7,11375],[14.7,11459],[14.7,11544],[14.7,11629],[14.7,11713],[14.7,11798],[15.1,11884],[15.8,11972],[16.3,12053],[17.2,12138],[18,12222],[18.3,12307],[18.4,12392],[18.4,12477],[19,12562],[20,12647],[20.9,12732],[21.6,12817]]",1,0,2800.4698,2802.8268,21.61265334,1.4354,"[{""rating"":21.61265334385321,""responseTime"":1.4353999999757434}]",space,1.8305,,2802.8268,Not at all,0,2802.8282,,,[],,0,17,17,17,1,audio/Narrative8Situation8.wav,audio/Narrative7Situation8.wav,audio/Narrative6Situation8.wav,audio/Narrative5Situation8.wav,3,2,5,3,,,,,,,,,,,,,,,,,,,,,,,,,,,,,,,,,,,,,
,,,,,,6074b929f753216d88c77e88,2024-02-08_13h03.18.972,group3.1-3.2-social-tom,2023.2.2,Win32,82.6446281,65c5074098b851296ff0b7ed,65c54182cb8cbf64dc83158b,,,,,,,,,,,,,,,,,,,,,,,,,,,,,2802.8283,1,audio/Narrative8Situation9.wav,2805.832,,2805.832,2817.1581,"[[24,2466],[24,2551],[24,2636],[24,2720],[24,2805],[24,2890],[24,2975],[24,3060],[24,3144],[24,3230],[23.4,3315],[22.7,3399],[21.5,3485],[20.2,3569],[20,3654],[19.7,3739],[19,3824],[19,3908],[19.1,3993],[20.5,4078],[21.2,4163],[22.8,4248],[24.5,4333],[25.2,4418],[26.2,4502],[26.4,4587],[27.1,4672],[28.3,4758],[29.2,4841],[29.4,4927],[29.4,5011],[29.4,5096],[29.4,5180],[29.4,5266],[29.4,5350],[29.4,5435],[29.4,5520],[29.4,5605],[29.4,5690],[29.4,5780],[29.4,5860],[29.4,5945],[29.4,6030],[29.4,6114],[29.4,6199],[28.8,6285],[28.1,6369],[28.1,6454],[28.1,6539],[25.5,6624],[25.3,6708],[25.3,6793],[25.3,6878],[25.3,6963],[25.3,7047],[25.4,7132],[25.4,7217],[25.9,7302],[26.2,7387],[26.4,7472],[26.8,7557],[27,7641],[27.3,7726],[27.7,7811],[28,7896],[28.4,7982],[29.2,8065],[29.8,8150],[29.8,8235],[29.8,8320],[30.1,8405],[30.4,8490],[30.8,8574],[31.1,8660],[31.9,8744],[32.6,8829],[32.9,8914],[32.9,8999],[32.9,9084],[32.9,9168],[32.9,9253],[32.9,9338],[32.9,9423],[32.9,9508],[32.8,9593],[32.8,9677],[32.8,9762],[32.8,9847],[32.8,9932],[32.8,10017],[32.8,10102],[32.6,10186],[32.3,10274],[32.2,10357],[32.2,10441],[32.2,10526],[32.2,10610],[31.9,10696],[31.7,10780],[31.2,10866],[30.5,10950],[29.6,11035],[29,11120],[28.4,11205],[26.9,11290]]",1,0,2817.1582,2819.4428,16.69270039,1.5452,"[{""rating"":16.69270038815783,""responseTime"":1.545200000047771}]",space,1.7577,,2819.4428,Not at all,0,2819.4438,,,[],,0,18,18,18,1,audio/Narrative8Situation9.wav,audio/Narrative7Situation9.wav,audio/Narrative6Situation9.wav,audio/Narrative5Situation9.wav,3,2,4,3,,,,,,,,,,,,,,,,,,,,,,,,,,,,,,,,,,,,,
,,,,,,6074b929f753216d88c77e88,2024-02-08_13h03.18.972,group3.1-3.2-social-tom,2023.2.2,Win32,82.6446281,65c5074098b851296ff0b7ed,65c54182cb8cbf64dc83158b,,,,,,,,,,,,,,,,,,,,,,,,,,,2848.931,2851.5117,2851.5246,2,audio/Narrative13Situation2.wav,2851.5247,,2851.5247,2881.2724,"[[999,0],[999,77],[999,163],[40.4,248],[55.2,332],[55.2,417],[55.2,502],[51.3,587],[47.6,673],[47.3,756],[50,842],[50.2,926],[50.2,1010],[50.2,1096],[50.2,1181],[50.2,1270],[50.2,1350],[50.2,1435],[50.2,1520],[50.2,1604],[50.2,1690],[50.2,1774],[50.2,1859],[50.2,1944],[50.2,2029],[50.2,2114],[49,2198],[47.4,2284],[47.3,2368],[46.9,2454],[46.2,2538],[46.2,2623],[44.7,2708],[43.1,2794],[40.5,2878],[35.6,2962],[32.2,3047],[31.9,3131],[31.7,3217],[30.2,3302],[29.4,3386],[29.4,3471],[29,3556],[28.1,3641],[27.6,3726],[27.4,3811],[25.4,3895],[24.8,3980],[24.1,4065],[23.3,4150],[22.7,4235],[22.7,4320],[22.7,4404],[22.7,4489],[22.7,4574],[22.7,4659],[22.7,4744],[22.8,4829],[22.8,4914],[22.8,4998],[22.8,5083],[22.8,5168],[22.8,5252],[22.7,5338],[22.6,5422],[22.5,5508],[18.3,5592],[15.5,5678],[15.2,5762],[13.4,5847],[13.4,5931],[13.4,6016],[13.4,6101],[13.4,6186],[12.9,6271],[12.7,6356],[12.7,6440],[12.5,6526],[12.1,6610],[12.1,6695],[12.1,6780],[12.1,6865],[12.1,6949],[12.1,7034],[12.1,7120],[12.1,7204],[12.1,7289],[12.1,7373],[12,7458],[12,7543],[12,7629],[12,7713],[12,7798],[12,7883],[12,7967],[12,8052],[11,8137],[10.4,8222],[10.4,8307],[10.4,8391],[10.4,8477],[10.4,8561],[10.4,8646],[10.4,8731],[10.4,8816],[10.4,8900],[10.4,8986],[10.6,9071],[15.5,9155],[43.4,9243],[57.6,9325],[64.8,9411],[65,9495],[67.9,9580],[68.7,9664],[70.7,9750],[70.7,9834],[70.7,9919],[70.7,10004],[70.7,10088],[70.7,10173],[70.7,10258],[70.7,10344],[70.7,10428],[70.7,10512],[70.7,10598],[70.7,10682],[70.7,10767],[70.7,10852],[71.1,10938],[71.6,11022],[72.6,11107],[74.1,11192],[76.1,11277],[77.9,11361],[79.3,11446],[80.9,11532],[81.5,11616],[83,11701],[84.9,11785],[86.6,11870],[87.3,11955],[88.2,12040],[89.3,12125],[89.9,12213],[89.9,12294],[89.9,12379],[89.9,12464],[89.9,12549],[89.9,12633],[89.9,12719],[89.9,12803],[89.9,12888],[89.9,12974],[90.3,13058],[91.1,13143],[93.8,13228],[94.3,13312],[95.4,13397],[98.5,13482],[98.6,13567],[98.6,13652],[98.6,13736],[98.6,13821],[98.6,13906],[98.6,13991],[98.7,14076],[99.3,14161],[99.3,14245],[99.3,14330],[99.3,14415],[99.3,14500],[99.3,14585],[99.3,14670],[99.3,14755],[99.3,14839],[99.3,14924],[99.3,15009],[99.3,15094],[99.3,15179],[99.3,15264],[99.3,15349],[99.3,15433],[99.3,15518],[99.3,15603],[99.3,15688],[99.3,15772],[99.3,15858],[99.3,15942],[99.3,16027],[99.3,16112],[99.3,16197],[99.3,16281],[99.3,16367],[99.2,16451],[99.2,16536],[99.2,16621],[99.2,16706],[99.2,16790],[99.2,16876],[98.5,16961],[97.9,17045],[97.5,17130],[97,17216],[96.5,17300],[96.4,17385],[95.9,17469],[95.9,17554],[95.9,17639],[95.4,17724],[95.4,17809],[95.4,17893],[95.4,17978],[94.7,18064],[93.3,18148],[91.9,18234],[91.4,18318],[91.2,18403],[91.2,18487],[91.2,18573],[91.2,18657],[91.2,18742],[91.2,18827],[90,18912],[87.9,18998],[86.3,19081],[85.6,19166],[85.6,19251],[85.6,19336],[85.6,19421],[85.6,19505],[85.1,19591],[84.9,19676],[84.6,19760],[84.4,19845],[84.1,19930],[83.5,20015],[82.9,20100],[81.8,20184],[79,20269],[76,20355],[73.6,20439],[71.5,20524],[71.3,20609],[71,20694],[70.1,20778],[67.6,20863],[65.1,20949],[60.1,21033],[58.7,21118],[57.2,21202],[55.1,21287],[54.7,21372],[53.5,21458],[53.3,21541],[52.9,21627],[50.9,21712],[50.7,21796],[50.7,21881],[50.7,21966],[50.7,22051],[50.7,22136],[50.7,22221],[50.7,22305],[50.7,22390],[50.7,22475],[50.7,22560],[50.7,22645],[50.7,22729],[50.7,22814],[50.7,22899],[50.7,22984],[50.7,23069],[50.7,23154],[50.7,23239],[50.7,23323],[50.7,23409],[50.7,23493],[50.7,23578],[50.7,23663],[50.7,23747],[50.7,23832],[50.7,23917],[50.7,24002],[50.4,24086],[50.4,24172],[50.4,24257],[50.4,24342],[50.4,24426],[50.4,24511],[50.4,24596],[50.9,24681],[50.9,24766],[50.9,24850],[50.9,24935],[50.9,25020],[50.9,25105],[50.9,25190],[50.9,25275],[50.9,25360],[51.7,25445],[55.7,25529],[57.6,25615],[57.6,25698],[57.6,25784],[60.1,25869],[66.2,25954],[67.1,26038],[70.1,26123],[72.1,26208],[73,26293],[75.1,26378],[75.4,26462],[75.8,26547],[76.5,26632],[76.5,26717],[76.5,26802],[76.5,26887],[76.5,26971],[76.5,27057],[76.5,27141],[76.5,27226],[76.5,27311],[76.5,27396],[76.5,27480],[76.5,27565],[76.5,27650],[76.5,27735],[76.5,27820],[76.5,27905],[76.5,27990],[76.5,28075],[76.5,28159],[76.5,28244],[76.5,28329],[76.5,28414],[76.5,28498],[76.5,28583],[76.5,28668],[76.5,28753],[76.5,28838],[76.5,28923],[76.5,29007],[76.5,29092],[76.5,29177],[76.5,29262],[76.5,29347],[76.5,29432],[76.5,29516],[76.5,29601],[76.5,29686]]",1,0,2881.2725,2881.2735,,,[],,,,2881.2735,Definitely yes,100,2881.2745,,,[],,0,0,0,0,1,audio/Narrative13Situation2.wav,audio/Narrative13Situation2.wav,audio/Narrative13Situation2.wav,audio/Narrative13Situation2.wav,2,2,2,2,,,,,2819.4443,2848.9308,space,28.9667,,,,,,,,,,,,,,,,,,,,,,,,,,,,,
,,,,,,6074b929f753216d88c77e88,2024-02-08_13h03.18.972,group3.1-3.2-social-tom,2023.2.2,Win32,82.6446281,65c5074098b851296ff0b7ed,65c54182cb8cbf64dc83158b,,,,,,,,,,,,,,,,,,,,,,,,,,,,,2881.2746,2,audio/Narrative5Situation1.wav,2886.2839,,2886.2839,2899.5674,"[[84.2,1115],[81.5,1200],[78,1285],[68,1369],[64.9,1454],[60.2,1539],[60.2,1623],[53.5,1708],[48.6,1793],[48.6,1878],[49.1,1963],[49.4,2048],[49.4,2132],[49.3,2217],[49.3,2302],[42.7,2387],[39,2471],[33.6,2557],[28,2641],[21.5,2726],[16.2,2813],[10.8,2896],[10.8,2980],[10.8,3065],[9.8,3150],[7,3236],[6.8,3320],[5.6,3405],[1.9,3490],[1.9,3574],[1.9,3659],[1.9,3744],[2.4,3832],[2.4,3914],[2.4,3998],[2.4,4083],[2.4,4168],[2.4,4253],[2.4,4338],[2.4,4423],[2.4,4507],[2.4,4592],[2.4,4677],[2.4,4762],[2.4,4847],[2.4,4933],[2.4,5017],[2.4,5101],[2.4,5187],[2.4,5271],[2.4,5356],[2.4,5441],[2.4,5531],[2.4,5610],[2.4,5695],[2.4,5780],[2.4,5865],[2.4,5950],[2.4,6035],[2.4,6119],[2.4,6205],[2.4,6290],[2.4,6374],[2.4,6459],[2.4,6544],[2.4,6628],[2.4,6714],[2.4,6798],[2.4,6883],[2.4,6968],[2.4,7053],[2.4,7138],[2.4,7222],[2.4,7307],[2.4,7394],[2.4,7477],[2.4,7562],[2.1,7648],[1.7,7732],[1.7,7817],[1.7,7901],[1.7,7986],[1.7,8071],[1.7,8156],[1.7,8241],[1.7,8326],[1.7,8410],[1.7,8495],[1.7,8580],[1.7,8665],[1.7,8750],[1.7,8835],[1.7,8920],[1.7,9005],[1.7,9089],[1.7,9174],[1.7,9259],[1.7,9344],[1.7,9428],[1.7,9513],[1.7,9598],[1.7,9683],[1.7,9768],[1.7,9853],[1.7,9938],[1.7,10022],[1.7,10108],[1.7,10192],[1.7,10277],[1.7,10362],[1.7,10447],[1.7,10532],[1.7,10616],[1.7,10701],[1.7,10786],[1.7,10871],[1.7,10955],[1.7,11041],[1.7,11125],[1.7,11210],[1.7,11295],[1.7,11380],[1.7,11465],[1.7,11550],[1.7,11634],[1.7,11719],[1.7,11804],[1.7,11888],[1.7,11975],[1.7,12058],[1.7,12143],[1.7,12228],[1.7,12313],[1.7,12397],[1.7,12482],[1.7,12568],[1.7,12652],[1.7,12737],[1.7,12822],[1.7,12907],[1.7,12991],[1.7,13077],[1.7,13161],[1.7,13247]]",1,0,2899.5675,2903.4513,0,3.0306,"[{""rating"":0,""responseTime"":3.0306000000236963}]",space,3.3575,,2903.4513,Partially,50,2903.4526,,,[],,0,1,1,1,1,audio/Narrative7Situation1.wav,audio/Narrative8Situation1.wav,audio/Narrative5Situation1.wav,audio/Narrative6Situation1.wav,2,5,5,2,,,,,,,,,,,,,,,,,,,,,,,,,,,,,,,,,,,,,
,,,,,,6074b929f753216d88c77e88,2024-02-08_13h03.18.972,group3.1-3.2-social-tom,2023.2.2,Win32,82.6446281,65c5074098b851296ff0b7ed,65c54182cb8cbf64dc83158b,,,,,,,,,,,,,,,,,,,,,,,,,,,,,2903.4528,2,audio/Narrative5Situation2.wav,2906.4569,,2906.4571,2935.9253,"[[37.4,4981],[38.6,5066],[38.6,5150],[37.8,5236],[26.2,5321],[20.9,5410],[11.9,5490],[10.6,5575],[10.3,5659],[10.1,5744],[7.5,5829],[7.3,5914],[7.3,5999],[6.2,6084],[6.2,6169],[6.2,6254],[6.2,6338],[6.2,6423],[6.2,6508],[6.2,6593],[6.2,6677],[6.2,6762],[6.2,6847],[6.2,6933],[6.2,7017],[6.1,7102],[5.6,7187],[5.5,7271],[5.5,7359],[5.5,7437],[5.2,7521],[4.9,7606],[4.8,7685],[4.8,7770],[4.8,7841],[4.2,7926],[4.1,8011],[3.8,8095],[3.7,8180],[3.5,8265],[3.3,8350],[3.3,8429],[3.3,8513],[2.9,8599],[2.3,8684],[2.1,8768],[1.5,8853],[1.2,8939],[1.2,9023],[1.2,9108],[0.8,9193],[0.8,9277],[0.8,9362],[0.8,9447],[0.8,9531],[0.8,9617],[0.8,9701],[1.7,9786],[2.6,9871],[2.9,9956],[2.9,10040],[2.9,10126],[3.1,10210],[3.1,10295],[3.1,10380],[3.1,10465],[3.1,10550],[3.1,10635],[3.1,10719],[3.1,10804],[3.1,10889],[3.1,10974],[3.1,11059],[3.1,11143],[3.1,11229],[3.1,11313],[3.1,11398],[3.1,11483],[3.1,11568],[3.1,11652],[3.1,11738],[3.1,11822],[3.1,11907],[3.1,11992],[3.1,12077],[3.1,12162],[3.1,12246],[3.1,12331],[3.1,12416],[3.1,12501],[3.1,12586],[3.1,12673],[3.1,12756],[3.1,12840],[3.1,12925],[3.1,13010],[3.1,13095],[3.1,13180],[3.1,13265],[3.1,13349],[3.1,13435],[2.9,13519],[2.4,13604],[2.2,13689],[2.2,13774],[2.2,13858],[2.2,13943],[2.2,14028],[2.2,14113],[2.2,14198],[2.2,14282],[2.2,14367],[2.2,14453],[2.2,14537],[2.2,14622],[2.2,14707],[2.2,14792],[2.2,14877],[2.2,14962],[2.2,15041],[2.2,15126],[2.2,15212],[2.2,15296],[2.2,15375],[2.2,15457],[2.2,15537],[2.2,15622],[2.2,15707],[2.2,15792],[2.2,15876],[2.2,15961],[0.8,16048],[0.7,16114],[0.7,16193],[0.7,16260],[0.7,16332],[0.7,16400],[0.7,16465],[0.7,16538],[0.7,16616],[0.7,16701],[0.7,16786],[0.7,16870],[0.7,16955],[0.7,17040],[0.7,17125],[0.7,17210],[0.7,17294],[0.7,17379],[0.7,17464],[0.7,17549],[0.7,17634],[0.7,17719],[0.7,17804],[0.7,17888],[0.7,17973],[0.7,18058],[0.7,18143],[0.7,18228],[0.7,18312],[0.7,18399],[0.7,18482],[0.7,18567],[0.7,18652],[0.7,18737],[0.7,18821],[0.7,18906],[0.7,18991],[0.5,27815],[1.3,27899],[1.3,27984],[1.3,28069],[0.9,28154],[0.5,28239],[0.3,28323],[0.3,28408],[0.3,28493],[0.3,28578],[0.3,28663],[0.3,28748],[0.3,28833],[0.3,28918],[0.3,29002],[0.3,29087],[0.3,29173],[0.3,29257],[0.3,29342],[0.3,29426]]",1,0,2935.9255,2938.1325,0.370946927,1.1522,"[{""rating"":0.3709469273573629,""responseTime"":1.152200000047742}]",space,1.6731,,2938.1325,Partially,50,2938.1334,,,[],,0,2,2,2,1,audio/Narrative7Situation2.wav,audio/Narrative8Situation2.wav,audio/Narrative5Situation2.wav,audio/Narrative6Situation2.wav,3,3,3,3,,,,,,,,,,,,,,,,,,,,,,,,,,,,,,,,,,,,,
,,,,,,6074b929f753216d88c77e88,2024-02-08_13h03.18.972,group3.1-3.2-social-tom,2023.2.2,Win32,82.6446281,65c5074098b851296ff0b7ed,65c54182cb8cbf64dc83158b,,,,,,,,,,,,,,,,,,,,,,,,,,,,,2938.1335,2,audio/Narrative5Situation3.wav,2941.1378,,2941.1378,2955.0454,"[[999,5],[999,91],[999,175],[999,260],[999,345],[999,430],[999,515],[999,600],[999,687],[999,769],[999,854],[999,939],[28.3,1025],[28.3,1109],[35.8,1193],[45.5,1278],[45.8,1364],[48.9,1448],[48.9,1533],[50.9,1618],[51.2,1702],[50,1787],[49.9,1873],[49.2,1962],[49.2,2049],[49.2,2133],[49.2,2218],[49.2,2302],[49.2,2387],[49.2,2472],[49.2,2557],[49.2,2642],[49.2,2727],[49.2,2812],[49.2,2896],[49.2,2981],[49.2,3066],[49.2,3151],[49.2,3236],[49.2,3320],[49.2,3405],[49.2,3490],[49.2,3575],[49.2,3660],[49.2,3745],[49.2,3830],[49.2,3914],[49.2,3999],[49.2,4084],[48.7,4169],[48,4254],[47.6,4339],[47.1,4423],[46.7,4508],[46.7,4593],[47.5,4678],[48.7,4763],[49.8,4848],[50.4,4932],[50.7,5017],[51.2,5103],[51.9,5187],[52.4,5272],[54,5357],[56.6,5442],[61.1,5526],[66.9,5612],[70,5696],[73.6,5781],[77.7,5867],[84.4,5951],[87.7,6036],[94.3,6120],[95.3,6205],[97.4,6290],[97.9,6375],[96.8,6460],[96.6,6544],[96.5,6629],[97.5,6714],[97.6,6799],[98.1,6884],[98.3,6968],[98.3,7054],[98.3,7138],[98.3,7223],[98.3,7308],[98.3,7393],[98.3,7477],[98.3,7563],[98.3,7647],[98.7,7732],[98.7,7817],[98.7,7902],[98.7,7987],[98.7,8072],[98.7,8156],[98.7,8242],[98.7,8326],[98.7,8411],[98.7,8496],[99,8581],[99.2,8666],[99.2,8750],[99.2,8835],[99.2,8920],[99.2,9013],[99.2,9095],[99.2,9180],[99.2,9265],[99.2,9350],[99.2,9435],[99.2,9520],[99.2,9605],[99.2,9690],[99.2,9775],[99.2,9859],[99.2,9945],[99.2,10029],[99.2,10114],[99.2,10198],[99.2,10283],[99.2,10368],[99.2,10453],[99.2,10538],[99.2,10623],[99.2,10707],[99.2,10793],[99.2,10878],[99.2,10962],[99.2,11047],[99.2,11132],[99.2,11217],[99.2,11301],[99.2,11387],[99.2,11471],[99.2,11556],[99.1,11641],[99.1,11726],[99.1,11811],[99.1,11896],[98.9,11980],[98.9,12065],[98.9,12150],[98.9,12235],[98.9,12319],[98.9,12404],[98.9,12489],[98.9,12574],[98.9,12659],[98.9,12744],[98.9,12828],[98.9,12913],[98.9,12998],[98.9,13083],[98.9,13168],[98.9,13253],[98.7,13337],[98.6,13423],[98.5,13507],[98.5,13592],[98.5,13677],[98.5,13762],[98.5,13847]]",1,0,2955.0455,2957.0879,98.45763284,1.2179,"[{""rating"":98.45763284233328,""responseTime"":1.2179000000951419}]",space,1.515,,2957.088,Partially,50,2957.0888,,,[],,0,3,3,3,1,audio/Narrative7Situation3.wav,audio/Narrative8Situation3.wav,audio/Narrative5Situation3.wav,audio/Narrative6Situation3.wav,8,4,3,5,,,,,,,,,,,,,,,,,,,,,,,,,,,,,,,,,,,,,
,,,,,,6074b929f753216d88c77e88,2024-02-08_13h03.18.972,group3.1-3.2-social-tom,2023.2.2,Win32,82.6446281,65c5074098b851296ff0b7ed,65c54182cb8cbf64dc83158b,,,,,,,,,,,,,,,,,,,,,,,,,,,,,2957.089,2,audio/Narrative5Situation4.wav,2958.0936,,2958.0936,2978.4856,"[[999,0],[999,90],[999,175],[999,260],[999,345],[999,430],[999,514],[999,600],[999,685],[999,769],[999,854],[999,939],[999,1023],[999,1109],[999,1193],[999,1278],[999,1363],[999,1448],[55.3,1533],[53.5,1617],[53.7,1702],[52.9,1789],[50.8,1877],[48.7,1957],[48.7,2041],[48.7,2127],[49,2212],[49.5,2297],[50.3,2381],[50.3,2466],[50.3,2551],[50.2,2635],[49.7,2721],[47.8,2805],[47.2,2890],[47.2,2976],[47.1,3060],[47.1,3145],[47.1,3230],[47.1,3314],[48.1,3400],[48.4,3484],[48.4,3568],[48.1,3654],[47.3,3739],[47.1,3823],[47.1,3908],[47.1,3993],[47.1,4078],[47.1,4162],[47.1,4248],[47.1,4332],[47.1,4417],[45.3,4503],[44.7,4587],[44.7,4671],[44.3,4757],[43.4,4842],[42,4926],[41,5012],[40.6,5096],[40.1,5181],[38.4,5266],[37.1,5351],[33.8,5436],[28,5521],[26,5605],[26,5690],[26,5775],[24.7,5860],[21.9,5944],[21.9,6029],[21.1,6114],[21.1,6199],[21.1,6284],[21.1,6369],[21.1,6453],[21.1,6538],[21.1,6623],[21.1,6708],[20.9,6793],[20.5,6877],[19.4,6963],[18.6,7047],[18.6,7132],[18.6,7217],[18.6,7302],[18.6,7386],[18.6,7472],[18.6,7556],[18.6,7641],[18.6,7726],[18.6,7811],[18.3,7896],[15.7,7981],[14.8,8065],[14.8,8150],[14.8,8235],[14.8,8321],[14.8,8405],[14.8,8489],[14.8,8575],[14,8659],[13.6,8744],[13.4,8828],[13.4,8913],[13.4,8999],[13.4,9083],[13.4,9169],[13.4,9253],[13.4,9338],[13.4,9422],[13.4,9508],[13.4,9592],[13.4,9677],[13.4,9762],[13.4,9847],[13.4,9931],[13.4,10017],[13.4,10101],[13.4,10186],[13.4,10271],[13.4,10356],[13.4,10441],[13.4,10526],[13.4,10610],[13.4,10695],[13.4,10780],[13.4,10865],[13.4,10950],[13.2,11035],[12.4,11119],[12.3,11204],[12.3,11289],[12.3,11374],[12.3,11458],[12.3,11544],[12.3,11628],[12.3,11713],[12.3,11798],[12.3,11883],[12.3,11968],[12.3,12053],[12.3,12138],[12.3,12222],[12.3,12307],[12.3,12392],[12.3,12477],[12.3,12561],[11.3,12648],[10.8,12731],[10.4,12816],[10.4,12901],[10.4,12986],[10.4,13071],[10.4,13155],[9.7,13241],[9.6,13325],[9.6,13410],[9.6,13495],[9.6,13580],[9.4,13664],[9.4,13750],[9.4,13834],[9.4,13919],[9.4,14005],[9.4,14089],[9.4,14173],[9.4,14258],[9.4,14343],[9.4,14428],[9.4,14513],[9.4,14597],[9.4,14682],[9.4,14768],[9.4,14852],[9.4,14937],[9.4,15022],[9.4,15107],[9.4,15192],[9.4,15277],[9.4,15361],[9.4,15446],[9.4,15531],[9.4,15616],[9.5,15701],[9.5,15785],[9.7,15870],[9.7,15956],[9.7,16040],[9.7,16125],[9.7,16210],[9.7,16294],[9.7,16380],[9.7,16464],[9.7,16549],[9.7,16634],[9.7,16719],[9.7,16804],[9.7,16888],[9.7,16973],[9.7,17058],[9.9,17143],[9.9,17228],[9.9,17312],[9.9,17397],[9.9,17482],[10.2,17568],[11.6,17653],[14.8,17737],[21.7,17822],[28,17908],[34.7,17991],[36.2,18076],[38.3,18161],[41.9,18246],[42,18331],[43.7,18416],[45.5,18501],[47.5,18586],[49.6,18670],[50.3,18755],[50.8,18840],[50.8,18925],[50.8,19010],[50.8,19094],[51.2,19179],[53.5,19264],[53.5,19349],[53.5,19434],[53.5,19519],[53.5,19604],[55.4,19688],[57,19773],[57.9,19858],[57.9,19943],[57.9,20028],[57.9,20112],[57.9,20197],[57.9,20282],[57.9,20367]]",1,0,2978.4857,2980.8001,50.74189385,1.3812,"[{""rating"":50.741893854714725,""responseTime"":1.3812000000480111}]",space,1.7816,,2980.8001,Not at all,0,2980.8014,,,[],,0,4,4,4,1,audio/Narrative7Situation4.wav,audio/Narrative8Situation4.wav,audio/Narrative5Situation4.wav,audio/Narrative6Situation4.wav,3,3,1,2,,,,,,,,,,,,,,,,,,,,,,,,,,,,,,,,,,,,,
,,,,,,6074b929f753216d88c77e88,2024-02-08_13h03.18.972,group3.1-3.2-social-tom,2023.2.2,Win32,82.6446281,65c5074098b851296ff0b7ed,65c54182cb8cbf64dc83158b,,,,,,,,,,,,,,,,,,,,,,,,,,,,,2980.8016,2,audio/Narrative5Situation5.wav,2985.8056,,2985.8056,3001.2282,"[[75.1,854],[61.5,939],[54.2,1024],[51.3,1108],[51.3,1193],[49.4,1279],[49.4,1363],[49.4,1448],[49.4,1533],[49.4,1618],[49.4,1703],[49.4,1787],[49.4,1872],[49.4,1957],[49.4,2041],[49.4,2126],[49.4,2212],[49.4,2296],[49.4,2381],[49.4,2466],[49.4,2550],[49.4,2635],[49.4,2720],[49.4,2805],[49.4,2890],[49.4,2975],[49.4,3059],[49.4,3145],[49.4,3229],[49.4,3317],[49.4,3399],[49.4,3484],[49.4,3568],[49.4,3653],[49.4,3739],[49.4,3823],[49.4,3908],[49.4,3993],[49.4,4078],[49.4,4163],[49.4,4248],[49.4,4332],[49.4,4417],[49.4,4502],[49.4,4587],[49.4,4672],[49.4,4757],[49.4,4842],[49.4,4926],[49.4,5011],[49.4,5096],[49.4,5180],[49.4,5266],[47.9,5351],[46.2,5436],[43.9,5520],[41.2,5606],[40.5,5689],[40.5,5774],[38.9,5860],[38.2,5944],[35.7,6029],[35.5,6115],[35.5,6199],[34.3,6286],[32.8,6369],[31.6,6453],[31.6,6539],[31.6,6623],[31.6,6708],[31.6,6792],[31.6,6878],[31.6,6962],[31.6,7047],[31.6,7132],[31.6,7218],[31.6,7302],[31.6,7387],[31.4,7471],[31.4,7556],[31.4,7641],[31.4,7726],[31.4,7810],[31.4,7896],[31.2,7980],[31.2,8065],[31.2,8150],[31.2,8235],[29.6,8320],[28.7,8405],[28.4,8489],[28.4,8574],[28.4,8659],[28.4,8744],[27.7,8829],[26.1,8914],[25.1,8999],[23.7,9084],[23.5,9168],[23.5,9253],[23.4,9338],[22.3,9423],[20.6,9508],[20.5,9592],[19.4,9677],[18,9762],[17.2,9847],[17.2,9932],[17.2,10016],[17.2,10102],[17.2,10186],[17.2,10271],[17.2,10356],[17.2,10441],[17.2,10526],[17.2,10610],[17.2,10695],[17.2,10780],[17.2,10865],[17.2,10950],[17.2,11034],[17.2,11119],[17.2,11204],[17.2,11289],[17.2,11374],[17.2,11458],[17.2,11544],[17.2,11628],[17.2,11713],[17.2,11798],[17.2,11883],[17.2,11968],[17.2,12053],[17.2,12138],[17.2,12222],[17.2,12308],[17.2,12392],[17.2,12477],[17.2,12562],[17.2,12647],[17.2,12731],[17.2,12816],[17.2,12901],[17.2,12986],[17.2,13071],[17.2,13156],[17.2,13240],[17.2,13325],[17.2,13410],[17.2,13495],[17.2,13580],[17.2,13665],[17.2,13749],[17.2,13835],[17.2,13919],[17.2,14004],[17.2,14089],[16.6,14180],[15.2,14260],[15.1,14343],[13.9,14428],[13.7,14513],[13.7,14598],[13.3,14682],[12.3,14768],[11.8,14852],[11.8,14937],[11.8,15022],[11.8,15107],[9.6,15192],[7.8,15277],[7.1,15361]]",1,0,3001.2282,3003.9734,3.182348616,1.9086,"[{""rating"":3.182348616326147,""responseTime"":1.9086000000238528}]",space,2.2179,,3003.9734,Not at all,0,3003.9742,,,[],,0,5,5,5,1,audio/Narrative7Situation5.wav,audio/Narrative8Situation5.wav,audio/Narrative5Situation5.wav,audio/Narrative6Situation5.wav,5,2,5,2,,,,,,,,,,,,,,,,,,,,,,,,,,,,,,,,,,,,,
,,,,,,6074b929f753216d88c77e88,2024-02-08_13h03.18.972,group3.1-3.2-social-tom,2023.2.2,Win32,82.6446281,65c5074098b851296ff0b7ed,65c54182cb8cbf64dc83158b,,,,,,,,,,,,,,,,,,,,,,,,,,,,,3003.9744,2,audio/Narrative5Situation6.wav,3006.9792,,3006.9793,3012.657,"[[999,5],[999,90],[999,175],[999,260],[999,345],[999,430],[999,514],[999,599],[999,686],[999,769],[999,854],[999,939],[999,1024],[999,1113],[999,1193],[17.8,1278],[14.8,1363],[12,1448],[11.8,1532],[11.8,1617],[11.8,1702],[11.8,1787],[11.8,1872],[11.8,1956],[11.8,2042],[11.8,2126],[11.8,2211],[11.8,2296],[12.1,2381],[14.2,2466],[15.1,2551],[16.2,2635],[16.2,2720],[17.3,2805],[19.3,2890],[20,2975],[20.5,3060],[21,3145],[21.2,3229],[21.2,3315],[21.5,3399],[21.5,3484],[21.5,3569],[21.5,3654],[20.1,3739],[15.7,3823],[15,3908],[15,3993],[15,4077],[15,4163],[15,4247],[15,4332],[15,4417],[15,4502],[15,4586],[15,4671],[15,4756],[15,4841],[15,4926],[15,5011],[15,5096],[15,5181],[15,5265],[15,5350],[15,5435],[15,5521],[15,5604]]",1,0,3012.657,3014.572,5.368996758,1.455,"[{""rating"":5.3689967576677216,""responseTime"":1.4549999999999272}]",space,1.388,,3014.5721,Definitely yes,100,3014.5734,,,[],,0,6,6,6,1,audio/Narrative7Situation6.wav,audio/Narrative8Situation6.wav,audio/Narrative5Situation6.wav,audio/Narrative6Situation6.wav,3,2,3,2,,,,,,,,,,,,,,,,,,,,,,,,,,,,,,,,,,,,,
,,,,,,6074b929f753216d88c77e88,2024-02-08_13h03.18.972,group3.1-3.2-social-tom,2023.2.2,Win32,82.6446281,65c5074098b851296ff0b7ed,65c54182cb8cbf64dc83158b,,,,,,,,,,,,,,,,,,,,,,,,,,,,,3014.5735,2,audio/Narrative5Situation7.wav,3018.5837,,3018.5838,3039.6236,"[[52.8,678],[51.3,763],[50.7,848],[50.7,932],[50.7,1018],[50.7,1102],[50.7,1188],[50.4,1272],[50.2,1357],[50.2,1442],[50.2,1526],[50.2,1612],[50.2,1696],[50.2,1782],[50.2,1866],[50.2,1950],[50.2,2036],[45.2,2120],[41,2206],[37.3,2290],[34.2,2376],[33.5,2460],[31.9,2564],[30.5,2657],[27.7,2740],[27.6,2815],[26.5,2896],[24.4,2981],[24.4,3066],[24.4,3150],[23.3,3236],[21.8,3321],[21.6,3405],[21.6,3490],[21.6,3575],[21.6,3659],[21.6,3744],[21.6,3829],[21.6,3914],[19.5,3999],[18.6,4085],[18,4169],[17.8,4253],[17.4,4338],[17.4,4423],[17.4,4508],[16.9,4593],[15.8,4678],[14.8,4762],[14.8,4847],[14.4,4932],[14.4,5017],[14.4,5102],[14.4,5187],[14.4,5272],[14.4,5357],[14.4,5441],[13.9,5527],[13.6,5611],[13.6,5696],[13.4,5780],[13.4,5865],[12.9,5950],[12.9,6035],[12.9,6120],[12.6,6205],[12.3,6290],[11.5,6374],[11.5,6459],[10.8,6544],[10.8,6629],[10.8,6714],[10.8,6798],[10.8,6883],[10.8,6968],[10.8,7053],[10.8,7138],[10.8,7222],[10.8,7308],[10.8,7392],[10.8,7477],[10.8,7562],[10.8,7647],[10.8,7732],[10.4,7817],[10.4,7901],[9.7,7986],[9.7,8071],[9.7,8156],[9.6,8241],[9.6,8326],[9.6,8411],[9.6,8495],[9.6,8580],[9.6,8665],[9.6,8750],[9.6,8835],[9.6,8919],[9.4,9005],[9.4,9089],[8.4,9174],[8,9259],[7.5,9344],[7.3,9429],[7.1,9516],[6.6,9598],[6.6,9683],[6.2,9768],[5.9,9853],[5.5,9938],[4.9,10022],[4.9,10107],[4.1,10192],[4.1,10277],[4.1,10362],[3.8,10447],[3.8,10531],[3.8,10616],[3.8,10701],[3.5,10787],[3.3,10871],[3.3,10956],[3.3,11040],[3.3,11126],[3.3,11210],[3.3,11295],[3.3,11380],[3.3,11465],[3.3,11549],[3.3,11635],[3.3,11719],[3.3,11804],[3.3,11889],[3,11974],[2.9,12058],[2.9,12144],[2.6,12228],[2.6,12313],[2.4,12398],[2.4,12483],[2.2,12568],[2.1,12653],[2.1,12738],[1.6,12822],[1.6,12907],[1.6,12992],[1.6,13077],[1.6,13161],[1.2,13247],[1.2,13331],[1.2,13416],[1.2,13501],[1.2,13586],[1.2,13671],[1.2,13756],[1.2,13840],[1.2,13925],[1.2,14010],[1.2,14095],[1.2,14180],[1.2,14264],[1.2,14349],[0.5,15113],[0.5,15198],[0.5,15282],[0.8,15368],[0.8,15453],[0.8,15537],[0.7,15622],[0.3,15707],[0.1,15792],[0.4,20712],[0.4,20797],[0.4,20882],[0.4,20966]]",1,0,3039.6236,3041.908,0.761420576,1.3161,"[{""rating"":0.7614205757859538,""responseTime"":1.3161000000236527}]",space,1.7576,,3041.9081,Not at all,0,3041.9094,,,[],,0,7,7,7,1,audio/Narrative7Situation7.wav,audio/Narrative8Situation7.wav,audio/Narrative5Situation7.wav,audio/Narrative6Situation7.wav,5,3,4,5,,,,,,,,,,,,,,,,,,,,,,,,,,,,,,,,,,,,,
,,,,,,6074b929f753216d88c77e88,2024-02-08_13h03.18.972,group3.1-3.2-social-tom,2023.2.2,Win32,82.6446281,65c5074098b851296ff0b7ed,65c54182cb8cbf64dc83158b,,,,,,,,,,,,,,,,,,,,,,,,,,,,,3041.9095,2,audio/Narrative5Situation8.wav,3044.9212,,3044.9212,3053.7494,"[[999,0],[999,90],[999,174],[999,260],[999,344],[999,429],[999,513],[999,599],[999,683],[999,768],[999,853],[999,938],[999,1022],[45.4,1108],[47.6,1192],[47.6,1277],[50.3,1362],[50.4,1447],[50.4,1532],[50.4,1616],[50.4,1702],[50.4,1786],[50.4,1871],[50.4,1956],[50.4,2041],[50.4,2125],[50.1,2211],[50.1,2295],[50,2380],[50,2465],[49.5,2550],[47.4,2634],[46.4,2720],[45.9,2804],[45.8,2889],[44.7,2974],[44.4,3059],[43.9,3144],[43.8,3228],[43.8,3314],[43.7,3398],[43.7,3483],[43.2,3568],[42.9,3653],[41.9,3738],[41.3,3823],[40.8,3907],[40.8,3992],[40.8,4077],[40.6,4162],[40.4,4246],[39.7,4331],[39.6,4416],[38.7,4501],[38.2,4586],[37.1,4671],[36.2,4756],[36.1,4840],[35.1,4926],[34.9,5010],[34.4,5095],[33.7,5180],[33.3,5264],[32.2,5350],[32.2,5435],[31.6,5519],[30.5,5604],[29.3,5689],[27.7,5774],[27,5859],[26,5944],[25.8,6028],[25.8,6113],[25.8,6198],[25.8,6283],[25.8,6367],[25.3,6453],[24.9,6537],[24.9,6622],[24.7,6707],[24.4,6792],[24.4,6876],[24.4,6961],[24.4,7046],[24.4,7131],[24.4,7216],[24.4,7300],[24.4,7385],[23.9,7470],[23,7555],[22.8,7640],[22.3,7725],[22.3,7809],[22.1,7894],[22,7980],[22,8064],[21.8,8149],[21.8,8234],[21.5,8318],[21.5,8404],[21.5,8488],[21.5,8573],[20.9,8659],[20.7,8743],[20.7,8828]]",1,0,3053.7495,3056.2894,0,1.8243,"[{""rating"":0,""responseTime"":1.8243000000716165}]",space,2.012,,3056.2894,Definitely yes,100,3056.2909,,,[],,0,8,8,8,1,audio/Narrative7Situation8.wav,audio/Narrative8Situation8.wav,audio/Narrative5Situation8.wav,audio/Narrative6Situation8.wav,2,3,3,5,,,,,,,,,,,,,,,,,,,,,,,,,,,,,,,,,,,,,
,,,,,,6074b929f753216d88c77e88,2024-02-08_13h03.18.972,group3.1-3.2-social-tom,2023.2.2,Win32,82.6446281,65c5074098b851296ff0b7ed,65c54182cb8cbf64dc83158b,,,,,,,,,,,,,,,,,,,,,,,,,,,,,3056.2911,2,audio/Narrative5Situation9.wav,3059.2947,,3059.2947,3098.8351,"[[24.9,90],[25.6,175],[26.1,260],[26.4,345],[26.1,429],[29.8,515],[30.1,599],[30.1,685],[30.1,769],[30.1,853],[30.1,938],[30.1,1024],[30.1,1108],[30.1,1193],[30.1,1277],[30.1,1363],[30.1,1447],[29.4,1532],[27.3,1618],[26.5,1702],[24.6,1787],[19.9,1872],[19.8,1957],[19.8,2041],[19.8,2126],[19.8,2211],[19.8,2296],[19.8,2380],[19.8,2465],[19.8,2551],[19.8,2636],[19.8,2720],[19.8,2805],[19.8,2890],[20.1,2974],[20.1,3059],[21,3144],[21.4,3229],[21.7,3314],[21.9,3399],[21.9,3484],[22.3,3568],[22.4,3654],[22.9,3739],[22.9,3846],[22.9,3926],[23.3,3999],[24.5,4083],[24.7,4168],[24.7,4253],[24.7,4338],[24.7,4423],[24.7,4507],[24.7,4592],[24.6,4677],[24.6,4763],[23.7,4847],[23.7,4932],[23.7,5016],[23.7,5101],[23.7,5186],[23.7,5271],[23.7,5356],[23.7,5440],[23.7,5525],[23.7,5611],[23.7,5695],[23.7,5780],[22.8,5866],[22.8,5950],[22,6035],[21.9,6120],[21.1,6204],[20.6,6289],[20.6,6375],[19.7,6459],[19.7,6543],[19.2,6629],[19,6713],[19,6798],[18.6,6883],[18.3,6969],[16.6,7053],[16.4,7137],[14.8,7222],[14.5,7307],[13.8,7392],[12.7,7477],[12.7,7561],[10.4,7647],[10.1,7731],[9.4,7816],[9.2,7901],[9,7987],[8.7,8070],[8.7,8156],[8.7,8240],[8.5,8326],[8.5,8410],[8.3,8495],[8.3,8580],[7.8,8665],[7.8,8750],[7.3,8835],[7.1,8919],[7,9005],[6.9,9089],[6.9,9174],[6.6,9259],[6.6,9343],[6.6,9428],[6.6,9513],[6.6,9598],[6.2,9683],[6.2,9768],[5.8,9852],[5.8,9937],[5.8,10022],[5.4,10107],[5.4,10193],[5.4,10277],[5.4,10361],[5.4,10446],[5.4,10532],[5.4,10616],[5.4,10701],[5.4,10785],[5.4,10882],[5.4,10961],[5.4,11046],[5.4,11131],[5.4,11216],[5.4,11301],[5.4,11386],[5.4,11470],[5.4,11555],[5.4,11640],[5.4,11725],[5.4,11810],[5.4,11895],[5.4,11980],[5.4,12064],[5.4,12149],[5.4,12234],[5.4,12318],[5.4,12404],[5.4,12489],[5.4,12573],[5.4,12658],[5.4,12743],[5.4,12828],[5.4,12913],[5.4,12997],[5.4,13082],[5.4,13167],[5.4,13252],[5.4,13337],[5.4,13422],[5.4,13507],[5.4,13591],[5.4,13676],[5.4,13761],[5.4,13846],[5.4,13931],[5.4,14016],[5.4,14100],[4.9,14185],[4.9,14270],[4.9,14355],[4.9,14440],[4.9,14525],[4.9,14610],[4.9,14694],[4.9,14779],[4.9,14864],[4.5,14949],[4.5,15034],[4.1,15120],[4,15203],[4,15288],[4,15373],[4,15458],[3.7,15543],[3.7,15628],[3.6,15712],[3.3,15797],[3.3,15882],[2.6,15967],[2.6,16052],[1.9,16137],[1.9,16221],[1.5,16306],[1.2,16391],[1.2,16476],[1.2,16561],[1.2,16646],[0.8,16731],[0.5,16815],[0.5,16900],[0.3,16985],[0.3,17070],[0.4,29626],[0.8,29711],[1,29796],[1,29880],[1,29965],[1,30050],[1,30135],[0.9,30220],[0.5,30304],[0.2,30389],[0.1,30474],[1.2,32426],[5.8,32512],[9.9,32595],[14.4,32680],[18.3,32766],[21.5,32850],[28.7,32935],[35.5,33020],[43.5,33105],[49.3,33190],[52.4,33275],[55.4,33359],[55.8,33444],[55.8,33529],[55.8,33613],[55.8,33698],[55.8,33783],[55.4,33869],[55.4,33953],[55.4,34037],[55.4,34122],[55.4,34207],[55.4,34292],[55.4,34377],[55.4,34462],[55.4,34547],[58,34632],[60.6,34717],[62,34801],[62,34886],[62,34971],[62,35056],[60.7,35141],[58.8,35225],[58.6,35310],[58.6,35396],[58.6,35480],[58.6,35565],[58.6,35649],[58.6,35734],[58.6,35820],[58.6,35904],[56.3,35989],[55.6,36073],[54.9,36159],[52.9,36244],[52.1,36328],[52.1,36413],[52.1,36498],[52.1,36583],[52.1,36667],[52.1,36752],[52.1,36837],[52.1,36922],[52.1,37011],[52.1,37092],[52.1,37176],[52.1,37261],[52.1,37347],[52.1,37431],[52.1,37516],[52.1,37602],[52.1,37686],[52.1,37770],[52.1,37855],[52.1,37940],[52.1,38025],[52.1,38110],[52.1,38194],[52.1,38279],[52.1,38364],[52.1,38449],[52.1,38534],[52.1,38619],[52.1,38704],[52.1,38788],[52.1,38873],[52.1,38958],[52.1,39043],[52.1,39128],[52.1,39213],[52.1,39297],[52.1,39382],[52.1,39468]]",1,0,3098.8352,3108.525,39.41819737,8.3323,"[{""rating"":49.4923867594603,""responseTime"":1.7512000000474472},{""rating"":39.418197373988846,""responseTime"":8.332299999952284}]",space,9.1609,,3108.5251,Definitely yes,100,3108.5259,,,[],,0,9,9,9,1,audio/Narrative7Situation9.wav,audio/Narrative8Situation9.wav,audio/Narrative5Situation9.wav,audio/Narrative6Situation9.wav,2,3,3,4,,,,,,,,,,,,,,,,,,,,,,,,,,,,,,,,,,,,,
,,,,,,6074b929f753216d88c77e88,2024-02-08_13h03.18.972,group3.1-3.2-social-tom,2023.2.2,Win32,82.6446281,65c5074098b851296ff0b7ed,65c54182cb8cbf64dc83158b,,,,,,,,,,,,,,,,,,,,,,,,,,,,,3108.526,2,audio/Narrative6Situation1.wav,3110.5367,,3110.5367,3137.1222,"[[999,0],[999,90],[999,175],[999,260],[999,345],[999,430],[999,515],[999,599],[999,685],[999,769],[999,854],[68.9,939],[58.8,1024],[51.6,1109],[49.9,1195],[49.3,1279],[48.6,1363],[48.6,1448],[48.6,1533],[48.8,1617],[48.8,1703],[48.1,1788],[40.4,1872],[34,1957],[32.6,2042],[31.2,2127],[26.7,2212],[26,2297],[26,2381],[24.1,2466],[23,2551],[21.6,2636],[19.7,2721],[17.6,2806],[16.6,2891],[16.2,2975],[16.2,3060],[16.2,3145],[16.2,3229],[15.5,3315],[14.6,3400],[14.6,3484],[14.6,3569],[14.6,3654],[14.6,3739],[14.6,3823],[14.6,3908],[14.6,3994],[14.6,4078],[14.6,4163],[14.6,4248],[14.6,4333],[14.6,4417],[14.6,4502],[14.6,4587],[14.6,4672],[14.6,4756],[14.6,4841],[14.6,4926],[14.6,5011],[14.6,5097],[14.6,5181],[14.6,5265],[14.3,5350],[14.3,5435],[14.3,5520],[14.3,5605],[14.3,5690],[14.3,5774],[14.3,5859],[14.3,5944],[14.3,6029],[14.3,6114],[14.3,6199],[14.3,6284],[14.3,6368],[14.7,6453],[17.9,6541],[18.8,6623],[18.9,6709],[18.9,6793],[18.9,6878],[18.9,6963],[18.9,7048],[18.9,7132],[18.9,7217],[18.9,7302],[18.9,7386],[22.6,7472],[26.1,7557],[28.9,7641],[32,7727],[36.9,7811],[42.2,7896],[44.4,7981],[44.7,8065],[45.4,8150],[48.2,8236],[48.4,8321],[48.4,8404],[49.7,8490],[50,8574],[50,8659],[50,8744],[50,8829],[50,8914],[49.9,8998],[49.9,9084],[49.9,9168],[49.9,9253],[49.9,9338],[49.9,9424],[49.7,9508],[48.3,9593],[47.6,9677],[47.6,9762],[47.6,9847],[47.6,9932],[47.6,10016],[47.6,10102],[47.6,10187],[47.6,10271],[47.6,10356],[47.6,10441],[47.6,10526],[47.6,10610],[47.6,10696],[47.6,10780],[47.6,10865],[47.6,10950],[47.6,11035],[47.6,11119],[47.6,11204],[47.6,11289],[47.6,11374],[47.6,11459],[47.6,11544],[47.6,11628],[47.6,11714],[47.6,11798],[47.6,11883],[47.6,11968],[47.6,12053],[47.6,12138],[47.6,12222],[45.9,12308],[44.6,12393],[44.4,12477],[44.4,12562],[44.4,12647],[43.2,12734],[42,12817],[40.6,12902],[39,12986],[37.1,13071],[35.1,13156],[34,13241],[34,13325],[34,13410],[33.1,13495],[32.3,13580],[32.2,13665],[32.2,13750],[32.2,13839],[32.2,13919],[32.2,14004],[32.2,14089],[32.2,14174],[32.2,14259],[32.2,14343],[32.2,14428],[32.2,14513],[32.2,14598],[32.2,14683],[32.2,14768],[32.2,14852],[32.2,14937],[32.2,15022],[32.2,15107],[32.2,15192],[32.2,15277],[32.2,15362],[32.2,15446],[32.2,15531],[32.2,15616],[32.2,15701],[32.2,15785],[32.2,15870],[32.2,15955],[32.2,16040],[32.2,16125],[32.2,16210],[32.2,16294],[32.2,16379],[32.2,16465],[32.2,16549],[32.2,16634],[32.2,16719],[32.2,16803],[32.2,16888],[32.2,16974],[32.2,17058],[32.2,17143],[32.2,17228],[31.9,17313],[31.5,17398],[31.5,17483],[31.5,17567],[31,17652],[30.7,17738],[30.2,17822],[29.8,17907],[29.3,17992],[28.9,18077],[28.3,18161],[27.6,18246],[27.2,18331],[26.7,18416],[26.3,18501],[25.8,18586],[25.3,18670],[24.9,18755],[24.9,18840],[24.9,18924],[24.9,19009],[24.7,19095],[23.7,19179],[23,19265],[22.3,19349],[21.4,19434],[20.1,19519],[18.7,19610],[17.6,19689],[16.6,19773],[15.7,19858],[14.3,19943],[13.7,20028],[13.7,20113],[13.7,20198],[13.7,20283],[13.7,20367],[13.7,20452],[13.7,20536],[13.7,20622],[13.7,20707],[13.7,20792],[13.7,20876],[13.7,20960],[13.7,21046],[13.7,21130],[13.7,21215],[13.7,21300],[13.7,21385],[13.7,21470],[13.7,21555],[14.2,21640],[14.9,21725],[14.9,21809],[14.9,21894],[14.9,21979],[14.9,22064],[14.9,22149],[14.9,22233],[14.9,22318],[14.9,22404],[14.9,22488],[14.9,22573],[14.9,22657],[15.4,22743],[17.4,22827],[18.4,22912],[19,22997],[19.5,23082],[21,23167],[22.2,23252],[23.3,23337],[25,23422],[26.6,23507],[27.1,23591],[27.3,23676],[27.7,23761],[28.2,23846],[28.7,23930],[29.1,24016],[29.7,24100],[30.3,24185],[32,24270],[34.8,24355],[35,24439],[35.8,24525],[37.1,24609],[38.3,24694],[39.9,24779],[41.2,24864],[42,24948],[42,25034],[42,25118],[42.1,25202],[42.1,25288],[42.1,25372],[42.1,25458],[42.5,25542],[44.9,25628],[47.6,25712],[48.3,25797],[48.3,25882],[48.3,25966],[49,26052],[49,26136],[49,26221],[49,26306],[50,26391],[51.4,26476],[51.4,26560]]",1,0,3137.1222,3141.1096,43.16673296,2.9143,"[{""rating"":43.166732959280544,""responseTime"":2.9142999999526182}]",space,3.4537,,3141.1096,Partially,50,3141.1113,,,[],,0,10,10,10,1,audio/Narrative8Situation1.wav,audio/Narrative7Situation1.wav,audio/Narrative6Situation1.wav,audio/Narrative5Situation1.wav,5,2,2,5,,,,,,,,,,,,,,,,,,,,,,,,,,,,,,,,,,,,,
,,,,,,6074b929f753216d88c77e88,2024-02-08_13h03.18.972,group3.1-3.2-social-tom,2023.2.2,Win32,82.6446281,65c5074098b851296ff0b7ed,65c54182cb8cbf64dc83158b,,,,,,,,,,,,,,,,,,,,,,,,,,,,,3141.1115,2,audio/Narrative6Situation2.wav,3144.122,,3144.122,3172.6077,"[[81.3,1023],[81.3,1107],[80.6,1193],[76.5,1277],[66.1,1362],[49.7,1532],[48.8,1617],[49.1,1701],[49.1,1786],[49.4,1871],[49.4,1956],[49.4,2041],[49.4,2125],[49.4,2210],[49.4,2295],[49.4,2380],[49.4,2465],[49.4,2549],[49.4,2634],[49.4,2719],[49.4,2804],[49.4,2889],[49.4,2975],[49.4,3059],[49.4,3143],[49.4,3228],[49.4,3313],[49.4,3398],[49.4,3483],[49.4,3569],[49.4,3652],[48.3,3738],[46.2,3823],[42.4,3907],[38.4,3997],[37.7,4077],[36.8,4162],[33.7,4246],[31.2,4332],[31.2,4416],[31,4501],[30.5,4586],[30.5,4671],[30.3,4756],[29.4,4840],[29.4,4925],[29.1,5010],[27.4,5095],[26.8,5180],[26.8,5264],[26.8,5350],[26.8,5434],[26.8,5519],[26.8,5604],[26.8,5689],[26.8,5774],[26.8,5858],[26.8,5943],[26.8,6028],[26.8,6113],[26.8,6198],[26.8,6283],[26.8,6368],[26.8,6452],[26.8,6537],[26.8,6622],[26.8,6707],[27.8,6793],[28.2,6876],[29.1,6961],[30.5,7047],[31.7,7131],[33.2,7216],[35,7301],[35.8,7386],[36.5,7470],[36.5,7555],[36.5,7640],[36.5,7725],[36.5,7810],[35.9,7895],[34.7,7979],[34.7,8064],[34.7,8149],[34.7,8234],[34.7,8323],[34.7,8404],[34.7,8489],[34.3,8574],[31.9,8658],[31.6,8743],[31.2,8828],[30.5,8913],[28.8,8998],[28.6,9082],[28.6,9167],[28.6,9252],[28.6,9337],[28.6,9422],[28.6,9507],[28.6,9591],[28.6,9676],[28.6,9761],[28.6,9846],[28.6,9930],[28.6,10015],[28.6,10100],[28.6,10185],[28.6,10270],[28.6,10355],[28.6,10440],[28.6,10524],[28.6,10610],[28.6,10694],[28.6,10779],[28.6,10864],[28.6,10949],[28.6,11033],[28.6,11118],[28.6,11203],[28.6,11288],[28.6,11373],[28.6,11458],[28.6,11542],[28.6,11628],[28.6,11712],[28.6,11797],[28.6,11883],[28.6,11967],[28.6,12052],[28.6,12136],[28.6,12222],[28.6,12306],[28.6,12391],[28.6,12476],[28.6,12560],[28.6,12645],[28.6,12730],[28.6,12815],[28.6,12900],[28.6,12985],[28.6,13070],[28.6,13155],[28.6,13239],[28.6,13324],[28.6,13409],[28.6,13494],[28.6,13579],[28.6,13664],[28.6,13748],[28.6,13834],[28.6,13918],[28.6,14003],[28.6,14088],[28.6,14172],[28.6,14258],[28.6,14343],[28.2,14433],[27.4,14512],[26.5,14597],[25.3,14682],[24.1,14767],[23,14852],[21.5,14936],[20.1,15021],[19.3,15106],[19.2,15191],[19.2,15275],[19.2,15360],[19.2,15445],[19.2,15530],[19.2,15615],[19.2,15699],[19.2,15784],[19.2,15870],[19.2,15954],[19.2,16039],[19.2,16124],[19.2,16208],[19.2,16293],[19.2,16378],[19.2,16463],[19.2,16549],[19.2,16633],[19.2,16718],[19.2,16804],[17.6,16888],[14.8,16973],[13.8,17058],[13.8,17143],[13.8,17227],[13.8,17312],[13.8,17397],[12.4,17482],[11,17567],[10.5,17652],[10.3,17736],[10.3,17821],[13,17906],[21.9,17992],[35,18076],[41.8,18160],[43,18245],[43,18329],[43,18414],[43,18500],[43,18584],[43,18669],[43,18754],[43,18839],[43,18923],[43,19009],[43.5,19094],[44.8,19179],[44.8,19263],[47,19348],[50,19433],[50.1,19518],[50.1,19602],[50.1,19687],[50.1,19772],[50.1,19856],[50.1,19942],[50.1,20026],[50.1,20111],[51,20196],[51.7,20281],[52.3,20366],[52.4,20451],[52.4,20535],[52.4,20620],[52.4,20705],[52.4,20790],[52.4,20875],[52.4,20960],[52.4,21044],[52.4,21129],[52.4,21214],[52.4,21299],[53,21385],[53.7,21469],[54.4,21554],[55,21639],[55.1,21723],[55.1,21808],[55.1,21893],[55.8,21978],[56.6,22063],[57.9,22148],[57.9,22232],[57.9,22317],[58.2,22402],[58.4,22487],[58.7,22572],[58.7,22657],[58.7,22741],[58.7,22826],[58.7,22911],[58.7,22996],[59,23081],[59.2,23165],[59.2,23250],[59.2,23335],[59.2,23420],[59.2,23505],[59.2,23590],[59.2,23674],[59.2,23759],[59.2,23844],[59.2,23929],[62.9,24014],[70.9,24100],[73.9,24184],[77.6,24269],[79.3,24353],[79.3,24438],[81.5,24523],[85.1,24608],[87,24693],[89.4,24778],[89.7,24862],[91.8,24947],[93.2,25032],[93.2,25117],[93.2,25202],[93.4,25287],[94.6,25371],[95,25456],[95.2,25541],[95.2,25626],[95.2,25711],[95.3,25795],[95.3,25880],[95.3,25965],[95.1,26050],[94.7,26135],[94.7,26220],[94.7,26305],[94.7,26390],[94.7,26474],[94.7,26559],[94.7,26644],[94.7,26729],[94.8,26814],[95.8,26899],[95.8,26983],[95.8,27068],[95.8,27153],[95.8,27238],[95.8,27323],[95.8,27408],[96.7,27492],[96.8,27577],[96.8,27662],[96.8,27747],[96.8,27834],[96.8,27923],[96.8,28007],[96.8,28092],[96.8,28177],[96.8,28262],[96.8,28347],[96.8,28432]]",1,0,3172.6079,3174.6811,96.58336505,1.1531,"[{""rating"":96.58336504968742,""responseTime"":1.153099999904498}]",space,1.5402,,3174.6811,Definitely yes,100,3174.6824,,,[],,0,11,11,11,1,audio/Narrative8Situation2.wav,audio/Narrative7Situation2.wav,audio/Narrative6Situation2.wav,audio/Narrative5Situation2.wav,3,3,3,3,,,,,,,,,,,,,,,,,,,,,,,,,,,,,,,,,,,,,
,,,,,,6074b929f753216d88c77e88,2024-02-08_13h03.18.972,group3.1-3.2-social-tom,2023.2.2,Win32,82.6446281,65c5074098b851296ff0b7ed,65c54182cb8cbf64dc83158b,,,,,,,,,,,,,,,,,,,,,,,,,,,,,3174.6826,2,audio/Narrative6Situation3.wav,3179.6929,,3179.6929,3192.3033,"[[999,5],[999,90],[999,175],[999,260],[999,345],[999,429],[999,514],[999,599],[999,684],[999,769],[999,854],[999,939],[63.5,1023],[51.4,1109],[51.4,1193],[51.4,1278],[50.9,1364],[50.1,1448],[50.1,1532],[50,1618],[49.7,1702],[49.7,1787],[49.7,1872],[49.7,1957],[49.7,2042],[49.7,2126],[49.7,2211],[49.7,2296],[49.7,2381],[49.7,2465],[49.7,2551],[49.7,2635],[49.7,2720],[49.7,2805],[49.7,2890],[49.7,2975],[49.7,3059],[49.7,3144],[49.7,3229],[49.7,3314],[49.7,3402],[49.7,3503],[49.7,3575],[49.7,3659],[49.7,3744],[49.7,3829],[49.7,3914],[49.7,3999],[49.7,4083],[49.7,4168],[49.7,4253],[49.7,4338],[49.7,4423],[49.7,4508],[49.7,4592],[49.7,4678],[49.7,4762],[48.1,4859],[47.4,4945],[46.9,5017],[46.2,5102],[45.3,5187],[45.2,5272],[45.2,5356],[45.2,5441],[45.2,5527],[45.2,5610],[45.2,5695],[45.2,5781],[45.2,5865],[45.2,5950],[45.2,6035],[45.2,6120],[45.2,6205],[43.8,6289],[41.7,6374],[38.5,6460],[35.6,6545],[33.3,6629],[32.9,6713],[32.9,6799],[31.5,6884],[30.5,6971],[30.5,7053],[30.5,7138],[33.3,7223],[40.6,7308],[46.3,7393],[49,7477],[50.7,7563],[51.5,7647],[54.3,7732],[54.9,7816],[54.9,7902],[58.3,7987],[58.4,8071],[58.4,8156],[60.6,8241],[60.8,8325],[61.9,8411],[62.5,8495],[62.5,8580],[62.5,8665],[62.5,8750],[62.5,8839],[62.5,8919],[62.5,9005],[62.5,9089],[62.5,9174],[62.5,9260],[62.5,9343],[62.5,9429],[62.5,9513],[62.5,9598],[62.5,9683],[62.5,9768],[62.5,9852],[62.5,9937],[62.5,10022],[62.5,10107],[62.5,10192],[62.5,10277],[62.5,10362],[62.5,10455],[62.5,10537],[62.5,10622],[62.5,10707],[62.5,10792],[62.5,10877],[62.5,10961],[62.5,11047],[62.5,11131],[62.5,11216],[62.5,11301],[62.5,11386],[62.5,11470],[62.5,11556],[63.9,11641],[64.6,11725],[65.9,11810],[67.2,11895],[67.4,11980],[67.4,12065],[67.4,12149],[67.4,12234],[67.4,12319],[67.4,12405],[67.4,12489],[67.4,12573]]",1,0,3192.3034,3193.982,65.97031967,1.1936,"[{""rating"":65.97031966996231,""responseTime"":1.1935999999045634}]",space,1.1517,,3193.9821,Not at all,0,3193.9833,,,[],,0,12,12,12,1,audio/Narrative8Situation3.wav,audio/Narrative7Situation3.wav,audio/Narrative6Situation3.wav,audio/Narrative5Situation3.wav,4,8,5,3,,,,,,,,,,,,,,,,,,,,,,,,,,,,,,,,,,,,,
,,,,,,6074b929f753216d88c77e88,2024-02-08_13h03.18.972,group3.1-3.2-social-tom,2023.2.2,Win32,82.6446281,65c5074098b851296ff0b7ed,65c54182cb8cbf64dc83158b,,,,,,,,,,,,,,,,,,,,,,,,,,,,,3193.9834,2,audio/Narrative6Situation4.wav,3195.9937,,3195.9937,3208.6043,"[[68,939],[60,1024],[56.2,1113],[49.4,1193],[43.7,1278],[43.9,1364],[45.8,1448],[49.7,1533],[50.1,1618],[50.1,1702],[50.1,1787],[50.1,1872],[50.1,1957],[50.1,2042],[50.1,2127],[50.1,2212],[50.1,2296],[50.1,2381],[50.1,2466],[46.2,2551],[43.8,2636],[42.2,2721],[42.2,2806],[42.2,2890],[42,2975],[36.4,3060],[31.2,3145],[30.5,3230],[30.3,3315],[30.3,3399],[30.3,3484],[30.3,3569],[30.3,3654],[30.3,3738],[30.3,3824],[30.3,3908],[30.3,3993],[30.3,4078],[30.3,4163],[30.3,4248],[30.3,4332],[30.3,4417],[30.3,4502],[30.3,4587],[30.3,4672],[30.3,4757],[30.3,4841],[30.3,4926],[30.3,5011],[30.3,5096],[30.3,5182],[30.3,5266],[30.3,5351],[30.3,5436],[30.3,5520],[30.3,5605],[30.3,5690],[30.3,5775],[30.3,5859],[30.3,5945],[30.3,6029],[30.3,6114],[30.3,6199],[29.6,6289],[27,6369],[25.8,6454],[24.7,6538],[24.4,6623],[24.4,6708],[24.4,6793],[24.4,6878],[24.4,6962],[24.4,7048],[24.4,7132],[24.4,7217],[24.4,7302],[24.4,7386],[24.4,7471],[24.4,7556],[24.4,7641],[24.4,7726],[24.4,7811],[24.4,7896],[24.4,7981],[24.4,8066],[24.4,8152],[24.4,8235],[22,8320],[20.4,8405],[20.1,8490],[20.1,8579],[20.1,8660],[19.4,8744],[18.5,8829],[18.3,8914],[18.3,8998],[18.3,9084],[18.3,9168],[18.3,9253],[18.3,9338],[18.3,9423],[18.3,9507],[18.3,9592],[18.3,9677],[18.3,9763],[18.3,9847],[18.3,9932],[18.3,10017],[18.3,10102],[18.3,10186],[18.3,10271],[18.3,10356],[18.3,10441],[18.3,10526],[18.3,10610],[17.9,10696],[17.1,10781],[16.2,10865],[15.8,10950],[15.3,11035],[14.4,11120],[13.8,11205],[13.8,11289],[13.8,11374],[13.8,11459],[13.8,11544],[13.8,11628],[13.8,11713],[13.8,11798],[13.8,11883],[13.8,11968],[13.8,12053],[12.2,12138],[11,12222],[10.3,12308],[9.6,12392],[8.7,12478],[7.8,12562]]",1,0,3208.6044,3210.974,5.603280232,1.4484,"[{""rating"":5.603280231748453,""responseTime"":1.448400000095262}]",space,1.8417,,3210.9741,Not at all,0,3210.9748,,,[],,0,13,13,13,1,audio/Narrative8Situation4.wav,audio/Narrative7Situation4.wav,audio/Narrative6Situation4.wav,audio/Narrative5Situation4.wav,3,3,2,1,,,,,,,,,,,,,,,,,,,,,,,,,,,,,,,,,,,,,
,,,,,,6074b929f753216d88c77e88,2024-02-08_13h03.18.972,group3.1-3.2-social-tom,2023.2.2,Win32,82.6446281,65c5074098b851296ff0b7ed,65c54182cb8cbf64dc83158b,,,,,,,,,,,,,,,,,,,,,,,,,,,,,3210.975,2,audio/Narrative6Situation5.wav,3212.9857,,3212.9858,3220.9433,"[[5.3,854],[5.9,939],[6.2,1024],[6.2,1109],[6.2,1193],[6.2,1278],[6.2,1363],[6.2,1448],[6.2,1533],[6.2,1618],[6.2,1702],[6.2,1787],[6.2,1872],[6.2,1957],[6.2,2042],[6.2,2127],[6.2,2212],[6.2,2296],[6.2,2381],[6.2,2466],[6.2,2551],[6.2,2636],[6.2,2720],[6.2,2805],[6.2,2890],[6.2,2975],[6.2,3060],[6.2,3145],[6.2,3230],[6.2,3314],[6.2,3399],[6.2,3484],[6.1,3569],[6.1,3653],[5.8,3739],[5.7,3824],[5.7,3908],[5.7,3993],[5.6,4078],[5.4,4163],[5.1,4248],[5.1,4332],[5.1,4417],[5.1,4502],[5.1,4587],[5.1,4672],[5.1,4757],[5.1,4842],[5.1,4926],[5.1,5011],[5.1,5096],[5.1,5181],[5.1,5266],[5.1,5351],[5.1,5436],[5.1,5520],[5.1,5605],[5.1,5689],[5.1,5774],[5.1,5859],[5.1,5944],[5.1,6029],[5.1,6114],[5.1,6199],[5.1,6284],[5.1,6369],[5.1,6454],[5.1,6538],[5.1,6623],[5.1,6708],[5.1,6792],[5.1,6878],[5.1,6963],[5.1,7047],[5.1,7132],[5.1,7217],[5.1,7302],[5.1,7387],[5.1,7471],[5.1,7556],[5.1,7641],[5.1,7726],[5.1,7811],[5.1,7896]]",1,0,3220.9433,3223.136,0,1.23,"[{""rating"":0,""responseTime"":1.2300000000000182}]",space,1.6602,,3223.136,Definitely yes,100,3223.1375,,,[],,0,14,14,14,1,audio/Narrative8Situation5.wav,audio/Narrative7Situation5.wav,audio/Narrative6Situation5.wav,audio/Narrative5Situation5.wav,2,5,2,5,,,,,,,,,,,,,,,,,,,,,,,,,,,,,,,,,,,,,
,,,,,,6074b929f753216d88c77e88,2024-02-08_13h03.18.972,group3.1-3.2-social-tom,2023.2.2,Win32,82.6446281,65c5074098b851296ff0b7ed,65c54182cb8cbf64dc83158b,,,,,,,,,,,,,,,,,,,,,,,,,,,,,3223.1376,2,audio/Narrative6Situation6.wav,3225.148,,3225.148,3236.2321,"[[999,0],[999,90],[999,175],[999,260],[999,345],[999,431],[999,515],[999,599],[999,685],[999,769],[999,854],[999,940],[999,1023],[19.7,1109],[19.2,1194],[19.2,1278],[19.2,1363],[19.2,1448],[19.2,1532],[19.2,1617],[19.2,1702],[19.2,1787],[19.2,1872],[19.2,1957],[19.2,2042],[19.2,2127],[20,2212],[21.4,2296],[21.9,2382],[21.9,2466],[21.9,2551],[21.9,2636],[21.9,2720],[21.9,2805],[21.9,2890],[21.9,2975],[21.9,3060],[21.9,3145],[21.9,3229],[21.9,3314],[21.9,3400],[21.9,3484],[21.9,3569],[21.9,3654],[21.9,3739],[21.9,3823],[21.9,3908],[21.8,3993],[21.5,4078],[19.9,4163],[18,4248],[17.1,4333],[16.4,4417],[15.9,4503],[15.7,4587],[15.5,4672],[15.5,4757],[15.5,4841],[15.5,4926],[15.5,5011],[15.5,5096],[15.5,5182],[15.5,5266],[15.5,5350],[15.5,5435],[15.5,5520],[15.5,5605],[15.5,5690],[15.1,5775],[14.3,5860],[13.9,5945],[13.7,6029],[13,6115],[12.2,6200],[11.5,6284],[11.1,6369],[10.8,6453],[10.8,6538],[9.9,6623],[8.2,6708],[7.1,6793],[6.1,6878],[5.5,6963],[5.4,7047],[5.4,7132],[5.4,7218],[5.4,7302],[5.4,7386],[5.9,7472],[6.2,7556],[6.6,7641],[6.9,7726],[6.9,7811],[6.9,7896],[6.9,7981],[6.9,8065],[6.9,8150],[6.6,8235],[6.2,8319],[5.6,8406],[5,8489],[4.3,8575],[3.1,8659],[2.6,8744],[2.6,8829],[2.6,8913],[2.6,8998],[2.6,9084],[1.4,9168],[1,9253],[0.9,9338],[0.9,9423],[0.9,9507]]",1,0,3236.2322,3238.1894,0.136663453,0.9748,"[{""rating"":0.13666345327663643,""responseTime"":0.9747999999522108}]",space,1.4297,,3238.1894,Definitely yes,100,3238.1902,,,[],,0,15,15,15,1,audio/Narrative8Situation6.wav,audio/Narrative7Situation6.wav,audio/Narrative6Situation6.wav,audio/Narrative5Situation6.wav,2,3,2,3,,,,,,,,,,,,,,,,,,,,,,,,,,,,,,,,,,,,,
