exp_question,consent.started,consent.stopped,consentResponse.keys,consentResponse.rt,consentResponse.duration,participantID,date,expName,psychopyVersion,OS,frameRate,STUDY_ID,SESSION_ID,opening1.started,opening1.stopped,keyEndingOpening1.keys,keyEndingOpening1.rt,keyEndingOpening1.duration,volumeAdjust.started,volumeAdjust.stopped,endingAdjust.keys,endingAdjust.rt,endingAdjust.duration,opening2.started,opening2.stopped,keyEndingOpening.keys,keyEndingOpening.rt,keyEndingOpening.duration,mouse.x,mouse.y,mouse.leftButton,mouse.midButton,mouse.rightButton,mouse.time,instructionLoop.thisRepN,instructionLoop.thisTrialN,instructionLoop.thisN,instructionLoop.thisIndex,instructionLoop.ran,readyForAudio.started,readyForAudio.stopped,fixation.started,run,audio_played,fixation.stopped,endPractice.keys,audioPre.started,audioPre.stopped,continuousResponses_audio,continuousSlider.response,continuousSlider.rt,intRating.started,intRating.stopped,intQuestionSlider.response,intQuestionSlider.rt,intQuestionSlider.history,confirmResponse.keys,confirmResponse.rt,confirmResponse.duration,catchQuestion.started,catch_label,catch_value,catchQuestion.stopped,catchQuestionSlider.response,catchQuestionSlider.rt,catchQuestionSlider.history,confirmResponse_2.keys,audioRunLoop.thisRepN,audioRunLoop.thisTrialN,audioRunLoop.thisN,audioRunLoop.thisIndex,audioRunLoop.ran,conditions1_1,conditions2_1,conditions1_2,conditions2_2,dur1_1,dur2_1,dur1_2,dur2_2,endPractice.rt,endPractice.duration,confirmResponse_2.rt,confirmResponse_2.duration,runIntervalBreak.started,runIntervalBreak.stopped,endingBreakKey.keys,endingBreakKey.rt,endingBreakKey.duration,connection.started,connection.stopped,connectionEnding.keys,connectionEnding.rt,connectionEnding.duration,readyForText.started,readyForText.stopped,textPre.started,run_dup,textPre.stopped,continuousResponses_text,textRunLoop.thisRepN,textRunLoop.thisTrialN,textRunLoop.thisN,textRunLoop.thisIndex,textRunLoop.ran,text1_1,text1_2,text2_1,text2_2,runBreakText.started,runBreakText.stopped,endingBreakKey_2.keys,endingBreakKey_2.rt,endingBreakKey_2.duration,ending.started,ending.stopped,endingEnding.keys,endingEnding.rt,endingEnding.duration
tom,0.001,25.816,y,25.454,,6079ff1600ff2b7455e1c3e0,2024-05-13_11h33.53.089,group3.1-3.2-social-tom,2023.2.2,Win32,59.95203837,65c5074098b851296ff0b7ed,6642328ae9f5cbf14752c622,,,,,,,,,,,,,,,,,,,,,,,,,,,,,,,,,,,,,,,,,,,,,,,,,,,,,,,,,,,,,,,,,,,,,,,,,,,,,,,,,,,,,,,,,,,,,,,,,,,,,,,,,,
,,,,,,6079ff1600ff2b7455e1c3e0,2024-05-13_11h33.53.089,group3.1-3.2-social-tom,2023.2.2,Win32,59.95203837,65c5074098b851296ff0b7ed,6642328ae9f5cbf14752c622,25.816,30.635,space,4.736,,,,,,,,,,,,,,,,,,,,,,,,,,,,,,,,,,,,,,,,,,,,,,,,,,,,,,,,,,,,,,,,,,,,,,,,,,,,,,,,,,,,,,,,,,,,,,,,,,,,,,
,,,,,,6079ff1600ff2b7455e1c3e0,2024-05-13_11h33.53.089,group3.1-3.2-social-tom,2023.2.2,Win32,59.95203837,65c5074098b851296ff0b7ed,6642328ae9f5cbf14752c622,,,,,,30.635,47.568,space,16.603,,,,,,,,,,,,,,,,,,,,,,,,,,,,,,,,,,,,,,,,,,,,,,,,,,,,,,,,,,,,,,,,,,,,,,,,,,,,,,,,,,,,,,,,,,,,,,,,,
,,,,,,6079ff1600ff2b7455e1c3e0,2024-05-13_11h33.53.089,group3.1-3.2-social-tom,2023.2.2,Win32,59.95203837,65c5074098b851296ff0b7ed,6642328ae9f5cbf14752c622,,,,,,,,,,,47.586,58.201,space,10.571,,[],[],[],[],[],[],0,0,0,0,1,,,,,,,,,,,,,,,,,,,,,,,,,,,,,,,,,,,,,,,,,,,,,,,,,,,,,,,,,,,,,,,,,,,,,,,,,,,,,,,,
,,,,,,6079ff1600ff2b7455e1c3e0,2024-05-13_11h33.53.089,group3.1-3.2-social-tom,2023.2.2,Win32,59.95203837,65c5074098b851296ff0b7ed,6642328ae9f5cbf14752c622,,,,,,,,,,,58.203,89.957,space,31.54,,[],[],[],[],[],[],1,0,1,0,1,,,,,,,,,,,,,,,,,,,,,,,,,,,,,,,,,,,,,,,,,,,,,,,,,,,,,,,,,,,,,,,,,,,,,,,,,,,,,,,,
,,,,,,6079ff1600ff2b7455e1c3e0,2024-05-13_11h33.53.089,group3.1-3.2-social-tom,2023.2.2,Win32,59.95203837,65c5074098b851296ff0b7ed,6642328ae9f5cbf14752c622,,,,,,,,,,,89.962,113.239,space,23.16,,[],[],[],[],[],[],2,0,2,0,1,,,,,,,,,,,,,,,,,,,,,,,,,,,,,,,,,,,,,,,,,,,,,,,,,,,,,,,,,,,,,,,,,,,,,,,,,,,,,,,,
,,,,,,6079ff1600ff2b7455e1c3e0,2024-05-13_11h33.53.089,group3.1-3.2-social-tom,2023.2.2,Win32,59.95203837,65c5074098b851296ff0b7ed,6642328ae9f5cbf14752c622,,,,,,,,,,,113.242,131.94,space,18.652,,[],[],[],[],[],[],3,0,3,0,1,,,,,,,,,,,,,,,,,,,,,,,,,,,,,,,,,,,,,,,,,,,,,,,,,,,,,,,,,,,,,,,,,,,,,,,,,,,,,,,,
,,,,,,6079ff1600ff2b7455e1c3e0,2024-05-13_11h33.53.089,group3.1-3.2-social-tom,2023.2.2,Win32,59.95203837,65c5074098b851296ff0b7ed,6642328ae9f5cbf14752c622,,,,,,,,,,,131.943,157.258,space,25.278,,[],[],[],[],[],[],4,0,4,0,1,,,,,,,,,,,,,,,,,,,,,,,,,,,,,,,,,,,,,,,,,,,,,,,,,,,,,,,,,,,,,,,,,,,,,,,,,,,,,,,,
,,,,,,6079ff1600ff2b7455e1c3e0,2024-05-13_11h33.53.089,group3.1-3.2-social-tom,2023.2.2,Win32,59.95203837,65c5074098b851296ff0b7ed,6642328ae9f5cbf14752c622,,,,,,,,,,,,,,,,,,,,,,,,,,,157.267,159.839,159.926,1,audio/Narrative13Situation2.wav,161.94,,161.94,191.692,"[[40.2,4560],[63.8,5068],[62.7,5168],[61.3,5262],[60.2,5411],[61.3,5520],[62.2,5635],[62.3,5748],[62.3,5835],[62,5941],[61.9,6036],[61.7,6135],[61.6,6234],[61.6,6316],[61.6,6401],[61.6,6484],[61.6,6586],[61.6,6685],[61.6,6769],[56.9,6879],[48.4,6985],[41.7,7086],[36.8,7203],[32,7319],[28.3,7420],[25.8,7542],[24.7,7680],[24.4,7806],[24.4,7935],[24.4,8067],[24.4,8211],[24.4,8296],[24.4,8384],[24.4,8467],[24.4,8580],[24.4,8697],[24.4,8830],[24.4,8935],[26.6,9019],[37.3,9120],[41.1,9221],[42.2,9324],[43.3,9419],[44.7,9536],[45.9,9659],[46.3,9775],[46.3,9885],[45.9,9986],[45.9,10069],[46.9,10182],[47.1,10268],[47.1,10349],[47.1,10432],[47.1,10542],[47.1,10659],[49.6,10800],[49.6,10914],[49.6,11019],[49.6,11119],[49.6,11204],[49.6,11283],[49.6,11365],[49.6,11450],[49.6,11558],[49.6,11668],[49.6,11789],[49.6,11918],[49.6,12042],[49.6,12132],[49.6,12215],[49.6,12299],[49.6,12385],[49.6,12467],[49.6,12568],[49.6,12686],[49.6,12801],[49.6,12901],[49.6,12984],[49.6,13066],[49.6,13150],[49.6,13234],[49.6,13316],[49.6,13400],[51,13852],[51.3,13989],[50.9,14102],[50.7,14203],[50.7,14284],[50.7,14366],[50.7,14450],[50.7,14536],[50.7,14619],[50.7,14699],[50.7,14786],[50.7,14865],[50.7,14951],[50.7,15032],[50.7,15119],[50.7,15201],[50.7,15286],[50.7,15369],[50.7,15449],[50.7,15534],[50.7,15615],[50.7,15700],[50.7,15782],[50.7,15869],[50.7,15949],[50.7,16036],[50.7,16119],[50.7,16199],[50.7,16286],[50.7,16369],[50.7,16450],[50.7,16534],[50.7,16616],[50.7,16698],[50.7,16782],[50.7,16869],[50.7,16949],[50.7,17032],[50.7,17117],[50.7,17202],[50.7,17283],[50.7,17366],[50.7,17450],[50.7,17533],[50.7,17619],[50.7,17702],[50.7,17784],[50.7,17869],[50.7,17952],[50.7,18033],[50.7,18120],[50.7,18202],[50.7,18282],[50.7,18365],[50.7,18452],[50.7,18532],[50.7,18616],[50.7,18699],[50.7,18786],[50.7,18866],[50.7,18949],[50.7,19036],[50.7,19115],[50.7,19203],[49.3,20786],[49.3,20869],[49.3,20949],[49.3,21036],[49.3,21116],[49.3,21200],[49.3,21286],[49.3,21366],[49.3,21450],[49.3,21536],[49.3,21616],[49.3,21702],[49.3,21783],[49.3,21866],[49.3,21953],[52.5,22036],[54.7,22120],[55.9,22203],[56.7,22284],[57.3,22367],[57.9,22453],[57.9,22532],[57.9,22616],[57.9,22702],[57.9,22782],[57.9,22866],[57.9,22950],[57.9,23036],[57.9,23116],[57.9,23199],[57.9,23284],[57.9,23369],[57.9,23450],[57.9,23536],[57.9,23620],[57.9,23700],[57.9,23782],[57.9,23869],[57.9,23949],[57.9,24033],[57.9,24120],[57.9,24199],[57.9,24286],[57.9,24366],[57.9,24450],[57.9,24533],[57.9,24620],[57.9,24709],[57.9,24786],[57.9,24885],[57.9,24974],[57.9,25075],[57.9,25169],[57.9,25251],[57.9,25333],[57.9,25417],[57.9,25502],[57.9,25585],[57.9,25669],[57.9,25752],[57.9,25836],[57.9,25935],[57.9,26016],[57.9,26101],[57.9,26182],[57.9,26266],[57.9,26351],[57.9,26435],[57.9,26519],[57.9,26599],[57.9,26683],[57.9,26769],[57.9,26852],[57.9,26933],[57.9,27016],[57.9,27102],[57.9,27183],[57.9,27266],[57.9,27352],[57.9,27435],[57.9,27518],[57.9,27602],[57.9,27686],[57.9,27766],[57.9,27851],[57.9,27933],[57.9,28019],[57.9,28099],[57.9,28185],[57.9,28266],[57.9,28351],[57.9,28433],[57.9,28519],[57.9,28601],[57.9,28683],[57.9,28768],[57.9,28853],[57.9,28935],[57.9,29016],[57.9,29102],[57.9,29185],[57.9,29266],[57.9,29352],[57.9,29441],[57.9,29516],[57.9,29599],[57.9,29685]]",1,0,191.695,198.226,49.41434846,3.662,"[{""rating"":49.41434846266471,""responseTime"":3.6619999999999777}]",space,5.985,,198.226,All the time,100,198.25,,,[],,0,0,0,0,1,audio/Narrative13Situation2.wav,audio/Narrative13Situation2.wav,audio/Narrative13Situation2.wav,audio/Narrative13Situation2.wav,2,2,2,2,,,,,,,,,,,,,,,,,,,,,,,,,,,,,,,,,,,,,,,
,,,,,,6079ff1600ff2b7455e1c3e0,2024-05-13_11h33.53.089,group3.1-3.2-social-tom,2023.2.2,Win32,59.95203837,65c5074098b851296ff0b7ed,6642328ae9f5cbf14752c622,,,,,,,,,,,,,,,,,,,,,,,,,,,,,198.252,1,audio/Narrative7Situation1.wav,201.063,space,201.063,256.963,"[[999,3],[999,111],[999,197],[999,277],[999,362],[999,445],[999,531],[999,611],[999,694],[999,777],[999,862],[999,948],[999,1028],[999,1110],[999,1197],[999,1277],[999,1364],[999,1445],[999,1531],[999,1611],[999,1694],[999,1780],[999,1864],[999,1944],[999,2028],[999,2111],[999,2198],[999,2296],[999,2397],[999,2479],[999,2562],[999,2646],[999,2730],[999,2812],[999,2895],[999,2979],[999,3062],[999,3145],[999,3229],[999,3313],[999,3396],[999,3481],[999,3564],[999,3646],[999,3728],[999,3812],[999,3896],[999,3981],[999,4062],[999,4145],[999,4231],[999,4314],[999,4396],[999,4478],[999,4564],[999,4649],[999,4729],[999,4812],[999,4897],[999,4979],[999,5064],[999,5146],[999,5229],[999,5314],[999,5405],[999,5497],[999,5602],[999,5681],[999,5778],[999,5875],[999,5961],[999,6045],[999,6128],[999,6212],[999,6295],[999,6381],[999,6463],[999,6549],[999,6646],[999,6730],[999,6812],[999,6896],[999,6980],[999,7063],[999,7145],[999,7231],[999,7313],[999,7399],[999,7480],[999,7563],[999,7649],[999,7739],[999,7844],[999,7929],[999,8012],[999,8096],[999,8181],[999,8262],[999,8347],[999,8429],[999,8512],[999,8598],[999,8679],[999,8762],[999,8844],[999,8930],[999,9015],[999,9097],[999,9181],[999,9263],[999,9347],[999,9431],[999,9532],[999,9615],[999,9698],[999,10101],[999,11204],[999,11282],[999,11365],[999,11447],[999,11528],[999,11615],[999,11695],[999,11782],[999,11861],[999,11945],[999,12031],[999,12113],[999,12195],[999,12278],[999,12363],[999,12444],[999,12528],[999,12613],[999,12695],[999,12778],[999,12863],[999,12945],[999,13030],[999,13113],[999,13195],[999,13280],[999,13361],[999,13445],[999,13530],[999,13613],[999,13697],[999,13778],[999,13863],[999,13945],[999,14028],[999,14114],[999,14195],[999,14282],[999,14366],[999,14449],[999,14532],[999,14615],[46.6,14699],[45,14800],[43.6,14889],[42.7,14980],[42.2,15064],[42.1,15146],[42.2,15230],[43.3,15313],[45,15399],[46.6,15483],[47.8,15566],[48.7,15649],[49.3,15729],[49.9,15814],[50.3,15897],[50.7,15979],[51,16064],[51,16146],[51,16229],[51.2,16312],[51.2,16397],[51,16482],[48.2,16562],[43.9,16649],[41.2,16729],[39.5,16812],[37.3,16897],[34.5,16979],[32.4,17066],[32.3,17149],[32.3,17229],[32.3,17317],[32.3,17396],[32.3,17483],[32.3,17564],[32.3,17649],[32.3,17729],[32.3,17813],[32.3,17896],[32.3,17982],[32.3,18062],[32.3,18146],[32.3,18229],[32.3,18314],[32.3,18396],[32.3,18482],[32.3,18567],[32.3,18646],[32.3,18729],[32.3,18814],[32.3,18896],[32.3,18979],[32.3,19066],[32.3,19147],[32.3,19234],[32.3,19312],[32.3,19399],[33.6,19484],[39,19591],[41.8,19705],[44.6,19828],[47.7,19915],[49.7,19998],[51.2,20097],[51.9,20182],[52.2,20265],[52.2,20348],[52.2,20431],[52.2,20513],[52.5,20597],[52.6,20680],[52.9,20765],[52.9,20847],[52.9,20931],[52.9,21014],[52.9,21096],[52.9,21180],[52.9,21264],[52.9,21348],[52.9,21431],[52.9,21513],[52.9,21597],[52.9,21682],[52.9,21763],[52.9,21846],[52.9,21931],[52.9,22015],[52.9,22098],[52.9,22180],[52.9,22264],[52.9,22346],[52.9,22430],[52.9,22515],[52.9,22597],[52.9,22680],[52.9,22764],[52.9,22846],[52.9,22930],[52.9,23014],[52.9,23097],[52.9,23180],[52.9,23264],[52.9,23348],[52.9,23430],[52.9,23513],[52.9,23596],[52.9,23680],[52.9,23765],[52.9,23846],[52.9,23930],[52.9,24013],[52.9,24097],[52.9,24180],[52.9,24265],[52.9,24347],[52.9,24430],[52.9,24515],[52.9,24597],[52.9,24681],[52.9,24765],[52.9,24854],[52.9,24931],[52.9,25015],[52.9,25097],[52.9,25180],[52.9,25264],[52.9,25348],[52.9,25430],[52.9,25514],[52.9,25597],[52.9,25680],[52.9,25765],[52.9,25847],[52.9,25931],[52.9,26015],[52.9,26097],[52.9,26182],[52.9,26264],[52.9,26348],[52.9,26430],[52.9,26514],[52.9,26597],[52.9,26680],[52.9,26765],[52.9,26847],[52.9,26930],[52.9,27014],[52.9,27098],[52.9,27180],[52.9,27264],[52.9,27348],[52.9,27431],[52.9,27515],[52.9,27597],[52.9,27681],[52.9,27764],[52.9,27848],[52.9,27930],[52.9,28014],[52.9,28097],[52.9,28180],[52.9,28265],[52.9,28347],[52.9,28431],[52.9,28515],[52.9,28597],[52.9,28680],[52.9,28764],[52.9,28848],[52.9,28930],[52.9,29014],[52.9,29116],[52.9,29197],[52.9,29282],[52.9,29363],[52.9,29449],[52.9,29530],[52.9,29616],[52.9,29699],[52.9,29780],[52.9,29866],[52.9,29947],[52.9,30031],[52.9,30116],[52.9,30199],[52.9,30281],[52.9,30366],[52.9,30447],[52.9,30532],[52.9,30616],[52.9,30697],[52.9,30782],[52.9,30864],[52.9,30948],[52.9,31031],[52.9,31114],[52.9,31198],[52.9,31281],[52.9,31365],[52.9,31449],[52.9,31531],[52.9,31616],[52.9,31697],[52.9,31782],[52.9,31864],[52.9,31947],[52.9,32032],[52.9,32116],[52.9,32197],[52.9,32281],[52.9,32364],[52.9,32449],[52.9,32532],[52.9,32616],[52.9,32699],[52.9,32781],[52.9,32863],[52.9,32948],[52.9,33031],[52.9,33116],[52.9,33197],[52.9,33280],[52.9,33366],[52.9,33449],[52.9,33531],[52.9,33614],[52.9,33697],[52.9,33782],[52.9,33866],[52.9,33947],[52.9,34031],[52.9,34114],[52.9,34198],[52.9,34281],[52.9,34365],[52.9,34454],[52.9,34533],[52.9,34616],[52.9,34697],[52.9,34781],[52.9,34866],[52.9,34949],[52.9,35031],[52.9,35115],[52.9,35198],[52.9,35282],[52.9,35365],[52.9,35448],[52.9,35531],[52.9,35614],[52.9,35699],[52.9,35782],[52.9,35864],[52.9,35948],[52.9,36031],[52.9,36114],[52.9,36197],[52.9,36281],[52.9,36364],[52.9,36449],[52.9,36531],[52.9,36616],[53.7,36700],[54.5,36783],[55.4,36866],[56.9,36949],[57.5,37035],[57.5,37114],[57.5,37199],[57.5,37281],[57.5,37364],[57.5,37449],[57.5,37531],[57.5,37614],[57.5,37698],[57.5,37783],[57.5,37866],[57.5,37947],[57.5,38030],[57.5,38114],[57.5,38199],[57.5,38281],[57.5,38365],[57.5,38449],[57.5,38531],[57.5,38615],[57.5,38700],[57.5,38781],[57.5,38866],[57.5,38950],[57.5,39032],[57.5,39116],[57.5,39208],[57.5,39298],[57.5,39383],[57.5,39464],[57.5,39548],[57.5,39633],[57.5,39714],[57.5,39797],[57.5,39881],[57.5,39965],[57.5,40047],[57.5,40133],[57.5,40215],[57.5,40297],[57.5,40383],[57.5,40464],[57.5,40547],[57.5,40631],[57.5,40715],[57.5,40799],[57.5,40881],[57.5,40964],[57.5,41047],[57.5,41133],[57.5,41214],[57.5,41297],[57.5,41383],[57.5,41465],[57.5,41547],[57.5,41631],[57.5,41714],[57.5,41799],[57.5,41883],[57.5,41965],[57.5,42049],[57.5,42131],[57.5,42215],[57.5,42297],[57.5,42381],[57.5,42467],[57.5,42547],[57.5,42631],[57.5,42715],[57.5,42799],[57.5,42883],[57.5,42967],[57.5,43047],[57.5,43131],[57.5,43214],[57.5,43301],[57.5,43381],[57.5,43465],[57.5,43551],[57.5,43631],[57.5,43715],[57.5,43799],[57.5,43883],[57.5,43965],[57.5,44047],[57.5,44131],[57.5,44217],[57.5,44297],[57.5,44383],[57.5,44464],[57.5,44548],[57.5,44630],[57.5,44715],[57.5,44799],[57.5,44880],[57.5,44965],[57.5,45049],[57.5,45133],[57.5,45215],[57.5,45298],[57.5,45383],[57.5,45465],[57.5,45548],[57.5,45631],[57.5,45738],[57.5,45846],[57.5,45933],[57.5,46032],[57.5,46116],[57.5,46200],[57.5,46280],[57.5,46368],[57.5,46451],[57.5,46533],[57.5,46615],[57.5,46715],[57.5,46812],[57.5,46918],[57.5,47014],[57.5,47099],[57.5,47182],[57.5,47267],[57.5,47350],[57.5,47431],[57.5,47514],[57.5,47599],[57.5,47683],[57.5,47764],[57.5,47847],[57.5,47933],[57.5,48014],[57.5,48100],[57.5,48184],[57.5,48264],[57.5,48350],[57.5,48432],[57.5,48514],[57.5,48601],[57.5,48690],[57.5,48764],[57.5,48851],[57.5,48932],[57.5,49014],[57.5,49099],[57.5,49182],[57.5,49268],[57.5,49349],[57.5,49432],[57.5,49518],[57.5,49597],[57.5,49682],[57.5,49764],[57.5,49847],[57.5,49932],[57.5,50015],[57.5,50101],[57.5,50182],[57.5,50265],[57.5,50349],[57.5,50432],[57.5,50514],[57.5,50597],[57.5,50682],[57.5,50768],[57.5,50849],[57.5,50932],[57.5,51014],[57.5,51100],[57.5,51183],[57.5,51268],[57.5,51349],[57.5,51433],[57.5,51518],[57.5,51597],[57.5,51682],[57.5,51764],[57.5,51849],[57.5,51932],[57.5,52014],[57.5,52099],[57.5,52183],[57.5,52265],[57.5,52349],[57.5,52433],[57.5,52515],[57.5,52599],[57.5,52682],[57.5,52768],[57.5,52847],[57.5,52932],[57.5,53018],[57.5,53099],[57.5,53183],[57.5,53268],[57.5,53349],[57.5,53451],[57.5,53533],[57.5,53615],[57.5,53698],[57.5,53782],[57.5,53866],[57.5,53947],[57.5,54032],[57.5,54118],[57.5,54198],[57.5,54282],[57.5,54365],[57.5,54451],[57.5,54533],[57.5,54615],[57.5,54698],[57.5,54783],[57.5,54865],[57.5,54948],[57.5,55032],[57.5,55115],[57.5,55201],[57.5,55282],[57.5,55365],[57.5,55451],[57.5,55532],[57.5,55615],[57.5,55698],[57.5,55783],[57.5,55866]]",1,0,256.964,268.163,55.12445095,10.876,"[{""rating"":43.850658857979504,""responseTime"":5.127999999999929},{""rating"":49.41434846266471,""responseTime"":8.211999999999989},{""rating"":55.12445095168375,""responseTime"":10.875999999999976}]",space,10.665,,268.164,Not at all,0,268.18,,,[],,0,1,1,1,1,audio/Narrative7Situation1.wav,audio/Narrative8Situation1.wav,audio/Narrative5Situation1.wav,audio/Narrative6Situation1.wav,2,5,5,2,2.781,,,,,,,,,,,,,,,,,,,,,,,,,,,,,,,,,,,,,,
,,,,,,6079ff1600ff2b7455e1c3e0,2024-05-13_11h33.53.089,group3.1-3.2-social-tom,2023.2.2,Win32,59.95203837,65c5074098b851296ff0b7ed,6642328ae9f5cbf14752c622,,,,,,,,,,,,,,,,,,,,,,,,,,,,,268.182,1,audio/Narrative7Situation2.wav,271.182,,271.182,278.661,"[[50.1,1343],[48.4,1433],[47.5,1518],[47.4,1600],[47.4,1682],[47.5,1765],[48.4,1848],[49.3,1932],[49.6,2016],[49.6,2098],[49.6,2180],[49.6,2265],[49.6,2348],[49.6,2433],[49.6,2514],[49.6,2598],[49.6,2680],[49.6,2766],[49.6,2847],[49.6,2930],[49.6,3014],[49.6,3097],[49.6,3183],[49.6,3264],[49.6,3347],[49.6,3433],[49.6,3515],[49.6,3596],[49.6,3680],[49.6,3764],[49.6,3850],[49.6,3930],[49.6,4014],[49.6,4097],[49.6,4180],[49.6,4266],[49.6,4350],[49.6,4432],[49.6,4514],[49.6,4600],[49.6,4680],[49.6,4765],[49.6,4847],[49.6,4930],[49.6,5014],[49.6,5100],[49.6,5180],[49.6,5264],[49.6,5347],[49.6,5432],[49.6,5514],[49.6,5598],[49.6,5683],[49.6,5764],[49.6,5847],[49.6,5932],[49.6,6016],[49.6,6097],[49.6,6180],[49.6,6266],[49.6,6346],[49.6,6433],[49.6,6514],[49.6,6597],[49.6,6683],[49.6,6764],[49.6,6847],[49.6,6933],[49.6,7018],[49.6,7100],[49.6,7182],[49.6,7265],[49.6,7360],[49.6,7434]]",1,0,278.663,286.481,12.22547584,6.252,"[{""rating"":20.13177159590044,""responseTime"":3.1820000000000164},{""rating"":12.225475841874085,""responseTime"":6.251999999999953}]",space,7.288,,286.482,Half the time,50,286.491,,,[],,0,2,2,2,1,audio/Narrative7Situation2.wav,audio/Narrative8Situation2.wav,audio/Narrative5Situation2.wav,audio/Narrative6Situation2.wav,3,3,3,3,,,,,,,,,,,,,,,,,,,,,,,,,,,,,,,,,,,,,,,
,,,,,,6079ff1600ff2b7455e1c3e0,2024-05-13_11h33.53.089,group3.1-3.2-social-tom,2023.2.2,Win32,59.95203837,65c5074098b851296ff0b7ed,6642328ae9f5cbf14752c622,,,,,,,,,,,,,,,,,,,,,,,,,,,,,286.491,1,audio/Narrative7Situation3.wav,294.498,,294.498,303.766,"[[999,1],[999,86],[999,166],[999,250],[999,335],[999,418],[999,502],[999,583],[999,668],[999,752],[999,833],[999,918],[999,999],[999,1083],[999,1168],[999,1252],[999,1333],[999,1417],[999,1501],[999,1586],[999,1666],[999,1749],[999,1834],[999,1919],[999,2000],[999,2084],[999,2169],[999,2250],[999,2333],[999,2417],[999,2502],[999,2583],[999,2667],[999,2753],[999,2833],[999,2917],[999,3000],[999,3085],[999,3177],[999,3270],[999,3359],[30.8,3464],[29.2,3553],[28.3,3636],[27.6,3719],[25.4,3803],[22.8,3902],[21.3,4021],[21,4116],[21,4201],[21,4284],[21,4369],[21,4453],[21,4534],[21,4618],[21,4700],[21,4786],[21,4867],[21,4951],[21,5036],[21,5118],[21,5200],[21,5283],[21,5368],[21,5453],[21,5533],[21,5618],[21,5702],[21,5784],[21,5867],[21,5954],[21,6036],[21,6117],[21,6200],[21,6283],[21,6366],[21,6451],[21,6536],[21,6617],[21,6700],[21,6784],[21,6867],[21,6953],[21,7034],[21,7119],[21,7200],[21,7285],[21,7370],[21,7450],[21,7535],[21,7620],[21,7701],[21,7787],[21,7867],[21,7953],[21,8035],[21,8117],[21,8200],[21,8283],[21,8368],[21,8452],[21,8534],[21,8617],[21,8702],[21,8786],[21,8867],[21,8953],[21,9033],[21,9120],[21,9200]]",1,0,303.768,307.119,15.30014641,2.556,"[{""rating"":15.300146412884336,""responseTime"":2.55600000000004}]",space,2.813,,307.12,All the time,100,307.137,,,[],,0,3,3,3,1,audio/Narrative7Situation3.wav,audio/Narrative8Situation3.wav,audio/Narrative5Situation3.wav,audio/Narrative6Situation3.wav,8,4,3,5,,,,,,,,,,,,,,,,,,,,,,,,,,,,,,,,,,,,,,,
,,,,,,6079ff1600ff2b7455e1c3e0,2024-05-13_11h33.53.089,group3.1-3.2-social-tom,2023.2.2,Win32,59.95203837,65c5074098b851296ff0b7ed,6642328ae9f5cbf14752c622,,,,,,,,,,,,,,,,,,,,,,,,,,,,,307.138,1,audio/Narrative7Situation4.wav,310.149,,310.149,321.883,"[[21.9,4336],[29.5,4418],[35.7,4501],[39.6,4586],[41.7,4668],[44.4,4750],[47.8,4836],[48.7,4918],[46.2,5000],[39.9,5086],[32.7,5169],[28.6,5253],[26.3,5352],[24.4,5436],[21.9,5520],[20.3,5602],[19.4,5684],[19.3,5766],[19.3,5850],[19.3,5932],[19.3,6016],[19.3,6101],[19.3,6183],[19.3,6266],[19.3,6351],[19.3,6432],[19.3,6519],[19.3,6600],[19.3,6682],[19.3,6769],[19.3,6850],[19.3,6933],[19.3,7024],[19.3,7100],[19.3,7183],[19.3,7265],[19.3,7350],[19.3,7436],[19.3,7516],[19.3,7600],[19.3,7683],[19.3,7769],[19.3,7850],[19.3,7933],[19.3,8016],[19.3,8102],[19.3,8182],[19.3,8266],[19.3,8351],[19.3,8436],[19.3,8516],[19.3,8600],[19.3,8683],[19.3,8769],[19.3,8851],[19.3,8932],[19.3,9019],[19.3,9101],[19.3,9183],[19.3,9269],[19.3,9350],[19.3,9434],[19.3,9516],[19.3,9602],[19.3,9683],[19.3,9766],[19.3,9851],[19.3,9937],[19.3,10016],[19.3,10100],[19.3,10182],[19.3,10269],[19.3,10351],[19.3,10432],[19.3,10516],[19.3,10601],[19.3,10686],[19.3,10769],[19.3,10850],[19.3,10933],[19.3,11019],[19.3,11101],[19.3,11187],[19.3,11266],[19.3,11351],[19.3,11433],[19.3,11516],[19.3,11601],[19.3,11683]]",1,0,321.884,324.47,11.78623719,2.032,"[{""rating"":11.786237188872622,""responseTime"":2.032000000000039}]",space,2.048,,324.47,Half the time,50,324.478,,,[],,0,4,4,4,1,audio/Narrative7Situation4.wav,audio/Narrative8Situation4.wav,audio/Narrative5Situation4.wav,audio/Narrative6Situation4.wav,3,3,1,2,,,,,,,,,,,,,,,,,,,,,,,,,,,,,,,,,,,,,,,
,,,,,,6079ff1600ff2b7455e1c3e0,2024-05-13_11h33.53.089,group3.1-3.2-social-tom,2023.2.2,Win32,59.95203837,65c5074098b851296ff0b7ed,6642328ae9f5cbf14752c622,,,,,,,,,,,,,,,,,,,,,,,,,,,,,324.479,1,audio/Narrative7Situation5.wav,329.485,,329.485,337.985,"[[12.4,1018],[13.5,1100],[14,1182],[14.1,1266],[14.7,1348],[16,1452],[18.1,1535],[21.2,1620],[22.3,1715],[22.3,1798],[22.3,1884],[22.3,1965],[22.3,2060],[22.3,2149],[22.2,2232],[20.9,2336],[20.4,2418],[19.7,2500],[19,2583],[18.4,2668],[18.1,2751],[17.6,2832],[17.2,2918],[16.9,3000],[16.6,3081],[16.2,3167],[15.9,3249],[15.9,3333],[15.9,3417],[15.9,3497],[15.9,3581],[15.9,3665],[15.9,3751],[15.9,3831],[15.9,3914],[15.9,4000],[15.9,4081],[15.9,4165],[15.9,4250],[15.9,4331],[15.9,4417],[15.9,4501],[15.9,4581],[15.9,4664],[15.9,4747],[15.9,4831],[15.9,4917],[15.9,4997],[15.9,5081],[15.9,5165],[15.9,5249],[15.9,5334],[15.9,5415],[15.9,5499],[15.9,5582],[15.9,5668],[15.9,5749],[15.9,5831],[15.9,5915],[15.9,6000],[15.9,6083],[17.1,6167],[18.5,6249],[21.3,6333],[23.1,6418],[24.2,6502],[25,6584],[25.4,6665],[25.4,6750],[25.7,6833],[26,6919],[26.1,7000],[26.1,7082],[26.1,7164],[26.1,7249],[26.1,7331],[26.1,7415],[26.1,7499],[26.1,7581],[26.1,7665],[26.1,7750],[26.1,7834],[26.1,7915],[26.1,7997],[26.1,8081],[26.1,8167],[26.1,8250],[26.1,8331],[26.1,8417],[26.1,8500]]",1,0,337.986,339.703,23.7920937,1.529,"[{""rating"":23.792093704245975,""responseTime"":1.5289999999999964}]",space,1.171,,339.704,Not at all,0,339.715,,,[],,0,5,5,5,1,audio/Narrative7Situation5.wav,audio/Narrative8Situation5.wav,audio/Narrative5Situation5.wav,audio/Narrative6Situation5.wav,5,2,5,2,,,,,,,,,,,,,,,,,,,,,,,,,,,,,,,,,,,,,,,
,,,,,,6079ff1600ff2b7455e1c3e0,2024-05-13_11h33.53.089,group3.1-3.2-social-tom,2023.2.2,Win32,59.95203837,65c5074098b851296ff0b7ed,6642328ae9f5cbf14752c622,,,,,,,,,,,,,,,,,,,,,,,,,,,,,339.717,1,audio/Narrative7Situation6.wav,342.717,,342.718,352.687,"[[25,1500],[25.1,1583],[23.8,1668],[23.5,1752],[23.5,1833],[23.5,1918],[23.5,2002],[23.5,2083],[23.5,2166],[23.5,2250],[23.5,2334],[23.5,2418],[23.5,2500],[23.5,2583],[23.5,2667],[23.5,2752],[23.5,2834],[23.5,2917],[23.5,3000],[23.5,3083],[23.8,3168],[24.8,3250],[25.4,3336],[26,3420],[27,3500],[29.1,3586],[31.6,3678],[33.2,3767],[33.6,3853],[34.3,3934],[35.7,4017],[36.5,4101],[37.4,4184],[38.6,4267],[39.9,4353],[41.7,4435],[43.7,4519],[44.4,4601],[44.4,4686],[44.4,4768],[44.4,4850],[47.5,4936],[52.5,5018],[54.5,5104],[55.1,5186],[55.1,5267],[55.1,5350],[55.1,5436],[55.1,5517],[55.1,5600],[55.1,5682],[55.1,5769],[55.1,5851],[55.1,5932],[55.1,6017],[55.1,6101],[55.4,6184],[56.9,6269],[57.6,6350],[58.2,6436],[58.8,6519],[58.9,6601],[59.1,6682],[59.1,6769],[59.1,6850],[59.1,6936],[59.1,7019],[59.1,7119],[59.1,7208],[59.1,7286],[59.1,7370],[59.1,7450],[59.1,7535],[59.1,7619],[59.2,7700],[59.7,7787],[59.8,7865],[60.1,7952],[60.2,8033],[60.2,8118],[60.2,8200],[60.2,8283],[60.2,8367],[60.2,8450],[60.2,8533],[60.2,8619],[60.2,8702],[60.2,8783],[60.2,8868],[60.2,8950],[60.2,9033],[60.2,9118],[60.2,9200],[60.2,9283],[60.2,9369],[60.2,9452],[60.2,9533],[60.7,9620],[61.6,9701],[61.9,9783],[62.2,9867],[62.3,9951]]",1,0,352.689,354.152,62.59150805,1.376,"[{""rating"":62.59150805270863,""responseTime"":1.37600000000009}]",space,0.917,,354.152,All the time,100,354.16,,,[],,0,6,6,6,1,audio/Narrative7Situation6.wav,audio/Narrative8Situation6.wav,audio/Narrative5Situation6.wav,audio/Narrative6Situation6.wav,3,2,3,2,,,,,,,,,,,,,,,,,,,,,,,,,,,,,,,,,,,,,,,
,,,,,,6079ff1600ff2b7455e1c3e0,2024-05-13_11h33.53.089,group3.1-3.2-social-tom,2023.2.2,Win32,59.95203837,65c5074098b851296ff0b7ed,6642328ae9f5cbf14752c622,,,,,,,,,,,,,,,,,,,,,,,,,,,,,354.162,1,audio/Narrative7Situation7.wav,359.169,,359.169,376.356,"[[62.4,769],[62.2,850],[62.2,932],[62.2,1018],[62.2,1101],[62.2,1182],[62.2,1269],[62.2,1352],[62.2,1432],[62.2,1517],[62.2,1600],[62.2,1682],[62.2,1768],[62.2,1851],[62.2,1932],[62.2,2017],[62.2,2100],[62.2,2186],[62.2,2265],[62.2,2351],[62.2,2432],[62.2,2519],[62.2,2600],[62.2,2682],[62.2,2767],[62.2,2852],[62.2,2932],[62.2,3015],[62.2,3100],[62.2,3182],[62.2,3267],[62.2,3350],[62.2,3433],[62.2,3517],[62.2,3601],[62.2,3682],[62.2,3767],[62.2,3850],[62.2,3936],[62.2,4019],[62.2,4100],[62.2,4186],[62.2,4268],[62.2,4351],[62.2,4432],[62.2,4517],[62.2,4600],[62.2,4683],[62.2,4769],[62.2,4852],[62.2,4933],[62.2,5019],[62.2,5100],[60,5186],[58.1,5270],[57,5370],[56.3,5452],[55.6,5533],[54.4,5620],[52.5,5721],[51,5812],[50.1,5913],[50,6000],[50,6085],[49.9,6166],[49.7,6253],[49.7,6332],[49.7,6419],[49.7,6501],[49.7,6584],[49.7,6668],[49.7,6750],[49.7,6834],[49.7,6918],[49.7,7000],[49.7,7086],[49.7,7167],[49.7,7250],[49.7,7336],[49.7,7417],[49.7,7500],[49.7,7594],[49.7,7687],[49.7,7783],[49.7,7870],[49.7,7952],[49.7,8033],[49.7,8120],[49.7,8200],[49.7,8286],[49.7,8369],[49.7,8452],[49.7,8534],[49.7,8619],[49.7,8726],[49.7,8836],[49.7,8917],[49.7,9001],[49.7,9084],[49.7,9167],[49.7,9250],[49.7,9334],[49.7,9419],[49.7,9500],[49.7,9582],[49.7,9667],[49.7,9753],[49.7,9834],[49.7,9918],[49.7,10001],[49.7,10084],[49.7,10167],[49.7,10250],[49.7,10336],[49.7,10417],[49.7,10500],[49.7,10582],[49.7,10669],[49.7,10750],[49.7,10834],[49.7,10918],[49.7,11003],[49.7,11084],[49.7,11167],[49.7,11254],[49.7,11336],[49.7,11419],[49.7,11501],[49.7,11586],[45.3,11668],[42.7,11753],[40.5,11837],[37.8,11918],[36.5,12004],[35.9,12086],[35.5,12168],[35.5,12250],[35.5,12337],[35.5,12419],[35.5,12500],[35.5,12586],[35.5,12668],[35.5,12753],[35.5,12834],[35.5,12918],[35.5,13000],[35.5,13086],[35.5,13168],[35.5,13250],[35.5,13336],[35.5,13418],[35.5,13503],[35.5,13584],[35.5,13667],[35.5,13750],[35.5,13836],[35.5,13917],[35.5,14000],[35.5,14086],[35.5,14167],[35.5,14250],[35.5,14336],[35.5,14418],[35.5,14503],[35.5,14584],[35.5,14669],[35.5,14750],[35.5,14834],[35.5,14917],[35.5,15001],[35.5,15084],[35.5,15167],[35.5,15269],[35.5,15352],[35.5,15435],[35.5,15520],[35.5,15600],[35.5,15682],[35.5,15769],[35.5,15854],[35.5,15933],[35.5,16019],[35.5,16101],[35.5,16186],[35.5,16269],[35.5,16350],[35.5,16435],[35.4,16519],[36.5,16601],[38.7,16687],[44.6,16772],[57,16854],[61.4,16933],[63.3,17019],[63.9,17101],[64.1,17187]]",1,0,376.357,379.705,49.85358712,2.963,"[{""rating"":49.85358711566617,""responseTime"":2.9629999999999654}]",space,2.797,,379.705,Not at all,0,379.717,,,[],,0,7,7,7,1,audio/Narrative7Situation7.wav,audio/Narrative8Situation7.wav,audio/Narrative5Situation7.wav,audio/Narrative6Situation7.wav,5,3,4,5,,,,,,,,,,,,,,,,,,,,,,,,,,,,,,,,,,,,,,,
,,,,,,6079ff1600ff2b7455e1c3e0,2024-05-13_11h33.53.089,group3.1-3.2-social-tom,2023.2.2,Win32,59.95203837,65c5074098b851296ff0b7ed,6642328ae9f5cbf14752c622,,,,,,,,,,,,,,,,,,,,,,,,,,,,,379.718,1,audio/Narrative7Situation8.wav,381.721,,381.721,391.773,"[[56,601],[59.8,687],[62.6,768],[65.5,852],[67.3,936],[70.1,1016],[72.3,1098],[73.9,1186],[76.4,1266],[78.1,1351],[78.6,1432],[78.6,1515],[78.6,1600],[78.6,1684],[78.6,1766],[78.6,1850],[78.6,1932],[78.6,2015],[78.6,2100],[78.6,2183],[78.6,2269],[78.6,2350],[78.6,2432],[78.6,2515],[78.6,2600],[78.6,2683],[78.6,2768],[78.6,2848],[78.6,2933],[78.6,3016],[78.6,3098],[78.6,3186],[78.6,3274],[78.6,3366],[78.6,3448],[78.6,3532],[78.6,3615],[78.6,3701],[78.6,3802],[78.6,3913],[78.6,4020],[78.6,4136],[78.6,4240],[78.6,4351],[78.6,4457],[78.6,4567],[78.6,4693],[78.6,4803],[78.6,4918],[78.6,5026],[78.6,5125],[78.6,5221],[78.6,5341],[78.6,5442],[78.6,5540],[78.6,5644],[78.6,5752],[78.6,5870],[78.6,5972],[78.6,6083],[78.6,6191],[78.6,6321],[78.6,6439],[78.6,6548],[78.6,6663],[78.6,6761],[78.6,6851],[78.6,6933],[78.6,7018],[78.6,7101],[78.6,7182],[78.6,7269],[78.6,7350],[78.6,7432],[78.6,7516],[78.6,7602],[78.6,7683],[78.6,7765],[78.6,7850],[78.6,7951],[78.6,8057],[78.6,8151],[78.6,8234],[78.6,8316],[78.6,8399],[78.6,8481],[78.6,8567],[78.6,8649],[78.6,8744],[78.6,8818],[78.6,8903],[78.6,9001],[78.6,9082],[78.6,9165],[78.6,9250],[78.6,9335],[78.6,9418],[78.6,9500],[78.6,9583],[78.6,9667],[78.6,9751],[78.6,9835],[78.6,9915],[78.6,10002]]",1,0,391.774,393.14,77.96486091,0.981,"[{""rating"":77.96486090775988,""responseTime"":0.9809999999999945}]",space,0.822,,393.14,Half the time,50,406.223,49.85358712,10.86,"[{""rating"":49.85358711566617,""responseTime"":10.860000000000014}]",space,0,8,8,8,1,audio/Narrative7Situation8.wav,audio/Narrative8Situation8.wav,audio/Narrative5Situation8.wav,audio/Narrative6Situation8.wav,2,3,3,5,,,12.536,,,,,,,,,,,,,,,,,,,,,,,,,,,,,,,,,,,,
,,,,,,6079ff1600ff2b7455e1c3e0,2024-05-13_11h33.53.089,group3.1-3.2-social-tom,2023.2.2,Win32,59.95203837,65c5074098b851296ff0b7ed,6642328ae9f5cbf14752c622,,,,,,,,,,,,,,,,,,,,,,,,,,,,,406.225,1,audio/Narrative7Situation9.wav,408.238,,408.239,416.875,"[[999,1],[999,86],[999,169],[999,250],[999,332],[999,418],[999,500],[999,586],[49.7,668],[49.7,750],[49.7,836],[49.7,915],[49.7,1000],[49.7,1082],[49.7,1168],[49.7,1248],[49.7,1333],[49.7,1415],[49.7,1501],[49.9,1584],[49.9,1665],[50.3,1751],[51.3,1836],[54.8,1919],[58.9,2001],[62.4,2086],[65.4,2169],[67.6,2252],[71.1,2332],[73.9,2419],[77.5,2500],[78.6,2582],[78.6,2666],[78.6,2751],[78.6,2832],[78.6,2915],[78.6,3001],[78.6,3082],[78.6,3166],[78.6,3251],[78.6,3332],[78.6,3416],[78.6,3501],[78.6,3582],[78.6,3666],[78.6,3750],[78.6,3836],[78.6,3915],[78.6,4000],[78.6,4082],[78.6,4166],[78.6,4250],[78.6,4332],[78.6,4416],[78.6,4500],[78.6,4586],[78.6,4666],[78.6,4752],[78.6,4836],[78.6,4916],[78.6,5000],[78.6,5082],[78.6,5168],[78.6,5250],[78.6,5336],[78.6,5418],[78.6,5500],[78.6,5582],[78.6,5666],[78.6,5751],[78.6,5836],[78.6,5916],[78.6,6000],[78.6,6082],[78.6,6168],[78.6,6250],[78.6,6332],[78.6,6416],[78.6,6501],[78.6,6583],[78.6,6666],[78.6,6752],[78.6,6832],[78.6,6916],[78.6,7000],[78.6,7086],[78.6,7168],[78.6,7251],[78.6,7333],[78.6,7418],[78.6,7502],[78.6,7586],[78.6,7666],[78.6,7750],[78.6,7833],[78.6,7918],[78.6,8000],[78.6,8083],[78.6,8168],[78.3,8252],[77.7,8336],[78.7,8416],[79.3,8502],[79.3,8583]]",1,0,416.876,420.957,76.93997072,3.396,"[{""rating"":76.93997071742314,""responseTime"":3.395999999999958}]",space,3.537,,420.957,Half the time,50,420.963,,,[],,0,9,9,9,1,audio/Narrative7Situation9.wav,audio/Narrative8Situation9.wav,audio/Narrative5Situation9.wav,audio/Narrative6Situation9.wav,2,3,3,4,,,,,,,,,,,,,,,,,,,,,,,,,,,,,,,,,,,,,,,
,,,,,,6079ff1600ff2b7455e1c3e0,2024-05-13_11h33.53.089,group3.1-3.2-social-tom,2023.2.2,Win32,59.95203837,65c5074098b851296ff0b7ed,6642328ae9f5cbf14752c622,,,,,,,,,,,,,,,,,,,,,,,,,,,,,420.964,1,audio/Narrative8Situation1.wav,425.974,,425.974,441.909,"[[56.1,853],[54.7,953],[52.6,1070],[50.1,1170],[49.6,1250],[49.3,1335],[49,1417],[49,1499],[49.3,1586],[49.7,1685],[49.7,1769],[49.7,1854],[49.9,1935],[49.9,2016],[49.9,2099],[49.9,2185],[49.9,2266],[49.9,2349],[49.9,2433],[49.9,2519],[49.9,2599],[49.9,2685],[49.9,2766],[49.9,2849],[49.9,2933],[49.9,3019],[49.9,3099],[49.9,3182],[49.9,3268],[49.9,3349],[49.9,3433],[49.9,3517],[49.9,3602],[49.9,3685],[49.9,3766],[49.9,3852],[41.9,3936],[34.2,4019],[27.5,4104],[22.5,4186],[19,4267],[17.2,4352],[14.7,4436],[10.9,4518],[8,4602],[6.4,4685],[5.6,4766],[5.5,4852],[5.1,4934],[4.2,5016],[3.7,5102],[3.7,5183],[3.7,5267],[3.7,5350],[3.7,5435],[3.7,5516],[3.7,5600],[3.7,5684],[3.7,5769],[3.7,5850],[3.7,5932],[3.7,6016],[3.7,6100],[3.7,6185],[3.7,6266],[3.7,6351],[3.7,6435],[3.7,6523],[3.7,6603],[3.7,6683],[3.7,6769],[3.7,6851],[3.7,6934],[3.7,7019],[3.7,7100],[3.7,7185],[3.7,7267],[3.7,7350],[3.7,7434],[3.7,7518],[3.7,7600],[3.7,7683],[3.7,7766],[3.7,7852],[3.7,7933],[3.7,8016],[3.7,8101],[3.7,8185],[3.7,8266],[3.7,8349],[3.7,8433],[3.7,8518],[3.7,8600],[3.7,8686],[3.7,8766],[3.7,8850],[3.7,8934],[3.7,9019],[3.7,9100],[3.7,9184],[3.7,9269],[3.7,9350],[3.7,9434],[3.7,9519],[3.7,9600],[3.7,9683],[3.7,9769],[3.7,9850],[3.7,9934],[3.7,10017],[3.7,10102],[3.7,10183],[3.7,10267],[3.7,10352],[3.7,10433],[3.7,10516],[3.7,10601],[3.7,10686],[3.7,10767],[3.7,10850],[3.7,10935],[3.7,11017],[3.7,11101],[3.7,11186],[3.7,11266],[3.7,11352],[3.7,11437],[3.7,11517],[3.7,11600],[3.7,11683],[3.7,11767],[3.7,11850],[3.7,11933],[3.7,12019],[3.7,12099],[3.7,12184],[3.7,12269],[3.7,12350],[3.7,12434],[3.7,12519],[3.7,12602],[3.7,12685],[3.7,12767],[3.7,12850],[3.7,12936],[3.7,13019],[3.7,13100],[3.7,13186],[3.7,13269],[3.7,13352],[3.7,13436],[3.7,13536],[3.7,13619],[3.7,13701],[3.7,13785],[3.7,13870],[3.7,13953],[3.7,14034],[3.7,14117],[3.7,14203],[3.7,14285],[3.7,14369],[3.7,14452],[3.7,14536],[3.7,14619],[3.7,14700],[3.7,14784],[3.7,14866],[3.7,14951],[3.7,15036],[3.7,15117],[3.7,15201],[3.7,15284],[3.7,15369],[3.7,15451],[3.7,15537],[3.7,15617],[3.7,15703],[3.7,15784],[3.7,15869]]",1,0,441.926,444.311,2.855051245,1.678,"[{""rating"":2.8550512445095153,""responseTime"":1.6779999999999973}]",space,1.829,,444.312,All the time,100,444.323,,,[],,0,10,10,10,1,audio/Narrative8Situation1.wav,audio/Narrative7Situation1.wav,audio/Narrative6Situation1.wav,audio/Narrative5Situation1.wav,5,2,2,5,,,,,,,,,,,,,,,,,,,,,,,,,,,,,,,,,,,,,,,
,,,,,,6079ff1600ff2b7455e1c3e0,2024-05-13_11h33.53.089,group3.1-3.2-social-tom,2023.2.2,Win32,59.95203837,65c5074098b851296ff0b7ed,6642328ae9f5cbf14752c622,,,,,,,,,,,,,,,,,,,,,,,,,,,,,444.325,1,audio/Narrative8Situation2.wav,447.341,,447.341,457.472,"[[3.4,684],[3.4,769],[3.4,850],[3.4,936],[3.4,1016],[3.4,1100],[3.4,1187],[3.4,1266],[3.4,1350],[3.4,1436],[3.4,1516],[3.4,1600],[3.6,1683],[3.6,1766],[3.6,1852],[3.6,1933],[3.6,2016],[3.6,2102],[3.6,2183],[3.6,2268],[3.6,2352],[3.6,2432],[3.6,2516],[3.6,2602],[3.6,2682],[3.6,2768],[3.6,2850],[3.6,2936],[3.6,3016],[3.6,3100],[3.6,3186],[3.6,3266],[3.6,3350],[3.6,3433],[3.6,3519],[3.6,3600],[3.6,3683],[3.6,3766],[3.6,3851],[3.6,3936],[3.6,4016],[3.6,4100],[3.6,4187],[3.6,4269],[3.6,4350],[3.6,4433],[3.6,4520],[3.6,4600],[3.6,4684],[3.6,4768],[3.6,4851],[3.6,4933],[3.6,5019],[3.6,5102],[3.6,5183],[3.6,5268],[3.6,5350],[3.6,5437],[3.6,5518],[3.6,5600],[3.6,5684],[3.6,5769],[3.6,5850],[3.6,5933],[3.6,6018],[3.6,6102],[3.6,6184],[3.6,6269],[3.6,6352],[3.6,6433],[3.6,6518],[3.6,6600],[3.6,6687],[3.6,6766],[3.6,6870],[3.6,6971],[3.6,7052],[3.6,7159],[3.6,7252],[3.6,7336],[3.6,7419],[3.6,7519],[3.6,7620],[3.6,7721],[3.6,7819],[3.6,7903],[3.6,7986],[3.6,8092],[3.6,8202],[3.6,8314],[3.6,8434],[3.6,8543],[3.6,8636],[3.6,8752],[3.6,8836],[3.6,8920],[3.6,9001],[3.6,9109],[3.6,9226],[10,9337],[12.7,9458],[14.6,9576],[14.9,9663],[14.9,9750],[14.9,9841],[14.9,9937],[14.9,10018],[14.9,10111]]",1,0,457.472,459.178,17.64275256,1.265,"[{""rating"":17.64275256222548,""responseTime"":1.2649999999999864}]",space,1.173,,459.179,All the time,100,459.183,,,[],,0,11,11,11,1,audio/Narrative8Situation2.wav,audio/Narrative7Situation2.wav,audio/Narrative6Situation2.wav,audio/Narrative5Situation2.wav,3,3,3,3,,,,,,,,,,,,,,,,,,,,,,,,,,,,,,,,,,,,,,,
,,,,,,6079ff1600ff2b7455e1c3e0,2024-05-13_11h33.53.089,group3.1-3.2-social-tom,2023.2.2,Win32,59.95203837,65c5074098b851296ff0b7ed,6642328ae9f5cbf14752c622,,,,,,,,,,,,,,,,,,,,,,,,,,,,,459.183,1,audio/Narrative8Situation3.wav,463.193,,463.193,485.581,"[[17.2,917],[17.1,1000],[17.5,1085],[17.6,1167],[17.8,1250],[17.8,1335],[17.8,1416],[17.8,1499],[17.8,1585],[17.8,1668],[17.8,1749],[17.8,1832],[17.8,1917],[17.8,2001],[17.8,2081],[17.8,2167],[17.8,2251],[17.8,2332],[17.8,2416],[17.8,2500],[17.8,2585],[17.8,2666],[17.8,2750],[17.8,2836],[17.8,2917],[17.8,3003],[17.8,3082],[17.8,3167],[17.8,3254],[17.8,3336],[17.8,3418],[17.8,3500],[17.8,3582],[17.8,3668],[17.8,3750],[17.8,3835],[17.8,3917],[17.8,4000],[17.8,4084],[17.8,4168],[17.8,4250],[17.8,4334],[17.8,4418],[17.8,4500],[17.8,4584],[17.8,4668],[17.8,4750],[17.8,4832],[17.8,4917],[17.8,5000],[17.8,5082],[17.8,5166],[17.8,5250],[17.8,5336],[17.8,5418],[17.8,5500],[17.8,5585],[17.8,5667],[17.8,5749],[17.8,5835],[17.8,5918],[17.8,6000],[17.8,6082],[17.8,6167],[17.8,6253],[17.8,6332],[17.8,6417],[17.8,6501],[17.8,6582],[17.8,6668],[17.8,6750],[17.8,6832],[17.8,6917],[17.8,7003],[17.8,7085],[17.8,7167],[17.8,7253],[17.8,7332],[17.8,7416],[17.8,7500],[17.8,7586],[17.8,7667],[17.8,7750],[17.8,7836],[17.8,7916],[17.8,8000],[17.8,8086],[17.8,8167],[17.8,8258],[17.8,8335],[17.8,8417],[17.8,8503],[17.8,8584],[17.8,8668],[17.8,8753],[17.8,8834],[17.8,8918],[17.8,9001],[17.8,9082],[17.8,9167],[17.8,9251],[17.8,9332],[17.8,9416],[17.8,9503],[17.8,9582],[17.8,9667],[17.8,9750],[17.8,9834],[17.8,9918],[17.8,10000],[17.8,10082],[17.8,10167],[17.8,10251],[17.8,10334],[17.8,10417],[17.8,10500],[17.8,10582],[17.8,10668],[17.8,10750],[17.8,10832],[17.8,10917],[17.8,11003],[17.8,11084],[17.8,11167],[17.8,11250],[17.8,11332],[17.8,11418],[17.8,11503],[17.8,11586],[17.8,11667],[17.8,11750],[17.8,11835],[17.8,11918],[17.8,12001],[17.8,12082],[17.8,12168],[17.8,12251],[17.8,12334],[17.8,12417],[17.8,12503],[17.8,12584],[17.8,12668],[17.8,12750],[17.8,12834],[17.8,12918],[17.8,13005],[17.8,13082],[17.8,13167],[17.8,13250],[17.8,13336],[17.8,13418],[17.8,13500],[17.8,13584],[17.8,13667],[17.8,13753],[17.8,13834],[17.8,13917],[17.8,14000],[17.8,14084],[17.8,14169],[17.8,14250],[17.8,14334],[17.8,14417],[17.8,14500],[17.8,14586],[17.8,14668],[17.8,14750],[17.8,14836],[17.8,14918],[17.8,15001],[17.8,15086],[17.8,15168],[17.8,15254],[17.8,15336],[17.8,15418],[17.8,15503],[17.8,15584],[17.8,15667],[17.8,15751],[17.8,15832],[17.8,15918],[17.8,16000],[17.8,16086],[17.8,16168],[17.8,16250],[17.8,16336],[17.8,16417],[17.8,16500],[17.8,16584],[17.8,16669],[17.8,16750],[17.8,16834],[17.8,16919],[17.8,17000],[17.8,17084],[17.8,17168],[17.8,17253],[17.8,17334],[17.8,17418],[17.8,17503],[17.8,17584],[17.8,17668],[17.8,17753],[17.8,17836],[17.8,17918],[17.8,18000],[17.8,18091],[17.8,18168],[17.8,18250],[17.8,18334],[17.8,18418],[17.8,18503],[17.8,18584],[17.8,18667],[17.8,18750],[17.8,18834],[17.8,18919],[17.8,19000],[17.8,19084],[17.8,19167],[17.8,19250],[17.8,19334],[17.8,19417],[17.8,19500],[17.8,19586],[17.8,19667],[17.8,19750],[17.8,19834],[17.8,19918],[17.8,20003],[17.8,20084],[17.8,20167],[17.8,20251],[17.8,20336],[17.8,20419],[17.8,20500],[17.8,20584],[17.8,20668],[17.8,20753],[17.8,20834],[17.8,20918],[17.8,21003],[17.8,21084],[17.8,21167],[17.8,21250],[17.8,21336],[17.8,21417],[17.8,21500],[17.8,21585],[17.8,21669],[17.8,21750],[17.8,21834],[17.8,21918],[17.8,22003],[17.8,22085],[17.8,22168],[17.8,22254],[17.8,22336]]",1,0,485.581,487.161,18.81405564,1.163,"[{""rating"":18.81405563689605,""responseTime"":1.163000000000011}]",space,1.04,,487.162,All the time,100,487.171,,,[],,0,12,12,12,1,audio/Narrative8Situation3.wav,audio/Narrative7Situation3.wav,audio/Narrative6Situation3.wav,audio/Narrative5Situation3.wav,4,8,5,3,,,,,,,,,,,,,,,,,,,,,,,,,,,,,,,,,,,,,,,
,,,,,,6079ff1600ff2b7455e1c3e0,2024-05-13_11h33.53.089,group3.1-3.2-social-tom,2023.2.2,Win32,59.95203837,65c5074098b851296ff0b7ed,6642328ae9f5cbf14752c622,,,,,,,,,,,,,,,,,,,,,,,,,,,,,487.172,1,audio/Narrative8Situation4.wav,490.178,,490.178,504.38,"[[18.2,1918],[17.3,2000],[17.6,2083],[17.8,2165],[17.9,2250],[17.9,2335],[17.9,2417],[17.9,2500],[17.9,2586],[17.9,2667],[17.9,2750],[17.9,2835],[17.9,2915],[17.9,3000],[17.9,3085],[17.9,3165],[17.9,3250],[17.9,3333],[17.9,3418],[17.9,3500],[17.9,3583],[17.9,3667],[17.9,3751],[17.9,3832],[17.9,3915],[17.9,4000],[17.9,4085],[17.9,4168],[17.9,4250],[17.9,4332],[17.9,4417],[17.9,4501],[17.9,4583],[17.9,4667],[17.9,4750],[17.9,4835],[17.9,4915],[17.9,5000],[17.9,5083],[17.9,5168],[17.9,5250],[17.9,5333],[17.9,5423],[17.9,5501],[17.9,5582],[17.9,5667],[17.9,5751],[17.9,5833],[17.9,5915],[17.9,6000],[17.9,6083],[17.9,6168],[17.9,6250],[17.9,6333],[17.9,6418],[17.9,6500],[17.9,6582],[17.9,6665],[17.9,6750],[17.9,6836],[17.9,6915],[17.9,6998],[17.9,7086],[17.9,7166],[17.9,7250],[17.9,7333],[17.9,7416],[17.9,7500],[17.9,7586],[17.9,7666],[17.9,7750],[17.9,7833],[17.9,7916],[17.9,8000],[17.9,8084],[17.9,8166],[17.9,8250],[17.9,8334],[17.9,8415],[17.9,8500],[17.9,8582],[17.9,8669],[17.9,8750],[17.9,8832],[17.9,8916],[17.9,9000],[17.9,9083],[17.9,9168],[17.9,9250],[17.9,9336],[17.9,9416],[17.9,9500],[17.9,9586],[17.9,9670],[17.9,9750],[17.9,9836],[17.9,9915],[17.9,10000],[17.9,10086],[17.9,10173],[17.9,10251],[17.9,10333],[17.9,10418],[17.9,10500],[17.9,10583],[17.9,10668],[17.9,10750],[17.9,10833],[17.9,10916],[17.9,11001],[17.9,11082],[17.9,11168],[17.9,11251],[17.9,11332],[17.9,11416],[17.9,11500],[17.9,11586],[17.9,11666],[17.9,11750],[17.9,11833],[17.9,11919],[17.9,12002],[17.9,12083],[17.9,12165],[17.9,12251],[17.9,12347],[17.9,12435],[17.9,12516],[17.9,12599],[17.9,12684],[17.9,12769],[17.9,12849],[17.9,12934],[17.9,13019],[17.9,13099],[17.9,13184],[17.9,13269],[17.9,13352],[17.9,13435],[17.9,13517],[17.9,13601],[17.9,13683],[17.9,13769],[17.9,13849],[17.9,13935],[17.9,14016],[17.9,14101],[17.9,14182]]",1,0,504.381,505.745,18.37481698,1.279,"[{""rating"":18.374816983894583,""responseTime"":1.2789999999999964}]",space,0.82,,505.746,Not at all,0,505.758,,,[],,0,13,13,13,1,audio/Narrative8Situation4.wav,audio/Narrative7Situation4.wav,audio/Narrative6Situation4.wav,audio/Narrative5Situation4.wav,3,3,2,1,,,,,,,,,,,,,,,,,,,,,,,,,,,,,,,,,,,,,,,
,,,,,,6079ff1600ff2b7455e1c3e0,2024-05-13_11h33.53.089,group3.1-3.2-social-tom,2023.2.2,Win32,59.95203837,65c5074098b851296ff0b7ed,6642328ae9f5cbf14752c622,,,,,,,,,,,,,,,,,,,,,,,,,,,,,505.759,1,audio/Narrative8Situation5.wav,507.765,,507.765,516.015,"[[19.1,6430],[19.8,6524],[19.8,6597],[20,6680],[20,6766],[19.1,6858],[17.8,6966],[17.5,7067],[18.2,7150],[18.7,7236],[18.8,7313],[18.8,7399],[18.8,7480],[19,7566],[19,7648],[19,7732],[19,7813],[19,7896],[19,7980],[19,8066],[19,8146],[19,8231]]",1,0,516.016,517.213,17.64275256,0.796,"[{""rating"":17.64275256222548,""responseTime"":0.7960000000000491}]",space,0.648,,517.213,All the time,100,517.221,,,[],,0,14,14,14,1,audio/Narrative8Situation5.wav,audio/Narrative7Situation5.wav,audio/Narrative6Situation5.wav,audio/Narrative5Situation5.wav,2,5,2,5,,,,,,,,,,,,,,,,,,,,,,,,,,,,,,,,,,,,,,,
,,,,,,6079ff1600ff2b7455e1c3e0,2024-05-13_11h33.53.089,group3.1-3.2-social-tom,2023.2.2,Win32,59.95203837,65c5074098b851296ff0b7ed,6642328ae9f5cbf14752c622,,,,,,,,,,,,,,,,,,,,,,,,,,,,,517.223,1,audio/Narrative8Situation6.wav,519.23,,519.23,525.699,"[[17.5,502],[19.1,586],[19.1,685],[18.5,766],[18.4,852],[18.4,933],[18.2,1018],[18.2,1100],[18.2,1184],[18.2,1266],[18.2,1350],[18.2,1433],[18.2,1516],[18.2,1611],[18.2,1702],[18.2,1783],[18.2,1868],[18.2,1949],[18.2,2035],[18.2,2119],[18.2,2200],[18.2,2283],[18.2,2367],[18.2,2452],[18.2,2533],[18.2,2616],[18.2,2702],[18.2,2784],[18.2,2867],[18.2,2952],[18.2,3033],[18.2,3116],[18.2,3202],[18.2,3283],[18.2,3367],[18.2,3452],[18.2,3533],[18.2,3617],[18.2,3700],[18.2,3783],[18.2,3868],[18.2,3950],[18.2,4033],[18.2,4119],[18.2,4200],[18.2,4285],[18.2,4366],[18.2,4450],[18.2,4536],[18.2,4623],[18.2,4703],[18.2,4783],[18.2,4866],[18.2,4952],[18.2,5035],[18.2,5119],[18.2,5200],[18.2,5283],[18.2,5367],[18.2,5452],[18.2,5533],[18.2,5619],[18.2,5700],[18.2,5784],[18.2,5867],[18.2,5952],[18.2,6051],[18.2,6133],[18.2,6218],[18.2,6301],[18.2,6383],[18.2,6469]]",1,0,525.7,527.449,18.2284041,1.514,"[{""rating"":18.228404099560763,""responseTime"":1.51400000000001}]",space,1.203,,527.449,All the time,100,527.453,,,[],,0,15,15,15,1,audio/Narrative8Situation6.wav,audio/Narrative7Situation6.wav,audio/Narrative6Situation6.wav,audio/Narrative5Situation6.wav,2,3,2,3,,,,,,,,,,,,,,,,,,,,,,,,,,,,,,,,,,,,,,,
,,,,,,6079ff1600ff2b7455e1c3e0,2024-05-13_11h33.53.089,group3.1-3.2-social-tom,2023.2.2,Win32,59.95203837,65c5074098b851296ff0b7ed,6642328ae9f5cbf14752c622,,,,,,,,,,,,,,,,,,,,,,,,,,,,,527.454,1,audio/Narrative8Situation7.wav,530.464,,530.464,542.551,"[[18.4,686],[18.1,767],[17.8,851],[17.8,932],[17.8,1018],[17.8,1099],[17.8,1182],[17.8,1267],[17.8,1351],[17.8,1435],[17.8,1517],[17.8,1601],[17.8,1682],[17.8,1768],[17.8,1849],[17.8,1933],[17.8,2019],[17.8,2100],[17.8,2183],[17.8,2267],[17.8,2350],[17.8,2432],[17.8,2533],[17.8,2620],[17.8,2701],[17.8,2783],[17.8,2869],[17.8,2956],[17.8,3034],[17.8,3125],[17.8,3200],[17.8,3283],[17.8,3369],[17.8,3450],[17.8,3536],[17.8,3617],[17.8,3700],[17.8,3784],[17.8,3865],[17.8,3951],[17.8,4034],[17.8,4118],[17.8,4199],[17.8,4283],[17.8,4367],[17.8,4451],[17.8,4534],[17.8,4617],[17.8,4701],[17.8,4784],[17.8,4865],[17.8,4951],[17.8,5033],[17.8,5117],[17.8,5200],[17.8,5283],[17.8,5369],[17.8,5450],[17.8,5533],[17.8,5617],[17.8,5702],[17.8,5786],[17.8,5867],[17.8,5952],[17.8,6036],[17.8,6115],[17.8,6201],[17.8,6286],[17.8,6369],[17.8,6450],[17.8,6533],[17.8,6619],[17.8,6700],[17.8,6784],[17.8,6869],[17.8,6950],[17.8,7034],[17.8,7119],[17.8,7200],[17.8,7286],[17.8,7367],[17.8,7451],[17.8,7533],[17.8,7615],[17.8,7702],[17.8,7783],[17.8,7867],[17.8,7951],[17.8,8045],[17.8,8119],[17.8,8202],[17.8,8283],[17.8,8367],[17.8,8451],[17.8,8536],[17.8,8615],[17.8,8700],[17.8,8783],[17.8,8869],[17.8,8951],[17.8,9033],[17.8,9117],[17.8,9202],[17.8,9283],[17.8,9368],[17.8,9451],[17.8,9534],[17.8,9617],[17.8,9700],[17.8,9783],[17.8,9867],[17.8,9952],[17.8,10033],[17.8,10117],[17.8,10200],[17.8,10283],[17.8,10370],[17.8,10450],[17.8,10533],[17.8,10617],[17.8,10701],[17.8,10786],[17.8,10867],[17.8,10951],[17.8,11036],[17.8,11120],[17.8,11201],[25.5,11288],[34.2,11370],[39,11452],[40.3,11536],[41.1,11618],[41.5,11702],[41.7,11783],[42.1,11869],[42.8,11951],[43,12036]]",1,0,542.551,544.701,42.24011713,1.245,"[{""rating"":42.24011713030747,""responseTime"":1.2450000000000045}]",space,1.603,,544.701,Half the time,50,544.712,,,[],,0,16,16,16,1,audio/Narrative8Situation7.wav,audio/Narrative7Situation7.wav,audio/Narrative6Situation7.wav,audio/Narrative5Situation7.wav,3,5,5,4,,,,,,,,,,,,,,,,,,,,,,,,,,,,,,,,,,,,,,,
,,,,,,6079ff1600ff2b7455e1c3e0,2024-05-13_11h33.53.089,group3.1-3.2-social-tom,2023.2.2,Win32,59.95203837,65c5074098b851296ff0b7ed,6642328ae9f5cbf14752c622,,,,,,,,,,,,,,,,,,,,,,,,,,,,,544.713,1,audio/Narrative8Situation8.wav,547.718,,547.718,560.585,"[[42.8,264],[44.6,350],[44.6,442],[43.6,533],[43.3,613],[43.3,698],[43.3,779],[43.3,864],[43.3,948],[43.3,1029],[43.3,1114],[43.3,1198],[43.3,1279],[43.1,1364],[42.1,1447],[41.7,1532],[41.5,1614],[41.5,1698],[41.5,1779],[41.5,1865],[41.5,1948],[41.5,2029],[41.5,2115],[41.5,2197],[41.5,2282],[41.5,2365],[41.5,2446],[41.5,2530],[41.5,2615],[41.5,2697],[41.5,2779],[41.5,2864],[41.5,2948],[41.5,3030],[41.5,3134],[41.5,3227],[41.5,3316],[41.5,3397],[41.5,3482],[41.5,3572],[41.5,3649],[41.5,3750],[41.5,3830],[41.5,3917],[41.5,3999],[41.5,4080],[41.5,4166],[41.5,4246],[41.5,4331],[41.5,4414],[41.5,4499],[41.5,4580],[41.5,4667],[41.5,4749],[41.5,4832],[41.5,4916],[41.5,4996],[41.5,5081],[41.5,5163],[41.5,5246],[41.5,5331],[41.5,5414],[41.5,5499],[41.5,5580],[41.5,5663],[41.5,5749],[41.5,5830],[41.5,5913],[41.5,5998],[41.5,6081],[41.5,6163],[41.5,6248],[41.5,6331],[41.5,6416],[41.5,6496],[41.5,6581],[41.5,6664],[41.5,6750],[41.5,6831],[41.5,6916],[41.5,6996],[41.5,7081],[41.5,7164],[41.5,7246],[41.5,7331],[41.5,7414],[41.5,7496],[41.5,7581],[41.5,7668],[41.5,7759],[41.5,7868],[41.5,7964],[41.5,8049],[41.5,8130],[41.5,8214],[41.5,8297],[41.5,8383],[41.5,8464],[41.5,8547],[41.5,8633],[41.5,8722],[41.5,8816],[41.5,8898],[41.5,8981],[41.5,9107],[41.5,9230],[41.5,9316],[41.5,9399],[41.5,9481],[41.5,9567],[41.5,9649],[41.5,9739],[41.5,9839],[41.5,9932],[41.5,10024],[41.5,10115],[41.5,10197],[41.5,10283],[41.5,10365],[41.5,10447],[41.5,10533],[41.5,10615],[41.5,10698],[41.5,10796],[41.5,10884],[41.5,10966],[41.5,11048],[41.5,11129],[41.5,11215],[41.5,11298],[41.5,11380],[41.5,11464],[41.5,11549],[41.5,11629],[41.5,11716],[41.5,11799],[41.5,11880],[41.5,11965],[41.5,12049],[41.5,12129],[41.5,12214],[41.5,12298],[41.5,12383],[41.5,12464],[41.5,12548],[41.5,12631],[41.5,12715],[41.5,12799]]",1,0,560.587,564.519,37.11566618,3.777,"[{""rating"":37.11566617862372,""responseTime"":3.77699999999993}]",space,3.388,,564.519,All the time,100,564.526,,,[],,0,17,17,17,1,audio/Narrative8Situation8.wav,audio/Narrative7Situation8.wav,audio/Narrative6Situation8.wav,audio/Narrative5Situation8.wav,3,2,5,3,,,,,,,,,,,,,,,,,,,,,,,,,,,,,,,,,,,,,,,
,,,,,,6079ff1600ff2b7455e1c3e0,2024-05-13_11h33.53.089,group3.1-3.2-social-tom,2023.2.2,Win32,59.95203837,65c5074098b851296ff0b7ed,6642328ae9f5cbf14752c622,,,,,,,,,,,,,,,,,,,,,,,,,,,,,564.527,1,audio/Narrative8Situation9.wav,567.536,,567.537,578.853,"[[37,2096],[37,2179],[37,2262],[37,2347],[37,2431],[37.3,2513],[37.3,2598],[37.4,2679],[37.4,2764],[37.4,2847],[37.6,2931],[37.6,3013],[37.6,3097],[37.6,3180],[37.6,3264],[37.6,3346],[37.6,3429],[37.6,3513],[37.6,3598],[37.6,3679],[37.6,3763],[37.6,3849],[37.6,3931],[37.6,4013],[37.6,4096],[37.6,4182],[37.6,4263],[37.6,4349],[33.9,4444],[31.4,4532],[30.4,4613],[29.5,4699],[27.5,4781],[26.4,4864],[25.7,4960],[24.7,5047],[24.1,5129],[23.8,5214],[23.5,5296],[23.5,5382],[23.5,5463],[23.5,5546],[23.5,5632],[23.5,5713],[23.5,5796],[23.5,5879],[23.5,5961],[23.5,6047],[23.5,6131],[23.5,6213],[23.5,6296],[23.5,6382],[23.5,6463],[27.7,6549],[31.1,6631],[32.1,6713],[32.7,6799],[32.9,6879],[32.9,6983],[32.9,7080],[32.9,7165],[32.9,7246],[32.9,7330],[32.9,7413],[32.9,7499],[32.9,7580],[32.9,7663],[32.9,7749],[32.9,7829],[32.9,7915],[32.9,7996],[32.9,8079],[32.9,8165],[32.9,8246],[32.9,8330],[32.9,8413],[32.9,8497],[32.9,8580],[32.9,8663],[32.9,8750],[32.9,8830],[32.9,8913],[32.9,8999],[32.9,9080],[32.9,9174],[32.9,9246],[32.9,9329],[32.9,9415],[32.9,9496],[32.9,9579],[32.9,9666],[32.9,9746],[32.9,9830],[32.9,9913],[32.9,9996],[32.9,10081],[32.9,10165],[32.9,10247],[32.9,10329],[32.9,10413],[32.9,10499],[32.9,10591],[32.9,10682],[32.9,10763],[32.9,10848],[32.9,10930],[32.9,11014],[33.7,11100],[34.5,11180],[34.5,11264]]",1,0,578.854,579.85,34.04099561,0.912,"[{""rating"":34.04099560761347,""responseTime"":0.9120000000000346}]",space,0.45,,579.851,All the time,100,579.858,,,[],,0,18,18,18,1,audio/Narrative8Situation9.wav,audio/Narrative7Situation9.wav,audio/Narrative6Situation9.wav,audio/Narrative5Situation9.wav,3,2,4,3,,,,,,,,,,,,,,,,,,,,,,,,,,,,,,,,,,,,,,,
,,,,,,6079ff1600ff2b7455e1c3e0,2024-05-13_11h33.53.089,group3.1-3.2-social-tom,2023.2.2,Win32,59.95203837,65c5074098b851296ff0b7ed,6642328ae9f5cbf14752c622,,,,,,,,,,,,,,,,,,,,,,,,,,,583.005,585.582,585.637,2,audio/Narrative13Situation2.wav,585.637,,585.637,615.386,"[[34.3,932],[34.6,1014],[34.6,1096],[34.5,1181],[35.2,1265],[35.7,1346],[35.1,1431],[34.5,1517],[34.3,1598],[34.3,1681],[34.3,1767],[34.3,1848],[34.3,1932],[34.3,2015],[34.5,2096],[34.9,2182],[35.1,2263],[35.1,2350],[34.5,2433],[34.2,2515],[34.2,2598],[34.2,2682],[34.2,2764],[34.2,2848],[34.2,2932],[34.2,3014],[34.2,3098],[34.2,3180],[34.2,3265],[34.2,3346],[34.2,3431],[34.2,3514],[34.2,3598],[34.2,3682],[34.2,3764],[34.2,3846],[34.2,3930],[34.2,4014],[34.2,4100],[34.2,4181],[34.2,4267],[34.2,4349],[34.2,4432],[34.2,4514],[34.2,4599],[34.2,4680],[34.2,4764],[34.2,4850],[34.2,4930],[34.2,5014],[34.2,5100],[34.2,5181],[34.2,5264],[34.2,5350],[34.2,5431],[34.2,5515],[34.2,5605],[34.2,5681],[34.2,5765],[34.2,5849],[34.2,5932],[34.2,6014],[34.2,6096],[34.2,6181],[34.2,6265],[34.2,6348],[34.2,6430],[34.2,6514],[34.2,6600],[34.2,6680],[34.2,6764],[34.2,6850],[34.2,6931],[34.2,7014],[34.2,7098],[34.2,7181],[34.2,7264],[34.3,7348],[34.3,7431],[34,7514],[33.7,7596],[33.7,7682],[35.1,7767],[35.7,7850],[35.7,7931],[35.1,8018],[34.8,8098],[34.8,8181],[34.8,8265],[34.8,8349],[34.8,8431],[34.8,8514],[34.8,8599],[34.8,8682],[34.8,8764],[34.8,8848],[34.8,8931],[34.8,9015],[34.8,9098],[34.8,9181],[34.8,9264],[34.8,9350],[34.8,9431],[34.8,9514],[34.8,9598],[34.8,9682],[34.8,9764],[34.8,9849],[34.8,9932],[34.8,10014],[34.8,10100],[34.8,10182],[34.8,10264],[34.8,10350],[34.8,10437],[34.8,10515],[34.8,10596],[34.8,10681],[34.8,10764],[34.8,10848],[34.8,10932],[34.8,11014],[34.8,11100],[34.8,11182],[34.8,11267],[34.8,11346],[34.8,11431],[34.8,11514],[34.8,11596],[34.8,11682],[34.8,11764],[34.8,11848],[34.8,11931],[34.8,12017],[34.8,12098],[34.8,12181],[34.8,12267],[34.8,12349],[34.8,12432],[34.8,12515],[34.8,12596],[34.8,12681],[34.8,12764],[34.8,12846],[34.8,12931],[34.8,13014],[34.8,13100],[34.8,13181],[34.8,13264],[34.8,13348],[34.8,13432],[34.8,13515],[34.8,13598],[34.8,13681],[34.8,13764],[34.8,13848],[34.8,13931],[34.8,14017],[34.8,14098],[34.8,14181],[34.8,14264],[34.8,14348],[34.8,14431],[34.8,14514],[34.8,14598],[34.8,14686],[34.8,14764],[34.8,14850],[34.8,14935],[34.8,15015],[34.8,15109],[34.8,15182],[34.8,15264],[34.8,15349],[34.8,15432],[34.8,15514],[34.8,15600],[34.8,15681],[34.8,15764],[34.8,15846],[34.8,15931],[34.8,16015],[34.8,16100],[34.8,16182],[34.8,16267],[34.8,16349],[34.8,16433],[34.8,16539],[34.8,16653],[34.5,16759],[33.5,16894],[33.2,17007],[33.2,17123],[33.2,17223],[33.5,17317],[33.6,17401],[33.7,17489],[33.7,17567],[33.7,17651],[33.7,17733],[33.7,17819],[33.6,17944],[33.5,18052],[33.2,18186],[32.7,18330],[32.7,18464],[32.9,18577],[33.2,18667],[33.3,18750],[33.5,18860],[33.5,18966],[33.5,19048],[33.6,19134],[33.6,19215],[33.6,19302],[33.6,19384],[33.6,19466],[33.6,19551],[33.6,19634],[33.6,19734],[33.6,19817],[33.6,19917],[33.6,19998],[33.6,20084],[33.6,20191],[33.6,20297],[33.6,20403],[33.6,20513],[33.6,20601],[33.6,20717],[33.6,20839],[33.6,20951],[33.6,21066],[33.6,21201],[33.6,21379],[33.6,21586],[33.6,21805],[33.6,22053],[33.6,22278],[33.6,22460],[33.6,22605],[33.6,22750],[33.6,22918],[33.6,23095],[33.6,23315],[33.6,23629],[33.6,23937],[33.6,24185],[33.6,24449],[33.6,24735],[33.6,25036],[33.6,25346],[33.6,25498],[33.6,25629],[33.6,25768],[33.6,25926],[33.6,26086],[30.2,26293],[26.9,26480],[26.4,26622],[25.8,26786],[25.3,26983],[25.3,27163],[25.3,27327],[25.3,27432],[25.3,27518],[25.3,27599],[25.3,27682],[25.3,27765],[25.3,27851],[25.3,27932],[25.3,28015],[25.3,28101],[25.3,28182],[25.3,28267],[25.3,28351],[25.3,28432],[25.3,28518],[25.3,28599],[25.3,28682],[25.3,28768],[25.3,28850],[25.3,28935],[25.3,29015],[25.3,29100],[25.3,29182],[25.3,29268],[25.3,29349],[25.3,29433],[25.3,29514],[25.3,29599],[25.3,29682]]",1,0,615.388,615.399,,,[],,,,615.399,All the time,100,615.409,,,[],,0,0,0,0,1,audio/Narrative13Situation2.wav,audio/Narrative13Situation2.wav,audio/Narrative13Situation2.wav,audio/Narrative13Situation2.wav,2,2,2,2,,,,,579.859,583.004,space,2.625,,,,,,,,,,,,,,,,,,,,,,,,,,,,,,,
,,,,,,6079ff1600ff2b7455e1c3e0,2024-05-13_11h33.53.089,group3.1-3.2-social-tom,2023.2.2,Win32,59.95203837,65c5074098b851296ff0b7ed,6642328ae9f5cbf14752c622,,,,,,,,,,,,,,,,,,,,,,,,,,,,,615.41,2,audio/Narrative5Situation1.wav,620.42,,620.42,633.708,"[[25.8,1352],[27.2,1432],[27.3,1515],[26.9,1600],[26.6,1682],[26.7,1768],[27.7,1850],[28,1932],[28,2018],[28,2100],[28,2183],[28,2265],[28,2350],[28,2432],[28,2519],[28,2600],[28,2686],[28,2767],[28,2850],[28,2932],[28,3019],[28,3100],[28,3183],[28,3267],[28,3350],[28,3432],[28,3515],[28,3601],[28,3684],[28,3765],[28,3850],[28,3936],[28,4017],[28,4100],[28,4182],[28,4265],[28,4350],[28,4432],[28,4517],[28,4600],[28,4686],[28,4767],[28,4850],[28,4932],[28,5017],[28,5100],[28,5183],[27,5267],[23.4,5351],[21.3,5434],[19.7,5517],[16.2,5602],[15,5684],[14.7,5768],[14,5850],[13,5936],[12.1,6017],[11.2,6102],[10.6,6183],[10.6,6267],[10.6,6350],[10.6,6432],[10.6,6515],[10.6,6600],[10.6,6682],[10.6,6767],[10.6,6850],[10.6,6933],[10.6,7019],[10.6,7100],[10.6,7183],[10.6,7269],[10.6,7350],[10.6,7436],[10.6,7515],[10.6,7601],[10.6,7682],[10.6,7767],[10.6,7852],[10.6,7933],[11.6,8019],[12.8,8100],[13.5,8187],[14.3,8269],[14.3,8350],[14.3,8432],[14.3,8517],[14.3,8600],[14.3,8686],[14.3,8769],[14.3,8851],[14.3,8936],[14.3,9019],[14.3,9100],[14.3,9183],[14.3,9269],[14.3,9350],[14.3,9432],[14.3,9517],[14.3,9600],[14.3,9686],[14.3,9767],[14.3,9851],[14.3,9933],[14.3,10017],[14.3,10101],[14.3,10182],[14.3,10267],[14.3,10350],[14.3,10432],[14.3,10517],[14.3,10600],[14.3,10683],[14.3,10767],[14.3,10850],[14.3,10934],[14.3,11017],[14.3,11101],[14.3,11183],[14.3,11267],[14.3,11350],[14.3,11434],[14.3,11519],[14.3,11602],[14.3,11684],[14.3,11767],[14.3,11851],[14.3,11933],[14.3,12019],[14.3,12101],[14.3,12184],[14.3,12268],[14.3,12351],[14.3,12433],[14.3,12517],[14.3,12601],[14.3,12683],[14.3,12767],[14.3,12851],[14.3,12933],[14.3,13019],[14.9,13118],[15.6,13221]]",1,0,633.708,635.172,15.4465593,1.258,"[{""rating"":15.446559297218155,""responseTime"":1.2579999999999245}]",space,0.916,,635.172,Half the time,50,644.871,50,8.928,"[{""rating"":50,""responseTime"":8.927999999999997}]",space,0,1,1,1,1,audio/Narrative7Situation1.wav,audio/Narrative8Situation1.wav,audio/Narrative5Situation1.wav,audio/Narrative6Situation1.wav,2,5,5,2,,,9.152,,,,,,,,,,,,,,,,,,,,,,,,,,,,,,,,,,,,
,,,,,,6079ff1600ff2b7455e1c3e0,2024-05-13_11h33.53.089,group3.1-3.2-social-tom,2023.2.2,Win32,59.95203837,65c5074098b851296ff0b7ed,6642328ae9f5cbf14752c622,,,,,,,,,,,,,,,,,,,,,,,,,,,,,644.874,2,audio/Narrative5Situation2.wav,647.888,,647.889,677.359,"[[15.6,1516],[3.7,1854],[8,1933],[9.3,2017],[9.7,2099],[9.7,2184],[9.9,2266],[9.9,2349],[9.9,2432],[9.9,2515],[9.9,2598],[9.9,2682],[9.9,2765],[9.9,2848],[9.9,2934],[9.9,3016],[9.9,3102],[9.9,3182],[9.9,3269],[9.9,3348],[9.9,3431],[9.9,3515],[9.9,3600],[9.9,3681],[9.9,3765],[9.9,3848],[9.9,3931],[9.9,4015],[9.9,4098],[9.9,4182],[9.9,4265],[9.9,4349],[9.9,4432],[9.9,4515],[9.9,4600],[9.9,4684],[9.9,4765],[9.9,4848],[9.9,4932],[9.9,5015],[9.9,5098],[9.9,5182],[9.9,5265],[9.9,5349],[9.9,5432],[9.9,5515],[9.9,5599],[9.9,5684],[9.9,5765],[9.9,5848],[9.9,5931],[9.9,6015],[9.9,6099],[9.9,6182],[9.9,6266],[9.9,6348],[9.9,6432],[9.9,6515],[9.9,6600],[9.9,6682],[9.9,6765],[9.9,6851],[9.9,6932],[9.9,7017],[9.9,7098],[9.9,7184],[9.9,7265],[9.9,7349],[9.9,7432],[9.9,7517],[9.9,7600],[9.9,7682],[9.9,7765],[9.9,7848],[9.9,7932],[9.9,8015],[9.9,8099],[9.9,8182],[9.9,8267],[9.9,8349],[9.9,8432],[9.9,8519],[9.9,8599],[9.9,8682],[9.9,8766],[9.9,8852],[9.9,8933],[9.9,9015],[12.4,9099],[15.6,9182],[17.2,9269],[19.1,9351],[20.3,9432],[21.3,9519],[22.3,9601],[23.6,9683],[24.7,9770],[25.1,9849],[25.7,9934],[25.7,10016],[25.7,10098],[25.7,10182],[25.7,10265],[25.7,10349],[25.7,10433],[25.7,10516],[25.7,10599],[25.7,10682],[25.7,10766],[25.7,10849],[25.7,10932],[25.7,11015],[25.7,11099],[25.7,11182],[25.7,11265],[25.7,11351],[25.7,11432],[25.7,11516],[25.7,11599],[25.7,11685],[25.7,11766],[25.7,11848],[25.7,11933],[25.7,12015],[25.7,12099],[25.7,12182],[25.7,12265],[25.7,12351],[25.7,12432],[25.7,12516],[25.7,12599],[25.7,12682],[25.7,12769],[25.7,12849],[25.7,12932],[25.7,13019],[25.7,13098],[25.7,13184],[25.7,13265],[25.7,13351],[25.7,13432],[25.7,13516],[25.7,13599],[25.7,13684],[25.7,13765],[25.7,13849],[25.7,13933],[25.7,14016],[25.7,14099],[25.7,14183],[25.7,14266],[25.7,14349],[25.7,14432],[25.7,14519],[25.8,14601],[26.4,14684],[26.6,14769],[26.7,14849],[26.7,14932],[26.7,15016],[26.7,15101],[26.7,15182],[26.7,15266],[26.7,15349],[26.7,15435],[26.7,15516],[26.7,15599],[26.7,15683],[26.7,15766],[26.7,15851],[26.7,15932],[26.7,16016],[26.7,16101],[26.7,16182],[26.7,16266],[26.7,16349],[26.7,16433],[26.7,16516],[26.7,16599],[26.7,16682],[26.7,16766],[26.7,16851],[26.7,16933],[26.7,17016],[26.7,17099],[26.7,17183],[26.7,17265],[26.7,17349],[26.7,17433],[26.7,17519],[26.7,17599],[26.7,17682],[26.7,17766],[26.7,17849],[26.7,17933],[26.7,18019],[26.7,18116],[26.7,18200],[26.7,18286],[26.7,18381],[26.7,18466],[26.7,18549],[26.7,18633],[26.7,18716],[26.7,18799],[26.7,18887],[26.7,18982],[26.7,19068],[26.7,19149],[26.7,19235],[26.7,19318],[26.7,19400],[26.7,19483],[26.7,19567],[26.7,19649],[26.7,19736],[26.7,19817],[26.7,19900],[26.7,19984],[26.7,20067],[26.7,20150],[26.7,20233],[26.7,20317],[26.7,20399],[26.7,20485],[26.7,20569],[26.7,20650],[26.7,20733],[26.7,20817],[26.7,20900],[26.7,20983],[26.7,21067],[26.7,21149],[26.7,21234],[26.7,21317],[26.7,21400],[26.7,21486],[26.7,21569],[26.7,21653],[26.7,21750],[26.7,21833],[26.7,21916],[26.7,22000],[26.7,22083],[26.7,22166],[26.7,22250],[26.7,22336],[26.7,22418],[26.7,22500],[26.7,22584],[26.7,22666],[26.7,22751],[26.7,22833],[26.7,22919],[26.7,23000],[26.7,23083],[26.7,23166],[26.7,23251],[26.7,23333],[26.7,23416],[26.7,23500],[26.7,23585],[26.7,23677],[26.7,23769],[26.7,23851],[26.7,23935],[26.7,24016],[26.7,24101],[26.7,24183],[26.7,24267],[26.7,24349],[26.7,24433],[26.7,24519],[26.7,24601],[26.7,24686],[27.3,24780],[28.2,24867],[29.2,24953],[29.9,25033],[30.4,25118],[30.8,25200],[31.6,25285],[32.1,25367],[32.7,25452],[33.2,25536],[33.7,25620],[34.3,25699],[34.9,25783],[35.2,25870],[35.7,25950],[35.9,26035],[35.9,26116],[35.9,26200],[35.9,26283],[35.9,26366],[35.9,26452],[35.9,26535],[35.9,26617],[36.4,26700],[36.7,26784],[37.1,26867],[37.3,26952],[37.7,27035],[38,27120],[38.3,27202],[38.4,27283],[38.6,27370],[38.6,27450],[38.6,27534],[38.6,27616],[38.6,27700],[38.6,27783],[38.6,27868],[38.6,27950],[38.6,28033],[38.6,28117],[38.6,28202],[38.6,28283],[38.6,28370],[38.6,28450],[38.6,28534],[38.6,28617],[38.6,28702],[38.6,28783],[38.6,28870],[38.6,28950],[38.6,29033],[38.6,29120],[38.6,29200],[38.6,29284],[38.6,29379],[38.6,29450]]",1,0,677.361,679.043,38.57979502,1.226,"[{""rating"":38.579795021961935,""responseTime"":1.225999999999999}]",space,1.137,,679.043,Not at all,0,679.055,,,[],,0,2,2,2,1,audio/Narrative7Situation2.wav,audio/Narrative8Situation2.wav,audio/Narrative5Situation2.wav,audio/Narrative6Situation2.wav,3,3,3,3,,,,,,,,,,,,,,,,,,,,,,,,,,,,,,,,,,,,,,,
,,,,,,6079ff1600ff2b7455e1c3e0,2024-05-13_11h33.53.089,group3.1-3.2-social-tom,2023.2.2,Win32,59.95203837,65c5074098b851296ff0b7ed,6642328ae9f5cbf14752c622,,,,,,,,,,,,,,,,,,,,,,,,,,,,,679.056,2,audio/Narrative5Situation3.wav,682.057,,682.057,695.959,"[[38.6,617],[38.6,699],[38.6,783],[38.6,868],[38.6,951],[38.6,1032],[38.6,1116],[38.6,1199],[38.6,1283],[38.6,1367],[38.6,1449],[38.6,1532],[38.6,1616],[38.6,1699],[38.6,1782],[38.6,1866],[38.6,1949],[38.6,2033],[38.6,2116],[38.6,2199],[38.6,2282],[38.6,2367],[38.6,2450],[38.6,2533],[38.6,2615],[38.6,2700],[38.6,2783],[38.6,2868],[38.6,2949],[38.6,3032],[38.6,3116],[38.6,3202],[38.6,3282],[38.6,3366],[38.6,3452],[38.6,3533],[38.6,3616],[38.6,3702],[38.6,3783],[38.6,3866],[38.6,3951],[38.6,4033],[38.6,4116],[38.6,4199],[38.6,4282],[38.6,4367],[38.6,4452],[38.6,4539],[38.6,4625],[38.6,4703],[38.6,4787],[38.6,4882],[38.6,4980],[38.6,5069],[38.6,5152],[38.6,5245],[38.6,5336],[38.6,5436],[38.6,5554],[38.6,5652],[38.6,5750],[38.6,5852],[38.6,5954],[38.6,6067],[38.6,6169],[38.6,6254],[38.6,6333],[38.6,6419],[38.6,6501],[38.6,6585],[38.6,6669],[38.6,6750],[38.6,6834],[38.6,6916],[38.6,7002],[38.6,7082],[38.6,7169],[38.6,7250],[38.6,7333],[38.6,7418],[38.6,7500],[38.6,7583],[38.6,7668],[38.6,7750],[38.6,7835],[38.6,7917],[38.6,8000],[38.6,8085],[38.6,8167],[38.6,8250],[38.6,8336],[37,8420],[34.9,8520],[34.2,8619],[33.6,8702],[33.2,8784],[32.9,8866],[32.4,8953],[32.3,9033],[32.1,9119],[32,9202],[31.8,9283],[31.8,9368],[31.8,9450],[31.8,9533],[31.8,9617],[31.8,9700],[31.8,9783],[31.8,9866],[31.8,9950],[31.8,10033],[31.8,10117],[31.7,10202],[31.7,10283],[31.6,10367],[31.6,10450],[31.6,10533],[31.6,10619],[31.4,10703],[31.3,10784],[31.3,10867],[31.3,10953],[31.3,11034],[31.3,11116],[31.3,11200],[31.3,11287],[31.3,11367],[31.3,11451],[31.3,11533],[31.3,11617],[31.3,11699],[31.3,11783],[31.3,11866],[31.3,11952],[31.3,12033],[31.3,12117],[31.3,12200],[31.3,12286],[31.3,12367],[31.3,12452],[31.3,12533],[31.3,12616],[31.3,12700],[31.3,12784],[31.3,12867],[31.3,12950],[31.3,13036],[31.3,13119],[31.3,13201],[31.3,13286],[31.3,13368],[31.3,13451],[31.4,13534],[31.4,13616],[31.4,13702],[31.4,13783],[31.4,13867]]",1,0,695.96,698.645,31.11273792,2.331,"[{""rating"":31.11273792093704,""responseTime"":2.3309999999999036}]",space,2.154,,698.645,Not at all,0,698.656,,,[],,0,3,3,3,1,audio/Narrative7Situation3.wav,audio/Narrative8Situation3.wav,audio/Narrative5Situation3.wav,audio/Narrative6Situation3.wav,8,4,3,5,,,,,,,,,,,,,,,,,,,,,,,,,,,,,,,,,,,,,,,
,,,,,,6079ff1600ff2b7455e1c3e0,2024-05-13_11h33.53.089,group3.1-3.2-social-tom,2023.2.2,Win32,59.95203837,65c5074098b851296ff0b7ed,6642328ae9f5cbf14752c622,,,,,,,,,,,,,,,,,,,,,,,,,,,,,698.658,2,audio/Narrative5Situation4.wav,699.673,,699.673,720.061,"[[31,1519],[30.5,1604],[30.1,1685],[30.1,1770],[30.1,1852],[30.5,1937],[30.7,2017],[30.7,2101],[30.7,2187],[30.7,2269],[30.7,2351],[30.7,2434],[30.7,2517],[30.7,2601],[30.7,2685],[30.7,2770],[30.7,2851],[30.7,2935],[30.7,3019],[30.7,3101],[30.7,3184],[30.7,3267],[30.7,3351],[30.7,3434],[30.7,3519],[30.7,3601],[30.7,3685],[30.7,3771],[30.7,3851],[30.7,3935],[30.7,4019],[30.7,4102],[30.7,4185],[30.7,4267],[30.7,4352],[30.7,4437],[30.7,4519],[30.7,4601],[30.7,4685],[30.7,4771],[30.7,4851],[30.7,4935],[30.7,5019],[30.7,5101],[30.7,5185],[30.7,5269],[30.7,5351],[30.7,5435],[30.7,5519],[30.7,5601],[30.7,5685],[30.7,5770],[30.7,5854],[30.7,5934],[30.7,6019],[30.7,6101],[30.7,6187],[30.7,6269],[30.7,6354],[30.7,6435],[30.7,6519],[30.7,6603],[30.7,6684],[30.7,6769],[30.7,6851],[30.7,6937],[30.7,7035],[30.7,7118],[30.7,7204],[30.7,7285],[30.7,7368],[30.7,7453],[30.7,7535],[30.7,7618],[30.7,7702],[30.7,7784],[30.7,7870],[30.7,7952],[30.7,8035],[30.7,8118],[30.7,8202],[30.7,8285],[30.7,8370],[30.7,8455],[30.7,8538],[30.7,8620],[30.7,8701],[30.7,8785],[30.7,8868],[30.7,8952],[30.7,9035],[30.7,9120],[30.7,9202],[30.7,9285],[30.7,9368],[30.7,9451],[30.7,9535],[30.7,9618],[30.7,9701],[30.7,9784],[30.7,9868],[30.7,9952],[30.7,10035],[30.7,10118],[30.7,10202],[30.7,10288],[30.7,10370],[30.7,10451],[30.7,10535],[30.7,10620],[30.7,10701],[30.7,10788],[30.7,10868],[30.7,10952],[30.7,11035],[30.7,11118],[30.7,11202],[30.7,11285],[30.7,11370],[30.7,11452],[30.7,11535],[30.7,11620],[30.7,11704],[30.7,11788],[30.7,11871],[30.7,11952],[30.7,12038],[30.7,12121],[30.7,12202],[30.7,12285],[30.7,12370],[30.7,12453],[30.7,12538],[30.7,12618],[30.7,12703],[30.7,12788],[30.7,12868],[30.7,12952],[30.7,13036],[30.7,13122],[30.7,13202],[30.7,13285],[30.7,13370],[30.7,13452],[30.7,13535],[30.7,13620],[30.7,13702],[30.7,13788],[30.7,13868],[30.7,13952],[30.7,14038],[30.7,14120],[30.7,14202],[30.7,14285],[30.7,14370],[30.7,14454],[30.7,14536],[30.7,14618],[30.7,14705],[30.7,14788],[30.7,14870],[30.7,14952],[30.7,15035],[30.7,15120],[30.7,15202],[30.7,15286],[30.7,15370],[30.7,15455],[30.7,15536],[30.7,15618],[30.7,15704],[30.7,15788],[30.7,15870],[30.7,15954],[30.7,16038],[30.7,16118],[30.7,16205],[30.7,16285],[30.7,16370],[30.7,16453],[30.7,16536],[30.7,16620],[30.7,16703],[30.7,16786],[30.7,16870],[30.7,16952],[30.7,17035],[30.7,17121],[30.7,17202],[30.7,17286],[30.7,17370],[30.7,17452],[30.7,17535],[30.7,17620],[30.7,17702],[30.7,17785],[30.7,17872],[30.7,17954],[30.7,18036],[30.7,18122],[30.7,18202],[30.7,18286],[30.7,18370],[30.7,18453],[30.7,18535],[30.7,18620],[30.7,18702],[30.7,18785],[30.7,18868],[30.7,18952],[30.7,19036],[30.7,19120],[30.7,19202],[30.7,19288],[30.7,19370],[30.7,19453],[30.7,19536],[30.7,19632],[30.7,19703],[30.7,19786],[30.7,19868],[30.7,19952],[30.7,20035],[30.7,20120],[30.7,20202],[30.7,20285],[30.7,20370]]",1,0,720.062,723.961,30.3806735,3.514,"[{""rating"":30.380673499267935,""responseTime"":3.5139999999998963}]",space,3.351,,723.961,Not at all,0,723.969,,,[],,0,4,4,4,1,audio/Narrative7Situation4.wav,audio/Narrative8Situation4.wav,audio/Narrative5Situation4.wav,audio/Narrative6Situation4.wav,3,3,1,2,,,,,,,,,,,,,,,,,,,,,,,,,,,,,,,,,,,,,,,
,,,,,,6079ff1600ff2b7455e1c3e0,2024-05-13_11h33.53.089,group3.1-3.2-social-tom,2023.2.2,Win32,59.95203837,65c5074098b851296ff0b7ed,6642328ae9f5cbf14752c622,,,,,,,,,,,,,,,,,,,,,,,,,,,,,723.969,2,audio/Narrative5Situation5.wav,728.98,,728.98,744.416,"[[30.2,3450],[30.2,3533],[30.2,3614],[30.2,3697],[30.2,3783],[30.2,3864],[30.2,3947],[30.2,4031],[30.2,4114],[30.2,4197],[30.2,4281],[30.2,4364],[30.2,4449],[30.2,4531],[30.2,4615],[30.2,4697],[30.2,4781],[30.2,4866],[30.2,4947],[30.2,5031],[30.2,5115],[29.9,5198],[28.9,5285],[27.7,5365],[27.3,5447],[26.9,5531],[26,5618],[25,5705],[24.2,5785],[23.6,5867],[23.4,5948],[23.1,6032],[22.6,6114],[22.5,6197],[22.2,6285],[21.9,6364],[21.4,6448],[21,6534],[20.7,6614],[20.7,6697],[20.7,6781],[20.7,6864],[20.7,6947],[20.7,7030],[20.7,7116],[20.7,7197],[20.7,7280],[20.7,7364],[20.7,7448],[20.7,7531],[20.7,7615],[20.7,7697],[20.7,7781],[20.7,7864],[20.7,7948],[20.7,8031],[20.7,8117],[20.7,8198],[20.7,8281],[20.7,8364],[20.7,8448],[20.7,8531],[20.7,8614],[20.7,8697],[20.7,8781],[20.7,8864],[20.7,8947],[20.7,9032],[20.7,9114],[20.7,9198],[20.7,9281],[20.7,9364],[20.7,9448],[20.7,9531],[20.7,9614],[20.7,9698],[20.7,9781],[20.7,9865],[20.7,9948],[20.7,10031],[20.7,10114],[20.7,10198],[20.7,10281],[20.7,10366],[20.7,10450],[20.7,10531],[20.7,10614],[20.7,10700],[20.7,10782],[20.7,10865],[20.7,10948],[20.7,11031],[20.7,11114],[20.7,11200],[20.7,11281],[20.7,11364],[20.7,11448],[20.7,11531],[20.7,11616],[20.7,11697],[20.7,11781],[20.7,11864],[20.7,11948],[20.7,12032],[20.7,12117],[20.7,12201],[20.7,12285],[20.7,12367],[20.7,12451],[20.7,12550],[20.7,12634],[20.7,12734],[20.7,12816],[20.7,12900],[20.7,12984],[20.7,13065],[20.7,13151],[20.7,13238],[20.7,13347],[20.7,13431],[20.7,13533],[20.7,13644],[20.7,13733],[20.7,13814],[20.7,13900],[20.7,13981],[20.7,14068],[20.7,14157],[20.7,14267],[20.7,14349],[20.7,14459],[20.7,14611],[20.7,14721],[20.7,14833],[20.7,14956],[20.7,15131],[20.7,15218],[20.7,15309],[20.7,15402]]",1,0,744.417,746.252,21.0102489,1.661,"[{""rating"":21.010248901903367,""responseTime"":1.6609999999999445}]",space,1.274,,746.253,All the time,100,746.27,,,[],,0,5,5,5,1,audio/Narrative7Situation5.wav,audio/Narrative8Situation5.wav,audio/Narrative5Situation5.wav,audio/Narrative6Situation5.wav,5,2,5,2,,,,,,,,,,,,,,,,,,,,,,,,,,,,,,,,,,,,,,,
,,,,,,6079ff1600ff2b7455e1c3e0,2024-05-13_11h33.53.089,group3.1-3.2-social-tom,2023.2.2,Win32,59.95203837,65c5074098b851296ff0b7ed,6642328ae9f5cbf14752c622,,,,,,,,,,,,,,,,,,,,,,,,,,,,,746.271,2,audio/Narrative5Situation6.wav,749.29,,749.291,755.061,"[[20.6,2075],[20.6,2201],[20.6,2322],[20.6,2457],[20.6,2745],[20.6,3128],[20.6,3742],[20.6,3925],[20.6,4247],[20.6,4427],[20.6,4691],[20.6,4888],[20.6,5206],[20.6,5393],[20.6,5627]]",1,0,755.108,757.253,20.57101025,2.131,"[{""rating"":20.571010248901906,""responseTime"":1.3820000000000618},{""rating"":20.571010248901906,""responseTime"":2.130999999999972}]",space,1.54,,757.253,All the time,100,757.268,,,[],,0,6,6,6,1,audio/Narrative7Situation6.wav,audio/Narrative8Situation6.wav,audio/Narrative5Situation6.wav,audio/Narrative6Situation6.wav,3,2,3,2,,,,,,,,,,,,,,,,,,,,,,,,,,,,,,,,,,,,,,,
,,,,,,6079ff1600ff2b7455e1c3e0,2024-05-13_11h33.53.089,group3.1-3.2-social-tom,2023.2.2,Win32,59.95203837,65c5074098b851296ff0b7ed,6642328ae9f5cbf14752c622,,,,,,,,,,,,,,,,,,,,,,,,,,,,,757.271,2,audio/Narrative5Situation7.wav,761.283,,761.283,782.384,"[[19.8,2222],[18.8,2342],[18.1,2479],[17.8,2565],[16.3,2663],[14.9,2746],[14.4,2829],[14,2913],[13.4,3001],[13,3116],[13,3214],[13,3299],[13,3382],[13,3466],[13,3548],[13,3649],[13,3733],[13,3849],[13,3949],[13,4044],[13,4150],[13,4246],[13,4342],[13,4431],[13,4513],[13,4598],[13,4696],[13,4782],[13,4865],[13,4948],[13,5048],[13,5133],[13,5227],[13,5340],[13,5446],[13,5549],[13,5659],[13,5777],[13,5883],[13,6024],[13,6242],[13,6456],[13,6684],[13,6899],[13,7081],[13,7256],[13,7443],[13,7610],[13,7772],[13,7925],[13,8051],[13,8163],[13,8481],[13,8615],[13,8699],[13,8805],[13,8899],[13,9020],[13,9137],[13,9274],[13,9400],[13,9522],[13,9650],[13,9765],[13,9889],[13,9984],[13,10072],[13,10167],[13,10278],[13,10371],[13,10462],[13,10548],[13,10629],[13,10713],[13,10796],[13,10879],[13,10963],[13,11046],[13,11129],[13,11212],[13,11295],[13,11379],[13,11462],[13,11546],[13,11629],[13,11713],[13,11796],[13,11880],[13,11963],[13,12046],[13,12129],[13,12213],[13,12296],[13,12380],[13,12463],[13,12546],[13,12629],[13,12712],[13,12796],[13,12879],[13,12962],[13,13046],[13,13130],[13,13212],[13,13296],[13,13379],[13,13463],[13,13546],[13,13631],[13,13713],[13,13796],[13,13880],[13,13962],[13,14048],[13,14130],[13,14213],[13,14296],[13,14380],[13,14464],[13,14546],[13,14630],[13,14713],[13,14796],[13,14879],[13,14963],[13,15046],[13,15131],[13,15221],[13,15296],[13,15380],[13,15463],[13,15546],[13,15629],[13,15713],[13,15796],[13,15880],[13,15962],[13,16048],[13,16130],[13,16213],[13,16296],[13,16380],[13,16463],[13,16548],[13,16630],[13,16713],[13,16798],[13,16881],[13,16963],[13,17046],[13,17130],[13,17213],[13,17296],[13,17379],[13,17463],[13,17546],[13,17630],[13,17713],[13,17796],[13,17880],[13,17970],[13,18046],[13,18130],[13,18212],[13,18296],[13,18383],[13,18491],[13,18851],[13,19101],[13,19186],[13,19305],[13,19618],[13,19738],[13,19945],[13,20013],[13,20096],[13,20180],[13,20266],[13,20351],[13,20432],[13,20515],[13,20599],[13,20683],[13,20763],[13,20849],[13,20933],[13,21018],[13,21101]]",1,0,782.387,783.825,12.95754026,1.075,"[{""rating"":12.957540263543194,""responseTime"":1.0749999999999318}]",space,0.863,,783.825,Not at all,0,783.861,,,[],,0,7,7,7,1,audio/Narrative7Situation7.wav,audio/Narrative8Situation7.wav,audio/Narrative5Situation7.wav,audio/Narrative6Situation7.wav,5,3,4,5,,,,,,,,,,,,,,,,,,,,,,,,,,,,,,,,,,,,,,,
,,,,,,6079ff1600ff2b7455e1c3e0,2024-05-13_11h33.53.089,group3.1-3.2-social-tom,2023.2.2,Win32,59.95203837,65c5074098b851296ff0b7ed,6642328ae9f5cbf14752c622,,,,,,,,,,,,,,,,,,,,,,,,,,,,,783.864,2,audio/Narrative5Situation8.wav,786.868,,786.868,795.718,"[[13.1,2663],[13.1,2747],[13.1,2829],[13.1,2916],[13.1,2997],[13.1,3080],[13.1,3163],[13.1,3247],[13.1,3330],[13.1,3427],[13.1,3497],[13.1,3579],[13.1,3663],[13.1,3745],[13.1,3830],[13.1,3913],[13.1,3999],[13.1,4080],[13.1,4163],[13.1,4245],[13.1,4330],[13.1,4413],[13.1,4497],[13.1,4580],[13.1,4663],[13.1,4747],[13.1,4830],[13.1,4913],[13.1,4995],[13.1,5080],[13.1,5163],[13.1,5245],[13.1,5330],[13.1,5413],[13.1,5497],[13.1,5579],[13.1,5663],[13.1,5745],[13.1,5830],[13.1,5913],[13.1,5997],[13.1,6080],[13.1,6163],[13.1,6247],[13.1,6330],[13.1,6417],[13.1,6497],[13.1,6581],[13.1,6665],[13.1,6745],[13.1,6830],[13.1,6913],[13.4,6997],[22.2,7081],[29.1,7167],[31.1,7249],[31.6,7331],[31.6,7415],[30.8,7498],[30.7,7581],[30.7,7663],[30.7,7747],[30.7,7846],[31.6,7933],[34.8,8017],[35.7,8096],[35.8,8180],[35.8,8263],[36.1,8353],[36.1,8430],[36.1,8514],[36.1,8605],[36.1,8682],[36.1,8766],[36.1,8850]]",1,0,795.719,796.849,38.28696925,0.942,"[{""rating"":38.28696925329429,""responseTime"":0.9420000000000073}]",space,0.586,,796.849,Half the time,50,796.862,,,[],,0,8,8,8,1,audio/Narrative7Situation8.wav,audio/Narrative8Situation8.wav,audio/Narrative5Situation8.wav,audio/Narrative6Situation8.wav,2,3,3,5,,,,,,,,,,,,,,,,,,,,,,,,,,,,,,,,,,,,,,,
,,,,,,6079ff1600ff2b7455e1c3e0,2024-05-13_11h33.53.089,group3.1-3.2-social-tom,2023.2.2,Win32,59.95203837,65c5074098b851296ff0b7ed,6642328ae9f5cbf14752c622,,,,,,,,,,,,,,,,,,,,,,,,,,,,,796.863,2,audio/Narrative5Situation9.wav,799.866,,799.866,839.457,"[[38.1,2619],[37.7,2701],[37.7,2781],[37.7,2865],[37.7,2949],[38,3033],[37.8,3115],[37.8,3198],[37.8,3281],[37.8,3365],[37.8,3448],[37.8,3533],[37.8,3619],[37.8,3698],[37.8,3783],[37.8,3865],[37.8,3949],[37.8,4033],[37.8,4115],[37.8,4198],[37.8,4283],[37.8,4365],[37.8,4448],[37.8,4531],[37.8,4620],[37.8,4698],[37.8,4783],[37.8,4865],[37.8,4949],[37.8,5031],[37.8,5115],[37.8,5198],[37.8,5283],[37.8,5366],[37.8,5449],[37.8,5533],[37.8,5615],[37.8,5699],[37.8,5783],[37.8,5865],[37.8,5948],[37.8,6031],[37.8,6116],[37.8,6198],[37.8,6283],[37.8,6375],[37.8,6449],[37.8,6533],[37.8,6615],[37.8,6699],[37.8,6784],[37.8,6865],[37.8,6948],[37.8,7031],[37.8,7119],[37.8,7199],[37.8,7283],[37.8,7365],[37.8,7449],[37.8,7533],[37.8,7615],[37.8,7732],[37.8,7816],[37.8,7899],[37.8,7982],[37.8,8066],[37.8,8149],[37.8,8235],[37.8,8317],[37.8,8399],[37.8,8482],[37.8,8567],[37.8,8649],[37.8,8731],[37.8,8816],[37.8,8899],[37.8,8982],[37.8,9066],[37.8,9149],[37.8,9232],[37.8,9316],[37.8,9399],[37.8,9482],[37.8,9568],[37.8,9650],[37.8,9732],[37.8,9816],[37.8,9899],[37.8,9982],[37.8,10066],[37.8,10149],[37.8,10232],[37.8,10317],[37.8,10403],[37.8,10521],[37.8,10966],[37.8,11170],[37.8,11250],[37.8,11334],[37.8,11417],[37.8,11500],[37.8,11583],[37.8,11668],[37.8,11770],[37.8,11869],[37.8,11966],[37.8,12050],[37.8,12135],[37.8,12216],[37.8,12299],[37.8,12382],[37.8,12466],[37.8,12549],[37.8,12634],[37.8,12716],[37.8,12799],[37.8,12882],[37.8,12966],[37.8,13052],[37.8,13135],[37.8,13216],[37.8,13299],[37.8,13384],[37.8,13467],[37.8,13549],[37.8,13639],[37.8,13716],[37.8,13799],[37.8,13882],[37.8,13966],[37.8,14049],[37.8,14132],[37.8,14216],[37.8,14300],[37.8,14384],[37.8,14466],[37.8,14549],[37.8,14634],[37.8,14716],[37.8,14799],[37.8,14882],[37.8,14966],[37.8,15049],[37.8,15132],[37.8,15217],[37.8,15299],[37.8,15385],[37.8,15466],[37.8,15550],[37.8,15636],[37.8,15720],[37.8,15799],[37.8,15884],[37.8,15966],[37.8,16049],[37.8,16132],[37.8,16216],[37.8,16299],[37.8,16384],[37.8,16466],[37.8,16550],[37.8,16634],[37.8,16716],[37.8,16800],[37.8,16882],[37.8,16968],[37.8,17052],[37.8,17134],[37.7,17217],[37.6,17299],[37.6,17384],[37.4,17466],[37.4,17549],[37.4,17632],[37.4,17716],[37.4,17799],[37.4,17884],[37.4,17966],[37.4,18068],[37.4,18153],[37.4,18254],[37.4,18332],[37.4,18415],[37.4,18507],[37.4,18587],[37.4,18668],[37.4,18750],[37.4,18832],[37.4,18918],[37.4,19158],[37.4,19442],[37.4,19569],[37.4,19650],[37.4,19751],[37.4,20054],[37.4,20202],[37.4,20403],[37.4,20544],[37.4,20780],[37.4,20923],[37.4,21053],[37.4,21160],[37.4,21275],[37.4,21385],[39.3,21502],[40.2,21603],[41.1,21704],[41.9,21832],[43.1,21971],[43.6,22086],[43.6,22221],[43.6,22382],[44.1,22754],[44.3,22947],[44.3,23129],[44.3,23293],[44.3,23418],[44.3,23526],[44.3,23649],[44.3,23834],[44.3,24015],[44.3,24317],[44.3,24560],[44.3,24879],[44.3,25140],[44.3,25524],[44.3,25928],[44.3,26182],[44.3,26327],[44.3,26521],[44.3,26721],[44.3,26927],[44.3,27121],[44.3,27290],[44.3,27476],[44.3,27659],[44.3,27804],[44.3,27943],[44.3,28059],[44.3,28170],[44.3,28283],[44.3,28395],[44.3,28500],[44.3,28588],[44.3,28703],[44.3,28803],[44.3,28886],[44.3,28968],[44.3,29053],[44.3,29134],[44.3,29221],[44.3,29302],[44.3,29386],[44.3,29468],[44.3,29550],[44.3,29635],[44.3,29720],[44.3,29800],[44.3,29884],[44.3,29967],[44.3,30050],[44.3,30136],[44.3,30217],[44.3,30302],[44.3,30385],[44.3,30495],[44.3,30653],[44.3,30789],[44.3,30959],[44.3,31098],[44.3,31251],[44.3,31334],[44.3,31422],[44.3,31500],[44.3,31651],[44.3,31737],[44.3,31855],[44.3,31972],[44.3,32093],[44.3,32226],[44.3,32338],[44.3,32444],[44.3,32542],[44.3,32703],[44.3,32814],[44.3,32904],[44.3,32986],[44.3,33069],[44.3,33168],[44.3,33261],[44.3,33353],[44.3,33452],[44.3,33553],[44.3,33654],[44.3,33771],[44.3,33904],[44.3,34039],[44.3,34173],[44.3,34305],[44.3,34432],[44.3,34566],[44.3,34726],[47.2,34901],[49.4,35072],[49.9,35218],[50,35337],[50.1,35446],[50.3,35564],[50.9,35740],[50.9,35882],[50.9,36035],[50.9,36183],[50.9,36340],[50.9,36483],[50.9,36620],[50.9,36745],[50.9,36851],[50.9,36971],[50.9,37084],[50.9,37169],[50.9,37251],[50.9,37337],[50.9,37418],[50.9,37504],[50.9,37600],[50.9,37706],[50.9,37827],[50.9,37925],[50.9,38054],[50.9,38141],[50.9,38241],[50.9,38328],[50.9,38413],[50.9,38495],[50.9,38568],[50.9,38682],[50.9,38770],[50.9,38855],[50.9,38938],[50.9,39023],[50.9,39105],[50.9,39197],[50.9,39317],[50.9,39437],[50.9,39557]]",1,0,839.478,840.804,50.14641288,0.986,"[{""rating"":50.14641288433383,""responseTime"":0.98599999999999}]",space,0.772,,840.806,Half the time,50,840.825,,,[],,0,9,9,9,1,audio/Narrative7Situation9.wav,audio/Narrative8Situation9.wav,audio/Narrative5Situation9.wav,audio/Narrative6Situation9.wav,2,3,3,4,,,,,,,,,,,,,,,,,,,,,,,,,,,,,,,,,,,,,,,
,,,,,,6079ff1600ff2b7455e1c3e0,2024-05-13_11h33.53.089,group3.1-3.2-social-tom,2023.2.2,Win32,59.95203837,65c5074098b851296ff0b7ed,6642328ae9f5cbf14752c622,,,,,,,,,,,,,,,,,,,,,,,,,,,,,840.827,2,audio/Narrative6Situation1.wav,842.841,,842.841,869.44,"[[48.4,1747],[47.7,1854],[47.8,1973],[48.7,2064],[49.1,2144],[49.3,2227],[49.3,2314],[49.3,2411],[49.3,2496],[49.7,2596],[49.9,2677],[49.9,2764],[49.9,2866],[49.9,2956],[49.9,3048],[45.9,3171],[39.6,3282],[37.4,3382],[31.6,3500],[19.7,4205],[23.9,4902],[23.9,5721],[23.9,6195],[23.9,6414],[23.9,6646],[23.9,6780],[23.9,6891],[23.9,7007],[23.9,7131],[23.9,7253],[23.9,7406],[23.9,7567],[23.9,7722],[23.9,7838],[23.9,7969],[23.9,8061],[23.9,8146],[23.9,8229],[23.9,8312],[23.9,8407],[23.9,8519],[23.9,8628],[23.9,8740],[23.9,8844],[23.9,8983],[23.9,9141],[23.9,9255],[23.9,9383],[23.9,9539],[23.9,9671],[23.9,9825],[23.9,9936],[23.9,10065],[23.9,10197],[23.9,10331],[23.9,10476],[23.9,10606],[23.9,10731],[23.9,10865],[23.9,10964],[23.9,11048],[23.9,11284],[23.9,11522],[23.9,11783],[23.9,11976],[23.9,12120],[23.9,12267],[23.9,12397],[23.9,12541],[23.9,12684],[23.9,12777],[23.9,12865],[23.9,12944],[23.9,13026],[23.9,13110],[23.9,13194],[23.9,13276],[23.9,13360],[23.9,13445],[23.9,13527],[23.9,13612],[23.9,13693],[23.9,13777],[23.9,13860],[23.9,13944],[23.9,14027],[23.9,14110],[23.9,14194],[23.9,14296],[23.9,14378],[23.9,14464],[23.9,14548],[23.9,14627],[23.9,14710],[23.9,14793],[23.9,14877],[23.9,14960],[23.9,15043],[23.9,15127],[23.9,15211],[23.9,15294],[23.9,15377],[23.9,15460],[23.9,15544],[23.9,15627],[23.9,15711],[23.9,15793],[23.9,15877],[23.9,15960],[23.9,16046],[23.9,16127],[23.9,16210],[23.9,16294],[23.9,16377],[23.9,16461],[23.9,16543],[23.9,16627],[23.9,16710],[23.9,16794],[23.9,16877],[23.9,16961],[23.9,17044],[23.9,17127],[23.9,17210],[23.9,17293],[23.9,17377],[23.9,17460],[23.9,17543],[23.9,17627],[23.9,17711],[23.9,17794],[23.9,17877],[23.9,17960],[23.9,18044],[23.9,18127],[23.9,18211],[23.9,18294],[23.9,18377],[23.9,18461],[23.9,18543],[23.9,18627],[23.9,18710],[23.9,18794],[23.9,18877],[23.9,18960],[23.9,19043],[23.9,19129],[23.9,19211],[23.9,19294],[23.9,19599],[23.9,19678],[23.9,19762],[23.9,19843],[23.9,19927],[23.9,20011],[23.9,20093],[23.9,20177],[23.9,20270],[23.9,20361],[23.9,20444],[23.9,20536],[23.9,20611],[23.9,20694],[23.9,20777],[23.9,20865],[23.9,20944],[23.9,21030],[23.9,21123],[23.9,21195],[23.9,21278],[23.9,21361],[23.9,21444],[23.9,21527],[23.9,21610],[23.9,21694],[23.9,21777],[23.9,21860],[23.9,21944],[23.9,22027],[23.9,22111],[23.9,22194],[23.9,22277],[23.9,22361],[23.9,22447],[23.9,22528],[23.9,22610],[23.9,22694],[23.9,22778],[23.9,22860],[23.9,22944],[23.9,23027],[23.9,23111],[23.9,23194],[23.9,23277],[23.9,23362],[23.9,23445],[23.9,23527],[23.9,23610],[23.9,23695],[23.9,23777],[23.9,23861],[23.9,23947],[23.9,24027],[23.9,24111],[23.9,24194],[23.9,24277],[23.9,24362],[23.9,24444],[23.9,24528],[23.9,24611],[23.9,24694],[23.9,24778],[23.9,24861],[23.9,24944],[23.9,25028],[23.9,25111],[23.9,25194],[23.9,25278],[23.9,25361],[23.9,25444],[23.9,25527],[23.9,25611],[23.9,25694],[23.9,25777],[23.9,25861],[23.9,25947],[23.9,26027],[23.9,26111],[23.9,26194],[23.9,26278],[23.9,26362],[23.9,26445],[23.9,26528]]",1,0,869.446,871.24,22.9136164,1.323,"[{""rating"":22.913616398243047,""responseTime"":1.322999999999979}]",space,1.018,,871.241,Half the time,50,871.254,,,[],,0,10,10,10,1,audio/Narrative8Situation1.wav,audio/Narrative7Situation1.wav,audio/Narrative6Situation1.wav,audio/Narrative5Situation1.wav,5,2,2,5,,,,,,,,,,,,,,,,,,,,,,,,,,,,,,,,,,,,,,,
,,,,,,6079ff1600ff2b7455e1c3e0,2024-05-13_11h33.53.089,group3.1-3.2-social-tom,2023.2.2,Win32,59.95203837,65c5074098b851296ff0b7ed,6642328ae9f5cbf14752c622,,,,,,,,,,,,,,,,,,,,,,,,,,,,,871.257,2,audio/Narrative6Situation2.wav,874.272,,874.272,902.79,"[[23.2,768],[23.6,858],[23.6,936],[23.6,1019],[23.4,1100],[23.4,1184],[23.4,1264],[23.4,1350],[23.4,1431],[23.4,1514],[23.4,1598],[23.4,1682],[23.4,1764],[23.4,1848],[23.4,1932],[23.4,2014],[23.4,2098],[23.4,2182],[23.4,2264],[23.4,2348],[23.4,2432],[23.4,2514],[23.4,2598],[23.4,2681],[23.4,2764],[23.4,2848],[23.4,2932],[23.4,3014],[23.4,3098],[23.4,3185],[23.4,3264],[23.4,3348],[23.4,3432],[23.4,3514],[23.4,3600],[23.4,3682],[23.4,3764],[23.4,3848],[23.4,3934],[23.4,4014],[23.4,4098],[23.4,4181],[23.4,4264],[23.4,4348],[23.4,4431],[23.4,4514],[23.4,4598],[23.4,4682],[23.4,4764],[23.4,4849],[23.4,4932],[23.4,5014],[23.4,5099],[23.4,5181],[23.4,5264],[23.4,5349],[23.4,5432],[23.4,5514],[23.4,5598],[23.4,5682],[23.4,5774],[23.4,5848],[23.4,5932],[23.4,6014],[23.4,6098],[23.4,6182],[23.4,6264],[23.4,6348],[23.4,6432],[23.4,6514],[23.4,6599],[23.4,6682],[23.4,6766],[23.4,6849],[23.4,6932],[23.4,7014],[23.4,7098],[23.4,7186],[23.4,7264],[23.4,7348],[23.4,7432],[23.4,7514],[23.4,7599],[23.4,7684],[23.4,7764],[23.4,7849],[23.4,7932],[23.4,8016],[23.4,8098],[23.4,8182],[23.4,8264],[23.4,8348],[23.4,8432],[23.4,8514],[23.4,8599],[23.4,8682],[23.4,8764],[23.4,8849],[23.4,8932],[23.4,9014],[23.4,9098],[23.4,9181],[23.4,9266],[23.4,9348],[23.4,9432],[23.4,9514],[23.4,9599],[23.4,9682],[23.4,9764],[23.4,9849],[23.4,9932],[23.4,10016],[23.4,10099],[23.4,10182],[23.4,10264],[23.4,10349],[23.4,10432],[23.4,10516],[23.4,10599],[23.4,10682],[23.4,10766],[23.4,10848],[23.4,10932],[23.4,11014],[23.4,11098],[23.4,11182],[23.4,11264],[23.4,11349],[23.4,11432],[23.4,11514],[23.4,11599],[23.4,11682],[23.4,11766],[23.4,11849],[23.4,11932],[23.4,12014],[23.4,12099],[23.4,12182],[23.4,12266],[23.4,12349],[23.4,12432],[23.4,12514],[23.4,12599],[23.4,12682],[23.4,12766],[23.4,12849],[23.4,12932],[23.4,13016],[23.4,13099],[23.4,13182],[23.4,13264],[23.4,13349],[23.4,13432],[23.4,13516],[23.4,13598],[23.4,13682],[23.4,13766],[23.4,13849],[23.4,13932],[23.4,14016],[23.4,14099],[23.4,14182],[23.4,14266],[23.4,14348],[23.4,14432],[23.4,14514],[23.4,14599],[23.4,14682],[23.4,14766],[23.4,14850],[23.4,14932],[23.4,15016],[23.4,15099],[23.4,15182],[23.4,15266],[23.4,15349],[23.4,15432],[23.4,15514],[23.4,15599],[23.4,15682],[23.4,15768],[23.4,15849],[23.4,15932],[23.4,16016],[23.4,16099],[23.4,16182],[23.4,16264],[23.4,16349],[23.4,16432],[23.4,16514],[23.4,16599],[23.4,16682],[23.4,16764],[23.4,16849],[23.4,16932],[23.4,17016],[23.4,17101],[23.4,17182],[23.4,17266],[23.4,17349],[23.4,17432],[23.4,17516],[23.4,17599],[23.4,17682],[23.4,17767],[23.4,17850],[23.4,17932],[23.4,18014],[23.4,18099],[23.4,18182],[23.4,18266],[23.4,18349],[23.4,18432],[23.4,18516],[23.4,18599],[23.4,18682],[23.4,18766],[23.9,18849],[24.1,18932],[24.1,19016],[24.4,19114],[24.5,19182],[24.7,19266],[24.7,19350],[24.7,19432],[24.7,19516],[24.8,19599],[24.8,19682],[24.8,19769],[24.8,19849],[24.8,19934],[24.8,20016],[25.1,20101],[25.4,20185],[25.5,20266],[25.5,20350],[25.5,20432],[25.5,20516],[25.5,20600],[25.5,20682],[25.5,20767],[25.5,20850],[25.5,20932],[25.5,21016],[25.5,21099],[25.5,21182],[25.5,21266],[25.5,21349],[25.5,21432],[25.5,21517],[25.5,21600],[25.5,21682],[25.5,21766],[25.5,21849],[25.5,21932],[25.5,22017],[25.5,22099],[25.5,22182],[25.5,22266],[25.5,22350],[25.5,22432],[25.5,22516],[25.5,22600],[25.5,22682],[26,22769],[26.1,22849],[26.1,22932],[26.1,23016],[26.1,23100],[26,23182],[25.8,23269],[25.8,23350],[25.8,23434],[25.7,23528],[25.4,23620],[25.1,23718],[25.1,23800],[25.1,23889],[25.1,23966],[25.1,24048],[25.1,24133],[25.1,24216],[25.1,24300],[25.1,24384],[25.1,24466],[25.1,24550],[25.1,24633],[25.1,24716],[25.1,24798],[25.1,24883],[25.1,24966],[25.1,25048],[25.1,25133],[25.1,25216],[25.1,25300],[25.1,25383],[25.1,25466],[25.1,25550],[25.1,25634],[25.1,25716],[25.1,25798],[25.1,25883],[25.1,25966],[25.1,26050],[25.1,26133],[25.1,26216],[25.1,26300],[25.1,26383],[25.1,26466],[25.1,26550],[25.1,26633],[25.1,26716],[25.1,26798],[25.1,26884],[25.1,26966],[25.1,27050],[25.1,27133],[25.1,27216],[25.1,27300],[25.1,27383],[25.1,27466],[25.1,27550],[25.1,27633],[25.1,27716],[25.1,27798],[25.1,27883],[25.1,27966],[25.1,28050],[25.1,28133],[25.1,28216],[25.1,28300],[25.1,28383],[25.1,28466]]",1,0,902.794,904.173,26.13469985,1.241,"[{""rating"":26.13469985358712,""responseTime"":1.2410000000000991}]",space,0.835,,904.174,Half the time,50,904.184,,,[],,0,11,11,11,1,audio/Narrative8Situation2.wav,audio/Narrative7Situation2.wav,audio/Narrative6Situation2.wav,audio/Narrative5Situation2.wav,3,3,3,3,,,,,,,,,,,,,,,,,,,,,,,,,,,,,,,,,,,,,,,
,,,,,,6079ff1600ff2b7455e1c3e0,2024-05-13_11h33.53.089,group3.1-3.2-social-tom,2023.2.2,Win32,59.95203837,65c5074098b851296ff0b7ed,6642328ae9f5cbf14752c622,,,,,,,,,,,,,,,,,,,,,,,,,,,,,904.185,2,audio/Narrative6Situation3.wav,909.189,,909.189,921.807,"[[31.3,9335],[34.5,9419],[36.2,9501],[37.6,9586],[39.2,9669],[40.5,9750],[41.1,9836],[41.2,9918],[42.1,10001],[43.1,10085],[43.1,10167],[43.1,10250],[43.1,10333],[43.1,10419],[43.1,10500],[43.1,10585],[43.1,10667],[43.1,10750],[43.1,10833],[43.1,10917],[43.1,11000],[43.1,11083],[43.1,11168],[43.1,11250],[43.1,11333],[43.1,11417],[43.1,11500],[43.1,11585],[43.1,11677],[43.1,11750],[43.1,11833],[43.1,11917],[43.1,12000],[43.1,12083],[43.1,12167],[43.1,12250],[43.1,12333],[43.1,12417],[43.1,12500],[43.1,12585]]",1,0,921.809,922.924,43.55783309,0.845,"[{""rating"":43.557833089311856,""responseTime"":0.8450000000000273}]",space,0.574,,922.925,Half the time,50,922.929,,,[],,0,12,12,12,1,audio/Narrative8Situation3.wav,audio/Narrative7Situation3.wav,audio/Narrative6Situation3.wav,audio/Narrative5Situation3.wav,4,8,5,3,,,,,,,,,,,,,,,,,,,,,,,,,,,,,,,,,,,,,,,
,,,,,,6079ff1600ff2b7455e1c3e0,2024-05-13_11h33.53.089,group3.1-3.2-social-tom,2023.2.2,Win32,59.95203837,65c5074098b851296ff0b7ed,6642328ae9f5cbf14752c622,,,,,,,,,,,,,,,,,,,,,,,,,,,,,922.93,2,audio/Narrative6Situation4.wav,924.941,,924.941,937.541,"[[43.1,2350],[42.8,2435],[42.8,2516],[42.8,2599],[42.8,2682],[42.8,2768],[42.8,2849],[42.8,2932],[42.8,3016],[42.8,3100],[43,3184],[43.1,3267],[43.1,3349],[43.3,3434],[43.3,3516],[43.3,3599],[43.3,3682],[43.3,3768],[43.3,3849],[43.3,3932],[43.3,4016],[43.3,4099],[43.3,4182],[43.3,4267],[43.3,4350],[43.3,4432],[43.3,4519],[43.3,4599],[43.3,4682],[43.3,4767],[43.3,4849],[43.3,4932],[43.3,5016],[43.3,5100],[43.3,5182],[43.3,5269],[43.3,5614],[43.3,5817],[43.3,5941],[43.3,6031],[43.3,6117],[43.3,6201],[43.3,6283],[43.3,6366],[43.3,6449],[43.3,6533],[43.3,6616],[43.3,6699],[43.3,6783],[43.3,6866],[43.3,6950],[43.3,7033],[43.3,7128],[43.3,7203],[43.3,7283],[43.3,7367],[43.3,7451],[43.3,7533],[43.3,7616],[43.3,7699],[43.3,7783],[43.3,7866],[43.3,7950],[43.3,8033],[43.3,8116],[43.3,8201],[43.3,8283],[43.3,8367],[43.3,8450],[43.3,8532],[43.3,8616],[43.3,8699],[43.3,8783],[43.3,8866],[43.3,8951],[43.3,9035],[43.3,9119],[43.3,9201],[43.3,9283],[43.3,9369],[43.3,9451],[43.3,9533],[43.3,9618],[43.3,9700],[43.3,9783],[43.3,9868],[43.3,9950],[43.3,10036],[43.3,10119],[43.3,10200],[43.3,10286],[43.3,10369],[43.3,10450],[43.3,10533],[43.3,10619],[43.3,10701],[43.3,10783],[43.3,10869],[43.3,10951],[43.3,11036],[43.3,11117],[43.3,11203],[43.3,11283],[43.3,11367],[43.3,11450],[43.3,11533],[43.3,11618],[43.3,11700],[43.6,11791],[43.9,11866],[44.3,11951],[44.4,12033],[44.6,12117],[44.6,12210],[44.6,12283],[44.6,12366],[44.6,12450],[44.6,12535]]",1,0,937.544,938.625,45.75402635,0.943,"[{""rating"":45.75402635431918,""responseTime"":0.9430000000000973}]",space,0.534,,938.626,All the time,100,938.648,,,[],,0,13,13,13,1,audio/Narrative8Situation4.wav,audio/Narrative7Situation4.wav,audio/Narrative6Situation4.wav,audio/Narrative5Situation4.wav,3,3,2,1,,,,,,,,,,,,,,,,,,,,,,,,,,,,,,,,,,,,,,,
,,,,,,6079ff1600ff2b7455e1c3e0,2024-05-13_11h33.53.089,group3.1-3.2-social-tom,2023.2.2,Win32,59.95203837,65c5074098b851296ff0b7ed,6642328ae9f5cbf14752c622,,,,,,,,,,,,,,,,,,,,,,,,,,,,,938.649,2,audio/Narrative6Situation5.wav,940.658,,940.658,948.626,"[[41.5,7416],[39.2,7500],[38.6,7585],[38.6,7666],[38.6,7750],[38.6,7832],[38.6,7916]]",1,0,948.627,950.009,38.57979502,0.745,"[{""rating"":38.579795021961935,""responseTime"":0.7450000000000045}]",space,0.834,,950.01,Not at all,0,950.019,,,[],,0,14,14,14,1,audio/Narrative8Situation5.wav,audio/Narrative7Situation5.wav,audio/Narrative6Situation5.wav,audio/Narrative5Situation5.wav,2,5,2,5,,,,,,,,,,,,,,,,,,,,,,,,,,,,,,,,,,,,,,,
,,,,,,6079ff1600ff2b7455e1c3e0,2024-05-13_11h33.53.089,group3.1-3.2-social-tom,2023.2.2,Win32,59.95203837,65c5074098b851296ff0b7ed,6642328ae9f5cbf14752c622,,,,,,,,,,,,,,,,,,,,,,,,,,,,,950.021,2,audio/Narrative6Situation6.wav,952.025,,952.025,963.093,"[[38.4,353],[38.1,434],[37.7,519],[37.3,600],[37.3,684],[36.5,768],[35.1,851],[33.5,951],[32.7,1034],[31.8,1116],[30.8,1199],[30.5,1284],[30.1,1370],[29.1,1451],[28,1533],[27.5,1620],[27.2,1701],[27.2,1783],[27.2,1866],[27.2,1951],[27.2,2033],[27.2,2117],[27.2,2199],[27.2,2283],[27.2,2366],[27.2,2449],[27.2,2533],[27.2,2616],[27.2,2699],[27.2,2783],[27.2,2866],[27.2,2949],[27.2,3033],[27.2,3116],[27.2,3199],[27.2,3283],[27.2,3366],[27.2,3451],[27.2,3533],[27.2,3617],[27.2,3699],[27.2,3783],[27.2,3866],[27.2,3951],[27.2,4033],[27.2,4117],[27.2,4201],[27.2,4283],[27.2,4366],[27.2,4449],[27.2,4533],[27.2,4616],[27.2,4699],[27.2,4783],[27.2,4866],[27.2,4951],[27.2,5033],[27.2,5116],[27.2,5201],[27.2,5283],[27.2,5367],[27.2,5449],[27.2,5533],[27.2,5616],[27.2,5701],[27.2,5783],[27.2,5866],[27.2,5949],[27.2,6033],[27.2,6116],[27.2,6201],[27.2,6285],[27.2,6366],[27.2,6451],[27.2,6533],[27.2,6616],[27.2,6715],[27.2,6783],[27.2,6866],[27.2,6951],[27.2,7034],[27.2,7116],[27.2,7201],[27.2,7283],[27.2,7366],[27.2,7451],[27.2,7533],[27.2,7617],[27.2,7701],[27.2,7783],[27.2,7867],[27.2,7951],[27.2,8033],[27.2,8116],[27.2,8201],[27.2,8283],[27.2,8366],[27.2,8451],[27.2,8535],[27.2,8616],[27.2,8701],[27.2,8783],[27.2,8866],[27.2,8951],[27.2,9033],[27.2,9116],[29.4,9203],[32.6,9284],[34.6,9370],[36.4,9451],[37.3,9534],[37.4,9616],[37.6,9699],[37.6,9784],[37.6,9866],[37.7,9952],[38,10037],[38.3,10117],[38.6,10201],[38.9,10285],[39.3,10370],[39.6,10451],[39.6,10533],[39.6,10617],[39.8,10701],[39.9,10787],[39.9,10867],[39.9,10951],[39.9,11033]]",1,0,963.094,964.429,40.19033675,0.948,"[{""rating"":40.19033674963397,""responseTime"":0.9480000000000928}]",space,0.788,,964.429,All the time,100,964.443,,,[],,0,15,15,15,1,audio/Narrative8Situation6.wav,audio/Narrative7Situation6.wav,audio/Narrative6Situation6.wav,audio/Narrative5Situation6.wav,2,3,2,3,,,,,,,,,,,,,,,,,,,,,,,,,,,,,,,,,,,,,,,
,,,,,,6079ff1600ff2b7455e1c3e0,2024-05-13_11h33.53.089,group3.1-3.2-social-tom,2023.2.2,Win32,59.95203837,65c5074098b851296ff0b7ed,6642328ae9f5cbf14752c622,,,,,,,,,,,,,,,,,,,,,,,,,,,,,964.444,2,audio/Narrative6Situation7.wav,969.46,,969.46,994.314,"[[40.5,766],[40.6,850],[40.9,935],[41.1,1017],[41.1,1100],[41.1,1182],[41.1,1268],[41.1,1350],[41.1,1436],[41.1,1517],[41.1,1600],[41.1,1684],[41.1,1766],[41.1,1850],[41.1,1932],[41.1,2016],[41.1,2100],[41.1,2184],[41.1,2266],[41.1,2350],[41.1,2432],[41.1,2517],[41.1,2600],[41.1,2684],[41.1,2766],[41.1,2850],[41.1,2936],[41.1,3019],[41.1,3102],[41.1,3186],[41.1,3283],[41.1,3367],[41.1,3451],[41.1,3533],[41.1,3617],[41.1,3700],[41.1,3783],[41.1,3867],[41.1,3950],[41.1,4033],[41.1,4117],[41.1,4200],[41.1,4286],[41.1,4368],[41.1,4450],[41.1,4537],[41.1,4620],[41.1,4700],[41.1,4783],[41.1,4865],[41.1,4950],[41.1,5033],[41.1,5117],[41.1,5201],[41.1,5283],[41.1,5365],[41.1,5450],[41.1,5533],[41.1,5617],[41.1,5700],[41.1,5783],[41.1,5867],[41.1,5950],[41.1,6033],[41.1,6115],[41.1,6200],[41.1,6283],[41.1,6367],[41.1,6450],[41.1,6536],[41.1,6615],[41.1,6700],[41.1,6783],[41.1,6867],[41.1,6951],[41.1,7033],[41.1,7115],[41.1,7201],[41.1,7283],[41.1,7367],[41.1,7450],[41.1,7533],[41.1,7617],[41.1,7700],[41.1,7785],[41.1,7865],[41.1,7951],[41.1,8035],[41.1,8117],[41.1,8200],[41.1,8283],[41.1,8367],[41.1,8450],[41.1,8533],[41.1,8619],[41.1,8700],[41.1,8783],[41.1,8867],[41.1,8950],[41.1,9033],[41.1,9117],[41.1,9200],[41.1,9283],[41.1,9367],[41.1,9450],[41.1,9533],[41.1,9617],[41.1,9700],[41.1,9783],[41.1,9867],[41.1,9950],[41.1,10033],[41.1,10118],[41.1,10201],[41.1,10283],[41.1,10367],[41.1,10450],[41.1,10533],[41.1,10617],[40.8,10701],[39.5,10788],[38.9,10867],[38.9,10951],[38.9,11033],[38.9,11127],[38.9,11201],[38.9,11283],[38.9,11369],[38.9,11450],[38.9,11533],[38.9,11617],[38.9,11701],[38.9,11788],[40.6,11873],[42.1,11961],[43.6,12049],[44.4,12136],[45,12216],[45.6,12301],[46,12384],[46.5,12466],[46.8,12551],[47.2,12634],[47.5,12720],[47.7,12801],[48,12884],[48.2,12968],[48.4,13051],[48.5,13136],[48.7,13218],[48.8,13302],[49,13384],[49.1,13466],[49.1,13550],[49.3,13634],[49.4,13718],[49.4,13801],[49.4,13884],[49.6,13970],[49.7,14051],[49.9,14134],[50,14218],[50,14301],[50,14384],[50,14466],[50,14551],[50,14634],[50,14716],[50,14801],[50,14884],[50,14966],[50,15051],[50,15134],[50,15218],[50,15301],[50,15384],[50,15466],[50,15551],[50,15634],[50,15716],[50,15801],[50,15884],[50,15966],[50,16051],[50,16134],[50,16216],[50,16301],[50,16384],[50,16470],[50,16551],[50,16634],[50,16718],[50,16804],[50,16887],[50,16968],[50,17052],[50,17138],[50,17219],[50,17306],[50,17384],[50,17471],[50,17556],[50,17653],[50,17759],[50,17836],[50,17920],[50,18001],[50,18086],[50,18168],[50,18251],[50,18334],[50,18420],[50,18502],[50,18584],[50,18668],[50,18754],[50,18834],[50,18917],[50,19001],[50,19086],[50,19168],[50,19251],[50,19334],[50,19418],[50,19501],[50,19652],[50,19734],[50,19817],[50,19901],[50,19985],[50,20067],[50,20152],[50,20234],[50,20320],[50,20402],[50,20485],[50,20567],[50,20653],[50,20738],[50,20821],[50,20903],[50,20985],[50,21075],[50,21187],[50,21288],[50,21370],[50,21451],[50,21537],[50,21618],[50,21705],[50,21787],[50,21870],[50,21955],[50,22038],[50,22120],[50,22216],[50.7,22306],[51.6,22422],[51.8,22504],[51.8,22588],[51.8,22668],[51.8,22751],[51.8,22834],[51.8,22918],[51.8,23001],[51.8,23086],[51.8,23170],[51.8,23252],[51.8,23335],[51.8,23418],[51.8,23502],[51.8,23585],[51.8,23668],[51.8,23752],[51.8,23835],[51.8,23918],[51.8,24001],[51.8,24084],[51.8,24168],[51.8,24251],[51.8,24335],[51.8,24418],[51.8,24501],[51.8,24584],[51.8,24668],[51.8,24751],[51.8,24834]]",1,0,994.316,995.331,51.75695461,0.898,"[{""rating"":51.756954612005856,""responseTime"":0.8979999999999109}]",space,0.471,,995.331,Half the time,50,995.345,,,[],,0,16,16,16,1,audio/Narrative8Situation7.wav,audio/Narrative7Situation7.wav,audio/Narrative6Situation7.wav,audio/Narrative5Situation7.wav,3,5,5,4,,,,,,,,,,,,,,,,,,,,,,,,,,,,,,,,,,,,,,,
