exp_question,consent.started,consent.stopped,consentResponse.keys,consentResponse.rt,consentResponse.duration,participantID,date,expName,psychopyVersion,OS,frameRate,STUDY_ID,SESSION_ID,opening1.started,opening1.stopped,keyEndingOpening1.keys,keyEndingOpening1.rt,keyEndingOpening1.duration,volumeAdjust.started,volumeAdjust.stopped,endingAdjust.keys,endingAdjust.rt,endingAdjust.duration,opening2.started,opening2.stopped,keyEndingOpening.keys,keyEndingOpening.rt,keyEndingOpening.duration,mouse.x,mouse.y,mouse.leftButton,mouse.midButton,mouse.rightButton,mouse.time,instructionLoop.thisRepN,instructionLoop.thisTrialN,instructionLoop.thisN,instructionLoop.thisIndex,instructionLoop.ran,readyForAudio.started,readyForAudio.stopped,fixation.started,run,audio_played,fixation.stopped,endPractice.keys,audioPre.started,audioPre.stopped,continuousResponses_audio,continuousSlider.response,continuousSlider.rt,intRating.started,intRating.stopped,intQuestionSlider.response,intQuestionSlider.rt,intQuestionSlider.history,confirmResponse.keys,confirmResponse.rt,confirmResponse.duration,catchQuestion.started,catch_label,catch_value,catchQuestion.stopped,catchQuestionSlider.response,catchQuestionSlider.rt,catchQuestionSlider.history,confirmResponse_2.keys,audioRunLoop.thisRepN,audioRunLoop.thisTrialN,audioRunLoop.thisN,audioRunLoop.thisIndex,audioRunLoop.ran,conditions1_1,conditions2_1,conditions1_2,conditions2_2,dur1_1,dur2_1,dur1_2,dur2_2,endPractice.rt,endPractice.duration,confirmResponse_2.rt,confirmResponse_2.duration,runIntervalBreak.started,runIntervalBreak.stopped,endingBreakKey.keys,connection.started,connection.stopped,connectionEnding.keys,connectionEnding.rt,connectionEnding.duration,readyForText.started,readyForText.stopped,textPre.started,run_dup,textPre.stopped,continuousResponses_text,textRunLoop.thisRepN,textRunLoop.thisTrialN,textRunLoop.thisN,textRunLoop.thisIndex,textRunLoop.ran,text1_1,text1_2,text2_1,text2_2,runBreakText.started,runBreakText.stopped,endingBreakKey_2.keys,endingBreakKey_2.rt,endingBreakKey_2.duration,ending.started,ending.stopped,endingEnding.keys,endingEnding.rt,endingEnding.duration
social,0.0004,3.4833,y,3.1355,,60ef2700e476748689a999f7,2024-05-13_12h16.16.698,group3.1-3.2-social-tom,2023.2.2,Win32,30.03003003,65c5074098b851296ff0b7ed,6642375689b0d4b858742e43,,,,,,,,,,,,,,,,,,,,,,,,,,,,,,,,,,,,,,,,,,,,,,,,,,,,,,,,,,,,,,,,,,,,,,,,,,,,,,,,,,,,,,,,,,,,,,,,,,,,,,,,
,,,,,,60ef2700e476748689a999f7,2024-05-13_12h16.16.698,group3.1-3.2-social-tom,2023.2.2,Win32,30.03003003,65c5074098b851296ff0b7ed,6642375689b0d4b858742e43,3.4836,8.0462,space,4.5181,,,,,,,,,,,,,,,,,,,,,,,,,,,,,,,,,,,,,,,,,,,,,,,,,,,,,,,,,,,,,,,,,,,,,,,,,,,,,,,,,,,,,,,,,,,,,,,,,,,,
,,,,,,60ef2700e476748689a999f7,2024-05-13_12h16.16.698,group3.1-3.2-social-tom,2023.2.2,Win32,30.03003003,65c5074098b851296ff0b7ed,6642375689b0d4b858742e43,,,,,,8.0463,18.1042,space,9.6917,,,,,,,,,,,,,,,,,,,,,,,,,,,,,,,,,,,,,,,,,,,,,,,,,,,,,,,,,,,,,,,,,,,,,,,,,,,,,,,,,,,,,,,,,,,,,,,
,,,,,,60ef2700e476748689a999f7,2024-05-13_12h16.16.698,group3.1-3.2-social-tom,2023.2.2,Win32,30.03003003,65c5074098b851296ff0b7ed,6642375689b0d4b858742e43,,,,,,,,,,,18.1196,26.8963,space,8.7548,,[],[],[],[],[],[],0,0,0,0,1,,,,,,,,,,,,,,,,,,,,,,,,,,,,,,,,,,,,,,,,,,,,,,,,,,,,,,,,,,,,,,,,,,,,,,,,,,,,,,
,,,,,,60ef2700e476748689a999f7,2024-05-13_12h16.16.698,group3.1-3.2-social-tom,2023.2.2,Win32,30.03003003,65c5074098b851296ff0b7ed,6642375689b0d4b858742e43,,,,,,,,,,,26.9064,33.4568,space,6.4492,,[],[],[],[],[],[],1,0,1,0,1,,,,,,,,,,,,,,,,,,,,,,,,,,,,,,,,,,,,,,,,,,,,,,,,,,,,,,,,,,,,,,,,,,,,,,,,,,,,,,
,,,,,,60ef2700e476748689a999f7,2024-05-13_12h16.16.698,group3.1-3.2-social-tom,2023.2.2,Win32,30.03003003,65c5074098b851296ff0b7ed,6642375689b0d4b858742e43,,,,,,,,,,,33.4679,42.6489,space,9.1193,,[],[],[],[],[],[],2,0,2,0,1,,,,,,,,,,,,,,,,,,,,,,,,,,,,,,,,,,,,,,,,,,,,,,,,,,,,,,,,,,,,,,,,,,,,,,,,,,,,,,
,,,,,,60ef2700e476748689a999f7,2024-05-13_12h16.16.698,group3.1-3.2-social-tom,2023.2.2,Win32,30.03003003,65c5074098b851296ff0b7ed,6642375689b0d4b858742e43,,,,,,,,,,,42.6604,54.4727,space,11.7918,,[],[],[],[],[],[],3,0,3,0,1,,,,,,,,,,,,,,,,,,,,,,,,,,,,,,,,,,,,,,,,,,,,,,,,,,,,,,,,,,,,,,,,,,,,,,,,,,,,,,
,,,,,,60ef2700e476748689a999f7,2024-05-13_12h16.16.698,group3.1-3.2-social-tom,2023.2.2,Win32,30.03003003,65c5074098b851296ff0b7ed,6642375689b0d4b858742e43,,,,,,,,,,,54.4838,56.8365,space,2.3275,,[],[],[],[],[],[],4,0,4,0,1,,,,,,,,,,,,,,,,,,,,,,,,,,,,,,,,,,,,,,,,,,,,,,,,,,,,,,,,,,,,,,,,,,,,,,,,,,,,,,
,,,,,,60ef2700e476748689a999f7,2024-05-13_12h16.16.698,group3.1-3.2-social-tom,2023.2.2,Win32,30.03003003,65c5074098b851296ff0b7ed,6642375689b0d4b858742e43,,,,,,,,,,,,,,,,,,,,,,,,,,,56.8417,59.4007,59.424,1,audio/Narrative13Situation2.wav,61.4327,,61.4329,91.2406,"[[999,1],[999,66],[999,132],[999,199],[999,265],[999,332],[999,398],[999,465],[999,532],[999,598],[999,665],[999,732],[999,798],[999,865],[999,931],[999,998],[999,1065],[999,1131],[999,1198],[999,1264],[999,1331],[999,1398],[999,1464],[999,1531],[999,1597],[999,1664],[999,1731],[999,1797],[999,1864],[999,1931],[999,1998],[999,2064],[999,2132],[999,2197],[999,2264],[999,2330],[999,2397],[999,2464],[999,2530],[999,2597],[999,2663],[999,2730],[999,2796],[999,2863],[999,2930],[999,2996],[999,3063],[999,3129],[999,3196],[999,3263],[999,3330],[999,3396],[999,3463],[999,3529],[999,3596],[999,3663],[999,3729],[999,3796],[999,3862],[999,3929],[999,3996],[999,4062],[999,4129],[999,4196],[999,4262],[999,4328],[50.8,4395],[50.3,4462],[50.1,4528],[50.1,4595],[50.1,4661],[50,4729],[50,4795],[50,4862],[50.1,4928],[50.1,4994],[50.1,5061],[50.1,5128],[50.1,5195],[50.1,5261],[50.1,5327],[50.1,5394],[50.1,5461],[51.1,5527],[55.3,5594],[57.6,5661],[59.4,5727],[61.3,5794],[63.2,5861],[64.7,5927],[65.6,5994],[66.6,6061],[68.1,6127],[69.1,6194],[70.4,6260],[73.3,6327],[75.1,6394],[75.8,6460],[76.3,6527],[76.9,6593],[79,6660],[80.9,6727],[81.6,6793],[81.6,6860],[81.7,6926],[11.6,7459],[13,7526],[15,7592],[16.3,7659],[17.8,7726],[19.1,7793],[20.8,7859],[21.5,7925],[21.9,7992],[22.8,8059],[33.3,8125],[35.6,8192],[35.9,8259],[35.7,8325],[35.6,8392],[83.2,8925],[83.3,8991],[83.4,9058],[83.8,9125],[84,9191],[84.4,9258],[84.9,9324],[85.6,9391],[86.6,9457],[86.9,9524],[87.1,9591],[87.1,9657],[87.2,9724],[87.2,9790],[87.2,9857],[87.2,9923],[87.2,9990],[87.2,10057],[87.2,10123],[87.2,10190],[87.2,10256],[87.2,10323],[87.2,10390],[87.2,10456],[87.2,10523],[87.2,10590],[87.2,10656],[87.2,10723],[87.2,10789],[87.2,10856],[87.2,10923],[87.2,10989],[87.2,11056],[87.2,11122],[87.2,11189],[87.2,11256],[87.7,11323],[88.3,11389],[88.5,11456],[88.6,11523],[88.8,11589],[88.8,11655],[88.8,11722],[88.8,11789],[88.8,11855],[88.8,11922],[88.8,11989],[88.8,12055],[88.8,12121],[89.1,12188],[90.7,12255],[92.2,12322],[93.4,12389],[95.4,12455],[97.7,12522],[99.5,12588],[100,12655],[100,12721],[100,12788],[100,12854],[100,12921],[100,12987],[100,13054],[100,13121],[100,13188],[100,13254],[100,13321],[100,13388],[100,13454],[100,13520],[100,13587],[100,13653],[100,13720],[100,13787],[100,13854],[100,13920],[100,13987],[100,14053],[100,14120],[100,14186],[100,14253],[100,14320],[100,14387],[100,14453],[100,14519],[100,14586],[100,14653],[100,14720],[100,14786],[100,14853],[100,14919],[100,14986],[100,15052],[100,15119],[100,15186],[100,15252],[100,15319],[100,15385],[100,15452],[100,15519],[100,15585],[100,15652],[99.9,15719],[99.9,15785],[99.9,15852],[99.9,15918],[99.9,15985],[99.9,16051],[99.9,16118],[99.9,16185],[99.9,16251],[99.9,16318],[99.9,16385],[99.9,16451],[99.9,16518],[99.9,16584],[99.9,16651],[99.9,16717],[99.9,16784],[99.9,16851],[99.9,16918],[99.9,16984],[99.9,17051],[99.9,17117],[99.9,17184],[99.9,17250],[99.9,17317],[99.9,17384],[99.9,17450],[99.9,17517],[99.8,17584],[99.2,17650],[96.7,17717],[89.4,17784],[86.1,17850],[77.4,17917],[37.9,18783],[37.5,18850],[37,18916],[36.1,18983],[35.5,19049],[35.1,19116],[32.6,19183],[29.4,19249],[27,19315],[26.1,19382],[25.4,19449],[23.9,19515],[21.9,19582],[20,19649],[17.1,19715],[15.2,19782],[13.4,19849],[11.9,19915],[10.3,19982],[10.1,20048],[10.1,20115],[10.1,20181],[10.1,20248],[10.1,20314],[10.1,20381],[10.1,20448],[8.6,20514],[3.8,20581],[1.8,20648],[0.7,20715],[0.5,20781],[1.3,20848],[2.2,20914],[2.5,20981],[2.6,21047],[2.6,21114],[2.4,21181],[1.6,21247],[1,21315],[1,21380],[0.8,21447],[0.7,21514],[0.7,21580],[0.7,21647],[0.7,21713],[0.7,21780],[0.7,21846],[0.7,21913],[1.6,21980],[1.9,22047],[1.9,22113],[1.9,22180],[2.2,22246],[4.5,22313],[27.8,22380],[44.8,22446],[46.3,22513],[48.5,22579],[58.3,23045],[62.5,23112],[64.6,23179],[65.3,23245],[66.4,23312],[69.3,23379],[72,23445],[73.1,23512],[73.6,23578],[73.8,23645],[73.8,23711],[73.8,23778],[73.8,23845],[74.1,23912],[75.9,23978],[80.8,24045],[84.1,24111],[85.3,24178],[86.1,24245],[86.5,24311],[87.2,24378],[89,24445],[90.6,24511],[91.9,24577],[93,24644],[93.6,24711],[93.6,24777],[93.2,24844],[92.4,24911],[87,24978],[85.1,25044],[83.8,25111],[55.5,25177],[50.7,25244],[48.8,25310],[47.9,25377],[47,25444],[46.4,25510],[44.4,25577],[40.8,25644],[35.6,25710],[27.9,25777],[24.2,25843],[23.2,25910],[22.4,25976],[22,26043],[21.4,26110],[18.3,26176],[15.8,26243],[14.8,26309],[13.9,26377],[12.9,26443],[11.7,26509],[10.4,26576],[8.5,26643],[7.2,26709],[5.5,26776],[4.3,26842],[3.3,26909],[2.7,26976],[2.3,27042],[2.3,27109],[2,27176],[2,27241],[2,27308],[2,27375],[2,27442],[2,27508],[2,27575],[2,27642],[2,27708],[2,27774],[2,27841],[2,27908],[2,27974],[2,28041],[2,28108],[2,28174],[2,28241],[2,28308],[2,28374],[2,28441],[2,28507],[2,28574],[2,28640],[2,28707],[2,28774],[2,28840],[2,28907],[2,28974],[2,29040],[2,29107],[2,29173],[2,29240],[2,29307],[2,29373],[2,29440],[2,29506],[2,29573],[2,29640],[2,29706],[2,29773]]",1,0,91.2411,104.2961,8.229169846,10.3168,"[{""rating"":79.375,""responseTime"":6.443199999987996},{""rating"":8.229169845581053,""responseTime"":10.316800000011881}]",space,12.478,,104.2966,Not at all,0,104.3052,,,[],,0,0,0,0,1,audio/Narrative13Situation2.wav,audio/Narrative13Situation2.wav,audio/Narrative13Situation2.wav,audio/Narrative13Situation2.wav,2,2,2,2,,,,,,,,,,,,,,,,,,,,,,,,,,,,,,,,,,,,,
,,,,,,60ef2700e476748689a999f7,2024-05-13_12h16.16.698,group3.1-3.2-social-tom,2023.2.2,Win32,30.03003003,65c5074098b851296ff0b7ed,6642375689b0d4b858742e43,,,,,,,,,,,,,,,,,,,,,,,,,,,,,104.3057,1,audio/Narrative8Situation1.wav,106.7262,space,106.7263,122.7129,"[[8.8,1931],[9.6,1998],[11.5,2065],[18.8,2131],[32.2,2198],[39.2,2264],[40.8,2331],[43.9,2397],[57.7,2464],[70,2531],[70.5,2597],[70.5,2663],[70.5,2730],[70.4,2797],[70.5,2864],[74.9,2930],[79.7,2997],[80.8,3063],[82.2,3130],[83.3,3197],[84.7,3263],[85.2,3330],[85.3,3396],[85.3,3463],[85.3,3529],[85.3,3596],[85.3,3663],[85.3,3729],[68.3,3796],[58.4,3863],[52.1,3930],[49.9,3996],[49.2,4062],[47.5,4129],[46.8,4196],[47.1,4262],[59.7,4329],[70.7,4396],[72.7,4462],[73,4529],[73.4,4595],[74,4663],[74,4728],[74,4795],[74,4862],[74,4928],[74,4995],[80.4,5062],[81.5,5128],[81.5,5195],[81.5,5261],[81.5,5328],[81.5,5394],[81.5,5461],[81.6,5528],[81.6,5594],[81.6,5661],[81.6,5728],[81.6,5794],[81.6,5861],[81.6,5927],[81.6,5994],[81.6,6061],[81.6,6127],[81.6,6194],[81.6,6261],[81.6,6327],[75.7,6394],[75.2,6460],[73.9,6528],[65.4,6594],[59,6661],[58.3,6727],[56.6,6793],[55.7,6860],[55.4,6927],[55.4,6993],[55.1,7060],[54.6,7127],[54.2,7193],[54.2,7260],[54.2,7326],[54.2,7393],[54.2,7459],[54.2,7526],[54.2,7593],[54.2,7659],[54,7726],[54,7792],[53.6,7859],[53.1,7926],[52.9,7993],[52.9,8059],[52.1,8126],[51.7,8192],[51.1,8259],[50.4,8326],[49.2,8392],[48.2,8459],[48,8526],[48,8592],[48,8658],[48,8725],[48,8791],[48,8858],[48.1,8925],[48.1,8991],[46.7,9058],[43.6,9125],[43.2,9191],[43.2,9258],[43.2,9324],[43.8,9391],[47.2,9458],[50.7,9524],[57.2,9591],[63.9,9658],[70.3,9724],[74.1,9791],[83.1,9858],[88.8,9924],[90.5,9991],[91.8,10057],[92.2,10124],[92.5,10191],[92.5,10257],[92.5,10324],[93.1,10390],[94.2,10457],[95,10524],[95.6,10590],[96.7,10657],[97.1,10723],[97.1,10790],[97.1,10856],[97.1,10923],[97.1,10989],[97.1,11056],[97.1,11123],[97.1,11189],[97.1,11256],[97.1,11323],[97.1,11390],[97.1,11456],[97.1,11522],[97.1,11589],[97.1,11656],[97.1,11722],[97.1,11789],[97.1,11856],[97.1,11922],[97.1,11989],[97.1,12055],[97.1,12122],[97.1,12188],[97.1,12255],[97.1,12322],[97.1,12388],[97.1,12455],[97.1,12521],[97.1,12588],[97.1,12655],[97.1,12722],[97.1,12788],[97.1,12855],[97.1,12921],[97.1,12988],[97.1,13054],[97.1,13121],[97.1,13188],[97.1,13255],[97.1,13321],[97.1,13388],[97.1,13454],[97.1,13521],[97.1,13587],[97.1,13654],[97.1,13720],[97.1,13787],[97.1,13854],[97.1,13920],[97.1,13987],[97.1,14054],[97.1,14120],[97.1,14187],[97.1,14253],[97.1,14320],[97.1,14387],[97.1,14453],[97.1,14520],[97.1,14587],[97.1,14653],[97.1,14720],[97.1,14786],[97.1,14853],[97.1,14920],[97.1,14986],[97.1,15053],[97.1,15119],[97.1,15186],[97.1,15253],[97.1,15319],[97.1,15386],[97,15452],[96.8,15519],[96,15586],[93.1,15653],[92.6,15719],[92.6,15786],[92.6,15852],[92.6,15919],[93.5,15986]]",1,0,122.7132,127.8746,96.5625,4.0014,"[{""rating"":96.5625,""responseTime"":4.001400000035801}]",space,4.5632,,127.8748,Not at all,0,127.879,,,[],,0,1,1,1,1,audio/Narrative7Situation1.wav,audio/Narrative8Situation1.wav,audio/Narrative5Situation1.wav,audio/Narrative6Situation1.wav,2,5,5,2,2.3989,,,,,,,,,,,,,,,,,,,,,,,,,,,,,,,,,,,,
,,,,,,60ef2700e476748689a999f7,2024-05-13_12h16.16.698,group3.1-3.2-social-tom,2023.2.2,Win32,30.03003003,65c5074098b851296ff0b7ed,6642375689b0d4b858742e43,,,,,,,,,,,,,,,,,,,,,,,,,,,,,127.8794,1,audio/Narrative8Situation2.wav,130.906,,130.9062,141.063,"[[48.6,65],[48.5,132],[48.5,198],[48.5,265],[48.5,331],[48.5,398],[48.5,465],[48.5,531],[48.5,598],[48.5,664],[48.5,731],[48.5,798],[48.8,864],[48.9,931],[49.1,998],[50.3,1064],[51.9,1131],[52.4,1198],[52.5,1264],[52.5,1330],[52.5,1397],[52.5,1464],[52.5,1530],[51.8,1597],[40.2,1664],[14.8,2264],[14.6,2330],[14.2,2397],[13.9,2464],[13.2,2530],[12.1,2596],[11.1,2663],[9.6,2730],[8.8,2796],[8.5,2863],[8.2,2929],[7.7,2996],[7.3,3063],[7,3129],[7,3196],[7,3262],[7,3328],[7,3395],[7,3462],[7,3528],[5.4,3596],[4.8,3662],[4.4,3729],[4.4,3796],[4.2,3862],[3.9,3929],[3.6,3995],[3.3,4062],[3.3,4128],[2.9,4195],[2.6,4261],[2.6,4328],[2.6,4394],[2.6,4461],[2.6,4528],[2.6,4594],[2.6,4661],[2.6,4728],[2.6,4794],[2.6,4861],[2.6,4927],[2.6,4994],[2.6,5060],[2.6,5127],[2.6,5194],[2.6,5260],[2.6,5327],[2.6,5393],[2.6,5460],[2.6,5527],[2.6,5593],[2.6,5660],[2.6,5727],[2.6,5793],[2.6,5860],[2.6,5927],[2.6,5993],[2.6,6059],[2.6,6126],[2.6,6193],[2.6,6259],[2.6,6326],[2.6,6393],[2.6,6459],[2.6,6526],[2.6,6593],[2.6,6659],[2.6,6726],[2.6,6792],[2.6,6859],[2.6,6926],[2.6,6992],[2.6,7059],[2.6,7125],[2.6,7192],[2.6,7259],[2.6,7325],[2.6,7392],[2.6,7459],[2.6,7525],[2.6,7592],[2.6,7658],[2.6,7725],[2.6,7792],[2.6,7858],[2.6,7925],[2.6,7991],[2.6,8058],[2.6,8125],[2.6,8191],[2.6,8258],[2.6,8325],[2.6,8391],[2.6,8457],[2.6,8524],[2.6,8591],[2.6,8657],[2.6,8724],[2.6,8791],[2.6,8857],[2.6,8924],[2.6,8990],[2.6,9057],[2.6,9124],[2.6,9190],[2.6,9257],[2.6,9324],[2.6,9390],[2.6,9457],[2.6,9524],[2.6,9590],[2.6,9657],[2.6,9723],[2.6,9790],[2.6,9856],[2.6,9923],[2.6,9990],[2.6,10056],[2.6,10123]]",1,0,141.0632,142.8947,2.5,0.9529,"[{""rating"":2.500000000000002,""responseTime"":0.9528999999762391}]",space,1.2429,,142.8948,Partially,50,142.9,,,[],,0,2,2,2,1,audio/Narrative7Situation2.wav,audio/Narrative8Situation2.wav,audio/Narrative5Situation2.wav,audio/Narrative6Situation2.wav,3,3,3,3,,,,,,,,,,,,,,,,,,,,,,,,,,,,,,,,,,,,,
,,,,,,60ef2700e476748689a999f7,2024-05-13_12h16.16.698,group3.1-3.2-social-tom,2023.2.2,Win32,30.03003003,65c5074098b851296ff0b7ed,6642375689b0d4b858742e43,,,,,,,,,,,,,,,,,,,,,,,,,,,,,142.9001,1,audio/Narrative8Situation3.wav,146.9247,,146.9247,169.3715,"[[3.9,133],[63.3,266],[63.6,332],[63.8,399],[63.1,466],[54.9,532],[53.9,599],[51.5,665],[49.8,732],[49.2,799],[49.2,865],[49.2,932],[49.2,998],[49.2,1065],[49.2,1131],[49.2,1198],[49.2,1264],[55.4,1332],[57.1,1398],[57.1,1465],[56.8,1531],[56.1,1598],[53.6,1664],[41.1,1732],[18.6,1931],[17.7,1998],[16.5,2064],[15.1,2131],[14.3,2198],[13.9,2264],[13.3,2331],[13.2,2397],[13.2,2464],[13.2,2530],[13.2,2597],[13.2,2663],[13.2,2730],[13.2,2797],[13.2,2863],[39.8,2930],[58.4,2997],[66,3063],[72.8,3130],[74.9,3197],[75.6,3263],[75.9,3330],[76.3,3397],[78.6,3463],[82.4,3530],[84.8,3596],[85.6,3663],[85.9,3729],[86.3,3796],[87.2,3863],[88,3930],[88.4,3996],[88.8,4063],[89.1,4129],[90.4,4196],[91.1,4262],[91.3,4329],[91.3,4395],[91.3,4462],[91.3,4528],[91.3,4595],[91.3,4662],[91.3,4728],[91.3,4795],[91.3,4862],[91.3,4928],[91.3,4995],[91.3,5061],[91.3,5128],[91.3,5195],[87.7,5261],[84,5328],[82.3,5395],[81.8,5461],[81.5,5528],[78.4,5595],[73.2,5661],[70.7,5728],[69.5,5794],[68.2,5861],[65.6,5928],[61.9,5994],[60.8,6061],[60.4,6127],[60.2,6194],[59.2,6261],[58.3,6327],[57.7,6394],[56.8,6460],[56.4,6527],[56.4,6593],[56,6660],[55.2,6727],[54.2,6793],[53.5,6860],[52.3,6927],[51.8,6993],[51.7,7059],[51.7,7126],[51.4,7193],[51,7260],[50.8,7326],[50.8,7393],[50.9,7459],[53.1,7526],[54.9,7593],[57.5,7659],[60.6,7726],[65.1,7793],[68.4,7860],[69.4,7926],[70,7992],[71.3,8059],[72.5,8126],[73.3,8192],[74.1,8259],[74.7,8325],[75.3,8392],[75.9,8459],[76.3,8525],[76.3,8592],[76.3,8658],[76.3,8725],[76.8,8792],[76.9,8858],[76.9,8925],[76.9,8991],[76.9,9058],[76.9,9124],[76.9,9191],[76.9,9258],[76.9,9324],[76.9,9391],[76.9,9458],[76.9,9524],[76.9,9591],[76.9,9657],[76.9,9724],[76.9,9791],[76.9,9857],[76.9,9924],[76.9,9990],[76.9,10057],[76.9,10123],[76.9,10190],[76.9,10257],[76.9,10323],[76.9,10390],[76.9,10456],[76.9,10523],[76.9,10590],[76.9,10657],[76.9,10723],[76.9,10790],[76.9,10856],[76.9,10923],[76.9,10990],[76.9,11056],[76.9,11123],[76.9,11190],[76.9,11256],[76.9,11323],[76.9,11389],[76.9,11456],[76.9,11522],[76.9,11589],[76.9,11656],[76.9,11722],[76.9,11789],[76.9,11855],[76.9,11922],[76.9,11989],[76.9,12055],[72.7,12122],[69.8,12189],[68.9,12255],[67.4,12322],[65.6,12389],[64.3,12455],[63.6,12522],[63.6,12588],[63.6,12655],[63.6,12721],[63.6,12788],[63.6,12855],[63.6,12921],[63.5,12988],[63.5,13054],[63.5,13121],[63.5,13188],[63.5,13254],[63.5,13321],[63.5,13388],[63.5,13454],[63.5,13521],[62.5,13588],[60.7,13654],[59.8,13721],[59.5,13788],[59.5,13854],[59.5,13920],[59.4,13987],[59.4,14053],[59.4,14120],[59.4,14187],[59.4,14254],[59.4,14320],[59.4,14386],[59.4,14453],[59.4,14520],[59.4,14586],[59.6,14653],[59.7,14720],[59.7,14786],[60.8,14853],[62.2,14920],[62.8,14986],[63.1,15053],[63.8,15120],[64.4,15186],[65.2,15253],[65.6,15319],[66.8,15386],[67.2,15453],[67.5,15519],[67.5,15585],[67.5,15652],[67.5,15719],[67.5,15785],[67.5,15852],[67.5,15919],[67.5,15985],[67.5,16052],[67.5,16119],[67.5,16185],[67.5,16251],[67.5,16318],[67.5,16385],[67.5,16452],[67.5,16518],[67.8,16585],[68.1,16651],[68.4,16718],[68.4,16784],[68.4,16851],[68.4,16918],[68.4,16984],[68.4,17051],[68.4,17118],[68.4,17184],[68.4,17251],[68.4,17317],[68.4,17384],[68.4,17451],[68.4,17517],[68.4,17584],[68.4,17650],[68.4,17717],[68.4,17783],[68.3,17850],[68.3,17917],[68.3,17983],[68.3,18050],[68.3,18117],[68.3,18183],[68.3,18250],[68.3,18317],[68.3,18383],[68.3,18450],[68.3,18516],[68.3,18583],[68.3,18649],[68.3,18716],[68.3,18783],[68.3,18849],[68.3,18916],[68.3,18983],[68.3,19049],[68.3,19116],[68.3,19182],[68.3,19249],[68.3,19316],[68.3,19383],[68.3,19449],[68.3,19516],[68.3,19582],[68.3,19649],[68.3,19715],[68.3,19782],[68.3,19849],[68.3,19915],[68.3,19982],[68.3,20048],[68.3,20115],[68.3,20181],[68.3,20248],[68.3,20315],[68.3,20381],[68.3,20448],[68.3,20515],[68.3,20581],[68.3,20648],[68.3,20715],[68.3,20781],[68.3,20848],[68.3,20914],[68.3,20981],[68.3,21048],[68.3,21114],[68.3,21181],[68.3,21247],[68.3,21314],[68.3,21380],[68.3,21447],[68.3,21514],[68.3,21580],[68.3,21647],[68.3,21713],[68.3,21780],[68.3,21847],[68.3,21913],[68.3,21980],[68.3,22047],[68.3,22113],[68.3,22180],[68.3,22246],[68.3,22313],[68.3,22379],[68.3,22446]]",1,0,169.3718,171.37,68.33333969,0.9868,"[{""rating"":68.33333969116211,""responseTime"":0.9868000000119537}]",space,1.4027,,171.37,Partially,50,178.0976,49.79166985,5.3013,"[{""rating"":49.791669845581055,""responseTime"":5.30130000001202}]",space,0,3,3,3,1,audio/Narrative7Situation3.wav,audio/Narrative8Situation3.wav,audio/Narrative5Situation3.wav,audio/Narrative6Situation3.wav,8,4,3,5,,,6.1308,,,,,,,,,,,,,,,,,,,,,,,,,,,,,,,,,,
,,,,,,60ef2700e476748689a999f7,2024-05-13_12h16.16.698,group3.1-3.2-social-tom,2023.2.2,Win32,30.03003003,65c5074098b851296ff0b7ed,6642375689b0d4b858742e43,,,,,,,,,,,,,,,,,,,,,,,,,,,,,178.098,1,audio/Narrative8Situation4.wav,181.1279,,181.1279,195.3488,"[[51.4,799],[51.9,866],[52.2,932],[51.8,999],[50.7,1066],[50.1,1132],[49.8,1199],[49.8,1265],[49.8,1331],[49.8,1398],[49.8,1465],[49.8,1531],[49.8,1598],[49.8,1664],[49.8,1731],[49.8,1798],[49.8,1865],[49.8,1931],[49.8,1998],[49.8,2064],[49.8,2131],[49.8,2197],[49.8,2264],[49.8,2331],[49.8,2397],[49.8,2464],[49.8,2530],[49.8,2597],[49.8,2664],[49.8,2730],[49.8,2797],[49.8,2863],[48.5,2930],[46.7,2997],[46.4,3064],[45.7,3130],[44.8,3197],[49.6,3264],[78.2,3463],[80.1,3530],[83,3596],[84.4,3663],[85.3,3730],[85.9,3796],[87.2,3863],[88,3929],[90,3996],[91.1,4063],[91.6,4129],[91.6,4196],[91.6,4262],[91.6,4329],[91.6,4396],[91.6,4462],[91.6,4529],[91.6,4596],[91.6,4662],[91.6,4728],[91.6,4795],[91.6,4862],[91.6,4928],[91.6,4995],[91.6,5062],[91.6,5128],[91.6,5195],[91.6,5261],[91.6,5328],[91.6,5395],[91.6,5461],[91.6,5528],[91.6,5594],[91.6,5661],[91.6,5728],[91.6,5794],[91.6,5861],[91.6,5927],[91.6,5994],[91.6,6061],[91.6,6127],[91.6,6194],[91.6,6260],[91.6,6327],[91.6,6394],[91.6,6460],[91.6,6527],[91.6,6594],[91.6,6660],[91.6,6727],[91.6,6793],[91.6,6860],[91.6,6927],[91.6,6993],[91.6,7060],[91.6,7126],[91.6,7193],[91.6,7260],[91.6,7326],[91.6,7393],[91.6,7460],[91.6,7526],[91.6,7593],[91.6,7659],[91.6,7726],[91.6,7792],[91.6,7859],[91.6,7926],[91.6,7992],[91.6,8059],[91.6,8126],[91.6,8192],[91.6,8259],[91.6,8326],[91.6,8392],[91.6,8459],[91.6,8526],[91.6,8592],[91.6,8658],[91.6,8725],[91.6,8792],[91.6,8858],[91.6,8925],[91.6,8991],[91.6,9058],[91.6,9125],[91.6,9192],[91.6,9258],[91.6,9325],[91.6,9391],[91.6,9458],[91.6,9525],[91.6,9591],[91.6,9658],[91.6,9724],[91.6,9791],[91.6,9857],[91.6,9924],[91.6,9991],[91.6,10058],[91.6,10124],[91.6,10191],[91.6,10257],[91.6,10324],[91.6,10390],[91.6,10457],[91.6,10524],[91.6,10590],[91.6,10657],[91.6,10724],[91.6,10790],[91.6,10857],[91.6,10923],[91.6,10990],[91.6,11056],[91.6,11123],[91.6,11189],[91.6,11256],[91.6,11323],[91.6,11389],[91.6,11456],[91.6,11523],[91.6,11589],[91.6,11656],[91.6,11722],[91.6,11789],[91.6,11856],[91.6,11923],[91.6,11989],[91.6,12056],[91.6,12122],[91.6,12189],[91.6,12255],[91.6,12322],[91.6,12388],[91.6,12455],[91.6,12522],[91.6,12588],[91.6,12655],[91.6,12722],[91.6,12788],[91.6,12855],[91.6,12921],[91.6,12988],[91.6,13055],[91.6,13121],[91.6,13188],[91.6,13255],[91.6,13321],[91.6,13388],[91.6,13455],[91.6,13521],[91.6,13587],[91.6,13654],[91.6,13721],[91.6,13787],[91.6,13854],[91.6,13920],[91.6,13987],[91.6,14054],[91.6,14121],[91.6,14187]]",1,0,195.349,197.9464,97.29166985,1.3717,"[{""rating"":97.29166984558105,""responseTime"":1.3716999999880954}]",space,2.0006,,197.9466,Definitely yes,100,197.9517,,,[],,0,4,4,4,1,audio/Narrative7Situation4.wav,audio/Narrative8Situation4.wav,audio/Narrative5Situation4.wav,audio/Narrative6Situation4.wav,3,3,1,2,,,,,,,,,,,,,,,,,,,,,,,,,,,,,,,,,,,,,
,,,,,,60ef2700e476748689a999f7,2024-05-13_12h16.16.698,group3.1-3.2-social-tom,2023.2.2,Win32,30.03003003,65c5074098b851296ff0b7ed,6642375689b0d4b858742e43,,,,,,,,,,,,,,,,,,,,,,,,,,,,,197.9519,1,audio/Narrative8Situation5.wav,199.9781,,199.9782,208.2377,"[[48.2,200],[49.2,266],[49.4,332],[49.7,399],[49.7,466],[49.7,532],[49.7,599],[49.7,665],[49.7,732],[49.7,799],[49.7,866],[49.7,932],[49.7,999],[49.7,1065],[49.7,1132],[49.7,1199],[49.7,1265],[49.7,1331],[49.7,1398],[49.7,1465],[54,1532],[64.7,1599],[67.1,1665],[70.5,1732],[73,1798],[76.5,1865],[80.4,1932],[87.2,1998],[90.1,2065],[92.1,2132],[92.8,2198],[93.1,2264],[95.4,2331],[96.3,2398],[96.6,2464],[96.6,2531],[96.6,2597],[96.6,2664],[96.6,2730],[96.6,2797],[96.6,2864],[96.6,2930],[96.6,2997],[96.6,3063],[96.6,3130],[96.6,3197],[97.2,3264],[97.7,3330],[98,3397],[98.1,3463],[98.1,3530],[98.1,3596],[98.1,3663],[98.1,3729],[98.1,3796],[98.1,3863],[98.1,3929],[98.1,3996],[98.1,4063],[98.1,4129],[98.1,4196],[98.1,4262],[98.1,4329],[98.1,4396],[98.1,4462],[98.1,4529],[98.1,4595],[98.1,4662],[98.1,4729],[98.1,4795],[98.1,4862],[98.1,4928],[98.1,4995],[98.1,5062],[98.1,5129],[98.1,5195],[98.1,5261],[98.1,5328],[98.1,5395],[98.1,5461],[98.1,5528],[98.1,5595],[98.1,5661],[98.1,5728],[98.1,5795],[98.1,5861],[98.1,5928],[98.1,5994],[98.1,6061],[98.1,6127],[98.1,6194],[98.1,6261],[98.1,6327],[98.1,6394],[98.1,6460],[98.1,6527],[98.1,6594],[98.1,6660],[98.1,6727],[98.1,6793],[98.1,6860],[98.1,6927],[98.1,6993],[98.1,7060],[98.1,7127],[98.1,7193],[98.1,7260],[98.1,7326],[98.1,7393],[98.1,7460],[98.1,7527],[98.1,7593],[98.1,7659],[98.1,7726],[98.1,7793],[98.1,7859],[98.1,7926],[98.1,7992],[98.1,8059],[98.1,8126],[98.1,8192],[98.1,8259]]",1,0,208.2378,211.1353,98.125,0.5619,"[{""rating"":98.125,""responseTime"":0.5619000000357346}]",space,2.3197,,211.1355,Partially,50,211.1416,,,[],,0,5,5,5,1,audio/Narrative7Situation5.wav,audio/Narrative8Situation5.wav,audio/Narrative5Situation5.wav,audio/Narrative6Situation5.wav,5,2,5,2,,,,,,,,,,,,,,,,,,,,,,,,,,,,,,,,,,,,,
,,,,,,60ef2700e476748689a999f7,2024-05-13_12h16.16.698,group3.1-3.2-social-tom,2023.2.2,Win32,30.03003003,65c5074098b851296ff0b7ed,6642375689b0d4b858742e43,,,,,,,,,,,,,,,,,,,,,,,,,,,,,211.142,1,audio/Narrative8Situation6.wav,213.1669,,213.167,219.6948,"[[97.3,1132],[95.7,1199],[94.9,1265],[94.2,1332],[93.6,1399],[92.3,1465],[89.6,1532],[87.9,1598],[87.3,1665],[87.1,1731],[87.1,1798],[87,1865],[87,1931],[87.6,1998],[89.6,2065],[91.6,2131],[93.1,2198],[94.1,2264],[96,2331],[98,2397],[99.1,2464],[99.4,2530],[99.9,2597],[99.9,2663],[99.9,2730],[99.9,2797],[99.9,2864],[99.9,2931],[99.9,2996],[99.9,3063],[99.9,3130],[99.9,3196],[99.9,3263],[99.4,3330],[97,3397],[96.5,3463],[96.4,3529],[96.4,3596],[96.4,3663],[96.4,3729],[95.3,3797],[94.3,3863],[93.9,3929],[93.9,3996],[93.9,4062],[93.6,4130],[93.5,4196],[93.5,4262],[93.4,4329],[93.4,4395],[93.4,4462],[93.4,4529],[93.4,4595],[93.4,4662],[93.4,4728],[93.4,4795],[93.4,4862],[93.6,4929],[94,4995],[94.7,5062],[96.5,5129],[98.5,5195],[99.7,5262],[100,5328],[100,5394],[100,5461],[100,5528],[100,5594],[100,5661],[100,5727],[100,5794],[100,5861],[100,5927],[100,5994],[100,6061],[100,6127],[100,6194],[100,6261],[100,6327],[100,6394],[100,6461],[100,6527]]",1,0,219.6951,224.8565,70.20833969,4.5371,"[{""rating"":70.20833969116211,""responseTime"":4.537099999964198}]",space,4.5675,,224.8565,Partially,50,224.8593,,,[],,0,6,6,6,1,audio/Narrative7Situation6.wav,audio/Narrative8Situation6.wav,audio/Narrative5Situation6.wav,audio/Narrative6Situation6.wav,3,2,3,2,,,,,,,,,,,,,,,,,,,,,,,,,,,,,,,,,,,,,
,,,,,,60ef2700e476748689a999f7,2024-05-13_12h16.16.698,group3.1-3.2-social-tom,2023.2.2,Win32,30.03003003,65c5074098b851296ff0b7ed,6642375689b0d4b858742e43,,,,,,,,,,,,,,,,,,,,,,,,,,,,,224.8601,1,audio/Narrative8Situation7.wav,227.8875,,227.8876,240.0097,"[[57.3,599],[56,665],[54.9,732],[54,799],[52.9,865],[50.5,932],[48.6,998],[47.9,1065],[47.7,1132],[47.7,1198],[47.7,1264],[47.7,1331],[47.7,1398],[47.9,1465],[46.3,1531],[23.8,2064],[23.8,2131],[23.8,2198],[23.8,2264],[23.8,2331],[23.3,2397],[23.2,2463],[23,2530],[23,2597],[23,2663],[23,2730],[24.5,2797],[28.9,2863],[53.3,2930],[69.7,2997],[73,3063],[76.3,3130],[78.8,3197],[79.6,3263],[80.8,3330],[83.2,3396],[86.8,3463],[90.4,3529],[91.6,3596],[91.9,3663],[91.9,3729],[91.9,3796],[92,3862],[92,3929],[92,3995],[92,4062],[92,4129],[92,4195],[92,4262],[92,4329],[92,4395],[92,4462],[92,4528],[92,4595],[92,4662],[92,4728],[92,4795],[92,4861],[92,4928],[92,4995],[92,5061],[92,5128],[92,5194],[92,5261],[92,5327],[92,5394],[92,5461],[92,5527],[92,5594],[92,5660],[92,5727],[92,5794],[92,5860],[92,5927],[92,5994],[92,6060],[92,6127],[92,6193],[92,6260],[92,6327],[92,6393],[92,6460],[92,6526],[92,6593],[91.5,6660],[91.1,6727],[90.5,6793],[89.2,6860],[87.5,6926],[86.4,6993],[85.5,7060],[85.1,7126],[85.2,7193],[85.3,7259],[85.3,7326],[85.3,7392],[85.3,7459],[84.8,7526],[84.5,7593],[84.5,7660],[84.5,7726],[84.5,7792],[84.5,7859],[84.5,7925],[84.5,7992],[84.5,8059],[84.5,8125],[84.5,8192],[84.3,8258],[84.3,8325],[84.3,8391],[84.3,8458],[84.3,8525],[84.3,8591],[84.3,8658],[84.3,8725],[84.3,8791],[84.3,8858],[84.3,8924],[84.3,8991],[84.3,9058],[84.3,9124],[84.3,9191],[84.3,9258],[84.3,9324],[84.3,9391],[84.3,9457],[84.3,9524],[84.3,9591],[84.3,9657],[84.3,9724],[84.3,9790],[84.3,9857],[84.3,9923],[84.3,9990],[84.3,10057],[84.3,10123],[84.3,10190],[84.3,10257],[84.3,10323],[84.3,10390],[84.3,10456],[84.3,10523],[84.3,10590],[84.3,10656],[84.3,10723],[84.6,10790],[85.5,10857],[88.9,10923],[92.5,10990],[93.6,11056],[94,11123],[94,11189],[94.1,11256],[95.1,11323],[95.9,11389],[96.3,11456],[96.3,11522],[96.3,11589],[96.3,11655],[96.3,11722],[96.3,11789],[96.3,11855],[96.3,11922],[96.3,11988],[96.3,12055],[96.3,12121]]",1,0,240.0098,242.8406,96.25,2.1965,"[{""rating"":96.25,""responseTime"":2.1965000000000146}]",space,2.2354,,242.8407,Partially,50,242.8432,,,[],,0,7,7,7,1,audio/Narrative7Situation7.wav,audio/Narrative8Situation7.wav,audio/Narrative5Situation7.wav,audio/Narrative6Situation7.wav,5,3,4,5,,,,,,,,,,,,,,,,,,,,,,,,,,,,,,,,,,,,,
,,,,,,60ef2700e476748689a999f7,2024-05-13_12h16.16.698,group3.1-3.2-social-tom,2023.2.2,Win32,30.03003003,65c5074098b851296ff0b7ed,6642375689b0d4b858742e43,,,,,,,,,,,,,,,,,,,,,,,,,,,,,242.8441,1,audio/Narrative8Situation8.wav,245.8712,,245.8712,258.7604,"[[95.9,1266],[92,1332],[90.3,1399],[88.6,1465],[86.7,1532],[78.5,1598],[58,1732],[56.5,1798],[55.2,1865],[54.8,1932],[55.1,1998],[55.2,2065],[55.2,2131],[55.2,2198],[54.7,2264],[41.5,2598],[41,2664],[37.6,2731],[34,2797],[30.3,2864],[28.5,2930],[27.9,2997],[27.3,3064],[25.4,3130],[23.9,3197],[22.8,3264],[22.2,3330],[21.9,3397],[21.5,3464],[21.4,3530],[21.4,3596],[21.4,3663],[21.4,3730],[21.4,3796],[21.4,3863],[21.4,3929],[21.4,3996],[21.4,4063],[21.4,4129],[21.4,4196],[21.4,4262],[21.4,4329],[21.4,4396],[21.4,4462],[21.4,4529],[21.4,4595],[21.4,4662],[21.4,4729],[20.7,4796],[20.2,4862],[19.8,4929],[18.5,4995],[16,5062],[14.3,5129],[12.8,5195],[11.5,5262],[10.4,5328],[9.2,5395],[8.5,5462],[8.2,5528],[8,5595],[8,5661],[8,5728],[8,5794],[8,5861],[8,5928],[28.8,5995],[33.5,6061],[34.3,6128],[34.6,6194],[35.1,6261],[44,6328],[49,6395],[51.1,6461],[56.1,6528],[61.3,6594],[65.6,6661],[68.5,6727],[71.9,6794],[73.3,6861],[73.8,6927],[74.3,6994],[74.6,7060],[75.2,7127],[75.5,7193],[75.8,7260],[76.1,7327],[76.3,7393],[76.6,7460],[76.9,7527],[77.5,7593],[77.8,7660],[77.8,7726],[77.8,7793],[77.8,7859],[77.8,7926],[78,7993],[78.3,8060],[78.4,8126],[78.4,8192],[79.1,8259],[79.9,8326],[80.4,8392],[80.8,8460],[80.9,8525],[81,8592],[81,8659],[81,8725],[81,8792],[81,8858],[81,8925],[81,8992],[81,9058],[81,9125],[81,9191],[81,9258],[81,9325],[81,9391],[81,9458],[81,9525],[81,9591],[81,9658],[81,9724],[81,9791],[81,9858],[89.6,9924],[94.7,9991],[96.1,10058],[97.8,10124],[100,10191],[100,10257],[100,10324],[100,10390],[100,10457],[100,10524],[100,10590],[100,10657],[100,10723],[100,10790],[100,10857],[100,10923],[100,10990],[100,11057],[100,11123],[100,11190],[100,11257],[100,11323],[100,11389],[100,11456],[100,11523],[100,11589],[100,11656],[100,11723],[100,11789],[100,11856],[100,11922],[100,11989],[100,12056],[100,12124],[100,12189],[97.3,12256],[94.8,12322],[93.9,12389],[93.3,12456],[90.3,12523],[89.3,12589],[88.9,12655],[88.9,12722],[88.9,12788],[89,12855]]",1,0,258.7605,261.1249,93.54166985,1.8119,"[{""rating"":93.54166984558105,""responseTime"":1.8119000000357346}]",space,1.7791,,261.1249,Definitely yes,100,261.1307,,,[],,0,8,8,8,1,audio/Narrative7Situation8.wav,audio/Narrative8Situation8.wav,audio/Narrative5Situation8.wav,audio/Narrative6Situation8.wav,2,3,3,5,,,,,,,,,,,,,,,,,,,,,,,,,,,,,,,,,,,,,
,,,,,,60ef2700e476748689a999f7,2024-05-13_12h16.16.698,group3.1-3.2-social-tom,2023.2.2,Win32,30.03003003,65c5074098b851296ff0b7ed,6642375689b0d4b858742e43,,,,,,,,,,,,,,,,,,,,,,,,,,,,,261.1309,1,audio/Narrative8Situation9.wav,264.1556,,264.1556,275.5122,"[[74.3,532],[56.6,599],[53.5,666],[53.5,732],[53.5,798],[52.4,865],[50.7,932],[50.4,999],[50.4,1065],[50.3,1132],[50.3,1198],[50.3,1265],[50.3,1331],[50.3,1398],[50.3,1465],[50.3,1531],[50.3,1598],[50.3,1664],[50.3,1731],[50.3,1798],[54,1864],[61.5,1931],[63.8,1998],[64.6,2064],[65.3,2131],[70.2,2197],[87.8,2264],[90,2331],[90.5,2398],[90.7,2464],[90.7,2531],[90.8,2597],[90.9,2664],[93.9,2730],[96.1,2797],[96.9,2864],[97.2,2930],[97.2,2996],[97.2,3063],[97.2,3130],[97.2,3196],[97.2,3263],[97.2,3330],[97.2,3396],[97.2,3463],[97.2,3530],[97.2,3596],[97.2,3663],[97.2,3729],[97.2,3796],[97.2,3863],[97.2,3929],[97.2,3996],[97.2,4062],[97.2,4129],[97.2,4196],[97.2,4262],[97.2,4329],[97.2,4395],[97.2,4462],[97.2,4528],[97.2,4595],[97.2,4662],[97.2,4729],[97.2,4795],[97.2,4862],[97.2,4928],[97.2,4995],[97.2,5062],[97.2,5128],[97.2,5195],[97.2,5261],[97.2,5328],[97.2,5394],[97.2,5461],[97.2,5528],[97.2,5594],[97.2,5661],[97.2,5728],[97.2,5794],[97.2,5861],[97.2,5928],[97.2,5994],[97.2,6061],[97.2,6127],[96.7,6194],[64.7,6661],[64,6727],[64.9,6794],[66.9,6993],[67.2,7060],[68.6,7127],[70.4,7193],[71.4,7260],[71.9,7326],[72.7,7393],[73.1,7460],[73.3,7526],[73.3,7593],[73.3,7659],[73.3,7726],[73.3,7792],[73.3,7859],[73.3,7926],[73.3,7992],[73.3,8059],[73.3,8125],[73.3,8192],[73.3,8259],[73.3,8325],[73.3,8392],[73.3,8459],[73.3,8525],[73.3,8592],[73.3,8658],[73.3,8725],[73.3,8792],[73.3,8858],[73.3,8925],[73.3,8992],[73.3,9058],[73.3,9125],[73.3,9192],[73.3,9258],[73.3,9324],[73.3,9391],[73.3,9458],[73.3,9524],[73.3,9591],[73.3,9658],[73.3,9724],[73.3,9791],[73.3,9857],[73.3,9924],[73.3,9990],[73.3,10057],[73.3,10124],[73.3,10190],[73.3,10257],[73.3,10324],[73.3,10390],[73.3,10457],[73.3,10523],[73.3,10590],[73.3,10657],[73.3,10723],[73.3,10790],[73.3,10856],[73.3,10923],[73.3,10990],[73.3,11056],[73.3,11123],[73.3,11189],[73.3,11256],[73.3,11323]]",1,0,275.5124,279.8084,73.02083969,2.228,"[{""rating"":73.02083969116211,""responseTime"":2.2280000000000655}]",space,3.7123,,279.8084,Partially,50,279.8134,,,[],,0,9,9,9,1,audio/Narrative7Situation9.wav,audio/Narrative8Situation9.wav,audio/Narrative5Situation9.wav,audio/Narrative6Situation9.wav,2,3,3,4,,,,,,,,,,,,,,,,,,,,,,,,,,,,,,,,,,,,,
,,,,,,60ef2700e476748689a999f7,2024-05-13_12h16.16.698,group3.1-3.2-social-tom,2023.2.2,Win32,30.03003003,65c5074098b851296ff0b7ed,6642375689b0d4b858742e43,,,,,,,,,,,,,,,,,,,,,,,,,,,,,279.8136,1,audio/Narrative7Situation1.wav,281.84,,281.84,337.7911,"[[71,1332],[70.1,1398],[68,1465],[63.2,1532],[56.5,1598],[50.9,1665],[47.8,1732],[46.5,1798],[46.4,1864],[46.9,1932],[47.7,1998],[47.8,2064],[48.3,2131],[49,2198],[49.8,2265],[50.3,2331],[50.6,2397],[50.6,2464],[50.6,2530],[50.6,2597],[50.6,2664],[50.6,2730],[50.5,2797],[50.4,2863],[50.1,2930],[50.1,2997],[49.9,3063],[49.9,3130],[49.9,3197],[49.9,3263],[49.9,3330],[49.9,3396],[49.9,3463],[49.9,3530],[49.9,3596],[49.9,3663],[49.9,3730],[49.9,3796],[50.4,3863],[53,3929],[54.2,3996],[55,4063],[55.6,4129],[55.7,4196],[55.7,4262],[54.2,4329],[51,4396],[48.5,4462],[46.5,4529],[44.8,4596],[43.5,4662],[43.5,4729],[43.5,4795],[43.5,4862],[43.5,4929],[43.5,4995],[43.2,5062],[42,5128],[41.4,5195],[41.1,5261],[41.1,5328],[41,5396],[39.9,5462],[38.4,5528],[36.4,5595],[35.4,5661],[34.6,5728],[34.3,5794],[34.2,5861],[34.2,5927],[34.2,5994],[34.2,6061],[34.2,6127],[34.2,6194],[34.2,6260],[34.2,6327],[34.2,6394],[35.4,6461],[36.6,6527],[36.8,6594],[37.1,6660],[37.8,6727],[38.3,6794],[38.6,6860],[38.6,6927],[38.5,6993],[38.5,7060],[38.3,7127],[38.3,7193],[38.3,7260],[38.3,7326],[38.3,7393],[40.7,7459],[43.8,7526],[45.3,7593],[46.7,7660],[47.2,7726],[48,7793],[49,7860],[49.3,7926],[49.3,7992],[51.5,8059],[58.2,8126],[60.9,8192],[62.5,8259],[65.1,8326],[72.5,8392],[74.4,8459],[74.9,8526],[75,8592],[75.1,8658],[75.1,8725],[68.2,8792],[67,8858],[66.7,8925],[65.8,8992],[65.4,9058],[64.6,9125],[63.6,9192],[63.5,9258],[63.5,9325],[63.8,9391],[64.1,9458],[64.1,9524],[64.1,9591],[64.1,9658],[64.1,9724],[64.1,9791],[64.1,9857],[64.1,9924],[64.1,9991],[64.1,10057],[64.1,10124],[64.1,10190],[64.1,10257],[64.1,10324],[64.1,10390],[64.1,10457],[64.1,10523],[64.1,10590],[64.1,10657],[64.1,10724],[64.1,10790],[64.1,10856],[64.1,10923],[64.1,10990],[64.1,11057],[64.1,11123],[64.1,11189],[64.1,11256],[64.3,11323],[65.1,11389],[66.6,11456],[67.8,11523],[68.1,11589],[68.4,11656],[68.8,11723],[69.4,11789],[69.9,11856],[70,11922],[70,11989],[70,12056],[70,12122],[70,12189],[70.3,12256],[70.3,12322],[70.8,12389],[71.1,12455],[71.3,12522],[72.1,12589],[72.5,12655],[73.3,12722],[73.8,12788],[74.1,12855],[74.6,12921],[75.3,12988],[75.6,13055],[75.6,13121],[76.1,13188],[76.5,13255],[76.5,13321],[76.5,13388],[76.5,13454],[76.5,13521],[76.5,13588],[76.5,13654],[76.5,13721],[76.5,13787],[76.5,13854],[76.5,13920],[76.5,13987],[76.5,14054],[76.5,14120],[76.5,14187],[76.5,14254],[76.5,14320],[76.5,14387],[76.5,14453],[76.5,14520],[76.5,14587],[76.5,14653],[76.5,14720],[76.5,14786],[76.5,14853],[76.5,14920],[76.5,14986],[76.5,15053],[76.5,15119],[76.5,15186],[76.5,15253],[76.5,15319],[76.5,15386],[76.5,15453],[76.5,15519],[76.5,15586],[76.5,15653],[76.5,15719],[76.5,15786],[76.5,15852],[76.5,15919],[76.5,15985],[76.5,16052],[76.5,16119],[76.5,16185],[76.5,16252],[76.5,16318],[76.5,16385],[76.5,16452],[76.5,16518],[76.5,16585],[76.5,16651],[76.5,16718],[76.5,16785],[76.5,16851],[76.5,16918],[76.5,16985],[76.5,17051],[76.5,17118],[76.5,17184],[76.5,17251],[76.5,17317],[76.5,17384],[76.5,17451],[76.5,17518],[76.5,17584],[76.5,17651],[76.5,17717],[76.5,17784],[76.5,17850],[76.5,17917],[76.5,17984],[76.5,18050],[76.5,18117],[76.5,18183],[76.5,18250],[76.5,18317],[76.5,18384],[76.5,18450],[76.5,18516],[76.5,18583],[76.5,18650],[76.5,18716],[76.5,18783],[76.5,18850],[76.5,18916],[76.5,18983],[76.5,19050],[76.5,19116],[76.5,19183],[76.5,19249],[76.5,19316],[76.5,19383],[76.5,19449],[72.1,19516],[67.1,19582],[66.4,19649],[66.1,19716],[66,19782],[65.5,19849],[61.8,19916],[54.3,19982],[49.4,20049],[48.3,20116],[48,20182],[47,20248],[44.6,20315],[41.7,20382],[39.6,20448],[38,20515],[36.5,20582],[31.3,20648],[23.1,20715],[22.4,20781],[22.3,20848],[21.5,20915],[20.6,20981],[20.4,21048],[20.1,21114],[20.1,21181],[20.1,21247],[20.1,21314],[20.1,21381],[20.1,21447],[20.1,21514],[20.1,21580],[20.1,21647],[20.1,21714],[20.1,21780],[20.1,21847],[20.1,21913],[20.1,21980],[20.1,22047],[20.1,22113],[20.1,22180],[20.1,22246],[20.1,22313],[20.1,22380],[20.1,22446],[20.1,22513],[20.1,22579],[20.1,22646],[20.1,22713],[20.1,22779],[20.1,22846],[20.1,22913],[20.1,22979],[20.1,23046],[20.1,23112],[20.1,23179],[19.2,23246],[18.5,23312],[18.2,23379],[17.3,23446],[16.4,23512],[15.7,23579],[15.2,23646],[14.7,23712],[14.3,23779],[14,23846],[13.9,23912],[13.5,23978],[13.2,24046],[12.9,24112],[12.7,24179],[12.6,24245],[12.6,24312],[12.3,24378],[12,24445],[11.7,24511],[11.5,24578],[11.3,24645],[11,24711],[11,24778],[11,24844],[11,24911],[11,24977],[11,25044],[11,25111],[11,25177],[11,25244],[11,25311],[11,25377],[11,25444],[11,25510],[11,25577],[11,25644],[11,25710],[11,25777],[11,25843],[11,25910],[11,25977],[11,26043],[11,26110],[11,26177],[11,26243],[11,26309],[11,26376],[11,26443],[11,26509],[11,26576],[11,26643],[11,26709],[11.9,26776],[13.1,26843],[13.4,26910],[13.6,26976],[13.6,27042],[13.6,27109],[13.6,27176],[13.6,27242],[13.6,27309],[13.3,27376],[12.7,27442],[11.4,27509],[10.3,27576],[9.3,27642],[8.9,27709],[8.6,27775],[8.6,27842],[8.3,27908],[8,27976],[7.8,28042],[7.7,28109],[7.4,28175],[7.4,28241],[7.4,28308],[7.4,28375],[7.4,28441],[7.4,28508],[7.4,28574],[7.4,28641],[7.4,28708],[7.4,28774],[7.4,28841],[7.4,28908],[7.4,28974],[7.4,29041],[7.4,29107],[7.4,29174],[7.4,29241],[7.4,29307],[7.4,29374],[7.4,29440],[7.4,29508],[7.4,29573],[7.4,29640],[7.4,29707],[7.4,29773],[7.4,29840],[7.4,29906],[7.4,29973],[7.4,30040],[7.4,30106],[7.4,30173],[7.4,30240],[7.4,30306],[7.4,30373],[7.4,30439],[7.4,30506],[7.4,30572],[7.4,30639],[7.4,30706],[7.4,30772],[7.4,30839],[7.4,30905],[7.4,30972],[7.4,31039],[7.4,31105],[7.4,31173],[7.4,31239],[7.4,31305],[7.4,31372],[7.4,31439],[7.4,31505],[7.4,31572],[7.4,31638],[7.4,31705],[7.4,31772],[7.4,31838],[7.4,31905],[7.4,31972],[7.4,32038],[7.4,32105],[7.4,32171],[7.4,32238],[7.4,32304],[7.4,32371],[7.4,32438],[7.4,32504],[7.4,32571],[7.4,32638],[7.4,32704],[7.4,32771],[7.4,32837],[7.4,32904],[9.1,32971],[10,33038],[10.5,33104],[10.6,33170],[10.6,33237],[10.6,33303],[10.6,33370],[16.5,33437],[27.4,33504],[27.8,33570],[28.3,33637],[28.8,33703],[30.7,33770],[40.1,33837],[52,33903],[57.1,33970],[61.6,34037],[65.5,34103],[69,34170],[72.3,34237],[75.9,34303],[78.5,34370],[80,34436],[81.1,34503],[81.9,34569],[82.5,34636],[84.1,34702],[85.5,34769],[85.9,34836],[86.6,34902],[86.9,34969],[86.9,35036],[86.9,35102],[86.7,35169],[86.6,35235],[86.6,35302],[86.6,35368],[86.6,35435],[86.6,35502],[86.6,35568],[86.6,35635],[86.6,35702],[86.6,35768],[86.6,35834],[86.6,35901],[86.6,35968],[86.6,36034],[86.6,36101],[86.6,36168],[86.6,36235],[86.6,36301],[86.6,36368],[86.6,36434],[86.6,36501],[86.6,36567],[86.6,36634],[86.6,36701],[86.6,36767],[86.6,36834],[86.6,36901],[86.6,36967],[86.6,37034],[86.6,37100],[86.6,37167],[86.6,37233],[86.6,37300],[86.6,37367],[86.6,37433],[86.6,37500],[86.6,37567],[87.6,37633],[90.5,37700],[91.6,37767],[92.1,37833],[92.2,37900],[92.2,37966],[92.2,38033],[92.2,38099],[92.2,38166],[92.2,38233],[92.2,38299],[92.2,38366],[92.2,38432],[92.2,38499],[92.2,38566],[92.2,38632],[92.2,38699],[92.2,38766],[92.2,38832],[92.2,38899],[91.1,38966],[89.7,39032],[89.2,39098],[88.6,39165],[88.6,39232],[88.6,39298],[88.6,39365],[88.6,39432],[88.6,39498],[88.6,39565],[88.6,39631],[88.6,39698],[88.6,39765],[88.6,39831],[88.6,39898],[88.6,39964],[88.6,40031],[88.6,40098],[88.6,40164],[88.6,40231],[88.6,40298],[88.6,40364],[88.6,40431],[88.6,40497],[88.6,40564],[88.6,40631],[88.6,40697],[88.6,40764],[88.6,40831],[88.6,40897],[88.6,40963],[88.6,41030],[88.6,41097],[88.6,41163],[88.6,41230],[88.6,41297],[88.6,41363],[88.6,41430],[88.6,41496],[88.8,41563],[90.3,41630],[91.6,41697],[92.4,41763],[92.8,41830],[93.4,41896],[93.8,41963],[94.6,42030],[95,42096],[95.5,42163],[96.3,42229],[96.9,42296],[97.7,42363],[98,42429],[98.2,42495],[98.2,42562],[98.2,42629],[98.2,42696],[94.8,42762],[91.5,42829],[90.8,42895],[90.7,42962],[90.7,43028],[90.7,43095],[90.7,43162],[90.6,43228],[90.6,43295],[90.6,43361],[90.6,43428],[90.6,43495],[90.6,43561],[90.6,43628],[90.6,43695],[90.6,43761],[90.6,43828],[90.6,43894],[90.6,43961],[90.6,44028],[90.6,44094],[90.6,44161],[90.6,44227],[90.6,44294],[90.6,44361],[90.6,44427],[90.6,44494],[90.6,44560],[90.6,44627],[90.6,44694],[90.6,44760],[90.6,44827],[90.6,44894],[90.6,44960],[90.6,45027],[90.6,45093],[90.6,45160],[90.6,45226],[90.6,45293],[90.6,45360],[90.6,45426],[90.6,45493],[90.6,45560],[90.6,45626],[90.6,45693],[90.6,45759],[90.6,45826],[90.6,45893],[90.6,45959],[90.6,46026],[90.6,46092],[90.6,46159],[90.6,46226],[90.6,46292],[90.6,46359],[90.6,46425],[90.6,46492],[90.6,46559],[90.6,46625],[90.6,46692],[90.6,46759],[90.6,46825],[90.6,46892],[90.6,46958],[90.6,47025],[90.6,47092],[90.6,47158],[90.6,47225],[90.6,47291],[90.6,47358],[90.6,47424],[90.6,47491],[90.6,47558],[90.6,47624],[90.6,47691],[90.6,47758],[90.6,47824],[90.6,47891],[90.6,47957],[90.6,48024],[90.6,48091],[90.6,48157],[90.6,48224],[90.6,48290],[90.6,48357],[90.6,48424],[90.6,48490],[90.6,48557],[90.6,48624],[90.6,48690],[90.6,48757],[90.6,48823],[90.6,48890],[90.6,48957],[90.6,49023],[90.6,49090],[90.6,49157],[90.6,49223],[90.6,49290],[90.6,49356],[90.6,49423],[90.6,49490],[90.6,49556],[90.6,49623],[90.6,49689],[90.6,49756],[90.6,49822],[90.6,49889],[90.6,49956],[90.6,50022],[90.6,50089],[90.6,50156],[90.6,50222],[90.6,50289],[90.6,50355],[90.6,50422],[90.6,50488],[90.6,50555],[90.6,50622],[90.6,50688],[90.6,50755],[90.6,50822],[90.6,50888],[90.6,50955],[90.6,51021],[90.6,51088],[90.6,51155],[90.6,51221],[90.6,51288],[90.6,51354],[90.6,51421],[90.6,51488],[90.6,51555],[90.6,51621],[90.6,51687],[90.6,51754],[90.6,51821],[90.6,51887],[90.6,51954],[90.6,52021],[90.6,52087],[90.6,52154],[90.6,52221],[90.6,52287],[90.6,52354],[90.6,52420],[90.6,52487],[90.6,52553],[90.6,52620],[90.6,52687],[90.6,52753],[90.6,52820],[90.6,52886],[90.6,52953],[90.6,53020],[90.6,53086],[90.6,53153],[90.6,53220],[90.6,53286],[90.6,53353],[90.6,53419],[90.6,53486],[90.6,53553],[90.6,53619],[90.6,53686],[90.6,53753],[90.6,53819],[90.6,53886],[90.6,53952],[90.6,54019],[90.6,54086],[90.6,54152],[90.6,54219],[90.6,54285],[90.6,54352],[90.6,54419],[90.6,54485],[90.6,54552],[90.6,54618],[90.6,54685],[90.6,54752],[90.6,54818],[90.5,54885],[89.5,54952],[88.2,55018],[87.4,55085],[87,55152],[87,55218],[86.8,55284],[86.5,55351],[86.1,55418],[86.1,55484],[86,55551],[86,55617],[86,55684],[86,55751],[86,55817],[86,55884],[86,55950]]",1,0,337.7914,341.5215,94.47916985,3.2855,"[{""rating"":87.91666984558105,""responseTime"":1.4044999999999845},{""rating"":94.47916984558105,""responseTime"":3.2854999999999563}]",space,3.1348,,341.5216,Definitely yes,100,341.53,,,[],,0,10,10,10,1,audio/Narrative8Situation1.wav,audio/Narrative7Situation1.wav,audio/Narrative6Situation1.wav,audio/Narrative5Situation1.wav,5,2,2,5,,,,,,,,,,,,,,,,,,,,,,,,,,,,,,,,,,,,,
,,,,,,60ef2700e476748689a999f7,2024-05-13_12h16.16.698,group3.1-3.2-social-tom,2023.2.2,Win32,30.03003003,65c5074098b851296ff0b7ed,6642375689b0d4b858742e43,,,,,,,,,,,,,,,,,,,,,,,,,,,,,341.5305,1,audio/Narrative7Situation2.wav,344.5523,,344.5523,352.0788,"[[60.5,399],[56.7,466],[55.3,532],[53.5,599],[52,665],[50.8,732],[50.1,799],[49.5,865],[49.2,932],[49.2,998],[49.2,1065],[49.2,1132],[49.2,1198],[49.2,1264],[49.2,1331],[49.2,1398],[49.2,1464],[49.2,1531],[49.2,1598],[49.2,1664],[49.2,1731],[49.2,1797],[49.2,1864],[49.2,1931],[49.2,1998],[49.2,2064],[49.2,2131],[50.1,2197],[56.8,2264],[58.4,2331],[59.1,2397],[60,2464],[70.1,2530],[76.7,2597],[78.8,2664],[80.5,2730],[82.8,2797],[84.7,2864],[85.3,2930],[85.8,2997],[88,3064],[89.9,3130],[91.3,3197],[92.7,3263],[95,3330],[96,3397],[96.5,3463],[97.2,3529],[98.1,3596],[98.9,3663],[99.4,3729],[99.4,3796],[99.5,3863],[99.5,3929],[99.5,3995],[99.5,4062],[99.5,4129],[99.5,4195],[99.5,4262],[99.5,4329],[99.5,4395],[99.5,4462],[99.5,4528],[99.5,4595],[99.5,4662],[99.5,4729],[99.5,4795],[99.5,4861],[99.5,4928],[99.5,4995],[99.5,5061],[99.5,5128],[99.5,5195],[99.5,5261],[99.5,5328],[99.5,5394],[99.5,5461],[99.5,5528],[99.5,5594],[99.5,5661],[99.5,5727],[99.5,5794],[99.5,5861],[99.5,5927],[99.5,5994],[99.5,6061],[99.5,6127],[99.5,6194],[99.5,6260],[99.5,6327],[99.5,6393],[99.5,6460],[99.5,6527],[99.5,6593],[99.5,6660],[99.5,6727],[99.5,6793],[99.5,6860],[99.5,6926],[99.5,6993],[99.5,7059],[99.5,7126],[99.5,7193],[99.5,7260],[99.5,7326],[99.5,7393],[99.5,7459],[99.5,7526]]",1,0,352.0789,353.4778,99.47916985,0.6643,"[{""rating"":99.47916984558105,""responseTime"":0.6643000000118491}]",space,0.8138,,353.4779,Definitely yes,100,353.4817,,,[],,0,11,11,11,1,audio/Narrative8Situation2.wav,audio/Narrative7Situation2.wav,audio/Narrative6Situation2.wav,audio/Narrative5Situation2.wav,3,3,3,3,,,,,,,,,,,,,,,,,,,,,,,,,,,,,,,,,,,,,
,,,,,,60ef2700e476748689a999f7,2024-05-13_12h16.16.698,group3.1-3.2-social-tom,2023.2.2,Win32,30.03003003,65c5074098b851296ff0b7ed,6642375689b0d4b858742e43,,,,,,,,,,,,,,,,,,,,,,,,,,,,,353.4821,1,audio/Narrative7Situation3.wav,361.5037,,361.5038,370.7961,"[[999,11],[999,66],[999,133],[999,199],[999,266],[999,333],[999,399],[999,466],[999,532],[999,599],[999,666],[49.6,732],[49.6,799],[50.1,865],[50.2,932],[50.2,999],[50.2,1065],[50.1,1132],[49.9,1198],[49.7,1265],[49.5,1331],[49.5,1398],[49.5,1465],[49.5,1532],[49.5,1598],[49.5,1665],[49.5,1731],[49.5,1798],[49.5,1864],[49.5,1931],[49.5,1998],[49.5,2064],[49.5,2131],[49.5,2197],[49.5,2264],[49.5,2331],[49.5,2398],[49.5,2464],[49.5,2531],[49.5,2597],[49.5,2664],[49.5,2730],[49.5,2797],[49.5,2864],[49.5,2931],[49.5,2997],[49.5,3064],[49.5,3130],[49.5,3197],[49.5,3263],[49.5,3330],[27,3397],[18.2,3464],[16.5,3530],[14.9,3597],[13.5,3663],[11.8,3730],[10.1,3796],[8.6,3863],[7.9,3930],[7.3,3996],[6.5,4063],[5.8,4129],[5.4,4196],[5.1,4262],[4.8,4329],[4.5,4396],[4.2,4463],[3.9,4529],[3.5,4596],[3.2,4663],[3,4729],[3,4795],[3,4862],[3,4929],[3,4995],[3,5062],[3,5128],[3,5195],[3,5261],[3,5328],[3,5395],[3,5461],[3,5528],[4.6,5595],[6,5662],[8.8,5728],[19.7,5794],[25.9,5861],[27.5,5928],[30.4,5995],[32.2,6061],[33.3,6128],[33.8,6194],[33.8,6261],[34,6327],[34,6394],[34,6461],[34,6527],[34,6594],[34,6660],[34,6727],[34,6793],[34.5,6860],[38.9,6927],[42.5,6994],[55.8,7060],[62.3,7127],[64.2,7194],[65,7260],[65.3,7326],[65.3,7393],[65.3,7459],[65.3,7526],[65.3,7593],[64.5,7660],[64.3,7726],[64.3,7793],[64.3,7859],[64.3,7926],[64.3,7992],[64.3,8059],[64.3,8126],[64.3,8192],[64.3,8259],[64.3,8326],[64.3,8392],[64.3,8459],[64.3,8525],[64.3,8592],[64.3,8658],[64.3,8725],[64.3,8792],[64.3,8858],[64.3,8925],[64.3,8992],[64.3,9058],[64.3,9125],[64.3,9192],[64.3,9258]]",1,0,370.7962,374.3593,29.79166985,3.0124,"[{""rating"":41.666669845581055,""responseTime"":1.0373000000118964},{""rating"":29.791669845581055,""responseTime"":3.0124000000357682}]",space,2.9855,,374.3594,Partially,50,374.364,,,[],,0,12,12,12,1,audio/Narrative8Situation3.wav,audio/Narrative7Situation3.wav,audio/Narrative6Situation3.wav,audio/Narrative5Situation3.wav,4,8,5,3,,,,,,,,,,,,,,,,,,,,,,,,,,,,,,,,,,,,,
,,,,,,60ef2700e476748689a999f7,2024-05-13_12h16.16.698,group3.1-3.2-social-tom,2023.2.2,Win32,30.03003003,65c5074098b851296ff0b7ed,6642375689b0d4b858742e43,,,,,,,,,,,,,,,,,,,,,,,,,,,,,374.3643,1,audio/Narrative7Situation4.wav,377.3901,,377.3902,389.1797,"[[46.5,66],[46.6,132],[46.6,199],[46.8,265],[46.8,332],[46.8,399],[48,465],[49.1,532],[49.7,599],[50.2,666],[50.6,732],[50.6,798],[50.8,865],[50.9,932],[50.9,998],[50.9,1065],[50.9,1132],[50.9,1198],[50.9,1265],[50.9,1331],[50.9,1398],[50.9,1465],[50.9,1531],[50.9,1598],[50.9,1664],[50.9,1731],[50.9,1798],[50.9,1864],[50.9,1931],[50.9,1997],[50.9,2064],[50.9,2130],[50.9,2197],[50.9,2264],[50.9,2330],[50.9,2397],[50.9,2464],[50.9,2530],[47.5,2597],[42.9,2664],[39.4,2730],[37.1,2797],[35.5,2864],[33.9,2930],[31.7,2997],[29.8,3063],[27.9,3130],[26.7,3197],[25.2,3263],[23.9,3330],[22.6,3397],[21.5,3463],[20.4,3530],[19.5,3597],[18.9,3663],[18.5,3730],[18.5,3796],[18.5,3862],[18.5,3929],[18.5,3996],[18.5,4062],[18.5,4129],[18.5,4195],[18.5,4262],[18.5,4329],[18.5,4397],[18.5,4462],[18,4529],[17.9,4595],[17.9,4662],[17.6,4728],[17.3,4795],[17,4862],[16.4,4928],[15.6,4995],[14.9,5061],[13.6,5128],[12.3,5195],[10.6,5262],[0.3,6927],[0.5,6993],[0.6,7060],[0.6,7126],[0.6,7193],[0.6,7259],[0.6,7326],[0.6,7393],[0.6,7459],[0.6,7526],[0.6,7593],[0.6,7659],[0.6,7726],[0.6,7792],[0.6,7859],[0.6,7926],[0.6,7992],[0.6,8059],[0.6,8125],[0.6,8192],[0.6,8259],[0.6,8325],[0.6,8392],[0.6,8458],[0.6,8525],[0.6,8592],[0.6,8658],[0.6,8725],[0.6,8791],[0.6,8858],[0.6,8925],[0.6,8991],[0.6,9058],[0.6,9124],[0.6,9192],[0.6,9258],[0.6,9325],[0.6,9391],[0.6,9458],[0.6,9524],[0.6,9591],[0.6,9657],[0.6,9724],[0.6,9791],[0.6,9857],[0.6,9924],[0.6,9990],[0.6,10057],[0.6,10124],[0.6,10190],[0.6,10257],[0.6,10323],[0.6,10390],[0.6,10457],[0.6,10523],[0.6,10590],[0.6,10656],[0.6,10723],[0.6,10790],[0.6,10856],[0.6,10923],[0.6,10990],[0.6,11056],[0.6,11123],[0.6,11190],[0.6,11256],[0.6,11323],[0.6,11389],[0.6,11456],[0.6,11522],[0.6,11589],[0.6,11655],[0.6,11722],[0.6,11789]]",1,0,389.1798,391.0114,0.625,0.5421,"[{""rating"":0.6249999999999978,""responseTime"":0.5421000000237655}]",space,1.2362,,391.0115,Partially,50,391.0146,,,[],,0,13,13,13,1,audio/Narrative8Situation4.wav,audio/Narrative7Situation4.wav,audio/Narrative6Situation4.wav,audio/Narrative5Situation4.wav,3,3,2,1,,,,,,,,,,,,,,,,,,,,,,,,,,,,,,,,,,,,,
,,,,,,60ef2700e476748689a999f7,2024-05-13_12h16.16.698,group3.1-3.2-social-tom,2023.2.2,Win32,30.03003003,65c5074098b851296ff0b7ed,6642375689b0d4b858742e43,,,,,,,,,,,,,,,,,,,,,,,,,,,,,391.0153,1,audio/Narrative7Situation5.wav,396.0402,,396.0403,404.5664,"[[45.5,932],[46.6,999],[47.7,1065],[48.6,1132],[49.1,1199],[49.7,1265],[50,1332],[50.8,1398],[51.6,1465],[51.9,1532],[52.1,1598],[52.1,1665],[52.1,1731],[52.1,1798],[50.7,1865],[49.5,1931],[49.1,1998],[49.1,2064],[49.1,2131],[49.1,2198],[49.1,2264],[49.1,2331],[49.1,2397],[49.1,2464],[49.1,2531],[49.1,2597],[49.1,2664],[49.1,2730],[49.1,2797],[49.1,2864],[42.3,2931],[32.1,2997],[29,3064],[25.9,3131],[24.1,3197],[20.2,3264],[15.5,3330],[12.9,3397],[10.7,3463],[9,3530],[8.2,3597],[7.4,3663],[6.4,3730],[5.5,3797],[4.9,3863],[4.5,3930],[4.5,3996],[4.5,4063],[4.5,4129],[4.5,4196],[4.5,4262],[4.5,4329],[4.5,4396],[4.5,4462],[4.3,4529],[4.3,4596],[4.3,4662],[4.3,4729],[4.3,4796],[4.3,4862],[4.3,4929],[4.3,4995],[4.3,5062],[4.3,5128],[4.3,5195],[4.3,5261],[4.3,5328],[4.3,5394],[4.3,5461],[4.3,5528],[4.3,5595],[4.3,5661],[4.3,5728],[4.3,5794],[4.3,5861],[4.3,5928],[4.3,5994],[4.3,6061],[4.3,6128],[4.3,6194],[4.3,6261],[4.3,6327],[4.3,6394],[4.3,6461],[4.3,6527],[4.3,6594],[4.3,6661],[4.3,6727],[4.3,6794],[4.3,6860],[4.3,6927],[4.3,6993],[4.3,7060],[4.3,7127],[4.3,7193],[4.3,7260],[4.3,7327],[4.3,7393],[4.3,7460],[4.3,7526],[4.3,7593],[4.3,7660],[4.3,7726],[4.3,7793],[4.3,7859],[4.3,7926],[4.3,7993],[4.3,8059],[4.3,8126],[4.3,8192],[4,8260],[2.1,8326],[1.5,8392],[1.4,8459],[1,8525]]",1,0,404.5665,406.9309,0.833334923,0.6061,"[{""rating"":0.8333349227905296,""responseTime"":0.6061000000238437}]",space,1.7728,,406.9309,Not at all,0,406.9359,,,[],,0,14,14,14,1,audio/Narrative8Situation5.wav,audio/Narrative7Situation5.wav,audio/Narrative6Situation5.wav,audio/Narrative5Situation5.wav,2,5,2,5,,,,,,,,,,,,,,,,,,,,,,,,,,,,,,,,,,,,,
,,,,,,60ef2700e476748689a999f7,2024-05-13_12h16.16.698,group3.1-3.2-social-tom,2023.2.2,Win32,30.03003003,65c5074098b851296ff0b7ed,6642375689b0d4b858742e43,,,,,,,,,,,,,,,,,,,,,,,,,,,,,406.9361,1,audio/Narrative7Situation6.wav,409.9617,,409.9618,419.9861,"[[46.1,66],[46.1,132],[46.1,199],[46.1,265],[46.1,332],[46.1,399],[46.1,465],[46.1,532],[46.1,598],[46.1,665],[47.9,732],[48.8,798],[49.3,865],[49.6,932],[50.3,999],[50.6,1065],[50.6,1131],[50.6,1198],[50.6,1265],[50.6,1331],[50.6,1398],[50.6,1464],[50.6,1531],[50.6,1598],[50.6,1664],[50.6,1731],[50.6,1797],[50.6,1864],[50.6,1931],[50.6,1997],[50.6,2064],[50.6,2131],[50.6,2197],[50.6,2264],[50.6,2330],[69.7,2397],[76.3,2464],[87.4,2530],[97.5,2797],[100,2864],[100,2930],[100,2997],[100,3064],[100,3130],[100,3196],[100,3263],[100,3330],[100,3396],[100,3463],[99.5,3529],[98.9,3597],[98.5,3663],[98.5,3729],[98.5,3796],[98.5,3862],[98.5,3929],[98.5,3996],[98.5,4062],[98.5,4129],[98.5,4196],[98.5,4262],[98.5,4329],[98.5,4395],[98.5,4462],[98.5,4528],[98.5,4595],[98.5,4662],[98.5,4728],[98.5,4795],[98.5,4862],[98.5,4928],[98.5,4995],[98.5,5061],[98.5,5128],[98.5,5195],[98.5,5261],[98.5,5328],[98.5,5394],[98.5,5461],[98.5,5528],[98.5,5594],[98.5,5661],[98.5,5727],[98.5,5794],[98.5,5861],[98.5,5928],[98.5,5994],[98.5,6060],[98.5,6127],[98.5,6194],[98.5,6260],[98.5,6327],[98.5,6394],[98.5,6460],[98.5,6527],[98.5,6593],[98.5,6660],[98.5,6727],[98.5,6793],[98.5,6860],[98.5,6927],[98.5,6993],[98.5,7060],[98.5,7126],[98.5,7193],[98.5,7260],[98.5,7326],[98.5,7393],[98.5,7459],[98.5,7526],[98.5,7592],[98.5,7659],[98.5,7726],[98.5,7792],[98.5,7859],[98.5,7925],[98.5,7993],[98.5,8059],[98.5,8126],[98.5,8192],[98.5,8259],[98.5,8326],[98.5,8392],[98.5,8458],[98.5,8525],[98.5,8592],[98.5,8658],[98.5,8725],[98.5,8792],[98.5,8858],[98.5,8925],[98.5,8991],[98.5,9058],[98.5,9124],[98.5,9191],[98.5,9258],[98.5,9324],[98.5,9391],[98.5,9457],[98.5,9524],[98.5,9591],[98.5,9658],[98.5,9724],[98.5,9791],[98.5,9857],[98.5,9924],[98.5,9990]]",1,0,419.9861,421.951,98.54166985,0.6314,"[{""rating"":98.54166984558105,""responseTime"":0.6313999999761108}]",space,1.3675,,421.9511,Definitely yes,100,421.9558,,,[],,0,15,15,15,1,audio/Narrative8Situation6.wav,audio/Narrative7Situation6.wav,audio/Narrative6Situation6.wav,audio/Narrative5Situation6.wav,2,3,2,3,,,,,,,,,,,,,,,,,,,,,,,,,,,,,,,,,,,,,
,,,,,,60ef2700e476748689a999f7,2024-05-13_12h16.16.698,group3.1-3.2-social-tom,2023.2.2,Win32,30.03003003,65c5074098b851296ff0b7ed,6642375689b0d4b858742e43,,,,,,,,,,,,,,,,,,,,,,,,,,,,,421.956,1,audio/Narrative7Situation7.wav,426.98,,426.9801,444.1985,"[[88.8,1065],[85.7,1132],[83.6,1199],[76.5,1265],[56.9,1465],[52.4,1532],[50.4,1931],[69.8,1998],[83.1,2064],[86.9,2131],[89.6,2198],[91.1,2264],[91.6,2331],[92.1,2397],[92.7,2464],[93,2531],[93,2597],[93,2663],[93,2730],[93,2797],[93,2864],[93,2930],[93,2997],[93,3063],[93,3130],[93,3196],[93,3263],[93,3330],[93,3396],[93,3463],[93,3529],[93,3596],[93,3663],[92.9,3729],[92.9,3796],[92.4,3863],[91.4,3930],[90.5,3996],[90.2,4063],[89.8,4129],[89.5,4196],[89.2,4263],[89,4329],[89,4396],[89,4462],[89,4529],[89,4595],[89,4662],[89,4729],[89,4795],[89,4862],[89,4928],[89,4995],[89,5062],[89,5128],[89,5195],[89,5261],[89,5328],[89,5395],[89,5461],[89,5528],[89,5594],[89,5661],[89,5728],[89,5794],[89,5861],[89,5927],[89,5994],[89,6061],[89,6127],[89,6194],[89,6261],[89,6327],[89,6394],[89,6460],[89,6527],[89,6594],[89,6660],[89,6727],[89,6793],[89,6860],[89,6927],[89,6993],[89,7060],[89,7126],[89,7193],[89,7259],[89,7326],[89,7393],[89,7459],[89,7526],[89,7593],[89,7659],[89,7726],[89,7792],[89,7859],[89,7926],[89,7992],[89,8059],[89,8125],[89,8192],[89,8259],[89,8325],[89,8392],[89,8459],[89,8525],[89,8592],[89,8659],[89,8725],[89,8792],[89,8858],[89,8925],[89,8991],[89,9058],[89,9125],[89,9192],[89,9258],[89,9324],[89,9391],[89,9458],[89,9524],[89,9591],[89,9657],[89,9724],[89,9791],[89,9857],[89,9924],[89,9991],[89,10057],[89,10124],[89,10191],[89,10257],[89,10324],[89,10390],[89,10457],[89,10523],[89,10590],[89,10657],[89,10723],[89,10790],[89,10856],[89,10923],[89,10990],[89,11056],[89,11123],[89,11190],[89,11256],[89,11323],[89,11390],[89,11456],[89,11523],[89,11589],[89,11656],[89,11722],[89,11789],[89,11855],[89,11923],[89,11989],[89,12055],[89,12122],[89,12189],[89,12255],[89,12322],[89,12389],[89,12455],[89,12522],[89,12588],[89,12655],[89,12722],[89,12788],[89,12855],[89,12921],[89,12988],[89,13055],[89,13121],[89,13188],[89,13255],[89,13321],[89,13388],[89,13455],[89,13521],[89,13587],[89,13654],[89,13721],[89,13787],[89,13854],[89,13921],[89,13987],[89,14054],[89,14120],[89,14187],[89,14254],[89,14320],[89,14387],[89,14454],[89,14520],[89,14587],[89,14653],[89,14720],[89,14786],[89,14853],[89,14920],[89,14986],[89,15053],[89,15120],[89.9,15186],[100,15586],[98.1,15652],[97.4,15719],[97,15786],[97,15852],[97,15919],[97,15985],[97,16052],[97,16118],[97,16185],[97,16252],[97,16318],[97,16385],[97,16452],[97,16518],[97,16585],[97,16651],[97,16718],[97,16785],[97,16851],[97,16918],[97,16985],[97,17051],[97,17118],[97,17185]]",1,0,444.1987,445.797,96.97916985,0.6234,"[{""rating"":96.97916984558105,""responseTime"":0.6233999999763}]",space,0.9974,,445.7971,Not at all,0,445.8019,,,[],,0,16,16,16,1,audio/Narrative8Situation7.wav,audio/Narrative7Situation7.wav,audio/Narrative6Situation7.wav,audio/Narrative5Situation7.wav,3,5,5,4,,,,,,,,,,,,,,,,,,,,,,,,,,,,,,,,,,,,,
,,,,,,60ef2700e476748689a999f7,2024-05-13_12h16.16.698,group3.1-3.2-social-tom,2023.2.2,Win32,30.03003003,65c5074098b851296ff0b7ed,6642375689b0d4b858742e43,,,,,,,,,,,,,,,,,,,,,,,,,,,,,445.8022,1,audio/Narrative7Situation8.wav,447.8286,,447.8288,457.8863,"[[92.6,932],[70,1265],[66.7,1331],[64.1,1398],[63.1,1465],[63.8,1531],[65.5,1598],[73.1,1665],[75.6,1731],[76.1,1798],[75,1865],[69.3,1931],[65.2,1998],[61.3,2064],[58,2131],[57.7,2197],[57.7,2264],[57.7,2330],[57.7,2397],[57.7,2464],[55.8,2531],[54.6,2597],[53.5,2664],[52.9,2730],[52.6,2797],[51.8,2864],[51.1,2930],[50.8,2997],[50.8,3063],[50.7,3130],[50.7,3196],[50.7,3263],[50.7,3330],[50.7,3396],[50.7,3463],[50.7,3529],[50.7,3596],[50.7,3663],[50.7,3729],[50.7,3796],[50.7,3863],[50.7,3929],[50.7,3996],[50.7,4062],[50.7,4129],[50.7,4195],[50.7,4262],[50.7,4329],[50.7,4395],[50.7,4462],[50.7,4528],[50.2,4596],[49.8,4662],[49.8,4728],[49.8,4795],[49.8,4862],[50.4,4928],[62.4,4995],[66.6,5062],[71,5128],[76.5,5195],[80,5261],[85.7,5328],[89.8,5395],[91.3,5461],[92.7,5528],[94.5,5594],[95,5661],[95.3,5727],[95.5,5794],[95.8,5861],[95.9,5927],[95.9,5994],[95.9,6060],[95.9,6127],[95.9,6194],[95.9,6260],[95.9,6327],[95.9,6393],[95.9,6460],[95.9,6527],[95.9,6593],[95.9,6660],[95.9,6726],[95.9,6793],[95.9,6860],[95.9,6927],[95.9,6993],[96,7060],[96,7126],[96,7193],[96,7259],[96.3,7326],[96.3,7393],[96.3,7459],[96.3,7526],[96.3,7593],[96.3,7659],[96.3,7726],[96.3,7792],[96.3,7859],[96.3,7925],[96.3,7992],[96.3,8059],[96.3,8126],[96.3,8192],[96.3,8259],[96.3,8325],[96.3,8392],[96.3,8458],[96.3,8525],[96.3,8591],[96.3,8658],[96.3,8725],[96.3,8791],[96.3,8858],[96.3,8925],[96.3,8991],[96.3,9058],[96.3,9125],[96.3,9191],[96.3,9258],[96.3,9324],[96.3,9391],[96.3,9458],[96.3,9524],[96.3,9591],[96.3,9657],[96.3,9724],[96.3,9790],[96.3,9857],[96.3,9924],[96.3,9990],[96.3,10057]]",1,0,457.8864,461.4501,99.27083969,1.7696,"[{""rating"":99.27083969116211,""responseTime"":1.769600000023729}]",space,2.9707,,461.4501,Partially,50,461.455,,,[],,0,17,17,17,1,audio/Narrative8Situation8.wav,audio/Narrative7Situation8.wav,audio/Narrative6Situation8.wav,audio/Narrative5Situation8.wav,3,2,5,3,,,,,,,,,,,,,,,,,,,,,,,,,,,,,,,,,,,,,
,,,,,,60ef2700e476748689a999f7,2024-05-13_12h16.16.698,group3.1-3.2-social-tom,2023.2.2,Win32,30.03003003,65c5074098b851296ff0b7ed,6642375689b0d4b858742e43,,,,,,,,,,,,,,,,,,,,,,,,,,,,,461.4553,1,audio/Narrative7Situation9.wav,463.4814,,463.4814,472.1739,"[[97.1,533],[81.7,599],[71,666],[65.9,732],[63.9,799],[60.2,866],[55.2,932],[50.8,999],[47.7,1065],[47,1132],[46.7,1199],[46.5,1265],[46.5,1332],[46.5,1398],[46.5,1465],[46.5,1532],[46.5,1598],[46.5,1665],[46.6,1732],[47.4,1798],[48.1,1865],[48.8,1931],[49.4,1998],[49.6,2065],[49.6,2131],[49.7,2198],[49.7,2264],[49.7,2331],[49.7,2397],[49.7,2464],[49.7,2530],[49.7,2597],[49.7,2664],[49.7,2730],[49.7,2797],[49.7,2864],[49.7,2931],[49.7,2997],[49.7,3064],[49.7,3130],[49.7,3197],[49.7,3263],[49.7,3330],[49.7,3396],[49.7,3463],[49.7,3530],[49.7,3596],[49.7,3663],[49.7,3730],[49.7,3796],[49.7,3863],[49.7,3929],[49.7,3996],[49.7,4063],[49.7,4129],[49.7,4196],[49.7,4262],[49.7,4329],[60.3,4396],[69.7,4463],[71.9,4530],[73.2,4596],[75.4,4662],[80.2,4729],[85.4,4796],[97.4,4862],[100,5195],[99.2,5262],[98.6,5329],[98,5395],[97.9,5461],[97.9,5528],[97.9,5595],[97.9,5661],[97.9,5728],[97.9,5795],[97.9,5861],[97.9,5928],[98,5995],[98,6061],[98.1,6127],[98.3,6194],[98.4,6261],[98.4,6327],[98.4,6394],[98.4,6460],[98.4,6527],[98.4,6594],[98.4,6661],[98.4,6727],[98.4,6794],[98.4,6860],[98.4,6927],[98.4,6993],[98.4,7060],[98.4,7126],[98.4,7193],[98.4,7260],[98.4,7326],[98.4,7393],[98.4,7460],[98.4,7526],[98.4,7593],[98.4,7659],[98.4,7726],[98.4,7793],[98.4,7860],[98.4,7926],[98.4,7993],[98.4,8059],[98.4,8126],[98.4,8193],[98.4,8259],[98.4,8325],[98.4,8392],[98.4,8459],[98.4,8525],[98.4,8592],[98.4,8659]]",1,0,472.1741,473.6726,98.4375,0.7506,"[{""rating"":98.4375,""responseTime"":0.7505999999643791}]",space,0.9132,,473.6727,Partially,50,473.6755,,,[],,0,18,18,18,1,audio/Narrative8Situation9.wav,audio/Narrative7Situation9.wav,audio/Narrative6Situation9.wav,audio/Narrative5Situation9.wav,3,2,4,3,,,,,,,,,,,,,,,,,,,,,,,,,,,,,,,,,,,,,
,,,,,,60ef2700e476748689a999f7,2024-05-13_12h16.16.698,group3.1-3.2-social-tom,2023.2.2,Win32,30.03003003,65c5074098b851296ff0b7ed,6642375689b0d4b858742e43,,,,,,,,,,,,,,,,,,,,,,,,,,,533.6664,536.2512,536.266,2,audio/Narrative13Situation2.wav,536.2661,,536.2661,566.059,"[[42.5,3515],[35.5,3582],[29.3,3649],[23,3715],[21.4,3781],[21,3848],[20.4,3915],[18.4,3981],[16.1,4048],[15.2,4115],[15.2,4181],[15.2,4248],[15.2,4314],[15.2,4381],[15.2,4447],[15.2,4515],[15.2,4581],[15.2,4647],[15.2,4714],[15.2,4780],[15.2,4847],[15.2,4914],[15.2,4980],[15.2,5047],[15.2,5113],[15.2,5180],[15.2,5247],[15.2,5313],[15.2,5380],[15.2,5446],[15.2,5513],[15.2,5580],[15.2,5646],[15.2,5713],[15.2,5779],[15.2,5846],[15.2,5913],[15.2,5979],[15.2,6046],[15.2,6113],[15.2,6179],[26.4,6246],[59,6779],[52.3,7245],[51,7312],[50.7,7378],[50.4,7445],[47,7512],[45.7,7578],[45.5,7644],[45.4,7711],[45.4,7778],[45.4,7845],[45.4,7911],[45.4,7978],[45.4,8044],[45.4,8111],[45.4,8177],[45.4,8245],[45.4,8310],[45.4,8377],[45.4,8444],[45.4,8510],[45.4,8577],[45.4,8644],[45.4,8710],[48.1,8777],[56.4,8844],[62.8,8910],[66.5,8977],[70,9044],[72.9,9110],[76.6,9177],[79.6,9243],[82,9310],[84.5,9377],[86.7,9443],[87.8,9510],[88.1,9576],[88.4,9643],[88.4,9710],[88.4,9776],[88.4,9843],[88.4,9909],[88.4,9976],[88.4,10043],[88.4,10109],[88.4,10176],[88.4,10242],[88.4,10309],[88.4,10376],[88.4,10442],[88.4,10509],[88.4,10575],[88.4,10642],[88.4,10709],[88.4,10775],[88.4,10842],[88.4,10908],[88.4,10975],[88.4,11041],[88.4,11108],[88.4,11175],[88.4,11241],[88.4,11308],[88.4,11375],[88.4,11441],[88.4,11508],[88.4,11575],[88.4,11641],[88.4,11708],[88.4,11775],[88.4,11841],[88.4,11908],[88.4,11974],[88.4,12041],[88.4,12107],[88.4,12174],[88.4,12240],[88.4,12307],[88.4,12374],[88.4,12440],[88.4,12507],[88.4,12574],[88.4,12640],[88.4,12707],[88.4,12774],[88.4,12840],[88.4,12907],[88.4,12973],[88.4,13040],[88.4,13106],[88.4,13173],[88.4,13240],[88.4,13306],[88.4,13373],[88.4,13440],[88.4,13506],[88.4,13573],[88.4,13639],[88.4,13706],[88.4,13773],[88.4,13839],[88.4,13906],[88.4,13972],[88.4,14039],[88.4,14106],[88.4,14172],[88.4,14239],[88.4,14306],[88.4,14372],[88.4,14439],[88.4,14505],[88.4,14572],[88.4,14639],[88.4,14705],[88.4,14772],[89.9,14839],[93,14905],[94.3,14972],[95.3,15038],[95.9,15105],[96.1,15171],[96.1,15238],[96.1,15305],[96.1,15371],[96.1,15438],[94.9,15505],[93.9,15571],[93.5,15638],[93.5,15704],[93.5,15771],[93.5,15838],[93.5,15904],[93.5,15971],[93.5,16037],[93.5,16104],[93.5,16170],[93.5,16237],[93.5,16304],[93.5,16370],[93.5,16437],[93.5,16504],[93.5,16570],[93.5,16637],[90.4,16703],[48.9,17303],[49,17370],[49.3,17436],[49.6,17503],[49.6,17570],[49.6,17636],[49.3,17702],[46.8,17770],[39.4,17836],[12,18169],[8.3,18236],[7.8,18302],[7.5,18369],[7.5,18436],[7.8,18502],[8.4,18568],[8.8,18635],[11.1,18702],[12.1,18769],[12.5,18835],[12.5,18901],[12.4,18968],[12.3,19035],[12.3,19101],[12.3,19168],[12.3,19234],[12.3,19301],[12.3,19368],[12.3,19434],[12.3,19501],[12.3,19567],[12.3,19634],[12.3,19701],[12.3,19767],[12.3,19834],[12.3,19901],[12.3,19967],[12.3,20034],[12.3,20100],[12.3,20167],[12.3,20234],[12.3,20300],[12.3,20367],[12.3,20433],[12.3,20500],[12.3,20567],[12.3,20633],[12.3,20700],[12.3,20766],[12.3,20833],[12.3,20900],[12.3,20967],[12.3,21033],[12.3,21100],[12.3,21166],[12.3,21233],[12.3,21299],[12.3,21366],[12.3,21433],[12.3,21499],[12.3,21566],[12.3,21632],[12.3,21699],[12.3,21766],[12.3,21832],[12.3,21899],[12.3,21966],[12.3,22032],[12.3,22099],[12.3,22165],[12.3,22232],[12.3,22299],[12.3,22365],[12.3,22432],[12.3,22498],[12.3,22565],[12.3,22632],[12.3,22698],[12.3,22765],[12.3,22831],[12.3,22898],[12.3,22965],[12.3,23031],[12.3,23098],[12.3,23164],[12.3,23231],[12.3,23298],[12.3,23364],[12.3,23431],[12.3,23498],[12.3,23564],[12.3,23631],[12.3,23697],[12.3,23764],[12.3,23831],[12.3,23897],[12.3,23964],[12.3,24031],[12.3,24097],[12.3,24164],[12.3,24230],[12.3,24297],[12.3,24365],[12.3,24430],[12.3,24497],[12.3,24563],[12.3,24630],[12.3,24697],[12.3,24763],[12.3,24830],[12.3,24897],[12.3,24963],[12.3,25030],[43.6,25436],[43.9,25496],[43.9,25563],[43.6,25630],[42.1,25696],[23.9,25963],[22.7,26029],[20.9,26096],[19.8,26163],[18.2,26229],[16.9,26296],[15.8,26362],[14.4,26429],[11.7,26496],[10.8,26562],[10.4,26629],[8.9,26695],[8,26762],[7.6,26829],[6.7,26895],[6,26962],[5.6,27029],[5.4,27095],[4.8,27162],[4.5,27229],[4.4,27295],[4.3,27361],[4.3,27428],[4.3,27495],[4.3,27561],[4.3,27628],[4.3,27695],[4.3,27761],[4.3,27827],[4.3,27894],[4.3,27960],[4.3,28027],[4.3,28094],[4.3,28160],[4.3,28227],[4.3,28294],[4.3,28360],[4.3,28427],[4.3,28494],[4.3,28560],[4.3,28627],[4.3,28694],[4.3,28760],[4.3,28826],[4.3,28893],[4.3,28960],[4.3,29026],[4.3,29093],[4.3,29160],[4.3,29226],[4.3,29293],[4.3,29360],[4.3,29426],[4.3,29493],[4.3,29559],[4.3,29626],[4.3,29692],[4.3,29759]]",1,0,566.0595,566.0875,,,[],,,,566.0877,Not at all,0,566.093,,,[],,0,0,0,0,1,audio/Narrative13Situation2.wav,audio/Narrative13Situation2.wav,audio/Narrative13Situation2.wav,audio/Narrative13Situation2.wav,2,2,2,2,,,,,473.677,533.6545,,,,,,,,,,,,,,,,,,,,,,,,,,,,,,,
,,,,,,60ef2700e476748689a999f7,2024-05-13_12h16.16.698,group3.1-3.2-social-tom,2023.2.2,Win32,30.03003003,65c5074098b851296ff0b7ed,6642375689b0d4b858742e43,,,,,,,,,,,,,,,,,,,,,,,,,,,,,566.0935,2,audio/Narrative6Situation1.wav,568.1239,,568.124,594.7681,"[[999,1],[999,66],[999,133],[999,199],[999,267],[999,332],[999,400],[999,465],[999,533],[999,599],[999,665],[999,732],[999,799],[999,866],[999,933],[999,999],[49.8,1065],[49.2,1133],[49,1199],[48.6,1266],[48.6,1332],[48.6,1398],[48.6,1465],[48.6,1532],[48.6,1598],[48.6,1664],[48.6,1731],[48.6,1798],[48.6,1865],[48.6,1931],[48.6,1998],[48.6,2064],[48.6,2131],[48.6,2197],[48.6,2264],[48.6,2331],[48.6,2397],[48.6,2464],[48.6,2530],[48.6,2597],[48.6,2663],[48.6,2730],[48.6,2797],[48.6,2864],[48.6,2930],[48.6,2997],[48.6,3063],[48.6,3130],[48.6,3197],[48.6,3263],[48.6,3330],[48.6,3397],[48.6,3463],[48.6,3529],[48.6,3596],[48.6,3663],[49,3730],[49.7,3796],[50,3863],[50,3929],[45.1,3997],[32.1,4063],[25.5,4130],[23.8,4196],[22.1,4263],[19.5,4329],[14.7,4397],[12.5,4463],[11.8,4529],[11.1,4596],[10.5,4662],[9.9,4729],[9.3,4796],[8.9,4862],[8.9,4928],[8.8,4995],[8.8,5062],[8.8,5128],[8.8,5195],[8.8,5262],[8.8,5328],[67.8,5728],[68.2,5795],[68.8,5862],[72.3,5928],[76,5995],[77.5,6061],[78.1,6128],[79.4,6195],[81.8,6262],[84.4,6328],[85.2,6394],[85.6,6462],[85.8,6527],[85.9,6594],[85.9,6660],[85.9,6727],[85.9,6794],[85.9,6860],[85.9,6927],[85.9,6993],[85.9,7060],[85.9,7127],[85.9,7193],[85.9,7260],[85.9,7326],[85.9,7393],[85.9,7460],[85.9,7526],[85.9,7593],[85.9,7659],[85.9,7726],[85.9,7793],[85.9,7859],[85.9,7926],[85.9,7992],[85.9,8059],[85.9,8125],[85.9,8192],[85.9,8259],[85.9,8326],[85.9,8392],[85.9,8459],[85.9,8526],[85.9,8592],[85.9,8658],[85.9,8725],[85.9,8792],[85.9,8858],[85.9,8925],[85.9,8991],[85.9,9058],[85.9,9125],[85.9,9192],[85.9,9258],[85.9,9325],[85.9,9392],[85.9,9458],[85.9,9525],[85.9,9591],[85.9,9658],[85.9,9724],[85.9,9791],[85.9,9857],[85.9,9924],[85.9,9991],[85.9,10057],[85.9,10124],[85.9,10190],[85.9,10257],[85.9,10324],[85.9,10390],[85.9,10457],[85.9,10523],[85.9,10590],[85.9,10657],[85.9,10723],[85.9,10790],[85.9,10856],[85.9,10923],[85.9,10989],[85.9,11056],[85.9,11123],[85.9,11190],[85.9,11256],[85.9,11322],[31.6,11790],[31.7,11856],[31.8,11923],[31.8,11989],[31.7,12056],[29.8,12122],[26.9,12189],[22.9,12256],[20.6,12322],[19.7,12389],[19.2,12455],[17.9,12522],[16.8,12589],[16.4,12655],[15.1,12722],[13.9,12788],[13.5,12855],[13.3,12921],[13.3,12988],[13.3,13055],[13.3,13122],[13.3,13188],[13.3,13254],[13.3,13321],[13.3,13388],[13.3,13454],[13.3,13521],[13.3,13587],[13.3,13654],[13.3,13721],[13.3,13787],[13.3,13854],[13.3,13921],[13.3,13987],[13.3,14054],[13.3,14120],[13.3,14187],[13.3,14253],[13.3,14320],[13.3,14387],[13.3,14453],[13.3,14520],[13.3,14587],[13.3,14653],[13.3,14720],[13.3,14786],[13.3,14853],[13.3,14920],[13.3,14986],[13.3,15054],[13.3,15119],[13.3,15186],[13.3,15252],[13.3,15319],[13.3,15386],[13.1,15453],[9.5,15519],[8.5,15586],[7.7,15653],[6.7,15720],[5.8,15786],[5.4,15852],[5.4,15919],[5.4,15985],[5.1,16053],[4,16119],[3.5,16185],[3.5,16251],[3.5,16318],[3.5,16385],[3.5,16452],[2.9,16519],[2.3,16585],[2.1,16652],[2,16718],[2,16785],[2,16852],[2,16918],[2,16985],[2,17051],[2,17118],[2,17184],[2,17251],[2,17317],[2,17384],[2,17451],[2,17517],[2,17584],[2,17651],[2,17717],[2,17784],[2,17850],[2,17917],[2,17984],[2,18050],[2,18117],[2,18183],[2,18250],[2,18317],[2,18383],[2,18450],[2,18517],[2,18583],[2,18650],[2,18717],[2,18783],[2,18850],[2,18916],[2,18983],[2,19050],[2,19116],[2,19182],[2,19249],[2,19316],[2,19382],[2,19449],[2,19516],[2,19582],[2,19649],[2,19715],[2,19782],[2,19849],[2,19915],[2,19982],[2,20048],[2,20115],[2,20182],[2,20248],[2,20315],[2,20382],[2,20448],[5.7,20516],[8.3,20582],[12.2,20648],[14.2,20715],[16,20782],[18.2,20848],[26.3,20915],[37.2,20981],[43.1,21048],[44.1,21115],[44.9,21181],[45.5,21248],[46.3,21315],[46.6,21381],[46.9,21448],[47.6,21514],[48.1,21581],[49.6,21647],[53.5,21714],[56.1,21781],[57.5,21847],[58,21914],[58.1,21980],[59.5,22047],[61.1,22117],[62.2,22180],[62.9,22247],[64.6,22314],[65.6,22380],[66.4,22447],[66.4,22513],[66.4,22580],[66.4,22647],[66.4,22713],[66.4,22779],[66.4,22846],[66.4,22913],[67.1,22980],[68.5,23047],[70.6,23113],[72.8,23180],[74.4,23246],[75.8,23313],[77.5,23379],[79.7,23446],[80.6,23513],[80.9,23579],[80.9,23646],[80.9,23712],[80.9,23779],[80.9,23846],[80.9,23912],[80.9,23978],[80.9,24045],[80.9,24112],[80.9,24178],[80.9,24245],[80.9,24312],[80.9,24378],[80.9,24445],[80.9,24512],[80.9,24578],[80.9,24645],[80.9,24711],[80.9,24778],[80.9,24844],[80.9,24911],[80.9,24978],[80.9,25044],[80.9,25111],[80.9,25177],[80.9,25244],[80.9,25311],[80.9,25377],[80.9,25444],[80.9,25511],[80.9,25577],[80.9,25644],[80.9,25710],[80.9,25777],[80.9,25843],[80.9,25910],[80.9,25977],[80.9,26043],[48,26377]]",1,0,594.7686,597.1655,50.10416985,0.9273,"[{""rating"":50.10416984558106,""responseTime"":0.9272999999523108}]",space,1.8264,,597.1657,Not at all,0,604.459,0.104169846,6.0046,"[{""rating"":0.10416984558105358,""responseTime"":6.004600000023629}]",space,0,1,1,1,1,audio/Narrative7Situation1.wav,audio/Narrative8Situation1.wav,audio/Narrative5Situation1.wav,audio/Narrative6Situation1.wav,2,5,5,2,,,6.702,,,,,,,,,,,,,,,,,,,,,,,,,,,,,,,,,,
,,,,,,60ef2700e476748689a999f7,2024-05-13_12h16.16.698,group3.1-3.2-social-tom,2023.2.2,Win32,30.03003003,65c5074098b851296ff0b7ed,6642375689b0d4b858742e43,,,,,,,,,,,,,,,,,,,,,,,,,,,,,604.4598,2,audio/Narrative6Situation2.wav,607.4898,,607.4901,636.0321,"[[51.1,666],[50.8,732],[50.6,799],[50.6,865],[50.5,931],[50.4,998],[50.4,1064],[50.4,1131],[50.4,1198],[50.4,1265],[50.4,1332],[50.4,1398],[50.4,1465],[50.4,1531],[50.4,1598],[50.4,1664],[50.4,1731],[50.4,1797],[50.4,1864],[50.4,1931],[50.4,1997],[50.4,2064],[50.4,2131],[50.4,2197],[50.4,2263],[50.4,2331],[50.4,2397],[50.4,2464],[50.4,2531],[50.4,2597],[50.4,2663],[50.4,2730],[50.4,2796],[50.4,2863],[50.4,2930],[50.4,2996],[50.4,3063],[50.4,3129],[50.4,3196],[50.4,3263],[50.4,3330],[50.4,3396],[50.4,3463],[50.4,3529],[50.4,3596],[50.4,3662],[50.4,3729],[50.4,3796],[50.4,3862],[50.4,3929],[50.4,3995],[50.4,4062],[50.4,4129],[50.4,4195],[50.4,4262],[50.4,4328],[50.4,4395],[50.4,4462],[50.4,4528],[50.4,4595],[50.4,4662],[50.4,4728],[50.4,4795],[50.4,4861],[50.4,4928],[50.4,4995],[50.4,5061],[50.4,5128],[50.4,5194],[50.4,5261],[50.4,5328],[50.4,5394],[50.4,5461],[50.4,5527],[50.4,5594],[50.4,5661],[47.7,5728],[45.7,5795],[44.6,5862],[44.3,5927],[42.3,5994],[36,6061],[34,6127],[33.5,6194],[33.5,6260],[33.8,6327],[35.8,6394],[42.8,6461],[47.1,6527],[52.7,6594],[55.8,6661],[56.6,6727],[57.8,6794],[59.1,6860],[59.9,6927],[60.2,6993],[61.1,7060],[62.5,7127],[64.1,7193],[64.9,7261],[65.2,7326],[65.5,7393],[65.5,7459],[65.5,7526],[65.5,7592],[65.5,7659],[65.5,7725],[65.5,7792],[65.5,7859],[65.5,7925],[65.5,7992],[65.5,8059],[65.5,8125],[65.5,8192],[65.5,8258],[65.5,8325],[65.5,8392],[65.5,8458],[65.5,8526],[65.5,8592],[65.5,8658],[65.6,8725],[66.3,8792],[66.3,8858],[67.1,8925],[67.5,8992],[68.1,9058],[68.6,9125],[68.8,9191],[68.8,9258],[68.8,9324],[68.8,9391],[68.8,9457],[68.8,9524],[68.8,9591],[67.2,9658],[64.6,9725],[64.2,9791],[64.2,9857],[64.2,9924],[64.2,9990],[64.6,10057],[66.5,10124],[67.4,10190],[67.8,10257],[68.1,10323],[68.1,10390],[68.1,10456],[68.1,10523],[68.1,10590],[68.1,10656],[68.1,10723],[68.1,10790],[68.1,10856],[68.1,10923],[68.1,10990],[68.1,11056],[68.1,11123],[68.1,11189],[68.1,11256],[68.1,11322],[68.1,11389],[68.1,11456],[68.1,11522],[68.6,11589],[69.1,11656],[69.6,11722],[69.9,11789],[70.2,11856],[70.3,11922],[70.3,11989],[70.3,12056],[70.3,12122],[70.3,12188],[70.3,12255],[70.3,12321],[70.3,12388],[70.3,12456],[70.3,12521],[70.3,12588],[70.3,12654],[70.3,12721],[70.3,12788],[70.3,12854],[70.3,12921],[70.8,12988],[71.1,13055],[71.1,13121],[71.1,13187],[71.1,13254],[71.1,13321],[71.1,13387],[71.1,13454],[71.1,13521],[71.1,13587],[71.1,13654],[71.1,13721],[71.1,13787],[71.1,13853],[71.1,13921],[71.1,13987],[71.1,14053],[71.1,14120],[71.1,14186],[71.1,14253],[71.1,14320],[71.1,14386],[71.1,14453],[71.1,14520],[71.1,14586],[70.9,14653],[70.7,14720],[70.7,14786],[70.4,14853],[70.1,14920],[70.1,14986],[69.8,15053],[69.7,15120],[69.7,15186],[69.7,15252],[69.7,15319],[69.7,15386],[69.7,15452],[69.7,15519],[69.7,15585],[69.7,15652],[69.7,15718],[69.5,15786],[68.9,15852],[68.9,15918],[68.9,15985],[68.9,16052],[68.9,16118],[68.9,16185],[68.9,16251],[68.9,16318],[69.1,16386],[69.9,16451],[70.8,16518],[72.9,16585],[74.9,16652],[77.7,16718],[80.4,16785],[82.8,16852],[84,16918],[84.4,16985],[84.7,17051],[85,17117],[85,17184],[85.2,17251],[85.2,17317],[85.2,17384],[86.8,17451],[88.4,17517],[89.2,17584],[89.3,17650],[89.4,17717],[91.4,17784],[93.6,17850],[94.1,17917],[94.1,17983],[94.1,18050],[94.1,18116],[94.1,18183],[94.1,18250],[94.1,18316],[94.1,18383],[94.1,18450],[94.1,18516],[94.1,18583],[94.1,18650],[94.1,18716],[94.1,18782],[94.1,18849],[94.1,18916],[94.1,18982],[94.1,19049],[94.3,19116],[94.3,19182],[94.3,19249],[94.2,19316],[94.2,19382],[94.2,19449],[94.2,19515],[94.2,19582],[94.2,19649],[94.2,19715],[94.2,19782],[94.2,19849],[94.2,19915],[94.2,19981],[94.2,20048],[94.2,20115],[94.2,20181],[94.2,20248],[94.2,20315],[94.2,20381],[94.2,20448],[94.2,20514],[94.2,20581],[94.2,20648],[94.2,20714],[94.2,20781],[94.2,20847],[94.2,20914],[94.2,20981],[94.2,21047],[94.2,21114],[94.2,21181],[94.2,21247],[94.2,21314],[94.2,21380],[94.2,21447],[94.2,21513],[94.2,21580],[94.2,21647],[94.2,21713],[94.2,21780],[94.2,21847],[94.2,21913],[94.2,21980],[94.2,22046],[94.2,22113],[94.2,22179],[94.2,22246],[94.2,22313],[94.2,22380],[94.2,22446],[94.2,22513],[94.2,22579],[94.2,22646],[94.2,22712],[94.2,22779],[94.2,22846],[94.2,22912],[94.2,22979],[94.2,23046],[94.2,23112],[94.2,23179],[94.2,23246],[94.2,23312],[94.2,23379],[94.2,23445],[94.2,23512],[94.2,23579],[94.2,23645],[94.2,23712],[94.2,23778],[94.2,23845],[94.2,23912],[94.2,23978],[94.2,24045],[94.2,24111],[94.2,24178],[94.2,24244],[94.2,24311],[94.2,24378],[94.2,24444],[94.2,24511],[94.2,24577],[94.2,24644],[94.2,24711],[94.2,24777],[94.2,24844],[94.2,24911],[94.2,24977],[94.2,25044],[94.2,25111],[94.2,25177],[94.2,25244],[94.2,25311],[94.2,25377],[94.2,25443],[94.2,25510],[94.2,25576],[94.2,25643],[94.2,25710],[94.2,25776],[94.2,25843],[94.2,25910],[94.2,25976],[94.2,26043],[94.2,26110],[94.2,26176],[94.2,26243],[94.2,26309],[94.2,26376],[94.2,26442],[94.2,26509],[94.2,26576],[94.2,26642],[94.2,26709],[94.2,26776],[94.2,26842],[94.2,26909],[94.2,26975],[94.2,27042],[94.2,27109],[94.2,27175],[94.2,27242],[94.2,27308],[94.2,27375],[94.2,27442],[94.2,27508],[94.2,27575],[94.2,27642],[94.2,27708],[94,27775],[93.2,27842],[92.4,27909],[91.7,27975],[91.4,28042],[91.4,28110],[91.4,28174],[91.4,28241],[91.4,28307],[91.4,28374],[91.4,28441],[91.4,28507]]",1,0,636.0327,639.7622,91.35416985,1.0459,"[{""rating"":91.35416984558105,""responseTime"":1.0458999999762}]",space,3.132,,639.7623,Not at all,0,639.7673,,,[],,0,2,2,2,1,audio/Narrative7Situation2.wav,audio/Narrative8Situation2.wav,audio/Narrative5Situation2.wav,audio/Narrative6Situation2.wav,3,3,3,3,,,,,,,,,,,,,,,,,,,,,,,,,,,,,,,,,,,,,
,,,,,,60ef2700e476748689a999f7,2024-05-13_12h16.16.698,group3.1-3.2-social-tom,2023.2.2,Win32,30.03003003,65c5074098b851296ff0b7ed,6642375689b0d4b858742e43,,,,,,,,,,,,,,,,,,,,,,,,,,,,,639.7678,2,audio/Narrative6Situation3.wav,644.7905,,644.7906,657.4461,"[[89.2,1132],[82.6,1199],[78.2,1265],[52.5,1532],[49.3,1598],[47.8,1664],[47.3,1731],[47.1,1798],[47.1,1865],[47.1,1931],[47.1,1997],[47,2064],[47,2131],[47.4,2198],[47.8,2264],[47.4,2331],[42.2,2398],[15.2,2931],[14.8,2997],[14.7,3064],[14.5,3130],[13.6,3197],[12.9,3264],[11.7,3330],[10.7,3396],[10,3463],[9.7,3530],[9.7,3596],[9.6,3663],[9.3,3729],[8.9,3796],[8.5,3863],[8.2,3930],[7,3996],[6,4063],[5.5,4129],[5.1,4196],[4.9,4263],[4.9,4329],[4.9,4395],[4.9,4462],[4.9,4529],[4.9,4595],[4.9,4662],[4.9,4729],[4.9,4795],[4.9,4862],[4.9,4929],[4.9,4995],[4.9,5061],[4.9,5128],[4.9,5195],[4.9,5261],[4.9,5328],[4.9,5395],[4.9,5461],[4.9,5528],[4.9,5594],[4.9,5661],[4.9,5728],[4.9,5794],[4.9,5861],[4.9,5928],[4.9,5994],[4.9,6061],[4.9,6127],[4.9,6194],[4.9,6260],[4.9,6327],[4.9,6394],[4.9,6460],[4.9,6527],[4.9,6593],[4.9,6661],[5.9,6727],[21.7,6794],[30.7,6927],[33.6,6994],[37.4,7060],[46.9,7126],[52.8,7193],[67,7460],[70.2,7526],[76.5,7593],[79,7660],[80.2,7726],[82,7793],[83.5,7859],[84.3,7926],[85.8,7993],[88.9,8060],[90.3,8126],[90.9,8192],[91.3,8259],[91.3,8325],[91.3,8392],[91.3,8459],[91.3,8525],[91.3,8592],[91.3,8659],[91.3,8725],[91.3,8791],[91.3,8858],[91.3,8925],[91.3,8991],[91.3,9058],[91.8,9125],[92.1,9192],[92.2,9258],[92.8,9325],[93.1,9391],[93.3,9458],[93.4,9525],[94.3,9591],[95,9658],[95.9,9725],[97.2,9791],[97.8,9857],[98,9924],[98.4,9991],[98.6,10057],[98.6,10124],[98.6,10191],[98.6,10257],[98.6,10324],[98.6,10390],[98.6,10457],[98.6,10523],[98.6,10590],[98.6,10656],[98.6,10723],[98.6,10790],[98.6,10856],[98.6,10923],[98.6,10990],[98.6,11056],[98.6,11123],[98.6,11190],[98.6,11256],[98.6,11323],[98.6,11389],[98.6,11456],[98.6,11523],[98.6,11589],[98.6,11656],[98.6,11722],[98.6,11789],[98.6,11855],[98.6,11922],[98.6,11989],[98.6,12056],[98.6,12122],[98.6,12188],[98.6,12255],[98.6,12322],[98.6,12388],[98.6,12455],[98.6,12522],[98.6,12588],[98.6,12655]]",1,0,657.4464,659.4444,50.10416985,1.1758,"[{""rating"":50.10416984558106,""responseTime"":1.1758000000120319}]",space,1.3968,,659.4446,Not at all,0,659.4507,,,[],,0,3,3,3,1,audio/Narrative7Situation3.wav,audio/Narrative8Situation3.wav,audio/Narrative5Situation3.wav,audio/Narrative6Situation3.wav,8,4,3,5,,,,,,,,,,,,,,,,,,,,,,,,,,,,,,,,,,,,,
,,,,,,60ef2700e476748689a999f7,2024-05-13_12h16.16.698,group3.1-3.2-social-tom,2023.2.2,Win32,30.03003003,65c5074098b851296ff0b7ed,6642375689b0d4b858742e43,,,,,,,,,,,,,,,,,,,,,,,,,,,,,659.4513,2,audio/Narrative6Situation4.wav,661.476,,661.476,674.1319,"[[48.6,1065],[46.8,1132],[45.2,1199],[44.1,1266],[43.5,1332],[43.3,1398],[43.2,1465],[43.2,1531],[43.2,1598],[43.2,1664],[43.2,1731],[43.2,1798],[43.2,1864],[34.1,1931],[28.1,1998],[25.1,2065],[22.8,2131],[21.4,2198],[19.7,2265],[18.4,2331],[13,2397],[10.7,2464],[10.2,2531],[10.3,2597],[10.2,2664],[9.3,2730],[7.3,2797],[6,2864],[4.9,2931],[4.5,2997],[4.2,3064],[4.2,3130],[4.4,3197],[4.4,3263],[4.4,3330],[4.4,3396],[4.4,3463],[4.4,3530],[4.4,3596],[4.4,3663],[4.4,3729],[4.4,3796],[4.4,3863],[4.4,3929],[4.7,3996],[5.6,4063],[6.6,4129],[7.5,4196],[8.1,4263],[8.3,4329],[8.4,4395],[8.8,4463],[9.6,4529],[10.9,4596],[11.9,4662],[13.3,4729],[15.1,4796],[16.8,4862],[18.3,4929],[20.2,4995],[21.3,5062],[22.1,5128],[23.1,5196],[23.6,5261],[23.8,5328],[23.8,5395],[24.4,5461],[25.2,5528],[26.3,5595],[27.2,5661],[28.3,5728],[29.3,5795],[30.8,5861],[33.9,5928],[35.2,5994],[36.8,6061],[39.1,6127],[42.4,6195],[43.8,6261],[44.1,6327],[44.4,6395],[44.4,6460],[46.7,6527],[57.4,6594],[59.3,6661],[59.7,6727],[59.7,6793],[59.7,6860],[59.7,6926],[59.7,6993],[59.8,7060],[53.4,7127],[45.9,7193],[43.4,7260],[38.3,7327],[36.4,7393],[32.4,7460],[16.9,8192],[17.6,8259],[17.9,8326],[17.9,8393],[17.9,8459],[17.9,8526],[17.7,8592],[16,8659],[12.6,8726],[11.3,8792],[10.4,8859],[9.8,8925],[8.9,8992],[7.3,9058],[5.6,9125],[4.5,9192],[3.5,9259],[2.9,9325],[2.7,9391],[2.3,9458],[2,9525],[2,9591],[2,9657],[2,9724],[2,9790],[2,9857],[2,9924],[2,9990],[2,10057],[2,10124],[2,10191],[2,10257],[2.1,10324],[2.4,10391],[2.8,10457],[3.4,10524],[5.4,10591],[8.5,10657],[9.6,10724],[11,10790],[13.2,10857],[15.4,10923],[17.1,10991],[18.1,11057],[18.6,11123],[19.7,11190],[20.2,11256],[21,11323],[21.8,11390],[22.2,11456],[22.4,11523],[23.9,11590],[24.9,11656],[25.2,11723],[25.2,11789],[25.3,11856],[25.3,11923],[25.3,11989],[25.3,12056],[25.3,12122],[25.3,12189],[25.2,12256],[24.8,12323],[24.2,12389],[23.5,12455],[23.3,12522],[23.2,12589],[23.2,12655]]",1,0,674.1323,678.7275,22.8125,1.3598,"[{""rating"":22.812500000000004,""responseTime"":1.3598000000117736}]",space,4.0243,,678.7275,Not at all,0,678.7575,,,[],,0,4,4,4,1,audio/Narrative7Situation4.wav,audio/Narrative8Situation4.wav,audio/Narrative5Situation4.wav,audio/Narrative6Situation4.wav,3,3,1,2,,,,,,,,,,,,,,,,,,,,,,,,,,,,,,,,,,,,,
,,,,,,60ef2700e476748689a999f7,2024-05-13_12h16.16.698,group3.1-3.2-social-tom,2023.2.2,Win32,30.03003003,65c5074098b851296ff0b7ed,6642375689b0d4b858742e43,,,,,,,,,,,,,,,,,,,,,,,,,,,,,678.758,2,audio/Narrative6Situation5.wav,680.7591,,680.7592,688.7525,"[[23.8,1065],[31.4,1132],[33.8,1199],[34.4,1265],[34.7,1332],[34.7,1398],[35,1465],[43.5,1532],[47.7,1598],[49.1,1664],[50.6,1732],[54,1798],[55,1865],[55.3,1932],[55.1,1998],[54.2,2065],[50.3,2131],[48.3,2198],[46.6,2264],[46,2331],[45.7,2397],[45.7,2464],[45.8,2531],[45.9,2597],[45.9,2664],[46.3,2730],[46.8,2798],[47.8,2864],[48.1,2930],[48.1,2997],[48.1,3063],[48.1,3130],[48.1,3197],[48.1,3263],[48.1,3330],[48.1,3396],[48.1,3463],[48.1,3529],[48.1,3596],[48.4,3663],[49,3729],[49.7,3796],[50,3863],[50,3929],[50,3996],[50,4063],[50.5,4129],[51.3,4196],[51.6,4262],[51.6,4330],[51.6,4395],[51.6,4463],[51.4,4529],[51.4,4595],[51.4,4662],[51.4,4729],[51.4,4795],[51.4,4861],[51.4,4928],[51.4,4995],[51.4,5062],[51.4,5128],[51.4,5195],[51.4,5261],[51.4,5328],[51.4,5394],[51.4,5461],[51.4,5528],[51.4,5594],[51.4,5661],[51.4,5728],[51.4,5794],[51.4,5861],[51.4,5927],[51.4,5994],[51.4,6061],[51.4,6127],[51.4,6194],[51.4,6260],[51.4,6327],[51.4,6394],[51.4,6460],[51.4,6527],[51.4,6593],[51.4,6660],[51.4,6727],[51.4,6793],[51.4,6860],[51.4,6927],[51.4,6993],[51.5,7060],[51.5,7126],[51.5,7193],[51.4,7260],[50.7,7326],[50.4,7393],[50.1,7460],[50.1,7526],[50,7593],[49.9,7660],[49.5,7726],[49.5,7793],[49.5,7859],[49.5,7926],[49.5,7993]]",1,0,688.7529,693.8476,34.47916985,2.9363,"[{""rating"":25.937500000000004,""responseTime"":1.5703000000119118},{""rating"":34.479169845581055,""responseTime"":2.9363000000118973}]",space,4.5213,,693.8477,Definitely yes,100,693.8569,,,[],,0,5,5,5,1,audio/Narrative7Situation5.wav,audio/Narrative8Situation5.wav,audio/Narrative5Situation5.wav,audio/Narrative6Situation5.wav,5,2,5,2,,,,,,,,,,,,,,,,,,,,,,,,,,,,,,,,,,,,,
,,,,,,60ef2700e476748689a999f7,2024-05-13_12h16.16.698,group3.1-3.2-social-tom,2023.2.2,Win32,30.03003003,65c5074098b851296ff0b7ed,6642375689b0d4b858742e43,,,,,,,,,,,,,,,,,,,,,,,,,,,,,693.8574,2,audio/Narrative6Situation6.wav,695.8793,,695.8794,707.0032,"[[37.2,1065],[38.6,1132],[39.9,1198],[41.6,1265],[42.8,1332],[43.6,1398],[44.1,1465],[44.3,1532],[44.3,1598],[44.3,1664],[44.3,1731],[44.3,1798],[44.3,1864],[44.3,1931],[44.3,1997],[44.3,2064],[44.3,2131],[44.3,2197],[44.3,2264],[44.3,2331],[44.3,2397],[44.3,2464],[44.3,2531],[44.3,2597],[44.3,2663],[44.3,2730],[45,2798],[47.8,2864],[51.1,2931],[55.3,2997],[57.8,3064],[59.6,3130],[60.6,3197],[61.9,3263],[63.3,3330],[65.5,3397],[67.8,3463],[69.5,3530],[70.6,3596],[71.1,3663],[71.3,3729],[71.3,3796],[71.3,3863],[71.3,3929],[71.3,3996],[71.3,4062],[71.3,4129],[71.3,4196],[71.3,4262],[71.3,4329],[71.3,4395],[71.3,4462],[71.3,4529],[71.3,4595],[71.3,4662],[71.3,4729],[71.3,4795],[71.3,4862],[71.3,4928],[71.3,4995],[71.3,5062],[71.3,5128],[71.3,5195],[71.3,5261],[71.3,5328],[71.3,5394],[71.3,5461],[71.3,5528],[71.3,5594],[71.3,5661],[71.3,5727],[71.3,5794],[71.3,5861],[71.3,5927],[71.3,5994],[71.3,6061],[71.3,6131],[71.3,6194],[71.3,6261],[71.3,6327],[71.3,6394],[71.3,6461],[71.3,6527],[71.3,6593],[71.3,6660],[71.3,6727],[71.3,6793],[71.3,6860],[72.7,6928],[73.3,6993],[73.8,7060],[74.1,7127],[74.3,7193],[74.3,7260],[74.3,7326],[74.3,7393],[74.3,7460],[74.3,7526],[74,7593],[73.6,7660],[73.5,7726],[73.5,7792],[73.5,7859],[73.5,7926],[73.5,7992],[73.5,8059],[73.5,8125],[73.8,8193],[74.3,8259],[74.3,8325],[74.3,8392],[74.3,8459],[74.3,8525],[74.3,8592],[74.3,8658],[74.3,8725],[74.3,8792],[74.3,8858],[74.3,8925],[74.3,8991],[74.3,9058],[74.3,9125],[74.3,9192],[74.3,9258],[74.3,9324],[74.3,9391],[74.3,9457],[74.3,9524],[74.3,9591],[74.3,9657],[74.3,9724],[74.3,9791],[74.3,9857],[74.3,9924],[74.3,9991],[74.3,10057],[74.3,10124],[74.3,10191],[74.3,10257],[74.3,10323],[74.3,10390],[74.3,10457],[74.3,10523],[74.3,10590],[74.3,10657],[74.3,10723],[74.3,10790],[74.3,10856],[74.3,10924],[74.3,10990],[74.3,11056],[74.3,11123]]",1,0,707.0035,711.2329,52.8125,3.1301,"[{""rating"":74.27083969116211,""responseTime"":0.9379999999998745},{""rating"":64.0625,""responseTime"":2.169499999999971},{""rating"":52.81249999999999,""responseTime"":3.130100000023731}]",space,3.6414,,711.233,Partially,50,711.2414,,,[],,0,6,6,6,1,audio/Narrative7Situation6.wav,audio/Narrative8Situation6.wav,audio/Narrative5Situation6.wav,audio/Narrative6Situation6.wav,3,2,3,2,,,,,,,,,,,,,,,,,,,,,,,,,,,,,,,,,,,,,
,,,,,,60ef2700e476748689a999f7,2024-05-13_12h16.16.698,group3.1-3.2-social-tom,2023.2.2,Win32,30.03003003,65c5074098b851296ff0b7ed,6642375689b0d4b858742e43,,,,,,,,,,,,,,,,,,,,,,,,,,,,,711.242,2,audio/Narrative6Situation7.wav,716.2613,,716.2614,741.1741,"[[47.9,66],[48.8,133],[49.3,200],[50,266],[50.3,332],[50.9,399],[50.9,466],[50.9,532],[50.9,599],[50.9,665],[50.9,732],[44.3,799],[42.7,865],[42.3,932],[42.3,998],[42,1065],[41.5,1132],[41,1199],[40.5,1266],[40,1332],[39.6,1398],[39.6,1465],[39.6,1531],[39.6,1598],[39.6,1664],[39.6,1731],[40,1798],[41.8,1865],[44.6,1931],[45.6,1998],[46.3,2065],[46.8,2131],[49.5,2198],[50.9,2265],[51.6,2331],[51.9,2397],[51.9,2464],[51.9,2530],[51.9,2597],[51.9,2664],[51.9,2730],[51.9,2797],[51.9,2863],[51.9,2930],[51.5,2997],[51.1,3064],[51,3130],[51,3197],[50.7,3263],[50.4,3330],[50.2,3397],[50.2,3463],[50.2,3530],[50.1,3596],[49.3,3663],[48.9,3730],[48.5,3796],[48.5,3863],[47.5,3930],[42.8,3996],[37.9,4063],[31.4,4129],[25.6,4196],[20,4263],[10.5,4330],[6.5,4396],[5.7,4463],[5.2,4529],[4.9,4596],[4.5,4662],[4,4729],[3.5,4796],[3.2,4862],[2.9,4929],[2.7,4995],[2.7,5061],[2.7,5128],[2.7,5195],[2.7,5261],[2.7,5328],[2.7,5395],[2.7,5461],[2.7,5528],[2.7,5594],[2.7,5661],[2.7,5728],[2.7,5794],[2.7,5861],[2.7,5928],[2.7,5994],[2.7,6061],[2.7,6127],[2.7,6194],[2.7,6260],[2.7,6327],[2.7,6394],[2.7,6461],[2.7,6527],[2.7,6593],[2.7,6660],[2.7,6727],[2.7,6793],[2.7,6860],[2.7,6927],[2.7,6993],[2.7,7060],[2.7,7126],[2.7,7193],[2.7,7260],[2.7,7326],[2.7,7393],[2.7,7460],[2.7,7526],[2.7,7593],[2.7,7660],[2.7,7726],[2.7,7793],[2.7,7859],[2.7,7926],[2.7,7992],[2.7,8059],[2.7,8126],[2.7,8192],[2.7,8259],[2.7,8325],[2.7,8392],[2.7,8459],[2.7,8525],[2.7,8592],[2.7,8659],[2.7,8725],[2.7,8792],[2.7,8858],[2.7,8925],[2.7,8992],[2.7,9058],[2.7,9125],[28.3,9195],[38.2,9258],[39.3,9325],[40.1,9392],[58.1,9592],[60.3,9659],[62.4,9725],[66.8,9791],[70,9858],[71.6,9925],[73,9991],[75,10057],[77.5,10124],[80.1,10192],[83.9,10257],[86.5,10324],[87.8,10391],[88.6,10458],[89.4,10524],[89.9,10591],[90,10657],[90,10723],[90,10790],[90,10857],[90,10923],[90,10990],[90,11056],[90,11123],[90,11190],[90,11256],[90,11323],[90,11390],[90,11457],[90,11523],[90,11589],[90,11656],[90,11722],[90,11789],[90,11856],[90,11922],[90,11989],[90,12056],[90,12122],[90,12189],[90,12255],[90,12322],[90,12389],[90,12455],[90,12522],[90,12589],[90,12655],[90,12722],[90,12788],[90,12855],[90,12922],[90,12988],[90,13055],[90,13122],[90,13188],[90,13254],[90,13321],[90,13388],[90,13454],[90,13521],[90,13588],[90,13654],[90,13721],[90,13787],[90,13854],[90,13921],[90,13987],[90,14054],[90,14121],[90,14187],[90,14254],[90,14321],[90,14387],[90,14453],[90,14520],[90,14586],[90,14653],[90,14720],[90,14787],[90,14853],[90,14920],[90,14987],[90,15053],[90,15120],[90,15186],[90,15253],[90,15319],[90,15386],[90,15452],[90,15519],[90,15586],[90,15652],[90,15719],[90,15786],[90,15852],[90,15919],[90,15985],[90,16052],[90,16119],[90,16185],[90,16252],[90,16319],[90,16385],[90,16452],[90,16519],[90,16585],[90,16652],[90,16718],[90,16785],[90,16852],[90,16918],[90,16985],[90,17052],[90,17118],[90,17184],[90,17251],[90,17318],[90,17384],[90,17451],[90,17517],[90,17584],[90,17651],[90,17717],[90,17784],[90,17851],[90,17917],[90,17984],[90,18051],[90,18117],[90,18183],[90,18251],[90,18317],[90,18383],[90,18450],[90,18517],[90,18583],[90,18650],[90,18717],[90,18783],[90,18850],[90,18916],[90,18983],[90,19050],[90,19116],[90,19183],[90,19250],[90,19316],[90,19382],[90,19449],[90,19516],[90,19582],[90,19649],[90,19716],[90,19782],[90,19849],[90,19915],[90,19982],[90,20049],[90,20115],[90,20182],[90,20249],[90,20315],[90,20382],[90,20448],[90,20515],[90,20581],[90,20648],[90,20715],[90,20781],[90,20848],[90,20914],[90,20981],[90,21048],[90,21114],[90,21181],[90,21248],[90,21314],[90,21381],[90,21447],[90,21514],[90,21581],[90,21647],[90,21714],[90,21781],[90,21847],[90,21913],[90,21980],[90,22047],[90,22113],[90,22180],[90,22247],[90,22313],[90,22380],[90,22447],[90,22513],[90,22579],[90,22646],[90,22713],[90,22780],[90,22846],[90,22913],[90,22979],[90,23046],[90,23113],[90,23179],[90,23246],[90,23312],[90,23379],[90,23446],[90,23512],[90,23579],[90,23645],[90,23712],[90,23779],[90,23845],[90,23912],[90,23979],[89.8,24050],[89.3,24112],[89,24179],[89,24245],[88.8,24313],[88.2,24378],[87.6,24445],[87.1,24512],[87.1,24578],[86.8,24645],[86.7,24711],[86.7,24778],[86.7,24844],[86.7,24911]]",1,0,741.1748,743.4712,85.3125,1.163,"[{""rating"":85.3125,""responseTime"":1.163000000000011}]",space,1.7,,743.4713,Definitely yes,100,743.4806,,,[],,0,7,7,7,1,audio/Narrative7Situation7.wav,audio/Narrative8Situation7.wav,audio/Narrative5Situation7.wav,audio/Narrative6Situation7.wav,5,3,4,5,,,,,,,,,,,,,,,,,,,,,,,,,,,,,,,,,,,,,
,,,,,,60ef2700e476748689a999f7,2024-05-13_12h16.16.698,group3.1-3.2-social-tom,2023.2.2,Win32,30.03003003,65c5074098b851296ff0b7ed,6642375689b0d4b858742e43,,,,,,,,,,,,,,,,,,,,,,,,,,,,,743.4813,2,audio/Narrative6Situation8.wav,748.4999,,748.5,755.361,"[[78.2,133],[77,200],[76,266],[75.7,333],[75.6,399],[75.4,466],[75.1,533],[74.9,599],[74.6,666],[73.2,732],[70.1,799],[63.3,866],[60.1,933],[58.2,999],[57.9,1066],[57.4,1132],[56.1,1199],[52.5,1265],[48.5,1332],[39.9,1398],[29.1,1465],[25.3,1532],[24.3,1598],[23.8,1665],[22.4,1732],[19.1,1798],[17.4,1865],[16.7,1932],[16.5,1998],[16.6,2065],[16.9,2132],[17.2,2198],[17.5,2265],[19.1,2331],[20,2397],[20.5,2465],[20.8,2531],[20.9,2597],[20.9,2664],[21.1,2731],[21.3,2797],[21.3,2863],[21.4,2931],[21,2997],[20.4,3064],[20.1,3131],[20.1,3196],[20.1,3263],[20.1,3330],[20.1,3396],[20.1,3463],[20.1,3529],[20.1,3596],[20.1,3663],[20.1,3730],[17.7,3797],[13.9,3863],[12.4,3930],[10.7,3996],[8.6,4063],[6.9,4130],[5.7,4196],[4.5,4263],[3.5,4330],[3,4396],[2.9,4462],[2.9,4529],[2.9,4595],[2.9,4662],[2.9,4729],[2.9,4795],[2.9,4862],[2.9,4928],[2.9,4995],[2.9,5062],[2.9,5128],[2.9,5195],[2.9,5262],[2.9,5328],[2.9,5395],[2.9,5462],[2.9,5528],[2.9,5594],[2.9,5661],[2.9,5727],[2.9,5794],[2.9,5861],[2.9,5927],[2.9,5994],[2.9,6061],[2.9,6127],[2.9,6194],[2.9,6261],[2.9,6327],[2.9,6394],[2.9,6461],[2.9,6527],[2.9,6594],[2.9,6660],[2.9,6727],[2.9,6793],[2.9,6860]]",1,0,755.3613,757.8251,0.208334923,1.3038,"[{""rating"":0.20833492279052623,""responseTime"":1.303800000011961}]",space,1.8655,,757.8253,Not at all,0,757.834,,,[],,0,8,8,8,1,audio/Narrative7Situation8.wav,audio/Narrative8Situation8.wav,audio/Narrative5Situation8.wav,audio/Narrative6Situation8.wav,2,3,3,5,,,,,,,,,,,,,,,,,,,,,,,,,,,,,,,,,,,,,
,,,,,,60ef2700e476748689a999f7,2024-05-13_12h16.16.698,group3.1-3.2-social-tom,2023.2.2,Win32,30.03003003,65c5074098b851296ff0b7ed,6642375689b0d4b858742e43,,,,,,,,,,,,,,,,,,,,,,,,,,,,,757.8347,2,audio/Narrative6Situation9.wav,761.8549,,761.855,771.8466,"[[4.2,1332],[5.3,1399],[6.1,1465],[6.5,1532],[6.5,1598],[6.5,1665],[6.5,1731],[6.5,1798],[6.5,1864],[6.5,1931],[6.5,1998],[6.5,2064],[6.5,2131],[6.5,2198],[6.5,2264],[6.5,2331],[6.5,2397],[6.5,2464],[6.5,2530],[6.5,2597],[6.5,2664],[6.5,2730],[6.5,2797],[6.5,2863],[6.5,2930],[6.5,2997],[6.5,3063],[6.5,3130],[6.5,3196],[6.5,3263],[6.5,3330],[6.5,3397],[6.5,3463],[6.5,3530],[6.5,3596],[6.5,3663],[6.5,3729],[6.5,3796],[6.5,3863],[6.5,3929],[6.5,3996],[6.5,4062],[6.5,4129],[5.1,4196],[3.9,4263],[3.3,4329],[3.2,4396],[3,4462],[3,4528],[2.6,4595],[2.1,4662],[2.1,4728],[2.1,4796],[2.1,4862],[2.1,4928],[2.1,4995],[2.1,5061],[2.1,5129],[2.1,5195],[2.1,5261],[2.1,5329],[2.1,5395],[2.1,5461],[2.1,5528],[2.1,5594],[2.1,5661],[2.1,5728],[2.1,5794],[2.1,5861],[2.1,5928],[2.1,5994],[2.1,6061],[2.1,6128],[2.1,6194],[2.1,6260],[2.1,6327],[2.1,6394],[2.1,6460],[2.1,6527],[2.1,6594],[2.1,6660],[2.1,6727],[2.1,6794],[2.1,6860],[2.1,6927],[2.1,6993],[2.1,7060],[2.1,7126],[2.1,7193],[2.1,7259],[2.1,7326],[2.1,7393],[2.1,7459],[2.1,7526],[2.1,7593],[2.1,7659],[2.1,7726],[2.1,7793],[2.1,7859],[2.1,7926],[2.1,7992],[2.1,8059],[2.1,8126],[2.1,8192],[2.1,8259],[2.1,8326],[2.1,8392],[2.1,8459],[2.1,8525],[2.1,8592],[2.1,8659],[2.1,8725],[2.1,8791],[2.1,8858],[2.1,8925],[2.1,8991],[2.1,9058],[2.1,9125],[2.1,9191],[2.1,9258],[2.1,9325],[2.1,9391],[2.1,9458],[2.1,9525],[2.1,9591],[2.1,9658],[2.1,9724],[2.1,9791],[2.1,9857],[1.4,9928],[1,9991]]",1,0,771.8469,773.6779,0.729169846,0.6509,"[{""rating"":0.7291698455810569,""responseTime"":0.6508999999762182}]",space,1.2348,,773.678,Not at all,0,773.6824,,,[],,0,9,9,9,1,audio/Narrative7Situation9.wav,audio/Narrative8Situation9.wav,audio/Narrative5Situation9.wav,audio/Narrative6Situation9.wav,2,3,3,4,,,,,,,,,,,,,,,,,,,,,,,,,,,,,,,,,,,,,
