exp_question,consent.started,consent.stopped,consentResponse.keys,consentResponse.rt,consentResponse.duration,participantID,date,expName,psychopyVersion,OS,frameRate,STUDY_ID,SESSION_ID,opening1.started,opening1.stopped,keyEndingOpening1.keys,keyEndingOpening1.rt,keyEndingOpening1.duration,volumeAdjust.started,volumeAdjust.stopped,endingAdjust.keys,endingAdjust.rt,endingAdjust.duration,opening2.started,opening2.stopped,keyEndingOpening.keys,keyEndingOpening.rt,keyEndingOpening.duration,mouse.x,mouse.y,mouse.leftButton,mouse.midButton,mouse.rightButton,mouse.time,instructionLoop.thisRepN,instructionLoop.thisTrialN,instructionLoop.thisN,instructionLoop.thisIndex,instructionLoop.ran,readyForAudio.started,readyForAudio.stopped,fixation.started,run,audio_played,fixation.stopped,endPractice.keys,audioPre.started,audioPre.stopped,continuousResponses_audio,continuousSlider.response,continuousSlider.rt,intRating.started,intRating.stopped,intQuestionSlider.response,intQuestionSlider.rt,intQuestionSlider.history,confirmResponse.keys,confirmResponse.rt,confirmResponse.duration,catchQuestion.started,catch_label,catch_value,catchQuestion.stopped,catchQuestionSlider.response,catchQuestionSlider.rt,catchQuestionSlider.history,confirmResponse_2.keys,audioRunLoop.thisRepN,audioRunLoop.thisTrialN,audioRunLoop.thisN,audioRunLoop.thisIndex,audioRunLoop.ran,conditions1_1,conditions2_1,conditions1_2,conditions2_2,dur1_1,dur2_1,dur1_2,dur2_2,endPractice.rt,endPractice.duration,confirmResponse_2.rt,confirmResponse_2.duration,runIntervalBreak.started,runIntervalBreak.stopped,endingBreakKey.keys,endingBreakKey.rt,endingBreakKey.duration,connection.started,connection.stopped,connectionEnding.keys,connectionEnding.rt,connectionEnding.duration,readyForText.started,readyForText.stopped,textPre.started,run_dup,textPre.stopped,continuousResponses_text,textRunLoop.thisRepN,textRunLoop.thisTrialN,textRunLoop.thisN,textRunLoop.thisIndex,textRunLoop.ran,text1_1,text1_2,text2_1,text2_2,runBreakText.started,runBreakText.stopped,endingBreakKey_2.keys,endingBreakKey_2.rt,endingBreakKey_2.duration,ending.started,ending.stopped,endingEnding.keys,endingEnding.rt,endingEnding.duration
social,0.001,9.081,y,8.733,,60fb5abacf212cc0bc18199f,2024-02-08_16h03.17.277,group3.1-3.2-social-tom,2023.2.2,MacIntel,58.82352941,65c5074098b851296ff0b7ed,65c5418497964a76ccf45aff,,,,,,,,,,,,,,,,,,,,,,,,,,,,,,,,,,,,,,,,,,,,,,,,,,,,,,,,,,,,,,,,,,,,,,,,,,,,,,,,,,,,,,,,,,,,,,,,,,,,,,,,,,
,,,,,,60fb5abacf212cc0bc18199f,2024-02-08_16h03.17.277,group3.1-3.2-social-tom,2023.2.2,MacIntel,58.82352941,65c5074098b851296ff0b7ed,65c5418497964a76ccf45aff,9.081,12.214,space,3.101,,,,,,,,,,,,,,,,,,,,,,,,,,,,,,,,,,,,,,,,,,,,,,,,,,,,,,,,,,,,,,,,,,,,,,,,,,,,,,,,,,,,,,,,,,,,,,,,,,,,,,
,,,,,,60fb5abacf212cc0bc18199f,2024-02-08_16h03.17.277,group3.1-3.2-social-tom,2023.2.2,MacIntel,58.82352941,65c5074098b851296ff0b7ed,65c5418497964a76ccf45aff,,,,,,12.215,22.632,space,10.083,,,,,,,,,,,,,,,,,,,,,,,,,,,,,,,,,,,,,,,,,,,,,,,,,,,,,,,,,,,,,,,,,,,,,,,,,,,,,,,,,,,,,,,,,,,,,,,,,
,,,,,,60fb5abacf212cc0bc18199f,2024-02-08_16h03.17.277,group3.1-3.2-social-tom,2023.2.2,MacIntel,58.82352941,65c5074098b851296ff0b7ed,65c5418497964a76ccf45aff,,,,,,,,,,,22.643,30.35,space,7.681,,[],[],[],[],[],[],0,0,0,0,1,,,,,,,,,,,,,,,,,,,,,,,,,,,,,,,,,,,,,,,,,,,,,,,,,,,,,,,,,,,,,,,,,,,,,,,,,,,,,,,,
,,,,,,60fb5abacf212cc0bc18199f,2024-02-08_16h03.17.277,group3.1-3.2-social-tom,2023.2.2,MacIntel,58.82352941,65c5074098b851296ff0b7ed,65c5418497964a76ccf45aff,,,,,,,,,,,30.351,45.766,space,15.309,,[],[],[],[],[],[],1,0,1,0,1,,,,,,,,,,,,,,,,,,,,,,,,,,,,,,,,,,,,,,,,,,,,,,,,,,,,,,,,,,,,,,,,,,,,,,,,,,,,,,,,
,,,,,,60fb5abacf212cc0bc18199f,2024-02-08_16h03.17.277,group3.1-3.2-social-tom,2023.2.2,MacIntel,58.82352941,65c5074098b851296ff0b7ed,65c5418497964a76ccf45aff,,,,,,,,,,,45.767,61.851,space,16.032,,[],[],[],[],[],[],2,0,2,0,1,,,,,,,,,,,,,,,,,,,,,,,,,,,,,,,,,,,,,,,,,,,,,,,,,,,,,,,,,,,,,,,,,,,,,,,,,,,,,,,,
,,,,,,60fb5abacf212cc0bc18199f,2024-02-08_16h03.17.277,group3.1-3.2-social-tom,2023.2.2,MacIntel,58.82352941,65c5074098b851296ff0b7ed,65c5418497964a76ccf45aff,,,,,,,,,,,61.852,77.268,space,15.381,,[],[],[],[],[],[],3,0,3,0,1,,,,,,,,,,,,,,,,,,,,,,,,,,,,,,,,,,,,,,,,,,,,,,,,,,,,,,,,,,,,,,,,,,,,,,,,,,,,,,,,
,,,,,,60fb5abacf212cc0bc18199f,2024-02-08_16h03.17.277,group3.1-3.2-social-tom,2023.2.2,MacIntel,58.82352941,65c5074098b851296ff0b7ed,65c5418497964a76ccf45aff,,,,,,,,,,,77.269,89.002,space,11.702,,[],[],[],[],[],[],4,0,4,0,1,,,,,,,,,,,,,,,,,,,,,,,,,,,,,,,,,,,,,,,,,,,,,,,,,,,,,,,,,,,,,,,,,,,,,,,,,,,,,,,,
,,,,,,60fb5abacf212cc0bc18199f,2024-02-08_16h03.17.277,group3.1-3.2-social-tom,2023.2.2,MacIntel,58.82352941,65c5074098b851296ff0b7ed,65c5418497964a76ccf45aff,,,,,,,,,,,,,,,,,,,,,,,,,,,89.009,91.586,91.614,1,audio/Narrative13Situation2.wav,93.62,,93.62,123.372,"[[999,1],[999,97],[999,182],[999,266],[999,331],[999,414],[999,498],[999,581],[999,664],[999,748],[999,831],[999,915],[999,998],[999,1081],[999,1165],[999,1248],[999,1331],[999,1414],[999,1498],[999,1581],[999,1664],[999,1748],[999,1831],[999,1914],[999,1998],[999,2081],[999,2164],[999,2248],[999,2331],[999,2415],[999,2498],[999,2581],[999,2665],[999,2748],[999,2831],[999,2915],[999,2998],[999,3081],[999,3165],[999,3248],[999,3331],[999,3415],[999,3498],[999,3581],[999,3665],[999,3748],[999,3831],[999,3915],[89.2,3998],[48.6,4082],[25.8,4581],[17.1,4665],[14.2,4748],[11.5,4831],[9.3,4915],[7.8,4998],[7.2,5081],[7.2,5165],[12.6,5248],[25.4,5331],[32.8,5415],[37.9,5498],[38.3,5581],[38.3,5665],[40,5748],[40.6,5831],[40.6,5915],[49.6,5998],[58.9,6082],[59.9,6165],[59.9,6248],[59.4,6331],[59,6415],[59,6498],[58.9,6581],[54,6665],[49.6,6748],[46.3,6831],[45.8,6915],[45.6,6998],[45.1,7081],[45,7165],[45,7248],[45,7331],[45,7415],[45,7498],[45,7582],[45,7665],[45,7748],[45,7832],[45,7915],[45.8,7998],[48.2,8081],[50.1,8165],[48.6,8248],[57.5,8331],[70.7,8415],[74,8498],[78.1,8582],[84,8665],[89.4,8748],[91.7,8831],[91.8,8915],[91.8,9000],[93.6,9084],[96.1,9165],[96.1,9248],[96.1,9332],[96.1,9415],[96.1,9498],[96.1,9582],[96.9,9665],[96.9,9748],[97.1,9832],[97.1,9915],[97.1,9998],[97.1,10081],[97.1,10167],[97.1,10248],[97.1,10332],[97.1,10415],[97.1,10498],[97.1,10582],[98.5,10665],[99.6,10750],[100,10832],[100,10915],[100,11000],[100,11081],[100,11165],[100,11248],[100,11332],[100,11415],[100,11498],[100,11582],[100,11665],[100,11748],[100,11831],[100,11917],[100,11998],[100,12081],[100,12165],[100,12250],[100,12332],[100,12415],[100,12500],[100,12582],[100,12665],[100,12750],[100,12834],[100,12915],[100,12998],[100,13081],[100,13165],[100,13248],[100,13334],[100,13415],[100,13498],[100,13581],[100,13667],[100,13748],[100,13832],[100,13915],[100,13998],[100,14082],[100,14165],[100,14250],[100,14331],[100,14415],[100,14500],[100,14582],[100,14665],[100,14748],[100,14831],[100,14915],[100,14998],[100,15082],[100,15168],[100,15248],[100,15332],[100,15417],[100,15498],[100,15582],[100,15667],[100,15750],[100,15832],[100,15915],[100,16000],[100,16082],[100,16165],[100,16250],[100,16332],[100,16415],[100,16498],[100,16584],[100,16665],[100,16750],[100,16833],[100,16915],[100,17000],[100,17083],[100,17165],[100,17250],[87.8,17333],[61.9,17417],[59,17498],[59,17583],[59,17665],[19.3,17750],[7.4,17833],[7.2,17915],[7.6,18000],[5,18083],[3.6,18165],[3.1,18250],[2.9,18333],[2.9,18415],[2.9,18498],[2.2,18584],[0.1,21251],[0.3,21333],[0.4,21415],[0.8,21500],[1,21583],[1.1,21667],[1.1,21750],[1.1,21833],[1.9,21917],[3.2,22000],[7.5,22084],[13.6,22168],[18.1,22250],[22.8,22334],[27.1,22417],[33.1,22501],[36.7,22583],[37.8,22667],[39.2,22751],[41.5,22834],[41.5,22917],[41.5,23000],[41.5,23083],[44.6,23165],[49,23251],[50.6,23334],[50.8,23417],[51.7,23500],[51.9,23584],[49.4,23667],[47.1,23750],[45,23834],[44.9,23915],[44.7,24000],[35.1,24084],[36.7,24417],[36.8,24499],[36.8,24583],[36.8,24666],[36.8,24749],[36.8,24833],[36.8,24916],[36.8,25000],[36.8,25083],[36.8,25166],[38.1,25250],[87.6,26084],[86,26166],[81.9,26250],[76.3,26333],[75,26417],[69.6,26499],[61.8,26583],[57.2,26667],[54,26750],[52.4,26834],[51.9,26917],[51.9,27000],[51.9,27084],[52.4,27167],[52.5,27251],[52.8,27333],[53.1,27417],[53.2,27500],[53.2,27584],[53.2,27667],[53.2,27750],[53.2,27834],[53.2,27918],[53.3,28000],[53.3,28083],[52.5,28168],[52.2,28250],[52.2,28333],[52.2,28417],[52.2,28500],[52.2,28584],[52.2,28666],[52.2,28751],[53.1,28834],[54.3,28917],[55.1,29001],[55.4,29083],[55.4,29167],[55.4,29251],[55.4,29334],[55.7,29417],[76.5,29500],[84.6,29584],[84.7,29654],[84.7,29734]]",1,0,123.372,130.439,11.25,6.522,"[{""rating"":11.249999999999998,""responseTime"":5.805000000000007},{""rating"":11.249999999999998,""responseTime"":6.521999999999991}]",space,6.521,,130.44,Definitely yes,100,130.447,,,[],,0,0,0,0,1,audio/Narrative13Situation2.wav,audio/Narrative13Situation2.wav,audio/Narrative13Situation2.wav,audio/Narrative13Situation2.wav,2,2,2,2,,,,,,,,,,,,,,,,,,,,,,,,,,,,,,,,,,,,,,,
,,,,,,60fb5abacf212cc0bc18199f,2024-02-08_16h03.17.277,group3.1-3.2-social-tom,2023.2.2,MacIntel,58.82352941,65c5074098b851296ff0b7ed,65c5418497964a76ccf45aff,,,,,,,,,,,,,,,,,,,,,,,,,,,,,130.447,1,audio/Narrative8Situation1.wav,132.171,space,132.172,148.106,"[[12.2,1314],[14.3,1400],[17.8,1483],[19.4,1566],[13.5,1650],[6.1,1731],[3.3,1816],[3.1,1899],[3.1,1983],[3.3,2066],[3.9,2149],[3.9,2233],[3.9,2316],[4,2399],[4,2483],[4,2567],[4.2,2649],[4.2,2733],[4.4,2816],[4.4,2899],[4.7,2981],[4.7,3064],[4.7,3149],[4.7,3233],[4.7,3316],[4.7,3399],[4.7,3483],[4.7,3564],[4.7,3649],[4.7,3733],[4.7,3816],[4.4,3899],[12.8,3983],[49.6,4066],[57.5,4149],[57.4,4231],[57.1,4317],[56.3,4400],[56.1,4481],[56,4566],[55,4649],[55,4733],[55,4816],[54.6,4900],[54.4,4983],[54.4,5066],[54.4,5150],[54.4,5233],[54.4,5316],[54.4,5399],[54.4,5481],[54.4,5566],[54.4,5650],[54.4,5733],[54.4,5816],[54.4,5900],[54.4,5983],[54.4,6067],[54.4,6150],[54.4,6231],[54.4,6317],[54.4,6399],[54.4,6483],[54.4,6566],[54.4,6650],[54.4,6731],[54.4,6816],[54.4,6900],[54.4,6983],[54.4,7066],[54.4,7149],[54.4,7233],[54.4,7316],[54.4,7399],[54.4,7483],[54.4,7566],[54.4,7649],[54.4,7733],[54.4,7816],[54.4,7900],[54.4,7981],[54.4,8067],[54.4,8150],[54.4,8233],[54.4,8316],[54.4,8400],[54.4,8483],[54.4,8566],[54.4,8650],[54.4,8733],[54.4,8816],[54.4,8900],[54.4,8983],[54.4,9066],[54.4,9149],[54.4,9233],[55.1,9317],[56.5,9399],[63.1,9483],[77.1,9567],[96.1,9650],[99.6,9733],[99.6,9817],[99.6,9900],[99.6,9983],[99.6,10067],[99.6,10150],[99.6,10233],[99.6,10317],[99.6,10400],[99.6,10483],[99.6,10567],[99.6,10650],[99.6,10733],[99.6,10816],[99.6,10899],[99.6,10983],[99.6,11067],[99.7,11150],[100,11233],[100,11316],[100,11400],[100,11483],[100,11567],[100,11650],[100,11733],[100,11817],[100,11900],[100,11983],[100,12066],[100,12150],[100,12233],[100,12316],[100,12400],[100,12483],[100,12567],[100,12650],[100,12733],[100,12817],[100,12900],[100,12983],[100,13067],[100,13150],[100,13233],[100,13317],[99.6,13400],[99.2,13483],[98.9,13567],[98.9,13650],[98.9,13733],[98.9,13816],[98.9,13900],[98.9,13983],[98.9,14066],[98.9,14150],[98.9,14233],[98.9,14317],[98.9,14400],[98.9,14484],[98.9,14567],[98.9,14649],[98.9,14733],[98.9,14817],[98.9,14900],[98.9,14983],[98.9,15067],[98.9,15150],[98.9,15233],[98.9,15317],[98.9,15400],[98.9,15483],[98.9,15567],[98.9,15650],[98.9,15733],[98.9,15817],[98.9,15882]]",1,0,148.107,153.189,92.5,4.622,"[{""rating"":79.44444444444446,""responseTime"":3.7379999999999995},{""rating"":92.5,""responseTime"":4.621999999999986}]",space,4.534,,153.19,Not at all,0,153.198,,,[],,0,1,1,1,1,audio/Narrative7Situation1.wav,audio/Narrative8Situation1.wav,audio/Narrative5Situation1.wav,audio/Narrative6Situation1.wav,2,5,5,2,1.699,,,,,,,,,,,,,,,,,,,,,,,,,,,,,,,,,,,,,,
,,,,,,60fb5abacf212cc0bc18199f,2024-02-08_16h03.17.277,group3.1-3.2-social-tom,2023.2.2,MacIntel,58.82352941,65c5074098b851296ff0b7ed,65c5418497964a76ccf45aff,,,,,,,,,,,,,,,,,,,,,,,,,,,,,153.199,1,audio/Narrative8Situation2.wav,156.207,,156.207,166.341,"[[92.9,1733],[94.7,1814],[96.1,1900],[97.1,1983],[98.2,2066],[98.5,2149],[98.5,2233],[98.8,2316],[99.2,2399],[99.2,2483],[99.7,2566],[100,2649],[100,2731],[100,2817],[100,2899],[100,2981],[100,3067],[100,3149],[100,3233],[100,3316],[100,3399],[100,3483],[100,3564],[85.1,3651],[51.9,3731],[31.9,3816],[27.4,3899],[22.9,3983],[15.6,4066],[15,4150],[15,4233],[15.3,4316],[13.5,4399],[11.1,4481],[8.5,4564],[6.9,4650],[4.6,4731],[4.6,4816],[4.6,4900],[4.6,4983],[4.6,5066],[4.6,5149],[4.6,5233],[4.6,5316],[4.6,5400],[4.6,5483],[4.6,5566],[4.6,5649],[4.6,5733],[4.6,5816],[4.6,5899],[4.6,5983],[4.6,6066],[4.6,6149],[4.6,6234],[4.6,6316],[4.6,6399],[4.6,6481],[4.3,6567],[1.8,6649],[0.6,6733],[8.5,9983],[17.9,10050]]",1,0,166.342,170.457,0.138888889,2.388,"[{""rating"":0.1388888888888884,""responseTime"":2.3880000000000052}]",space,3.573,,170.458,Definitely yes,100,170.465,,,[],,0,2,2,2,1,audio/Narrative7Situation2.wav,audio/Narrative8Situation2.wav,audio/Narrative5Situation2.wav,audio/Narrative6Situation2.wav,3,3,3,3,,,,,,,,,,,,,,,,,,,,,,,,,,,,,,,,,,,,,,,
,,,,,,60fb5abacf212cc0bc18199f,2024-02-08_16h03.17.277,group3.1-3.2-social-tom,2023.2.2,MacIntel,58.82352941,65c5074098b851296ff0b7ed,65c5418497964a76ccf45aff,,,,,,,,,,,,,,,,,,,,,,,,,,,,,170.466,1,audio/Narrative8Situation3.wav,174.474,,174.474,196.843,"[[999,2],[999,84],[999,165],[999,250],[999,317],[999,400],[999,483],[999,567],[999,650],[999,734],[999,816],[999,900],[999,983],[999,1067],[999,1150],[999,1233],[999,1317],[999,1400],[999,1483],[50.4,1567],[49.4,1650],[49.4,1733],[49.4,1816],[49.4,1901],[51.3,1983],[33.2,2066],[3.9,2150],[0.8,3400],[16.7,3484],[26.1,3567],[38.2,3651],[42.1,3734],[51.4,3816],[53.3,3900],[55.4,3983],[55.7,4067],[55.7,4150],[55.7,4234],[55.7,4317],[55.7,4400],[55.7,4484],[55.7,4567],[55.7,4650],[55.7,4734],[55.7,4817],[55.7,4901],[55.7,4984],[55.7,5067],[55.7,5150],[55.7,5234],[55.7,5317],[55.7,5401],[55.7,5484],[55.7,5567],[55.7,5651],[55.7,5734],[55.7,5817],[55.7,5900],[55.7,5984],[55.7,6067],[55.7,6150],[55.7,6234],[55.7,6317],[55.7,6400],[55.7,6484],[55.7,6567],[55.7,6650],[55.7,6733],[55.7,6817],[55.7,6901],[55.7,6984],[55.8,7067],[55.8,7150],[55.8,7234],[55.8,7317],[55.8,7401],[55.8,7484],[55.8,7567],[55.8,7650],[55.8,7734],[55.1,7817],[51.7,7900],[50.7,7985],[50.6,8067],[50.6,8151],[52.1,8234],[55.8,8317],[61.7,8401],[67.5,8483],[71.9,8567],[76.1,8651],[79.4,8734],[81.1,8817],[81.5,8901],[81.7,8984],[81.8,9067],[81.8,9151],[81.8,9234],[81.8,9317],[81.8,9401],[81.8,9483],[81.8,9567],[81.8,9650],[81.8,9735],[81.8,9817],[81.8,9900],[81.8,9984],[81.5,10070],[81.5,10151],[81.5,10234],[81.5,10317],[81.5,10401],[81.5,10484],[81.5,10567],[81.5,10651],[81.5,10733],[81.7,10817],[81.7,10900],[81.7,10984],[81.7,11067],[81.7,11151],[81.7,11234],[81.7,11317],[81.7,11400],[81.7,11484],[81.7,11567],[81.7,11650],[81.7,11735],[81.7,11817],[81.7,11901],[81.8,11984],[84.3,12069],[87.9,12151],[91.9,12234],[94.7,12317],[98.3,12401],[98.9,12485],[99,12567],[99,12651],[99,12734],[99,12817],[99,12901],[99,12984],[98.9,13067],[94.9,13151],[91.1,13234],[86.7,13317],[85,13400],[85,13485],[86.5,13567],[87.5,13650],[87.6,13735],[87.6,13817],[87.6,13901],[87.6,13985],[87.6,14067],[88.1,14151],[91,14234],[95,14317],[98.5,14402],[100,14484],[100,14567],[100,14651],[100,14735],[100,14817],[100,14901],[100,14984],[100,15067],[100,15151],[100,15235],[100,15317],[100,15401],[100,15484],[100,15568],[100,15651],[99.9,15734],[99.7,15817],[99.7,15901],[99.7,15984],[99.4,16067],[97.2,16151],[97.1,16234],[95.7,16317],[95.6,16401],[95.6,16484],[95.6,16567],[95.6,16651],[95.6,16735],[95.7,16817],[95.7,16902],[95.7,16985],[95.7,17067],[95.7,17151],[95.7,17235],[95.7,17317],[95.7,17401],[95.7,17484],[95.8,17568],[96.7,17651],[97.5,17735],[98.1,17817],[99.2,17901],[100,17985],[100,18067],[100,18152],[100,18235],[100,18317],[100,18402],[100,18485],[100,18567],[100,18651],[100,18735],[100,18817],[100,18901],[100,18985],[100,19067],[100,19151],[100,19234],[100,19317],[100,19402],[100,19484],[100,19567],[100,19652],[100,19735],[100,19817],[100,19902],[100,19985],[100,20067],[100,20152],[100,20236],[100,20317],[100,20401],[100,20485],[100,20567],[100,20652],[100,20735],[100,20817],[100,20901],[100,20985],[100,21069],[100,21151],[100,21234],[100,21317],[100,21402],[100,21485],[100,21567],[100,21652],[100,21735],[100,21817],[100,21902],[100,21985],[100,22067],[100,22151],[88.1,22235],[72.2,22301]]",1,0,196.843,199.443,74.44444444,1.872,"[{""rating"":74.44444444444444,""responseTime"":1.8719999999999857}]",space,2.07,,199.443,Definitely yes,100,199.447,,,[],,0,3,3,3,1,audio/Narrative7Situation3.wav,audio/Narrative8Situation3.wav,audio/Narrative5Situation3.wav,audio/Narrative6Situation3.wav,8,4,3,5,,,,,,,,,,,,,,,,,,,,,,,,,,,,,,,,,,,,,,,
,,,,,,60fb5abacf212cc0bc18199f,2024-02-08_16h03.17.277,group3.1-3.2-social-tom,2023.2.2,MacIntel,58.82352941,65c5074098b851296ff0b7ed,65c5418497964a76ccf45aff,,,,,,,,,,,,,,,,,,,,,,,,,,,,,199.448,1,audio/Narrative8Situation4.wav,202.46,,202.46,216.644,"[[999,1],[999,82],[999,166],[999,250],[999,325],[999,400],[999,481],[999,566],[999,650],[999,731],[999,816],[999,899],[999,984],[999,1066],[999,1149],[999,1233],[999,1316],[999,1399],[48.6,1483],[31.5,1900],[11.3,1983],[4.6,2066],[2.6,2150],[1.9,2231],[1.8,2316],[1.8,2406],[1.8,2483],[1.8,2566],[1.8,2983],[92.1,3650],[92.1,3733],[92.1,3816],[92.1,3900],[92.1,3983],[92.1,4066],[92.2,4150],[94.2,4231],[94.4,4316],[94.4,4400],[93.8,4481],[93.6,4566],[93.8,4649],[94,4734],[94,4816],[94,4900],[94,4983],[94,5066],[94,5150],[94,5231],[94,5317],[94,5400],[94,5483],[94,5567],[94,5650],[94,5733],[94,5816],[94,5900],[94,5983],[94,6066],[94,6150],[94,6233],[94,6317],[94,6399],[94,6484],[94,6566],[94,6649],[94,6733],[94,6816],[94,6900],[94,6983],[94,7066],[94,7150],[94,7233],[100,7317],[100,7400],[100,7483],[100,7566],[100,7651],[100,7733],[100,7816],[100,7900],[100,7984],[100,8066],[100,8149],[100,8234],[100,8317],[100,8400],[100,8484],[100,8566],[100,8650],[100,8733],[100,8816],[100,8900],[100,8983],[100,9067],[100,9151],[100,9234],[100,9318],[100,9399],[100,9483],[100,9566],[100,9650],[100,9734],[100,9816],[100,9900],[100,9983],[100,10066],[100,10149],[100,10233],[100,10316],[100,10400],[100,10483],[100,10567],[100,10650],[100,10733],[100,10817],[100,10900],[100,10984],[100,11067],[100,11151],[100,11233],[100,11316],[100,11401],[100,11484],[100,11567],[100,11650],[100,11733],[100,11817],[100,11899],[100,11984],[100,12066],[100,12149],[100,12233],[100,12318],[100,12400],[100,12483],[100,12568],[100,12651],[100,12733],[100,12817],[100,12900],[100,12984],[100,13066],[100,13152],[100,13233],[100,13317],[100,13400],[100,13484],[100,13567],[100,13650],[100,13734]]",1,0,216.645,219.161,99.86111111,1.204,"[{""rating"":99.86111111111111,""responseTime"":1.2040000000000077}]",space,1.968,,219.161,Definitely yes,100,219.165,,,[],,0,4,4,4,1,audio/Narrative7Situation4.wav,audio/Narrative8Situation4.wav,audio/Narrative5Situation4.wav,audio/Narrative6Situation4.wav,3,3,1,2,,,,,,,,,,,,,,,,,,,,,,,,,,,,,,,,,,,,,,,
,,,,,,60fb5abacf212cc0bc18199f,2024-02-08_16h03.17.277,group3.1-3.2-social-tom,2023.2.2,MacIntel,58.82352941,65c5074098b851296ff0b7ed,65c5418497964a76ccf45aff,,,,,,,,,,,,,,,,,,,,,,,,,,,,,219.166,1,audio/Narrative8Situation5.wav,221.178,,221.178,229.428,"[[100,324],[100,399],[100,481],[100,567],[100,650],[100,731],[100,814],[100,899],[99.3,983],[92.1,1066],[89.7,1149],[89.9,1233],[94.3,1316],[98.2,1397],[100,1483],[100,1566],[100,1649],[100,1733],[100,1817],[100,1899],[100,1981],[100,2067],[100,2149],[100,2233],[100,2317],[100,2400],[100,2483],[100,2564],[100,2649],[100,2733],[99.9,2816],[99.9,2899],[99.9,2983],[99.9,3066],[99.9,3149],[99.9,3231],[99.9,3316],[99.9,3399],[99.9,3481],[99.9,3566],[99.9,3650],[100,3731],[100,3816],[100,3900],[100,3983],[100,4067],[100,4149],[100,4233],[100,4314],[100,4400],[100,4483],[100,4566],[100,4650],[100,4731],[100,4816],[100,4899],[100,4983],[100,5067],[100,5150],[100,5233],[100,5317],[100,5399],[100,5481],[100,5567],[100,5650],[99.7,5733],[96,5816],[93.1,5899],[91.8,5983],[91.7,6066],[91.8,6150],[92.1,6233],[92.2,6316],[92.2,6399],[92.2,6483],[92.2,6566],[92.6,6649],[98.5,6733],[100,6816],[100,6900],[100,6983],[100,7067],[100,7150],[100,7231],[100,7317],[100,7400],[100,7483],[100,7566],[100,7650],[100,7734],[100,7816],[100,7900],[100,7981],[100,8066],[100,8144],[100,8216]]",1,0,229.428,237.679,100,7.957,"[{""rating"":99.44444444444444,""responseTime"":3.2219999999999516},{""rating"":84.02777777777779,""responseTime"":4.772999999999968},{""rating"":90,""responseTime"":5.505999999999972},{""rating"":98.88888888888889,""responseTime"":7.20599999999996},{""rating"":100,""responseTime"":7.956999999999965}]",space,7.705,,237.679,Not at all,0,237.686,,,[],,0,5,5,5,1,audio/Narrative7Situation5.wav,audio/Narrative8Situation5.wav,audio/Narrative5Situation5.wav,audio/Narrative6Situation5.wav,5,2,5,2,,,,,,,,,,,,,,,,,,,,,,,,,,,,,,,,,,,,,,,
,,,,,,60fb5abacf212cc0bc18199f,2024-02-08_16h03.17.277,group3.1-3.2-social-tom,2023.2.2,MacIntel,58.82352941,65c5074098b851296ff0b7ed,65c5418497964a76ccf45aff,,,,,,,,,,,,,,,,,,,,,,,,,,,,,237.687,1,audio/Narrative8Situation6.wav,239.696,,239.696,246.179,"[[100,981],[93.9,1066],[91.3,1149],[92.9,1233],[97.4,1316],[100,1399],[100,1483],[100,1566],[100,1649],[100,1733],[100,1817],[100,1899],[100,1981],[100,2066],[100,2149],[100,2233],[100,2316],[100,2399],[100,2483],[100,2564],[100,2650],[100,2733],[100,2816],[100,2899],[100,2983],[100,3066],[100,3149],[100,3233],[100,3316],[100,3399],[100,3481],[100,3567],[100,3649],[100,3733],[100,3816],[100,3900],[100,3981],[100,4066],[100,4150],[100,4233],[100,4316],[100,4400],[100,4483],[100,4566],[100,4650],[100,4733],[100,4816],[100,4899],[100,4983],[100,5066],[100,5149],[100,5233],[100,5317],[100,5399],[100,5483],[100,5567],[100,5650],[100,5733],[100,5817],[100,5899],[100,5983],[100,6066],[100,6150],[100,6232],[100,6316],[100,6381],[100,6467]]",1,0,246.18,249.58,100,2.821,"[{""rating"":100,""responseTime"":2.820999999999998}]",space,2.855,,249.58,Not at all,0,249.583,,,[],,0,6,6,6,1,audio/Narrative7Situation6.wav,audio/Narrative8Situation6.wav,audio/Narrative5Situation6.wav,audio/Narrative6Situation6.wav,3,2,3,2,,,,,,,,,,,,,,,,,,,,,,,,,,,,,,,,,,,,,,,
,,,,,,60fb5abacf212cc0bc18199f,2024-02-08_16h03.17.277,group3.1-3.2-social-tom,2023.2.2,MacIntel,58.82352941,65c5074098b851296ff0b7ed,65c5418497964a76ccf45aff,,,,,,,,,,,,,,,,,,,,,,,,,,,,,249.584,1,audio/Narrative8Situation7.wav,252.596,,252.597,264.698,"[[100,982],[100,1064],[100,1148],[100,1232],[100,1314],[100,1399],[100,1482],[100,1566],[100,1648],[100,1733],[100,1816],[100,1899],[100,1983],[100,2064],[100,2150],[100,2232],[100,2316],[100,2399],[100,2482],[100,2566],[100,2649],[100,2732],[100,2814],[100,2900],[100,2983],[98.9,3066],[90.8,3149],[83.3,3232],[77.2,3316],[75.8,3399],[75.8,3483],[76.4,3566],[76.7,3649],[76.7,3733],[76.7,3816],[76.7,3899],[76.5,3982],[76.5,4067],[76.5,4150],[76.5,4233],[76.5,4316],[76.5,4399],[76.5,4483],[76.5,4566],[76.5,4650],[76.5,4733],[76.5,4816],[76.5,4899],[76.5,4983],[76.5,5064],[76.5,5149],[76.5,5233],[76.5,5316],[76.5,5400],[76.5,5483],[76.5,5566],[76.5,5649],[76.5,5732],[76.5,5817],[76.5,5900],[76.5,5982],[76.5,6066],[76.5,6149],[76.5,6234],[76.5,6316],[76.5,6400],[76.5,6483],[76.5,6564],[76.5,6650],[76.5,6733],[76.5,6816],[76.5,6899],[76.7,6983],[76.9,7066],[77.2,7149],[77.4,7234],[77.4,7316],[77.4,7400],[77.4,7483],[77.4,7567],[77.4,7649],[77.4,7732],[77.4,7817],[77.4,7899],[77.4,7983],[77.2,8066],[75.3,8149],[71,8233],[70.6,8316],[70.6,8400],[70.6,8483],[70.6,8566],[60.1,8649],[31.7,8734],[26.1,8816],[25.8,8899],[27.1,8984],[29.3,9066],[29.4,9150],[29.7,9233],[29.9,9318],[29.9,9399],[29.9,9482],[29.9,9567],[29.9,9649],[29.9,9733],[30.3,9816],[30.7,9899],[32.4,9983],[36,10066]]",1,0,264.698,267.847,43.47222222,2.539,"[{""rating"":43.47222222222222,""responseTime"":2.5389999999999873}]",space,2.602,,267.847,Not at all,0,267.853,,,[],,0,7,7,7,1,audio/Narrative7Situation7.wav,audio/Narrative8Situation7.wav,audio/Narrative5Situation7.wav,audio/Narrative6Situation7.wav,5,3,4,5,,,,,,,,,,,,,,,,,,,,,,,,,,,,,,,,,,,,,,,
,,,,,,60fb5abacf212cc0bc18199f,2024-02-08_16h03.17.277,group3.1-3.2-social-tom,2023.2.2,MacIntel,58.82352941,65c5074098b851296ff0b7ed,65c5418497964a76ccf45aff,,,,,,,,,,,,,,,,,,,,,,,,,,,,,267.853,1,audio/Narrative8Situation8.wav,270.865,,270.865,283.715,"[[40.3,2064],[20,2149],[13.2,2231],[11.9,2315],[6.9,2399],[4.7,2481],[3.9,2565],[2.6,2649],[1,2731],[0.1,3399],[0.6,3483],[0.8,3564],[1,3649],[1,3733],[1,3815],[1,3899],[1,3983],[1,4065],[1,4149],[1,4231],[1,4315],[1,4399],[1,4481],[1,4565],[1,4649],[1,4733],[1,4815],[1,4899],[1,4983],[1,5064],[1,5149],[1,5233],[1,5314],[1,5399],[1,5483],[1,5565],[1,5649],[1,5733],[1,5815],[1,5899],[1,5981],[1,6066],[1,6149],[1,6233],[1,6315],[1,6399],[1,6483],[1,6565],[1,6649],[1,6733],[1,6815],[1,6899],[1,6983],[1,7064],[1,7149],[1,7233],[1,7315],[1,7399],[1,7483],[1,7565],[1,7649],[1,7733],[1,7816],[1,7899],[1,7981],[1,8067],[1,8149],[1,8233],[1,8315],[1,8399],[1,8483],[1,8564],[1,8651],[1,8733],[1,8815],[1,8899],[1,8983],[1,9065],[1,9149],[1,9233],[1,9316],[1.1,9399],[1.5,9483],[1.8,9565],[2.1,9649],[2.1,9731],[2.1,9816],[2.1,9899],[2.1,9981],[1.8,10065],[1.7,10149],[1.7,10233],[1.7,10315],[1.7,10399],[1.3,10483],[0.8,10568],[0.8,10649],[0.4,10731],[0.8,11149],[61.5,11901],[63.5,11983],[63.9,12065],[64,12151],[65.6,12233],[67.2,12316],[66.5,12401],[66.5,12483],[81.3,12565],[91.7,12649],[91.7,12730],[90.4,12800]]",1,0,283.716,285.899,79.16666667,1.539,"[{""rating"":79.16666666666667,""responseTime"":1.5389999999999873}]",space,1.639,,285.899,Partially,50,285.906,,,[],,0,8,8,8,1,audio/Narrative7Situation8.wav,audio/Narrative8Situation8.wav,audio/Narrative5Situation8.wav,audio/Narrative6Situation8.wav,2,3,3,5,,,,,,,,,,,,,,,,,,,,,,,,,,,,,,,,,,,,,,,
,,,,,,60fb5abacf212cc0bc18199f,2024-02-08_16h03.17.277,group3.1-3.2-social-tom,2023.2.2,MacIntel,58.82352941,65c5074098b851296ff0b7ed,65c5418497964a76ccf45aff,,,,,,,,,,,,,,,,,,,,,,,,,,,,,285.907,1,audio/Narrative8Situation9.wav,288.916,,288.916,300.249,"[[999,0],[999,81],[999,165],[999,250],[999,324],[999,399],[999,481],[999,565],[999,649],[999,733],[999,815],[999,899],[999,983],[999,1067],[999,1149],[999,1233],[999,1315],[999,1399],[999,1483],[999,1565],[999,1648],[999,1733],[999,1815],[999,1899],[999,1981],[999,2067],[999,2149],[53.1,2233],[38.3,2315],[25.3,2399],[20.6,2481],[20.6,2565],[20.6,2649],[20.6,2731],[15,2814],[12.5,2899],[11.5,2983],[11.3,3065],[11.3,3149],[11.3,3233],[11.1,3315],[9.7,3399],[9.6,3483],[11.8,3565],[13.8,3649],[15.7,3733],[29,3815],[42.6,3899],[56,3981],[58.9,4067],[59,4149],[59,4233],[59,4315],[59,4399],[59,4483],[59,4565],[59,4649],[59,4733],[59,4815],[59,4899],[59,4983],[59,5065],[59,5149],[59,5233],[59,5315],[59,5399],[58.2,5483],[58.2,5565],[58.2,5649],[58.2,5731],[58.2,5817],[58.2,5901],[58.2,5981],[58.2,6065],[58.2,6149],[58.2,6233],[58.2,6317],[59,6399],[69.9,6483],[79.4,6565],[84.4,6649],[84.7,6731],[84.7,6814],[84.7,6899],[84.7,6983],[84.7,7065],[84.7,7149],[84.7,7233],[84.7,7317],[84.7,7399],[84.7,7481],[84.7,7567],[84.7,7649],[84.7,7733],[84.7,7815],[84.7,7899],[84.7,7983],[84.7,8065],[84.7,8149],[84.7,8233],[84.7,8315],[84.7,8399],[84.7,8483],[84.7,8565],[84.7,8649],[84.7,8733],[84.7,8815],[84.7,8899],[84.7,8983],[84.7,9067],[84.7,9149],[84.7,9233],[84.7,9317],[84.7,9399],[84.7,9481],[84.7,9567],[84.7,9649],[84.7,9733],[84.7,9815],[84.7,9899],[84.7,9981],[84.7,10065],[84.7,10149],[84.7,10233],[84.7,10315],[84.7,10399],[84.7,10483],[84.7,10565],[84.7,10649],[84.7,10733],[84.7,10815],[84.7,10899],[84.7,10983],[84.6,11065],[84.4,11149],[84.4,11219],[84.4,11298]]",1,0,300.25,302.582,64.30555556,1.655,"[{""rating"":64.30555555555554,""responseTime"":1.6550000000000296}]",space,1.802,,302.583,Definitely yes,100,302.59,,,[],,0,9,9,9,1,audio/Narrative7Situation9.wav,audio/Narrative8Situation9.wav,audio/Narrative5Situation9.wav,audio/Narrative6Situation9.wav,2,3,3,4,,,,,,,,,,,,,,,,,,,,,,,,,,,,,,,,,,,,,,,
,,,,,,60fb5abacf212cc0bc18199f,2024-02-08_16h03.17.277,group3.1-3.2-social-tom,2023.2.2,MacIntel,58.82352941,65c5074098b851296ff0b7ed,65c5418497964a76ccf45aff,,,,,,,,,,,,,,,,,,,,,,,,,,,,,302.59,1,audio/Narrative7Situation1.wav,304.6,,304.6,360.471,"[[999,1],[999,84],[999,166],[999,249],[999,319],[999,400],[999,483],[61.7,566],[61.5,650],[61.5,733],[61.5,817],[61.5,900],[61.5,983],[60,1067],[56.8,1150],[48.6,1233],[47.5,1316],[49,1401],[50.3,1483],[50.6,1566],[50.7,1650],[50.8,1733],[51.3,1816],[52.1,1900],[53.2,1984],[53.8,2068],[51.1,3982],[70.3,4233],[65,4316],[14.9,4816],[7.8,4901],[6.8,4984],[3.9,5067],[1.9,5151],[2.2,5232],[2.5,5316],[2.5,5400],[2.5,5483],[2.5,5567],[2.5,5649],[2.5,5734],[2.5,5817],[2.4,5900],[0.7,5983],[0.1,6067],[0.1,6150],[0.1,6233],[0.1,6318],[0.1,6400],[0.8,6483],[1,6567],[1,6650],[1,6733],[1,6816],[1.5,6901],[8.1,6983],[24.3,7067],[58.5,7817],[74.9,8234],[73.2,8317],[71.9,8401],[63.3,8483],[60,8566],[60.3,8651],[60.3,8733],[56.1,8817],[55.1,8900],[55,8983],[55.1,9067],[57.2,9150],[58.9,9234],[59,9317],[59,9400],[59,9483],[59,9568],[59,9650],[59,9734],[59,9818],[59,9900],[59,9983],[59,10069],[59,10151],[59,10234],[59,10316],[59,10401],[59,10484],[59,10566],[59,10650],[59,10734],[59,10816],[59,10900],[59,10985],[59,11066],[58.9,11150],[58.9,11234],[58.6,11316],[58.5,11400],[58.3,11483],[58.3,11568],[58.3,11650],[58.3,11733],[58.3,11817],[58.3,11900],[58.3,11984],[58.3,12067],[58.3,12150],[58.3,12234],[57.8,12316],[57.8,12400],[57.6,12485],[57.5,12566],[57.5,12651],[57.5,12733],[57.5,12817],[57.5,12901],[57.5,12984],[57.5,13066],[57.5,13151],[57.5,13233],[57.5,13316],[57.5,13401],[57.5,13483],[57.5,13567],[57.5,13651],[57.5,13734],[57.5,13817],[57.5,13900],[57.5,13983],[57.5,14066],[57.5,14151],[57.5,14233],[57.5,14317],[57.5,14400],[57.5,14483],[57.5,14567],[57.5,14650],[57.5,14734],[57.5,14817],[57.5,14901],[57.5,14984],[56.8,15068],[34.2,15151],[18.2,15234],[17.6,15318],[18.8,15401],[23.2,15484],[25.1,15567],[25.4,15651],[25.4,15735],[25.4,15817],[25.4,15901],[25.4,15983],[25.4,16067],[25.4,16150],[25.4,16234],[25.6,16317],[25.6,16400],[25.6,16485],[24.4,16567],[24.4,16651],[24.4,16734],[24.4,16818],[24.4,16901],[24.4,16983],[24.4,17068],[24.4,17150],[24.4,17234],[24.4,17317],[24.4,17401],[24.4,17484],[24.4,17567],[24.4,17651],[24.4,17735],[24.4,17817],[24.4,17900],[24.4,17984],[24.4,18067],[24.4,18150],[24.4,18235],[24.4,18318],[24.4,18401],[24.4,18484],[24.4,18567],[24.4,18651],[24.4,18734],[24.4,18819],[24.4,18901],[24.4,18984],[24.4,19067],[22.8,19151],[25.4,19235],[40.8,19317],[65.4,19402],[84.2,19483],[84.3,19567],[84.4,19651],[84.4,19734],[79.4,19818],[76,19900],[70.6,19985],[65.3,20068],[65,20153],[65,20235],[65,20318],[65,20401],[65,20484],[65,20568],[65,20651],[65,20733],[65,20818],[65,20901],[65,20984],[65,21067],[65,21151],[65,21234],[65,21317],[65,21401],[65,21485],[65,21568],[65,21651],[65,21736],[65,21818],[65,21900],[65,21985],[65,22068],[65,22151],[65,22234],[65,22323],[65,22401],[65,22484],[56.5,22569],[42.4,22651],[39.4,22734],[37.9,22817],[33.3,22901],[25,22985],[24.3,24234],[24.3,24319],[24.6,24401],[25.1,24484],[25.1,24568],[25.1,24653],[25.1,24735],[25.1,24817],[25.1,24902],[25.1,24984],[25.1,25068],[25.1,25151],[25.1,25235],[25.1,25318],[25.1,25402],[25.1,25485],[25.1,25568],[25.1,25651],[25.1,25735],[25.1,25818],[25.1,25901],[25.1,25984],[25.1,26069],[25.1,26151],[25.1,26235],[25.1,26318],[25.1,26401],[25.1,26485],[25.1,26567],[25.1,26652],[25.1,26736],[25.1,26817],[25.1,26901],[25.1,26985],[25.1,27068],[25.1,27151],[25.1,27235],[25.1,27319],[25.1,27401],[25.1,27485],[25.1,27569],[25.1,27652],[25.1,27734],[25.1,27819],[25.1,27902],[25.1,27984],[25.1,28068],[25.1,28152],[25.1,28235],[25.1,28318],[25.1,28402],[25.1,28485],[25.1,28567],[25.1,28652],[25.1,28734],[25.1,28818],[26.7,28902],[30.7,28986],[31.1,29068],[31.3,29151],[31.8,29235],[31.8,29319],[31.8,29402],[31.8,29484],[31.8,29569],[31.8,29652],[31.8,29734],[31.8,29818],[31.8,29902],[31.8,29985],[31.8,30068],[31.8,30152],[31.9,30234],[32.1,30318],[32.1,30402],[32.1,30486],[32.1,30568],[32.1,30651],[32.1,30736],[32.1,30818],[32.1,30901],[32.8,30985],[35.4,31068],[56.4,31651],[56.9,31735],[57.2,31818],[57.2,31901],[57.1,31985],[57.1,32068],[57.1,32152],[57.1,32235],[57.1,32318],[57.1,32402],[57.1,32486],[57.1,32569],[57.1,32652],[57.1,32735],[57.1,32819],[57.1,32901],[57.1,32985],[57.1,33069],[57.1,33152],[57.1,33234],[57.1,33319],[57.1,33402],[57.1,33485],[57.1,33568],[57.1,33652],[57.1,33735],[57.1,33818],[57.1,33902],[57.1,33985],[57.1,34069],[57.1,34152],[57.1,34236],[57.1,34319],[57.1,34401],[57.1,34486],[57.1,34569],[57.1,34652],[57.1,34735],[57.1,34819],[57.1,34902],[57.1,34985],[57.4,35069],[58.1,35151],[59.2,35236],[61.7,35318],[64.9,35401],[69.2,35485],[71.1,35568],[72.9,35653],[74.3,35735],[75.8,35818],[78.1,35902],[80.1,35985],[81.5,36069],[81.8,36151],[81.9,36236],[82.1,36318],[82.1,36401],[82.1,36486],[82.1,36569],[82.1,36651],[82.2,36735],[82.2,36819],[82.2,36902],[82.2,36985],[82.5,37069],[86.7,37152],[88.9,37235],[90,37318],[92.6,37403],[94.6,37486],[95.6,37568],[95.6,37652],[95.6,37737],[92.8,37819],[89.3,37902],[86.1,37986],[84.7,38068],[84.3,38151],[84.3,38236],[84.3,38319],[84.3,38402],[84.3,38485],[84.3,38569],[84.3,38652],[84.3,38735],[84.3,38819],[84.3,38902],[84.3,38985],[84.3,39069],[84.3,39153],[84.3,39236],[84.3,39318],[84.3,39403],[84.3,39485],[84.3,39569],[84.3,39652],[84.3,39737],[84.3,39819],[84.3,39901],[84.3,39986],[84.3,40069],[84.3,40153],[84.3,40235],[84.3,40318],[84.3,40402],[84.3,40485],[84.3,40569],[84.3,40652],[84.3,40736],[84.3,40819],[84.3,40903],[84.3,40986],[84.3,41068],[84.3,41153],[84.3,41236],[84.3,41319],[84.3,41402],[84.3,41486],[84.3,41569],[84.3,41652],[84.3,41736],[84.3,41819],[84.3,41903],[84.3,41986],[84.3,42069],[84.3,42152],[84.3,42235],[89.2,42318],[92.6,42402],[99.9,42486],[100,42569],[100,42653],[100,42736],[100,42818],[100,42903],[100,42986],[100,43068],[100,43152],[100,43237],[100,43319],[100,43402],[100,43486],[100,43569],[100,43652],[100,43736],[100,43819],[100,43902],[100,43985],[100,44069],[100,44153],[100,44236],[100,44319],[100,44403],[100,44486],[100,44569],[100,44653],[100,44737],[100,44819],[100,44903],[100,44986],[100,45069],[100,45152],[100,45237],[100,45319],[100,45403],[100,45486],[100,45569],[100,45653],[100,45735],[100,45819],[100,45902],[100,45986],[100,46069],[100,46153],[100,46236],[100,46319],[100,46403],[100,46486],[100,46569],[100,46653],[100,46736],[100,46819],[100,46903],[100,46987],[100,47069],[100,47152],[100,47237],[100,47321],[100,47403],[100,47486],[100,47569],[100,47653],[100,47735],[100,47819],[100,47903],[100,47986],[100,48069],[100,48153],[100,48236],[96.9,48319],[32.9,48819],[31.7,48902],[30.8,48987],[30.6,49069],[30.1,49153],[27.6,49236],[23.8,49319],[23.1,49403],[23.1,49486],[23.1,49569],[23.1,49653],[23.1,49736],[23.1,49819],[23.1,49903],[23.1,49986],[23.1,50069],[23.1,50153],[23.1,50236],[23.1,50319],[23.1,50403],[23.1,50487],[23.1,50569],[23.1,50652],[23.1,50737],[23.1,50819],[23.1,50902],[23.1,50986],[23.1,51071],[23.1,51153],[23.1,51236],[23.1,51319],[23.1,51403],[23.1,51487],[23.1,51569],[23.1,51653],[23.3,51736],[23.5,51819],[24,51903],[24.6,51986],[24.6,52069],[24.9,52153],[25,52236],[25,52319],[24.2,52403],[24.2,52486],[24.2,52569],[24.2,52652],[26.9,52737],[42.8,52825],[55.3,52904],[59.9,52986],[65.4,53069],[69,53153],[71.9,53237],[73.1,53319],[73.9,53403],[75.7,53487],[77.4,53569],[77.8,53654],[77.8,53738],[78.1,53819],[78.9,53903],[79,53986],[79,54069],[79,54153],[79,54239],[79,54319],[79,54403],[79,54487],[79,54569],[79,54653],[79,54736],[79,54819],[79,54903],[79,54986],[79,55069],[79,55153],[79,55236],[79,55319],[76.3,55404],[70.3,55486]]",1,0,360.472,363.287,69.02777778,2.021,"[{""rating"":69.02777777777777,""responseTime"":2.021000000000015}]",space,2.273,,363.287,Partially,50,363.294,,,[],,0,10,10,10,1,audio/Narrative8Situation1.wav,audio/Narrative7Situation1.wav,audio/Narrative6Situation1.wav,audio/Narrative5Situation1.wav,5,2,2,5,,,,,,,,,,,,,,,,,,,,,,,,,,,,,,,,,,,,,,,
,,,,,,60fb5abacf212cc0bc18199f,2024-02-08_16h03.17.277,group3.1-3.2-social-tom,2023.2.2,MacIntel,58.82352941,65c5074098b851296ff0b7ed,65c5418497964a76ccf45aff,,,,,,,,,,,,,,,,,,,,,,,,,,,,,363.294,1,audio/Narrative7Situation2.wav,366.304,,366.304,373.771,"[[65.1,3484],[65.1,3567],[65.6,3649],[66.1,3733],[73.3,3817],[77.6,3899],[81,3983],[82.1,4067],[82.1,4150],[82.1,4233],[82.1,4317],[82.1,4400],[82.1,4483],[82.1,4567],[82.1,4651],[82.1,4734],[82.1,4816],[82.1,4901],[82.1,4983],[82.1,5066],[82.1,5150],[82.1,5234],[82.1,5317],[82.2,5400],[88.1,5482],[94.4,5566],[95.8,5650],[95.8,5734],[95.8,5816],[97.4,5900],[99.9,5983],[100,6068],[100,6150],[100,6233],[100,6318],[100,6400],[100,6484],[100,6566],[100,6650],[100,6734],[100,6816],[100,6900],[100,6984],[100,7067],[100,7150],[100,7233],[100,7317],[100,7384],[100,7466]]",1,0,373.771,378.605,100,4.539,"[{""rating"":100,""responseTime"":4.538999999999987}]",space,4.29,,378.606,Not at all,0,378.613,,,[],,0,11,11,11,1,audio/Narrative8Situation2.wav,audio/Narrative7Situation2.wav,audio/Narrative6Situation2.wav,audio/Narrative5Situation2.wav,3,3,3,3,,,,,,,,,,,,,,,,,,,,,,,,,,,,,,,,,,,,,,,
,,,,,,60fb5abacf212cc0bc18199f,2024-02-08_16h03.17.277,group3.1-3.2-social-tom,2023.2.2,MacIntel,58.82352941,65c5074098b851296ff0b7ed,65c5418497964a76ccf45aff,,,,,,,,,,,,,,,,,,,,,,,,,,,,,378.613,1,audio/Narrative7Situation3.wav,384.639,space,384.639,393.905,"[[100,1983],[95.1,2067],[91.9,2149],[91.8,2233],[91.8,2315],[91.8,2399],[91.8,2483],[91.8,2565],[91.8,2649],[91.8,2731],[91.8,2817],[91.9,2899],[92.1,2981],[91.9,3065],[87.5,3149],[81.9,3233],[76.5,3319],[76.1,3399],[76,3483],[0.3,4149],[1,4233],[1.3,4315],[1.4,4399],[1.4,4483],[1.4,4565],[1.4,4649],[1.4,4731],[1.4,4817],[1.4,4901],[1.4,4983],[1.4,5065],[1.4,5149],[1.4,5233],[1.4,5314],[4.3,7315],[16.3,7399],[24.7,7485],[30,7567],[31.9,7649],[34.7,7733],[39.4,7817],[41.5,7899],[41.8,7983],[41.8,8065],[41.8,8149],[41.8,8233],[41.8,8317],[41.8,8399],[41.8,8483],[41.8,8565],[41.8,8651],[41.8,8733],[41.8,8815],[41.8,8899],[41.8,8983],[41.8,9065],[41.8,9147],[41.8,9216]]",1,0,393.906,397.973,0,3.522,"[{""rating"":13.472222222222225,""responseTime"":1.4560000000000173},{""rating"":0,""responseTime"":3.5219999999999914}]",space,3.529,,397.973,Definitely yes,100,397.98,,,[],,0,12,12,12,1,audio/Narrative8Situation3.wav,audio/Narrative7Situation3.wav,audio/Narrative6Situation3.wav,audio/Narrative5Situation3.wav,4,8,5,3,6.014,,,,,,,,,,,,,,,,,,,,,,,,,,,,,,,,,,,,,,
,,,,,,60fb5abacf212cc0bc18199f,2024-02-08_16h03.17.277,group3.1-3.2-social-tom,2023.2.2,MacIntel,58.82352941,65c5074098b851296ff0b7ed,65c5418497964a76ccf45aff,,,,,,,,,,,,,,,,,,,,,,,,,,,,,397.981,1,audio/Narrative7Situation4.wav,400.99,,400.991,412.724,"[[0.6,2564],[0.8,2649],[1,2732],[1.1,2814],[1.3,2898],[0.8,2982],[0.3,3064],[0.3,3482],[0.6,3565],[0.6,3649],[0.7,3732],[0.7,3815],[0.7,3900],[0.8,3980],[1,4064],[1,4150],[1.1,4230],[1.1,4314],[1.1,4400],[1.1,4482],[1.1,4564],[1.1,4649],[1.1,4730],[1.1,4814],[1.3,4898],[1.3,4983],[1.3,5065],[1.3,5148],[1.3,5233],[1.3,5315],[1.3,5398],[1.3,5482],[1.3,5565],[1.3,5650],[1.3,5730],[1.3,5815],[1.3,5899],[1.3,5982],[1.3,6064],[1.3,6149],[1.3,6233],[1.3,6314],[1.3,6401]]",1,0,412.725,416.207,10.13888889,3.222,"[{""rating"":10.138888888888886,""responseTime"":3.22199999999998}]",space,2.934,,416.207,Not at all,0,416.214,,,[],,0,13,13,13,1,audio/Narrative8Situation4.wav,audio/Narrative7Situation4.wav,audio/Narrative6Situation4.wav,audio/Narrative5Situation4.wav,3,3,2,1,,,,,,,,,,,,,,,,,,,,,,,,,,,,,,,,,,,,,,,
,,,,,,60fb5abacf212cc0bc18199f,2024-02-08_16h03.17.277,group3.1-3.2-social-tom,2023.2.2,MacIntel,58.82352941,65c5074098b851296ff0b7ed,65c5418497964a76ccf45aff,,,,,,,,,,,,,,,,,,,,,,,,,,,,,416.215,1,audio/Narrative7Situation5.wav,421.223,,421.223,429.708,[],1,0,429.708,433.592,0,2.556,"[{""rating"":0,""responseTime"":2.555999999999983}]",space,3.354,,433.593,Not at all,0,433.596,,,[],,0,14,14,14,1,audio/Narrative8Situation5.wav,audio/Narrative7Situation5.wav,audio/Narrative6Situation5.wav,audio/Narrative5Situation5.wav,2,5,2,5,,,,,,,,,,,,,,,,,,,,,,,,,,,,,,,,,,,,,,,
,,,,,,60fb5abacf212cc0bc18199f,2024-02-08_16h03.17.277,group3.1-3.2-social-tom,2023.2.2,MacIntel,58.82352941,65c5074098b851296ff0b7ed,65c5418497964a76ccf45aff,,,,,,,,,,,,,,,,,,,,,,,,,,,,,433.596,1,audio/Narrative7Situation6.wav,436.608,,436.608,446.576,"[[1.5,1983],[2.1,2067],[27.6,2149],[62.4,2233],[78.8,2317],[78.8,2401],[78.8,2483],[78.8,2567],[85,2651],[89.2,2733],[91.4,2817],[94.3,2901],[97.6,2983],[99.6,3067],[100,3149],[100,3235],[100,3317],[99.9,3399],[99.7,3485],[99.9,3567],[99.9,3651],[99.9,3733],[99.9,3817],[99.9,3901],[99.9,3983],[99.9,4067],[99.9,4151],[99.9,4233],[99.9,4317],[99.9,4401],[99.9,4483],[99.9,4567],[99.9,4651],[99.9,4735],[99.9,4817],[99.9,4901],[99.9,4985],[99.9,5067],[99.9,5149],[99.9,5235],[99.9,5319],[99.9,5399],[99.9,5483],[99.9,5567],[99.9,5649],[99.9,5733],[99.9,5817],[99.9,5901],[99.9,5983],[99.9,6067],[99.9,6149],[99.9,6233],[99.9,6317],[99.9,6401],[99.9,6485],[99.9,6567],[99.9,6651],[99.9,6733],[99.9,6817],[99.9,6901],[99.9,6985],[99.9,7067],[99.9,7149],[99.9,7233],[99.9,7317],[99.9,7399],[99.9,7483],[99.9,7569],[99.9,7651],[99.9,7733],[99.9,7817],[99.9,7901],[99.9,7985],[99.9,8067],[99.9,8149],[99.9,8233],[99.9,8317],[99.9,8399],[99.9,8483],[99.9,8567],[99.9,8651],[99.9,8735],[99.9,8817],[99.9,8899],[99.9,8983],[99.9,9067],[99.9,9151],[99.9,9233],[99.9,9319],[99.9,9399],[99.9,9483],[99.9,9567],[99.9,9649],[99.9,9733],[99.9,9817],[99.9,9884],[99.9,9966]]",1,0,446.577,449.543,100,2.738,"[{""rating"":100,""responseTime"":2.7379999999999995}]",space,2.424,,449.544,Partially,50,449.549,,,[],,0,15,15,15,1,audio/Narrative8Situation6.wav,audio/Narrative7Situation6.wav,audio/Narrative6Situation6.wav,audio/Narrative5Situation6.wav,2,3,2,3,,,,,,,,,,,,,,,,,,,,,,,,,,,,,,,,,,,,,,,
,,,,,,60fb5abacf212cc0bc18199f,2024-02-08_16h03.17.277,group3.1-3.2-social-tom,2023.2.2,MacIntel,58.82352941,65c5074098b851296ff0b7ed,65c5418497964a76ccf45aff,,,,,,,,,,,,,,,,,,,,,,,,,,,,,449.55,1,audio/Narrative7Situation7.wav,454.56,,454.56,471.728,"[[100,3815],[100,3899],[100,3983],[98.2,4065],[98.2,4149],[98.3,4233],[98.5,4315],[91.5,4399],[84.4,4483],[83.2,4567],[83.2,4649],[86,4733],[88.9,4817],[89.9,4899],[89.9,4983],[89.9,5065],[89.9,5149],[89.9,5233],[89.9,5317],[89.9,5399],[89.9,5483],[89.9,5565],[89.9,5649],[89.9,5733],[89.9,5815],[89.9,5899],[89.9,5983],[89.9,6065],[89.9,6149],[89.9,6233],[89.9,6315],[89.9,6401],[89.9,6483],[89.9,6565],[89.9,6649],[89.9,6733],[89.9,6815],[89.9,6899],[89.9,6983],[89.9,7065],[89.9,7149],[89.9,7233],[89.9,7317],[89.9,7399],[89.9,7483],[89.9,7565],[89.9,7649],[89.9,7733],[89.9,7817],[89.9,7899],[89.9,7983],[89.9,8067],[89.9,8151],[89.9,8233],[89.9,8317],[89.9,8401],[89.9,8483],[89.9,8565],[89.9,8649],[89.9,8733],[89.9,8815],[89.9,8899],[89.9,8983],[89.9,9067],[89.9,9149],[89.9,9233],[89.9,9317],[89.9,9399],[89.9,9483],[89.9,9567],[89.9,9649],[89.9,9733],[89.9,9817],[89.9,9901],[89.9,9983],[89.9,10067],[89.9,10151],[89.9,10233],[89.9,10317],[89.9,10401],[89.9,10483],[89.9,10565],[89.9,10649],[89.9,10734],[89.9,10817],[89.9,10899],[89.9,10984],[89.9,11067],[89.9,11149],[89.9,11233],[89.9,11317],[89.9,11401],[89.9,11483],[89.9,11567],[89.9,11651],[89.9,11733],[89.9,11817],[89.9,11901],[89.9,11983],[89.9,12067],[89.9,12149],[89.9,12233],[89.9,12317],[89.9,12401],[89.9,12483],[89.9,12567],[89.9,12649],[89.9,12733],[89.9,12815],[89.9,12899],[89.9,12983],[89.9,13065],[89.9,13149],[89.9,13233],[89.9,13317],[89.9,13399],[89.9,13483],[89.9,13565],[89.9,13649],[89.9,13734],[89.9,13817],[89.9,13899],[89.9,13983],[89.9,14067],[89.9,14151],[89.9,14233],[89.9,14317],[89.9,14401],[89.9,14483],[89.9,14567],[89.9,14649],[89.9,14735],[89.9,14817],[89.9,14899],[89.9,14983],[89.9,15067],[89.9,15149],[89.9,15233],[89.9,15317],[89.9,15399],[89.9,15484],[89.9,15567],[89.9,15651],[89.9,15733],[89.9,15817],[89.9,15901],[89.9,15983],[89.9,16067],[89.9,16149],[89.9,16233],[89.9,16317],[89.9,16399],[89.9,16483],[89.9,16567],[89.9,16651],[89.9,16733],[89.9,16817],[89.9,16899],[89.9,16983],[89.9,17057],[89.9,17132]]",1,0,471.728,474.345,91.66666667,0.805,"[{""rating"":91.66666666666667,""responseTime"":0.8050000000000068}]",space,2.077,,474.345,Partially,50,474.349,,,[],,0,16,16,16,1,audio/Narrative8Situation7.wav,audio/Narrative7Situation7.wav,audio/Narrative6Situation7.wav,audio/Narrative5Situation7.wav,3,5,5,4,,,,,,,,,,,,,,,,,,,,,,,,,,,,,,,,,,,,,,,
,,,,,,60fb5abacf212cc0bc18199f,2024-02-08_16h03.17.277,group3.1-3.2-social-tom,2023.2.2,MacIntel,58.82352941,65c5074098b851296ff0b7ed,65c5418497964a76ccf45aff,,,,,,,,,,,,,,,,,,,,,,,,,,,,,474.349,1,audio/Narrative7Situation8.wav,476.364,,476.364,486.396,"[[999,0],[999,80],[999,163],[999,248],[999,323],[999,397],[999,480],[999,564],[999,648],[999,730],[999,813],[999,900],[999,985],[999,1064],[999,1147],[999,1230],[999,1313],[999,1397],[999,1480],[999,1563],[999,1646],[999,1730],[999,1813],[999,1896],[999,1980],[999,2063],[999,2147],[999,2230],[999,2314],[999,2397],[999,2480],[999,2564],[999,2647],[999,2730],[999,2813],[999,2898],[999,2980],[999,3063],[999,3147],[999,3230],[999,3313],[999,3397],[999,3480],[999,3563],[999,3647],[999,3730],[999,3813],[999,3897],[999,3980],[999,4063],[999,4148],[999,4230],[999,4314],[999,4397],[999,4480],[999,4564],[999,4647],[999,4730],[999,4813],[999,4897],[999,4980],[999,5063],[999,5147],[999,5230],[999,5313],[999,5398],[999,5480],[999,5563],[999,5647],[999,5730],[999,5813],[999,5897],[999,5980],[999,6064],[999,6148],[999,6230],[999,6314],[999,6398],[999,6480],[999,6564],[999,6648],[999,6732],[999,6814],[999,6897],[999,6982],[999,7066],[999,7147],[999,7230],[999,7314],[999,7398],[999,7480],[999,7564],[999,7648],[90,7732],[91.9,7814],[93.9,7899],[96.3,7980],[99.4,8064],[100,8148],[100,8230],[100,8314],[100,8398],[100,8482],[100,8564],[100,8647],[100,8733],[100,8814],[100,8898],[100,8980],[100,9064],[100,9147],[100,9230],[100,9314],[100,9397],[100,9480],[100,9564],[100,9648],[100,9730],[100,9814],[100,9899],[100,9965]]",1,0,486.397,489.529,100,2.507,"[{""rating"":100,""responseTime"":2.507000000000005}]",space,2.587,,489.529,Definitely yes,100,498.795,100,7.905,"[{""rating"":99.02777777777779,""responseTime"":7.153999999999996},{""rating"":100,""responseTime"":7.904999999999973}]",space,0,17,17,17,1,audio/Narrative8Situation8.wav,audio/Narrative7Situation8.wav,audio/Narrative6Situation8.wav,audio/Narrative5Situation8.wav,3,2,5,3,,,8.724,,,,,,,,,,,,,,,,,,,,,,,,,,,,,,,,,,,,
,,,,,,60fb5abacf212cc0bc18199f,2024-02-08_16h03.17.277,group3.1-3.2-social-tom,2023.2.2,MacIntel,58.82352941,65c5074098b851296ff0b7ed,65c5418497964a76ccf45aff,,,,,,,,,,,,,,,,,,,,,,,,,,,,,498.797,1,audio/Narrative7Situation9.wav,500.813,,500.813,509.447,"[[100,3567],[100,3649],[97.9,3733],[92.5,3817],[92.6,3899],[98.2,3983],[100,4067],[100,4150],[100,4234],[100,4316],[100,4400],[100,4483],[100,4566],[100,4651],[100,4733],[100,4816],[100,4899],[100,4984],[100,5066],[100,5149],[100,5234],[100,5316],[100,5399],[100,5483],[100,5566],[100,5649],[100,5733],[100,5816],[100,5900],[100,5985],[100,6066],[100,6150],[100,6233],[100,6316],[100,6399],[100,6483],[100,6566],[100,6649],[100,6733],[100,6816],[100,6900],[100,6983],[100,7066],[100,7150],[100,7233],[100,7317],[100,7400],[100,7483],[100,7566],[100,7650],[100,7733],[100,7816],[100,7900],[100,7983],[100,8066],[100,8150],[100,8234],[100,8316],[100,8400],[100,8483],[100,8550],[100,8633]]",1,0,509.448,511.43,100,1.221,"[{""rating"":100,""responseTime"":1.2210000000000036}]",space,1.451,,511.43,Partially,50,511.437,,,[],,0,18,18,18,1,audio/Narrative8Situation9.wav,audio/Narrative7Situation9.wav,audio/Narrative6Situation9.wav,audio/Narrative5Situation9.wav,3,2,4,3,,,,,,,,,,,,,,,,,,,,,,,,,,,,,,,,,,,,,,,
,,,,,,60fb5abacf212cc0bc18199f,2024-02-08_16h03.17.277,group3.1-3.2-social-tom,2023.2.2,MacIntel,58.82352941,65c5074098b851296ff0b7ed,65c5418497964a76ccf45aff,,,,,,,,,,,,,,,,,,,,,,,,,,,523.566,526.148,526.161,2,audio/Narrative13Situation2.wav,526.161,,526.161,555.899,"[[100,3971],[99.6,4055],[96.5,4137],[14.3,4302],[13.1,4388],[13.1,4470],[13.1,4552],[13.1,4636],[13.1,4720],[9.7,4802],[1.5,4887],[1.4,4971],[1.7,5054],[1.7,5137],[1.7,5220],[1.7,5305],[1.7,5387],[1.4,8637],[8.9,8721],[99.9,9305],[99.3,9387],[99.3,9470],[99.3,9554],[99.3,9637],[99.3,9720],[99.6,9804],[100,9888],[100,9970],[100,10053],[100,10137],[100,10220],[100,10304],[100,10388],[100,10470],[100,10554],[100,10637],[100,10721],[100,10803],[100,10887],[100,10971],[100,11055],[100,11138],[100,11220],[99.4,11304],[99.4,11388],[99.4,11470],[99.4,11554],[99.4,11638],[99.4,11720],[99.4,11803],[99.4,11887],[99.4,11970],[99.4,12053],[99.4,12137],[99.4,12220],[99.4,12304],[99.4,12388],[99.4,12470],[99.4,12554],[99.4,12637],[99.4,12721],[99.4,12805],[99.4,12887],[99.4,12972],[99.4,13054],[99.4,13137],[99.4,13220],[99.4,13304],[99.4,13387],[99.4,13470],[99.4,13555],[99.4,13638],[99.4,13720],[99.4,13804],[99.4,13887],[99.4,13972],[99.4,14054],[99.4,14137],[99.4,14221],[99.4,14304],[99.4,14387],[99.4,14471],[99.4,14554],[99.4,14637],[99.4,14721],[99.4,14805],[99.4,14887],[99.4,14971],[99.4,15054],[99.4,15137],[99.4,15221],[99.4,15304],[99.4,15387],[99.4,15470],[99.4,15554],[99.4,15637],[99.4,15720],[99.4,15805],[99.4,15887],[99.4,15971],[99.4,16055],[99.4,16138],[99.4,16220],[99.4,16304],[99.4,16387],[99.4,16471],[99.4,16554],[99.4,16637],[99.4,16721],[99.4,16804],[99.4,16887],[99.4,16971],[99.4,17054],[99.4,17137],[99.4,17223],[99.4,17304],[99.4,17388],[99.4,17471],[99.4,17554],[99.4,17637],[99.4,17721],[99.4,17806],[99.4,17887],[99.4,17971],[99.4,18054],[99.4,18137],[99.4,18221],[99.4,18305],[99.4,18387],[99.4,18471],[99.4,18554],[99.4,18637],[99.4,18721],[99.4,18804],[99.4,18889],[69,18971],[42.2,19054],[32.2,19137],[18.9,19221],[8.5,19304],[4.2,19388],[2.5,19471],[1.5,19554],[0.7,19637],[0.6,19721],[0.4,19804],[0.4,19888],[0.4,19971],[0.4,20055],[0.4,20138],[0.4,20221],[0.4,20305],[0.4,20388],[0.4,20471],[0.4,20554],[0.4,20639],[0.4,20721],[0.4,20805],[0.4,20888],[0.4,20971],[0.4,21054],[0.4,21138],[0.4,21221],[0.4,21305],[0.4,21389],[0.4,21471],[0.4,21554],[0.4,21637],[0.4,21721],[0.4,21806],[0.4,21888],[0.4,21971],[0.4,22055],[0.4,22138],[0.4,22221],[0.4,22305],[0.4,22388],[0.4,22471],[0.4,22554],[0.4,22638],[0.4,22721],[0.4,22805],[0.4,22888],[0.4,22971],[0.4,23054],[0.4,23138],[0.4,23221],[0.4,23304],[0.4,23388],[0.4,23471],[0.4,23554],[0.4,23638],[0.4,23721],[0.4,23806],[36.7,23888],[47.5,23971],[52.6,24055],[57.4,24138],[64.2,24222],[67.6,24305],[69,24389],[69.6,24473],[69.6,24554],[69.6,24638],[69.6,24722],[69.6,24805],[69.6,24888],[69.6,24971],[69.6,25055],[69.6,25138],[69.6,25222],[69.6,25306],[69.6,25388],[69.6,25471],[69.6,25555],[69.6,25638],[69.6,25721],[69.6,25805],[69.6,25888],[69.6,25971],[69.6,26055],[69.6,26139],[69.6,26221],[69.6,26308],[69.6,26388],[69.6,26471],[69.6,26555],[69.6,26638],[69.6,26722],[69.6,26805],[67.8,26888],[54.6,26972],[42.6,27055],[36.5,27138],[30.4,27222],[23.5,27306],[17.1,27388],[15.3,27475],[14.2,27555],[14.3,27638],[14.3,27721],[14.3,27805],[14.3,27889],[14.3,27971],[14.3,28055],[14.3,28138],[14.3,28221],[14.3,28305],[14.3,28388],[14.3,28471],[14.3,28555],[14.3,28638],[14.3,28721],[14.3,28807],[14.3,28888],[14.3,28972],[14.3,29056],[14.3,29138],[14.3,29221],[14.3,29306],[14.3,29388],[14.3,29471],[14.3,29555],[14.3,29635],[14.3,29705]]",1,0,555.9,555.907,,,[],,,,555.907,Not at all,0,555.914,,,[],,0,0,0,0,1,audio/Narrative13Situation2.wav,audio/Narrative13Situation2.wav,audio/Narrative13Situation2.wav,audio/Narrative13Situation2.wav,2,2,2,2,,,,,511.439,523.565,space,11.604,,,,,,,,,,,,,,,,,,,,,,,,,,,,,,,
,,,,,,60fb5abacf212cc0bc18199f,2024-02-08_16h03.17.277,group3.1-3.2-social-tom,2023.2.2,MacIntel,58.82352941,65c5074098b851296ff0b7ed,65c5418497964a76ccf45aff,,,,,,,,,,,,,,,,,,,,,,,,,,,,,555.915,2,audio/Narrative6Situation1.wav,557.916,,557.916,584.502,"[[13.1,3649],[9,3733],[8.2,3816],[8.2,3899],[8.2,3983],[8.2,4066],[8.2,4150],[8.2,4236],[8.2,4316],[8.2,4399],[8.2,4483],[8.2,4566],[8.2,4649],[8.2,4733],[8.2,4816],[8.2,4899],[8.2,4983],[8.2,5067],[8.2,5149],[8.2,5233],[8.2,5316],[36.3,5399],[100,5733],[100,5816],[100,5900],[100,5983],[100,6066],[100,6150],[100,6234],[100,6316],[100,6399],[100,6483],[100,6566],[100,6650],[100,6733],[100,6817],[100,6900],[100,6983],[100,7069],[100,7150],[100,7233],[100,7316],[100,7401],[100,7483],[100,7566],[100,7649],[100,7733],[100,7816],[100,7900],[100,7983],[100,8066],[100,8149],[100,8233],[100,8316],[100,8400],[100,8483],[100,8566],[100,8650],[100,8733],[100,8816],[100,8900],[100,8983],[100,9066],[100,9151],[100,9233],[100,9317],[100,9400],[100,9483],[100,9566],[100,9650],[100,9733],[100,9816],[100,9899],[100,9983],[100,10066],[100,10150],[100,10233],[100,10316],[100,10400],[100,10483],[100,10568],[100,10650],[100,10733],[100,10817],[100,10900],[100,10983],[100,11066],[100,11150],[99.6,11233],[98.9,11316],[98.9,11400],[98.9,11483],[93.6,11567],[85.6,11650],[79.9,11734],[62.1,11817],[49.9,11900],[42.6,11983],[38.2,12067],[34.9,12150],[33.9,12233],[35,12317],[36.7,12400],[36.7,12483],[36.3,12567],[36.3,12650],[36.3,12733],[36.3,12817],[36.3,12901],[36.3,12985],[36.3,13066],[36.3,13151],[36.3,13233],[36.3,13317],[36.3,13400],[36.3,13483],[36.3,13567],[36.3,13650],[36.3,13734],[36.3,13817],[36.3,13900],[36.3,13983],[36.3,14068],[36.3,14150],[37.9,14233],[55.7,14317],[82.4,14651],[82.2,14734],[82.1,14816],[82.1,14901],[82.1,14983],[79,15067],[56.8,15150],[52.5,15234],[52.6,15318],[52.8,15400],[51.7,15485],[39.7,15567],[37.5,15650],[37.4,15734],[37.4,15817],[37.4,15900],[37.4,15983],[32.1,16067],[28.6,16150],[28.3,16233],[28.3,16317],[28.6,16400],[28.8,16483],[28.9,16567],[29.2,16650],[29.6,16733],[29.7,16817],[29.7,16900],[29.7,16984],[29.7,17067],[29.9,17150],[29.9,17233],[30,17317],[30,17400],[30.3,17484],[30.7,17567],[30.7,17650],[30.7,17734],[30.7,17818],[30.7,17900],[30.7,17983],[30.7,18067],[30.7,18150],[30.7,18234],[30.7,18317],[30.7,18400],[30.7,18484],[30.7,18567],[30.7,18651],[30.7,18734],[30.7,18818],[30.7,18900],[30.7,18984],[30.7,19068],[30.7,19150],[30.7,19234],[30.7,19317],[30.7,19400],[30.7,19483],[30.7,19567],[30.7,19650],[30.7,19734],[30.7,19817],[30.7,19900],[30.7,19984],[30.7,20067],[30.7,20151],[30.7,20234],[31.8,20317],[32.6,20401],[32.8,20484],[33.1,20567],[33.1,20651],[33.1,20735],[33.1,20817],[33.5,20900],[48.5,20984],[86.8,21901],[88.8,21984],[90,22067],[91.5,22151],[93.2,22234],[95,22317],[96,22401],[96.1,22485],[96.4,22567],[96.5,22651],[96.5,22734],[96.5,22817],[96.5,22901],[96.5,22984],[96.7,23069],[96.7,23155],[96.7,23234],[96.7,23318],[96.7,23401],[96.7,23485],[96.7,23567],[96.7,23651],[96.7,23734],[97.5,23818],[100,23901],[100,23984],[100,24067],[100,24151],[100,24235],[100,24317],[100,24401],[100,24484],[100,24568],[100,24651],[100,24734],[100,24817],[100,24901],[100,24984],[100,25068],[100,25151],[100,25234],[100,25318],[100,25401],[100,25484],[100,25567],[100,25651],[100,25734],[100,25817],[100,25901],[100,25985],[100,26069],[100,26151],[100,26235],[100,26318],[100,26401],[100,26478],[100,26551]]",1,0,584.502,588.718,63.05555556,3.973,"[{""rating"":100,""responseTime"":2.3559999999999945},{""rating"":63.05555555555556,""responseTime"":3.9729999999999563}]",space,3.691,,588.719,Not at all,0,588.723,,,[],,0,1,1,1,1,audio/Narrative7Situation1.wav,audio/Narrative8Situation1.wav,audio/Narrative5Situation1.wav,audio/Narrative6Situation1.wav,2,5,5,2,,,,,,,,,,,,,,,,,,,,,,,,,,,,,,,,,,,,,,,
,,,,,,60fb5abacf212cc0bc18199f,2024-02-08_16h03.17.277,group3.1-3.2-social-tom,2023.2.2,MacIntel,58.82352941,65c5074098b851296ff0b7ed,65c5418497964a76ccf45aff,,,,,,,,,,,,,,,,,,,,,,,,,,,,,588.724,2,audio/Narrative6Situation2.wav,591.735,,591.735,620.238,"[[61.9,2984],[0.3,3484],[0.6,3567],[0.6,3649],[0.6,3734],[0.6,3817],[0.6,3899],[0.6,3982],[0.6,4067],[0.6,4149],[0.6,4234],[0.6,4317],[0.6,4399],[0.6,4484],[1.4,4567],[17.2,4650],[22.2,4734],[22.5,4817],[22.6,4899],[22.8,4984],[22.8,5067],[65.4,5484],[67.9,5567],[68.3,5649],[68.3,5732],[68.2,5817],[68.2,5899],[68.2,5984],[68.2,6067],[68.2,6149],[68.2,6234],[68.2,6317],[69,6400],[83.3,6484],[92.4,6567],[98.8,6650],[100,6734],[100,6817],[100,6899],[100,6984],[100,7067],[100,7149],[100,7234],[100,7317],[100,7400],[100,7484],[100,7567],[100,7650],[100,7734],[100,7817],[100,7900],[100,7984],[100,8067],[100,8150],[100,8234],[100,8317],[100,8400],[100,8484],[100,8567],[100,8649],[100,8735],[100,8817],[100,8900],[100,8984],[100,9067],[100,9150],[100,9234],[100,9317],[100,9400],[100,9484],[100,9567],[99.7,9650],[99.7,9734],[99.7,9817],[99.7,9900],[99.7,9984],[99.7,10067],[98.9,10150],[61.9,10234],[39.4,10317],[26.5,10400],[20.6,10485],[18.2,10567],[18.2,10650],[18.2,10735],[18.2,10817],[14.3,10900],[12.2,10984],[12.2,11067],[12.2,11150],[12.2,11234],[12.2,11317],[12.2,11400],[12.2,11484],[12.2,11567],[12.2,11651],[12.2,11734],[12.2,11817],[12.2,11900],[12.2,11984],[12.2,12067],[12.2,12150],[12.2,12235],[12.2,12317],[12.2,12400],[12.2,12484],[12.2,12567],[12.2,12650],[12.2,12734],[12.2,12817],[12.2,12900],[12.2,12984],[12.2,13067],[12.2,13150],[12.2,13234],[12.2,13317],[12.2,13400],[12.2,13484],[12.2,13567],[12.2,13650],[12.2,13734],[12.2,13817],[12.2,13900],[12.2,13985],[12.2,14067],[12.2,14150],[12.2,14235],[12.2,14317],[12.2,14400],[12.2,14484],[12.2,14569],[12.2,14650],[12.2,14735],[12.2,14817],[12.2,14900],[12.2,14984],[12.2,15067],[12.2,15150],[12.2,15234],[12.2,15317],[12.2,15400],[12.2,15484],[12.2,15567],[12.2,15650],[12.2,15735],[12.2,15817],[12.2,15900],[25.4,15985],[52.6,16067],[64,16150],[66.1,16235],[69.7,16317],[74.9,16400],[83.1,16484],[89.4,16567],[91.7,16650],[91.7,16735],[90.6,16817],[90.6,16900],[90.6,16985],[91.9,17067],[93.3,17151],[93.3,17235],[93.3,17317],[93.3,17401],[93.3,17486],[93.3,17567],[93.3,17650],[93.3,17735],[93.3,17817],[93.3,17900],[93.3,17985],[93.3,18067],[93.3,18151],[93.3,18234],[93.3,18318],[93.3,18400],[93.3,18484],[93.3,18567],[93.3,18650],[93.3,18735],[93.3,18817],[93.3,18901],[93.3,18985],[93.3,19067],[93.3,19151],[93.3,19235],[93.3,19317],[93.3,19400],[93.3,19485],[93.3,19567],[93.3,19650],[93.3,19735],[93.3,19817],[93.3,19900],[93.3,19985],[93.3,20068],[93.3,20150],[93.3,20235],[93.3,20317],[93.3,20400],[93.3,20485],[93.3,20567],[93.3,20650],[93.3,20735],[93.3,20817],[93.3,20901],[93.3,20985],[93.3,21067],[93.3,21151],[93.3,21235],[93.3,21318],[93.3,21400],[93.3,21485],[93.3,21567],[93.3,21651],[93.3,21735],[93.3,21817],[93.3,21901],[93.3,21985],[93.3,22068],[93.3,22150],[93.3,22235],[93.3,22317],[93.3,22401],[93.3,22485],[93.3,22567],[93.3,22651],[93.3,22735],[93.3,22817],[93.3,22901],[93.3,22985],[93.3,23067],[93.3,23151],[93.3,23235],[93.3,23317],[93.3,23401],[93.3,23485],[93.3,23567],[93.3,23650],[93.3,23735],[93.3,23818],[93.3,23901],[93.3,23985],[93.3,24067],[93.3,24151],[93.3,24235],[93.3,24317],[93.3,24401],[93.3,24485],[93.3,24567],[93.3,24651],[95.1,24735],[97.5,24817],[98.8,24901],[100,24985],[100,25068],[100,25151],[100,25235],[100,25317],[100,25401],[100,25485],[100,25568],[100,25651],[100,25735],[100,25818],[100,25901],[100,25985],[100,26067],[100,26151],[100,26235],[100,26318],[100,26401],[100,26485],[100,26567],[100,26651],[100,26735],[100,26818],[100,26901],[100,26985],[100,27068],[100,27151],[100,27235],[100,27318],[100,27401],[100,27485],[100,27568],[100,27651],[100,27735],[100,27817],[100,27901],[100,27985],[100,28068],[100,28151],[100,28235],[100,28318],[100,28399],[100,28468]]",1,0,620.239,625.741,76.11111111,4.454,"[{""rating"":76.11111111111111,""responseTime"":4.453999999999951}]",space,4.952,,625.742,Definitely yes,100,625.748,,,[],,0,2,2,2,1,audio/Narrative7Situation2.wav,audio/Narrative8Situation2.wav,audio/Narrative5Situation2.wav,audio/Narrative6Situation2.wav,3,3,3,3,,,,,,,,,,,,,,,,,,,,,,,,,,,,,,,,,,,,,,,
,,,,,,60fb5abacf212cc0bc18199f,2024-02-08_16h03.17.277,group3.1-3.2-social-tom,2023.2.2,MacIntel,58.82352941,65c5074098b851296ff0b7ed,65c5418497964a76ccf45aff,,,,,,,,,,,,,,,,,,,,,,,,,,,,,625.748,2,audio/Narrative6Situation3.wav,630.754,,630.754,643.372,"[[999,1],[999,83],[999,167],[999,251],[999,326],[999,400],[999,484],[999,567],[999,649],[999,735],[999,817],[999,899],[999,984],[999,1067],[999,1149],[999,1234],[999,1317],[999,1399],[999,1484],[999,1567],[999,1650],[999,1734],[999,1817],[999,1900],[999,1984],[999,2067],[999,2150],[999,2234],[999,2317],[999,2400],[999,2484],[999,2567],[999,2649],[999,2734],[999,2817],[999,2899],[999,2984],[999,3068],[999,3150],[999,3234],[999,3317],[999,3400],[999,3484],[999,3567],[999,3651],[999,3734],[999,3817],[999,3900],[999,3984],[999,4067],[999,4150],[999,4235],[999,4317],[999,4399],[4,4485],[1.5,4567],[0.3,4650],[0.1,5234],[0.1,5317],[0.1,5400],[0.1,5484],[0.1,5567],[0.1,5650],[0.1,5734],[0.1,5817],[0.1,5900],[0.1,5984],[0.1,6067],[0.1,6150],[0.1,6234],[0.1,6317],[0.1,6400],[0.1,6484],[0.1,6568],[0.1,6650],[0.1,6734],[0.1,6817],[0.1,6900],[4.7,6984],[100,7484],[100,7567],[100,7650],[100,7734],[100,7817],[100,7900],[100,7984],[100,8067],[100,8150],[100,8235],[100,8318],[100,8400],[100,8484],[100,8568],[100,8650],[100,8734],[100,8817],[100,8900],[100,8984],[100,9067],[100,9151],[100,9234],[100,9317],[100,9400],[100,9484],[100,9567],[100,9650],[100,9734],[100,9817],[100,9900],[100,9985],[100,10067],[100,10150],[100,10235],[100,10317],[100,10400],[100,10484],[100,10567],[100,10650],[100,10734],[100,10817],[100,10901],[100,10984],[100,11067],[100,11150],[100,11235],[100,11318],[100,11400],[100,11485],[100,11567],[100,11650],[100,11735],[100,11817],[100,11900],[100,11985],[100,12067],[100,12150],[100,12234],[100,12317],[100,12400],[100,12485],[100,12550]]",1,0,643.372,647.306,50.27777778,3.408,"[{""rating"":65,""responseTime"":1.72199999999998},{""rating"":50.27777777777778,""responseTime"":3.4079999999999018}]",space,3.401,,647.306,Not at all,0,647.313,,,[],,0,3,3,3,1,audio/Narrative7Situation3.wav,audio/Narrative8Situation3.wav,audio/Narrative5Situation3.wav,audio/Narrative6Situation3.wav,8,4,3,5,,,,,,,,,,,,,,,,,,,,,,,,,,,,,,,,,,,,,,,
,,,,,,60fb5abacf212cc0bc18199f,2024-02-08_16h03.17.277,group3.1-3.2-social-tom,2023.2.2,MacIntel,58.82352941,65c5074098b851296ff0b7ed,65c5418497964a76ccf45aff,,,,,,,,,,,,,,,,,,,,,,,,,,,,,647.314,2,audio/Narrative6Situation4.wav,649.322,,649.323,661.94,"[[49.9,1817],[49.6,1899],[49.3,1984],[48.5,2066],[39.2,2149],[11.9,2234],[3.3,2316],[2.2,2399],[1.9,2483],[1.7,2566],[1.4,2649],[0.7,2733],[0.4,2816],[0.3,2899],[0.3,2983],[0.3,3066],[0.3,3149],[0.3,3233],[0.3,3316],[0.3,3399],[0.3,3483],[0.3,3566],[0.3,3649],[0.3,3733],[0.3,3817],[0.3,3899],[0.3,3983],[0.3,4066],[0.3,4149],[0.3,4233],[0.3,4316],[0.3,4399],[0.3,4483],[0.3,4566],[1.9,4649],[7.6,4733],[19.6,4816],[36.4,4899],[48.2,4983],[56.3,5066],[59.3,5151],[63.8,5233],[65.8,5316],[65.8,5401],[65.8,5483],[65.8,5566],[65.8,5649],[65.8,5734],[65.8,5816],[65.8,5899],[65.8,5983],[65.8,6066],[65.8,6149],[65.8,6233],[65.8,6317],[65.8,6399],[65.8,6483],[65.8,6567],[65.8,6649],[65.8,6733],[65.8,6816],[65.8,6901],[65.8,6983],[65.8,7066],[65.8,7149],[65.8,7233],[65.8,7316],[65.8,7399],[65.8,7484],[65.8,7566],[65.8,7649],[65.8,7734],[65.8,7816],[65.8,7899],[65.8,7983],[65.8,8066],[65.8,8149],[65.8,8233],[65.8,8317],[65.8,8401],[65.8,8483],[65.8,8567],[65.8,8649],[65.8,8733],[65.8,8816],[65.8,8899],[65.8,8983],[65.8,9066],[65.8,9149],[65.8,9233],[65.8,9317],[65.8,9399],[65.8,9484],[65.8,9566],[65.8,9652],[65.8,9733],[65.8,9816],[65.8,9899],[65.8,9984],[65.8,10066],[65.8,10151],[65.8,10233],[65.8,10317],[65.8,10399],[65.8,10483],[65.8,10566],[65.8,10651],[65.8,10733],[65.8,10817],[66.3,10899],[70,10983],[71.4,11066],[71.4,11149],[71,11234],[70.7,11316],[70.7,11399],[70.7,11484],[70.7,11567],[70.7,11649],[70.7,11733],[70.7,11817],[70.7,11899],[70.7,11983],[70.7,12067],[70.7,12151],[70.7,12233],[70.7,12317],[70.7,12401],[70.7,12483],[70.7,12550]]",1,0,661.94,663.991,0,1.69,"[{""rating"":0,""responseTime"":1.6899999999999409}]",space,1.53,,663.992,Partially,50,663.998,,,[],,0,4,4,4,1,audio/Narrative7Situation4.wav,audio/Narrative8Situation4.wav,audio/Narrative5Situation4.wav,audio/Narrative6Situation4.wav,3,3,1,2,,,,,,,,,,,,,,,,,,,,,,,,,,,,,,,,,,,,,,,
,,,,,,60fb5abacf212cc0bc18199f,2024-02-08_16h03.17.277,group3.1-3.2-social-tom,2023.2.2,MacIntel,58.82352941,65c5074098b851296ff0b7ed,65c5418497964a76ccf45aff,,,,,,,,,,,,,,,,,,,,,,,,,,,,,663.999,2,audio/Narrative6Situation5.wav,666.007,,666.007,673.958,"[[21.7,4483],[100,4817],[99.7,4900],[99.6,4985],[96,5067],[84.4,5150],[76.3,5234],[74.3,5317],[74.3,5401],[74.3,5483],[74.3,5567],[74.3,5650],[74.3,5733],[74.3,5817],[74.3,5900],[74.3,5983],[74.3,6067],[74.3,6150],[74.3,6234],[74.3,6317],[74.3,6400],[74.3,6484],[74.3,6567],[74.3,6651],[74.3,6734],[74.3,6817],[74.3,6900],[74.3,6984],[74.3,7067],[74.3,7150],[74.3,7234],[74.3,7317],[74.3,7400],[74.3,7484],[74.3,7567],[74.3,7650],[74.3,7735],[74.3,7817],[74.3,7884]]",1,0,673.959,677.524,25.55555556,3.238,"[{""rating"":25.555555555555554,""responseTime"":3.2379999999999427}]",space,3.017,,677.524,Definitely yes,100,677.531,,,[],,0,5,5,5,1,audio/Narrative7Situation5.wav,audio/Narrative8Situation5.wav,audio/Narrative5Situation5.wav,audio/Narrative6Situation5.wav,5,2,5,2,,,,,,,,,,,,,,,,,,,,,,,,,,,,,,,,,,,,,,,
,,,,,,60fb5abacf212cc0bc18199f,2024-02-08_16h03.17.277,group3.1-3.2-social-tom,2023.2.2,MacIntel,58.82352941,65c5074098b851296ff0b7ed,65c5418497964a76ccf45aff,,,,,,,,,,,,,,,,,,,,,,,,,,,,,677.532,2,audio/Narrative6Situation6.wav,679.541,,679.541,690.625,"[[999,1],[999,82],[999,166],[999,250],[999,326],[999,399],[999,482],[999,567],[999,649],[999,732],[999,816],[999,899],[999,982],[999,1066],[999,1149],[999,1232],[999,1316],[999,1399],[999,1482],[999,1566],[999,1649],[999,1732],[999,1816],[999,1899],[999,1983],[999,2066],[999,2150],[999,2232],[999,2316],[999,2399],[999,2483],[999,2566],[999,2649],[999,2733],[999,2816],[999,2899],[999,2982],[999,3066],[999,3150],[999,3233],[999,3316],[999,3399],[999,3482],[999,3566],[999,3649],[999,3732],[999,3816],[999,3899],[999,3982],[999,4066],[999,4150],[999,4233],[999,4316],[999,4399],[999,4483],[999,4566],[999,4649],[999,4733],[999,4816],[999,4900],[999,4983],[999,5066],[38.8,5149],[43.3,5233],[44.4,5316],[46.7,5399],[49.4,5483],[49.7,5567],[49.7,5649],[49.7,5733],[49.7,5820],[49.7,5899],[46.9,5983],[37.8,6066],[36.8,6149],[36.8,6233],[36.8,6316],[36.8,6399],[35.7,6483],[25.4,6566],[20.4,6650],[20,6732],[19.9,6817],[19.9,6899],[19.9,6983],[19.9,7066],[19.6,7149],[19.6,7233],[19.6,7316],[19.6,7400],[19.6,7483],[19.6,7567],[29.3,7649],[9.2,8400],[19.3,8816],[22.1,8899],[22.6,8983],[24.3,9066],[26.3,9150],[26.8,9233],[26.8,9317],[26.8,9400],[26.8,9483],[26.8,9567],[26.8,9650],[26.5,9733],[26.4,9816],[26.4,9900],[26.4,9983],[26.4,10067],[26.4,10149],[26.4,10233],[26.4,10316],[26.4,10400],[26.4,10483],[26.4,10566],[26.4,10649],[26.4,10733],[26.4,10816],[26.4,10900],[26.4,10978],[26.4,11050]]",1,0,690.626,693.092,58.05555556,2.089,"[{""rating"":58.05555555555556,""responseTime"":2.0890000000000555}]",space,1.918,,693.092,Not at all,0,693.099,,,[],,0,6,6,6,1,audio/Narrative7Situation6.wav,audio/Narrative8Situation6.wav,audio/Narrative5Situation6.wav,audio/Narrative6Situation6.wav,3,2,3,2,,,,,,,,,,,,,,,,,,,,,,,,,,,,,,,,,,,,,,,
,,,,,,60fb5abacf212cc0bc18199f,2024-02-08_16h03.17.277,group3.1-3.2-social-tom,2023.2.2,MacIntel,58.82352941,65c5074098b851296ff0b7ed,65c5418497964a76ccf45aff,,,,,,,,,,,,,,,,,,,,,,,,,,,,,693.099,2,audio/Narrative6Situation7.wav,698.11,,698.11,722.979,"[[57.9,1814],[57.9,1899],[58.1,1982],[58.2,2065],[59.4,2150],[64.2,2231],[69.4,2315],[74.6,2399],[76.3,2481],[76.5,2565],[76.5,2649],[76.5,2731],[76.5,2815],[76.5,2899],[76.5,2981],[76.5,3065],[76.5,3149],[76.5,3232],[76.5,3314],[76.5,3399],[76.5,3481],[76.5,3567],[76.5,3649],[76.5,3731],[76.5,3815],[76.5,3899],[76.5,3982],[76.5,4065],[76.5,4149],[76.5,4231],[76.5,4315],[76.5,4399],[76.5,4481],[76.5,4565],[76.5,4649],[76.5,4734],[76.5,4815],[76.5,4904],[76.5,4982],[76.5,5065],[76.5,5149],[76.5,5232],[76.5,5315],[76.5,5399],[76.5,5482],[76.5,5565],[76.5,5649],[76.5,5732],[76.5,5815],[76.5,5899],[76.5,5981],[76.5,6065],[76.5,6149],[76.5,6232],[76.5,6315],[76.5,6399],[76.5,6482],[76.5,6565],[76.5,6649],[76.5,6732],[76.5,6815],[76.5,6899],[76.5,6982],[76.5,7065],[76.5,7149],[76.5,7232],[76.5,7315],[76.5,7399],[76.5,7481],[76.5,7565],[76.5,7649],[76.5,7732],[76.5,7817],[76.5,7899],[76.5,7982],[76.5,8067],[76.5,8149],[76.5,8232],[76.5,8315],[76.5,8399],[76.5,8484],[76.5,8565],[76.5,8649],[76.5,8732],[78.3,8817],[80,8899],[82.4,8982],[89.2,9065],[93.8,9149],[96,9232],[96.8,9315],[97.9,9399],[99.3,9482],[99.6,9565],[99.9,9649],[100,9732],[100,9815],[100,9899],[100,9982],[100,10065],[100,10149],[100,10234],[100,10315],[100,10399],[100,10482],[100,10565],[100,10649],[100,10732],[100,10817],[100,10899],[100,10982],[100,11065],[100,11149],[100,11232],[100,11315],[100,11399],[100,11482],[100,11565],[100,11649],[100,11732],[100,11815],[100,11899],[100,11982],[100,12065],[100,12149],[100,12234],[100,12315],[100,12399],[100,12482],[100,12565],[100,12649],[100,12732],[100,12815],[100,12899],[100,12982],[100,13065],[100,13149],[100,13232],[100,13315],[100,13399],[100,13482],[100,13567],[100,13649],[100,13732],[100,13817],[100,13899],[100,13982],[100,14065],[100,14149],[100,14232],[100,14315],[100,14399],[100,14482],[100,14567],[100,14649],[100,14732],[100,14817],[100,14899],[100,14984],[100,15067],[100,15149],[100,15232],[100,15317],[100,15399],[100,15482],[100,15565],[100,15649],[100,15732],[100,15815],[100,15899],[100,15984],[100,16065],[100,16149],[100,16232],[100,16317],[100,16403],[100,16484],[100,16565],[100,16649],[100,16734],[100,16817],[100,16899],[100,16984],[100,17067],[100,17149],[100,17232],[100,17317],[100,17399],[100,17485],[100,17567],[100,17649],[100,17732],[100,17817],[100,17899],[100,17982],[100,18067],[100,18149],[100,18232],[100,18317],[100,18399],[100,18485],[100,18567],[100,18649],[100,18732],[100,18817],[100,18899],[100,18982],[100,19067],[100,19149],[100,19232],[100,19317],[100,19399],[100,19484],[100,19567],[100,19649],[100,19732],[100,19817],[100,19899],[100,19984],[100,20067],[100,20150],[100,20234],[100,20317],[100,20399],[100,20484],[100,20567],[100,20649],[100,20732],[100,20817],[100,20899],[100,20984],[100,21067],[100,21149],[100,21234],[100,21317],[100,21400],[100,21484],[100,21567],[100,21650],[100,21734],[100,21817],[100,21899],[100,21984],[100,22067],[100,22149],[100,22234],[100,22317],[100,22399],[100,22484],[100,22567],[100,22650],[100,22734],[100,22817],[100,22899],[100,22984],[100,23067],[100,23149],[100,23234],[100,23317],[100,23399],[100,23484],[100,23567],[100,23653],[100,23734],[100,23817],[100,23900],[100,23984],[100,24067],[100,24149],[99.9,24234],[99.9,24317],[99.9,24400],[99.4,24484],[96.4,24567],[94.2,24650],[93.5,24735],[92.5,24801]]",1,0,722.98,725.695,89.44444444,2.388,"[{""rating"":89.44444444444444,""responseTime"":2.3880000000000337}]",space,2.172,,725.696,Partially,50,725.702,,,[],,0,7,7,7,1,audio/Narrative7Situation7.wav,audio/Narrative8Situation7.wav,audio/Narrative5Situation7.wav,audio/Narrative6Situation7.wav,5,3,4,5,,,,,,,,,,,,,,,,,,,,,,,,,,,,,,,,,,,,,,,
,,,,,,60fb5abacf212cc0bc18199f,2024-02-08_16h03.17.277,group3.1-3.2-social-tom,2023.2.2,MacIntel,58.82352941,65c5074098b851296ff0b7ed,65c5418497964a76ccf45aff,,,,,,,,,,,,,,,,,,,,,,,,,,,,,725.702,2,audio/Narrative6Situation8.wav,730.679,space,730.679,737.545,[],1,0,737.546,739.145,0,1.255,"[{""rating"":0,""responseTime"":1.2549999999999955}]",space,1.058,,739.145,Not at all,0,739.152,,,[],,0,8,8,8,1,audio/Narrative7Situation8.wav,audio/Narrative8Situation8.wav,audio/Narrative5Situation8.wav,audio/Narrative6Situation8.wav,2,3,3,5,4.967,,,,,,,,,,,,,,,,,,,,,,,,,,,,,,,,,,,,,,
,,,,,,60fb5abacf212cc0bc18199f,2024-02-08_16h03.17.277,group3.1-3.2-social-tom,2023.2.2,MacIntel,58.82352941,65c5074098b851296ff0b7ed,65c5418497964a76ccf45aff,,,,,,,,,,,,,,,,,,,,,,,,,,,,,739.153,2,audio/Narrative6Situation9.wav,743.162,,743.162,753.113,[],1,0,753.113,755.447,0.416666667,1.973,"[{""rating"":0.4166666666666652,""responseTime"":1.9729999999999563}]",space,1.788,,755.447,Definitely yes,100,755.455,,,[],,0,9,9,9,1,audio/Narrative7Situation9.wav,audio/Narrative8Situation9.wav,audio/Narrative5Situation9.wav,audio/Narrative6Situation9.wav,2,3,3,4,,,,,,,,,,,,,,,,,,,,,,,,,,,,,,,,,,,,,,,
,,,,,,60fb5abacf212cc0bc18199f,2024-02-08_16h03.17.277,group3.1-3.2-social-tom,2023.2.2,MacIntel,58.82352941,65c5074098b851296ff0b7ed,65c5418497964a76ccf45aff,,,,,,,,,,,,,,,,,,,,,,,,,,,,,755.456,2,audio/Narrative5Situation1.wav,760.464,,760.464,773.764,"[[0.3,4315]]",1,0,773.764,777.381,29.02777778,3.29,"[{""rating"":29.027777777777775,""responseTime"":3.2899999999999636}]",space,3.088,,777.381,Partially,50,777.388,,,[],,0,10,10,10,1,audio/Narrative8Situation1.wav,audio/Narrative7Situation1.wav,audio/Narrative6Situation1.wav,audio/Narrative5Situation1.wav,5,2,2,5,,,,,,,,,,,,,,,,,,,,,,,,,,,,,,,,,,,,,,,
,,,,,,60fb5abacf212cc0bc18199f,2024-02-08_16h03.17.277,group3.1-3.2-social-tom,2023.2.2,MacIntel,58.82352941,65c5074098b851296ff0b7ed,65c5418497964a76ccf45aff,,,,,,,,,,,,,,,,,,,,,,,,,,,,,777.389,2,audio/Narrative5Situation2.wav,780.398,,780.398,809.868,"[[28.5,2399],[28.3,2482],[28.5,2567],[28.5,2649],[27.2,2732],[22.9,2816],[17.5,2899],[10.6,2983],[9.6,3066],[9.6,3149],[9.6,3233],[9.4,3317],[6.1,3399],[3.1,3483],[2.6,3567],[0.8,3649]]",1,0,809.868,812.117,15,2.005,"[{""rating"":15.000000000000002,""responseTime"":2.0049999999999955}]",space,1.705,,812.117,Partially,50,812.121,,,[],,0,11,11,11,1,audio/Narrative8Situation2.wav,audio/Narrative7Situation2.wav,audio/Narrative6Situation2.wav,audio/Narrative5Situation2.wav,3,3,3,3,,,,,,,,,,,,,,,,,,,,,,,,,,,,,,,,,,,,,,,
,,,,,,60fb5abacf212cc0bc18199f,2024-02-08_16h03.17.277,group3.1-3.2-social-tom,2023.2.2,MacIntel,58.82352941,65c5074098b851296ff0b7ed,65c5418497964a76ccf45aff,,,,,,,,,,,,,,,,,,,,,,,,,,,,,812.122,2,audio/Narrative5Situation3.wav,815.135,,815.135,829.052,"[[1.5,2148],[2.4,2231],[0.8,2316],[6.4,3149],[56.4,3231],[72.5,3314],[86.8,3399],[96.9,3481],[97.5,3564],[97.6,3649],[97.6,3731],[97.6,3814],[97.6,3899],[97.6,3981],[97.6,4064],[97.6,4149],[97.4,4231],[97.4,4316],[97.4,4399],[97.4,4481],[97.4,4564],[97.4,4649],[97.4,4731],[97.4,4814],[97.4,4899],[97.2,4983],[92.4,5064],[90.1,5149],[89.3,5231],[89.3,5314],[89.3,5399],[89.3,5481],[89.3,5564],[89.3,5649],[89.3,5731],[89.3,5814],[89.3,5899],[89.3,5981],[89.3,6064],[89.3,6149],[89.3,6231],[89.3,6314],[89.3,6399],[89.3,6481],[89.3,6566],[89.3,6649],[89.3,6731],[89.3,6816],[89.3,6899],[89.3,6981],[89.3,7064],[89.3,7149],[89.3,7233],[89.3,7314],[89.3,7399],[89.3,7481],[89.3,7567],[89.3,7649],[89.3,7731],[89.3,7814],[89.3,7899],[89.3,7981],[89.3,8064],[89.3,8149],[89.3,8231],[89.3,8316],[89.3,8399],[89.3,8481],[89.3,8566],[89.3,8649],[89.3,8731],[89.3,8814],[89.3,8899],[89.3,8981],[89.3,9066],[89.3,9149],[89.3,9231],[89.3,9316],[89.3,9399],[89.3,9481],[89.3,9566],[89.3,9649],[89.3,9734],[89.3,9814],[89.3,9899],[89.3,9981],[89.3,10066],[89.3,10149],[89.3,10231],[89.3,10316],[89.3,10399],[89.3,10481],[89.3,10566],[89.3,10649],[89.3,10731],[89.3,10816],[89.3,10899],[89.3,10983],[89.3,11066],[89.3,11149],[89.3,11233],[89.3,11316],[89.3,11399],[89.3,11483],[89.3,11566],[89.3,11649],[89.3,11733],[89.3,11816],[89.3,11899],[89.3,11981],[89.3,12066],[89.3,12149],[89.3,12231],[89.3,12316],[89.3,12399],[89.3,12481],[89.3,12566],[89.3,12649],[89.3,12731],[89.3,12816],[89.3,12899],[89.3,12983],[89.3,13066],[89.3,13149],[89.3,13233],[89.3,13316],[90.3,13399],[91.8,13483],[93.6,13566],[94.4,13649],[94.6,13731],[94.3,13807],[94.2,13883]]",1,0,829.053,830.084,87.63888889,0.788,"[{""rating"":87.63888888888889,""responseTime"":0.7880000000000109}]",space,0.494,,830.084,Definitely yes,100,830.091,,,[],,0,12,12,12,1,audio/Narrative8Situation3.wav,audio/Narrative7Situation3.wav,audio/Narrative6Situation3.wav,audio/Narrative5Situation3.wav,4,8,5,3,,,,,,,,,,,,,,,,,,,,,,,,,,,,,,,,,,,,,,,
,,,,,,60fb5abacf212cc0bc18199f,2024-02-08_16h03.17.277,group3.1-3.2-social-tom,2023.2.2,MacIntel,58.82352941,65c5074098b851296ff0b7ed,65c5418497964a76ccf45aff,,,,,,,,,,,,,,,,,,,,,,,,,,,,,830.092,2,audio/Narrative5Situation4.wav,831.101,,831.102,851.486,"[[84.2,2316],[3.5,2899],[7.8,2983],[8.5,3066],[8.5,3149],[8.5,3233],[8.5,3316],[8.5,3399],[8.5,3483],[8.5,3567],[8.5,3649],[8.5,3733],[8.5,3816],[8.5,3901],[8.5,3985],[8.5,4066],[8.5,4149],[8.5,4233],[8.5,4316],[8.5,4399],[8.5,4483],[8.5,4566],[8.5,4649],[8.5,4733],[8.5,4816],[8.5,4899],[8.5,4983],[8.5,5066],[8.5,5149],[8.5,5233],[9.3,5316],[13.3,5399],[14,5483],[7.8,5567],[2.6,5649],[2.1,5733],[2.1,5817],[1.1,5899],[6.9,9649],[24.9,9733],[47.8,9816],[68.9,9899],[80.1,9983],[85.1,10067],[91.5,10149],[92.8,10233],[93.3,10317],[99.3,10399],[100,10484],[100,10567],[100,10649],[100,10733],[100,10817],[100,10899],[100,10983],[100,11067],[99.7,11149],[99.6,11233],[99.6,11317],[99.7,11399],[99.9,11483],[99.9,11567],[99.9,11649],[99.6,11733],[94.7,11817],[89.7,11899],[89,11984],[89,12067],[89,12149],[89,12233],[89,12317],[89,12399],[89,12483],[89,12567],[89,12649],[89,12734],[89,12817],[89,12899],[89,12983],[89,13067],[89,13149],[89,13233],[89,13317],[89,13399],[89,13484],[89,13567],[89,13649],[89,13734],[70.6,13817],[66.3,13899],[66.3,13983],[66.3,14067],[66.3,14149],[66.3,14234],[66.3,14317],[66.3,14401],[66.3,14483],[66.3,14567],[71,14651],[76.7,14734],[87.2,14817],[96.7,14899],[100,14984],[100,15067],[100,15151],[100,15234],[98.8,15317],[98.5,15399],[98.5,15485],[98.5,15567],[98.5,15649],[98.5,15733],[98.5,15817],[99.3,15901],[99.4,15984],[99.4,16067],[99.4,16151],[100,16234],[100,16320],[100,16399],[100,16484],[100,16567],[100,16649],[100,16733],[100,16817],[100,16901],[100,16984],[100,17067],[100,17151],[100,17234],[100,17317],[100,17399],[100,17484],[100,17567],[100,17649],[100,17734],[100,17817],[100,17899],[100,17984],[100,18067],[100,18151],[100,18234],[100,18317],[100,18399],[100,18484],[100,18567],[100,18649],[100,18734],[100,18817],[100,18899],[100,18984],[100,19067],[100,19153],[100,19234],[100,19317],[100,19401],[100,19484],[100,19567],[100,19649],[100,19734],[100,19817],[100,19899],[100,19984],[100,20067],[100,20149],[100,20234],[100,20300],[100,20384]]",1,0,851.487,855.97,78.75,3.88,"[{""rating"":78.75,""responseTime"":3.8799999999999955}]",space,3.936,,855.97,Partially,50,855.977,,,[],,0,13,13,13,1,audio/Narrative8Situation4.wav,audio/Narrative7Situation4.wav,audio/Narrative6Situation4.wav,audio/Narrative5Situation4.wav,3,3,2,1,,,,,,,,,,,,,,,,,,,,,,,,,,,,,,,,,,,,,,,
,,,,,,60fb5abacf212cc0bc18199f,2024-02-08_16h03.17.277,group3.1-3.2-social-tom,2023.2.2,MacIntel,58.82352941,65c5074098b851296ff0b7ed,65c5418497964a76ccf45aff,,,,,,,,,,,,,,,,,,,,,,,,,,,,,855.977,2,audio/Narrative5Situation5.wav,860.987,,860.987,876.422,"[[78.2,3650],[68.9,3734],[7.9,3817],[2.9,4150],[8.2,4233],[9.4,4316],[9.6,4400],[9.6,4484],[9.6,4566],[9.6,4650],[9.6,4733],[9.6,4817],[9.6,4900],[9.6,4984],[9.3,5067],[9.3,5150],[9.3,5233],[9.3,5316],[9.3,5400],[9.3,5483],[9.3,5567],[9.3,5650],[9.3,5734],[9.3,5816],[9.3,5900],[9.3,5984],[9.2,6066],[9.2,6150],[9.2,6233],[9.2,6317],[9.2,6400],[9.2,6483],[9.2,6566],[9.2,6650],[9.2,6733],[9.2,6816],[9.2,6901],[9.2,6983],[9.2,7067],[9.2,7150],[9.2,7234],[9.2,7317],[9.2,7400],[9.2,7484],[9,7567],[8.2,7650],[7.9,7733],[7.9,7817],[7.9,7901],[6.8,7983]]",1,0,876.422,877.221,0.138888889,0.554,"[{""rating"":0.1388888888888884,""responseTime"":0.5539999999999736}]",space,0.256,,877.221,Definitely yes,100,877.228,,,[],,0,14,14,14,1,audio/Narrative8Situation5.wav,audio/Narrative7Situation5.wav,audio/Narrative6Situation5.wav,audio/Narrative5Situation5.wav,2,5,2,5,,,,,,,,,,,,,,,,,,,,,,,,,,,,,,,,,,,,,,,
,,,,,,60fb5abacf212cc0bc18199f,2024-02-08_16h03.17.277,group3.1-3.2-social-tom,2023.2.2,MacIntel,58.82352941,65c5074098b851296ff0b7ed,65c5418497964a76ccf45aff,,,,,,,,,,,,,,,,,,,,,,,,,,,,,877.229,2,audio/Narrative5Situation6.wav,880.238,,880.238,885.925,"[[5.8,4816],[62.6,5400],[65.6,5482],[66.8,5566],[67.8,5634]]",1,0,885.925,888.255,69.58333333,2.037,"[{""rating"":69.58333333333333,""responseTime"":2.0370000000000346}]",space,1.79,,888.256,Definitely yes,100,888.26,,,[],,0,15,15,15,1,audio/Narrative8Situation6.wav,audio/Narrative7Situation6.wav,audio/Narrative6Situation6.wav,audio/Narrative5Situation6.wav,2,3,2,3,,,,,,,,,,,,,,,,,,,,,,,,,,,,,,,,,,,,,,,
,,,,,,60fb5abacf212cc0bc18199f,2024-02-08_16h03.17.277,group3.1-3.2-social-tom,2023.2.2,MacIntel,58.82352941,65c5074098b851296ff0b7ed,65c5418497964a76ccf45aff,,,,,,,,,,,,,,,,,,,,,,,,,,,,,888.26,2,audio/Narrative5Situation7.wav,892.273,,892.273,913.324,"[[68.6,4566],[66.3,4649],[65,4732],[63.3,4816],[61.9,4899],[60.3,4981],[55.4,5066],[53.6,5149],[53.6,5231],[53.6,5316],[53.6,5399],[53.6,5482],[53.6,5566],[53.6,5649],[53.6,5732],[56.8,5816],[82.8,5899],[92.2,5982],[93.2,6066],[93.2,6149],[93.2,6231],[93.1,6316],[84.3,6399],[76.1,6482],[75.7,6566],[75.7,6649],[75.7,6732],[75.7,6816],[75.7,6899],[75.7,6982],[75.8,7066],[76.1,7149],[76.3,7232],[76.3,7317],[76.5,7399],[79,7482],[80.4,7566],[80.7,7649],[80.7,7732],[80.8,7816],[80.8,7899],[80.8,7984],[80.8,8067],[80.8,8149],[80.8,8232],[80.8,8316],[80.8,8399],[80.8,8482],[80.8,8567],[80.8,8649],[80.8,8734],[80.8,8817],[81,8899],[81,8982],[81,9066],[81,9149],[81,9232],[81.1,9317],[81.1,9399],[81.1,9482],[81.1,9566],[81.1,9649],[81.3,9734],[81.3,9817],[81.3,9899],[81.3,9984],[81.3,10066],[81.3,10149],[81.3,10232],[81.3,10317],[80.8,10399],[80.1,10482],[80.1,10567],[80,10649],[80,10732],[79.3,10817],[76.7,10899],[75.4,10982],[73.5,11067],[72.1,11149],[71.4,11232],[70.7,11316],[68.5,11399],[66.8,11482],[65.6,11567],[65.4,11649],[65.4,11734],[65.4,11817],[65.4,11899],[64.6,11982],[62.9,12066],[60.1,12149],[60.1,12234],[60.1,12316],[60.1,12399],[60.1,12482],[60.1,12567],[60.1,12650],[60.1,12732],[60.1,12817],[60.1,12899],[60.1,12982],[60.1,13066],[60.1,13149],[60.1,13232],[60.1,13316],[60.1,13399],[60.1,13484],[59.9,13566],[59.4,13649],[59.4,13732],[59.4,13816],[59.3,13899],[58.8,13984],[56.7,14067],[56.3,14149],[56.3,14232],[56.3,14317],[56.3,14399],[56.3,14482],[56.3,14567],[56.3,14649],[56.3,14732],[56.3,14817],[56.1,14899],[56.1,14984],[56.1,15067],[56.1,15149],[56.1,15234],[56.1,15317],[56.1,15399],[56.1,15484],[56.1,15567],[56.1,15649],[56.1,15732],[56.1,15817],[56.1,15899],[56.1,15982],[56.1,16067],[56.1,16149],[56.1,16234],[56.1,16317],[56.1,16401],[56.1,16482],[56.1,16567],[56.1,16650],[56.1,16734],[56.1,16817],[56.1,16899],[56.1,16982],[56.1,17067],[56.1,17150],[56.1,17234],[56.1,17317],[56.1,17399],[56.1,17484],[56.1,17567],[56.1,17649],[56.1,17732],[56.1,17817],[56.1,17899],[55.1,17982],[54.9,18067],[54.9,18149],[54.9,18232],[54.9,18317],[54.9,18399],[54.9,18482],[54.9,18567],[54.9,18649],[54.9,18734],[54.9,18817],[54.9,18899],[54.9,18985],[54.9,19067],[54.9,19149],[54.9,19234],[54.9,19317],[54.9,19399],[54.9,19484],[54.9,19567],[54.9,19649],[54.9,19734],[54.9,19817],[54.9,19900],[54.9,19984],[54.9,20067],[54.9,20149],[54.9,20232],[54.9,20317],[54.9,20399],[54.9,20484],[54.9,20567],[54.7,20649],[53.3,20734],[48.5,20817],[43.9,20899],[41.1,20966],[39.2,21049]]",1,0,913.324,917.274,43.19444444,1.373,"[{""rating"":43.19444444444444,""responseTime"":1.3730000000000473}]",space,3.401,,917.274,Definitely yes,100,917.278,,,[],,0,16,16,16,1,audio/Narrative8Situation7.wav,audio/Narrative7Situation7.wav,audio/Narrative6Situation7.wav,audio/Narrative5Situation7.wav,3,5,5,4,,,,,,,,,,,,,,,,,,,,,,,,,,,,,,,,,,,,,,,
,,,,,,60fb5abacf212cc0bc18199f,2024-02-08_16h03.17.277,group3.1-3.2-social-tom,2023.2.2,MacIntel,58.82352941,65c5074098b851296ff0b7ed,65c5418497964a76ccf45aff,,,,,,,,,,,,,,,,,,,,,,,,,,,,,917.279,2,audio/Narrative5Situation8.wav,920.291,,920.291,929.126,"[[42.4,3983],[39.6,4067],[3.9,4982],[3.5,5067],[3.3,5150],[3.2,5233],[3.2,5317],[3.2,5399],[3.2,5482],[3.2,5567],[3.2,5649],[3.2,5732],[3.2,5817],[3.2,5899],[3.2,5983],[3.2,6067],[3.2,6149],[3.2,6233],[3.2,6317],[3.2,6399],[3.2,6482],[3.2,6567],[3.2,6649],[3.2,6733],[3.2,6817],[3.2,6899],[3.2,6982],[3.2,7067],[3.2,7149],[3.2,7233],[3.2,7317],[3.2,7399],[3.2,7483],[3.2,7567],[3.2,7649],[3.2,7733],[3.2,7817],[3.2,7900],[3.2,7983],[3.2,8067],[3.2,8149],[3.2,8232],[3.2,8317],[3.2,8399],[3.2,8482],[3.2,8567],[3.2,8650],[3.2,8721],[3.2,8799]]",1,0,929.127,930.742,0,1.088,"[{""rating"":0,""responseTime"":1.0879999999999654}]",space,1.069,,930.742,Definitely yes,100,930.746,,,[],,0,17,17,17,1,audio/Narrative8Situation8.wav,audio/Narrative7Situation8.wav,audio/Narrative6Situation8.wav,audio/Narrative5Situation8.wav,3,2,5,3,,,,,,,,,,,,,,,,,,,,,,,,,,,,,,,,,,,,,,,
,,,,,,60fb5abacf212cc0bc18199f,2024-02-08_16h03.17.277,group3.1-3.2-social-tom,2023.2.2,MacIntel,58.82352941,65c5074098b851296ff0b7ed,65c5418497964a76ccf45aff,,,,,,,,,,,,,,,,,,,,,,,,,,,,,930.747,2,audio/Narrative5Situation9.wav,933.758,,933.759,973.312,"[[0.7,5482],[0.8,5565],[0.8,5649],[0.7,5734],[0.7,5815],[0.7,5899],[0.7,5982],[0.7,6065],[0.7,6149],[0.7,6232],[0.7,6315],[0.7,6399],[0.7,6482],[0.7,6565],[0.7,6649],[0.7,6732],[0.7,6815],[0.7,6899],[0.7,6982],[0.7,7065],[0.7,7149],[0.7,7234],[0.7,7315],[0.7,7399],[0.7,7482],[0.7,7565],[0.7,7649],[0.7,7732],[0.7,7815],[0.7,7899],[0.7,7982],[0.7,8067],[0.7,8149],[0.7,8232],[0.7,8317],[0.7,8399],[0.7,8482],[0.7,8567],[0.7,8649],[0.7,8732],[0.7,8815],[0.7,8899],[0.7,8982],[0.7,9065],[0.7,9149],[0.7,9232],[0.7,9315],[0.7,9399],[0.7,9482],[0.7,9565],[0.7,9649],[0.7,9732],[0.7,9817],[0.7,9899],[0.7,9982],[0.7,10067],[0.7,10149],[0.7,10232],[0.7,10317],[0.7,10400],[0.7,10482],[0.7,10565],[0.7,10649],[0.7,10734],[0.7,10817],[0.7,10899],[0.7,10982],[0.7,11065],[0.7,11149],[0.7,11232],[0.7,11317],[0.7,11399],[0.7,11484],[0.7,11567],[0.7,11649],[0.7,11732],[0.7,11817],[0.7,11899],[0.7,11982],[0.7,12067],[0.7,12149],[0.7,12232],[0.7,12317],[0.7,12400],[0.7,12482],[0.7,12567],[0.7,12649],[0.7,12732],[0.7,12817],[0.7,12899],[0.7,12984],[2.9,13067],[10.4,13149],[15.4,13232],[21.7,13317],[26.1,13399],[28.1,13484],[29.6,13567],[30.7,13650],[31.4,13732],[31.8,13817],[32.4,13899],[32.5,13984],[32.5,14067],[32.5,14152],[32.5,14232],[32.5,14317],[32.5,14399],[32.5,14482],[32.8,14567],[38.5,14649],[44.2,14732],[46,14817],[47.6,14899],[49.6,14984],[50.7,15067],[51.4,15150],[51.9,15234],[52.2,15317],[52.2,15399],[52.2,15482],[52.4,15567],[52.4,15650],[52.4,15734],[52.4,15817],[52.4,15900],[52.4,15984],[52.4,16067],[52.4,16149],[52.4,16234],[52.4,16317],[52.4,16400],[52.4,16484],[52.4,16567],[52.4,16649],[52.4,16734],[52.4,16817],[52.4,16900],[52.4,16984],[52.4,17067],[52.4,17149],[52.4,17232],[52.4,17317],[52.4,17399],[52.4,17484],[52.4,17567],[52.4,17649],[52.4,17734],[52.4,17817],[52.4,17899],[52.4,17984],[52.4,18067],[52.4,18150],[52.4,18235],[52.4,18317],[52.4,18399],[52.4,18485],[52.4,18567],[52.4,18650],[52.4,18734],[52.4,18817],[52.4,18900],[52.4,18984],[52.4,19067],[52.4,19150],[52.4,19234],[52.4,19317],[52.4,19400],[52.4,19484],[52.4,19567],[52.4,19649],[52.4,19734],[52.4,19817],[52.4,19900],[52.4,19984],[52.4,20067],[52.4,20149],[52.4,20234],[52.4,20317],[52.4,20400],[52.4,20484],[52.4,20567],[52.4,20650],[52.4,20734],[52.4,20817],[52.4,20900],[52.4,20984],[52.4,21067],[52.4,21150],[52.4,21234],[52.4,21317],[52.4,21399],[52.4,21484],[52.4,21567],[52.4,21650],[52.4,21734],[52.4,21817],[52.4,21900],[52.4,21984],[52.4,22067],[52.4,22149],[52.4,22234],[52.4,22317],[52.4,22400],[52.4,22484],[52.4,22567],[52.4,22650],[52.4,22734],[52.4,22817],[52.4,22900],[52.4,22984],[52.4,23067],[52.4,23152],[52.4,23234],[52.4,23317],[52.4,23400],[52.4,23484],[52.4,23567],[52.4,23650],[52.4,23735],[52.4,23817],[52.4,23900],[52.4,23984],[52.4,24067],[52.4,24150],[52.4,24234],[52.4,24317],[52.4,24400],[52.4,24484],[52.4,24567],[52.4,24650],[52.4,24734],[52.4,24817],[52.4,24902],[52.4,24985],[52.4,25067],[52.4,25150],[52.4,25234],[52.4,25317],[52.4,25402],[52.4,25484],[52.4,25567],[52.4,25650],[52.4,25734],[52.4,25817],[52.4,25900],[52.4,25984],[52.4,26067],[52.4,26150],[52.4,26234],[44.4,27067],[44.4,27150],[43.8,27235],[43.3,27317],[40.1,27400],[38.3,27485],[38.1,27567],[38.1,27650],[38.1,27735],[38.1,27817],[38.1,27900],[38.1,27984],[38.1,28067],[38.1,28150],[38.1,28234],[38.1,28317],[38.1,28400],[38.1,28484],[38.1,28567],[38.1,28652],[38.1,28734],[38.1,28817],[38.1,28900],[38.1,28984],[38.1,29067],[38.1,29150],[38.1,29234],[38.1,29317],[38.1,29400],[38.1,29485],[38.1,29567],[38.1,29650],[38.1,29734],[38.1,29817],[38.1,29900],[38.1,29984],[38.1,30067],[38.1,30150],[38.1,30235],[38.1,30317],[38.1,30400],[38.1,30485],[38.1,30567],[38.1,30650],[38.1,30735],[38.1,30817],[38.1,30900],[38.1,30985],[38.1,31067],[38.1,31150],[38.1,31235],[38.1,31317],[38.1,31400],[38.1,31485],[38.1,31567],[38.1,31650],[38.1,31735],[38.1,31817],[38.1,31902],[39.7,31985],[41.4,32067],[43.1,32152],[45.3,32235],[48.9,32317],[53.6,32402],[57.8,32485],[66.1,32568],[73.6,32650],[77.2,32735],[80.1,32818],[82.5,32900],[85.4,32985],[86.9,33068],[88.6,33150],[89.7,33235],[90,33318],[90.6,33402],[91,33485],[91.3,33567],[90.8,33650],[90.8,33735],[90.8,33817],[90.8,33900],[90.8,33985],[90.8,34067],[90.8,34152],[90.8,34235],[90.8,34317],[90.8,34402],[90.8,34485],[90.8,34568],[90.8,34650],[90.8,34735],[90.8,34817],[90.8,34900],[90.8,34985],[90.8,35067],[90.8,35150],[90.8,35235],[90.8,35317],[90.8,35402],[90.8,35485],[90.8,35567],[90.8,35652],[90.8,35735],[90.8,35818],[90.8,35902],[90.8,35985],[90.8,36068],[90.8,36152],[90.8,36235],[90.8,36317],[90.8,36402],[90.8,36485],[90.8,36567],[90.8,36652],[90.8,36735],[90.8,36817],[90.8,36902],[90.8,36985],[90.8,37067],[90.8,37152],[90.8,37235],[90.8,37317],[90.8,37402],[90.8,37485],[90.8,37568],[90.8,37652],[90.8,37735],[90.8,37818],[90.8,37902],[90.8,37985],[90.8,38068],[90.8,38152],[90.8,38235],[90.8,38318],[90.8,38402],[90.8,38485],[90.8,38567],[90.8,38652],[90.8,38735],[90.8,38817],[90.8,38902],[90.8,38985],[90.8,39068],[90.8,39152],[90.8,39235],[90.8,39317],[90.8,39402],[90.8,39467],[90.8,39552]]",1,0,973.313,977.328,90.83333333,3.539,"[{""rating"":90.83333333333333,""responseTime"":3.5389999999999873}]",space,3.482,,977.328,Partially,50,982.296,50.27777778,4.754,"[{""rating"":50.27777777777778,""responseTime"":4.754000000000019}]",space,0,18,18,18,1,audio/Narrative8Situation9.wav,audio/Narrative7Situation9.wav,audio/Narrative6Situation9.wav,audio/Narrative5Situation9.wav,3,2,4,3,,,4.443,,,,,,,,,,,,,,,,,,,,,,,,,,,,,,,,,,,,
,,,,,,60fb5abacf212cc0bc18199f,2024-02-08_16h03.17.277,group3.1-3.2-social-tom,2023.2.2,MacIntel,58.82352941,65c5074098b851296ff0b7ed,65c5418497964a76ccf45aff,,,,,,,,,,,,,,,,,,,,,,,,,,,,,,,,,,,,,,,,,,,,,,,,,,,,,,,,,,,,,,,,,,,,,,,,982.297,992.246,space,9.424,,992.248,999.231,space,6.654,,,,,,,,,,,,,,,,,,,,,,,,,,
,,,,,,60fb5abacf212cc0bc18199f,2024-02-08_16h03.17.277,group3.1-3.2-social-tom,2023.2.2,MacIntel,58.82352941,65c5074098b851296ff0b7ed,65c5418497964a76ccf45aff,,,,,,,,,,,,,,,,,,,,,,,,,,,,,1001.831,1,audio/Narrative7Situation9.wav,1003.847,,,,,,,1035.707,1038.999,7.083333333,2.689,"[{""rating"":7.083333333333336,""responseTime"":2.688999999999851}]",space,2.754,,1035.7,Not at all,0,1035.707,,,[],,,,,,,,,,,2,2,2,2,,,,,,,,,,,,,,,999.234,1001.814,1003.848,3,1035.7,"[[30.6,5666],[6.1,5749],[3.3,5833],[2.6,5917],[1.5,5998],[0.3,23583],[0.7,23665],[1.1,23750],[1.5,23834],[2.2,23915],[2.4,24000],[2.5,24084],[2.5,24167],[2.9,24250],[3.2,24333],[3.3,24418],[3.3,24500],[3.3,24583],[3.3,24667],[3.6,24750],[4,24834],[4.2,24917],[4.3,25000],[4.4,25083],[4.6,25167],[4.7,25250],[5,25333],[5.1,25417],[5.3,25500],[5.3,25584],[5.6,25667],[5.7,25750],[5.8,25834],[5.8,25917],[5.8,26000],[5.8,26084],[5.7,26168],[5,26250],[4.6,26333],[4.4,26417],[4.2,26500],[3.9,26583],[3.5,26667],[3.5,26750],[3.3,26833],[3.3,26917],[3.5,27000],[3.5,27083],[3.5,27167],[3.5,27250],[3.5,27334],[3.5,27417],[3.5,27500],[3.5,27583],[3.5,27667],[3.5,27750],[3.5,27834],[3.5,27917],[3.5,28000],[3.5,28083],[3.5,28167],[3.5,28250],[3.5,28334],[3.5,28417],[3.5,28500],[3.6,28584],[4,28667],[4.2,28750],[4.4,28833],[4.7,28920],[4.9,29000],[5,29084],[5,29167],[5.1,29250],[5.4,29334],[5.4,29417],[5.7,29500],[5.7,29584],[5.8,29667],[6,29750],[6,29834],[6.1,29917],[6.1,30000],[6.1,30084],[6.3,30167],[6.3,30250],[6.3,30334],[6.3,30417],[6.3,30500],[6.3,30584],[6.3,30667],[6.3,30750],[6.3,30833],[6.3,30917],[6.3,31000],[6.3,31084],[6.3,31167],[6.3,31250],[6.3,31334],[6.3,31417],[6.3,31500],[6.3,31584],[6.3,31668],[6.3,31750],[6.3,31834]]",0,0,0,0,1,"Larry had recently lost his family, job and home, and was now living on his own in the park. He had most of his belongings, including some clothes, a blanket, and his mother’s special necklace. His family had been very important to him and he felt as though he did not have much going for him. One of his first days in the park he came across a family that did not have much food and looked very cold. He decided to give them some of his food and his blanket.","Larry had recently lost his family, job and home, and was now living on his own in the park. He had most of his belongings, including some clothes, a blanket, and his mother’s special necklace. His family had been very important to him and he felt as though he did not have much going for him. One of his first days in the park he came across a family that did not have much food and looked very cold. He decided to give them some of his food and his blanket.","Larry had recently lost his family, job and home, and was now living on his own in the park. He had most of his belongings, including some clothes, a blanket, and his mother’s special necklace. His family had been very important to him and he felt as though he did not have much going for him. One of his first days in the park he came across a family that did not have much food and looked very cold. He decided to give them some of his food and his blanket.","Larry had recently lost his family, job and home, and was now living on his own in the park. He had most of his belongings, including some clothes, a blanket, and his mother’s special necklace. His family had been very important to him and he felt as though he did not have much going for him. One of his first days in the park he came across a family that did not have much food and looked very cold. He decided to give them some of his food and his blanket.",,,,,,,,,,
,,,,,,60fb5abacf212cc0bc18199f,2024-02-08_16h03.17.277,group3.1-3.2-social-tom,2023.2.2,MacIntel,58.82352941,65c5074098b851296ff0b7ed,65c5418497964a76ccf45aff,,,,,,,,,,,,,,,,,,,,,,,,,,,,,1039.002,1,audio/Narrative7Situation9.wav,1040.399,space,,,,,,1064.259,1067.685,3.333333333,3.082,"[{""rating"":4.4444444444444455,""responseTime"":1.3979999999999109},{""rating"":3.3333333333333326,""responseTime"":3.0820000000001073}]",space,2.892,,1064.251,Definitely yes,100,1064.259,,,[],,,,,,,,,,,6,2,3,9,1.378,,,,,,,,,,,,,,,,1040.399,3,1064.251,"[[5.1,4666],[2.9,4750],[2.1,4833],[1.4,4916],[0.8,5000],[0.3,5083],[0.8,12084],[1.4,12167],[1.7,12250],[1.8,12334],[2.5,12417],[2.6,12500],[2.8,12583],[3.2,12668],[3.3,12750],[3.5,12833],[3.5,12917],[3.8,13000],[3.9,13083],[4.2,13167],[4.4,13250],[4.4,13333],[4.4,13416],[4.4,13500],[4.4,13583],[4.4,13666],[4.4,13750],[4.4,13834],[4.4,13917],[4.4,14000],[4.4,14083],[4.4,14167],[4.4,14250],[4.4,14333],[4.4,14416],[4.4,14500],[4.4,14583],[4.4,14667],[4.4,14750],[4.4,14833],[4.4,14917],[4.4,15000],[4.4,15083],[4.4,15167],[4.4,15250],[4.4,15333],[4.4,15416],[4.4,15500],[4.4,15583],[4.4,15667],[4.4,15750],[4.4,15833],[4.4,15917],[4.4,16000],[4.4,16083],[4.4,16167],[4.4,16250],[4.4,16333],[4.4,16417],[4.4,16500],[4.4,16584],[4.4,16667],[4.4,16750],[4.4,16833],[4.4,16917],[4.4,17001],[4.4,17084],[4.4,17167],[4.4,17250],[4.4,17333],[4.4,17417],[4.4,17500],[4.4,17583],[4.4,17667],[4.4,17751],[4.4,17833],[4.4,17917],[4.4,18000],[4.4,18083],[4.4,18167],[4.4,18250],[4.4,18333],[4.4,18417],[4.4,18500],[4.4,18583],[4.4,18669],[4.4,18750],[4.4,18833],[4.4,18917],[4.4,19000],[4.4,19083],[4.4,19167],[4.4,19250],[4.4,19333],[4.4,19417],[4.4,19500],[4.4,19584],[4.4,19667],[4.4,19751],[4.4,19834],[4.4,19918],[4.4,20000],[4.4,20083],[4.4,20167],[4.4,20250],[4.4,20333],[4.4,20417],[4.4,20501],[4.4,20584],[4.4,20667],[4.4,20750],[4.4,20834],[4.4,20917],[4.4,21001],[4.4,21084],[4.4,21167],[4.4,21251],[4.4,21334],[4.4,21417],[4.4,21501],[4.4,21584],[4.4,21667],[4.4,21750],[4.4,21833],[4.4,21917],[4.4,22000],[4.4,22084],[4.4,22167],[4.4,22250],[4.4,22334],[4.4,22417],[4.4,22500],[4.4,22584],[4.4,22667],[4.4,22751],[4.4,22834],[4.4,22918],[4.4,23000],[4.4,23084],[4.4,23168],[4.4,23251],[4.4,23334],[4.4,23417],[4.4,23500],[4.4,23584],[4.4,23668],[4.4,23750],[4.4,23834]]",0,1,1,1,1,"It was just another Sunday afternoon for Lucy, she was on her way to the farmer's market to pick up some produce. When she arrived at the old train depot that housed the market, she noticed two men fighting on the steps. Before she could call for help, one of the men crumpled to his knees. The other man dropped an object that appeared to be a knife and ran off. When Lucy approached the crime scene she realized that the man who had been murdered was the Mayor and that he had a gunshot wound.","One day at work, Margaret walked up to her partner, Al, to ask him to talk to the chief of staff at the local hospital where she worked as a nurse.","Luke always thought of himself as an honest man. That's why during his evening jog around the swamp, he pondered his recent affair with the receptionist at work. Luke looked up at the sky and asked God why he was so weak and unfaithful. He thought of the impact this would have on his family and told God of his conflicted feelings toward telling his wife Marta.","Linda and Amy had been best friends since kindergarten, they even found homes on the same street in the forest on the edge of town. Their biggest fight had been over who gets the bigger slice of cake, until Amy married Dan. Linda loathed Dan, she thought he was manipulative and had a violent temper. She only put up with him because Amy loved him. ",,,,,,,,,,
