exp_question,consent.started,consent.stopped,consentResponse.keys,consentResponse.rt,consentResponse.duration,participantID,date,expName,psychopyVersion,OS,frameRate,STUDY_ID,SESSION_ID,opening1.started,opening1.stopped,keyEndingOpening1.keys,keyEndingOpening1.rt,keyEndingOpening1.duration,volumeAdjust.started,volumeAdjust.stopped,endingAdjust.keys,endingAdjust.rt,endingAdjust.duration,opening2.started,opening2.stopped,keyEndingOpening.keys,keyEndingOpening.rt,keyEndingOpening.duration,mouse.x,mouse.y,mouse.leftButton,mouse.midButton,mouse.rightButton,mouse.time,instructionLoop.thisRepN,instructionLoop.thisTrialN,instructionLoop.thisN,instructionLoop.thisIndex,instructionLoop.ran,readyForAudio.started,readyForAudio.stopped,fixation.started,run,audio_played,fixation.stopped,endPractice.keys,audioPre.started,audioPre.stopped,continuousResponses_audio,continuousSlider.response,continuousSlider.rt,intRating.started,intRating.stopped,intQuestionSlider.response,intQuestionSlider.rt,intQuestionSlider.history,confirmResponse.keys,confirmResponse.rt,confirmResponse.duration,catchQuestion.started,catch_label,catch_value,catchQuestion.stopped,catchQuestionSlider.response,catchQuestionSlider.rt,catchQuestionSlider.history,confirmResponse_2.keys,audioRunLoop.thisRepN,audioRunLoop.thisTrialN,audioRunLoop.thisN,audioRunLoop.thisIndex,audioRunLoop.ran,conditions1_1,conditions2_1,conditions1_2,conditions2_2,dur1_1,dur2_1,dur1_2,dur2_2,endPractice.rt,endPractice.duration,confirmResponse_2.rt,confirmResponse_2.duration,runIntervalBreak.started,runIntervalBreak.stopped,endingBreakKey.keys,endingBreakKey.rt,endingBreakKey.duration,connection.started,connection.stopped,connectionEnding.keys,connectionEnding.rt,connectionEnding.duration,readyForText.started,readyForText.stopped,textPre.started,run_dup,textPre.stopped,continuousResponses_text,textRunLoop.thisRepN,textRunLoop.thisTrialN,textRunLoop.thisN,textRunLoop.thisIndex,textRunLoop.ran,text1_1,text1_2,text2_1,text2_2,runBreakText.started,runBreakText.stopped,endingBreakKey_2.keys,endingBreakKey_2.rt,endingBreakKey_2.duration,ending.started,ending.stopped,endingEnding.keys,endingEnding.rt,endingEnding.duration
tom,0.0004,28.1038,y,27.7835,,60fc2ec58ad0da367daee3c1,2024-02-08_15h03.57.319,group3.1-3.2-social-tom,2023.2.2,Win32,59.88023952,65c5074098b851296ff0b7ed,65c541921be6b11ce0d5e775,,,,,,,,,,,,,,,,,,,,,,,,,,,,,,,,,,,,,,,,,,,,,,,,,,,,,,,,,,,,,,,,,,,,,,,,,,,,,,,,,,,,,,,,,,,,,,,,,,,,,,,,,,
,,,,,,60fc2ec58ad0da367daee3c1,2024-02-08_15h03.57.319,group3.1-3.2-social-tom,2023.2.2,Win32,59.88023952,65c5074098b851296ff0b7ed,65c541921be6b11ce0d5e775,28.1042,48.0119,space,19.8281,,,,,,,,,,,,,,,,,,,,,,,,,,,,,,,,,,,,,,,,,,,,,,,,,,,,,,,,,,,,,,,,,,,,,,,,,,,,,,,,,,,,,,,,,,,,,,,,,,,,,,
,,,,,,60fc2ec58ad0da367daee3c1,2024-02-08_15h03.57.319,group3.1-3.2-social-tom,2023.2.2,Win32,59.88023952,65c5074098b851296ff0b7ed,65c541921be6b11ce0d5e775,,,,,,48.0123,63.9277,space,15.5955,,,,,,,,,,,,,,,,,,,,,,,,,,,,,,,,,,,,,,,,,,,,,,,,,,,,,,,,,,,,,,,,,,,,,,,,,,,,,,,,,,,,,,,,,,,,,,,,,
,,,,,,60fc2ec58ad0da367daee3c1,2024-02-08_15h03.57.319,group3.1-3.2-social-tom,2023.2.2,Win32,59.88023952,65c5074098b851296ff0b7ed,65c541921be6b11ce0d5e775,,,,,,,,,,,63.9468,75.2823,space,11.2956,,[],[],[],[],[],[],0,0,0,0,1,,,,,,,,,,,,,,,,,,,,,,,,,,,,,,,,,,,,,,,,,,,,,,,,,,,,,,,,,,,,,,,,,,,,,,,,,,,,,,,,
,,,,,,60fc2ec58ad0da367daee3c1,2024-02-08_15h03.57.319,group3.1-3.2-social-tom,2023.2.2,Win32,59.88023952,65c5074098b851296ff0b7ed,65c541921be6b11ce0d5e775,,,,,,,,,,,75.2931,110.3627,space,34.8978,,[],[],[],[],[],[],1,0,1,0,1,,,,,,,,,,,,,,,,,,,,,,,,,,,,,,,,,,,,,,,,,,,,,,,,,,,,,,,,,,,,,,,,,,,,,,,,,,,,,,,,
,,,,,,60fc2ec58ad0da367daee3c1,2024-02-08_15h03.57.319,group3.1-3.2-social-tom,2023.2.2,Win32,59.88023952,65c5074098b851296ff0b7ed,65c541921be6b11ce0d5e775,,,,,,,,,,,110.3916,122.0736,space,11.5589,,[],[],[],[],[],[],2,0,2,0,1,,,,,,,,,,,,,,,,,,,,,,,,,,,,,,,,,,,,,,,,,,,,,,,,,,,,,,,,,,,,,,,,,,,,,,,,,,,,,,,,
,,,,,,60fc2ec58ad0da367daee3c1,2024-02-08_15h03.57.319,group3.1-3.2-social-tom,2023.2.2,Win32,59.88023952,65c5074098b851296ff0b7ed,65c541921be6b11ce0d5e775,,,,,,,,,,,122.1025,140.6423,space,18.4839,,[],[],[],[],[],[],3,0,3,0,1,,,,,,,,,,,,,,,,,,,,,,,,,,,,,,,,,,,,,,,,,,,,,,,,,,,,,,,,,,,,,,,,,,,,,,,,,,,,,,,,
,,,,,,60fc2ec58ad0da367daee3c1,2024-02-08_15h03.57.319,group3.1-3.2-social-tom,2023.2.2,Win32,59.88023952,65c5074098b851296ff0b7ed,65c541921be6b11ce0d5e775,,,,,,,,,,,140.6703,152.3249,space,11.6271,,[],[],[],[],[],[],4,0,4,0,1,,,,,,,,,,,,,,,,,,,,,,,,,,,,,,,,,,,,,,,,,,,,,,,,,,,,,,,,,,,,,,,,,,,,,,,,,,,,,,,,
,,,,,,60fc2ec58ad0da367daee3c1,2024-02-08_15h03.57.319,group3.1-3.2-social-tom,2023.2.2,Win32,59.88023952,65c5074098b851296ff0b7ed,65c541921be6b11ce0d5e775,,,,,,,,,,,,,,,,,,,,,,,,,,,152.3592,154.9405,155.0023,1,audio/Narrative13Situation2.wav,157.0168,,157.0172,186.771,"[[55.4,1180],[55.3,1264],[52.8,1348],[52.4,1432],[52.4,1513],[52.4,1597],[52.4,1680],[52.4,1764],[52.4,1846],[52.4,1929],[52.4,2013],[52.4,2096],[52.4,2180],[52.4,2263],[52.4,2347],[52.4,2430],[52.4,2514],[52.4,2597],[52.4,2680],[52.4,2763],[52.4,2846],[52.4,2930],[52.4,3013],[52.4,3096],[52.4,3179],[51.9,3264],[48.3,3349],[44.6,3439],[44.5,3520],[40.8,3605],[37.9,3688],[37.9,3770],[36.1,3855],[34.8,3937],[33.6,4022],[20.7,4105],[0.5,4272],[0.8,4605],[0.8,4687],[0.8,4771],[0.8,4855],[0.8,4937],[0.8,5020],[0.8,5104],[0.8,5187],[0.8,5270],[3,5355],[4.5,5438],[6.2,5522],[6.8,5605],[7.1,5688],[9.2,5771],[9.6,5854],[10.2,5938],[10.8,6020],[12.1,6105],[18.5,6188],[18.7,6270],[18.7,6354],[18.7,6437],[18.7,6520],[18.7,6603],[18.7,6687],[18.7,6770],[18.7,6853],[18.7,6937],[18.7,7020],[21.3,7105],[21.9,7188],[22.8,7272],[23.8,7355],[24.5,7438],[25.4,7520],[25.9,8525],[25.9,8604],[25.4,8687],[25.6,8772],[31.9,8854],[38.9,8938],[40.2,9020],[40.2,9104],[40.2,9187],[40.2,9270],[40.2,9353],[40.2,9437],[40.2,9520],[40.2,9603],[40.2,9687],[40.2,9770],[40.2,9854],[40.2,9937],[40.2,10021],[40.2,10103],[40.2,10187],[40.2,10270],[40.2,10353],[40.2,10437],[40.2,10520],[40.2,10604],[33.6,10688],[31.6,10770],[31.6,10853],[29.2,10937],[28.2,11020],[27.6,11105],[26.7,11187],[26.7,11270],[26.7,11353],[26.7,11436],[26.7,11520],[26.7,11604],[26.7,11686],[26.7,11770],[26.7,11853],[26.7,11936],[26.7,12020],[26.7,12103],[26.7,12186],[26.7,12270],[26.7,12353],[26.7,12436],[26.7,12520],[26.7,12603],[26.7,12686],[26.7,12770],[26.7,12853],[26.7,12936],[26.7,13020],[26.7,13103],[26.7,13186],[26.7,13270],[26.7,13353],[26.7,13436],[26.7,13520],[26.7,13603],[26.7,13686],[26.7,13771],[26.7,13853],[26.7,13936],[26.7,14020],[26.7,14103],[26.7,14186],[26.7,14269],[26.7,14353],[26.7,14436],[26.7,14520],[26.7,14603],[26.7,14686],[26.7,14769],[26.7,14853],[26.7,14936],[26.7,15019],[26.7,15103],[26.7,15186],[26.7,15269],[26.7,15353],[26.7,15436],[26.7,15519],[26.7,15603],[26.7,15686],[26.7,15769],[26.7,15853],[26.7,15936],[26.7,16019],[26.7,16103],[26.7,16186],[26.7,16269],[26.7,16353],[26.7,16436],[26.7,16519],[26.7,16603],[26.7,16686],[26.7,16769],[26.7,16853],[26.7,16936],[26.7,17019],[26.7,17103],[26.7,17186],[26.7,17269],[26.7,17353],[26.7,17436],[26.7,17519],[26.7,17603],[26.7,17686],[26.7,17769],[26.7,17853],[26.7,17936],[26.7,18019],[26.7,18103],[26.7,18186],[26.7,18269],[26.7,18353],[26.7,18436],[26.7,18519],[26.7,18603],[26.7,18686],[26.7,18769],[26.7,18853],[26.7,18936],[26.7,19019],[26.7,19103],[26.7,19186],[26.7,19269],[26.7,19353],[26.7,19436],[26.7,19519],[26.7,19603],[26.7,19686],[26.7,19769],[26.7,19852],[26.7,19936],[26.7,20019],[26.7,20103],[26.7,20186],[26.7,20269],[26.7,20353],[26.7,20435],[26.7,20519],[26.7,20603],[26.7,20685],[26.7,20769],[26.7,20853],[26.3,20938],[24.8,21020],[24.2,21103],[24.2,21185],[21.5,21270],[17.4,21354],[13.7,21436],[13.7,21519],[13.7,21602],[13.7,21685],[13.7,21769],[13.7,21852],[13.7,21935],[13.7,22019],[13.7,22103],[13.7,22185],[13.7,22269],[13.7,22352],[13.4,22435],[12.5,22521],[12.2,22603],[12.2,22685],[12.2,22769],[12.2,22853],[12.2,22935],[12.2,23019],[12.2,23102],[12.2,23185],[12.2,23269],[12.2,23352],[12.2,23435],[12.2,23519],[12.2,23603],[12.2,23685],[12.2,23768],[12.2,23852],[12.2,23935],[12.2,24019],[12.2,24102],[12.2,24185],[12.2,24269],[12.2,24352],[12.2,24435],[16,24520],[18.8,24603],[19,24685],[25.4,24769],[28.1,24852],[28.1,24935],[28.1,25019],[47.8,25103],[67.9,25185],[67.9,25268],[68,25353],[68,25435],[68.5,25520],[76.4,25603],[76.7,25685],[76.7,25768],[77.8,25854],[80.2,25936],[80.8,26019],[84.1,26104],[92.6,26186],[92.9,26268],[96.1,26353],[99.7,26435],[100,26520],[100,26603],[100,26685],[100,26768],[100,26852],[100,26935],[100,27018],[100,27102],[100,27185],[100,27268],[100,27352],[100,27435],[100,27518],[100,27602],[100,27685],[100,27768],[100,27852],[100,27935],[100,28018],[100,28101],[100,28185],[100,28268],[100,28352],[100,28435],[100,28518],[100,28602],[100,28684],[100,28768],[100,28852],[100,28935],[100,29018],[100,29102],[100,29185],[100,29268],[100,29352],[100,29435],[100,29518],[100,29602],[100,29685]]",1,0,186.7713,195.2714,23.76507106,4.2096,"[{""rating"":23.765071059133465,""responseTime"":4.2095999999940545}]",space,7.9499,,195.2825,Half the time,50,195.2927,,,[],,0,0,0,0,1,audio/Narrative13Situation2.wav,audio/Narrative13Situation2.wav,audio/Narrative13Situation2.wav,audio/Narrative13Situation2.wav,2,2,2,2,,,,,,,,,,,,,,,,,,,,,,,,,,,,,,,,,,,,,,,
,,,,,,60fc2ec58ad0da367daee3c1,2024-02-08_15h03.57.319,group3.1-3.2-social-tom,2023.2.2,Win32,59.88023952,65c5074098b851296ff0b7ed,65c541921be6b11ce0d5e775,,,,,,,,,,,,,,,,,,,,,,,,,,,,,195.2934,1,audio/Narrative8Situation1.wav,198.1185,space,198.1186,214.0504,"[[999,11],[999,99],[999,182],[999,265],[999,349],[999,432],[999,515],[999,599],[999,682],[999,766],[999,849],[999,932],[999,1015],[999,1099],[999,1182],[999,1265],[999,1349],[999,1432],[999,1515],[999,1598],[999,1682],[999,1765],[999,1850],[999,1933],[999,2015],[999,2099],[8.7,2184],[8.4,2265],[8.4,2349],[6.4,2433],[6.2,2516],[3.7,2600],[3.6,2682],[2.7,2767],[1.4,2849],[1,2932],[1,3015],[1,3098],[1,3182],[1,3265],[1,3348],[1,3432],[1,3516],[1,3598],[1,3683],[1,3765],[1,3848],[1,3932],[1,4015],[1,4098],[1,4181],[1,4265],[1,4348],[1,4432],[1,4515],[1,4598],[1,4682],[1,4765],[1,4848],[1,4932],[1,5015],[1,5098],[1,5182],[1,5265],[1,5348],[1,5432],[1,5515],[1,5598],[1,5681],[1,5765],[1,5848],[1,5932],[1,6015],[1,6098],[1,6182],[1,6266],[1,6348],[1,6432],[1,6515],[1,6598],[1,6681],[1,6765],[1,6848],[1,6931],[1,7015],[1,7098],[1,7182],[1,7264],[1,7348],[1,7432],[1,7516],[1,7598],[1,7682],[1,7764],[1,7848],[1,7932],[1,8014],[1,8098],[1,8183],[1,8264],[1,8348],[1,8432],[1,8514],[1,8598],[1,8681],[1,8764],[1,8848],[1,8931],[1,9014],[1,9098],[1,9181],[1,9265],[1,9348],[1,9432],[1,9514],[1,9598],[1,9681],[1,9764],[1,9848],[1,9931],[1,10014],[1,10098],[1,10181],[1,10264],[1,10348],[1,10431],[1,10514],[5.6,10606],[12.7,10682],[25.7,11599],[20.9,11682],[18.2,11765],[17.7,11847],[17.7,11931],[17.7,12015],[17.9,12098],[19.9,12183],[22.3,12265],[22.3,12347],[24,12432],[24.7,12515],[25.6,12599],[27.5,12683],[29.1,12765],[29.2,12847],[29.2,12931],[29.2,13014],[29.2,13098],[29.2,13181],[29.2,13264],[29.2,13347],[29.2,13431],[29.2,13514],[29.2,13597],[29.2,13681],[29.2,13764],[29.2,13847],[29.2,13931],[29.2,14014],[33.8,14099],[36.7,14182],[40.6,14265],[42.5,14349],[43.6,14432],[46.2,14516],[47.8,14597],[48.3,14681],[49.4,14765],[49.7,14847],[49.7,14931],[49.7,15014],[49.7,15097],[49.7,15181],[49.7,15264],[49.7,15347],[49.7,15431],[49.7,15514],[49.7,15597],[49.6,15681],[49.6,15764],[49.6,15847],[49.6,15931]]",1,0,214.0508,218.5503,49.67066149,1.6655,"[{""rating"":49.670661490614854,""responseTime"":1.6655000000000086}]",space,3.9551,,218.5504,Half the time,50,218.5527,,,[],,0,1,1,1,1,audio/Narrative7Situation1.wav,audio/Narrative8Situation1.wav,audio/Narrative5Situation1.wav,audio/Narrative6Situation1.wav,2,5,5,2,2.7854,,,,,,,,,,,,,,,,,,,,,,,,,,,,,,,,,,,,,,
,,,,,,60fc2ec58ad0da367daee3c1,2024-02-08_15h03.57.319,group3.1-3.2-social-tom,2023.2.2,Win32,59.88023952,65c5074098b851296ff0b7ed,65c541921be6b11ce0d5e775,,,,,,,,,,,,,,,,,,,,,,,,,,,,,218.5531,1,audio/Narrative8Situation2.wav,221.5656,,221.5658,231.6824,"[[42.3,676],[33.9,758],[33.8,842],[33.8,924],[33.8,1008],[33.8,1091],[33.8,1175],[7.8,1592],[6.7,1676],[3.3,1759],[0.8,1842],[12.7,5517],[22.8,5598],[22.8,5682],[23.5,5767],[40.1,5849],[45.3,5932],[46.1,6017],[51.6,6099],[55.3,6184],[56.6,6265],[57.2,6348],[57.2,6432],[58.5,6516],[61.6,6600],[62.6,6682],[62.6,6765],[62.6,6848],[62.6,6932],[62.6,7015],[62.6,7098],[62.6,7182],[62.6,7265],[62.6,7348],[62.6,7432],[62.6,7515],[62.6,7598],[62.6,7682],[62.6,7765],[63.9,7848],[64.1,7931],[64.1,8015],[64.1,8100],[64.1,8184],[64.1,8265],[64.1,8348],[64.1,8432],[65.4,8516],[77.7,8599],[77.8,8683],[77.8,8765],[78,8848],[94.8,8934],[100,9015],[100,9098],[100,9181],[100,9265],[100,9348],[100,9431],[100,9515],[100,9598],[100,9681],[100,9765],[100,9848],[100,9932],[100,10015],[100,10098]]",1,0,231.6825,248.2884,52.45149205,1.4425,"[{""rating"":52.45149204866021,""responseTime"":1.442499999999967}]",space,16.0796,,248.2886,Half the time,50,248.3053,,,[],,0,2,2,2,1,audio/Narrative7Situation2.wav,audio/Narrative8Situation2.wav,audio/Narrative5Situation2.wav,audio/Narrative6Situation2.wav,3,3,3,3,,,,,,,,,,,,,,,,,,,,,,,,,,,,,,,,,,,,,,,
,,,,,,60fc2ec58ad0da367daee3c1,2024-02-08_15h03.57.319,group3.1-3.2-social-tom,2023.2.2,Win32,59.88023952,65c5074098b851296ff0b7ed,65c541921be6b11ce0d5e775,,,,,,,,,,,,,,,,,,,,,,,,,,,,,248.306,1,audio/Narrative8Situation3.wav,252.3125,,252.3127,274.7106,"[[999,10],[999,92],[999,175],[999,258],[999,343],[999,425],[999,508],[999,591],[999,674],[999,758],[999,842],[999,925],[999,1008],[999,1092],[999,1175],[44,1259],[34.5,1510],[21.8,1593],[10.3,1678],[10.2,1758],[10.9,1842],[26.1,1927],[45.6,2009],[47.7,2091],[51,2177],[62.3,2259],[64.5,2357],[69.8,2433],[71.5,2516],[72.3,2599],[73.9,2683],[74.3,2765],[74.3,2849],[76.7,2933],[80.5,3017],[83.8,3100],[84.9,3183],[85.5,3266],[85.6,3348],[85.9,3433],[87.1,3517],[87.2,3598],[87.2,3682],[87.2,3765],[87.2,3848],[87.2,3932],[87.2,4016],[87.2,4098],[87.2,4182],[87.2,4265],[87.2,4348],[87.2,4432],[87.2,4516],[87.2,4598],[87.2,4682],[87.2,4765],[87.2,4848],[87.2,4932],[87.2,5015],[87.2,5098],[87.2,5182],[87.2,5265],[87.2,5348],[87.2,5432],[87.2,5515],[87.2,5598],[87.2,5682],[87.2,5765],[87.2,5848],[90,5933],[92.8,6016],[92.8,6098],[92.9,6182],[99.4,6266],[99.4,6348],[99.5,6432],[100,6517],[100,6599],[100,6682],[100,6765],[100,6848],[100,6932],[100,7015],[100,7098],[100,7182],[100,7265],[100,7348],[100,7432],[100,7516],[98.2,7599],[97.9,7681],[97.5,7767],[97,7848],[97,7932],[98.6,8017],[100,8098],[100,8182],[100,8265],[100,8348],[100,8432],[100,8515],[100,8598],[100,8681],[100,8765],[100,8848],[100,8931],[100,9014],[100,9098],[100,9181],[100,9265],[100,9348],[100,9431],[100,9515],[100,9598],[100,9682],[100,9765],[100,9848],[100,9931],[100,10015],[100,10098],[100,10181],[100,10265],[100,10348],[100,10431],[100,10514],[100,10598],[100,10681],[100,10764],[100,10848],[100,10931],[100,11014],[100,11098],[100,11181],[100,11264],[100,11349],[100,11431],[100,11514],[100,11598],[100,11681],[100,11764],[100,11848],[100,11932],[100,12014],[100,12098],[100,12181],[100,12264],[100,12348],[100,12431],[100,12514],[100,12598],[100,12681],[100,12764],[100,12848],[100,12931],[100,13014],[100,13098],[100,13181],[100,13264],[100,13348],[100,13431],[100,13514],[100,13598],[100,13681],[100,13764],[100,13848],[100,13931],[100,14014],[100,14098],[100,14181],[100,14264],[100,14349],[100,14431],[100,14514],[100,14598],[100,14681],[100,14764],[100,14848],[100,14931],[100,15014],[100,15098],[100,15181],[100,15264],[100,15348],[100,15431],[100,15514],[100,15598],[100,15681],[100,15764],[100,15848],[100,15931],[100,16014],[100,16098],[100,16181],[100,16264],[100,16348],[100,16431],[100,16514],[100,16598],[100,16681],[100,16764],[99.7,16849],[92.9,16932],[92.3,17014],[92.3,17098],[94.4,17182],[100,17265],[100,17347],[100,17430],[100,17514],[100,17598],[100,17680],[100,17764],[100,17848],[100,17930],[100,18014],[100,18098],[100,18181],[100,18264],[100,18348],[100,18431],[100,18514],[100,18598],[100,18680],[100,18765],[100,18848],[100,18930],[100,19014],[100,19097],[100,19180],[100,19264],[100,19347],[100,19430],[100,19514],[100,19598],[100,19680],[100,19764],[100,19847],[100,19930],[100,20013],[100,20097],[100,20180],[100,20264],[100,20348],[100,20430],[100,20514],[100,20597],[100,20680],[100,20764],[100,20847],[100,20930],[100,21014],[100,21097],[100,21180],[100,21264],[100,21347],[100,21430],[100,21513],[100,21597],[100,21681],[100,21763],[100,21847],[100,21930],[100,22013],[100,22097],[98.3,22182],[95.4,22264],[94.5,22347]]",1,0,274.7109,280.5926,93.87116935,3.0294,"[{""rating"":97.38379178335325,""responseTime"":1.5434999999999945},{""rating"":93.87116935196592,""responseTime"":3.0294000000059214}]",space,5.3357,,280.5928,Half the time,50,280.5951,,,[],,0,3,3,3,1,audio/Narrative7Situation3.wav,audio/Narrative8Situation3.wav,audio/Narrative5Situation3.wav,audio/Narrative6Situation3.wav,8,4,3,5,,,,,,,,,,,,,,,,,,,,,,,,,,,,,,,,,,,,,,,
,,,,,,60fc2ec58ad0da367daee3c1,2024-02-08_15h03.57.319,group3.1-3.2-social-tom,2023.2.2,Win32,59.88023952,65c5074098b851296ff0b7ed,65c541921be6b11ce0d5e775,,,,,,,,,,,,,,,,,,,,,,,,,,,,,280.5955,1,audio/Narrative8Situation4.wav,283.6101,,283.6102,297.7756,"[[47.2,759],[47.2,840],[47.1,924],[47.1,1008],[47.1,1091],[47.1,1174],[47.1,1258],[47.1,1341],[47.1,1425],[47.1,1510],[30.8,1592],[3.9,1926],[9.2,2007],[9.7,2092],[9.7,2174],[9.7,2257],[9.7,2340],[9.7,2424],[9.7,2509],[9.7,2590],[9.7,2675],[9.7,2757],[9.7,2840],[9.7,2925],[9.7,3007],[9.7,3091],[9.7,3174],[9.7,3257],[9.7,3341],[9.7,3424],[9.7,3508],[9.7,3591],[9.7,3674],[9.7,3758],[9.7,3841],[9.7,3921],[9.7,4007],[9.7,4090],[9.7,4174],[9.7,4257],[9.7,4340],[9.7,4424],[9.7,4507],[9.7,4590],[9.7,4674],[9.7,4757],[9.7,4840],[9.7,4924],[9.7,5008],[9.7,5090],[9.7,5174],[9.7,5257],[9.7,5340],[10.5,5424],[10.9,5507],[11.2,5591],[11.2,5674],[11.2,5757],[11.2,5840],[11.2,5924],[11.2,6007],[11.2,6090],[11.2,6173],[11.2,6257],[11.2,6340],[11.2,6424],[11.2,6507],[11.2,6591],[11.2,6674],[18.7,6759],[21.9,6842],[25.3,6924],[34.3,7008],[43.1,7093],[43.1,7174],[43.3,7257],[43.3,7340],[43.6,7425],[48,7507],[48,7590],[48,7674],[48,7757],[48,7840],[48,7924],[48,8007],[48,8090],[48,8173],[48,8257],[48,8340],[48,8424],[48,8507],[48,8590],[48,8675],[48,8757],[48,8840],[48,8924],[48,9006],[48,9090],[48,9173],[48,9256],[48,9340],[48,9424],[48,9506],[48,9590],[48,9674],[48,9756],[48,9840],[48,9923],[48,10007],[48,10090],[48,10173],[48,10256],[48,10340],[48,10423],[48,10506],[48,10590],[48,10674],[48,10756],[48,10840],[48,10923],[48,11010],[48,11090],[48,11173],[48,11257],[48,11340],[48,11423],[48,11507],[48,11590],[48,11674],[48,11757],[48,11840],[48,11923],[48,12007],[48,12089],[48,12174],[48,12256],[48,12340],[48.8,12436],[49.3,12514],[49.4,12597],[50.8,12681],[50.8,12764],[50.8,12847],[50.8,12930],[50.8,13014],[51.3,13099],[51.5,13181],[51.8,13264],[52.5,13349],[54.3,13431],[59.2,13515],[59.2,13597],[59.2,13681],[59.2,13764],[59.2,13847],[59.8,13930],[59.8,14014],[62,14098]]",1,0,297.7759,303.2903,57.7204257,2.1482,"[{""rating"":57.72042569574116,""responseTime"":2.148199999988094}]",space,4.9647,,303.2905,All the time,100,303.296,,,[],,0,4,4,4,1,audio/Narrative7Situation4.wav,audio/Narrative8Situation4.wav,audio/Narrative5Situation4.wav,audio/Narrative6Situation4.wav,3,3,1,2,,,,,,,,,,,,,,,,,,,,,,,,,,,,,,,,,,,,,,,
,,,,,,60fc2ec58ad0da367daee3c1,2024-02-08_15h03.57.319,group3.1-3.2-social-tom,2023.2.2,Win32,59.88023952,65c5074098b851296ff0b7ed,65c541921be6b11ce0d5e775,,,,,,,,,,,,,,,,,,,,,,,,,,,,,303.2972,1,audio/Narrative8Situation5.wav,305.3069,,305.307,313.5561,"[[57.5,916],[55.3,1000],[45,1084],[40.5,1166],[40.5,1249],[40.5,1333],[40.9,1418],[48.7,1500],[50.3,1584],[50.6,1666],[50.6,1749],[50.6,1833],[50.6,1916],[51.5,2000],[52.1,2083],[52.1,2166],[52.1,2249],[52.1,2333],[52.1,2416],[52.1,2499],[52.5,2584],[83.6,2667],[84.1,2749],[84.6,2833],[84.6,2916],[86.3,3000],[92.3,3082],[92.3,3166],[92.3,3249],[94.8,3334],[95.6,3415],[95.6,3499],[97.6,3584],[97.6,3666],[97.8,3750],[98.9,5333],[98.9,5415],[98.9,5499],[98.2,5583],[97.3,5666],[97,5750],[97,5833],[96.9,5915],[96.9,5998],[97.5,6083],[98.5,6166],[99.2,6250],[99.4,6334],[99.5,6415],[99.5,6499],[99.5,6583],[99.5,6665],[99.5,6749],[99.5,6833],[99.5,6916],[99.5,6999],[99.5,7083],[99.5,7165],[99.5,7249],[99.5,7333],[99.5,7415],[99.5,7498],[99.5,7582],[99.5,7665],[99.5,7748],[99.5,7832],[99.5,7915],[99.5,7998],[99.5,8083],[99.5,8165],[99.5,8248]]",1,0,313.5563,317.64,98.99373926,1.4167,"[{""rating"":98.99373926454201,""responseTime"":1.4166999999880545}]",space,3.5324,,317.6401,Half the time,50,317.6548,,,[],,0,5,5,5,1,audio/Narrative7Situation5.wav,audio/Narrative8Situation5.wav,audio/Narrative5Situation5.wav,audio/Narrative6Situation5.wav,5,2,5,2,,,,,,,,,,,,,,,,,,,,,,,,,,,,,,,,,,,,,,,
,,,,,,60fc2ec58ad0da367daee3c1,2024-02-08_15h03.57.319,group3.1-3.2-social-tom,2023.2.2,Win32,59.88023952,65c5074098b851296ff0b7ed,65c541921be6b11ce0d5e775,,,,,,,,,,,,,,,,,,,,,,,,,,,,,317.6556,1,audio/Narrative8Situation6.wav,319.6569,,319.657,326.1382,"[[91,83],[82.5,166],[76.8,249],[76.5,331],[76.5,416],[76.5,497],[76.5,581],[76.5,665],[76.5,748],[76.5,832],[76.5,915],[76.5,998],[76.5,1081],[76.5,1164],[76.5,1248],[76.5,1331],[76.5,1414],[76.5,1497],[76.5,1581],[76.5,1664],[76.5,1748],[76.5,1831],[76.5,1914],[77,1998],[80.2,2083],[84.1,2165],[92.3,2248],[93.4,2331],[94.4,2415],[94.5,2500],[96.1,2582],[96.9,2665],[96.9,2747],[96.9,2831],[97,2915],[99.5,2997],[99.8,3083],[100,3165],[100,3247],[100,3331],[100,3414],[100,3497],[100,3581],[100,3664],[100,3747],[100,3831],[100,3914],[100,3997],[100,4080],[100,4165],[100,4247],[100,4332],[100,4415],[99.2,4498],[98.8,4582],[98.6,4664],[98.2,4747],[97.5,4833],[96.9,4915],[96.1,4998],[96,5081],[96,5164],[96,5247],[97.6,5331],[98.6,5415],[99.5,5498],[100,5581],[100,5665],[100,5747],[100,5830],[100,5914],[100,5997],[100,6081],[100,6164],[100,6247],[100,6330],[100,6414]]",1,0,326.1384,332.621,99.43281707,2.18,"[{""rating"":99.43281706846544,""responseTime"":2.180000000000007}]",space,5.9356,,332.6211,Not at all,0,332.6363,,,[],,0,6,6,6,1,audio/Narrative7Situation6.wav,audio/Narrative8Situation6.wav,audio/Narrative5Situation6.wav,audio/Narrative6Situation6.wav,3,2,3,2,,,,,,,,,,,,,,,,,,,,,,,,,,,,,,,,,,,,,,,
,,,,,,60fc2ec58ad0da367daee3c1,2024-02-08_15h03.57.319,group3.1-3.2-social-tom,2023.2.2,Win32,59.88023952,65c5074098b851296ff0b7ed,65c541921be6b11ce0d5e775,,,,,,,,,,,,,,,,,,,,,,,,,,,,,332.6367,1,audio/Narrative8Situation7.wav,335.6369,,335.637,347.7359,"[[99.4,259],[98.8,343],[98.8,425],[98.8,508],[98.1,594],[82.7,675],[82.7,761],[82.7,841],[82.7,925],[82.7,1009],[82.7,1093],[82.7,1175],[82.7,1259],[82.7,1341],[82.7,1425],[82.7,1509],[82.7,1591],[82.5,1676],[41.8,1761],[33.8,1842],[33.6,1925],[18.1,2010],[11.2,2093],[11.2,2175],[11.2,2258],[11.2,2342],[11.2,2426],[11.2,2508],[11.2,2591],[11.2,2675],[11.2,2758],[11.2,2842],[11.2,2925],[11.2,3008],[11.2,3093],[11.2,3175],[11.2,3259],[11.2,3343],[11.8,3425],[11.8,3508],[11.8,3592],[11.8,3674],[11.8,3758],[11.8,3843],[12.1,3926],[13.4,4009],[15.5,4095],[20.9,4176],[22.5,4258],[23.1,4343],[25.1,4426],[25.3,4510],[25.4,4593],[26,4676],[26.3,4758],[26.3,4842],[26.3,4925],[26.3,5008],[26.3,5091],[26.6,5175],[27.2,5260],[27.6,5341],[27.6,5425],[27.6,5508],[27.9,5593],[28.3,5675],[29.1,5759],[30,5842],[30.8,5926],[31.3,6008],[31.3,6091],[31.3,6175],[31.3,6258],[31.3,6341],[31.3,6424],[31.3,6507],[31.3,6593],[31.3,6674],[31.3,6757],[31.3,6841],[31.3,6925],[31.3,7008],[31.3,7092],[31.3,7175],[31.3,7257],[31.3,7342],[31.3,7424],[31.3,7507],[31.3,7592],[31.3,7674],[31.3,7758],[31.3,7841],[31.3,7924],[31.3,8008],[31.3,8091],[31.3,8174],[31.3,8259],[31.3,8341],[31.3,8425],[31.3,8508],[31.3,8591],[31.3,8675],[31.3,8758],[31.3,8842],[31.3,8924],[31.3,9007],[31.3,9091],[31.3,9175],[31.3,9259],[31.3,9341],[31.3,9424],[31.3,9507],[31.3,9591],[31.3,9675],[31.3,9757],[31.3,9841],[31.3,9924],[31.3,10007],[31.3,10091],[31.3,10174],[31.3,10257],[31.3,10341],[31.3,10424],[31.3,10507],[31.3,10592],[31.3,10674],[31.3,10759],[31.3,10841],[31.3,10924],[31.4,11009],[34.8,11099],[37.3,11182],[37.3,11265],[37.3,11348],[37.3,11432],[37.3,11515],[37.3,11599],[37.3,11683],[37.3,11765],[37.3,11848],[37.3,11933],[37.3,12016],[37.3,12098]]",1,0,347.7361,352.7352,33.71750351,1.3619,"[{""rating"":33.717503514662695,""responseTime"":1.36190000000596}]",space,4.4492,,352.7353,Not at all,0,352.7474,,,[],,0,7,7,7,1,audio/Narrative7Situation7.wav,audio/Narrative8Situation7.wav,audio/Narrative5Situation7.wav,audio/Narrative6Situation7.wav,5,3,4,5,,,,,,,,,,,,,,,,,,,,,,,,,,,,,,,,,,,,,,,
,,,,,,60fc2ec58ad0da367daee3c1,2024-02-08_15h03.57.319,group3.1-3.2-social-tom,2023.2.2,Win32,59.88023952,65c5074098b851296ff0b7ed,65c541921be6b11ce0d5e775,,,,,,,,,,,,,,,,,,,,,,,,,,,,,352.7478,1,audio/Narrative8Situation8.wav,355.7517,,355.7518,368.6008,"[[999,10],[999,92],[999,175],[999,258],[999,342],[999,425],[999,508],[999,591],[999,676],[999,758],[999,843],[999,925],[33.6,1009],[32.6,1091],[32.6,1175],[32.6,1258],[32.6,1341],[32.6,1425],[32.6,1508],[32.6,1592],[32.6,1675],[32.6,1758],[32.6,1844],[32.6,1925],[32.6,2008],[32.6,2092],[32.6,2175],[32.6,2258],[32.6,2342],[32.6,2425],[32.6,2508],[32.6,2592],[32.6,2674],[32.6,2759],[32.6,2842],[35.1,2927],[35.4,3008],[35.4,3092],[36.4,3177],[38.2,3259],[38.3,3342],[38.3,3425],[38.3,3508],[38.3,3592],[38.3,3675],[44.9,3760],[65,4427],[64.2,4509],[60.7,4593],[58.5,4675],[58.5,4758],[65.2,4843],[76.4,4925],[76.5,5008],[76.5,5092],[78.6,5176],[79,5258],[79,5342],[79,5425],[79,5508],[80.5,5593],[82.2,5676],[83.3,5759],[83.8,5842],[84.1,5926],[84.9,6010],[85,6090],[85.3,6175],[85.3,6258],[85.5,6341],[85.5,6425],[85.5,6508],[85.5,6591],[85.5,6673],[85.5,6758],[85.5,6842],[85.5,6925],[85.5,7008],[85.5,7092],[85.5,7174],[85.5,7258],[85.5,7341],[85.5,7424],[85.5,7508],[85.5,7591],[85.5,7674],[85.5,7758],[85.5,7841],[85.5,7924],[85.5,8008],[85.5,8091],[85.5,8174],[85.5,8257],[85.5,8341],[85.5,8424],[85.5,8508],[85.5,8591],[85.5,8674],[85.5,8758],[85.5,8841],[85.5,8924],[85.5,9008],[85.5,9091],[85.5,9174],[85.5,9257],[85.5,9342],[85.5,9424],[85.5,9508],[85.5,9592],[85.5,9674],[85.5,9758],[85.5,9841],[85.5,9924],[85.5,10008],[85.5,10092],[85.5,10174],[85.5,10259],[85.5,10342],[85.5,10424],[85.5,10508],[85.7,10604],[86.2,10681],[86.2,10765],[86.2,10848],[86.2,10931],[86.2,11015],[86.2,11099],[86.2,11182],[86.2,11265],[86.2,11348],[86.2,11431],[86.2,11515],[86.2,11598],[86.2,11681],[86.2,11765],[86.2,11848],[86.2,11931],[86.2,12015],[86.2,12098],[86.2,12181],[86.2,12265],[86.2,12348],[86.2,12431],[86.2,12516],[86.2,12599],[86.2,12681],[86.2,12764],[86.2,12848]]",1,0,368.601,373.2832,62.55028154,3.4132,"[{""rating"":62.55028153889871,""responseTime"":3.4132000000179232}]",space,4.1358,,373.2833,Half the time,50,373.2869,,,[],,0,8,8,8,1,audio/Narrative7Situation8.wav,audio/Narrative8Situation8.wav,audio/Narrative5Situation8.wav,audio/Narrative6Situation8.wav,2,3,3,5,,,,,,,,,,,,,,,,,,,,,,,,,,,,,,,,,,,,,,,
,,,,,,60fc2ec58ad0da367daee3c1,2024-02-08_15h03.57.319,group3.1-3.2-social-tom,2023.2.2,Win32,59.88023952,65c5074098b851296ff0b7ed,65c541921be6b11ce0d5e775,,,,,,,,,,,,,,,,,,,,,,,,,,,,,373.2875,1,audio/Narrative8Situation9.wav,376.3009,,376.3009,387.6152,"[[999,10],[999,90],[999,174],[999,259],[999,341],[999,423],[999,509],[999,590],[999,674],[999,759],[999,841],[999,924],[999,1007],[999,1091],[999,1172],[999,1258],[999,1351],[999,1431],[50.3,1515],[49,1599],[49,1681],[49,1764],[49,1849],[49,1931],[49,2014],[49,2099],[49,2181],[49,2264],[49,2349],[49,2431],[49,2514],[49,2598],[49,2681],[49,2764],[49,2848],[49,2931],[49,3014],[49,3098],[49,3182],[49,3264],[49,3348],[49,3432],[49,3516],[49,3599],[49,3681],[49,3764],[49,3848],[49,3931],[49,4014],[49,4099],[49,4181],[49,4264],[49,4347],[49,4431],[49,4514],[49,4599],[49,4681],[49,4764],[49.6,4849],[50.2,4931],[50.2,5014],[50.2,5098],[50.2,5181],[50.2,5264],[46.5,5350],[37.3,5432],[34.3,5515],[30.2,5599],[27.8,5681],[27.5,5766],[25.4,5849],[24.4,5931],[24,6015],[24,6099],[24,6181],[24,6264],[24,6349],[24,6430],[24,6514],[24,6597],[24,6681],[24,6764],[24,6848],[24,6930],[24,7014],[24,7097],[24,7180],[24,7264],[24,7347],[24,7431],[24,7514],[24,7597],[24,7680],[25.3,7765],[27.9,7849],[29.2,7931],[29.8,8014],[29.8,8097],[29.8,8181],[29.8,8264],[29.8,8349],[29.8,8430],[29.8,8514],[29.8,8597],[29.8,8680],[29.8,8764],[29.8,8849],[29.8,8931],[29.8,9014],[29.8,9098],[29.8,9180],[29.8,9264],[29.8,9347],[29.8,9430],[29.8,9514],[29.8,9597],[29.8,9681],[29.8,9764],[29.8,9847],[29.8,9930],[29.8,10014],[29.8,10097],[29.8,10180],[29.8,10264],[29.8,10347],[29.8,10430],[29.8,10514],[29.8,10597],[29.8,10680],[29.8,10764],[29.8,10847],[29.8,10930],[29.8,11014],[29.8,11097],[29.8,11180],[29.8,11264]]",1,0,387.6154,390.4482,28.5949269,1.4603,"[{""rating"":28.594926902290997,""responseTime"":1.460300000011955}]",space,2.3021,,390.4483,Not at all,0,390.4534,,,[],,0,9,9,9,1,audio/Narrative7Situation9.wav,audio/Narrative8Situation9.wav,audio/Narrative5Situation9.wav,audio/Narrative6Situation9.wav,2,3,3,4,,,,,,,,,,,,,,,,,,,,,,,,,,,,,,,,,,,,,,,
,,,,,,60fc2ec58ad0da367daee3c1,2024-02-08_15h03.57.319,group3.1-3.2-social-tom,2023.2.2,Win32,59.88023952,65c5074098b851296ff0b7ed,65c541921be6b11ce0d5e775,,,,,,,,,,,,,,,,,,,,,,,,,,,,,390.4544,1,audio/Narrative7Situation1.wav,392.4645,,392.4646,448.3587,"[[999,0],[999,82],[999,166],[999,249],[999,332],[999,416],[999,499],[999,582],[999,667],[999,750],[999,833],[999,916],[999,999],[999,1082],[999,1166],[999,1249],[999,1332],[999,1416],[999,1499],[999,1583],[999,1666],[999,1750],[999,1833],[25,1917],[22.9,2000],[21,2083],[14.7,2168],[2.9,2500],[7.3,2582],[7.3,2666],[7.3,2749],[5.1,2833],[3.3,2916],[3.2,2999],[3.2,3082],[2.3,3166],[2.3,3249],[2.3,3332],[2.3,3416],[2.3,3499],[2.3,3582],[2.3,3666],[2.3,3749],[2.7,3834],[11.2,3916],[22,4000],[22.3,4082],[22.3,4166],[29.1,4250],[31.1,4332],[31.1,4416],[31.1,4499],[31.1,4582],[31.1,4666],[31.1,4749],[31.1,4832],[31.1,4916],[31.1,4998],[36.5,5084],[36.7,5167],[38.2,5250],[49.6,5333],[50.3,5415],[50.3,5499],[50.3,5582],[50.3,5666],[50.3,5749],[50.3,5832],[50.3,5917],[62.8,5999],[62.8,6082],[61.6,6166],[59,6248],[59,6332],[59,6416],[59,6499],[59,6582],[59,6665],[59,6748],[59,6832],[59,6916],[59,6999],[59,7082],[59,7166],[59,7248],[59,7332],[59,7415],[59,7498],[59,7582],[59,7666],[59,7749],[59,7832],[59,7915],[59,7998],[59,8082],[59,8165],[59,8248],[59,8331],[59,8415],[59,8498],[59,8582],[59,8665],[59,8749],[59,8832],[59,8915],[59,8998],[59,9082],[59,9165],[59,9248],[59,9332],[59,9415],[59,9498],[59,9581],[59,9665],[59,9748],[59,9831],[59,9915],[59,9998],[59,10081],[59,10165],[59,10248],[59,10331],[59,10415],[59,10498],[59,10581],[59,10665],[59,10748],[59,10832],[59,10915],[59,10998],[59,11082],[59,11165],[59,11248],[59,11331],[59,11417],[59,11498],[59,11581],[59,11665],[59,11748],[59,11831],[59,11915],[59,11998],[59,12081],[59,12165],[59.1,12249],[60,12332],[60.3,12416],[61.3,12499],[61.4,12582],[63.8,12666],[64.2,12749],[64.5,12831],[65,12915],[65.5,12998],[66.7,13082],[66.9,13165],[67.3,13249],[67.7,13331],[67.9,13415],[67.9,13498],[67.9,13581],[67.9,13666],[68,13748],[68,13831],[68,13915],[68,13998],[68,14081],[68,14165],[68,14248],[68,14331],[68,14415],[68,14498],[68,14581],[68,14665],[68,14748],[68,14831],[68,14915],[68,14998],[68,15081],[68,15165],[68,15248],[68,15331],[68,15415],[68,15498],[68,15581],[68,15665],[68,15748],[68,15831],[68,15915],[68,15997],[68,16081],[68,16165],[68,16248],[68,16331],[68,16415],[68,16498],[68,16581],[68,16665],[68,16747],[68.3,16832],[68.6,16915],[68.8,16997],[68.8,17081],[68.8,17165],[69.2,17249],[69.5,17331],[69.5,17415],[69.5,17498],[69.5,17581],[69.5,17665],[69.5,17747],[69.5,17831],[69.5,17915],[69.5,17997],[69.5,18081],[69.5,18165],[69.5,18247],[69.5,18331],[69.5,18415],[69.5,18497],[69.5,18581],[69.5,18664],[69.5,18747],[69.5,18831],[69.5,18915],[69.5,18997],[69.6,19082],[69.8,19165],[71,19249],[71.5,19331],[71.5,19414],[71.5,19497],[71.5,19580],[71.5,19664],[71.5,19747],[71.5,19830],[71.5,19915],[71.5,19997],[71.5,20081],[71.5,20165],[71.5,20247],[71.5,20331],[71.5,20414],[71.5,20497],[71.5,20581],[71.5,20665],[71.5,20747],[71.5,20830],[71.5,20915],[71.5,20997],[71.5,21080],[71.5,21165],[71.5,21247],[71.5,21330],[71.5,21415],[71.5,21497],[71.5,21580],[71.5,21665],[71.5,21747],[71.5,21830],[71.5,21914],[71.5,21997],[72,22080],[72,22165],[72,22247],[72,22330],[72,22413],[72,22497],[72,22580],[72,22665],[72,22747],[72,22830],[72,22915],[72,22997],[72,23080],[72.1,23165],[72.3,23247],[72.7,23331],[74,23415],[74,23497],[74,23580],[74,23663],[74,23747],[74,23830],[74,23913],[74,23997],[74,24080],[74,24163],[74,24247],[74,24330],[74,24415],[74,24497],[74,24580],[74,24663],[74,24747],[74,24830],[74,24913],[74,24999],[74,25080],[74,25163],[75.2,25246],[75.2,25330],[75.2,25413],[75.2,25497],[75.2,25580],[75.2,25666],[75.2,25747],[75.2,25830],[75.2,25913],[75.2,25997],[75.2,26080],[75.2,26163],[75.2,26246],[75.2,26330],[75.2,26413],[75.2,26496],[75.2,26580],[75.2,26663],[75.2,26746],[75.2,26830],[75.2,26913],[75.2,26996],[75.2,27081],[75.2,27163],[75.2,27246],[75.2,27330],[75.2,27413],[75.2,27496],[75.2,27580],[75.2,27663],[75.2,27746],[79.6,27830],[79.7,27913],[79.7,27996],[79.7,28080],[79.7,28163],[79.7,28246],[79.7,28330],[79.7,28413],[79.7,28496],[79.7,28580],[79.7,28663],[79.7,28746],[79.7,28829],[79.7,28913],[79.7,28996],[79.7,29080],[79.7,29163],[79.7,29246],[79.7,29329],[79.7,29413],[79.7,29496],[79.7,29580],[79.7,29663],[79.7,29746],[79.7,29830],[79.7,29914],[79.7,29996],[79.7,30079],[79.7,30164],[79.7,30246],[79.7,30329],[79.7,30413],[79.7,30496],[79.7,30579],[79.7,30663],[79.7,30746],[79.7,30829],[79.7,30913],[79.7,30996],[79.7,31079],[79.7,31163],[79.7,31246],[79.7,31330],[79.7,31413],[79.7,31496],[79.7,31579],[79.7,31663],[79.7,31746],[79.7,31829],[79.7,31913],[79.7,31996],[79.7,32079],[79.7,32163],[79.7,32246],[79.7,32329],[79.7,32413],[79.7,32496],[79.7,32579],[79.7,32662],[79.7,32746],[79.7,32829],[79.7,32913],[79.7,32996],[79.7,33079],[79.7,33162],[79.7,33247],[79.7,33329],[79.7,33412],[79.7,33496],[79.7,33579],[79.7,33662],[79.7,33746],[79.7,33829],[79.7,33912],[79.7,33996],[79.7,34079],[79.7,34162],[79.7,34245],[79.7,34329],[79.7,34412],[79.7,34496],[79.7,34579],[79.7,34662],[79.7,34746],[79.7,34830],[79.7,34912],[79.7,34996],[79.7,35079],[79.7,35162],[79.7,35246],[79.7,35330],[79.7,35412],[79.7,35496],[79.7,35579],[79.7,35662],[79.7,35746],[79.7,35829],[79.7,35912],[79.7,35996],[79.7,36079],[79.7,36162],[79.7,36245],[79.7,36329],[79.7,36412],[79.7,36496],[79.7,36579],[79.7,36662],[79.7,36745],[79.7,36829],[79.7,36912],[79.7,36996],[79.7,37079],[79.7,37162],[79.7,37246],[79.7,37329],[79.7,37412],[79.7,37496],[79.7,37579],[79.7,37662],[79.7,37746],[79.7,37829],[79.7,37912],[79.7,37996],[79.7,38079],[79.7,38162],[79.7,38246],[79.7,38329],[79.7,38412],[79.7,38496],[79.7,38579],[79.7,38662],[79.7,38746],[79.7,38829],[79.7,38912],[79.7,38995],[79.7,39079],[79.7,39162],[79.7,39246],[79.7,39328],[79.7,39412],[79.7,39496],[79.7,39578],[79.7,39662],[79.7,39746],[79.7,39828],[79.7,39912],[79.7,39998],[79.7,40079],[79.7,40162],[79.7,40245],[79.7,40328],[79.7,40412],[79.7,40496],[79.7,40578],[79.7,40662],[79.7,40745],[79.7,40829],[79.7,40912],[79.7,40995],[79.7,41078],[79.7,41162],[79.7,41245],[79.7,41328],[79.7,41412],[79.7,41495],[79.7,41578],[79.7,41662],[79.7,41745],[79.7,41828],[79.7,41912],[79.7,41995],[79.7,42078],[79.7,42161],[79.7,42245],[79.7,42328],[79.7,42411],[79.7,42495],[79.7,42578],[79.7,42661],[79.7,42745],[80,42829],[81.8,42912],[81.8,42995],[81.8,43078],[81.9,43161],[81.9,43245],[81.9,43329],[81.9,43411],[81.9,43495],[81.9,43578],[81.9,43661],[81.9,43745],[81.9,43828],[81.9,43911],[81.9,43995],[81.9,44079],[81.9,44161],[81.9,44245],[81.9,44328],[81.9,44411],[81.9,44495],[81.9,44578],[81.9,44661],[81.9,44745],[81.9,44828],[81.9,44911],[81.9,44995],[81.9,45079],[81.9,45161],[81.9,45245],[81.9,45328],[81.9,45412],[81.9,45495],[81.9,45578],[81.9,45661],[81.9,45745],[81.9,45828],[81.9,45911],[81.9,45995],[81.9,46078],[81.9,46161],[81.9,46245],[81.9,46328],[81.9,46411],[81.9,46495],[81.9,46578],[81.9,46661],[81.9,46745],[81.9,46828],[81.9,46911],[81.9,46995],[81.9,47078],[81.9,47161],[81.9,47245],[81.9,47328],[81.9,47411],[81.9,47495],[81.9,47577],[81.9,47661],[81.9,47745],[81.9,47828],[81.9,47911],[81.9,47995],[81.9,48078],[81.9,48161],[81.9,48245],[81.9,48328],[81.9,48411],[81.9,48495],[81.9,48578],[81.9,48661],[81.9,48745],[81.9,48827],[81.9,48911],[81.9,48995],[81.9,49077],[81.9,49161],[81.9,49245],[81.9,49328],[81.9,49411],[81.9,49494],[81.9,49577],[81.9,49661],[81.9,49745],[81.9,49827],[81.9,49911],[81.9,49994],[81.9,50079],[81.9,50161],[81.9,50245],[81.9,50327],[81.9,50411],[81.9,50494],[81.9,50577],[81.9,50661],[81.9,50745],[81.9,50827],[81.9,50911],[81.9,50995],[81.9,51077],[81.9,51161],[81.9,51245],[81.9,51327],[81.9,51411],[81.9,51494],[81.9,51577],[81.9,51661],[81.9,51745],[81.9,51827],[81.9,51911],[81.9,51995],[81.9,52077],[81.9,52161],[81.9,52244],[81.9,52327],[81.9,52410],[81.9,52495],[81.9,52577],[81.9,52661],[81.9,52745],[81.9,52827],[81.9,52910],[81.9,52994],[81.9,53077],[81.9,53160],[81.9,53244],[81.9,53327],[81.9,53410],[81.9,53494],[81.9,53577],[81.9,53660],[81.9,53745],[81.9,53827],[81.9,53910],[81.9,53994],[81.9,54077],[81.9,54160],[81.9,54243],[81.9,54327],[81.9,54410],[81.9,54494],[81.9,54577],[81.9,54660],[81.9,54743],[81.9,54827],[81.9,54910],[81.9,54995],[81.9,55077],[81.9,55160],[81.9,55243],[81.9,55327],[81.9,55410],[81.9,55493],[81.9,55577],[81.9,55660],[81.9,55743],[81.9,55827]]",1,0,448.3593,451.3346,77.47892687,1.4308,"[{""rating"":77.47892687229476,""responseTime"":1.4307999999821277}]",space,2.4349,,451.3348,All the time,100,451.3382,,,[],,0,10,10,10,1,audio/Narrative8Situation1.wav,audio/Narrative7Situation1.wav,audio/Narrative6Situation1.wav,audio/Narrative5Situation1.wav,5,2,2,5,,,,,,,,,,,,,,,,,,,,,,,,,,,,,,,,,,,,,,,
,,,,,,60fc2ec58ad0da367daee3c1,2024-02-08_15h03.57.319,group3.1-3.2-social-tom,2023.2.2,Win32,59.88023952,65c5074098b851296ff0b7ed,65c541921be6b11ce0d5e775,,,,,,,,,,,,,,,,,,,,,,,,,,,,,451.3385,1,audio/Narrative7Situation2.wav,454.3509,,454.351,461.8332,"[[76.4,667],[74.9,749],[74.9,832],[74.9,916],[74.9,998],[74.9,1082],[74.9,1166],[74.9,1249],[74.9,1333],[74.9,1416],[51.2,1500],[45.8,1582],[45.8,1666],[45.8,1750],[61.1,1833],[68.3,1916],[68.3,1999],[67.6,2083],[63.9,2167],[61.3,2250],[61,2333],[61,2415],[61,2499],[61,2582],[61,2666],[61,2749],[61,2832],[61,2915],[61,2999],[61,3084],[61,3165],[61,3251],[61,3332],[61,3416],[61,3498],[61,3582],[61,3666],[61,3748],[61,3832],[61,3915],[61,4000],[61,4080],[61,4165],[61,4248],[61,4332],[61,4415],[61,4496],[61,4582],[61,4666],[61,4749],[61,4830],[61,4915],[61,4998],[61,5082],[61,5165],[61,5248],[61,5332],[61,5415],[61,5499],[61,5582],[61,5665],[61,5749],[61,5832],[61.1,5916],[62.9,6000],[66.1,6084],[66.4,6165],[66.4,6249],[66.4,6330],[66.4,6415],[66.4,6498],[66.4,6580],[66.4,6664],[66.4,6749],[66.4,6832],[66.4,6915],[66.4,7000],[66.4,7082],[66.4,7165],[66.4,7249],[66.4,7331],[66.4,7415]]",1,0,461.8334,465.5835,66.35561804,0.9164,"[{""rating"":66.35561803970455,""responseTime"":0.9164000000059787}]",space,3.2167,,465.5836,All the time,100,465.5858,,,[],,0,11,11,11,1,audio/Narrative8Situation2.wav,audio/Narrative7Situation2.wav,audio/Narrative6Situation2.wav,audio/Narrative5Situation2.wav,3,3,3,3,,,,,,,,,,,,,,,,,,,,,,,,,,,,,,,,,,,,,,,
,,,,,,60fc2ec58ad0da367daee3c1,2024-02-08_15h03.57.319,group3.1-3.2-social-tom,2023.2.2,Win32,59.88023952,65c5074098b851296ff0b7ed,65c541921be6b11ce0d5e775,,,,,,,,,,,,,,,,,,,,,,,,,,,,,465.5861,1,audio/Narrative7Situation3.wav,473.5985,,473.5986,482.8556,"[[65.4,1341],[65.4,1423],[65.4,1507],[61.9,1591],[53.5,1675],[53.5,1757],[53.5,1841],[53.5,1923],[53.5,2007],[53.5,2090],[53.5,2173],[53.5,2257],[53.5,2341],[53.5,2423],[53.5,2507],[53.5,2591],[53.5,2673],[53.5,2756],[53.5,2840],[53.5,2923],[53.5,3006],[53.5,3091],[53.5,3173],[53.5,3256],[53.5,3341],[53.5,3423],[53.5,3507],[53.5,3591],[53.5,3673],[53.5,3757],[53.5,3841],[53.5,3923],[53.5,4006],[53.5,4091],[54,4181],[54.1,4257],[59.2,4340],[59.8,4423],[59.8,4506],[59.8,4590],[59.8,4673],[59.8,4756],[59.8,4841],[59.8,4923],[59.8,5006],[59.8,5090],[59.8,5173],[59.8,5256],[59.8,5341],[59.8,5424],[59.8,5506],[59.8,5589],[59.8,5673],[59.8,5756],[59.8,5840],[59.8,5923],[59.8,6006],[59.8,6089],[59.8,6173],[59.8,6256],[59.8,6340],[59.8,6423],[59.8,6506],[59.8,6589],[59.8,6673],[59.8,6756],[59.8,6839],[59.8,6923],[59.8,7006],[59.8,7090],[59.8,7173],[59.8,7256],[59.8,7340],[59.8,7423],[59.8,7506],[59.8,7589],[59.8,7673],[59.8,7756],[59.8,7839],[59.8,7923],[59.8,8006],[59.8,8089],[59.8,8173],[59.8,8256],[59.8,8339],[59.8,8422],[59.8,8507],[59.8,8589],[59.8,8672],[59.8,8757],[59.8,8839],[59.8,8923],[59.8,9006],[59.8,9089],[59.8,9172],[59.8,9256]]",1,0,482.8558,485.0313,59.76945098,0.7648,"[{""rating"":59.769450980853364,""responseTime"":0.7648000000119168}]",space,1.6349,,485.0315,Half the time,50,485.0348,,,[],,0,12,12,12,1,audio/Narrative8Situation3.wav,audio/Narrative7Situation3.wav,audio/Narrative6Situation3.wav,audio/Narrative5Situation3.wav,4,8,5,3,,,,,,,,,,,,,,,,,,,,,,,,,,,,,,,,,,,,,,,
,,,,,,60fc2ec58ad0da367daee3c1,2024-02-08_15h03.57.319,group3.1-3.2-social-tom,2023.2.2,Win32,59.88023952,65c5074098b851296ff0b7ed,65c541921be6b11ce0d5e775,,,,,,,,,,,,,,,,,,,,,,,,,,,,,485.0351,1,audio/Narrative7Situation4.wav,488.0471,,488.0471,499.7706,"[[59.7,1758],[54.7,1840],[54.7,1923],[54.7,2007],[53.7,2091],[53.4,2173],[53.4,2257],[51.3,2341],[50.3,2424],[50.3,2507],[49.9,2591],[46.5,2675],[38.3,2757],[38,2840],[36.1,2924],[36,3007],[35.8,3090],[30.4,3174],[28.2,3256],[28.2,3340],[28.1,3423],[27.6,3507],[26.9,3590],[26.9,3674],[26.9,3756],[26.9,3840],[26.9,3923],[26.9,4006],[26.9,4090],[26.9,4173],[26.9,4256],[26.9,4340],[26.9,4423],[26.9,4506],[26.9,4589],[26.9,4673],[26.9,4756],[26.9,4840],[26.9,4923],[26.9,5006],[26.9,5090],[26.9,5173],[26.9,5256],[26.9,5340],[26.9,5423],[26.9,5506],[26.9,5590],[26.9,5673],[26.9,5756],[26.9,5840],[26.9,5923],[26.9,6006],[22.2,7008],[53.7,7757],[53.7,7839],[53.2,7924],[52.7,8006],[54.3,8091],[60.6,8174],[71.3,8258],[74.3,8339],[74.3,8423],[74.5,8508],[74.8,8590],[74.8,8673],[75.4,8757]]",1,0,499.7707,505.9298,84.06509393,1.9815,"[{""rating"":84.06509393114597,""responseTime"":1.9814999999999827}]",space,5.6171,,505.9299,All the time,100,505.9442,,,[],,0,13,13,13,1,audio/Narrative8Situation4.wav,audio/Narrative7Situation4.wav,audio/Narrative6Situation4.wav,audio/Narrative5Situation4.wav,3,3,2,1,,,,,,,,,,,,,,,,,,,,,,,,,,,,,,,,,,,,,,,
,,,,,,60fc2ec58ad0da367daee3c1,2024-02-08_15h03.57.319,group3.1-3.2-social-tom,2023.2.2,Win32,59.88023952,65c5074098b851296ff0b7ed,65c541921be6b11ce0d5e775,,,,,,,,,,,,,,,,,,,,,,,,,,,,,505.9445,1,audio/Narrative7Situation5.wav,510.9522,,510.9523,519.4347,"[[999,10],[999,92],[999,175],[999,258],[999,343],[999,425],[999,508],[999,592],[999,675],[999,758],[999,842],[999,925],[999,1008],[999,1092],[999,1175],[999,1258],[999,1342],[999,1425],[999,1508],[999,1592],[999,1677],[999,1758],[999,1841],[999,1925],[999,2009],[999,2091],[999,2175],[999,2258],[999,2341],[999,2425],[999,2508],[999,2591],[999,2675],[999,2758],[999,2842],[999,2925],[999,3008],[999,3092],[999,3175],[999,3258],[999,3343],[999,3424],[999,3510],[999,3592],[42.7,3684],[42.1,3767],[41.7,3849],[41.7,3932],[41.8,4015],[41.8,4099],[43.1,4183],[46.1,4268],[48.8,4350],[49.9,4432],[49.9,4515],[49.9,4599],[49.9,4682],[49.9,4765],[49.9,4849],[49.9,4932],[49.9,5015],[49.9,5099],[49.9,5182],[49.9,5266],[49.9,5349],[49.9,5432],[49.9,5515],[49.9,5599],[49.9,5682],[49.9,5765],[49.9,5851],[49.9,5932],[49.9,6015],[49.9,6100],[49.9,6182],[55,6266],[65.5,6515],[65.5,6599],[65.5,6682],[65.5,6765],[65.5,6848],[65.1,6933],[64.4,7017],[64.4,7098],[64.4,7182],[64.4,7265],[64.4,7348],[64.4,7432],[64.4,7515],[64.4,7598],[64.4,7682],[64.4,7765],[64.4,7849],[64.4,7932],[64.4,8015],[64.4,8098],[64.4,8182],[64.4,8265],[64.4,8349],[64.4,8432]]",1,0,519.4349,522.6012,62.55028154,2.0293,"[{""rating"":62.55028153889871,""responseTime"":2.029300000011972}]",space,2.6191,,522.6012,Half the time,50,522.6054,,,[],,0,14,14,14,1,audio/Narrative8Situation5.wav,audio/Narrative7Situation5.wav,audio/Narrative6Situation5.wav,audio/Narrative5Situation5.wav,2,5,2,5,,,,,,,,,,,,,,,,,,,,,,,,,,,,,,,,,,,,,,,
,,,,,,60fc2ec58ad0da367daee3c1,2024-02-08_15h03.57.319,group3.1-3.2-social-tom,2023.2.2,Win32,59.88023952,65c5074098b851296ff0b7ed,65c541921be6b11ce0d5e775,,,,,,,,,,,,,,,,,,,,,,,,,,,,,522.6059,1,audio/Narrative7Situation6.wav,525.6174,,525.6175,535.6008,"[[59.5,1999],[59.5,2083],[57.9,2500],[57.9,2583],[59.2,2667],[60.6,2750],[60.6,2832],[60.6,2915],[60.4,2999],[60.4,3082],[60.4,3165],[60.3,3249],[60.3,3333],[60.3,3416],[60.3,3499],[60.3,3582],[60.3,3666],[60.3,3749],[60.3,3833],[60.3,3915],[60.3,3999],[60.3,4082],[60.3,4165],[60.3,4249],[60.3,4333],[60.3,4415],[60.3,4499],[60.3,4582],[60.3,4665],[60.3,4749],[60.3,4832],[60.3,4915],[60.3,4999],[60.3,5082],[60.3,5165],[60.3,5249],[60.3,5333],[60.3,5415],[60.3,5499],[60.3,5582],[60.3,5665],[60.3,5749],[60.3,5832],[60.3,5915],[60.3,5998],[60.3,6082],[60.3,6165],[60.3,6249],[60.3,6332],[60.3,6415],[60.3,6499],[60.3,6582],[60.3,6665],[60.3,6748],[60.3,6832],[60.3,6915],[60.3,6998],[60.3,7083],[60.3,7165],[60.3,7248],[60.3,7332],[60.3,7415],[60.3,7498],[60.3,7582],[60.3,7665],[60.3,7748],[60.3,7832],[60.3,7915],[60.3,7998],[60.3,8082],[60.3,8165],[60.3,8248],[60.3,8332],[60.3,8415],[60.3,8498],[60.3,8582],[60.3,8665],[60.3,8748],[60.3,8832],[60.3,8915],[60.3,8998],[60.3,9082],[60.3,9165],[60.3,9248],[60.3,9332],[60.3,9415],[60.3,9498],[60.3,9582],[60.3,9665],[60.3,9748],[61.4,9833],[62.2,9916]]",1,0,535.601,538.3827,61.96484,1.8596,"[{""rating"":61.964840000470446,""responseTime"":1.859599999993975}]",space,2.2343,,538.3828,Half the time,50,538.385,,,[],,0,15,15,15,1,audio/Narrative8Situation6.wav,audio/Narrative7Situation6.wav,audio/Narrative6Situation6.wav,audio/Narrative5Situation6.wav,2,3,2,3,,,,,,,,,,,,,,,,,,,,,,,,,,,,,,,,,,,,,,,
,,,,,,60fc2ec58ad0da367daee3c1,2024-02-08_15h03.57.319,group3.1-3.2-social-tom,2023.2.2,Win32,59.88023952,65c5074098b851296ff0b7ed,65c541921be6b11ce0d5e775,,,,,,,,,,,,,,,,,,,,,,,,,,,,,538.3854,1,audio/Narrative7Situation7.wav,543.3988,,543.3989,560.5807,"[[60.1,592],[60,676],[60,758],[60,842],[59.4,927],[59.2,1008],[59.1,1091],[59.1,1175],[58.8,1258],[58.8,1343],[58.2,1426],[57.3,1512],[55.7,1594],[55.6,1675],[55.6,1757],[55.4,1841],[55,1927],[52.7,2009],[51,2091],[51,2174],[51,2258],[51,2341],[51,2424],[51,2508],[51.2,2591],[51.2,2675],[51.2,2758],[51.2,2841],[51.2,2925],[51.2,3008],[51.2,3091],[55.3,3176],[66.3,3260],[80,3343],[80.2,3425],[80.5,3511],[80.8,3591],[80.8,3675],[80.8,3759],[80.8,3841],[80.8,3922],[80.8,4008],[80.8,4091],[81.9,4176],[82.1,4258],[82.1,4341],[82.1,4425],[82.1,4508],[82.1,4591],[82.1,4675],[81.9,4759],[78.9,4842],[76.7,4926],[76.2,5008],[75.9,5092],[75.5,5175],[74.6,5259],[73.4,5344],[72.1,5426],[70.2,5511],[69.6,5591],[69.6,5675],[69.6,5758],[69.3,5842],[69.3,5925],[69.3,6007],[69.2,6091],[69.2,6175],[69.2,6257],[69.2,6341],[69.2,6425],[69.2,6507],[69.2,6591],[69.2,6675],[69.2,6757],[69.2,6842],[69.2,6924],[69.2,7007],[69.2,7092],[69.2,7175],[69.2,7258],[69.2,7341],[69.2,7424],[69.2,7508],[69.2,7591],[69.2,7674],[69.2,7757],[69.2,7842],[69.2,7924],[69.2,8008],[69.2,8091],[69.2,8175],[69.2,8258],[69.2,8341],[69.2,8424],[69.2,8508],[69.2,8591],[69.2,8674],[69.2,8758],[69.2,8841],[69.2,8924],[69.2,9008],[69.2,9091],[69.2,9174],[69.2,9261],[69.2,9340],[69.2,9490],[69.2,9575],[69.2,9658],[69.2,9741],[69.2,9824],[69.2,9908],[69.2,10016],[69.2,10098],[69.2,10183],[69.2,10265],[69.2,10348],[69.2,10433],[69.2,10515],[69.2,10598],[69.2,10681],[69.2,10765],[69.2,10848],[69.2,10931],[69.2,11015],[69.2,11098],[69.2,11182],[69.2,11265],[69.2,11348],[69.2,11432],[69.2,11515],[69.2,11598],[69.2,11682],[69.2,11765],[69.2,11848],[69.2,11932],[69.2,12015],[69.2,12098],[69.2,12181],[69.2,12265],[69.2,12348],[69.2,12432],[69.8,12522],[71.4,12599],[71.8,12681],[72.3,12764],[72.3,12848],[72.3,12931],[72.6,13015],[72.9,13098],[72.9,13181],[73,13264],[73.2,13348],[73.2,13431],[73.2,13515],[73.2,13598],[73.2,13682],[73.2,13764],[73.2,13848],[73.2,13931],[73.2,14014],[73.2,14098],[73.2,14181],[73.2,14264],[73.2,14348],[73.2,14432],[73.2,14514],[73.2,14598],[73.2,14681],[73.2,14764],[73.2,14848],[73.2,14931],[73.2,15014],[73.3,15098],[73.6,15181],[73.6,15266],[73.6,15348],[73.6,15431],[73.6,15514],[73.6,15598],[73.6,15681],[73.6,15764],[73.6,15848],[75.1,15932],[77.1,16014],[79.3,16099],[80,16182],[80.6,16266],[82.1,16348],[83.4,16432],[85,16515],[86.9,16598],[86.9,16682],[86.9,16764],[86.9,16847],[86.9,16931],[86.9,17014],[86.9,17097],[86.9,17181]]",1,0,560.581,565.5804,71.47820135,1.8934,"[{""rating"":77.62529060679962,""responseTime"":1.2132000000178778},{""rating"":71.47820135187183,""responseTime"":1.893400000005954}]",space,4.457,,565.5805,Not at all,0,565.5845,,,[],,0,16,16,16,1,audio/Narrative8Situation7.wav,audio/Narrative7Situation7.wav,audio/Narrative6Situation7.wav,audio/Narrative5Situation7.wav,3,5,5,4,,,,,,,,,,,,,,,,,,,,,,,,,,,,,,,,,,,,,,,
,,,,,,60fc2ec58ad0da367daee3c1,2024-02-08_15h03.57.319,group3.1-3.2-social-tom,2023.2.2,Win32,59.88023952,65c5074098b851296ff0b7ed,65c541921be6b11ce0d5e775,,,,,,,,,,,,,,,,,,,,,,,,,,,,,565.5849,1,audio/Narrative7Situation8.wav,567.5972,,567.5972,577.6288,"[[999,0],[999,83],[999,166],[999,248],[999,333],[999,415],[999,499],[999,582],[999,665],[999,750],[999,833],[69.2,917],[65.2,1000],[61.6,1083],[59,1166],[51.8,1250],[45,1333],[42.3,1416],[42.3,1498],[42.3,1583],[42.3,1665],[42.4,1749],[43.9,1834],[46.5,1915],[46.5,1999],[46.5,2082],[46.5,2165],[46.5,2248],[46.5,2333],[46.5,2415],[46.5,2498],[46.5,2583],[46.5,2665],[46.5,2748],[46.8,2833],[46.8,2915],[46.9,2998],[46.9,3081],[49,3166],[58.5,3249],[58.7,3332],[58.7,3415],[60.9,3500],[63.3,3582],[63.3,3665],[65.2,3749],[67.3,3832],[67.3,3915],[68.8,3999],[72.7,4833],[72.1,4916],[71.3,4999],[71.3,5082],[71.3,5165],[71.3,5248],[71.3,5332],[71.3,5416],[71.3,5498],[71.3,5584],[71.3,5665],[71.3,5748],[71.3,5832],[71.3,5915],[71.3,5998],[71.3,6082],[71.3,6165],[71.3,6248],[71.3,6332],[71.3,6415],[71.3,6498],[71.3,6582],[71.3,6664],[71.3,6748],[71.3,6831],[71.3,6914],[71.3,6998],[71.3,7082],[71.7,7165],[72.4,7249],[72.4,7331],[72.4,7414],[72.4,7498],[72.4,7582],[72.4,7669],[72.4,7748],[72.4,7831],[72.4,7914],[72.4,7998],[72.4,8081],[72.4,8164],[72.4,8248],[72.4,8331],[72.4,8414],[72.4,8498],[72.4,8582],[72.4,8664],[72.4,8748],[72.4,8831],[72.4,8914],[72.4,8998],[72.4,9081],[72.4,9164],[72.4,9248],[72.4,9331],[72.4,9414],[72.4,9497],[72.4,9581],[72.4,9664],[72.4,9748],[72.4,9831],[72.4,9914],[72.4,9997]]",1,0,577.6289,581.045,66.2092677,1.5091,"[{""rating"":66.20926770479088,""responseTime"":1.5091000000238637}]",space,2.8858,,581.0451,All the time,100,581.049,,,[],,0,17,17,17,1,audio/Narrative8Situation8.wav,audio/Narrative7Situation8.wav,audio/Narrative6Situation8.wav,audio/Narrative5Situation8.wav,3,2,5,3,,,,,,,,,,,,,,,,,,,,,,,,,,,,,,,,,,,,,,,
,,,,,,60fc2ec58ad0da367daee3c1,2024-02-08_15h03.57.319,group3.1-3.2-social-tom,2023.2.2,Win32,59.88023952,65c5074098b851296ff0b7ed,65c541921be6b11ce0d5e775,,,,,,,,,,,,,,,,,,,,,,,,,,,,,581.0497,1,audio/Narrative7Situation9.wav,583.0612,,583.0613,591.6937,"[[67,834],[66.4,917],[66,1001],[65.4,1083],[65.4,1166],[65.4,1249],[65.4,1333],[65.4,1416],[65.4,1500],[65.4,1583],[65.4,1666],[65.4,1749],[65.4,1832],[65.4,1916],[65.4,1999],[65.4,2083],[65.4,2166],[65.4,2249],[65.4,2334],[65.4,2416],[65.4,2499],[65.4,2583],[65.4,2666],[65.4,2749],[65.4,2832],[65.4,2916],[65.4,2999],[65.4,3082],[65.4,3166],[65.4,3249],[65.4,3332],[65.4,3416],[65.4,3499],[65.4,3582],[65.4,3666],[65.4,3749],[65.4,3832],[65.4,3916],[65.4,3999],[65.4,4082],[65.4,4166],[65.4,4249],[65.4,4332],[65.4,4416],[65.4,4500],[65.4,4582],[65,4666],[64.4,4750],[64.2,4832],[64.2,4916],[64.1,5000],[64.1,5082],[64.1,5165],[64.1,5249],[64.7,5333],[67.4,5417],[69.8,5500],[77.7,5584],[81.2,5666],[82.1,5750],[82.2,5832],[82.7,5916],[82.7,5999],[82.7,6082],[82.7,6165],[82.7,6249],[83.3,6333],[85.6,6416],[86.6,6500],[87.4,6582],[87.8,6666],[87.8,6749],[87.8,6832],[87.8,6915],[87.8,6999],[87.8,7082],[87.8,7165],[87.8,7249],[87.8,7332],[87.8,7415],[87.8,7499],[87.8,7582],[87.8,7665],[87.8,7749],[87.8,7832],[87.8,7915],[87.8,7999],[87.8,8082],[87.8,8165],[87.8,8249],[87.8,8332],[87.8,8415],[87.8,8499],[87.8,8582]]",1,0,591.6939,594.7766,87.7240801,0.4438,"[{""rating"":87.72408009703815,""responseTime"":0.4438000000119473}]",space,2.5394,,594.7768,Not at all,0,617.2414,0.054869647,8.4659,"[{""rating"":0.05486964726913457,""responseTime"":8.465900000005945}]",space,0,18,18,18,1,audio/Narrative8Situation9.wav,audio/Narrative7Situation9.wav,audio/Narrative6Situation9.wav,audio/Narrative5Situation9.wav,3,2,4,3,,,21.9145,,,,,,,,,,,,,,,,,,,,,,,,,,,,,,,,,,,,
,,,,,,60fc2ec58ad0da367daee3c1,2024-02-08_15h03.57.319,group3.1-3.2-social-tom,2023.2.2,Win32,59.88023952,65c5074098b851296ff0b7ed,65c541921be6b11ce0d5e775,,,,,,,,,,,,,,,,,,,,,,,,,,,620.071,622.652,622.7172,2,audio/Narrative13Situation2.wav,622.7173,,622.7173,652.472,"[[999,0],[44,749],[44,833],[44,915],[44,999],[44,1082],[44,1165],[44,1249],[44,1332],[44,1415],[44,1499],[44,1582],[44,1665],[44,1748],[44,1832],[44,1915],[44,1998],[44,2082],[44,2165],[44,2248],[44,2332],[44,2415],[44,2498],[44,2582],[44,2665],[44,2749],[44,2831],[44,2915],[44,2998],[44,3082],[44,3165],[44,3249],[44,3331],[44,3415],[39.3,3500],[31.1,3583],[29.1,3665],[25.6,3750],[22.3,3833],[21.9,3914],[21.9,3999],[21.2,4082],[17.1,4166],[16.3,4249],[15.3,4334],[14.7,4414],[14.7,4499],[14.7,4581],[13,4666],[12.7,4748],[12.7,4832],[12.7,4914],[12.7,4998],[12.7,5081],[12.7,5164],[12.7,5248],[12.7,5331],[12.7,5414],[12.7,5498],[12.7,5581],[12.7,5664],[12.7,5748],[12.7,5831],[12.7,5914],[12.7,5998],[12.7,6082],[12.7,6164],[12.7,6247],[12.7,6331],[12.7,6414],[12.7,6498],[12.7,6581],[12.7,6664],[12.7,6747],[12.7,6831],[12.7,6914],[12.7,6998],[12.7,7081],[12.7,7164],[12.7,7248],[12.7,7331],[12.7,7414],[12.7,7497],[12.7,7581],[12.7,7664],[12.7,7748],[12.7,7831],[12.7,7914],[12.7,7997],[12.7,8081],[12.7,8164],[12.7,8247],[12.7,8331],[12.7,8414],[12.7,8497],[12.7,8581],[12.7,8664],[12.7,8748],[12.7,8831],[12.7,8913],[12.7,8997],[12.7,9080],[12.7,9164],[12.7,9247],[12.7,9331],[12.7,9416],[12.7,9497],[12.7,9581],[12.7,9664],[12.7,9747],[12.7,9831],[12.7,9914],[12.7,9997],[12.7,10081],[12.7,10164],[12.7,10247],[12.7,10331],[12.7,10414],[12.7,10498],[12.7,10580],[12.7,10664],[12.7,10747],[12.7,10830],[12.7,10914],[12.7,10997],[12.7,11081],[12.7,11163],[12.8,11248],[12.8,11338],[12.8,11422],[12.8,11505],[12.8,11589],[12.8,11671],[12.8,11755],[12.8,11839],[12.8,11922],[12.8,12005],[12.8,12089],[12.8,12171],[12.8,12255],[12.8,12338],[12.8,12421],[12.8,12505],[12.8,12589],[12.8,12672],[12.8,12755],[12.8,12838],[12.8,12922],[12.8,13005],[12.8,13088],[12.8,13171],[12.8,13254],[12.8,13339],[12.8,13421],[12.8,13504],[12.8,13588],[12.8,13671],[12.8,13755],[12.8,13839],[12.8,13921],[12.8,14004],[12.8,14090],[12.8,14171],[12.8,14254],[12.8,14338],[12.8,14421],[12.8,14505],[12.8,14587],[12.8,14671],[12.8,14754],[12.8,14839],[13.3,14923],[13.4,15004],[13.4,15088],[13.6,15172],[15.6,15256],[22,16756],[21,16837],[21,16922],[20.9,17004],[20.9,17087],[20.9,17171],[20.9,17254],[20.9,17338],[20.9,17421],[20.9,17504],[20.9,17587],[20.9,17671],[20.9,17754],[20.9,17838],[20.9,17921],[20.9,18004],[20.9,18088],[20.9,18171],[20.9,18254],[20.9,18337],[20.9,18421],[20.9,18505],[20.9,18587],[20.9,18671],[20.9,18754],[20.9,18837],[20.9,18921],[20.9,19004],[20.9,19087],[20.9,19171],[20.9,19254],[20.9,19337],[20.9,19421],[20.9,19504],[20.9,19587],[20.9,19671],[20.9,19754],[20.9,19837],[20.9,19921],[20.9,20004],[20.9,20087],[20.9,20170],[20.9,20254],[20.9,20337],[20.9,20420],[20.9,20504],[20.9,20587],[20.9,20671],[20.9,20754],[20.9,20837],[20.9,20920],[20.9,21004],[20.9,21087],[20.9,21170],[20.9,21254],[20.9,21337],[21.2,21422],[21.5,21504],[22.5,21589],[24.7,21670],[24.8,21754],[29.7,21840],[45.3,21921],[51,22005],[51,22087],[51,22171],[49.1,22255],[48,22337],[47.8,22420],[47.8,22504],[47.8,22587],[47.8,22670],[47.8,22754],[47.8,22837],[47.8,22920],[47.8,23004],[47.8,23087],[47.8,23170],[47.8,23254],[47.8,23337],[47.8,23420],[47.8,23504],[47.8,23587],[47.8,23670],[48,23754],[48.7,23838],[50.3,23922],[53.7,24004],[53.7,24087],[57.3,24171],[66,25504],[66.1,25587],[66.1,25670],[66.1,25753],[66.1,25837],[66.1,25920],[66.1,26003],[66.1,26087],[66.1,26170],[66.1,26253],[66.1,26337],[66.1,26420],[66.1,26503],[66.1,26587],[66.1,26670],[66.1,26753],[66.1,26836],[66.1,26920],[66.1,27003],[66.1,27087],[66.1,27170],[66.1,27253],[66.1,27336],[66.1,27420],[66.1,27503],[66.1,27586],[66.1,27670],[66.1,27753],[66.1,27836],[66.1,27920],[66.1,28003],[66.1,28086],[66.1,28170],[66.1,28253],[66.1,28336],[66.1,28420],[66.1,28503],[66.1,28586],[66.1,28670],[66.1,28753],[66.1,28836],[66.1,28920],[66.1,29003],[66.1,29086],[66.1,29170],[66.1,29253],[66.1,29336],[66.1,29420],[66.1,29503],[66.1,29586],[66.1,29670],[66,29754]]",1,0,652.4722,652.4843,,,[],,,,652.4844,Half the time,50,652.4894,,,[],,0,0,0,0,1,audio/Narrative13Situation2.wav,audio/Narrative13Situation2.wav,audio/Narrative13Situation2.wav,audio/Narrative13Situation2.wav,2,2,2,2,,,,,617.2526,620.0698,space,2.285,,,,,,,,,,,,,,,,,,,,,,,,,,,,,,,
,,,,,,60fc2ec58ad0da367daee3c1,2024-02-08_15h03.57.319,group3.1-3.2-social-tom,2023.2.2,Win32,59.88023952,65c5074098b851296ff0b7ed,65c541921be6b11ce0d5e775,,,,,,,,,,,,,,,,,,,,,,,,,,,,,652.4897,2,audio/Narrative6Situation1.wav,654.5043,,654.5044,681.1013,"[[63.6,1084],[63.6,1166],[63.5,1249],[63.3,1332],[63.3,1415],[63.3,1499],[63.3,1583],[63.3,1665],[63.3,1749],[63.3,1832],[63.3,1916],[63.3,1999],[63.3,2082],[63.3,2165],[63.3,2249],[63.3,2332],[63.3,2415],[63.3,2499],[62.3,2583],[58.2,2666],[54.7,2750],[49.4,2834],[47.4,2915],[47.4,3000],[47.4,3082],[47.4,3165],[49.4,3250],[54,3333],[56.3,3416],[57.8,3500],[63.3,3584],[66,3666],[69.2,3749],[72.4,3834],[76.7,3916],[80,4000],[80,4082],[80,4165],[80,4248],[80,4332],[80,4415],[80,4498],[80,4582],[80,4665],[80,4748],[80,4832],[80,4915],[80,4998],[80,5082],[80,5165],[80.8,5250],[80.9,5332],[80.9,5415],[80.9,5498],[80.9,5582],[80.9,5665],[80.9,5748],[80.9,5832],[80.9,5915],[80.9,5998],[80.9,6082],[80.9,6165],[80.9,6248],[80.9,6332],[80.9,6415],[80.9,6498],[81.5,6582],[81.8,6665],[81.8,6748],[81.9,6832],[82.1,6915],[82.2,6998],[82.2,7082],[82.2,7165],[82.2,7248],[82.2,7332],[82.2,7415],[82.2,7498],[82.2,7582],[82.2,7665],[82.2,7748],[82.2,7832],[82.2,7915],[82.2,7998],[82.2,8082],[82.2,8166],[82.2,8248],[82.2,8332],[82.2,8415],[82.2,8498],[82.2,8582],[82.2,8665],[82.2,8748],[82.2,8832],[82.2,8915],[82.2,8998],[82.2,9082],[82.2,9165],[82.2,9248],[82.2,9332],[82.2,9415],[82.2,9498],[82.2,9582],[82.2,9664],[82.2,9748],[82.2,9832],[82.2,9914],[82.4,9998],[82.5,10082],[82.5,10164],[82.5,10248],[82.5,10332],[82.5,10414],[82.5,10498],[82.5,10582],[82.5,10664],[82.5,10748],[77.5,10833],[77,10914],[77,10998],[77,11081],[78.3,11166],[80.3,11249],[80.9,11333],[81.9,11415],[82.4,11498],[82.7,11582],[83.1,11664],[83.4,11748],[83.4,11831],[83.4,11914],[83.4,11998],[83.4,12082],[83.4,12164],[83.4,12248],[83.4,12332],[83.4,12414],[83.4,12497],[83.4,12581],[83.4,12664],[83.4,12747],[83.4,12831],[83.4,12914],[83.4,12998],[83.4,13081],[83.4,13164],[83.4,13247],[83.4,13331],[83.4,13414],[83.4,13497],[83.4,13581],[83.4,13664],[83.4,13747],[83.4,13833],[83.4,13914],[82.8,13998],[82.2,14081],[82.1,14164],[82.1,14247],[82.1,14331],[82.1,14414],[82.1,14497],[82.1,14581],[82.1,14664],[82.1,14748],[82.1,14831],[82.1,14914],[82.1,14997],[82.1,15081],[82.1,15164],[82.1,15247],[82.1,15331],[82.1,15414],[82.1,15497],[82.1,15583],[82.1,15664],[82.1,15747],[82.1,15830],[82.1,15914],[82.1,15997],[82.1,16080],[82.1,16164],[82.1,16247],[82.1,16331],[82.1,16414],[82.1,16497],[82.1,16580],[82.1,16664],[82.1,16747],[82.1,16831],[82.1,16914],[82.1,16998],[82.1,17080],[82.1,17164],[82.1,17247],[82.1,17330],[82.1,17414],[82.1,17497],[82.1,17581],[82.1,17664],[82.1,17748],[82.1,17831],[82.1,17914],[82.1,17997],[82.1,18080],[82.1,18164],[82.1,18247],[84.3,18333],[85,18413],[85,18497],[85,18580],[85,18664],[85,18747],[85.3,18835],[85.3,18913],[85.3,18997],[85.3,19080],[85.3,19164],[85.3,19247],[85.3,19330],[85.3,19414],[85.3,19497],[85.3,19580],[85.3,19663],[85.3,19747],[85.3,19833],[85.3,19913],[85.3,19997],[85.3,20080],[85.3,20164],[85.3,20247],[85.3,20330],[85.3,20413],[85.3,20497],[85.3,20580],[85.3,20663],[85.3,20747],[85.3,20832],[85.3,20913],[85.3,20997],[85.3,21080],[85.3,21163],[85.3,21247],[85.3,21330],[86.2,21415],[87.2,21497],[90.6,21581],[96.3,21665],[96.9,21747],[96.9,21830],[98.3,21914],[100,21997],[100,22080],[100,22163],[100,22247],[100,22331],[100,22413],[100,22497],[100,22580],[100,22663],[100,22746],[100,22830],[100,22913],[100,22997],[100,23080],[100,23163],[100,23247],[100,23330],[100,23413],[100,23496],[100,23580],[100,23663],[100,23746],[100,23830],[100,23913],[100,23996],[100,24080],[100,24163],[100,24246],[100,24330],[100,24413],[100,24496],[100,24580],[100,24663],[100,24746],[100,24830],[100,24913],[100,24998],[100,25081],[99.7,25164],[99.7,25246],[99.7,25330],[100,25413],[100,25496],[100,25580],[100,25663],[100,25746],[100,25830],[100,25913],[100,25996],[100,26080],[100,26163],[100,26246],[100,26330],[100,26413],[100,26496],[100,26579]]",1,0,681.1017,701.2325,98.7010252,3.7992,"[{""rating"":98.70102519512346,""responseTime"":3.799199999987991}]",space,19.588,,701.2326,Not at all,0,701.2472,,,[],,0,1,1,1,1,audio/Narrative7Situation1.wav,audio/Narrative8Situation1.wav,audio/Narrative5Situation1.wav,audio/Narrative6Situation1.wav,2,5,5,2,,,,,,,,,,,,,,,,,,,,,,,,,,,,,,,,,,,,,,,
,,,,,,60fc2ec58ad0da367daee3c1,2024-02-08_15h03.57.319,group3.1-3.2-social-tom,2023.2.2,Win32,59.88023952,65c5074098b851296ff0b7ed,65c541921be6b11ce0d5e775,,,,,,,,,,,,,,,,,,,,,,,,,,,,,701.2485,2,audio/Narrative6Situation2.wav,704.2589,,704.259,732.7627,"[[999,1],[999,90],[999,173],[999,259],[999,341],[999,423],[999,509],[999,590],[999,674],[999,759],[999,841],[999,924],[999,1008],[999,1090],[70.2,1182],[69.3,1258],[68.9,1343],[67.7,1426],[66.7,1508],[66.3,1590],[66.3,1673],[66.3,1756],[66.3,1840],[66.3,1923],[66.3,2006],[66.3,2090],[66.3,2173],[66.3,2258],[64.4,2340],[64.4,2423],[64.4,2506],[64.4,2590],[64.4,2673],[64.4,2758],[61.6,2843],[61.6,2923],[61.6,3005],[61.6,3089],[61.6,3172],[61.6,3256],[61.6,3339],[61.6,3422],[61.6,3506],[61.6,3589],[61.6,3672],[61.6,3755],[61.6,3839],[61.6,3922],[61.6,4005],[61.6,4089],[61.6,4172],[61.6,4255],[61.6,4339],[61.6,4422],[61.6,4505],[63.1,4590],[66,4673],[69.6,4757],[70.4,4839],[70.5,4923],[70.5,5005],[70.5,5089],[70.5,5172],[70.5,5255],[70.5,5339],[70.5,5422],[71,5506],[71.5,5590],[71.5,5672],[71.5,5755],[71.5,5838],[71.5,5922],[71.5,6005],[71.5,6089],[71.5,6172],[71.5,6255],[71.5,6339],[71.5,6422],[71.5,6505],[71.5,6588],[71.5,6672],[71.5,6755],[71.5,6839],[71.5,6922],[71.5,7005],[71.5,7088],[71.5,7172],[71.5,7255],[71.5,7339],[71.5,7422],[71.5,7505],[71.5,7589],[71.5,7672],[71.5,7755],[71.5,7838],[71.8,7923],[72,8005],[72,8089],[72,8172],[72.1,8256],[72.1,8339],[72.1,8422],[72.1,8505],[72.1,8588],[72.1,8672],[72.6,8756],[73.3,8838],[73.3,8922],[73.9,9006],[74,9088],[74,9172],[74,9255],[74,9338],[74,9422],[74,9505],[74,9589],[74,9672],[74,9755],[74,9839],[74,9921],[74,10005],[74,10088],[74,10171],[74,10255],[74,10339],[74,10421],[74,10505],[74,10588],[74,10671],[74,10755],[74,10838],[74,10922],[74,11005],[74,11089],[74,11171],[74,11254],[74,11338],[74,11421],[74,11505],[74,11588],[74,11671],[74,11754],[74,11838],[74,11921],[74,12004],[74,12088],[73.7,12177],[73.7,12255],[73.7,12338],[73.7,12421],[73.6,12505],[71,12589],[70.4,12671],[70.4,12755],[70.4,12838],[70.4,12921],[70.4,13005],[70.2,13090],[69.9,13171],[69.9,13254],[69.8,13338],[69.8,13421],[69.8,13504],[69.8,13588],[68.5,13672],[67.6,13755],[67.6,13838],[67.6,13921],[67,14006],[66.3,14088],[66.1,14171],[65.7,14255],[64.5,14339],[63.6,14422],[63.6,14504],[63.6,14588],[62.6,14672],[61.7,14755],[61.4,14838],[61.4,14921],[61.4,15004],[61.4,15088],[61.4,15171],[61.4,15254],[61.4,15338],[61.4,15421],[61.4,15504],[61.4,15588],[61.4,15671],[61.4,15754],[61.4,15838],[61.4,15921],[61.4,16004],[61.4,16088],[65,16172],[67.6,16255],[67.6,16338],[67.6,16421],[68.5,16506],[69.5,16589],[69.5,16671],[69.5,16754],[69.5,16838],[70.1,16922],[70.1,17004],[70.1,17089],[70.1,17170],[70.1,17254],[70.1,17340],[70.1,17421],[70.7,17506],[71.3,17589],[72,17672],[72.7,17754],[73.3,17839],[73.4,17921],[74,18004],[74,18088],[76.5,18172],[77.5,18255],[78.3,18339],[79.2,18423],[79.5,18504],[79.5,18588],[79.5,18671],[80.3,18755],[80.6,18838],[80.6,18921],[80.9,19004],[81.1,19088],[81.1,19171],[81.1,19255],[81.4,19339],[81.6,19422],[82.4,19505],[83.3,19588],[83.3,19670],[83.3,19754],[83.4,19838],[84.7,19920],[84.7,20004],[84.7,20088],[84.7,20170],[84.7,20254],[84.7,20340],[84.7,20420],[84.7,20504],[84.7,20588],[84.7,20670],[84.7,20754],[84.7,20838],[84.7,20920],[84.7,21004],[84.7,21088],[84.7,21170],[84.7,21254],[84.7,21338],[84.7,21420],[84.7,21504],[84.7,21588],[84.7,21670],[84.7,21754],[84.7,21837],[84.7,21920],[84.7,22004],[84.7,22087],[84.7,22170],[84.7,22254],[84.7,22338],[84.7,22420],[84.7,22504],[84.7,22587],[84.7,22670],[84.7,22754],[84.7,22838],[84.7,22920],[84.7,23003],[84.7,23088],[84.7,23170],[84.7,23254],[84.7,23337],[84.7,23420],[84.7,23503],[84.7,23587],[84.7,23670],[84.7,23753],[84.7,23838],[84.7,23920],[84.7,24003],[84.7,24087],[84.7,24170],[84.7,24254],[84.7,24337],[84.7,24420],[84.7,24503],[84.7,24587],[84.7,24670],[84.7,24753],[84.7,24838],[84.7,24920],[84.7,25003],[84.7,25088],[84.7,25170],[84.7,25253],[84.7,25336],[84.7,25420],[84.7,25503],[84.7,25588],[84.7,25670],[84.7,25753],[84.7,25837],[84.7,25920],[84.7,26003],[84.7,26086],[84.7,26170],[84.7,26253],[84.7,26338],[84.7,26420],[84.7,26503],[84.7,26587],[84.7,26670],[84.7,26753],[84.7,26836],[84.7,26920],[84.7,27003],[84.7,27087],[84.7,27170],[84.7,27253],[84.7,27337],[84.7,27420],[84.7,27503],[84.7,27587],[84.7,27670],[84.7,27753],[84.7,27837],[84.7,27920],[84.7,28003],[84.7,28086],[84.7,28169],[84.7,28253],[84.7,28336],[84.7,28420],[84.7,28503]]",1,0,732.7631,739.2285,81.28426337,5.4496,"[{""rating"":81.28426337310063,""responseTime"":5.449599999994007}]",space,5.9192,,739.2286,Half the time,50,739.2326,,,[],,0,2,2,2,1,audio/Narrative7Situation2.wav,audio/Narrative8Situation2.wav,audio/Narrative5Situation2.wav,audio/Narrative6Situation2.wav,3,3,3,3,,,,,,,,,,,,,,,,,,,,,,,,,,,,,,,,,,,,,,,
,,,,,,60fc2ec58ad0da367daee3c1,2024-02-08_15h03.57.319,group3.1-3.2-social-tom,2023.2.2,Win32,59.88023952,65c5074098b851296ff0b7ed,65c541921be6b11ce0d5e775,,,,,,,,,,,,,,,,,,,,,,,,,,,,,739.2338,2,audio/Narrative6Situation3.wav,744.2448,,744.2448,756.8523,"[[74.6,676],[73.6,758],[73.6,842],[73.2,925],[72.9,1009],[72.7,1092],[72.7,1175],[72.7,1258],[72.7,1342],[72.7,1425],[72.7,1508],[69.6,1593],[53.2,1677],[51.8,1758],[51.8,1841],[51.8,1925],[66.9,2009],[67.9,2092],[71.1,2176],[77.1,2260],[78.6,2343],[80.3,2425],[81.2,2509],[82.8,2592],[84.6,2676],[84.9,2758],[84.9,2842],[84.9,2925],[84.9,3008],[84.9,3092],[84.9,3174],[84.9,3258],[84.9,3342],[84.9,3425],[84.9,3508],[84.9,3592],[84.9,3675],[84.9,3758],[84.9,3841],[84.9,3925],[84.9,4008],[84.9,4092],[84.9,4174],[84.9,4258],[84.9,4342],[84.9,4425],[84.9,4507],[84.9,4591],[84.9,4674],[84.9,4758],[84.9,4842],[84.9,4925],[84.9,5008],[84.9,5092],[84.9,5175],[84.9,5258],[84.9,5342],[84.9,5425],[84.3,5509],[83.8,5592],[83.3,5676],[79.2,5760],[76.1,5843],[75.6,5924],[75.6,6007],[75.6,6092],[75.5,6174],[75.5,6258],[75.5,6340],[75.5,6424],[74.6,6509],[72.7,6592],[72.6,6674],[72.6,6757],[72.1,6842],[70.1,6926],[69.3,7009],[69.3,7090],[69.3,7174],[69.3,7257],[69.3,7343],[69.3,7425],[69.3,7508],[69.3,7590],[69.3,7675],[69.3,7757],[69.3,7842],[69.3,7924],[69.3,8007],[69.3,8090],[69.3,8174],[69.3,8257],[69.3,8340],[69.3,8424],[69.3,8507],[69.3,8592],[68.9,8675],[68.5,8759],[68.3,8840],[68.3,8924],[67.4,9009],[67.3,9090],[67.3,9174],[67.3,9257],[66.7,9342],[66.3,9426],[66.3,9507],[66.3,9590],[66.3,9674],[66.3,9757],[65.2,9842],[64.7,9924],[64.7,10007],[64.7,10090],[64.5,10174],[64.5,10257],[64.5,10340],[64.5,10424],[64.5,10507],[64.5,10591],[64.5,10674],[64.5,10757],[64.5,10840],[64.5,10924],[64.5,11007],[64.5,11090],[64.5,11174],[64.5,11257],[64.7,11341],[64.8,11424],[64.8,11507],[64.8,11592],[64.8,11673],[64.8,11756],[64.8,11840],[64.8,11923],[64.8,12007],[64.8,12090],[64.8,12174],[64.8,12256],[64.8,12340],[64.8,12424],[64.8,12506],[64.8,12590]]",1,0,756.8525,760.0872,64.74567056,0.8842,"[{""rating"":64.74567055851577,""responseTime"":0.8841999999881409}]",space,2.7011,,760.0873,Not at all,0,760.0909,,,[],,0,3,3,3,1,audio/Narrative7Situation3.wav,audio/Narrative8Situation3.wav,audio/Narrative5Situation3.wav,audio/Narrative6Situation3.wav,8,4,3,5,,,,,,,,,,,,,,,,,,,,,,,,,,,,,,,,,,,,,,,
,,,,,,60fc2ec58ad0da367daee3c1,2024-02-08_15h03.57.319,group3.1-3.2-social-tom,2023.2.2,Win32,59.88023952,65c5074098b851296ff0b7ed,65c541921be6b11ce0d5e775,,,,,,,,,,,,,,,,,,,,,,,,,,,,,760.0929,2,audio/Narrative6Situation4.wav,762.1012,,762.1012,774.7013,"[[60.7,1168],[58.1,1251],[57.9,1333],[57.8,1417],[56.3,1502],[54.7,1584],[54.6,1667],[54.6,1750],[54.6,1833],[54.6,1916],[54.6,2000],[54.6,2083],[54.6,2167],[54.6,2250],[54.6,2333],[54.6,2417],[54.6,2500],[54.6,2583],[54.6,2666],[54.6,2750],[54.6,2834],[54.6,2916],[54.6,3000],[54.6,3083],[54.6,3167],[54.6,3251],[55.7,3335],[57.6,3417],[57.6,3500],[57.6,3583],[57.6,3666],[59.4,3751],[65,3834],[65.2,3917],[65.5,4000],[65.5,4083],[65.5,4166],[65.5,4250],[65.5,4333],[65.5,4417],[65.5,4500],[65.5,4583],[65.5,4666],[65.5,4750],[65.5,4832],[72.6,4918],[72.7,4999],[72.7,5083],[72.7,5167],[72.7,5250],[75.9,5334],[78.6,5417],[79.3,5501],[79.3,5583],[79.3,5666],[79.3,5749],[79.3,5833],[79.3,5916],[79.3,6000],[79.3,6083],[79.3,6166],[79.3,6249],[79.3,6334],[79.3,6417],[79.3,6500],[79.3,6583],[79.3,6668],[79.3,6749],[78.9,6834],[78.9,6917],[78.6,7002],[77.1,7086],[76.7,7167],[76.5,7250],[76.5,7333],[74,7420],[72.6,7501],[72.1,7583],[72.1,7667],[72.1,7750],[72.1,7833],[72.1,7917],[72.1,8000],[72.1,8088],[72.1,8167],[72.1,8251],[72.1,8333],[72.1,8417],[72.1,8499],[72.1,8584],[72.1,8667],[72.4,8750],[72.4,8833],[72.4,8917],[72.4,9000],[72.4,9085],[72.4,9167],[72.4,9250],[72.4,9333],[72.4,9417],[72.4,9500],[76.1,9587],[79.3,9667],[79.3,9750],[79.5,9833],[79.5,9917],[79.5,10000],[79.5,10084],[79.5,10167],[79.5,10249],[79.5,10333],[79.5,10417],[79.5,10500],[79.5,10583],[79.5,10668],[79.5,10749],[79.5,10834],[79.5,10917],[79.5,11000],[79.5,11082],[79.5,11167],[79.5,11249],[79.5,11333],[79.5,11417],[79.5,11500],[79.5,11586],[79.5,11667],[79.5,11749],[79.5,11833],[79.5,11917],[79.5,12000],[79.5,12082],[79.5,12167],[79.5,12249],[79.5,12334],[79.5,12417],[79.5,12499],[79.5,12582]]",1,0,774.7016,785.2738,71.77091542,9.1841,"[{""rating"":71.7709154212904,""responseTime"":9.184099999994032}]",space,10.0317,,785.2739,Not at all,0,785.2762,,,[],,0,4,4,4,1,audio/Narrative7Situation4.wav,audio/Narrative8Situation4.wav,audio/Narrative5Situation4.wav,audio/Narrative6Situation4.wav,3,3,1,2,,,,,,,,,,,,,,,,,,,,,,,,,,,,,,,,,,,,,,,
,,,,,,60fc2ec58ad0da367daee3c1,2024-02-08_15h03.57.319,group3.1-3.2-social-tom,2023.2.2,Win32,59.88023952,65c5074098b851296ff0b7ed,65c541921be6b11ce0d5e775,,,,,,,,,,,,,,,,,,,,,,,,,,,,,785.2766,2,audio/Narrative6Situation5.wav,787.2904,,787.2904,795.2571,"[[66.1,1250],[65.1,1333],[63.9,1417],[62,1501],[61.9,1582],[61.9,1667],[61.9,1749],[61.9,1832],[61.9,1916],[61.9,1999],[61.9,2082],[61.3,2168],[59.4,2250],[59.4,2332],[59.4,2416],[59.4,2499],[59.4,2582],[59.4,2666],[59.4,2749],[59.4,2832],[59.4,2917],[59.4,2999],[59.4,3082],[59.4,3166],[59.4,3249],[59.4,3332],[59.4,3416],[59.4,3499],[59.4,3582],[59.4,3666],[59.4,3749],[59.4,3832],[59.4,3916],[59.4,3999],[59.4,4082],[59.8,4167],[60.4,4250],[60.9,4333],[61.1,4416],[61.4,4499],[61.4,4582],[62.3,4667],[63.2,4750],[64.1,4832],[64.7,4916],[64.8,4999],[65,5083],[65.1,5166],[65.2,5250],[65.2,5332],[65.2,5416],[65.2,5499],[65.5,5583],[66.3,5667],[66.7,5749],[66.7,5832],[66.7,5916],[66.7,5999],[66.7,6082],[66.7,6166],[66.7,6249],[66.7,6332],[66.7,6416],[66.7,6499],[66.7,6582],[66.7,6666],[66.7,6748],[66.7,6832],[67.4,6917],[71.8,7000],[75.2,7083],[76.2,7166],[76.4,7249],[77,7333],[77.1,7417],[77.1,7498],[77.1,7582],[77.1,7666],[77.1,7748],[77.1,7832],[77.1,7915]]",1,0,795.2573,798.6224,76.45440753,0.8267,"[{""rating"":76.45440752994305,""responseTime"":0.8266999999880227}]",space,2.8208,,798.6224,Half the time,50,816.1706,49.37794742,5.2437,"[{""rating"":49.37794742119631,""responseTime"":5.243699999988053}]",space,0,5,5,5,1,audio/Narrative7Situation5.wav,audio/Narrative8Situation5.wav,audio/Narrative5Situation5.wav,audio/Narrative6Situation5.wav,5,2,5,2,,,17.0002,,,,,,,,,,,,,,,,,,,,,,,,,,,,,,,,,,,,
,,,,,,60fc2ec58ad0da367daee3c1,2024-02-08_15h03.57.319,group3.1-3.2-social-tom,2023.2.2,Win32,59.88023952,65c5074098b851296ff0b7ed,65c541921be6b11ce0d5e775,,,,,,,,,,,,,,,,,,,,,,,,,,,,,816.1814,2,audio/Narrative6Situation6.wav,818.1888,,818.189,829.2527,"[[999,1],[999,83],[999,166],[999,250],[999,332],[999,416],[999,500],[999,584],[999,666],[999,751],[999,833],[999,916],[999,1000],[999,1082],[999,1166],[999,1250],[999,1332],[999,1419],[999,1521],[999,1597],[999,1681],[999,1764],[999,1849],[999,1931],[999,2015],[999,2099],[999,2182],[999,2265],[51.2,2348],[51.3,2431],[51.8,2515],[51.8,2597],[51.8,2680],[51.9,2765],[52.1,2848],[52.1,2930],[52.1,3014],[55.3,3099],[57.6,3180],[57.6,3264],[57.6,3347],[57.6,3430],[58.2,3514],[58.2,3597],[58.2,3680],[58.2,3764],[58.2,3847],[60,3931],[60.9,4014],[60.9,4098],[60.9,4180],[60.9,4264],[61.6,4348],[62.3,4430],[62.6,4514],[62.8,4597],[62.8,4680],[62.8,4764],[62.8,4847],[62.8,4930],[62.8,5014],[62.8,5097],[62.8,5180],[62.8,5263],[62.8,5347],[62.8,5430],[62.8,5513],[62.8,5597],[62.8,5680],[62.8,5763],[62.8,5848],[62.8,5930],[62.8,6013],[62.8,6098],[62.8,6180],[62.8,6263],[62.8,6348],[62.8,6430],[62.5,6515],[62.3,6597],[62.3,6680],[61.3,6764],[60,6848],[60,6930],[60,7013],[60,7098],[60,7180],[60,7263],[60.3,7347],[66.9,7431],[75.8,7514],[76.4,7599],[78.1,7680],[78.3,7763],[78.3,7849],[78.9,7931],[80.2,8015],[81.8,8098],[82.2,8180],[82.5,8263],[82.5,8347],[82.5,8430],[82.1,8514],[81.2,8598],[80.3,8681],[78.7,8764],[77.7,8849],[77,8931],[75.9,9014],[74.9,9098],[74.8,9180],[74.8,9263],[74.8,9347],[74.8,9430],[74.8,9513],[74.8,9597],[74.8,9680],[74.8,9763],[74.8,9847],[74.8,9930],[74.8,10013],[74.8,10096],[74.8,10180],[74.8,10263],[74.8,10346],[74.8,10430],[74.8,10513],[74.8,10597],[74.8,10679],[74.8,10763],[74.8,10846],[74.8,10929],[74.8,11013]]",1,0,829.2528,831.8365,73.81994071,0.7001,"[{""rating"":73.8199407064026,""responseTime"":0.700099999993995}]",space,2.0337,,831.8367,Half the time,50,831.8388,,,[],,0,6,6,6,1,audio/Narrative7Situation6.wav,audio/Narrative8Situation6.wav,audio/Narrative5Situation6.wav,audio/Narrative6Situation6.wav,3,2,3,2,,,,,,,,,,,,,,,,,,,,,,,,,,,,,,,,,,,,,,,
,,,,,,60fc2ec58ad0da367daee3c1,2024-02-08_15h03.57.319,group3.1-3.2-social-tom,2023.2.2,Win32,59.88023952,65c5074098b851296ff0b7ed,65c541921be6b11ce0d5e775,,,,,,,,,,,,,,,,,,,,,,,,,,,,,831.8392,2,audio/Narrative6Situation7.wav,836.8534,,836.8535,861.7021,"[[70.7,92],[70.7,173],[70.7,256],[70.7,340],[70.7,423],[70.7,507],[70.7,591],[69.6,674],[69.6,758],[69.6,840],[69.6,925],[69.6,1007],[69.6,1090],[69.6,1176],[69.6,1257],[69.6,1341],[69.6,1425],[69.6,1508],[69.6,1590],[69.6,1675],[69.6,1757],[69.6,1840],[69.6,1924],[69.6,2007],[69.6,2091],[69.6,2174],[68.8,2262],[67.2,2340],[67.2,2425],[67.2,2508],[67.2,2590],[67.2,2675],[67.2,2757],[67.2,2843],[65.7,2926],[64.4,3007],[64.4,3090],[64.4,3175],[64.4,3256],[64.4,3341],[64.4,3424],[63.2,3510],[63.1,3590],[63.1,3674],[63.1,3757],[63.1,3841],[63.1,3924],[63.1,4006],[63.1,4090],[63.1,4174],[63.1,4257],[63.1,4341],[63.1,4425],[63.1,4508],[63.1,4590],[63.1,4674],[63.1,4756],[63.1,4840],[63.1,4923],[63.1,5006],[63.1,5091],[63.1,5174],[63.1,5257],[63.2,5344],[63.9,5424],[64.1,5508],[64.1,5589],[64.1,5673],[64.1,5756],[65.5,5841],[66.3,5923],[66.6,6009],[70.8,6095],[82.8,7090],[81.2,7175],[81.2,7256],[81.2,7339],[81.2,7422],[81.9,7508],[82.5,7590],[82.8,7674],[83.4,7758],[83.8,7840],[83.8,7923],[84,8007],[84.1,8089],[84.1,8173],[84.1,8256],[84.1,8340],[84.1,8423],[84.1,8506],[84.1,8589],[84.1,8673],[84,8756],[83.6,8839],[83.4,8923],[83,9007],[82.4,9089],[82.4,9173],[82.4,9256],[82.4,9339],[82.4,9423],[82.4,9506],[82.4,9590],[92.3,9674],[93.5,9757],[93.5,9839],[93.5,9923],[93.5,10006],[93.5,10090],[93.5,10174],[93.5,10257],[93.5,10339],[93.5,10425],[93.5,10505],[93.5,10589],[93.5,10674],[93.5,10756],[93.5,10839],[93.5,10924],[93.5,11007],[93.5,11089],[93.5,11175],[93.5,11256],[93.5,11340],[93.5,11424],[93.5,11505],[93.5,11589],[93.5,11674],[93.5,11757],[93.5,11839],[93.5,11925],[93.5,12006],[93.5,12090],[93.5,12174],[93.5,12256],[93.5,12339],[93.5,12424],[93.5,12507],[93.5,12589],[93.5,12675],[93.5,12756],[93.5,12840],[93.5,12922],[93.5,13007],[93.5,13089],[93.5,13174],[93.5,13255],[93.5,13340],[93.5,13424],[93.5,13506],[93.5,13591],[93.5,13674],[93.5,13757],[93.5,13841],[93.5,13925],[93.5,14006],[93.5,14089],[93.5,14174],[93.5,14256],[93.5,14339],[93.5,14425],[93.5,14506],[93.5,14590],[93.5,14674],[93.5,14757],[93.5,14839],[93.5,14924],[93.5,15005],[93.5,15090],[93.5,15172],[93.5,15257],[93.5,15339],[93.5,15422],[93.5,15505],[93.5,15588],[93.5,15672],[93.5,15755],[93.5,15838],[93.7,15923],[94.4,16014],[97,16097],[97.6,16179],[97.6,16263],[97.6,16346],[97.6,16429],[97.6,16513],[97.6,16596],[97.6,16679],[97.6,16764],[97.6,16846],[97.6,16929],[97.6,17013],[97.6,17096],[97.6,17179],[97.6,17263],[97.6,17346],[97.6,17429],[97.6,17513],[97.6,17596],[97.6,17679],[97.6,17763],[97.6,17846],[97.6,17929],[97.6,18013],[97.6,18096],[97.6,18179],[97.6,18264],[97.6,18346],[97.6,18429],[97.6,18513],[97.6,18596],[97.6,18679],[97.6,18763],[97.6,18846],[97.6,18929],[97.6,19013],[97.6,19095],[97.6,19179],[97.8,19264],[100,19346],[100,19430],[100,19512],[100,19596],[100,19679],[100,19762],[100,19845],[100,19929],[100,20013],[100,20096],[100,20179],[100,20263],[100,20346],[100,20429],[100,20512],[100,20595],[100,20679],[100,20763],[100,20845],[100,20929],[100,21012],[100,21096],[100,21179],[100,21263],[100,21345],[100,21429],[100,21513],[100,21595],[100,21679],[100,21763],[100,21846],[100,21929],[100,22012],[100,22095],[100,22179],[100,22263],[100,22345],[100,22428],[100,22512],[100,22595],[100,22679],[100,22763],[100,22845],[100,22928],[100,23012],[100,23095],[100,23178],[100,23262],[100,23345],[100,23428],[100,23512],[100,23595],[100,23678],[100,23762],[100,23845],[100,23929],[100,24013],[100,24095],[100,24178],[100,24263],[100,24345],[100,24428],[100,24513],[100,24595],[100,24678],[100,24763],[100,24848]]",1,0,861.7023,867.1654,99.43281707,4.2305,"[{""rating"":99.43281706846544,""responseTime"":4.230500000000006}]",space,4.9164,,867.1655,All the time,100,867.1697,,,[],,0,7,7,7,1,audio/Narrative7Situation7.wav,audio/Narrative8Situation7.wav,audio/Narrative5Situation7.wav,audio/Narrative6Situation7.wav,5,3,4,5,,,,,,,,,,,,,,,,,,,,,,,,,,,,,,,,,,,,,,,
,,,,,,60fc2ec58ad0da367daee3c1,2024-02-08_15h03.57.319,group3.1-3.2-social-tom,2023.2.2,Win32,59.88023952,65c5074098b851296ff0b7ed,65c541921be6b11ce0d5e775,,,,,,,,,,,,,,,,,,,,,,,,,,,,,867.17,2,audio/Narrative6Situation8.wav,872.1815,,872.1815,879.043,"[[999,10],[999,92],[999,175],[999,258],[999,343],[999,427],[999,509],[999,592],[999,677],[999,759],[999,843],[999,926],[999,1011],[60.1,1092],[60.1,1178],[58.1,1268],[57.5,1342],[57.2,1428],[56.8,1508],[56.8,1592],[56.8,1677],[56.8,1759],[56.8,1842],[56.8,1928],[56.8,2008],[56.8,2093],[56.8,2177],[86.8,3508],[86.8,3592],[86.8,3676],[86.8,3758],[86.8,3843],[86.8,3927],[86.8,4009],[86.8,4092],[86.8,4177],[86.8,4259],[86.8,4341],[86.8,4427],[86.8,4509],[86.8,4591],[86.8,4676],[86.8,4758],[87.5,4845],[87.5,4927],[87.5,5008],[87.5,5093],[87.5,5177],[87.5,5259],[87.5,5341],[95.6,5429],[95.9,5508],[95.9,5591],[95.9,5676],[98.9,5760],[100,5846],[100,5927],[100,6012],[100,6091],[100,6177],[100,6258],[100,6342],[100,6424],[100,6509],[100,6592],[100,6677],[100,6759],[100,6841]]",1,0,879.0432,884.4302,96.65198651,1.2482,"[{""rating"":96.65198651042009,""responseTime"":1.24819999998806}]",space,4.8497,,884.4303,Half the time,50,884.4437,,,[],,0,8,8,8,1,audio/Narrative7Situation8.wav,audio/Narrative8Situation8.wav,audio/Narrative5Situation8.wav,audio/Narrative6Situation8.wav,2,3,3,5,,,,,,,,,,,,,,,,,,,,,,,,,,,,,,,,,,,,,,,
,,,,,,60fc2ec58ad0da367daee3c1,2024-02-08_15h03.57.319,group3.1-3.2-social-tom,2023.2.2,Win32,59.88023952,65c5074098b851296ff0b7ed,65c541921be6b11ce0d5e775,,,,,,,,,,,,,,,,,,,,,,,,,,,,,884.444,2,audio/Narrative6Situation9.wav,888.4474,,888.4474,898.3954,"[[88.5,842],[80.9,925],[80.2,1008],[80.2,1090],[76.5,1176],[75.5,1257],[75.5,1341],[75.5,1423],[75.5,1507],[75.5,1590],[75.5,1674],[75.5,1757],[75.5,1840],[75.5,1923],[75.5,2007],[75.5,2090],[75.5,2174],[75.5,2257],[75.5,2341],[75.5,2423],[75.5,2509],[75.5,2590],[75.5,2673],[75.5,2757],[75.5,2840],[75.5,2924],[75.5,3006],[75.5,3090],[75.5,3173],[75.5,3257],[75.5,3340],[75.5,3423],[75.5,3507],[75.5,3591],[75.5,3673],[75.5,3757],[75.5,3840],[75.5,3924],[75.5,4007],[75.5,4090],[75.5,4174],[75.5,4257],[75.5,4341],[75.5,4423],[75.5,4507],[75.5,4590],[75.5,4673],[75.5,4757],[75.5,4840],[75.5,4923],[76.1,5019],[79.7,5099],[88.8,5182],[89.8,5264],[90.9,5349],[90.9,5431],[90.9,5514],[91,5599],[92.5,5682],[92.5,5764],[92.5,5848],[92.5,5931],[93.5,6015],[95.4,6099],[96.6,6182],[98.9,6265],[99.7,6348],[100,6433],[100,6516],[100,6598],[100,6681],[100,6764],[100,6848],[100,6931],[100,7014],[100,7098],[100,7181],[100,7265],[100,7349],[98.6,7432],[98.3,7514],[98.3,7598],[98.3,7682],[98.3,7764],[97.5,7850],[96.6,7931],[96.6,8014],[96.6,8097],[100,8182],[100,8265],[100,8348],[100,8431],[100,8514],[100,8597],[100,8681],[100,8764],[100,8848],[100,8931],[100,9014],[100,9097],[100,9181],[100,9264],[100,9347],[100,9431],[100,9514],[100,9597],[100,9681],[100,9764],[100,9847],[100,9930]]",1,0,898.3956,905.6946,96.21290871,0.9434,"[{""rating"":96.21290870649668,""responseTime"":0.9434000000059086}]",space,6.7665,,905.6948,Half the time,50,905.707,,,[],,0,9,9,9,1,audio/Narrative7Situation9.wav,audio/Narrative8Situation9.wav,audio/Narrative5Situation9.wav,audio/Narrative6Situation9.wav,2,3,3,4,,,,,,,,,,,,,,,,,,,,,,,,,,,,,,,,,,,,,,,
,,,,,,60fc2ec58ad0da367daee3c1,2024-02-08_15h03.57.319,group3.1-3.2-social-tom,2023.2.2,Win32,59.88023952,65c5074098b851296ff0b7ed,65c541921be6b11ce0d5e775,,,,,,,,,,,,,,,,,,,,,,,,,,,,,905.7074,2,audio/Narrative5Situation1.wav,910.721,,910.7211,924.0024,"[[100,960],[100,1040],[100,1127],[78.6,1209],[65.7,1292],[22.2,1542],[10.9,1625],[10.5,1709],[8.3,1791],[7.4,1875],[5.5,1960],[4.9,2040],[4.9,2126],[3.6,2210],[2.9,2291],[2.6,2373],[2.6,2457],[1.5,2542],[1.4,2623],[1.4,2707],[1.4,2789],[1.4,2873],[1.4,2957],[1.4,3040],[1.4,3123],[1.4,3207],[1.4,3289],[1.4,3373],[1.4,3460],[1.4,3539],[1.4,3623],[1.4,3707],[1.4,3789],[1.4,3873],[1.4,3957],[1.4,4039],[1.4,4123],[1.4,4207],[1.4,4291],[4.3,4377],[8.4,4459],[9.7,4539],[9.7,4623],[9.7,4707],[9.7,4789],[9.7,4873],[9.7,4957],[9.7,5039],[9.7,5123],[9.7,5207],[9.7,5289],[9.7,5373],[9.7,5461],[9.7,5540],[9.7,5622],[9.7,5706],[9.7,5789],[9.7,5872],[9.7,5957],[9.7,6039],[9.7,6122],[9.7,6206],[9.7,6289],[9.7,6373],[9.7,6457],[9.7,6539],[9.7,6623],[9.7,6707],[9.7,6789],[9.7,6872],[9.7,6957],[9.7,7039],[9.7,7123],[9.7,7207],[9.7,7289],[9.7,7372],[9.7,7457],[9.7,7539],[10,7626],[13.4,7710],[14.7,7791],[17.4,7875],[19.3,7956],[19.4,8039],[19.4,8122],[19.4,8208],[19.4,8289],[19.4,8373],[19.4,8456],[19.4,8539],[19.4,8622],[19.4,8707],[19.4,8789],[19.4,8872],[19.4,8957],[19.4,9039],[19.4,9122],[19.4,9207],[19.4,9289],[19.4,9372],[19.4,9457],[19.4,9538],[19.4,9622],[19.4,9707],[19.4,9789],[19.4,9872],[19.4,9957],[19.4,10038],[19.4,10122],[19.4,10207],[19.6,10290],[27.5,10401],[27.9,10480],[28.1,10568],[28.9,10650],[31,10736],[35.4,10818],[39.3,10900],[39.3,10980],[39.3,11066],[42.5,11151],[42.5,11231],[42.5,11314],[42.5,11399],[42.5,11480],[42.4,11569],[42.1,11648],[41.5,11733],[40.6,11819],[40.4,11897],[40.4,11981],[40.4,12064],[40.4,12149],[40.4,12230],[40.4,12316],[40.4,12398],[40.4,12480],[40.4,12564],[40.4,12648],[40.4,12732],[40.4,12816],[40.4,12899],[40.4,12981],[40.4,13066],[40.4,13148],[40.4,13230]]",1,0,924.0027,928.609,30.35123812,1.8008,"[{""rating"":30.351238117984664,""responseTime"":1.8008000000119182}]",space,4.0652,,928.6091,All the time,100,928.6131,,,[],,0,10,10,10,1,audio/Narrative8Situation1.wav,audio/Narrative7Situation1.wav,audio/Narrative6Situation1.wav,audio/Narrative5Situation1.wav,5,2,2,5,,,,,,,,,,,,,,,,,,,,,,,,,,,,,,,,,,,,,,,
,,,,,,60fc2ec58ad0da367daee3c1,2024-02-08_15h03.57.319,group3.1-3.2-social-tom,2023.2.2,Win32,59.88023952,65c5074098b851296ff0b7ed,65c541921be6b11ce0d5e775,,,,,,,,,,,,,,,,,,,,,,,,,,,,,928.6135,2,audio/Narrative5Situation2.wav,931.6254,,931.6254,961.0889,"[[29.5,258],[29.5,343],[29.5,425],[29.4,509],[29.4,592],[29.4,676],[29.4,758],[29.4,842],[29.4,925],[29.4,1008],[29.4,1091],[29.4,1176],[29.4,1258],[29.4,1343],[29.4,1425],[28.6,1512],[27.6,1594],[27.6,1675],[27.6,1758],[27.6,1843],[27.6,1926],[27.6,2009],[27.6,2094],[27.6,2177],[29.1,2262],[29.8,2344],[29.8,2426],[29.8,2508],[29.8,2593],[29.8,2674],[29.8,2758],[29.8,2841],[29.8,2925],[29.8,3008],[29.8,3091],[29.8,3174],[29.8,3258],[29.8,3341],[29.8,3425],[29.8,3508],[29.8,3592],[29.8,3674],[29.8,3758],[30.1,3841],[30.1,3925],[30.4,4009],[31.3,4092],[31.3,4174],[31.3,4258],[31.3,4343],[31.3,4426],[31.3,4508],[31.3,4594],[31.3,4675],[31.3,4758],[31.3,4843],[31,4926],[30.8,5008],[30.8,5091],[30.8,5174],[30.8,5258],[30.8,5341],[30.8,5424],[30.8,5508],[30.8,5594],[30.8,5674],[30.8,5759],[30.8,5842],[30.8,5925],[30.8,6008],[30.8,6093],[30.8,6174],[30.8,6259],[30.8,6342],[30.8,6425],[30.8,6508],[30.8,6592],[30.8,6674],[30.8,6757],[30.8,6841],[30.8,6924],[30.8,7008],[31.1,7091],[31.3,7175],[32.6,7258],[37.1,7342],[37.6,7425],[37.6,7507],[37.6,7591],[37.6,7674],[37.6,7757],[37.7,7841],[38,7925],[38.4,8009],[39,8091],[40.5,8176],[43.4,8258],[43.9,8341],[43.9,8424],[43.9,8507],[43.9,8590],[43.9,8674],[43.9,8757],[43.9,8842],[43.9,8924],[43.9,9007],[43.9,9092],[43.9,9175],[43.9,9258],[43.9,9342],[43.9,9424],[43.9,9507],[43.9,9592],[43.9,9675],[43.9,9757],[43.9,9843],[43.9,9924],[43.9,10008],[43.9,10092],[43.9,10175],[43.9,10257],[43.9,10343],[43.9,10424],[43.9,10508],[43.9,10592],[43.9,10675],[43.9,10757],[43.9,10843],[43.9,10924],[43.9,11008],[43.9,11093],[43.9,11174],[43.9,11257],[44.2,11342],[45.3,11426],[46.2,11509],[46.4,11593],[46.5,11674],[46.7,11758],[46.7,11842],[47.1,11927],[47.1,12007],[47.1,12092],[47.1,12174],[47.4,12259],[47.7,12344],[47.7,12424],[50.5,12508],[56.5,12592],[56.5,12675],[56.5,12757],[55.3,12849],[53.8,12926],[53.8,13008],[53.8,13092],[53.8,13174],[53.8,13257],[53.8,13343],[53.8,13424],[53.8,13508],[53.8,13592],[53.8,13675],[53.8,13757],[53.8,13843],[53.8,13923],[53.8,14008],[53.8,14092],[53.8,14175],[53.8,14257],[53.8,14343],[53.8,14424],[53.8,14508],[53.8,14592],[53.8,14674],[53.8,14757],[53.8,14842],[53.8,14924],[53.8,15007],[53.8,15092],[53.8,15175],[53.8,15257],[53.8,15343],[53.8,15424],[53.8,15507],[54.1,15594],[54.9,15674],[54.9,15758],[54.9,15842],[54.9,15925],[55.1,16007],[55.3,16093],[55.9,16177],[56.3,16258],[57.2,16366],[58.2,16449],[58.4,16531],[58.4,16614],[58.4,16697],[58.4,16781],[58.4,16864],[58.4,16947],[58.4,17031],[58.4,17114],[58.4,17197],[58.4,17281],[58.4,17364],[58.4,17447],[58.4,17531],[58.4,17614],[58.4,17697],[58.4,17781],[58.4,17864],[58.4,17947],[58.4,18031],[58.4,18114],[58.4,18197],[58.4,18281],[58.4,18364],[58.4,18447],[58.4,18531],[58.4,18614],[58.4,18697],[58.4,18781],[58.4,18864],[58.4,18947],[58.4,19031],[58.4,19114],[58.4,19197],[58.4,19281],[58.4,19364],[58.4,19447],[58.4,19531],[58.4,19614],[58.4,19697],[58.4,19781],[58.4,19864],[58.4,19947],[58.4,20031],[58.4,20114],[58.4,20197],[58.4,20281],[58.4,20364],[58.4,20447],[58.4,20531],[58.4,20614],[58.4,20697],[58.4,20781],[58.4,20864],[58.4,20947],[58.4,21031],[58.4,21114],[58.4,21198],[58.4,21281],[58.4,21364],[58.4,21447],[58.4,21531],[58.4,21614],[58.4,21697],[58.4,21781],[58.4,21864],[58.4,21947],[58.4,22031],[58.4,22114],[58.4,22197],[58.4,22281],[58.4,22363],[58.4,22447],[58.4,22530],[58.4,22614],[58.4,22697],[58.4,22781],[59.4,22865],[67.4,22948],[69.6,23032],[72.4,23114],[72.6,23197],[72.6,23280],[77.4,23364],[80.3,23448],[81.8,23531],[82.7,23614],[83.1,23697],[83.1,23781],[83.1,23864],[83.1,23947],[83.1,24031],[83.1,24113],[83.1,24197],[83.1,24281],[83.1,24363],[83.1,24447],[83.1,24531],[83.1,24613],[83.1,24697],[83.1,24781],[83.1,24863],[83.1,24947],[83.1,25031],[83.1,25113],[83.1,25197],[83.1,25280],[83.1,25363],[83.1,25447],[83.1,25530],[83.1,25613],[83.1,25697],[83.1,25780],[83.1,25863],[83.1,25946],[83.1,26030],[83.1,26113],[83.1,26197],[83.1,26281],[83.1,26363],[83.1,26446],[83.1,26530],[83.1,26613],[83.1,26699],[82.2,26782],[82.2,26863],[82.2,26946],[82.2,27030],[82.2,27113],[82.2,27197],[82.2,27280],[82.8,27364],[83.7,27447],[84.4,27531],[84.6,27613],[84.6,27696],[84.6,27780],[84.6,27863],[84.6,27946],[84.6,28030],[84.4,28114],[84.4,28196],[84.4,28281],[84.4,28363],[84.4,28446],[84.4,28530],[84.4,28615],[84.4,28696],[84.4,28780],[84.4,28863],[84.4,28946],[84.4,29030],[84.4,29113],[84.4,29196],[84.4,29279],[84.4,29363],[84.4,29446]]",1,0,961.0893,966.0385,76.89348533,1.7942,"[{""rating"":76.89348533386648,""responseTime"":1.794200000017895}]",space,4.4051,,966.0386,Not at all,0,966.0523,,,[],,0,11,11,11,1,audio/Narrative8Situation2.wav,audio/Narrative7Situation2.wav,audio/Narrative6Situation2.wav,audio/Narrative5Situation2.wav,3,3,3,3,,,,,,,,,,,,,,,,,,,,,,,,,,,,,,,,,,,,,,,
,,,,,,60fc2ec58ad0da367daee3c1,2024-02-08_15h03.57.319,group3.1-3.2-social-tom,2023.2.2,Win32,59.88023952,65c5074098b851296ff0b7ed,65c541921be6b11ce0d5e775,,,,,,,,,,,,,,,,,,,,,,,,,,,,,966.0527,2,audio/Narrative5Situation3.wav,969.0547,,969.0548,982.9701,"[[76.7,583],[76.5,666],[76.5,749],[66.7,834],[50.6,918],[50,999],[50,1083],[50,1166],[50.5,1250],[54.4,1335],[59.5,1417],[60.3,1500],[64.5,1584],[69.5,1833],[70.2,1916],[71,1999],[71.1,2083],[71.8,2166],[72.4,2250],[73.3,2333],[73.3,2416],[74.8,2500],[75.6,2584],[76.2,2666],[77.1,2750],[78.3,2832],[78.3,2916],[78.3,2999],[78.3,3083],[78.9,3167],[80,3249],[80,3332],[80,3416],[80,3499],[80,3583],[80,3666],[80,3749],[80,3832],[80,3916],[80,3999],[80,4082],[80,4165],[80,4249],[80,4332],[80,4416],[80,4499],[80,4583],[80,4666],[80,4749],[80,4832],[80,4915],[80,4999],[80,5083],[80,5166],[80,5249],[80,5333],[80,5415],[80,5499],[80,5583],[80,5665],[80,5749],[80,5832],[80,5915],[80,6000],[80,6082],[80,6165],[80,6249],[80,6332],[80,6415],[80,6498],[80,6582],[80,6665],[80,6750],[80,6832],[80,6915],[80,6999],[80,7082],[80,7165],[80,7249],[80,7332],[80,7415],[80,7498],[80,7582],[80,7665],[80,7749],[80,7832],[80,7915],[80,7998],[80,8082],[80,8165],[80,8249],[80,8332],[80.2,8415],[80.2,8498],[80.2,8582],[81.2,8666],[82.2,8748],[83.1,8833],[83.8,8915],[84.7,8999],[91.5,9083],[91.5,9165],[91.5,9249],[91.5,9332],[91.5,9415],[91.5,9498],[91.5,9582],[91.5,9665],[91.5,9748],[91.5,9832],[91.5,9915],[91.5,9999],[91.5,10082],[91.5,10165],[91.5,10248],[91.5,10332],[91.5,10415],[91.8,10499],[93.5,10582],[93.5,10665],[93.5,10748],[93.5,10832],[93.5,10915],[93.5,10998],[93.5,11082],[93.5,11165],[93.5,11248],[93.5,11332],[93.5,11415],[93.5,11498],[93.5,11582],[93.5,11665],[93.5,11748],[93.5,11832],[93.5,11915],[93.5,11998],[93.8,12082],[94,12165],[94.1,12249],[94.1,12332],[94.1,12415],[94.1,12498],[94.1,12582],[94.1,12665],[94.1,12748],[94.1,12832],[94.1,12915],[94.1,12998],[94.1,13082],[94.1,13165],[93.8,13249],[93.7,13332],[93.7,13415],[92.3,13499],[90.7,13583],[90.4,13665],[90.4,13748],[90.4,13832],[90.4,13914]]",1,0,982.9702,987.1871,81.86970491,1.0673,"[{""rating"":81.8697049115289,""responseTime"":1.0672999999820831}]",space,3.6838,,987.1872,Half the time,50,987.1906,,,[],,0,12,12,12,1,audio/Narrative8Situation3.wav,audio/Narrative7Situation3.wav,audio/Narrative6Situation3.wav,audio/Narrative5Situation3.wav,4,8,5,3,,,,,,,,,,,,,,,,,,,,,,,,,,,,,,,,,,,,,,,
,,,,,,60fc2ec58ad0da367daee3c1,2024-02-08_15h03.57.319,group3.1-3.2-social-tom,2023.2.2,Win32,59.88023952,65c5074098b851296ff0b7ed,65c541921be6b11ce0d5e775,,,,,,,,,,,,,,,,,,,,,,,,,,,,,987.191,2,audio/Narrative5Situation4.wav,988.2027,,988.2028,1008.6007,"[[80.8,2585],[72,2667],[68.2,2750],[68,2832],[68,2916],[68,2999],[68,3082],[68,3165],[68,3249],[68,3335],[68,3416],[68,3499],[68,3582],[68,3665],[68,3749],[68,3832],[68,3915],[68,3999],[68,4083],[68,4166],[64.8,4250],[64.5,4332],[64.2,4417],[61.6,4500],[59.5,4584],[59.4,4666],[59.4,4749],[59.4,4832],[59.4,4915],[59.2,4999],[57.9,5083],[57.3,5165],[57.3,5249],[57.3,5332],[56.8,5417],[56,5499],[56,5582],[56,5665],[56,5749],[55.3,5833],[55.1,5915],[55.1,5999],[55.1,6082],[55.1,6165],[55.1,6249],[55.1,6332],[55.1,6415],[55.1,6499],[55.1,6582],[55.1,6665],[55.1,6748],[55.1,6832],[55.1,6915],[55.4,6999],[58.1,7084],[59.2,7166],[59.2,7248],[59.2,7332],[59.2,7415],[59.2,7498],[59.2,7582],[59.2,7665],[60.1,7750],[61.9,7833],[62.5,7917],[63.6,8000],[66.6,8083],[67,8165],[67,8248],[67,8332],[67,8415],[67,8500],[67,8582],[67,8665],[67,8748],[67,8832],[67,8915],[67,8998],[67,9082],[67.2,9167],[68.2,9249],[68.9,9332],[68.9,9415],[68.9,9498],[68.9,9582],[68.9,9665],[68.9,9748],[68.9,9831],[68.9,9915],[68.9,9998],[68.9,10082],[68.9,10165],[68.9,10248],[68.9,10332],[68.9,10415],[68.9,10498],[68.9,10582],[68.9,10665],[68.9,10748],[68.9,10831],[68.9,10915],[68.9,10998],[68.9,11081],[68.9,11165],[68.9,11248],[68.9,11331],[68.9,11415],[68.9,11498],[68.9,11581],[68.9,11665],[68.9,11748],[68.9,11831],[68.9,11915],[68.9,11998],[68.9,12082],[68.9,12165],[68.9,12248],[68.9,12331],[68.9,12415],[68.9,12498],[68.9,12581],[68.9,12665],[68.9,12748],[68.9,12831],[68.9,12915],[69.1,13000],[69.1,13081],[69.1,13164],[71.3,13249],[71.3,13331],[71.4,13415],[71.4,13498],[71.4,13581],[71.4,13665],[71.4,13748],[71.4,13831],[71.4,13915],[71.4,13998],[71.4,14081],[71.4,14164],[71.4,14248],[71.4,14331],[71.4,14415],[71.4,14498],[71.4,14581],[71.4,14665],[71.4,14748],[71.4,14831],[71.4,14914],[71.4,14998],[71.4,15081],[71.4,15164],[71.4,15248],[71.4,15331],[71.4,15414],[71.4,15498],[71.4,15581],[71.4,15664],[71.4,15748],[71.4,15831],[71.4,15915],[71.4,15998],[71.4,16081],[71.4,16164],[71.4,16248],[71.4,16331],[71.4,16415],[71.4,16497],[71.4,16581],[71.4,16665],[73.3,16749],[74.5,16832],[76.1,16915],[76.2,16997],[76.2,17081],[76.2,17165],[76.2,17247],[76.2,17331],[76.2,17415],[76.2,17497],[76.2,17581],[76.2,17664],[76.2,17747],[76.2,17831],[76.2,17915],[76.2,17997],[76.2,18081],[76.2,18165],[76.2,18247],[76.2,18331],[76.2,18414],[76.2,18497],[76.2,18581],[76.2,18664],[76.2,18747],[76.2,18831],[76.2,18914],[76.2,18997],[76.2,19081],[76.2,19164],[77.1,19248],[77.8,19330],[77.8,19414],[77.8,19497],[77.8,19581],[77.8,19664],[77.8,19747],[77.8,19831],[77.8,19914],[77.8,19997],[77.8,20080],[77.8,20166],[77.8,20247],[77.8,20332]]",1,0,1008.6009,1013.6335,75.42990159,1.3937,"[{""rating"":75.42990158718257,""responseTime"":1.3937000000180433}]",space,4.4834,,1013.6336,Not at all,0,1013.6496,,,[],,0,13,13,13,1,audio/Narrative8Situation4.wav,audio/Narrative7Situation4.wav,audio/Narrative6Situation4.wav,audio/Narrative5Situation4.wav,3,3,2,1,,,,,,,,,,,,,,,,,,,,,,,,,,,,,,,,,,,,,,,
,,,,,,60fc2ec58ad0da367daee3c1,2024-02-08_15h03.57.319,group3.1-3.2-social-tom,2023.2.2,Win32,59.88023952,65c5074098b851296ff0b7ed,65c541921be6b11ce0d5e775,,,,,,,,,,,,,,,,,,,,,,,,,,,,,1013.6508,2,audio/Narrative5Situation5.wav,1018.6669,,1018.6669,1034.1003,"[[73.3,843],[69.1,925],[65.5,1009],[61.9,1092],[57.5,1175],[56.3,1257],[56.3,1341],[56.3,1424],[56.3,1508],[56.3,1591],[56.3,1675],[56.3,1757],[56.3,1841],[56.3,1924],[56.3,2008],[56.3,2091],[56.3,2174],[56.3,2257],[56.3,2341],[56.3,2424],[56.3,2508],[56.3,2591],[56.3,2674],[56.3,2757],[56,2841],[52.5,2925],[52.5,3008],[52.5,3090],[52.5,3174],[52.5,3260],[56.6,3842],[56.2,3924],[56.2,4007],[56.2,4091],[56.2,4174],[56.2,4257],[56.2,4340],[56.2,4424],[56.2,4507],[56.2,4591],[56.2,4674],[57,4757],[59.1,4842],[63.9,4925],[63.9,5007],[64.5,5093],[67.7,5175],[70.7,5258],[73.7,5342],[75.1,5425],[75.9,5506],[75.9,5590],[75.9,5674],[75.5,5757],[75.2,5842],[75.2,5925],[75.2,6007],[73.3,6092],[72.3,6174],[72.3,6257],[72.1,6340],[72.1,6424],[72.1,6507],[72.7,6592],[73.7,6673],[73.9,6758],[74.3,6841],[74.6,6925],[74.6,7007],[75.1,7092],[76.1,7175],[78,7258],[78.9,7341],[79.2,7423],[79.2,7507],[79.2,7590],[79.2,7674],[79.2,7757],[79.2,7840],[79.2,7924],[79.2,8007],[79.6,8091],[81.6,8175],[84.1,8259],[84.1,8340],[84.1,8424],[84.1,8507],[84.1,8590],[84,8673],[84,8757],[84,8840],[84,8924],[84,9006],[84,9090],[84,9173],[84,9257],[84,9341],[84,9423],[84,9507],[84,9590],[84,9673],[84,9758],[84,9841],[84,9923],[84,10006],[84,10090],[84,10173],[84.4,10259],[84.7,10341],[84.7,10423],[84.7,10507],[84.7,10590],[84.7,10674],[84.7,10756],[84.7,10840],[84.7,10923],[84.7,11007],[84.7,11103],[84.7,11197],[84.7,11301],[84.7,11385],[84.7,11468],[84.7,11637],[84.7,11752],[84.7,11921],[84.7,12001],[84.7,12083],[84.7,12176],[84.7,12257],[84.7,12335],[83.4,12421],[83.1,12500],[83.1,12585],[83,12728],[82.7,12811],[82.7,12890],[82.7,13017],[82.7,13100],[82.7,13296],[82.7,13393],[82.7,13533],[82.7,13617],[82.7,13700],[82.7,13784],[82.7,13868],[82.7,13950],[82.7,14037],[82.7,14116],[82.7,14202],[82.7,14282],[82.7,14366],[82.7,14450],[82.7,14533],[82.7,14617],[82.7,14699],[82.7,14783],[82.7,14866],[82.7,14950],[82.7,15032],[82.7,15116],[82.5,15198],[82.1,15291],[81.8,15366]]",1,0,1034.1005,1040.1507,79.52795216,1.0008,"[{""rating"":79.52795215740696,""responseTime"":1.00080000001185}]",space,5.5158,,1040.1507,All the time,100,1040.1771,,,[],,0,14,14,14,1,audio/Narrative8Situation5.wav,audio/Narrative7Situation5.wav,audio/Narrative6Situation5.wav,audio/Narrative5Situation5.wav,2,5,2,5,,,,,,,,,,,,,,,,,,,,,,,,,,,,,,,,,,,,,,,
,,,,,,60fc2ec58ad0da367daee3c1,2024-02-08_15h03.57.319,group3.1-3.2-social-tom,2023.2.2,Win32,59.88023952,65c5074098b851296ff0b7ed,65c541921be6b11ce0d5e775,,,,,,,,,,,,,,,,,,,,,,,,,,,,,1040.1775,2,audio/Narrative5Situation6.wav,1043.1804,,1043.1805,1048.8652,"[[79.2,1167],[74.9,1251],[71.7,1333],[70.7,1416],[70.7,1499],[69.9,1583],[64.7,1668],[63.5,1749],[62.5,1834],[55.4,1917],[53.1,2000],[52.9,2082],[48.7,2167],[46.8,2249],[46.8,2332],[45,2417],[44.3,2499],[44.3,2582],[44.3,2666],[44.3,2749],[44.3,2832],[44.3,2916],[44.3,2999],[44.3,3082],[44.3,3166],[44.3,3249],[44.3,3332],[44.3,3416],[44.3,3499],[44.3,3582],[44.3,3666],[44.3,3749],[44.3,3832],[44.3,3916],[44.3,3999],[44.3,4082],[44.3,4166],[44.3,4249],[44.3,4332],[44.3,4416],[44.3,4499],[44.3,4582],[44.3,4666],[44.3,4749],[44.3,4832],[44.3,4916],[44.3,4999],[44.3,5082],[44.3,5166],[44.3,5248],[44.3,5331],[44.3,5416],[44.3,5499],[44.3,5582],[43.6,5672]]",1,0,1048.8654,1054.1626,36.49832737,2.2417,"[{""rating"":42.05998178920755,""responseTime"":1.3499000000058459},{""rating"":36.498327372912456,""responseTime"":2.2416999999879863}]",space,4.7511,,1054.1626,Half the time,50,1054.1759,,,[],,0,15,15,15,1,audio/Narrative8Situation6.wav,audio/Narrative7Situation6.wav,audio/Narrative6Situation6.wav,audio/Narrative5Situation6.wav,2,3,2,3,,,,,,,,,,,,,,,,,,,,,,,,,,,,,,,,,,,,,,,
