exp_question,consent.started,consent.stopped,consentResponse.keys,consentResponse.rt,consentResponse.duration,participantID,date,expName,psychopyVersion,OS,frameRate,STUDY_ID,SESSION_ID,opening1.started,opening1.stopped,keyEndingOpening1.keys,keyEndingOpening1.rt,keyEndingOpening1.duration,volumeAdjust.started,volumeAdjust.stopped,endingAdjust.keys,endingAdjust.rt,endingAdjust.duration,opening2.started,opening2.stopped,keyEndingOpening.keys,keyEndingOpening.rt,keyEndingOpening.duration,mouse.x,mouse.y,mouse.leftButton,mouse.midButton,mouse.rightButton,mouse.time,instructionLoop.thisRepN,instructionLoop.thisTrialN,instructionLoop.thisN,instructionLoop.thisIndex,instructionLoop.ran,readyForAudio.started,readyForAudio.stopped,fixation.started,run,audio_played,fixation.stopped,endPractice.keys,audioPre.started,audioPre.stopped,continuousResponses_audio,continuousSlider.response,continuousSlider.rt,intRating.started,intRating.stopped,intQuestionSlider.response,intQuestionSlider.rt,intQuestionSlider.history,confirmResponse.keys,confirmResponse.rt,confirmResponse.duration,catchQuestion.started,catch_label,catch_value,catchQuestion.stopped,catchQuestionSlider.response,catchQuestionSlider.rt,catchQuestionSlider.history,confirmResponse_2.keys,confirmResponse_2.rt,confirmResponse_2.duration,audioRunLoop.thisRepN,audioRunLoop.thisTrialN,audioRunLoop.thisN,audioRunLoop.thisIndex,audioRunLoop.ran,conditions1_1,conditions2_1,conditions1_2,conditions2_2,dur1_1,dur2_1,dur1_2,dur2_2,endPractice.rt,endPractice.duration,runIntervalBreak.started,runIntervalBreak.stopped,endingBreakKey.keys,endingBreakKey.rt,endingBreakKey.duration,connection.started,connection.stopped,connectionEnding.keys,connectionEnding.rt,connectionEnding.duration,readyForText.started,readyForText.stopped,textPre.started,run_dup,textPre.stopped,continuousResponses_text,textRunLoop.thisRepN,textRunLoop.thisTrialN,textRunLoop.thisN,textRunLoop.thisIndex,textRunLoop.ran,text1_1,text1_2,text2_1,text2_2,runBreakText.started,runBreakText.stopped,endingBreakKey_2.keys,endingBreakKey_2.rt,endingBreakKey_2.duration,ending.started,ending.stopped,endingEnding.keys,endingEnding.rt,endingEnding.duration
social,0.0002,5.7982,y,5.3622,,60fca0fc5d7a65f146a1c6c6,2024-05-13_11h51.13.688,group3.1-3.2-social-tom,2023.2.2,Win32,18.4501845,65c5074098b851296ff0b7ed,664236dbde8edc31668a6a5d,,,,,,,,,,,,,,,,,,,,,,,,,,,,,,,,,,,,,,,,,,,,,,,,,,,,,,,,,,,,,,,,,,,,,,,,,,,,,,,,,,,,,,,,,,,,,,,,,,,,,,,,,,
,,,,,,60fca0fc5d7a65f146a1c6c6,2024-05-13_11h51.13.688,group3.1-3.2-social-tom,2023.2.2,Win32,18.4501845,65c5074098b851296ff0b7ed,664236dbde8edc31668a6a5d,5.7983,10.3096,space,4.4413,,,,,,,,,,,,,,,,,,,,,,,,,,,,,,,,,,,,,,,,,,,,,,,,,,,,,,,,,,,,,,,,,,,,,,,,,,,,,,,,,,,,,,,,,,,,,,,,,,,,,,
,,,,,,60fca0fc5d7a65f146a1c6c6,2024-05-13_11h51.13.688,group3.1-3.2-social-tom,2023.2.2,Win32,18.4501845,65c5074098b851296ff0b7ed,664236dbde8edc31668a6a5d,,,,,,10.3097,62.9788,space,52.233,,,,,,,,,,,,,,,,,,,,,,,,,,,,,,,,,,,,,,,,,,,,,,,,,,,,,,,,,,,,,,,,,,,,,,,,,,,,,,,,,,,,,,,,,,,,,,,,,
,,,,,,60fca0fc5d7a65f146a1c6c6,2024-05-13_11h51.13.688,group3.1-3.2-social-tom,2023.2.2,Win32,18.4501845,65c5074098b851296ff0b7ed,664236dbde8edc31668a6a5d,,,,,,,,,,,62.9816,80.8697,space,17.8179,,[0.41354166666666664],[-0.12222222222222222],[1],[0],[0],[17.519699999988077],0,0,0,0,1,,,,,,,,,,,,,,,,,,,,,,,,,,,,,,,,,,,,,,,,,,,,,,,,,,,,,,,,,,,,,,,,,,,,,,,,,,,,,,,,
,,,,,,60fca0fc5d7a65f146a1c6c6,2024-05-13_11h51.13.688,group3.1-3.2-social-tom,2023.2.2,Win32,18.4501845,65c5074098b851296ff0b7ed,664236dbde8edc31668a6a5d,,,,,,,,,,,80.87,122.0895,space,41.0984,,[],[],[],[],[],[],1,0,1,0,1,,,,,,,,,,,,,,,,,,,,,,,,,,,,,,,,,,,,,,,,,,,,,,,,,,,,,,,,,,,,,,,,,,,,,,,,,,,,,,,,
,,,,,,60fca0fc5d7a65f146a1c6c6,2024-05-13_11h51.13.688,group3.1-3.2-social-tom,2023.2.2,Win32,18.4501845,65c5074098b851296ff0b7ed,664236dbde8edc31668a6a5d,,,,,,,,,,,122.0945,133.6498,space,11.4662,,[],[],[],[],[],[],2,0,2,0,1,,,,,,,,,,,,,,,,,,,,,,,,,,,,,,,,,,,,,,,,,,,,,,,,,,,,,,,,,,,,,,,,,,,,,,,,,,,,,,,,
,,,,,,60fca0fc5d7a65f146a1c6c6,2024-05-13_11h51.13.688,group3.1-3.2-social-tom,2023.2.2,Win32,18.4501845,65c5074098b851296ff0b7ed,664236dbde8edc31668a6a5d,,,,,,,,,,,133.6545,192.7049,space,58.9682,,[0.7239583333333334],[0.05],[1],[0],[0],[30.104199999988083],3,0,3,0,1,,,,,,,,,,,,,,,,,,,,,,,,,,,,,,,,,,,,,,,,,,,,,,,,,,,,,,,,,,,,,,,,,,,,,,,,,,,,,,,,
,,,,,,60fca0fc5d7a65f146a1c6c6,2024-05-13_11h51.13.688,group3.1-3.2-social-tom,2023.2.2,Win32,18.4501845,65c5074098b851296ff0b7ed,664236dbde8edc31668a6a5d,,,,,,,,,,,192.7096,201.3292,space,8.5388,,[],[],[],[],[],[],4,0,4,0,1,,,,,,,,,,,,,,,,,,,,,,,,,,,,,,,,,,,,,,,,,,,,,,,,,,,,,,,,,,,,,,,,,,,,,,,,,,,,,,,,
,,,,,,60fca0fc5d7a65f146a1c6c6,2024-05-13_11h51.13.688,group3.1-3.2-social-tom,2023.2.2,Win32,18.4501845,65c5074098b851296ff0b7ed,664236dbde8edc31668a6a5d,,,,,,,,,,,,,,,,,,,,,,,,,,,201.3347,203.8753,203.8854,1,audio/Narrative13Situation2.wav,205.8908,,205.891,235.7791,"[[999,0],[999,81],[999,145],[999,211],[999,275],[999,340],[999,404],[999,469],[999,537],[999,600],[999,661],[999,723],[999,788],[999,852],[999,930],[999,993],[999,1057],[999,1123],[999,1186],[999,1255],[999,1317],[999,1381],[999,1445],[999,1511],[999,1574],[999,1647],[999,1718],[999,1780],[999,1845],[999,1907],[999,1973],[999,2037],[999,2117],[999,2182],[999,2245],[999,2308],[999,2379],[999,2445],[999,2522],[999,2587],[999,2650],[999,2714],[999,2784],[999,2847],[999,2910],[999,2974],[999,3037],[999,3102],[999,3165],[999,3230],[39.7,3296],[41.7,3359],[42.3,3424],[46.4,3503],[47.1,3568],[47.6,3636],[47.9,3701],[48.8,3763],[49.7,3832],[49.7,3894],[50.1,3958],[50.6,4029],[50.8,4092],[51.4,4156],[51.4,4219],[51.4,4294],[51.4,4358],[51.4,4422],[51.4,4487],[51.4,4551],[50.8,4617],[50.7,4681],[50.3,4750],[50.2,4826],[50.2,4889],[50.2,4954],[50.2,5018],[51.3,5085],[52.7,5148],[54.6,5214],[56.9,5279],[58.6,5343],[60.9,5407],[62.3,5477],[63.2,5542],[64.6,5606],[66.5,5673],[68.4,5736],[71.9,5803],[74.4,5865],[78.9,5929],[82.9,5993],[84.3,6058],[85.3,6122],[86.3,6186],[87.1,6249],[88.3,6314],[90.5,6379],[93.5,6444],[96.5,6508],[99.6,6573],[100,6637],[100,6701],[100,6765],[100,6829],[100,6894],[100,6956],[100,7021],[100,7082],[100,7147],[100,7212],[100,7277],[100,7340],[100,7405],[100,7481],[100,7544],[100,7606],[100,7670],[100,7735],[100,7801],[100,7867],[100,7928],[100,7992],[100,8057],[100,8121],[100,8191],[100,8254],[100,8318],[100,8378],[100,8444],[100,8511],[100,8578],[100,8640],[100,8705],[100,8769],[100,8833],[100,8897],[100,8960],[100,9022],[100,9088],[100,9152],[100,9215],[100,9281],[100,9344],[100,9405],[100,9469],[100,9533],[100,9603],[100,9665],[100,9729],[100,9792],[100,9855],[100,9923],[100,9989],[100,10051],[100,10114],[100,10177],[100,10239],[100,10306],[100,10368],[100,10431],[100,10493],[100,10557],[100,10621],[100,10684],[100,10746],[100,10811],[100,10875],[100,10939],[100,11002],[100,11071],[100,11135],[100,11198],[100,11263],[100,11326],[100,11388],[100,11453],[100,11515],[100,11580],[100,11642],[100,11707],[100,11778],[100,11840],[100,11905],[100,11972],[100,12035],[100,12099],[100,12163],[100,12229],[100,12300],[100,12364],[100,12427],[100,12490],[100,12554],[100,12620],[100,12683],[100,12755],[100,12819],[100,12883],[100,12945],[100,13009],[100,13073],[100,13136],[100,13199],[100,13262],[100,13324],[100,13388],[100,13451],[100,13516],[100,13581],[100,13646],[100,13711],[100,13775],[100,13840],[100,13906],[100,13973],[100,14038],[100,14104],[100,14167],[100,14231],[100,14296],[100,14360],[100,14426],[100,14489],[100,14556],[100,14631],[100,14692],[100,14755],[100,14819],[100,14881],[100,14946],[100,15016],[100,15078],[100,15140],[100,15204],[100,15268],[100,15332],[100,15395],[100,15456],[100,15518],[100,15594],[100,15656],[100,15718],[100,15781],[100,15847],[100,15912],[100,15977],[100,16041],[84,16625],[82.4,16689],[82.1,16756],[84.6,16822],[92.3,16886],[97.3,16951],[97.3,17013],[97.3,17080],[97.3,17144],[98.3,17209],[99.9,17275],[100,17338],[100,17402],[100,17467],[100,17529],[100,17593],[100,17658],[100,17722],[100,17786],[100,17851],[100,17915],[100,17978],[100,18042],[100,18102],[100,18166],[100,18229],[100,18286],[100,18348],[100,18411],[100,18482],[100,18548],[100,18613],[100,18677],[100,18741],[100,18807],[100,18871],[100,18936],[100,18999],[100,19064],[100,19128],[100,19190],[100,19253],[100,19316],[100,19376],[100,19441],[100,19505],[100,19571],[100,19645],[100,19707],[100,19770],[100,19838],[100,19902],[100,19974],[100,20037],[100,20101],[100,20164],[100,20228],[100,20295],[100,20361],[100,20426],[100,20486],[100,20559],[100,20620],[100,20682],[100,20745],[100,20817],[100,20880],[100,20943],[100,21006],[100,21069],[100,21132],[100,21196],[100,21258],[100,21323],[100,21385],[100,21449],[100,21514],[100,21577],[100,21640],[100,21705],[100,21770],[100,21834],[100,21897],[100,21962],[100,22026],[100,22090],[100,22152],[100,22216],[100,22291],[100,22354],[100,22416],[100,22479],[100,22544],[100,22611],[100,22684],[100,22746],[100,22804],[100,22867],[100,22930],[100,22996],[100,23061],[100,23125],[100,23187],[100,23250],[100,23314],[100,23379],[100,23443],[100,23508],[100,23571],[100,23645],[100,23708],[100,23772],[100,23837],[100,23899],[100,23964],[100,24031],[100,24091],[100,24154],[100,24218],[100,24281],[100,24357],[100,24421],[100,24491],[100,24555],[100,24626],[100,24700],[100,24765],[100,24834],[100,24896],[100,24962],[100,25032],[100,25097],[100,25159],[100,25220],[100,25281],[100,25343],[100,25405],[100,25467],[100,25530],[100,25604],[100,25667],[100,25730],[100,25795],[100,25861],[100,25923],[100,25988],[100,26050],[100,26114],[100,26178],[100,26240],[100,26313],[100,26377],[100,26450],[100,26524],[100,26589],[100,26651],[100,26715],[100,26779],[100,26852],[100,26917],[100,26983],[100,27054],[100,27119],[100,27183],[100,27247],[100,27310],[100,27376],[100,27439],[100,27496],[100,27563],[100,27632],[100,27696],[100,27760],[100,27823],[100,27887],[100,27948],[100,28012],[100,28076],[100,28139],[100,28205],[100,28270],[100,28335],[100,28401],[100,28464],[100,28530],[100,28593],[100,28658],[100,28721],[100,28784],[100,28849],[100,28913],[100,28979],[100,29045],[100,29119],[100,29182],[100,29246],[100,29311],[100,29375],[100,29438],[100,29504],[100,29568],[100,29633],[100,29695],[100,29758],[100,29823],[100,29887]]",1,0,235.7792,244.5322,100,6.7701,"[{""rating"":99.0625,""responseTime"":5.343700000047647},{""rating"":100,""responseTime"":6.770100000023831}]",space,8.0626,,244.5324,Partially,50,252.005,49.79166667,5.1755,"[{""rating"":49.791666666666664,""responseTime"":5.1754999999999995}]",space,6.8238,,0,0,0,0,1,audio/Narrative13Situation2.wav,audio/Narrative13Situation2.wav,audio/Narrative13Situation2.wav,audio/Narrative13Situation2.wav,2,2,2,2,,,,,,,,,,,,,,,,,,,,,,,,,,,,,,,,,,,,,
,,,,,,60fca0fc5d7a65f146a1c6c6,2024-05-13_11h51.13.688,group3.1-3.2-social-tom,2023.2.2,Win32,18.4501845,65c5074098b851296ff0b7ed,664236dbde8edc31668a6a5d,,,,,,,,,,,,,,,,,,,,,,,,,,,,,252.0052,1,audio/Narrative7Situation1.wav,323.6148,space,323.6148,379.6023,"[[999,5],[999,70],[999,132],[999,200],[999,261],[999,321],[999,383],[999,444],[999,508],[999,572],[999,635],[999,697],[999,763],[999,823],[100,886],[100,950],[100,1013],[100,1079],[100,1140],[99.6,1203],[99.6,1264],[99.6,1331],[99.6,1397],[99.6,1467],[99.6,1528],[99.6,1592],[99.6,1657],[99.6,1720],[99.6,1794],[99.6,1856],[99.6,1925],[99.6,1987],[99.6,2048],[99.6,2111],[99.6,2173],[99.6,2236],[99.6,2305],[99.6,2381],[99.6,2442],[99.6,2503],[99.6,2566],[99.6,2628],[99.6,2698],[99.6,2771],[99.6,2832],[99.6,2896],[99.6,2961],[99.6,3024],[99.6,3087],[99.6,3149],[99.6,3211],[99.6,3271],[99.6,3334],[99.6,3396],[99.6,3459],[99.6,3521],[99.6,3582],[99.6,3648],[99.6,3710],[99.6,3773],[99.6,3834],[99.6,3896],[99.6,3960],[99.6,4024],[99.6,4088],[99.6,4150],[99.6,4212],[99.6,4273],[99.6,4334],[99.6,4396],[99.6,4460],[99.6,4524],[99.6,4586],[99.6,4652],[99.6,4718],[99.6,4779],[99.6,4836],[99.6,4901],[99.6,4962],[99.6,5037],[99.6,5102],[99.6,5167],[99.6,5236],[99.6,5296],[99.6,5357],[99.6,5420],[99.6,5482],[99.6,5542],[99.6,5605],[99.6,5665],[99.6,5727],[99.6,5801],[99.6,5865],[99.6,5927],[99.6,5987],[99.6,6049],[99.6,6112],[99.6,6173],[99.6,6235],[99.6,6296],[99.6,6358],[99.6,6421],[99.6,6492],[99.6,6554],[99.6,6616],[99.6,6678],[99.6,6743],[99.6,6805],[99.6,6866],[99.6,6929],[99.6,6991],[99.6,7053],[99.6,7115],[99.6,7180],[99.6,7238],[99.6,7303],[99.6,7365],[99.6,7431],[99.6,7494],[99.6,7568],[99.6,7628],[99.6,7691],[99.6,7753],[99.6,7823],[99.6,7886],[99.6,7955],[99.6,8017],[99.6,8095],[99.6,8157],[99.6,8218],[99.6,8280],[99.6,8341],[99.6,8401],[99.6,8467],[99.6,8528],[99.6,8593],[99.6,8656],[99.6,8718],[99.6,8781],[99.6,8844],[99.6,8907],[99.6,8969],[99.6,9030],[99.6,9094],[99.6,9158],[99.6,9219],[99.6,9282],[99.6,9344],[99.6,9405],[99.6,9467],[99.6,9529],[99.6,9590],[99.6,9652],[99.6,9715],[99.6,9779],[99.6,9843],[99.6,9904],[99.6,9965],[99.6,10026],[99.6,10090],[99.6,10155],[99.6,10219],[99.6,10285],[99.6,10348],[99.6,10411],[99.6,10474],[99.6,10539],[99.6,10602],[99.6,10664],[99.6,10728],[99.6,10790],[99.6,10857],[99.6,10926],[99.6,10989],[99.6,11049],[99.6,11114],[99.6,11175],[99.6,11237],[99.6,11296],[99.6,11357],[99.6,11420],[99.6,11494],[99.6,11556],[99.6,11620],[99.6,11684],[99.6,11746],[99.6,11807],[99.6,11869],[99.6,11931],[99.6,11992],[99.6,12055],[99.6,12117],[99.6,12180],[99.6,12242],[99.6,12302],[99.6,12365],[99.6,12426],[99.6,12488],[99.6,12551],[99.6,12614],[99.6,12675],[99.6,12735],[99.6,12811],[99.6,12875],[99.6,12948],[99.6,13012],[99.6,13076],[99.6,13138],[99.6,13201],[99.6,13263],[99.6,13324],[99.6,13387],[99.6,13447],[99.6,13510],[99.6,13571],[99.6,13634],[99.6,13698],[99.6,13761],[99.6,13823],[99.6,13885],[99.6,13947],[99.6,14011],[99.6,14072],[99.6,14135],[99.6,14198],[99.6,14261],[99.6,14325],[99.6,14391],[99.6,14452],[99.6,14515],[99.6,14579],[99.6,14640],[99.6,14701],[99.6,14762],[99.6,14824],[99.6,14885],[99.6,14953],[99.6,15017],[99.6,15079],[99.6,15142],[99.6,15205],[99.6,15267],[99.6,15329],[99.6,15393],[99.6,15453],[99.6,15516],[99.6,15582],[99.6,15646],[99.6,15716],[99.6,15778],[99.6,15841],[99.6,15904],[99.6,15965],[99.6,16033],[99.6,16096],[99.6,16158],[99.6,16224],[99.6,16286],[99.6,16351],[99.6,16424],[99.6,16489],[99.6,16550],[99.6,16618],[99.6,16680],[99.6,16745],[99.6,16807],[99.6,16870],[99.6,16935],[99.6,16998],[99.6,17059],[99.6,17122],[99.6,17186],[99.6,17248],[99.6,17312],[99.6,17374],[99.6,17433],[99.6,17497],[99.6,17559],[99.6,17623],[99.6,17687],[99.6,17751],[99.6,17814],[99.6,17882],[99.6,17946],[99.6,18008],[99.6,18070],[99.6,18143],[99.6,18207],[99.6,18270],[99.6,18331],[99.6,18394],[99.6,18455],[99.6,18525],[99.6,18588],[99.6,18651],[99.6,18709],[99.6,18769],[99.6,18830],[99.6,18893],[99.6,18965],[99.6,19027],[99.6,19091],[99.6,19154],[99.6,19215],[99.6,19277],[99.6,19339],[99.6,19402],[99.6,19463],[99.6,19527],[99.6,19589],[99.6,19653],[99.6,19715],[99.6,19778],[99.6,19841],[99.6,19904],[99.6,19966],[99.6,20031],[99.6,20097],[99.6,20160],[99.6,20221],[99.6,20293],[99.6,20367],[99.6,20428],[99.6,20499],[99.6,20566],[99.6,20628],[99.6,20690],[99.6,20751],[99.6,20811],[99.6,20874],[99.6,20936],[99.6,20999],[99.6,21071],[99.6,21146],[99.6,21210],[99.6,21273],[99.6,21338],[99.6,21400],[99.6,21462],[99.6,21525],[99.6,21589],[99.6,21652],[99.6,21727],[99.6,21791],[99.6,21852],[99.6,21918],[99.6,21993],[99.6,22054],[99.6,22121],[99.6,22185],[99.6,22257],[99.6,22321],[99.6,22382],[99.6,22443],[99.6,22519],[99.6,22584],[99.6,22647],[99.6,22720],[99.6,22789],[99.6,22854],[99.6,22916],[99.6,22980],[99.6,23043],[99.6,23105],[99.6,23167],[99.6,23238],[99.6,23300],[99.6,23359],[99.6,23424],[99.6,23486],[99.6,23548],[99.6,23610],[99.6,23683],[99.6,23746],[99.6,23809],[99.6,23870],[99.6,23932],[99.6,23995],[99.6,24058],[99.6,24120],[99.6,24182],[99.6,24246],[99.6,24305],[99.6,24367],[99.6,24431],[99.6,24492],[99.6,24555],[99.6,24618],[99.6,24682],[99.6,24742],[99.6,24806],[99.6,24869],[99.6,24931],[99.6,24991],[99.6,25055],[99.6,25118],[99.6,25184],[99.6,25246],[99.6,25318],[99.6,25381],[99.6,25443],[99.6,25505],[99.6,25566],[99.6,25628],[99.6,25689],[99.6,25752],[99.6,25817],[99.6,25878],[99.6,25941],[99.6,26000],[99.6,26070],[99.6,26131],[99.6,26191],[99.6,26256],[99.6,26319],[99.6,26382],[99.6,26444],[99.6,26507],[99.6,26566],[99.6,26628],[99.6,26691],[99.6,26752],[99.6,26814],[99.6,26876],[99.6,26937],[99.6,26999],[99.6,27063],[99.6,27124],[99.6,27186],[99.6,27248],[99.6,27314],[99.6,27377],[99.6,27439],[99.6,27504],[99.6,27564],[99.6,27626],[99.6,27687],[99.6,27750],[99.6,27812],[99.6,27873],[99.6,27933],[99.6,27996],[99.6,28057],[99.6,28120],[99.6,28182],[99.6,28250],[99.6,28309],[99.6,28371],[99.6,28442],[99.6,28502],[99.6,28565],[99.6,28627],[99.6,28688],[99.6,28754],[99.6,28816],[99.6,28888],[99.6,28950],[99.6,29021],[99.6,29087],[99.6,29146],[99.6,29209],[99.6,29270],[99.6,29332],[99.6,29395],[99.6,29465],[99.6,29527],[99.6,29590],[99.6,29653],[99.6,29715],[99.6,29777],[99.6,29839],[99.6,29900],[99.6,29961],[99.6,30032],[99.6,30096],[99.6,30157],[99.6,30218],[99.6,30280],[99.6,30342],[99.6,30403],[99.6,30467],[99.6,30524],[99.6,30586],[99.6,30648],[99.6,30708],[99.6,30769],[99.6,30832],[99.6,30892],[99.6,30956],[99.6,31017],[99.6,31080],[99.6,31141],[99.6,31202],[99.6,31264],[99.6,31327],[99.6,31391],[99.6,31451],[99.6,31512],[99.6,31572],[99.6,31634],[99.6,31701],[99.6,31765],[99.6,31827],[99.6,31886],[99.6,31948],[99.6,32012],[99.6,32075],[99.6,32144],[99.6,32205],[99.6,32277],[99.6,32341],[99.6,32402],[99.6,32467],[99.6,32532],[99.6,32595],[99.6,32668],[99.6,32726],[99.6,32789],[99.6,32850],[99.6,32912],[99.6,32973],[99.6,33036],[99.6,33100],[99.6,33162],[99.6,33225],[99.6,33287],[99.6,33360],[99.6,33422],[99.6,33484],[99.6,33546],[99.6,33609],[99.6,33670],[99.6,33733],[99.6,33793],[99.6,33855],[99.6,33928],[99.6,33990],[99.6,34052],[99.6,34119],[99.6,34181],[99.6,34242],[99.6,34302],[99.6,34365],[99.6,34426],[99.6,34487],[99.6,34551],[99.6,34616],[99.6,34681],[99.6,34743],[99.6,34804],[99.6,34865],[99.6,34936],[99.6,34999],[99.6,35063],[99.6,35125],[99.6,35188],[99.6,35250],[99.6,35311],[99.6,35375],[99.6,35437],[99.6,35500],[99.6,35562],[99.6,35623],[99.6,35685],[99.6,35756],[99.6,35817],[99.6,35878],[99.6,35937],[99.6,36000],[99.6,36060],[99.6,36122],[99.6,36184],[99.6,36246],[99.6,36304],[99.6,36376],[99.6,36440],[99.6,36503],[99.6,36571],[99.6,36642],[99.6,36705],[99.6,36766],[99.6,36825],[99.6,36887],[99.6,36950],[99.6,37015],[99.6,37078],[99.6,37140],[99.6,37202],[99.6,37265],[99.6,37329],[99.6,37391],[99.6,37455],[99.6,37518],[99.6,37581],[99.6,37643],[99.6,37706],[99.6,37765],[99.6,37830],[99.6,37891],[99.6,37954],[99.6,38019],[99.6,38085],[99.6,38147],[99.6,38212],[99.6,38274],[99.6,38335],[99.6,38396],[99.6,38460],[99.6,38524],[99.6,38586],[99.6,38647],[99.6,38711],[99.6,38773],[99.6,38835],[99.6,38898],[99.6,38962],[99.6,39024],[99.6,39089],[99.6,39152],[99.6,39213],[99.6,39275],[99.6,39348],[99.6,39411],[99.6,39472],[99.6,39529],[99.6,39592],[99.6,39654],[99.6,39715],[99.6,39777],[99.6,39838],[99.6,39897],[99.6,39960],[99.6,40023],[99.6,40090],[99.6,40153],[99.6,40218],[99.6,40279],[99.6,40348],[99.6,40414],[99.6,40475],[99.6,40534],[99.6,40600],[99.6,40662],[99.6,40723],[99.6,40783],[99.6,40841],[99.6,40915],[99.6,40976],[99.6,41038],[99.6,41104],[99.6,41167],[99.6,41228],[99.6,41300],[99.6,41363],[99.6,41425],[99.6,41487],[99.6,41547],[99.6,41610],[99.6,41673],[99.6,41735],[99.6,41796],[99.6,41853],[99.6,41916],[99.6,41979],[99.6,42041],[99.6,42104],[99.6,42167],[99.6,42227],[99.6,42292],[99.6,42354],[99.6,42415],[99.6,42489],[99.6,42552],[99.6,42612],[99.6,42674],[99.6,42737],[99.6,42800],[99.6,42863],[99.6,42924],[99.6,42986],[99.6,43049],[99.6,43124],[99.6,43185],[99.6,43247],[99.6,43308],[99.6,43372],[99.6,43434],[99.6,43494],[99.6,43556],[99.6,43617],[99.6,43680],[99.6,43740],[99.6,43801],[99.6,43864],[99.6,43928],[99.6,43988],[99.6,44050],[99.6,44113],[99.6,44179],[99.6,44241],[99.6,44303],[99.6,44364],[99.6,44428],[99.6,44489],[99.6,44551],[99.6,44612],[99.6,44674],[99.6,44736],[99.6,44799],[99.6,44859],[99.6,44920],[99.6,44984],[99.6,45046],[99.6,45110],[99.6,45173],[99.6,45234],[99.6,45293],[99.6,45362],[99.6,45423],[99.6,45485],[99.6,45549],[99.6,45622],[99.6,45682],[99.6,45744],[99.6,45804],[99.6,45868],[99.6,45939],[99.6,46000],[99.6,46062],[99.6,46127],[99.6,46192],[99.6,46254],[99.6,46316],[99.6,46378],[99.6,46440],[99.6,46502],[99.6,46564],[99.6,46628],[99.6,46691],[99.6,46749],[99.6,46813],[99.6,46875],[99.6,46936],[99.6,46997],[99.6,47061],[99.6,47122],[99.6,47185],[99.6,47246],[99.6,47312],[99.6,47385],[99.6,47448],[99.6,47509],[99.6,47568],[99.6,47631],[99.6,47691],[99.6,47764],[99.6,47834],[99.6,47898],[99.6,47961],[99.6,48025],[99.6,48092],[99.6,48153],[99.6,48216],[99.6,48285],[99.6,48348],[99.6,48409],[99.6,48479],[99.6,48543],[99.6,48605],[99.6,48667],[99.6,48731],[99.6,48792],[99.6,48854],[99.6,48926],[99.6,48987],[99.6,49049],[99.6,49113],[99.6,49176],[99.6,49239],[99.6,49300],[99.6,49364],[99.6,49428],[99.6,49489],[99.6,49551],[99.6,49613],[99.6,49674],[99.6,49738],[99.6,49800],[99.6,49860],[99.6,49924],[99.6,49987],[99.6,50049],[99.6,50111],[99.6,50170],[99.6,50232],[99.6,50297],[99.6,50359],[99.6,50422],[99.6,50484],[99.6,50545],[99.6,50608],[99.6,50671],[99.6,50739],[99.6,50802],[99.6,50873],[99.6,50935],[99.6,50998],[99.6,51059],[99.6,51121],[99.6,51181],[99.6,51242],[99.6,51304],[99.6,51364],[99.6,51424],[99.6,51486],[99.6,51549],[99.6,51610],[99.6,51674],[99.6,51745],[99.6,51818],[99.6,51880],[99.6,51941],[99.6,52001],[99.6,52064],[99.6,52128],[99.6,52190],[99.6,52253],[99.6,52317],[99.6,52379],[99.6,52441],[99.6,52505],[99.6,52568],[99.6,52644],[99.6,52704],[99.6,52766],[99.6,52828],[99.6,52889],[99.6,52952],[99.6,53013],[99.6,53083],[99.6,53143],[99.6,53208],[99.6,53270],[99.6,53334],[99.6,53398],[99.6,53459],[99.6,53521],[99.6,53590],[99.6,53652],[99.6,53714],[99.6,53774],[99.6,53838],[99.6,53899],[99.6,53960],[99.6,54020],[99.6,54083],[99.6,54146],[99.6,54208],[99.6,54269],[99.6,54332],[99.6,54393],[99.6,54454],[99.6,54525],[99.6,54588],[99.6,54649],[99.6,54715],[99.6,54779],[99.6,54840],[99.6,54909],[99.6,54969],[99.6,55031],[99.6,55093],[99.6,55159],[99.6,55220],[99.6,55282],[99.6,55345],[99.6,55407],[99.6,55470],[99.6,55530],[99.6,55592],[99.6,55652],[99.6,55715],[99.6,55790],[99.6,55861],[99.6,55923],[99.6,55987]]",1,0,379.6026,384.32,99.58333333,1.8463,"[{""rating"":99.58333333333333,""responseTime"":1.8463000000119223}]",space,4.0436,,384.32,Definitely yes,100,384.3267,,,[],,,,0,1,1,1,1,audio/Narrative7Situation1.wav,audio/Narrative8Situation1.wav,audio/Narrative5Situation1.wav,audio/Narrative6Situation1.wav,2,5,5,2,71.5491,,,,,,,,,,,,,,,,,,,,,,,,,,,,,,,,,,,,
,,,,,,60fca0fc5d7a65f146a1c6c6,2024-05-13_11h51.13.688,group3.1-3.2-social-tom,2023.2.2,Win32,18.4501845,65c5074098b851296ff0b7ed,664236dbde8edc31668a6a5d,,,,,,,,,,,,,,,,,,,,,,,,,,,,,384.3268,1,audio/Narrative7Situation2.wav,387.3504,,387.3504,394.9428,"[[999,0],[999,62],[999,129],[999,192],[999,254],[999,317],[999,379],[999,439],[999,499],[999,564],[999,627],[999,689],[999,761],[999,829],[999,890],[999,953],[999,1015],[999,1079],[999,1141],[999,1200],[999,1280],[999,1353],[999,1418],[999,1482],[999,1545],[999,1608],[999,1673],[999,1736],[999,1797],[999,1861],[999,1939],[999,2015],[999,2076],[999,2146],[999,2211],[999,2273],[999,2335],[999,2398],[999,2457],[999,2521],[999,2602],[999,2665],[999,2727],[999,2790],[999,2854],[999,2915],[999,2977],[999,3040],[999,3099],[999,3165],[999,3231],[999,3294],[999,3357],[999,3434],[999,3494],[999,3556],[999,3620],[999,3680],[999,3744],[999,3809],[999,3872],[999,3933],[96.4,4003],[97.9,4069],[98.6,4133],[99.6,4197],[99.6,4261],[99.6,4324],[99.6,4388],[99.6,4458],[99.6,4525],[99.6,4588],[99.6,4649],[99.6,4711],[99.6,4776],[98.2,4837],[94.7,4897],[92.9,4962],[90.3,5025],[87.6,5089],[84.8,5153],[82,5216],[77.2,5280],[72.7,5354],[70.8,5419],[69.5,5483],[67.3,5549],[67.2,5613],[67.2,5676],[70.3,5739],[75.4,5802],[81,5875],[85.3,5939],[89,6002],[91.8,6067],[94.9,6131],[97.7,6196],[99.4,6270],[99.6,6332],[100,6396],[100,6461],[100,6524],[100,6587],[100,6651],[100,6712],[100,6784],[100,6847],[100,6908],[100,6970],[100,7032],[100,7093],[100,7155],[100,7217],[100,7280],[100,7341],[100,7405],[100,7467],[100,7530],[100,7592]]",1,0,394.943,402.5108,68.4375,5.9415,"[{""rating"":68.4375,""responseTime"":5.941499999999962}]",space,6.8998,,402.5109,Partially,50,402.5125,,,[],,,,0,2,2,2,1,audio/Narrative7Situation2.wav,audio/Narrative8Situation2.wav,audio/Narrative5Situation2.wav,audio/Narrative6Situation2.wav,3,3,3,3,,,,,,,,,,,,,,,,,,,,,,,,,,,,,,,,,,,,,
,,,,,,60fca0fc5d7a65f146a1c6c6,2024-05-13_11h51.13.688,group3.1-3.2-social-tom,2023.2.2,Win32,18.4501845,65c5074098b851296ff0b7ed,664236dbde8edc31668a6a5d,,,,,,,,,,,,,,,,,,,,,,,,,,,,,402.5127,1,audio/Narrative7Situation3.wav,410.5275,,410.5275,419.8958,"[[45.6,946],[46,1009],[47.8,1074],[47.9,1137],[50.1,1200],[51,1263],[51,1324],[51.8,1385],[54.4,1448],[57.9,1512],[63.6,1576],[66.6,1635],[66.8,1697],[66.8,1761],[66.8,1822],[66.8,1886],[66.8,1949],[56.8,2023],[48.8,2089],[47.4,2152],[47.4,2221],[47.8,2285],[47.9,2354],[47.9,2416],[47.9,2477],[47.9,2539],[47.9,2601],[47.9,2665],[47.9,2726],[47.9,2789],[47.9,2852],[47.9,2915],[47.9,2976],[47.9,3037],[47.9,3099],[47.9,3162],[47.9,3223],[47.9,3286],[47.9,3348],[47.9,3410],[47.9,3471],[47.9,3533],[47.9,3596],[47.9,3659],[47.9,3724],[47.9,3786],[48,3847],[48,3913],[48,3974],[48,4043],[48,4104],[48,4166],[48,4228],[48,4291],[48,4350],[48,4412],[48,4473],[48,4537],[48,4599],[48,4662],[48,4723],[48,4787],[48,4850],[48,4913],[48,4976],[48,5040],[48,5103],[48,5165],[48,5228],[48,5291],[48,5352],[48,5414],[48,5479],[48,5541],[48,5613],[48,5673],[48,5735],[48,5797],[48,5858],[48,5920],[48,5984],[48,6046],[48,6108],[48,6170],[48,6233],[48,6296],[48,6358],[48,6421],[48,6486],[48,6548],[48,6612],[48,6679],[48,6743],[48,6806],[48,6869],[48,6931],[48,6995],[48,7057],[48,7120],[48,7190],[48,7253],[48,7313],[48,7376],[48,7446],[48,7508],[48,7570],[48,7633],[48,7695],[48,7758],[48,7822],[48,7884],[48,7949],[48,8012],[48,8079],[48,8142],[48,8206],[48,8266],[48,8327],[48,8389],[48,8452],[48,8523],[48,8582],[48,8644],[48,8716],[48,8780],[48,8845],[48,8907],[48,8969],[48.2,9039],[49.1,9113],[49.6,9179],[50.1,9242],[50.2,9305],[50.2,9368]]",1,0,419.8959,422.3278,50.20833333,0.9429,"[{""rating"":50.208333333333336,""responseTime"":0.9429000000357632}]",space,1.7759,,422.3278,Partially,50,422.3289,,,[],,,,0,3,3,3,1,audio/Narrative7Situation3.wav,audio/Narrative8Situation3.wav,audio/Narrative5Situation3.wav,audio/Narrative6Situation3.wav,8,4,3,5,,,,,,,,,,,,,,,,,,,,,,,,,,,,,,,,,,,,,
,,,,,,60fca0fc5d7a65f146a1c6c6,2024-05-13_11h51.13.688,group3.1-3.2-social-tom,2023.2.2,Win32,18.4501845,65c5074098b851296ff0b7ed,664236dbde8edc31668a6a5d,,,,,,,,,,,,,,,,,,,,,,,,,,,,,422.329,1,audio/Narrative7Situation4.wav,425.3586,,425.3587,437.1926,"[[999,0],[999,69],[999,132],[999,194],[999,255],[999,317],[999,378],[999,440],[999,506],[999,569],[999,631],[999,699],[999,762],[999,823],[999,887],[999,950],[999,1011],[999,1072],[999,1135],[999,1196],[999,1259],[999,1322],[999,1382],[999,1444],[999,1507],[999,1568],[999,1631],[999,1694],[999,1752],[999,1815],[999,1879],[999,1939],[999,2000],[999,2067],[50.3,2128],[49.9,2191],[49.8,2254],[49.7,2317],[49.7,2380],[49.7,2442],[49.7,2505],[49.7,2566],[49.7,2629],[49.7,2690],[49.7,2752],[49.7,2823],[49.7,2885],[49.7,2952],[49.7,3013],[49.7,3078],[49.7,3139],[49.7,3204],[49.7,3267],[49.7,3331],[49.7,3393],[49.7,3457],[49.7,3520],[49.7,3582],[49.7,3644],[49.7,3716],[49.7,3777],[49.7,3843],[49.7,3906],[49.7,3968],[49.7,4031],[49.7,4096],[49.7,4154],[49.7,4217],[49.7,4278],[49.7,4350],[49.7,4412],[49.7,4474],[49.7,4536],[49.7,4610],[49.7,4673],[49.7,4735],[49.7,4796],[49.7,4858],[49.7,4920],[49.7,4992],[49.7,5055],[49.7,5115],[49.7,5189],[49.7,5252],[49.7,5313],[49.7,5376],[49.7,5439],[49.7,5500],[49.7,5561],[49.7,5625],[49.7,5686],[49.7,5749],[49.7,5816],[49.7,5888],[49.7,5952],[49.7,6013],[49.7,6073],[49.7,6135],[49.7,6199],[49.7,6266],[49.7,6329],[49.7,6392],[49.7,6454],[49.7,6516],[49.7,6579],[49.7,6642],[49.7,6703],[49.7,6764],[49.7,6826],[49.7,6897],[49.7,6962],[49.7,7023],[49.7,7098],[49.7,7158],[49.7,7219],[49.7,7282],[49.7,7346],[49.7,7406],[49.7,7468],[49.7,7546],[49.7,7604],[49.7,7667],[49.7,7734],[49.7,7797],[49.7,7860],[49.7,7923],[49.7,7986],[49.7,8049],[49.7,8112],[49.7,8176],[49.7,8237],[49.7,8301],[49.7,8362],[49.7,8426],[49.7,8488],[49.7,8549],[49.7,8611],[49.7,8673],[49.7,8738],[49.7,8801],[49.7,8865],[49.7,8926],[49.7,8989],[49.7,9051],[49.7,9115],[49.7,9176],[49.7,9239],[49.7,9300],[49.7,9364],[49.7,9427],[48.3,9490],[46.8,9557],[45.5,9620],[38,9682],[25.3,9745],[15.5,9810],[13.2,9875],[10.3,9938],[6.5,10000],[0.4,10066]]",1,0,437.1927,440.1914,0.208333333,2.1203,"[{""rating"":0.2083333333333326,""responseTime"":2.120300000011923}]",space,2.3321,,440.1914,Definitely yes,100,440.1933,,,[],,,,0,4,4,4,1,audio/Narrative7Situation4.wav,audio/Narrative8Situation4.wav,audio/Narrative5Situation4.wav,audio/Narrative6Situation4.wav,3,3,1,2,,,,,,,,,,,,,,,,,,,,,,,,,,,,,,,,,,,,,
,,,,,,60fca0fc5d7a65f146a1c6c6,2024-05-13_11h51.13.688,group3.1-3.2-social-tom,2023.2.2,Win32,18.4501845,65c5074098b851296ff0b7ed,664236dbde8edc31668a6a5d,,,,,,,,,,,,,,,,,,,,,,,,,,,,,440.1934,1,audio/Narrative7Situation5.wav,445.2399,,445.24,453.8636,"[[6.4,7652],[14.9,7720],[20.2,7784],[23,7849],[25.9,7916],[30.6,7981],[35.2,8362],[27.8,8424],[20,8490],[13,8554],[5.2,8623]]",1,0,453.8636,460.0919,24.79166667,5.6071,"[{""rating"":0.4166666666666652,""responseTime"":0.8213999999761654},{""rating"":17.1875,""responseTime"":3.576999999999998},{""rating"":24.791666666666668,""responseTime"":5.60710000002382}]",space,5.5575,,460.0921,Partially,50,460.0938,,,[],,,,0,5,5,5,1,audio/Narrative7Situation5.wav,audio/Narrative8Situation5.wav,audio/Narrative5Situation5.wav,audio/Narrative6Situation5.wav,5,2,5,2,,,,,,,,,,,,,,,,,,,,,,,,,,,,,,,,,,,,,
,,,,,,60fca0fc5d7a65f146a1c6c6,2024-05-13_11h51.13.688,group3.1-3.2-social-tom,2023.2.2,Win32,18.4501845,65c5074098b851296ff0b7ed,664236dbde8edc31668a6a5d,,,,,,,,,,,,,,,,,,,,,,,,,,,,,460.0939,1,audio/Narrative7Situation6.wav,463.1127,,463.1128,473.1835,"[[23,8406],[52.8,8476],[81.1,8795],[80.8,8860],[80.6,8923],[80.6,8986],[82,9049],[82,9114],[82,9179],[82,9241],[82,9303],[82,9364],[82,9427],[82,9491],[82,9552],[82,9616],[82,9688],[82,9749],[82,9812],[82,9873],[82,9935],[82,10008],[82,10070]]",1,0,473.1836,475.8471,87.29166667,1.3621,"[{""rating"":87.29166666666667,""responseTime"":1.3621000000238723}]",space,1.9899,,475.8472,Not at all,0,475.8489,,,[],,,,0,6,6,6,1,audio/Narrative7Situation6.wav,audio/Narrative8Situation6.wav,audio/Narrative5Situation6.wav,audio/Narrative6Situation6.wav,3,2,3,2,,,,,,,,,,,,,,,,,,,,,,,,,,,,,,,,,,,,,
,,,,,,60fca0fc5d7a65f146a1c6c6,2024-05-13_11h51.13.688,group3.1-3.2-social-tom,2023.2.2,Win32,18.4501845,65c5074098b851296ff0b7ed,664236dbde8edc31668a6a5d,,,,,,,,,,,,,,,,,,,,,,,,,,,,,475.849,1,audio/Narrative7Situation7.wav,480.8609,,480.861,498.1347,"[[88.9,3878],[88.8,3957],[88,4016],[88,4075],[87.8,4140],[87.7,4204],[87.7,4269],[86.9,4332],[86.8,4399],[86.8,4462],[86.8,4529],[86.8,4600],[86.8,4663],[86.8,4724],[86.8,4786],[86.8,4849],[86.8,4918],[86.8,4979],[86.8,5046],[86.8,5117],[86.8,5182],[86.8,5242],[86.8,5304],[86.8,5366],[86.8,5429],[86.8,5487],[86.8,5556],[86.8,5621],[86.8,5685],[86.8,5755],[86.8,5819],[86.8,5880],[86.8,5948],[86.8,6013],[86.8,6077],[86.8,6141],[86.8,6200],[86.8,6262],[86.8,6323],[86.8,6391],[86.8,6453],[86.8,6516],[86.8,6582],[86.8,6645],[86.8,6710],[86.8,6772],[86.8,6840],[86.8,6903],[86.8,6965],[86.8,7027],[86.8,7087],[86.8,7149],[86.8,7213],[86.8,7276],[86.8,7337],[86.8,7399],[88.2,7462],[100,7524],[100,7587],[100,7659],[100,7720],[100,7783],[100,7845],[100,7909],[100,7974],[100,8038],[100,8101],[100,8163],[100,8226],[100,8291],[100,8356],[100,8427],[100,8489],[100,8552],[100,8619],[100,8681],[100,8753],[100,8815],[100,8887],[100,8946],[100,9008],[100,9082],[100,9144],[100,9205],[100,9268],[100,9333],[100,9404],[100,9466],[100,9530],[100,9592],[100,9653],[100,9724],[100,9786],[100,9849],[100,9911],[100,9974],[100,10047],[100,10109],[100,10166],[100,10230],[100,10293],[100,10355],[100,10416],[100,10479],[100,10539],[100,10603],[100,10666],[100,10727],[100,10789],[100,10854],[100,10920],[100,10984],[100,11046],[100,11107],[100,11170],[100,11229],[100,11293],[100,11356],[100,11419],[100,11482],[100,11545],[100,11608],[100,11669],[100,11735],[100,11798],[100,11862],[100,11923],[100,11986],[100,12059],[100,12122],[100,12185],[100,12249],[100,12312],[100,12371],[100,12432],[100,12495],[100,12553],[100,12614],[100,12675],[100,12736],[100,12796],[100,12859],[100,12920],[100,12981],[100,13043],[100,13106],[100,13168],[100,13232],[100,13296],[100,13361],[100,13423],[100,13487],[100,13548],[100,13613],[100,13683],[100,13746],[100,13809],[100,13871],[100,13935],[100,13997],[100,14061],[100,14123],[100,14185],[100,14246],[100,14315],[100,14378],[100,14439],[100,14510],[100,14571],[100,14633],[100,14694],[100,14758],[100,14817],[100,14877],[100,14941],[100,15001],[100,15064],[100,15126],[100,15199],[100,15261],[100,15322],[100,15385],[100,15445],[100,15507],[100,15570],[100,15630],[100,15692],[100,15765],[100,15830],[100,15892],[100,15954],[100,16016],[100,16084],[100,16150],[100,16214],[100,16277],[100,16344],[100,16417],[100,16487],[100,16549],[100,16610],[100,16685],[100,16758],[100,16823],[100,16887],[100,16949],[100,17013],[100,17077],[100,17149],[100,17211],[100,17273]]",1,0,498.1349,504.8557,99.58333333,5.6962,"[{""rating"":99.58333333333333,""responseTime"":5.696199999988039}]",space,6.0443,,504.8558,Definitely yes,100,504.8574,,,[],,,,0,7,7,7,1,audio/Narrative7Situation7.wav,audio/Narrative8Situation7.wav,audio/Narrative5Situation7.wav,audio/Narrative6Situation7.wav,5,3,4,5,,,,,,,,,,,,,,,,,,,,,,,,,,,,,,,,,,,,,
,,,,,,60fca0fc5d7a65f146a1c6c6,2024-05-13_11h51.13.688,group3.1-3.2-social-tom,2023.2.2,Win32,18.4501845,65c5074098b851296ff0b7ed,664236dbde8edc31668a6a5d,,,,,,,,,,,,,,,,,,,,,,,,,,,,,504.8574,1,audio/Narrative7Situation8.wav,506.9055,,506.9056,517.0525,[],1,0,517.0526,518.8918,99.375,0.669,"[{""rating"":99.375,""responseTime"":0.6689999999999827}]",space,1.1668,,518.8918,Not at all,0,518.8934,,,[],,,,0,8,8,8,1,audio/Narrative7Situation8.wav,audio/Narrative8Situation8.wav,audio/Narrative5Situation8.wav,audio/Narrative6Situation8.wav,2,3,3,5,,,,,,,,,,,,,,,,,,,,,,,,,,,,,,,,,,,,,
,,,,,,60fca0fc5d7a65f146a1c6c6,2024-05-13_11h51.13.688,group3.1-3.2-social-tom,2023.2.2,Win32,18.4501845,65c5074098b851296ff0b7ed,664236dbde8edc31668a6a5d,,,,,,,,,,,,,,,,,,,,,,,,,,,,,518.8935,1,audio/Narrative7Situation9.wav,520.954,,520.9541,529.697,[],1,0,529.6972,534.9663,100,4.5129,"[{""rating"":98.64583333333333,""responseTime"":3.8357999999523145},{""rating"":100,""responseTime"":4.512899999976071}]",space,4.5945,,534.9663,Partially,50,534.968,,,[],,,,0,9,9,9,1,audio/Narrative7Situation9.wav,audio/Narrative8Situation9.wav,audio/Narrative5Situation9.wav,audio/Narrative6Situation9.wav,2,3,3,4,,,,,,,,,,,,,,,,,,,,,,,,,,,,,,,,,,,,,
,,,,,,60fca0fc5d7a65f146a1c6c6,2024-05-13_11h51.13.688,group3.1-3.2-social-tom,2023.2.2,Win32,18.4501845,65c5074098b851296ff0b7ed,664236dbde8edc31668a6a5d,,,,,,,,,,,,,,,,,,,,,,,,,,,,,534.9681,1,audio/Narrative8Situation1.wav,540.0293,,540.0293,556.0232,"[[100,1225],[100,1287]]",1,0,556.0233,558.612,99.58333333,2.1701,"[{""rating"":99.58333333333333,""responseTime"":2.170100000023808}]",space,1.9149,,558.6121,Partially,50,558.613,,,[],,,,0,10,10,10,1,audio/Narrative8Situation1.wav,audio/Narrative7Situation1.wav,audio/Narrative6Situation1.wav,audio/Narrative5Situation1.wav,5,2,2,5,,,,,,,,,,,,,,,,,,,,,,,,,,,,,,,,,,,,,
,,,,,,60fca0fc5d7a65f146a1c6c6,2024-05-13_11h51.13.688,group3.1-3.2-social-tom,2023.2.2,Win32,18.4501845,65c5074098b851296ff0b7ed,664236dbde8edc31668a6a5d,,,,,,,,,,,,,,,,,,,,,,,,,,,,,558.6132,1,audio/Narrative8Situation2.wav,561.6603,,561.6603,571.8961,"[[999,0],[999,65],[999,129],[999,194],[999,258],[999,323],[999,386],[999,465],[999,528],[999,593],[999,655],[999,719],[999,793],[999,854],[999,917],[999,980],[999,1043],[999,1106],[999,1168],[999,1235],[999,1297],[999,1362],[999,1426],[999,1490],[999,1555],[999,1616],[999,1679],[999,1742],[999,1804],[999,1876],[999,1938],[999,2003],[999,2073],[999,2138],[999,2201],[999,2267],[999,2330],[999,2404],[999,2466],[999,2537],[999,2602],[999,2664],[999,2730],[999,2793],[999,2856],[999,2917],[999,2988],[999,3051],[999,3113],[999,3186],[999,3249],[999,3312],[999,3375],[999,3446],[999,3508],[999,3588],[999,3652],[999,3714],[999,3786],[999,3849],[999,3924],[999,3986],[999,4060],[999,4120],[999,4183],[999,4246],[999,4312],[999,4377],[999,4440],[999,4504],[999,4567],[999,4631],[999,4694],[999,4757],[999,4821],[999,4886],[999,4952],[999,5014],[999,5085],[999,5148],[999,5210],[999,5273],[999,5344],[999,5408],[999,5471],[999,5534],[999,5598],[999,5660],[999,5730],[999,5802],[999,5870],[999,5936],[999,6001],[999,6067],[999,6130],[999,6191],[999,6251],[999,6320],[999,6383],[999,6450],[999,6513],[999,6579],[999,6643],[999,6707],[999,6770],[999,6832],[999,6895],[999,6959],[999,7031],[999,7092],[999,7163],[999,7227],[999,7293],[999,7359],[999,7427],[999,7497],[999,7558],[999,7620],[999,7692],[999,7756],[999,7813],[999,7876],[999,7942],[999,8006],[999,8073],[999,8137],[999,8198],[999,8262],[999,8324],[999,8389],[999,8451],[999,8513],[999,8579],[999,8642],[999,8704],[999,8765],[999,8836],[999,8899],[999,8967],[999,9033],[999,9100],[999,9166],[999,9229],[999,9290],[999,9354],[999,9418],[999,9482],[999,9566],[999,9630],[999,9692],[999,9759],[999,9823],[999,9895],[999,9959],[999,10027],[999,10097],[999,10165],[999,10235]]",1,0,571.8962,576.1544,50,2.3763,"[{""rating"":50,""responseTime"":2.376300000011952}]",space,3.555,,576.1544,Partially,50,576.1553,,,[],,,,0,11,11,11,1,audio/Narrative8Situation2.wav,audio/Narrative7Situation2.wav,audio/Narrative6Situation2.wav,audio/Narrative5Situation2.wav,3,3,3,3,,,,,,,,,,,,,,,,,,,,,,,,,,,,,,,,,,,,,
,,,,,,60fca0fc5d7a65f146a1c6c6,2024-05-13_11h51.13.688,group3.1-3.2-social-tom,2023.2.2,Win32,18.4501845,65c5074098b851296ff0b7ed,664236dbde8edc31668a6a5d,,,,,,,,,,,,,,,,,,,,,,,,,,,,,576.1554,1,audio/Narrative8Situation3.wav,580.1827,,580.1827,602.6646,"[[999,4],[999,68],[999,134],[999,202],[999,262],[999,330],[999,394],[999,456],[999,520],[999,582],[999,655],[999,720],[999,795],[999,857],[999,920],[999,986],[999,1050],[999,1115],[999,1179],[999,1242],[999,1305],[999,1365],[999,1427],[999,1494],[999,1566],[999,1630],[999,1692],[999,1761],[999,1823],[999,1887],[999,1948],[999,2010],[999,2079],[999,2144],[999,2205],[999,2267],[999,2327],[999,2390],[999,2452],[999,2519],[999,2584],[999,2647],[999,2711],[999,2779],[999,2842],[999,2912],[999,2975],[999,3040],[999,3106],[999,3181],[999,3243],[999,3305],[999,3368],[999,3431],[999,3492],[999,3556],[999,3620],[999,3681],[999,3743],[999,3807],[999,3870],[999,3930],[999,3997],[999,4061],[999,4131],[999,4201],[999,4268],[999,4329],[999,4390],[999,4453],[999,4516],[999,4578],[999,4640],[999,4701],[999,4776],[999,4839],[999,4902],[999,4966],[999,5029],[999,5091],[999,5153],[999,5216],[999,5278],[999,5345],[999,5414],[999,5486],[999,5551],[999,5614],[999,5680],[999,5750],[999,5811],[999,5873],[999,5940],[999,6002],[999,6064],[999,6132],[999,6206],[999,6267],[999,6327],[999,6388],[999,6450],[999,6514],[999,6576],[999,6637],[999,6697],[999,6765],[999,6834],[999,6899],[999,6964],[999,7028],[999,7093],[999,7158],[999,7221],[999,7283],[999,7345],[999,7407],[999,7468],[999,7530],[999,7592],[999,7664],[999,7729],[999,7791],[999,7853],[999,7918],[999,7982],[999,8052],[999,8122],[999,8185],[999,8247],[999,8311],[999,8377],[999,8441],[999,8508],[999,8570],[999,8634],[999,8699],[999,8764],[999,8828],[999,8891],[999,8956],[999,9020],[999,9083],[999,9147],[999,9209],[999,9271],[999,9342],[999,9406],[999,9467],[999,9531],[999,9596],[999,9659],[999,9722],[999,9792],[999,9858],[999,9923],[999,9989],[999,10052],[999,10124],[999,10188],[999,10251],[999,10316],[999,10378],[999,10442],[999,10502],[999,10565],[999,10630],[999,10692],[999,10758],[999,10821],[999,10886],[999,10956],[999,11017],[999,11077],[999,11149],[999,11211],[999,11285],[999,11349],[999,11413],[999,11477],[999,11538],[999,11612],[999,11691],[999,11759],[999,11824],[999,11886],[999,11949],[999,12010],[999,12073],[999,12136],[999,12200],[999,12264],[999,12329],[999,12392],[999,12467],[999,12534],[999,12607],[999,12667],[999,12730],[999,12795],[999,12858],[999,12925],[999,12988],[999,13052],[999,13117],[999,13192],[999,13254],[999,13319],[999,13393],[999,13458],[999,13525],[999,13592],[999,13663],[999,13727],[999,13790],[999,13851],[999,13924],[999,13985],[999,14047],[999,14109],[999,14172],[999,14237],[999,14299],[999,14364],[999,14428],[999,14492],[999,14555],[999,14618],[999,14681],[999,14745],[999,14809],[999,14873],[999,14941],[999,15013],[999,15076],[999,15141],[999,15204],[999,15266],[999,15330],[999,15401],[999,15464],[999,15529],[999,15602],[999,15671],[999,15735],[999,15797],[999,15858],[999,15922],[999,15985],[999,16047],[999,16118],[999,16180],[999,16243],[999,16317],[999,16377],[999,16444],[999,16508],[999,16581],[999,16652],[999,16716],[999,16812],[999,16874],[999,16939],[999,17005],[999,17066],[999,17139],[999,17202],[999,17263],[999,17327],[999,17392],[999,17455],[999,17519],[999,17580],[999,17642],[999,17705],[999,17776],[999,17850],[999,17918],[999,17991],[999,18059],[999,18126],[999,18192],[999,18257],[999,18321],[999,18389],[999,18457],[999,18539],[999,18617],[999,18684],[999,18750],[999,18815],[999,18880],[999,18946],[999,19009],[76,19073],[76,19141],[77.1,19207],[78.8,19269],[78.9,19332],[79.8,19399],[89.8,19461],[100,19527]]",1,0,602.6647,604.76,100,1.7605,"[{""rating"":99.27083333333333,""responseTime"":1.2559999999999718},{""rating"":100,""responseTime"":1.760499999999979}]",space,1.4659,,604.76,Not at all,0,604.7615,,,[],,,,0,12,12,12,1,audio/Narrative8Situation3.wav,audio/Narrative7Situation3.wav,audio/Narrative6Situation3.wav,audio/Narrative5Situation3.wav,4,8,5,3,,,,,,,,,,,,,,,,,,,,,,,,,,,,,,,,,,,,,
,,,,,,60fca0fc5d7a65f146a1c6c6,2024-05-13_11h51.13.688,group3.1-3.2-social-tom,2023.2.2,Win32,18.4501845,65c5074098b851296ff0b7ed,664236dbde8edc31668a6a5d,,,,,,,,,,,,,,,,,,,,,,,,,,,,,604.7617,1,audio/Narrative8Situation4.wav,607.7669,,607.7669,622.0378,"[[999,4],[999,65],[999,130],[999,190],[999,252],[999,317],[999,378],[999,442],[999,504],[999,566],[999,632],[999,694],[999,768],[999,833],[999,907],[999,981],[999,1045],[999,1106],[999,1169],[999,1231],[999,1296],[999,1358],[999,1421],[999,1485],[999,1558],[999,1620],[999,1683],[999,1748],[999,1810],[999,1883],[999,1946],[999,2008],[999,2071],[999,2136],[999,2197],[999,2271],[999,2344],[999,2427],[999,2492],[999,2555],[999,2618],[999,2680],[999,2744],[999,2807],[999,2870],[999,2934],[999,2997],[999,3060],[999,3132],[999,3194],[999,3257],[999,3319],[999,3382],[999,3446],[999,3511],[999,3572],[999,3637],[999,3701],[999,3764],[999,3825],[999,3888],[999,3949],[999,4013],[999,4075],[999,4139],[999,4205],[999,4269],[999,4331],[999,4396],[999,4467],[999,4531],[999,4598],[999,4662],[999,4729],[999,4792],[999,4870],[999,4945],[999,5019],[999,5090],[999,5159],[999,5222],[999,5286],[999,5348],[85.5,5411],[76.4,5479],[75.4,5543],[73.4,5608],[73.2,5682],[73.3,5745],[80.1,5809],[100,5871]]",1,0,622.0379,631.4315,100,8.7754,"[{""rating"":100,""responseTime"":8.775399999976116}]",space,8.7406,,631.4315,Partially,50,631.4332,,,[],,,,0,13,13,13,1,audio/Narrative8Situation4.wav,audio/Narrative7Situation4.wav,audio/Narrative6Situation4.wav,audio/Narrative5Situation4.wav,3,3,2,1,,,,,,,,,,,,,,,,,,,,,,,,,,,,,,,,,,,,,
,,,,,,60fca0fc5d7a65f146a1c6c6,2024-05-13_11h51.13.688,group3.1-3.2-social-tom,2023.2.2,Win32,18.4501845,65c5074098b851296ff0b7ed,664236dbde8edc31668a6a5d,,,,,,,,,,,,,,,,,,,,,,,,,,,,,631.4333,1,audio/Narrative8Situation5.wav,633.4885,,633.4885,641.8504,"[[99.8,884],[98.2,951],[97,1016],[94,1080],[91,1143],[87.8,1207],[87.5,1271],[82.1,1334],[76.3,1395],[75.4,1459]]",1,0,641.8505,645.9496,100,3.7541,"[{""rating"":86.45833333333333,""responseTime"":1.5339999999999918},{""rating"":100,""responseTime"":3.7540999999641826}]",space,3.4702,,645.9496,Partially,50,645.9506,,,[],,,,0,14,14,14,1,audio/Narrative8Situation5.wav,audio/Narrative7Situation5.wav,audio/Narrative6Situation5.wav,audio/Narrative5Situation5.wav,2,5,2,5,,,,,,,,,,,,,,,,,,,,,,,,,,,,,,,,,,,,,
,,,,,,60fca0fc5d7a65f146a1c6c6,2024-05-13_11h51.13.688,group3.1-3.2-social-tom,2023.2.2,Win32,18.4501845,65c5074098b851296ff0b7ed,664236dbde8edc31668a6a5d,,,,,,,,,,,,,,,,,,,,,,,,,,,,,645.9507,1,audio/Narrative8Situation6.wav,647.9992,,647.9992,654.5952,"[[999,0],[999,73],[999,134],[999,197],[999,258],[999,321],[999,384],[999,446],[999,517],[999,582],[999,644],[999,708],[34.8,783],[39,846],[47.6,911],[50,974],[50,1036],[49.9,1098],[49.9,1162],[50.4,1225]]",1,0,654.5952,659.1899,49.6875,4.113,"[{""rating"":49.6875,""responseTime"":4.112999999999943}]",space,3.886,,659.1899,Partially,50,659.191,,,[],,,,0,15,15,15,1,audio/Narrative8Situation6.wav,audio/Narrative7Situation6.wav,audio/Narrative6Situation6.wav,audio/Narrative5Situation6.wav,2,3,2,3,,,,,,,,,,,,,,,,,,,,,,,,,,,,,,,,,,,,,
,,,,,,60fca0fc5d7a65f146a1c6c6,2024-05-13_11h51.13.688,group3.1-3.2-social-tom,2023.2.2,Win32,18.4501845,65c5074098b851296ff0b7ed,664236dbde8edc31668a6a5d,,,,,,,,,,,,,,,,,,,,,,,,,,,,,659.1911,1,audio/Narrative8Situation7.wav,662.215,,662.215,674.4451,"[[999,0],[999,63],[999,127],[999,200],[999,264],[999,325],[999,387],[999,459],[999,523],[999,583],[999,647],[999,710],[999,773],[999,837],[999,899],[999,961],[999,1023],[999,1084],[999,1145],[999,1207],[999,1270],[999,1331],[999,1393],[999,1453],[999,1516],[999,1579],[999,1642],[999,1705],[999,1768],[999,1830],[999,1893],[999,1959],[999,2022],[999,2086],[999,2157],[999,2220],[999,2283],[999,2347],[999,2419],[999,2484],[999,2548],[999,2610],[999,2671],[999,2734],[999,2799],[999,2861],[999,2923],[999,2987],[999,3052],[999,3115],[999,3179],[999,3246],[999,3309],[999,3380],[999,3449],[999,3521],[999,3583],[999,3648],[999,3710],[999,3773],[999,3840],[999,3912],[999,3975],[999,4044],[999,4106],[999,4168],[999,4242],[999,4310],[999,4378],[999,4447],[999,4526],[999,4604],[999,4675],[999,4741],[999,4802],[999,4864],[999,4923],[999,4987],[999,5051],[999,5113],[999,5174],[999,5235],[999,5306],[999,5368],[999,5432],[999,5499],[999,5563],[999,5626],[999,5691],[999,5753],[999,5818],[999,5879],[999,5940],[999,6002],[999,6063],[999,6124],[999,6185],[999,6247],[999,6310],[999,6371],[999,6432],[999,6506],[999,6568],[999,6630],[999,6695],[999,6756],[999,6820],[999,6881],[999,6945],[999,7019],[999,7095],[999,7168],[999,7230],[999,7297],[999,7362],[999,7423],[999,7487],[999,7550],[999,7614],[999,7677],[999,7738],[999,7801],[999,7865],[999,7930],[999,7992],[999,8057],[999,8122],[999,8186],[999,8250],[999,8317],[999,8383],[999,8445],[999,8511],[999,8577],[999,8654],[999,8719],[999,8783],[999,8848],[999,8913],[999,8975],[999,9037],[999,9097],[999,9159],[999,9222],[999,9284],[999,9346],[999,9407],[999,9473],[999,9542],[999,9601],[999,9665],[999,9730],[999,9791],[999,9853],[999,9920],[999,9983],[999,10046],[999,10110],[999,10171],[999,10234],[999,10295],[999,10359],[999,10421],[999,10483],[999,10544],[999,10606],[999,10668],[999,10733],[999,10800],[999,10865],[999,10929],[999,10992],[999,11056],[999,11120],[999,11181],[999,11250],[999,11317],[999,11382],[999,11444],[999,11506],[999,11573],[999,11635],[67.1,11700],[47.4,11960],[47.4,12023],[47.4,12087],[47.9,12155],[49.5,12230]]",1,0,674.4452,678.9027,49.375,3.9039,"[{""rating"":49.375,""responseTime"":3.9038999999761472}]",space,3.7776,,678.9028,Not at all,0,678.9044,,,[],,,,0,16,16,16,1,audio/Narrative8Situation7.wav,audio/Narrative7Situation7.wav,audio/Narrative6Situation7.wav,audio/Narrative5Situation7.wav,3,5,5,4,,,,,,,,,,,,,,,,,,,,,,,,,,,,,,,,,,,,,
,,,,,,60fca0fc5d7a65f146a1c6c6,2024-05-13_11h51.13.688,group3.1-3.2-social-tom,2023.2.2,Win32,18.4501845,65c5074098b851296ff0b7ed,664236dbde8edc31668a6a5d,,,,,,,,,,,,,,,,,,,,,,,,,,,,,678.9045,1,audio/Narrative8Situation8.wav,681.9486,,681.9487,694.9233,"[[999,0],[999,63],[999,127],[999,188],[999,252],[999,314],[999,379],[999,442],[999,504],[999,568],[999,629],[999,691],[999,753],[999,815],[999,878],[999,938],[999,1001],[999,1065],[999,1128],[999,1203],[999,1273],[999,1337],[999,1405],[999,1481],[999,1545],[999,1609],[999,1673],[999,1751],[999,1815],[999,1882],[999,1947],[999,2011],[999,2074],[999,2140],[999,2202],[999,2269],[999,2335],[999,2399],[999,2460],[999,2522],[999,2588],[999,2663],[999,2733],[999,2809],[999,2887],[999,2953],[999,3027],[999,3095],[999,3162],[999,3228],[999,3307],[999,3373],[999,3436],[999,3515],[999,3577],[999,3639],[999,3701],[999,3768],[999,3828],[999,3889],[999,3959],[999,4025],[999,4087],[999,4167],[999,4237],[999,4307],[999,4384],[999,4456],[999,4529],[999,4604],[999,4666],[999,4730],[999,4797],[999,4858],[999,4920],[999,4984],[999,5045],[999,5108],[999,5169],[999,5245],[999,5316],[999,5392],[999,5464],[999,5529],[999,5591],[999,5654],[999,5723],[999,5789],[999,5851],[999,5915],[999,5975],[999,6039],[999,6101],[999,6165],[999,6233],[999,6294],[999,6360],[999,6422],[999,6485],[999,6546],[999,6608],[999,6677],[999,6742],[999,6804],[999,6865],[999,6926],[999,6987],[999,7050],[999,7120],[999,7184],[999,7244],[999,7306],[999,7369],[999,7430],[999,7491],[999,7555],[999,7618],[999,7682],[999,7750],[999,7813],[999,7880],[999,7943],[999,8005],[999,8071],[999,8142],[999,8204],[999,8268],[999,8335],[999,8400],[999,8464],[999,8528],[999,8590],[999,8667],[999,8730],[999,8797],[999,8858],[999,8921],[999,8987],[999,9057],[999,9119],[999,9181],[999,9245],[999,9308],[999,9369],[999,9430],[999,9491],[999,9556],[999,9621],[999,9682],[999,9744],[999,9815],[999,9879],[999,9940],[999,10003],[999,10067],[999,10129],[999,10192],[999,10266],[999,10330],[999,10393],[999,10459],[999,10519],[999,10581],[999,10644],[999,10707],[999,10775],[999,10837],[999,10902],[999,10962],[999,11024],[999,11084],[999,11147],[999,11211],[999,11272],[999,11334],[999,11399],[999,11462],[999,11532],[999,11593],[999,11667],[999,11730],[999,11792],[999,11855],[999,11916],[999,11980],[999,12044],[999,12109],[999,12172],[999,12240],[999,12306],[999,12377],[999,12438],[999,12507],[999,12570],[999,12635],[999,12697],[999,12759],[999,12826],[999,12911],[999,12974]]",1,0,694.9233,708.4713,57.1875,12.3923,"[{""rating"":57.1875,""responseTime"":12.392300000011915}]",space,12.8569,0.0002,708.4714,Definitely yes,100,715.5816,99.89583333,6.084,"[{""rating"":99.89583333333334,""responseTime"":6.083999999999946}]",space,6.4639,,0,17,17,17,1,audio/Narrative8Situation8.wav,audio/Narrative7Situation8.wav,audio/Narrative6Situation8.wav,audio/Narrative5Situation8.wav,3,2,5,3,,,,,,,,,,,,,,,,,,,,,,,,,,,,,,,,,,,,,
,,,,,,60fca0fc5d7a65f146a1c6c6,2024-05-13_11h51.13.688,group3.1-3.2-social-tom,2023.2.2,Win32,18.4501845,65c5074098b851296ff0b7ed,664236dbde8edc31668a6a5d,,,,,,,,,,,,,,,,,,,,,,,,,,,,,715.5819,1,audio/Narrative8Situation9.wav,718.6285,,718.6285,730.0469,"[[999,4],[999,72],[999,134],[999,197],[999,259],[999,322],[999,385],[999,454],[999,518],[999,580],[999,643],[999,708],[999,778],[999,847],[999,912],[999,977],[999,1053],[999,1119],[999,1185],[999,1256],[999,1322],[999,1387],[999,1450],[999,1512],[999,1575],[999,1637],[999,1699],[999,1762],[999,1823],[999,1894],[999,1957],[999,2022],[999,2092],[999,2162],[999,2224],[999,2290],[999,2352],[999,2424],[999,2497],[999,2557],[999,2621],[999,2682],[999,2743],[999,2812],[999,2886],[999,2958],[999,3031],[999,3094],[999,3156],[999,3219],[999,3279],[999,3344],[999,3412],[999,3476],[999,3542],[999,3607],[999,3672],[999,3743],[999,3821],[999,3894],[999,3966],[999,4032],[999,4095],[999,4167],[999,4228],[999,4294],[999,4355],[999,4416],[999,4478],[999,4540],[999,4605],[999,4667],[999,4731],[999,4796],[999,4860],[999,4923],[999,4986],[999,5048],[999,5110],[999,5170],[999,5231],[999,5293],[999,5354],[999,5417],[999,5479],[999,5542],[999,5608],[999,5682],[999,5763],[999,5828],[999,5891],[999,5955],[999,6019],[999,6087],[999,6149],[999,6217],[999,6278],[999,6342],[999,6405],[999,6468],[999,6543],[999,6604],[999,6664],[999,6730],[999,6793],[999,6857],[999,6921],[999,6980],[999,7045],[999,7108],[999,7170],[999,7243],[999,7318],[999,7382],[999,7444],[999,7507],[999,7568],[999,7644],[999,7706],[999,7768],[999,7832],[999,7902],[999,7973],[999,8042],[999,8109],[999,8170],[999,8232],[999,8294],[999,8363],[999,8431],[999,8496],[999,8566],[999,8632],[999,8698],[999,8761],[999,8827],[999,8890],[999,8956],[999,9019],[999,9084],[999,9149],[999,9213],[999,9274],[999,9335],[999,9397],[999,9458],[999,9519],[999,9581],[999,9651],[999,9713],[999,9777],[999,9842],[999,9915],[999,9980],[999,10043],[999,10117],[999,10180],[999,10245],[999,10307],[999,10372],[999,10437],[999,10513],[999,10576],[999,10637],[999,10700],[999,10762],[999,10827],[999,10890],[999,10955],[999,11024],[999,11085],[999,11152],[999,11217],[999,11289],[999,11354],[999,11418]]",1,0,730.047,737.8658,51.14583333,7.5463,"[{""rating"":37.5,""responseTime"":5.13410000002375},{""rating"":36.041666666666664,""responseTime"":5.550999999999931},{""rating"":36.354166666666664,""responseTime"":5.687600000023849},{""rating"":51.145833333333336,""responseTime"":7.546300000011911}]",space,7.135,,737.8659,Definitely yes,100,737.8669,,,[],,,,0,18,18,18,1,audio/Narrative8Situation9.wav,audio/Narrative7Situation9.wav,audio/Narrative6Situation9.wav,audio/Narrative5Situation9.wav,3,2,4,3,,,,,,,,,,,,,,,,,,,,,,,,,,,,,,,,,,,,,
,,,,,,60fca0fc5d7a65f146a1c6c6,2024-05-13_11h51.13.688,group3.1-3.2-social-tom,2023.2.2,Win32,18.4501845,65c5074098b851296ff0b7ed,664236dbde8edc31668a6a5d,,,,,,,,,,,,,,,,,,,,,,,,,,,743.2051,745.7822,745.7887,2,audio/Narrative13Situation2.wav,745.7888,,745.7888,775.6984,"[[999,0],[999,70],[999,135],[999,198],[999,262],[999,325],[999,389],[999,454],[999,522],[999,596],[999,659],[999,720],[999,784],[999,846],[999,916],[999,993],[999,1058],[999,1121],[999,1185],[999,1248],[999,1312],[999,1376],[999,1439],[999,1502],[999,1565],[999,1629],[999,1695],[999,1758],[999,1821],[999,1882],[999,1947],[999,2010],[999,2070],[999,2137],[999,2210],[999,2276],[999,2338],[999,2401],[999,2462],[999,2525],[999,2587],[999,2651],[999,2712],[999,2774],[999,2841],[999,2904],[999,2968],[999,3030],[999,3094],[999,3158],[999,3231],[999,3298],[999,3364],[999,3433],[999,3492],[999,3565],[999,3627],[999,3702],[999,3762],[999,3824],[999,3888],[999,3950],[999,4010],[999,4073],[999,4138],[999,4199],[999,4259],[999,4319],[999,4384],[999,4447],[999,4509],[999,4577],[999,4639],[999,4701],[999,4764],[999,4833],[999,4899],[999,4967],[999,5034],[999,5110],[999,5175],[999,5244],[999,5306],[999,5371],[999,5440],[999,5503],[999,5565],[999,5627],[999,5690],[999,5753],[999,5818],[999,5888],[999,5963],[999,6031],[999,6095],[999,6158],[999,6230],[999,6300],[999,6372],[999,6445],[999,6512],[999,6576],[999,6645],[999,6710],[999,6778],[999,6844],[999,6918],[999,6985],[999,7060],[999,7129],[999,7196],[999,7262],[999,7325],[999,7388],[999,7451],[999,7512],[999,7574],[999,7636],[999,7699],[999,7773],[999,7837],[999,7908],[999,7971],[999,8031],[999,8091],[999,8153],[999,8216],[999,8289],[999,8350],[999,8409],[999,8470],[999,8537],[999,8597],[999,8659],[999,8737],[999,8799],[999,8861],[999,8924],[999,8989],[999,9050],[999,9112],[999,9174],[999,9234],[999,9296],[999,9356],[999,9417],[999,9481],[999,9544],[999,9605],[999,9666],[999,9729],[999,9793],[999,9855],[999,9918],[999,9980],[999,10042],[999,10107],[999,10176],[999,10240],[999,10299],[999,10371],[999,10434],[999,10495],[999,10557],[999,10621],[999,10683],[999,10754],[999,10814],[999,10876],[999,10947],[999,11014],[999,11077],[999,11139],[999,11201],[999,11264],[999,11327],[999,11395],[999,11455],[999,11520],[999,11582],[999,11644],[999,11718],[999,11781],[999,11847],[999,11913],[999,11985],[999,12047],[999,12109],[999,12172],[999,12233],[999,12294],[999,12360],[999,12422],[999,12485],[999,12550],[999,12613],[999,12676],[999,12739],[999,12801],[999,12865],[999,12928],[999,12992],[999,13055],[999,13117],[999,13180],[999,13245],[999,13315],[96.1,13378],[96.3,13451],[96.9,13516],[97.1,13579],[97.1,13640],[97.1,13702],[97.1,13764],[97.1,13824],[100,13891]]",1,0,775.6985,775.7042,,,[],,,,775.7042,Partially,50,775.7054,,,[],,,,0,0,0,0,1,audio/Narrative13Situation2.wav,audio/Narrative13Situation2.wav,audio/Narrative13Situation2.wav,audio/Narrative13Situation2.wav,2,2,2,2,,,737.8673,743.2006,space,4.746,,,,,,,,,,,,,,,,,,,,,,,,,,,,,,,
,,,,,,60fca0fc5d7a65f146a1c6c6,2024-05-13_11h51.13.688,group3.1-3.2-social-tom,2023.2.2,Win32,18.4501845,65c5074098b851296ff0b7ed,664236dbde8edc31668a6a5d,,,,,,,,,,,,,,,,,,,,,,,,,,,,,775.7055,2,audio/Narrative5Situation1.wav,780.757,,780.757,794.1392,"[[999,4],[999,67],[999,131],[999,194],[999,256],[999,318],[999,381],[999,445],[999,508],[999,570],[999,644],[999,721],[999,787],[999,849],[999,913],[999,978],[999,1043],[999,1107],[999,1172],[999,1233],[999,1298],[999,1364],[999,1432],[999,1495],[999,1566],[999,1630],[999,1698],[999,1760],[999,1821],[999,1895],[999,1962],[999,2026],[999,2096],[999,2163],[999,2227],[999,2298],[65.9,2361],[64.4,2424],[63.8,2489],[62.7,2554],[61.5,2615],[61.5,2681],[61.5,2744],[61.4,2806],[60.6,2869],[58.2,2933],[56,3007],[55,3069],[54.6,3132],[53.1,3194],[51.3,3261],[50.9,3324],[50.6,3386],[50,3450],[49,3513],[48.5,3573],[48.2,3632],[47.3,3695],[46.3,3759],[46,3824],[46,3886],[46.3,3949],[47.5,4011],[48.9,4075],[49.5,4138],[49.9,4201],[50.1,4265],[50.1,4328],[50.1,4391],[50.1,4454],[50.1,4520],[50.1,4584],[50.1,4646],[50.1,4707],[50.1,4768],[50.1,4830],[50.1,4903],[50.1,4965],[50.1,5028],[50.1,5088],[50.1,5149],[50.1,5213],[50.1,5284],[50.1,5344],[50.1,5405],[50.1,5468],[50.1,5530],[50,5591],[47.4,5654],[46.5,5717],[46.5,5776],[46.5,5839],[46.5,5903],[46.5,5968],[46.5,6046],[46.5,6110],[46.4,6182],[45,6254],[42.8,6315],[40.6,6390],[37,6455],[34.2,6517],[32.3,6578],[32.2,6645],[31.5,6720],[31.3,6782],[31.3,6845],[31.3,6914],[31.3,6976],[31.3,7038],[31.3,7100],[31.1,7163],[30.3,7225],[28.6,7303],[27.7,7378],[26.5,7443],[26.3,7516],[26.3,7583],[25.3,7645],[24,7708],[23.9,7772],[23.9,7833],[23.9,7895],[23.9,7958],[23.9,8019],[23.9,8081],[23.9,8144],[23.9,8208],[23.9,8270],[23.9,8332],[23.9,8393],[23.9,8456],[23.9,8519],[23.9,8581],[23.9,8642],[23.9,8707],[23.9,8773],[23.9,8837],[23.9,8906],[23.9,8969],[23.9,9033],[23.9,9097],[23.9,9161],[23.9,9222],[23.9,9286],[23.9,9350],[24,9413],[24,9474],[24,9536],[24.2,9598],[24.3,9659],[24.4,9719],[24.5,9780],[24.5,9842],[24.5,9905],[24.5,9971],[24.5,10039],[24.5,10100],[24.5,10165],[24.5,10227],[24.5,10291],[24.5,10357],[24.5,10420],[24.5,10484],[24.5,10547],[24.5,10609],[24.5,10671],[24.5,10733],[24.5,10803],[24.5,10871],[24.5,10946],[24.5,11010],[24.5,11073],[24.6,11136],[24.6,11199],[24.6,11260],[24.7,11321],[24.8,11385],[24.9,11447],[25.2,11510],[25.6,11574],[26.6,11636],[28.6,11700],[31.3,11768],[33.4,11842],[35.3,11910],[37.2,11973],[39.1,12037],[40.6,12101],[42.6,12164],[44.9,12240],[46.7,12304],[48,12368],[48.4,12432],[48.8,12493],[49,12552],[49.4,12615],[49.4,12677],[49.8,12746],[50.2,12810],[50.2,12877],[50.2,12941],[50.3,13005],[50.5,13067],[51.8,13129],[54.4,13191],[58.1,13255],[61.9,13318],[64.8,13382]]",1,0,794.1394,800.703,76.875,6.3509,"[{""rating"":76.875,""responseTime"":6.35089999997615}]",space,5.8879,,800.703,Partially,50,800.704,,,[],,,,0,1,1,1,1,audio/Narrative7Situation1.wav,audio/Narrative8Situation1.wav,audio/Narrative5Situation1.wav,audio/Narrative6Situation1.wav,2,5,5,2,,,,,,,,,,,,,,,,,,,,,,,,,,,,,,,,,,,,,
,,,,,,60fca0fc5d7a65f146a1c6c6,2024-05-13_11h51.13.688,group3.1-3.2-social-tom,2023.2.2,Win32,18.4501845,65c5074098b851296ff0b7ed,664236dbde8edc31668a6a5d,,,,,,,,,,,,,,,,,,,,,,,,,,,,,800.7041,2,audio/Narrative5Situation2.wav,803.7069,,803.7069,833.2701,"[[999,4],[999,67],[999,132],[999,196],[999,259],[999,321],[999,389],[999,456],[999,524],[999,588],[999,654],[999,717],[999,777],[999,842],[999,905],[999,973],[999,1037],[999,1101],[999,1165],[999,1230],[999,1291],[999,1356],[999,1419],[999,1482],[999,1556],[999,1620],[999,1682],[999,1743],[999,1805],[999,1869],[999,1931],[999,1994],[999,2058],[999,2120],[999,2183],[999,2246],[999,2311],[999,2373],[999,2434],[999,2498],[999,2564],[999,2633],[999,2711],[999,2778],[999,2855],[999,2921],[999,2986],[999,3047],[999,3123],[999,3186],[999,3247],[999,3312],[999,3383],[999,3444],[999,3505],[999,3568],[999,3641],[999,3704],[999,3767],[999,3833],[999,3905],[999,3977],[999,4046],[999,4115],[999,4187],[999,4256],[999,4321],[999,4387],[999,4450],[999,4520],[999,4589],[999,4661],[999,4740],[999,4805],[999,4871],[999,4934],[999,4999],[999,5070],[999,5141],[999,5204],[999,5278],[999,5349],[999,5419],[999,5498],[999,5569],[999,5636],[999,5709],[999,5774],[999,5835],[999,5899],[999,5963],[999,6025],[999,6090],[999,6151],[999,6218],[999,6284],[999,6347],[999,6409],[999,6473],[999,6535],[999,6601],[999,6667],[999,6729],[999,6793],[999,6856],[999,6918],[999,6980],[999,7041],[999,7102],[999,7163],[999,7225],[999,7289],[999,7351],[999,7413],[999,7477],[999,7539],[999,7610],[999,7673],[999,7735],[999,7797],[999,7859],[999,7922],[999,7987],[999,8050],[999,8112],[999,8177],[999,8238],[999,8298],[999,8359],[999,8422],[999,8483],[999,8546],[999,8608],[999,8670],[999,8739],[999,8804],[999,8868],[999,8929],[999,8994],[999,9058],[999,9118],[999,9180],[999,9244],[999,9307],[999,9370],[999,9433],[999,9497],[999,9562],[999,9624],[999,9687],[999,9750],[999,9812],[999,9876],[999,9937],[999,10000],[999,10062],[999,10124],[999,10188],[999,10253],[999,10327],[999,10389],[999,10450],[999,10514],[999,10578],[999,10642],[999,10705],[999,10768],[999,10831],[999,10904],[999,10968],[999,11032],[999,11104],[999,11166],[999,11230],[999,11292],[999,11355],[999,11417],[999,11481],[999,11544],[999,11615],[999,11674],[999,11736],[999,11811],[999,11873],[999,11942],[999,12006],[999,12070],[999,12134],[999,12200],[999,12264],[999,12324],[999,12387],[999,12451],[999,12513],[999,12577],[999,12639],[999,12702],[999,12763],[999,12826],[999,12888],[999,12952],[999,13021],[999,13086],[999,13149],[999,13212],[999,13280],[999,13343],[999,13407],[999,13475],[999,13538],[999,13604],[999,13668],[999,13732],[999,13813],[999,13877],[999,13940],[999,14013],[999,14076],[999,14140],[999,14218],[999,14287],[999,14350],[999,14434],[999,14510],[999,14576],[999,14639],[999,14703],[999,14766],[999,14829],[999,14888],[999,14951],[999,15013],[999,15074],[999,15136],[999,15197],[999,15262],[999,15323],[999,15384],[999,15446],[999,15513],[999,15575],[999,15637],[999,15699],[999,15763],[999,15826],[999,15886],[999,15948],[999,16012],[999,16073],[999,16136],[999,16199],[999,16260],[999,16324],[999,16406],[999,16471],[999,16533],[999,16596],[999,16671],[999,16735],[999,16801],[999,16865],[999,16927],[999,16990],[999,17053],[999,17116],[999,17177],[999,17239],[999,17307],[999,17372],[999,17436],[999,17502],[999,17569],[999,17636],[999,17701],[999,17767],[999,17830],[999,17894],[999,17958],[999,18024],[999,18088],[999,18150],[999,18212],[999,18274],[999,18336],[999,18413],[999,18475],[999,18536],[999,18597],[999,18667],[999,18736],[999,18793],[999,18854],[999,18916],[999,18980],[999,19043],[999,19117],[999,19193],[999,19255],[999,19321],[999,19385],[999,19450],[999,19513],[999,19577],[999,19639],[999,19710],[999,19773],[999,19838],[999,19905],[999,19968],[999,20039],[999,20106],[999,20180],[999,20255],[999,20325],[999,20406],[999,20469],[999,20531],[999,20593],[999,20655],[999,20715],[999,20788],[999,20850],[999,20912],[999,20974],[999,21040],[999,21102],[999,21167],[999,21228],[999,21288],[999,21351],[999,21414],[999,21488],[999,21549],[999,21610],[999,21676],[999,21739],[999,21800],[999,21874],[999,21938],[999,22003],[999,22072],[999,22135],[999,22205],[999,22274],[999,22338],[999,22402],[999,22467],[999,22531],[999,22596],[999,22659],[999,22722],[999,22784],[999,22848],[999,22913],[999,22979],[999,23042],[999,23105],[999,23170],[999,23232],[999,23294],[999,23355],[999,23418],[999,23489],[999,23553],[999,23615],[999,23677],[999,23741],[999,23803],[999,23867],[999,23930],[999,23993],[999,24056],[999,24117],[999,24179],[999,24241],[999,24303],[999,24365],[999,24428],[999,24491],[999,24552],[999,24614],[999,24683],[999,24747],[999,24810],[999,24871],[999,24936],[999,25008],[999,25070],[999,25132],[999,25194],[999,25256],[999,25319],[999,25383],[999,25452],[999,25516],[999,25578],[999,25641],[999,25706],[999,25767],[999,25830],[999,25893],[999,25955],[999,26017],[999,26080],[999,26142],[999,26207],[999,26270],[999,26331],[999,26398],[999,26459],[999,26526],[999,26591],[999,26654],[999,26717],[999,26779],[999,26845],[999,26907],[999,26978],[999,27042],[999,27105],[999,27182],[999,27244],[999,27307],[999,27370],[999,27431],[999,27493],[999,27553],[999,27616],[999,27687],[999,27757],[999,27820],[999,27883],[999,27944],[999,28012],[999,28076],[999,28140],[999,28202],[999,28264],[999,28335],[999,28397],[999,28458],[999,28532],[999,28593],[999,28656],[999,28718],[999,28780],[999,28841],[999,28901],[999,28961],[999,29041],[999,29116],[999,29179],[999,29243],[999,29305],[999,29374],[999,29437],[999,29500],[999,29563]]",1,0,833.2703,839.1724,39.58333333,5.2142,"[{""rating"":39.58333333333333,""responseTime"":5.214199999988182}]",space,5.1996,,839.1725,Definitely yes,100,839.1741,,,[],,,,0,2,2,2,1,audio/Narrative7Situation2.wav,audio/Narrative8Situation2.wav,audio/Narrative5Situation2.wav,audio/Narrative6Situation2.wav,3,3,3,3,,,,,,,,,,,,,,,,,,,,,,,,,,,,,,,,,,,,,
,,,,,,60fca0fc5d7a65f146a1c6c6,2024-05-13_11h51.13.688,group3.1-3.2-social-tom,2023.2.2,Win32,18.4501845,65c5074098b851296ff0b7ed,664236dbde8edc31668a6a5d,,,,,,,,,,,,,,,,,,,,,,,,,,,,,839.1741,2,audio/Narrative5Situation3.wav,842.2073,,842.2073,856.2173,"[[38.8,1618]]",1,0,856.2173,858.6135,100,2.1136,"[{""rating"":90.72916666666666,""responseTime"":0.7798999999761236},{""rating"":100,""responseTime"":2.11360000002378}]",space,1.6945,,858.6136,Definitely yes,100,858.6146,,,[],,,,0,3,3,3,1,audio/Narrative7Situation3.wav,audio/Narrative8Situation3.wav,audio/Narrative5Situation3.wav,audio/Narrative6Situation3.wav,8,4,3,5,,,,,,,,,,,,,,,,,,,,,,,,,,,,,,,,,,,,,
,,,,,,60fca0fc5d7a65f146a1c6c6,2024-05-13_11h51.13.688,group3.1-3.2-social-tom,2023.2.2,Win32,18.4501845,65c5074098b851296ff0b7ed,664236dbde8edc31668a6a5d,,,,,,,,,,,,,,,,,,,,,,,,,,,,,858.6147,2,audio/Narrative5Situation4.wav,859.6261,,859.6262,880.1192,"[[100,317],[100,380],[100,443],[100,505],[100,567],[100,630],[100,692],[100,755],[100,816],[99.9,879],[99.9,943],[99.9,1007],[99.9,1070],[99.9,1143],[99.9,1205],[99.5,1275],[99.4,1339],[99.2,1404],[99,1467],[99,1531],[98.8,1594],[98.5,1655],[98.4,1719],[98.4,1780],[98.4,1843],[98.4,1904],[98.1,1969],[100,20300],[95.2,20367],[89.1,20429],[86.6,20492]]",1,0,880.1193,883.0346,87.60416667,2.3006,"[{""rating"":87.60416666666666,""responseTime"":2.3006000000239055}]",space,2.2856,,883.0347,Definitely yes,100,883.0356,,,[],,,,0,4,4,4,1,audio/Narrative7Situation4.wav,audio/Narrative8Situation4.wav,audio/Narrative5Situation4.wav,audio/Narrative6Situation4.wav,3,3,1,2,,,,,,,,,,,,,,,,,,,,,,,,,,,,,,,,,,,,,
,,,,,,60fca0fc5d7a65f146a1c6c6,2024-05-13_11h51.13.688,group3.1-3.2-social-tom,2023.2.2,Win32,18.4501845,65c5074098b851296ff0b7ed,664236dbde8edc31668a6a5d,,,,,,,,,,,,,,,,,,,,,,,,,,,,,883.0357,2,audio/Narrative5Situation5.wav,888.0902,,888.0903,903.6085,"[[999,4],[999,65],[999,127],[999,199],[999,260],[999,323],[999,386],[999,451],[999,520],[999,594],[999,664],[999,728],[999,788],[999,852],[999,913],[999,981],[999,1045],[999,1107],[999,1172],[999,1234],[999,1296],[999,1358],[999,1420],[999,1485],[999,1548],[999,1613],[999,1677],[999,1741],[999,1804],[999,1871],[999,1937],[999,1997],[999,2059],[999,2124],[999,2193],[999,2257],[999,2319],[999,2383],[999,2449],[999,2524],[999,2588],[999,2660],[999,2727],[999,2802],[999,2865],[999,2930],[999,2994],[999,3056],[999,3120],[999,3182],[999,3243],[999,3309],[999,3386],[999,3448],[999,3513],[999,3576],[999,3643],[999,3708],[999,3771],[999,3832],[999,3893],[999,3959],[999,4022],[999,4089],[999,4155],[999,4216],[999,4278],[999,4339],[999,4401],[999,4463],[999,4526],[999,4591],[999,4657],[999,4725],[999,4800],[999,4880],[999,4947],[999,5012],[999,5073],[999,5139],[999,5203],[999,5267],[999,5329],[999,5392],[999,5454],[999,5517],[999,5579],[999,5644],[999,5706],[999,5767],[999,5838],[999,5901],[999,5962],[999,6023],[999,6083],[999,6146],[999,6210],[999,6275],[999,6339],[999,6401],[999,6464],[999,6528],[999,6590],[999,6656],[999,6717],[999,6779],[999,6851],[999,6913],[999,6984],[999,7046],[999,7110],[999,7173],[999,7237],[999,7301],[999,7364],[999,7425],[999,7487],[999,7554],[999,7619],[999,7683],[999,7757],[999,7819],[999,7883],[999,7947],[999,8025],[999,8087],[999,8149],[999,8215],[999,8293],[999,8367],[999,8436],[999,8499],[999,8574],[999,8638],[999,8701],[999,8773],[999,8837],[999,8901],[999,8966],[999,9030],[999,9099],[999,9161],[999,9224],[999,9287],[999,9350],[999,9411],[999,9474],[999,9546],[999,9617],[999,9680],[999,9744],[999,9807],[999,9881],[999,9944],[999,10013],[999,10073],[999,10137],[999,10210],[999,10272],[999,10335],[999,10397],[999,10460],[999,10521],[999,10595],[999,10667],[999,10729],[999,10791],[999,10855],[999,10918],[999,10980],[999,11043],[999,11107],[999,11170],[999,11243],[999,11307],[999,11367],[999,11430],[999,11498],[999,11560],[999,11625],[999,11687],[999,11750],[999,11811],[999,11873],[999,11934],[999,12009],[999,12074],[999,12143],[999,12207],[999,12269],[999,12333],[999,12395],[999,12462],[999,12524],[999,12587],[999,12653],[999,12716],[999,12780],[999,12842],[999,12906],[999,12973],[999,13039],[999,13103],[999,13166],[999,13238],[999,13300],[999,13362],[999,13424],[999,13485],[999,13547],[999,13617],[999,13681],[999,13743],[999,13805],[999,13868],[999,13931],[999,13998],[999,14067],[999,14128],[999,14190],[999,14254],[999,14317],[999,14378],[999,14440],[999,14502],[999,14562],[999,14626],[999,14688],[999,14750],[999,14812],[999,14893],[999,14965],[999,15043],[999,15111],[999,15179],[999,15248],[100,15322],[94.7,15391],[86.1,15455],[85.3,15517]]",1,0,903.6085,906.3556,77.39583333,2.322,"[{""rating"":77.39583333333333,""responseTime"":2.3220000000000027}]",space,2.0688,,906.3556,Definitely yes,100,906.3566,,,[],,,,0,5,5,5,1,audio/Narrative7Situation5.wav,audio/Narrative8Situation5.wav,audio/Narrative5Situation5.wav,audio/Narrative6Situation5.wav,5,2,5,2,,,,,,,,,,,,,,,,,,,,,,,,,,,,,,,,,,,,,
,,,,,,60fca0fc5d7a65f146a1c6c6,2024-05-13_11h51.13.688,group3.1-3.2-social-tom,2023.2.2,Win32,18.4501845,65c5074098b851296ff0b7ed,664236dbde8edc31668a6a5d,,,,,,,,,,,,,,,,,,,,,,,,,,,,,906.3568,2,audio/Narrative5Situation6.wav,909.3639,,909.3639,915.1349,"[[999,0],[999,64],[999,127],[999,189],[999,252],[999,319],[999,389],[999,452],[999,516],[999,578],[999,642],[999,705],[999,766],[999,828],[999,889],[999,954],[999,1017],[999,1080],[999,1142],[999,1206],[999,1273],[999,1337],[999,1400],[999,1463],[999,1536],[999,1597],[999,1661],[999,1722],[999,1787],[999,1850],[999,1916],[999,1980],[999,2043],[999,2108],[999,2169],[999,2234],[999,2302],[999,2364],[999,2429],[999,2492],[999,2558],[999,2620],[999,2683],[999,2747],[999,2810],[999,2876],[999,2938],[999,3001],[999,3062],[999,3126],[999,3197],[999,3260],[999,3322],[999,3386],[999,3451],[999,3526],[999,3588],[999,3651],[999,3713],[999,3783],[999,3846],[999,3908],[999,3971],[999,4030],[999,4092],[999,4156],[999,4217],[999,4282],[999,4351],[999,4419],[999,4484],[999,4546],[999,4607],[999,4670],[999,4735],[999,4800],[999,4878],[999,4941],[999,5015],[999,5077],[999,5141],[999,5205],[999,5267],[999,5329],[999,5394],[999,5456],[999,5518],[999,5578],[999,5640],[999,5705],[999,5770]]",1,0,915.135,918.2851,50.3125,2.6591,"[{""rating"":50.31250000000001,""responseTime"":2.659099999964269}]",space,2.4721,,918.2852,Partially,50,923.4054,49.79166667,3.9743,"[{""rating"":49.791666666666664,""responseTime"":3.9742999999523363}]",space,4.4304,,0,6,6,6,1,audio/Narrative7Situation6.wav,audio/Narrative8Situation6.wav,audio/Narrative5Situation6.wav,audio/Narrative6Situation6.wav,3,2,3,2,,,,,,,,,,,,,,,,,,,,,,,,,,,,,,,,,,,,,
,,,,,,60fca0fc5d7a65f146a1c6c6,2024-05-13_11h51.13.688,group3.1-3.2-social-tom,2023.2.2,Win32,18.4501845,65c5074098b851296ff0b7ed,664236dbde8edc31668a6a5d,,,,,,,,,,,,,,,,,,,,,,,,,,,,,923.4057,2,audio/Narrative5Situation7.wav,927.4144,,927.4144,948.6079,"[[999,4],[999,69],[999,130],[999,199],[999,277],[999,353],[999,416],[999,478],[999,540],[999,604],[999,667],[999,730],[999,798],[999,861],[999,923],[999,985],[999,1046],[999,1109],[999,1171],[999,1230],[999,1294],[999,1353],[999,1418],[999,1483],[999,1552],[999,1615],[999,1679],[999,1743],[999,1810],[999,1872],[999,1947],[999,2010],[999,2087],[999,2152],[999,2217],[999,2283],[999,2349],[999,2417],[999,2482],[999,2547],[999,2610],[999,2674],[999,2736],[999,2799],[999,2863],[999,2927],[999,2991],[999,3062],[999,3133],[999,3209],[999,3282],[999,3361],[999,3424],[999,3487],[999,3552],[999,3615],[999,3677],[999,3742],[999,3813],[999,3876],[999,3942],[999,4005],[999,4065],[999,4126],[999,4190],[999,4252],[999,4317],[999,4380],[999,4457],[999,4528],[999,4596],[999,4677],[999,4752],[999,4817],[999,4893],[999,4958],[999,5024],[999,5090],[999,5156],[999,5223],[999,5291],[999,5367],[999,5437],[999,5500],[999,5563],[999,5626],[999,5689],[999,5751],[999,5815],[999,5877],[999,5939],[999,6002],[999,6068],[999,6131],[999,6193],[999,6258],[999,6323],[999,6387],[999,6449],[999,6511],[999,6575],[999,6638],[999,6700],[999,6765],[999,6827],[999,6887],[999,6950],[999,7013],[999,7074],[999,7136],[999,7199],[999,7261],[999,7330],[999,7397],[999,7459],[999,7520],[999,7589],[999,7651],[999,7722],[999,7784],[999,7846],[999,7908],[999,7968],[999,8037],[999,8099],[999,8158],[999,8222],[999,8287],[999,8350],[999,8414],[999,8478],[999,8543],[999,8606],[999,8669],[999,8731],[999,8794],[999,8858],[999,8920],[999,8983],[999,9047],[999,9107],[999,9168],[999,9229],[999,9297],[999,9360],[999,9426],[999,9490],[999,9551],[999,9613],[999,9681],[999,9744],[999,9808],[999,9880],[999,9944],[999,10005],[999,10067],[999,10129],[999,10191],[999,10256],[999,10318],[999,10380],[999,10442],[999,10507],[999,10583],[999,10646],[999,10707],[999,10770],[999,10835],[999,10898],[999,10959],[999,11021],[999,11083],[999,11144],[999,11214],[999,11277],[999,11339],[999,11401],[999,11462],[999,11525],[999,11589],[999,11651],[999,11722],[999,11785],[999,11847],[999,11908],[999,11969],[999,12030],[999,12090],[999,12152],[999,12215],[999,12277],[999,12338],[999,12398],[999,12468],[999,12529],[999,12591],[999,12651],[999,12715],[999,12775],[999,12837],[999,12900],[999,12961],[999,13022],[999,13082],[999,13144],[999,13209],[999,13276],[999,13339],[999,13409],[999,13473],[999,13535],[999,13598],[999,13669],[999,13729],[999,13790],[999,13850],[999,13910],[999,13974],[999,14036],[999,14104],[999,14175],[999,14251],[999,14321],[999,14384],[999,14448],[999,14510],[999,14579],[999,14646],[999,14713],[999,14786],[999,14851],[999,14924],[999,14996],[999,15061],[999,15124],[999,15188],[999,15259],[999,15322],[999,15387],[55.6,15449],[43.2,15772],[43.5,15833],[43.5,15895],[43.5,15964],[43.5,16026],[43.5,16089],[43.5,16151],[43.5,16213],[43.5,16276],[43.5,16339],[43.5,16401],[43.5,16465],[43.5,16528],[43.5,16590],[43.5,16653],[43.5,16713],[43.5,16776],[43.5,16840],[43.5,16902],[43.5,16964],[43.5,17024],[43.5,17085],[43.5,17146],[45.9,17211],[84.7,17276],[66,21193]]",1,0,948.608,952.2148,50,3.0481,"[{""rating"":50,""responseTime"":3.048100000023851}]",space,2.9306,,952.2149,Partially,50,952.2158,,,[],,,,0,7,7,7,1,audio/Narrative7Situation7.wav,audio/Narrative8Situation7.wav,audio/Narrative5Situation7.wav,audio/Narrative6Situation7.wav,5,3,4,5,,,,,,,,,,,,,,,,,,,,,,,,,,,,,,,,,,,,,
,,,,,,60fca0fc5d7a65f146a1c6c6,2024-05-13_11h51.13.688,group3.1-3.2-social-tom,2023.2.2,Win32,18.4501845,65c5074098b851296ff0b7ed,664236dbde8edc31668a6a5d,,,,,,,,,,,,,,,,,,,,,,,,,,,,,952.2158,2,audio/Narrative5Situation8.wav,955.2635,,955.2636,964.2082,[],1,0,964.2082,969.1625,0.520833333,3.8615,"[{""rating"":0.5208333333333315,""responseTime"":3.861499999999978}]",space,4.2922,,969.1625,Not at all,0,969.1644,,,[],,,,0,8,8,8,1,audio/Narrative7Situation8.wav,audio/Narrative8Situation8.wav,audio/Narrative5Situation8.wav,audio/Narrative6Situation8.wav,2,3,3,5,,,,,,,,,,,,,,,,,,,,,,,,,,,,,,,,,,,,,
,,,,,,60fca0fc5d7a65f146a1c6c6,2024-05-13_11h51.13.688,group3.1-3.2-social-tom,2023.2.2,Win32,18.4501845,65c5074098b851296ff0b7ed,664236dbde8edc31668a6a5d,,,,,,,,,,,,,,,,,,,,,,,,,,,,,969.1645,2,audio/Narrative5Situation9.wav,972.1958,,972.1959,1011.8226,"[[2.8,1249]]",1,0,1011.8226,1018.7675,100,6.6002,"[{""rating"":76.04166666666667,""responseTime"":5.520199999988108},{""rating"":100,""responseTime"":6.600199999988035}]",space,6.2594,,1018.7676,Not at all,0,1018.7686,,,[],,,,0,9,9,9,1,audio/Narrative7Situation9.wav,audio/Narrative8Situation9.wav,audio/Narrative5Situation9.wav,audio/Narrative6Situation9.wav,2,3,3,4,,,,,,,,,,,,,,,,,,,,,,,,,,,,,,,,,,,,,
,,,,,,60fca0fc5d7a65f146a1c6c6,2024-05-13_11h51.13.688,group3.1-3.2-social-tom,2023.2.2,Win32,18.4501845,65c5074098b851296ff0b7ed,664236dbde8edc31668a6a5d,,,,,,,,,,,,,,,,,,,,,,,,,,,,,1018.7687,2,audio/Narrative6Situation1.wav,1020.7848,,1020.7849,1047.4704,"[[999,0],[999,66],[999,130],[999,192],[999,258],[999,320],[999,392],[999,455],[999,521],[999,585],[999,650],[999,711],[999,774],[999,837],[999,902],[999,967],[999,1031],[999,1095],[999,1158],[999,1221],[999,1286],[999,1349],[999,1413],[999,1477],[999,1542],[999,1602],[999,1674],[999,1734],[999,1796],[999,1870],[999,1944],[999,2006],[999,2071],[999,2148],[999,2212],[999,2276],[999,2337],[999,2403],[999,2466],[999,2528],[999,2590],[999,2656],[999,2722],[999,2790],[999,2856],[999,2919],[999,2985],[999,3064],[999,3128],[999,3191],[999,3254],[999,3317],[999,3381],[999,3443],[999,3505],[999,3568],[999,3632],[999,3690],[999,3758],[999,3820],[999,3894],[999,3973],[999,4046],[999,4122],[999,4193],[999,4258],[999,4322],[999,4390],[999,4467],[999,4539],[999,4621],[999,4689],[999,4756],[999,4824],[999,4890],[999,4953],[999,5025],[999,5093],[999,5163],[999,5233],[999,5307],[999,5374],[999,5438],[999,5504],[999,5567],[999,5629],[999,5693],[999,5755],[999,5823],[999,5885],[999,5950],[999,6016],[999,6082],[999,6151],[999,6212],[999,6277],[999,6345],[999,6410],[999,6474],[999,6539],[999,6604],[999,6670],[999,6736],[999,6798],[999,6863],[999,6925],[999,6987],[999,7050],[999,7112],[999,7177],[999,7243],[999,7308],[999,7372],[999,7435],[999,7498],[999,7561],[999,7626],[999,7691],[999,7754],[999,7818],[999,7893],[999,7969],[999,8034],[999,8112],[999,8176],[999,8238],[999,8301],[999,8357],[999,8420],[999,8484],[999,8550],[999,8614],[999,8678],[999,8741],[999,8806],[999,8869],[999,8935],[999,9002],[999,9067],[999,9131],[999,9204],[999,9271],[999,9334],[999,9396],[999,9458],[999,9519],[999,9580],[999,9642],[999,9707],[999,9770],[999,9834],[999,9896],[999,9961],[999,10023],[999,10099],[999,10166],[999,10237],[999,10312],[999,10375],[999,10439],[999,10508],[999,10583],[999,10657],[999,10727],[999,10792],[999,10860],[999,10930],[999,10996],[999,11058],[999,11119],[999,11189],[999,11252],[999,11315],[999,11379],[999,11443],[999,11508],[999,11579],[999,11641],[999,11704],[999,11780],[999,11854],[999,11930],[999,12001],[999,12065],[999,12130],[999,12196],[999,12260],[999,12340],[999,12410],[999,12478],[999,12558],[999,12630],[999,12708],[999,12772],[999,12837],[999,12906],[999,12978],[999,13051],[999,13114],[999,13175],[999,13238],[999,13301],[999,13371],[999,13439],[999,13501],[999,13573],[999,13635],[999,13700],[999,13774],[999,13835],[999,13894],[999,13958],[999,14020],[999,14082],[999,14142],[999,14205],[999,14267],[999,14332],[999,14393],[999,14454],[999,14520],[999,14581],[999,14644],[999,14705],[999,14767],[999,14829],[999,14891],[999,14954],[999,15018],[999,15079],[999,15140],[999,15205],[999,15268],[999,15330],[999,15393],[999,15455],[999,15519],[999,15580],[999,15643],[999,15710],[999,15771],[999,15834],[999,15897],[999,15960],[999,16022],[999,16082],[999,16145],[999,16209],[999,16270],[999,16333],[999,16394],[999,16467],[999,16533],[999,16596],[999,16660],[999,16721],[999,16786],[999,16851],[999,16914],[999,16980],[999,17047],[999,17120],[999,17184],[999,17258],[999,17319],[999,17382],[999,17444],[999,17507],[999,17567],[999,17633],[999,17693],[999,17756],[999,17817],[999,17887],[999,17949],[999,18012],[999,18081],[999,18142],[999,18205],[999,18267],[999,18331],[999,18392],[999,18453],[999,18516],[999,18578],[999,18640],[999,18704],[999,18765],[999,18827],[999,18890],[999,18955],[999,19016],[999,19077],[999,19141],[999,19204],[999,19267],[999,19329],[999,19390],[999,19450],[999,19512],[999,19576],[999,19638],[999,19702],[999,19763],[999,19833],[999,19894],[999,19957],[999,20019],[999,20079],[999,20143],[999,20206],[999,20272],[999,20337],[999,20399],[999,20461],[999,20533],[999,20596],[999,20657],[999,20719],[999,20780],[999,20848],[999,20933],[999,20996],[999,21058],[999,21123],[999,21185],[999,21248],[999,21309],[999,21370],[999,21434],[999,21503],[999,21564],[999,21626],[999,21690],[999,21754],[999,21816],[999,21881],[999,21945],[999,22009],[999,22077],[999,22138],[999,22201],[999,22266],[999,22328],[999,22393],[999,22455],[999,22520],[999,22589],[999,22656],[999,22720],[999,22784],[999,22846],[999,22915],[999,22981],[999,23043],[999,23106],[999,23174],[999,23237],[999,23306],[999,23367],[999,23439],[999,23503],[999,23567],[999,23630],[999,23693],[999,23756],[999,23819],[999,23890],[999,23966],[999,24038],[999,24101],[999,24164],[999,24225],[999,24290],[999,24352],[999,24417],[999,24489],[999,24549],[999,24613],[999,24676],[999,24760],[999,24826],[999,24893],[999,24959],[999,25020],[999,25083],[999,25146],[999,25209],[999,25272],[999,25351],[999,25419],[999,25499],[999,25568],[999,25639],[999,25708],[999,25775],[999,25840],[999,25902],[999,25967],[999,26029],[999,26096],[999,26157],[999,26220],[999,26282],[999,26350],[999,26413],[999,26476],[999,26547],[999,26620],[999,26685]]",1,0,1047.4706,1059.1662,85.83333333,10.9469,"[{""rating"":49.375,""responseTime"":9.039599999964366},{""rating"":85.83333333333334,""responseTime"":10.946899999976267}]",space,11.0016,,1059.1662,Partially,50,1059.1678,,,[],,,,0,10,10,10,1,audio/Narrative8Situation1.wav,audio/Narrative7Situation1.wav,audio/Narrative6Situation1.wav,audio/Narrative5Situation1.wav,5,2,2,5,,,,,,,,,,,,,,,,,,,,,,,,,,,,,,,,,,,,,
,,,,,,60fca0fc5d7a65f146a1c6c6,2024-05-13_11h51.13.688,group3.1-3.2-social-tom,2023.2.2,Win32,18.4501845,65c5074098b851296ff0b7ed,664236dbde8edc31668a6a5d,,,,,,,,,,,,,,,,,,,,,,,,,,,,,1059.1679,2,audio/Narrative6Situation2.wav,1062.2049,,1062.205,1090.8257,"[[83,587],[82.1,661],[81.8,724],[100,28620]]",1,0,1090.8257,1091.9987,99.79166667,0.5318,"[{""rating"":99.79166666666667,""responseTime"":0.5318000000120264}]",space,0.5009,,1091.9987,Partially,50,1091.9999,,,[],,,,0,11,11,11,1,audio/Narrative8Situation2.wav,audio/Narrative7Situation2.wav,audio/Narrative6Situation2.wav,audio/Narrative5Situation2.wav,3,3,3,3,,,,,,,,,,,,,,,,,,,,,,,,,,,,,,,,,,,,,
,,,,,,60fca0fc5d7a65f146a1c6c6,2024-05-13_11h51.13.688,group3.1-3.2-social-tom,2023.2.2,Win32,18.4501845,65c5074098b851296ff0b7ed,664236dbde8edc31668a6a5d,,,,,,,,,,,,,,,,,,,,,,,,,,,,,1092.0001,2,audio/Narrative6Situation3.wav,1097.0201,,1097.0201,1109.76,"[[999,4],[999,65],[999,128],[999,189],[999,250],[999,326],[999,390],[999,453],[999,520],[999,585],[999,648],[999,714],[999,791],[999,855],[999,917],[999,982],[999,1047],[999,1109],[999,1172],[999,1237],[999,1301],[999,1364],[999,1426],[999,1488],[999,1548],[999,1618],[999,1697],[999,1762],[999,1838],[999,1899],[999,1962],[999,2024],[999,2089],[999,2153],[999,2217],[999,2279],[999,2339],[999,2402],[999,2469],[999,2545],[999,2608],[999,2672],[999,2735],[999,2798],[999,2861],[999,2922],[999,2993],[999,3056],[999,3118],[999,3191],[999,3256],[999,3319],[999,3384],[999,3445],[999,3518],[999,3590],[999,3655],[999,3718],[999,3783],[999,3845],[999,3907],[999,3979],[999,4042],[999,4103],[999,4167],[999,4229],[999,4291],[999,4355],[999,4419],[999,4483],[999,4546],[999,4609],[999,4673],[999,4735],[999,4796],[999,4864],[999,4925],[999,4989],[999,5051],[999,5125],[999,5188],[999,5250],[999,5323],[999,5395],[999,5455],[999,5526],[999,5589],[999,5668],[999,5732],[999,5794],[999,5859],[999,5932],[999,5996],[999,6061],[999,6133],[999,6194],[999,6258],[999,6321],[999,6384],[999,6448],[999,6521],[999,6587],[999,6657],[999,6729],[999,6791],[999,6853],[999,6915],[999,6976],[999,7040],[999,7103],[999,7169],[999,7245],[999,7312],[999,7374],[999,7437],[999,7498],[999,7558],[999,7620],[999,7696],[999,7762],[999,7834],[999,7902],[999,7969],[999,8034],[999,8109],[999,8186],[999,8270],[999,8338],[999,8402],[999,8465],[999,8529],[999,8593],[999,8665],[999,8749],[999,8822],[999,8887],[999,8951],[999,9014],[999,9077],[999,9141],[999,9206],[999,9270],[999,9331],[999,9391],[999,9453],[999,9516],[999,9578],[999,9647],[999,9710],[999,9774],[999,9836],[999,9897],[999,9959],[999,10023],[999,10085],[999,10150],[999,10218],[999,10280],[999,10355],[999,10418],[999,10482],[999,10547],[999,10610],[999,10672],[999,10737],[999,10799],[999,10872],[999,10939],[999,11002],[999,11062],[999,11128],[999,11189],[999,11257],[999,11333],[999,11399],[999,11462],[999,11522],[999,11584],[999,11644],[999,11709],[999,11772],[999,11834],[999,11897],[999,11958],[999,12021],[999,12089],[999,12160],[999,12225],[999,12284],[999,12351],[999,12416],[999,12483],[999,12546],[999,12610],[999,12675],[999,12739]]",1,0,1109.7602,1116.1989,65.20833333,6.3006,"[{""rating"":91.5625,""responseTime"":2.52800000000002},{""rating"":83.85416666666667,""responseTime"":3.0774999999998727},{""rating"":65.20833333333333,""responseTime"":6.3006000000239055}]",space,5.7612,,1116.199,Partially,50,1116.1998,,,[],,,,0,12,12,12,1,audio/Narrative8Situation3.wav,audio/Narrative7Situation3.wav,audio/Narrative6Situation3.wav,audio/Narrative5Situation3.wav,4,8,5,3,,,,,,,,,,,,,,,,,,,,,,,,,,,,,,,,,,,,,
,,,,,,60fca0fc5d7a65f146a1c6c6,2024-05-13_11h51.13.688,group3.1-3.2-social-tom,2023.2.2,Win32,18.4501845,65c5074098b851296ff0b7ed,664236dbde8edc31668a6a5d,,,,,,,,,,,,,,,,,,,,,,,,,,,,,1116.1999,2,audio/Narrative6Situation4.wav,1118.2109,,1118.2109,1130.9083,"[[999,0],[999,65],[999,126],[999,190],[999,252],[999,317],[999,384],[999,447],[999,510],[999,576],[999,640],[999,702],[999,763],[999,825],[999,889],[999,952],[999,1016],[999,1077],[999,1146],[999,1207],[999,1269],[999,1330],[999,1393],[999,1456],[999,1528],[999,1594],[999,1663],[999,1734],[999,1798],[999,1860],[999,1925],[999,1990],[999,2054],[999,2119],[999,2185],[999,2249],[999,2309],[999,2372],[999,2433],[999,2497],[999,2558],[999,2621],[999,2696],[999,2761],[999,2829],[999,2906],[999,2970],[999,3043],[999,3106],[999,3168],[999,3231],[999,3294],[999,3357],[999,3427],[999,3494],[999,3557],[999,3620],[999,3685],[999,3750],[999,3816],[999,3881],[999,3945],[999,4008],[999,4070],[999,4138],[999,4205],[999,4267],[999,4330],[999,4396],[999,4459],[999,4522],[999,4586],[999,4648],[999,4711],[999,4776],[999,4847],[999,4910],[999,4971],[999,5036],[999,5099],[999,5160],[999,5236],[999,5306],[999,5374],[999,5437],[999,5504],[999,5568],[999,5640],[999,5707],[999,5772],[999,5839],[999,5905],[999,5968],[999,6032],[999,6094],[999,6159],[999,6223],[999,6287],[999,6349],[999,6417],[999,6494],[999,6564],[999,6642],[999,6715],[999,6777],[999,6840],[999,6902],[999,6970],[999,7032],[999,7104],[999,7176],[999,7237],[999,7299],[999,7359],[999,7420],[999,7482],[999,7544],[999,7606],[999,7672],[999,7735],[999,7795],[999,7856],[999,7917],[999,7983],[999,8047],[999,8109],[999,8173],[999,8234],[999,8295],[999,8358],[999,8421],[999,8486],[999,8549],[999,8612],[999,8682],[999,8752],[999,8816],[999,8880],[999,8943],[999,9006],[999,9068],[999,9130],[999,9191],[999,9255],[999,9317],[999,9378],[999,9440],[999,9501],[999,9563],[999,9625],[999,9690],[999,9751],[999,9813],[999,9878],[999,9941],[999,10009],[999,10074],[999,10136],[999,10197],[999,10259],[999,10322],[999,10389],[999,10463],[999,10527],[999,10589],[999,10656],[999,10719],[999,10783],[999,10843],[999,10905],[999,10977],[999,11040],[999,11105],[999,11166],[999,11228],[999,11296],[999,11356],[999,11418],[999,11480],[999,11544],[999,11606],[999,11668],[999,11730],[999,11794],[999,11855],[999,11917],[999,11985],[999,12053],[999,12127],[999,12190],[999,12250],[999,12315],[999,12376],[999,12440],[999,12505],[999,12569],[999,12633],[999,12697]]",1,0,1130.9084,1135.7146,0,3.8587,"[{""rating"":0,""responseTime"":3.8586999999881755}]",space,4.1287,,1135.7146,Definitely yes,100,1135.7164,,,[],,,,0,13,13,13,1,audio/Narrative8Situation4.wav,audio/Narrative7Situation4.wav,audio/Narrative6Situation4.wav,audio/Narrative5Situation4.wav,3,3,2,1,,,,,,,,,,,,,,,,,,,,,,,,,,,,,,,,,,,,,
,,,,,,60fca0fc5d7a65f146a1c6c6,2024-05-13_11h51.13.688,group3.1-3.2-social-tom,2023.2.2,Win32,18.4501845,65c5074098b851296ff0b7ed,664236dbde8edc31668a6a5d,,,,,,,,,,,,,,,,,,,,,,,,,,,,,1135.7166,2,audio/Narrative6Situation5.wav,1137.7457,,1137.7457,1145.7926,[],1,0,1145.7927,1153.8838,42.5,7.0704,"[{""rating"":42.5,""responseTime"":7.070400000035761}]",space,7.4124,,1153.8838,Definitely yes,100,1153.8849,,,[],,,,0,14,14,14,1,audio/Narrative8Situation5.wav,audio/Narrative7Situation5.wav,audio/Narrative6Situation5.wav,audio/Narrative5Situation5.wav,2,5,2,5,,,,,,,,,,,,,,,,,,,,,,,,,,,,,,,,,,,,,
,,,,,,60fca0fc5d7a65f146a1c6c6,2024-05-13_11h51.13.688,group3.1-3.2-social-tom,2023.2.2,Win32,18.4501845,65c5074098b851296ff0b7ed,664236dbde8edc31668a6a5d,,,,,,,,,,,,,,,,,,,,,,,,,,,,,1153.8849,2,audio/Narrative6Situation6.wav,1155.9276,,1155.9276,1167.0892,[],1,0,1167.0894,1170.8405,26.35416667,2.9968,"[{""rating"":42.70833333333333,""responseTime"":1.5040999999641826},{""rating"":16.249999999999996,""responseTime"":2.2453000000118664},{""rating"":24.791666666666668,""responseTime"":2.582099999964157},{""rating"":26.354166666666668,""responseTime"":2.9968000000119446}]",space,3.0806,,1170.8406,Definitely yes,100,1170.8414,,,[],,,,0,15,15,15,1,audio/Narrative8Situation6.wav,audio/Narrative7Situation6.wav,audio/Narrative6Situation6.wav,audio/Narrative5Situation6.wav,2,3,2,3,,,,,,,,,,,,,,,,,,,,,,,,,,,,,,,,,,,,,
,,,,,,60fca0fc5d7a65f146a1c6c6,2024-05-13_11h51.13.688,group3.1-3.2-social-tom,2023.2.2,Win32,18.4501845,65c5074098b851296ff0b7ed,664236dbde8edc31668a6a5d,,,,,,,,,,,,,,,,,,,,,,,,,,,,,1170.8416,2,audio/Narrative6Situation7.wav,1175.8494,,1175.8495,1200.7942,[],1,0,1200.7943,1205.1062,100,3.6263,"[{""rating"":93.85416666666666,""responseTime"":1.8514999999999873},{""rating"":100,""responseTime"":3.62629999995238}]",space,3.6422,,1205.1062,Partially,50,1205.1076,,,[],,,,0,16,16,16,1,audio/Narrative8Situation7.wav,audio/Narrative7Situation7.wav,audio/Narrative6Situation7.wav,audio/Narrative5Situation7.wav,3,5,5,4,,,,,,,,,,,,,,,,,,,,,,,,,,,,,,,,,,,,,
,,,,,,60fca0fc5d7a65f146a1c6c6,2024-05-13_11h51.13.688,group3.1-3.2-social-tom,2023.2.2,Win32,18.4501845,65c5074098b851296ff0b7ed,664236dbde8edc31668a6a5d,,,,,,,,,,,,,,,,,,,,,,,,,,,,,1205.1077,2,audio/Narrative6Situation8.wav,1210.124,,1210.124,1217.0757,"[[999,4],[999,65],[999,128],[999,190],[999,251],[999,315],[999,374],[999,447],[999,508],[999,571],[999,632],[999,694],[999,757],[999,818],[999,881],[999,951],[999,1013],[999,1076],[999,1139],[999,1200],[999,1263],[999,1326],[999,1388],[999,1450],[999,1510],[999,1573],[999,1638],[999,1707],[999,1770],[999,1832],[999,1902],[999,1966],[999,2028],[999,2089],[999,2155],[999,2222],[999,2284],[999,2355],[999,2427],[999,2488],[999,2549],[999,2610],[999,2672],[999,2737],[999,2799],[999,2861],[999,2922],[999,2990],[999,3067],[999,3130],[999,3191],[999,3251],[999,3313],[999,3375],[999,3440],[999,3504],[999,3566],[999,3632],[999,3699],[999,3761],[999,3835],[999,3898],[999,3962],[999,4028],[999,4092],[999,4156],[999,4217],[999,4288],[999,4352],[999,4423],[999,4486],[999,4549],[999,4613],[999,4677],[999,4739],[999,4803],[999,4867],[999,4929],[999,4990],[999,5053],[999,5116],[999,5179],[999,5241],[999,5302],[999,5364],[999,5424],[999,5486],[999,5550],[999,5611],[999,5674],[999,5735],[999,5796],[999,5856],[999,5919],[999,5981],[999,6042],[999,6104],[999,6168],[999,6240],[999,6301],[999,6360],[999,6431],[999,6505],[999,6568],[999,6631],[999,6692],[999,6753],[999,6828],[999,6888],[999,6951]]",1,0,1217.0758,1220.5554,0,2.6677,"[{""rating"":0,""responseTime"":2.6676999999881446}]",space,2.8245,,1220.5554,Definitely yes,100,1220.5569,,,[],,,,0,17,17,17,1,audio/Narrative8Situation8.wav,audio/Narrative7Situation8.wav,audio/Narrative6Situation8.wav,audio/Narrative5Situation8.wav,3,2,5,3,,,,,,,,,,,,,,,,,,,,,,,,,,,,,,,,,,,,,
,,,,,,60fca0fc5d7a65f146a1c6c6,2024-05-13_11h51.13.688,group3.1-3.2-social-tom,2023.2.2,Win32,18.4501845,65c5074098b851296ff0b7ed,664236dbde8edc31668a6a5d,,,,,,,,,,,,,,,,,,,,,,,,,,,,,1220.557,2,audio/Narrative6Situation9.wav,1224.5629,,1224.5629,1234.6398,[],1,0,1234.6398,1238.9183,0.3125,3.5269,"[{""rating"":0.3124999999999989,""responseTime"":3.526899999975967}]",space,3.6147,,1238.9184,Not at all,0,1238.9198,,,[],,,,0,18,18,18,1,audio/Narrative8Situation9.wav,audio/Narrative7Situation9.wav,audio/Narrative6Situation9.wav,audio/Narrative5Situation9.wav,3,2,4,3,,,,,,,,,,,,,,,,,,,,,,,,,,,,,,,,,,,,,
,,,,,,60fca0fc5d7a65f146a1c6c6,2024-05-13_11h51.13.688,group3.1-3.2-social-tom,2023.2.2,Win32,18.4501845,65c5074098b851296ff0b7ed,664236dbde8edc31668a6a5d,,,,,,,,,,,,,,,,,,,,,,,,,,,,,,,,,,,,,,,,,,,,,,,,,,,,,,,,,,,,,,,,,,,,,,,,1238.9199,1266.4715,space,26.9788,,1266.4719,1343.8461,space,76.959,,,,,,,,,,,,,,,,,,,,,,,,,,
