exp_question,consent.started,consent.stopped,consentResponse.keys,consentResponse.rt,consentResponse.duration,participantID,date,expName,psychopyVersion,OS,frameRate,STUDY_ID,SESSION_ID,opening1.started,opening1.stopped,keyEndingOpening1.keys,keyEndingOpening1.rt,keyEndingOpening1.duration,volumeAdjust.started,volumeAdjust.stopped,endingAdjust.keys,endingAdjust.rt,endingAdjust.duration,opening2.started,opening2.stopped,keyEndingOpening.keys,keyEndingOpening.rt,keyEndingOpening.duration,mouse.x,mouse.y,mouse.leftButton,mouse.midButton,mouse.rightButton,mouse.time,instructionLoop.thisRepN,instructionLoop.thisTrialN,instructionLoop.thisN,instructionLoop.thisIndex,instructionLoop.ran,readyForAudio.started,readyForAudio.stopped,fixation.started,run,audio_played,fixation.stopped,endPractice.keys,audioPre.started,audioPre.stopped,continuousResponses_audio,continuousSlider.response,continuousSlider.rt,intRating.started,intRating.stopped,intQuestionSlider.response,intQuestionSlider.rt,intQuestionSlider.history,confirmResponse.keys,confirmResponse.rt,confirmResponse.duration,catchQuestion.started,catch_label,catch_value,catchQuestion.stopped,catchQuestionSlider.response,catchQuestionSlider.rt,catchQuestionSlider.history,confirmResponse_2.keys,audioRunLoop.thisRepN,audioRunLoop.thisTrialN,audioRunLoop.thisN,audioRunLoop.thisIndex,audioRunLoop.ran,conditions1_1,conditions2_1,conditions1_2,conditions2_2,dur1_1,dur2_1,dur1_2,dur2_2,endPractice.rt,endPractice.duration,confirmResponse_2.rt,confirmResponse_2.duration,runIntervalBreak.started,runIntervalBreak.stopped,endingBreakKey.keys,endingBreakKey.rt,endingBreakKey.duration,connection.started,connection.stopped,connectionEnding.keys,connectionEnding.rt,connectionEnding.duration,readyForText.started,readyForText.stopped,textPre.started,run_dup,textPre.stopped,continuousResponses_text,textRunLoop.thisRepN,textRunLoop.thisTrialN,textRunLoop.thisN,textRunLoop.thisIndex,textRunLoop.ran,text1_1,text1_2,text2_1,text2_2,runBreakText.started,runBreakText.stopped,endingBreakKey_2.keys,endingBreakKey_2.rt,endingBreakKey_2.duration,ending.started,ending.stopped,endingEnding.keys,endingEnding.rt,endingEnding.duration
tom,9.99999E-05,11.4338,y,11.1054,,6103af77bf96464bbd8407fd,2024-02-08_11h52.38.065,group3.1-3.2-social-tom,2023.2.2,Win32,56.81818182,65c5074098b851296ff0b7ed,65c514d55500ab66e68306f0,,,,,,,,,,,,,,,,,,,,,,,,,,,,,,,,,,,,,,,,,,,,,,,,,,,,,,,,,,,,,,,,,,,,,,,,,,,,,,,,,,,,,,,,,,,,,,,,,,,,,,,,,,
,,,,,,6103af77bf96464bbd8407fd,2024-02-08_11h52.38.065,group3.1-3.2-social-tom,2023.2.2,Win32,56.81818182,65c5074098b851296ff0b7ed,65c514d55500ab66e68306f0,11.4338,16.5379,space,5.0696,,,,,,,,,,,,,,,,,,,,,,,,,,,,,,,,,,,,,,,,,,,,,,,,,,,,,,,,,,,,,,,,,,,,,,,,,,,,,,,,,,,,,,,,,,,,,,,,,,,,,,
,,,,,,6103af77bf96464bbd8407fd,2024-02-08_11h52.38.065,group3.1-3.2-social-tom,2023.2.2,Win32,56.81818182,65c5074098b851296ff0b7ed,65c514d55500ab66e68306f0,,,,,,16.5379,24.2285,space,7.3727,,,,,,,,,,,,,,,,,,,,,,,,,,,,,,,,,,,,,,,,,,,,,,,,,,,,,,,,,,,,,,,,,,,,,,,,,,,,,,,,,,,,,,,,,,,,,,,,,
,,,,,,6103af77bf96464bbd8407fd,2024-02-08_11h52.38.065,group3.1-3.2-social-tom,2023.2.2,Win32,56.81818182,65c5074098b851296ff0b7ed,65c514d55500ab66e68306f0,,,,,,,,,,,24.2302,31,space,6.7377,,[],[],[],[],[],[],0,0,0,0,1,,,,,,,,,,,,,,,,,,,,,,,,,,,,,,,,,,,,,,,,,,,,,,,,,,,,,,,,,,,,,,,,,,,,,,,,,,,,,,,,
,,,,,,6103af77bf96464bbd8407fd,2024-02-08_11h52.38.065,group3.1-3.2-social-tom,2023.2.2,Win32,56.81818182,65c5074098b851296ff0b7ed,65c514d55500ab66e68306f0,,,,,,,,,,,31.0001,47.7473,space,16.6944,,[],[],[],[],[],[],1,0,1,0,1,,,,,,,,,,,,,,,,,,,,,,,,,,,,,,,,,,,,,,,,,,,,,,,,,,,,,,,,,,,,,,,,,,,,,,,,,,,,,,,,
,,,,,,6103af77bf96464bbd8407fd,2024-02-08_11h52.38.065,group3.1-3.2-social-tom,2023.2.2,Win32,56.81818182,65c5074098b851296ff0b7ed,65c514d55500ab66e68306f0,,,,,,,,,,,47.7475,58.7229,space,10.9357,,[],[],[],[],[],[],2,0,2,0,1,,,,,,,,,,,,,,,,,,,,,,,,,,,,,,,,,,,,,,,,,,,,,,,,,,,,,,,,,,,,,,,,,,,,,,,,,,,,,,,,
,,,,,,6103af77bf96464bbd8407fd,2024-02-08_11h52.38.065,group3.1-3.2-social-tom,2023.2.2,Win32,56.81818182,65c5074098b851296ff0b7ed,65c514d55500ab66e68306f0,,,,,,,,,,,58.7268,90.381,space,31.6288,,[],[],[],[],[],[],3,0,3,0,1,,,,,,,,,,,,,,,,,,,,,,,,,,,,,,,,,,,,,,,,,,,,,,,,,,,,,,,,,,,,,,,,,,,,,,,,,,,,,,,,
,,,,,,6103af77bf96464bbd8407fd,2024-02-08_11h52.38.065,group3.1-3.2-social-tom,2023.2.2,Win32,56.81818182,65c5074098b851296ff0b7ed,65c514d55500ab66e68306f0,,,,,,,,,,,90.3849,99.5226,space,9.1054,,[],[],[],[],[],[],4,0,4,0,1,,,,,,,,,,,,,,,,,,,,,,,,,,,,,,,,,,,,,,,,,,,,,,,,,,,,,,,,,,,,,,,,,,,,,,,,,,,,,,,,
,,,,,,6103af77bf96464bbd8407fd,2024-02-08_11h52.38.065,group3.1-3.2-social-tom,2023.2.2,Win32,56.81818182,65c5074098b851296ff0b7ed,65c514d55500ab66e68306f0,,,,,,,,,,,,,,,,,,,,,,,,,,,99.527,102.1036,102.1108,1,audio/Narrative13Situation2.wav,104.1257,,104.1259,133.8752,"[[999,0],[999,108],[999,183],[999,266],[999,349],[999,433],[999,517],[999,608],[999,684],[999,767],[999,864],[999,934],[999,1031],[999,1101],[999,1184],[999,1275],[999,1359],[999,1434],[999,1517],[999,1601],[999,1684],[999,1768],[999,1851],[999,1935],[999,2018],[999,2101],[999,2185],[999,2268],[999,2352],[999,2435],[999,2518],[999,2602],[999,2685],[999,2768],[999,2866],[999,2935],[999,3018],[999,3102],[999,3185],[999,3269],[999,3352],[999,3436],[999,3519],[999,3602],[999,3686],[999,3769],[999,3853],[999,3936],[999,4019],[999,4112],[999,4187],[999,4270],[999,4353],[999,4436],[999,4519],[999,4603],[999,4688],[999,4770],[999,4853],[999,4937],[999,5020],[999,5104],[999,5195],[999,5280],[999,5363],[999,5446],[999,5521],[999,5614],[999,5688],[999,5771],[999,5866],[999,5946],[999,6030],[56.7,6114],[57.5,6188],[57.6,6279],[57.6,6355],[57.6,6438],[57.6,6521],[57.2,6614],[56.2,6688],[54.5,6781],[53.6,6870],[53,6938],[53,7022],[53,7112],[53,7189],[53,7272],[53,7356],[53,7439],[52.9,7523],[52.9,7606],[52.9,7697],[52.8,7772],[52.8,7856],[52.8,7939],[52.8,8022],[52.8,8105],[52.8,8190],[52.8,8272],[52.8,8364],[52.8,8448],[52.8,8531],[52.8,8606],[52.8,8690],[52.8,8780],[52.8,8857],[52.8,8940],[52.8,9023],[52.8,9107],[52.8,9190],[52.8,9275],[52.8,9357],[52.8,9441],[52.8,9524],[52.8,9616],[53.2,9691],[53.2,9774],[53.2,9866],[53.2,9952],[53.2,10024],[53.2,10108],[53.2,10199],[53.2,10274],[53.2,10358],[53.2,10451],[53.2,10525],[53.2,10617],[53.2,10692],[53.2,10783],[53.2,10858],[53.2,10942],[53.2,11025],[53.2,11109],[53.1,11200],[51.9,11290],[49.1,11359],[49,11442],[49,11526],[49,11609],[47.6,11700],[46.7,11776],[45.9,11859],[44.5,11951],[42.9,12035],[41.5,12109],[40.9,12201],[39.6,12276],[35.7,12368],[32.9,12451],[31.4,12527],[30.4,12610],[30.1,12701],[29.4,12777],[28.7,12869],[27.4,12943],[27.1,13027],[27.1,13110],[27.1,13194],[27.1,13277],[27.1,13360],[27.1,13444],[26.9,13527],[26.7,13611],[26.7,13694],[26.7,13785],[26.7,13861],[26.7,13944],[26.7,14028],[26.7,14111],[26.7,14195],[26.7,14278],[26.7,14370],[26.7,14444],[26.7,14537],[26.6,14612],[25.2,14695],[25,14778],[24.9,14861],[24.9,14946],[24.9,15028],[24.9,15112],[24.9,15195],[24.9,15278],[24.9,15362],[24.9,15446],[24.9,15529],[24.9,15625],[24.9,15696],[24.9,15779],[24.9,15863],[24.9,15946],[24.9,16029],[24.9,16113],[24.9,16196],[24.9,16279],[24.9,16363],[24.9,16446],[24.9,16530],[24.9,16613],[24.9,16696],[24.9,16780],[24.9,16863],[24.9,16947],[24.9,17030],[24.9,17113],[24.9,17197],[24.9,17290],[24.9,17364],[24.9,17449],[24.9,17531],[24.9,17628],[24.9,17697],[24.9,17780],[24.9,17864],[24.9,17948],[24.9,18031],[24.9,18114],[24.9,18197],[24.9,18281],[24.9,18365],[24.9,18447],[24.9,18531],[24.6,18614],[23.8,18698],[23.1,18789],[22.6,18865],[22.5,18949],[22.4,19041],[21.4,19115],[19,19210]]",1,0,133.8753,142.4239,28.23204757,4.5495,"[{""rating"":28.232047571003104,""responseTime"":4.549499999999995}]",space,7.9856,,142.4275,All the time,100,142.4292,,,[],,0,0,0,0,1,audio/Narrative13Situation2.wav,audio/Narrative13Situation2.wav,audio/Narrative13Situation2.wav,audio/Narrative13Situation2.wav,2,2,2,2,,,,,,,,,,,,,,,,,,,,,,,,,,,,,,,,,,,,,,,
,,,,,,6103af77bf96464bbd8407fd,2024-02-08_11h52.38.065,group3.1-3.2-social-tom,2023.2.2,Win32,56.81818182,65c5074098b851296ff0b7ed,65c514d55500ab66e68306f0,,,,,,,,,,,,,,,,,,,,,,,,,,,,,142.4294,1,audio/Narrative8Situation1.wav,144.5754,space,144.5754,160.4886,"[[999,0],[999,82],[999,175],[999,250],[999,333],[999,417],[999,500],[999,584],[999,667],[999,763],[999,834],[999,917],[999,1000],[999,1084],[999,1167],[999,1251],[999,1334],[999,1418],[999,1501],[999,1585],[999,1668],[999,1751],[999,1834],[999,1918],[999,2001],[999,2085],[999,2168],[999,2252],[999,2335],[999,2418],[999,2502],[999,2586],[999,2668],[999,2752],[999,2835],[999,2919],[999,3002],[999,3085],[999,3169],[999,3253],[11.1,3336],[9.8,3419],[9.2,3502],[9.1,3586],[8.9,3669],[8.9,3753],[8.9,3836],[8.9,3920],[8.9,4003],[8.9,4086],[8.9,4170],[8.9,4253],[8.9,4337],[8.9,4420],[8.9,4503],[8.9,4587],[8.9,4670],[8.9,4753],[8.9,4838],[8.9,4920],[8.9,5004],[8.9,5087],[8.9,5171],[8.9,5254],[8.9,5337],[8.9,5421],[8.9,5504],[8.9,5587],[8.9,5671],[8.9,5754],[8.9,5838],[8.9,5921],[8.9,6004],[8.9,6088],[8.8,6171],[8.7,6255],[8.5,6338],[8.1,6421],[7.9,6505],[7.6,6588],[7.2,6671],[7.1,6755],[7,6839],[7,6922],[6.8,7006],[6.7,7089],[6.5,7172],[6.4,7256],[6.3,7339],[6.2,7422],[6.2,7506],[6.2,7590],[6.2,7673],[6.2,7756],[6.2,7839],[6.2,7923],[6.2,8006],[6.2,8090],[6.2,8173],[6.2,8256],[6.2,8340],[6.2,8423],[6.2,8506],[6.2,8590],[6.2,8673],[6.2,8757],[6.2,8840],[6.2,8923],[6.2,9007],[6.2,9091],[6.2,9174],[6.2,9257],[6.2,9340],[6.2,9424],[6.2,9507],[6.2,9591],[6.2,9674],[6.2,9757],[6.2,9841],[6.2,9924],[6,10008],[6,10092],[6,10174],[6,10258],[6,10341],[6,10425],[6,10509],[6,10591],[6,10675],[6,10758],[6,10842],[5.9,10925],[5.9,11009],[5.9,11092],[5.9,11176],[5.9,11259],[5.9,11342],[5.9,11425],[5.9,11510],[5.9,11593],[5.9,11676],[5.9,11760],[5.9,11843],[5.9,11926],[5.9,12009],[5.9,12093],[5.9,12176],[5.9,12259],[5.9,12343],[5.9,12426],[5.9,12510],[5.9,12594],[5.9,12676],[5.9,12761],[5.9,12843],[5.9,12927],[5.9,13010],[5.9,13093],[5.9,13177],[5.9,13260],[5.9,13344],[5.9,13427],[5.9,13510],[5.9,13594],[5.9,13677],[5.9,13761],[5.9,13845],[5.9,13927],[5.9,14011],[5.9,14094],[5.9,14178],[5.9,14261],[5.9,14345],[5.9,14428],[5.9,14511],[5.9,14595],[5.9,14678],[5.9,14761],[5.9,14845],[5.9,14928],[5.9,15012],[5.9,15095],[5.9,15179],[5.9,15263],[5.9,15346],[5.9,15429],[5.9,15512],[5.9,15595],[5.9,15679],[5.9,15762],[5.9,15846]]",1,0,160.4887,164.8589,1.933701657,2.4568,"[{""rating"":1.9337016574585641,""responseTime"":2.456800000190725}]",space,3.8388,,164.8589,Half the time,50,164.8601,,,[],,0,1,1,1,1,audio/Narrative7Situation1.wav,audio/Narrative8Situation1.wav,audio/Narrative5Situation1.wav,audio/Narrative6Situation1.wav,2,5,5,2,2.1262,,,,,,,,,,,,,,,,,,,,,,,,,,,,,,,,,,,,,,
,,,,,,6103af77bf96464bbd8407fd,2024-02-08_11h52.38.065,group3.1-3.2-social-tom,2023.2.2,Win32,56.81818182,65c5074098b851296ff0b7ed,65c514d55500ab66e68306f0,,,,,,,,,,,,,,,,,,,,,,,,,,,,,164.8602,1,audio/Narrative8Situation2.wav,167.8613,,167.8613,177.9946,"[[56.7,83],[56.2,166],[55.6,250],[54.6,332],[53.1,416],[52.8,499],[52.8,583],[49,667],[45.5,750],[45,834],[44,917],[42.9,1000],[42.9,1084],[42.9,1167],[42.7,1251],[42.1,1333],[40.8,1417],[40.5,1500],[39.9,1584],[39.6,1667],[39.6,1750],[39.6,1834],[39.6,1917],[39.6,2001],[39.6,2084],[39.6,2168],[39.6,2251],[39.8,2334],[40.6,2418],[41.4,2502],[42.3,2584],[42.8,2668],[43.4,2752],[43.6,2835],[44.1,2918],[44.4,3002],[44.6,3086],[44.6,3169],[44.6,3252],[44.6,3335],[44.6,3418],[44.6,3502],[44.6,3585],[44.6,3668],[44.6,3752],[44.6,3835],[44.6,3919],[44.6,4002],[44.6,4086],[44.6,4169],[44.6,4252],[44.6,4336],[44.6,4419],[44.6,4502],[44.6,4586],[44.6,4670],[44.6,4753],[45,4836],[45.1,4920],[45.2,5003],[45.2,5087],[45.2,5170],[45.2,5254],[45.2,5337],[45.2,5420],[45.2,5503],[45.3,5587],[45.4,5670],[45.4,5754],[45.4,5837],[45.4,5920],[45.4,6004],[45.4,6087],[45.4,6171],[45.5,6254],[45.5,6337],[45.5,6421],[45.5,6504],[45.5,6588],[45.5,6671],[45.5,6754],[45.5,6838],[45.5,6921],[45.5,7005],[45.5,7088],[45.5,7171],[45.5,7255],[45.5,7338],[45.5,7425],[45.5,7516],[45.5,7597],[45.6,7680],[45.7,7764],[45.7,7848],[45.7,7931],[45.9,8014],[46,8098],[46,8181],[46.1,8265],[46.4,8348],[46.7,8432],[47.6,8517],[48.6,8599],[49.3,8681],[49.8,8766],[50.4,8848],[50.8,8932],[51.1,9016],[51.1,9099],[51.3,9182],[51.3,9266],[51.4,9352],[51.5,9437],[51.7,9515],[52.3,9599],[53.3,9681],[53.6,9766],[53.7,9849],[53.7,9933],[53.7,10015],[53.7,10099]]",1,0,177.9947,182.848,49.11602716,2.7186,"[{""rating"":49.11602715760963,""responseTime"":2.718599999904626}]",space,4.3208,,182.848,All the time,100,182.8491,,,[],,0,2,2,2,1,audio/Narrative7Situation2.wav,audio/Narrative8Situation2.wav,audio/Narrative5Situation2.wav,audio/Narrative6Situation2.wav,3,3,3,3,,,,,,,,,,,,,,,,,,,,,,,,,,,,,,,,,,,,,,,
,,,,,,6103af77bf96464bbd8407fd,2024-02-08_11h52.38.065,group3.1-3.2-social-tom,2023.2.2,Win32,56.81818182,65c5074098b851296ff0b7ed,65c514d55500ab66e68306f0,,,,,,,,,,,,,,,,,,,,,,,,,,,,,182.8492,1,audio/Narrative8Situation3.wav,186.8513,,186.8513,209.2277,"[[999,4],[999,84],[999,166],[999,251],[999,338],[999,422],[999,499],[999,584],[999,668],[999,751],[999,834],[999,918],[999,1002],[999,1085],[999,1167],[999,1251],[999,1334],[999,1418],[999,1502],[999,1584],[999,1667],[999,1751],[999,1835],[999,1918],[999,2003],[999,2085],[999,2168],[999,2252],[56.2,2340],[57.8,2424],[61,2500],[65.5,2585],[68.5,2669],[72.5,2753],[76,2834],[81.5,2923],[81.9,3002],[81.9,3086],[81.9,3169],[81.9,3253],[82.3,3336],[82.4,3422],[82.5,3503],[82.5,3587],[82.5,3670],[82.5,3753],[82.5,3836],[82.5,3922],[82.5,4003],[82.5,4087],[82.5,4169],[82.5,4253],[82.8,4341],[82.9,4426],[82.9,4501],[82.9,4587],[82.9,4670],[82.9,4753],[82.9,4837],[82.9,4922],[82.9,5004],[82.9,5088],[82.9,5171],[82.9,5255],[82.8,5338],[82.8,5421],[82.8,5504],[82.7,5587],[82.7,5672],[82.7,5755],[82.7,5837],[82.3,5920],[81.6,6005],[80.3,6089],[79.4,6172],[78.9,6255],[78.6,6347],[78.2,6430],[78,6522],[77.4,6605],[76.4,6688],[75.5,6763],[74.5,6856],[74.1,6930],[73.8,7022],[73.6,7106],[73.5,7181],[73.5,7264],[73.5,7347],[73.5,7431],[73.5,7514],[73.5,7598],[73.5,7681],[73.5,7764],[73.5,7848],[73.5,7931],[73.5,8014],[73.8,8098],[74.3,8181],[75.2,8273],[76.6,8360],[77.3,8431],[78.5,8523],[80.7,8608],[81.9,8690],[81.9,8765],[82,8848],[82,8932],[82,9015],[82,9099],[82,9182],[82,9265],[82,9349],[82,9432],[82,9516],[82,9599],[82,9683],[82,9766],[82,9849],[82,9933],[82,10016],[82,10100],[82,10182],[82,10266],[82,10350],[82,10434],[82.2,10525],[82.2,10609],[82.2,10683],[82.2,10767],[82.2,10850],[82.2,10933],[82.2,11017],[82.2,11100],[82.2,11184],[82.2,11267],[82.2,11350],[82.2,11434],[82.2,11517],[82.2,11601],[82.2,11684],[82.2,11767],[82.2,11851],[82.2,11934],[82.2,12018],[82.2,12101],[82.2,12184],[82.2,12268],[82.2,12352],[82.2,12435],[82.2,12518],[82.2,12602],[82.2,12684],[82.2,12768],[82.2,12851],[82.2,12935],[82.1,13019],[82,13102],[81.8,13185],[81.7,13277],[81.7,13360],[81.7,13436],[81.7,13519],[81.7,13602],[81.3,13695],[81,13769],[80.3,13861],[79.2,13945],[78.2,14019],[77.5,14103],[76.3,14186],[74.8,14270],[73.4,14370],[72.3,14453],[71.4,14537],[70.6,14620],[70.2,14703],[70,14786],[69.7,14870],[69.4,14954],[69.2,15037],[68.9,15120],[68.6,15203],[68.2,15287],[67.9,15370],[67.7,15455],[67.7,15537],[67.3,15620],[67.2,15704],[66.9,15787],[66.7,15871],[66.6,15954],[66.6,16037],[66.5,16121],[66.5,16204],[66.5,16288],[66.5,16372],[66.5,16454],[66.4,16538],[65.9,16621],[65.6,16705],[65,16789],[64.8,16872],[64.8,16955],[64.8,17038],[64.8,17122],[64.8,17205],[64.8,17288],[64.8,17372],[64.8,17455],[64.8,17539],[64.8,17622],[64.8,17705],[64.8,17789],[64.8,17873],[64.8,17956],[64.8,18039],[64.8,18123],[64.8,18206],[64.8,18290],[64.8,18373],[64.8,18456],[64.8,18540],[64.8,18623],[64.8,18706],[64.8,18790],[64.8,18873],[64.8,18956],[64.8,19054],[64.8,19123],[64.8,19217],[64.8,19290],[64.8,19374],[64.8,19457],[64.8,19540],[64.8,19624],[64.8,19707],[64.8,19791],[64.8,19874],[64.8,19958],[64.8,20041],[64.8,20124],[64.8,20207],[64.8,20291],[64.8,20375],[64.8,20458],[64.8,20541],[64.8,20624],[64.8,20708],[64.9,20791],[65,20875],[65.1,20959],[65.4,21054],[65.6,21136],[65.6,21209],[65.6,21292],[65.6,21375],[65.6,21458],[65.6,21542],[65.6,21625],[65.6,21709],[65.7,21792],[65.7,21875],[65.7,21959],[65.7,22042],[65.7,22126],[65.9,22218],[66,22301],[66,22376]]",1,0,209.2278,211.8803,72.6519337,1.2929,"[{""rating"":72.65193370165746,""responseTime"":1.2929000000953863}]",space,2.1009,,211.8804,All the time,100,211.8811,,,[],,0,3,3,3,1,audio/Narrative7Situation3.wav,audio/Narrative8Situation3.wav,audio/Narrative5Situation3.wav,audio/Narrative6Situation3.wav,8,4,3,5,,,,,,,,,,,,,,,,,,,,,,,,,,,,,,,,,,,,,,,
,,,,,,6103af77bf96464bbd8407fd,2024-02-08_11h52.38.065,group3.1-3.2-social-tom,2023.2.2,Win32,56.81818182,65c5074098b851296ff0b7ed,65c514d55500ab66e68306f0,,,,,,,,,,,,,,,,,,,,,,,,,,,,,211.8812,1,audio/Narrative8Situation4.wav,214.8827,,214.8827,229.0528,"[[999,3],[999,82],[999,166],[999,250],[999,333],[999,425],[999,499],[999,592],[999,667],[999,750],[999,834],[999,917],[999,1001],[999,1094],[999,1167],[999,1250],[999,1342],[999,1418],[999,1501],[999,1592],[999,1676],[999,1751],[999,1843],[999,1917],[999,2001],[999,2084],[999,2168],[14.4,2262],[12.4,2344],[11,2418],[9.2,2502],[8.5,2584],[8.5,2668],[8.5,2752],[8.5,2835],[8.5,2918],[8.5,3002],[8.5,3085],[8.6,3169],[8.6,3252],[8.6,3335],[8.8,3418],[9,3502],[9.1,3586],[9.1,3669],[9.1,3753],[9.1,3835],[9.1,3919],[9.1,4003],[9.1,4086],[9.1,4169],[9.1,4252],[9.1,4336],[9.1,4420],[9.1,4503],[9.1,4587],[9.1,4669],[9.1,4753],[9.1,4837],[9.1,4920],[9.1,5003],[9.1,5087],[9.1,5170],[9.1,5254],[9.1,5337],[9.1,5420],[9.1,5504],[9.1,5587],[9.1,5671],[9.1,5754],[9.1,5844],[9.1,5920],[9.1,6005],[9.1,6088],[9.1,6171],[9.1,6262],[9.1,6337],[9.1,6421],[9.1,6505],[9.1,6588],[9.1,6671],[9.1,6755],[9.1,6847],[9.1,6922],[9.1,7005],[9.1,7088],[9.1,7172],[9.1,7255],[9.1,7339],[9.3,7422],[9.3,7512],[9.4,7589],[9.5,7673],[9.7,7756],[9.7,7839],[9.7,7922],[9.7,8006],[9.7,8090],[9.7,8173],[9.7,8256],[9.7,8340],[10.2,8432],[10.4,8506],[10.6,8590],[10.8,8682],[11,8757],[11.4,8851],[11.7,8923],[12,9007],[12.3,9090],[12.5,9173],[13.2,9257],[13.8,9341],[14.3,9432],[14.9,9507],[16.8,9590],[18.1,9674],[18.3,9765],[18.3,9841],[18.4,9924],[18.5,10007],[18.7,10091],[18.9,10182],[19.2,10258],[19.6,10341],[19.9,10424],[20.4,10508],[21.4,10592],[24.3,10684],[25.3,10758],[25.5,10855],[25.5,10933],[25.5,11024],[25.5,11100],[25.5,11184],[25.5,11266],[25.5,11351],[25.8,11434],[25.8,11519],[25.8,11599],[25.8,11684],[26,11768],[26.2,11851],[26.2,11934],[26.2,12019],[26.2,12101],[26.4,12185],[26.8,12267],[27,12351],[27,12435],[27,12518],[27,12601],[27,12685],[27,12769],[27,12855],[27,12941],[27,13023],[27,13102],[27,13186],[27,13268],[27,13352],[27,13437],[27,13519],[27,13603],[27.5,13686],[28,13769],[28.7,13852],[29.6,13937],[30.2,14019],[30.3,14103]]",1,0,229.0529,231.6715,27.0718232,1.1174,"[{""rating"":27.071823204419886,""responseTime"":1.1173999998569286}]",space,2.0847,,231.6716,Half the time,50,236.9262,24.08840116,3.5522,"[{""rating"":24.08840116216333,""responseTime"":3.552199999809261}]",space,0,4,4,4,1,audio/Narrative7Situation4.wav,audio/Narrative8Situation4.wav,audio/Narrative5Situation4.wav,audio/Narrative6Situation4.wav,3,3,1,2,,,4.7206,,,,,,,,,,,,,,,,,,,,,,,,,,,,,,,,,,,,
,,,,,,6103af77bf96464bbd8407fd,2024-02-08_11h52.38.065,group3.1-3.2-social-tom,2023.2.2,Win32,56.81818182,65c5074098b851296ff0b7ed,65c514d55500ab66e68306f0,,,,,,,,,,,,,,,,,,,,,,,,,,,,,236.9264,1,audio/Narrative8Situation5.wav,238.9269,,238.9269,247.1671,"[[19.4,1000],[19.4,1084],[19.4,1170],[19.4,1251],[19.4,1334],[19.4,1417],[19.4,1501],[19.2,1586],[17.9,1674],[16,1757],[15,1835],[14.4,1919],[13.3,2002],[10.8,2085],[9,2170],[9,2251],[9.1,2336],[10.2,2419],[12.6,2502],[14.6,2586],[16.9,2670],[20.4,2751],[24.9,2835],[27.2,2919],[30.4,3002],[32.2,3085],[36.3,3169],[42.5,3253],[47.1,3336],[52.9,3420],[53.5,3502],[53.5,3588],[52.3,3673],[51.2,3758],[51,3836],[50.9,3919],[50.9,4003],[51.4,4088],[53.8,4170],[56.9,4254],[58.4,4337],[59.9,4421],[62.1,4504],[62.4,4587],[62.5,4670],[62.7,4753],[64.9,4837],[67.5,4921],[69.2,5003],[70.9,5087],[71.4,5170],[72.5,5254],[73,5337],[73.4,5421],[74.3,5505],[75.6,5587],[76.4,5675],[77,5759],[77.2,5838],[77.2,5921],[77.2,6005],[77.2,6088],[77.3,6171],[77.3,6255],[77.3,6338],[77.7,6423],[79,6508],[79.2,6588],[79.2,6673],[79.2,6756],[79.1,6839],[78.7,6923],[77.6,7008],[77.3,7090],[77.2,7173],[77.2,7257],[77.2,7338],[77.2,7422],[77.2,7507],[77.2,7589],[77.2,7678],[77.2,7762],[77.2,7839],[77.1,7923],[77.1,8008],[77,8090],[76.9,8173]]",1,0,247.1671,251.3207,50.05525199,2.4694,"[{""rating"":50.055251990892614,""responseTime"":2.469400000095362}]",space,3.62,,251.3207,All the time,100,251.3218,,,[],,0,5,5,5,1,audio/Narrative7Situation5.wav,audio/Narrative8Situation5.wav,audio/Narrative5Situation5.wav,audio/Narrative6Situation5.wav,5,2,5,2,,,,,,,,,,,,,,,,,,,,,,,,,,,,,,,,,,,,,,,
,,,,,,6103af77bf96464bbd8407fd,2024-02-08_11h52.38.065,group3.1-3.2-social-tom,2023.2.2,Win32,56.81818182,65c5074098b851296ff0b7ed,65c514d55500ab66e68306f0,,,,,,,,,,,,,,,,,,,,,,,,,,,,,251.322,1,audio/Narrative8Situation6.wav,253.3232,,253.3232,259.7948,"[[999,0],[999,83],[999,166],[999,248],[999,332],[999,416],[999,499],[999,582],[999,669],[999,751],[999,832],[999,915],[999,1000],[999,1083],[999,1169],[999,1253],[999,1338],[999,1417],[999,1500],[56.2,1582],[62.6,1668],[64.4,1752],[66.6,1834],[71,1917],[72.1,1999],[77.3,2084],[78.2,2169],[78.2,2251],[78.2,2334],[78.2,2418],[77.6,2502],[75.7,2584],[75,2669],[74.4,2751],[73.9,2835],[73.1,2917],[72.2,3001],[71.6,3084],[71.2,3169],[71.1,3255],[71.1,3339],[71.1,3419],[71.1,3501],[71,3587],[71,3668],[71,3752],[71,3835],[71,3918],[71,4002],[70.8,4086],[70.7,4169],[70.6,4252],[70.5,4336],[70.4,4419],[70.4,4502],[70.4,4587],[70.4,4669],[70.4,4752],[70.4,4836],[70.4,4919],[70.4,5003],[70.4,5086],[70.4,5170],[70.4,5257],[70.4,5342],[70.4,5420],[70.4,5504],[70.4,5586],[70.4,5670],[70.4,5754],[70.4,5836],[70.4,5920],[70.4,6004],[70.4,6087],[70.4,6171],[70.4,6254],[70.4,6337],[70.4,6421]]",1,0,259.7949,263.8222,74.7513829,2.8633,"[{""rating"":74.75138290152366,""responseTime"":2.8632999999523463}]",space,3.4715,,263.8223,Half the time,50,263.8231,,,[],,0,6,6,6,1,audio/Narrative7Situation6.wav,audio/Narrative8Situation6.wav,audio/Narrative5Situation6.wav,audio/Narrative6Situation6.wav,3,2,3,2,,,,,,,,,,,,,,,,,,,,,,,,,,,,,,,,,,,,,,,
,,,,,,6103af77bf96464bbd8407fd,2024-02-08_11h52.38.065,group3.1-3.2-social-tom,2023.2.2,Win32,56.81818182,65c5074098b851296ff0b7ed,65c514d55500ab66e68306f0,,,,,,,,,,,,,,,,,,,,,,,,,,,,,263.8232,1,audio/Narrative8Situation7.wav,266.8247,,266.8248,278.9182,"[[999,3],[999,83],[999,167],[999,250],[999,333],[999,416],[999,500],[999,583],[999,666],[999,750],[999,833],[999,917],[999,1000],[999,1092],[999,1176],[999,1259],[999,1334],[999,1427],[999,1500],[999,1584],[999,1667],[999,1751],[999,1843],[56.5,1918],[57.5,2001],[57.5,2098],[57.5,2168],[57.5,2252],[57.5,2335],[57.5,2418],[57.5,2509],[57.6,2585],[57.7,2668],[58,2752],[58.5,2843],[58.7,2927],[58.8,3002],[59,3094],[59.1,3176],[59.1,3252],[59,3336],[57.6,3419],[55.7,3502],[49.8,3593],[46.5,3677],[44.9,3762],[23.6,5421],[23.6,5504],[23.6,5587],[23.4,5679],[23.4,5763],[23.4,5838],[23.4,5921],[23.5,6004],[23.8,6087],[24.7,6180],[25.1,6263],[24.8,6351],[24,6422],[23,6513],[22.6,6596],[22.3,6672],[22.3,6755],[22.3,6838],[22.3,6921],[22.3,7005],[22.3,7088],[22.3,7172],[22.3,7256],[22.3,7338],[22.3,7422],[22.3,7506],[22.3,7589],[22.3,7672],[22.3,7756],[22.3,7839],[22.4,7923],[22.5,8014],[22.7,8090],[22.7,8172],[22.7,8256],[22.7,8340],[22.7,8423],[22.7,8506],[22.7,8589],[22.7,8673],[22.7,8757],[22.7,8840],[22.8,8933],[22.8,9007],[22.8,9090],[22.8,9174],[22.8,9265],[22.8,9341],[22.8,9423],[22.8,9507],[22.8,9591],[22.8,9674],[22.8,9758],[22.8,9841],[22.8,9924],[22.5,10008],[21.8,10091],[20.4,10183],[19.9,10266],[18.3,10342],[15.7,10442],[15,10524],[13.7,10608],[11.5,10692],[8.1,10775],[8,10859],[8,10941],[8,11025],[8,11108],[8,11192],[8,11275],[8,11358],[7.6,11442],[5.9,11526],[4.4,11609],[4.4,11692],[3,11775],[1.8,11860],[1.4,11942],[0.9,12026]]",1,0,278.9183,280.9529,0.828729282,0.9562,"[{""rating"":0.8287292817679537,""responseTime"":0.9562000000477155}]",space,1.5102,,280.9529,All the time,100,280.9537,,,[],,0,7,7,7,1,audio/Narrative7Situation7.wav,audio/Narrative8Situation7.wav,audio/Narrative5Situation7.wav,audio/Narrative6Situation7.wav,5,3,4,5,,,,,,,,,,,,,,,,,,,,,,,,,,,,,,,,,,,,,,,
,,,,,,6103af77bf96464bbd8407fd,2024-02-08_11h52.38.065,group3.1-3.2-social-tom,2023.2.2,Win32,56.81818182,65c5074098b851296ff0b7ed,65c514d55500ab66e68306f0,,,,,,,,,,,,,,,,,,,,,,,,,,,,,280.9538,1,audio/Narrative8Situation8.wav,283.955,,283.955,296.7991,"[[999,0],[999,83],[999,166],[999,250],[999,343],[999,429],[999,500],[999,593],[999,667],[999,751],[999,834],[999,928],[999,1008],[999,1094],[999,1177],[999,1260],[999,1343],[999,1417],[27.1,1510],[24.4,1594],[22,1677],[16.8,1761],[12.3,1834],[8.3,1927],[7.2,2002],[4.8,2087],[4,2177],[3,2251],[2.7,2335],[2.7,2418],[2.7,2502],[2.7,2585],[2.7,2669],[2.7,2752],[2.7,2845],[2.6,2928],[2.6,3002],[2.6,3085],[2.6,3169],[2.6,3252],[2.6,3336],[2.6,3420],[2.6,3502],[2.7,3586],[2.8,3670],[3,3761],[3.3,3836],[3.3,3919],[3.5,4020],[3.5,4104],[3.5,4187],[3.5,4270],[3.5,4353],[3.5,4437],[3.9,4520],[4.1,4604],[4.1,4687],[4.1,4771],[4.1,4853],[4.1,4937],[4.1,5021],[4.1,5104],[4.1,5187],[4.1,5270],[4.1,5354],[4.6,5438],[5,5527],[5.5,5605],[6.1,5688],[6.6,5780],[7.3,5865],[8.5,5946],[10.1,6031],[11,6105],[12.4,6197],[12.7,6272],[12.8,6365],[12.8,6439],[12.9,6522],[13.7,6605],[16,6704],[17.4,6781],[17.4,6855],[17.6,6946],[18,7022],[19.1,7115],[20.4,7189],[21.9,7272],[22.3,7364],[22.3,7439],[22.3,7523],[22.3,7606],[22.3,7690],[22.3,7773],[22.3,7856],[22.3,7940],[22.3,8023],[22.3,8107],[22.3,8190],[22.3,8273],[22.3,8357],[22.3,8440],[22.3,8524],[22.3,8607],[22.3,8690],[22.3,8774],[22.3,8857],[22.3,8941],[22.3,9024],[22.3,9107],[22.3,9191],[22.3,9274],[22.3,9357],[22.3,9449],[22.3,9524],[22.3,9608],[22.3,9691],[22.3,9774],[22.3,9858],[22.3,9941],[22.3,10025],[22.3,10108],[22.3,10192],[22.3,10274],[22.3,10358],[22.3,10442],[22.3,10525],[22.3,10609],[22.3,10692],[22.3,10782],[22.3,10859],[22.3,10942],[22.3,11026],[22.3,11109],[22.3,11192],[22.3,11276],[22.3,11359],[21,11442],[21.4,11859],[23.1,11952],[23.1,12026],[23.1,12110],[23.1,12193],[23.1,12276],[23.1,12360],[23.1,12443],[23.1,12527],[23.1,12623],[23.1,12695],[23.1,12783]]",1,0,296.7991,298.8674,23.75690608,0.9262,"[{""rating"":23.756906077348066,""responseTime"":0.926200000047686}]",space,1.5403,,298.8675,Not at all,0,298.8686,,,[],,0,8,8,8,1,audio/Narrative7Situation8.wav,audio/Narrative8Situation8.wav,audio/Narrative5Situation8.wav,audio/Narrative6Situation8.wav,2,3,3,5,,,,,,,,,,,,,,,,,,,,,,,,,,,,,,,,,,,,,,,
,,,,,,6103af77bf96464bbd8407fd,2024-02-08_11h52.38.065,group3.1-3.2-social-tom,2023.2.2,Win32,56.81818182,65c5074098b851296ff0b7ed,65c514d55500ab66e68306f0,,,,,,,,,,,,,,,,,,,,,,,,,,,,,298.8686,1,audio/Narrative8Situation9.wav,301.8697,,301.8697,313.1961,"[[999,0],[999,84],[999,166],[999,250],[999,333],[999,417],[999,500],[999,583],[999,668],[999,751],[999,834],[999,918],[999,1009],[999,1085],[999,1167],[999,1251],[999,1343],[999,1426],[999,1501],[26.8,1592],[24.3,1668],[17,1760],[12,1846],[5.9,1926],[4.3,2001],[3.9,2094],[2.7,2178],[1.9,2251],[1.9,2335],[1.9,2418],[1.8,2502],[1.8,2593],[1.7,2669],[1.7,2752],[1.7,2835],[1.7,2919],[1.7,3002],[1.7,3086],[1.7,3169],[1.7,3252],[1.7,3336],[1.7,3419],[1.7,3503],[1.7,3586],[1.7,3669],[1.7,3753],[1.8,3837],[2.1,3919],[2.4,4003],[2.8,4087],[3.3,4170],[3.6,4253],[3.6,4337],[3.6,4420],[3.6,4503],[3.6,4587],[3.6,4671],[3.6,4754],[3.6,4837],[3.6,4920],[3.6,5004],[3.6,5095],[3.6,5171],[3.6,5255],[3.6,5337],[3.6,5421],[3.6,5504],[3.6,5587],[3.6,5671],[3.6,5754],[3.6,5838],[3.6,5921],[3.6,6004],[3.6,6088],[3.6,6171],[3.6,6255],[3.6,6338],[3.6,6421],[3.6,6513],[3.6,6588],[3.6,6685],[3.6,6756],[3.6,6839],[3.6,6922],[3.6,7005],[3.6,7089],[3.6,7172],[3.6,7256],[3.6,7346],[3.6,7422],[3.6,7506],[3.6,7590],[3.6,7673],[3.6,7757],[3.6,7839],[3.6,7923],[3.6,8006],[3.6,8090],[3.6,8173],[3.6,8256],[3.6,8340],[3.6,8423],[3.6,8506],[3.6,8590],[3.6,8674],[3.6,8757],[3.6,8841],[3.6,8931],[3.6,9007],[3.6,9090],[3.6,9174],[3.6,9258],[3.6,9340],[3.6,9424],[3.6,9507],[3.6,9599],[3.6,9674],[3.6,9757],[3.6,9841],[3.6,9924],[3.6,10008],[3.6,10091],[3.6,10184],[3.6,10258],[3.6,10349],[3.6,10425],[3.6,10508],[3.6,10591],[3.6,10675],[3.9,10776],[4.4,10859],[4.6,10942],[4.6,11025],[4.6,11108],[4.6,11192],[4.6,11276]]",1,0,313.1961,315.2974,0.441990636,1.1177,"[{""rating"":0.4419906363302806,""responseTime"":1.1177000000476482}]",space,1.5659,,315.2976,Not at all,0,315.2981,,,[],,0,9,9,9,1,audio/Narrative7Situation9.wav,audio/Narrative8Situation9.wav,audio/Narrative5Situation9.wav,audio/Narrative6Situation9.wav,2,3,3,4,,,,,,,,,,,,,,,,,,,,,,,,,,,,,,,,,,,,,,,
,,,,,,6103af77bf96464bbd8407fd,2024-02-08_11h52.38.065,group3.1-3.2-social-tom,2023.2.2,Win32,56.81818182,65c5074098b851296ff0b7ed,65c514d55500ab66e68306f0,,,,,,,,,,,,,,,,,,,,,,,,,,,,,315.2982,1,audio/Narrative7Situation1.wav,317.2991,,317.2991,373.1612,"[[999,0],[999,83],[999,166],[999,249],[999,333],[999,416],[999,500],[999,584],[999,667],[999,750],[999,834],[999,917],[999,1001],[999,1098],[999,1180],[999,1259],[999,1343],[999,1426],[999,1513],[999,1592],[999,1676],[999,1762],[999,1843],[5.2,1927],[4.9,2011],[3,2093],[2.5,2177],[1.7,2260],[1.5,2343],[1.2,2427],[1.2,2510],[1.2,2594],[1.2,2677],[1.2,2760],[1.2,2844],[1.2,2928],[1.2,3016],[1.2,3098],[1.2,3181],[1.2,3260],[1.2,3344],[1.2,3427],[1.2,3511],[1.2,3594],[1.2,3677],[1.2,3762],[1.2,3845],[1.2,3931],[1.2,4011],[1.2,4095],[1.2,4178],[1.2,4262],[1.2,4345],[1.2,4431],[1.2,4512],[1.2,4595],[1.2,4679],[1.2,4761],[1.2,4845],[1.2,4930],[1.2,5017],[1.2,5101],[1.2,5183],[1.2,5262],[1.2,5346],[1.2,5431],[1.2,5512],[1.2,5596],[1.2,5678],[1.2,5763],[1.2,5845],[1.2,5931],[1.2,6013],[1.2,6096],[1.2,6180],[1.2,6263],[1.2,6346],[1.2,6430],[1.2,6513],[1.2,6597],[1.2,6680],[1.2,6764],[1.2,6849],[1.2,6931],[1.2,7017],[1.2,7101],[1.2,7185],[1.2,7263],[1.2,7349],[1.2,7430],[1.2,7514],[1.2,7598],[1.2,7681],[1.2,7764],[1.2,7849],[1.2,7931],[1.2,8015],[1.2,8098],[1.2,8180],[1.2,8265],[1.2,8349],[1.2,8432],[1.2,8515],[1.2,8598],[1.2,8681],[1.2,8765],[1.2,8849],[1.2,8933],[1.2,9020],[1.2,9103],[1.2,9187],[1.2,9266],[1.2,9349],[1.2,9432],[1.2,9515],[1.2,9600],[1.2,9683],[1.2,9769],[1.2,9850],[1.2,9933],[1.2,10016],[1.2,10100],[1.2,10183],[1.2,10269],[1.2,10349],[1.2,10433],[1.2,10517],[1.2,10600],[1.2,10683],[1.2,10770],[1.2,10850],[1.2,10934],[1.2,11021],[1.2,11105],[1.2,11188],[1.2,11268],[1.2,11349],[1.2,11434],[1.2,11517],[1.2,11601],[1.2,11684],[1.2,11769],[1.2,11850],[1.2,11935],[1.2,12017],[1.2,12101],[1.2,12184],[1.2,12268],[1.2,12351],[1.2,12435],[1.2,12518],[1.2,12602],[1.2,12684],[1.2,12769],[1.2,12851],[1.2,12935],[1.2,13024],[1.2,13107],[1.2,13191],[1.2,13269],[1.2,13352],[1.2,13436],[1.2,13518],[1.2,13602],[1.2,13686],[1.2,13769],[1.2,13853],[1.2,13937],[1.2,14020],[1.2,14103],[1.2,14185],[1.2,14270],[1.2,14352],[1.2,14436],[1.2,14520],[1.2,14603],[1.2,14686],[1.2,14771],[1.2,14853],[1.2,14937],[1.2,15024],[1.2,15109],[1.2,15192],[1.2,15270],[1.2,15354],[1.2,15437],[1.2,15521],[1.2,15603],[1.2,15687],[1.2,15771],[1.2,15854],[1.2,15938],[1.2,16020],[1.2,16107],[1.2,16188],[1.2,16272],[1.2,16355],[1.2,16439],[1.2,16521],[1.2,16607],[1.2,16688],[1.2,16772],[1.2,16855],[1.2,16939],[1.2,17025],[1.2,17111],[1.2,17198],[1.2,17272],[1.2,17355],[1.2,17439],[1.2,17523],[1.2,17606],[1.2,17688],[1.2,17774],[1.2,17856],[1.2,17939],[1.2,18021],[1.2,18106],[1.2,18189],[1.2,18274],[1.2,18356],[1.2,18440],[1.2,18522],[1.2,18607],[1.2,18689],[1.2,18773],[1.2,18858],[1.2,18940],[1.2,19030],[1.2,19111],[1.2,19194],[1.2,19274],[1.2,19357],[1.2,19440],[1.2,19525],[1.2,19607],[1.2,19691],[1.2,19774],[1.6,19862],[2.4,19942],[3.1,20025],[3.5,20108],[4.3,20192],[5.8,20276],[7.4,20359],[8.7,20442],[9.9,20526],[10.9,20608],[11.6,20692],[12.3,20776],[12.6,20859],[12.7,20941],[12.7,21029],[12.7,21112],[12.7,21200],[12.7,21276],[12.7,21360],[12.7,21442],[12.7,21526],[12.7,21608],[12.7,21692],[12.7,21776],[12.7,21859],[12.7,21946],[12.7,22026],[12.7,22109],[12.7,22194],[12.7,22276],[12.7,22359],[12.7,22442],[12.7,22525],[12.7,22610],[12.7,22693],[12.7,22777],[12.7,22859],[12.7,22945],[12.7,23030],[12.7,23114],[12.7,23199],[12.7,23277],[12.7,23360],[12.7,23443],[12.7,23527],[12.7,23610],[12.7,23694],[12.7,23777],[12.7,23862],[12.7,23944],[12.7,24027],[12.7,24112],[12.7,24194],[12.7,24278],[12.7,24361],[12.7,24445],[12.7,24527],[12.7,24612],[12.7,24695],[12.7,24779],[12.7,24864],[12.7,24946],[12.7,25032],[12.7,25116],[12.7,25197],[12.7,25279],[12.7,25364],[12.7,25446],[12.7,25529],[12.7,25613],[12.7,25695],[12.7,25779],[12.7,25863],[12.7,25946],[12.7,26029],[12.7,26112],[12.7,26196],[12.7,26280],[12.7,26363],[12.7,26446],[12.7,26529],[12.7,26613],[12.7,26696],[12.7,26780],[12.7,26864],[12.7,26946],[12.7,27033],[12.7,27118],[12.7,27199],[12.7,27280],[12.7,27363],[12.7,27447],[12.7,27530],[12.7,27615],[12.7,27696],[12.7,27782],[12.7,27863],[12.7,27948],[12.7,28031],[12.7,28115],[12.7,28198],[12.7,28282],[12.7,28364],[12.7,28449],[12.7,28531],[12.7,28615],[12.7,28698],[12.7,28782],[12.7,28865],[12.7,28949],[12.7,29036],[12.7,29119],[12.7,29200],[12.7,29281],[12.7,29365],[12.7,29449],[12.7,29532],[12.7,29616],[12.7,29698],[12.7,29783],[12.7,29866],[12.7,29949],[12.7,30032],[12.7,30117],[12.7,30201],[12.7,30283],[12.7,30365],[12.7,30449],[12.7,30533],[12.7,30617],[12.7,30702],[12.7,30784],[12.7,30866],[12.7,30951],[12.7,31037],[12.7,31121],[12.7,31198],[12.7,31284],[12.7,31367],[12.7,31451],[12.7,31534],[12.7,31617],[12.7,31702],[12.7,31784],[12.7,31867],[12.7,31951],[12.7,32033],[12.7,32118],[12.7,32201],[12.7,32284],[12.7,32367],[12.7,32451],[12.7,32534],[12.7,32618],[12.7,32702],[12.7,32785],[12.7,32868],[12.7,32952],[12.7,33038],[12.7,33126],[12.7,33201],[12.7,33284],[12.7,33368],[12.7,33452],[12.7,33535],[12.7,33622],[12.7,33702],[12.8,33786],[12.8,33870],[12.8,33953],[12.9,34035],[12.9,34122],[12.9,34202],[12.9,34287],[12.9,34370],[12.9,34453],[13,34535],[13,34621],[13,34703],[13,34787],[13,34869],[13.1,34953],[13.1,35041],[13.1,35125],[13.1,35202],[13.1,35287],[13.1,35370],[13.1,35454],[13.1,35537],[13.1,35621],[13.1,35703],[13.1,35788],[13.1,35870],[13.1,35955],[13.1,36037],[13.1,36121],[13.1,36204],[13.1,36288],[13.1,36372],[13.1,36455],[13.1,36540],[13.1,36622],[13.1,36704],[13.1,36789],[13.1,36872],[13.1,36955],[13.1,37045],[13.1,37125],[13.1,37205],[13.1,37290],[13.1,37371],[13.1,37455],[13.1,37539],[13.1,37622],[13.1,37705],[13.1,37789],[13.1,37872],[13.1,37956],[13.1,38039],[13.1,38123],[13.1,38205],[13.1,38289],[13.1,38372],[13.1,38456],[13.1,38539],[13.1,38623],[13.1,38706],[13.1,38789],[13.1,38873],[13.4,38956],[14.3,39043],[15.4,39127],[16.4,39215],[19.1,39308],[23.4,39382],[25.6,39473],[29.3,39549],[32.3,39641],[33.3,39715],[33.3,39799],[33.3,39882],[33.3,39965],[33.3,40049],[33.3,40132],[33.3,40224],[33.3,40299],[33.3,40382],[33.3,40473],[33.3,40549],[33.3,40639],[33.3,40716],[33.3,40799],[33.3,40882],[33.3,40966],[33.3,41050],[33.3,41133],[33.3,41216],[33.3,41299],[33.4,41383],[33.4,41467],[33.4,41550],[33.4,41642],[33.4,41717],[33.5,41800],[33.5,41884],[33.5,41967],[33.6,42059],[33.6,42133],[33.7,42217],[33.9,42300],[33.9,42391],[34.1,42477],[34.2,42551],[34.2,42634],[34.2,42718],[34.2,42801],[34.2,42884],[34.2,42967],[34.2,43065],[34.2,43135],[34.2,43218],[34.2,43302],[34.2,43385],[34.2,43468],[34.2,43552],[34.2,43635],[34.2,43718],[34.2,43801],[34.2,43885],[34.2,43969],[34.2,44052],[34.2,44135],[34.2,44218],[34.2,44302],[34.2,44386],[34.2,44469],[34.2,44552],[34.2,44643],[34.2,44719],[34.2,44803],[34.2,44886],[34.2,44969],[34.2,45055],[34.2,45136],[34.2,45220],[34.2,45303],[34.2,45386],[34.2,45469],[34.2,45553],[34.2,45637],[34.2,45720],[34.2,45803],[34.2,45887],[34.2,45970],[34.2,46054],[34.2,46137],[34.2,46220],[34.2,46303],[34.2,46387],[34.2,46471],[34.2,46554],[34.2,46638],[34.2,46721],[34.2,46804],[34.2,46888],[34.2,46971],[34.2,47055],[34.2,47138],[34.2,47221],[34.2,47305],[34.2,47388],[34.2,47471],[34.2,47555],[34.2,47638],[34.2,47722],[34.2,47805],[34.2,47888],[34.2,47971],[34.2,48055],[34.2,48139],[34.2,48222],[34.2,48305],[34.2,48389],[34.2,48472],[34.2,48556],[34.2,48639],[34.2,48722],[34.2,48805],[34.2,48889],[34.2,48973],[34.2,49056],[34.2,49139],[34.2,49223],[34.2,49306],[34.2,49390],[34.2,49473],[34.2,49557],[34.2,49639],[34.2,49723],[34.2,49807],[34.2,49890],[34.2,49974],[34.2,50057],[34.2,50140],[34.2,50224],[34.2,50307],[34.2,50391],[34.2,50473],[34.2,50566],[34.2,50641],[34.2,50724],[34.2,50808],[34.2,50891],[34.2,50974],[34.2,51058],[34.2,51141],[34.2,51224],[34.2,51308],[34.2,51391],[34.2,51475],[34.2,51558],[34.2,51641],[34.2,51725],[34.2,51808],[34.2,51892],[34.2,51975],[34.2,52058],[34.2,52142],[34.2,52225],[34.2,52309],[34.2,52393],[34.2,52484],[34.2,52559],[34.2,52642],[34.2,52726],[34.2,52809],[34.2,52892],[34.2,52976],[34.2,53059],[34.2,53156],[34.2,53226],[34.2,53310],[34.2,53393],[34.2,53476],[34.2,53560],[34,53644],[33.9,53727],[33.8,53810],[33.8,53893],[33.1,53985],[32.3,54060],[31.7,54144],[31.3,54227],[31.1,54310],[31.1,54394],[31.1,54477],[31,54569],[30.7,54644],[30.2,54736],[30.2,54811],[30.2,54894],[30.2,54977],[30.2,55061],[30.6,55144],[31.4,55237],[31.9,55311],[32.6,55394],[33.4,55477],[34.2,55570],[34.8,55654],[35.3,55738],[35.7,55812]]",1,0,373.1613,378.006,34.19890009,0.9454,"[{""rating"":34.198900085786434,""responseTime"":0.9454000000953897}]",space,4.303,,378.0061,All the time,100,378.0106,,,[],,0,10,10,10,1,audio/Narrative8Situation1.wav,audio/Narrative7Situation1.wav,audio/Narrative6Situation1.wav,audio/Narrative5Situation1.wav,5,2,2,5,,,,,,,,,,,,,,,,,,,,,,,,,,,,,,,,,,,,,,,
,,,,,,6103af77bf96464bbd8407fd,2024-02-08_11h52.38.065,group3.1-3.2-social-tom,2023.2.2,Win32,56.81818182,65c5074098b851296ff0b7ed,65c514d55500ab66e68306f0,,,,,,,,,,,,,,,,,,,,,,,,,,,,,378.0107,1,audio/Narrative7Situation2.wav,381.0175,,381.0175,388.4905,"[[999,3],[999,83],[999,166],[999,249],[999,333],[999,417],[999,500],[999,583],[999,667],[999,759],[999,842],[999,917],[999,1009],[999,1093],[999,1177],[25.2,1260],[24.9,1334],[23.9,1425],[22.6,1501],[19.7,1595],[17.2,1677],[15.9,1761],[15.4,1844],[14.3,1932],[13.6,2002],[13.4,2093],[13.4,2168],[13.4,2252],[13.1,2334],[10,2427],[7.6,2502],[7.5,2585],[7.5,2669],[7.5,2752],[8.7,2843],[13.2,2927],[15.7,3002],[18.2,3094],[21.5,3177],[26.1,3261],[30.6,3345],[30.9,3419],[31.1,3502],[31.9,3595],[34.8,3677],[38.4,3753],[40.7,3844],[42.4,3920],[44.3,4017],[47,4096],[47.8,4170],[48.3,4253],[50.6,4344],[53.4,4420],[58.1,4513],[62.2,4596],[66,4670],[67.1,4754],[67.1,4836],[67.1,4920],[67.1,5004],[67.1,5087],[67.1,5170],[67.1,5254],[67.1,5337],[70.6,5431],[71.3,5504],[71.3,5588],[71.3,5670],[71.2,5754],[71.2,5838],[71.1,5921],[71,6005],[71,6088],[71,6171],[71,6255],[71,6338],[71,6421],[71.1,6513],[71.3,6588],[71.4,6672],[71.4,6763],[71.4,6838],[71.5,6922],[71.8,7005],[71.8,7089],[71.8,7172],[71.8,7255],[71.8,7338],[71.8,7423]]",1,0,388.4906,390.4836,72.9281768,1.0273,"[{""rating"":72.92817679558011,""responseTime"":1.0273000001907349}]",space,1.4666,,390.4836,All the time,100,390.4842,,,[],,0,11,11,11,1,audio/Narrative8Situation2.wav,audio/Narrative7Situation2.wav,audio/Narrative6Situation2.wav,audio/Narrative5Situation2.wav,3,3,3,3,,,,,,,,,,,,,,,,,,,,,,,,,,,,,,,,,,,,,,,
,,,,,,6103af77bf96464bbd8407fd,2024-02-08_11h52.38.065,group3.1-3.2-social-tom,2023.2.2,Win32,56.81818182,65c5074098b851296ff0b7ed,65c514d55500ab66e68306f0,,,,,,,,,,,,,,,,,,,,,,,,,,,,,390.4843,1,audio/Narrative7Situation3.wav,398.4904,,398.4904,407.7313,"[[999,3],[999,82],[999,166],[999,250],[999,334],[999,418],[999,501],[999,584],[999,667],[999,750],[999,835],[999,917],[999,1001],[999,1084],[999,1167],[999,1251],[999,1333],[999,1423],[999,1505],[999,1588],[999,1667],[999,1753],[999,1835],[999,1918],[999,2000],[999,2085],[999,2168],[80.8,2253],[87,2334],[90.7,2418],[91.2,2502],[91.2,2585],[91.2,2667],[91.2,2753],[95.1,2835],[98.6,2920],[100,3002],[100,3086],[100,3168],[100,3253],[100,3335],[100,3424],[99.6,3507],[99.2,3589],[98.5,3668],[98.3,3753],[98.2,3835],[98.1,3919],[97.7,4002],[97.7,4086],[97.7,4169],[97.7,4253],[97.5,4336],[97.1,4420],[97.1,4502],[97,4587],[97,4671],[96.7,4754],[95.9,4837],[95.2,4920],[95,5004],[94.5,5087],[93.7,5171],[92.3,5255],[89.9,5337],[87.5,5426],[86.5,5509],[86.3,5588],[86,5671],[86,5754],[86,5837],[86,5921],[86,6004],[86,6087],[86,6172],[86,6255],[86,6338],[84.5,6423],[80.2,6505],[78.8,6588],[75.7,6672],[70.6,6755],[68.8,6839],[66.6,6922],[65.3,7006],[62,7092],[61.1,7172],[61.1,7255],[61.1,7338],[61,7426],[61,7509],[60.9,7589],[60.9,7672],[60.9,7756],[60.9,7839],[60.8,7924],[59.2,8005],[55.9,8092],[53.8,8173],[51.5,8258],[50.3,8340],[50.3,8424],[50.3,8506],[50.3,8591],[50.3,8673],[50.3,8757],[50.3,8840],[50.3,8924],[48.1,9008],[47.4,9091],[47.4,9173]]",1,0,407.7314,409.4492,50.05525199,0.7833,"[{""rating"":50.055251990892614,""responseTime"":0.7832999999523054}]",space,1.1842,,409.4493,Not at all,0,409.4503,,,[],,0,12,12,12,1,audio/Narrative8Situation3.wav,audio/Narrative7Situation3.wav,audio/Narrative6Situation3.wav,audio/Narrative5Situation3.wav,4,8,5,3,,,,,,,,,,,,,,,,,,,,,,,,,,,,,,,,,,,,,,,
,,,,,,6103af77bf96464bbd8407fd,2024-02-08_11h52.38.065,group3.1-3.2-social-tom,2023.2.2,Win32,56.81818182,65c5074098b851296ff0b7ed,65c514d55500ab66e68306f0,,,,,,,,,,,,,,,,,,,,,,,,,,,,,409.4503,1,audio/Narrative7Situation4.wav,412.4523,,412.4523,424.1778,"[[999,0],[999,82],[999,168],[999,249],[999,333],[999,416],[999,499],[999,582],[999,667],[999,750],[999,832],[999,918],[999,1000],[46.2,1083],[46.2,1167],[46.2,1250],[45.5,1333],[42.4,1421],[38.1,1504],[26.4,1591],[16.6,1667],[9,1750],[4.9,1835],[1.8,1916],[1.7,2000],[1.5,2084],[1.5,2168],[1.4,2252],[1.4,2335],[1.3,2418],[0.2,2501],[0.2,7930],[0.6,8024],[1,8097],[1.4,8180],[1.5,8264],[1.7,8355],[1.9,8431],[2.7,8525],[4.9,8606],[7.3,8689],[8,8764],[8.6,8856],[9.4,8939],[11,9015],[15.9,9107],[19.1,9190],[20.4,9265],[21,9348],[22.8,9432],[25,9526],[25.8,9610],[27.1,9682],[29.4,9765],[31.9,9849],[32.5,9932],[33.4,10023],[35.9,10108],[38.3,10191],[39.5,10274],[43.4,10359],[45.2,10432],[46.5,10524],[47.8,10599],[48.8,10682],[50,10775],[50.2,10849],[50.3,10932],[50.3,11016],[50.3,11100],[50.3,11182],[50.1,11275],[49.8,11349],[49.7,11447],[49.7,11517],[49.7,11600],[49.7,11683]]",1,0,424.1779,425.904,49.66851335,0.751,"[{""rating"":49.66851334545494,""responseTime"":0.7509999999999764}]",space,1.1833,,425.9041,All the time,100,425.9048,,,[],,0,13,13,13,1,audio/Narrative8Situation4.wav,audio/Narrative7Situation4.wav,audio/Narrative6Situation4.wav,audio/Narrative5Situation4.wav,3,3,2,1,,,,,,,,,,,,,,,,,,,,,,,,,,,,,,,,,,,,,,,
,,,,,,6103af77bf96464bbd8407fd,2024-02-08_11h52.38.065,group3.1-3.2-social-tom,2023.2.2,Win32,56.81818182,65c5074098b851296ff0b7ed,65c514d55500ab66e68306f0,,,,,,,,,,,,,,,,,,,,,,,,,,,,,425.9049,1,audio/Narrative7Situation5.wav,430.9081,,430.9081,439.3816,"[[999,3],[999,83],[999,166],[999,250],[999,333],[999,416],[999,500],[999,583],[999,667],[999,750],[999,834],[999,917],[999,1000],[999,1084],[46.3,1180],[43.3,1266],[40.1,1348],[37.5,1426],[31.7,1501],[19.2,1593],[1.8,2168],[3,2251],[3.5,2335],[3.5,2418],[3.4,2510],[2.5,2593],[0.9,2668],[0.2,2761],[0.2,2835],[0.2,2919]]",1,0,439.3817,441.7171,48.45303699,1.2232,"[{""rating"":48.45303698797911,""responseTime"":1.2232000000477115}]",space,1.7843,,441.7171,Not at all,0,441.7181,,,[],,0,14,14,14,1,audio/Narrative8Situation5.wav,audio/Narrative7Situation5.wav,audio/Narrative6Situation5.wav,audio/Narrative5Situation5.wav,2,5,2,5,,,,,,,,,,,,,,,,,,,,,,,,,,,,,,,,,,,,,,,
,,,,,,6103af77bf96464bbd8407fd,2024-02-08_11h52.38.065,group3.1-3.2-social-tom,2023.2.2,Win32,56.81818182,65c5074098b851296ff0b7ed,65c514d55500ab66e68306f0,,,,,,,,,,,,,,,,,,,,,,,,,,,,,441.7181,1,audio/Narrative7Situation6.wav,444.7193,,444.7193,454.686,"[[999,0],[999,83],[999,167],[999,250],[999,333],[999,416],[999,500],[999,584],[999,667],[999,750],[999,833],[999,917],[999,1000],[999,1093],[999,1175],[999,1250],[999,1334],[999,1426],[999,1509],[999,1585],[999,1675],[999,1759],[999,1843],[999,1927],[999,2001],[4.5,2094],[2.3,2177],[2.2,2251],[2.2,2335],[2.2,2418],[2.2,2502],[2.2,2585],[0.7,4086],[0.8,4170],[0.8,4260],[0.8,4336],[0.8,4428],[0.8,4503],[0.8,4587],[0.8,4670],[0.8,4754],[0.8,4837],[0.8,4920],[0.8,5004],[0.7,5095],[0.7,5171],[0.7,5254],[0.7,5337],[0.7,5429],[0.7,5504],[0.7,5587],[0.7,5671],[0.6,5761],[0.6,5838],[0.6,5921],[0.6,6004],[0.6,6088],[0.6,6171],[0.6,6255],[0.6,6338],[0.6,6421],[0.6,6505],[0.6,6589],[0.6,6672],[0.6,6755],[0.6,6838],[0.6,6921],[0.6,7005],[0.6,7089],[0.6,7172],[0.6,7255],[0.6,7339],[0.6,7422],[0.5,7506],[0.4,7589],[0.4,7673],[0.4,7756],[0.1,9341],[0.8,9433],[0.9,9508],[0.9,9591],[0.9,9674],[0.9,9758],[0.6,9842],[0.3,9925]]",1,0,454.686,456.3955,0.165747542,0.9026,"[{""rating"":0.16574754240762934,""responseTime"":0.9026000001430248}]",space,1.168,,456.3955,Not at all,0,456.396,,,[],,0,15,15,15,1,audio/Narrative8Situation6.wav,audio/Narrative7Situation6.wav,audio/Narrative6Situation6.wav,audio/Narrative5Situation6.wav,2,3,2,3,,,,,,,,,,,,,,,,,,,,,,,,,,,,,,,,,,,,,,,
,,,,,,6103af77bf96464bbd8407fd,2024-02-08_11h52.38.065,group3.1-3.2-social-tom,2023.2.2,Win32,56.81818182,65c5074098b851296ff0b7ed,65c514d55500ab66e68306f0,,,,,,,,,,,,,,,,,,,,,,,,,,,,,456.3961,1,audio/Narrative7Situation7.wav,461.3997,,461.3997,478.5722,"[[999,3],[999,83],[999,166],[999,250],[999,333],[999,417],[999,500],[999,584],[999,667],[999,750],[999,833],[999,917],[999,1000],[999,1084],[999,1175],[999,1250],[999,1342],[999,1417],[2.5,1509],[2.6,1592],[2.5,1668],[2.4,1759],[2.4,1834],[2.4,1918],[2.4,2001],[2.8,2092],[2.8,2168],[2.8,2251],[2.8,2335],[2.8,2418],[2.8,2501],[2.8,2585],[2.8,2669],[2.8,2752],[2.8,2835],[2.8,2919],[2.8,3002],[2.9,3085],[3,3177],[3,3252],[3,3336],[3,3419],[3.3,3502],[3.4,3595],[3.4,3677],[3.5,3763],[3.8,3836],[4.4,3929],[4.9,4012],[5.1,4086],[5.4,4179],[5.6,4253],[5.9,4344],[6,4420],[6.2,4503],[6.4,4607],[6.7,4713],[7.2,4796],[8,4879],[8.6,4953],[9,5045],[9,5121],[9,5211],[9,5288],[9,5379],[9,5454],[9.3,5545],[13.6,5629],[20.4,5713],[24.8,5796],[28.6,5881],[30.1,5963],[33.1,6046],[35.1,6121],[36.6,6205],[41.1,6298],[44.8,6382],[47.2,6456],[48.7,6552],[49.4,6622],[50,6715],[50.3,6797],[50.7,6872],[51.5,6964],[52.4,7047],[53.4,7122],[55.2,7213],[55.5,7289],[55.5,7372],[55.5,7464],[55.5,7539],[55.5,7629],[55.5,7706],[55.5,7796],[55.5,7872],[55.5,7957],[55.5,8039],[55.5,8123],[55.5,8206],[55.5,8290],[55.5,8373],[55.5,8459],[55.5,8540],[55.5,8624],[55.5,8706],[55.5,8790],[55.5,8873],[55.5,8957],[55.5,9040],[55.5,9123],[55.5,9207],[55.5,9290],[55.5,9374],[55.5,9457],[55.5,9541],[55.5,9624],[55.5,9708],[55.5,9791],[55.5,9874],[55.5,9957],[55.5,10040],[55.5,10124],[55.5,10208],[55.5,10291],[55.3,10375],[54.8,10475],[54.2,10554],[53.9,10638],[53.4,10717],[52.9,10800],[52.4,10884],[52.1,10967],[51.6,11050],[50.6,11133],[50.1,11217],[49.8,11300],[49,11384],[47.5,11468],[46.2,11550],[43.4,11634],[37.2,13136],[37.7,13220],[38.1,13302],[38.1,13385],[38.1,13468],[37.5,13552],[36.2,13636],[34.6,13720],[33.2,13802],[32.5,13886],[31.9,13970],[31.5,14053],[31.5,14136],[31.5,14219],[31.5,14302],[31.5,14387],[31.5,14474],[31.5,14556],[31.3,14642],[30.7,14721],[30.7,14804],[30.7,14887],[30.7,14970],[30.7,15054],[30.7,15137],[30.7,15221],[30.7,15304],[30.7,15387],[30.7,15471],[30.7,15555],[30.7,15638],[30.7,15721],[30.7,15804],[30.7,15888],[30.7,15971],[30.7,16054],[30.7,16137],[30.7,16221],[30.7,16305],[30.8,16388],[31.2,16475],[32.6,16560],[33.7,16643],[33.9,16723],[34,16805],[34,16889],[34,16971],[34,17055],[34.1,17138]]",1,0,478.5723,480.9651,50.44199064,1.3225,"[{""rating"":50.44199063633028,""responseTime"":1.322499999999991}]",space,1.8515,,480.9652,Half the time,50,480.966,,,[],,0,16,16,16,1,audio/Narrative8Situation7.wav,audio/Narrative7Situation7.wav,audio/Narrative6Situation7.wav,audio/Narrative5Situation7.wav,3,5,5,4,,,,,,,,,,,,,,,,,,,,,,,,,,,,,,,,,,,,,,,
,,,,,,6103af77bf96464bbd8407fd,2024-02-08_11h52.38.065,group3.1-3.2-social-tom,2023.2.2,Win32,56.81818182,65c5074098b851296ff0b7ed,65c514d55500ab66e68306f0,,,,,,,,,,,,,,,,,,,,,,,,,,,,,480.9661,1,audio/Narrative7Situation8.wav,482.9671,,482.9671,492.9759,"[[999,0],[999,83],[999,166],[999,249],[999,333],[999,417],[999,500],[999,584],[999,667],[999,750],[999,841],[999,930],[999,1000],[999,1083],[999,1176],[999,1250],[999,1334],[999,1417],[999,1500],[999,1584],[999,1668],[999,1751],[999,1834],[999,1917],[999,2001],[999,2093],[999,2168],[999,2251],[999,2334],[999,2418],[999,2502],[999,2585],[999,2668],[999,2752],[999,2835],[999,2919],[999,3002],[999,3086],[999,3168],[999,3252],[999,3335],[999,3419],[999,3502],[999,3585],[999,3669],[999,3753],[999,3836],[999,3919],[999,4002],[999,4086],[999,4170],[999,4253],[999,4336],[999,4419],[999,4503],[999,4586],[999,4670],[999,4753],[999,4837],[999,4920],[999,5004],[999,5087],[999,5170],[999,5253],[999,5337],[999,5421],[999,5504],[999,5587],[999,5671],[999,5754],[999,5837],[999,5920],[999,6004],[999,6087],[999,6171],[999,6254],[999,6338],[999,6421],[999,6505],[999,6588],[999,6672],[999,6755],[999,6839],[999,6922],[999,7005],[999,7089],[999,7172],[999,7255],[999,7339],[999,7422],[999,7506],[999,7589],[999,7672],[999,7755],[999,7839],[999,7923],[999,8007],[999,8089],[999,8173],[999,8256],[999,8340],[999,8423],[999,8506],[999,8589],[999,8673],[999,8757],[999,8840],[999,8924],[999,9007],[999,9090],[999,9174],[999,9257],[999,9341],[999,9424],[999,9507],[999,9599],[999,9674],[999,9757],[999,9841],[999,9924],[999,10008]]",1,0,492.976,496.945,48.50828898,2.8746,"[{""rating"":48.508288978871725,""responseTime"":2.8745999999046603}]",space,3.4237,,496.945,Half the time,50,496.9456,,,[],,0,17,17,17,1,audio/Narrative8Situation8.wav,audio/Narrative7Situation8.wav,audio/Narrative6Situation8.wav,audio/Narrative5Situation8.wav,3,2,5,3,,,,,,,,,,,,,,,,,,,,,,,,,,,,,,,,,,,,,,,
,,,,,,6103af77bf96464bbd8407fd,2024-02-08_11h52.38.065,group3.1-3.2-social-tom,2023.2.2,Win32,56.81818182,65c5074098b851296ff0b7ed,65c514d55500ab66e68306f0,,,,,,,,,,,,,,,,,,,,,,,,,,,,,496.9457,1,audio/Narrative7Situation9.wav,498.947,,498.947,507.5534,"[[999,0],[999,83],[999,166],[999,249],[999,333],[999,417],[999,500],[999,583],[999,666],[999,750],[999,833],[999,917],[999,1000],[999,1084],[999,1168],[999,1265],[999,1334],[999,1417],[999,1501],[999,1591],[999,1675],[40,1760],[40.3,1834],[40.3,1917],[40.2,2002],[38.8,2084],[36.5,2175],[33.8,2251],[30.6,2335],[28,2427],[26.4,2502],[23.9,2594],[21.9,2676],[20.2,2760],[17.8,2835],[16.5,2918],[15,3003],[13.1,3085],[11.7,3170],[10.8,3270],[10.6,3352],[10.5,3435],[10.5,3518],[10.5,3602],[10.4,3686],[10.4,3769],[11.5,3863],[13.4,3936],[19.7,4020],[25.2,4103],[36,4186],[46.2,4278],[56.6,4363],[61.4,4445],[64.9,4528],[68.6,4603],[72.9,4687],[75,4769],[75.3,4853],[75.6,4937],[76.2,5021],[77.7,5118],[79.4,5187],[79.8,5285],[80.1,5354],[80.1,5437],[80.1,5520],[80.1,5603],[80.1,5687],[80.1,5780],[80.1,5854],[80.1,5937],[80.1,6021],[80.1,6104],[80.1,6188],[80.1,6271],[80.1,6355],[80.1,6437],[80.1,6522],[80.1,6605],[80.1,6688],[80.1,6771],[80.4,6863],[80.8,6938],[81.2,7029],[81.3,7106],[81.3,7189],[81.3,7272],[81.3,7355],[81.3,7438],[81.3,7522],[81.3,7606],[81.3,7689],[81.3,7772],[81.3,7855],[81.3,7939],[81,8023],[79.7,8105],[78.6,8197],[78.5,8272],[78.4,8356],[77.8,8448],[77,8523],[77,8606]]",1,0,507.5535,509.9129,71.82320442,0.8966,"[{""rating"":71.82320441988949,""responseTime"":0.8965999999046517}]",space,1.7947,,509.9129,Not at all,0,509.9139,,,[],,0,18,18,18,1,audio/Narrative8Situation9.wav,audio/Narrative7Situation9.wav,audio/Narrative6Situation9.wav,audio/Narrative5Situation9.wav,3,2,4,3,,,,,,,,,,,,,,,,,,,,,,,,,,,,,,,,,,,,,,,
,,,,,,6103af77bf96464bbd8407fd,2024-02-08_11h52.38.065,group3.1-3.2-social-tom,2023.2.2,Win32,56.81818182,65c5074098b851296ff0b7ed,65c514d55500ab66e68306f0,,,,,,,,,,,,,,,,,,,,,,,,,,,513.1287,515.7105,515.7148,2,audio/Narrative13Situation2.wav,515.7149,,515.7149,545.4762,"[[999,0],[999,87],[999,162],[999,246],[999,336],[999,421],[999,504],[999,579],[999,662],[999,745],[999,838],[32,912],[32,995],[32,1079],[32,1162],[32,1246],[29.1,1330],[27.2,1427],[26.1,1498],[24.4,1590],[23.4,1664],[22.6,1746],[22,1838],[21.9,1913],[21.9,1996],[21.9,2080],[21.9,2163],[21.9,2247],[21.8,2338],[21.7,2413],[21.6,2497],[21.4,2580],[21.2,2663],[20.8,2755],[20.5,2831],[20.3,2922],[20.2,2997],[20.2,3081],[20.2,3164],[20.2,3248],[20.2,3331],[20.2,3415],[20.2,3498],[20.2,3581],[20.2,3664],[20.2,3748],[20.2,3831],[20.2,3923],[20.2,3998],[20.2,4081],[20.2,4165],[20.2,4256],[20.2,4332],[19.7,4424],[19,4498],[18,4582],[17.3,4666],[16.4,4757],[15.5,4840],[15.1,4916],[15,4999],[15,5082],[15,5166],[15,5249],[14.8,5345],[14.7,5416],[14.7,5499],[14.5,5582],[14.3,5675],[14,5759],[13.8,5833],[13,5916],[11.7,6009],[11.5,6083],[11.5,6166],[11.5,6250],[11.5,6334],[11.5,6417],[11.5,6500],[11.5,6583],[11.5,6667],[11.5,6751],[11.5,6834],[11.5,6918],[11.5,7000],[11.5,7084],[11.5,7167],[11.5,7251],[11.5,7347],[11.5,7418],[11.5,7501],[11.5,7585],[11.5,7668],[11.5,7752],[11.5,7834],[11.5,7918],[11.5,8002],[11.5,8085],[11.5,8168],[11.5,8259],[11.5,8335],[11.5,8419],[11.5,8502],[11.5,8585],[11.5,8668],[11.5,8752],[11.5,8836],[11.5,8918],[11.5,9002],[11.5,9085],[11.5,9169],[11.5,9253],[11.5,9336],[11.5,9419],[11.5,9503],[11.5,9586],[11.5,9670],[11.5,9753],[11.5,9836],[11.5,9920],[11.5,10003],[11.5,10094],[11.5,10170],[11.5,10254],[11.5,10336],[11.5,10420],[11.5,10504],[11.5,10587],[11.5,10670],[11.5,10753],[11.5,10837],[11.5,10921],[11.5,11004],[11.5,11087],[11.5,11170],[11.5,11254],[11.5,11337],[11.5,11421],[11.5,11505],[11.5,11587],[11.5,11671],[11.8,11755],[12.4,11838],[12.7,11922],[12.7,12005],[12.7,12088],[12.7,12172],[12.7,12263],[12.7,12339],[12.7,12422],[12.7,12505],[12.7,12589],[12.7,12672],[12.7,12755],[12.5,12846],[11.7,12931],[11.2,13015],[10.3,13089],[9.6,13181],[8.7,13267],[7.8,13352],[7.1,13423],[6.1,13519],[5.9,13589],[5.5,13673],[5.5,13756],[5.5,13840],[5.5,13923],[5.5,14015],[5.5,14090],[5.5,14173],[5.5,14257],[5.5,14340],[5.5,14424],[5.5,14506],[5.5,14590],[5.5,14674],[5.5,14757],[5.5,14841],[5.5,14924],[5.5,15007],[5.5,15091],[5.5,15174],[5.5,15257],[5.5,15341],[5.5,15424],[5.5,15508],[5.5,15591],[5.5,15674],[5.5,15757],[5.5,15841],[5.5,15924],[5.5,16008],[5.5,16091],[5.5,16175],[5.5,16259],[5.5,16350],[5.5,16425],[5.5,16509],[5.5,16591],[5.5,16675],[5.5,16759],[5.5,16842],[5.5,16926],[5.5,17009],[5.5,17092],[5.5,17176],[5.5,17259],[5.5,17342],[5.5,17426],[5.5,17509],[5.5,17592],[5.5,17676],[5.5,17759],[5.5,17842],[5.5,17926],[5.5,18010],[5.5,18093],[5.5,18176],[5.5,18260],[5.5,18343],[5.5,18427],[5.5,18510],[5.5,18593],[5.5,18677],[5.5,18760],[5.5,18844],[5.5,18927],[5.5,19010],[5.5,19094],[5.5,19177],[5.5,19261],[5.5,19344],[5.5,19427],[5.5,19511],[5.5,19594],[5.5,19677],[5.5,19761],[5.5,19844],[5.5,19927],[5.5,20011],[5.5,20095],[5.5,20178],[5.5,20262],[5.5,20345],[5.5,20428],[5.5,20512],[5.5,20595],[5.5,20678],[5.5,20762],[5.5,20845],[5.5,20929],[5.5,21012],[5.5,21096],[5.5,21179],[5.5,21262],[5.5,21346],[5.5,21429],[5.5,21519],[5.5,21596],[5.5,21679],[5.5,21763],[5.5,21846],[5.5,21929],[5.5,22013],[5.5,22096],[5.5,22180],[5.5,22263],[5.5,22346],[5.5,22430],[5.5,22513],[5.5,22596],[5.5,22680],[5.5,22770],[5.5,22846],[5.5,22930],[5.5,23014],[5.5,23097],[5.5,23180],[5.5,23272],[5.5,23347],[5.5,23431],[5.5,23514],[5.5,23597],[5.5,23681],[5.5,23764],[5.5,23848],[5.5,23931],[5.5,24014],[5.5,24097],[5.5,24181],[5.5,24265],[5.5,24348],[5.5,24431],[5.6,24515],[5.7,24598],[5.7,24691],[5.7,24765],[5.8,24848],[5.8,24932],[5.8,25024],[5.8,25099],[5.9,25189],[6.1,25274],[6.5,25361],[7,25433],[7.5,25515],[8,25599],[8.5,25682],[8.8,25765],[9.1,25850],[9.6,25941],[9.9,26016],[10.2,26099],[10.5,26182],[11,26267],[11.7,26350],[12.3,26433],[13.3,26524],[14,26600],[14.6,26683],[15.6,26767],[16.5,26859],[16.9,26933],[17.3,27017],[17.4,27100],[17.6,27184],[17.7,27276],[17.8,27365],[18,27434],[18.1,27517],[18.2,27601],[18.2,27684],[18.2,27768],[18.5,27851],[18.9,27942],[19.1,28018],[19.3,28101],[19.3,28185],[19.4,28276],[19.5,28361],[19.5,28435],[19.5,28518],[19.5,28601],[19.5,28693],[19.5,28768],[19.5,28852],[19.5,28935],[19.5,29018],[19.6,29110],[19.6,29186],[19.9,29277],[20.2,29352],[20.4,29436],[20.7,29519],[21.3,29602],[21.8,29686]]",1,0,545.4762,545.4767,,,[],,,,545.4767,Half the time,50,545.4773,,,[],,0,0,0,0,1,audio/Narrative13Situation2.wav,audio/Narrative13Situation2.wav,audio/Narrative13Situation2.wav,audio/Narrative13Situation2.wav,2,2,2,2,,,,,509.9142,513.1252,space,2.6865,,,,,,,,,,,,,,,,,,,,,,,,,,,,,,,
,,,,,,6103af77bf96464bbd8407fd,2024-02-08_11h52.38.065,group3.1-3.2-social-tom,2023.2.2,Win32,56.81818182,65c5074098b851296ff0b7ed,65c514d55500ab66e68306f0,,,,,,,,,,,,,,,,,,,,,,,,,,,,,545.4774,2,audio/Narrative6Situation1.wav,547.4862,,547.4862,574.0913,"[[24.4,1009],[24.1,1083],[23.6,1175],[23.4,1259],[23.4,1334],[23.4,1426],[23.4,1500],[23.4,1584],[23.4,1668],[23.4,1751],[23.3,1842],[23.1,1927],[23,2001],[22.7,2094],[22.5,2176],[22.2,2251],[21.7,2335],[21.2,2427],[21,2501],[20.9,2584],[20.9,2668],[20.9,2758],[20.9,2835],[20.9,2919],[20.9,3002],[20.9,3085],[20.9,3168],[20.9,3260],[20.9,3335],[20.9,3418],[20.8,3511],[20.7,3599],[20.7,3670],[20.2,3762],[19.7,3836],[19.2,3928],[19,4003],[18.8,4086],[18.8,4170],[19.3,4252],[20.7,4347],[21.4,4419],[22.3,4503],[22.4,4587],[22.4,4670],[22.4,4753],[22.4,4836],[22.4,4920],[22.4,5004],[22.2,5087],[21.5,5170],[20.1,5254],[18,5337],[16.5,5428],[14.6,5512],[13.6,5587],[12.8,5671],[12.2,5763],[11.9,5837],[11.9,5921],[11.9,6004],[11.9,6087],[11.9,6171],[11.9,6255],[11.9,6338],[11.9,6421],[11.9,6504],[11.9,6588],[11.5,6680],[11.3,6755],[10.6,6839],[9.6,6922],[8.5,7005],[8.4,7089],[8.1,7172],[7,7266],[5.7,7339],[4.6,7430],[4.3,7506],[4.3,7589],[4.3,7672],[4.3,7755],[4.3,7839],[4.3,7923],[4.3,8006],[4.3,8103],[4.3,8173],[4.3,8267],[4.3,8347],[4.3,8423],[4.3,8506],[4.3,8589],[4.3,8673],[4.3,8756],[4.3,8840],[4.3,8924],[4.3,9007],[4.3,9098],[4.6,9182],[4.9,9257],[4.9,9341],[4.9,9423],[4.9,9507],[4.9,9592],[4.9,9674],[4.9,9757],[4.9,9841],[4.9,9924],[4.9,10007],[4.9,10091],[4.9,10174],[4.9,10258],[4.9,10341],[4.9,10425],[4.9,10508],[4.9,10591],[4.9,10675],[4.9,10766],[4.9,10842],[4.9,10925],[4.9,11009],[4.9,11091],[4.9,11175],[4.9,11259],[4.6,11351],[4.1,11426],[3.9,11509],[3.9,11592],[3.9,11676],[3.9,11759],[3.9,11842],[3.9,11925],[3.9,12009],[3.9,12093],[3.9,12176],[3.9,12267],[4,12352],[4.3,12426],[4.4,12510],[4.5,12601],[4.5,12676],[4.5,12760],[4.5,12843],[4.5,12927],[4.5,13019],[4.5,13093],[4.5,13177],[4.5,13269],[4.5,13351],[4.5,13427],[4.5,13510],[4.5,13593],[4.5,13678],[4.5,13761],[4.5,13844],[4.5,13927],[4.5,14011],[4.6,14094],[4.6,14177],[4.7,14261],[4.8,14353],[4.9,14428],[5.1,14511],[5.4,14604],[5.7,14678],[5.8,14762],[5.8,14845],[5.8,14928],[5.8,15012],[5.8,15095],[5.8,15178],[5.8,15261],[5.8,15345],[5.8,15429],[5.8,15512],[5.8,15604],[6.1,15679],[6.4,15762],[7.5,15854],[9,15929],[12.4,16028],[13,16096],[14.2,16179],[16.9,16263],[18.9,16346],[21.9,16438],[24.4,16523],[27.6,16606],[30.1,16689],[33.7,16772],[36.7,16855],[38.4,16930],[38.9,17013],[38.9,17097],[38.9,17180],[38.9,17264],[38.9,17347],[38.9,17438],[38.9,17514],[38.9,17597],[38.9,17681],[38.9,17764],[38.9,17856],[38.9,17931],[38.9,18014],[38.9,18098],[38.9,18181],[38.9,18264],[38.9,18348],[38.9,18431],[38.9,18515],[38.9,18598],[38.9,18681],[38.9,18765],[38.9,18848],[38.9,18932],[38.9,19015],[38.9,19098],[38.9,19182],[38.9,19265],[38.9,19348],[38.9,19432],[38.9,19515],[38.9,19599],[38.9,19682],[38.9,19766],[38.9,19849],[38.9,19947],[38.9,20017],[38.9,20099],[38.9,20183],[38.9,20274],[38.9,20349],[38.9,20433],[38.9,20516],[38.9,20600],[38.9,20683],[38.9,20766],[38.9,20850],[38.9,20933],[38.9,21016],[38.9,21100],[38.9,21183],[38.9,21267],[38.9,21350],[38.9,21433],[38.9,21517],[38.9,21600],[38.9,21684],[38.9,21767],[38.9,21851],[38.9,21934],[38.9,22017],[38.9,22102],[38.9,22184],[38.9,22275],[38.9,22351],[38.9,22434],[38.9,22518],[38.9,22601],[38.9,22685],[38.9,22768],[38.9,22851],[38.9,22935],[38.9,23018],[38.8,23112],[38.8,23185],[38.8,23277],[38.8,23352],[38.8,23435],[38.8,23519],[38.8,23602],[38.8,23685],[38.8,23769],[38.8,23852],[38.8,23935],[38.8,24019],[38.8,24102],[38.8,24186],[38.8,24269],[38.8,24352],[38.8,24436],[38.8,24519],[38.8,24610],[38.8,24686],[38.7,24769],[38.7,24853],[38.6,24945],[38.5,25020],[38.5,25103],[38.5,25187],[38.5,25270],[38.5,25353],[38.5,25437],[38.5,25520],[38.5,25604],[38.5,25687],[38.5,25770],[38.5,25854],[38.5,25937],[38.5,26021],[38.5,26104],[38.5,26187],[38.5,26271],[38.5,26354],[38.5,26438],[38.5,26521],[38.5,26605]]",1,0,574.0914,577.6275,50.27624309,2.3606,"[{""rating"":50.27624309392266,""responseTime"":2.3605999999045935}]",space,3.0076,,577.6276,Not at all,0,577.6286,,,[],,0,1,1,1,1,audio/Narrative7Situation1.wav,audio/Narrative8Situation1.wav,audio/Narrative5Situation1.wav,audio/Narrative6Situation1.wav,2,5,5,2,,,,,,,,,,,,,,,,,,,,,,,,,,,,,,,,,,,,,,,
,,,,,,6103af77bf96464bbd8407fd,2024-02-08_11h52.38.065,group3.1-3.2-social-tom,2023.2.2,Win32,56.81818182,65c5074098b851296ff0b7ed,65c514d55500ab66e68306f0,,,,,,,,,,,,,,,,,,,,,,,,,,,,,577.6287,2,audio/Narrative6Situation2.wav,580.6294,,580.6294,609.136,"[[40.7,931],[39.7,1010],[39.6,1084],[39.6,1168],[39.6,1251],[39.6,1335],[37.1,1427],[30.7,1510],[26.1,1593],[21.2,1677],[15.2,1761],[11.9,1843],[10.4,1918],[6.7,2011],[5.4,2094],[4.5,2168],[3.6,2252],[2.1,2343],[1.9,2418],[1.9,2502],[1.9,2586],[1.9,2669],[1.9,2752],[1.9,2836],[1.9,2918],[1.9,3003],[1.9,3086],[1.9,3169],[1.9,3252],[1.9,3336],[1.9,3419],[1.9,3503],[1.9,3586],[1.9,3670],[1.9,3753],[1.9,3844],[1.9,3920],[1.9,4003],[1.9,4086],[1.9,4170],[1.9,4254],[1.9,4337],[1.9,4420],[1.9,4504],[1.9,4587],[1.9,4670],[1.9,4754],[1.9,4837],[1.9,4921],[1.9,5013],[1.9,5088],[2.1,5171],[2.6,5262],[2.8,5338],[2.9,5422],[2.9,5504],[2.9,5588],[2.9,5671],[2.9,5755],[2.9,5838],[2.9,5921],[2.9,6005],[3,6088],[3,6172],[3,6255],[3,6338],[3,6433],[3,6505],[3,6589],[3,6672],[3,6756],[3,6838],[3,6923],[3,7014],[3,7090],[3,7172],[3,7256],[3,7339],[3,7423],[3,7506],[3,7589],[3,7673],[3,7762],[3,7840],[3,7923],[3,8006],[3,8090],[3,8182],[3,8257],[3,8340],[3,8424],[3,8507],[3,8599],[3,8674],[3,8757],[3,8841],[3,8924],[3,9007],[3,9091],[3,9174],[3,9257],[3,9341],[3,9425],[3,9508],[3,9591],[3,9674],[3,9766],[3,9841],[3,9925],[3,10009],[3,10092],[3,10175],[3,10258],[3,10341],[3,10425],[3,10509],[3,10592],[3,10675],[3,10759],[3,10843],[3,10926],[3,11017],[3,11092],[3,11175],[3,11259],[3,11342],[3,11426],[3,11516],[3,11593],[3,11676],[3,11759],[3,11843],[3,11926],[3,12010],[3,12093],[3,12177],[3,12260],[3,12343],[3,12427],[3,12510],[3,12594],[3,12677],[3,12760],[3,12844],[3,12927],[3,13010],[3,13094],[3,13177],[3,13261],[3,13344],[3,13428],[3,13511],[3.1,13594],[3.1,13678],[3.1,13761],[3.1,13844],[3.1,13928],[3.1,14011],[3.1,14095],[3.1,14186],[3.1,14261],[3.1,14345],[3.1,14428],[3.1,14512],[3.1,14595],[3.1,14679],[3,14762],[3,14845],[3,14930],[3,15012],[3,15104],[3,15179],[3,15263],[2.7,15355],[2.7,15429],[2.7,15513],[2.7,15596],[2.7,15679],[2.7,15771],[2.7,15846],[2.7,15929],[2.7,16013],[2.7,16096],[2.7,16180],[2.7,16263],[2.7,16347],[2.7,16438],[2.7,16513],[2.7,16597],[2.7,16680],[2.7,16764],[2.7,16848],[2.7,16930],[2.7,17014],[4.6,17109],[5.4,17180],[5.7,17264],[7,17356],[7.6,17440],[7.7,17514],[7.9,17598],[8.2,17681],[8.5,17774],[8.5,17848],[8.6,17931],[8.7,18014],[8.7,18098],[8.7,18190],[9,18265],[9.1,18348],[9.4,18432],[9.5,18515],[9.6,18598],[9.6,18681],[9.6,18765],[9.6,18849],[9.6,18933],[9.6,19015],[9.6,19099],[9.6,19183],[9.6,19265],[9.6,19349],[9.6,19432],[9.6,19516],[9.6,19599],[9.6,19682],[9.6,19766],[9.6,19849],[9.6,19933],[9.6,20016],[9.6,20107],[9.6,20183],[9.6,20266],[9.6,20350],[9.6,20433],[9.6,20517],[9.6,20600],[9.6,20683],[9.6,20767],[9.6,20851],[9.6,20934],[9.6,21017],[9.6,21101],[9.6,21192],[9.6,21267],[9.6,21351],[9.6,21434],[9.6,21517],[9.6,21601],[9.6,21693],[9.6,21777],[9.6,21851],[9.6,21934],[9.6,22018],[9.6,22101],[9.6,22184],[9.6,22268],[9.6,22351],[9.6,22435],[9.6,22518],[9.6,22601],[9.6,22685],[9.6,22768],[9.6,22852],[9.6,22949],[9.6,23019],[9.6,23102],[9.6,23185],[9.6,23269],[9.6,23352],[9.6,23435],[9.6,23519],[9.6,23602],[9.6,23686],[9.6,23770],[9.6,23853],[9.6,23936],[9.6,24019],[9.6,24103],[9.6,24187],[9.6,24269],[9.6,24353],[9.6,24436],[9.5,24520],[9.5,24604],[9.5,24687],[9.5,24770],[9.5,24853],[9.4,24951],[9.4,25020],[9.4,25112],[9.4,25187],[9.4,25270],[9.4,25354],[9.4,25437],[9.4,25520],[9.4,25604],[9.4,25687],[9.4,25771],[9.4,25854],[9.4,25937],[9.4,26021],[9.8,26113],[9.8,26188],[10.2,26280],[11.3,26355],[13,26438],[13.2,26521],[13.5,26605],[13.8,26688],[14.5,26772],[15,26855],[15.7,26951],[15.8,27022],[15.8,27105],[15.8,27189],[15.8,27272],[15.8,27355],[15.8,27439],[15.8,27530],[15.8,27606],[15.8,27689],[15.8,27772],[15.8,27856],[15.8,27939],[15.8,28022],[15.8,28106],[15.8,28198],[15.8,28273],[15.8,28356],[15.8,28440]]",1,0,609.1361,611.5379,22.26519506,1.1303,"[{""rating"":22.26519505621979,""responseTime"":1.1303000001906867}]",space,1.8691,,611.538,Not at all,0,611.5388,,,[],,0,2,2,2,1,audio/Narrative7Situation2.wav,audio/Narrative8Situation2.wav,audio/Narrative5Situation2.wav,audio/Narrative6Situation2.wav,3,3,3,3,,,,,,,,,,,,,,,,,,,,,,,,,,,,,,,,,,,,,,,
,,,,,,6103af77bf96464bbd8407fd,2024-02-08_11h52.38.065,group3.1-3.2-social-tom,2023.2.2,Win32,56.81818182,65c5074098b851296ff0b7ed,65c514d55500ab66e68306f0,,,,,,,,,,,,,,,,,,,,,,,,,,,,,611.5389,2,audio/Narrative6Situation3.wav,616.5428,,616.5428,629.1695,"[[999,3],[999,83],[999,167],[999,249],[999,333],[999,416],[999,499],[999,583],[999,666],[999,750],[999,842],[999,918],[25.7,1000],[25.6,1091],[25.6,1167],[25.5,1258],[24.9,1334],[24.1,1425],[22.8,1500],[21.2,1584],[19.4,1668],[18.8,1750],[18.8,1834],[19,1917],[24.3,2009],[29.9,2085],[35.9,2176],[41.8,2260],[43.3,2334],[43.6,2428],[44.1,2502],[45.7,2584],[49.3,2676],[52.7,2751],[56.6,2835],[61.2,2934],[63.2,3016],[65.2,3086],[69.8,3177],[73.4,3251],[79.7,3344],[82.9,3419],[87,3502],[89.5,3592],[91.9,3669],[93.1,3752],[93.6,3835],[93.6,3918],[94.3,4010],[95.2,4093],[95.8,4178],[96.9,4253],[97.7,4336],[97.8,4419],[97.8,4503],[97.8,4586],[97.8,4676],[97.7,4753],[97.7,4836],[97.6,4920],[97.5,5004],[97.3,5087],[97.3,5170],[97.3,5253],[97.3,5337],[97.3,5421],[97.3,5503],[97.3,5587],[97.3,5670],[97.3,5754],[97.3,5837],[97.3,5920],[97.3,6004],[97.3,6087],[97.3,6178],[97.3,6254],[97.3,6337],[97.3,6421],[97.3,6504],[97.3,6588],[97.3,6679],[97.3,6762],[97.3,6838],[97.2,6936],[97.1,7005],[97,7089],[96.9,7171],[96.8,7255],[96.8,7338],[96.7,7430],[96.7,7505],[96.6,7588],[96.6,7672],[96.3,7755],[96.2,7840],[96.2,7923],[96.2,8006],[96.2,8089],[96.2,8173],[96.2,8256],[96.1,8340],[95.9,8422],[95.9,8506],[95.8,8597],[95.7,8681],[95.7,8756],[95.6,8840],[95.1,8939],[93.2,9020],[92.9,9106],[92.9,9190],[92.9,9273],[92.9,9357],[92.9,9440],[92.9,9523],[92.9,9607],[92.9,9690],[92.9,9774],[92.9,9857],[92.9,9940],[92.9,10024],[92.4,10107],[92.3,10190],[92.1,10274],[91.9,10357],[91.5,10441],[91.2,10524],[91.1,10607],[91.1,10691],[91.1,10774],[91.1,10859],[91.1,10942],[91.1,11025],[91.1,11108],[91.1,11191],[91.1,11275],[91.1,11359],[91.1,11441],[91.1,11525],[91.1,11608],[91.1,11692],[91.1,11775],[91.1,11859],[91.1,11942],[91.1,12025],[91.1,12109],[91.1,12201],[91.1,12275],[91.1,12359],[91.1,12442],[91.1,12526],[91.1,12609]]",1,0,629.1695,630.7035,91.32596854,0.7132,"[{""rating"":91.32596853688277,""responseTime"":0.7132000000476637}]",space,1.0019,,630.7035,Half the time,50,630.7044,,,[],,0,3,3,3,1,audio/Narrative7Situation3.wav,audio/Narrative8Situation3.wav,audio/Narrative5Situation3.wav,audio/Narrative6Situation3.wav,8,4,3,5,,,,,,,,,,,,,,,,,,,,,,,,,,,,,,,,,,,,,,,
,,,,,,6103af77bf96464bbd8407fd,2024-02-08_11h52.38.065,group3.1-3.2-social-tom,2023.2.2,Win32,56.81818182,65c5074098b851296ff0b7ed,65c514d55500ab66e68306f0,,,,,,,,,,,,,,,,,,,,,,,,,,,,,630.7046,2,audio/Narrative6Situation4.wav,632.7056,,632.7056,645.3488,"[[59.9,847],[53.3,925],[51.5,1009],[51.2,1091],[50.6,1175],[49.9,1261],[49.8,1333],[49.8,1417],[49.8,1500],[49.8,1584],[49.8,1667],[47.1,1761],[35.4,1833],[24.6,1925],[21.7,2010],[16.5,2093],[12.5,2167],[8.3,2261],[7.2,2335],[6.4,2426],[5.7,2501],[4.8,2594],[3.5,2668],[2.4,2752],[1.8,2847],[1.8,2919],[1.8,3002],[1.8,3085],[1.8,3168],[1.8,3259],[1.8,3336],[1.8,3418],[1.8,3502],[1.8,3585],[1.8,3669],[1.8,3752],[1.8,3836],[1.8,3919],[1.8,4003],[1.8,4086],[1.8,4169],[1.8,4253],[1.8,4336],[1.8,4419],[1.8,4503],[1.8,4586],[1.8,4669],[1.8,4753],[1.8,4836],[1.8,4920],[1.8,5004],[1.8,5087],[1.8,5170],[1.8,5254],[1.8,5337],[1.8,5421],[1.8,5504],[1.8,5587],[1.8,5670],[1.8,5754],[1.8,5838],[1.8,5921],[1.8,6004],[1.8,6087],[1.8,6171],[1.8,6254],[1.8,6338],[1.8,6421],[1.8,6505],[1.8,6588],[1.8,6671],[1.8,6755],[1.8,6838],[1.8,6922],[1.8,7005],[1.8,7088],[1.8,7180],[1.8,7255],[1.8,7339],[1.8,7422],[1.8,7506],[1.8,7589],[1.8,7672],[1.8,7762],[1.8,7839],[1.8,7923],[1.8,8005],[1.8,8089],[1.8,8173],[1.8,8256],[1.8,8340],[1.8,8423],[1.8,8506],[1.8,8590],[1.8,8673],[1.8,8756],[1.8,8852],[1.8,8923],[1.8,9006],[1.8,9090],[1.8,9173],[1.8,9257],[1.8,9340],[1.8,9424],[1.8,9507],[1.8,9591],[1.8,9673],[1.8,9757],[1.8,9841],[1.8,9924],[1.8,10007],[1.8,10091],[1.8,10174],[1.8,10257],[1.8,10341],[1.8,10424],[1.8,10508],[1.8,10591],[1.8,10675],[1.8,10758],[1.8,10842],[1.8,10925],[1.8,11008],[1.8,11092],[1.8,11175],[1.8,11259],[1.8,11342],[1.8,11425],[1.8,11509],[1.8,11592],[1.8,11676],[1.8,11759],[1.8,11842],[1.8,11926],[1.8,12009],[1.8,12092],[1.8,12176],[1.8,12259],[1.8,12343],[1.8,12426],[1.8,12510],[1.9,12592]]",1,0,645.3489,646.9503,0.828729282,0.7751,"[{""rating"":0.8287292817679537,""responseTime"":0.7750999999046826}]",space,1.0707,,646.9503,Half the time,50,646.9508,,,[],,0,4,4,4,1,audio/Narrative7Situation4.wav,audio/Narrative8Situation4.wav,audio/Narrative5Situation4.wav,audio/Narrative6Situation4.wav,3,3,1,2,,,,,,,,,,,,,,,,,,,,,,,,,,,,,,,,,,,,,,,
,,,,,,6103af77bf96464bbd8407fd,2024-02-08_11h52.38.065,group3.1-3.2-social-tom,2023.2.2,Win32,56.81818182,65c5074098b851296ff0b7ed,65c514d55500ab66e68306f0,,,,,,,,,,,,,,,,,,,,,,,,,,,,,646.9509,2,audio/Narrative6Situation5.wav,648.9517,,648.9517,656.9248,"[[4.9,333],[4.9,424],[4.9,500],[4.9,583],[4.9,667],[4.9,751],[4.9,834],[4.9,917],[4.9,1001],[4.9,1084],[4.9,1168],[4.9,1251],[4.9,1334],[4.8,1417],[4.8,1501],[4.8,1584],[4.8,1668],[4.8,1751],[4.8,1843],[4.8,1918],[4.8,2002],[4.8,2084],[4.8,2168],[4.8,2251],[4.8,2335],[4.8,2418],[4.8,2501],[4.8,2585],[4.8,2669],[4.8,2752],[4.8,2836],[4.8,2918],[4.8,3002],[4.8,3086],[4.8,3169],[4.8,3252],[4.8,3335],[4.8,3419],[4.8,3502],[4.8,3586],[4.8,3669],[4.9,3753],[4.9,3836],[4.9,3920],[4.9,4003],[4.9,4087],[4.9,4170],[4.9,4253],[4.9,4337],[4.9,4420],[4.9,4504],[4.9,4586],[4.9,4670],[4.6,4753],[4.4,4837],[3.9,4920],[3.3,5004],[1.6,5096],[0.2,5171],[0.1,7766],[0.4,7848],[0.4,7923]]",1,0,656.9249,658.7602,0.883977058,0.866,"[{""rating"":0.8839770575254646,""responseTime"":0.8659999999999854}]",space,1.3027,,658.7602,Half the time,50,658.7608,,,[],,0,5,5,5,1,audio/Narrative7Situation5.wav,audio/Narrative8Situation5.wav,audio/Narrative5Situation5.wav,audio/Narrative6Situation5.wav,5,2,5,2,,,,,,,,,,,,,,,,,,,,,,,,,,,,,,,,,,,,,,,
,,,,,,6103af77bf96464bbd8407fd,2024-02-08_11h52.38.065,group3.1-3.2-social-tom,2023.2.2,Win32,56.81818182,65c5074098b851296ff0b7ed,65c514d55500ab66e68306f0,,,,,,,,,,,,,,,,,,,,,,,,,,,,,658.7609,2,audio/Narrative6Situation6.wav,660.7618,,660.7618,671.8541,"[[0.8,592],[0.7,666],[0.7,750],[0.7,833],[0.7,917],[0.7,1000],[0.7,1083],[0.7,1167],[0.7,1258],[0.7,1334],[0.7,1417],[0.7,1500],[0.7,1584],[0.7,1667],[0.7,1751],[0.7,1834],[0.7,1918],[0.7,2008],[0.7,2084],[0.7,2168],[0.7,2251],[0.7,2335],[0.7,2418],[0.9,2501],[1,2595],[1,2668],[1.1,2752],[1.1,2835],[1.3,2932],[1.3,3002],[1.4,3085],[1.4,3168],[1.7,3251],[1.8,3335],[1.8,3419],[1.8,3502],[1.8,3585],[1.8,3669],[1.8,3752],[1.8,3836],[1.8,3919],[1.8,4002],[1.8,4086],[1.8,4169],[1.8,4253],[1.8,4336],[1.8,4420],[1.8,4503],[1.8,4586],[1.8,4670],[1.8,4753],[1.8,4837],[1.8,4920],[1.8,5003],[1.8,5095],[1.8,5170],[1.8,5254],[1.8,5337],[1.8,5421],[1.8,5504],[1.8,5587],[1.8,5670],[1.8,5754],[1.8,5837],[1.8,5921],[1.8,6004],[1.8,6087],[1.8,6171],[1.8,6254],[1.8,6338],[1.8,6421],[1.8,6504],[1.8,6588],[1.8,6671],[1.8,6755],[1.8,6838],[1.8,6921],[1.8,7005],[1.8,7088],[1.8,7172],[1.8,7255],[1.8,7339],[1.8,7422],[1.8,7505],[1.8,7589],[1.8,7672],[1.8,7756],[1.8,7839],[1.8,7922],[1.8,8006],[1.8,8089],[1.8,8173],[1.8,8256],[1.8,8339],[1.8,8423],[1.8,8506],[1.8,8590],[1.8,8673],[1.8,8756],[1.8,8840],[1.8,8925],[1.8,9007],[1.8,9090],[1.8,9173],[1.8,9257],[1.8,9340],[1.8,9424],[1.8,9507],[1.8,9590],[1.8,9674],[1.8,9758],[1.8,9840],[1.8,9924],[1.8,10007],[1.8,10091],[1.8,10174],[1.8,10258],[1.8,10341],[1.8,10425],[1.8,10516],[1.8,10592],[1.8,10675],[1.8,10758],[1.8,10841],[1.8,10925],[1.8,11008],[1.8,11092]]",1,0,671.8541,673.673,1.878453882,0.7219,"[{""rating"":1.8784538817010532,""responseTime"":0.721899999856987}]",space,1.2721,,673.6731,Not at all,0,673.6739,,,[],,0,6,6,6,1,audio/Narrative7Situation6.wav,audio/Narrative8Situation6.wav,audio/Narrative5Situation6.wav,audio/Narrative6Situation6.wav,3,2,3,2,,,,,,,,,,,,,,,,,,,,,,,,,,,,,,,,,,,,,,,
,,,,,,6103af77bf96464bbd8407fd,2024-02-08_11h52.38.065,group3.1-3.2-social-tom,2023.2.2,Win32,56.81818182,65c5074098b851296ff0b7ed,65c514d55500ab66e68306f0,,,,,,,,,,,,,,,,,,,,,,,,,,,,,673.674,2,audio/Narrative6Situation7.wav,678.6768,,678.6768,703.5531,"[[1.9,1425],[2,1500],[2.1,1592],[2.1,1667],[2.1,1750],[2.1,1834],[2.1,1917],[2.1,2000],[2.1,2084],[2.1,2167],[2.1,2251],[2.1,2334],[2.1,2417],[2.1,2510],[2.1,2584],[2.1,2668],[2.1,2751],[2.1,2835],[2.1,2918],[2.1,3001],[2.1,3085],[2.1,3169],[2.1,3252],[2.1,3335],[2.1,3418],[2.1,3501],[2.1,3586],[2.1,3668],[2.1,3752],[2.1,3835],[2.1,3919],[2.1,4002],[2.1,4085],[2.1,4176],[2.1,4252],[2.1,4336],[2.1,4419],[2.1,4502],[2.1,4593],[2.1,4669],[2.1,4753],[2.1,4837],[2.1,4933],[2.1,5004],[2.1,5086],[2.1,5170],[2.1,5254],[2.1,5337],[2.1,5420],[2.1,5512],[2.1,5587],[2.1,5670],[2.1,5753],[2.1,5837],[2.1,5920],[2.1,6004],[2.1,6087],[2.1,6170],[2.1,6254],[2.1,6337],[2.1,6421],[2.1,6504],[2.1,6587],[2.1,6672],[2.1,6754],[2.1,6838],[2.1,6922],[2.1,7005],[2.1,7088],[2.1,7179],[2.1,7255],[2.1,7339],[2.1,7421],[2.1,7505],[2.1,7588],[2.1,7672],[2.1,7756],[2.1,7838],[2.1,7922],[2.1,8005],[2.1,8089],[2.1,8172],[2.1,8255],[2.1,8339],[2.1,8422],[2.1,8506],[2.1,8590],[2.1,8672],[2.1,8756],[2.1,8839],[2.1,8923],[2.1,9007],[2.1,9090],[2.1,9181],[2.1,9256],[2.1,9340],[2.1,9423],[2.1,9506],[2.1,9590],[2.1,9673],[2.1,9757],[2.1,9840],[2.1,9923],[2.1,10016],[2.1,10090],[2.1,10174],[2.1,10257],[2.1,10340],[2.1,10424],[2.1,10507],[2.1,10591],[2.1,10674],[2.1,10758],[2.1,10851],[2.1,10925],[2.1,11008],[2.1,11092],[2.1,11174],[2.1,11258],[2.1,11341],[2.1,11425],[2.1,11508],[2.1,11592],[2.1,11675],[2.1,11758],[2.1,11842],[2.1,11925],[2.1,12009],[2.1,12092],[2.1,12176],[2.1,12259],[2.1,12342],[2.1,12425],[2.1,12509],[2.1,12592],[2.1,12676],[2.1,12759],[2.1,12843],[2.1,12926],[2.1,13009],[2.1,13093],[2.1,13176],[2.1,13259],[2.1,13343],[2.1,13426],[2.1,13510],[2.1,13593],[2.1,13676],[2.1,13760],[2.1,13844],[2.1,13927],[2.1,14011],[2.1,14093],[2.1,14177],[2.1,14260],[2.1,14344],[2.1,14427],[2.1,14510],[2.1,14594],[2.1,14677],[2.1,14761],[2.1,14844],[2.1,14928],[2.1,15012],[2.1,15094],[2.1,15178],[2.1,15261],[2.1,15344],[2.1,15428],[2.1,15511],[2.1,15595],[2.1,15678],[2.1,15762],[2.1,15845],[2.1,15928],[2.1,16012],[2.1,16095],[2.1,16179],[2.1,16262],[2.1,16345],[2.1,16429],[2.1,16512],[2.1,16595],[2.1,16687],[2.1,16762],[2.1,16846],[2.1,16930],[2.1,17013],[2.1,17099],[2.1,17179],[2.1,17263],[2.1,17346],[2.1,17430],[2.1,17513],[2.1,17596],[2.1,17680],[2.1,17763],[2.1,17846],[2.1,17930],[2.1,18013],[2.1,18097],[2.1,18180],[2.1,18263],[2.1,18347],[2.1,18430],[2.1,18514],[2.1,18597],[2.1,18681],[2.1,18764],[2.1,18847],[2.1,18931],[2.1,19014],[2.1,19097],[2.1,19189],[2.1,19264],[2.1,19348],[2.1,19432],[2.1,19514],[3.2,19608],[5.8,19689],[7.5,19773],[9,19849],[10.6,19932],[13.8,20023],[16.7,20099],[20.7,20190],[24,20274],[25.7,20348],[26.4,20432],[26.4,20515],[26.5,20599],[26.5,20682],[26.5,20765],[26.5,20849],[27.3,20933],[29.6,21032],[31.2,21107],[32.6,21191],[33.5,21266],[33.9,21357],[33.9,21433],[33.9,21517],[33.9,21600],[33.9,21683],[33.9,21766],[33.9,21850],[33.9,21933],[33.9,22017],[33.9,22100],[33.9,22183],[33.9,22267],[33.9,22351],[33.9,22433],[33.9,22517],[33.9,22601],[33.9,22684],[33.9,22767],[33.9,22851],[33.9,22934],[34,23018],[34.8,23101],[35.7,23185],[36,23267],[36.4,23360],[36.9,23443],[37.7,23527],[39,23601],[40.1,23684],[40.6,23768],[41,23860],[41.2,23935],[41.5,24019],[42.3,24102],[43.5,24185],[45.6,24269],[48.3,24352],[49.1,24447],[49.3,24519],[49.4,24602],[49.4,24686],[49.4,24769],[49.4,24852]]",1,0,703.5531,705.0478,49.5027658,0.8718,"[{""rating"":49.5027658030473,""responseTime"":0.8718000001906603}]",space,0.9583,,705.0478,All the time,100,705.0487,,,[],,0,7,7,7,1,audio/Narrative7Situation7.wav,audio/Narrative8Situation7.wav,audio/Narrative5Situation7.wav,audio/Narrative6Situation7.wav,5,3,4,5,,,,,,,,,,,,,,,,,,,,,,,,,,,,,,,,,,,,,,,
,,,,,,6103af77bf96464bbd8407fd,2024-02-08_11h52.38.065,group3.1-3.2-social-tom,2023.2.2,Win32,56.81818182,65c5074098b851296ff0b7ed,65c514d55500ab66e68306f0,,,,,,,,,,,,,,,,,,,,,,,,,,,,,705.0488,2,audio/Narrative6Situation8.wav,710.0518,,710.0518,716.9157,"[[42.5,1250],[4.9,1929],[4,2011],[3.5,2094],[3.5,2177],[3.5,2259],[3.5,2344],[3.1,2428],[1.5,2510],[1.3,2593],[1.3,2677],[1.2,2761],[1,2844],[1,2927],[0.8,3011],[0.2,3094],[2.1,5096],[2.7,5179],[2.9,5261],[3.1,5348],[3.5,5429],[4.3,5512],[6.6,5601],[7.9,5684],[8.2,5763],[9.3,5848],[9.6,5930],[9.9,6013],[10.8,6097],[12,6180],[13.4,6262],[14.6,6348],[16,6430],[17.4,6514],[18.5,6597],[19.8,6680],[20.4,6763],[20.7,6848]]",1,0,716.9158,719.8683,74.5303918,2.1691,"[{""rating"":74.53039179849361,""responseTime"":2.1691000001430893}]",space,2.4181,,719.8684,All the time,100,719.8689,,,[],,0,8,8,8,1,audio/Narrative7Situation8.wav,audio/Narrative8Situation8.wav,audio/Narrative5Situation8.wav,audio/Narrative6Situation8.wav,2,3,3,5,,,,,,,,,,,,,,,,,,,,,,,,,,,,,,,,,,,,,,,
,,,,,,6103af77bf96464bbd8407fd,2024-02-08_11h52.38.065,group3.1-3.2-social-tom,2023.2.2,Win32,56.81818182,65c5074098b851296ff0b7ed,65c514d55500ab66e68306f0,,,,,,,,,,,,,,,,,,,,,,,,,,,,,719.869,2,audio/Narrative6Situation9.wav,723.8715,,723.8715,733.829,"[[999,4],[999,86],[999,168],[999,249],[999,333],[999,416],[999,499],[999,584],[999,667],[999,750],[999,834],[999,917],[999,1000],[999,1084],[999,1167],[2.4,1251],[2.3,1334],[2,1417],[2,1501],[2,1583],[2,1668],[0.9,1750],[0.1,1835],[0.4,5338],[1,5425],[1.7,5504],[3.1,5586],[5.7,5672],[10.9,5754],[14.3,5839],[15.7,5929],[16.6,6008],[16.7,6095],[16.7,6171],[16.7,6255],[16.9,6338],[18,6424],[19.4,6505],[21,6591],[22.1,6673],[23.4,6759],[24.8,6842],[26.1,6924],[27.5,7006],[28.3,7088],[28.4,7172],[28.4,7255],[28.4,7338],[28.4,7421],[28.4,7505],[28.4,7588],[28.4,7672],[28.4,7757],[28.8,7839],[30,7923],[31.3,8006],[33,8089],[34.5,8173],[36.4,8256],[38.7,8340],[40.5,8423],[42.8,8506],[46.9,8590],[47.9,8673],[48.6,8761],[49.2,8843],[49.6,8923],[49.7,9007],[49.8,9089],[49.8,9173],[49.8,9256],[49.8,9343],[49.8,9423],[49.8,9506],[49.8,9590],[49.8,9674],[49.8,9757],[49.8,9843],[49.8,9925]]",1,0,733.829,736.1486,49.83425246,0.7565,"[{""rating"":49.83425245759237,""responseTime"":0.75649999999996}]",space,1.7872,,736.1486,Half the time,50,736.1497,,,[],,0,9,9,9,1,audio/Narrative7Situation9.wav,audio/Narrative8Situation9.wav,audio/Narrative5Situation9.wav,audio/Narrative6Situation9.wav,2,3,3,4,,,,,,,,,,,,,,,,,,,,,,,,,,,,,,,,,,,,,,,
,,,,,,6103af77bf96464bbd8407fd,2024-02-08_11h52.38.065,group3.1-3.2-social-tom,2023.2.2,Win32,56.81818182,65c5074098b851296ff0b7ed,65c514d55500ab66e68306f0,,,,,,,,,,,,,,,,,,,,,,,,,,,,,736.1497,2,audio/Narrative5Situation1.wav,741.153,,741.153,754.471,"[[49,1083],[48.1,1167],[46.1,1250],[45.7,1334],[45.6,1423],[45.4,1505],[27,1616],[10.8,1701],[7,1775],[5.4,1858],[3.1,1952],[2.2,2034],[1,2108],[0.4,2192],[0.1,2275],[0.1,2359],[0.1,2442],[0.1,2525],[0.1,2609],[0.1,2692],[0.1,2785],[0.1,2859],[0.1,2942],[0.1,3026],[0.1,3110],[0.1,3193],[0.1,3276],[0.1,3360],[0.1,3444],[0.1,3526],[0.1,3609],[0.1,3693],[0.1,3784],[0.1,3860],[0.1,3943],[0.1,4026],[0.1,4110],[0.1,4194],[0.1,4277],[0.1,4360],[0.1,4444],[0.1,4527],[0.1,4619],[0.1,4694],[0.1,4778],[0.1,4861],[0.1,4944],[0.1,5027],[0.1,5111],[0.1,5194],[0.1,5278],[0.1,5361],[0.1,5445],[0.1,5528],[0.1,5611],[0.1,5694],[0.1,5778],[0.1,5861],[0.1,5945],[0.1,6028],[0.1,6112],[0.1,6195],[0.1,6279],[0.1,6362],[0.1,6445],[0.1,6529],[0.1,6612],[0.1,6696],[0.1,6779],[0.1,6862],[0.1,6946],[0.1,7038],[0.1,7113],[0.1,7196],[0.1,7279],[0.1,7371],[0.1,7446],[0.1,7529],[0.1,7613],[0.1,7696],[0.1,7780],[0.1,7863],[0.1,7947],[0.1,8031],[0.2,8113],[0.2,8205],[0.2,8280],[0.2,8363],[0.2,8447],[0.2,8530],[0.2,8613],[0.2,8697],[0.2,8780],[0.2,8864],[0.3,8948],[0.3,9040],[0.3,9114],[0.3,9198],[0.3,9287],[0.3,9365],[0.3,9449],[0.3,9531],[0.3,9614],[0.3,9698],[0.3,9781],[0.3,9864],[0.3,9948],[0.3,10032],[0.3,10115],[0.3,10198],[0.3,10282],[0.3,10365],[0.3,10448],[0.3,10532],[0.3,10615],[0.3,10699],[0.3,10782],[0.3,10874],[0.3,10949],[0.3,11032],[0.3,11115],[0.3,11199],[0.3,11283],[0.3,11366],[0.3,11450],[0.3,11533],[0.3,11616],[0.3,11699],[0.3,11783],[0.3,11867],[0.3,11949],[0.3,12033],[0.3,12125],[0.3,12200],[0.3,12283],[0.3,12367],[0.3,12450],[0.3,12534],[0.3,12617],[0.3,12700],[0.3,12793],[0.3,12867],[0.3,12951],[0.3,13034],[0.3,13117],[0.3,13209],[0.3,13284]]",1,0,754.4711,756.1802,0.497238412,1.0722,"[{""rating"":0.4972384120877915,""responseTime"":1.072200000047701}]",space,1.1698,,756.1802,All the time,100,762.9952,99.72375691,5.4043,"[{""rating"":0.4972384120877915,""responseTime"":2.18590000009533},{""rating"":99.72375690607736,""responseTime"":5.404299999952286}]",space,0,10,10,10,1,audio/Narrative8Situation1.wav,audio/Narrative7Situation1.wav,audio/Narrative6Situation1.wav,audio/Narrative5Situation1.wav,5,2,2,5,,,6.2782,,,,,,,,,,,,,,,,,,,,,,,,,,,,,,,,,,,,
,,,,,,6103af77bf96464bbd8407fd,2024-02-08_11h52.38.065,group3.1-3.2-social-tom,2023.2.2,Win32,56.81818182,65c5074098b851296ff0b7ed,65c514d55500ab66e68306f0,,,,,,,,,,,,,,,,,,,,,,,,,,,,,762.9953,2,audio/Narrative5Situation2.wav,765.9967,,765.9968,795.4553,"[[999,0],[999,83],[999,167],[999,250],[999,333],[999,417],[999,500],[999,584],[999,667],[999,750],[999,834],[999,917],[999,1000],[999,1084],[999,1175],[999,1251],[999,1344],[999,1417],[999,1509],[999,1585],[38.1,1685],[30.4,1777],[21.7,1861],[15.1,1934],[9.2,2027],[4.6,2111],[3.4,2185],[2.4,2277],[1.2,2360],[0.1,2435],[0.1,6605],[0.4,6697],[0.6,6781],[0.8,6863],[0.9,6946],[1.1,7022],[1.2,7105],[1.3,7189],[1.3,7273],[1.3,7355],[1.3,7439],[1.3,7530],[1.3,7619],[1.3,7690],[1.3,7772],[1.3,7856],[1.3,7939],[1.3,8023],[1.3,8107],[1.3,8190],[1.3,8273],[1.3,8357],[1.3,8440],[1.3,8524],[1.3,8607],[1.3,8690],[1.3,8783],[1.3,8857],[1.3,8941],[1.3,9024],[1.3,9107],[1.3,9190],[1.3,9274],[1.3,9357],[1.3,9441],[1.3,9524],[1.3,9608],[1.3,9692],[1.3,9774],[1.3,9857],[1.3,9941],[1.3,10024],[1.3,10108],[1.3,10191],[1.3,10275],[1.3,10358],[1.3,10441],[1.3,10525],[1.3,10609],[1.3,10692],[1.3,10776],[1.3,10859],[1.3,10942],[1.3,11025],[1.3,11109],[1.3,11192],[1.3,11276],[1.3,11360],[1.3,11443],[1.3,11526],[1.3,11621],[1.3,11693],[1.3,11776],[1.3,11860],[1.3,11943],[1.3,12034],[1.3,12109],[1.3,12193],[1.3,12276],[1.3,12360],[1.3,12443],[1.3,12527],[1.3,12610],[1.3,12694],[1.3,12776],[1.3,12860],[1.3,12943],[1.3,13027],[1.3,13110],[1.3,13194],[1.3,13277],[1.3,13360],[1.3,13444],[1.3,13528],[1.3,13626],[1.3,13695],[1.3,13778],[1.3,13861],[1.3,13944],[1.3,14028],[1.3,14111],[1.3,14195],[1.3,14286],[1.3,14362],[1.3,14445],[1.3,14528],[1.3,14612],[1.3,14702],[1.3,14778],[1.3,14862],[1.3,14946],[1.3,15029],[1.3,15112],[1.3,15196],[1.3,15278],[1.3,15362],[1.3,15446],[1.3,15529],[1.3,15613],[1.3,15696],[1.3,15779],[1.3,15863],[1.3,15955],[1.3,16029],[1.3,16113],[1.3,16196],[1.3,16280],[1.3,16363],[1.3,16447],[1.3,16530],[1.3,16614],[1.3,16697],[1.3,16780],[1.3,16864],[1.3,16947],[1.3,17030],[1.3,17114],[1.3,17197],[1.3,17281],[1.3,17364],[1.3,17447],[1.3,17531],[1.3,17614],[1.3,17698],[1.3,17781],[1.3,17865],[1.3,17947],[1.3,18031],[1.3,18122],[1.3,18207],[1.3,18281],[1.3,18365],[2.5,18457],[2.5,18532],[2.5,18615],[2.5,18699],[2.5,18782],[2.5,18865],[2.5,18948],[2.5,19032],[2.5,19115],[2.5,19199],[2.4,19291],[2.3,19366],[2.3,19449],[2.3,19532],[2.3,19616],[2.3,19700],[2.3,19793],[2.3,19866],[2.3,19950],[2.3,20046],[2.3,20128],[2.3,20200],[2.3,20283],[2.3,20366],[2.3,20450],[2.3,20533],[2.3,20617],[2.3,20700],[2.3,20783],[2.3,20867],[2.3,20950],[2.3,21033],[2.3,21124],[2.3,21201],[2.3,21284],[2.3,21367],[2.3,21451],[2.3,21534],[2.3,21618],[2.3,21701],[2.3,21784],[2.3,21867],[2.3,21951],[2.3,22035],[2.3,22118],[2.3,22201],[2.3,22285],[2.3,22368],[2.3,22451],[2.3,22535],[2.3,22618],[2.3,22702],[2.3,22785],[2.3,22868],[2.3,22952],[2.3,23035],[2.3,23119],[2.3,23210],[2.3,23285],[2.3,23369],[2.3,23452],[2.3,23536],[2.3,23619],[2.3,23703],[2.3,23786],[2.3,23869],[2.3,23952],[2.3,24036],[2.3,24119],[2.3,24203],[2.3,24286],[2.3,24370],[2.3,24453],[2.3,24537],[2.3,24621],[2.3,24703],[2.3,24787],[2.3,24870],[2.3,24954],[2.3,25037],[2.3,25120],[2.3,25204],[2.3,25287],[2.3,25371],[2.3,25454],[2.3,25537],[2.3,25621],[2.3,25704],[2.3,25787],[2.3,25871],[2.3,25954],[2.3,26038],[2.3,26121],[2.3,26204],[2.3,26288],[2.3,26371],[2.3,26454],[58.7,27488],[59.1,27571],[60.6,27656],[61.9,27738],[62.8,27822],[65.2,27905],[65.6,27989],[67.6,28072],[69.6,28156],[69.9,28239],[69.9,28322],[69.9,28405],[69.9,28488],[69.9,28572],[69.9,28655],[69.9,28739],[69.9,28822],[69.9,28906],[69.9,28989],[69.9,29072],[69.8,29158],[70.2,29239],[70.1,29323],[69.2,29408]]",1,0,795.4554,797.9467,51.65745856,1.1147,"[{""rating"":51.657458563535904,""responseTime"":1.1147000000477192}]",space,1.9571,,797.9467,All the time,100,797.9472,,,[],,0,11,11,11,1,audio/Narrative8Situation2.wav,audio/Narrative7Situation2.wav,audio/Narrative6Situation2.wav,audio/Narrative5Situation2.wav,3,3,3,3,,,,,,,,,,,,,,,,,,,,,,,,,,,,,,,,,,,,,,,
,,,,,,6103af77bf96464bbd8407fd,2024-02-08_11h52.38.065,group3.1-3.2-social-tom,2023.2.2,Win32,56.81818182,65c5074098b851296ff0b7ed,65c514d55500ab66e68306f0,,,,,,,,,,,,,,,,,,,,,,,,,,,,,797.9474,2,audio/Narrative5Situation3.wav,800.9588,,800.9588,814.8713,"[[59.2,3261],[65.6,3336],[66.4,3419],[66.4,3502],[66.4,3586],[64.3,3678],[63.8,3753],[61.9,3837],[59,3920],[53.7,4003],[49.9,4095],[47.3,4170],[45.7,4253],[44,4337],[41.9,4432],[39.6,4503],[29.7,5680],[29.4,5754],[29.4,5838],[29.4,5922],[23.7,6004],[17.7,6097],[12.2,6171],[11,6255],[11,6338],[10.1,6421],[10.1,6505],[10.1,6588],[10.1,6672],[10.1,6756],[10.1,6839],[10.1,6922],[10.1,7005],[10.1,7089],[10.1,7173],[10.1,7255],[10.1,7339],[10.1,7422],[10.1,7506],[10.1,7589],[10.1,7673],[10.1,7756],[10.1,7839],[10.1,7923],[10.1,8007],[10.1,8089],[10.1,8173],[10.1,8256],[10.1,8340],[10.1,8423],[10.1,8506],[10.1,8590],[10.1,8673],[10.1,8757],[10.1,8840],[10.1,8923],[10.1,9007],[10.1,9090],[10.1,9174],[10.1,9257],[10.1,9340],[10.1,9424],[10.1,9507],[10.1,9591],[10.1,9675],[10.1,9767],[10.1,9842],[10.1,9924],[10.1,10008],[10.1,10091],[10.1,10174],[10.1,10258],[10.1,10342],[10.1,10425],[10.1,10508],[10.1,10591],[10.1,10675],[10.1,10758],[10.1,10842],[10.1,10925],[10.1,11009],[10.1,11092],[10.1,11175],[10.1,11259],[10.1,11343],[10.7,11426],[32.9,11518],[37.6,11856],[40.1,11928],[41.6,12009],[42.4,12093],[46.5,12185],[49.7,12260],[52.4,12351],[54.4,12426],[54.7,12510],[54.7,12601],[54.7,12676],[55.3,12769],[56.8,12852],[57.5,12927],[57.7,13011],[57.7,13093],[57.7,13177],[57,13268],[53.1,13344],[51.9,13427],[51.9,13510],[51.9,13594],[51.9,13686],[51.9,13761],[51.9,13845]]",1,0,814.8714,816.6551,50.27624309,0.7423,"[{""rating"":50.27624309392266,""responseTime"":0.7422999999522517}]",space,1.2351,,816.6551,All the time,100,816.6557,,,[],,0,12,12,12,1,audio/Narrative8Situation3.wav,audio/Narrative7Situation3.wav,audio/Narrative6Situation3.wav,audio/Narrative5Situation3.wav,4,8,5,3,,,,,,,,,,,,,,,,,,,,,,,,,,,,,,,,,,,,,,,
,,,,,,6103af77bf96464bbd8407fd,2024-02-08_11h52.38.065,group3.1-3.2-social-tom,2023.2.2,Win32,56.81818182,65c5074098b851296ff0b7ed,65c514d55500ab66e68306f0,,,,,,,,,,,,,,,,,,,,,,,,,,,,,816.6558,2,audio/Narrative5Situation4.wav,817.6724,,817.6724,838.072,"[[44,3013],[31,3100],[27.4,3169],[24.5,3267],[20.8,3344],[18.4,3419],[14.5,3513],[10.7,3586],[5.4,3679],[5,3753],[5,3836],[5,3919],[5,4003],[5,4086],[5,4170],[5,4253],[5,4336],[5,4419],[5,4503],[5,4587],[5,4670],[5,4753],[5,4837],[5,4920],[5,5004],[5,5087],[5,5170],[5,5263],[5,5337],[5,5421],[5.1,5504],[7.1,5596],[8.8,5671],[10.4,5754],[10.5,5838],[10.5,5921],[10.5,6005],[10.7,6088],[13.3,6171],[18.8,6264],[26,6347],[33.4,6421],[39.4,6514],[41.9,6588],[43.4,6672],[44.6,6762],[45.3,6847],[45.9,6922],[47.1,7005],[49.4,7089],[51.8,7185],[53.3,7260],[57.1,7348],[61,7430],[61.6,7514],[61.6,7589],[62.2,7682],[64.6,7756],[66.2,7839],[66.9,7931],[67.3,8006],[67.4,8096],[67.4,8172],[67.4,8256],[67.4,8340],[67.4,8423],[67.4,8506],[67.4,8590],[67.4,8673],[67.4,8757],[67.4,8840],[67.4,8924],[67.4,9016],[67.4,9090],[67.4,9174],[73.3,9848],[72.9,9925],[72.5,10016],[72.4,10091],[72.4,10174],[72.2,10266],[71.2,10341],[70,10432],[70,10508],[69.9,10592],[69.9,10675],[69.9,10759],[69.9,10842],[69.9,10925],[69.9,11008],[69.9,11092],[69.9,11175],[69.9,11259],[69.9,11342],[69.9,11432],[69.9,11509],[69.9,11592],[69.9,11684],[69.9,11759],[69.9,11843],[69.9,11926],[69.9,12009],[69.9,12093],[69.9,12176],[69.9,12259],[69.9,12343],[69.9,12426],[69.9,12510],[69.9,12593],[69.9,12676],[69.9,12759],[69.9,12844],[69.9,12927],[69.9,13011],[69.9,13094],[69.9,13177],[69.9,13260],[69.9,13343],[69.9,13427],[69.9,13511],[69.9,13594],[69.9,13677],[69.9,13761],[69.9,13844],[69.9,13936],[69.9,14011],[69.9,14103],[69.9,14178],[69.9,14261],[69.9,14344],[69.9,14428],[69.9,14511],[69.9,14595],[69.9,14678],[69.9,14762],[69.9,14845],[69.9,14928],[69.9,15012],[69.9,15095],[69.9,15179],[69.9,15262],[69.9,15353],[69.9,15429],[69.9,15512],[69.9,15596],[69.9,15679],[69.9,15762],[69.9,15846],[69.9,15930],[69.9,16013],[69.9,16096],[69.9,16179],[69.9,16263],[69.9,16346],[69.9,16430],[69.9,16513],[69.9,16596],[69.9,16680],[69.9,16763],[69.9,16846],[69.9,16930],[69.9,17014],[69.9,17097],[69.9,17180],[69.9,17263],[69.9,17347],[69.9,17430],[69.9,17514],[69.9,17597],[69.9,17681],[69.9,17764],[69.9,17848],[69.9,17939],[69.9,18023],[69.9,18097],[69.9,18181],[69.9,18264],[69.9,18348],[69.9,18431],[69.9,18514],[69.9,18598],[69.9,18681],[69.9,18765],[69.9,18848],[69.9,18932],[69.9,19015],[69.9,19099],[69.9,19182],[68.2,19283],[68,19365],[68,19449],[68,19532],[68,19615],[68.4,19699],[68.4,19782],[68.4,19866],[68.4,19949],[68.4,20032],[68.4,20116],[68.4,20199],[68.4,20283],[68.4,20366]]",1,0,838.0721,840.3074,66.79558517,0.7228,"[{""rating"":66.79558516865936,""responseTime"":0.7228000001906594}]",space,1.7069,,840.3074,Half the time,50,840.3083,,,[],,0,13,13,13,1,audio/Narrative8Situation4.wav,audio/Narrative7Situation4.wav,audio/Narrative6Situation4.wav,audio/Narrative5Situation4.wav,3,3,2,1,,,,,,,,,,,,,,,,,,,,,,,,,,,,,,,,,,,,,,,
,,,,,,6103af77bf96464bbd8407fd,2024-02-08_11h52.38.065,group3.1-3.2-social-tom,2023.2.2,Win32,56.81818182,65c5074098b851296ff0b7ed,65c514d55500ab66e68306f0,,,,,,,,,,,,,,,,,,,,,,,,,,,,,840.3084,2,audio/Narrative5Situation5.wav,845.3115,,845.3115,860.7573,"[[66.9,12093],[66.9,12176],[66.9,12259],[66.9,12343],[62,12426],[62,12510],[49.2,13187],[39.8,14604],[40.9,14678],[40.9,14761],[40.9,14845],[41.4,14936],[44.1,15021],[46.1,15104],[49,15179]]",1,0,860.7575,862.6258,49.66851335,0.6943,"[{""rating"":49.66851334545494,""responseTime"":0.6942999999523636}]",space,1.3356,,862.6259,All the time,100,862.6267,,,[],,0,14,14,14,1,audio/Narrative8Situation5.wav,audio/Narrative7Situation5.wav,audio/Narrative6Situation5.wav,audio/Narrative5Situation5.wav,2,5,2,5,,,,,,,,,,,,,,,,,,,,,,,,,,,,,,,,,,,,,,,
,,,,,,6103af77bf96464bbd8407fd,2024-02-08_11h52.38.065,group3.1-3.2-social-tom,2023.2.2,Win32,56.81818182,65c5074098b851296ff0b7ed,65c514d55500ab66e68306f0,,,,,,,,,,,,,,,,,,,,,,,,,,,,,862.6268,2,audio/Narrative5Situation6.wav,865.6278,,865.6278,871.2993,"[[49.2,2335],[45.4,2428],[41.2,2510],[40,2585],[31.5,2676],[27.1,2752],[22.9,2844],[16.2,2918],[11.8,3002],[11.2,3086],[11.2,3169],[11.2,3252],[11.2,3336],[11.2,3419],[11.2,3502],[11.2,3586],[11.2,3678],[11.2,3753],[11.2,3836],[11.2,3920],[11.2,4003],[11.2,4087],[11.2,4170],[11.2,4254],[11.2,4337],[11.2,4420],[11.2,4503],[11.2,4587],[11.2,4670],[11.2,4753],[11.2,4837],[11.2,4920],[11.2,5004],[11.2,5087],[11.2,5171],[11.2,5263],[11.2,5338],[11.2,5421],[11.2,5505],[11.2,5588],[11.2,5671]]",1,0,871.2993,874.4185,0.607733964,2.0482,"[{""rating"":0.6077339636028134,""responseTime"":2.048199999809299}]",space,2.5808,,874.4185,Half the time,50,874.4193,,,[],,0,15,15,15,1,audio/Narrative8Situation6.wav,audio/Narrative7Situation6.wav,audio/Narrative6Situation6.wav,audio/Narrative5Situation6.wav,2,3,2,3,,,,,,,,,,,,,,,,,,,,,,,,,,,,,,,,,,,,,,,
,,,,,,6103af77bf96464bbd8407fd,2024-02-08_11h52.38.065,group3.1-3.2-social-tom,2023.2.2,Win32,56.81818182,65c5074098b851296ff0b7ed,65c514d55500ab66e68306f0,,,,,,,,,,,,,,,,,,,,,,,,,,,,,874.4194,2,audio/Narrative5Situation7.wav,878.4214,,878.4215,899.4556,"[[1,3010],[1.4,3085],[3,3177],[3.9,3252],[4.4,3352],[4.5,3436],[4.5,3519],[4.5,3602],[4.5,3686],[4.5,3769],[4.5,3853],[4.5,3937],[4.5,4019],[4.5,4103],[4.5,4186],[4.5,4269],[4.5,4353],[4.5,4437],[4.5,4520],[4.5,4604],[4.5,4687],[4.5,4770],[4.4,4854],[2.3,4937],[1.7,5020],[1.7,5103],[1.7,5187],[1.7,5271],[1.7,5354],[1.7,5437],[1.7,5520],[1.7,5604],[1.7,5687],[1.7,5771],[1.7,5854],[1.7,5938],[1.7,6021],[1.7,6105],[1.7,6188],[1.7,6272],[1.7,6355],[1.7,6438],[1.7,6521],[1.7,6605],[1.7,6688],[1.7,6772],[1.7,6855],[1.7,6938],[1.7,7022],[1.7,7105],[1.7,7189],[1.7,7273],[1.7,7356],[1.7,7439],[1.7,7522],[1.7,7606],[1.7,7689],[1.7,7772],[1.7,7856],[1.7,7939],[1.7,8023],[1.7,8106],[1.7,8189],[1.7,8273],[1.7,8357],[1.7,8440],[1.7,8523],[1.7,8606],[1.7,8690],[1.7,8774],[1.7,8857],[1.7,8940],[1.7,9024],[1.7,9107],[1.7,9190],[1.7,9274],[1.7,9357],[1.7,9440],[1.7,9524],[1.7,9608],[1.7,9691],[2,9775],[2.2,9858],[2.2,9941],[2.3,10025],[2.4,10108],[2.4,10191],[2.4,10275],[2.4,10358],[2.4,10441],[2.4,10525],[2.4,10608],[2.5,10691],[2.8,10775],[2.8,10858],[3.3,10942],[5.1,11026],[6.7,11109],[7.7,11192],[8.3,11276],[9.1,11359],[9.2,11442],[9.8,11526],[11.4,11609],[11.6,11693],[11.6,11776],[11.6,11859],[11.6,11942],[11.6,12026],[11.6,12109],[11.6,12193],[11.6,12276],[11.6,12359],[11.6,12443],[11.6,12527],[11.6,12610],[11.6,12694],[11.6,12777],[11.6,12860],[11.6,12944],[11.6,13027],[11.6,13110],[11.6,13193],[11.6,13277],[11.6,13361],[11.6,13444],[11.6,13527],[11.6,13610],[11.6,13694],[11.6,13778],[11.6,13861],[11.6,13944],[11.6,14028],[11.6,14111],[11.6,14195],[11.6,14278],[11.6,14361],[11.6,14444],[11.6,14528],[11.6,14612],[11.6,14695],[11.6,14779],[11.6,14861],[11.6,14945],[11.6,15029],[11.6,15112],[11.6,15195],[11.6,15278],[11.6,15362],[11.6,15445],[11.6,15529],[11.6,15612],[11.6,15695],[11.6,15779],[11.6,15863],[11.6,15946],[11.6,16029],[11.6,16113],[11.6,16197],[11.6,16280],[11.6,16363],[11.6,16446],[11.6,16530],[11.6,16613],[11.6,16697],[11.6,16780],[11.6,16863],[11.6,16947],[11.6,17030],[11.7,17114],[11.9,17197],[11.9,17280],[11.9,17364],[11.9,17447],[11.9,17531],[11.9,17614],[11.9,17697],[12.5,17780],[14,17864],[14.4,17948],[14.4,18031],[14.5,18115],[15.1,18198],[16.2,18281],[17.2,18365],[18.6,18448],[19.8,18532],[20.7,18615],[21.2,18698],[21.5,18782],[21.8,18865],[22.2,18948],[22.7,19032],[23.4,19115],[23.4,19199],[23.4,19282],[23.4,19365],[23.4,19449],[23.4,19532],[23.4,19616],[23.4,19699],[23.4,19782],[23.4,19866],[23.4,19949],[23.4,20033],[23.4,20116],[23.4,20200],[23.4,20283],[23.4,20366],[23.4,20450],[23.4,20533],[23.4,20617],[23.4,20699],[23.4,20783],[23.4,20867],[23.4,20950],[23.4,21033]]",1,0,899.4556,901.007,23.42541942,0.7604,"[{""rating"":23.425419422803007,""responseTime"":0.7604000000953874}]",space,1.0238,,901.007,Not at all,0,901.008,,,[],,0,16,16,16,1,audio/Narrative8Situation7.wav,audio/Narrative7Situation7.wav,audio/Narrative6Situation7.wav,audio/Narrative5Situation7.wav,3,5,5,4,,,,,,,,,,,,,,,,,,,,,,,,,,,,,,,,,,,,,,,
,,,,,,6103af77bf96464bbd8407fd,2024-02-08_11h52.38.065,group3.1-3.2-social-tom,2023.2.2,Win32,56.81818182,65c5074098b851296ff0b7ed,65c514d55500ab66e68306f0,,,,,,,,,,,,,,,,,,,,,,,,,,,,,901.008,2,audio/Narrative5Situation8.wav,904.0095,,904.0095,912.833,"[[22.3,1083],[22.2,1167],[21.8,1259],[21.8,1333],[21.4,1417],[19,1509],[18.7,1591],[18.7,1667],[18.7,1751],[18.8,1842],[18.9,1917],[19,2001],[19.3,2084],[20.4,2168],[21.8,2251],[24,2343],[25.8,2418],[28.2,2515],[32.5,2586],[33.6,2680],[35,2760],[35.9,2843],[37.7,2927],[40.4,3001],[41.7,3085],[42,3168],[43.5,3261],[46.4,3335],[49.6,3428],[54.4,3510],[60.8,3585],[64.6,3846],[64.6,3919],[64.9,4011],[65.7,4095],[66.3,4169],[66.7,4253],[67.1,4347],[67.4,4428],[67.4,4503],[67.4,4587],[68.3,4671],[69.7,4753],[71.5,4837],[72.8,4928],[72.8,5003],[72.8,5087],[72.8,5177],[72.8,5253],[73.7,5337],[75.4,5429],[75.7,5511],[75.7,5587],[75.7,5671],[75.5,5762],[75.2,5838],[74.9,5921],[74.9,6004],[74.9,6088],[74.9,6172],[74.9,6254],[74.9,6338],[74.9,6421],[74.9,6505],[75.2,6598],[76.7,6672],[80.4,6767],[80.7,6838],[83,6931],[88.1,7014],[89.1,7088],[90.7,7172],[92,7270],[92.1,7339],[92.1,7422],[92.1,7505],[92.1,7589],[92.1,7672],[92.7,7765],[97.2,7847],[98.6,7931],[98.6,8006],[98.6,8089],[99.1,8180],[99.3,8256],[99.3,8339],[99.3,8423],[99.3,8506],[99.3,8598],[99.3,8673],[99.2,8765]]",1,0,912.8331,914.1171,99.22652271,0.7091,"[{""rating"":99.22652270912465,""responseTime"":0.709100000143053}]",space,0.752,,914.1171,All the time,100,914.118,,,[],,0,17,17,17,1,audio/Narrative8Situation8.wav,audio/Narrative7Situation8.wav,audio/Narrative6Situation8.wav,audio/Narrative5Situation8.wav,3,2,5,3,,,,,,,,,,,,,,,,,,,,,,,,,,,,,,,,,,,,,,,
