exp_question,consent.started,consent.stopped,consentResponse.keys,consentResponse.rt,consentResponse.duration,participantID,date,expName,psychopyVersion,OS,frameRate,STUDY_ID,SESSION_ID,opening1.started,opening1.stopped,keyEndingOpening1.keys,keyEndingOpening1.rt,keyEndingOpening1.duration,volumeAdjust.started,volumeAdjust.stopped,endingAdjust.keys,endingAdjust.rt,endingAdjust.duration,opening2.started,opening2.stopped,keyEndingOpening.keys,keyEndingOpening.rt,keyEndingOpening.duration,mouse.x,mouse.y,mouse.leftButton,mouse.midButton,mouse.rightButton,mouse.time,instructionLoop.thisRepN,instructionLoop.thisTrialN,instructionLoop.thisN,instructionLoop.thisIndex,instructionLoop.ran,readyForAudio.started,readyForAudio.stopped,fixation.started,run,audio_played,fixation.stopped,endPractice.keys,audioPre.started,audioPre.stopped,continuousResponses_audio,continuousSlider.response,continuousSlider.rt,intRating.started,intRating.stopped,intQuestionSlider.response,intQuestionSlider.rt,intQuestionSlider.history,confirmResponse.keys,confirmResponse.rt,confirmResponse.duration,catchQuestion.started,catch_label,catch_value,catchQuestion.stopped,catchQuestionSlider.response,catchQuestionSlider.rt,catchQuestionSlider.history,confirmResponse_2.keys,audioRunLoop.thisRepN,audioRunLoop.thisTrialN,audioRunLoop.thisN,audioRunLoop.thisIndex,audioRunLoop.ran,conditions1_1,conditions2_1,conditions1_2,conditions2_2,dur1_1,dur2_1,dur1_2,dur2_2,endPractice.rt,endPractice.duration,confirmResponse_2.rt,confirmResponse_2.duration,runIntervalBreak.started,runIntervalBreak.stopped,endingBreakKey.keys,endingBreakKey.rt,endingBreakKey.duration,connection.started,connection.stopped,connectionEnding.keys,connectionEnding.rt,connectionEnding.duration,readyForText.started,readyForText.stopped,textPre.started,run_dup,textPre.stopped,continuousResponses_text,textRunLoop.thisRepN,textRunLoop.thisTrialN,textRunLoop.thisN,textRunLoop.thisIndex,textRunLoop.ran,text1_1,text1_2,text2_1,text2_2,runBreakText.started,runBreakText.stopped,endingBreakKey_2.keys,endingBreakKey_2.rt,endingBreakKey_2.duration,ending.started,ending.stopped,endingEnding.keys,endingEnding.rt,endingEnding.duration
social,0.0003,17.5279,y,17.2174,,61035b7247628a323191598e,2024-02-08_15h03.34.474,group3.1-3.2-social-tom,2023.2.2,Win32,142.8571429,65c5074098b851296ff0b7ed,65c5417a4883725ae506b015,,,,,,,,,,,,,,,,,,,,,,,,,,,,,,,,,,,,,,,,,,,,,,,,,,,,,,,,,,,,,,,,,,,,,,,,,,,,,,,,,,,,,,,,,,,,,,,,,,,,,,,,,,
,,,,,,61035b7247628a323191598e,2024-02-08_15h03.34.474,group3.1-3.2-social-tom,2023.2.2,Win32,142.8571429,65c5074098b851296ff0b7ed,65c5417a4883725ae506b015,17.5283,21.56,space,4.0061,,,,,,,,,,,,,,,,,,,,,,,,,,,,,,,,,,,,,,,,,,,,,,,,,,,,,,,,,,,,,,,,,,,,,,,,,,,,,,,,,,,,,,,,,,,,,,,,,,,,,,
,,,,,,61035b7247628a323191598e,2024-02-08_15h03.34.474,group3.1-3.2-social-tom,2023.2.2,Win32,142.8571429,65c5074098b851296ff0b7ed,65c5417a4883725ae506b015,,,,,,21.5603,29.9446,space,8.0778,,,,,,,,,,,,,,,,,,,,,,,,,,,,,,,,,,,,,,,,,,,,,,,,,,,,,,,,,,,,,,,,,,,,,,,,,,,,,,,,,,,,,,,,,,,,,,,,,
,,,,,,61035b7247628a323191598e,2024-02-08_15h03.34.474,group3.1-3.2-social-tom,2023.2.2,Win32,142.8571429,65c5074098b851296ff0b7ed,65c5417a4883725ae506b015,,,,,,,,,,,29.9525,39.7555,space,9.7879,,[],[],[],[],[],[],0,0,0,0,1,,,,,,,,,,,,,,,,,,,,,,,,,,,,,,,,,,,,,,,,,,,,,,,,,,,,,,,,,,,,,,,,,,,,,,,,,,,,,,,,
,,,,,,61035b7247628a323191598e,2024-02-08_15h03.34.474,group3.1-3.2-social-tom,2023.2.2,Win32,142.8571429,65c5074098b851296ff0b7ed,65c5417a4883725ae506b015,,,,,,,,,,,39.7566,55.7283,space,15.8875,,[],[],[],[],[],[],1,0,1,0,1,,,,,,,,,,,,,,,,,,,,,,,,,,,,,,,,,,,,,,,,,,,,,,,,,,,,,,,,,,,,,,,,,,,,,,,,,,,,,,,,
,,,,,,61035b7247628a323191598e,2024-02-08_15h03.34.474,group3.1-3.2-social-tom,2023.2.2,Win32,142.8571429,65c5074098b851296ff0b7ed,65c5417a4883725ae506b015,,,,,,,,,,,55.743,78.1252,space,22.3572,,[-0.22812501589457193],[-0.7592592592592593],[1],[0],[0],[16.521199999928484],2,0,2,0,1,,,,,,,,,,,,,,,,,,,,,,,,,,,,,,,,,,,,,,,,,,,,,,,,,,,,,,,,,,,,,,,,,,,,,,,,,,,,,,,,
,,,,,,61035b7247628a323191598e,2024-02-08_15h03.34.474,group3.1-3.2-social-tom,2023.2.2,Win32,142.8571429,65c5074098b851296ff0b7ed,65c5417a4883725ae506b015,,,,,,,,,,,78.1357,94.1701,space,16.0183,,[],[],[],[],[],[],3,0,3,0,1,,,,,,,,,,,,,,,,,,,,,,,,,,,,,,,,,,,,,,,,,,,,,,,,,,,,,,,,,,,,,,,,,,,,,,,,,,,,,,,,
,,,,,,61035b7247628a323191598e,2024-02-08_15h03.34.474,group3.1-3.2-social-tom,2023.2.2,Win32,142.8571429,65c5074098b851296ff0b7ed,65c5417a4883725ae506b015,,,,,,,,,,,94.1825,106.2088,space,12.0168,,[],[],[],[],[],[],4,0,4,0,1,,,,,,,,,,,,,,,,,,,,,,,,,,,,,,,,,,,,,,,,,,,,,,,,,,,,,,,,,,,,,,,,,,,,,,,,,,,,,,,,
,,,,,,61035b7247628a323191598e,2024-02-08_15h03.34.474,group3.1-3.2-social-tom,2023.2.2,Win32,142.8571429,65c5074098b851296ff0b7ed,65c5417a4883725ae506b015,,,,,,,,,,,,,,,,,,,,,,,,,,,106.2192,108.7989,108.8228,1,audio/Narrative13Situation2.wav,110.8261,,110.8267,140.5727,"[[50.4,4636],[50,4724],[50,4807],[50,4888],[50,4974],[50,5057],[50,5139],[50,5224],[50,5307],[50,5387],[50,5474],[50,5557],[50,5639],[50,5730],[50,5814],[50,5897],[44.9,5988],[42.3,6070],[37.9,6157],[30.4,6242],[21.1,6342],[14.7,6428],[10.7,6511],[6.9,6599],[5.4,6698],[3.8,6789],[3.2,6876],[2.5,6962],[2.4,7052],[2.4,7140],[2.4,7223],[2.4,7306],[2.4,7390],[2.4,7472],[2.4,7556],[2.4,7639],[2.4,7722],[2.4,7806],[2.4,7889],[2.4,7973],[2.4,8055],[2.4,8140],[2.4,8222],[2.4,8306],[2.4,8389],[2.4,8472],[2.4,8554],[2.4,8639],[2.4,8722],[2.4,8806],[5.1,8889],[6.1,8971],[9.4,9055],[11.9,9140],[18.4,9223],[26.4,9313],[30.7,9399],[34.4,9486],[35.1,9576],[35.2,9667],[35.2,9758],[35.2,9855],[35.2,9944],[35.2,10025],[35.2,10110],[35.2,10193],[35.2,10274],[35.2,10361],[35.2,10444],[35.2,10527],[35.2,10610],[35.2,10694],[35.2,10777],[35.2,10861],[35.4,10944],[39.4,11027],[41.7,11111],[43.4,11194],[44.2,11278],[44.3,11359],[44.3,11443],[44.3,11527],[44.3,11610],[44.3,11694],[44.3,11777],[44.3,11861],[44.3,11943],[44.3,12027],[44.3,12111],[44.3,12192],[44.3,12276],[44.3,12358],[44.3,12443],[44.3,12527],[44.3,12611],[44.3,12692],[44.3,12777],[44.3,12860],[44.3,12943],[44.3,13027],[44.3,13110],[44.3,13193],[44.3,13277],[44.3,13358],[44.3,13442],[44.3,13524],[44.3,13608],[44.3,13691],[44.3,13775],[44.3,13859],[44.3,13943],[50.4,14035],[61.1,14119],[62,14206],[62.4,14291],[66.7,14374],[69.4,14457],[73.1,14541],[75,14624],[75.9,14706],[79.1,14790],[92,15048],[94.4,15130],[94.4,15229],[94.4,15335],[94.4,15430],[94.4,15520],[94.4,15618],[94.4,15721],[94.4,15802],[94.4,15887],[94.4,15977],[94.4,16060],[94.4,16144],[94.4,16226],[94.4,16310],[94.4,16394],[94.4,16477],[94.4,16561],[94.4,16644],[93.1,16728],[89.7,16810],[89.7,16894],[89.7,16977],[89.7,17061],[89.7,17143],[89.7,17227],[89.7,17310],[89.7,17392],[89.7,17476],[85.4,17561],[77.1,17644],[70.3,17728],[66.2,17811],[62.5,17897],[58.6,17980],[55.4,18072],[50.3,18161],[46.6,18243],[41.9,18327],[36.3,18409],[30.1,18494],[26.9,18576],[23.5,18660],[20.4,18743],[18,18831],[16.4,18915],[16.4,19006],[16.4,19088],[16.4,19171],[16.4,19254],[16.4,19337],[16.4,19421],[16.4,19503],[16.4,19587],[16.4,19672],[16.4,19754],[16.4,19837],[16.4,19919],[16.4,20003],[16.4,20088],[16.4,20171],[16.4,20251],[16.4,20337],[16.5,20420],[16.5,20504],[16.5,20587],[16.5,20671],[16.5,20753],[16.5,20837],[16.5,20920],[16.5,21003],[16.5,21087],[16.5,21170],[16.5,21252],[16.5,21337],[16.5,21420],[16.5,21504],[16.5,21586],[15.9,21671],[13.1,21754],[11.4,21837],[10.3,21921],[9.1,22005],[7.4,22096],[4.8,22179],[4.3,22270],[4.3,22374],[4.3,22462],[4.3,22545],[15.7,22628],[25.8,22712],[26.8,22796],[27.1,22889],[27.1,22976],[27.1,23073],[28.3,23156],[41.7,23240],[45.4,23323],[49.2,23415],[49.5,23496],[50,23588],[50.9,23678],[50.9,23761],[50.9,23857],[49.3,25024],[38.6,25107],[31.5,25191],[28.7,25274],[28.3,25358],[24.6,25440],[22.3,25522],[22.3,25607],[22.3,25690],[22.3,25774],[22.3,25855],[22.3,25940],[22.3,26023],[22.3,26104],[22.3,26189],[22.3,26272],[22.3,26354],[22.3,26438],[22.3,26524],[22.3,26605],[22.3,26690],[22.3,26773],[22.3,26855],[22.3,26940],[22.3,27023],[22.3,27106],[22.3,27188],[22.3,27272],[22.3,27356],[22.3,27439],[22.3,27522],[22.3,27605],[22.3,27689],[22.3,27772],[22.3,27856],[22.3,27939],[22.3,28022],[22.3,28104],[22.3,28187],[22.3,28267],[22.3,28356],[22.3,28439],[22.3,28522],[22.3,28603],[22.3,28689],[22.3,28773],[22.3,28856],[22.3,28939],[22.3,29023],[22.3,29104],[22.3,29189],[22.3,29272],[22.3,29353],[22.3,29437],[22.3,29520],[22.3,29605],[22.3,29698]]",1,0,140.5734,148.0776,49.47916667,5.3679,"[{""rating"":49.47916666666667,""responseTime"":5.3679000000953465}]",space,6.9823,,148.0783,Partially,50,148.0847,,,[],,0,0,0,0,1,audio/Narrative13Situation2.wav,audio/Narrative13Situation2.wav,audio/Narrative13Situation2.wav,audio/Narrative13Situation2.wav,2,2,2,2,,,,,,,,,,,,,,,,,,,,,,,,,,,,,,,,,,,,,,,
,,,,,,61035b7247628a323191598e,2024-02-08_15h03.34.474,group3.1-3.2-social-tom,2023.2.2,Win32,142.8571429,65c5074098b851296ff0b7ed,65c5417a4883725ae506b015,,,,,,,,,,,,,,,,,,,,,,,,,,,,,148.0851,1,audio/Narrative7Situation1.wav,150.3835,space,150.3836,206.2541,"[[50,677],[50,761],[50,842],[50,927],[50,1010],[50,1089],[49.3,1178],[49.3,1972],[49.3,2062],[49.3,2158],[49.3,2241],[49.3,2325],[49.3,2416],[49.3,2505],[49.3,2603],[49.3,2691],[49.3,2772],[49.3,2857],[49.3,2940],[49.3,3024],[49.3,3106],[49.3,3188],[49.3,3274],[49.3,3356],[49.3,3440],[49.3,3524],[49.2,3608],[49.2,3705],[49.2,3795],[49.2,3891],[49.2,3975],[49.2,4059],[49.2,4138],[49.2,4225],[45.1,4309],[42,4394],[41.9,4470],[41.9,4553],[45.3,4637],[54.2,4721],[56.1,4805],[56.1,4887],[56.3,4971],[56.3,5054],[56.3,5138],[56.3,5221],[56.3,5304],[56.3,5387],[56.3,5470],[56.3,5554],[56.3,5637],[56.3,5721],[56.3,5803],[56.3,5887],[56.3,5971],[56.3,6053],[56.3,6137],[56.3,6220],[56.3,6303],[56.3,6387],[56.3,6470],[56.3,6553],[56.3,6638],[56.3,6720],[56.3,6803],[56.3,6887],[56.3,6969],[56.3,7053],[56.3,7136],[56.3,7221],[56.3,7303],[56.3,7386],[56.3,7469],[56.3,7553],[56.3,7637],[56.3,7719],[56.3,7803],[56.3,7886],[56.3,7969],[56.3,8055],[59.6,8150],[64.6,8247],[66.9,8337],[70.4,8421],[73.9,8504],[74.9,8587],[76.4,8677],[81.3,8759],[85.1,8845],[87.8,8936],[93.2,9018],[93.4,9106],[93.5,9202],[93.5,9293],[93.5,9375],[93.5,9460],[93.8,9543],[93.8,9626],[93.8,9709],[93.8,9793],[94.1,9876],[94.5,9960],[97.2,15787],[95.9,15875],[95.9,15957],[95.9,16041],[95.9,16125],[97.2,16207],[100,16291],[100,16372],[100,16472],[100,16556],[100,16646],[100,16729],[100,16812],[100,16895],[100,16978],[100,17062],[100,17145],[100,17228],[100,17313],[100,17395],[100,17477],[100,17557],[100,17645],[100,17728],[100,17810],[100,17894],[100,17978],[100,18057],[100,18145],[100,18228],[100,18311],[100,18395],[100,18478],[100,18562],[100,18645],[100,18726],[100,18811],[100,18894],[100,18978],[100,19060],[100,19144],[100,19228],[100,19312],[100,19393],[100,19473],[100,19561],[100,19645],[100,19727],[97.8,19812],[92.8,19896],[86.7,19992],[77.8,20085],[66.9,20169],[61.7,20251],[59.1,20341],[56.1,20430],[54,20513],[52.4,20601],[50.9,20686],[49.1,20769],[46.8,20853],[45.5,20944],[44.5,21028],[43.9,21127],[42.3,21213],[40.2,21297],[37.1,21380],[36.6,21471],[36.6,21575],[36.6,21659],[36.6,21749],[36.6,21861],[36.6,21952],[36.6,22040],[36.6,22129],[36.6,22213],[36.6,22302],[36.6,22386],[36.8,22470],[40.9,22554],[42.6,22637],[43.8,22717],[44.8,22803],[46.4,22904],[47.2,22995],[48.2,23080],[49,23165],[50,23257],[50,23345],[50.7,23429],[51.3,23510],[51.3,23591],[51.3,23677],[51.3,23759],[51.3,23844],[51.3,23928],[51.3,24007],[51.3,24094],[51.3,24179],[51.3,24261],[51.3,24340],[51.3,24425],[51.3,24511],[51.3,24593],[51.3,24673],[51.3,24759],[51.3,24844],[51.3,24928],[51.3,25010],[51.3,25092],[51.3,25176],[51.3,25261],[51.3,25342],[51.3,25427],[51.3,25511],[51.3,25590],[51.3,25676],[51.3,25759],[51.3,25841],[51.3,25927],[51.3,26008],[51.3,26094],[51.3,26177],[51.3,26260],[51.3,26344],[51.3,26426],[51.3,26507],[51.3,26593],[51.3,26677],[51.3,26760],[51.3,26843],[51.3,26927],[51.3,27011],[51.3,27093],[51.3,27175],[51.3,27260],[51.3,27340],[51.3,27424],[51.3,27511],[51.3,27592],[50.4,27686],[44.5,27769],[39.2,27853],[33,27936],[27.8,28019],[24.7,28103],[22.7,28191],[22,28274],[20.4,28366],[17.6,28457],[14.2,28545],[12.9,28629],[12.6,28712],[12.1,28801],[11.7,28886],[11.6,28970],[11.7,29059],[20.5,29142],[28.3,29226],[31.1,29309],[36.7,29392],[38.9,29476],[39.6,29566],[39.6,29649],[39.6,29733],[39.6,29822],[39.7,29921],[39.8,30018],[39.8,30124],[39.8,30225],[39.8,30315],[39.8,30399],[39.8,30481],[39.9,30565],[39.9,30643],[39.9,30732],[39.9,30819],[39.9,30905],[39.9,30986],[39.9,31072],[39.9,31155],[39.9,31239],[39.9,31322],[39.9,31404],[39.9,31488],[39.9,31571],[39.9,31654],[39.9,31738],[39.9,31821],[39.9,31905],[39.9,31988],[39.9,32071],[39.9,32155],[39.9,32236],[39.9,32321],[39.9,32405],[39.9,32488],[39.9,32571],[39.9,32654],[39.9,32738],[39.9,32821],[39.9,32902],[39.9,32987],[39.9,33067],[39.9,33153],[39.9,33238],[39.9,33321],[39.9,33405],[39.9,33485],[39.9,33570],[43.8,33655],[47.7,33737],[51.5,33821],[53,33905],[53.1,33988],[53.1,34071],[53.1,34161],[53.1,34243],[53.1,34326],[53.1,34411],[53.1,34494],[53.1,34577],[53.1,34661],[53.1,34745],[53.1,34827],[54.7,34911],[59.9,34994],[62.7,35078],[68.3,35162],[75.4,35246],[83.6,35331],[83.8,35416],[83.8,35500],[83.8,35585],[84.7,35669],[91.3,35751],[92.4,35832],[92.4,35918],[92.4,35999],[92.4,36084],[92.4,36167],[92.4,36251],[92.4,36334],[92.4,36415],[92.4,36496],[92.4,36581],[92.4,36665],[92.5,36751],[94.7,36834],[96.1,36915],[96.7,37001],[96.7,37084],[96.7,37167],[96.7,37250],[96.7,37334],[96.7,37417],[96.7,37500],[96.7,37581],[96.7,37667],[96.7,37747],[96.7,37834],[96.7,37917],[96.7,37996],[96.7,38082],[96.7,38165],[96.7,38249],[96.7,38334],[96.7,38417],[96.7,38499],[96.7,38582],[96.7,38665],[96.7,38750],[96.7,38833],[96.7,38917],[96.7,39000],[96.7,39080],[96.7,39166],[96.7,39250],[96.7,39333],[96.7,39416],[96.7,39497],[96.7,39582],[96.7,39666],[96.7,39750],[96.7,39833],[96.7,39916],[96.7,40010],[96.7,40097],[99.6,40182],[100,40266],[100,40349],[100,40446],[100,40535],[100,40618],[100,40701],[100,40783],[100,40874],[100,40963],[100,41048],[100,41131],[100,41214],[100,41298],[100,41381],[100,41465],[100,41548],[100,41630],[100,41715],[100,41796],[100,41881],[100,41964],[100,42047],[100,42131],[100,42210],[100,42297],[100,42381],[100,42464],[100,42547],[100,42631],[100,42714],[100,42797],[100,42882],[100,42963],[100,43047],[100,43131],[100,43214],[100,43297],[100,43382],[100,43471],[100,43555],[100,43638],[100,43720],[100,43810],[100,43895],[100,43975],[100,44061],[100,44142],[100,44228],[100,44311],[100,44392],[100,44478],[100,44561],[100,44643],[100,44727],[100,44810],[100,44894],[100,44977],[100,45061],[100,45143],[100,45227],[100,45307],[100,45394],[100,45477],[100,45560],[100,45643],[100,45724],[100,45810],[100,45894],[100,45977],[100,46060],[100,46144],[100,46227],[100,46310],[100,46394],[100,46477],[100,46561],[100,46643],[100,46725],[100,46810],[100,46892],[100,46977],[100,47060],[100,47143],[100,47227],[100,47310],[100,47394],[100,47477],[100,47560],[100,47643],[100,47726],[100,47808],[100,47894],[100,47977],[100,48060],[100,48141],[100,48225],[100,48311],[100,48393],[100,48476],[100,48559],[100,48643],[100,48723],[100,48810],[100,48893],[100,48976],[100,49061],[100,49148],[100,49231],[100,49314],[100,49400],[100,49483],[100,49566],[100,49651],[100,49733],[100,49816],[100,49900],[100,49983],[100,50066],[100,50150],[100,50233],[100,50324],[100,50421],[100,50504],[100,50602],[100,50699],[100,50780],[100,50865],[100,50948],[100,51030],[100,51114],[100,51198],[100,51281],[100,51365],[100,51446],[100,51531],[100,51614],[100,51697],[100,51781],[100,51864],[100,51946],[100,52031],[100,52112],[100,52196],[100,52281],[100,52364],[100,52446],[100,52531],[100,52612],[100,52697],[100,52778],[100,52864],[100,52947],[100,53030],[100,53113],[100,53196],[100,53281],[100,53364],[100,53447],[100,53531],[100,53615],[100,53695],[100,53779],[100,53864],[100,53947],[100,54031],[100,54113],[100,54197],[100,54280],[100,54360],[100,54447],[100,54530],[100,54614],[100,54695],[97.4,54789],[97.4,54876],[97.4,54961],[97.6,55044],[99.9,55126],[99.9,55211],[99.9,55294],[99.9,55375],[99.9,55457],[99.9,55543],[99.9,55627],[99.9,55710],[99.9,55792]]",1,0,206.2548,209.9621,99.27083651,2.0953,"[{""rating"":99.27083651224773,""responseTime"":2.095299999952317}]",space,3.1901,,209.9622,Definitely yes,100,209.9677,,,[],,0,1,1,1,1,audio/Narrative7Situation1.wav,audio/Narrative8Situation1.wav,audio/Narrative5Situation1.wav,audio/Narrative6Situation1.wav,2,5,5,2,2.2783,,,,,,,,,,,,,,,,,,,,,,,,,,,,,,,,,,,,,,
,,,,,,61035b7247628a323191598e,2024-02-08_15h03.34.474,group3.1-3.2-social-tom,2023.2.2,Win32,142.8571429,65c5074098b851296ff0b7ed,65c5417a4883725ae506b015,,,,,,,,,,,,,,,,,,,,,,,,,,,,,209.9681,1,audio/Narrative7Situation2.wav,212.97,,212.9702,220.4357,"[[999,0],[999,94],[999,175],[999,259],[999,344],[999,428],[999,510],[999,593],[999,674],[999,758],[999,841],[999,923],[999,1007],[999,1090],[999,1173],[999,1256],[999,1339],[999,1423],[999,1507],[999,1590],[999,1673],[999,1756],[999,1839],[999,1922],[999,2006],[999,2089],[999,2172],[999,2256],[999,2339],[999,2422],[999,2506],[999,2590],[999,2672],[999,2756],[49.8,2853],[55.8,2943],[73.3,3027],[77.5,3118],[90.6,3199],[95.1,3283],[95.3,3371],[95.8,3455],[95.8,3538],[95.8,3629],[95.8,3733],[95.8,3822],[95.8,3906],[95.8,3988],[95.8,4069],[95.8,4154],[95.8,4235],[95.8,4323],[95.8,4403],[95.8,4488],[95.8,4572],[95.8,4652],[96,4739],[97.2,4822],[97.6,4903],[97.6,4989],[97.6,5072],[97.6,5155],[97.6,5237],[97.6,5322],[97.6,5405],[97.6,5488],[97.6,5571],[97.6,5655],[97.6,5738],[97.6,5822],[97.6,5905],[97.6,6002],[97.6,6086],[97.6,6167],[97.6,6250],[97.6,6335],[97.6,6419],[97.6,6502],[97.6,6585],[97.6,6669],[97.6,6750],[97.6,6831],[97.6,6918],[97.6,7001],[97.6,7085],[97.6,7169],[97.6,7252],[97.6,7335],[97.6,7418]]",1,0,220.4361,224.0141,96.77084287,2.7153,"[{""rating"":96.77084287007649,""responseTime"":2.7152999999523217}]",space,3.0571,,224.0143,Not at all,0,231.8455,0.104169051,5.4871,"[{""rating"":0.10416905085245953,""responseTime"":5.487100000023844}]",space,0,2,2,2,1,audio/Narrative7Situation2.wav,audio/Narrative8Situation2.wav,audio/Narrative5Situation2.wav,audio/Narrative6Situation2.wav,3,3,3,3,,,7.3113,,,,,,,,,,,,,,,,,,,,,,,,,,,,,,,,,,,,
,,,,,,61035b7247628a323191598e,2024-02-08_15h03.34.474,group3.1-3.2-social-tom,2023.2.2,Win32,142.8571429,65c5074098b851296ff0b7ed,65c5417a4883725ae506b015,,,,,,,,,,,,,,,,,,,,,,,,,,,,,231.8465,1,audio/Narrative7Situation3.wav,239.8468,,239.8469,249.0893,"[[58.5,2175],[43.5,2258],[26.7,2342],[20.1,2427],[17.8,2514],[17.8,2620],[17.8,2727],[17.8,2815],[17.8,2918],[17.8,3001],[17.8,3082],[17.8,3167],[17.8,3250],[17.8,3332],[17.8,3417],[17.8,3500],[16.9,3584],[13.5,3668],[10.1,3752],[7.6,3835],[6.9,3917],[6.9,4008],[6.9,4092],[6.9,4174],[6.9,4258],[6.9,4356],[6.9,4457],[6.9,4548],[6.9,4640],[6.9,4728],[6.9,4812],[6.9,4903],[6.9,4986],[6.9,5065],[6.9,5152],[6.9,5231],[6.9,5318],[6.9,5401],[6.9,5486],[6.9,5569],[6.9,5652],[6.9,5736],[6.9,5815],[6.9,5903],[7,5986],[9.4,6070],[10.8,6153],[13.6,6236],[19.2,6320],[22.1,6404],[24.2,6486],[27.5,6570],[29.7,6654],[30.5,6743],[31.8,6826],[32.8,6909],[33.1,6994],[33.8,7071],[33.8,7159],[33.9,7242],[33.9,7325],[33.9,7409],[33.9,7492],[33.9,7576],[33.9,7656],[33.9,7743],[33.9,7826],[33.9,7909],[33.9,7992],[33.9,8070],[33.9,8159],[33.9,8241],[33.9,8325],[33.9,8409],[33.9,8491],[33.9,8573],[33.9,8659],[33.9,8742],[33.9,8825],[33.9,8909],[33.9,8989],[33.9,9075],[33.9,9158],[33.9,9242]]",1,0,249.0896,255.4832,14.68750238,5.2799,"[{""rating"":14.687502384185791,""responseTime"":5.279899999976124}]",space,5.872,,255.4834,Not at all,0,255.4858,,,[],,0,3,3,3,1,audio/Narrative7Situation3.wav,audio/Narrative8Situation3.wav,audio/Narrative5Situation3.wav,audio/Narrative6Situation3.wav,8,4,3,5,,,,,,,,,,,,,,,,,,,,,,,,,,,,,,,,,,,,,,,
,,,,,,61035b7247628a323191598e,2024-02-08_15h03.34.474,group3.1-3.2-social-tom,2023.2.2,Win32,142.8571429,65c5074098b851296ff0b7ed,65c5417a4883725ae506b015,,,,,,,,,,,,,,,,,,,,,,,,,,,,,255.4863,1,audio/Narrative7Situation4.wav,258.4928,,258.4929,270.2017,"[[14.9,1949],[15.1,2032],[15.1,2117],[15.1,2199],[15,2282],[15,2366],[15,2450],[15,2532],[15,2616],[15,2699],[15,2782],[15,2866],[15,2949],[15,3032],[15,3116],[15,3199],[15,3282],[15,3366],[15,3449],[15,3533],[15,3615],[15,3699],[15,3783],[15,3865],[15,3949],[15,4032],[17.2,4116],[17.7,4198],[20.1,4282],[20.5,4365],[20.5,4449],[20.5,4532],[20.5,4616],[20.5,4698],[20.5,4782],[20.6,4866],[20.6,4949],[20.6,5032],[20.6,5115],[20.6,5199],[20.6,5282],[20.6,5365],[20.6,5448],[20.6,5532],[20.6,5615],[20.6,5698],[20.6,5783],[20.6,5865],[20.6,5948],[20.6,6031],[20.6,6116],[20.6,6199],[20.6,6281],[18,6365],[14,6448],[6.8,6532],[5.6,6615],[3.3,6698],[0.6,6781]]",1,0,270.2018,273.5039,2.291667461,2.5124,"[{""rating"":2.2916674613952637,""responseTime"":2.5123999999761395}]",space,2.7863,,273.5041,Partially,50,273.5081,,,[],,0,4,4,4,1,audio/Narrative7Situation4.wav,audio/Narrative8Situation4.wav,audio/Narrative5Situation4.wav,audio/Narrative6Situation4.wav,3,3,1,2,,,,,,,,,,,,,,,,,,,,,,,,,,,,,,,,,,,,,,,
,,,,,,61035b7247628a323191598e,2024-02-08_15h03.34.474,group3.1-3.2-social-tom,2023.2.2,Win32,142.8571429,65c5074098b851296ff0b7ed,65c5417a4883725ae506b015,,,,,,,,,,,,,,,,,,,,,,,,,,,,,273.5085,1,audio/Narrative7Situation5.wav,278.5101,,278.5103,286.9774,"[[5.2,1844],[3.8,1927],[1.9,2009],[1.7,2094],[1.7,2177],[1.7,2261],[1.7,2344],[1.7,2428],[1.7,2510],[1.7,2593],[7.5,2676],[14.1,2759],[18,2843],[19.3,2926],[19.3,3011],[21.9,3093],[28,3176],[33.8,3261],[35.8,3343],[38.2,3426],[39.1,3509],[39.1,3592],[39.1,3676],[39.1,3759],[39.1,3843],[39.1,3926],[39.1,4009],[39.1,4093],[39.1,4175],[39.1,4258],[39.1,4343],[39.1,4427],[39.1,4509],[39.1,4593],[39.1,4676],[39.1,4760],[39.1,4842],[39.1,4925],[39.1,5009],[39.1,5092],[39.1,5176],[39.2,5259],[39.2,5342],[39.2,5425],[39.2,5509],[39.2,5593],[39.2,5675],[39.2,5760],[39.2,5842],[39.2,5925],[39.2,6009],[39.2,6092],[39.2,6175],[39.2,6258],[39.2,6342],[39.2,6425],[39.2,6508],[39.2,6592],[39.2,6675],[39.2,6759],[39,6843],[39,6925],[38.9,7009],[38.9,7093],[38.9,7175],[38.9,7259],[38.9,7343],[38.9,7425],[38.9,7509],[38.9,7591],[38.9,7676],[38.9,7759],[38.9,7844],[38.9,7925],[38.9,8009],[38.9,8091],[38.9,8175],[38.9,8258],[38.9,8341],[38.9,8425]]",1,0,286.9775,290.0091,35.52083174,2.1805,"[{""rating"":35.52083174387614,""responseTime"":2.180499999999995}]",space,2.5072,,290.0093,Definitely yes,100,290.014,,,[],,0,5,5,5,1,audio/Narrative7Situation5.wav,audio/Narrative8Situation5.wav,audio/Narrative5Situation5.wav,audio/Narrative6Situation5.wav,5,2,5,2,,,,,,,,,,,,,,,,,,,,,,,,,,,,,,,,,,,,,,,
,,,,,,61035b7247628a323191598e,2024-02-08_15h03.34.474,group3.1-3.2-social-tom,2023.2.2,Win32,142.8571429,65c5074098b851296ff0b7ed,65c5417a4883725ae506b015,,,,,,,,,,,,,,,,,,,,,,,,,,,,,290.0143,1,audio/Narrative7Situation6.wav,293.0169,,293.017,302.9771,"[[37.6,1511],[37.6,1593],[37.6,1677],[37.6,1760],[37.6,1843],[35.7,1927],[33.3,2011],[26.5,2095],[23.8,2180],[21.6,2272],[21.6,2357],[23.5,2442],[31.6,2525],[37.9,2609],[38,2705],[39.6,2804],[42.7,2893],[44.8,2976],[44.8,3060],[44.8,3142],[44.8,3222],[44.8,3308],[44.8,3391],[44.8,3475],[44.8,3558],[44.8,3640],[44.8,3723],[44.8,3809],[44.8,3892],[44.8,3974],[44.8,4057],[44.8,4141],[46,4225],[48.1,4307],[51.1,4392],[52.9,4476],[53.5,4559],[56.3,4642],[57.1,4734],[58.3,4817],[58.3,4905],[58.3,4993],[58.8,5079],[61.6,5162],[64.1,5241],[64.3,5324],[64.3,5408],[64.3,5491],[64.4,5575],[64.4,5657],[64.4,5741],[64.4,5824],[64.4,5907],[64.4,5991],[65.7,6074],[66.7,6157],[66.7,6241],[66.7,6329],[66.7,6436],[66.7,6538],[66.7,6633],[66.7,6724],[66.7,6814],[66.7,6897],[66.7,6981],[66.7,7063],[66.7,7148],[66.7,7228],[66.7,7312],[66.7,7397],[66.7,7479],[66.7,7564],[66.7,7648],[66.7,7731],[66.7,7814],[66.6,7897],[66.6,7980],[66.6,8065],[66.4,8146],[66.4,8229],[66.4,8312],[66.4,8397],[66.4,8479],[66.4,8563],[66.4,8647],[66.4,8732],[66.4,8814],[66.4,8897],[66.4,8980],[66.4,9062],[66.4,9147],[66.4,9230],[66.4,9312],[66.4,9397],[66.4,9478],[66.4,9563],[66.4,9646],[66.4,9730],[66.4,9813],[66.4,9897]]",1,0,302.9774,306.6285,88.54166667,1.5878,"[{""rating"":88.54166666666667,""responseTime"":1.5878000000715247}]",space,3.1261,,306.6286,Not at all,0,306.6324,,,[],,0,6,6,6,1,audio/Narrative7Situation6.wav,audio/Narrative8Situation6.wav,audio/Narrative5Situation6.wav,audio/Narrative6Situation6.wav,3,2,3,2,,,,,,,,,,,,,,,,,,,,,,,,,,,,,,,,,,,,,,,
,,,,,,61035b7247628a323191598e,2024-02-08_15h03.34.474,group3.1-3.2-social-tom,2023.2.2,Win32,142.8571429,65c5074098b851296ff0b7ed,65c5417a4883725ae506b015,,,,,,,,,,,,,,,,,,,,,,,,,,,,,306.6327,1,audio/Narrative7Situation7.wav,311.6368,,311.637,328.7991,"[[74.7,1018],[46.3,1101],[40.3,1184],[39.7,1268],[39.5,1350],[39.5,1433],[42,1518],[46.8,1600],[48.6,1684],[49.4,1773],[49.4,1855],[49.7,1940],[50.7,2024],[50.8,2107],[50.8,2191],[50.8,2269],[50.8,2357],[50.8,2441],[50.8,2524],[50.8,2606],[50.8,2686],[50.8,2771],[50.8,2857],[50.8,2937],[50.8,3021],[50.8,3105],[50.8,3189],[50.8,3274],[50.8,3357],[50.8,3440],[50.8,3521],[50.8,3607],[50.8,3685],[50.8,3773],[50.8,3854],[50.8,3939],[50.8,4023],[50.8,4107],[50.8,4187],[50.8,4273],[50.8,4354],[50.8,4435],[50.8,4522],[50.8,4606],[50.8,4685],[50.8,4772],[50.8,4857],[50.8,4938],[50.8,5023],[50.8,5102],[50.8,5188],[50.8,5274],[50.8,5354],[50.8,5439],[50.8,5523],[50.8,5606],[50.8,5689],[50.8,5770],[50.8,5856],[50.8,5939],[50.8,6019],[50.8,6106],[50.8,6189],[50.8,6273],[50.8,6355],[50.8,6438],[50.8,6523],[50.8,6606],[50.8,6689],[50.8,6772],[50.8,6856],[50.8,6937],[50.8,7018],[50.8,7106],[50.8,7189],[50.8,7272],[50.8,7356],[50.8,7439],[50.8,7522],[50.8,7605],[50.8,7685],[50.8,7772],[50.8,7852],[50.8,7936],[50.8,8022],[50.8,8105],[50.8,8189],[50.8,8272],[50.8,8355],[50.8,8435],[50.8,8522],[50.8,8605],[50.8,8689],[50.8,8771],[89.5,9114],[100,9198],[100,9294],[100,9383],[98.3,9467],[98,9549],[98,9628],[98,9711],[98,9795],[98,9878],[98,9961],[98,10046],[98,10128],[98,10211],[98,10296],[98,10378],[98,10461],[98,10545],[98,10630],[98,10711],[98,10795],[98,10879],[98,10962],[98,11045],[98,11129],[98,11211],[98,11294],[98,11379],[98,11463],[98,11545],[98,11628],[98,11711],[98,11795],[98,11877],[98,11962],[98.1,12046],[98.2,12129],[98.4,12211],[98.4,12294],[98.6,12379],[98.8,12461],[99,12544],[99,12627],[99,12711],[99,12794],[99,12878],[99,12961],[99,13045],[99,13128],[99,13211],[99,13296],[99,13378],[99,13461],[99,13545],[99,13627],[99,13711],[99,13794],[99,13877],[99,13961],[99,14045],[99,14127],[98.9,14211],[98.9,14295],[98.9,14377],[98.9,14460],[98.9,14544],[98.9,14628],[98.9,14710],[98.9,14795],[98.9,14878],[98.9,14960],[98.9,15044],[98.9,15128],[98.9,15210],[98.9,15294],[98.9,15377],[98.9,15460],[98.9,15544],[98.9,15627],[98.9,15710],[98.9,15793],[98.9,15876],[98.9,15960],[98.9,16044],[98.9,16126],[98.9,16210],[98.9,16293],[98.9,16377],[98.9,16460],[98.9,16543],[98.9,16629],[98.9,16709],[98.9,16793],[98.9,16877],[98.9,16960],[98.9,17044],[98.9,17126]]",1,0,328.7994,332.8779,97.70833651,1.8736,"[{""rating"":97.70833651224773,""responseTime"":1.8736000000238278}]",space,3.5619,,332.878,Not at all,0,332.8802,,,[],,0,7,7,7,1,audio/Narrative7Situation7.wav,audio/Narrative8Situation7.wav,audio/Narrative5Situation7.wav,audio/Narrative6Situation7.wav,5,3,4,5,,,,,,,,,,,,,,,,,,,,,,,,,,,,,,,,,,,,,,,
,,,,,,61035b7247628a323191598e,2024-02-08_15h03.34.474,group3.1-3.2-social-tom,2023.2.2,Win32,142.8571429,65c5074098b851296ff0b7ed,65c5417a4883725ae506b015,,,,,,,,,,,,,,,,,,,,,,,,,,,,,332.8808,1,audio/Narrative7Situation8.wav,334.8915,,334.8916,344.8983,"[[93.8,756],[51,839],[31.6,923],[31.5,1020],[31,1119],[9.6,1196],[7,1613],[22.5,1697],[44.9,1779],[47.1,1862],[47.3,1946],[47.3,2031],[47.3,2113],[41,2197],[37.6,2280],[32.9,2363],[30.5,2445],[30.5,2529],[29,2613],[14,2696],[10.9,2779],[10.9,2862],[10.9,2946],[10.7,3030],[8.4,3112],[7.5,3195],[7.5,3280],[7.5,3363],[7.5,3446],[7.5,3529],[7.5,3613],[7.5,3697],[7.5,3778],[7.5,3863],[7.5,3947],[7.5,4028],[7.5,4112],[7.5,4196],[7.5,4278],[7.5,4363],[7.5,4447],[7.5,4530],[7.5,4612],[7.5,4695],[7.5,4778],[7.5,4862],[7.5,4944],[7.5,5028],[7.5,5112],[7.5,5194],[7.5,5278],[7.5,5362],[7.5,5445],[7.5,5529],[7.5,5612],[7.5,5694],[7.5,5778],[7.5,5861],[7.5,5945],[7.5,6028],[7.5,6111],[7.5,6194],[7.5,6278],[7.5,6363],[7.5,6445],[7.5,6530],[7.5,6611],[7.5,6696],[7.5,6778],[7.5,6862],[7.5,6944],[7.5,7028],[7.5,7111],[7.5,7194],[7.5,7278],[7.5,7362],[7.5,7445],[7.5,7528],[7.5,7611],[7.5,7694],[7.5,7778],[7.5,7860],[7.5,7944],[7.5,8028],[7.5,8111],[7.5,8195],[7.5,8278],[7.5,8361],[7.5,8444],[7.5,8528],[7.5,8610],[7.5,8694],[7.5,8777],[7.5,8860],[7.5,8943],[7.5,9027],[7.5,9110],[7.5,9196],[7.5,9277],[7.5,9360],[7.5,9445],[7.5,9527],[7.5,9610],[7.5,9694],[7.5,9777],[7.5,9860],[7.5,9943]]",1,0,344.8985,347.7629,8.750001589,1.2736,"[{""rating"":8.750001589457195,""responseTime"":1.2735999999046044}]",space,2.3507,,347.763,Not at all,0,347.7661,,,[],,0,8,8,8,1,audio/Narrative7Situation8.wav,audio/Narrative8Situation8.wav,audio/Narrative5Situation8.wav,audio/Narrative6Situation8.wav,2,3,3,5,,,,,,,,,,,,,,,,,,,,,,,,,,,,,,,,,,,,,,,
,,,,,,61035b7247628a323191598e,2024-02-08_15h03.34.474,group3.1-3.2-social-tom,2023.2.2,Win32,142.8571429,65c5074098b851296ff0b7ed,65c5417a4883725ae506b015,,,,,,,,,,,,,,,,,,,,,,,,,,,,,347.7665,1,audio/Narrative7Situation9.wav,349.7722,,349.7725,358.3936,"[[9.1,2947],[9.4,3027],[9.4,3112],[9.3,3196],[8.6,3281],[8.4,3361],[8.9,3447],[15.1,3531],[28.5,3615],[41.1,3697],[44,3781],[46.4,3864],[50.5,3947],[53.1,4039],[58.4,4122],[60.4,4205],[61.3,4296],[61.3,4386],[61.6,4470],[63.8,4558],[65.1,4642],[65.1,4741],[65.1,4838],[65.1,4921],[65.1,5005],[65.1,5092],[65.1,5173],[65.1,5260],[65.1,5342],[65.1,5440],[65.1,5530],[65.1,5613],[65.1,5703],[65.1,5786],[65.1,5867],[65.1,5952],[65.1,6036],[65.1,6119],[65.1,6201],[65.1,6286],[65.1,6366],[65.1,6452],[65.1,6533],[65.1,6619],[65.1,6701],[65.1,6786],[65.1,6869],[65.1,6952],[65.1,7036],[65.1,7119],[65.1,7202],[65.1,7281],[65.1,7369],[65.1,7450],[65.1,7536],[65.1,7619],[65.1,7702],[65.1,7783],[65.1,7865],[65.1,7951],[65.1,8033],[65.1,8119],[65.1,8202],[65.6,8295],[68.3,8383],[71.9,8465],[73.9,8549]]",1,0,358.3938,360.821,91.0416762,1.7811,"[{""rating"":91.04167620340984,""responseTime"":1.7810999999046544}]",space,1.9097,,360.821,Partially,50,360.8225,,,[],,0,9,9,9,1,audio/Narrative7Situation9.wav,audio/Narrative8Situation9.wav,audio/Narrative5Situation9.wav,audio/Narrative6Situation9.wav,2,3,3,4,,,,,,,,,,,,,,,,,,,,,,,,,,,,,,,,,,,,,,,
,,,,,,61035b7247628a323191598e,2024-02-08_15h03.34.474,group3.1-3.2-social-tom,2023.2.2,Win32,142.8571429,65c5074098b851296ff0b7ed,65c5417a4883725ae506b015,,,,,,,,,,,,,,,,,,,,,,,,,,,,,360.8226,1,audio/Narrative8Situation1.wav,365.8253,,365.8254,381.7407,"[[82.9,848],[82,930],[82,1013],[82,1098],[81.1,1181],[68.4,1265],[8.8,1938],[8.9,2023],[7,2105],[6.9,2188],[6.9,2271],[6.9,2355],[6.9,2438],[6.9,2521],[6.9,2600],[8.9,2688],[9.6,2771],[10.6,2855],[12,2938],[12,3020],[12,3104],[12,3188],[12,3271],[12,3354],[12,3436],[12,3521],[12,3604],[12,3688],[12,3771],[12,3850],[12,3938],[12,4021],[12,4102],[12,4187],[12,4271],[12,4353],[12,4436],[12,4520],[12,4602],[12,4686],[13.4,4771],[16.7,4854],[18.1,4937],[19.3,5029],[19.6,5111],[19.6,5203],[19.6,5305],[19.6,5389],[19.6,5470],[19.6,5555],[19.6,5639],[19.6,5719],[19.6,5805],[19.6,5886],[19.6,5971],[19.6,6050],[19.6,6138],[19.6,6222],[19.6,6305],[19.6,6386],[19.6,6472],[19.6,6555],[19.6,6638],[19.6,6719],[19.6,6805],[19.6,6883],[19.5,6969],[19.5,7055],[19.5,7139],[19.5,7221],[19.5,7305],[19.5,7388],[19.5,7469],[19.5,7554],[19.5,7637],[19.5,7719],[19.5,7805],[19.5,7886],[19.5,7972],[19.5,8052],[19.5,8138],[19.5,8221],[19.5,8304],[19.5,8387],[19.5,8472],[19.5,8553],[19.5,8636],[19.5,8718],[19.5,8801],[19.5,8883],[19.5,8968],[19.5,9054],[19.5,9138],[19.5,9221],[19.5,9304],[19.5,9387],[19.5,9471],[19.5,9554],[19.5,9635],[19.5,9721],[19.5,9804],[19.5,9888],[19.5,9971],[21.6,10054],[33.8,10137],[47.1,10221],[57.7,10304],[57.8,10396],[59.1,10486],[60.4,10570],[60.4,10659],[60.4,10742],[60.4,10825],[60.4,10909],[60.4,11007],[60.4,11104],[60.4,11192],[60.4,11272],[60.4,11359],[60.4,11443],[60.4,11525],[60.5,11608],[60.9,11693],[60.9,11775],[60.9,11859],[60.9,11943],[60.9,12023],[61,12109],[61,12191],[61,12273],[61,12359],[61,12441],[61,12526],[61,12608],[61,12691],[61,12775],[61,12859],[61,12942],[61,13026],[61,13108],[61,13190],[61,13276],[61,13358],[61,13442],[61,13525],[61,13605],[61,13692],[61,13775],[61,13858],[61,13938],[61,14023],[61,14109],[61,14191],[61,14273],[61,14358],[61,14442],[61,14523],[61,14608],[61,14691],[61,14774],[61,14858],[61,14941],[61,15022],[61,15106],[61,15188],[61,15275],[61,15356],[61,15439],[61,15524],[61,15608],[61,15691],[61,15775],[61,15873]]",1,0,381.7409,384.5299,68.64583492,1.4086,"[{""rating"":68.64583492279053,""responseTime"":1.4086000000238528}]",space,2.2711,,384.53,Partially,50,384.5325,,,[],,0,10,10,10,1,audio/Narrative8Situation1.wav,audio/Narrative7Situation1.wav,audio/Narrative6Situation1.wav,audio/Narrative5Situation1.wav,5,2,2,5,,,,,,,,,,,,,,,,,,,,,,,,,,,,,,,,,,,,,,,
,,,,,,61035b7247628a323191598e,2024-02-08_15h03.34.474,group3.1-3.2-social-tom,2023.2.2,Win32,142.8571429,65c5074098b851296ff0b7ed,65c5417a4883725ae506b015,,,,,,,,,,,,,,,,,,,,,,,,,,,,,384.533,1,audio/Narrative8Situation2.wav,387.5363,,387.5365,397.6361,"[[62.8,1483],[61.3,1568],[56.9,1653],[50.6,1735],[43,1819],[37.3,1905],[27.5,1994],[25.1,2082],[25.1,2166],[25.1,2255],[25.1,2338],[25.1,2423],[25.1,2506],[17.9,2590],[16.6,2672],[16.6,2755],[16.6,2839],[16.6,2922],[16.5,3006],[16.5,3088],[16.5,3172],[16.5,3254],[16.5,3339],[16.5,3422],[16.5,3504],[16.5,3584],[16.5,3670],[16.5,3755],[16.5,3839],[16.5,3922],[16.5,4005],[16.5,4084],[16.5,4167],[16.5,4253],[16.5,4338],[16.5,4421],[16.5,4502],[16.5,4588],[16.5,4668],[16.5,4752],[16.5,4838],[16.5,4921],[16.5,5004],[16.5,5088],[16.5,5172],[16.5,5254],[16.5,5338],[16.5,5422],[16.5,5505],[16.5,5588],[16.5,5672],[16.5,5755],[16.5,5838],[16.5,5922],[16.5,6004],[16.5,6088],[16.5,6169],[16.5,6253],[16.5,6335],[16.5,6420],[16.5,6504],[16.5,6588],[16.5,6669],[16.5,6749],[16.5,6838],[16.5,6921],[16.5,7002],[16.5,7087],[16.5,7170],[16.5,7254],[16.5,7337],[16.5,7421],[16.5,7500],[16.5,7587],[16.5,7671],[16.5,7754],[16.5,7838],[16.5,7920],[16.5,8004],[16.5,8087],[16.5,8170],[16.5,8253],[16.5,8338],[16.5,8421],[16.5,8504],[16.5,8588],[16.5,8670],[16.5,8754],[16.5,8837],[16.5,8920],[16.5,9004],[16.5,9087],[16.5,9170],[16.5,9253],[16.5,9337],[16.5,9420],[16.5,9502],[16.5,9587],[16.5,9669],[16.5,9752],[16.5,9835],[16.5,9918],[16.5,10002],[16.5,10087]]",1,0,397.6366,400.4916,15.41666587,1.2631,"[{""rating"":15.416665871938068,""responseTime"":1.263100000023826}]",space,2.3379,,400.4917,Partially,50,400.4942,,,[],,0,11,11,11,1,audio/Narrative8Situation2.wav,audio/Narrative7Situation2.wav,audio/Narrative6Situation2.wav,audio/Narrative5Situation2.wav,3,3,3,3,,,,,,,,,,,,,,,,,,,,,,,,,,,,,,,,,,,,,,,
,,,,,,61035b7247628a323191598e,2024-02-08_15h03.34.474,group3.1-3.2-social-tom,2023.2.2,Win32,142.8571429,65c5074098b851296ff0b7ed,65c5417a4883725ae506b015,,,,,,,,,,,,,,,,,,,,,,,,,,,,,400.4946,1,audio/Narrative8Situation3.wav,404.497,,404.4972,426.8725,"[[15.6,1603],[15.6,1686],[15.6,1769],[15.5,1852],[15.1,1936],[15.1,2019],[15.1,2101],[15,2186],[15,2269],[15,2351],[15,2435],[15,2519],[15,2602],[15,2683],[15,2770],[15,2853],[15,2934],[15,3018],[15,3102],[15,3186],[15.3,3270],[17.4,3352],[19.3,3436],[23.9,3519],[28,3603],[32.8,3686],[36.4,3772],[36.5,3866],[36.5,3971],[36.5,4075],[36.5,4180],[36.5,4276],[36.5,4375],[36.5,4472],[36.6,4554],[36.6,4637],[36.6,4721],[36.6,4804],[36.6,4887],[36.6,4972],[36.6,5060],[36.6,5143],[36.6,5226],[36.6,5310],[36.6,5393],[36.6,5477],[36.6,5560],[36.6,5642],[36.6,5727],[36.6,5811],[36.6,5891],[36.6,5976],[36.6,6058],[36.6,6143],[36.6,6226],[36.6,6308],[36.6,6393],[36.6,6476],[36.6,6560],[36.6,6642],[36.6,6727],[36.6,6810],[36.6,6893],[36.6,6977],[36.6,7058],[36.6,7143],[36.6,7226],[36.6,7307],[36.6,7392],[36.6,7476],[36.6,7558],[36.6,7642],[36.6,7726],[36.6,7807],[36.6,7892],[36.6,7983],[36.6,8065],[36.6,8145],[36.6,8231],[36.6,8316],[36.6,8395],[36.6,8478],[36.6,8566],[36.6,8649],[36.6,8730],[36.6,8816],[36.6,8899],[36.6,8981],[36.6,9066],[36.6,9149],[36.6,9230],[36.6,9313],[36.6,9397],[36.6,9480],[36.6,9565],[36.6,9647],[36.6,9732],[36.6,9815],[36.6,9897],[36.6,9982],[37.2,10075],[40.8,10158],[56.3,10242],[72.9,10325],[80.7,10408],[81.1,10508],[83.3,10610],[88.6,10694],[89.1,10788],[89.1,10879],[89.1,10970],[89.1,11052],[89.1,11135],[89.1,11218],[89.1,11302],[89.1,11385],[89.1,11469],[89.1,11552],[89.1,11635],[89.1,11718],[89.1,11802],[87.3,11899],[87.2,11981],[87.2,12067],[87.2,12149],[87.2,12248],[87.2,12353],[87.2,12441],[87.8,12533],[89.1,12623],[89.9,12719],[90.5,12801],[90.6,12884],[90.6,12967],[90.6,13051],[90.6,13134],[90.6,13218],[90.6,13299],[90.6,13385],[90.6,13467],[90.6,13550],[90.6,13632],[90.6,13717],[90.6,13798],[90.6,13884],[90.6,13967],[90.6,14050],[90.6,14134],[90.6,14217],[90.6,14300],[90.6,14383],[90.6,14465],[90.6,14551],[90.6,14632],[90.6,14717],[90.6,14800],[90.6,14883],[90.6,14962],[90.6,15050],[90.6,15132],[90.6,15217],[90.6,15300],[90.6,15384],[90.6,15466],[90.6,15551],[90.6,15634],[90.6,15717],[90.6,15798],[90.6,15882],[90.6,15965],[90.6,16049],[90.6,16133],[90.6,16216],[90.6,16300],[90.6,16383],[90.6,16466],[90.6,16550],[90.6,16629],[90.6,16714],[90.6,16800],[90.6,16880],[90.6,16964],[90.6,17048],[90.6,17128],[90.6,17216],[90.6,17300],[90.6,17381],[90.6,17467],[90.6,17550],[90.6,17633],[90.6,17714],[90.6,17799],[90.6,17883],[90.6,17967],[90.6,18049],[90.6,18132],[90.6,18214],[90.6,18299],[90.6,18382],[90.6,18466],[90.6,18548],[90.6,18632],[90.6,18713],[90.6,18796],[90.6,18883],[90.6,18964],[90.6,19049],[90.6,19132],[90.6,19214],[90.6,19298],[90.6,19381],[90.6,19465],[90.6,19547],[90.6,19632],[90.6,19714],[90.6,19798],[90.6,19882],[90.6,19966],[90.6,20049],[90.6,20132],[90.6,20215],[90.6,20298],[90.6,20382],[90.6,20465],[90.6,20545],[90.6,20631],[90.6,20716],[90.6,20798],[90.6,20878],[90.6,20965],[90.6,21046],[90.6,21132],[90.6,21215],[90.6,21299],[90.6,21382],[90.6,21465],[90.6,21548],[90.6,21629],[90.6,21713],[90.6,21795],[90.6,21880],[90.6,21965],[90.6,22049],[92,22141],[92.9,22230],[93.6,22313]]",1,0,426.8727,429.2328,97.50000636,0.7875,"[{""rating"":97.50000635782878,""responseTime"":0.7875000000000227}]",space,1.8387,,429.233,Partially,50,429.2361,,,[],,0,12,12,12,1,audio/Narrative8Situation3.wav,audio/Narrative7Situation3.wav,audio/Narrative6Situation3.wav,audio/Narrative5Situation3.wav,4,8,5,3,,,,,,,,,,,,,,,,,,,,,,,,,,,,,,,,,,,,,,,
,,,,,,61035b7247628a323191598e,2024-02-08_15h03.34.474,group3.1-3.2-social-tom,2023.2.2,Win32,142.8571429,65c5074098b851296ff0b7ed,65c5417a4883725ae506b015,,,,,,,,,,,,,,,,,,,,,,,,,,,,,429.2367,1,audio/Narrative8Situation4.wav,432.2426,,432.2426,446.4037,"[[82.9,848],[67.3,928],[42.4,1012],[32.9,1095],[1.4,1595],[1.3,1678],[1.8,1761],[1.8,1846],[1.8,1929],[1.8,2012],[1.9,2098],[2,2211],[2,2293],[2,2376],[2,2459],[2,2543],[2,2627],[2,2708],[2,2791],[2,2876],[2,2959],[2,3043],[2,3127],[2,3210],[2,3294],[2,3377],[2,3458],[2.1,3544],[2.9,3625],[6.9,3710],[17.1,3794],[31.5,3877],[39.8,3961],[47.6,4045],[50,4129],[53.6,4219],[59.2,4303],[60.4,4386],[64.1,4469],[69.7,4553],[78.4,4636],[80.2,4726],[80.4,4831],[81.8,4920],[82.3,5016],[82.3,5096],[82.3,5177],[82.3,5261],[82.3,5345],[82.3,5427],[82.3,5512],[82.3,5594],[82.3,5677],[82.6,5763],[84.1,5844],[84.1,5928],[84.1,6011],[85.7,6094],[89.1,6177],[93.5,6260],[94.1,6343],[95.6,6427],[97.8,6510],[98.6,6593],[98.6,6677],[98.6,6761],[98.6,6843],[98.8,6927],[98.8,7011],[98.8,7093],[98.8,7177],[98.8,7260],[98.8,7344],[98.8,7427],[98.8,7510],[98.8,7594],[98.8,7677],[98.8,7760],[98.8,7844],[98.8,7926],[98.8,8011],[98.8,8093],[98.8,8177],[98.8,8260],[98.8,8343],[98.8,8427],[98.8,8511],[98.8,8593],[98.8,8677],[98.8,8759],[98.8,8844],[98.8,8927],[98.8,9010],[98.8,9093],[98.8,9176],[98.8,9260],[98.8,9343],[98.6,9426],[98.8,9511],[99.3,9593],[99.3,9676],[99.3,9760],[99.3,9843],[99.3,9927],[99.3,10009],[99.3,10092],[99.3,10176],[99.3,10260],[99.3,10343],[99.3,10427],[99.3,10510],[99.3,10592],[99.3,10677],[99.3,10759],[99.3,10843],[99.3,10927],[99.3,11009],[99.3,11093],[99.3,11175],[99.3,11259],[99.3,11342],[99.3,11426],[99.3,11509],[99.3,11592],[99.3,11675],[99.3,11759],[99.3,11842],[99.3,11927],[99.3,12009],[99.3,12093],[99.3,12176],[99.3,12259],[99.3,12343],[99.3,12426],[99.3,12509],[99.3,12592],[99.3,12676],[99.3,12758],[99.3,12842],[99.3,12926],[99.3,13008],[99.3,13091],[99.3,13175],[99.3,13259],[99.3,13342],[99.3,13426],[99.3,13508],[99.3,13592],[99.3,13675],[99.3,13759],[99.3,13843],[99.3,13925],[99.3,14008],[99.3,14091]]",1,0,446.4039,449.7892,99.68749682,2.7352,"[{""rating"":99.68749682108562,""responseTime"":2.7351999999284544}]",space,2.8662,,449.7893,Partially,50,449.7919,,,[],,0,13,13,13,1,audio/Narrative8Situation4.wav,audio/Narrative7Situation4.wav,audio/Narrative6Situation4.wav,audio/Narrative5Situation4.wav,3,3,2,1,,,,,,,,,,,,,,,,,,,,,,,,,,,,,,,,,,,,,,,
,,,,,,61035b7247628a323191598e,2024-02-08_15h03.34.474,group3.1-3.2-social-tom,2023.2.2,Win32,142.8571429,65c5074098b851296ff0b7ed,65c5417a4883725ae506b015,,,,,,,,,,,,,,,,,,,,,,,,,,,,,449.7925,1,audio/Narrative8Situation5.wav,451.7982,,451.7984,460.0226,"[[67.6,1751],[67.9,1837],[73.1,1918],[73.1,2004],[73.1,2087],[73.1,2169],[73.1,2258],[71.8,2344],[71.6,2424],[71.6,2510],[71.6,2592],[71.6,2677],[71.6,2758],[71.6,2842],[76.4,2927],[83,3011],[86.5,3093],[87.8,3176],[90.1,3260],[93.2,3344],[93.2,3434],[94,3516],[94.1,3600],[94.1,3683],[94.1,3767],[94.1,3851],[94.1,3934],[94.1,4026],[94.1,4109],[94.1,4198],[94.1,4289],[94.1,4378],[94.1,4477],[94.1,4580],[94.1,4670],[94.1,4760],[94.1,4850],[94.1,4946],[94.1,5031],[94.1,5114],[94.1,5197],[94.1,5280],[94.1,5363],[94.1,5447],[94.1,5530],[94.1,5613],[94.1,5692],[94.1,5780],[94.1,5862],[94.1,5943],[94.1,6030],[94.1,6113],[94.1,6196],[94.1,6280],[94.1,6363],[94.1,6446],[94.1,6528],[94.1,6613],[94.1,6697],[94.1,6778],[94.1,6863],[94.1,6944],[94.1,7030],[94.1,7111],[94.1,7196],[94.1,7280],[94.1,7363],[94.1,7446],[94.1,7525],[94.1,7612],[94.1,7696],[94.1,7779],[94.1,7863],[94.1,7946],[94.1,8027],[94.1,8112],[94.1,8196]]",1,0,460.0228,465.5628,97.91666667,4.2859,"[{""rating"":97.91666666666667,""responseTime"":4.285900000095353}]",space,5.0196,,465.563,Definitely yes,100,465.5672,,,[],,0,14,14,14,1,audio/Narrative8Situation5.wav,audio/Narrative7Situation5.wav,audio/Narrative6Situation5.wav,audio/Narrative5Situation5.wav,2,5,2,5,,,,,,,,,,,,,,,,,,,,,,,,,,,,,,,,,,,,,,,
,,,,,,61035b7247628a323191598e,2024-02-08_15h03.34.474,group3.1-3.2-social-tom,2023.2.2,Win32,142.8571429,65c5074098b851296ff0b7ed,65c5417a4883725ae506b015,,,,,,,,,,,,,,,,,,,,,,,,,,,,,465.5675,1,audio/Narrative8Situation6.wav,467.5689,,467.569,474.0215,"[[87.8,180],[86.6,263],[86.6,347],[86.6,431],[86.6,515],[86.6,599],[86.6,687],[86.6,771],[86.6,849],[86.6,934],[86.6,1020],[86.6,1103],[86.6,1185],[86.6,1271],[86.6,1361],[86.6,1443],[86.6,1527],[86.6,1610],[86.6,1691],[86.6,1777],[86.6,1860],[86.6,1943],[86.6,2025],[86.6,2108],[86.6,2193],[86.6,2277],[86.6,2358],[86.6,2443],[86.6,2524],[86.6,2610],[86.6,2693],[86.6,2777],[86.6,2860],[86.6,2940],[86.6,3025],[86.6,3110],[86.6,3189],[86.6,3275],[86.6,3360],[86.6,3440],[86.6,3526],[86.6,3609],[86.6,3693],[86.6,3776],[86.6,3855],[86.6,3943],[86.6,4026],[86.6,4108],[86.6,4191],[86.6,4274],[86.6,4356],[86.6,4443],[86.6,4526],[86.6,4607],[86.6,4691],[86.6,4775],[86.6,4859],[86.6,4942],[86.6,5027],[86.6,5109],[86.6,5193],[86.6,5276],[86.6,5357],[86.6,5441],[86.6,5522],[86.6,5609],[86.6,5692],[86.6,5776],[86.6,5859],[87,5952],[87,6035],[87,6121],[86.9,6206],[86.1,6290],[86,6373],[86.9,6452]]",1,0,474.0218,475.9973,96.56249682,0.8147,"[{""rating"":96.56249682108562,""responseTime"":0.814700000047651}]",space,1.459,,475.9974,Not at all,0,476.0015,,,[],,0,15,15,15,1,audio/Narrative8Situation6.wav,audio/Narrative7Situation6.wav,audio/Narrative6Situation6.wav,audio/Narrative5Situation6.wav,2,3,2,3,,,,,,,,,,,,,,,,,,,,,,,,,,,,,,,,,,,,,,,
,,,,,,61035b7247628a323191598e,2024-02-08_15h03.34.474,group3.1-3.2-social-tom,2023.2.2,Win32,142.8571429,65c5074098b851296ff0b7ed,65c5417a4883725ae506b015,,,,,,,,,,,,,,,,,,,,,,,,,,,,,476.0018,1,audio/Narrative8Situation7.wav,479.0063,,479.0064,491.0765,"[[96.9,1129],[96.9,1210],[96.9,1292],[96.9,1377],[96.9,1461],[96.9,1546],[96.9,1626],[95.9,1710],[95.9,1795],[94.7,1878],[92.9,1962],[87.6,2045],[87.2,2123],[87.1,2210],[87.1,2293],[87.1,2378],[87.1,2460],[87.1,2543],[87.1,2628],[67.8,2712],[40.9,2795],[25.1,2879],[18.5,2972],[18.5,3074],[17.4,3171],[15.5,3262],[15.2,3338],[15.2,3421],[20.7,3505],[22.7,3588],[23.8,3672],[27.2,3755],[32.5,3838],[36.5,3922],[39.3,4004],[40.4,4088],[41.7,4172],[41.7,4255],[41.7,4339],[41.7,4422],[41.7,4506],[41.7,4588],[41.7,4672],[41.7,4756],[41.7,4838],[41.7,4921],[41.7,5005],[41.7,5089],[41.7,5171],[41.7,5255],[41.7,5338],[41.7,5422],[41.7,5504],[41.7,5588],[41.7,5672],[41.7,5755],[41.7,5838],[41.7,5921],[41.7,6005],[41.7,6089],[41.7,6171],[41.7,6256],[41.7,6337],[41.7,6421],[41.7,6504],[41.7,6588],[41.7,6671],[41.7,6754],[41.7,6837],[41.7,6921],[41.7,7004],[41.7,7087],[41.7,7170],[41.7,7254],[41.7,7338],[41.7,7420],[41.7,7505],[41.7,7588],[41.7,7671],[41.7,7754],[41.7,7837],[41.7,7921],[41.7,8003],[41.7,8087],[41.7,8171],[41.7,8254],[41.7,8337],[41.7,8421],[41.7,8503],[41.7,8587],[41.7,8670],[41.7,8754],[41.7,8837],[41.7,8921],[41.7,9003],[41.7,9086],[41.7,9172],[41.7,9254],[41.7,9337],[41.7,9420],[41.7,9503],[41.7,9586],[41.7,9670],[41.7,9753],[41.7,9836],[41.7,9920],[41.7,10003],[41.7,10087],[41.7,10170],[41.7,10253],[41.7,10336],[41.7,10420],[41.7,10503],[41.7,10587],[41.7,10670],[41.7,10753],[41.7,10836],[41.7,10919],[41.7,11004],[41.7,11086],[41.7,11170],[41.7,11253],[41.7,11337],[41.7,11419],[41.7,11502],[41.7,11586],[40.4,11681],[40.6,11760],[40.6,11847],[40.6,11928],[40.6,12012]]",1,0,491.0767,495.2489,49.68750477,2.9004,"[{""rating"":38.22917143503825,""responseTime"":1.5961000000238528},{""rating"":49.68750476837158,""responseTime"":2.900400000095374}]",space,3.6514,,495.249,Partially,50,495.2505,,,[],,0,16,16,16,1,audio/Narrative8Situation7.wav,audio/Narrative7Situation7.wav,audio/Narrative6Situation7.wav,audio/Narrative5Situation7.wav,3,5,5,4,,,,,,,,,,,,,,,,,,,,,,,,,,,,,,,,,,,,,,,
,,,,,,61035b7247628a323191598e,2024-02-08_15h03.34.474,group3.1-3.2-social-tom,2023.2.2,Win32,142.8571429,65c5074098b851296ff0b7ed,65c5417a4883725ae506b015,,,,,,,,,,,,,,,,,,,,,,,,,,,,,495.2507,1,audio/Narrative8Situation8.wav,498.2576,,498.258,511.0924,"[[999,1],[999,91],[999,174],[999,260],[999,343],[999,426],[999,510],[999,594],[999,675],[999,759],[999,839],[999,922],[999,1010],[999,1092],[999,1176],[999,1256],[999,1339],[999,1427],[999,1508],[999,1589],[999,1676],[999,1758],[999,1843],[999,1926],[999,2010],[999,2091],[999,2174],[999,2259],[999,2342],[999,2427],[999,2509],[999,2592],[999,2676],[999,2757],[999,2843],[999,2926],[999,3006],[999,3093],[999,3176],[999,3257],[999,3339],[999,3424],[999,3509],[999,3592],[999,3672],[999,3759],[999,3842],[999,3926],[999,4009],[999,4092],[999,4174],[999,4257],[999,4341],[999,4426],[999,4508],[999,4589],[999,4676],[999,4758],[999,4842],[999,4926],[999,5009],[999,5093],[999,5173],[999,5262],[999,5348],[999,5428],[999,5513],[999,5598],[999,5682],[999,5762],[53.9,5859],[44.6,5941],[42.3,6025],[42.3,6112],[43.2,6196],[46.4,6280],[49,6364],[51.6,6447],[53.4,6540],[55.1,6634],[56.1,6725],[57.1,6806],[57.2,6886],[57.3,6969],[57.3,7052],[57.3,7136],[57.3,7219],[57.3,7302],[57.3,7386],[57.3,7469],[57.3,7552],[57.3,7635],[57.3,7719],[57.3,7802],[57.3,7885],[57.3,7969],[57.3,8052],[57.3,8136],[57.3,8219],[57.3,8302],[57.3,8386],[57.3,8469],[57.3,8552],[57.3,8635],[57.3,8718],[57.3,8802],[57.3,8885],[57.3,8968],[57.3,9052],[57.3,9135],[57.3,9218],[57.3,9302],[57.3,9385],[57.3,9470],[57.3,9552],[57.3,9635],[57.3,9718],[57.3,9801],[57.3,9885],[57.3,9968],[57.3,10052],[57.3,10135],[57.3,10218],[57.3,10302],[57.3,10385],[57.3,10469],[57.3,10551],[57.3,10635],[57.3,10718],[57.3,10802],[57.3,10884],[57.3,10970],[57.3,11052],[57.3,11136],[57.3,11219],[57.3,11301],[57.3,11384],[57.3,11468],[57.3,11552],[57.3,11636],[57.3,11718],[57.3,11802],[57.3,11885],[57.3,11968],[57.3,12052],[57.3,12134],[57.3,12218],[57.3,12302],[57.3,12385],[57.3,12467],[58,12563],[59.2,12653],[62,12743],[67.5,12827]]",1,0,511.0926,513.8026,73.95833333,2.3675,"[{""rating"":67.70833333333334,""responseTime"":1.3690000000000282},{""rating"":73.95833333333334,""responseTime"":2.3675000000000637}]",space,2.1891,,513.8028,Definitely yes,100,513.8066,,,[],,0,17,17,17,1,audio/Narrative8Situation8.wav,audio/Narrative7Situation8.wav,audio/Narrative6Situation8.wav,audio/Narrative5Situation8.wav,3,2,5,3,,,,,,,,,,,,,,,,,,,,,,,,,,,,,,,,,,,,,,,
,,,,,,61035b7247628a323191598e,2024-02-08_15h03.34.474,group3.1-3.2-social-tom,2023.2.2,Win32,142.8571429,65c5074098b851296ff0b7ed,65c5417a4883725ae506b015,,,,,,,,,,,,,,,,,,,,,,,,,,,,,513.8069,1,audio/Narrative8Situation9.wav,516.8117,,516.8118,528.1147,"[[71.7,3520],[71.7,3603],[71.7,3685],[71.7,3765],[71.7,3853],[71.7,3932],[71.7,4019],[71.7,4103],[71.7,4186],[71.7,4268],[71.7,4353],[71.7,4434],[71.7,4519],[71.7,4603],[71.7,4686],[71.7,4769],[71.7,4852],[71.7,4931],[71.7,5020],[71.7,5103],[71.7,5186],[71.7,5269],[71.7,5349],[71.7,5433],[71.7,5517],[71.7,5603],[71.7,5683],[71.7,5766],[71.7,5852],[71.7,5936],[71.7,6017],[71.7,6101],[71.7,6186],[71.7,6269],[71.7,6351],[71.7,6431],[71.7,6519],[71.7,6602],[71.7,6681],[71.7,6767],[71.7,6852],[71.7,6932],[71.7,7019],[71.7,7102],[71.7,7184],[71.7,7268],[71.1,7365],[68,7449],[67.7,7532],[67.9,7615],[74.4,7699],[79.3,7782],[80.6,7866],[83.3,7949],[90.1,8033],[98.5,8119],[99.9,8207],[100,8291],[100,8374],[100,8476],[98,8560],[97.1,8660],[96.5,8748],[96.5,8831],[96.5,8916],[96.5,8998],[96.5,9086],[96.5,9171],[96.5,9251],[94.4,9337],[93.6,9419],[93.6,9500],[93.6,9586],[93.6,9672],[93.6,9753],[93.6,9836],[93.6,9921],[93.6,10000],[93.6,10087],[93.6,10170],[93.6,10254],[93.6,10335],[93.6,10420],[93.6,10503],[93.6,10587],[93.6,10669],[93.6,10754],[93.6,10837],[93.6,10918],[93.6,11004],[93.6,11087],[93.6,11169],[93.6,11254]]",1,0,528.1148,530.9611,94.89583969,2.026,"[{""rating"":94.89583969116211,""responseTime"":2.0259999999999536}]",space,2.3273,,530.9612,Definitely yes,100,530.9641,,,[],,0,18,18,18,1,audio/Narrative8Situation9.wav,audio/Narrative7Situation9.wav,audio/Narrative6Situation9.wav,audio/Narrative5Situation9.wav,3,2,4,3,,,,,,,,,,,,,,,,,,,,,,,,,,,,,,,,,,,,,,,
,,,,,,61035b7247628a323191598e,2024-02-08_15h03.34.474,group3.1-3.2-social-tom,2023.2.2,Win32,142.8571429,65c5074098b851296ff0b7ed,65c5417a4883725ae506b015,,,,,,,,,,,,,,,,,,,,,,,,,,,543.2673,545.8413,545.8556,2,audio/Narrative13Situation2.wav,545.8556,,545.8557,575.597,"[[92.3,1169],[91.9,1253],[91.9,1336],[91.9,1420],[91.9,1502],[81.3,1586],[34.9,2260],[34.7,2343],[33.6,2427],[32.6,2508],[31.8,2600],[31.8,2683],[23.9,2766],[7.9,2850],[7.9,2933],[7.9,3016],[9.3,3100],[10.2,3184],[10.4,3276],[10.4,3373],[10.4,3468],[10.4,3551],[10.4,3634],[10.4,3715],[10.4,3799],[10.4,3880],[10.4,3965],[10.4,4049],[10.4,4134],[10.4,4217],[10.4,4300],[10.4,4380],[10.5,4468],[10.9,4550],[10.9,4634],[10.9,4718],[10.9,4796],[11.4,4883],[11.5,4966],[11.7,5048],[11.7,5134],[11.7,5218],[11.7,5300],[11.7,5379],[11.7,5467],[11.7,5557],[11.7,5641],[11.7,5721],[11.7,5809],[11.7,5889],[11.7,5973],[11.7,6056],[11.7,6141],[11.7,6223],[11.7,6304],[11.7,6392],[11.7,6472],[11.7,6557],[11.7,6640],[11.7,6723],[11.7,6803],[11.7,6890],[11.7,6973],[11.7,7056],[11.7,7140],[11.7,7222],[11.7,7307],[11.7,7390],[11.7,7472],[11.7,7555],[11.7,7640],[11.7,7723],[11.7,7807],[11.7,7890],[11.7,7973],[11.7,8052],[19.9,8147],[29,8230],[37.5,8313],[39.6,8397],[43,8489],[49.9,8573],[55.5,8657],[58,8744],[58,8850],[58,8939],[58,9021],[58.1,9104],[58.1,9188],[58.1,9270],[58.1,9354],[58.1,9438],[58.1,9521],[58.1,9602],[58.1,9688],[58.1,9767],[58.1,9854],[58.1,9938],[58.1,10020],[58.1,10104],[58.1,10184],[58.1,10269],[58.1,10354],[58.1,10435],[58.1,10521],[58.1,10604],[58.1,10688],[58.1,10769],[58.1,10850],[58.1,10937],[58.1,11021],[58.1,11104],[58.1,11188],[58.1,11271],[58.1,11354],[58.1,11436],[58.1,11519],[58.1,11602],[58.1,11686],[58.1,11771],[58.1,11852],[58.1,11937],[58,12035],[58,12117],[58,12200],[58,12286],[58,12383],[58,12472],[58,12556],[58,12639],[58,12729],[58,12813],[58,12896],[58,12979],[58,13077],[58,13167],[58,13250],[58,13347],[58.1,13447],[65.7,13530],[74,13613],[80.9,13696],[83.9,13780],[88,13863],[91.1,13946],[92.5,14029],[94.5,14128],[94.7,14213],[94.7,14298],[94.7,14381],[94.7,14464],[94.7,14549],[93.6,14626],[93.6,14710],[93.6,14793],[93.6,14878],[93,14960],[92.1,15043],[92.1,15127],[92.1,15211],[92.1,15295],[92.1,15378],[92.1,15459],[92.2,15545],[92.4,15628],[93.6,15709],[93.6,15793],[93.6,15876],[93.6,15960],[93.6,16043],[93.6,16126],[93.6,16209],[93.6,16293],[93.6,16376],[93.6,16460],[93.6,16543],[93.6,16626],[93.6,16710],[93.6,16792],[93.6,16876],[93.6,16960],[93.6,17042],[93.6,17127],[93.6,17209],[93.6,17293],[93.6,17377],[93.6,17460],[93.6,17543],[93.6,17626],[93.6,17710],[93.6,17792],[93.6,17876],[93.6,17960],[93.6,18043],[93.6,18126],[93.6,18210],[93.6,18292],[93.6,18377],[93.6,18460],[93.6,18542],[93.6,18626],[93.6,18709],[93.6,18792],[93.6,18876],[93.6,18959],[93.6,19042],[93.6,19125],[93.6,19209],[93.6,19293],[93.6,19376],[93.6,19459],[93.6,19542],[93.6,19626],[93.6,19710],[93.6,19792],[93.6,19875],[93.6,19958],[93.6,20042],[93.6,20128],[93.6,20209],[93.6,20292],[93.6,20375],[93.6,20459],[93.6,20542],[93.6,20626],[93.6,20710],[93.6,20791],[93.6,20875],[93.6,20958],[93.6,21041],[93.6,21126],[93.6,21208],[93.6,21292],[93.6,21375],[93.6,21458],[93.6,21542],[93.6,21624],[93.6,21708],[93.6,21791],[93.6,21874],[93.6,21958],[93.6,22041],[93.6,22126],[93.6,22208],[93.6,22291],[93.6,22374],[93.6,22458],[93.6,22541],[93.6,22626],[93.6,22707],[93.6,22791],[93.6,22874],[93.6,22959],[93.6,23041],[93.6,23124],[93.6,23210],[93.6,23291],[93.6,23375],[93.6,23458],[93.6,23541],[93.6,23625],[93.6,23708],[93.6,23791],[93.6,23875],[93.6,23958],[93.6,24041],[93.6,24125],[93.6,24207],[93.6,24291],[93.6,24374],[93.6,24458],[93.6,24541],[93.6,24625],[93.6,24708],[93.6,24791],[93.6,24874],[93.6,24957],[93.6,25040],[93.6,25124],[93.6,25208],[93.6,25290],[93.6,25374],[93.6,25457],[93.6,25542],[93.6,25624],[93.6,25707],[93.6,25790],[93.6,25873],[93.6,25957],[93.6,26041],[93.6,26123],[93.6,26206],[93.6,26290],[93.6,26374],[93.6,26457],[93.6,26540],[93.6,26624],[93.3,26715],[93.4,26797],[93.4,26880],[93.4,26963],[93.4,27047],[93.4,27130],[93.4,27214],[93.4,27298],[93.4,27380],[93.4,27463],[93.4,27548],[93.3,27630],[91.3,27714],[84.4,27796],[79.3,27879],[78.7,27963],[78.7,28047],[78.7,28130],[78.7,28213],[78.7,28297],[78.7,28381],[78.7,28463],[78.7,28547],[78.7,28630],[78.7,28713],[78.7,28796],[78.7,28880],[78.7,28962],[78.7,29046],[78.7,29130],[78.7,29213],[78.7,29297],[78.7,29379],[78.7,29462],[78.7,29546],[78.7,29629],[78.7,29713]]",1,0,575.5975,575.6011,,,[],,,,575.6012,Partially,50,575.6045,,,[],,0,0,0,0,1,audio/Narrative13Situation2.wav,audio/Narrative13Situation2.wav,audio/Narrative13Situation2.wav,audio/Narrative13Situation2.wav,2,2,2,2,,,,,530.9654,543.2562,space,11.7738,,,,,,,,,,,,,,,,,,,,,,,,,,,,,,,
,,,,,,61035b7247628a323191598e,2024-02-08_15h03.34.474,group3.1-3.2-social-tom,2023.2.2,Win32,142.8571429,65c5074098b851296ff0b7ed,65c5417a4883725ae506b015,,,,,,,,,,,,,,,,,,,,,,,,,,,,,575.6048,2,audio/Narrative5Situation1.wav,580.6095,,580.6096,593.8831,"[[76.4,1288],[76.4,1371],[76.4,1455],[76.4,1538],[76.4,1620],[76.4,1704],[75.1,1788],[20.7,1871],[0.7,2545],[0.7,2629],[0.7,2711],[0.7,2794],[0.7,2875],[0.7,2958],[0.7,3044],[0.7,3125],[0.7,3211],[0.7,3294],[0.7,3378],[0.7,3459],[0.7,3544],[0.7,3627],[0.7,3710],[0.7,3794],[0.7,3877],[0.7,3961],[0.7,4042],[0.7,4127],[0.7,4208],[0.7,4290],[0.7,4377],[0.7,4461],[0.7,4544],[0.7,4627],[0.7,4710],[0.7,4793],[0.7,4876],[0.7,4961],[0.7,5043],[0.7,5127],[0.7,5209],[3.6,5294],[7.5,5377],[9.4,5459],[10.3,5543],[11.2,5628],[11.2,5710],[11.2,5800],[11.2,5884],[11.2,5965],[11.2,6049],[11.2,6131],[11.2,6215],[11.2,6300],[11.2,6383],[11.2,6465],[11.2,6546],[11.2,6633],[11.2,6717],[11.2,6798],[11.2,6881],[11.2,6967],[11.2,7048],[11.2,7133],[11.2,7217],[11.2,7300],[11.2,7384],[11.2,7467],[11.2,7548],[11.2,7633],[11.2,7716],[11.2,7800],[11.2,7881],[11.2,7966],[11.2,8050],[11.2,8132],[11.2,8216],[11.2,8300],[11.2,8379],[11.2,8466],[11.2,8550],[11.2,8631],[11.2,8714],[11.2,8800],[11.2,8883],[11.2,8966],[11.2,9049],[11.2,9133],[11.2,9214],[11.2,9295],[11.2,9383],[11.2,9466],[11.2,9545],[11.2,9632],[11.2,9711],[11.2,9797],[11.2,9882],[11.2,9966],[11.2,10049],[11.2,10131],[11.2,10215],[11.2,10297],[11.2,10381],[11.2,10465],[11.2,10546],[14.5,10642],[38.4,10725],[62.6,10809],[67.2,10891],[67.4,10980],[66.8,11064],[64.5,11145],[64.5,11228],[64.5,11310],[64.3,11398],[63.6,11474],[63.4,11559],[63.4,11641],[63.4,11725],[63.4,11809],[63.4,11892],[63.4,11975],[63.4,12058],[63.4,12143],[63.4,12225],[63.4,12308],[63.4,12391],[63.4,12475],[63.4,12558],[63.4,12643],[63.4,12725],[63.4,12808],[63.4,12892],[63.4,12974],[63.4,13058],[63.4,13142],[63.4,13224]]",1,0,593.8834,596.0885,58.85416667,1.4899,"[{""rating"":58.854166666666664,""responseTime"":1.48989999997616}]",space,1.6887,,596.0887,Definitely yes,100,596.0926,,,[],,0,1,1,1,1,audio/Narrative7Situation1.wav,audio/Narrative8Situation1.wav,audio/Narrative5Situation1.wav,audio/Narrative6Situation1.wav,2,5,5,2,,,,,,,,,,,,,,,,,,,,,,,,,,,,,,,,,,,,,,,
,,,,,,61035b7247628a323191598e,2024-02-08_15h03.34.474,group3.1-3.2-social-tom,2023.2.2,Win32,142.8571429,65c5074098b851296ff0b7ed,65c5417a4883725ae506b015,,,,,,,,,,,,,,,,,,,,,,,,,,,,,596.0929,2,audio/Narrative5Situation2.wav,599.093,,599.093,628.5451,"[[56.4,4599],[52.2,4682],[48.8,4766],[48.3,4849],[48.3,4935],[41.7,5020],[9.6,5441],[12,5523],[13.5,5606],[13.9,5690],[13.9,5772],[13.9,5857],[14,5939],[14,6024],[14,6106],[14,6189],[14,6273],[14,6357],[14,6440],[14,6525],[14,6606],[12.9,6688],[12.4,6772],[12.3,6856],[12.3,6941],[12.3,7022],[12.3,7105],[12.3,7190],[12.3,7272],[12.3,7355],[12.3,7440],[12.3,7522],[12.3,7605],[12.3,7690],[12.3,7772],[12.2,7857],[12.2,7939],[12.2,8022],[12.2,8105],[12.2,8189],[12.2,8272],[12.2,8355],[12.2,8439],[12.2,8524],[12.2,8606],[12.2,8690],[12.2,8773],[15.5,8855],[18.8,8938],[19.6,9022],[19.8,9105],[20.7,9188],[21.1,9272],[21.1,9356],[21.1,9439],[21.3,9523],[21.3,9606],[21.3,9688],[21.3,9772],[21.3,9855],[21.3,9940],[21.3,10022],[21.3,10106],[21.3,10188],[21.3,10271],[21.3,10355],[21.3,10438],[21.3,10522],[21.3,10605],[21.3,10689],[21.3,10771],[21.3,10856],[21.3,10938],[21.3,11022],[21.3,11105],[21.3,11187],[21.3,11271],[21.3,11355],[21.3,11438],[21.3,11522],[21.3,11605],[21.3,11688],[21.3,11772],[21.3,11854],[21.3,11937],[21.3,12021],[21.3,12106],[21.3,12188],[21.3,12271],[21.3,12355],[21.3,12437],[21.3,12521],[21.3,12604],[21.3,12687],[21.3,12770],[21.3,12855],[21.3,12937],[21.3,13020],[21.3,13104],[21.3,13188],[21.3,13270],[21.3,13354],[21.3,13437],[21.3,13520],[21.3,13604],[21.3,13687],[21.3,13771],[21.3,13853],[21.3,13937],[21.3,14020],[21.3,14103],[21.3,14188],[21.3,14270],[21.3,14353],[21.3,14437],[21.3,14520],[21.3,14603],[21.3,14686],[21.3,14770],[21.3,14854],[21.3,14937],[21.3,15019],[21.3,15103],[21.3,15187],[21.3,15270],[21.3,15354],[21.3,15437],[21.3,15519],[21.3,15605],[23.8,15700],[25,15788],[25,15867],[25,15954],[25,16038],[25,16120],[24.7,16206],[24.7,16287],[24.7,16372],[24.7,16461],[24.7,16545],[24.7,16629],[24.7,16711],[24.7,16795],[24.7,16876],[24.7,16961],[24.7,17045],[24.7,17126],[24.7,17211],[24.7,17295],[24.7,17377],[24.7,17462],[24.7,17544],[24.7,17625],[24.7,17711],[24.7,17794],[24.7,17878],[24.7,17961],[24.7,18044],[24.7,18124],[24.7,18211],[24.7,18294],[24.7,18378],[24.7,18461],[24.7,18544],[24.7,18625],[24.7,18711],[24.7,18797],[24.7,18880],[24.7,18965],[24.7,19047],[24.7,19131],[24.7,19213],[24.7,19296],[24.7,19379],[24.7,19463],[24.7,19547],[24.7,19630],[24.7,19714],[24.7,19797],[24.7,19880],[24.7,19963],[24.7,20047],[24.7,20131],[24.7,20214],[24.7,20296],[24.7,20381],[24.7,20462],[24.7,20546],[24.7,20631],[24.7,20713],[24.7,20798],[24.7,20879],[24.7,20962],[24.7,21046],[24.7,21130],[24.7,21213],[24.7,21297],[24.8,21391],[24.8,21472],[24.9,21558],[24.8,21641],[25.2,21725],[25.8,21806],[25.8,21888],[25.8,21974],[25.9,22057],[25.9,22137],[25.9,22223],[25.9,22306],[25.9,22390],[25.9,22473],[25.9,22555],[25.9,22640],[25.9,22721],[25.9,22807],[25.9,22885],[25.9,22974],[25.9,23056],[26.3,23141],[27.1,23223],[28.1,23307],[31.1,23391],[32.1,23473],[34.2,23557],[35.2,23638],[35.7,23726],[35.7,23807],[35.7,23891],[36.5,23973],[36.9,24072],[37,24153],[37,24244],[37,24336],[37,24434],[37,24522],[37,24603],[37,24687],[37,24768],[37,24852],[37,24936],[37,25018],[37,25105],[37,25186],[37,25272],[37,25353],[37,25438],[37,25521],[37,25605],[37,25686],[37,25770],[37,25855],[37,25938],[37,26021],[37,26105],[37,26183],[37,26271],[37,26351],[37,26438],[37,26520],[37,26604],[37,26688],[37,26771],[37,26850],[37,26935],[37,27021],[37,27103],[37,27187],[37,27272],[37,27350],[37,27437],[37,27521],[37,27602],[37,27686],[37,27771],[37,27854],[37,27936],[37,28017],[37,28100],[37,28187],[37,28270],[37,28354],[37,28437],[37,28520],[37,28604],[37,28686],[37,28770],[37,28854],[37,28937],[37,29021],[37,29102],[37,29185],[37,29270],[37,29353],[37,29437]]",1,0,628.5456,630.6409,36.97916667,1.1524,"[{""rating"":36.979166666666664,""responseTime"":1.1523999999761827}]",space,1.5809,,630.641,Not at all,0,630.6456,,,[],,0,2,2,2,1,audio/Narrative7Situation2.wav,audio/Narrative8Situation2.wav,audio/Narrative5Situation2.wav,audio/Narrative6Situation2.wav,3,3,3,3,,,,,,,,,,,,,,,,,,,,,,,,,,,,,,,,,,,,,,,
,,,,,,61035b7247628a323191598e,2024-02-08_15h03.34.474,group3.1-3.2-social-tom,2023.2.2,Win32,142.8571429,65c5074098b851296ff0b7ed,65c5417a4883725ae506b015,,,,,,,,,,,,,,,,,,,,,,,,,,,,,630.6461,2,audio/Narrative5Situation3.wav,633.6476,,633.6477,647.5401,"[[35.8,5944],[76.1,6199],[86.1,6283],[100,6367],[100,6447],[100,6541],[100,6624],[100,6711],[100,6803],[100,6885],[98.2,6970],[97.5,7049],[97,7136],[96.8,7218],[96.7,7302],[96.7,7383],[96.7,7470],[96.7,7551],[96.7,7635],[96.7,7726],[96.7,7809],[96.7,7893],[96.7,7976],[96.7,8059],[96.7,8143],[96.7,8226],[96.7,8306],[96.7,8392],[96.7,8476],[96.7,8558],[96.7,8642],[96.7,8726],[96.7,8809],[96.7,8892],[96.7,8975],[96.7,9059],[96.7,9142],[96.7,9225],[96.7,9307],[96.7,9392],[96.7,9475],[96.7,9559],[96.7,9642],[96.7,9725],[96.7,9809],[96.7,9891],[96.7,9975],[96.7,10059],[96.7,10141],[96.7,10225],[96.7,10308],[96.7,10392],[96.7,10475],[96.7,10555],[96.7,10642],[96.7,10726],[96.7,10808],[96.7,10891],[96.7,10975],[96.7,11058],[96.7,11141],[96.7,11220],[96.7,11308],[96.7,11391],[96.7,11475],[96.7,11558],[96.7,11641],[96.7,11725],[96.7,11808],[96.7,11889],[96.7,11975],[96.7,12059],[96.7,12141],[96.7,12231],[96.7,12316],[96.7,12403],[96.7,12489],[96.7,12572],[96.7,12655],[96.7,12734],[96.7,12822],[96.7,12905],[96.7,12988],[96.7,13072],[96.7,13154],[96.7,13236],[96.7,13321],[96.7,13403],[96.7,13486],[96.7,13570],[96.7,13653],[96.7,13738],[96.7,13822]]",1,0,647.5402,650.2671,98.12499682,1.7617,"[{""rating"":98.12499682108562,""responseTime"":1.76169999992851}]",space,2.2147,,650.2671,Partially,50,650.2702,,,[],,0,3,3,3,1,audio/Narrative7Situation3.wav,audio/Narrative8Situation3.wav,audio/Narrative5Situation3.wav,audio/Narrative6Situation3.wav,8,4,3,5,,,,,,,,,,,,,,,,,,,,,,,,,,,,,,,,,,,,,,,
,,,,,,61035b7247628a323191598e,2024-02-08_15h03.34.474,group3.1-3.2-social-tom,2023.2.2,Win32,142.8571429,65c5074098b851296ff0b7ed,65c5417a4883725ae506b015,,,,,,,,,,,,,,,,,,,,,,,,,,,,,650.2705,2,audio/Narrative5Situation4.wav,651.2766,,651.2769,671.6571,"[[94.8,956],[60.4,1038],[34.8,1123],[30.1,1210],[25.2,1297],[7.7,1382],[2.8,1472],[2.8,1566],[2.8,1644],[2.8,1732],[2.8,1816],[3,1897],[3,1979],[3,2065],[3,2146],[3,2230],[3,2315],[3,2398],[7,2482],[13.4,2566],[23.8,2650],[25.3,2739],[29,2831],[35.4,2914],[40.9,2998],[41.1,3088],[41.1,3179],[41.1,3267],[41.1,3348],[41.1,3434],[41.1,3515],[41.1,3607],[41.1,3690],[41.1,3773],[29,3857],[21.9,3938],[21.9,4024],[21.9,4107],[21.8,4188],[12.7,4274],[10.3,4356],[10.3,4440],[10.3,4522],[10.3,4603],[10.3,4689],[10.3,4772],[10.3,4857],[10.3,4935],[10.3,5023],[10.3,5106],[10.3,5187],[10.3,5271],[10.2,5354],[10.2,5437],[10.2,5523],[10.2,5606],[10.2,5689],[10.2,5772],[10.2,5855],[10.2,5939],[10.2,6018],[10.2,6102],[10.2,6189],[10.2,6272],[10.2,6356],[10.2,6436],[10.2,6522],[10.2,6605],[10.2,6689],[10.2,6772],[10.2,6855],[10.2,6935],[10.2,7022],[10.2,7105],[10.2,7187],[10.2,7273],[10.2,7355],[10.2,7439],[10.2,7522],[10.2,7604],[10.2,7690],[10.2,7772],[10.2,7855],[10.2,7939],[10.2,8021],[10.2,8104],[10.2,8187],[10.2,8271],[10.2,8351],[10.2,8439],[10.2,8522],[10.2,8605],[10.2,8687],[10.2,8768],[10.2,8856],[10.2,8939],[10.2,9022],[10.2,9105],[10.2,9187],[10.2,9269],[10.4,9355],[30.4,9448],[40.5,9531],[56.8,9871],[56.8,9959],[56.8,10043],[56.8,10126],[56.8,10206],[56.8,10292],[56.8,10376],[56.8,10455],[56.8,10542],[56.4,10622],[72.6,14660],[75.5,14743],[75.8,14825],[75.8,14909],[75.8,14989],[75.9,15077],[82.5,15166],[89.3,15249],[90.3,15332],[90.3,15431],[90.6,15528],[92,15610],[92.5,15694],[93.8,15777],[94,15860],[94.2,15944],[94.2,16028],[94.2,16112],[94.2,16197],[93.9,16279],[93.9,16367],[93.9,16450],[93.4,16534],[93.1,16619],[92.8,16716],[92.6,16803],[92.6,16902],[92.6,16985],[92,17077],[91.3,17153],[91.3,17242],[91.3,17326],[91,17408],[91,17492],[90.5,17584],[90.5,17666],[90.5,17749],[90.5,17840],[90.4,17952],[90.4,18049],[90.4,18140],[90.4,18234],[90.4,18342],[91.1,18424],[91.1,18512],[91.1,18595],[90.7,18680],[88.7,18762],[88.4,18846],[88.4,18927],[88.4,19014],[88.4,19096],[88.4,19178],[88.4,19259],[88.4,19345],[88.4,19429],[88.4,19512],[88.4,19595],[88.4,19679],[88.4,19762],[88.4,19843],[88.4,19926],[88.4,20010],[88.4,20094],[88.4,20177],[88.4,20260],[88.4,20345]]",1,0,671.6574,673.0689,94.89583969,0.7579,"[{""rating"":94.89583969116211,""responseTime"":0.7578999999761891}]",space,0.8972,,673.069,Definitely yes,100,673.0722,,,[],,0,4,4,4,1,audio/Narrative7Situation4.wav,audio/Narrative8Situation4.wav,audio/Narrative5Situation4.wav,audio/Narrative6Situation4.wav,3,3,1,2,,,,,,,,,,,,,,,,,,,,,,,,,,,,,,,,,,,,,,,
,,,,,,61035b7247628a323191598e,2024-02-08_15h03.34.474,group3.1-3.2-social-tom,2023.2.2,Win32,142.8571429,65c5074098b851296ff0b7ed,65c5417a4883725ae506b015,,,,,,,,,,,,,,,,,,,,,,,,,,,,,673.0726,2,audio/Narrative5Situation5.wav,678.0732,,678.0733,693.4774,"[[89.3,1262],[64.6,1345],[38.8,1429],[37.7,1512],[37.7,1593],[37.7,1678],[27.9,1762],[14.6,1845],[12.6,1929],[10.8,2012],[8.8,2111],[7.1,2200],[7.1,2290],[7.1,2373],[7.1,2470],[7.1,2553],[7.1,2636],[7.1,2720],[7.1,2802],[7.1,2886],[7.1,2969],[7.1,3053],[7.1,3136],[7.1,3219],[7.1,3303],[7.1,3385],[7.1,3469],[7.1,3553],[7.1,3636],[7.1,3720],[7.1,3803],[7.1,3882],[7.1,3966],[7,4053],[7,4136],[7,4216],[7,4302],[7,4386],[7,4465],[7,4551],[7,4636],[7,4717],[7,4800],[7,4884],[7,4969],[7,5052],[7,5133],[7,5215],[7,5303],[7,5381],[7,5469],[7,5551],[7,5635],[7,5718],[7,5798],[7,5885],[7,5969],[7,6052],[7,6135],[7,6219],[7,6302],[7,6385],[7,6464],[7,6547],[7,6635],[7,6719],[7,6800],[7,6883],[7,6968],[7,7052],[7,7133],[7,7216],[7,7301],[7,7384],[7,7468],[7,7551],[7,7635],[7,7718],[7,7800],[7,7885],[7,7963],[7,8051],[7,8133],[7,8218],[7,8301],[7,8380],[7,8468],[7,8551],[7,8631],[7,8717],[7,8802],[7,8880],[7,8968],[7,9049],[7,9135],[7,9214],[7,9299],[7,9381],[7,9466],[7,9551],[7,9635],[7,9713],[7,9798],[7,9884],[7,9966],[7,10051],[7,10133],[7,10215],[7,10301],[7,10384],[7,10467],[7,10551],[7,10633],[7,10716],[7,10799],[7,10882],[7,10967],[7,11050],[7,11134],[7,11215],[7,11300],[7,11382],[7,11465],[7,11548],[7,11633],[7,11717],[7,11799],[7,11883],[7,11967],[7,12048],[7,12134],[7,12217],[7,12300],[7,12385],[7,12471],[7,12557],[7,12640],[7.8,12738],[11.7,12821],[15.4,12905],[15.9,12987],[15.9,13071],[15.9,13152],[15.7,13238],[13.3,13321],[11.4,13405],[8.4,13488],[8.4,13571],[8.4,13653],[8.4,13735],[8.4,13821],[8.4,13904],[8.4,13985],[8.4,14071],[8.4,14153],[8.4,14237],[8.4,14319],[8,14401],[6.5,14488],[4.3,14571],[3.2,14655],[2.9,14738],[2.9,14827],[2.9,14911],[2.9,14994],[2.9,15077],[2.8,15161],[2.8,15240],[2.8,15327]]",1,0,693.4777,694.7617,2.395832539,0.7209,"[{""rating"":2.3958325386047363,""responseTime"":0.720900000095412}]",space,0.7632,,694.7619,Not at all,0,694.7655,,,[],,0,5,5,5,1,audio/Narrative7Situation5.wav,audio/Narrative8Situation5.wav,audio/Narrative5Situation5.wav,audio/Narrative6Situation5.wav,5,2,5,2,,,,,,,,,,,,,,,,,,,,,,,,,,,,,,,,,,,,,,,
,,,,,,61035b7247628a323191598e,2024-02-08_15h03.34.474,group3.1-3.2-social-tom,2023.2.2,Win32,142.8571429,65c5074098b851296ff0b7ed,65c5417a4883725ae506b015,,,,,,,,,,,,,,,,,,,,,,,,,,,,,694.766,2,audio/Narrative5Situation6.wav,697.7702,,697.7703,703.4312,"[[2.1,1692],[5.5,1777],[6,1866],[6,1956],[5.3,2049],[5.1,2131],[4.6,2216],[4.6,2301],[4.6,2385],[4.6,2468],[4.6,2552],[4.6,2633],[4.6,2716],[4.6,2801],[4.6,2884],[4.6,2967],[4.6,3050],[4.5,3135],[4.5,3217],[4.5,3300],[4.5,3383],[4.5,3466],[4.5,3552],[4.5,3635],[4.5,3716],[4.5,3800],[4.5,3881],[5.2,3969],[13.2,4052],[24.8,4135],[27.6,4219],[29.7,4300],[29.7,4385],[29.7,4468],[29.6,4552],[29.4,4633],[29.4,4717],[29.4,4801],[29.3,4885],[29.3,4966],[29.3,5051],[29.3,5132],[29.3,5218],[29.3,5300],[28.2,5384],[26.8,5468],[26.5,5550],[26.5,5635]]",1,0,703.4315,706.5497,27.18749841,2.4886,"[{""rating"":27.18749841054281,""responseTime"":2.48860000002378}]",space,2.606,,706.5497,Partially,50,706.5536,,,[],,0,6,6,6,1,audio/Narrative7Situation6.wav,audio/Narrative8Situation6.wav,audio/Narrative5Situation6.wav,audio/Narrative6Situation6.wav,3,2,3,2,,,,,,,,,,,,,,,,,,,,,,,,,,,,,,,,,,,,,,,
,,,,,,61035b7247628a323191598e,2024-02-08_15h03.34.474,group3.1-3.2-social-tom,2023.2.2,Win32,142.8571429,65c5074098b851296ff0b7ed,65c5417a4883725ae506b015,,,,,,,,,,,,,,,,,,,,,,,,,,,,,706.5539,2,audio/Narrative5Situation7.wav,710.5583,,710.5585,731.5781,"[[25.1,2267],[25.1,2357],[25.1,2440],[25.1,2524],[25.1,2607],[25.1,2691],[25.1,2772],[25.1,2855],[25.1,2940],[25.1,3024],[25.1,3107],[25.1,3190],[25,3276],[22,3357],[21,3440],[21,3524],[19.5,3607],[17.4,3690],[15.4,3775],[15.2,3857],[15.2,3940],[14.7,4022],[13.6,4107],[13.1,4192],[11.1,4280],[11,4364],[11,4446],[11,4529],[10.6,4614],[10.1,4697],[10,4779],[8,4864],[7.6,4947],[6.4,5030],[6.3,5111],[6.3,5196],[6.3,5280],[6.3,5363],[6.3,5447],[6.3,5529],[6.3,5613],[6.3,5697],[6.3,5778],[6.3,5863],[6.3,5946],[6.3,6030],[6.3,6113],[6.3,6196],[6.3,6287],[6.3,6370],[6.3,6453],[6.3,6537],[6.3,6617],[6.3,6703],[6.3,6787],[6.3,6868],[6.3,6952],[6.3,7034],[6.3,7118],[6.3,7203],[6.3,7285],[6.3,7367],[6.3,7453],[6.3,7537],[6.3,7620],[6.3,7703],[6.3,7786],[6.3,7868],[6.3,7952],[6.3,8036],[6.3,8118],[6.3,8202],[6.3,8286],[6.3,8367],[6.3,8453],[6.3,8536],[6.3,8619],[6.3,8702],[6.3,8783],[6.3,8867],[6.3,8951],[6.3,9036],[6.3,9120],[6.3,9202],[6.3,9287],[6.3,9370],[6.3,9453],[6.3,9540],[6.3,9622],[6.3,9705],[6.3,9788],[6.3,9872],[6.3,9956],[6.3,10039],[6.3,10122],[6.3,10205],[6.3,10288],[6.3,10371],[6.3,10455],[6.3,10538],[6.3,10621],[6.3,10705],[6.3,10788],[6.3,10871],[6.3,10956],[6.3,11039],[6.3,11122],[6.3,11205],[6.6,11288],[6.8,11383],[6.8,11462],[6.8,11549],[6.8,11630],[6.8,11716],[6.8,11798],[6.9,11880],[6.9,11965],[6.9,12050],[6.9,12132],[6.9,12216],[6.9,12295],[6.9,12382],[6.9,12466],[6.9,12549],[6.9,12632],[6.9,12717],[6.9,12797],[6.9,12882],[6.9,12966],[6.9,13047],[6.9,13128],[6.9,13212],[6.9,13295],[6.9,13382],[6.9,13465],[6.9,13549],[6.9,13630],[6.9,13715],[6.9,13798],[6.9,13880],[6.9,13963],[6.9,14048],[6.9,14132],[6.9,14215],[6.9,14298],[6.9,14377],[6.9,14465],[3.4,14549],[1.7,14631],[1.1,14722],[1.1,14805],[1.1,14888],[1.1,14971],[1.1,15055],[1.1,15135],[1.1,15218],[1.1,15304],[1.1,15385],[1.1,15470],[1.1,15550],[1.1,15635],[1.1,15722],[1.1,15805],[1.1,15886],[1.1,15971],[1.1,16053],[1.1,16138],[1.1,16218],[1.1,16300],[1.1,16386],[1.1,16468],[1.1,16554],[1.1,16638],[1.1,16717],[1.1,16804],[1.1,16889],[1.1,16971],[1.1,17054],[1.1,17138],[1.1,17221],[1.1,17302],[1.1,17385],[1.1,17468],[1.1,17554],[1.1,17636],[1.1,17721],[1.1,17804],[1.1,17888],[1.1,17971],[1.1,18055],[1.1,18135],[1.1,18221],[1.1,18303],[1.1,18384],[1.1,18470],[1.1,18554],[1.1,18638],[1.1,18721],[1.1,18804],[1.1,18885],[1.1,18971],[1.1,19052],[1.1,19137],[1.1,19227],[1.1,19309],[1.1,19394],[1.1,19476],[1.1,19559],[1.1,19644],[1.1,19725],[1.1,19811],[1.1,19890],[1.1,19977],[1.1,20060],[1.1,20143],[1.1,20225],[1.1,20311],[1.1,20390],[1.1,20477],[1.1,20559],[1.1,20642],[1.1,20725],[1.1,20809],[1.1,20889],[1.1,20972]]",1,0,731.5785,742.0397,1.250000795,0.8199,"[{""rating"":1.2500007947285952,""responseTime"":0.8198999999760872}]",space,9.9364,,742.0398,Definitely yes,100,742.0554,,,[],,0,7,7,7,1,audio/Narrative7Situation7.wav,audio/Narrative8Situation7.wav,audio/Narrative5Situation7.wav,audio/Narrative6Situation7.wav,5,3,4,5,,,,,,,,,,,,,,,,,,,,,,,,,,,,,,,,,,,,,,,
,,,,,,61035b7247628a323191598e,2024-02-08_15h03.34.474,group3.1-3.2-social-tom,2023.2.2,Win32,142.8571429,65c5074098b851296ff0b7ed,65c5417a4883725ae506b015,,,,,,,,,,,,,,,,,,,,,,,,,,,,,742.0557,2,audio/Narrative5Situation8.wav,745.0576,,745.0577,753.8628,"[[0.8,341],[0.8,425],[0.8,509],[0.8,592],[0.8,671],[1.8,1599],[2,1682],[2,1766],[2.1,1857],[2.1,1940],[2.1,2021],[2.1,2102],[2.1,2184],[2.1,2272],[2.1,2352],[2.1,2438],[2.1,2522],[2.1,2602],[2.1,2688],[2.1,2772],[2.1,2855],[2.1,2934],[2.1,3021],[2.1,3102],[2.1,3185],[2.1,3268],[2.1,3355],[2.1,3438],[2.1,3521],[2.1,3606],[2.1,3696],[2.1,3785],[2.1,3869],[2.1,3951],[2.1,4035],[2.1,4117],[2.1,4202],[2.1,4285],[2.1,4369],[2.1,4450],[2.1,4540],[2.1,4625],[2.1,4709],[2.1,4792],[2.1,4875],[2.1,4958],[2.1,5043],[2.1,5124],[2.1,5209],[2.1,5292],[2.1,5376],[2.1,5459],[2.1,5538],[2.1,5625],[2.1,5707],[2.1,5792],[2.1,5875],[2.1,5958],[2.1,6038],[2.1,6122],[2.1,6208],[2.1,6290],[2.1,6373],[2.1,6459],[2.1,6541],[2.1,6623],[2.1,6705],[2.1,6789],[2.1,6875],[2.1,6956],[2.1,7041],[2.1,7124],[2.1,7208],[2.1,7290],[2.1,7375],[2.1,7454],[2.1,7541],[2.1,7622],[2.1,7708],[2.1,7791],[2.1,7875],[2.1,7957],[2.1,8039],[2.1,8125],[2.1,8207],[2.1,8291],[2.1,8375],[2.1,8459],[2.1,8539],[2.1,8624],[2.1,8707],[2.1,8788]]",1,0,753.8631,756.7922,0,1.3424,"[{""rating"":0,""responseTime"":1.3423999999761236}]",space,2.4102,,756.7923,Partially,50,756.7958,,,[],,0,8,8,8,1,audio/Narrative7Situation8.wav,audio/Narrative8Situation8.wav,audio/Narrative5Situation8.wav,audio/Narrative6Situation8.wav,2,3,3,5,,,,,,,,,,,,,,,,,,,,,,,,,,,,,,,,,,,,,,,
,,,,,,61035b7247628a323191598e,2024-02-08_15h03.34.474,group3.1-3.2-social-tom,2023.2.2,Win32,142.8571429,65c5074098b851296ff0b7ed,65c5417a4883725ae506b015,,,,,,,,,,,,,,,,,,,,,,,,,,,,,756.7962,2,audio/Narrative5Situation9.wav,759.8018,,759.8019,799.3299,"[[1.1,4280],[5.5,4363],[11.4,4447],[14.4,4532],[14.9,4633],[14.9,4712],[15,4797],[15,4880],[15,4963],[15,5046],[15,5130],[15,5214],[15,5297],[15,5379],[15,5464],[15,5546],[15,5630],[15,5714],[15,5796],[15,5879],[16.7,5963],[19,6046],[19.6,6129],[19.6,6213],[19.6,6297],[19.6,6379],[19.6,6464],[19.6,6546],[19.6,6630],[19.6,6713],[19.6,6795],[19.6,6879],[19.6,6962],[19.6,7046],[19.6,7129],[19.6,7212],[19.6,7296],[19.6,7380],[19.6,7462],[19.6,7547],[19.6,7628],[19.6,7712],[19.6,7795],[19.6,7880],[19.6,7962],[19.6,8046],[19.6,8130],[19.6,8211],[19.6,8295],[19.6,8379],[19.6,8462],[19.6,8545],[19.6,8631],[19.6,8712],[19.6,8796],[19.6,8878],[19.6,8962],[19.6,9045],[19.6,9128],[19.6,9211],[19.6,9295],[19.6,9378],[19.6,9462],[19.6,9545],[19.6,9628],[19.6,9712],[19.6,9796],[19.6,9878],[19.6,9961],[19.6,10044],[19.6,10129],[19.6,10211],[19.6,10294],[19.6,10378],[19.6,10463],[19.6,10546],[19.6,10628],[19.6,10711],[19.6,10794],[19.6,10878],[19.6,10962],[19.6,11045],[19.6,11129],[19.6,11211],[19.6,11295],[19.6,11378],[19.6,11461],[19.6,11545],[19.6,11627],[19.6,11711],[19.6,11795],[19.6,11878],[19.6,11962],[19.6,12044],[19.6,12128],[19.6,12210],[19.6,12294],[19.6,12377],[19.6,12462],[19.6,12545],[19.6,12627],[19.6,12711],[19.6,12794],[19.6,12878],[19.6,12961],[19.6,13044],[19.6,13128],[19.6,13211],[19.6,13294],[19.6,13377],[19.6,13460],[19.6,13544],[19.6,13627],[19.6,13710],[19.6,13793],[19.6,13877],[19.6,13961],[19.6,14043],[19.6,14127],[19.6,14210],[19.6,14294],[19.6,14377],[19.6,14461],[19.6,14545],[19.6,14628],[19.6,14710],[19.6,14795],[19.6,14877],[19.6,14960],[19.6,15044],[19.6,15127],[19.6,15210],[19.6,15293],[19.6,15377],[19.6,15461],[19.6,15543],[19.6,15627],[19.6,15712],[19.6,15794],[19.6,15877],[19.7,15962],[20.6,16059],[21.4,16144],[21.4,16228],[22.8,16311],[23.4,16394],[23.6,16476],[23.6,16561],[23.6,16644],[23.6,16727],[23.6,16808],[23.6,16895],[23.6,16978],[23.6,17058],[23.6,17142],[23.6,17228],[23.6,17311],[23.6,17394],[23.6,17478],[23.6,17561],[23.6,17644],[23.6,17728],[23.6,17811],[23.6,17900],[23.6,17985],[23.6,18068],[23.6,18149],[23.6,18233],[23.6,18318],[23.6,18399],[23.6,18484],[23.6,18565],[23.6,18651],[23.6,18734],[23.6,18817],[23.6,18900],[23.6,18984],[23.6,19067],[23.6,19150],[23.6,19231],[23.6,19317],[23.6,19400],[23.6,19484],[23.6,19562],[23.6,19649],[23.6,19733],[23.6,19817],[23.6,19900],[23.6,19984],[23.6,20067],[23.6,20147],[23.6,20234],[23.6,20315],[23.6,20400],[23.6,20483],[23.6,20566],[23.6,20650],[23.6,20733],[23.6,20816],[23.6,20900],[23.6,20979],[23.6,21065],[23.6,21150],[21,21242],[19.9,21330],[19.1,21413],[18.4,21497],[18,21581],[18,21664],[17,21747],[16.9,21831],[16.3,21924],[16.3,22012],[16.3,22095],[16.3,22175],[16.3,22261],[16.3,22342],[16.3,22428],[16.3,22510],[16.3,22591],[16.3,22677],[16.3,22756],[16.3,22844],[16.3,22923],[16.3,23007],[16.3,23090],[16.3,23177],[16.3,23261],[16.3,23342],[16.3,23426],[16.3,23507],[16.3,23591],[16.3,23674],[16.3,23760],[16.3,23843],[16.3,23926],[16.3,24010],[15.8,24100],[15.7,24183],[15.7,24266],[15.7,24350],[15.7,24432],[15.7,24517],[15.7,24600],[15.7,24691],[15.7,24774],[15.7,24857],[15.7,24937],[15.7,25024],[15.7,25107],[15.7,25190],[15.7,25274],[15.7,25357],[15.7,25442],[15.7,25524],[15.7,25607],[15.7,25697],[15.7,25776],[15.7,25864],[15.7,25947],[15.7,26029],[16.1,26114],[16.6,26197],[16.6,26280],[17,26360],[17,26447],[17.5,26530],[17.5,26614],[17.5,26697],[17.5,26780],[17.5,26862],[17.5,26947],[17.5,27033],[17.5,27121],[17.5,27203],[17.5,27285],[17.5,27370],[17.5,27453],[17.5,27537],[17.5,27620],[17.5,27703],[17.5,27787],[17.5,27866],[17.5,27953],[17.5,28034],[17.5,28117],[17.5,28203],[17.5,28288],[17.5,28370],[17.5,28453],[17.5,28535],[17.5,28619],[17.5,28703],[17.5,28785],[17.5,28869],[17.5,28953],[17.5,29033],[17.5,29120],[17.5,29202],[17.5,29287],[17.5,29370],[17.5,29453],[17.5,29536],[17.5,29620],[17.5,29703],[17.5,29783],[17.5,29870],[17.5,29951],[17.5,30037],[17.5,30120],[17.5,30203],[17.5,30287],[17.5,30370],[17.5,30453],[17.5,30537],[16.9,30629],[16.9,30716],[16.9,30800],[16.9,30883],[16.9,30966],[16.9,31050],[16.9,31129],[16.9,31214],[16.9,31300],[16.9,31379],[16.9,31466],[16.9,31549],[16.9,31632],[16.9,31717],[16.9,31806],[16.9,31888],[16.9,31971],[16.9,32055],[92.6,32730],[81.9,32813],[77.8,32897],[77.5,32981],[77.5,33063],[77.5,33147],[77.5,33230],[77.5,33312],[77.5,33397],[77.5,33486],[77.5,33570],[77.5,33653],[77.6,33733],[77.6,33821],[77.6,33899],[77.6,33984],[77.6,34071],[77.6,34154],[77.6,34236],[77.6,34316],[77.6,34404],[77.6,34486],[77.6,34570],[77.6,34654],[77.6,34751],[77.6,34835],[77.6,34918],[77.6,35015],[77.6,35097],[77.6,35179],[77.6,35264],[77.6,35347],[77.6,35431],[77.6,35512],[77.6,35596],[77.6,35680],[77.6,35763],[77.6,35847],[77.6,35930],[77.7,36014],[80.6,36097],[80.6,36181],[80.6,36262],[80.6,36345],[78.3,36431],[77.3,36514],[77.3,36598],[77.3,36681],[77.3,36763],[77.3,36847],[77.3,36930],[77.3,37010],[77.3,37092],[77.3,37178],[77.3,37262],[77.3,37344],[77.3,37431],[77.3,37512],[77.3,37597],[77.3,37680],[77.3,37764],[77.3,37847],[77.3,37930],[77.3,38014],[77.3,38096],[77.3,38178],[77.3,38263],[77.3,38344],[77.3,38428],[77.3,38513],[77.3,38595],[77.3,38680],[77.3,38761],[77.3,38844],[77.3,38930],[77.3,39014],[77.3,39097],[77.3,39178],[77.3,39263],[77.3,39347],[77.3,39430],[77.3,39513]]",1,0,799.3306,802.3076,87.39584287,1.0114,"[{""rating"":87.39584287007649,""responseTime"":1.01139999997622}]",space,2.4566,,802.3078,Not at all,0,802.3117,,,[],,0,9,9,9,1,audio/Narrative7Situation9.wav,audio/Narrative8Situation9.wav,audio/Narrative5Situation9.wav,audio/Narrative6Situation9.wav,2,3,3,4,,,,,,,,,,,,,,,,,,,,,,,,,,,,,,,,,,,,,,,
,,,,,,61035b7247628a323191598e,2024-02-08_15h03.34.474,group3.1-3.2-social-tom,2023.2.2,Win32,142.8571429,65c5074098b851296ff0b7ed,65c5417a4883725ae506b015,,,,,,,,,,,,,,,,,,,,,,,,,,,,,802.3121,2,audio/Narrative6Situation1.wav,804.3136,,804.3137,830.8791,"[[9.3,6098],[19.9,6181],[31.1,6267],[35.9,6349],[36.9,6432],[38.5,6514],[41.5,6598],[45.6,6681],[45.8,6765],[45.8,6848],[45.8,6933],[45.9,7014],[48.8,7097],[64.6,7181],[64.6,7264],[64.6,7348],[64.6,7431],[64.6,7515],[64.6,7598],[63.9,7680],[63.9,7764],[63.9,7848],[63.9,7932],[63.9,8014],[63.9,8097],[63.9,8182],[63.9,8264],[63.9,8347],[63.9,8431],[63.9,8515],[63.9,8597],[63.9,8681],[63.9,8766],[63.9,8849],[63.9,8932],[63.9,9014],[63.9,9097],[63.9,9180],[63.9,9263],[63.9,9347],[63.9,9430],[63.9,9514],[63.9,9597],[63.9,9681],[63.9,9765],[63.9,9846],[63.9,9930],[63.9,10013],[63.9,10097],[63.9,10180],[63.9,10263],[63.9,10347],[63.9,10431],[63.9,10513],[63.9,10597],[63.9,10680],[63.9,10763],[63.9,10846],[63.9,10930],[63.9,11013],[63.9,11097],[63.9,11180],[63.9,11264],[63.9,11346],[63.9,11430],[61.7,11525],[51.9,11609],[43,11693],[37.9,11781],[32.6,11866],[26.3,11952],[20,12034],[16.8,12118],[15.4,12201],[13.2,12284],[13.1,12381],[13.1,12469],[13.1,12552],[13.1,12635],[13.1,12734],[13.1,12845],[13.1,12949],[13.1,13045],[13.1,13132],[13.1,13219],[13.1,13302],[13.1,13385],[13.1,13466],[13.1,13552],[13.1,13635],[13.1,13717],[13.1,13802],[13.1,13883],[13.1,13966],[13.1,14052],[13.1,14135],[13.1,14218],[13.1,14301],[13.1,14383],[14.5,14468],[16.4,14552],[16.7,14635],[19.1,14718],[21.8,14802],[24,14884],[26.6,14969],[26.6,15061],[26.6,15158],[26.6,15252],[26.6,15335],[26.6,15420],[26.6,15502],[26.6,15585],[26.6,15666],[26.6,15747],[26.6,15835],[26.6,15919],[26.6,15999],[26.6,16085],[26.6,16168],[26.6,16252],[26.6,16335],[26.6,16416],[26.6,16498],[26.6,16586],[26.6,16669],[26.6,16752],[26.6,16835],[26.6,16919],[26.6,17002],[26.6,17085],[26.6,17164],[26.6,17247],[26.6,17335],[26.6,17418],[26.6,17502],[26.6,17585],[26.6,17668],[26.6,17752],[26.6,17835],[26.6,17919],[26.6,18001],[26.6,18085],[26.6,18168],[26.6,18249],[26.6,18334],[26.6,18419],[26.6,18499],[26.6,18584],[26.6,18667],[26.6,18748],[26.6,18835],[26.6,18918],[26.6,18996],[26.6,19082],[26.6,19168],[26.6,19251],[26.6,19332],[26.6,19418],[26.6,19500],[26.6,19585],[26.6,19668],[26.6,19751],[26.6,19832],[26.6,19917],[26.6,20001],[26.6,20083],[26.6,20167],[26.6,20251],[26.6,20334],[26.6,20417],[26.6,20501],[26.6,20584],[26.6,20667],[26.6,20749],[26.6,20834],[26.6,20924],[26.6,21006],[26.6,21091],[26.6,21175],[26.6,21258],[26.6,21340],[26.6,21424],[26.6,21508],[26.6,21591],[26.6,21675],[26.6,21756],[26.6,21841],[26.6,21922],[26.6,22005],[26.6,22091],[26.6,22174],[26.6,22255],[26.6,22341],[26.6,22424],[26.6,22507],[26.6,22586],[26.5,22694],[26.5,22778],[26.9,22861],[30.8,22945],[39.6,23028],[44.3,23112],[46.6,23197],[46.7,23287],[46.7,23385],[46.7,23471],[46.7,23562],[46.7,23645],[46.7,23726],[46.7,23808],[46.7,23891],[46.7,23975],[46.7,24058],[46.5,24142],[46.5,24226],[46.5,24308],[46.5,24391],[46.5,24475],[46.5,24558],[46.5,24642],[46.5,24725],[46.5,24809],[46.5,24892],[46.5,24974],[46.5,25059],[46.5,25142],[46.5,25225],[46.5,25308],[46.5,25392],[46.5,25474],[46.5,25558],[46.5,25641],[46.5,25724],[46.5,25808],[46.5,25891],[46.5,25975],[46.5,26058],[46.5,26141],[46.5,26225],[46.5,26308],[46.5,26391],[46.5,26474],[46.5,26557]]",1,0,830.8795,833.8128,50.83333651,2.4305,"[{""rating"":50.83333651224772,""responseTime"":2.430499999999938}]",space,2.4157,,833.8129,Partially,50,833.8169,,,[],,0,10,10,10,1,audio/Narrative8Situation1.wav,audio/Narrative7Situation1.wav,audio/Narrative6Situation1.wav,audio/Narrative5Situation1.wav,5,2,2,5,,,,,,,,,,,,,,,,,,,,,,,,,,,,,,,,,,,,,,,
,,,,,,61035b7247628a323191598e,2024-02-08_15h03.34.474,group3.1-3.2-social-tom,2023.2.2,Win32,142.8571429,65c5074098b851296ff0b7ed,65c5417a4883725ae506b015,,,,,,,,,,,,,,,,,,,,,,,,,,,,,833.8172,2,audio/Narrative6Situation2.wav,836.8258,,836.8259,865.3137,"[[50.2,4855],[48.2,4937],[43.3,5021],[7.5,5526],[5.7,5610],[5.6,5709],[5.6,5796],[5.6,5880],[5.6,5963],[5.6,6053],[5.6,6143],[5.6,6227],[5.6,6310],[5.6,6392],[5.6,6475],[5.6,6560],[5.6,6642],[5.6,6724],[5.5,6808],[5.5,6892],[5.5,6976],[5.5,7059],[5.5,7143],[5.5,7227],[5.5,7310],[5.5,7393],[5.5,7476],[5.5,7560],[5.5,7641],[5.5,7726],[5.5,7810],[5.5,7893],[5.5,7976],[5.5,8057],[5.5,8142],[5.5,8226],[5.5,8310],[5.5,8399],[5.5,8483],[5.5,8564],[5.5,8649],[5.5,8733],[5.5,8816],[5.5,8900],[5.5,8983],[5.5,9066],[5.5,9149],[5.5,9229],[5.5,9314],[5.5,9394],[5.5,9478],[5.5,9566],[5.5,9649],[5.5,9733],[5.5,9818],[5.5,9900],[5.5,9984],[5.5,10074],[5.5,10156],[5.5,10240],[5.5,10339],[5.5,10434],[5.5,10516],[5.5,10601],[5.5,10682],[5.5,10765],[5.5,10848],[5.5,10934],[7,11030],[10.4,11109],[16.4,11193],[25.7,11276],[27.3,11365],[27.5,11443],[27.6,11526],[27.8,11610],[30.9,11693],[31,11777],[31.1,11861],[31.1,11944],[31.1,12026],[31.1,12109],[31.1,12193],[31.1,12276],[31.1,12360],[31.1,12443],[31.1,12526],[31.1,12609],[31.1,12693],[32.4,12776],[40.7,12859],[43.8,12942],[44.1,13027],[44.1,13109],[44.1,13193],[44.1,13278],[44.1,13360],[44.1,13444],[44.1,13527],[44.1,13609],[44.1,13693],[44.3,13777],[51.6,13859],[53.7,13944],[58.8,14025],[58.9,14111],[59,14193],[59,14275],[59,14359],[59,14443],[59,14525],[59,14609],[59,14693],[59,14776],[59,14862],[59,14942],[59,15026],[68.4,15110],[84.6,15192],[86.5,15276],[88.3,15359],[90.5,15444],[90.6,15525],[90.6,15609],[90.6,15692],[90.6,15775],[93.5,15860],[96.4,15941],[96.6,16025],[96.6,16108],[96.6,16192],[96.6,16275],[96.5,16360],[95.9,16442],[95.9,16525],[95.2,16609],[95.2,16693],[95.1,16774],[95.1,16860],[95.1,16941],[95.1,17024],[95.1,17109],[95.1,17191],[95.1,17275],[95.1,17359],[95.1,17442],[95.1,17525],[95.1,17608],[95.1,17691],[95.1,17775],[95.1,17858],[95.1,17941],[95.1,18025],[95.1,18108],[95.1,18191],[95.1,18274],[95.1,18358],[95.6,18441],[96.8,18525],[97.4,18608],[97.6,18692],[97.6,18774],[97.9,18858],[97.9,18941],[97.9,19024],[97.9,19110],[97.9,19190],[97.9,19274],[97.9,19357],[97.9,19443],[97.9,19525],[97.9,19607],[97.9,19691],[97.9,19774],[97.9,19858],[97.9,19941],[97.9,20024],[97.9,20108],[97.9,20190],[97.9,20275],[97.9,20358],[97.9,20440],[97.9,20523],[97.9,20607],[97.9,20690],[97.9,20773],[97.9,20858],[97.9,20940],[97.9,21024],[97.9,21108],[97.9,21190],[97.9,21275],[97.9,21357],[97.9,21441],[97.9,21524],[97.9,21607],[97.9,21690],[97.9,21775],[97.9,21858],[97.9,21940],[97.9,22023],[97.9,22107],[97.9,22190],[97.9,22274],[97.9,22358],[97.9,22440],[97.9,22524],[97.9,22606],[97.9,22690],[97.9,22773],[97.9,22858],[97.9,22940],[97.9,23024],[97.9,23106],[97.9,23189],[97.9,23273],[97.9,23357],[97.9,23440],[97.9,23523],[97.9,23606],[97.9,23690],[97.9,23773],[97.9,23857],[97.9,23939],[97.9,24023],[97.9,24106],[97.9,24189],[97.9,24273],[97.9,24356],[97.9,24440],[97.9,24522],[97.9,24606],[97.9,24690],[97.9,24774],[97.9,24856],[97.9,24939],[97.9,25023],[97.9,25106],[97.9,25189],[97.9,25272],[97.9,25356],[97.9,25440],[97.9,25522],[97.9,25606],[97.9,25689],[97.9,25773],[97.9,25857],[97.9,25939],[97.9,26022],[97.9,26107],[97.9,26191],[97.9,26272],[97.9,26357],[97.9,26439],[97.9,26523],[97.9,26605],[97.9,26689],[97.9,26772],[97.9,26855],[97.9,26940],[97.9,27022],[97.9,27106],[97.9,27190],[97.9,27271],[97.9,27355],[97.9,27438],[97.9,27522],[97.9,27605],[97.9,27688],[97.9,27772],[97.9,27856],[97.9,27939],[97.9,28022],[97.9,28105],[97.9,28190],[97.9,28271],[97.9,28356],[97.9,28439]]",1,0,865.314,866.815,97.39583333,0.6836,"[{""rating"":97.39583333333333,""responseTime"":0.68360000002383}]",space,0.9802,,866.815,Partially,50,866.8167,,,[],,0,11,11,11,1,audio/Narrative8Situation2.wav,audio/Narrative7Situation2.wav,audio/Narrative6Situation2.wav,audio/Narrative5Situation2.wav,3,3,3,3,,,,,,,,,,,,,,,,,,,,,,,,,,,,,,,,,,,,,,,
,,,,,,61035b7247628a323191598e,2024-02-08_15h03.34.474,group3.1-3.2-social-tom,2023.2.2,Win32,142.8571429,65c5074098b851296ff0b7ed,65c5417a4883725ae506b015,,,,,,,,,,,,,,,,,,,,,,,,,,,,,866.8171,2,audio/Narrative6Situation3.wav,871.8208,,871.8209,884.4196,"[[97,2772],[3.2,3454],[2.4,3548],[2.4,3633],[2.4,3718],[2.4,3803],[3.9,3889],[6.8,3972],[6.8,4053],[6.8,4139],[6.8,4224],[6.8,4306],[7,4395],[7,4479],[7,4563],[7,4644],[7,4729],[7,4812],[5.4,4896],[1.4,4979],[1.4,5063],[1.3,5144],[1.3,5229],[1.3,5312],[1.1,5396],[1.1,5479],[1.1,5562],[1.1,5646],[1.1,5729],[1.1,5810],[1.1,5891],[1.1,5974],[1.1,6061],[1.1,6144],[1.1,6228],[1.1,6313],[1.1,6396],[1.1,6478],[1.1,6560],[1.5,6646],[7.5,6729],[55.3,6898],[57.3,6981],[64.3,7065],[74.6,7148],[78.6,7231],[91,7314],[94.3,7402],[94.4,7499],[94.4,7584],[94.4,7681],[94.4,7780],[94.4,7868],[94.4,7957],[94.4,8046],[94.4,8131],[94.4,8212],[94.4,8296],[94.4,8381],[94.4,8463],[94.4,8547],[94.4,8631],[94.4,8709],[94.4,8797],[94.4,8880],[94.4,8963],[94.4,9047],[94.4,9129],[94.4,9214],[94.4,9297],[94.4,9380],[94.4,9464],[94.4,9544],[94.4,9630],[94.4,9714],[94.4,9796],[94.4,9880],[94.4,9964],[94.2,10056],[94.2,10144],[94.2,10226],[94.2,10308],[94.2,10394],[94.2,10485],[92.9,10564],[92.9,10647],[92.9,10730],[92.9,10813],[92.9,10896],[92.9,10981],[92.9,11065],[92.9,11147],[92.9,11230],[92.9,11314],[92.9,11396],[92.9,11480],[92.9,11563],[92.9,11648],[92.9,11731],[92.9,11813],[92.9,11897],[92.9,11980],[92.9,12063],[92.9,12148],[92.9,12230],[92.9,12314],[92.9,12396],[92.9,12479],[92.9,12564]]",1,0,884.4198,887.4439,94.58333651,1.1063,"[{""rating"":94.58333651224773,""responseTime"":1.1062999999522845}]",space,2.5083,,887.4441,Not at all,0,887.4484,,,[],,0,12,12,12,1,audio/Narrative8Situation3.wav,audio/Narrative7Situation3.wav,audio/Narrative6Situation3.wav,audio/Narrative5Situation3.wav,4,8,5,3,,,,,,,,,,,,,,,,,,,,,,,,,,,,,,,,,,,,,,,
,,,,,,61035b7247628a323191598e,2024-02-08_15h03.34.474,group3.1-3.2-social-tom,2023.2.2,Win32,142.8571429,65c5074098b851296ff0b7ed,65c5417a4883725ae506b015,,,,,,,,,,,,,,,,,,,,,,,,,,,,,887.4487,2,audio/Narrative6Situation4.wav,889.4498,,889.4499,902.0525,"[[92.4,673],[80.2,756],[2.8,1272],[3.3,1361],[3.1,1460],[3.2,1555],[3.2,1652],[3.2,1735],[3.2,1818],[3.2,1899],[3.2,1980],[3.2,2065],[3.2,2151],[3.3,2234],[3.3,2318],[3.3,2402],[3.3,2485],[3.3,2565],[3.3,2651],[3.3,2734],[3.3,2818],[3.3,2896],[3.3,2985],[3.3,3067],[3.3,3153],[3.3,3241],[3.3,3325],[3.3,3408],[3.3,3489],[3.3,3575],[3.3,3657],[3.3,3740],[3.3,3825],[3.3,3909],[3.3,3991],[3.3,4075],[3.3,4158],[3.3,4241],[3.3,4325],[3.3,4407],[3.3,4491],[3.3,4574],[3.3,4657],[3.3,4740],[3.3,4825],[3.3,4908],[3.3,4987],[3.3,5070],[3.3,5153],[3.3,5236],[3.3,5321],[3.3,5403],[3.3,5487],[3.3,5570],[3.3,5653],[3.3,5736],[3.3,5819],[3.3,5903],[3.3,5986],[3.3,6069],[3.3,6153],[3.3,6236],[3.3,6320],[3.3,6403],[3.3,6486],[3.3,6569],[3.3,6653],[3.3,6736],[3.3,6819],[3.3,6902],[3.3,6985],[3.3,7070],[3.3,7153],[3.3,7235],[3.3,7319],[3.3,7403],[3.3,7486],[3.3,7570],[3.3,7653],[3.3,7736],[3.3,7819],[3.3,7903],[3.3,7985],[3.3,8069],[3.3,8152],[3.3,8235],[3.3,8319],[3.3,8402],[3.3,8486],[3.3,8570],[3.3,8652],[3.3,8735],[3.4,8829],[3.4,8913],[3.4,8995],[3.4,9080],[3.4,9164],[3.4,9247],[3.6,9330],[4,9412],[4,9496],[4,9579],[4,9663],[4.4,9745],[9,9830],[15,9913],[19.7,9999],[27.5,10082],[33.5,10165],[36.8,10250],[37.9,10335],[38.5,10421],[40.1,10504],[48.8,10587],[54.7,10671],[57.6,10753],[59.4,10837],[59.6,10929],[59.6,11012],[59.6,11096],[63.1,11184],[71.3,11268],[72.2,11352],[72.2,11429],[72.2,11512],[73,11597],[76.1,11679],[79.1,11764],[81.3,11845],[81.7,11929],[81.7,12012],[82.1,12097],[82.1,12178],[82.1,12262],[82.1,12346],[82.1,12428],[82.1,12512],[82.1,12595]]",1,0,902.0527,903.4567,85.9375,1.0554,"[{""rating"":85.9375,""responseTime"":1.055399999976089}]",space,0.8915,,903.4569,Partially,50,903.4607,,,[],,0,13,13,13,1,audio/Narrative8Situation4.wav,audio/Narrative7Situation4.wav,audio/Narrative6Situation4.wav,audio/Narrative5Situation4.wav,3,3,2,1,,,,,,,,,,,,,,,,,,,,,,,,,,,,,,,,,,,,,,,
,,,,,,61035b7247628a323191598e,2024-02-08_15h03.34.474,group3.1-3.2-social-tom,2023.2.2,Win32,142.8571429,65c5074098b851296ff0b7ed,65c5417a4883725ae506b015,,,,,,,,,,,,,,,,,,,,,,,,,,,,,903.4612,2,audio/Narrative6Situation5.wav,905.464,,905.4641,913.4081,"[[88.4,5849],[89,5933],[89,6020],[89,6103],[89,6186],[89,6270],[89,6354],[89,6437],[89,6520],[89,6604],[89,6684],[89,6768],[89,6854],[89,6934],[89,7019],[89,7100],[89,7186],[89,7270],[89,7352],[89,7437],[89,7519],[89,7602],[89,7686],[89,7766],[89,7852],[89,7937]]",1,0,913.4086,919.2318,90.72917302,5.8214,"[{""rating"":90.72917302449544,""responseTime"":5.821399999976165}]",space,4.4516,,919.2319,Definitely yes,100,925.922,100,5.291,"[{""rating"":99.06250635782878,""responseTime"":3.6657999999523554},{""rating"":99.47916666666667,""responseTime"":4.871499999999969},{""rating"":100,""responseTime"":5.291000000000054}]",space,0,14,14,14,1,audio/Narrative8Situation5.wav,audio/Narrative7Situation5.wav,audio/Narrative6Situation5.wav,audio/Narrative5Situation5.wav,2,5,2,5,,,6.1778,,,,,,,,,,,,,,,,,,,,,,,,,,,,,,,,,,,,
,,,,,,61035b7247628a323191598e,2024-02-08_15h03.34.474,group3.1-3.2-social-tom,2023.2.2,Win32,142.8571429,65c5074098b851296ff0b7ed,65c5417a4883725ae506b015,,,,,,,,,,,,,,,,,,,,,,,,,,,,,925.9227,2,audio/Narrative6Situation6.wav,927.9272,,927.9273,938.9871,"[[999,0],[999,88],[999,171],[999,261],[999,348],[999,431],[999,518],[999,612],[999,699],[999,783],[999,866],[999,969],[999,1053],[999,1136],[999,1218],[999,1302],[11.7,1386],[6.7,1470],[1,1913],[1,1996],[1,2081],[1,2171],[1,2253],[1,2337],[1,2427],[1,2514],[1,2600],[1,2684],[2.4,2767],[5.7,2850],[10.7,2935],[26.5,3018],[31.1,3105],[36.8,3186],[39.9,3277],[46.7,3359],[46.8,3461],[47.5,3547],[47.5,3635],[48.3,3719],[48.4,3802],[48.4,3884],[48.4,3975],[48.6,4059],[50,4141],[50,4227],[50.5,4305],[50.5,4388],[50.5,4471],[50.3,4554],[50.2,4637],[50.2,4722],[50.2,4805],[50.2,4888],[50.2,4971],[50.2,5055],[50.5,5137],[52,5221],[52.1,5304],[52.9,5388],[52.9,5471],[52.9,5553],[52.9,5638],[52.9,5721],[52.9,5804],[52.9,5888],[52.9,5971],[52.9,6054],[52.9,6137],[52.9,6220],[52.9,6303],[52.9,6386],[52.9,6470],[52.9,6553],[52.9,6637],[52.9,6721],[52.9,6803],[52.9,6886],[52.9,6970],[52.9,7053],[52.9,7137],[52.9,7220],[52.9,7304],[52.9,7386],[52.9,7469],[52.9,7554],[52.9,7637],[52.9,7719],[52.9,7803],[52.9,7886],[52.9,7970],[52.9,8053],[52.9,8136],[52.9,8219],[52.9,8302],[52.9,8386],[52.9,8469],[52.9,8553],[52.9,8636],[52.9,8721],[52.9,8802],[52.9,8886],[52.9,8969],[52.9,9052],[52.9,9135],[52.9,9219],[52.9,9302],[52.9,9387],[52.9,9470],[52.9,9553],[52.9,9636],[52.9,9720],[52.9,9802],[52.9,9885],[52.9,9969],[52.9,10052],[52.9,10135],[59.7,10226],[69.4,10309],[78.4,10392],[84.5,10476],[85.8,10559],[89,10643],[89.1,10725],[89.1,10809],[89.1,10893],[89.1,10976],[89.1,11059]]",1,0,938.9873,941.0257,89.0625,1.0518,"[{""rating"":89.0625,""responseTime"":1.0517999999523227}]",space,1.5199,,941.0258,Definitely yes,100,941.0291,,,[],,0,15,15,15,1,audio/Narrative8Situation6.wav,audio/Narrative7Situation6.wav,audio/Narrative6Situation6.wav,audio/Narrative5Situation6.wav,2,3,2,3,,,,,,,,,,,,,,,,,,,,,,,,,,,,,,,,,,,,,,,
,,,,,,61035b7247628a323191598e,2024-02-08_15h03.34.474,group3.1-3.2-social-tom,2023.2.2,Win32,142.8571429,65c5074098b851296ff0b7ed,65c5417a4883725ae506b015,,,,,,,,,,,,,,,,,,,,,,,,,,,,,941.0295,2,audio/Narrative6Situation7.wav,946.038,,946.0382,970.8708,"[[84.3,1263],[75.3,1346],[20.6,1430],[1.4,1694],[11.7,1777],[20,1861],[20.5,1949],[19.2,2034],[14,2118],[13.4,2200],[13.4,2284],[13.4,2373],[13.4,2457],[13.4,2546],[16.7,2631],[19.5,2714],[22.3,2799],[22.9,2895],[23.4,3009],[23.4,3113],[23.4,3201],[23.4,3291],[23.4,3373],[23.4,3456],[23.4,3540],[23.4,3622],[23.4,3707],[23.4,3790],[23.4,3872],[23.4,3955],[23.4,4036],[23.4,4123],[23.4,4206],[23.4,4288],[23.4,4372],[23.4,4456],[23.4,4540],[23.4,4621],[23.4,4706],[23.4,4788],[23.4,4873],[23.4,4956],[23.4,5039],[23.4,5123],[23.4,5206],[23.4,5298],[23.4,5384],[23.4,5470],[23.4,5553],[23.4,5637],[23.4,5717],[23.4,5803],[23.4,5887],[23.4,5968],[23.4,6053],[23.4,6136],[23.4,6217],[23.4,6301],[23.4,6387],[23.4,6470],[23.4,6552],[23.4,6634],[23.4,6719],[23.4,6803],[23.4,6886],[33,6979],[65.3,7062],[82.1,7145],[83.6,7233],[83.6,7316],[84.6,7400],[86,7484],[91.4,7567],[95,7648],[95.2,7741],[95.8,7839],[95.8,7937],[95.8,8024],[95.8,8122],[95.8,8205],[95.8,8287],[95.8,8370],[95.8,8453],[95.8,8539],[95.8,8622],[95.8,8705],[95.8,8789],[95.8,8879],[95.8,8991],[95.8,9073],[95.8,9157],[95.8,9246],[95.8,9330],[95.8,9413],[95.8,9496],[95.8,9580],[95.8,9661],[95.8,9745],[95.8,9830],[95.8,9912],[95.8,9996],[95.8,10080],[95.8,10163],[95.8,10246],[95.8,10330],[95.8,10411],[95.8,10495],[95.8,10575],[95.8,10658],[95.8,10741],[95.8,10825],[95.8,10908],[95.8,10991],[95.8,11075],[95.8,11158],[95.8,11242],[95.8,11326],[95.8,11408],[95.8,11492],[95.8,11575],[95.8,11658],[95.8,11743],[95.8,11825],[95.8,11909],[95.8,11991],[95.8,12075],[95.8,12158],[95.8,12242],[95.8,12324],[95.8,12408],[95.8,12491],[95.8,12575],[95.8,12659],[95.8,12743],[95.8,12824],[95.8,12908],[95.8,12991],[95.8,13075],[95.8,13158],[95.8,13241],[95.8,13325],[95.8,13407],[95.8,13491],[95.8,13575],[95.8,13657],[95.8,13741],[95.8,13824],[95.8,13908],[95.8,13992],[95.8,14074],[95.8,14158],[95.8,14241],[95.8,14324],[95.8,14408],[96.3,14510],[96.3,14598],[96.4,14699],[96.4,14783],[96.4,14866],[96.4,14950],[96.4,15032],[96.4,15115],[96.4,15198],[96.4,15282],[96.4,15365],[96.4,15449],[96.4,15534],[96.4,15616],[96.4,15699],[96.4,15783],[96.4,15866],[96.4,15949],[96.4,16032],[96.4,16115],[96.4,16198],[96.4,16281],[96.4,16365],[96.4,16448],[96.4,16531],[96.4,16615],[96.4,16698],[96.4,16781],[96.4,16865],[96.4,16948],[96.4,17033],[96.4,17115],[96.4,17198],[96.4,17282],[96.4,17365],[96.4,17448],[96.4,17532],[96.4,17615],[96.4,17698],[96.4,17781],[96.4,17865],[96.4,17949],[96.4,18032],[96.4,18114],[96.4,18198],[96.4,18282],[96.4,18365],[96.4,18449],[96.4,18532],[96.4,18617],[96.4,18699],[96.4,18781],[96.4,18866],[96.4,18948],[96.4,19032],[96.4,19114],[96.4,19199],[96.4,19281],[96.4,19365],[96.4,19448],[96.4,19532],[96.4,19614],[96.4,19699],[96.4,19781],[96.4,19864],[96.4,19947],[96.4,20031],[96.4,20115],[96.4,20198],[96.4,20281],[96.4,20364],[96.4,20447],[96.4,20532],[96.4,20615],[96.4,20697],[96.4,20781],[96.4,20864],[96.4,20947],[96.4,21030],[96.4,21114],[96.4,21198],[96.4,21281],[96.4,21364],[96.4,21448],[96.4,21531],[96.4,21614],[96.4,21698],[96.4,21781],[96.4,21863],[96.4,21947],[96.4,22031],[96.4,22113],[96.4,22197],[96.4,22281],[96.4,22365],[96.4,22447],[96.4,22531],[96.4,22613],[96.4,22696],[96.4,22781],[96.4,22864],[96.4,22947],[98.1,23041],[99.3,23125],[100,23209],[100,23293],[100,23384],[100,23467],[100,23555],[100,23648],[100,23736],[100,23826],[100,23908],[100,23993],[100,24076],[100,24159],[100,24242],[100,24326],[100,24409],[100,24493],[100,24576],[100,24688],[100,24779]]",1,0,970.8713,972.19,98.12499682,1.3177,"[{""rating"":98.12499682108562,""responseTime"":1.3176999999284362}]",space,0.0636,,972.1901,Not at all,0,972.1918,,,[],,0,16,16,16,1,audio/Narrative8Situation7.wav,audio/Narrative7Situation7.wav,audio/Narrative6Situation7.wav,audio/Narrative5Situation7.wav,3,5,5,4,,,,,,,,,,,,,,,,,,,,,,,,,,,,,,,,,,,,,,,
