exp_question,consent.started,consent.stopped,consentResponse.keys,consentResponse.rt,consentResponse.duration,participantID,date,expName,psychopyVersion,OS,frameRate,STUDY_ID,SESSION_ID,opening1.started,opening1.stopped,keyEndingOpening1.keys,keyEndingOpening1.rt,keyEndingOpening1.duration,volumeAdjust.started,volumeAdjust.stopped,endingAdjust.keys,endingAdjust.rt,endingAdjust.duration,opening2.started,opening2.stopped,keyEndingOpening.keys,keyEndingOpening.rt,keyEndingOpening.duration,mouse.x,mouse.y,mouse.leftButton,mouse.midButton,mouse.rightButton,mouse.time,instructionLoop.thisRepN,instructionLoop.thisTrialN,instructionLoop.thisN,instructionLoop.thisIndex,instructionLoop.ran,readyForAudio.started,readyForAudio.stopped,fixation.started,run,audio_played,fixation.stopped,endPractice.keys,audioPre.started,audioPre.stopped,continuousResponses_audio,continuousSlider.response,continuousSlider.rt,intRating.started,intRating.stopped,intQuestionSlider.response,intQuestionSlider.rt,intQuestionSlider.history,confirmResponse.keys,confirmResponse.rt,confirmResponse.duration,catchQuestion.started,catch_label,catch_value,catchQuestion.stopped,catchQuestionSlider.response,catchQuestionSlider.rt,catchQuestionSlider.history,confirmResponse_2.keys,audioRunLoop.thisRepN,audioRunLoop.thisTrialN,audioRunLoop.thisN,audioRunLoop.thisIndex,audioRunLoop.ran,conditions1_1,conditions2_1,conditions1_2,conditions2_2,dur1_1,dur2_1,dur1_2,dur2_2,endPractice.rt,endPractice.duration,confirmResponse_2.rt,confirmResponse_2.duration,runIntervalBreak.started,runIntervalBreak.stopped,endingBreakKey.keys,endingBreakKey.rt,endingBreakKey.duration,connection.started,connection.stopped,connectionEnding.keys,connectionEnding.rt,connectionEnding.duration,readyForText.started,readyForText.stopped,textPre.started,run_dup,textPre.stopped,continuousResponses_text,textRunLoop.thisRepN,textRunLoop.thisTrialN,textRunLoop.thisN,textRunLoop.thisIndex,textRunLoop.ran,text1_1,text1_2,text2_1,text2_2,runBreakText.started,runBreakText.stopped,endingBreakKey_2.keys,endingBreakKey_2.rt,endingBreakKey_2.duration,ending.started,ending.stopped,endingEnding.keys,endingEnding.rt,endingEnding.duration
tom,0.0008,20.3718,y,20.051,,610e2de21943396ffccfcf4e,2024-02-08_16h02.13.602,group3.1-3.2-social-tom,2023.2.2,MacIntel,59.88023952,65c5074098b851296ff0b7ed,65c5413dc1f9d7dbb2684c36,,,,,,,,,,,,,,,,,,,,,,,,,,,,,,,,,,,,,,,,,,,,,,,,,,,,,,,,,,,,,,,,,,,,,,,,,,,,,,,,,,,,,,,,,,,,,,,,,,,,,,,,,,
,,,,,,610e2de21943396ffccfcf4e,2024-02-08_16h02.13.602,group3.1-3.2-social-tom,2023.2.2,MacIntel,59.88023952,65c5074098b851296ff0b7ed,65c5413dc1f9d7dbb2684c36,20.372,25.3388,space,4.9357,,,,,,,,,,,,,,,,,,,,,,,,,,,,,,,,,,,,,,,,,,,,,,,,,,,,,,,,,,,,,,,,,,,,,,,,,,,,,,,,,,,,,,,,,,,,,,,,,,,,,,
,,,,,,610e2de21943396ffccfcf4e,2024-02-08_16h02.13.602,group3.1-3.2-social-tom,2023.2.2,MacIntel,59.88023952,65c5074098b851296ff0b7ed,65c5413dc1f9d7dbb2684c36,,,,,,25.339,66.2085,space,40.536,,,,,,,,,,,,,,,,,,,,,,,,,,,,,,,,,,,,,,,,,,,,,,,,,,,,,,,,,,,,,,,,,,,,,,,,,,,,,,,,,,,,,,,,,,,,,,,,,
,,,,,,610e2de21943396ffccfcf4e,2024-02-08_16h02.13.602,group3.1-3.2-social-tom,2023.2.2,MacIntel,59.88023952,65c5074098b851296ff0b7ed,65c5413dc1f9d7dbb2684c36,,,,,,,,,,,66.2257,74.3401,space,8.0853,,[],[],[],[],[],[],0,0,0,0,1,,,,,,,,,,,,,,,,,,,,,,,,,,,,,,,,,,,,,,,,,,,,,,,,,,,,,,,,,,,,,,,,,,,,,,,,,,,,,,,,
,,,,,,610e2de21943396ffccfcf4e,2024-02-08_16h02.13.602,group3.1-3.2-social-tom,2023.2.2,MacIntel,59.88023952,65c5074098b851296ff0b7ed,65c5413dc1f9d7dbb2684c36,,,,,,,,,,,74.3498,110.5068,space,36.0954,,[],[],[],[],[],[],1,0,1,0,1,,,,,,,,,,,,,,,,,,,,,,,,,,,,,,,,,,,,,,,,,,,,,,,,,,,,,,,,,,,,,,,,,,,,,,,,,,,,,,,,
,,,,,,610e2de21943396ffccfcf4e,2024-02-08_16h02.13.602,group3.1-3.2-social-tom,2023.2.2,MacIntel,59.88023952,65c5074098b851296ff0b7ed,65c5413dc1f9d7dbb2684c36,,,,,,,,,,,110.5174,166.9236,p,56.3682,,[],[],[],[],[],[],2,0,2,0,1,,,,,,,,,,,,,,,,,,,,,,,,,,,,,,,,,,,,,,,,,,,,,,,,,,,,,,,,,,,,,,,,,,,,,,,,,,,,,,,,
,,,,,,610e2de21943396ffccfcf4e,2024-02-08_16h02.13.602,group3.1-3.2-social-tom,2023.2.2,MacIntel,59.88023952,65c5074098b851296ff0b7ed,65c5413dc1f9d7dbb2684c36,,,,,,,,,,,166.9342,175.9738,space,9.0199,,[],[],[],[],[],[],3,0,3,0,1,,,,,,,,,,,,,,,,,,,,,,,,,,,,,,,,,,,,,,,,,,,,,,,,,,,,,,,,,,,,,,,,,,,,,,,,,,,,,,,,
,,,,,,610e2de21943396ffccfcf4e,2024-02-08_16h02.13.602,group3.1-3.2-social-tom,2023.2.2,MacIntel,59.88023952,65c5074098b851296ff0b7ed,65c5413dc1f9d7dbb2684c36,,,,,,,,,,,175.9835,178.4068,space,2.3955,,[],[],[],[],[],[],4,0,4,0,1,,,,,,,,,,,,,,,,,,,,,,,,,,,,,,,,,,,,,,,,,,,,,,,,,,,,,,,,,,,,,,,,,,,,,,,,,,,,,,,,
,,,,,,610e2de21943396ffccfcf4e,2024-02-08_16h02.13.602,group3.1-3.2-social-tom,2023.2.2,MacIntel,59.88023952,65c5074098b851296ff0b7ed,65c5413dc1f9d7dbb2684c36,,,,,,,,,,,178.4073,207.9073,space,29.4704,,[],[],[],[],[],[],5,0,5,0,1,,,,,,,,,,,,,,,,,,,,,,,,,,,,,,,,,,,,,,,,,,,,,,,,,,,,,,,,,,,,,,,,,,,,,,,,,,,,,,,,
,,,,,,610e2de21943396ffccfcf4e,2024-02-08_16h02.13.602,group3.1-3.2-social-tom,2023.2.2,MacIntel,59.88023952,65c5074098b851296ff0b7ed,65c5413dc1f9d7dbb2684c36,,,,,,,,,,,207.9192,221.19,space,13.2486,,[],[],[],[],[],[],6,0,6,0,1,,,,,,,,,,,,,,,,,,,,,,,,,,,,,,,,,,,,,,,,,,,,,,,,,,,,,,,,,,,,,,,,,,,,,,,,,,,,,,,,
,,,,,,610e2de21943396ffccfcf4e,2024-02-08_16h02.13.602,group3.1-3.2-social-tom,2023.2.2,MacIntel,59.88023952,65c5074098b851296ff0b7ed,65c5413dc1f9d7dbb2684c36,,,,,,,,,,,,,,,,,,,,,,,,,,,221.2029,223.7743,223.7982,1,audio/Narrative13Situation2.wav,225.8075,,225.8077,255.5587,"[[999,2],[999,98],[999,182],[999,265],[999,349],[999,432],[999,515],[999,599],[999,682],[999,765],[999,848],[999,932],[999,1015],[999,1099],[999,1182],[999,1265],[999,1349],[999,1432],[999,1515],[999,1599],[999,1682],[999,1766],[999,1849],[999,1932],[999,2016],[999,2099],[999,2182],[999,2266],[999,2349],[999,2432],[999,2515],[999,2599],[999,2682],[999,2766],[999,2849],[999,2932],[999,3016],[999,3099],[999,3182],[999,3265],[999,3349],[999,3432],[999,3516],[999,3599],[999,3682],[999,3765],[999,3849],[999,3932],[999,4016],[999,4099],[999,4182],[999,4265],[999,4348],[999,4432],[999,4516],[999,4599],[999,4682],[999,4766],[999,4849],[999,4932],[999,5015],[999,5099],[999,5182],[999,5265],[999,5349],[999,5432],[999,5515],[999,5599],[999,5682],[999,5765],[999,5849],[999,5932],[999,6016],[999,6099],[999,6182],[999,6265],[999,6349],[999,6432],[999,6515],[999,6599],[999,6682],[999,6766],[999,6849],[999,6932],[999,7016],[999,7099],[999,7182],[999,7266],[999,7349],[999,7432],[999,7516],[68.7,7599],[73.9,8765],[74,8849],[74,8932],[74.1,9016],[74.1,9099],[74.1,9182],[74.1,9265],[74.1,9349],[74.1,9432],[74.1,9515],[74.1,9599],[74.1,9682],[74.1,9765],[74.1,9849],[74.1,9932],[74.1,10016],[74.1,10098],[74.1,10183],[74.1,10266],[74.1,10349],[73.4,10433],[70.4,10515],[66.2,10599],[57.6,10682],[53.9,10765],[52.8,10849],[52.8,10932],[52.8,11015],[52.8,11099],[52.7,11183],[52.2,11266],[51.7,11349],[51.4,11433],[51.3,11516],[56,11599],[63.7,11683],[65.5,11766],[65.9,11849],[67.2,11933],[67.2,12016],[64.1,12098],[60.1,12183],[57.2,12266],[54.3,12349],[51.1,12433],[49.4,12516],[47.6,12599],[47.4,12682],[48.4,12766],[48.5,12849],[48.5,12932],[48.5,13016],[48.8,13099],[50.6,13182],[51.3,13266],[51.3,13349],[51,13432],[50.9,13516],[50.7,13599],[50.7,13682],[50.7,13766],[50.7,13848],[50.7,13932],[50.7,14016],[50.7,14099],[50.7,14182],[50.7,14266],[50.7,14349],[50.7,14432],[50.7,14516],[50.7,14599],[50.7,14682],[50.7,14766],[50.7,14849],[50.7,14932],[50.7,15015],[50.7,15099],[50.7,15182],[50.7,15266],[53.7,15349],[56.3,15432],[57.9,15515],[58.3,15599],[58.3,15682],[58.3,15766],[58.3,15849],[58.3,15932],[58.3,16016],[58.3,16099],[58.3,16183],[58.3,16265],[58.3,16348],[58.3,16432],[58.3,16515],[58.4,16599],[58.4,16682],[58.4,16766],[57.7,16849],[56.7,16932],[56.3,17016],[58.4,17099],[59.9,17182],[60,17266],[59.4,17349],[59.1,17432],[58.9,17516],[58.7,17599],[58.3,17682],[58.1,17766],[57.9,17849],[57.7,17933],[57.6,18016],[57.4,18099],[55.6,18183],[49.7,19600],[49,19683],[48.1,19766],[48.1,19848],[48.1,19932],[47.9,20016],[48.1,20099],[48.7,20183],[49.4,20266],[49.8,20349],[49.9,20431],[49.9,20516],[49.9,20599],[49.9,20682],[49.9,20766],[49.9,20849],[49.9,20932],[49.9,21016],[50,21099],[47.9,21183],[47.3,21266],[47.3,21349],[47.3,21432],[47.3,21516],[44.7,21599],[42.6,21682],[40.8,21766],[41.1,21849],[42,21933],[42,22016],[40.3,22099],[36.2,22183],[34.2,22265],[34.2,22349],[34.2,22432],[34.2,22516],[34.2,22599],[31.6,22683],[27,22767],[24.9,22849],[24.1,22933],[23.7,23015],[21.9,23099],[21.9,23182],[21.9,23266],[21.9,23349],[21.9,23432],[21.9,23515],[21.9,23599],[21.9,23682],[21.9,23766],[21.9,23849],[21.9,23932],[22.3,24016],[32.3,24100],[46.2,24182],[59.8,24266],[64.9,24348],[65.6,24432],[65.6,24516],[65.6,24599],[65.6,24682],[65.6,24766],[69.4,24850],[75,24933],[76.4,25016],[76.9,25099],[76.9,25183],[77.1,25266],[77.2,25349],[77.2,25433],[77.2,25516],[77.2,25599],[77.2,25682],[77.2,25766],[77.2,25849],[77.2,25932],[77.2,26016],[77.8,26099],[77.9,26182],[78.1,26265],[78.4,26349],[78.4,26432],[78.4,26516],[78.4,26599],[78.4,26681],[78.4,26766],[78.4,26849],[78.4,26932],[82.3,27015],[90.5,27099],[95.3,27183],[99.5,27266],[100,27349],[100,27433],[100,27516],[100,27599],[100,27683],[100,27766],[100,27849],[100,27933],[100,28016],[100,28099],[100,28182],[100,28266],[100,28349],[100,28432],[100,28516],[100,28599],[100,28683],[100,28766],[100,28849],[100,28933],[99,29015],[94.1,29099],[92.8,29183],[92.3,29266],[92.1,29348],[92,29432],[92.1,29516],[92.4,29599],[93.2,29683]]",1,0,255.5592,269.3738,100,12.8196,"[{""rating"":84.82867324561403,""responseTime"":8.579400000095347},{""rating"":100,""responseTime"":12.819599999904653}]",space,13.2781,,269.3741,Not at all,0,269.3781,,,[],,0,0,0,0,1,audio/Narrative13Situation2.wav,audio/Narrative13Situation2.wav,audio/Narrative13Situation2.wav,audio/Narrative13Situation2.wav,2,2,2,2,,,,,,,,,,,,,,,,,,,,,,,,,,,,,,,,,,,,,,,
,,,,,,610e2de21943396ffccfcf4e,2024-02-08_16h02.13.602,group3.1-3.2-social-tom,2023.2.2,MacIntel,59.88023952,65c5074098b851296ff0b7ed,65c5413dc1f9d7dbb2684c36,,,,,,,,,,,,,,,,,,,,,,,,,,,,,269.3785,1,audio/Narrative7Situation1.wav,270.6911,space,270.6913,326.5918,"[[999,2],[999,82],[999,166],[999,249],[999,332],[999,416],[999,499],[999,582],[999,665],[999,749],[999,832],[999,916],[999,999],[999,1083],[999,1166],[999,1248],[999,1332],[999,1416],[999,1498],[999,1583],[999,1666],[999,1749],[999,1832],[999,1916],[999,1999],[999,2081],[999,2166],[999,2249],[999,2333],[999,2416],[999,2498],[999,2582],[999,2665],[999,2749],[999,2832],[999,2916],[999,2999],[999,3082],[999,3165],[999,3249],[999,3333],[999,3416],[999,3499],[999,3582],[999,3666],[999,3749],[999,3831],[999,3916],[999,3999],[999,4082],[999,4166],[999,4249],[999,4331],[999,4416],[999,4499],[81.6,4583],[66.4,4666],[30.3,6249],[29.4,6333],[11.3,6665],[11.3,6748],[11.2,6833],[11.2,6916],[11.2,6999],[11.2,7081],[11.2,7165],[11.2,7249],[14.5,7332],[17.6,7416],[18,7499],[17.8,7616],[17.7,7699],[17.7,7782],[19,7865],[20.2,7950],[21.7,8032],[22.8,8115],[23.2,8198],[23.2,8282],[22.7,8365],[22.7,8449],[22.7,8533],[22.7,8615],[27.4,8699],[31.7,8783],[32.3,8866],[32.3,8949],[32.3,9032],[32.3,9116],[32.2,9198],[32.2,9283],[32.1,9366],[32.1,9449],[32.1,9532],[32,9616],[31.9,9699],[31.8,9783],[31.2,9865],[31.2,9948],[31.2,10033],[31.2,10115],[31.2,10199],[31.2,10283],[31.2,10365],[31.2,10449],[31.2,10532],[31.3,10616],[31.7,10700],[31.7,10782],[31.7,10866],[31.7,10950],[31.7,11032],[31.7,11116],[31.7,11199],[31.7,11283],[31.7,11366],[31.7,11448],[31.7,11531],[31.7,11616],[31.7,11699],[31.7,11783],[31.7,11865],[31.7,11949],[31.6,12033],[31.3,12116],[30.9,12199],[30.4,12287],[29.8,12366],[29.2,12449],[29.2,12532],[29.2,12615],[30.1,12700],[49.4,12783],[86,12865],[93.8,12949],[93.8,13033],[93.8,13116],[93.8,13199],[93.6,13283],[93,13366],[92.4,13449],[91.1,13533],[89.1,13615],[87.6,13699],[86.8,13783],[85.8,13866],[85.1,13948],[85.1,14033],[84.8,14116],[84.7,14199],[84.7,14283],[85,14366],[87.5,14449],[88.4,14533],[89.2,14616],[92.2,14699],[97.4,14782],[100,14865],[100,14949],[100,15032],[100,15116],[100,15199],[100,15283],[100,15366],[100,15450],[100,15533],[100,15615],[100,15699],[100,15782],[100,15865],[100,15948],[100,16033],[100,16116],[100,16199],[100,16283],[100,16366],[100,16449],[100,16533],[100,16616],[100,16699],[100,16783],[100,16866],[100,16950],[99.6,17033],[99,17115],[98,17199],[96.4,17283],[94.5,17366],[93.1,17449],[92.1,17533],[91.3,17616],[91.1,17700],[90.9,17782],[90.9,17865],[90.9,17949],[91,18033],[93.4,18115],[98.4,18200],[100,18283],[100,18365],[100,18450],[100,18532],[100,18615],[100,18699],[100,18783],[100,18866],[100,18949],[100,19032],[100,19116],[100,19198],[100,19282],[100,19366],[100,19449],[100,19532],[100,19616],[100,19700],[100,19783],[93.3,19866],[91.7,19948],[91.3,20033],[89.3,20116],[85.1,20199],[80.4,20283],[80.4,20366],[80.4,20449],[80.4,20532],[93.6,22200],[93,22282],[92.6,22367],[92.4,22449],[92.4,22533],[92.5,22616],[92.6,22700],[92.6,22783],[92.6,22866],[92.6,22949],[92.6,23032],[92.6,23116],[92.7,23198],[92.7,23283],[92.7,23365],[92.7,23449],[92.7,23533],[92.7,23616],[92.7,23699],[92.7,23783],[92.7,23866],[92.7,23948],[92.7,24033],[92.7,24116],[92.7,24199],[92.7,24282],[92.7,24366],[92.7,24449],[92.7,24533],[92.7,24616],[92.7,24699],[92.7,24783],[92.7,24866],[92.7,24949],[92.7,25032],[92.6,25116],[91.4,25200],[51.1,26950],[51.9,27033],[52.4,27116],[52.8,27200],[53,27283],[52.9,27365],[52.8,27449],[52.7,27532],[52.4,27615],[52,27700],[51.6,27782],[51.2,27866],[50.9,27950],[50.6,28032],[50.3,28116],[50.2,28200],[50.2,28283],[50.1,28366],[50.1,28449],[50.2,28533],[50.2,28616],[50.2,28699],[50.2,28783],[50.2,28866],[50.2,28949],[50.2,29033],[50.2,29116],[50.2,29198],[50.2,29283],[50.2,29365],[50.2,29449],[50.2,29533],[50.1,29615],[43.8,29700],[38.2,29783],[35.1,29866],[32.2,29949],[31.9,30033],[31.9,30115],[31.9,30199],[31.9,30283],[31.9,30365],[30.2,30450],[27,30533],[24.3,30616],[22.8,30700],[21.1,30782],[21.1,30865],[21.1,30948],[21.1,31033],[21.1,31116],[20.5,31200],[18.4,31282],[17.3,31366],[15.8,31450],[13.8,31533],[12.6,31616],[12.6,31698],[12.6,31783],[12.6,31866],[12.6,31949],[12.5,32033],[7.9,32116],[11.9,33367],[72.7,34199],[72.9,34283],[98.6,34450],[100,34533],[100,34616],[100,34699],[100,34783],[100,34866],[100,34949],[100,35033],[100,37366],[97.6,37449],[95.3,37532],[93.9,37616],[92.9,37699],[92.9,37782],[92.9,37866],[92.9,37949],[92.9,38033],[67.7,38116],[62.2,38199],[62.2,38283],[62.2,38366],[62.2,38449],[62.2,38533],[62.2,38616],[59,38700],[57.8,39700],[68.5,39783],[70.2,39867],[70.4,39950],[70.4,40032],[70.3,40116],[70.1,40199],[70.1,40282],[70.1,40366],[71.5,40449],[82.2,40533],[84.6,40616],[84.9,40700],[85.3,40783],[85.9,40867],[87,40949],[87.7,41032],[88,41116],[89.7,41200],[92.3,41283],[93.6,41367],[93.9,41449],[94,41533],[94.2,41617],[94.8,41700],[95.3,41784],[95.4,41867],[95.5,41949],[95.6,42033],[95.8,42115],[95.9,42199],[95.9,42282],[95.9,42366],[95.9,42450],[95.8,42532],[95.5,42617],[95.3,42699],[95.1,42782],[95,42866],[95,42948],[95,43033],[95,43117],[95.1,43199],[95.1,43283],[95.1,43365],[95.1,43450],[95.1,43533],[95.1,43616],[95,43700],[94.8,43783],[94.6,43866],[94.4,43950],[94.3,44032],[94.1,44116],[94.1,44198],[93.9,44283],[93.8,44366],[93.6,44450],[93.4,44533],[93.3,44617],[92.8,44700],[92.8,44782],[92.8,44866],[92.8,44950],[92.8,45033],[92.8,45116],[92.8,45200],[92.8,45283],[92.8,45366],[92.8,45449],[92.8,45533],[92.8,45615],[92.8,45700],[92.8,45783],[92.8,45866],[92.8,45950],[92.8,46033],[92.8,46115],[92.8,46199],[92.8,46282],[92.8,46366],[92.8,46450],[92.8,46533],[92.8,46615],[92.8,46700],[92.8,46782],[92.8,46866],[92.8,46949],[92.8,47033],[92.8,47116],[92.8,47199],[92.8,47282],[92.8,47366],[92.8,47450],[92.8,47532],[92.8,47616],[92.5,47700],[81.7,47782],[67.2,47867],[40.4,47950],[30.2,48033],[32,48116],[34.4,48200],[43.7,48283],[71.2,48366],[79.7,48450],[79.7,48533],[79.4,48615],[79.3,48699],[79.1,48783],[79.1,48866],[79.1,48950],[79.1,49033],[79.2,49116],[79.2,49200],[79.2,49282],[79.2,49366],[79.2,49450],[79.2,49533],[79.2,49616],[79.2,49699],[79.2,49783],[79.2,49866],[79.2,49950],[79.2,50033],[79.2,50116],[79.2,50200],[79.2,50283],[79.2,50366],[79.2,50449],[79.2,50533],[79.2,50615],[79.2,50699],[79.2,50783],[79.2,50866],[79.2,50950],[79.2,51032],[79.2,51116],[79.2,51200],[79.2,51283],[79.2,51365],[79.2,51449],[79.2,51532],[79.2,51616],[79.2,51700],[79.2,51783],[79.2,51866],[79.2,51949],[79.2,52033],[79.2,52116],[79.2,52200],[79.2,52283],[79.2,52366],[81.1,52450],[83.1,52533],[83.5,52616],[83.5,52699],[83.4,52782],[83.4,52866],[83.4,52949],[83.4,53033],[83.4,53116],[86.9,53200],[91,53283],[93.7,53367]]",1,0,326.5922,341.2418,59.53307749,9.6636,"[{""rating"":59.53307748538011,""responseTime"":9.663600000143049}]",space,14.1145,,341.242,Not at all,0,341.2536,,,[],,0,1,1,1,1,audio/Narrative7Situation1.wav,audio/Narrative8Situation1.wav,audio/Narrative5Situation1.wav,audio/Narrative6Situation1.wav,2,5,5,2,1.2897,,,,,,,,,,,,,,,,,,,,,,,,,,,,,,,,,,,,,,
,,,,,,610e2de21943396ffccfcf4e,2024-02-08_16h02.13.602,group3.1-3.2-social-tom,2023.2.2,MacIntel,59.88023952,65c5074098b851296ff0b7ed,65c5413dc1f9d7dbb2684c36,,,,,,,,,,,,,,,,,,,,,,,,,,,,,341.2539,1,audio/Narrative7Situation2.wav,344.2581,,344.2581,351.7256,[],1,0,351.7257,361.5409,86.43548977,7.3452,"[{""rating"":86.43548976608186,""responseTime"":7.345200000047669}]",space,9.2675,,361.541,Not at all,0,361.5434,,,[],,0,2,2,2,1,audio/Narrative7Situation2.wav,audio/Narrative8Situation2.wav,audio/Narrative5Situation2.wav,audio/Narrative6Situation2.wav,3,3,3,3,,,,,,,,,,,,,,,,,,,,,,,,,,,,,,,,,,,,,,,
,,,,,,610e2de21943396ffccfcf4e,2024-02-08_16h02.13.602,group3.1-3.2-social-tom,2023.2.2,MacIntel,59.88023952,65c5074098b851296ff0b7ed,65c5413dc1f9d7dbb2684c36,,,,,,,,,,,,,,,,,,,,,,,,,,,,,361.5437,1,audio/Narrative7Situation3.wav,369.5585,,369.5586,378.8258,"[[999,10],[999,83],[999,166],[999,249],[999,333],[999,415],[999,499],[999,583],[999,665],[999,750],[999,834],[999,916],[999,999],[999,1083],[999,1165],[999,1250],[999,1333],[999,1416],[999,1500],[999,1583],[999,1666],[999,1750],[999,1833],[999,1916],[999,2000],[999,2083],[999,2166],[999,2250],[999,2333],[999,2416],[999,2500],[999,2583],[999,2666],[999,2750],[999,2833],[999,2916],[999,3000],[999,3083],[999,3166],[999,3250],[999,3333],[999,3415],[999,3499],[999,3583],[999,3666],[999,3749],[999,3832],[999,3916],[999,3999],[999,4082],[999,4166],[999,4250],[999,4333],[999,4416],[999,4500],[999,4583],[999,4666],[999,4750],[999,4833],[999,4916],[999,5000],[999,5083],[999,5166],[999,5250],[999,5333],[999,5416],[999,5500],[999,5583],[999,5666],[999,5750],[999,5832],[999,5916],[999,6000],[999,6083],[999,6165],[999,6250],[999,6333],[999,6416],[999,6499],[999,6583],[999,6666],[999,6749],[999,6833],[999,6916],[999,6999],[999,7083],[999,7166],[999,7249],[999,7333],[999,7415],[999,7499],[999,7583],[999,7666],[999,7750],[999,7833],[999,7916],[999,8000],[999,8083],[999,8166],[999,8249],[999,8333],[999,8416],[999,8500],[999,8583],[999,8665],[999,8750],[999,8832],[999,8916],[999,8999],[999,9083],[999,9166],[999,9249]]",1,0,378.826,388.1591,10.6807383,8.1306,"[{""rating"":10.680738304093568,""responseTime"":8.130599999904632}]",space,8.7846,,388.1593,All the time,100,388.1638,,,[],,0,3,3,3,1,audio/Narrative7Situation3.wav,audio/Narrative8Situation3.wav,audio/Narrative5Situation3.wav,audio/Narrative6Situation3.wav,8,4,3,5,,,,,,,,,,,,,,,,,,,,,,,,,,,,,,,,,,,,,,,
,,,,,,610e2de21943396ffccfcf4e,2024-02-08_16h02.13.602,group3.1-3.2-social-tom,2023.2.2,MacIntel,59.88023952,65c5074098b851296ff0b7ed,65c5413dc1f9d7dbb2684c36,,,,,,,,,,,,,,,,,,,,,,,,,,,,,388.1642,1,audio/Narrative7Situation4.wav,391.1755,,391.1756,402.9093,"[[999,9],[999,83],[999,166],[999,249],[999,333],[999,415],[999,499],[999,583],[999,666],[999,750],[999,834],[999,916],[999,999],[999,1083],[999,1166],[999,1249],[999,1333],[999,1415],[999,1499],[999,1583],[999,1666],[999,1750],[999,1832],[999,1916],[999,1999],[999,2083],[999,2167],[999,2249],[999,2333],[999,2415],[999,2499],[999,2583],[999,2666],[999,2748],[999,2833],[999,2916],[999,2999],[999,3083],[999,3166],[999,3249],[999,3332],[999,3416],[999,3505],[999,3583],[999,3666],[999,3749],[999,3833],[999,3916],[999,3999],[999,4083],[999,4166],[999,4249],[999,4333],[999,4416],[999,4499],[999,4583],[999,4666],[999,4749],[999,4833],[999,4916],[999,4999],[999,5082],[999,5166],[999,5250],[999,5333],[999,5416],[999,5499],[999,5583],[999,5666],[999,5749],[999,5833],[999,5916],[999,5999],[999,6083],[999,6166],[999,6250],[999,6333],[46.3,6416],[39.7,6500],[45,6583],[63.2,6667],[79.6,6750],[88.5,6833],[90,6917],[85.5,7000],[72.7,7083],[58.4,7166],[36.1,7833],[49.7,7916],[59,8000],[65.9,8083],[67.6,8166],[68,8250],[68.2,8333],[68.2,8416],[68.2,8500],[68,8583],[67.8,8666],[67.2,8750],[63.3,8832],[56.8,8916],[54.4,9000],[53.8,9083],[53.5,9166],[53.4,9250],[53.4,9333],[53.4,9416],[52.3,9499],[52.3,9583],[52.3,9666],[52.3,9749],[52.3,9832],[52.3,9916],[52.3,9999],[52.3,10083],[56.4,10166],[62.6,10250],[66.3,10333],[68.1,10416],[68.5,10500],[67.7,10583],[67.7,10666],[67.7,10749],[67.7,10833],[67.7,10916],[67.7,11000],[67.7,11083],[67.7,11166],[67.7,11249],[68.1,11333],[72.3,11416],[77.4,11500],[80.6,11583],[81,11666]]",1,0,402.9095,412.7592,79.22697368,7.2244,"[{""rating"":79.22697368421052,""responseTime"":7.224399999856985}]",space,9.3021,,412.7594,Half the time,50,412.7633,,,[],,0,4,4,4,1,audio/Narrative7Situation4.wav,audio/Narrative8Situation4.wav,audio/Narrative5Situation4.wav,audio/Narrative6Situation4.wav,3,3,1,2,,,,,,,,,,,,,,,,,,,,,,,,,,,,,,,,,,,,,,,
,,,,,,610e2de21943396ffccfcf4e,2024-02-08_16h02.13.602,group3.1-3.2-social-tom,2023.2.2,MacIntel,59.88023952,65c5074098b851296ff0b7ed,65c5413dc1f9d7dbb2684c36,,,,,,,,,,,,,,,,,,,,,,,,,,,,,412.7637,1,audio/Narrative7Situation5.wav,417.7759,,417.776,426.2762,[],1,0,426.2763,434.1928,7.902960526,5.2194,"[{""rating"":7.9029605263157885,""responseTime"":5.219400000095334}]",space,7.378,,434.1931,All the time,100,434.1968,,,[],,0,5,5,5,1,audio/Narrative7Situation5.wav,audio/Narrative8Situation5.wav,audio/Narrative5Situation5.wav,audio/Narrative6Situation5.wav,5,2,5,2,,,,,,,,,,,,,,,,,,,,,,,,,,,,,,,,,,,,,,,
,,,,,,610e2de21943396ffccfcf4e,2024-02-08_16h02.13.602,group3.1-3.2-social-tom,2023.2.2,MacIntel,59.88023952,65c5074098b851296ff0b7ed,65c5413dc1f9d7dbb2684c36,,,,,,,,,,,,,,,,,,,,,,,,,,,,,434.1973,1,audio/Narrative7Situation6.wav,437.2094,,437.2095,447.1933,"[[999,9],[999,82],[999,166],[999,249],[999,333],[999,416],[999,499],[999,583],[999,666],[999,750],[999,833],[999,916],[999,999],[999,1083],[999,1166],[999,1249],[999,1332],[999,1415],[999,1499],[999,1582],[999,1666],[999,1749],[999,1832],[999,1916],[999,1999],[999,2083],[999,2166],[999,2249],[999,2333],[999,2416],[999,2499],[999,2582],[999,2666],[999,2749],[999,2833],[999,2915],[999,2999],[999,3083],[999,3166],[999,3249],[999,3333],[999,3416],[999,3499],[999,3583],[999,3666],[999,3749],[999,3833],[999,3916],[999,3999],[999,4083],[999,4166],[999,4249],[999,4333],[999,4416],[999,4499],[999,4583],[16,4916],[41,4999],[61.8,5083],[69,5166],[69.5,5249],[69.3,5333],[67.5,5416],[61.5,5500],[52.8,5583],[48.5,5666],[54.6,5750],[100,8833],[100,8916]]",1,0,447.1934,451.4764,32.49406067,3.355,"[{""rating"":32.49406067251462,""responseTime"":3.355000000000018}]",space,3.7542,,451.4765,Half the time,50,451.4808,,,[],,0,6,6,6,1,audio/Narrative7Situation6.wav,audio/Narrative8Situation6.wav,audio/Narrative5Situation6.wav,audio/Narrative6Situation6.wav,3,2,3,2,,,,,,,,,,,,,,,,,,,,,,,,,,,,,,,,,,,,,,,
,,,,,,610e2de21943396ffccfcf4e,2024-02-08_16h02.13.602,group3.1-3.2-social-tom,2023.2.2,MacIntel,59.88023952,65c5074098b851296ff0b7ed,65c5413dc1f9d7dbb2684c36,,,,,,,,,,,,,,,,,,,,,,,,,,,,,451.4812,1,audio/Narrative7Situation7.wav,456.4933,,456.4934,473.6766,"[[56.5,166],[56.4,249],[56.3,332],[56.2,416],[56.2,498],[56.2,582],[56.1,665],[56,749],[54.4,833],[52,916],[49.2,999],[49.1,1082],[52,1166],[95.3,3249],[95.4,3332],[95.4,3415],[95.4,3499],[95.6,3583],[95.6,3666],[95.7,3749],[95.8,3832],[95.8,3916],[95.8,3999],[95.8,4082],[95.8,4166],[95.8,4249],[95.8,4332],[95.8,4416],[95.8,4499],[96.2,4582],[97.5,4666],[98.1,4749],[98.2,4832],[98.2,4915],[98.2,4999],[98.1,5083],[98.1,5166],[98.1,5249],[98.1,5333],[97.9,5415],[97.5,5499],[96.9,5582],[95.6,5666],[94.8,5748],[94.6,5832],[94.4,5916],[94.4,5999],[94.4,6082],[94.4,6166],[94.4,6249],[94.4,6332],[94.4,6415],[94.4,6499],[94.4,6582],[94.3,6666],[94.2,6750],[94.1,6832],[94.1,6915],[94.1,6998],[94.1,7082],[94.1,7165],[95.7,7249],[99.7,7332],[100,7416],[100,7499],[100,7582],[100,7666],[100,7749],[100,7832],[100,7915],[100,7999],[100,8082],[100,8165],[100,8249],[100,8332],[100,8415],[100,8499],[100,8582],[100,8665],[100,8751],[100,8833],[100,8916],[100,8999],[100,9082],[100,9166],[100,9249],[100,9332],[100,9416],[100,9499],[100,9582],[100,9666],[100,9748],[100,9832],[100,9916],[100,9999],[100,10082],[100,10166],[100,10250],[100,10332],[100,10416],[100,10499],[100,10582],[100,10665],[100,10749],[100,10832],[100,10916],[100,10999],[100,11082],[100,11166],[100,11249],[100,11332],[100,11416],[100,11498],[100,11582],[100,11666],[100,11749],[100,11832],[100,11916],[100,11999],[100,12082],[100,12166],[100,12249],[100,12331],[100,12415],[100,12499],[100,12582],[100,12666],[100,12749],[100,12832],[100,12915],[100,12999],[100,13081],[100,13166],[100,13249],[100,13332],[100,13416],[100,13499],[100,13582],[100,13666],[100,13749],[100,13832],[100,13916],[100,13999],[100,14082],[100,14166],[100,14248],[100,14332],[100,14416],[100,14499],[100,14582],[100,14666],[100,14749],[100,14832],[100,14916],[100,14999],[100,15082],[100,15166],[100,15249],[100,15332],[100,15416],[100,15499],[100,15582],[100,15666],[100,15748],[100,15832],[100,15915],[100,15999],[100,16082],[100,16166],[100,16249],[100,16332],[100,16416],[100,16499],[100,16582],[100,16666],[100,16749],[100,16831],[100,16916],[100,16999],[100,17082],[100,17166]]",1,0,473.6769,481.21,99.71034357,3.8706,"[{""rating"":99.71034356725146,""responseTime"":3.8706000001430425}]",space,6.9852,,481.2101,All the time,100,481.2216,,,[],,0,7,7,7,1,audio/Narrative7Situation7.wav,audio/Narrative8Situation7.wav,audio/Narrative5Situation7.wav,audio/Narrative6Situation7.wav,5,3,4,5,,,,,,,,,,,,,,,,,,,,,,,,,,,,,,,,,,,,,,,
,,,,,,610e2de21943396ffccfcf4e,2024-02-08_16h02.13.602,group3.1-3.2-social-tom,2023.2.2,MacIntel,59.88023952,65c5074098b851296ff0b7ed,65c5413dc1f9d7dbb2684c36,,,,,,,,,,,,,,,,,,,,,,,,,,,,,481.2219,1,audio/Narrative7Situation8.wav,483.2266,,483.2266,493.2601,"[[999,1],[999,82],[999,166],[999,249],[999,333],[999,416],[999,499],[999,583],[999,666],[999,750],[999,832],[999,916],[999,999],[999,1083],[999,1165],[999,1249],[999,1332],[999,1416],[999,1499],[999,1583],[999,1665],[999,1749],[999,1833],[999,1916],[999,1999],[999,2083],[999,2165],[999,2249],[999,2332],[999,2416],[999,2499],[999,2583],[999,2666],[999,2749],[999,2833],[999,2916],[999,2999],[999,3083],[999,3166],[999,3250],[999,3333],[999,3416],[999,3499],[999,3583],[999,3665],[999,3749],[999,3833],[999,3916],[999,3999],[999,4083],[999,4166],[999,4249],[999,4333],[999,4416],[999,4499],[999,4583],[999,4666],[999,4749],[999,4832],[999,4916],[999,4999],[999,5083],[999,5166],[999,5249],[999,5333],[999,5416],[999,5499],[999,5582],[999,5666],[999,5750],[999,5833],[999,5916],[999,5999],[999,6082],[999,6166],[999,6249],[999,6333],[999,6415],[999,6499],[999,6583],[999,6666],[999,6748],[999,6832],[999,6916],[999,7000],[999,7082],[999,7166],[999,7249],[999,7333],[999,7416],[999,7499],[999,7583],[999,7666],[999,7750],[999,7833],[999,7916],[999,7999],[999,8083],[999,8166],[999,8250],[999,8333],[999,8416],[999,8500],[999,8582],[999,8667],[999,8750],[999,8833],[999,8916],[999,8999],[999,9083],[999,9166],[999,9249],[999,9333],[999,9416],[999,9499],[999,9583],[999,9666],[999,9750],[999,9833],[999,9916],[999,9999]]",1,0,493.2604,501.6101,58.06514985,5.2111,"[{""rating"":66.29020467836257,""responseTime"":4.177200000047662},{""rating"":58.06514985380117,""responseTime"":5.211100000143006}]",space,7.8108,,501.6102,All the time,100,501.621,,,[],,0,8,8,8,1,audio/Narrative7Situation8.wav,audio/Narrative8Situation8.wav,audio/Narrative5Situation8.wav,audio/Narrative6Situation8.wav,2,3,3,5,,,,,,,,,,,,,,,,,,,,,,,,,,,,,,,,,,,,,,,
,,,,,,610e2de21943396ffccfcf4e,2024-02-08_16h02.13.602,group3.1-3.2-social-tom,2023.2.2,MacIntel,59.88023952,65c5074098b851296ff0b7ed,65c5413dc1f9d7dbb2684c36,,,,,,,,,,,,,,,,,,,,,,,,,,,,,501.6215,1,audio/Narrative7Situation9.wav,503.6267,,503.6267,512.2605,"[[57.6,2167],[61.3,2667],[70.1,2750],[71.5,2833],[71.5,2916],[71.5,2999],[71.5,3083],[71.5,3166],[71.5,3249],[71.5,3333],[71.5,3415],[71.5,3500],[71.3,3583],[71.2,3666],[71.1,3750],[71.2,3833],[71.3,3916],[71.3,4000],[71.3,4083],[71.3,4166],[71.3,4249],[75,4333],[83.1,4416],[85.9,4500],[88.5,4583],[94.8,4666],[94.8,4750],[94.8,4833],[94.8,4916],[94.8,4999],[94.8,5083],[94.8,5166],[94.8,5249],[94.8,5333],[94.8,5416],[94.8,5499],[94.8,5583],[94.8,5666],[94.8,5750],[94.8,5832],[94.8,5916],[94.8,5999],[94.8,6083],[94.8,6165],[94.8,6250],[94.8,6333],[94.8,6416],[94.8,6500],[94.8,6583],[94.8,6666],[94.8,6749],[94.8,6832],[94.8,6916],[94.8,7000],[94.8,7083],[94.8,7166],[94.8,7249],[94.8,7333],[94.8,7416],[94.8,7500],[94.8,7583],[94.8,7666],[94.8,7749],[94.8,7833],[94.8,7916],[94.8,8000],[94.8,8083],[94.8,8166],[94.8,8250],[94.8,8333],[94.8,8416],[94.8,8499],[94.8,8582]]",1,0,512.2607,513.6441,99.33251096,1.1042,"[{""rating"":99.33251096491227,""responseTime"":1.10420000004774}]",space,0.8482,,513.6443,Half the time,50,513.648,,,[],,0,9,9,9,1,audio/Narrative7Situation9.wav,audio/Narrative8Situation9.wav,audio/Narrative5Situation9.wav,audio/Narrative6Situation9.wav,2,3,3,4,,,,,,,,,,,,,,,,,,,,,,,,,,,,,,,,,,,,,,,
,,,,,,610e2de21943396ffccfcf4e,2024-02-08_16h02.13.602,group3.1-3.2-social-tom,2023.2.2,MacIntel,59.88023952,65c5074098b851296ff0b7ed,65c5413dc1f9d7dbb2684c36,,,,,,,,,,,,,,,,,,,,,,,,,,,,,513.6483,1,audio/Narrative8Situation1.wav,518.6603,,518.6603,534.5954,"[[999,9],[999,82],[999,166],[999,249],[999,332],[999,416],[999,499],[999,582],[999,666],[999,750],[999,834],[999,916],[999,998],[999,1082],[999,1166],[999,1249],[999,1332],[999,1416],[999,1499],[999,1583],[999,1666],[999,1749],[999,1833],[999,1916],[999,1999],[999,2082],[999,2166],[999,2249],[999,2333],[999,2416],[999,2499],[999,2583],[999,2666],[999,2749],[999,2833],[999,2916],[999,2999],[999,3083],[999,3166],[999,3249],[999,3332],[999,3416],[999,3499],[999,3583],[999,3666],[999,3749],[999,3833],[999,3916],[999,3999],[999,4084],[999,4166],[999,4249],[999,4333],[999,4416],[999,4499],[999,4583],[999,4666],[999,4749],[999,4833],[999,4916],[999,4999],[999,5083],[999,5166],[999,5249],[999,5333],[999,5416],[999,5499],[999,5583],[999,5666],[999,5750],[999,5832],[999,5916],[999,5999],[999,6083],[999,6166],[999,6250],[999,6333],[999,6416],[999,6499],[999,6583],[999,6666],[999,6750],[999,6833],[999,6916],[999,6999],[999,7083],[999,7165],[999,7250],[999,7333],[999,7416],[999,7499],[999,7583],[999,7666],[999,7749],[999,7833],[999,7916],[999,7999],[999,8083],[999,8166],[999,8249],[999,8333],[999,8416],[999,8499],[999,8583],[999,8666],[999,8749],[999,8833],[999,8916],[999,9000],[999,9083],[999,9166],[999,9249],[999,9333],[999,9416],[999,9499],[999,9583],[999,9666],[999,9749],[999,9833],[999,9916],[999,9999],[999,10083],[999,10165],[999,10250],[999,10333],[999,10416],[999,10499],[999,10583],[999,10666],[999,10750],[999,10833],[999,10916],[999,11000],[999,11083],[999,11165],[999,11250],[999,11333],[999,11416],[999,11499],[999,11583],[999,11666],[999,11749],[999,11833],[999,11916],[999,12000],[999,12082],[999,12166],[999,12250],[999,12333],[999,12416],[999,12499],[999,12583],[999,12666],[999,12749],[999,12833],[999,12916],[999,13000],[999,13083],[999,13166],[999,13250],[999,13333],[999,13416],[999,13500],[999,13583],[999,13666],[999,13749],[999,13833],[999,13916],[999,14000],[999,14083],[999,14166],[999,14250],[999,14333],[999,14416],[999,14500],[999,14583],[999,14666],[999,14750],[999,14833],[999,14916],[999,15000],[999,15082],[999,15166],[999,15249],[999,15333],[999,15416],[999,15499],[999,15583],[999,15666],[999,15749],[999,15833],[999,15916]]",1,0,534.5957,537.4604,1.774945175,2.4105,"[{""rating"":1.774945175438597,""responseTime"":2.41050000000007}]",space,2.3172,,537.4605,All the time,100,537.4644,,,[],,0,10,10,10,1,audio/Narrative8Situation1.wav,audio/Narrative7Situation1.wav,audio/Narrative6Situation1.wav,audio/Narrative5Situation1.wav,5,2,2,5,,,,,,,,,,,,,,,,,,,,,,,,,,,,,,,,,,,,,,,
,,,,,,610e2de21943396ffccfcf4e,2024-02-08_16h02.13.602,group3.1-3.2-social-tom,2023.2.2,MacIntel,59.88023952,65c5074098b851296ff0b7ed,65c5413dc1f9d7dbb2684c36,,,,,,,,,,,,,,,,,,,,,,,,,,,,,537.4647,1,audio/Narrative8Situation2.wav,540.4772,,540.4773,550.6107,[],1,0,550.6109,553.5607,99.31743421,2.3975,"[{""rating"":99.31743421052633,""responseTime"":2.3975000000000364}]",space,2.4184,,553.5608,Not at all,0,553.5649,,,[],,0,11,11,11,1,audio/Narrative8Situation2.wav,audio/Narrative7Situation2.wav,audio/Narrative6Situation2.wav,audio/Narrative5Situation2.wav,3,3,3,3,,,,,,,,,,,,,,,,,,,,,,,,,,,,,,,,,,,,,,,
,,,,,,610e2de21943396ffccfcf4e,2024-02-08_16h02.13.602,group3.1-3.2-social-tom,2023.2.2,MacIntel,59.88023952,65c5074098b851296ff0b7ed,65c5413dc1f9d7dbb2684c36,,,,,,,,,,,,,,,,,,,,,,,,,,,,,553.5653,1,audio/Narrative8Situation3.wav,557.5773,,557.5775,579.9609,"[[999,9],[999,82],[999,166],[999,249],[999,332],[999,416],[999,499],[999,583],[999,666],[999,750],[999,833],[999,916],[999,999],[999,1082],[999,1166],[999,1249],[999,1333],[999,1416],[999,1499],[999,1583],[999,1666],[999,1749],[999,1833],[999,1916],[999,1999],[999,2084],[999,2166],[999,2249],[999,2332],[999,2416],[999,2499],[999,2582],[999,2665],[999,2749],[999,2833],[999,2915],[999,2999],[999,3083],[999,3166],[999,3249],[999,3333],[999,3416],[999,3499],[999,3583],[999,3665],[999,3749],[999,3832],[999,3916],[999,3999],[999,4082],[999,4166],[999,4249],[999,4333],[999,4416],[999,4499],[999,4583],[999,4665],[999,4749],[999,4833],[999,4915],[999,4998],[999,5083],[999,5165],[999,5249],[999,5333],[999,5416],[999,5499],[999,5583],[999,5666],[999,5749],[999,5833],[999,5916],[999,5999],[999,6083],[999,6166],[999,6249],[999,6333],[999,6416],[999,6499],[999,6582],[999,6665],[999,6749],[999,6833],[999,6916],[999,6999],[999,7083],[999,7166],[999,7250],[999,7332],[999,7416],[999,7499],[999,7583],[999,7666],[999,7749],[999,7832],[999,7916],[999,7999],[999,8083],[999,8166],[999,8249],[999,8333],[999,8416],[999,8499],[999,8583],[999,8666],[999,8750],[999,8833],[999,8916],[999,8999],[999,9083],[999,9165],[999,9249],[999,9333],[999,9416],[999,9499],[999,9583],[999,9665],[999,9749],[999,9832],[999,9916],[999,9999],[999,10083],[999,10166],[999,10249],[999,10333],[999,10416],[999,10500],[999,10583],[999,10666],[999,10750],[999,10833],[999,10915],[999,10999],[999,11083],[999,11166],[999,11249],[999,11333],[999,11416],[999,11500],[999,11583],[999,11666],[999,11750],[999,11833],[999,11916],[999,12000],[999,12083],[999,12166],[999,12250],[999,12333],[999,12416],[999,12499],[999,12583],[999,12666],[999,12749],[999,12833],[999,12916],[999,12999],[999,13083],[999,13166],[999,13250],[999,13333],[999,13416],[999,13499],[999,13583],[999,13666],[999,13749],[999,13833],[999,13916],[999,13998],[999,14083],[999,14166],[999,14249],[999,14333],[999,14416],[999,14500],[999,14583],[999,14666],[999,14749],[999,14833],[999,14915],[999,14999],[999,15083],[999,15166],[999,15249],[999,15333],[999,15416],[999,15499],[999,15583],[999,15666],[999,15749],[999,15833],[999,15916],[999,15999],[999,16083],[999,16166],[999,16249],[999,16333],[999,16416],[999,16500],[999,16583],[999,16666],[999,16749],[999,16833],[999,16916],[999,16999],[999,17082],[999,17166],[999,17249],[999,17333],[999,17416],[999,17499],[999,17583],[999,17665],[999,17750],[999,17833],[999,17916],[999,18000],[999,18083],[999,18166],[999,18250],[999,18333],[999,18416],[999,18499],[999,18583],[999,18666],[999,18749],[999,18833],[999,18915],[999,19000],[999,19083],[999,19166],[999,19250],[999,19332],[999,19415],[999,19500],[999,19583],[999,19665],[999,19749],[999,19832],[999,19916],[999,19999],[999,20083],[999,20166],[999,20249],[999,20333],[999,20416],[999,20499],[999,20583],[999,20666],[999,20749],[999,20833],[999,20915],[999,21000],[999,21082],[999,21165],[999,21250],[999,21333],[999,21416],[999,21500],[999,21583],[999,21666],[999,21749],[999,21833],[999,21916],[999,22000],[999,22083],[999,22166],[999,22249],[999,22333]]",1,0,579.9612,586.0606,50.40478801,2.0367,"[{""rating"":50.40478801169591,""responseTime"":2.0367000000477447}]",space,5.5521,,586.0608,All the time,100,586.0726,,,[],,0,12,12,12,1,audio/Narrative8Situation3.wav,audio/Narrative7Situation3.wav,audio/Narrative6Situation3.wav,audio/Narrative5Situation3.wav,4,8,5,3,,,,,,,,,,,,,,,,,,,,,,,,,,,,,,,,,,,,,,,
,,,,,,610e2de21943396ffccfcf4e,2024-02-08_16h02.13.602,group3.1-3.2-social-tom,2023.2.2,MacIntel,59.88023952,65c5074098b851296ff0b7ed,65c5413dc1f9d7dbb2684c36,,,,,,,,,,,,,,,,,,,,,,,,,,,,,586.0729,1,audio/Narrative8Situation4.wav,589.0777,,589.0777,603.2612,[],1,0,603.2613,609.0279,52.62792398,3.6381,"[{""rating"":52.62792397660818,""responseTime"":3.6381000001430266}]",space,5.2273,,609.0282,Not at all,0,609.0321,,,[],,0,13,13,13,1,audio/Narrative8Situation4.wav,audio/Narrative7Situation4.wav,audio/Narrative6Situation4.wav,audio/Narrative5Situation4.wav,3,3,2,1,,,,,,,,,,,,,,,,,,,,,,,,,,,,,,,,,,,,,,,
,,,,,,610e2de21943396ffccfcf4e,2024-02-08_16h02.13.602,group3.1-3.2-social-tom,2023.2.2,MacIntel,59.88023952,65c5074098b851296ff0b7ed,65c5413dc1f9d7dbb2684c36,,,,,,,,,,,,,,,,,,,,,,,,,,,,,609.0325,1,audio/Narrative8Situation5.wav,611.0445,,611.0447,619.2948,"[[999,1],[999,82],[999,166],[999,248],[999,333],[999,416],[999,499],[999,583],[999,666],[999,750],[999,833],[999,916],[999,999],[999,1083],[999,1165],[999,1249],[999,1333],[999,1416],[999,1499],[999,1583],[999,1666],[999,1749],[999,1832],[999,1916],[999,1999],[999,2083],[999,2166],[999,2249],[999,2333],[999,2416],[999,2499],[999,2582],[999,2666],[999,2749],[999,2833],[999,2916],[999,2999],[999,3083],[999,3166],[999,3249],[999,3333],[999,3416],[999,3499],[999,3583],[999,3665],[999,3750],[999,3833],[999,3916],[999,3999],[999,4083],[999,4166],[999,4249],[999,4333],[999,4416],[999,4499],[999,4583],[999,4666],[999,4749],[999,4833],[999,4916],[999,4998],[999,5083],[999,5166],[999,5250],[999,5333],[999,5416],[999,5499],[999,5582],[999,5666],[999,5749],[999,5833],[999,5915],[999,5999],[999,6083],[999,6166],[999,6249],[999,6333],[999,6416],[999,6499],[999,6583],[999,6666],[999,6749],[999,6833],[999,6916],[999,6999],[999,7083],[999,7166],[999,7250],[999,7333],[999,7416],[999,7499],[999,7583],[999,7666],[999,7749],[999,7833],[999,7916],[999,7999],[999,8083],[999,8166],[999,8249]]",1,0,619.295,622.7113,52.91392544,2.8215,"[{""rating"":52.913925438596486,""responseTime"":2.8215000000000146}]",space,2.8768,,622.7114,Half the time,50,622.7143,,,[],,0,14,14,14,1,audio/Narrative8Situation5.wav,audio/Narrative7Situation5.wav,audio/Narrative6Situation5.wav,audio/Narrative5Situation5.wav,2,5,2,5,,,,,,,,,,,,,,,,,,,,,,,,,,,,,,,,,,,,,,,
,,,,,,610e2de21943396ffccfcf4e,2024-02-08_16h02.13.602,group3.1-3.2-social-tom,2023.2.2,MacIntel,59.88023952,65c5074098b851296ff0b7ed,65c5413dc1f9d7dbb2684c36,,,,,,,,,,,,,,,,,,,,,,,,,,,,,622.7146,1,audio/Narrative8Situation6.wav,624.7273,,624.7273,631.1948,[],1,0,631.195,634.3777,55.29148392,2.644,"[{""rating"":55.29148391812866,""responseTime"":2.6440000000000055}]",space,2.6418,,634.3777,All the time,100,656.562,100,21.2883,"[{""rating"":99.42525584795321,""responseTime"":8.707900000095378},{""rating"":98.8546235380117,""responseTime"":19.51460000014299},{""rating"":100,""responseTime"":20.487700000047653},{""rating"":100,""responseTime"":21.288300000190702}]",space,0,15,15,15,1,audio/Narrative8Situation6.wav,audio/Narrative7Situation6.wav,audio/Narrative6Situation6.wav,audio/Narrative5Situation6.wav,2,3,2,3,,,21.6606,,,,,,,,,,,,,,,,,,,,,,,,,,,,,,,,,,,,
,,,,,,610e2de21943396ffccfcf4e,2024-02-08_16h02.13.602,group3.1-3.2-social-tom,2023.2.2,MacIntel,59.88023952,65c5074098b851296ff0b7ed,65c5413dc1f9d7dbb2684c36,,,,,,,,,,,,,,,,,,,,,,,,,,,,,656.5626,1,audio/Narrative8Situation7.wav,659.5785,,659.5786,671.6786,[],1,0,671.6789,680.7953,69.0816886,7.9541,"[{""rating"":69.08168859649123,""responseTime"":7.9540999999045425}]",space,8.579,,680.7955,All the time,100,680.7982,,,[],,0,16,16,16,1,audio/Narrative8Situation7.wav,audio/Narrative7Situation7.wav,audio/Narrative6Situation7.wav,audio/Narrative5Situation7.wav,3,5,5,4,,,,,,,,,,,,,,,,,,,,,,,,,,,,,,,,,,,,,,,
,,,,,,610e2de21943396ffccfcf4e,2024-02-08_16h02.13.602,group3.1-3.2-social-tom,2023.2.2,MacIntel,59.88023952,65c5074098b851296ff0b7ed,65c5413dc1f9d7dbb2684c36,,,,,,,,,,,,,,,,,,,,,,,,,,,,,680.7985,1,audio/Narrative8Situation8.wav,683.8121,,683.8122,696.6778,[],1,0,696.678,699.0789,11.50858918,1.4054,"[{""rating"":11.508589181286549,""responseTime"":1.405399999856968}]",space,1.8528,,699.0791,Half the time,50,699.0834,,,[],,0,17,17,17,1,audio/Narrative8Situation8.wav,audio/Narrative7Situation8.wav,audio/Narrative6Situation8.wav,audio/Narrative5Situation8.wav,3,2,5,3,,,,,,,,,,,,,,,,,,,,,,,,,,,,,,,,,,,,,,,
,,,,,,610e2de21943396ffccfcf4e,2024-02-08_16h02.13.602,group3.1-3.2-social-tom,2023.2.2,MacIntel,59.88023952,65c5074098b851296ff0b7ed,65c5413dc1f9d7dbb2684c36,,,,,,,,,,,,,,,,,,,,,,,,,,,,,699.0838,1,audio/Narrative8Situation9.wav,702.0954,,702.0956,713.4126,"[[999,0],[999,82],[999,165],[999,249],[999,333],[999,416],[999,499],[999,582],[999,665],[999,750],[999,832],[999,915],[999,998],[999,1083],[999,1166],[999,1249],[999,1332],[999,1415],[999,1499],[999,1583],[999,1666],[999,1749],[999,1833],[999,1916],[999,1999],[999,2082],[999,2166],[999,2248],[999,2332],[999,2415],[999,2500],[999,2582],[999,2666],[999,2749],[999,2832],[999,2915],[999,2999],[999,3083],[999,3166],[999,3248],[999,3333],[999,3416],[999,3499],[999,3583],[999,3666],[999,3749],[999,3833],[999,3916],[999,3999],[999,4082],[999,4166],[999,4249],[999,4332],[999,4416],[999,4498],[999,4583],[999,4666],[999,4750],[999,4833],[999,4916],[999,4999],[999,5082],[999,5166],[999,5249],[999,5332],[999,5416],[999,5498],[999,5583],[999,5666],[999,5750],[999,5833],[999,5916],[999,5998],[999,6082],[999,6166],[999,6249],[999,6333],[999,6416],[999,6499],[999,6583],[999,6666],[999,6748],[999,6832],[999,6916],[999,6998],[999,7083],[999,7165],[999,7249],[999,7333],[999,7416],[999,7498],[999,7583],[999,7665],[999,7749],[999,7832],[999,7916],[999,7999],[999,8082],[999,8166],[999,8249],[999,8333],[999,8416],[999,8499],[999,8582],[999,8666],[999,8749],[999,8833],[999,8916],[999,8999],[999,9083],[999,9166],[999,9248],[999,9332],[999,9416],[999,9499],[999,9583],[999,9666],[999,9749],[999,9833],[999,9916],[999,10000],[999,10082],[999,10165],[999,10248],[999,10332],[999,10416],[999,10498],[999,10583],[999,10666],[999,10748],[999,10833],[999,10916],[999,11000],[999,11082],[999,11166],[999,11248]]",1,0,713.4128,715.7122,6.743421053,1.4613,"[{""rating"":6.743421052631576,""responseTime"":1.4612999999523026}]",space,1.751,,715.7123,Not at all,0,715.7159,,,[],,0,18,18,18,1,audio/Narrative8Situation9.wav,audio/Narrative7Situation9.wav,audio/Narrative6Situation9.wav,audio/Narrative5Situation9.wav,3,2,4,3,,,,,,,,,,,,,,,,,,,,,,,,,,,,,,,,,,,,,,,
,,,,,,610e2de21943396ffccfcf4e,2024-02-08_16h02.13.602,group3.1-3.2-social-tom,2023.2.2,MacIntel,59.88023952,65c5074098b851296ff0b7ed,65c5413dc1f9d7dbb2684c36,,,,,,,,,,,,,,,,,,,,,,,,,,,754.8406,757.4129,757.4266,2,audio/Narrative13Situation2.wav,757.4267,,757.4267,787.1627,"[[999,0],[999,68],[999,152],[999,234],[999,332],[999,402],[999,485],[999,569],[999,652],[999,735],[999,818],[999,902],[999,985],[999,1069],[999,1152],[999,1234],[999,1319],[999,1402],[999,1485],[999,1569],[999,1652],[999,1735],[999,1819],[999,1902],[999,1985],[999,2068],[999,2152],[999,2235],[999,2319],[999,2402],[999,2485],[999,2569],[999,2652],[999,2734],[999,2819],[999,2902],[999,2985],[999,3069],[999,3152],[999,3236],[999,3319],[999,3404],[11.5,3653],[42.4,4736]]",1,0,787.163,787.1743,,,[],,,,787.1743,Half the time,50,787.1762,,,[],,0,0,0,0,1,audio/Narrative13Situation2.wav,audio/Narrative13Situation2.wav,audio/Narrative13Situation2.wav,audio/Narrative13Situation2.wav,2,2,2,2,,,,,715.7169,754.8305,space,38.586,,,,,,,,,,,,,,,,,,,,,,,,,,,,,,,
,,,,,,610e2de21943396ffccfcf4e,2024-02-08_16h02.13.602,group3.1-3.2-social-tom,2023.2.2,MacIntel,59.88023952,65c5074098b851296ff0b7ed,65c5413dc1f9d7dbb2684c36,,,,,,,,,,,,,,,,,,,,,,,,,,,,,787.1765,2,audio/Narrative5Situation1.wav,792.1798,,792.18,805.4801,"[[999,9],[999,82],[999,166],[999,249],[999,332],[999,416],[999,499],[999,582],[999,666],[999,749],[999,833],[999,916],[999,999],[999,1082],[999,1166],[999,1249],[999,1332],[999,1416],[999,1499],[999,1583],[999,1665],[999,1750],[28.1,2166],[31.2,2249],[31.2,2333],[31.2,2416],[31.2,2499],[31.2,2582],[31.2,2665],[31.2,2749],[31.2,2832],[29.5,2915],[24.7,2999],[23.2,3083],[23,3166],[23,3249],[23,3333],[23,3416],[23,3499],[23,3583],[23,3666],[23,3749],[22.8,3833],[22.5,3916],[22.2,3999],[22,4083],[21.9,4166],[25.7,4249],[31.8,4333],[33.9,4415],[34.1,4499],[35.9,4583],[37.7,4666],[37.7,4748],[37,4833],[33,4915],[28.1,4999],[26.5,5083],[25.9,5166],[25.2,5250],[25,5333],[24.7,5416],[24,5499],[22.6,5583],[22.1,5666],[27.3,5750],[33,5833],[38.4,5916],[45.6,5999],[51.2,6083],[53.1,6165],[53.8,6249],[53.8,6332],[53.7,6416],[53.6,6499],[53.4,6583],[53,6666],[52.9,6749],[52.9,6832],[52.9,6916],[51.5,6999],[51.5,7082],[51.5,7166],[98.2,7750],[100,7833],[100,7916],[100,7999],[100,8082],[100,8166],[100,8249],[100,8332],[100,8416],[100,8499],[100,8583],[100,8666],[100,8749],[100,8833],[100,8916],[100,8999],[100,9081],[100,9166],[100,9249],[100,9333],[100,9415],[100,9500],[99.7,9583],[99,9666],[98.7,9749],[98.6,9832],[98.6,9916],[98.7,9999],[98.7,10083],[98.8,10166],[98.8,10249],[98.9,10332],[98.9,10416],[98.9,10499],[98.9,10582],[98.9,10666],[98.9,10749],[98.9,10832],[98.9,10916],[98.9,11000],[98.8,11083],[99.6,11166],[100,11249],[100,11333],[100,11416],[100,11500],[100,11582],[100,11666],[100,11749],[100,11833],[100,11916],[100,11998],[100,12083],[100,12166],[100,12249],[100,12333],[100,12416],[100,12499],[100,12582],[100,12666],[100,12749],[100,12833],[100,12916],[100,12999],[100,13083],[100,13166],[100,13249]]",1,0,805.4806,817.6134,99.57465278,10.1802,"[{""rating"":99.57465277777777,""responseTime"":10.180199999809247}]",space,11.5935,,817.6135,Not at all,0,817.6174,,,[],,0,1,1,1,1,audio/Narrative7Situation1.wav,audio/Narrative8Situation1.wav,audio/Narrative5Situation1.wav,audio/Narrative6Situation1.wav,2,5,5,2,,,,,,,,,,,,,,,,,,,,,,,,,,,,,,,,,,,,,,,
,,,,,,610e2de21943396ffccfcf4e,2024-02-08_16h02.13.602,group3.1-3.2-social-tom,2023.2.2,MacIntel,59.88023952,65c5074098b851296ff0b7ed,65c5413dc1f9d7dbb2684c36,,,,,,,,,,,,,,,,,,,,,,,,,,,,,817.6178,2,audio/Narrative5Situation2.wav,820.6301,,820.6302,850.0973,"[[93.1,4666],[80.6,5416],[80.6,5499],[80.6,5583],[80.6,5667],[80.6,5749],[80.6,5833],[80.6,5916],[80.6,5999],[76.1,6083],[68.9,6166],[67.7,6249],[67.6,6333],[67.6,6416],[67.6,6500],[67.6,6583],[67.6,6666],[72.3,6750],[78.8,6833],[79.1,7000],[78.1,7082],[71.9,7166],[26.1,7749],[21.1,8166],[2.9,8666],[1.3,8750],[1.2,8833],[1.2,8916],[1.3,8999],[1.4,9082],[1.4,9166],[1.4,9249],[1.4,9333],[1.4,9416],[1.4,9500],[1.5,9583],[0.3,9665],[2.5,10333],[4.2,10416],[4.3,10499],[4,10583],[3.9,10666],[3.7,10749],[3.3,10833],[2.3,10916],[2,11000],[1.9,11083],[1.8,11166],[1.8,11249],[1.8,11333],[1.8,11416],[1.8,11500],[5.3,11583],[7,11666],[7.4,11749],[7.6,11832],[7.7,11916],[7.7,11999],[7.7,12083],[7.6,12165],[6.8,12250],[6.4,12332],[6.4,12416],[6.4,12499],[6.4,12583],[6.4,12666],[6.4,12749],[6.4,12833],[6.5,12916],[10,13000],[13.3,13083],[13.9,13165],[13.9,13249],[13.9,13333],[13.9,13416],[13.9,13499],[13.9,13583],[13.9,13666],[13.9,13749],[13.9,13832],[12.2,13916],[9.5,14000],[8.6,14082],[8.4,14166],[8.4,14249],[15.2,14333],[62.6,14916],[62,15000],[65.4,15083],[70.1,15166],[70.9,15250],[73.3,15333],[75.8,15416],[76.2,15499],[76.4,15583],[78.1,15666],[79.6,15750],[79.9,15833],[79.9,15916],[79.9,15999],[79.9,16083],[79.9,16166],[83.5,16250],[94,16333],[97,16416],[97.1,16499],[97.1,16583],[97.1,16666],[97.1,16749],[97.1,16833],[97.2,16916],[99.8,16999],[100,17083],[100,17166],[100,17250],[100,17333],[100,17416],[100,17500],[100,17583],[100,17666],[100,17749],[100,17833],[100,17916],[100,17999],[100,18083],[100,18166],[100,18249],[100,18333],[100,18416],[100,18499],[100,18583],[100,18666],[100,18750],[100,18833],[100,18916],[100,18999],[100,19083],[100,19166],[100,19249],[100,19333],[100,19416],[100,19500],[100,19583],[100,19666],[100,19749],[100,19833],[100,19916],[100,19999],[100,20083],[100,20166],[100,20249],[100,20333],[100,20416],[100,20500],[100,20583],[100,20666],[100,20749],[100,20833],[100,20916],[100,20999],[100,21083],[100,21166],[100,21250],[100,21333],[100,21416],[100,21499],[100,21583],[100,21666],[100,21749],[100,21833],[100,21916],[100,21999],[100,22083],[100,22166],[100,22249],[100,22333],[100,22416],[100,22499],[100,22583],[100,22666],[100,22749],[100,22833],[100,22916],[100,22999],[100,23083],[100,23166],[100,23250],[100,23333],[96.4,23416],[83.2,23500],[82.5,23583],[83.3,23666],[82.6,23750],[82,23833],[82.7,23916],[83.6,24000],[86.3,24083],[94.6,24165],[98.6,24250],[96.9,24332],[96.9,24416],[96.9,24500],[96.9,24583],[96.9,24666],[97.7,24750],[100,24833],[100,24916],[93.8,25000],[67.7,25083],[22.2,25583],[15.7,25666],[15.4,25749],[15.5,25833],[15.9,25916],[16.1,25999],[16.3,26083],[16.5,26166],[16.7,26250],[16.7,26332],[17,26416],[19.9,26500],[20.1,26583],[19.9,26666],[19.1,26750],[18.6,26833],[18.3,26916],[17.9,27000],[17.8,27083],[17.8,27166],[17.8,27249],[16.8,27333],[13.2,27416],[10.8,27500],[9.9,27583],[9.5,27666],[8.4,27750],[6,27832],[6,27916],[6,28000],[6,28083],[6,28166],[4.2,28250],[2.3,28333],[1.5,28416],[1,28500],[0.8,28582],[0.6,28668],[0.3,28749],[0.3,28833],[0.3,28916],[0.3,28999],[0.3,29082],[9.5,29166],[16.7,29250],[16.2,29333],[14,29416]]",1,0,850.0976,854.8472,4.471856725,2.6151,"[{""rating"":4.471856725146201,""responseTime"":2.6151000001431157}]",space,4.2008,,854.8473,Half the time,50,866.2305,50.19188596,9.3461,"[{""rating"":50.19188596491229,""responseTime"":9.34610000014311}]",space,0,2,2,2,1,audio/Narrative7Situation2.wav,audio/Narrative8Situation2.wav,audio/Narrative5Situation2.wav,audio/Narrative6Situation2.wav,3,3,3,3,,,10.8339,,,,,,,,,,,,,,,,,,,,,,,,,,,,,,,,,,,,
,,,,,,610e2de21943396ffccfcf4e,2024-02-08_16h02.13.602,group3.1-3.2-social-tom,2023.2.2,MacIntel,59.88023952,65c5074098b851296ff0b7ed,65c5413dc1f9d7dbb2684c36,,,,,,,,,,,,,,,,,,,,,,,,,,,,,866.2312,2,audio/Narrative5Situation3.wav,869.2472,,869.2473,883.1633,"[[50.3,3416],[51.4,3499],[70.5,3833],[72.3,3916],[72.2,3999],[71.3,4083],[70,4166],[68.8,4249],[66.8,4333],[64.2,4416],[63.7,4499],[63.7,4583],[63.7,4666],[63.7,4749],[63.7,4833],[63.7,4915],[63.7,4999],[63.7,5083],[63.7,5166],[63.7,5249],[63.7,5333],[63.7,5416],[63.7,5499],[63.7,5583],[63.7,5666],[63.7,5750],[63.7,5833],[63.7,5916],[63.7,5999],[63.7,6089],[63.7,6166],[63.7,6249],[63.7,6333],[63.7,6416],[63.7,6499],[63.7,6582],[63.7,6665],[63.7,6749],[63.7,6833],[64.4,6916],[66.9,6999],[68.1,7083],[68.3,7166],[65.8,7249],[63.4,7333],[62.4,7416],[61.6,7499],[60.8,7583],[60.8,7666],[60.8,7748],[60.8,7833],[60.8,7916],[60.8,7999],[58.8,8083],[57.2,8166],[56.9,8250],[56.7,8333],[56.7,8416],[56.7,8500],[56.3,8583],[56.3,8666],[56.3,8749],[56.3,8833],[56.9,8916],[59,9000],[60,9083],[65.4,9916],[65.4,9999],[66.2,10583],[64.9,10666],[64.2,10750],[63.8,10833],[63.6,10916],[62.8,10999],[58.7,11083],[54.3,11166],[50.8,11250],[49.2,11333],[48.6,11416],[46.4,11499],[41.8,11583],[38.1,11667],[37,11750],[37,11833],[37.1,11916],[37.1,12000],[37.1,12083],[40.1,12166],[45.2,12250],[45,12333],[44.2,12416],[43.8,12500],[43.3,12583],[41,12666],[36,12750],[33.6,12833],[33,12916],[32,13000],[31.1,13082],[34.6,13166],[64.9,13750],[61.4,13833],[61.4,13915]]",1,0,883.1636,886.4132,48.85827851,1.788,"[{""rating"":48.85827850877193,""responseTime"":1.788000000000011}]",space,2.7195,,886.4133,All the time,100,886.417,,,[],,0,3,3,3,1,audio/Narrative7Situation3.wav,audio/Narrative8Situation3.wav,audio/Narrative5Situation3.wav,audio/Narrative6Situation3.wav,8,4,3,5,,,,,,,,,,,,,,,,,,,,,,,,,,,,,,,,,,,,,,,
,,,,,,610e2de21943396ffccfcf4e,2024-02-08_16h02.13.602,group3.1-3.2-social-tom,2023.2.2,MacIntel,59.88023952,65c5074098b851296ff0b7ed,65c5413dc1f9d7dbb2684c36,,,,,,,,,,,,,,,,,,,,,,,,,,,,,886.4174,2,audio/Narrative5Situation4.wav,887.4306,,887.4307,910.4976,"[[51.9,4666],[53.9,4750],[54.2,4833],[54.2,4916],[53.8,5000],[53.7,5082],[53.6,5166],[53.4,5250],[53.3,5333],[53.3,5416],[53.3,5499],[54.2,5582],[55.4,5666],[56.8,5750],[57.1,5833],[57.1,5917],[57.2,6000],[57.3,6083],[57.3,6166],[57.2,6250],[56.4,6332],[56.4,6416],[56.4,6500],[56.4,6583],[57.9,6666],[61.4,6749],[62.7,6833],[64.3,6916],[66.3,7000],[68,7083],[69,7166],[69,7250],[69,7332],[69,7416],[69,7500],[69,7583],[70.4,7666],[73,7750],[73.3,7833],[73.3,7916],[73.3,8000],[73.3,8082],[73.3,8166],[73.3,8250],[73.3,8332],[73.3,8416],[73.3,8500],[73.3,8583],[73.3,8665],[73.3,8750],[73.3,8833],[73.3,8916],[73.3,9000],[73.2,9083],[73.2,9167],[73.2,9250],[73.2,9332],[73.2,9416],[73.2,9500],[73.2,9583],[73.2,9666],[73.2,9750],[73.2,9833],[73.2,9916],[74.7,10000],[75.1,10083],[75.1,10166],[75.1,10250],[75.1,10333],[75.1,10416],[75,10499],[75,10583],[74.8,10666],[74.7,10750],[74.7,10833],[74.6,10916],[74.5,11000],[74.5,11083],[74.4,11166],[74.8,11250],[76.2,11333],[77.6,11416],[78.1,11500],[78.1,11583],[78.1,11667],[78,11750],[77.9,11833],[77.7,11916],[77.2,12000],[76.6,12083],[76.2,12166],[76.2,12250],[76.2,12333],[76.2,12416],[76.2,12500],[76.2,12583],[76.2,12666],[76.2,12750],[76.2,12833],[76.2,12916],[74.3,13000],[72.9,13083],[72.2,13166],[72,13250],[72,13332],[72,13416],[72,13499],[72,13583],[71.8,13666],[71.4,13750],[70.7,13833],[70.5,13917],[70.5,14000],[70.5,14083],[70.5,14167],[70.5,14249],[70.5,14348],[70.5,14416],[70.5,14500],[70.5,14582],[70.5,14666],[70.5,14750],[70.5,14833],[70.5,14916],[70.5,15000],[70.5,15083],[70.5,15166],[70.5,15250],[70.5,15333],[70.5,15416],[70.5,15500],[70.5,15583],[70.5,15666],[70.5,15750],[70.5,15833],[70.5,15916],[70.5,16000],[70.5,16083],[70.5,16166],[70.5,16252],[70.5,16333],[70.5,16415],[70.5,16500],[70.5,16583],[70.5,16666],[70.5,16749],[70.5,22966],[70.5,23049]]",1,0,910.4979,963.0483,49.79349415,2.264,"[{""rating"":49.79349415204678,""responseTime"":2.26400000000001}]",space,52.0034,,963.0484,All the time,100,963.0614,,,[],,0,4,4,4,1,audio/Narrative7Situation4.wav,audio/Narrative8Situation4.wav,audio/Narrative5Situation4.wav,audio/Narrative6Situation4.wav,3,3,1,2,,,,,,,,,,,,,,,,,,,,,,,,,,,,,,,,,,,,,,,
,,,,,,610e2de21943396ffccfcf4e,2024-02-08_16h02.13.602,group3.1-3.2-social-tom,2023.2.2,MacIntel,59.88023952,65c5074098b851296ff0b7ed,65c5413dc1f9d7dbb2684c36,,,,,,,,,,,,,,,,,,,,,,,,,,,,,963.0616,2,audio/Narrative5Situation5.wav,968.0649,,968.065,983.4985,"[[999,9],[999,82],[999,166],[999,249],[999,332],[999,416],[999,499],[999,582],[999,666],[999,749],[999,832],[999,915],[999,999],[999,1082],[999,1166],[999,1249],[999,1332],[999,1415],[999,1499],[999,1583],[999,1666],[999,1749],[999,1833],[999,1915],[999,1999],[999,2083],[33.4,2167],[30,2250],[28.8,2333],[28.6,2416],[28.6,2499],[28.6,2583],[28.6,2666],[28.6,2749],[28.6,2832],[28.6,2916],[28,3000],[27.3,3083],[26.9,3166],[26.6,3250],[26.3,3333],[30,3416],[30.9,3500],[31,3584],[30.8,3666],[30.1,3750],[29,3833],[29,3916],[29,3999],[66.2,4083],[99.2,4833],[100,4916],[100,4999],[100,5083],[100,5166],[100,5249],[100,5332],[100,5416],[100,5500],[100,5583],[100,5666],[100,5749],[100,5833],[100,5916],[100,5999],[100,6082],[100,6166],[100,6250],[99.7,6332],[97.2,6416],[96.5,6500],[96,6583],[95.7,6666],[95.1,6749],[94.4,6833],[94.3,6916],[94.2,6999],[94.2,7083],[94.2,7166],[94.2,7249],[94.2,7332],[94.2,7416],[94.2,7499],[94.2,7582],[94.2,7666],[94.2,7749],[94.2,7833],[94.2,7916],[94.2,7999],[94.2,8083],[94.2,8166],[94.2,8249],[94.2,8333],[94.2,8416],[94.1,8499],[91.5,8583],[85.6,8666],[85.6,8749],[85.6,8833],[85.6,8916],[82.9,9000],[75.8,9083],[65.2,9166],[65.2,9249],[65.2,9333],[65.2,9415],[65.2,9499],[64.7,9583],[64.4,9666],[66.7,9750],[66.3,9833],[47.2,9916],[35.6,10000],[35.6,10083],[35.6,10166],[35.6,10249],[34.8,10332],[20.2,10833],[18.6,10916],[17.1,11000],[16.4,11083],[16.4,11166],[16.4,11249],[16.4,11333],[16.5,11416],[16.2,11500],[15.3,11583],[14.5,11666],[12.6,11749],[12.6,11833],[12.6,11916],[12.6,12000],[12.6,12083],[11.9,12166],[10.7,12250],[9.4,12333],[9.4,12416],[9.4,12499],[9.4,12583],[9.4,12666],[9.4,12749],[9.4,12833],[9.4,12916],[9.4,12999],[13.9,13083],[34.7,13166],[40.3,13249],[40.3,13333],[40.3,13416],[43,13500],[75.9,14000],[75.7,14083],[76.6,14166],[76.9,14250],[66.9,14333],[56.1,14416],[60.6,14499],[70.3,14583],[74.3,14666],[75.4,14750],[75.4,14833],[75.4,14916],[75.4,14999],[79.3,15083],[99.4,15167],[100,15249],[100,15333],[100,15416]]",1,0,983.4987,985.0313,99.26900585,0.7738,"[{""rating"":99.26900584795322,""responseTime"":0.7738000001907039}]",space,0.9866,,985.0314,All the time,100,985.0338,,,[],,0,5,5,5,1,audio/Narrative7Situation5.wav,audio/Narrative8Situation5.wav,audio/Narrative5Situation5.wav,audio/Narrative6Situation5.wav,5,2,5,2,,,,,,,,,,,,,,,,,,,,,,,,,,,,,,,,,,,,,,,
,,,,,,610e2de21943396ffccfcf4e,2024-02-08_16h02.13.602,group3.1-3.2-social-tom,2023.2.2,MacIntel,59.88023952,65c5074098b851296ff0b7ed,65c5413dc1f9d7dbb2684c36,,,,,,,,,,,,,,,,,,,,,,,,,,,,,985.0342,2,audio/Narrative5Situation6.wav,988.0485,,988.0486,993.7321,"[[999,9],[999,82],[999,166],[999,249],[999,332],[999,416],[999,500],[999,582],[999,665],[999,749],[999,832],[999,915],[999,999],[999,1083],[999,1166],[999,1249],[999,1333],[999,1416],[999,1499],[999,1582],[999,1666],[999,1749],[999,1832],[999,1916],[999,1999],[999,2083],[999,2165],[999,2249],[999,2332],[999,2416],[999,2499],[999,2582],[999,2666],[999,2749],[999,2832],[999,2916],[999,2999],[999,3083],[999,3166],[999,3249],[999,3333],[999,3416],[999,3499],[67.3,3583],[67.2,3666],[67.6,3749],[67.7,3833],[67.7,3916],[67.7,3999],[67.7,4083],[67.4,4166],[67.2,4249],[67.2,4332],[67.2,4415],[67.2,4499],[67.2,4582],[67.2,4666],[67.2,4749],[66.1,4833],[63.8,4916],[56.2,4999],[46.6,5083],[45.6,5166],[46.3,5249],[46.3,5332],[42.6,5416],[29.4,5499],[23.3,5583],[20.2,5666]]",1,0,993.7322,997.2819,0.976790936,2.9132,"[{""rating"":0.9767909356725168,""responseTime"":2.913200000047709}]",space,3.003,,997.2819,All the time,100,997.285,,,[],,0,6,6,6,1,audio/Narrative7Situation6.wav,audio/Narrative8Situation6.wav,audio/Narrative5Situation6.wav,audio/Narrative6Situation6.wav,3,2,3,2,,,,,,,,,,,,,,,,,,,,,,,,,,,,,,,,,,,,,,,
,,,,,,610e2de21943396ffccfcf4e,2024-02-08_16h02.13.602,group3.1-3.2-social-tom,2023.2.2,MacIntel,59.88023952,65c5074098b851296ff0b7ed,65c5413dc1f9d7dbb2684c36,,,,,,,,,,,,,,,,,,,,,,,,,,,,,997.2855,2,audio/Narrative5Situation7.wav,1001.2982,,1001.2983,1022.3489,"[[5.1,83],[5.1,166],[5.1,250],[5.1,333],[5.1,416],[5.1,499],[5.1,583],[6.1,666],[7.9,750],[8.2,833],[8.3,916],[8.3,999],[8.3,1083],[9.1,1167],[9.2,1250],[9.2,1333],[9.3,1417],[8.3,1500],[9,1583],[9.5,1667],[9.5,1750],[9.5,1833],[9.5,1916],[9.7,2000],[9.7,2083],[9.1,2166],[9.1,2250],[9.1,2333],[9.1,2416],[9.1,2500],[9.1,2583],[10.3,2667],[23.8,2750],[38.3,2833],[40.7,2917],[41,2999],[39.9,3083],[39.6,3166],[39.6,3250],[39.6,3333],[39.6,3416],[37.7,3500],[30.6,3583],[26.7,3667],[25.3,3750],[24.9,3833],[24.3,3917],[24.3,4000],[24.2,4083],[25.2,4167],[31.3,4250],[35.6,4333],[35.9,4417],[35.9,4499],[35.5,4583],[37.4,4667],[48.4,4750],[53.2,4833],[54.2,4917],[54.4,5000],[54.7,5083],[63.1,5167],[78.4,5250],[80,5333],[64.1,5417],[48.5,5500],[46.1,5583],[41.6,5667],[35.5,5750],[31.4,5833],[30.4,5915],[30.3,5999],[30.3,6083],[30.4,6167],[30.5,6250],[30.5,6332],[30.5,6417],[30.5,6500],[30.5,6583],[25.3,6667],[20.7,6750],[18.3,6833],[17.5,6917],[16.7,6999],[16.7,7083],[16.7,7166],[16.7,7250],[16.7,7333],[16.7,7416],[16.7,7500],[16.7,7583],[15.8,7666],[8.4,8500],[8.2,8583],[8.1,8667],[8.1,8750],[8.1,8833],[7.9,8916],[7.9,9000],[7.9,9083],[7.9,9167],[7.9,9250],[7.9,9333],[7.9,9416],[7.9,9500],[7.9,9583],[7.9,9666],[7.8,9750],[6.2,9833],[4.8,9917],[4.8,9999],[4.8,10083],[4.8,10166],[4.8,10250],[4.8,10333],[4.7,10417],[3.3,10500],[2.1,10583],[1.3,10666],[1.4,10750],[1.4,10833],[1.7,10917],[5.5,11000],[8.1,11083],[8.5,11167],[8.6,11250],[8.6,11333],[8.6,11416],[8.6,11500],[8.6,11583],[8.6,11667],[8.6,11750],[8,11833],[6.1,11917],[4.9,12000],[4.2,12082],[3.9,12166],[3.7,12250],[3.7,12333],[3.6,12417],[3.6,12500],[3.5,12583],[3.3,12667],[3.3,12750],[3.3,12832],[3.3,12916],[4.2,13000],[18.1,13083],[21.7,13166],[21.9,13249],[20.8,13333],[20.1,13416],[20.1,13500],[19.6,13583],[18.7,13666],[18.4,13750],[17.9,13833],[17,13917],[16.2,14000],[15.7,14083],[15.4,14166],[14.9,14250],[15,14333],[15.6,14417],[15.6,14500],[15.6,14583],[17.2,14666],[18,14750],[18,14833],[18,14916],[17.4,15000],[13.8,15083],[12.2,15167],[11.6,15250],[11.6,15333],[11.6,15417],[11.6,15500],[11.6,15583],[9.9,15667],[6.7,15750],[6,15833],[5.8,15917],[5.5,16000],[5.5,16083],[5.5,16166],[5.5,16250],[5.5,16333],[5.5,16417],[5.5,16500],[5.5,16583],[5.5,16667],[5.5,16750],[5.5,16833],[5.5,16917],[5.5,17000],[5.5,17083],[5.5,17167],[5.5,17250],[5.5,17333],[6.9,17417],[12.2,17500],[12.4,17583],[11.9,17667],[11.7,17750],[11.3,17833],[10.7,17917],[10.2,18000],[9.8,18083],[9.7,18167],[9.6,18250],[9.5,18333],[10.3,18417],[11.7,18500],[12.2,18583],[12.2,18667],[12.5,18750],[12.6,18833],[12.6,18917],[12.1,18999],[11.9,19083],[11.7,19167],[11.4,19250],[10.9,19333],[10.7,19417],[10.7,19499],[10.7,19583],[10.7,19666],[10.7,19750],[11.7,19833],[24.7,19917],[29.7,20000],[29.9,20083],[29.4,20166],[29.1,20250],[29,20333],[29,20417],[29,20500],[29,20583],[29,20667],[29,20750],[29.1,20833],[29,20916],[28.3,20999]]",1,0,1022.3492,1029.8656,32.54111842,1.0817,"[{""rating"":32.54111842105263,""responseTime"":1.0817000000477037}]",space,6.9677,,1029.8657,All the time,100,1029.8774,,,[],,0,7,7,7,1,audio/Narrative7Situation7.wav,audio/Narrative8Situation7.wav,audio/Narrative5Situation7.wav,audio/Narrative6Situation7.wav,5,3,4,5,,,,,,,,,,,,,,,,,,,,,,,,,,,,,,,,,,,,,,,
,,,,,,610e2de21943396ffccfcf4e,2024-02-08_16h02.13.602,group3.1-3.2-social-tom,2023.2.2,MacIntel,59.88023952,65c5074098b851296ff0b7ed,65c5413dc1f9d7dbb2684c36,,,,,,,,,,,,,,,,,,,,,,,,,,,,,1029.8775,2,audio/Narrative5Situation8.wav,1032.8822,,1032.8823,1041.7159,"[[28.2,1583],[25.5,1666],[24.9,1750],[24.6,1833],[24.5,1916],[27.1,2000],[27.9,2083],[27.3,2165],[27.3,2248],[27.3,2333],[27.3,2416],[27.3,2499],[27.3,2582],[27.3,2665],[27.3,2749],[27.3,2833],[27.3,2915],[27.3,2999],[27.3,3083],[42.1,3166],[47.8,3249],[48,3333],[47.9,3416],[47.4,3500],[47.4,3583],[47.4,3666],[47.4,3749],[47.4,3833],[48.2,3916],[53.5,3999],[54.6,4083],[54.6,4166],[54.6,4250],[54.6,4332],[54.6,4416],[54.6,4499],[54.6,4583],[54.6,4666],[54.6,4749],[54.6,4833],[54.6,4916],[54.6,4999],[54.6,5082],[54.6,5166],[54.6,5249],[54.6,5333],[54.6,5416],[54.6,5499],[54.6,5582],[56,5666],[76.4,5749],[81.2,6500],[80,6582],[79.2,6666],[78.9,6749],[78.8,6833],[78.8,6915],[78.8,6998],[78.8,7082],[78.8,7166],[78.8,7250],[78.8,7332],[78.8,7415],[78.8,7499],[78.8,7583],[78.8,7665],[78.8,7749],[78.8,7833],[78.8,7915],[78.8,7999],[78.8,8083],[78.8,8166],[78.8,8249],[78.8,8333],[78.8,8416],[78.8,8500],[78.8,8582],[78.8,8666],[78.8,8748],[78.7,8833]]",1,0,1041.7161,1054.499,70.74698465,12.3637,"[{""rating"":53.56633771929824,""responseTime"":10.661799999952336},{""rating"":70.74698464912281,""responseTime"":12.363699999809342}]",space,12.2322,,1054.4991,All the time,100,1054.5017,,,[],,0,8,8,8,1,audio/Narrative7Situation8.wav,audio/Narrative8Situation8.wav,audio/Narrative5Situation8.wav,audio/Narrative6Situation8.wav,2,3,3,5,,,,,,,,,,,,,,,,,,,,,,,,,,,,,,,,,,,,,,,
,,,,,,610e2de21943396ffccfcf4e,2024-02-08_16h02.13.602,group3.1-3.2-social-tom,2023.2.2,MacIntel,59.88023952,65c5074098b851296ff0b7ed,65c5413dc1f9d7dbb2684c36,,,,,,,,,,,,,,,,,,,,,,,,,,,,,1054.502,2,audio/Narrative5Situation9.wav,1057.5157,,1057.5157,1097.0664,"[[51.8,83],[44,1000],[46.2,1083],[48.4,1166],[50.7,1250],[53,1332],[52.6,1415],[51.9,1500],[51.7,1583],[52.5,1666],[56.5,1750],[57.8,1833],[57.9,1916],[56.4,1999],[56.4,2083],[56.4,2166],[56.4,2248],[56.4,2333],[56.4,2416],[56.4,2498],[57.4,2583],[59.7,2665],[60.5,2749],[60.6,2833],[60.4,2915],[59.8,2999],[60.1,3083],[59.9,3165],[58.2,3249],[56.2,3335],[54.8,3416],[54.8,3498],[54.8,3582],[54.8,3666],[54.8,3750],[54.8,3832],[54.8,3916],[54.8,3998],[54.8,4083],[54.8,4165],[54.8,4250],[54.8,4333],[54.8,4416],[54.2,4500],[53,4583],[52.2,4666],[52.1,4750],[52.2,4833],[53.8,4916],[56.5,5000],[57.5,5083],[57.7,5166],[57.6,5250],[57.4,5333],[57.4,5416],[57.4,5500],[57.1,5583],[57,5666],[56.7,5750],[50.5,5833],[45.3,5916],[45.3,5998],[45.3,6083],[45.3,6165],[39.1,6249],[25.5,6333],[21.2,6416],[21.2,6498],[21.2,6583],[21.2,6666],[21.2,6750],[19.8,6833],[17.5,6916],[17,7000],[16.9,7083],[16.9,7166],[16.9,7250],[16.9,7332],[16.9,7416],[16.9,7500],[16.9,7582],[16.9,7666],[16.9,7750],[16.9,7833],[16.9,7916],[16.9,8000],[16.9,8082],[16.9,8165],[16.9,8250],[16.9,8332],[16.9,8416],[16.9,8500],[16.9,8582],[16.9,8666],[16.9,8748],[16.9,8833],[16.9,8916],[16.9,9000],[16.9,9083],[16.9,9165],[16.9,9250],[16.9,9332],[16.9,9416],[16.9,9500],[16.9,9583],[16.9,9666],[16.9,9749],[16.9,9833],[16.9,9916],[16.9,9999],[16.9,10082],[16.9,10166],[16.9,10249],[16.9,10333],[16.9,10416],[16.9,10500],[16.9,10583],[16.9,10666],[16.9,10750],[16.9,10832],[16.9,10916],[16.9,10999],[16.9,11083],[16.9,11166],[16.9,11250],[16.9,11332],[16.9,11416],[16.9,11500],[16.9,11583],[16.9,11666],[16.9,11750],[16.9,11832],[16.9,11915],[16.9,11999],[16.9,12083],[16.9,12166],[16.9,12250],[16.9,12333],[16.9,12416],[16.9,12499],[16.9,12583],[16.9,12666],[16.9,12750],[16.9,12833],[16.9,12915],[16.9,13000],[16.9,13083],[16.9,13166],[16.9,13250],[16.9,13333],[16.9,13416],[16.9,13500],[16.9,13583],[16.9,13666],[16.9,13750],[16.9,13833],[15.8,13916],[12.3,14000],[11.4,14083],[10.7,14166],[10.5,14250],[10.5,14333],[10.5,14416],[10.5,14500],[10.5,14583],[10.4,14665],[10.4,14750],[10.4,14833],[10.4,14916],[10.4,14999],[10.4,15082],[10.4,15166],[10.4,15249],[10.5,15332],[13.4,15416],[14,15500],[14.2,15583],[14,15666],[14,15750],[14,15833],[14.4,15917],[22.7,16000],[27,16666],[29.5,16750],[29.7,16832],[29.7,16916],[29.9,17000],[29.9,17083],[29.9,17165],[33,17250],[37.1,17333],[37.9,17416],[37.4,17500],[37.4,17583],[37.4,17666],[47.2,17749],[59.7,18166],[58.5,18250],[58,18333],[58.5,18416],[63.5,18499],[64.9,18582],[64.9,18665],[64.9,18750],[64.9,18833],[67.3,18916],[75.6,19000],[77.1,19082],[77.2,19166],[77.2,19249],[77.2,19333],[77.2,19416],[77.2,19499],[77.2,19583],[76.2,19666],[75.6,19750],[75.6,19832],[75.6,19915],[75.6,20000],[75.6,20083],[75.6,20166],[75.6,20250],[75.6,20333],[75.6,20417],[75.1,20499],[74.7,20583],[74.4,20667],[74.2,20749],[74.1,20833],[74.1,20917],[74.1,21000],[74.1,21083],[74,21166],[74,21249],[74,21333],[74,21416],[76.3,21500],[77.6,21583],[77.7,21666],[77.8,21750],[77.9,21833],[77.9,21916],[77.9,22000],[77.9,22083],[77.9,22165],[77.9,22250],[77.9,22333],[77.9,22416],[77.9,22500],[77.9,22583],[77.9,22666],[77.9,22749],[77.9,22832],[77.9,22916],[77.9,23000],[77.9,23083],[77.9,23166],[77.9,23250],[77.9,23333],[77.9,23416],[77.9,23499],[77.9,23583],[77.9,23667],[77.8,23750],[77.8,23832],[77.8,23917],[77.8,24000],[77.8,24082],[77.8,24166],[77.8,24250],[77.8,24333],[77.8,24417],[77.8,24500],[77.8,24583],[77.8,24666],[77.7,24750],[76.6,24832],[76.6,24916],[76.6,25000],[76.6,25083],[76.6,25166],[76.6,25250],[76.6,25333],[76.6,25415],[76.6,25500],[76.6,25582],[76.6,25666],[76.6,25749],[76.6,25832],[76.6,25915],[76.6,25999],[76.6,26082],[76.6,26165],[76.6,26250],[76.6,26333],[76.6,26416],[76.6,26500],[76.6,26583],[76.6,26665],[76.6,26750],[76.6,26833],[76.6,26916],[76.6,27000],[76.6,27083],[76.6,27166],[76.6,27250],[76.6,27332],[76.6,27416],[76.6,27500],[76.6,27583],[75.4,27667],[74.1,27750],[73.2,27833],[72.7,27916],[72.5,28000],[72.4,28083],[72.2,28167],[69.9,28250],[66.3,28333],[65.7,28416],[65.7,28499],[65.7,28583],[65.7,28666],[65.7,28750],[64.9,28833],[60.3,28917],[57.3,29000],[56.4,29082],[56.4,29166],[56.4,29250],[55.4,29333],[42.2,29416],[35.7,29500],[20.1,30583],[18.9,30667],[18,30749],[16.6,30833],[16.1,30916],[16.1,31000],[16.1,31082],[16.1,31166],[15.3,31250],[13.4,31333],[12.4,31417],[12.2,31500],[12.2,31583],[12.1,31667],[12,31750],[12,31833],[11.9,31917],[11.9,31999],[11.8,32082],[11.8,32167],[11.7,32250],[11.7,32332],[11.7,32416],[11.7,32500],[11.6,32583],[11.6,32666],[11.5,32750],[11.4,32832],[11.4,32916],[11.6,33000],[11.7,33083],[11.7,33167],[11.7,33249],[11.7,33333],[11.7,33416],[11.7,33500],[11.7,33583],[11.7,33667],[11.7,33749],[11.7,33833],[11.7,33916],[11.7,33999],[11.7,34083],[11.7,34166],[11.7,34249],[11.7,34333],[11.7,34416],[11.7,34500],[11.7,34582],[11.7,34667],[11.7,34750],[11.7,34833],[11.7,34917],[11.7,35000],[11.7,35082],[11.7,35166],[11.7,35250],[11.7,35333],[11.7,35417],[11.7,35500],[11.7,35583],[11.7,35666],[11.5,35750],[11.6,35833],[11.6,35915],[11.6,36000],[11.6,36083],[11.6,36166],[11.6,36250],[11.6,36333],[11.6,36417],[11.6,36500],[11.6,36583],[11.6,36666],[11.6,36750],[11.6,36832],[11.6,36916],[11.6,37000],[11.6,37083],[11.6,37167],[11.6,37250],[11.6,37333],[11.6,37415],[11.6,37499],[11.6,37582],[11.6,37666],[11.6,37750],[11.6,37833],[11.6,37915],[11.6,38000],[11.6,38083],[11.6,38167],[11.6,38250],[11.6,38333],[11.6,38415],[11.6,38500],[11.6,38583],[11.6,38667],[11.6,38750],[11.6,38833],[11.6,38916],[11.6,39000],[11.6,39083],[11.6,39167],[11.6,39250],[11.6,39333],[11.6,39417],[11.6,39500]]",1,0,1097.0668,1099.0998,11.0380117,1.3611,"[{""rating"":11.03801169590643,""responseTime"":1.3611000001430966}]",space,1.4877,,1099.0999,All the time,100,1099.1024,,,[],,0,9,9,9,1,audio/Narrative7Situation9.wav,audio/Narrative8Situation9.wav,audio/Narrative5Situation9.wav,audio/Narrative6Situation9.wav,2,3,3,4,,,,,,,,,,,,,,,,,,,,,,,,,,,,,,,,,,,,,,,
,,,,,,610e2de21943396ffccfcf4e,2024-02-08_16h02.13.602,group3.1-3.2-social-tom,2023.2.2,MacIntel,59.88023952,65c5074098b851296ff0b7ed,65c5413dc1f9d7dbb2684c36,,,,,,,,,,,,,,,,,,,,,,,,,,,,,1099.1029,2,audio/Narrative6Situation1.wav,1101.1163,,1101.1163,1127.6995,"[[16.3,20083],[17.6,20165],[17.6,20249],[17.6,20333],[17.6,20416],[17.6,20500],[17.6,20583],[17.6,20666],[17.6,20749],[17.6,20833],[17.6,20916],[17.6,21000],[17.6,21083],[17.6,21166],[17.6,21250],[17.6,21333],[17.6,21416],[17.6,21500],[17.6,21583],[17.6,21666],[17.6,21750],[17.6,21833],[17.6,21915],[17.6,22000],[17.6,22083],[17.6,22166],[17.6,22250],[17.6,22333],[17.6,22416],[17.6,22500],[17.6,22583],[17.6,22666],[17.6,22749],[17.6,22833],[17.6,22916],[17.6,22999],[17.6,23083],[17.6,23166],[17.6,23250],[17.6,23333],[17.6,23416],[17.6,23500],[17.6,23582],[17.6,23666],[17.6,23750],[17.6,23833],[17.6,23916],[17.6,23999],[17.6,24083],[17.6,24166],[17.6,24250],[17.6,24333],[17.6,24415],[17.6,24500],[17.6,24583],[17.6,24666],[17.6,24750],[17.6,24832],[17.6,24915],[17.6,25000],[17.6,25083],[17.6,25166],[17.6,25249],[17.6,25333],[17.6,25416],[17.6,25500],[17.6,25583],[17.6,25666],[17.6,25750],[17.6,25833],[17.6,25916],[17.6,26000],[17.6,26082],[17.6,26166],[17.6,26249],[17.6,26333],[17.6,26416],[17.6,26500],[17.6,26583]]",1,0,1127.6996,1129.7,18.17799708,1.3972,"[{""rating"":18.177997076023395,""responseTime"":1.3971999998093452}]",space,1.469,,1129.7,Half the time,50,1129.7038,,,[],,0,10,10,10,1,audio/Narrative8Situation1.wav,audio/Narrative7Situation1.wav,audio/Narrative6Situation1.wav,audio/Narrative5Situation1.wav,5,2,2,5,,,,,,,,,,,,,,,,,,,,,,,,,,,,,,,,,,,,,,,
,,,,,,610e2de21943396ffccfcf4e,2024-02-08_16h02.13.602,group3.1-3.2-social-tom,2023.2.2,MacIntel,59.88023952,65c5074098b851296ff0b7ed,65c5413dc1f9d7dbb2684c36,,,,,,,,,,,,,,,,,,,,,,,,,,,,,1129.7041,2,audio/Narrative6Situation2.wav,1132.7167,,1132.7167,1161.2339,"[[18.4,4166],[18.5,4249],[18.5,4333],[18.8,4416],[19,4499],[19,4583],[19,4666],[19,4749],[19,4833],[19,4916],[19,4999],[19,5083],[19,5166],[19,5249],[19,5332],[19,5416],[19,5499],[19,5583],[19,5666],[19,5749],[19,5833],[18.8,5916],[20.2,6000],[21.9,6082],[22.2,6166],[22.3,6249],[22.3,6333],[22.3,6416],[22.3,6499],[22.3,6583],[22.3,6666],[21.7,6749],[21,6833],[20.7,6916],[20.6,7000],[20.5,7083],[20.4,7166],[20.4,7249],[20.3,7333],[20.3,7415],[20.3,7499],[20.3,7584],[20.3,7666],[20.3,7750],[20.3,7833],[20.3,7916],[20.3,8000],[20.3,8083],[20.3,8166],[20.3,8249],[20.3,8332],[20.3,8416],[20.3,8498],[20.3,8583],[20.3,8665],[20.3,8748],[20.3,8833],[20.3,8916],[20.3,8999],[20.3,9083],[20.3,9166],[20.3,9249],[20.3,9333],[20.3,9416],[20.3,9499],[20.3,9583],[20.3,9666],[20.3,9750],[20.3,9833],[20.3,9916],[20.3,9999],[20.3,10083],[20.3,10166],[20.3,10249],[20.3,10333],[20.3,10415],[20.3,10499],[20.3,10583],[20.3,10666],[20.3,10749],[20.3,10833],[20.3,10916],[20.3,11000],[20.3,11083],[20.3,11166],[20.3,11249],[20.3,11333],[20.3,11415],[20.3,11500],[20.3,11583],[20.3,11666],[20.3,11749],[20.3,11832],[20.3,11916],[20.3,11999],[20.3,12083],[20.3,12166],[20.3,12249],[20.3,12333],[20.3,12416],[20.3,12499],[20.3,12583],[20.3,12665],[20.3,12750],[20.3,12833],[20.3,12916],[20.3,13000],[20.3,13082],[20.3,13166],[20.3,13250],[20.3,13333],[20.3,13416],[20.3,13500],[20.3,13583],[20.3,13666],[20.3,13749],[20.3,13833],[20.3,13916],[20.3,14000],[20.3,14082],[20.3,14166],[20.3,14249],[20.3,14333],[20.3,14416],[20.3,14500],[20.3,14583],[20.3,14666],[20.3,14750],[20.3,14833],[20.3,14915],[20.3,15000],[20.3,15083],[20.3,15166],[20.3,15249],[20.3,15332],[20.3,15416],[20.3,15500],[20.3,15583],[20.3,15666],[20.3,15750],[20.3,15832],[20.3,15916],[20.3,16000],[20.3,16083],[20.3,16166],[20.3,16250],[20.3,16332],[20.3,16416],[20.3,16500],[20.3,16583],[20.3,16666],[20.3,16750],[20.3,16833],[20.3,16916],[20.3,17000],[20.3,17083],[20.3,17166],[20.3,17250],[20.3,17333],[20.3,17416],[20.3,17500],[20.3,17583],[20.3,17666],[20.3,17750],[20.3,17833],[20.3,17916],[20.3,17999],[20.3,18083],[20.3,18166],[20.3,18248],[20.3,18333],[20.3,18415],[20.3,18499],[22.8,18583],[26,18665],[26.5,18750],[26.5,18833],[26.5,18916],[28.6,19000],[46.9,19083],[50.5,19166],[50.5,19250],[51.9,19333],[55.1,19416],[56.7,19500],[57.3,19583],[57.3,19666],[57.3,19749],[57.3,19832],[57.3,19916],[57.3,20000],[57.3,20083],[57.3,20166],[57.3,20249],[57.3,20333],[57.3,20415],[57.3,20500],[57.3,20583],[57.3,20666],[57.3,20750],[57.3,20832],[57.3,20916],[57.8,21000],[59.1,21082],[60.5,21166],[60.7,21249],[60.7,21333],[60.5,21415],[60.2,21499],[60.2,21583],[60.2,21666],[60.2,21750],[61.5,21833],[62.5,21916],[58.7,21999],[52.2,22083],[51.2,22167],[51.1,22250],[51.2,22333],[51.4,22416],[51.5,22500],[51.5,22583],[52.9,22666],[53.8,22750],[54,22833],[54,22916],[54,23000],[54,23083],[54,23166],[54.6,23250],[55.6,23333],[56,23416],[56,23499],[56,23583],[56.2,23666],[57.3,23750],[57.6,23833],[57.6,23916],[57.5,24000],[57.4,24082],[57.4,24166],[57.3,24250],[57.2,24333],[56.8,24416],[56.8,24500],[56.8,24583],[56.8,24666],[56.8,24750],[56.8,24833],[56.8,24916],[56.8,24999],[56.8,25083],[56.8,25166],[56.8,25250],[56.8,25333],[56.8,25416],[56.8,25498],[56.8,25582],[56.8,25666],[56.8,25749],[56.8,25833],[56.8,25916],[56.8,26000],[56.8,26083],[56.8,26166],[56.8,26250],[56.8,26333],[55.3,26416],[52.2,26499],[51.1,26583],[50.4,26666],[48.7,26749],[45.1,26833],[42.4,26916],[41.1,27000],[41.1,27083],[41.1,27166],[41.1,27250],[41.1,27333],[41.1,27416],[41.1,27500],[41.1,27583],[41.1,27666],[41.1,27750],[41.1,27833],[41.1,27916],[41.1,28000],[41.1,28083],[41.3,28166],[41.6,28250],[41.6,28332],[41.6,28416],[41.6,28500]]",1,0,1161.2342,1163.2169,41.9627193,0.6138,"[{""rating"":41.96271929824562,""responseTime"":0.6137999999523345}]",space,1.4348,,1163.217,Not at all,0,1163.2209,,,[],,0,11,11,11,1,audio/Narrative8Situation2.wav,audio/Narrative7Situation2.wav,audio/Narrative6Situation2.wav,audio/Narrative5Situation2.wav,3,3,3,3,,,,,,,,,,,,,,,,,,,,,,,,,,,,,,,,,,,,,,,
,,,,,,610e2de21943396ffccfcf4e,2024-02-08_16h02.13.602,group3.1-3.2-social-tom,2023.2.2,MacIntel,59.88023952,65c5074098b851296ff0b7ed,65c5413dc1f9d7dbb2684c36,,,,,,,,,,,,,,,,,,,,,,,,,,,,,1163.2213,2,audio/Narrative6Situation3.wav,1168.2337,,1168.2338,1180.8507,"[[41.8,1333],[41.9,1416],[42.3,1499],[42.6,1583],[42.8,1666],[41.9,1749],[41.9,1832],[41.9,1916],[41.9,1999],[41.9,2083],[41.9,2166],[41.9,2249],[41.9,2333],[41.9,2415],[41.9,2499],[41.9,2583],[41.9,2666],[41.9,2749],[41.9,2833],[41.9,2916],[41.9,2998],[41.9,3082],[41.9,3166],[41.9,3249],[41.9,3333],[41.9,3416],[41.9,3500],[41.9,3583],[41.9,3666],[41.9,3749],[41.9,3833],[41.9,3916],[43.2,4000],[54.1,4083],[63.8,4166],[69.3,4250],[72,4333],[72.1,4416],[72.1,4498],[72.1,4582],[72.2,4666],[78.9,4750],[83.5,4832],[83.5,4916],[83.5,4999],[83.5,5082],[83.5,5166],[83.5,5249],[83.5,5333],[83.5,5416],[83.5,5499],[83.5,5583],[83.5,5666],[83.5,5749],[83.5,5833],[83.5,5916],[83.5,5999],[83.5,6082],[83.5,6165],[83.5,6249],[83.5,6333],[83.5,6416],[83.5,6499],[83.5,6583],[83.5,6666],[83.5,6750],[83.5,6833],[83.5,6916],[83.5,6999],[83.5,7083],[83.5,7166],[83.5,7249],[83.5,7333],[83.5,7416],[83.5,7499],[83.5,7583],[83.5,7666],[83.5,7749],[83.5,7833],[83.5,7916],[83.5,7999],[83.5,8083],[83.5,8166],[83.5,8249],[83.5,8333],[83.5,8415],[83.5,8499],[83.5,8583],[83.5,8666],[83.5,8749],[83.5,8833],[83.5,8915],[83.5,8999],[83.5,9083],[83.5,9166],[83.4,9250],[83.4,9333],[83.4,9416],[83.4,9499],[83.4,9583],[83.4,9666],[83.2,9750],[83,9833],[82.8,9916],[81.7,9999],[80.3,10083],[79.6,10166],[79.2,10250],[78.6,10332],[78,10416],[77.5,10499],[77.1,10583],[76.9,10666],[76.8,10749],[76.8,10833],[76.7,10916],[76.7,11000],[76.7,11083],[76.7,11165],[76.7,11250],[76.7,11333],[76.6,11416],[76.6,11499],[76.5,11582],[76.5,11666],[76.5,11750],[76.5,11833],[76.5,11916],[76.5,12000],[76.5,12083],[76.5,12166],[76.5,12249],[76.5,12333],[76.5,12416],[76.5,12500],[76.5,12583]]",1,0,1180.8509,1185.3164,76.65798611,0.6194,"[{""rating"":76.65798611111111,""responseTime"":0.619400000095311}]",space,3.919,,1185.3164,Half the time,50,1185.3285,,,[],,0,12,12,12,1,audio/Narrative8Situation3.wav,audio/Narrative7Situation3.wav,audio/Narrative6Situation3.wav,audio/Narrative5Situation3.wav,4,8,5,3,,,,,,,,,,,,,,,,,,,,,,,,,,,,,,,,,,,,,,,
,,,,,,610e2de21943396ffccfcf4e,2024-02-08_16h02.13.602,group3.1-3.2-social-tom,2023.2.2,MacIntel,59.88023952,65c5074098b851296ff0b7ed,65c5413dc1f9d7dbb2684c36,,,,,,,,,,,,,,,,,,,,,,,,,,,,,1185.3288,2,audio/Narrative6Situation4.wav,1187.3338,,1187.3338,1199.9507,"[[76.4,1499],[75.6,1583],[74.9,1666],[74.7,1750],[74.6,1833],[74.5,1916],[74.5,1999],[74.5,2082],[74.4,2166],[74.3,2250],[74.2,2333],[74.2,2416],[74.2,2500],[74.2,2583],[74.2,2666],[74.2,2749],[74.2,2833],[74.2,2916],[74.2,3000],[74.2,3083],[74.2,3166],[74.2,3249],[74.2,3333],[74.2,3416],[74.2,3499],[74.2,3582],[74.2,3666],[74.2,3749],[74.2,3833],[74.2,3916],[74.2,4000],[74.2,4083],[74.2,4165],[74.2,4250],[74.2,4333],[74.2,4416],[74.2,4500],[74.2,4583],[74.2,4666],[74.2,4750],[74.2,4833],[74.2,4916],[74.2,5000],[74.2,5083],[74.2,5166],[74.2,5249],[74,5333],[74,5416],[74,5499],[74,5583],[74,5666],[74,5750],[74,5832],[74,5916],[74,5999],[73.1,6083],[71.9,6166],[71.5,6249],[71.2,6333],[71.1,6416],[70.9,6500],[70.8,6583],[70.8,6666],[70.7,6750],[70.5,6833],[70.3,6916],[70.3,6999],[70.2,7083],[70.2,7166],[70.2,7250],[70.2,7333],[70.2,7416],[70.2,7500],[70.2,7582],[70.2,7666],[70.2,7750],[70.2,7833],[70.2,7916],[70.2,7999],[70.2,8083],[70.2,8166],[70.2,8250],[70.2,8333],[70.2,8416],[70.2,8500],[70.2,8583],[70.2,8665],[70.2,8750],[70.2,8833],[70.2,8916],[70.2,8999],[70.2,9083],[70.2,9166],[70.2,9249],[70.2,9333],[70.2,9416],[70.2,9499],[70.2,9583],[70.2,9666],[70.2,9750],[70.2,9833],[70.2,9916],[70.2,9999],[70.2,10083],[70.2,10166],[70.2,10250],[70.2,10332],[70.2,10416],[70.2,10500],[70.2,10583],[70.2,10666],[70.2,10749],[70.2,10833],[70.2,10915],[70.2,10999],[70.2,11083],[69.7,11166],[69.5,11250],[69.5,11332],[69.5,11416],[69.5,11500],[69.1,11583],[61.8,11666],[53.9,11750],[48.9,11833],[48.9,11916],[48.9,12000],[48.9,12083],[48.2,12166],[42.8,12250],[39.8,12333],[37.5,12416],[35.3,12499],[34.9,12583]]",1,0,1199.951,1202.7508,12.85224781,2.0822,"[{""rating"":12.852247807017541,""responseTime"":2.0821999998090632}]",space,2.2538,,1202.751,Not at all,0,1202.755,,,[],,0,13,13,13,1,audio/Narrative8Situation4.wav,audio/Narrative7Situation4.wav,audio/Narrative6Situation4.wav,audio/Narrative5Situation4.wav,3,3,2,1,,,,,,,,,,,,,,,,,,,,,,,,,,,,,,,,,,,,,,,
,,,,,,610e2de21943396ffccfcf4e,2024-02-08_16h02.13.602,group3.1-3.2-social-tom,2023.2.2,MacIntel,59.88023952,65c5074098b851296ff0b7ed,65c5413dc1f9d7dbb2684c36,,,,,,,,,,,,,,,,,,,,,,,,,,,,,1202.7552,2,audio/Narrative6Situation5.wav,1204.7674,,1204.7674,1212.7343,"[[12.9,2499],[12.9,2583],[12.5,2666],[12.1,2749],[12,2833],[12,2916],[12,2999],[12,3083],[12,3166],[11.9,3250],[11.8,3333],[12.3,3415],[16.9,3500],[24.4,3583],[26.5,3666],[26.3,3749],[25.9,3833],[25.5,3916],[25.2,4000],[25,4083],[24.9,4166],[24.8,4249],[24.8,4333],[24.8,4415],[24.8,4499],[24.8,4582],[24.8,4666],[24.8,4749],[24.8,4833],[24.8,4916],[24.8,4999],[24.8,5083],[24.8,5166],[24.8,5249],[24.8,5333],[24.8,5416],[24.8,5499],[24.8,5583],[24.8,5666],[24.8,5749],[24.7,5833],[24.7,5916],[24.7,5999],[24.7,6083],[24.7,6166],[24.7,6249],[24.7,6333],[24.7,6416],[24.7,6500],[24.7,6583],[24.7,6666],[24.7,6749],[24.7,6833],[26.3,6916],[30.1,7000],[31.1,7083],[31.5,7166],[31.3,7250],[31.3,7332],[31.3,7416],[31.2,7500],[30.8,7583],[30.6,7666],[30.6,7750],[30.6,7833],[30.6,7916]]",1,0,1212.7345,1216.7009,46.87271564,3.44,"[{""rating"":27.372532894736846,""responseTime"":1.25649999999996},{""rating"":46.87271564327485,""responseTime"":3.4400000000000546}]",space,3.429,,1216.7009,Half the time,50,1216.7046,,,[],,0,14,14,14,1,audio/Narrative8Situation5.wav,audio/Narrative7Situation5.wav,audio/Narrative6Situation5.wav,audio/Narrative5Situation5.wav,2,5,2,5,,,,,,,,,,,,,,,,,,,,,,,,,,,,,,,,,,,,,,,
,,,,,,610e2de21943396ffccfcf4e,2024-02-08_16h02.13.602,group3.1-3.2-social-tom,2023.2.2,MacIntel,59.88023952,65c5074098b851296ff0b7ed,65c5413dc1f9d7dbb2684c36,,,,,,,,,,,,,,,,,,,,,,,,,,,,,1216.7049,2,audio/Narrative6Situation6.wav,1218.7177,,1218.7177,1229.8011,"[[46.8,166],[46.8,249],[46.8,332],[46.8,416],[46.8,499],[46.8,582],[46.8,665],[46.8,750],[45.4,833],[43.5,916],[42,999],[42,1082],[42,1166],[42,1249],[42,1333],[42,1416],[42,1499],[42,1583],[42,1666],[42,1748],[42,1832],[42,1916],[42,1999],[42,2082],[42,2165],[42,2249],[42,2332],[42,2416],[41.9,2499],[41.9,2582],[41.9,2666],[41.8,2749],[41.8,2832],[41.8,2916],[41.8,2999],[41.8,3083],[41.8,3166],[41.8,3249],[41.8,3333],[41.8,3416],[41.8,3499],[41.8,3582],[41.8,3666],[41.8,3749],[41.8,3833],[41.8,3916],[41.8,3999],[41.8,4082],[41.8,4166],[41.8,4249],[41.8,4333],[41.8,4416],[41.8,4498],[41.8,4582],[41.8,4666],[41.8,4749],[41.8,4833],[41.8,4916],[41.8,4999],[41.8,5083],[41.8,5165],[41.8,5249],[41.8,5333],[41.8,5416],[41.8,5499],[41.8,5583],[41.8,5666],[41.8,5749],[41.8,5832],[41.8,5916],[41.8,5999],[41.8,6082],[41.8,6166],[41.8,6249],[41.8,6333],[41.8,6416],[41.8,6499],[41.8,6583],[41.8,6666],[41.8,6749],[41.8,6832],[41.8,6916],[41,6999],[41,7083],[41,7166],[41,7249],[41,7332],[41,7415],[41,7499],[41,7583],[41,7666],[41,7749],[41,7833],[41,7916],[41,7999],[41,8083],[41,8165],[41,8249],[41,8333],[41,8416],[41,8499],[41,8582],[41,8666],[41,8749],[41,8833],[41,8916],[41,8999],[41,9083],[41,9166],[41,9249],[41,9333],[41,9416],[41,9499],[41,9583],[41,9666],[41,9749],[41,9833],[41,9916],[41,9999],[41,10083],[41,10166],[41,10249],[41,10333],[41,10416],[41,10498],[41,10583],[41,10666],[41,10749],[41,10833],[41,10916],[41,10999],[41,11083]]",1,0,1229.8014,1233.3678,0.060307018,2.84,"[{""rating"":0.06030701754385914,""responseTime"":2.839999999999918}]",space,3.0193,,1233.368,Not at all,0,1233.3719,,,[],,0,15,15,15,1,audio/Narrative8Situation6.wav,audio/Narrative7Situation6.wav,audio/Narrative6Situation6.wav,audio/Narrative5Situation6.wav,2,3,2,3,,,,,,,,,,,,,,,,,,,,,,,,,,,,,,,,,,,,,,,
,,,,,,610e2de21943396ffccfcf4e,2024-02-08_16h02.13.602,group3.1-3.2-social-tom,2023.2.2,MacIntel,59.88023952,65c5074098b851296ff0b7ed,65c5413dc1f9d7dbb2684c36,,,,,,,,,,,,,,,,,,,,,,,,,,,,,1233.3723,2,audio/Narrative6Situation7.wav,1238.3842,,1238.3844,1263.2516,"[[5.4,749],[11.8,833],[17.1,915],[20.6,1000],[22.8,1083],[23,1166],[23,1249],[23,1333],[23,1416],[23,1499],[23,1583],[23,1666],[23,1749],[23,1833],[23,1916],[23,1999],[23,2082],[23,2166],[23,2249],[23.1,2333],[23.2,2416],[23.2,2499],[23.3,2583],[23.3,2665],[23.3,2749],[23.2,2832],[23.1,2916],[23.1,3000],[23.2,3083],[23.3,3166],[23.3,3250],[23.3,3333],[23.3,3416],[23.3,3499],[23.3,3583],[23.3,3666],[23.3,3749],[23.3,3833],[23.3,3916],[23.3,3999],[23.3,4083],[23.3,4166],[23.3,4249],[23.2,4332],[23,4416],[23,4500],[23,4583],[23.4,4666],[26.4,4749],[31.9,4833],[34.4,4916],[35.3,5000],[33.7,5082],[33.7,5166],[33.7,5249],[33.7,5333],[34.7,5416],[48.8,5499],[53.5,5583],[53.4,5666],[53.4,5749],[53.4,5833],[53.4,5916],[53.4,5999],[53.4,6083],[53.4,6166],[53.4,6250],[53.4,6333],[53.6,6416],[54.6,6499],[55,6583],[55,6666],[55,6749],[55.5,6833],[56,6916],[55.9,7000],[55.9,7083],[55.9,7166],[55.8,7250],[55.7,7333],[55.7,7416],[55.7,7499],[55.8,7583],[55.8,7666],[55.8,7749],[55.8,7832],[61.8,7916],[63.3,7999],[63.3,8083],[63.3,8166],[63.3,8250],[63.3,8333],[63.3,8416],[63.3,8499],[63.3,8583],[63.3,8666],[63.3,8749],[63.3,8833],[63.3,8916],[63.3,8999],[63.3,9083],[63.3,9166],[63.3,9249],[63.3,9332],[63.3,9416],[63.3,9499],[63.3,9583],[63.3,9666],[63.3,9749],[63.3,9833],[63.3,9916],[63.3,9999],[63.3,10083],[63.3,10166],[63.3,10250],[63.3,10332],[63.3,10415],[63.3,10500],[63.3,10583],[63.3,10666],[63.3,10750],[63.3,10833],[63.4,10916],[63.4,11000],[63.4,11083],[63.4,11166],[63.4,11249],[63.4,11333],[63.3,11416],[63.2,11500],[63.2,11583],[63.2,11666],[63.2,11750],[63.2,11833],[63.2,11916],[63.3,12000],[63.3,12083],[63.3,12166],[63.3,12250],[63.3,12332],[63.3,12416],[63.3,12499],[63.3,12582],[63.3,12666],[63.3,12750],[63.3,12833],[63.3,12915],[63.3,12999],[63.3,13083],[63.3,13167],[63.2,13249],[63.2,13333],[63.2,13416],[63.2,13500],[63.2,13583],[63.2,13666],[63.2,13750],[63.2,13833],[63.2,13916],[63.2,13999],[63.2,14083],[63.2,14166],[63.2,14249],[63.2,14333],[63.2,14416],[63.2,14499],[63.2,14583],[63.2,14666],[63.2,14750],[63.2,14833],[63.2,14916],[63.2,15000],[63.2,15083],[63.2,15166],[63.2,15250],[63.2,15333],[63.2,15416],[63.2,15500],[63.2,15583],[63.2,15666],[63.2,15750],[63.2,15833],[63.2,15916],[63.2,16000],[63.2,16083],[63.2,16166],[63.2,16250],[63.2,16333],[63.2,16416],[63.2,16499],[63.2,16583],[63.2,16666],[63.2,16750],[63.2,16833],[63.2,16916],[63.2,17000],[63.2,17083],[63.2,17166],[63.2,17250],[63.2,17333],[63.2,17416],[63.2,17500],[63.2,17583],[63.2,17666],[63.2,17749],[63.2,17833],[63.2,17916],[63.2,17999],[63.2,18083],[63.2,18166],[63.2,18249],[63,18333],[63,18416],[63,18500],[63,18583],[63,18666],[63.3,18750],[63.8,18833],[66.5,19083],[66.9,19167],[67.1,19250],[67.1,19333],[67.1,19416],[67.1,19499],[67.1,19582],[67,19666],[66.9,19750],[66.9,19833],[66.8,19916],[66.7,20000],[66.6,20082],[66.6,20166],[66.4,20250],[66.4,20333],[66.3,20417],[66.2,20500],[66.2,20583],[66.2,20666],[66.2,20750],[66.1,20833],[66.1,20916],[66.1,21000],[66,21083],[66,21167],[66,21250],[66,21333],[66,21416],[66,21500],[66,21583],[66,21666],[66,21750],[66,21833],[66,21916],[66,22000],[66,22083],[66,22166],[66,22249],[66,22333],[66,22416],[66,22499],[66,22583],[66,22666],[66,22750],[66,22833],[66,22916],[66,23000],[66,23083],[66,23166],[66,23250],[66,23333],[66,23416],[66,23500],[66,23583],[66,23666],[66,23750],[66,23833],[66,23916],[66,24000],[66,24083],[66,24166],[66,24250],[66,24333],[66,24416],[66,24500],[66,24583],[66,24665],[66,24749],[66,24833]]",1,0,1263.2519,1280.9682,81.8686038,11.8805,"[{""rating"":82.1281067251462,""responseTime"":1.2866000001429256},{""rating"":81.8686038011696,""responseTime"":11.880499999999984}]",space,17.1686,,1280.9683,Half the time,50,1280.9809,,,[],,0,16,16,16,1,audio/Narrative8Situation7.wav,audio/Narrative7Situation7.wav,audio/Narrative6Situation7.wav,audio/Narrative5Situation7.wav,3,5,5,4,,,,,,,,,,,,,,,,,,,,,,,,,,,,,,,,,,,,,,,
,,,,,,610e2de21943396ffccfcf4e,2024-02-08_16h02.13.602,group3.1-3.2-social-tom,2023.2.2,MacIntel,59.88023952,65c5074098b851296ff0b7ed,65c5413dc1f9d7dbb2684c36,,,,,,,,,,,,,,,,,,,,,,,,,,,,,1280.9813,2,audio/Narrative6Situation8.wav,1285.9848,,1285.9849,1292.8518,"[[82.6,1916],[83.1,2000],[83,2083],[82.6,2166],[82.5,2250],[82.4,2333],[82.4,2416],[82.3,2500],[82.3,2583],[82.4,2666],[82.4,2748],[82.4,2833],[82,2916],[81.8,2999],[81.8,3082],[81.8,3166],[81.8,3249],[79.5,3333],[71.9,3416],[66.5,3500],[64.1,3583],[62.1,3667],[62.1,3750],[62.1,3833],[62.1,3916],[57.1,4000],[48.2,4083],[45.7,4166],[45.5,4249],[45.6,4333],[46.8,4416],[47.4,4500],[49.1,4582],[49.6,4666],[49.7,4749],[50,4833],[50.1,4916],[50.1,4999],[50.1,5083],[50.1,5166],[49.8,5250],[49.6,5333],[49.5,5416],[49.1,5499],[48.5,5583],[48.5,5666],[48.5,5749],[48.5,5833],[49.2,5916],[59.5,6000],[67.9,6083],[70.7,6166],[70.7,6250],[70.7,6333],[70.7,6416],[70.7,6499],[70.7,6583],[70.7,6666],[70.7,6749],[70.7,6833]]",1,0,1292.852,1299.9685,99.23976608,3.0961,"[{""rating"":99.23976608187135,""responseTime"":3.0961000001429966}]",space,6.5834,,1299.9686,Not at all,0,1299.9811,,,[],,0,17,17,17,1,audio/Narrative8Situation8.wav,audio/Narrative7Situation8.wav,audio/Narrative6Situation8.wav,audio/Narrative5Situation8.wav,3,2,5,3,,,,,,,,,,,,,,,,,,,,,,,,,,,,,,,,,,,,,,,
,,,,,,610e2de21943396ffccfcf4e,2024-02-08_16h02.13.602,group3.1-3.2-social-tom,2023.2.2,MacIntel,59.88023952,65c5074098b851296ff0b7ed,65c5413dc1f9d7dbb2684c36,,,,,,,,,,,,,,,,,,,,,,,,,,,,,1299.9814,2,audio/Narrative6Situation9.wav,1303.985,,1303.9851,1313.9352,"[[100,1583],[74.9,2333],[74.9,2416],[68.7,2583],[60.5,2666],[59.4,2750],[58.8,2833],[57.4,2916],[55.8,2999],[55.8,3083],[55.8,3166],[55.8,3249],[53.1,3333],[49.7,3416],[49,3500],[48.8,3583],[48.7,3665],[48.3,3750],[48,3833],[47.5,3916],[46.8,4000],[46.6,4083],[46.6,4166],[46.6,4249],[46.6,4333],[46.6,4416],[46.6,4503],[46.6,4583],[46.6,4666],[46.6,4749],[46.6,4833],[46.6,4916],[46.6,4999],[46.6,5083],[46.6,5166],[46.6,5249],[46.6,5333],[52.3,5416],[62.4,5499],[65.4,5582],[71.4,5666],[81,5750],[98.5,5833],[100,5915],[100,6000],[99.2,6083],[99.2,6166],[99.2,6249],[99.2,6333],[99.2,6416],[99.2,6499],[99.2,6583],[99.2,6666],[99.2,6749],[99.2,6833],[99.2,6916],[99,7000],[98.1,7083],[98.6,7167],[98.5,7250],[98.3,7333],[98,7416],[97.1,7500],[96.5,7582],[96.3,7666],[96.1,7750],[96,7833],[97.5,7916],[99.1,8000],[100,8083],[100,8166],[100,8249],[100,8333],[100,8416],[100,8499],[100,8583],[100,8666],[100,8750],[100,8833],[100,8916],[100,9000],[100,9083],[100,9166],[100,9250],[100,9332],[100,9416],[100,9499],[100,9583],[100,9666],[100,9750],[100,9833],[100,9916]]",1,0,1313.9354,1317.7353,99.9314693,2.664,"[{""rating"":99.93146929824562,""responseTime"":2.6639999999999873}]",space,3.2512,,1317.7355,Not at all,0,1317.7381,,,[],,0,18,18,18,1,audio/Narrative8Situation9.wav,audio/Narrative7Situation9.wav,audio/Narrative6Situation9.wav,audio/Narrative5Situation9.wav,3,2,4,3,,,,,,,,,,,,,,,,,,,,,,,,,,,,,,,,,,,,,,,
,,,,,,610e2de21943396ffccfcf4e,2024-02-08_16h02.13.602,group3.1-3.2-social-tom,2023.2.2,MacIntel,59.88023952,65c5074098b851296ff0b7ed,65c5413dc1f9d7dbb2684c36,,,,,,,,,,,,,,,,,,,,,,,,,,,,,,,,,,,,,,,,,,,,,,,,,,,,,,,,,,,,,,,,,,,,,,,,1317.7384,1347.0513,space,28.7834,,1347.0528,1363.5536,space,16.1673,,,,,,,,,,,,,,,,,,,,,,,,,,
,,,,,,610e2de21943396ffccfcf4e,2024-02-08_16h02.13.602,group3.1-3.2-social-tom,2023.2.2,MacIntel,59.88023952,65c5074098b851296ff0b7ed,65c5413dc1f9d7dbb2684c36,,,,,,,,,,,,,,,,,,,,,,,,,,,,,1366.1498,1,audio/Narrative8Situation9.wav,1368.1525,,,,,,,1400.0229,1403.4696,8.745431287,2.2771,"[{""rating"":8.74543128654971,""responseTime"":2.2771000001430366}]",space,2.9055,,1400.0203,Not at all,0,1400.0228,,,[],,,,,,,,,,,2,2,2,2,,,,,,,,,,,,,,,1363.5649,1366.1349,1368.1531,3,1400.0201,"[[38.4,29915],[36.4,29999],[33.6,30083],[31.6,30166],[30.5,30249],[29.9,30332],[29.7,30416],[29.6,30499],[29.6,30582],[30.5,30666],[34.8,30749],[39.7,30832],[42.8,30916],[43.6,30999],[44.6,31082],[44.6,31166],[44.6,31249],[44.6,31332],[44.6,31416],[44.6,31499],[44.6,31582],[44.6,31666],[44.6,31749],[44.6,31831]]",0,0,0,0,1,"Larry had recently lost his family, job and home, and was now living on his own in the park. He had most of his belongings, including some clothes, a blanket, and his mother’s special necklace. His family had been very important to him and he felt as though he did not have much going for him. One of his first days in the park he came across a family that did not have much food and looked very cold. He decided to give them some of his food and his blanket.","Larry had recently lost his family, job and home, and was now living on his own in the park. He had most of his belongings, including some clothes, a blanket, and his mother’s special necklace. His family had been very important to him and he felt as though he did not have much going for him. One of his first days in the park he came across a family that did not have much food and looked very cold. He decided to give them some of his food and his blanket.","Larry had recently lost his family, job and home, and was now living on his own in the park. He had most of his belongings, including some clothes, a blanket, and his mother’s special necklace. His family had been very important to him and he felt as though he did not have much going for him. One of his first days in the park he came across a family that did not have much food and looked very cold. He decided to give them some of his food and his blanket.","Larry had recently lost his family, job and home, and was now living on his own in the park. He had most of his belongings, including some clothes, a blanket, and his mother’s special necklace. His family had been very important to him and he felt as though he did not have much going for him. One of his first days in the park he came across a family that did not have much food and looked very cold. He decided to give them some of his food and his blanket.",,,,,,,,,,
