exp_question,consent.started,consent.stopped,consentResponse.keys,consentResponse.rt,consentResponse.duration,participantID,date,expName,psychopyVersion,OS,frameRate,STUDY_ID,SESSION_ID,opening1.started,opening1.stopped,keyEndingOpening1.keys,keyEndingOpening1.rt,keyEndingOpening1.duration,volumeAdjust.started,volumeAdjust.stopped,endingAdjust.keys,endingAdjust.rt,endingAdjust.duration,opening2.started,opening2.stopped,keyEndingOpening.keys,keyEndingOpening.rt,keyEndingOpening.duration,mouse.x,mouse.y,mouse.leftButton,mouse.midButton,mouse.rightButton,mouse.time,instructionLoop.thisRepN,instructionLoop.thisTrialN,instructionLoop.thisN,instructionLoop.thisIndex,instructionLoop.ran,readyForAudio.started,readyForAudio.stopped,fixation.started,run,audio_played,fixation.stopped,endPractice.keys,audioPre.started,audioPre.stopped,continuousResponses_audio,continuousSlider.response,continuousSlider.rt,intRating.started,intRating.stopped,intQuestionSlider.response,intQuestionSlider.rt,intQuestionSlider.history,confirmResponse.keys,confirmResponse.rt,confirmResponse.duration,catchQuestion.started,catch_label,catch_value,catchQuestion.stopped,catchQuestionSlider.response,catchQuestionSlider.rt,catchQuestionSlider.history,confirmResponse_2.keys,audioRunLoop.thisRepN,audioRunLoop.thisTrialN,audioRunLoop.thisN,audioRunLoop.thisIndex,audioRunLoop.ran,conditions1_1,conditions2_1,conditions1_2,conditions2_2,dur1_1,dur2_1,dur1_2,dur2_2,endPractice.rt,endPractice.duration,confirmResponse_2.rt,confirmResponse_2.duration,runIntervalBreak.started,runIntervalBreak.stopped,endingBreakKey.keys,endingBreakKey.rt,endingBreakKey.duration,connection.started,connection.stopped,connectionEnding.keys,connectionEnding.rt,connectionEnding.duration,readyForText.started,readyForText.stopped,textPre.started,run_dup,textPre.stopped,continuousResponses_text,textRunLoop.thisRepN,textRunLoop.thisTrialN,textRunLoop.thisN,textRunLoop.thisIndex,textRunLoop.ran,text1_1,text1_2,text2_1,text2_2,runBreakText.started,runBreakText.stopped,endingBreakKey_2.keys,endingBreakKey_2.rt,endingBreakKey_2.duration,ending.started,ending.stopped,endingEnding.keys,endingEnding.rt,endingEnding.duration
tom,0.0004,18.0398,y,17.7183,,61146b55c0d8a78134afc566,2024-02-08_13h00.21.581,group3.1-3.2-social-tom,2023.2.2,Win32,59.88023952,65c5074098b851296ff0b7ed,65c5161538f107ed1a6acce7,,,,,,,,,,,,,,,,,,,,,,,,,,,,,,,,,,,,,,,,,,,,,,,,,,,,,,,,,,,,,,,,,,,,,,,,,,,,,,,,,,,,,,,,,,,,,,,,,,,,,,,,,,
,,,,,,61146b55c0d8a78134afc566,2024-02-08_13h00.21.581,group3.1-3.2-social-tom,2023.2.2,Win32,59.88023952,65c5074098b851296ff0b7ed,65c5161538f107ed1a6acce7,18.0402,22.0565,space,3.9864,,,,,,,,,,,,,,,,,,,,,,,,,,,,,,,,,,,,,,,,,,,,,,,,,,,,,,,,,,,,,,,,,,,,,,,,,,,,,,,,,,,,,,,,,,,,,,,,,,,,,,
,,,,,,61146b55c0d8a78134afc566,2024-02-08_13h00.21.581,group3.1-3.2-social-tom,2023.2.2,Win32,59.88023952,65c5074098b851296ff0b7ed,65c5161538f107ed1a6acce7,,,,,,22.0567,32.407,space,10.0193,,,,,,,,,,,,,,,,,,,,,,,,,,,,,,,,,,,,,,,,,,,,,,,,,,,,,,,,,,,,,,,,,,,,,,,,,,,,,,,,,,,,,,,,,,,,,,,,,
,,,,,,61146b55c0d8a78134afc566,2024-02-08_13h00.21.581,group3.1-3.2-social-tom,2023.2.2,Win32,59.88023952,65c5074098b851296ff0b7ed,65c5161538f107ed1a6acce7,,,,,,,,,,,32.4127,51.6915,space,19.2622,,[],[],[],[],[],[],0,0,0,0,1,,,,,,,,,,,,,,,,,,,,,,,,,,,,,,,,,,,,,,,,,,,,,,,,,,,,,,,,,,,,,,,,,,,,,,,,,,,,,,,,
,,,,,,61146b55c0d8a78134afc566,2024-02-08_13h00.21.581,group3.1-3.2-social-tom,2023.2.2,Win32,59.88023952,65c5074098b851296ff0b7ed,65c5161538f107ed1a6acce7,,,,,,,,,,,51.7027,81.164,space,29.3983,,[],[],[],[],[],[],1,0,1,0,1,,,,,,,,,,,,,,,,,,,,,,,,,,,,,,,,,,,,,,,,,,,,,,,,,,,,,,,,,,,,,,,,,,,,,,,,,,,,,,,,
,,,,,,61146b55c0d8a78134afc566,2024-02-08_13h00.21.581,group3.1-3.2-social-tom,2023.2.2,Win32,59.88023952,65c5074098b851296ff0b7ed,65c5161538f107ed1a6acce7,,,,,,,,,,,81.174,83.1136,space,1.9173,,[],[],[],[],[],[],2,0,2,0,1,,,,,,,,,,,,,,,,,,,,,,,,,,,,,,,,,,,,,,,,,,,,,,,,,,,,,,,,,,,,,,,,,,,,,,,,,,,,,,,,
,,,,,,61146b55c0d8a78134afc566,2024-02-08_13h00.21.581,group3.1-3.2-social-tom,2023.2.2,Win32,59.88023952,65c5074098b851296ff0b7ed,65c5161538f107ed1a6acce7,,,,,,,,,,,83.1141,102.0297,space,18.8942,,[],[],[],[],[],[],3,0,3,0,1,,,,,,,,,,,,,,,,,,,,,,,,,,,,,,,,,,,,,,,,,,,,,,,,,,,,,,,,,,,,,,,,,,,,,,,,,,,,,,,,
,,,,,,61146b55c0d8a78134afc566,2024-02-08_13h00.21.581,group3.1-3.2-social-tom,2023.2.2,Win32,59.88023952,65c5074098b851296ff0b7ed,65c5161538f107ed1a6acce7,,,,,,,,,,,102.045,118.9705,space,16.9113,,[],[],[],[],[],[],4,0,4,0,1,,,,,,,,,,,,,,,,,,,,,,,,,,,,,,,,,,,,,,,,,,,,,,,,,,,,,,,,,,,,,,,,,,,,,,,,,,,,,,,,
,,,,,,61146b55c0d8a78134afc566,2024-02-08_13h00.21.581,group3.1-3.2-social-tom,2023.2.2,Win32,59.88023952,65c5074098b851296ff0b7ed,65c5161538f107ed1a6acce7,,,,,,,,,,,,,,,,,,,,,,,,,,,118.9834,121.5631,121.5808,1,audio/Narrative13Situation2.wav,123.5857,,123.586,153.3312,"[[999,1],[999,100],[999,183],[999,264],[999,348],[999,431],[999,515],[999,599],[999,681],[999,764],[999,850],[999,948],[999,1009],[999,1093],[999,1176],[999,1260],[999,1343],[999,1426],[999,1509],[999,1593],[999,1676],[999,1763],[999,1845],[999,1927],[999,2011],[999,2093],[999,2176],[999,2260],[999,2343],[999,2427],[999,2510],[999,2593],[999,2677],[999,2760],[999,2843],[999,2926],[999,3009],[999,3093],[999,3176],[999,3261],[999,3343],[999,3426],[999,3510],[999,3592],[999,3676],[999,3760],[999,3842],[999,3927],[999,4009],[999,4093],[999,4176],[999,4259],[999,4343],[999,4426],[999,4509],[999,4593],[999,4676],[999,4760],[999,4843],[999,4926],[999,5009],[999,5093],[999,5177],[999,5260],[999,5343],[999,5427],[999,5509],[999,5593],[999,5676],[999,5760],[999,5843],[999,5927],[999,6010],[999,6093],[999,6176],[999,6260],[999,6343],[999,6426],[999,6510],[999,6593],[999,6677],[999,6760],[999,6843],[999,6926],[999,7010],[999,7093],[999,7176],[999,7260],[999,7343],[999,7427],[999,7510],[999,7593],[999,7676],[999,7759],[999,7843],[999,7926],[999,8010],[999,8093],[999,8176],[999,8260],[999,8343],[999,8426],[999,8510],[999,8593],[999,8677],[999,8760],[999,8843],[999,8926],[999,9010],[999,9093],[999,9176],[999,9260],[999,9343],[999,9427],[999,9510],[999,9593],[999,9676],[999,9760],[999,9843],[999,9926],[999,10010],[999,10093],[999,10176],[999,10261],[999,10343],[999,10426],[999,10510],[999,10592],[999,10677],[999,10759],[999,10843],[999,10926],[999,11010],[999,11093],[999,11176],[999,11260],[999,11343],[999,11426],[999,11510],[999,11593],[999,11676],[999,11760],[999,11843],[999,11926],[999,12009],[999,12093],[999,12176],[999,12260],[999,12343],[999,12426],[999,12510],[999,12593],[999,12676],[999,12759],[999,12843],[999,12926],[999,13010],[999,13092],[999,13176],[999,13260],[999,13343],[999,13426],[999,13510],[999,13593],[999,13676],[999,13760],[999,13843],[999,13926],[999,14009],[999,14093],[999,14176],[999,14259],[999,14343],[999,14426],[999,14509],[999,14593],[999,14676],[999,14759],[999,14842],[999,14926],[999,15009],[999,15093],[20.8,15176],[20.4,15259],[20.4,15342],[20.4,15427],[20.7,15510],[20.7,15592],[20.7,15676],[20.7,15759],[20.7,15842],[20.7,15926],[20.7,16009],[20.7,16092],[20.7,16175],[20.7,16260],[20.7,16343],[20.7,16427],[20.7,16510],[20.7,16593],[20.1,17260],[20,17342],[20,17427],[20,17510],[20,17593],[20.1,17676],[20.1,17759],[20.1,17843],[20.1,17926],[20.1,18009],[20.1,18092],[20.1,18177],[20.1,18260],[20.1,18343],[20.1,18426],[20.1,18510],[20.1,18593],[20.1,18676],[20.1,18760],[20.1,18843],[20.1,18926],[20.1,19010],[20.1,19093],[20.1,19175],[20.1,19260],[20.1,19344],[20.1,19426],[20.1,19509],[20.1,19593],[20.1,19676],[20.1,19759],[20.1,19843],[20.1,19926],[20.1,20010],[20.1,20093],[20.1,20176],[20.1,20259],[20.1,20342],[20.1,20425],[20.1,20509],[20.1,20592],[20.1,20675],[20.1,20759],[20.1,20843],[20.1,20926],[20.1,21009],[20.1,21093],[20.1,21176],[20.1,21259],[20.1,21343],[20.1,21425],[20.1,21509],[20.1,21593],[20.1,21675],[20.1,21759],[20.1,21843],[20.1,21926],[20.1,22010],[20.1,22092],[20.1,22176],[20.1,22259],[20.1,22342],[20.1,22426],[20.1,22510],[20.1,22592],[20.1,22675],[20.1,22759],[20.1,22842],[20.1,22925],[20.1,23009],[20.1,23092],[20.9,23176],[21.6,23260],[23.4,23677],[22.9,23760],[22.6,23843],[22.4,23927],[22.3,24010],[22.3,24092],[21.9,24176],[21,24260],[21,24343],[21,24426],[21,24510],[21,24593],[21,24676],[21,24759],[21,24843],[21,24926],[21,25009],[21,25093],[21,25176],[21,25259],[21,25343],[21,25426],[21,25509],[21,25593],[21,25676],[21,25759],[21,25843],[21,25926],[21,26009],[21,26092],[21,26176],[21,26259],[21,26343],[21,26425],[21,26509],[21,26593],[21,26676],[21,26760],[21,26842],[20.5,26926],[19.2,27009],[18.9,27093],[16.9,27176],[14.9,27259],[13.3,27342],[11.7,27426],[11.4,27509],[11.4,27593],[11.4,27676],[11.4,27760],[11.4,27843],[11.4,27926],[11.4,28009],[11.4,28092],[11.4,28176],[11.4,28260],[11.4,28343],[11.4,28426],[11.4,28510],[11.4,28593],[11.4,28676],[11.4,28759],[11.4,28843],[11.4,28926],[11.4,29010],[11.4,29093],[11.4,29176],[11.4,29259],[11.4,29342],[11.4,29425],[11.4,29509],[11.4,29593],[11.4,29675]]",1,0,153.3318,161.9307,13.54166985,6.453,"[{""rating"":13.541669845581056,""responseTime"":6.453000000000003}]",space,8.0603,,161.9312,All the time,100,161.9366,,,[],,0,0,0,0,1,audio/Narrative13Situation2.wav,audio/Narrative13Situation2.wav,audio/Narrative13Situation2.wav,audio/Narrative13Situation2.wav,2,2,2,2,,,,,,,,,,,,,,,,,,,,,,,,,,,,,,,,,,,,,,,
,,,,,,61146b55c0d8a78134afc566,2024-02-08_13h00.21.581,group3.1-3.2-social-tom,2023.2.2,Win32,59.88023952,65c5074098b851296ff0b7ed,65c5161538f107ed1a6acce7,,,,,,,,,,,,,,,,,,,,,,,,,,,,,161.9369,1,audio/Narrative7Situation1.wav,163.513,space,163.5131,219.4117,"[[999,1],[999,82],[999,165],[999,249],[999,332],[999,415],[999,499],[999,582],[999,668],[999,750],[999,833],[999,916],[999,999],[999,1082],[999,1166],[999,1249],[999,1332],[999,1416],[999,1499],[999,1582],[999,1666],[999,1748],[999,1833],[999,1915],[999,1999],[999,2082],[999,2166],[999,2248],[999,2332],[999,2415],[999,2499],[999,2582],[999,2666],[999,2748],[999,2832],[999,2915],[999,2999],[999,3082],[999,3165],[999,3249],[999,3332],[999,3415],[999,3499],[999,3582],[999,3666],[999,3748],[999,3832],[999,3915],[999,3998],[999,4082],[999,4165],[999,4248],[999,4332],[999,4415],[999,4499],[999,4582],[999,4665],[999,4749],[999,4832],[999,4915],[999,5000],[999,5081],[999,5165],[999,5248],[999,5333],[25.4,5417],[22,5498],[20.4,5582],[19.5,5665],[18.9,5749],[17.7,5832],[16.8,5916],[16.7,5998],[16.7,6082],[16.7,6165],[16.7,6249],[16.7,6332],[16.7,6415],[16.7,6498],[16.7,6582],[16.7,6666],[16.7,6748],[16.7,6832],[16.7,6915],[16.7,6999],[16.7,7081],[16.7,7165],[16.7,7249],[16.7,7332],[16.7,7415],[16.7,7498],[16.7,7582],[16.7,7665],[16.7,7749],[16.7,7832],[16.7,7915],[16.7,7999],[16.7,8082],[16.7,8165],[16.7,8249],[16.7,8332],[16.7,8415],[16.4,8499],[13.9,8582],[10.8,8665],[10.1,8749],[10.1,8832],[10.1,8915],[10.1,8999],[4.4,9082],[3.9,9165],[3.9,9249],[3.9,9332],[3.9,9415],[3.9,9499],[3.9,9581],[3.9,9665],[3.9,9749],[3.9,9832],[3.9,9916],[3.9,9999],[3.9,10082],[3.9,10165],[3.9,10249],[3.9,10332],[3.9,10415],[3.9,10498],[3.9,10583],[3.9,10665],[3.9,10749],[3.9,10832],[3.9,10915],[3.9,10998],[3.9,11082],[3.9,11165],[3.9,11248],[3.9,11332],[3.9,11415],[3.9,11498],[3.9,11582],[3.9,11667],[3.9,11749],[3.9,11832],[3.9,11917],[3.9,11999],[3.9,12082],[3.9,12166],[3.9,12249],[3.9,12333],[3.9,12416],[3.9,12499],[3.9,12583],[3.9,12666],[3.9,12749],[3.9,12832],[3.9,12916],[3.9,12999],[3.9,13082],[3.9,13166],[3.9,13248],[3.9,13333],[3.9,13416],[3.9,13499],[3.9,13583],[3.9,13664],[3.9,13748],[3.9,13832],[3.9,13915],[3.9,13999],[3.9,14082],[3.9,14165],[3.9,14249],[3.9,14332],[3.9,14415],[3.9,14499],[3.9,14581],[3.9,14665],[3.9,14748],[5.8,14831],[9.5,14915],[12.2,14999],[14.2,15082],[17.2,15165],[17.8,15248],[19.7,15333],[22.1,15415],[23.1,15499],[23.1,15582],[23.1,15665],[23.1,15749],[23.1,15832],[23.1,15915],[23.1,15999],[23.1,16082],[23.1,16165],[23.1,16248],[23.1,16332],[23.1,16416],[23.1,16499],[23.1,16582],[23.1,16665],[23.1,16748],[23.1,16832],[23.1,16915],[23.1,16998],[23.1,17081],[23.1,17165],[23.1,17249],[23.1,17332],[23.1,17415],[23.1,17498],[23.1,17582],[23.1,17665],[23.1,17748],[23.1,17832],[23.1,17915],[23.1,17998],[23.1,18081],[23.1,18165],[23.1,18249],[23.1,18332],[23.1,18415],[23.1,18499],[23.1,18582],[23.1,18665],[23.1,18748],[23.1,18832],[23.1,18915],[23.1,18998],[23.1,19082],[23.1,19165],[23.1,19248],[23.1,19332],[23.1,19415],[23.1,19498],[23.1,19582],[23.1,19665],[23.1,19748],[23.1,19831],[23.1,19915],[23.1,19998],[23.1,20082],[23.1,20165],[23.1,20248],[23.1,20332],[23.1,20415],[23.1,20498],[23.1,20582],[23.1,20665],[23.1,20748],[23.1,20832],[23.1,20915],[23.1,20998],[23.1,21082],[23.1,21165],[23.1,21248],[23.1,21332],[23.1,21415],[23.1,21498],[23.1,21582],[23.1,21665],[23.1,21748],[23.1,21832],[23.1,21915],[23.1,21999],[23.1,22082],[23.1,22165],[23.1,22249],[23.1,22332],[23.1,22415],[23.1,22498],[23.1,22582],[23.1,22665],[23.1,22748],[23.1,22832],[23.1,22915],[23.1,22998],[23.1,23082],[23.1,23165],[23.1,23248],[23.1,23332],[23.1,23416],[23.1,23498],[23.1,23582],[23.1,23665],[23.1,23748],[23.1,23832],[23.1,23916],[23.1,23999],[23.1,24081],[23.1,24165],[23.1,24249],[23.1,24332],[23.1,24415],[23.1,24498],[23.1,24581],[23.1,24665],[23.1,24748],[23.1,24831],[23.1,24915],[23.1,24999],[23.1,25081],[23.1,25165],[23.1,25248],[23.1,25332],[23.1,25415],[23.1,25499],[23.1,25582],[23.1,25665],[23.1,25747],[23.1,25832],[23.1,25915],[23.1,25998],[23.1,26081],[23.1,26165],[23.1,26248],[23.1,26332],[23.1,26415],[23.1,26498],[23.1,26582],[23.1,26665],[23.1,26748],[23.1,26832],[23.1,26916],[23.1,26998],[23.1,27082],[23.1,27165],[23.1,27248],[23.1,27332],[23.1,27415],[23.1,27498],[23.1,27582],[23.1,27665],[23.1,27748],[23.1,27832],[23.1,27915],[23.1,27998],[23.1,28082],[23.1,28165],[23.1,28248],[23.1,28332],[23.1,28415],[23.1,28498],[23.1,28582],[23.1,28665],[23.1,28749],[23.1,28832],[23.1,28915],[23.1,28998],[23.1,29082],[23.1,29165],[23.1,29248],[23.1,29332],[23.1,29415],[23.1,29498],[23.1,29582],[23.1,29666],[23.1,29749],[23.1,29831],[23.1,29915],[23.1,29998],[23.1,30082],[23.1,30165],[23.1,30248],[23.1,30332],[23.1,30415],[23.1,30498],[23.1,30581],[23.1,30665],[23.1,30748],[23.1,30831],[23.1,30915],[23.1,30998],[23.1,31081],[23.1,31166],[23.1,31248],[23.1,31332],[23.1,31415],[23.1,31498],[23.1,31581],[23.1,31665],[23.1,31748],[23.1,31832],[23.1,31915],[23.1,31999],[23.1,32081],[23.1,32166],[23.1,32248],[23.1,32331],[23.1,32416],[23.1,32498],[23.1,32582],[23.1,32665],[23.1,32748],[23.1,32831],[23.1,32917],[23.1,32998],[23.1,33081],[23.1,33166],[23.1,33248],[23.1,33332],[23.1,33416],[23.1,33498],[23.1,33581],[23.1,33667],[23.1,33749],[23.1,33832],[23.1,33916],[23.1,33999],[23.1,34082],[23.1,34166],[23.1,34249],[23.1,34332],[23.1,34415],[23.1,34498],[23.1,34582],[23.1,34666],[23.1,34748],[23.1,34832],[23.1,34916],[23.1,34998],[23.1,35082],[23.1,35166],[23.1,35248],[23.1,35332],[23.1,35416],[23.1,35498],[23.1,35582],[23.1,35666],[23.1,35749],[23.1,35831],[23.1,35916],[23.1,35999],[23.1,36082],[23.1,36165],[23.1,36248],[23.1,36332],[23.1,36418],[23.1,36499],[23.1,36581],[23.1,36666],[23.1,36748],[23.1,36832],[23.1,36917],[23.1,36999],[23.1,37082],[23.1,37166],[23.1,37248],[23.1,37332],[23.1,37417],[23.1,37498],[23.1,37582],[23.1,37666],[23.1,37748],[23.1,37833],[23.1,37916],[23.1,37999],[23.1,38082],[23.1,38167],[23.1,38249],[23.1,38332],[23.1,38416],[23.1,38498],[23.1,38582],[23.1,38666],[23.1,38749],[23.1,38831],[23.1,38916],[23.1,38998],[23.1,39081],[23.1,39166],[23.1,39248],[23.1,39331],[23.1,39416],[23.1,39498],[23.1,39581],[23.1,39666],[23.1,39748],[23.1,39831],[23.1,39917],[23.1,39998],[23.1,40081],[23.1,40165],[23.1,40249],[23.1,40331],[23.1,40416],[23.1,40498],[23.1,40581],[23.1,40666],[23.1,40748],[23.1,40832],[23.1,40916],[23.1,40998],[23.1,41081],[23.1,41165],[23.1,41248],[23.1,41331],[23.1,41415],[23.1,41498],[23.1,41582],[23.1,41665],[23.1,41748],[23.1,41831],[23.1,41915],[23.1,41998],[23.1,42081],[23.1,42165],[23.1,42248],[23.1,42331],[23.1,42415],[23.1,42498],[23.1,42581],[23.1,42665],[23.1,42748],[23.1,42831],[23.1,42915],[23.1,42998],[23.1,43082],[23.1,43165],[23.1,43248],[23.1,43331],[23.1,43415],[23.1,43498],[23.1,43582],[23.1,43665],[23.1,43747],[23.1,43831],[23.1,43915],[23.1,43998],[23.1,44081],[23.1,44165],[23.1,44248],[23.1,44331],[23.1,44415],[23.1,44499],[23.1,44581],[23.1,44665],[23.1,44748],[23.1,44831],[23.1,44915],[23.1,44999],[23.1,45081],[23.1,45165],[23.1,45248],[23.1,45331],[23.1,45415],[23.1,45498],[23.1,45581],[23.1,45665],[23.1,45748],[23.1,45831],[23.1,45915],[23.1,45998],[23.1,46082],[23.1,46165],[23.1,46248],[23.1,46331],[23.1,46415],[23.1,46498],[23.1,46581],[23.1,46665],[23.1,46748],[23.1,46831],[23.1,46915],[23.1,46997],[23.1,47081],[23.1,47164],[23.1,47249],[23.1,47331],[23.1,47415],[23.1,47499],[23.1,47581],[23.1,47664],[23.1,47747],[23.1,47831],[23.1,47915],[23.1,47999],[23.1,48081],[23.1,48166],[23.1,48248],[23.1,48331],[23.1,48416],[23.1,48498],[23.1,48582],[23.1,48665],[23.1,48748],[23.1,48832],[23.1,48916],[23.1,48998],[23.1,49082],[23.1,49165],[23.1,49248],[23.1,49331],[23.1,49415],[23.1,49498],[23.1,49581],[23.1,49666],[23.1,49748],[23.1,49831],[23.1,49916],[23.1,49998],[23.1,50081],[23.1,50166],[23.1,50247],[23.1,50332],[23.1,50415],[22.4,50499],[22,50582],[21.7,50666],[20.7,50749],[19.6,50831],[19.3,50914],[18.2,50999],[17,51082],[16.4,51164],[15.7,51248],[14.5,51331],[14.2,51416],[14.2,51498],[14.2,51581],[14.2,51665],[14.2,51748],[14.2,51831],[14.2,51915],[14.2,51998],[14.2,52081],[14.2,52165],[14.2,52248],[14.2,52331],[14.2,52415],[14.2,52498],[14.2,52581],[14.2,52665],[14.2,52748],[14.2,52831],[14.2,52915],[14.2,52998],[14.2,53081],[14.2,53165],[14.2,53248],[14.2,53331],[14.2,53415],[14.2,53498],[14.2,53581],[14.2,53665],[14.2,53748],[14.2,53831],[14.2,53915],[14.2,53998],[14.2,54081],[14.2,54165],[14.2,54248],[14.2,54331],[14.2,54415],[14.2,54498],[14.2,54581],[14.2,54665],[14.2,54747],[14.2,54831],[14.2,54915],[14.2,54998],[14.2,55081],[14.2,55165],[14.2,55248],[14.2,55331],[14.2,55415],[14.2,55498],[14.2,55581],[14.2,55665],[14.2,55748],[14.2,55831]]",1,0,219.4122,224.7954,12.91666985,3.1024,"[{""rating"":12.916669845581053,""responseTime"":3.102399999976143}]",space,4.8555,,224.7956,Half the time,50,224.8008,,,[],,0,1,1,1,1,audio/Narrative7Situation1.wav,audio/Narrative8Situation1.wav,audio/Narrative5Situation1.wav,audio/Narrative6Situation1.wav,2,5,5,2,1.5557,,,,,,,,,,,,,,,,,,,,,,,,,,,,,,,,,,,,,,
,,,,,,61146b55c0d8a78134afc566,2024-02-08_13h00.21.581,group3.1-3.2-social-tom,2023.2.2,Win32,59.88023952,65c5074098b851296ff0b7ed,65c5161538f107ed1a6acce7,,,,,,,,,,,,,,,,,,,,,,,,,,,,,224.801,1,audio/Narrative7Situation2.wav,227.8123,,227.8124,235.2952,"[[42.2,3498],[1.6,4416],[2.2,4499],[2,4582],[1.7,4666],[4,4749],[5,4831],[5.1,4915],[5.1,4998],[5.1,5082],[4.8,5165],[4,5248],[3.5,5331],[3.2,5416],[3.2,5498],[2.6,5581],[1.5,5665],[1.5,5748],[2.7,5831],[3.4,5915],[3.4,5998],[3.4,6082],[3.4,6165],[3.4,6248],[3.4,6332],[3.4,6415],[3.4,6498],[3.4,6582],[3.4,6665],[3.4,6748],[3.4,6831],[3.4,6915],[3.4,6999],[3.4,7082],[3.4,7165],[3.4,7248],[3.4,7331],[3.4,7415]]",1,0,235.2954,239.0789,4.479169846,1.9267,"[{""rating"":4.479169845581055,""responseTime"":1.926699999928502}]",space,3.2324,,239.0789,Half the time,50,239.083,,,[],,0,2,2,2,1,audio/Narrative7Situation2.wav,audio/Narrative8Situation2.wav,audio/Narrative5Situation2.wav,audio/Narrative6Situation2.wav,3,3,3,3,,,,,,,,,,,,,,,,,,,,,,,,,,,,,,,,,,,,,,,
,,,,,,61146b55c0d8a78134afc566,2024-02-08_13h00.21.581,group3.1-3.2-social-tom,2023.2.2,Win32,59.88023952,65c5074098b851296ff0b7ed,65c5161538f107ed1a6acce7,,,,,,,,,,,,,,,,,,,,,,,,,,,,,239.0834,1,audio/Narrative7Situation3.wav,247.0942,,247.0943,256.3445,"[[999,11],[999,83],[999,166],[999,250],[999,334],[999,416],[999,500],[999,583],[999,667],[999,752],[999,834],[999,918],[999,999],[999,1083],[999,1166],[999,1249],[999,1333],[999,1416],[999,1499],[999,1584],[999,1666],[999,1750],[999,1833],[999,1916],[999,1999],[999,2083],[999,2166],[999,2249],[999,2333],[999,2415],[999,2499],[999,2583],[999,2666],[999,2749],[999,2833],[999,2915],[999,3000],[999,3084],[999,3166],[999,3250],[999,3334],[999,3416],[12.3,3499],[11.5,3583],[11.5,3666],[11.5,3749],[11.5,3833],[9.6,3917],[9.5,3999],[9.5,4084],[9.2,4167],[7.4,4250],[7.4,4334],[7.4,4416],[7.4,4499],[7.4,4583],[7.4,4666],[7.4,4749],[7.4,4833],[7.4,4916],[7.4,4999],[7.4,5083],[7.4,5166],[7.4,5249],[7.4,5333],[7.4,5416],[7.4,5499],[7.4,5583],[7.4,5666],[7.4,5749],[7.4,5833],[7.4,5916],[7.4,5999],[7.4,6083],[7.4,6166],[7.4,6249],[7.4,6333],[7.4,6416],[7.4,6500],[7.4,6584],[7.4,6666],[7.4,6750],[7.4,6833],[7.4,6915],[7.4,6999],[7.4,7083],[7.4,7165],[7.4,7249],[7.4,7333],[7.4,7416],[7.4,7499],[7.4,7583],[7.4,7666],[7.4,7749],[7.4,7833],[7.4,7916],[7.4,7999],[7.4,8082],[7.4,8166],[7.4,8249],[7.4,8333],[7.4,8416],[7.4,8499],[7.4,8583],[7.4,8666],[7.4,8749],[7.4,8834],[7.4,8916],[7.4,8999],[7.4,9082],[7.4,9166],[7.4,9249]]",1,0,256.3447,260.9938,1.354169846,3.7204,"[{""rating"":1.3541698455810547,""responseTime"":3.7203999999761663}]",space,4.102,,260.9942,Half the time,50,260.9966,,,[],,0,3,3,3,1,audio/Narrative7Situation3.wav,audio/Narrative8Situation3.wav,audio/Narrative5Situation3.wav,audio/Narrative6Situation3.wav,8,4,3,5,,,,,,,,,,,,,,,,,,,,,,,,,,,,,,,,,,,,,,,
,,,,,,61146b55c0d8a78134afc566,2024-02-08_13h00.21.581,group3.1-3.2-social-tom,2023.2.2,Win32,59.88023952,65c5074098b851296ff0b7ed,65c5161538f107ed1a6acce7,,,,,,,,,,,,,,,,,,,,,,,,,,,,,260.997,1,audio/Narrative7Situation4.wav,264.011,,264.0112,275.744,"[[999,0],[999,82],[999,166],[999,249],[999,332],[999,416],[999,499],[999,582],[999,666],[999,751],[999,835],[999,917],[999,999],[999,1082],[999,1165],[999,1249],[999,1332],[999,1415],[999,1500],[39.9,1583],[39.4,1665],[36.7,1749],[29.1,1832],[27.9,1916],[27.9,1999],[27.9,2082],[12.8,2165],[5,2250],[4.8,2332],[5.9,2416],[6.8,2499],[2,2583],[1.5,2665],[1.6,2749],[1.8,2832],[1.8,2915],[1,2999],[0.8,3082],[0.8,3166],[0.8,3250],[0.8,3332],[0.8,3415],[0.8,3499],[0.8,3582],[0.8,3666],[0.8,3749],[0.8,3832],[0.8,3917],[0.8,3999],[0.8,4082],[0.8,4166],[0.8,4248],[0.8,4332],[0.8,4416],[0.8,4500],[0.8,4582],[0.8,4667],[0.8,4748],[0.8,4832],[0.8,4916],[0.8,4999],[0.8,5082],[0.8,5165],[0.8,5249],[0.8,5332],[0.8,5416],[0.8,5498],[0.8,5582],[0.8,5666],[0.8,5749],[0.8,5832],[0.8,5915],[0.8,5999],[0.8,6082],[0.8,6165],[0.8,6249],[0.8,6332],[0.8,6415],[0.8,6499],[0.8,6582],[0.8,6666],[0.8,6749],[0.8,6832],[0.8,6915],[0.8,6999],[0.9,7082],[2.5,7165],[4,7249],[4.9,7332],[5.3,7415],[6.6,7499],[8.4,7582],[9,7665],[9.1,7749],[9.4,7832],[9.4,7917],[9.4,7999],[9.4,8082],[9.7,8165],[10.6,8249],[10.6,8332],[10.6,8417],[10.6,8499],[10.6,8582],[15.5,8665],[16,8748],[16,8833],[16,8916],[16,8999],[16,9082],[16,9165],[16,9249],[16,9333],[16,9415],[16,9499],[16,9581],[16,9666],[16,9749],[16,9832],[16,9915],[16,9999],[16,10082],[16,10166],[16,10249],[16,10332],[16,10415],[16,10499],[16,10582],[16,10665],[16,10749],[16,10832],[16,10916],[16,10999],[16,11082],[16,11165],[16,11249],[16,11332],[16,11415],[16,11499],[16,11582],[16,11665]]",1,0,275.7445,278.5777,22.60416985,2.122,"[{""rating"":22.60416984558106,""responseTime"":2.1219999999999573}]",space,2.2888,,278.5781,Half the time,50,278.5808,,,[],,0,4,4,4,1,audio/Narrative7Situation4.wav,audio/Narrative8Situation4.wav,audio/Narrative5Situation4.wav,audio/Narrative6Situation4.wav,3,3,1,2,,,,,,,,,,,,,,,,,,,,,,,,,,,,,,,,,,,,,,,
,,,,,,61146b55c0d8a78134afc566,2024-02-08_13h00.21.581,group3.1-3.2-social-tom,2023.2.2,Win32,59.88023952,65c5074098b851296ff0b7ed,65c5161538f107ed1a6acce7,,,,,,,,,,,,,,,,,,,,,,,,,,,,,278.5811,1,audio/Narrative7Situation5.wav,283.5936,,283.5937,292.0775,"[[4.1,917],[1.5,999],[1,1082],[0.7,1166],[0.4,1249],[0.4,1332],[0.4,1416],[0.4,1499],[0.4,1583],[0.4,1666],[0.4,1749],[0.4,1833],[0.4,1916],[0.4,1999],[0.4,2083],[0.4,2166],[0.4,2249],[0.4,2333],[0.4,2416],[0.4,2499],[0.4,2583],[0.4,2666],[0.4,2749],[0.4,2833],[0.4,2916],[0.4,3000],[0.4,3083],[0.4,3166],[0.4,3249],[0.4,3333],[0.4,3417],[0.4,3499],[0.4,3583],[0.4,3666],[0.4,3749],[0.4,3833],[0.4,3916],[0.4,3999],[0.4,4083],[0.4,4166],[0.4,4249],[0.4,4332],[0.4,4416],[0.4,4500],[0.4,4583],[0.4,4666],[0.4,4749],[0.4,4832],[0.4,4916],[0.4,4999],[0.4,5083],[0.4,5166],[0.4,5249],[0.4,5333],[0.4,5416],[0.4,5500],[0.4,5583],[0.4,5666],[0.4,5750],[0.4,5833],[0.4,5916],[0.4,5999],[0.4,6083],[0.4,6166],[0.4,6249],[0.4,6334],[0.4,6417],[0.4,6499],[0.4,6583],[0.4,6666],[0.4,6750],[0.4,6832],[0.4,6916],[0.4,6999],[0.4,7083],[0.4,7166],[0.4,7249],[0.4,7334],[0.4,7416],[0.4,7499],[0.4,7583],[0.4,7666],[0.4,7750],[0.4,7835],[0.4,7916],[0.4,7999],[0.4,8084],[0.4,8166],[0.4,8249],[0.4,8333],[0.4,8415]]",1,0,292.078,294.4109,0.520834923,1.761,"[{""rating"":0.5208349227905251,""responseTime"":1.7609999999999673}]",space,1.7865,,294.411,Half the time,50,294.4137,,,[],,0,5,5,5,1,audio/Narrative7Situation5.wav,audio/Narrative8Situation5.wav,audio/Narrative5Situation5.wav,audio/Narrative6Situation5.wav,5,2,5,2,,,,,,,,,,,,,,,,,,,,,,,,,,,,,,,,,,,,,,,
,,,,,,61146b55c0d8a78134afc566,2024-02-08_13h00.21.581,group3.1-3.2-social-tom,2023.2.2,Win32,59.88023952,65c5074098b851296ff0b7ed,65c5161538f107ed1a6acce7,,,,,,,,,,,,,,,,,,,,,,,,,,,,,294.4141,1,audio/Narrative7Situation6.wav,297.4269,,297.427,307.4102,"[[4,999],[5.7,1082],[5.8,1165],[0.3,1749],[3,3666],[6.3,3749],[9.6,3832],[12.7,3917],[14.1,4000],[15.9,4082],[18.8,4167],[21.3,4249],[22.7,4333],[22.8,4416],[22.8,4500],[22.8,4583],[22.8,4666],[22.8,4749],[24.7,4832],[26.3,4917],[27.2,5001],[27.8,5082],[28.1,5165],[30.3,5250],[37.9,5332],[44.2,5416],[45.6,5499],[45.9,5582],[47.2,5665],[49.3,5750],[49.4,5832],[49.4,5916],[49.4,5998],[49.4,6081],[49.4,6165],[49.4,6249],[49.4,6332],[49.4,6415],[49.4,6499],[49.4,6582],[49.4,6666],[49.4,6749],[49.4,6832],[49.4,6916],[49.4,7000],[49.4,7083],[49.4,7165],[49.4,7249],[49.4,7332],[49.4,7416],[49.4,7499],[49.4,7582],[49.4,7666],[49.4,7749],[49.4,7832],[49.4,7916],[49.4,7999],[49.4,8082],[49.4,8165],[49.4,8250],[49.4,8332],[49.4,8415],[49.4,8499],[49.4,8583],[49.4,8666],[49.4,8750],[49.4,8832],[49.4,8915],[49.4,8999],[49.4,9082],[49.4,9165],[49.4,9249],[49.4,9332],[49.4,9416],[49.4,9499],[49.4,9582],[49.4,9666],[49.4,9749],[49.4,9832],[49.4,9916]]",1,0,307.4107,308.5774,49.47916985,0.2095,"[{""rating"":49.479169845581055,""responseTime"":0.20949999999993452}]",space,0.6335,,308.5775,All the time,100,308.5816,,,[],,0,6,6,6,1,audio/Narrative7Situation6.wav,audio/Narrative8Situation6.wav,audio/Narrative5Situation6.wav,audio/Narrative6Situation6.wav,3,2,3,2,,,,,,,,,,,,,,,,,,,,,,,,,,,,,,,,,,,,,,,
,,,,,,61146b55c0d8a78134afc566,2024-02-08_13h00.21.581,group3.1-3.2-social-tom,2023.2.2,Win32,59.88023952,65c5074098b851296ff0b7ed,65c5161538f107ed1a6acce7,,,,,,,,,,,,,,,,,,,,,,,,,,,,,308.5819,1,audio/Narrative7Situation7.wav,313.5926,,313.5927,330.7602,"[[1.6,2666],[2.8,2750],[3.4,2833],[4.9,2917],[5.3,2999],[5.5,3083],[5.5,3167],[5.5,3249],[5.5,3333],[5.5,3416],[5.5,3500],[5.5,3583],[5.5,3666],[5.5,3750],[5.5,3833],[5.5,3917],[5.5,4000],[5.5,4083],[5.5,4167],[5.5,4250],[5.5,4333],[5.5,4416],[5.3,4500],[4,4583],[3.2,4667],[2.6,4750],[1.7,4833],[1.5,4917],[1.4,5000],[1.4,5082],[1.4,5166],[1.4,5250],[1.4,5333],[1.4,5417],[1.4,5500],[1.4,5583],[1.4,5666],[1.4,5750],[1.4,5833],[1.4,5916],[1.4,6000],[1.4,6083],[1.4,6166],[1.4,6250],[1.4,6333],[1.4,6416],[1.4,6500],[1.4,6583],[1.4,6666],[1.4,6750],[1.4,6834],[1.4,6916],[1.4,7000],[1.4,7083],[1.4,7166],[1.4,7250],[1.4,7333],[1.4,7416],[1.4,7500],[1.4,7583],[1.4,7667],[1.4,7750],[1.4,7833],[1.4,7916],[1.4,8000],[1.4,8083],[1.4,8167],[1.4,8250],[1.4,8333],[1.4,8416],[1.4,8499],[1.4,8583],[1.4,8666],[1.4,8750],[1.4,8833],[1.4,8916],[1.4,9000],[1.4,9083],[1.4,9166],[1.4,9250],[1.4,9333],[1.4,9416],[1.4,9500],[1.4,9583],[1.4,9666],[1.4,9750],[1.4,9833],[1.4,9916],[1.4,10000],[1.4,10083],[1.4,10166],[1.4,10250],[1.4,10333],[1.4,10416],[1.4,10500],[1.4,10583],[1.4,10666],[1.4,10749],[1.4,10833],[1.4,10916],[1.4,10999],[1.4,11083],[1.4,11166],[1.4,11250],[1.4,11333],[1.4,11416],[1.4,11500],[1.4,11583],[1.4,11666],[1.4,11750],[1.4,11833],[1.4,11916],[1.4,11999],[1.4,12083],[1.4,12166],[1.4,12250],[1.4,12333],[1.4,12416],[1.4,12499],[1.4,12583],[1.4,12666],[1.4,12749],[1.4,12833],[1.4,12916],[1.4,13000],[1.4,13083],[1.4,13166],[1.4,13250],[1.4,13333],[1.4,13416],[1.4,13500],[1.4,13583],[1.4,13667],[1.4,13750],[1.4,13833],[1.4,13916],[1.4,14000],[1.4,14083],[1.4,14166],[1.4,14250],[1.4,14333],[1.4,14416],[1.4,14500],[1.4,14583],[1.4,14667],[1.4,14750],[1.4,14833],[1.4,14916],[1.4,15001],[1.4,15085],[1.4,15166],[1.4,15250],[1.4,15333],[1.4,15416],[1.4,15500],[1.4,15583],[1.4,15666],[1.4,15750],[1.4,15833],[1.4,15917],[1.4,15999],[1.4,16083],[1.4,16167],[1.4,16250],[1.4,16333],[1.4,16416],[1.4,16500],[1.4,16583],[1.4,16666],[1.4,16750],[1.4,16833],[1.4,16917],[1.4,16999],[1.4,17083],[1.4,17166]]",1,0,330.7604,333.4936,0.833334923,2.3193,"[{""rating"":0.8333349227905296,""responseTime"":2.3193000000715074}]",space,2.1994,,333.4937,Not at all,0,333.4989,,,[],,0,7,7,7,1,audio/Narrative7Situation7.wav,audio/Narrative8Situation7.wav,audio/Narrative5Situation7.wav,audio/Narrative6Situation7.wav,5,3,4,5,,,,,,,,,,,,,,,,,,,,,,,,,,,,,,,,,,,,,,,
,,,,,,61146b55c0d8a78134afc566,2024-02-08_13h00.21.581,group3.1-3.2-social-tom,2023.2.2,Win32,59.88023952,65c5074098b851296ff0b7ed,65c5161538f107ed1a6acce7,,,,,,,,,,,,,,,,,,,,,,,,,,,,,333.4994,1,audio/Narrative7Situation8.wav,335.5094,,335.5094,345.5264,"[[0.3,2249],[0.3,2333],[0.3,2417],[0.3,2500],[0.3,2582],[0.3,2666],[0.3,2750],[0.3,2832],[0.3,2916],[0.3,3000],[0.3,3083],[0.3,3167],[0.3,3249],[0.3,3333],[0.3,3416],[0.3,3500],[0.3,3583],[0.3,3666],[0.3,3750],[0.3,3833],[0.3,3916],[0.3,3999],[0.3,4083],[0.3,4166],[0.3,4249],[0.3,4332],[0.3,4416],[0.3,4500],[0.3,4583],[0.3,4666],[0.3,4750],[0.3,4833],[0.3,4917],[0.3,4999],[0.3,5083],[0.3,5166],[0.3,5250],[0.3,5332],[0.3,5416],[0.3,5499],[0.3,5582],[0.3,5667],[0.3,5750],[0.3,5833],[0.3,5916],[0.3,6000],[0.3,6084],[0.3,6166],[0.3,6250],[0.3,6334],[0.3,6416],[0.3,6500],[0.3,6582],[0.3,6666],[0.3,6750],[0.3,6833],[0.3,6916],[0.3,6999],[0.3,7082],[0.3,7166],[0.3,7249],[0.3,7333],[0.3,7416],[0.3,7499],[0.3,7583],[0.3,7666],[0.3,7749],[0.3,7832],[0.3,7916],[0.3,8000],[0.3,8083],[0.3,8166],[0.3,8250],[0.3,8332],[0.3,8416],[0.3,8499],[0.3,8583],[0.3,8666],[0.3,8749],[0.3,8833],[0.3,8916],[0.3,9000],[3,9083],[4,9168],[6.4,9250],[8,9332],[8.1,9416],[8.1,9499],[8.1,9583],[8.1,9666],[8.1,9750],[8.2,9832],[8.2,9915],[8.2,9999]]",1,0,345.5271,347.8938,10.10416985,1.6548,"[{""rating"":10.104169845581056,""responseTime"":1.6548000000714183}]",space,1.8304,,347.8939,All the time,100,347.8987,,,[],,0,8,8,8,1,audio/Narrative7Situation8.wav,audio/Narrative8Situation8.wav,audio/Narrative5Situation8.wav,audio/Narrative6Situation8.wav,2,3,3,5,,,,,,,,,,,,,,,,,,,,,,,,,,,,,,,,,,,,,,,
,,,,,,61146b55c0d8a78134afc566,2024-02-08_13h00.21.581,group3.1-3.2-social-tom,2023.2.2,Win32,59.88023952,65c5074098b851296ff0b7ed,65c5161538f107ed1a6acce7,,,,,,,,,,,,,,,,,,,,,,,,,,,,,347.8991,1,audio/Narrative7Situation9.wav,349.9086,,349.9088,358.5428,"[[10.9,83],[4.2,166],[2.6,249],[2.7,333],[2.4,417],[1.1,499],[1,584],[0.7,668],[0.1,750],[0.1,835],[0.1,916],[0.1,1000],[0.1,1083],[0.1,1166],[0.1,1250],[0.1,1333],[0.1,1416],[0.1,1500],[0.1,1584],[0.1,1666],[0.1,1751],[0.1,1833],[0.1,1916],[0.1,2000],[0.1,2083],[0.1,2166],[0.1,2250],[0.1,2333],[0.1,2416],[0.1,2500],[0.1,2583],[0.1,2666],[0.1,2750],[0.1,2833],[0.1,2916],[0.1,3000],[0.1,3083],[0.1,3166],[0.1,3250],[0.1,3333],[0.1,3416],[0.1,3500],[0.1,3583],[0.1,3666],[0.1,3750],[0.1,3833],[0.1,3916],[0.1,3999],[0.5,4083],[8.8,4166],[14,4250],[17.8,4333],[20.5,4416],[22.1,4500],[28.5,4582],[35.5,4666],[41.4,4750],[42.1,4833],[42.1,4916],[42.1,4999],[42.6,5083],[45.5,5167],[46.8,5249],[49.7,5334],[49.9,5416],[50,5499],[50,5583],[50,5666],[50,5750],[50,5833],[50,5916],[50,6000],[50,6083],[50,6166],[50,6250],[50,6333],[50,6416],[50,6500],[50,6583],[50,6666],[50,6750],[50,6833],[50,6916],[50,7000],[50,7084],[50,7166],[50,7250],[50,7333],[50,7416],[50,7500],[50,7583],[50,7666],[50,7749],[50,7833],[50,7918],[50,8000],[50,8083],[50,8166],[50,8250],[50,8333],[50,8416],[50,8500],[50,8583]]",1,0,358.543,360.8261,50.52083969,2.0554,"[{""rating"":50.52083969116211,""responseTime"":2.055399999976089}]",space,1.7421,,360.8263,Half the time,50,360.8302,,,[],,0,9,9,9,1,audio/Narrative7Situation9.wav,audio/Narrative8Situation9.wav,audio/Narrative5Situation9.wav,audio/Narrative6Situation9.wav,2,3,3,4,,,,,,,,,,,,,,,,,,,,,,,,,,,,,,,,,,,,,,,
,,,,,,61146b55c0d8a78134afc566,2024-02-08_13h00.21.581,group3.1-3.2-social-tom,2023.2.2,Win32,59.88023952,65c5074098b851296ff0b7ed,65c5161538f107ed1a6acce7,,,,,,,,,,,,,,,,,,,,,,,,,,,,,360.8304,1,audio/Narrative8Situation1.wav,365.843,,365.8433,381.7759,"[[999,13],[999,81],[999,165],[999,249],[999,332],[999,415],[999,499],[999,581],[1.4,666],[1.9,13498],[2.7,13582],[3.8,13665],[5.4,13749],[7.9,13831],[9.1,13916],[9.4,13998],[9.4,14082],[9.4,14165],[9.4,14249],[9.4,14331],[9.4,14415],[9.4,14498],[9.4,14582],[9.4,14665],[9.4,14748],[9.4,14832],[9.4,14915],[9.4,14998],[9.4,15082],[9.4,15165],[9.4,15249],[9.4,15332],[9.4,15415],[9.4,15498],[9.5,15583],[9.5,15665],[9.5,15748],[9.5,15832],[9.5,15915]]",1,0,381.7762,385.8428,9.479169846,1.0094,"[{""rating"":9.479169845581053,""responseTime"":1.0093999999761536}]",space,3.5328,,385.8429,All the time,100,385.8576,,,[],,0,10,10,10,1,audio/Narrative8Situation1.wav,audio/Narrative7Situation1.wav,audio/Narrative6Situation1.wav,audio/Narrative5Situation1.wav,5,2,2,5,,,,,,,,,,,,,,,,,,,,,,,,,,,,,,,,,,,,,,,
,,,,,,61146b55c0d8a78134afc566,2024-02-08_13h00.21.581,group3.1-3.2-social-tom,2023.2.2,Win32,59.88023952,65c5074098b851296ff0b7ed,65c5161538f107ed1a6acce7,,,,,,,,,,,,,,,,,,,,,,,,,,,,,385.858,1,audio/Narrative8Situation2.wav,388.8602,,388.8603,398.9762,"[[7.3,2916],[6.1,2999],[7.2,3082],[8.6,3165],[8.9,3249],[8.9,3332],[8.9,3415],[8.9,3499],[8.9,3581],[8.9,3665],[8.9,3748],[8.9,3831],[8.9,3915],[8.9,3999],[8.9,4082],[8.9,4165],[8.9,4249],[8.9,4332],[8.9,4415],[8.9,4499],[8.9,4581],[8.9,4665],[8.9,4749],[8.9,4832],[8.9,4915],[8.9,4999],[8.9,5081],[8.9,5164],[8.9,5247],[8.9,5331],[8.9,5414],[8.9,5498],[8.9,5580],[8.9,5664],[8.9,5747],[8.9,5830],[8.9,5914],[8.9,5997],[8.9,6081],[8.9,6164],[8.9,6247],[8.9,6332],[8.9,6416],[8.9,6500],[8.9,6581],[8.9,6664],[8.9,6748],[17.1,6831],[26.6,6914],[34.1,6998],[37.1,7081],[37.2,7165],[39.9,7247],[41.9,7332],[41.9,7414],[41.9,7497],[41.9,7581],[41.9,7664],[41.9,7748],[41.9,7831],[41.9,7915],[41.9,7998],[41.9,8081],[41.9,8165],[40.8,8248],[40.1,8330],[40.1,8415],[40.1,8498],[40.1,8581],[40.1,8664],[40.1,8748],[40.1,8831],[40.1,8914],[40.1,8998],[40.1,9081],[40.1,9164],[40.1,9248],[40.1,9330],[40.1,9414],[40.1,9497],[40.1,9581],[40.1,9664],[40.1,9747],[40.1,9830],[40.1,9914],[40.1,9997],[40,10081]]",1,0,398.9766,400.6253,40.41666985,1.2259,"[{""rating"":40.416669845581055,""responseTime"":1.2259000000954074}]",space,1.1166,,400.6254,Not at all,0,400.6308,,,[],,0,11,11,11,1,audio/Narrative8Situation2.wav,audio/Narrative7Situation2.wav,audio/Narrative6Situation2.wav,audio/Narrative5Situation2.wav,3,3,3,3,,,,,,,,,,,,,,,,,,,,,,,,,,,,,,,,,,,,,,,
,,,,,,61146b55c0d8a78134afc566,2024-02-08_13h00.21.581,group3.1-3.2-social-tom,2023.2.2,Win32,59.88023952,65c5074098b851296ff0b7ed,65c5161538f107ed1a6acce7,,,,,,,,,,,,,,,,,,,,,,,,,,,,,400.6311,1,audio/Narrative8Situation3.wav,404.6411,,404.6412,427.0082,"[[3.9,750],[4.2,2000],[7.8,2083],[12.9,2166],[24.9,2250],[31.5,2333],[31.5,2417],[31.5,2500],[37.2,2582],[45.6,2666],[45.9,2750],[45.9,2833],[45.9,2917],[45.9,2999],[45.9,3082],[45.9,3168],[44.3,3250],[44.2,3333],[42.9,3417],[35.5,3500],[33.3,3583],[33.4,3668],[39,3750],[41.5,3833],[44.6,3917],[45.8,4000],[45.9,4083],[45.9,4167],[45.9,4250],[45.9,4333],[45.9,4416],[45.9,4500],[45.9,4583],[45.9,4666],[45.9,4750],[45.9,4833],[45.9,4916],[45.9,5000],[45.9,5083],[50,5166],[53.3,5251],[56.3,5333],[60.8,5417],[62.1,5500],[62.2,5584],[62.2,5666],[62.1,5750],[62.1,5833],[62,5917],[62,5999],[62,6083],[62,6167],[62,6249],[62,6333],[62,6417],[62,6500],[62,6583],[62,6667],[62,6750],[62,6833],[62,6917],[62,7000],[62,7083],[62,7167],[62,7250],[62,7333],[62,7417],[62,7500],[62,7583],[62,7667],[62,7750],[62,7833],[62,7917],[62,8000],[62,8083],[62,8167],[62,8250],[62,8333],[62,8417],[62,8500],[62,8583],[62,8667],[62,8750],[62,8833],[62,8917],[62,8999],[62,9083],[62,9167],[62,9250],[62,9333],[62,9417],[62,9500],[62,9583],[62,9666],[62,9750],[62,9833],[62,9916],[62,9999],[62,10083],[62,10167],[62,10251],[62,10333],[62,10418],[62,10499],[62,10583],[62,10667],[62,10749],[62,10833],[68.6,10917],[69.1,10999],[69.4,11083],[69.4,11166],[69.4,11249],[69.4,11334],[69.4,11417],[69.4,11500],[69.4,11583],[69.4,11667],[69.4,11750],[69.4,11832],[69.4,11917],[69.4,12000],[69.4,12082],[69.4,12167],[69.4,12250],[69.4,12333],[69.4,12416],[69.4,12500],[69.4,12583],[69.4,12667],[69.4,12750],[69.4,12833],[69.4,12916],[69.4,12999],[69.4,13083],[69.4,13167],[69.4,13250],[69.4,13333],[69.4,13416],[69.4,13500],[69.4,13583],[69.4,13667],[69.4,13750],[69.4,13833],[69.4,13917],[69.4,14000],[69.4,14082],[69.4,14166],[69.4,14250],[69.4,14333],[69.4,14417],[69.4,14500],[69.4,14583],[69.4,14667],[69.4,14750],[69.4,14833],[69.4,14916],[69.4,15000],[69.4,15083],[69.4,15167],[69.4,15250],[69.4,15332],[69.4,15416],[69.4,15500],[69.4,15583],[69.4,15666],[69.4,15750],[69.4,15833],[69.4,15917],[69.4,15999],[69.4,16083],[69.4,16167],[69.4,16250],[69.4,16333],[69.4,16416],[69.4,16499],[69.4,16583],[69.4,16666],[69.4,16750],[69.4,16833],[69.4,16917],[69.4,17000],[69.4,17083],[69.4,17167],[69.4,17249],[69.4,17333],[69.4,17417],[69.4,17500],[69.4,17583],[69.4,17667],[69.4,17750],[69.4,17833],[69.4,17917],[69.4,18000],[69.4,18083],[69.4,18167],[69.4,18250],[69.4,18333],[69.4,18417],[69.4,18500],[69.4,18583],[69.4,18667],[69.4,18750],[69.4,18833],[69.4,18917],[69.4,18999],[69.4,19083],[69.4,19166],[69.4,19250],[69.4,19333],[69.4,19416],[69.4,19499],[69.4,19582],[69.4,19667],[69.4,19749],[69.4,19833],[69.4,19917],[69.4,19999],[69.4,20083],[69.4,20167],[69.4,20250],[69.4,20332],[69.4,20416],[69.4,20500],[69.4,20583],[69.4,20667],[69.4,20750],[69.4,20833],[69.4,20917],[69.4,20999],[69.4,21083],[69.4,21167],[69.4,21249],[69.4,21333],[69.4,21417],[69.4,21499],[69.4,21583],[69.4,21667],[69.4,21750],[69.4,21833],[69.4,21917],[69.4,21999],[69.4,22083],[69.4,22167],[69.4,22249],[69.4,22333]]",1,0,427.0088,428.8244,69.6875,1.4589,"[{""rating"":69.6875,""responseTime"":1.458899999976211}]",space,1.2671,,428.8245,All the time,100,428.8279,,,[],,0,12,12,12,1,audio/Narrative8Situation3.wav,audio/Narrative7Situation3.wav,audio/Narrative6Situation3.wav,audio/Narrative5Situation3.wav,4,8,5,3,,,,,,,,,,,,,,,,,,,,,,,,,,,,,,,,,,,,,,,
,,,,,,61146b55c0d8a78134afc566,2024-02-08_13h00.21.581,group3.1-3.2-social-tom,2023.2.2,Win32,59.88023952,65c5074098b851296ff0b7ed,65c5161538f107ed1a6acce7,,,,,,,,,,,,,,,,,,,,,,,,,,,,,428.8282,1,audio/Narrative8Situation4.wav,431.8415,,431.8416,446.0243,"[[999,13],[999,82],[999,166],[999,249],[999,332],[999,416],[999,499],[999,582],[999,666],[999,752],[999,832],[9.6,7748],[14.6,7832],[19.1,7916],[19.6,7999],[19.6,8082],[19.6,8166],[19.6,8249],[19.6,8332],[19.6,8416],[19.6,8498],[19.6,8582],[19.6,8666],[19.6,8749],[19.6,8832],[19.6,8916],[19.6,8999],[19.6,9082],[19.6,9165],[19.6,9249],[19.6,9332],[19.6,9416],[19.6,9499],[19.6,9582],[19.6,9666],[19.6,9749],[19.6,9832],[19.6,9915],[20.2,9998],[25.8,10083],[27.8,10166],[28.8,10249],[30.3,10332],[30.6,10416],[30.6,10498],[30.6,10582],[32.6,10667],[36.6,10749],[41.5,10832],[43.4,10915],[45.8,10999],[49.9,11082],[52.2,11166],[53.8,11249],[54.4,11332],[54.7,11416],[54.7,11499],[54.7,11582],[54.7,11666],[54.7,11749],[54.7,11832],[54.7,11915],[54.7,11999],[54.7,12082],[54.7,12166],[54.7,12249],[54.7,12332],[54.7,12416],[54.7,12499],[54.7,12582],[54.7,12665],[54.7,12749],[54.7,12832],[57.4,12915],[57.5,12999],[57.5,13083],[57.5,13165],[57.5,13248],[57.5,13332],[57.5,13415],[57.5,13499],[57.5,13583],[57.5,13666],[57.5,13748],[57.5,13832],[57.5,13915],[57.5,13998],[57.5,14082],[57.5,14165]]",1,0,446.0246,449.0245,59.375,2.2138,"[{""rating"":59.375,""responseTime"":2.213799999952357}]",space,2.4684,,449.0246,All the time,100,449.0281,,,[],,0,13,13,13,1,audio/Narrative8Situation4.wav,audio/Narrative7Situation4.wav,audio/Narrative6Situation4.wav,audio/Narrative5Situation4.wav,3,3,2,1,,,,,,,,,,,,,,,,,,,,,,,,,,,,,,,,,,,,,,,
,,,,,,61146b55c0d8a78134afc566,2024-02-08_13h00.21.581,group3.1-3.2-social-tom,2023.2.2,Win32,59.88023952,65c5074098b851296ff0b7ed,65c5161538f107ed1a6acce7,,,,,,,,,,,,,,,,,,,,,,,,,,,,,449.0288,1,audio/Narrative8Situation5.wav,451.0419,,451.042,459.2909,"[[54.4,1914],[42.1,1997],[38.3,2082],[37,2164],[36.4,2248],[35.4,2331],[35.1,2414],[34.2,2498],[32.3,2582],[31.7,2666],[31.7,2748],[31.7,2832],[31.7,2915],[31.7,2998],[31.7,3082],[31.7,3165],[31.7,3248],[31.7,3331],[34.9,3416],[37.8,3498],[38,3582],[38.1,3665],[38.1,3748],[38.1,3832],[38.4,3914],[38.4,3998],[38.4,4081],[38.4,4165],[38.4,4248],[38.4,4331],[38.4,4415],[38.4,4498],[38.4,4581],[42.8,4665],[46.9,4747],[47.2,4831],[47.2,4915],[48.6,4998],[50.9,5081],[50.9,5166],[50.9,5248],[50.9,5332],[50.9,5415],[50.9,5498],[50.9,5582],[50.9,5665],[50.9,5748],[50.9,5831],[50.9,5915],[50.9,5998],[50.9,6081],[50.9,6164],[50.9,6248],[50.9,6331],[50.9,6415],[50.9,6498],[50.9,6581],[50.9,6666],[50.9,6749],[50.9,6831],[50.9,6915],[50.9,6998],[51.6,7082],[52.2,7164],[52.2,7248],[52.4,7332],[52.8,7414],[53.1,7498],[53.1,7581],[53.4,7665],[53.6,7748],[53.6,7832],[53.6,7915],[53.6,7998],[53.6,8081],[53.6,8165],[53.6,8248]]",1,0,459.291,461.2905,92.5,1.6738,"[{""rating"":92.5,""responseTime"":1.6737999999523936}]",space,1.4514,,461.2908,All the time,100,461.2938,,,[],,0,14,14,14,1,audio/Narrative8Situation5.wav,audio/Narrative7Situation5.wav,audio/Narrative6Situation5.wav,audio/Narrative5Situation5.wav,2,5,2,5,,,,,,,,,,,,,,,,,,,,,,,,,,,,,,,,,,,,,,,
,,,,,,61146b55c0d8a78134afc566,2024-02-08_13h00.21.581,group3.1-3.2-social-tom,2023.2.2,Win32,59.88023952,65c5074098b851296ff0b7ed,65c5161538f107ed1a6acce7,,,,,,,,,,,,,,,,,,,,,,,,,,,,,461.2942,1,audio/Narrative8Situation6.wav,463.3075,,463.3076,469.7907,"[[89.8,2582],[75.1,2665],[51.4,3165],[53.4,3250],[53.4,3332],[51.4,3416],[50.8,3498],[50.8,3582],[50.7,3666],[50.7,3749],[50.7,3832],[50.7,3916],[50.7,4000],[50.7,4082],[50.7,4166],[50.7,4249],[50.7,4332],[50.7,4416],[50.7,4499],[50.7,4582],[50.7,4666],[50.7,4749],[50.7,4832],[50.7,4916],[50.7,4999],[50.7,5082],[50.7,5166],[50.7,5249],[50.7,5332],[50.7,5416],[50.7,5499],[50.7,5582],[50.7,5666],[50.7,5749],[50.7,5832],[50.7,5916],[50.7,5999],[50.7,6082],[50.7,6166],[50.7,6249],[50.7,6332],[50.7,6416]]",1,0,469.7909,472.2237,79.0625,1.631,"[{""rating"":79.0625,""responseTime"":1.6309999999999718}]",space,1.891,,472.2237,Half the time,50,472.2274,,,[],,0,15,15,15,1,audio/Narrative8Situation6.wav,audio/Narrative7Situation6.wav,audio/Narrative6Situation6.wav,audio/Narrative5Situation6.wav,2,3,2,3,,,,,,,,,,,,,,,,,,,,,,,,,,,,,,,,,,,,,,,
,,,,,,61146b55c0d8a78134afc566,2024-02-08_13h00.21.581,group3.1-3.2-social-tom,2023.2.2,Win32,59.88023952,65c5074098b851296ff0b7ed,65c5161538f107ed1a6acce7,,,,,,,,,,,,,,,,,,,,,,,,,,,,,472.2276,1,audio/Narrative8Situation7.wav,475.2402,,475.2403,487.3237,"[[78,1000],[76.5,1083],[75.5,1168],[74.2,1250],[73.9,1333],[73.9,1416],[73.9,1500],[73.9,1583],[73.9,1667],[73.9,1749],[73.9,1833],[73.9,1917],[73.9,1999],[73.9,2083],[73.9,2166],[73.9,2249],[73.9,2333],[73.9,2416],[73.9,2499],[73.9,2583],[73.9,2667],[73.9,2750],[73.9,2833],[73.9,2916],[73.9,2999],[73.9,3083],[73.9,3166],[73.9,3250],[73.9,3333],[73.9,3416],[73.9,3500],[73.9,3583],[73.9,3666],[73.9,3750],[73.9,3833],[73.9,3917],[73.9,3999],[73.9,4083],[73.9,4167],[73.9,4250],[73.9,4333],[73.9,4416],[73.9,4499],[73.9,4582],[66,4666],[56.7,4749],[55.6,4833],[55.6,4916],[55.6,5000],[55.6,5083],[55.6,5166],[55.6,5249],[55.6,5332],[54,5417],[53.5,5499],[53.3,5583],[53.2,5667],[53,5749],[52.9,5833],[52.9,5916],[52.7,5999],[52.4,6082],[52.3,6166],[52.3,6249],[52,6332],[51.7,6415],[51.7,6499],[51.5,6583],[51.5,6666],[51.5,6749],[51.4,6833],[50.7,6916],[50.5,7000],[49.8,7083],[48.5,7167],[47.6,7249],[47.1,7332],[46.4,7417],[45.5,7500],[44.8,7582],[44.8,7666],[44.8,7750],[44.8,7833],[44.8,7916],[44.8,8000],[44.8,8083],[44.8,8167],[44.8,8249],[44.8,8332],[44.8,8416],[44.8,8499],[44.8,8582],[44.8,8666],[44.2,8750],[43,8833],[42.6,8916],[42.6,8999],[42.4,9082],[42.4,9165],[42.4,9250],[42.8,9333],[43.8,9416],[44.3,9500],[45,9583],[45.8,9665],[46.8,9750],[46.9,9833],[46.9,9917],[46.9,9999],[46.9,10083],[46.9,10166],[46.9,10249],[46.9,10332],[46.9,10417],[46.9,10499],[46.9,10582],[46.9,10666],[46.9,10749],[46.9,10833],[46.9,10917],[46.9,10999],[46.9,11082],[46.9,11166],[46.9,11249],[46.9,11333],[46.9,11416],[46.9,11499],[46.9,11583],[44,11665],[39.5,11749],[35.8,11833],[33.3,11917],[32.9,11999],[32.6,12082]]",1,0,487.3239,489.0903,32.39583969,1.1901,"[{""rating"":32.39583969116211,""responseTime"":1.1901000000239037}]",space,1.2342,,489.0903,Not at all,0,489.094,,,[],,0,16,16,16,1,audio/Narrative8Situation7.wav,audio/Narrative7Situation7.wav,audio/Narrative6Situation7.wav,audio/Narrative5Situation7.wav,3,5,5,4,,,,,,,,,,,,,,,,,,,,,,,,,,,,,,,,,,,,,,,
,,,,,,61146b55c0d8a78134afc566,2024-02-08_13h00.21.581,group3.1-3.2-social-tom,2023.2.2,Win32,59.88023952,65c5074098b851296ff0b7ed,65c5161538f107ed1a6acce7,,,,,,,,,,,,,,,,,,,,,,,,,,,,,489.0943,1,audio/Narrative8Situation8.wav,492.1069,,492.107,504.9742,"[[14.6,12416],[2.8,12499],[0.8,12582],[0.8,12665],[0.8,12749],[0.4,12833]]",1,0,504.9744,506.957,0.416669846,1.3336,"[{""rating"":0.41666984558105247,""responseTime"":0.19870000004766553},{""rating"":0.41666984558105247,""responseTime"":1.3336000000238073}]",space,1.4367,,506.9577,Half the time,50,506.9632,,,[],,0,17,17,17,1,audio/Narrative8Situation8.wav,audio/Narrative7Situation8.wav,audio/Narrative6Situation8.wav,audio/Narrative5Situation8.wav,3,2,5,3,,,,,,,,,,,,,,,,,,,,,,,,,,,,,,,,,,,,,,,
,,,,,,61146b55c0d8a78134afc566,2024-02-08_13h00.21.581,group3.1-3.2-social-tom,2023.2.2,Win32,59.88023952,65c5074098b851296ff0b7ed,65c5161538f107ed1a6acce7,,,,,,,,,,,,,,,,,,,,,,,,,,,,,506.9637,1,audio/Narrative8Situation9.wav,509.9732,,509.9737,521.3087,[],1,0,521.3088,523.8398,0.416669846,1.4885,"[{""rating"":0.41666984558105247,""responseTime"":0.8406000000237555},{""rating"":0.41666984558105247,""responseTime"":1.03449999999998},{""rating"":0.41666984558105247,""responseTime"":1.4884999999999309}]",space,1.9864,,523.8398,Not at all,0,533.2404,0.416669846,8.2731,"[{""rating"":0.41666984558105247,""responseTime"":8.273100000023874}]",space,0,18,18,18,1,audio/Narrative8Situation9.wav,audio/Narrative7Situation9.wav,audio/Narrative6Situation9.wav,audio/Narrative5Situation9.wav,3,2,4,3,,,8.8566,,,,,,,,,,,,,,,,,,,,,,,,,,,,,,,,,,,,
,,,,,,61146b55c0d8a78134afc566,2024-02-08_13h00.21.581,group3.1-3.2-social-tom,2023.2.2,Win32,59.88023952,65c5074098b851296ff0b7ed,65c5161538f107ed1a6acce7,,,,,,,,,,,,,,,,,,,,,,,,,,,538.4518,541.0223,541.0334,2,audio/Narrative13Situation2.wav,541.0335,,541.0335,570.7723,"[[999,0],[999,72],[999,155],[999,239],[999,322],[999,405],[999,488],[999,571],[999,655],[999,739],[999,822],[5.2,2572],[37.7,2655],[39.4,2738],[39.4,2822],[39.4,2904],[39.4,2989],[45,3072],[45.2,3155],[45.2,3238],[45.2,3322],[45.2,3405],[45.2,3489],[45.2,3573],[45.2,3654],[47.4,3739],[48,3822],[48,3904],[48,3989],[48,4072],[48,4155],[48,4238],[48,4322],[48,4404],[48,4488],[48.8,4572],[49.3,4655],[49.5,4738],[49.7,4821],[49.7,4905],[49.9,4988],[49.9,5072],[49.9,5155],[49.9,5239],[49.9,5322],[49.9,5405],[49.9,5488],[49.9,5572],[49.9,5655],[49.9,5739],[49.9,5822],[49.9,5905],[49.9,5989],[49.9,6072],[49.9,6154],[49.9,6238],[49.9,6322],[49.9,6405],[49.9,6488],[49.9,6572],[49.9,6655],[49.9,6738],[49.9,6822],[49.9,6905],[49.9,6989],[49.9,7071],[49.9,7154],[49.9,7239],[49.9,7322],[49.9,7405],[49.9,7488],[49.9,7572],[49.9,7655],[49.9,7738],[49.9,7822],[49.9,7905],[49.9,7988],[49.9,8072],[49.9,8155],[49.9,8238],[49.9,8322],[49.9,8405],[49.9,8489],[49.9,8572],[49.9,8655],[49.9,8738],[49.9,8822],[49.9,8905],[49.9,8988],[49.9,9072],[49.9,9155],[49.9,9238],[49.9,9321],[49.9,9405],[49.9,9489],[49.9,9572],[49.9,9655],[49.9,9738],[49.9,9822],[49.9,9905],[49.9,9988],[49.9,10072],[49.9,10155],[49.9,10239],[49.9,10322],[49.9,10405],[49.9,10488],[49.9,10572],[49.9,10655],[49.9,10738],[49.9,10822],[49.9,10905],[49.9,10989],[49.9,11072],[49.9,11155],[49.9,11238],[49.9,11322],[49.9,11405],[49.9,11488],[49.9,11572],[49.9,11655],[49.9,11738],[49.9,11822],[49.9,11905],[49.9,11988],[49.9,12072],[49.9,12155],[49.9,12238],[49.9,12322],[49.9,12404],[49.9,12488],[49.9,12572],[49.9,12655],[49.9,12738],[49.9,12822],[49.9,12905],[49.9,12988],[49.9,13072],[49.9,13155],[49.9,13238],[49.9,13322],[49.9,13405],[49.9,13488],[49.9,13572],[49.9,13655],[49.9,13738],[49.9,13822],[49.9,13905],[49.9,13989],[49.9,14071],[49.9,14155],[49.9,14238],[49.9,14321],[49.9,14405],[49.9,14488],[49.9,14572],[49.9,14655],[49.9,14738],[49.9,14822],[49.9,14905],[49.9,14988],[49.9,15072],[49.9,15155],[49.9,15239],[49.9,15321],[49.9,15405],[49.9,15488],[49.9,15571],[49.9,15655],[49.9,15738],[49.9,15822],[49.9,15905],[49.9,15989],[49.9,16072],[49.9,16155],[49.9,16238],[49.9,16322],[49.9,16405],[49.9,16489],[49.9,16572],[49.9,16655],[49.9,16738],[49.9,16822],[49.9,16905],[49.9,16988],[49.9,17072],[49.9,17155],[49.9,17238],[49.9,17322],[49.9,17405],[49.9,17488],[49.9,17572],[49.9,17655],[49.9,17739],[49.9,17822],[49.9,17905],[49.9,17988],[49.9,18071],[49.9,18155],[49.9,18238],[49.9,18322],[49.9,18404],[49.9,18488],[49.9,18572],[49.9,18655],[49.9,18738],[49.9,18822],[49.9,18905],[49.9,18988],[49.9,19072],[49.9,19155],[49.9,19238],[49.9,19322],[49.9,19405],[49.9,19488],[49.9,19572],[49.9,19655],[49.9,19738],[49.9,19822],[49.9,19905],[49.9,19988],[49.9,20071],[49.9,20155],[49.9,20238],[49.9,20322],[49.9,20405],[49.9,20488],[48.5,20571],[44.7,20655],[41.1,20738],[39.2,20823],[38.2,20905],[33.8,20989],[32,21073],[31.7,21155],[31.1,21239],[31.1,21322],[31.1,21405],[31.1,21488],[31.1,21572],[31.1,21655],[31.1,21738],[31.1,21822],[31.1,21905],[31.1,21988],[31.1,22072],[31.1,22155],[31.1,22238],[31.1,22321],[31.1,22405],[31.1,22488],[31.1,22572],[31.1,22655],[31.1,22738],[31.1,22822],[31.1,22906],[31.1,22988],[31.1,23072],[31.1,23157],[31.1,23238],[31.1,23322],[31.1,23404],[31.1,23488],[31.1,23572],[31.1,23655],[31.1,23739],[31,23822],[30.2,23906],[29.6,23989],[29.5,24071],[29.5,24155],[29.5,24238],[29.5,24321],[29.5,24405],[29.5,24488],[29.5,24571],[29.5,24655],[29.5,24739],[29.5,24822],[29.5,24906],[29.5,24988],[29.5,25071],[29.5,25154],[29.5,25238],[29.5,25322],[29.5,25405],[29.5,25488],[29.5,25571],[29.5,25655],[29.5,25738],[29.5,25822],[29.5,25905],[29.5,25988],[29.5,26071],[29.5,26155],[29.5,26238],[29.5,26321],[29.5,26405],[29.5,26488],[29.5,26571],[29.5,26655],[29.5,26738],[29.5,26822],[29.5,26905],[29.5,26988],[29.5,27072],[29.5,27155],[29.5,27238],[29.5,27322],[29.5,27405],[29.5,27488],[29.5,27572],[29.5,27655],[29.5,27738],[29.5,27821],[29.5,27905],[29.5,27988],[29.5,28071],[29.5,28155],[29.5,28238],[29.5,28321],[29.5,28405],[29.5,28488],[29.5,28571],[29.5,28654],[29.5,28738],[29.5,28822],[29.5,28906],[29.5,28988],[29.5,29071],[29.5,29155],[29.5,29238],[29.5,29322],[29.5,29405],[29.5,29487],[29.5,29571],[29.5,29655],[29.5,29738]]",1,0,570.7733,570.7893,,,[],,,,570.7893,All the time,100,570.7916,,,[],,0,0,0,0,1,audio/Narrative13Situation2.wav,audio/Narrative13Situation2.wav,audio/Narrative13Situation2.wav,audio/Narrative13Situation2.wav,2,2,2,2,,,,,533.2418,538.4408,space,4.6689,,,,,,,,,,,,,,,,,,,,,,,,,,,,,,,
,,,,,,61146b55c0d8a78134afc566,2024-02-08_13h00.21.581,group3.1-3.2-social-tom,2023.2.2,Win32,59.88023952,65c5074098b851296ff0b7ed,65c5161538f107ed1a6acce7,,,,,,,,,,,,,,,,,,,,,,,,,,,,,570.7918,2,audio/Narrative5Situation1.wav,575.8056,,575.8058,589.1056,"[[28.1,3915],[25.4,4000],[24.2,4084],[23.9,4165],[23.5,4249],[22.2,4332],[21.8,4416],[21.8,4499],[21.8,4582],[21.8,4666],[21.8,4749],[9.4,4832],[6.4,4917],[4.3,5000],[3.3,5083],[1.9,5167],[1.5,5915],[2.5,5998],[2.8,6082],[2.8,6165],[3,6248],[4.8,6331],[5.6,6415],[5.6,6499],[5.6,6583],[5.6,6666],[5.6,6749],[5.6,6833],[5.6,6916],[5.6,6999],[5.6,7082],[5.6,7165],[5.6,7248],[5.6,7331],[5.6,7415],[5.6,7498],[5.6,7581],[5.6,7665],[5.6,7748],[5.6,7831],[5.6,7915],[5.6,7998],[5.6,8082],[5.6,8165],[5.6,8249],[5.6,8333],[5.6,8415],[6.5,8499],[24.9,8582],[40,8666],[45.3,8749],[45.3,8831],[45.3,8916],[45.3,8998],[50.2,9082],[55.3,9165],[62.1,9248],[64.4,9333],[67.1,9416],[68.5,9498],[68.5,9582],[68.5,9666],[68.5,9749],[68.5,9832],[68.5,9915],[68.5,9999],[68.5,10083],[68.5,10165],[68.5,10249],[68.5,10333],[68.5,10415],[68.5,10499],[68.5,10583],[68.5,10666],[68.5,10749],[68.5,10833],[68.5,10916],[68.5,10999],[68.5,11082],[68.5,11166],[68.5,11249],[68.5,11332],[68.5,11416],[68.5,11499],[68.5,11582],[68.5,11665],[68.5,11749],[68.5,11833],[68.5,11915],[68.5,11999],[68.5,12083],[68.5,12166],[68.5,12249],[68.5,12333],[68.5,12415],[68.5,12499],[68.5,12583],[68.5,12665],[68.5,12749],[68.5,12833],[68.5,12915],[68.5,12999],[68.5,13083],[68.5,13165],[68.5,13249]]",1,0,589.1059,593.0049,68.54166985,0.2955,"[{""rating"":68.54166984558105,""responseTime"":0.29550000000006094}]",space,3.3516,,593.0051,All the time,100,593.0185,,,[],,0,1,1,1,1,audio/Narrative7Situation1.wav,audio/Narrative8Situation1.wav,audio/Narrative5Situation1.wav,audio/Narrative6Situation1.wav,2,5,5,2,,,,,,,,,,,,,,,,,,,,,,,,,,,,,,,,,,,,,,,
,,,,,,61146b55c0d8a78134afc566,2024-02-08_13h00.21.581,group3.1-3.2-social-tom,2023.2.2,Win32,59.88023952,65c5074098b851296ff0b7ed,65c5161538f107ed1a6acce7,,,,,,,,,,,,,,,,,,,,,,,,,,,,,593.0188,2,audio/Narrative5Situation2.wav,596.022,,596.0222,625.49,"[[65.1,1249],[63.5,1331],[62.5,1417],[61.4,1500],[60.7,1581],[60.7,1665],[60.7,1749],[60.7,1833],[60.7,1916],[60.7,1999],[60.7,2082],[60.7,2166],[60.7,2249],[60.7,2333],[60.7,2416],[60.7,2499],[60.7,2582],[60.7,2667],[60.7,2749],[60.7,2832],[60.7,2915],[60.7,2999],[60.7,3082],[60.7,3165],[60.7,3249],[60.7,3332],[60.7,3415],[60.7,3499],[60.7,3582],[60.7,3666],[60.7,3748],[60.7,3832],[60.7,3916],[60.7,3999],[60.7,4082],[60.7,4166],[60.7,4249],[60.7,4332],[60.7,4416],[60.7,4499],[60.7,4582],[60.7,4666],[60.7,4749],[60.7,4832],[60.7,4916],[60.7,4999],[60.7,5082],[60.7,5166],[60.7,5249],[60.7,5332],[60.7,5416],[60.7,5499],[60.7,5582],[60.7,5665],[60.7,5749],[60.7,5832],[60.7,5915],[60.7,5999],[60.7,6081],[60.7,6165],[60.7,6249],[60.7,6332],[60.7,6417],[60.7,6498],[60.7,6582],[60.7,6666],[60.7,6750],[60.7,6832],[60.7,6915],[60.7,7000],[60.7,7082],[59.4,7167],[57.6,7250],[56,7333],[53,7415],[47.3,7499],[44.2,7583],[42.7,7666],[42.3,7748],[42.1,7832],[42.1,7916],[42.1,7999],[42.1,8082],[42.1,8166],[42.1,8249],[42.1,8332],[42.1,8415],[42.1,8499],[42.1,8582],[42.1,8666],[42.1,8749],[42.1,8832],[42.1,8915],[42.1,8999],[42.1,9082],[42.1,9165],[42.1,9249],[42.1,9332],[42.1,9416],[42.1,9499],[42.1,9581],[42.1,9665],[42.1,9749],[42.1,9832],[42.1,9915],[42.1,9999],[42.1,10083],[42.1,10166],[42.1,10249],[42.1,10332],[42.1,10416],[42.1,10499],[42.1,10582],[42.1,10665],[42.1,10749],[42.1,10832],[42.1,10916],[42.1,10999],[42.1,11082],[42.1,11165],[42.1,11249],[42.1,11332],[42.1,11416],[42.1,11499],[42.1,11582],[42.1,11665],[42.1,11748],[42.1,11832],[42.1,11917],[42.1,11999],[42.1,12082],[42.1,12166],[42.1,12249],[42.1,12332],[42.1,12415],[42.1,12499],[42.1,12582],[42.1,12665],[42.1,12748],[42.1,12832],[42.1,12915],[42.1,12999],[42.1,13082],[42.1,13166],[42.1,13248],[42.1,13332],[42.1,13416],[42.1,13499],[42.1,13582],[42.1,13665],[42.1,13749],[42.1,13832],[42.1,13917],[42.1,13998],[42.1,14082],[42.1,14165],[42.1,14248],[42.1,14332],[42.1,14415],[42.1,14499],[42.1,14582],[42.1,14666],[42.1,14749],[42.1,14832],[42.1,14916],[42.1,14999],[42.1,15082],[42.1,15165],[42.1,15248],[42.1,15332],[42.1,15416],[32,15500],[24.3,15582],[20.8,15668],[19.5,15748],[19.5,15832],[19.5,15916],[19.5,15998],[19.5,16082],[18.5,16167],[18.5,16248],[18.5,16331],[19.3,16416],[21.6,16500],[23.8,16582],[24.9,16665],[26.5,16748],[28.3,16833],[28.3,16916],[28.3,16998],[28.3,17082],[28.3,17165],[28.3,17250],[28.3,17332],[30.3,17416],[32.2,17501],[33.2,17582],[33.4,17665],[33.6,17749],[33.6,17832],[35.5,17915],[38.8,18000],[44.6,18083],[49.4,18164],[50.9,18250],[52.7,18332],[52.8,18415],[52.8,18498],[52.2,18581],[52,18665],[51.7,18748],[51.4,18831],[51.1,18915],[51.1,18998],[51.1,19082],[51.1,19166],[51.1,19249],[51.1,19332],[51.1,19415],[51.1,19499],[51.1,19582],[51.1,19666],[51.1,19748],[51.1,19832],[51.1,19915],[51.1,19998],[51.1,20082],[51.1,20167],[51.1,20249],[51.1,20332],[51.1,20415],[51.1,20499],[51.1,20582],[51.1,20665],[51.1,20748],[51.1,20832],[51.1,20915],[51.1,20999],[51.1,21082],[51.1,21165],[51.1,21249],[51.1,21332],[51.1,21416],[51.1,21499],[51.1,21582],[51.1,21666],[51.1,21749],[51.1,21832],[51.1,21915],[51.1,21999],[51.1,22082],[51.1,22166],[51.1,22248],[51.1,22332],[51.1,22416],[51.1,22498],[51.1,22582],[51.1,22665],[51.1,22748],[51.1,22831],[51.1,22916],[51.1,22999],[51.1,23081],[51.1,23166],[51.1,23249],[51.1,23332],[51.1,23416],[51.1,23498],[51.1,23582],[51.1,23665],[51.1,23748],[51.1,23832],[51.1,23915],[51.1,23999],[51.1,24082],[51.1,24166],[51.1,24249],[51.1,24332],[51.1,24415],[51.1,24499],[51.1,24582],[51.1,24666],[51.1,24749],[51.1,24832],[51.1,24915],[51.1,24999],[51.1,25081],[51.1,25165],[51.1,25249],[51.1,25332],[51.1,25415],[51.1,25498],[51.1,25582],[51.1,25666],[51.1,25748],[51.1,25832],[51.1,25916],[51.1,25998],[51.1,26082],[51.1,26166],[51.1,26249],[51.1,26332],[51.1,26415],[51.1,26499],[51.1,26582],[51.1,26666],[51.1,26749],[51.1,26833],[51.1,26916],[51.1,26999],[51.1,27083],[51.1,27166],[51.1,27249],[51.1,27332],[51.1,27416],[51.1,27499],[51.1,27582],[51.1,27666],[51.1,27750],[51.1,27832],[51.1,27916],[51.1,27999],[51.1,28082],[51.1,28165],[51.1,28249],[51.1,28333],[51.1,28415],[51.1,28499],[51.1,28582],[51.1,28666],[51.1,28749],[51.1,28832],[51.1,28916],[51.1,28999],[51.1,29081],[51.1,29166],[51.1,29249],[51.3,29334],[51.9,29417]]",1,0,625.4903,630.1217,52.5,2.7096,"[{""rating"":52.5,""responseTime"":2.7096000000238973}]",space,4.0861,,630.1217,Half the time,50,630.1254,,,[],,0,2,2,2,1,audio/Narrative7Situation2.wav,audio/Narrative8Situation2.wav,audio/Narrative5Situation2.wav,audio/Narrative6Situation2.wav,3,3,3,3,,,,,,,,,,,,,,,,,,,,,,,,,,,,,,,,,,,,,,,
,,,,,,61146b55c0d8a78134afc566,2024-02-08_13h00.21.581,group3.1-3.2-social-tom,2023.2.2,Win32,59.88023952,65c5074098b851296ff0b7ed,65c5161538f107ed1a6acce7,,,,,,,,,,,,,,,,,,,,,,,,,,,,,630.1257,2,audio/Narrative5Situation3.wav,633.1385,,633.1387,647.0551,"[[54.4,13916]]",1,0,647.0552,650.3548,58.33333969,2.1906,"[{""rating"":58.33333969116211,""responseTime"":2.190600000023778}]",space,2.767,,650.3549,Half the time,50,650.3582,,,[],,0,3,3,3,1,audio/Narrative7Situation3.wav,audio/Narrative8Situation3.wav,audio/Narrative5Situation3.wav,audio/Narrative6Situation3.wav,8,4,3,5,,,,,,,,,,,,,,,,,,,,,,,,,,,,,,,,,,,,,,,
,,,,,,61146b55c0d8a78134afc566,2024-02-08_13h00.21.581,group3.1-3.2-social-tom,2023.2.2,Win32,59.88023952,65c5074098b851296ff0b7ed,65c5161538f107ed1a6acce7,,,,,,,,,,,,,,,,,,,,,,,,,,,,,650.3586,2,audio/Narrative5Situation4.wav,651.3701,,651.3701,671.754,"[[59.4,9083],[60.2,9166],[61.1,9250],[61.4,9333],[61.4,9417],[61.4,9499],[59.7,9584],[59.5,9666],[59.3,9749],[59.3,9833],[59.3,9916],[59.3,10000],[59.3,10083],[59.3,10167],[59.3,10250],[59.3,10333],[59.3,10416],[59.3,10500],[59.3,10583],[59.3,10666],[59.3,10750],[59.3,10833],[59.3,10916],[59.3,11000],[59.3,11083],[59.3,11167],[59.3,11250],[59.3,11333],[59.3,11417],[59.3,11500],[59.3,11583],[59.3,11667],[59.3,11750],[59.3,11833],[59.3,11917],[59.3,12000],[59.3,12082],[59.3,12168],[59.3,12250],[59.3,12333],[59.3,12417],[59.3,12500],[59.3,12582],[59.3,12666],[59.3,12749],[59.3,12833],[59.3,12915],[59.3,13000],[59.3,13083],[59.3,13166],[59.3,13249],[59.3,13333],[59.3,13416],[59.3,13500],[59.3,13583],[59.3,13666],[59.3,13750],[59.3,13833],[59.3,13916],[59.3,14000],[59.3,14083],[59.3,14166],[59.3,14249],[59.3,14333],[59.3,14416],[59.3,14500],[59.3,14583],[59.3,14666],[59.3,14750],[59.3,14833],[59.3,14916],[59.3,15000],[59.3,15082],[59.3,15166],[59.3,15250],[59.3,15333],[59.3,15416],[59.3,15499],[59.3,15583],[59.3,15666],[59.3,15750],[59.3,15832],[59.3,15916],[59.3,15999],[59.3,16083],[59.3,16166],[59.3,16249],[59.9,16332],[60.8,16416],[60.9,16499],[60.9,16583],[60.9,16667],[60.9,16750],[60.9,16833],[60.9,16916],[60.9,16999],[60.9,17083],[60.9,17167],[60.9,17249],[61.1,17333],[62.2,17417],[63.4,17500],[63.8,17584],[64.4,17667],[65,17750],[65,17833],[65.1,17916],[65.1,17999],[65.1,18082],[65.1,18167],[65.1,18249],[65.1,18333],[65.1,18417],[65.1,18499],[65.6,18582],[66.1,18667],[66.3,18750],[66.6,18833],[66.6,18916],[66.6,18999],[66.6,19082],[66.6,19167],[66.6,19250],[66.6,19333],[66.6,19417],[66.8,19500],[66.8,19583],[66.8,19666],[66.8,19751],[66.8,19833],[66.8,19917],[66.8,19999],[66.8,20083],[66.8,20167],[66.8,20250],[66.8,20333]]",1,0,671.7544,673.8539,69.89583969,1.4806,"[{""rating"":69.89583969116211,""responseTime"":1.480599999904598}]",space,1.5649,,673.854,Half the time,50,673.8566,,,[],,0,4,4,4,1,audio/Narrative7Situation4.wav,audio/Narrative8Situation4.wav,audio/Narrative5Situation4.wav,audio/Narrative6Situation4.wav,3,3,1,2,,,,,,,,,,,,,,,,,,,,,,,,,,,,,,,,,,,,,,,
,,,,,,61146b55c0d8a78134afc566,2024-02-08_13h00.21.581,group3.1-3.2-social-tom,2023.2.2,Win32,59.88023952,65c5074098b851296ff0b7ed,65c5161538f107ed1a6acce7,,,,,,,,,,,,,,,,,,,,,,,,,,,,,673.8572,2,audio/Narrative5Situation5.wav,678.87,,678.8703,694.3033,"[[68.2,3499],[61.7,3583],[53.8,3667],[52.5,3749],[51.3,3833],[50.5,3916],[50.4,3999],[50.4,4082],[50.4,4166],[50.4,4249],[50.4,4333],[50.4,4416],[50.4,4499],[50.4,4582],[50.4,4665],[50.4,4749],[51.6,4832],[52.2,4916],[54.4,4999],[54.6,5082],[54.6,5166],[54.6,5249],[54.6,5332],[54.6,5415],[55.3,5499],[55.6,5582],[55.6,5666],[55.6,5749],[55.6,5832],[55.6,5916],[55.6,5999],[55.6,6082],[55.6,6165],[55.6,6249],[55.6,6333],[55.6,6416],[55.6,6499],[55.8,6582],[56.6,6665],[56.6,6749],[56.8,6832],[57.1,6916],[57.2,6999],[57.2,7082],[57.4,7166],[57.4,7250],[57.4,7333],[57.4,7416],[57.4,7499],[57.4,7583],[57.4,7666],[57.4,7749],[57.4,7833],[57.4,7916],[57.4,8000],[57.4,8082],[57.4,8168],[57.4,8249],[57.4,8332],[57.4,8416],[57.4,8499],[57.4,8583],[57.4,8666],[57.4,8750],[57.4,8832],[57.4,8916],[57.4,8999],[57.4,9082],[57.4,9166],[57.4,9249],[57.4,9332],[57.4,9416],[57.4,9499],[57.4,9583],[57.4,9666],[57.4,9749],[57.4,9832],[57.4,9915],[57.4,9999],[57.4,10082],[57.4,10166],[57.4,10249],[57.4,10332],[57.4,10416],[57.4,10499],[57.4,10582],[57.4,10666],[57.4,10749],[57.4,10832],[57.4,10917],[57.4,10999],[57.4,11082],[57.4,11166],[57.4,11249],[57.4,11332],[57.4,11416],[57.4,11499],[57.4,11582],[57.4,11666],[57.4,11749],[57.4,11832],[57.4,11916],[57.4,11999],[57.4,12083],[57.4,12166],[57.4,12249],[57.4,12332],[57.4,12415],[59.7,12499],[60.5,12583],[61.1,12666],[62.4,12749],[63.3,12832],[63.6,12916],[64.1,12999],[65.1,13082],[65.2,13166],[65.2,13249],[65.2,13332],[65.2,13416],[65.2,13499],[65.2,13582],[65.2,13666],[65.2,13749],[65.2,13832],[65.8,13917],[67.8,13999],[69.7,14082],[71.3,14166],[72.5,14249],[72.8,14332],[73.8,14416],[74.1,14499],[75.2,14582],[75.8,14665],[76.6,14748],[77.8,14832],[79.1,14915],[79.3,14998],[79.3,15081],[79.3,15165],[79.3,15249],[79.3,15332],[79.3,15416]]",1,0,694.304,696.5864,83.64583969,0.9724,"[{""rating"":83.64583969116211,""responseTime"":0.9723999999762327}]",space,1.7494,,696.5867,Not at all,0,696.5913,,,[],,0,5,5,5,1,audio/Narrative7Situation5.wav,audio/Narrative8Situation5.wav,audio/Narrative5Situation5.wav,audio/Narrative6Situation5.wav,5,2,5,2,,,,,,,,,,,,,,,,,,,,,,,,,,,,,,,,,,,,,,,
,,,,,,61146b55c0d8a78134afc566,2024-02-08_13h00.21.581,group3.1-3.2-social-tom,2023.2.2,Win32,59.88023952,65c5074098b851296ff0b7ed,65c5161538f107ed1a6acce7,,,,,,,,,,,,,,,,,,,,,,,,,,,,,696.5917,2,audio/Narrative5Situation6.wav,699.6022,,699.6023,705.2689,[],1,0,705.2689,707.5691,32.39583969,1.911,"[{""rating"":32.39583969116211,""responseTime"":1.9109999999999445}]",space,1.7566,,707.5691,Not at all,0,707.5709,,,[],,0,6,6,6,1,audio/Narrative7Situation6.wav,audio/Narrative8Situation6.wav,audio/Narrative5Situation6.wav,audio/Narrative6Situation6.wav,3,2,3,2,,,,,,,,,,,,,,,,,,,,,,,,,,,,,,,,,,,,,,,
,,,,,,61146b55c0d8a78134afc566,2024-02-08_13h00.21.581,group3.1-3.2-social-tom,2023.2.2,Win32,59.88023952,65c5074098b851296ff0b7ed,65c5161538f107ed1a6acce7,,,,,,,,,,,,,,,,,,,,,,,,,,,,,707.5711,2,audio/Narrative5Situation7.wav,711.5857,,711.5857,732.6361,"[[32.4,1750],[32.4,1832],[32.4,1916],[32.4,1999],[32.4,2083],[32.4,2166],[32.4,2250],[32.8,2333],[33.4,2416],[33.4,2499],[33.6,2583],[34,2666],[34.4,2749],[34.9,2832],[34.9,2916],[34.9,2999],[34.9,3082],[34.9,3166],[34.9,3249],[34.9,3332],[34.9,3416],[34.9,3500],[34.9,3583],[34.9,3666],[34.9,3749],[34.9,3833],[34.9,3916],[34.9,4000],[34.9,4082],[34.9,4166],[34.9,4249],[34.9,4333],[34.9,4417],[34.9,4499],[28.6,4584],[26.8,4668],[26.7,4750],[26.7,4833],[26.7,4916],[26.7,5000],[26.7,5083],[26.7,5166],[26.7,5249],[25.5,5333],[25.1,5417],[25.1,5500],[25.1,5582],[25.1,5666],[25.1,5750],[25.1,5833],[25.1,5917],[25.1,6000],[25.1,6083],[25.1,6166],[25.1,6250],[25.1,6334],[25.1,6417],[25.1,6500],[25.1,6583],[25.1,6666],[25.1,6750],[25.1,6833],[25.1,6917],[25.1,7000],[25.1,7083],[25.1,7166],[25.1,7250],[25.1,7333],[25.1,7416],[25.1,7500],[25.1,7582],[25.1,7667],[25.1,7750],[25.1,7833],[25.1,7916],[25.1,8000],[25.1,8083],[25.1,8166],[25.1,8250],[25.1,8333],[25.1,8417],[25.1,8500],[25.1,8583],[25.1,8666],[25.1,8750],[25.1,8833],[25.1,8916],[25.1,8999],[25.1,9083],[25.1,9166],[25.1,9250],[25.1,9333],[25.1,9416],[25.1,9499],[25.1,9582],[25.1,9666],[25.1,9749],[25.1,9833],[25.1,9916],[25.1,9999],[25.1,10084],[25.1,10167],[25.1,10250],[25.1,10334],[25.1,10416],[25.1,10499],[25.1,10583],[25.1,10666],[25.1,10750],[25.1,10833],[25.1,10917],[25.1,10999],[25.1,11083],[25.1,11166],[25.1,11250],[25.1,11333],[25.1,11416],[25.1,11500],[25.1,11582],[25.1,11666],[25.1,11749],[25.1,11832],[25.1,11916],[25.1,11999],[25.1,12082],[25.1,12166],[25.1,12250],[25.1,12332],[25.1,12417],[25.1,12499],[25.1,12583],[25.1,12666],[25.1,12750],[25.1,12833],[25.1,12916],[25.1,13000],[25.1,13082],[25.1,13171],[25.1,13250],[25.1,13332],[25.1,13416],[25.1,13500],[25.1,13582],[25.1,13666],[25.1,13749],[25.1,13833],[25.1,13916],[25.1,13999],[25.1,14083],[25.1,14166],[25.1,14249],[25.1,14334],[25.1,14416],[25.1,14500],[25.1,14582],[25.1,14666],[25.1,14749],[25.1,14833],[25.1,14916],[25.1,15000],[25.1,15083],[25.1,15166],[25.1,15250],[25.1,15333],[25.1,15416],[25.1,15500],[25.1,15583],[25.1,15666],[25.1,15750],[25.1,15832],[25.1,15916],[25.1,15999],[25.1,16083],[25.1,16166],[25.1,16249],[25.1,16332],[25.1,16416],[25.1,16499],[25.1,16583],[25.1,16666],[25.1,16749],[25.1,16833],[25.1,16916],[25.1,17000],[25.1,17083],[25.1,17167],[25.1,17249],[25.1,17333],[25.1,17416],[25.1,17500],[25.1,17583],[25.1,17667],[25.1,17749],[25.1,17832],[25.1,17916],[25.1,18000],[25.1,18083],[25.1,18166],[25.1,18250],[25.1,18332],[25.1,18415],[25.1,18499],[25.1,18582],[25.1,18666],[25.1,18750],[25.1,18832],[25.1,18916],[25.1,19000],[25.1,19083],[25.1,19166],[25.1,19250],[25.1,19333],[25.1,19416],[25.1,19500],[25.1,19583],[25.1,19666],[25.1,19750],[25.1,19833],[25.1,19916],[25.1,20000],[25.1,20082],[25.1,20166],[25.1,20250],[25.1,20332],[25.1,20416],[25.1,20499],[25.1,20582],[25.1,20666],[25.1,20749],[25.1,20832],[25.1,20916],[25.1,21000]]",1,0,732.6363,734.4027,14.16666985,1.4796,"[{""rating"":14.166669845581053,""responseTime"":1.4795999999046217}]",space,1.2247,,734.4037,Not at all,0,734.4066,,,[],,0,7,7,7,1,audio/Narrative7Situation7.wav,audio/Narrative8Situation7.wav,audio/Narrative5Situation7.wav,audio/Narrative6Situation7.wav,5,3,4,5,,,,,,,,,,,,,,,,,,,,,,,,,,,,,,,,,,,,,,,
,,,,,,61146b55c0d8a78134afc566,2024-02-08_13h00.21.581,group3.1-3.2-social-tom,2023.2.2,Win32,59.88023952,65c5074098b851296ff0b7ed,65c5161538f107ed1a6acce7,,,,,,,,,,,,,,,,,,,,,,,,,,,,,734.4071,2,audio/Narrative5Situation8.wav,737.4191,,737.4192,746.2527,"[[14.7,4165],[15.3,4249],[15.7,4333],[15.8,4415],[15.9,4499],[17.4,4583],[20.8,4666],[22.2,4748],[22.4,4832],[22.4,4916],[22.4,4999],[22.4,5082],[22.4,5165],[23.6,5249],[25.6,5333],[27.2,5416],[28.4,5499],[29.4,5583],[30.5,5666],[31.3,5750],[32.5,5833],[34.3,5915],[35.3,6000],[37,6083],[40.9,6166],[44.3,6250],[46.3,6332],[47.8,6416],[49,6500],[49.4,6582],[49.6,6665],[49.6,6749],[49.6,6833],[49.6,6916],[49.6,6999],[49.6,7083],[49.6,7166],[49.6,7249],[49.6,7332],[49.6,7416],[49.6,7499],[49.6,7582],[49.6,7666],[49.6,7749],[49.6,7833],[49.6,7916],[49.6,7999],[49.6,8082],[49.6,8166],[49.6,8249],[49.6,8333],[49.6,8416],[49.6,8499],[49.6,8582],[49.6,8666],[49.6,8749],[49.6,8832]]",1,0,746.253,748.0022,50.41666985,1.2756,"[{""rating"":50.416669845581055,""responseTime"":1.2756000000238146}]",space,1.2008,,748.0028,Not at all,0,748.0052,,,[],,0,8,8,8,1,audio/Narrative7Situation8.wav,audio/Narrative8Situation8.wav,audio/Narrative5Situation8.wav,audio/Narrative6Situation8.wav,2,3,3,5,,,,,,,,,,,,,,,,,,,,,,,,,,,,,,,,,,,,,,,
,,,,,,61146b55c0d8a78134afc566,2024-02-08_13h00.21.581,group3.1-3.2-social-tom,2023.2.2,Win32,59.88023952,65c5074098b851296ff0b7ed,65c5161538f107ed1a6acce7,,,,,,,,,,,,,,,,,,,,,,,,,,,,,748.0055,2,audio/Narrative5Situation9.wav,751.019,,751.0191,790.5687,"[[49,4832],[48.6,4915],[48.6,4999],[48.6,5082],[48.6,5166],[48.6,5249],[48.6,5333],[48.6,5415],[48.6,5499],[42.8,5583],[39.5,5665],[31.4,5749],[25.2,5832],[25.2,5916],[25.2,5999],[25.2,6082],[25.2,6165],[22.7,6250],[16.9,6333],[15.7,6415],[15.7,6499],[15.7,6582],[15.7,6666],[15.7,6749],[15.7,6832],[15.7,6916],[15.7,6999],[15.7,7082],[15.7,7166],[15.7,7249],[15.7,7332],[15.7,7415],[15.7,7499],[15.7,7582],[16.6,7665],[17.5,7749],[18.1,7832],[18.1,7916],[18.1,7999],[18.1,8082],[18.1,8166],[18.1,8249],[18.1,8333],[18.1,8416],[18.1,8499],[18.1,8582],[18.1,8666],[18.1,8749],[18.1,8832],[18.1,8916],[18.1,8999],[18.1,9082],[18.1,9165],[18.1,9249],[18.1,9332],[18.1,9416],[18.1,9500],[18.1,9582],[18.1,9666],[18.1,9749],[18.1,9832],[18.1,9916],[18.1,9999],[18.1,10082],[18.1,10166],[18.1,10249],[18.1,10332],[18.1,10415],[18.1,10499],[18.1,10582],[18.1,10671],[18.1,10749],[18.1,10832],[19,10915],[19.4,11000],[19.7,11082],[20,11165],[20.3,11249],[20.6,11332],[20.8,11415],[21.1,11499],[21.6,11583],[21.9,11665],[22.1,11749],[22.2,11832],[22.2,11915],[22.2,11999],[22.5,12082],[23.3,12165],[24.8,12250],[25.8,12333],[25.8,12415],[25.9,12499],[25.9,12583],[26.3,12665],[26.3,12749],[26.3,12833],[26.3,12915],[26.3,12999],[26.3,13082],[26.3,13165],[26.3,13249],[26.3,13332],[26.3,13415],[26.3,13499],[26.3,13582],[26.3,13665],[26.3,13749],[26.3,13832],[26.3,13915],[26.3,13999],[26.3,14082],[26.3,14166],[26.3,14249],[26.3,14332],[26.3,14415],[26.3,14499],[26.3,14582],[26.3,14665],[26.3,14749],[26.3,14833],[26.3,14916],[26.3,14999],[26.3,15082],[26.3,15166],[26.3,15248],[26.3,15332],[26.3,15416],[26.3,15499],[26.3,15582],[26.3,15665],[26.3,15749],[26.3,15833],[26.3,15916],[26.3,15999],[26.3,16083],[26.3,16165],[26.3,16249],[26.3,16332],[26.3,16415],[26.3,16499],[26.3,16582],[26.3,16665],[26.3,16749],[26.3,16833],[26.3,16916],[26.3,17000],[26.3,17082],[26.3,17165],[26.3,17249],[26.3,17333],[26.3,17415],[26.3,17499],[26.3,17582],[26.3,17667],[26.3,17749],[26.3,17833],[26.3,17916],[26.3,17999],[26.3,18082],[26.3,18165],[26.3,18250],[26.3,18332],[26.3,18415],[26.3,18499],[26.3,18582],[26.3,18665],[26.3,18749],[26.3,18832],[26.3,18916],[26.3,18999],[26.3,19082],[26.3,19166],[26.3,19250],[26.3,19332],[26.3,19416],[26.3,19499],[26.3,19583],[26.3,19665],[26.3,19750],[26.3,19833],[30.6,19915],[32.2,20000],[34,20083],[36.4,20165],[43.2,20250],[46.9,20332],[47.8,20416],[49.8,20500],[50,20582],[50.2,20665],[50.5,20748],[50.6,20832],[51.3,20916],[51.5,20999],[51.5,21082],[51.5,21165],[51.5,21249],[51.5,21332],[51.5,21415],[51.5,21500],[51.5,21582],[51.5,21666],[51.5,21749],[51.5,21832],[51.5,21916],[51.5,21999],[51.5,22082],[51.5,22165],[53.3,22249],[54.8,22332],[55.9,22416],[56.5,22499],[56.5,22582],[56.5,22665],[56.5,22749],[56.5,22832],[56.5,22916],[56.5,23000],[56.5,23082],[56.5,23165],[56.5,23249],[56.5,23331],[56.5,23415],[56.5,23499],[56.5,23582],[56.5,23666],[56.5,23748],[57.2,23831],[57.7,23915],[58.1,23999],[58.1,24082],[58.3,24166],[58.8,24249],[59.1,24332],[59.1,24415],[59.1,24499],[59.1,24582],[59.1,24666],[59.1,24749],[59.1,24832],[59.1,24916],[59.1,24999],[59.1,25082],[59.1,25165],[59.1,25249],[59.1,25332],[59.1,25416],[59.1,25499],[59.1,25582],[59.1,25666],[59.1,25749],[59.1,25832],[59.1,25915],[59.1,25999],[59.1,26082],[59.1,26166],[59.1,26249],[59.1,26332],[59.1,26415],[59.1,26499],[59.1,26583],[59.1,26665],[59.1,26749],[59.1,26832],[59.1,26916],[59.1,26999],[59.1,27082],[59.1,27165],[59.1,27249],[59.1,27332],[59.1,27415],[59.1,27499],[59.1,27582],[59.1,27665],[59.1,27749],[59.1,27832],[59.1,27916],[59.1,27999],[59.1,28082],[59.1,28166],[59.1,28249],[59.1,28332],[59.1,28415],[59.1,28499],[59.1,28582],[59.1,28665],[59.1,28749],[59.1,28832],[59.1,28915],[59.1,28999],[59.1,29083],[59.1,29165],[59.1,29250],[59.1,29332],[59.1,29415],[59.1,29499],[59.1,29582],[59.1,29666],[59.1,29749],[59.1,29832],[59.1,29915],[59.1,29999],[59.1,30082],[59.1,30165],[59.1,30248],[59.1,30332],[59.1,30415],[59.1,30499],[59.1,30582],[59.1,30665],[59.1,30749],[59.1,30832],[59.1,30915],[59.1,30999],[59.1,31082],[59.1,31165],[59.1,31249],[59.1,31332],[59.1,31415],[59.1,31499],[59.1,31582],[59.1,31665],[59.1,31749],[59.1,31832],[59.1,31915],[59.1,31999],[59.1,32082],[59.1,32166],[59.1,32248],[59.1,32332],[59.1,32415],[59.1,32499],[59.1,32582],[59.1,32665],[59.1,32749],[59.1,32832],[59.1,32915],[59.1,32999],[59.1,33082],[59.1,33165],[59.1,33249],[59.1,33332],[59.1,33415],[59.1,33499],[59.1,33583],[59.1,33665],[64.5,33749],[65.9,33832],[68.9,33916],[73.1,34000],[75.8,34082],[79.3,34165],[80.3,34249],[82.9,34332],[85.2,34415],[85.2,34499],[85.2,34582],[85.2,34665],[85.2,34749],[85.2,34832],[85.2,34915],[85.2,34999],[85.2,35082],[85.2,35166],[85.2,35249],[85.2,35332],[85.2,35416],[85.2,35499],[85.2,35582],[85.2,35665],[85.2,35749],[85.2,35832],[85.2,35916],[85.2,35999],[85.2,36082],[85.2,36165],[85.2,36249],[85.2,36332],[85.2,36416],[85.2,36499],[85.2,36581],[85.2,36665],[85.2,36749],[85.2,36832],[85.2,36915],[85.2,36999],[85.2,37082],[85.2,37165],[85.2,37249],[85.2,37332],[85.2,37415],[85.2,37499],[85.2,37582],[85.2,37665],[85.2,37749],[85.2,37832],[85.2,37916],[85.2,37999],[85.2,38082],[85.2,38165],[85.2,38249],[85.2,38332],[85.2,38415],[85.2,38499],[85.2,38582],[85.2,38665],[85.2,38749],[85.3,38832],[85.9,38915],[86.5,38999],[87.5,39082],[88.1,39165],[88.4,39248],[88.4,39332],[88.4,39415],[88.4,39499]]",1,0,790.5691,792.6847,88.54166985,0.2646,"[{""rating"":88.54166984558105,""responseTime"":0.2645999999047035}]",space,1.5687,,792.6848,Half the time,50,792.689,,,[],,0,9,9,9,1,audio/Narrative7Situation9.wav,audio/Narrative8Situation9.wav,audio/Narrative5Situation9.wav,audio/Narrative6Situation9.wav,2,3,3,4,,,,,,,,,,,,,,,,,,,,,,,,,,,,,,,,,,,,,,,
,,,,,,61146b55c0d8a78134afc566,2024-02-08_13h00.21.581,group3.1-3.2-social-tom,2023.2.2,Win32,59.88023952,65c5074098b851296ff0b7ed,65c5161538f107ed1a6acce7,,,,,,,,,,,,,,,,,,,,,,,,,,,,,792.6894,2,audio/Narrative6Situation1.wav,794.7018,,794.7019,821.3016,"[[71.1,2249],[38.3,2332],[31.1,2417],[31.1,2499],[31.1,2582],[31.1,2665],[19.8,2749],[7.9,2832],[5.7,2916],[5.2,2999],[3.1,3082],[0.5,3166],[0.1,3249],[0.1,3332],[4.6,3417],[7.5,3499],[7.8,3582],[7.8,3666],[7.8,3750],[7.8,3832],[7.8,3916],[7.8,3999],[7.8,4082],[8.3,4166],[9,4250],[9.7,4332],[10,4416],[10.6,4500],[10.8,4582],[10.8,4666],[10.8,4749],[10.8,4833],[10.8,4916],[10.8,4999],[10.8,5082],[10.8,5166],[10.8,5249],[10.8,5332],[10.8,5416],[10.8,5499],[10.8,5582],[10.8,5666],[10.8,5749],[10.8,5832],[10.8,5916],[10.8,5999],[10.8,6082],[10.8,6166],[10.8,6249],[10.8,6332],[10.8,6416],[10.8,6499],[10.8,6582],[10.8,6666],[10.8,6748],[10.8,6832],[10.8,6916],[10.8,6999],[10.8,7082],[10.8,7166],[10.8,7249],[10.8,7332],[10.8,7416],[10.8,7499],[10.8,7582],[10.8,7666],[10.8,7748],[10.8,7832],[10.8,7916],[10.8,7998],[10.8,8082],[10.8,8166],[10.8,8249],[10.8,8332],[10.8,8415],[10.8,8499],[10.8,8582],[10.8,8666],[10.8,8749],[10.8,8832],[10.8,8915],[10.8,8999],[10.8,9082],[10.8,9166],[10.8,9249],[10.8,9332],[10.8,9416],[10.8,9499],[10.8,9582],[10.8,9666],[10.8,9749],[10.8,9832],[10.8,9916],[10.8,9999],[10.8,10082],[10.8,10166],[10.8,10249],[10.8,10333],[10.8,10416],[10.8,10499],[10.8,10582],[10.8,10666],[10.8,10749],[10.8,10832],[10.8,10916],[10.8,10999],[10.8,11082],[10.8,11167],[10.8,11249],[10.8,11332],[10.8,11416],[10.8,11499],[10.8,11583],[10.8,11666],[10.8,11749],[10.8,11832],[10.8,11916],[10.8,11999],[10.8,12082],[10.8,12166],[10.8,12249],[10.8,12332],[10.8,12416],[10.8,12499],[10.8,12582],[10.8,12667],[10.8,12749],[10.8,12832],[10.8,12916],[10.8,12999],[10.8,13082],[10.8,13166],[10.8,13249],[10.8,13332],[10.8,13416],[10.8,13499],[10.8,13582],[10.8,13666],[10.8,13749],[10.8,13832],[10.8,13916],[10.8,13998],[18.5,14084],[21.8,14166],[23.8,14250],[26.8,14332],[28.1,14416],[30,14500],[31.9,14583],[34.4,14666],[34.7,14749],[34.7,14832],[34.7,14915],[34.7,14999],[34.7,15082],[34.7,15167],[34.7,15249],[34.7,15332],[34.7,15416],[34.7,15499],[34.7,15582],[34.7,15666],[34.7,15749],[38.3,15832],[44.2,15917],[46.8,15999],[46.8,16082],[46.8,16166],[46.8,16249],[46.8,16332],[46.8,16416],[50.4,16501],[54,16582],[54.3,16666],[54.3,16748],[54.3,16832],[54.3,16917],[54.3,16999],[54.3,17082],[54.3,17166],[54.3,17249],[54.3,17332],[54.3,17416],[54.3,17499],[54.3,17582],[54.3,17665],[54.3,17749],[54.3,17832],[54.3,17916],[54.3,17998],[54.3,18082],[54.3,18167],[54.3,18248],[54.3,18332],[54.3,18415],[54.3,18498],[54.3,18583],[54.3,18665],[54.7,18748],[54.7,18832],[54.7,18916],[54.7,18998],[54.7,19082],[54.7,19166],[54.7,19249],[54.7,19332],[54.7,19415],[54.7,19499],[54.7,19582],[54.7,19665],[54.7,19748],[54.7,19832],[54.7,19915],[54.7,19999],[54.7,20081],[54.7,20165],[54.7,20249],[54.7,20332],[54.7,20416],[54.7,20499],[54.7,20582],[54.7,20665],[54.7,20749],[54.7,20832],[54.7,20915],[54.7,20998],[54.7,21082],[54.7,21166],[54.7,21249],[54.7,21332],[54.7,21415],[54.7,21499],[54.7,21582],[54.7,21665],[54.7,21749],[54.7,21832],[54.7,21915],[54.7,21999],[54.7,22082],[54.7,22166],[54.7,22249],[54.7,22332],[54.7,22415],[54.7,22498],[54.7,22582],[54.7,22665],[54.7,22749],[54.7,22832],[54.7,22915],[54.7,22999],[54.7,23082],[54.7,23165],[54.7,23249],[54.7,23332],[54.7,23415],[54.7,23498],[54.7,23582],[54.7,23665],[54.7,23749],[54.7,23832],[54.7,23915],[54.7,23999],[56.8,24082],[63,24167],[64.3,24249],[65.7,24331],[65.9,24417],[66.3,24499],[68.2,24581],[70.3,24665],[71.5,24748],[71.6,24831],[71.6,24915],[71.6,24999],[71.6,25082],[71.6,25165],[71.6,25249],[71.6,25332],[71.6,25415],[71.6,25499],[71.6,25582],[71.6,25665],[71.6,25748],[71.6,25832],[71.6,25915],[71.6,25998],[71.6,26082],[71.6,26165],[71.6,26248],[71.6,26332],[71.6,26415],[71.6,26499],[71.6,26582]]",1,0,821.302,823.7179,71.97916985,1.7414,"[{""rating"":71.97916984558105,""responseTime"":1.7413999999761245}]",space,1.8849,,823.718,Not at all,0,823.7232,,,[],,0,10,10,10,1,audio/Narrative8Situation1.wav,audio/Narrative7Situation1.wav,audio/Narrative6Situation1.wav,audio/Narrative5Situation1.wav,5,2,2,5,,,,,,,,,,,,,,,,,,,,,,,,,,,,,,,,,,,,,,,
,,,,,,61146b55c0d8a78134afc566,2024-02-08_13h00.21.581,group3.1-3.2-social-tom,2023.2.2,Win32,59.88023952,65c5074098b851296ff0b7ed,65c5161538f107ed1a6acce7,,,,,,,,,,,,,,,,,,,,,,,,,,,,,823.7236,2,audio/Narrative6Situation2.wav,826.7343,,826.7343,855.2512,"[[24.5,1333],[14,1416],[5.7,1500],[1,1585],[0.3,5917],[0.6,6000],[1.3,6085],[2.1,6167],[3.4,6249],[4.6,6335],[4.7,6416],[5.3,6500],[6.4,6582],[7.8,6665],[8.4,6749],[9.1,6833],[9.3,6916],[9.6,7000],[9.7,7082],[9.9,7166],[9.9,7249],[9.9,7333],[9.9,7416],[9.9,7499],[9.9,7583],[9.9,7666],[9.9,7749],[9.9,7832],[10.4,7917],[11.5,8000],[12.2,8082],[12.8,8167],[13.6,8250],[14.3,8332],[15,8415],[15.3,8499],[15.8,8583],[16.3,8666],[16.8,8749],[17.2,8832],[17.4,8915],[17.7,9000],[18.1,9082],[18.4,9166],[18.6,9249],[19.4,9332],[19.7,9415],[19.7,9499],[19.7,9583],[19.7,9666],[19.7,9749],[19.7,9833],[19.7,9915],[19.7,9999],[19.7,10083],[19.7,10166],[19.7,10249],[19.7,10333],[19.7,10415],[19.7,10499],[19.7,10583],[19.7,10665],[19.7,10749],[19.7,10833],[19.7,10916],[19.7,10999],[19.7,11083],[19.7,11166],[19.7,11249],[19.7,11333],[19.7,11416],[19.7,11499],[19.7,11583],[19.7,11665],[19.7,11749],[19.7,11833],[19.7,11916],[19.7,11999],[19.7,12082],[19.7,12166],[19.7,12249],[19.7,12333],[19.7,12416],[19.7,12499],[19.7,12583],[19.7,12665],[19.7,12749],[19.7,12833],[19.7,12916],[19.7,12999],[19.7,13083],[19.7,13166],[19.7,13249],[19.7,13333],[19.7,13416],[19.7,13498],[19.7,13583],[19.7,13666],[19.7,13749],[19.7,13833],[19.7,13916],[19.7,13999],[19.7,14083],[19.7,14165],[19.7,14249],[19.7,14332],[19.7,14416],[19.7,14499],[19.7,14583],[19.7,14666],[19.7,14749],[19.7,14833],[19.7,14916],[19.7,14999],[19.7,15083],[19.7,15166],[19.7,15249],[19.7,15333],[19.7,15416],[19.7,15499],[19.7,15583],[19.7,15666],[19.7,15749],[19.7,15832],[19.7,15916],[19.7,15999],[19.7,16083],[19.7,16166],[19.7,16249],[19.7,16332],[24.5,16415],[26.9,16500],[29.1,16584],[30.3,16666],[31.8,16749],[32.2,16832],[32.2,16915],[32.2,16999],[32.2,17083],[32.2,17166],[32.2,17249],[32.2,17334],[32.2,17416],[32.2,17499],[32.2,17583],[32.2,17666],[32.2,17749],[32.2,17833],[32.2,17916],[32.8,17999],[33.4,18082],[34,18166],[34.3,18250],[34.4,18332],[34.4,18416],[34.4,18499],[34.4,18583],[34.4,18666],[34.4,18749],[34.4,18832],[34.4,18915],[34.4,18999],[34.4,19082],[34.4,19166],[34.4,19249],[34.4,19333],[34.4,19416],[34.4,19499],[34.4,19583],[34.4,19666],[34.4,19749],[34.4,19833],[34.4,19917],[34.4,19999],[34.4,20083],[34.4,20165],[34.4,20249],[34.4,20332],[34.6,20416],[34.7,20500],[34.7,20582],[34.7,20665],[34.7,20750],[34.7,20832],[34.7,20915],[34.7,20999],[34.7,21083],[34.7,21166],[34.7,21249],[34.7,21333],[34.7,21415],[34.7,21499],[34.7,21583],[34.7,21666],[34.7,21749],[34.7,21833],[34.7,21915],[34.7,21999],[34.7,22083],[34.7,22165],[34.7,22249],[34.7,22332],[34.7,22415],[34.7,22499],[34.7,22583],[34.7,22666],[34.7,22749],[34.7,22832],[34.7,22915],[34.7,22999],[34.7,23082],[34.7,23166],[34.7,23249],[34.7,23332],[34.7,23416],[34.7,23499],[34.7,23583],[34.7,23666],[34.7,23749],[34.7,23832],[34.7,23916],[34.7,23999],[34.7,24082],[34.7,24165],[34.7,24249],[34.7,24333],[34.7,24416],[34.7,24499],[34.7,24582],[34.7,24666],[34.7,24749],[34.7,24833],[34.7,24916],[34.7,24998],[34.7,25083],[34.7,25166],[34.7,25248],[34.7,25333],[34.7,25416],[34.7,25499],[34.7,25583],[34.7,25665],[34.7,25749],[34.7,25832],[34.7,25915],[34.7,25999],[34.7,26083],[34.7,26166],[34.7,26249],[34.7,26332],[34.7,26415],[34.7,26499],[34.7,26583],[34.7,26665],[34.7,26749],[34.7,26832],[34.7,26915],[34.7,26998],[34.7,27083],[34.7,27165],[34.7,27249],[34.7,27334],[34.7,27415],[34.7,27499],[34.7,27582],[34.7,27665],[34.7,27749],[34.7,27833],[34.7,27915],[34.7,27999],[34.7,28083],[34.7,28165],[34.7,28249],[34.7,28332],[34.7,28415],[34.8,28498]]",1,0,855.2518,857.3843,35.3125,1.4194,"[{""rating"":35.3125,""responseTime"":1.4193999999762354}]",space,1.5829,,857.3845,All the time,100,857.3888,,,[],,0,11,11,11,1,audio/Narrative8Situation2.wav,audio/Narrative7Situation2.wav,audio/Narrative6Situation2.wav,audio/Narrative5Situation2.wav,3,3,3,3,,,,,,,,,,,,,,,,,,,,,,,,,,,,,,,,,,,,,,,
,,,,,,61146b55c0d8a78134afc566,2024-02-08_13h00.21.581,group3.1-3.2-social-tom,2023.2.2,Win32,59.88023952,65c5074098b851296ff0b7ed,65c5161538f107ed1a6acce7,,,,,,,,,,,,,,,,,,,,,,,,,,,,,857.3892,2,audio/Narrative6Situation3.wav,862.4002,,862.4003,875.0172,"[[10.4,8665],[4.9,8750],[18.2,8833],[22.5,8916],[22.5,8999],[22.5,9082],[22.5,9166],[22.5,9249],[22.5,9332],[22.5,9416],[22.5,9499],[13.9,9832],[17.8,9918],[6.9,9999],[2.2,10249],[2.4,10333],[2.4,10416],[2,10499],[3.2,10583],[5.2,10666],[5.3,10750],[5.3,10833],[5.3,10916],[5.3,10999],[5.3,11082],[5.3,11165],[14.2,11250],[17,11332],[20,11417],[20.6,11499],[21.1,11582],[22.5,11666],[23.4,11749],[23.8,11832],[23.8,11916],[23.8,11999],[23.8,12082],[23.8,12166],[23.8,12249],[23.8,12332],[23.8,12416],[23.8,12499],[23.8,12582]]",1,0,875.0175,879.5661,35,1.9396,"[{""rating"":35,""responseTime"":1.9396000000238018}]",space,4.0015,,879.5661,Half the time,50,879.5778,,,[],,0,12,12,12,1,audio/Narrative8Situation3.wav,audio/Narrative7Situation3.wav,audio/Narrative6Situation3.wav,audio/Narrative5Situation3.wav,4,8,5,3,,,,,,,,,,,,,,,,,,,,,,,,,,,,,,,,,,,,,,,
,,,,,,61146b55c0d8a78134afc566,2024-02-08_13h00.21.581,group3.1-3.2-social-tom,2023.2.2,Win32,59.88023952,65c5074098b851296ff0b7ed,65c5161538f107ed1a6acce7,,,,,,,,,,,,,,,,,,,,,,,,,,,,,879.5779,2,audio/Narrative6Situation4.wav,881.584,,881.5843,894.1991,[],1,0,894.1992,902.3828,0.9375,2.149,"[{""rating"":0.9375000000000022,""responseTime"":2.149000000000001}]",space,7.6497,,902.383,All the time,100,902.3967,,,[],,0,13,13,13,1,audio/Narrative8Situation4.wav,audio/Narrative7Situation4.wav,audio/Narrative6Situation4.wav,audio/Narrative5Situation4.wav,3,3,2,1,,,,,,,,,,,,,,,,,,,,,,,,,,,,,,,,,,,,,,,
,,,,,,61146b55c0d8a78134afc566,2024-02-08_13h00.21.581,group3.1-3.2-social-tom,2023.2.2,Win32,59.88023952,65c5074098b851296ff0b7ed,65c5161538f107ed1a6acce7,,,,,,,,,,,,,,,,,,,,,,,,,,,,,902.3968,2,audio/Narrative6Situation5.wav,904.3992,,904.3993,912.3501,"[[999,0],[999,83],[999,166],[999,250],[999,333],[999,416],[999,500],[999,583],[999,669],[999,750],[999,834],[999,917],[999,1000],[999,1083],[999,1166],[999,1249],[999,1332],[999,1416],[999,1499],[999,1582],[999,1667],[999,1750],[999,1833],[999,1916],[999,2000],[999,2083],[999,2166],[999,2249],[999,2333],[999,2416],[999,2499],[999,2583],[999,2667],[999,2749],[999,2833],[999,2916],[999,3000],[999,3083],[999,3166],[999,3250],[4.5,3584],[3.5,3666],[1.6,3750],[1.5,3833],[1.5,3916],[1.5,3999],[1.5,4083],[1.5,4166],[1.5,4249],[1.5,4333],[1.5,4416],[10.7,4499],[23.2,4583],[28.2,4666],[28.8,4749],[28.8,4833],[28.8,4916],[30.3,5000],[31.5,5083],[31.5,5166],[31.5,5249],[31.5,5333],[31.5,5416],[31.5,5499],[31.5,5582],[32.2,5666],[33.4,5750],[35.8,5833],[37.8,5916],[41.1,6000],[43.4,6083],[45.6,6167],[46.8,6249],[48.3,6333],[49.4,6416],[49.4,6500],[49.4,6583],[49.4,6666],[49.4,6749],[49.4,6833],[49.4,6916],[49.4,7000],[49.4,7083],[49.4,7166],[49.4,7249],[49.4,7333],[49.4,7416],[49.4,7499],[49.4,7583],[49.4,7666],[49.4,7750],[49.4,7833],[49.4,7916]]",1,0,912.3504,915.3494,65,2.0789,"[{""rating"":65,""responseTime"":2.0789000000953592}]",space,2.4598,,915.3495,Not at all,0,915.3532,,,[],,0,14,14,14,1,audio/Narrative8Situation5.wav,audio/Narrative7Situation5.wav,audio/Narrative6Situation5.wav,audio/Narrative5Situation5.wav,2,5,2,5,,,,,,,,,,,,,,,,,,,,,,,,,,,,,,,,,,,,,,,
,,,,,,61146b55c0d8a78134afc566,2024-02-08_13h00.21.581,group3.1-3.2-social-tom,2023.2.2,Win32,59.88023952,65c5074098b851296ff0b7ed,65c5161538f107ed1a6acce7,,,,,,,,,,,,,,,,,,,,,,,,,,,,,915.3536,2,audio/Narrative6Situation6.wav,917.3664,,917.3665,928.4494,"[[43.4,6415],[0.2,6915],[0.5,6998],[0.5,7082],[0.5,7165],[0.5,7249],[0.5,7332],[0.5,7416],[0.5,7499],[0.5,7582],[0.5,7665],[0.5,7749],[0.5,7832],[0.5,7916],[0.5,7999],[0.5,8082],[0.5,8166],[0.5,8249],[0.5,8332],[0.5,8415],[0.5,8499],[0.5,8582],[0.5,8665],[0.5,8749],[0.5,8831],[0.5,8915],[0.5,8999],[0.5,9082],[0.5,9165],[0.5,9249],[0.5,9332],[0.5,9415],[0.5,9499],[0.5,9582],[0.5,9665],[0.5,9749],[0.5,9832],[0.5,9915],[0.5,9999],[0.5,10082],[0.5,10165],[0.5,10249],[0.5,10333],[0.5,10416],[0.5,10499],[0.5,10582],[0.5,10665],[0.5,10749],[0.5,10832],[0.5,10915],[0.5,10999],[0.5,11082]]",1,0,928.4498,929.667,0.520834923,0.2293,"[{""rating"":0.5208349227905251,""responseTime"":0.22929999995233175}]",space,0.6885,,929.6671,Not at all,0,929.6699,,,[],,0,15,15,15,1,audio/Narrative8Situation6.wav,audio/Narrative7Situation6.wav,audio/Narrative6Situation6.wav,audio/Narrative5Situation6.wav,2,3,2,3,,,,,,,,,,,,,,,,,,,,,,,,,,,,,,,,,,,,,,,
,,,,,,61146b55c0d8a78134afc566,2024-02-08_13h00.21.581,group3.1-3.2-social-tom,2023.2.2,Win32,59.88023952,65c5074098b851296ff0b7ed,65c5161538f107ed1a6acce7,,,,,,,,,,,,,,,,,,,,,,,,,,,,,929.6702,2,audio/Narrative6Situation7.wav,934.6824,,934.6824,959.5502,"[[0.3,2749],[0.6,2834],[0.6,2916],[0.6,2999],[0.6,3083],[0.6,3166],[0.6,3249],[0.6,3332],[0.6,3416],[0.6,3499],[0.6,3583],[0.6,3666],[0.6,3750],[0.6,3833],[0.6,3916],[0.6,3999],[0.6,4082],[0.6,4166],[0.6,4249],[0.6,4332],[0.6,4416],[0.6,4499],[0.6,4583],[0.6,4666],[0.6,4749],[0.6,4832],[0.6,4917],[0.6,4999],[0.6,5083],[0.6,5166],[0.6,5249],[0.6,5333],[0.6,5416],[0.6,5499],[0.6,5582],[0.6,5666],[0.6,5749],[0.6,5832],[0.6,5915],[0.6,5999],[0.6,6083],[0.6,6166],[0.6,6249],[0.6,6333],[0.6,6416],[0.6,6499],[0.6,6583],[0.6,6667],[0.6,6750],[0.6,6832],[0.6,6916],[0.6,6999],[0.6,7083],[0.6,7166],[0.6,7250],[0.6,7332],[0.6,7415],[0.6,7499],[0.6,7582],[0.6,7666],[0.6,7749],[0.6,7832],[0.6,7916],[0.6,7999],[0.6,8082],[0.6,8166],[0.6,8249],[0.6,8333],[0.6,8416],[0.6,8499],[0.6,8583],[0.6,8666],[0.6,8749],[0.6,8832],[0.6,8915],[0.6,8999],[0.6,9083],[0.6,9166],[0.6,9249],[0.6,9332],[0.6,9416],[0.6,9499],[0.6,9582],[0.6,9666],[0.6,9750],[0.6,9832],[0.6,9916],[0.6,9999],[0.6,10082],[0.6,10166],[0.6,10249],[0.6,10332],[0.6,10417],[0.6,10499],[0.6,10582],[0.6,10666],[0.6,10749],[0.6,10832],[0.6,10917],[0.6,10999],[0.6,11082],[0.6,11166],[0.6,11249],[0.6,11332],[0.6,11416],[3.2,11499],[5.5,11582],[8.3,11668],[10.8,11750],[12.5,11833],[12.8,11917],[12.8,11999],[12.8,12082],[12.8,12166],[12.8,12249],[14.1,12333],[14.9,12415],[16.1,12500],[21.4,12833],[24.1,12916],[24.7,12998],[24.7,13083],[24.7,13166],[24.7,13249],[24.7,13332],[24.7,13416],[24.7,13499],[24.7,13583],[24.7,13666],[24.7,13749],[24.7,13832],[24.7,13916],[24.7,13999],[24.7,14082],[24.7,14166],[24.7,14249],[24.7,14332],[24.7,14416],[24.7,14499],[24.7,14582],[24.7,14666],[24.7,14749],[24.7,14833],[24.7,14916],[24.7,14999],[24.7,15083],[24.7,15166],[24.7,15250],[24.7,15332],[24.7,15416],[24.7,15499],[24.7,15582],[24.7,15666],[24.7,15749],[24.7,15832],[24.7,15916],[24.7,15999],[24.7,16083],[24.7,16166],[24.7,16249],[24.7,16332],[24.7,16416],[24.7,16499],[24.7,16582],[24.7,16666],[24.7,16749],[24.7,16832],[24.7,16916],[24.7,16999],[24.7,17082],[24.7,17166],[24.7,17249],[24.7,17332],[24.7,17416],[24.7,17499],[24.7,17583],[24.7,17666],[24.7,17749],[24.7,17832],[24.7,17916],[24.7,17999],[24.7,18083],[24.7,18166],[24.7,18249],[24.7,18332],[24.7,18416],[24.7,18499],[24.7,18582],[24.7,18666],[24.7,18749],[24.7,18832],[24.7,18916],[24.7,18999],[24.7,19083],[24.7,19166],[24.7,19249],[24.7,19332],[24.7,19415],[24.7,19499],[24.7,19582],[24.7,19666],[24.7,19750],[24.7,19832],[24.7,19916],[24.7,19999],[24.7,20082],[24.7,20166],[24.7,20249],[24.7,20332],[24.7,20415],[24.7,20499],[24.7,20582],[24.7,20666],[24.7,20749],[24.7,20832],[24.7,20917],[24.7,20999],[24.7,21082],[24.7,21166],[24.7,21249],[24.7,21333],[24.7,21417],[24.7,21499],[24.7,21582],[24.7,21667],[24.7,21749],[24.7,21832],[24.7,21916],[24.7,21999],[24.7,22082],[24.7,22166],[24.7,22249],[24.7,22332],[24.7,22416],[24.7,22499],[24.7,22582],[24.7,22665],[24.7,22748],[24.7,22832],[24.7,22916],[24.7,22999],[24.7,23084],[24.7,23166],[24.7,23249],[24.7,23332],[24.7,23416],[24.7,23499],[24.7,23583],[24.7,23666],[24.7,23749],[24.7,23832],[24.7,23916],[24.7,23999],[24.7,24083],[24.7,24166],[24.7,24249],[24.7,24332],[24.7,24417],[24.7,24499],[24.7,24582],[24.7,24667],[24.7,24749],[24.7,24832]]",1,0,959.5505,962.4037,49.47916985,2.5199,"[{""rating"":49.479169845581055,""responseTime"":2.5198999999761327}]",space,2.3271,,962.4039,Half the time,50,969.1822,49.47916985,4.1363,"[{""rating"":49.479169845581055,""responseTime"":4.136299999952371}]",space,0,16,16,16,1,audio/Narrative8Situation7.wav,audio/Narrative7Situation7.wav,audio/Narrative6Situation7.wav,audio/Narrative5Situation7.wav,3,5,5,4,,,6.2338,,,,,,,,,,,,,,,,,,,,,,,,,,,,,,,,,,,,
,,,,,,61146b55c0d8a78134afc566,2024-02-08_13h00.21.581,group3.1-3.2-social-tom,2023.2.2,Win32,59.88023952,65c5074098b851296ff0b7ed,65c5161538f107ed1a6acce7,,,,,,,,,,,,,,,,,,,,,,,,,,,,,969.1829,2,audio/Narrative6Situation8.wav,974.199,,974.199,981.0641,[],1,0,981.0642,984.9338,34.79166985,1.9579,"[{""rating"":34.791669845581055,""responseTime"":1.9578999999761209}]",space,3.3378,,984.9339,Not at all,0,984.9385,,,[],,0,17,17,17,1,audio/Narrative8Situation8.wav,audio/Narrative7Situation8.wav,audio/Narrative6Situation8.wav,audio/Narrative5Situation8.wav,3,2,5,3,,,,,,,,,,,,,,,,,,,,,,,,,,,,,,,,,,,,,,,
,,,,,,61146b55c0d8a78134afc566,2024-02-08_13h00.21.581,group3.1-3.2-social-tom,2023.2.2,Win32,59.88023952,65c5074098b851296ff0b7ed,65c5161538f107ed1a6acce7,,,,,,,,,,,,,,,,,,,,,,,,,,,,,984.9389,2,audio/Narrative6Situation9.wav,988.9487,,988.9488,998.8986,"[[999,13],[999,82],[999,165],[999,249],[999,332],[999,415],[999,501],[999,582],[999,666],[999,752],[999,833],[999,917],[999,1000],[999,1082],[999,1165],[999,1250],[999,1332],[999,1416],[999,1499],[999,1582],[999,1665],[999,1749],[999,1832],[999,1915],[999,2000],[999,2082],[999,2166],[999,2249],[999,2332],[999,2415],[999,2500],[999,2582],[999,2665],[999,2750],[999,2833],[999,2915],[999,2999],[999,3082],[999,3165],[999,3249],[999,3332],[999,3415],[999,3499],[999,3582],[999,3665],[999,3749],[999,3832],[999,3915],[999,4000],[999,4082],[999,4165],[999,4249],[999,4332],[999,4415],[999,4499],[999,4582],[999,4666],[999,4750],[999,4832],[999,4915],[999,4999],[999,5082],[999,5165],[999,5249],[999,5332],[999,5416],[999,5499],[999,5582],[999,5666],[999,5750],[999,5832],[999,5915],[999,6000],[999,6082],[999,6165],[999,6248],[999,6332],[999,6415],[999,6499],[999,6582],[999,6665],[999,6750],[999,6832],[999,6915],[999,6999],[999,7082],[999,7165],[999,7249],[999,7332],[999,7415],[999,7499],[999,7582],[999,7665],[999,7749],[999,7832],[999,7915],[999,7999],[999,8082],[999,8165],[999,8248],[999,8332],[999,8415],[999,8499],[999,8581],[999,8665],[999,8748],[999,8832],[999,8915],[999,8999],[999,9082],[999,9165],[999,9249],[999,9331],[999,9415],[999,9499],[999,9582],[999,9665],[999,9749],[999,9832],[999,9916]]",1,0,998.8995,1001.1148,76.875,1.6083,"[{""rating"":76.875,""responseTime"":1.6082999999522372}]",space,1.6694,,1001.1153,Not at all,0,1001.1179,,,[],,0,18,18,18,1,audio/Narrative8Situation9.wav,audio/Narrative7Situation9.wav,audio/Narrative6Situation9.wav,audio/Narrative5Situation9.wav,3,2,4,3,,,,,,,,,,,,,,,,,,,,,,,,,,,,,,,,,,,,,,,
,,,,,,61146b55c0d8a78134afc566,2024-02-08_13h00.21.581,group3.1-3.2-social-tom,2023.2.2,Win32,59.88023952,65c5074098b851296ff0b7ed,65c5161538f107ed1a6acce7,,,,,,,,,,,,,,,,,,,,,,,,,,,,,,,,,,,,,,,,,,,,,,,,,,,,,,,,,,,,,,,,,,,,,,,,1001.1182,1028.1308,space,26.4832,,1028.1325,1038.547,space,10.0917,,,,,,,,,,,,,,,,,,,,,,,,,,
