exp_question,consent.started,consent.stopped,consentResponse.keys,consentResponse.rt,consentResponse.duration,participantID,date,expName,psychopyVersion,OS,frameRate,STUDY_ID,SESSION_ID,opening1.started,opening1.stopped,keyEndingOpening1.keys,keyEndingOpening1.rt,keyEndingOpening1.duration,volumeAdjust.started,volumeAdjust.stopped,endingAdjust.keys,endingAdjust.rt,endingAdjust.duration,opening2.started,opening2.stopped,keyEndingOpening.keys,keyEndingOpening.rt,keyEndingOpening.duration,mouse.x,mouse.y,mouse.leftButton,mouse.midButton,mouse.rightButton,mouse.time,instructionLoop.thisRepN,instructionLoop.thisTrialN,instructionLoop.thisN,instructionLoop.thisIndex,instructionLoop.ran,readyForAudio.started,readyForAudio.stopped,fixation.started,run,audio_played,fixation.stopped,endPractice.keys,audioPre.started,audioPre.stopped,continuousResponses_audio,continuousSlider.response,continuousSlider.rt,intRating.started,intRating.stopped,intQuestionSlider.response,intQuestionSlider.rt,intQuestionSlider.history,confirmResponse.keys,confirmResponse.rt,confirmResponse.duration,catchQuestion.started,catch_label,catch_value,catchQuestion.stopped,catchQuestionSlider.response,catchQuestionSlider.rt,catchQuestionSlider.history,confirmResponse_2.keys,audioRunLoop.thisRepN,audioRunLoop.thisTrialN,audioRunLoop.thisN,audioRunLoop.thisIndex,audioRunLoop.ran,conditions1_1,conditions2_1,conditions1_2,conditions2_2,dur1_1,dur2_1,dur1_2,dur2_2,endPractice.rt,endPractice.duration,confirmResponse_2.rt,confirmResponse_2.duration,runIntervalBreak.started,runIntervalBreak.stopped,endingBreakKey.keys,endingBreakKey.rt,endingBreakKey.duration,connection.started,connection.stopped,connectionEnding.keys,connectionEnding.rt,connectionEnding.duration,readyForText.started,readyForText.stopped,textPre.started,run_dup,textPre.stopped,continuousResponses_text,textRunLoop.thisRepN,textRunLoop.thisTrialN,textRunLoop.thisN,textRunLoop.thisIndex,textRunLoop.ran,text1_1,text1_2,text2_1,text2_2,runBreakText.started,runBreakText.stopped,endingBreakKey_2.keys,endingBreakKey_2.rt,endingBreakKey_2.duration,ending.started,ending.stopped,endingEnding.keys,endingEnding.rt,endingEnding.duration
social,0.001,29.08,y,28.589,,611e687b8028e22946b055e7,2024-05-13_16h44.07.826,group3.1-3.2-social-tom,2023.2.2,Win32,3.529577862,65c5074098b851296ff0b7ed,664233cca8af77dcd8098d1c,,,,,,,,,,,,,,,,,,,,,,,,,,,,,,,,,,,,,,,,,,,,,,,,,,,,,,,,,,,,,,,,,,,,,,,,,,,,,,,,,,,,,,,,,,,,,,,,,,,,,,,,,,
,,,,,,611e687b8028e22946b055e7,2024-05-13_16h44.07.826,group3.1-3.2-social-tom,2023.2.2,Win32,3.529577862,65c5074098b851296ff0b7ed,664233cca8af77dcd8098d1c,29.08,39.318,space,7.61,,,,,,,,,,,,,,,,,,,,,,,,,,,,,,,,,,,,,,,,,,,,,,,,,,,,,,,,,,,,,,,,,,,,,,,,,,,,,,,,,,,,,,,,,,,,,,,,,,,,,,
,,,,,,611e687b8028e22946b055e7,2024-05-13_16h44.07.826,group3.1-3.2-social-tom,2023.2.2,Win32,3.529577862,65c5074098b851296ff0b7ed,664233cca8af77dcd8098d1c,,,,,,39.318,58.185,space,18.52,,,,,,,,,,,,,,,,,,,,,,,,,,,,,,,,,,,,,,,,,,,,,,,,,,,,,,,,,,,,,,,,,,,,,,,,,,,,,,,,,,,,,,,,,,,,,,,,,
,,,,,,611e687b8028e22946b055e7,2024-05-13_16h44.07.826,group3.1-3.2-social-tom,2023.2.2,Win32,3.529577862,65c5074098b851296ff0b7ed,664233cca8af77dcd8098d1c,,,,,,,,,,,58.202,74.053,space,15.789,,[0.9707174231332357],[0.5850694444444444],[1],[0],[0],[15.274999999999991],0,0,0,0,1,,,,,,,,,,,,,,,,,,,,,,,,,,,,,,,,,,,,,,,,,,,,,,,,,,,,,,,,,,,,,,,,,,,,,,,,,,,,,,,,
,,,,,,611e687b8028e22946b055e7,2024-05-13_16h44.07.826,group3.1-3.2-social-tom,2023.2.2,Win32,3.529577862,65c5074098b851296ff0b7ed,664233cca8af77dcd8098d1c,,,,,,,,,,,74.056,230.182,space,155.894,,"[0.7823328452903856,0.7071742313323572]","[0.4739583333333333,-0.2760416666666667]","[1,1]","[0,0]","[0,0]","[2.4469999999999885,8.271]",1,0,1,0,1,,,,,,,,,,,,,,,,,,,,,,,,,,,,,,,,,,,,,,,,,,,,,,,,,,,,,,,,,,,,,,,,,,,,,,,,,,,,,,,,
,,,,,,611e687b8028e22946b055e7,2024-05-13_16h44.07.826,group3.1-3.2-social-tom,2023.2.2,Win32,3.529577862,65c5074098b851296ff0b7ed,664233cca8af77dcd8098d1c,,,,,,,,,,,230.187,274.98,space,44.619,,[],[],[],[],[],[],2,0,2,0,1,,,,,,,,,,,,,,,,,,,,,,,,,,,,,,,,,,,,,,,,,,,,,,,,,,,,,,,,,,,,,,,,,,,,,,,,,,,,,,,,
,,,,,,611e687b8028e22946b055e7,2024-05-13_16h44.07.826,group3.1-3.2-social-tom,2023.2.2,Win32,3.529577862,65c5074098b851296ff0b7ed,664233cca8af77dcd8098d1c,,,,,,,,,,,274.982,307.877,space,32.818,,[],[],[],[],[],[],3,0,3,0,1,,,,,,,,,,,,,,,,,,,,,,,,,,,,,,,,,,,,,,,,,,,,,,,,,,,,,,,,,,,,,,,,,,,,,,,,,,,,,,,,
,,,,,,611e687b8028e22946b055e7,2024-05-13_16h44.07.826,group3.1-3.2-social-tom,2023.2.2,Win32,3.529577862,65c5074098b851296ff0b7ed,664233cca8af77dcd8098d1c,,,,,,,,,,,307.88,331.11,space,23.176,,[],[],[],[],[],[],4,0,4,0,1,,,,,,,,,,,,,,,,,,,,,,,,,,,,,,,,,,,,,,,,,,,,,,,,,,,,,,,,,,,,,,,,,,,,,,,,,,,,,,,,
,,,,,,611e687b8028e22946b055e7,2024-05-13_16h44.07.826,group3.1-3.2-social-tom,2023.2.2,Win32,3.529577862,65c5074098b851296ff0b7ed,664233cca8af77dcd8098d1c,,,,,,,,,,,,,,,,,,,,,,,,,,,331.114,333.675,333.808,1,audio/Narrative13Situation2.wav,335.814,,335.814,365.924,"[[100,5060],[100,5096],[100,5125],[99.8,5161],[99.9,5721],[99.8,5776],[99.6,5826],[99.6,5865],[99.6,5891],[99.6,5930],[99.6,5965],[99.6,5999],[99.5,6031],[97.6,6074],[96.9,6120],[96.7,6146],[96.6,6184],[96.4,6225],[96.4,6261],[96.4,6290],[96.4,6319],[96.3,6350],[95.8,6387],[95.1,6427],[94.9,6461],[94.7,6497],[94.6,6536],[94.4,6576],[94.4,6607],[94.4,6648],[94.4,6675],[94.4,6708],[94.4,6742],[94.4,6774],[94.4,6804],[94.4,6834],[94.3,6875],[94.3,6908],[94.1,6944],[93.7,6971],[93.2,7009],[93.2,7042],[93.1,7076],[93.1,7108],[93.1,7141],[93.1,7165],[93.1,7201],[93.1,7223],[93.1,7259],[93.1,7286],[93.1,7324],[93.1,7341],[93.1,7375],[93.1,7405],[93.1,7435],[93.1,7463],[93.1,7495],[93.1,7524],[93.1,7552],[93.1,7584],[93.1,7615],[93.1,7651],[93.1,7685],[93.1,7718],[93.1,7752],[93.1,7783],[93.1,7814],[93.1,7846],[93.1,7879],[93.1,7908],[93.1,7953],[93.1,7975],[93.1,8016],[93.1,8035],[93.1,8062],[93.1,8078],[93.1,8122],[93.1,8143],[93.1,8165],[93.1,8184],[93.1,8209],[93.1,8226],[93.1,8250],[93.1,8283],[93.1,8300],[93.1,8329],[93.1,8370],[93.1,8391],[93.1,8423],[93.1,8449],[93.1,8482],[93.1,8511],[93.1,8540],[93.1,8567],[93.1,8596],[93.1,8627],[93.1,8658],[93.1,8694],[93.1,8723],[93.1,8750],[93.1,8778],[93.1,8810],[93.1,8840],[93.1,8870],[93.1,8899],[93.1,8932],[93.1,8953],[93.1,8983],[93.1,9009],[93.1,9040],[93.1,9071],[93.1,9098],[93.1,9132],[93.1,9153],[93.1,9184],[93.1,9213],[93.1,9249],[93.1,9269],[93.1,9298],[93.1,9336],[93.1,9360],[93.1,9391],[93.1,9418],[93.1,9449],[93.1,9478],[93.1,9509],[93.1,9535],[93.1,9564],[93.1,9591],[93.1,9620],[93.1,9653],[93.1,9685],[93.1,9713],[93.1,9747],[93.1,9766],[93.1,9781],[93.1,9802],[93.1,9826],[93.1,9848],[93.1,9870],[93.1,9893],[93.1,9925],[93.1,9958],[93.1,9990],[93.1,10023],[93.1,10050],[93.1,10079],[93.1,10108],[93.1,10139],[93.1,10165],[93.1,10194],[93.1,10223],[93.1,10250],[93.1,10278],[93.1,10310],[93.1,10341],[93.1,10365],[93.1,10396],[93.1,10429],[93.1,10468],[93.1,10490],[93.1,10519],[93.1,10548],[93.1,10574],[93.1,10603],[93.1,10632],[93.1,10663],[93.1,10697],[93.1,10732],[93.1,10756],[93.1,10783],[93.1,10810],[93.1,10843],[93.1,10869],[93.1,10899],[93.1,10930],[93.1,10963],[93.1,11002],[93.1,11031],[93.1,11067],[93.1,11098],[93.1,11125],[93.1,11158],[93.1,11184],[93.1,11213],[93.1,11240],[93.1,11269],[93.1,11298],[93.1,11331],[93.1,11352],[93.1,11381],[93.1,11410],[93.1,11441],[93.1,11476],[93.1,11509],[93.1,11538],[93.1,11567],[93.1,11595],[93.1,11625],[93.1,11649],[93.1,11673],[93.1,11703],[93.1,11730],[93.1,11749],[93.1,11785],[93.1,11809],[93.1,11836],[93.1,11867],[93.1,11896],[93.1,11925],[93.1,11951],[93.1,11985],[93.1,12016],[93.1,12045],[93.1,12074],[93.1,12100],[93.1,12129],[93.1,12158],[93.1,12184],[93.1,12213],[93.1,12240],[93.1,12269],[93.1,12305],[93.1,12334],[93.1,12358],[93.1,12384],[93.1,12415],[93.1,12444],[93.1,12473],[93.1,12502],[93.1,12540],[93.1,12574],[93.1,12603],[93.1,12632],[93.1,12661],[93.1,12692],[93.1,12720],[93.1,12757],[93.1,12790],[93.1,12810],[93.1,12841],[93.1,12870],[93.1,12915],[93.1,12942],[93.1,12975],[93.1,13009],[93.1,13036],[93.1,13074],[93.1,13107],[93.1,13125],[93.1,13158],[93.1,13191],[93.1,13215],[93.1,13242],[93.1,13274],[93.1,13302],[93.1,13331],[93.1,13367],[93.1,13391],[93.1,13418],[93.1,13447],[93.1,13485],[93.1,13507],[93.1,13533],[93.1,13567],[93.1,13598],[93.1,13629],[93.1,13658],[93.1,13685],[93.1,13713],[93.1,13749],[93.1,13783],[93.1,13810],[93.1,13834],[93.1,13862],[93.1,13894],[93.1,13923],[93.1,13953],[93.1,13980],[93.1,14018],[93.1,14040],[93.1,14066],[93.1,14098],[93.1,14131],[93.1,14167],[93.1,14191],[93.1,14221],[93.1,14259],[93.1,14314],[93.1,14348],[93.1,14389],[93.1,14418],[93.1,14447],[93.1,14485],[93.1,14507],[93.1,14536],[93.1,14564],[93.1,14601],[93.1,14627],[93.1,14658],[93.1,14692],[93.1,14723],[93.1,14762],[93.1,14790],[93.1,14819],[93.1,14857],[93.1,14875],[93.1,14910],[93.1,14937],[93.1,14968],[93.1,14999],[93.1,15028],[93.1,15057],[93.1,15083],[93.1,15110],[93.1,15153],[93.1,15177],[93.1,15209],[93.1,15233],[93.1,15262],[93.1,15293],[93.1,15319],[93.1,15348],[93.1,15389],[93.1,15413],[93.1,15442],[93.1,15473],[93.1,15497],[93.1,15531],[93.1,15552],[93.1,15579],[93.1,15624],[93.1,15653],[93.1,15691],[93.1,15718],[93.1,15752],[93.1,15781],[93.1,15807],[93.1,15834],[93.1,15863],[93.1,15899],[93.1,15927],[93.1,15951],[93.1,15982],[93.1,16012],[93.1,16042],[93.1,16069],[93.1,16098],[93.1,16132],[93.1,16158],[93.1,16189],[93.1,16228],[93.1,16261],[93.1,16285],[93.1,16312],[93.1,16341],[93.1,16367],[93.1,16394],[93.1,16429],[93.1,16451],[93.1,16468],[93.1,16494],[93.1,16514],[93.1,16533],[93.1,16560],[93.1,16577],[93.1,16602],[93.1,16625],[93.1,16644],[93.1,16668],[93.1,16692],[93.1,16715],[93.1,16737],[93.1,16766],[93.1,16792],[93.1,16816],[93.1,16846],[93.1,16874],[93.1,16901],[93.1,16930],[93.1,16961],[93.1,16992],[93.1,17019],[93.1,17048],[93.1,17081],[93.1,17115],[93.1,17148],[93.1,17184],[92.8,17215],[92.8,17249],[92.6,17283],[92.6,17317],[92.6,17352],[92.6,17381],[92.6,17413],[92.5,17446],[92.5,17485],[92.5,17507],[92.5,17540],[92.5,17569],[92.5,17598],[92.5,17631],[92.5,17660],[92.5,17692],[92.5,17723],[92.5,17759],[92.5,17795],[92.5,17829],[92.5,17865],[92.5,17886],[92.5,17915],[92.5,17944],[92.5,17976],[92.5,18007],[92.5,18040],[92.5,18074],[92.5,18110],[92.5,18131],[92.5,18161],[92.5,18191],[92.5,18218],[92.5,18249],[92.5,18278],[92.5,18310],[92.5,18346],[92.9,18391],[92.9,18423],[95.1,18449],[96.4,18492],[97.3,18542],[97.6,18574],[97.8,18601],[98.2,18644],[98.5,18675],[98.7,18709],[98.8,18752],[99.2,18792],[99.8,18817],[100,18860],[100,18894],[100,18935],[100,18959],[100,18997],[100,19043],[100,19084]]",1,0,365.924,379.923,78.25768668,9.871,"[{""rating"":78.25768667642751,""responseTime"":9.871000000000038}]",space,13.427,,379.923,Partially,50,379.94,,,[],,0,0,0,0,1,audio/Narrative13Situation2.wav,audio/Narrative13Situation2.wav,audio/Narrative13Situation2.wav,audio/Narrative13Situation2.wav,2,2,2,2,,,,,,,,,,,,,,,,,,,,,,,,,,,,,,,,,,,,,,,
,,,,,,611e687b8028e22946b055e7,2024-05-13_16h44.07.826,group3.1-3.2-social-tom,2023.2.2,Win32,3.529577862,65c5074098b851296ff0b7ed,664233cca8af77dcd8098d1c,,,,,,,,,,,,,,,,,,,,,,,,,,,,,379.941,1,audio/Narrative8Situation1.wav,382.751,space,382.751,398.715,"[[999,7],[999,50],[999,72],[999,84],[999,103],[999,120],[999,144],[999,163],[999,185],[999,202],[999,219],[999,254],[999,274],[999,302],[999,326],[999,358],[999,379],[999,404],[999,430],[999,456],[999,483],[999,509],[999,534],[999,563],[999,588],[999,620],[999,646],[999,673],[999,701],[999,728],[999,757],[999,784],[999,810],[999,841],[999,863],[999,889],[999,906],[999,930],[999,954],[999,974],[999,997],[999,1021],[999,1041],[999,1064],[999,1098],[999,1117],[999,1153],[999,1175],[999,1206],[999,1233],[999,1259],[999,1291],[999,1324],[999,1343],[999,1360],[999,1389],[999,1406],[999,1430],[999,1457],[999,1474],[999,1495],[999,1521],[999,1543],[999,1574],[999,1591],[999,1606],[999,1629],[999,1651],[999,1678],[999,1709],[999,1736],[999,1764],[999,1788],[999,1808],[999,1829],[999,1855],[999,1875],[999,1896],[999,1923],[999,1938],[999,1956],[999,1978],[999,2005],[999,2024],[999,2045],[999,2072],[999,2096],[999,2118],[999,2144],[999,2166],[999,2197],[999,2223],[999,2252],[999,2278],[999,2307],[999,2336],[999,2362],[999,2389],[999,2408],[999,2430],[999,2459],[999,2474],[999,2497],[999,2521],[999,2541],[999,2563],[999,2598],[999,2620],[999,2641],[999,2658],[999,2687],[999,2718],[999,2747],[999,2774],[999,2802],[999,2829],[999,2856],[999,2885],[999,2908],[999,2942],[999,2964],[999,3002],[999,3017],[999,3051],[999,3079],[999,3111],[999,3141],[999,3168],[999,3194],[999,3224],[999,3259],[999,3286],[999,3312],[999,3339],[999,3367],[999,3392],[999,3425],[999,3445],[999,3473],[999,3504],[999,3528],[999,3557],[999,3586],[999,3613],[999,3644],[999,3675],[999,3702],[999,3728],[999,3760],[999,3791],[999,3819],[999,3844],[999,3873],[999,3903],[999,3927],[999,3954],[999,3980],[999,4007],[999,4036],[999,4062],[999,4093],[999,4127],[999,4154],[999,4185],[999,4209],[999,4235],[999,4262],[999,4295],[999,4324],[999,4353],[999,4384],[999,4416],[999,4442],[999,4463],[999,4493],[999,4512],[999,4536],[999,4555],[999,4575],[999,4594],[999,4618],[999,4656],[999,4673],[999,4690],[999,4714],[999,4750],[999,4774],[999,4793],[999,4813],[999,4839],[999,4863],[999,4897],[999,4935],[999,4956],[999,4973],[999,4997],[999,5038],[999,5057],[999,5074],[999,5113],[999,5141],[999,5175],[999,5195],[999,5224],[999,5254],[999,5284],[999,5310],[999,5348],[999,5377],[999,5401],[999,5427],[999,5454],[999,5488],[999,5522],[999,5545],[999,5574],[999,5611],[999,5642],[999,5671],[999,5695],[999,5724],[999,5740],[999,5762],[999,5795],[999,5814],[999,5853],[999,5880],[999,5923],[84.3,5963],[85.8,6002],[86.2,6036],[86.4,6069],[86.4,6108],[86.4,6153],[86.7,6187],[87.5,6235],[88.1,6269],[88.5,6295],[89.4,6336],[90.5,6373],[91,6409],[92.2,6454],[94.1,6497],[95.4,6526],[96.4,6563],[97,6605],[97.3,6637],[97.3,6670],[97.6,6701],[97.9,6738],[98.2,6776],[98.2,6814],[98.4,6855],[98.5,6880],[98.7,6920],[98.8,6961],[98.8,6986],[99,7019],[99,7062],[99,7086],[99,7120],[99,7153],[99,7180],[99,7207],[99,7242],[99,7262],[99,7293],[99,7322],[99,7351],[99,7379],[99,7413],[99,7447],[99,7485],[99,7517],[99,7536],[99,7569],[99,7594],[99,7627],[99,7663],[99,7702],[99,7738],[99,7769],[99,7812],[99,7834],[99,7863],[99,7891],[99,7923],[99,7942],[99,7962],[99,7990],[99,8007],[99,8034],[99,8058],[99,8096],[99,8134],[99,8153],[99,8185],[99,8212],[99,8245],[99,8274],[99,8307],[99,8341],[99,8365],[99,8391],[99,8420],[99,8444],[99,8474],[99,8502],[99,8536],[99,8567],[99,8594],[99,8625],[99,8663],[99,8685],[99,8714],[99,8742],[99,8769],[99,8803],[99,8831],[99,8860],[99,8887],[99,8918],[99,8944],[99,8974],[99,9002],[99,9031],[99,9070],[99,9105],[99,9141],[99,9171],[99,9201],[99,9228],[99,9257],[99,9293],[99,9320],[99,9355],[99,9416],[99,9454],[99,9488],[99,9524],[99,9563],[99,9586],[99,9618],[99,9646],[99,9675],[99,9706],[99,9740],[99,9769],[99,9796],[99,9825],[99,9860],[99,9884],[99,9911],[99,9942],[99,9973],[99,10004],[99,10038],[99,10069],[99,10093],[99,10137],[99,10176],[99,10201],[99,10228],[99,10255],[99,10286],[99,10320],[99,10344],[99,10361],[99,10389],[99,10406],[99,10438],[99,10485],[99,10512],[99,10538],[99,10579],[99,10601],[99,10635],[99,10663],[99,10697],[99,10726],[99,10755],[99,10790],[99,10822],[99,10858],[99,10880],[99,10911],[99,10937],[99,10968],[99,10993],[99,11024],[99,11052],[99,11086],[99,11111],[99,11146],[99,11183],[99,11213],[99,11242],[99,11276],[99,11295],[99,11324],[99,11353],[99,11384],[99,11409],[99,11437],[99,11468],[99,11493],[99,11522],[99,11552],[99,11576],[99,11608],[99,11634],[99,11673],[99,11695],[99,11711],[99,11735],[99,11759],[99,11795],[99,11834],[99,11870],[99,11903],[99,11932],[99,11966],[99,11990],[99,12021],[99,12045],[99,12060],[99,12086],[99,12108],[99,12147],[99,12170],[99,12185],[99,12218],[99,12254],[99,12283],[99,12312],[99,12338],[99,12368],[99,12396],[99,12425],[99,12452],[99,12485],[99,12509],[99,12543],[99,12562],[99,12591],[99,12618],[99,12646],[99,12673],[99,12718],[99,12752],[99,12778],[99,12810],[99,12838],[99,12872],[99,12897],[99,12925],[99,12942],[99,12963],[99,12990],[99,13007],[99,13028],[99,13070],[99,13089],[99,13110],[99,13130],[99,13163],[99,13185],[99,13212],[99,13242],[99,13269],[99,13302],[99,13329],[99,13368],[99,13401],[99,13420],[99,13451],[99,13478],[99,13507],[99,13543],[99,13567],[99,13591],[99,13622],[99,13653],[99,13673],[99,13690],[99,13713],[99,13738],[99,13755],[99,13778],[99,13803],[99,13824],[99,13846],[99,13867],[99,13884],[99,13918],[99,13944],[99,13974],[99,14004],[99,14034],[99,14060],[99,14086],[99,14110],[99,14139],[99,14161],[99,14183],[99,14211],[99,14230],[99,14255],[99,14284],[99,14312],[99,14341],[99,14377],[99,14409],[99,14433],[99,14459],[99,14488],[99,14519],[99,14546],[99,14584],[99,14622],[99,14651],[99,14685],[99,14713],[99,14742],[99,14771],[99,14801],[99,14824],[99,14863],[99,14885],[99,14906],[99,14930],[99,14959],[99,14974],[99,14997],[99,15022],[99,15043],[99,15062],[99,15087],[99,15110],[99,15137],[99,15159],[99,15192],[99,15223],[99,15254],[99,15286],[99,15314],[99,15341],[99,15375],[99,15406],[99,15445],[99,15468],[99,15502],[99,15534],[99,15567],[99,15603],[99,15634],[99,15666],[99,15697],[99,15728],[99,15757],[99,15784],[99,15812],[99,15843],[99,15875],[99,15906],[99,15935],[99,15963]]",1,0,398.719,408.395,91.1420205,4.284,"[{""rating"":91.1420204978038,""responseTime"":4.283999999999992}]",space,9.085,,408.395,Partially,50,424.12,49.75597853,11.008,"[{""rating"":49.75597852611029,""responseTime"":11.008000000000038}]",space,0,1,1,1,1,audio/Narrative7Situation1.wav,audio/Narrative8Situation1.wav,audio/Narrative5Situation1.wav,audio/Narrative6Situation1.wav,2,5,5,2,2.762,0.002,15.142,,,,,,,,,,,,,,,,,,,,,,,,,,,,,,,,,,,,
,,,,,,611e687b8028e22946b055e7,2024-05-13_16h44.07.826,group3.1-3.2-social-tom,2023.2.2,Win32,3.529577862,65c5074098b851296ff0b7ed,664233cca8af77dcd8098d1c,,,,,,,,,,,,,,,,,,,,,,,,,,,,,424.121,1,audio/Narrative8Situation2.wav,427.126,,427.126,437.301,"[[999,2],[999,79],[999,108],[999,149],[999,182],[999,212],[999,242],[999,267],[999,298],[999,329],[999,360],[999,387],[999,415],[999,454],[999,492],[999,524],[999,550],[999,579],[999,608],[999,637],[999,677],[999,702],[999,735],[999,764],[999,793],[999,827],[999,868],[999,894],[999,925],[999,959],[999,990],[999,1007],[999,1041],[999,1069],[999,1100],[999,1130],[999,1158],[999,1190],[999,1226],[999,1259],[999,1281],[999,1315],[999,1336],[999,1365],[999,1394],[999,1425],[999,1450],[999,1480],[999,1509],[999,1538],[999,1567],[999,1598],[999,1632],[999,1654],[999,1682],[999,1714],[999,1747],[999,1779],[999,1808],[999,1837],[999,1875],[999,1897],[999,1925],[999,1954],[999,1983],[999,2012],[999,2043],[999,2076],[999,2108],[999,2135],[999,2170],[999,2199],[999,2228],[999,2269],[999,2295],[999,2325],[999,2355],[999,2389],[999,2413],[999,2437],[999,2461],[999,2486],[999,2516],[999,2543],[999,2572],[999,2600],[999,2627],[999,2658],[999,2683],[999,2711],[999,2742],[999,2776],[999,2808],[999,2834],[999,2865],[999,2899],[999,2925],[999,2949],[999,2983],[999,3002],[999,3033],[999,3062],[999,3105],[999,3141],[999,3166],[999,3194],[999,3212],[999,3247],[999,3262],[999,3283],[999,3303],[999,3334],[999,3358],[999,3391],[999,3425],[999,3442],[999,3473],[999,3500],[999,3528],[999,3558],[999,3584],[999,3612],[999,3641],[999,3678],[999,3709],[999,3728],[999,3759],[999,3788],[999,3820],[999,3853],[999,3877],[999,3908],[999,3935],[999,3968],[999,3998],[999,4033],[999,4053],[999,4081],[999,4117],[999,4149],[999,4178],[999,4209],[999,4233],[999,4260],[999,4290],[999,4317],[999,4344],[999,4377],[999,4408],[999,4435],[999,4462],[999,4492],[999,4517],[999,4543],[999,4565],[999,4591],[999,4634],[999,4658],[999,4687],[999,4723],[999,4748],[999,4767],[999,4798],[999,4836],[999,4858],[999,4887],[999,4925],[999,4957],[999,4978],[999,5000],[999,5026],[999,5050],[999,5065],[999,5101],[999,5123],[999,5142],[999,5170],[999,5199],[999,5228],[999,5257],[999,5283],[999,5319],[999,5341],[999,5370],[999,5397],[999,5432],[999,5461],[999,5492],[999,5516],[999,5550],[999,5579],[999,5605],[999,5632],[999,5646],[999,5668],[999,5694],[999,5711],[999,5731],[999,5750],[999,5776],[999,5795],[999,5812],[999,5834],[999,5860],[999,5884],[999,5909],[999,5930],[999,5944],[999,5968],[999,5997],[999,6034],[999,6050],[999,6077],[999,6103],[999,6129],[999,6151],[999,6177],[999,6194],[999,6212],[999,6236],[999,6260],[999,6281],[999,6302],[999,6327],[999,6348],[999,6370],[999,6394],[999,6413],[999,6442],[999,6464],[999,6481],[999,6502],[999,6524],[999,6552],[999,6579],[999,6618],[999,6641],[999,6675],[999,6704],[999,6745],[999,6774],[999,6796],[999,6824],[999,6853],[999,6882],[999,6913],[999,6940],[999,6966],[999,6995],[999,7026],[999,7075],[999,7111],[999,7139],[999,7161],[999,7192],[999,7216],[999,7243],[999,7274],[999,7310],[999,7325],[999,7361],[999,7385],[999,7416],[999,7447],[999,7474],[999,7502],[999,7531],[999,7565],[999,7596],[999,7625],[999,7651],[999,7680],[999,7716],[999,7742],[999,7766],[999,7800],[999,7820],[999,7853],[999,7875],[999,7894],[999,7911],[999,7935],[999,7962],[999,7978],[999,7997],[999,8019],[999,8043],[999,8064],[999,8082],[999,8101],[999,8130],[999,8153],[999,8190],[999,8213],[999,8236],[999,8259],[999,8281],[999,8302],[999,8325],[999,8346],[999,8368],[999,8391],[999,8415],[999,8437],[999,8462],[999,8481],[999,8502],[999,8526],[999,8545],[999,8562],[999,8586],[999,8610],[999,8625],[999,8658],[999,8692],[999,8726],[999,8757],[999,8791],[999,8810],[999,8851],[999,8875],[999,8901],[999,8930],[999,8959],[999,8985],[999,9012],[999,9040],[999,9067],[999,9096],[999,9127],[999,9161],[999,9192],[999,9218],[999,9245],[999,9276],[999,9300],[999,9329],[999,9358],[999,9384],[999,9411],[999,9440],[999,9468],[999,9497],[999,9526],[999,9551],[999,9581],[999,9615],[999,9635],[999,9676],[999,9701],[999,9733],[999,9762],[999,9793],[999,9824],[999,9853],[999,9884],[999,9911],[999,9949],[999,9969],[999,10007],[999,10031],[999,10053],[999,10084],[999,10111],[999,10141],[999,10175]]",1,0,437.302,444.302,39.50707662,5.85,"[{""rating"":39.50707662274279,""responseTime"":5.850000000000023}]",space,6.405,,444.302,Definitely yes,100,444.326,,,[],,0,2,2,2,1,audio/Narrative7Situation2.wav,audio/Narrative8Situation2.wav,audio/Narrative5Situation2.wav,audio/Narrative6Situation2.wav,3,3,3,3,,,,,,,,,,,,,,,,,,,,,,,,,,,,,,,,,,,,,,,
,,,,,,611e687b8028e22946b055e7,2024-05-13_16h44.07.826,group3.1-3.2-social-tom,2023.2.2,Win32,3.529577862,65c5074098b851296ff0b7ed,664233cca8af77dcd8098d1c,,,,,,,,,,,,,,,,,,,,,,,,,,,,,444.328,1,audio/Narrative8Situation3.wav,448.334,,448.335,470.75,"[[39.9,2723],[41.4,2767],[64.8,4584],[64.4,4632],[64.2,4664],[64.2,4683],[64.2,4721],[64.2,4764],[64.2,4793],[64.4,4817],[65.3,4851],[68,4892],[70.3,4937],[72.7,4983],[75.5,5031],[78.2,5074],[79.7,5118],[82.3,5166],[83.8,5199],[87.2,5238],[88.4,5281],[88.7,5319],[88.8,5349],[89,5384],[89,5414],[89.1,5449],[89.1,5480],[89.1,5515],[89.1,5551],[89.3,5575],[89.3,5608],[89.3,5639],[89.3,5665],[89.3,5694],[89.3,5736],[89.3,5783],[89.3,5831],[89.3,5882],[89.3,5942],[89.3,5980],[89.3,6052],[89.3,6101],[89.3,6132],[89.3,6164],[89.3,6199],[89.3,6230],[89.3,6262],[89.3,6298],[89.3,6319],[89.3,6339],[89.3,6366],[89.3,6394],[89.3,6409],[89.3,6435],[89.3,6451],[89.3,6475],[89.3,6502],[89.3,6524],[89.3,6545],[89.3,6569],[89.3,6589],[89.3,6613],[89.3,6644],[89.3,6675],[89.3,6704],[89.3,6733],[89.3,6760],[89.3,6796],[89.3,6824],[89.3,6848],[89.3,6887],[89.3,6921],[89.3,6959],[89.3,6991],[89.3,7024],[89.3,7053],[89.3,7091],[89.3,7123],[89.3,7154],[89.3,7183],[89.3,7214],[89.3,7240],[89.3,7274],[89.3,7298],[89.3,7322],[89.3,7358],[89.3,7391],[89.3,7420],[89.3,7451],[89.3,7480],[89.3,7509],[89.3,7538],[89.3,7563],[89.3,7593],[89.3,7622],[89.3,7656],[89.3,7687],[89.3,7721],[89.3,7748],[89.3,7783],[89.3,7814],[89.3,7842],[89.3,7870],[89.3,7899],[89.3,7930],[89.3,7956],[89.3,7986],[89.3,8015],[89.3,8041],[89.3,8091],[89.3,8132],[89.3,8182],[89.3,8233],[89.3,8254],[89.3,8274],[89.3,8305],[89.3,8322],[89.3,8342],[89.3,8370],[89.3,8389],[89.3,8418],[89.3,8437],[89.3,8459],[89.3,8485],[89.3,8503],[89.3,8533],[89.3,8555],[89.3,8576],[89.3,8598],[89.3,8615],[89.3,8656],[89.3,8680],[89.3,8713],[89.3,8750],[89.3,8772],[89.3,8802],[89.3,8831],[89.3,8858],[89.3,8887],[89.3,8914],[89.3,8942],[89.3,8971],[89.3,9004],[89.3,9038],[89.3,9060],[89.3,9091],[89.3,9125],[89.3,9156],[89.3,9185],[89.3,9216],[89.3,9248],[89.3,9274],[89.3,9303],[89.3,9331],[89.3,9358],[89.3,9385],[89.3,9418],[89.3,9442],[89.3,9459],[89.3,9483],[89.3,9503],[89.3,9526],[89.3,9552],[89.3,9576],[89.3,9601],[89.3,9622],[89.3,9649],[89.3,9668],[89.3,9689],[89.3,9711],[89.3,9735],[89.3,9750],[89.3,9779],[89.3,9810],[89.3,9851],[89.3,9873],[89.3,9908],[89.3,9923],[89.3,9949],[89.3,9968],[89.3,9986],[89.3,10017],[89.3,10034],[89.3,10052],[89.3,10076],[89.3,10115],[89.3,10132],[89.3,10153],[89.3,10182],[89.3,10216],[89.3,10241],[89.3,10274],[89.3,10305],[89.3,10332],[89.3,10363],[89.3,10387],[89.3,10415],[89.3,10440],[89.3,10468],[89.3,10498],[89.3,10524],[89.3,10555],[89.3,10581],[89.3,10608],[89.3,10641],[89.3,10671],[89.3,10701],[89.3,10733],[89.3,10774],[89.3,10800],[89.3,10831],[89.3,10863],[89.3,10903],[89.3,10921],[89.3,10951],[89.3,10973],[89.3,11007],[89.3,11036],[89.3,11063],[89.3,11103],[89.3,11130],[89.3,11161],[89.3,11189],[89.3,11216],[89.3,11242],[89.3,11274],[89.3,11291],[89.3,11315],[89.3,11360],[89.3,11387],[89.3,11411],[89.3,11449],[89.3,11464],[89.3,11500],[89.3,11521],[89.3,11550],[89.3,11575],[89.3,11603],[89.3,11634],[89.3,11658],[89.3,11689],[89.3,11721],[89.3,11755],[89.3,11777],[89.3,11807],[89.3,11834],[89.3,11867],[89.3,11899],[89.3,11925],[89.3,11954],[89.3,11980],[89.3,12007],[89.3,12038],[89.3,12072],[89.3,12099],[89.3,12132],[89.3,12159],[89.3,12197],[89.3,12214],[89.3,12250],[89.3,12271],[89.3,12300],[89.3,12336],[89.3,12372],[89.3,12406],[89.3,12433],[89.3,12464],[89.3,12490],[89.3,12517],[89.3,12548],[89.3,12574],[89.3,12603],[89.3,12630],[89.3,12658],[89.3,12687],[89.3,12721],[89.3,12742],[89.3,12767],[89.3,12791],[89.3,12817],[89.3,12834],[89.3,12854],[89.3,12877],[89.3,12899],[89.3,12932],[89.3,12961],[89.3,12990],[89.3,13016],[89.3,13039],[89.3,13069],[89.3,13086],[89.3,13116],[89.3,13137],[89.3,13173],[89.3,13199],[89.3,13230],[89.3,13264],[89.3,13295],[89.3,13331],[89.3,13353],[89.3,13382],[89.3,13409],[89.3,13449],[89.3,13476],[89.3,13509],[89.3,13538],[89.3,13570],[89.9,13601],[90.2,13637],[90.5,13666],[90.8,13700],[91,13733],[91.1,13767],[91.4,13807],[91.6,13842],[91.6,13872],[91.6,13902],[91.7,13932],[91.7,13971],[91.7,14004],[91.7,14036],[91.7,14067],[91.7,14098],[91.7,14132],[91.7,14163],[91.7,14194],[91.7,14231],[91.7,14248],[91.7,14283],[91.7,14315],[91.7,14363],[91.7,14389],[91.7,14420],[91.7,14449],[91.7,14479],[91.7,14515],[91.7,14548],[91.7,14572],[91.7,14601],[91.7,14622],[91.7,14639],[91.7,14659],[91.7,14683],[91.7,14704],[91.7,14724],[91.7,14750],[91.7,14771],[91.7,14790],[91.7,14815],[91.7,14834],[91.7,14858],[91.7,14884],[91.7,14903],[91.7,14925],[91.7,14959],[91.7,14976],[91.7,15002],[91.7,15019],[91.7,15040],[90,15067],[82.8,15101],[80.3,16252],[81.1,16284],[81.5,16320],[81.8,16351],[82.1,16394],[82.4,16467],[82.6,16500],[82.6,16534],[82.6,16557],[82.6,16586],[82.6,16613],[82.6,16640],[82.6,16673],[82.6,16702],[82.6,16729],[82.6,16759],[82.6,16793],[82.6,16834],[82.6,16856],[82.6,16884],[82.6,16918],[82.6,16942],[82.6,16959],[82.6,16985],[82.6,17003],[82.6,17026],[82.6,17050],[82.8,17086],[83.5,17120],[84.1,17149],[84.6,17183],[85.5,17219],[86.9,17265],[87.9,17300],[88.8,17332],[89.3,17366],[89.6,17401],[89.9,17433],[90.2,17469],[90.5,17504],[90.8,17539],[91,17572],[91.3,17603],[91.4,17635],[91.4,17670],[91.6,17714],[91.7,17748],[91.9,17774],[91.9,17805],[91.9,17839],[91.9,17868],[91.9,17897],[91.9,17925],[91.9,17952],[91.9,17979],[91.9,18004],[91.9,18038],[91.9,18057],[91.9,18087],[91.9,18127],[91.9,18151],[91.9,18180],[91.9,18207],[91.9,18238],[91.9,18271],[91.9,18303],[91.9,18331]]",1,0,470.751,486.988,59.12640312,13.097,"[{""rating"":78.55051244509517,""responseTime"":4.342000000000098},{""rating"":59.126403123474866,""responseTime"":13.097000000000094}]",space,15.644,,486.988,Partially,50,487.009,,,[],,0,3,3,3,1,audio/Narrative7Situation3.wav,audio/Narrative8Situation3.wav,audio/Narrative5Situation3.wav,audio/Narrative6Situation3.wav,8,4,3,5,,,,,,,,,,,,,,,,,,,,,,,,,,,,,,,,,,,,,,,
,,,,,,611e687b8028e22946b055e7,2024-05-13_16h44.07.826,group3.1-3.2-social-tom,2023.2.2,Win32,3.529577862,65c5074098b851296ff0b7ed,664233cca8af77dcd8098d1c,,,,,,,,,,,,,,,,,,,,,,,,,,,,,487.01,1,audio/Narrative8Situation4.wav,490.04,,490.04,504.255,"[[999,0],[999,66],[999,100],[999,149],[999,210],[999,243],[999,269],[999,303],[999,360],[999,409],[999,461],[999,507],[999,564],[999,618],[999,656],[999,707],[999,776],[999,818],[999,857],[999,924],[999,958],[999,996],[999,1028],[999,1066],[999,1098],[999,1128],[999,1159],[999,1180],[999,1202],[999,1227],[999,1250],[999,1275],[999,1296],[999,1320],[999,1346],[999,1366],[999,1392],[999,1410],[999,1429],[999,1461],[999,1481],[999,1500],[999,1528],[999,1576],[999,1612],[999,1641],[999,1678],[999,1703],[999,1734],[999,1766],[999,1796],[999,1824],[999,1853],[999,1890],[999,1913],[999,1947],[999,1975],[999,2008],[999,2040],[999,2067],[999,2096],[999,2125],[999,2157],[999,2197],[999,2223],[999,2253],[999,2283],[999,2312],[999,2341],[999,2367],[999,2397],[999,2431],[999,2453],[999,2495],[999,2525],[999,2566],[999,2597],[999,2628],[999,2666],[999,2685],[999,2715],[999,2745],[999,2774],[999,2799],[999,2828],[999,2857],[999,2886],[999,2916],[999,2945],[999,2975],[999,3002],[999,3031],[999,3076],[999,3117],[999,3153],[999,3200],[999,3224],[999,3260],[999,3286],[999,3310],[999,3331],[999,3358],[999,3392],[999,3425],[999,3457],[999,3493],[999,3518],[999,3549],[999,3587],[999,3625],[999,3658],[999,3690],[999,3708],[999,3741],[999,3776],[999,3802],[999,3832],[999,3862],[999,3889],[999,3920],[999,3947],[999,3982],[999,4006],[999,4032],[999,4060],[999,4091],[999,4123],[999,4164],[999,4187],[999,4208],[999,4234],[999,4258],[999,4279],[999,4302],[999,4332],[999,4350],[999,4379],[999,4399],[999,4416],[999,4435],[999,4456],[999,4479],[999,4514],[999,4542],[999,4575],[999,4607],[999,4642],[999,4674],[999,4702],[999,4730],[999,4765],[999,4789],[999,4819],[999,4848],[999,4884],[999,4907],[999,4933],[999,4962],[999,4992],[999,5025],[999,5060],[999,5086],[999,5125],[999,5142],[999,5179],[999,5215],[999,5237],[999,5265],[999,5296],[999,5335],[999,5365],[999,5390],[999,5416],[999,5447],[999,5482],[999,5501],[999,5532],[999,5561],[999,5592],[999,5628],[999,5668],[999,5694],[999,5730],[999,5768],[999,5790],[999,5820],[999,5848],[999,5878],[999,5918],[999,5939],[999,5968],[999,5995],[999,6032],[999,6052],[999,6081],[999,6115],[999,6135],[999,6168],[999,6207],[999,6247],[999,6278],[999,6316],[999,6336],[999,6373],[999,6391],[999,6424],[999,6449],[999,6478],[999,6507],[999,6535],[999,6563],[999,6603],[999,6636],[999,6658],[999,6692],[999,6716],[999,6750],[999,6782],[999,6816],[999,6850],[999,6883],[999,6915],[999,6947],[999,6980],[999,7011],[999,7043],[999,7075],[999,7107],[999,7135],[999,7166],[999,7198],[999,7228],[999,7269],[999,7296],[999,7329],[999,7361],[999,7391],[999,7418],[999,7449],[999,7478],[999,7508],[999,7536],[999,7568],[999,7596],[999,7630],[999,7661],[999,7693],[999,7724],[999,7753],[999,7783],[999,7819],[999,7857],[999,7879],[999,7907],[999,7943],[999,7975],[999,7996],[999,8025],[999,8057],[999,8084],[999,8114],[999,8150],[999,8185],[999,8226],[999,8263],[999,8298],[999,8344],[999,8380],[999,8416],[999,8473],[999,8510],[999,8545],[999,8575],[999,8623],[999,8661],[999,8691],[999,8719],[999,8750],[999,8798],[999,8825],[999,8851],[999,8884],[999,8915],[999,8951],[999,8982],[999,9015],[999,9046],[999,9083],[999,9117],[100,9158],[100,9195],[100,9232],[100,9269],[100,9308],[100,9346],[100,9392],[100,9435],[100,9464],[100,9501],[100,9545],[100,9574],[100,9608],[100,9650],[100,9684],[99.9,9718],[99.9,9752],[99.9,9786],[99.9,9828],[99.9,9852],[99.9,9892],[99.9,9925],[99.9,9960],[99.9,9993],[99.9,10032],[99.9,10055],[99.9,10084],[99.9,10114],[99.9,10149],[99.9,10183],[99.9,10213],[99.9,10242],[99.9,10274],[99.9,10300],[99.9,10332],[99.9,10362],[99.9,10393],[99.9,10426],[99.9,10458],[99.9,10491],[99.9,10524],[99.9,10552],[99.9,10584],[99.9,10620],[99.9,10658],[99.9,10686],[99.9,10716],[99.9,10745],[99.9,10775],[99.9,10802],[99.9,10832],[99.9,10862],[99.9,10893],[99.9,10918],[99.9,10956],[99.9,10976],[99.9,11014],[99.9,11045],[99.9,11082],[99.9,11103],[99.9,11140],[99.9,11157],[99.9,11191],[99.9,11218],[99.9,11246],[99.9,11275],[99.9,11302],[99.9,11340],[99.9,11357],[99.9,11391],[99.9,11416],[99.9,11445],[99.9,11474],[99.9,11506],[99.9,11542],[99.9,11574],[99.9,11596],[99.9,11628],[99.9,11662],[99.9,11690],[99.9,11719],[99.9,11755],[99.9,11776],[99.9,11807],[99.9,11841],[99.9,11873],[99.9,11892],[99.9,11925],[99.9,11951],[99.9,11980],[99.9,12014],[99.9,12042],[99.9,12074],[99.9,12102],[99.9,12130],[99.9,12158],[99.9,12186],[99.9,12214],[99.9,12243],[99.9,12275],[99.9,12301],[99.9,12329],[99.9,12358],[99.9,12391],[99.9,12416],[99.9,12445],[99.9,12476],[99.9,12502],[99.9,12530],[99.9,12563],[99.9,12594],[99.9,12633],[99.9,12656],[99.9,12685],[99.9,12714],[99.9,12745],[99.9,12774],[99.9,12800],[99.9,12830],[99.9,12867],[99.9,12890],[99.9,12917],[99.9,12945],[99.9,13019],[99.9,13052],[99.9,13080],[99.9,13112],[99.9,13141],[99.9,13169],[99.9,13197],[99.9,13233],[99.9,13253],[99.9,13295],[99.9,13313],[99.9,13335],[99.9,13358],[99.9,13380],[99.9,13396],[99.9,13415],[99.9,13434],[99.9,13458],[99.9,13477],[99.9,13500],[99.9,13525],[99.9,13544],[99.9,13566],[99.9,13602],[99.9,13620],[99.9,13649],[99.9,13678],[99.9,13707],[99.9,13742],[99.9,13766],[99.9,13798],[99.9,13832],[99.9,13857],[99.9,13893],[99.9,13929],[99.9,13951],[99.9,13979],[99.9,14007],[99.9,14036],[99.9,14063],[99.9,14098],[99.9,14123],[99.9,14152],[99.9,14192],[99.9,14214]]",1,0,504.256,509.615,98.95070766,4.243,"[{""rating"":98.95070766227427,""responseTime"":4.242999999999938}]",space,4.79,,509.616,Definitely yes,100,509.626,,,[],,0,4,4,4,1,audio/Narrative7Situation4.wav,audio/Narrative8Situation4.wav,audio/Narrative5Situation4.wav,audio/Narrative6Situation4.wav,3,3,1,2,,,,,,,,,,,,,,,,,,,,,,,,,,,,,,,,,,,,,,,
,,,,,,611e687b8028e22946b055e7,2024-05-13_16h44.07.826,group3.1-3.2-social-tom,2023.2.2,Win32,3.529577862,65c5074098b851296ff0b7ed,664233cca8af77dcd8098d1c,,,,,,,,,,,,,,,,,,,,,,,,,,,,,509.629,1,audio/Narrative8Situation5.wav,511.637,,511.637,519.935,"[[98.1,3655],[90.3,3695],[74.9,4072],[74.7,4105],[74.6,4144],[74.6,4179],[74.6,4211],[74.6,4252],[74.6,4286],[74.5,4310],[74.5,4342],[74.5,4379],[74.4,4411],[74.4,4443],[74.4,4469],[74.4,4499],[74.4,4528],[74.4,4558],[74.4,4593],[74.4,4616],[74.4,4637],[74.4,4669],[74.4,4687],[74.4,4711],[74.4,4730],[74.4,4762],[74.4,4795],[74.4,4860],[74.4,4879],[74.4,4892],[74.4,4927],[74.4,4959],[74.4,5000],[74.4,5043],[74.4,5101],[74.4,5122],[74.4,5144],[74.4,5179],[74.4,5201],[74.4,5228],[74.4,5251],[74.4,5273],[74.4,5295],[74.4,5319],[74.4,5343],[74.4,5366],[74.4,5386],[74.4,5410],[74.4,5429],[74.4,5452],[74.4,5478],[74.4,5519],[74.4,5541],[74.4,5576],[75.2,5605],[78.6,6680],[78.3,6719],[78.2,6762],[78.2,6795],[78.3,6833],[78.3,6870],[78.3,6903],[78.3,6937],[78.3,6971],[78.3,7002],[78.3,7034],[78.2,7067],[78,7108],[77.9,7171],[77.9,7197],[77.9,7218],[77.7,7254],[77.7,7288],[77.7,7327],[77.7,7362],[77.7,7404],[77.7,7438],[77.7,7478],[77.7,7512],[77.7,7529],[77.7,7549],[77.7,7572],[77.7,7597],[77.7,7616],[77.7,7645],[77.7,7670],[77.7,7701],[77.7,7732],[77.7,7766],[77.7,7798],[77.7,7836],[77.7,7858],[77.7,7886],[77.7,7920],[77.7,7958],[77.7,7991],[77.7,8019],[77.7,8046],[77.7,8077],[77.7,8102],[77.7,8135],[77.7,8177],[77.7,8209],[77.7,8245],[77.7,8266],[77.7,8298]]",1,0,519.935,523.896,78.45290386,1.9,"[{""rating"":78.45290385553929,""responseTime"":1.8999999999999773}]",space,3.362,,523.897,Partially,50,523.915,,,[],,0,5,5,5,1,audio/Narrative7Situation5.wav,audio/Narrative8Situation5.wav,audio/Narrative5Situation5.wav,audio/Narrative6Situation5.wav,5,2,5,2,,,,,,,,,,,,,,,,,,,,,,,,,,,,,,,,,,,,,,,
,,,,,,611e687b8028e22946b055e7,2024-05-13_16h44.07.826,group3.1-3.2-social-tom,2023.2.2,Win32,3.529577862,65c5074098b851296ff0b7ed,664233cca8af77dcd8098d1c,,,,,,,,,,,,,,,,,,,,,,,,,,,,,523.916,1,audio/Narrative8Situation6.wav,525.92,,525.92,532.404,"[[79.7,3478],[86.1,3512],[91.3,3552],[92.6,3594],[93.2,3649],[93.8,3684],[94.3,3716],[94.6,3754],[96.3,3796],[100,3833],[100,3878],[100,3918],[100,3945],[100,3981],[100,4019],[100,4059],[100,4094],[100,4127],[100,4170],[100,4227],[100,4295],[100,4328],[100,4361],[100,4396],[100,4426],[100,4459],[100,4492],[100,4528],[100,4560],[100,4596],[100,4626],[100,4659],[100,4689],[100,4726],[100,4752],[100,4779],[100,4801],[100,4834],[100,4855],[100,4887],[100,4918],[100,4945],[100,4975],[100,5009],[100,5043],[100,5069],[100,5103],[100,5137],[100,5166],[100,5194],[100,5226],[100,5251],[100,5279],[100,5308],[100,5334],[100,5368],[100,5392],[100,5418],[100,5451],[100,5476],[100,5500],[100,5525],[100,5554],[100,5582],[100,5620],[100,5645],[100,5676],[100,5704],[100,5733],[100,5759],[100,5788],[100,5818],[100,5862],[100,5902],[100,5944],[100,5995],[100,6035],[100,6094],[100,6135],[100,6178],[100,6216],[100,6250],[100,6284],[100,6315],[100,6350],[100,6370],[100,6399],[100,6426],[100,6453],[100,6483]]",1,0,532.404,539.247,91.92288921,4.501,"[{""rating"":91.92288921425084,""responseTime"":4.50100000000009}]",space,6.279,,539.247,Partially,50,539.253,,,[],,0,6,6,6,1,audio/Narrative7Situation6.wav,audio/Narrative8Situation6.wav,audio/Narrative5Situation6.wav,audio/Narrative6Situation6.wav,3,2,3,2,,,,,,,,,,,,,,,,,,,,,,,,,,,,,,,,,,,,,,,
,,,,,,611e687b8028e22946b055e7,2024-05-13_16h44.07.826,group3.1-3.2-social-tom,2023.2.2,Win32,3.529577862,65c5074098b851296ff0b7ed,664233cca8af77dcd8098d1c,,,,,,,,,,,,,,,,,,,,,,,,,,,,,539.255,1,audio/Narrative8Situation7.wav,542.264,,542.264,554.388,[],1,0,554.389,559.248,19.88775012,2.238,"[{""rating"":19.88775012201074,""responseTime"":2.2379999999999427}]",space,4.291,,559.25,Definitely yes,100,559.285,,,[],,0,7,7,7,1,audio/Narrative7Situation7.wav,audio/Narrative8Situation7.wav,audio/Narrative5Situation7.wav,audio/Narrative6Situation7.wav,5,3,4,5,,,,,,,,,,,,,,,,,,,,,,,,,,,,,,,,,,,,,,,
,,,,,,611e687b8028e22946b055e7,2024-05-13_16h44.07.826,group3.1-3.2-social-tom,2023.2.2,Win32,3.529577862,65c5074098b851296ff0b7ed,664233cca8af77dcd8098d1c,,,,,,,,,,,,,,,,,,,,,,,,,,,,,559.287,1,audio/Narrative8Situation8.wav,562.288,,562.288,575.15,[],1,0,575.151,579.647,35.9931674,3.585,"[{""rating"":35.993167398731075,""responseTime"":3.5849999999999227}]",space,3.839,,579.647,Not at all,0,579.658,,,[],,0,8,8,8,1,audio/Narrative7Situation8.wav,audio/Narrative8Situation8.wav,audio/Narrative5Situation8.wav,audio/Narrative6Situation8.wav,2,3,3,5,,,,,,,,,,,,,,,,,,,,,,,,,,,,,,,,,,,,,,,
,,,,,,611e687b8028e22946b055e7,2024-05-13_16h44.07.826,group3.1-3.2-social-tom,2023.2.2,Win32,3.529577862,65c5074098b851296ff0b7ed,664233cca8af77dcd8098d1c,,,,,,,,,,,,,,,,,,,,,,,,,,,,,579.659,1,audio/Narrative8Situation9.wav,582.683,,582.683,594.101,"[[37,11033],[37.8,11355],[38.1,11416]]",1,0,594.102,597.213,16.17862372,1.797,"[{""rating"":16.178623718887263,""responseTime"":1.7970000000000255}]",space,2.472,,597.214,Definitely yes,100,597.23,,,[],,0,9,9,9,1,audio/Narrative7Situation9.wav,audio/Narrative8Situation9.wav,audio/Narrative5Situation9.wav,audio/Narrative6Situation9.wav,2,3,3,4,,,,,,,,,,,,,,,,,,,,,,,,,,,,,,,,,,,,,,,
,,,,,,611e687b8028e22946b055e7,2024-05-13_16h44.07.826,group3.1-3.2-social-tom,2023.2.2,Win32,3.529577862,65c5074098b851296ff0b7ed,664233cca8af77dcd8098d1c,,,,,,,,,,,,,,,,,,,,,,,,,,,,,597.231,1,audio/Narrative7Situation1.wav,599.237,,599.237,655.196,"[[999,0],[999,50],[999,75],[999,107],[999,138],[999,195],[999,227],[999,250],[999,278],[999,307],[999,337],[999,364],[999,391],[999,424],[999,449],[999,484],[999,521],[999,546],[999,582],[999,613],[999,644],[999,673],[999,707],[999,734],[999,766],[999,793],[999,822],[999,848],[999,877],[999,916],[999,938],[999,967],[999,1001],[999,1035],[999,1071],[999,1092],[999,1117],[999,1141],[999,1163],[999,1185],[999,1208],[999,1228],[999,1250],[999,1279],[999,1309],[999,1340],[999,1367],[999,1407],[999,1430],[999,1463],[999,1492],[999,1524],[999,1556],[999,1588],[999,1622],[999,1658],[999,1688],[999,1715],[999,1747],[999,1780],[999,1810],[999,1840],[999,1868],[999,1896],[999,1932],[999,1954],[999,1983],[999,2016],[999,2057],[999,2079],[999,2115],[999,2138],[999,2171],[999,2197],[999,2228],[999,2267],[999,2290],[999,2318],[999,2347],[999,2377],[999,2406],[999,2439],[999,2466],[999,2497],[999,2525],[999,2556],[999,2584],[999,2614],[999,2646],[999,2688],[999,2717],[999,2755],[999,2779],[999,2814],[999,2844],[999,2882],[999,2904],[999,2930],[999,2958],[999,3000],[999,3025],[999,3063],[999,3086],[999,3115],[999,3146],[999,3190],[999,3222],[999,3256],[999,3287],[999,3321],[999,3355],[999,3388],[999,3415],[999,3446],[999,3476],[999,3507],[999,3540],[999,3572],[999,3604],[999,3640],[999,3660],[999,3701],[999,3741],[999,3767],[999,3809],[999,3834],[999,3880],[999,3899],[999,3923],[999,3955],[999,3991],[999,4015],[999,4046],[999,4083],[999,4107],[999,4126],[999,4155],[999,4183],[999,4210],[999,4239],[999,4272],[999,4305],[999,4338],[999,4367],[999,4396],[999,4426],[999,4477],[999,4505],[999,4532],[999,4556],[999,4582],[999,4612],[999,4643],[999,4673],[999,4698],[999,4727],[999,4774],[999,4805],[999,4838],[999,4868],[999,4908],[999,4938],[999,4967],[999,4996],[999,5049],[999,5081],[999,5131],[999,5194],[999,5234],[999,5288],[999,5355],[999,5407],[999,5445],[999,5508],[999,5556],[999,5607],[999,5644],[999,5706],[999,5756],[999,5808],[999,5846],[999,5907],[999,5957],[999,6010],[999,6046],[999,6107],[999,6173],[999,6240],[999,6312],[999,6356],[999,6406],[999,6472],[999,6540],[999,6590],[999,6634],[999,6698],[999,6734],[999,6783],[999,6842],[999,6889],[999,6936],[999,6973],[999,7034],[999,7098],[999,7175],[999,7251],[999,7315],[999,7378],[999,7423],[999,7480],[999,7558],[999,7595],[999,7658],[999,7706],[999,7757],[999,7805],[999,7858],[999,7895],[999,7945],[999,8009],[999,8057],[999,8112],[999,8163],[999,8223],[999,8274],[999,8323],[999,8372],[999,8421],[999,8476],[999,8524],[999,8590],[999,8650],[999,8727],[999,8767],[999,8822],[999,8873],[999,8927],[999,8965],[999,9014],[999,9065],[999,9116],[999,9164],[999,9211],[999,9271],[999,9317],[999,9355],[999,9410],[999,9447],[999,9500],[999,9562],[999,9599],[999,9659],[999,9695],[999,9754],[999,9789],[999,9834],[999,9892],[999,9932],[999,9984],[999,10050],[999,10088],[999,10137],[999,10189],[999,10247],[999,10280],[999,10326],[999,10388],[999,10429],[999,10511],[999,10577],[999,10641],[999,10708],[999,10774],[999,10816],[999,10873],[999,10931],[999,10995],[999,11071],[999,11115],[999,11143],[999,11183],[999,11213],[999,11244],[999,11281],[999,11315],[999,11353],[999,11389],[999,11429],[999,11476],[999,11520],[999,11566],[999,11609],[999,11669],[999,11707],[999,11772],[999,11830],[999,11865],[999,11914],[999,11962],[999,12019],[999,12076],[999,12121],[999,12174],[999,12222],[999,12264],[999,12315],[999,12367],[999,12427],[999,12461],[999,12517],[999,12555],[999,12603],[999,12651],[999,12711],[999,12743],[999,12783],[999,12826],[999,12862],[999,12895],[999,12925],[999,12951],[999,12992],[999,13016],[999,13037],[999,13062],[999,13096],[999,13139],[999,13170],[999,13205],[999,13232],[999,13292],[999,13318],[999,13344],[999,13379],[999,13410],[999,13443],[999,13474],[999,13506],[999,13532],[999,13576],[999,13596],[999,13627],[999,13658],[999,13688],[999,13715],[999,13754],[999,13777],[999,13812],[999,13843],[999,13877],[999,13909],[999,13944],[999,13976],[999,13993],[999,14040],[999,14055],[999,14071],[999,14098],[999,14125],[999,14159],[999,14194],[999,14227],[999,14266],[999,14289],[999,14321],[999,14355],[999,14389],[999,14423],[999,14438],[999,14480],[999,14505],[999,14534],[999,14564],[999,14593],[999,14622],[999,14656],[999,14682],[999,14713],[999,14744],[999,14778],[999,14800],[999,14828],[999,14858],[999,14893],[999,14933],[999,14955],[999,14988],[999,15015],[999,15050],[999,15084],[999,15115],[999,15145],[999,15178],[999,15210],[999,15247],[999,15280],[999,15312],[999,15342],[999,15375],[999,15407],[999,15440],[999,15471],[999,15500],[999,15527],[999,15558],[999,15588],[999,15625],[999,15646],[999,15662],[999,15684],[999,15708],[999,15728],[999,15750],[999,15772],[999,15791],[999,15822],[999,15839],[999,15862],[999,15890],[999,15912],[999,15928],[999,15949],[999,15977],[999,16014],[999,16041],[999,16072],[999,16105],[999,16132],[999,16162],[999,16200],[999,16221],[999,16257],[999,16290],[999,16323],[999,16355],[999,16388],[999,16416],[999,16447],[999,16488],[999,16524],[999,16555],[999,16588],[999,16621],[999,16649],[999,16682],[999,16712],[999,16744],[999,16779],[999,16804],[999,16839],[999,16860],[999,16900],[999,16932],[999,16955],[999,16988],[999,17025],[999,17057],[999,17088],[999,17122],[999,17151],[999,17179],[999,17209],[999,17270],[999,17328],[999,17373],[999,17438],[999,17497],[999,17554],[999,17593],[999,17639],[999,17699],[999,17739],[999,17788],[999,17838],[999,17900],[999,17939],[999,17991],[999,18039],[999,18088],[999,18137],[999,18197],[999,18232],[999,18306],[999,18351],[999,18409],[999,18444],[999,18506],[999,18555],[999,18607],[999,18658],[999,18694],[999,18756],[999,18804],[999,18839],[999,18889],[999,18945],[999,18981],[999,19028],[999,19084],[999,19149],[999,19189],[999,19240],[999,19287],[999,19345],[999,19371],[999,19415],[999,19443],[999,19487],[999,19517],[999,19548],[999,19578],[999,19609],[999,19638],[999,19676],[999,19714],[999,19737],[999,19767],[999,19798],[999,19828],[999,19857],[999,19887],[999,19914],[999,19945],[999,19980],[999,19996],[999,20026],[999,20056],[999,20079],[999,20112],[999,20142],[999,20177],[999,20208],[999,20246],[999,20271],[999,20300],[999,20327],[999,20366],[999,20388],[999,20420],[999,20449],[999,20476],[999,20521],[999,20577],[999,20611],[999,20673],[999,20722],[999,20766],[999,20799],[999,20856],[999,20888],[999,20931],[999,20973],[999,21026],[999,21087],[999,21138],[999,21188],[999,21242],[999,21289],[999,21339],[999,21387],[999,21437],[999,21471],[999,21517],[999,21575],[999,21610],[999,21673],[999,21723],[999,21775],[999,21810],[999,21872],[999,21921],[999,21969],[999,22025],[999,22082],[999,22129],[999,22196],[999,22279],[999,22346],[999,22395],[999,22444],[999,22497],[999,22545],[999,22599],[999,22669],[999,22706],[999,22754],[999,22813],[999,22848],[999,22908],[999,22944],[999,23007],[999,23050],[999,23101],[999,23160],[999,23195],[999,23256],[999,23305],[999,23346],[999,23406],[999,23456],[999,23507],[999,23553],[999,23592],[999,23625],[999,23661],[999,23704],[999,23738],[999,23766],[999,23805],[999,23828],[999,23860],[999,23893],[999,23931],[999,23954],[999,23988],[999,24024],[999,24050],[999,24088],[999,24110],[999,24149],[999,24173],[999,24200],[999,24230],[999,24259],[999,24288],[999,24317],[999,24347],[999,24377],[999,24412],[999,24441],[999,24471],[999,24500],[999,24531],[999,24562],[999,24594],[999,24630],[999,24655],[999,24689],[999,24722],[999,24756],[999,24778],[999,24808],[999,24827],[999,24847],[999,24873],[999,24894],[999,24917],[999,24944],[999,24962],[999,24994],[999,25036],[999,25061],[999,25097],[999,25121],[999,25149],[999,25181],[999,25211],[999,25248],[999,25272],[999,25298],[999,25329],[999,25358],[999,25389],[999,25421],[999,25453],[999,25483],[999,25515],[999,25545],[999,25577],[999,25615],[999,25637],[999,25665],[999,25695],[999,25721],[999,25754],[999,25794],[999,25830],[999,25861],[999,25894],[999,25921],[999,25955],[999,25986],[999,26026],[999,26057],[999,26105],[999,26139],[999,26160],[999,26191],[999,26220],[999,26247],[999,26277],[999,26315],[999,26338],[999,26371],[999,26421],[999,26447],[999,26482],[999,26548],[999,26589],[999,26658],[999,26697],[999,26758],[999,26805],[999,26859],[999,26925],[999,26962],[999,27024],[999,27063],[999,27121],[999,27173],[999,27198],[999,27232],[999,27263],[999,27295],[999,27328],[999,27370],[999,27421],[999,27456],[999,27496],[999,27559],[999,27599],[999,27666],[999,27705],[999,27756],[999,27806],[999,27866],[999,27945],[999,28005],[999,28062],[999,28125],[999,28166],[999,28222],[999,28247],[999,28287],[999,28321],[999,28354],[999,28392],[999,28439],[999,28487],[999,28532],[999,28556],[999,28589],[999,28622],[999,28654],[999,28686],[999,28720],[999,28757],[999,28781],[999,28822],[999,28864],[999,28905],[999,28957],[999,29005],[999,29048],[999,29077],[999,29111],[999,29142],[999,29177],[999,29209],[999,29247],[999,29270],[999,29306],[999,29337],[999,29366],[999,29395],[999,29425],[999,29454],[999,29482],[999,29513],[999,29546],[999,29574],[999,29615],[999,29636],[999,29671],[999,29705],[999,29739],[999,29771],[999,29793],[999,29830],[999,29854],[999,29881],[999,29912],[999,29944],[999,29976],[999,30008],[999,30050],[999,30089],[999,30125],[999,30158],[999,30196],[999,30220],[999,30255],[999,30282],[999,30315],[999,30346],[999,30376],[999,30403],[999,30433],[999,30470],[999,30494],[999,30532],[999,30554],[999,30581],[999,30611],[999,30639],[999,30673],[999,30711],[999,30758],[999,30792],[999,30823],[999,30855],[999,30887],[999,30920],[999,30950],[999,30989],[999,31021],[999,31044],[999,31077],[999,31109],[999,31142],[999,31173],[999,31205],[999,31233],[999,31276],[999,31327],[999,31354],[999,31380],[999,31412],[999,31446],[999,31473],[999,31506],[999,31532],[999,31572],[999,31596],[999,31626],[999,31656],[999,31688],[999,31715],[999,31755],[999,31777],[999,31812],[999,31843],[999,31871],[999,31899],[999,31928],[999,31965],[999,31986],[999,32016],[999,32055],[999,32089],[999,32132],[999,32174],[999,32209],[999,32245],[25.8,32290],[31.1,32346],[31.9,32391],[32.6,32423],[44.6,32538],[52.5,32589],[56.6,32621],[61.5,32661],[64.2,32700],[65.7,32741],[66.8,32777],[68.3,32816],[69.7,32871],[69.7,32900],[69.7,32933],[69.7,32965],[69.7,32995],[69.7,33027],[69.7,33063],[69.7,33106],[69.7,33137],[69.7,33170],[69.7,33204],[69.7,33238],[69.7,33274],[69.7,33298],[69.7,33331],[69.7,33366],[69.7,33406],[69.7,33437],[68.2,33493],[52.1,33542],[38.7,33609],[31.3,33654],[24.9,33721],[22.8,33777],[21.6,33828],[19.7,33907],[19,33950],[18.5,34022],[18.2,34089],[18.2,34149],[17.9,34204],[17.5,34272],[17.3,34323],[17.3,34423],[17.3,34526],[17.3,34636],[17.3,34707],[17.3,34796],[17.3,34892],[17.3,34973],[17.3,35030],[17.3,35077],[17.3,35129],[17.3,35157],[17.3,35194],[17.3,35238],[17.3,35274],[17.3,35311],[17.3,35355],[17.3,35431],[17.3,35489],[17.3,35555],[17.3,35596],[17.3,35649],[17.3,35711],[17.3,35772],[17.3,35811],[17.3,35871],[17.3,35923],[17.3,35987],[17.3,36026],[17.3,36055],[17.3,36095],[17.3,36125],[17.3,36159],[17.3,36204],[17.3,36247],[17.3,36282],[17.3,36335],[17.3,36362],[17.3,36396],[17.3,36448],[17.3,36481],[17.3,36515],[17.3,36550],[17.3,36599],[17.3,36637],[17.3,36670],[17.3,36703],[17.3,36732],[17.3,36763],[17.3,36798],[17.3,36838],[17.3,36875],[17.3,36912],[17.3,36948],[17.3,36977],[17.3,37009],[17.3,37048],[17.3,37096],[17.3,37155],[17.3,37200],[17.3,37239],[17.3,37281],[17.3,37339],[17.3,37386],[17.3,37423],[17.3,37465],[17.3,37521],[17.3,37554],[17.3,37593],[17.3,37631],[17.3,37678],[17.3,37739],[17.3,37770],[17.3,37808],[17.3,37854],[17.3,37905],[17.3,37937],[17.3,37964],[17.3,37998],[17.3,38038],[17.3,38061],[17.3,38097],[17.3,38131],[17.3,38188],[17.3,38259],[17.3,38323],[17.3,38370],[17.3,38423],[17.3,38461],[17.3,38500],[17.3,38553],[17.3,38588],[17.3,38616],[17.8,38669],[20.9,39507],[20.9,39544],[20.8,39587],[20.8,39640],[20.6,39714],[20.6,39774],[20.5,39821],[20.3,39899],[20.3,39962],[20.3,40022],[20.3,40074],[20.3,40115],[20.3,40182],[20.3,40224],[20.3,40286],[20.3,40347],[20.3,40423],[20.3,40471],[20.3,40531],[20.3,40597],[20.3,40637],[20.3,40709],[20.3,40750],[20.2,40818],[19.9,40869],[19.7,40928],[19.7,40969],[19.7,41011],[19.7,41055],[19.7,41103],[19.7,41141],[19.7,41187],[19.7,41220],[19.7,41255],[19.7,41298],[19.7,41340],[19.7,41378],[19.7,41421],[19.7,41456],[19.7,41486],[19.7,41521],[19.7,41556],[19.7,41595],[19.7,41637],[19.7,41682],[19.7,41710],[19.7,41744],[19.7,41785],[19.7,41813],[19.7,41846],[19.7,41881],[19.7,41915],[19.7,41965],[19.7,41992],[19.7,42048],[19.7,42081],[19.7,42133],[19.7,42170],[19.7,42216],[19.7,42254],[19.7,42271],[19.7,42312],[19.7,42338],[19.7,42372],[19.7,42407],[19.7,42446],[19.7,42481],[19.7,42521],[19.7,42560],[19.7,42607],[19.7,42664],[19.7,42696],[19.7,42743],[19.7,42803],[19.7,42838],[19.7,42862],[19.7,42892],[19.7,42923],[19.7,42948],[19.7,42976],[19.7,43005],[19.7,43029],[19.7,43063],[19.7,43103],[19.7,43155],[19.7,43198],[19.7,43230],[19.7,43271],[19.7,43320],[19.7,43370],[19.7,43397],[19.7,43437],[19.7,43487],[19.7,43525],[19.7,43570],[19.7,43623],[19.7,43663],[19.7,43697],[19.7,43736],[19.7,43769],[19.7,43798],[19.7,43838],[19.7,43872],[19.7,43892],[19.7,43929],[19.7,43949],[19.7,43988],[19.7,44011],[19.7,44038],[19.7,44057],[19.7,44082],[19.7,44107],[19.7,44144],[19.7,44168],[19.7,44199],[19.7,44229],[19.7,44264],[19.7,44294],[19.7,44322],[19.7,44353],[19.7,44380],[19.7,44416],[19.7,44450],[19.7,44487],[19.7,44508],[19.7,44538],[19.7,44565],[19.7,44596],[19.7,44627],[19.7,44671],[19.7,44707],[19.7,44744],[19.7,44779],[19.7,44817],[19.7,44854],[19.7,44887],[19.7,44926],[19.7,44955],[19.7,44982],[19.7,45015],[19.7,45044],[19.7,45081],[19.7,45105],[23.4,45155],[26.3,45191],[27.5,45227],[29.1,45274],[30.7,45323],[32.6,45356],[34.5,45397],[35.4,45438],[35.5,45477],[35.8,45522],[36,45556],[36.3,45594],[37.3,45639],[37.8,45673],[38.1,45723],[38.4,45758],[39.2,45794],[42.5,45857],[48.3,45907],[50.4,45955],[51.3,45995],[93.7,48005],[93.5,48046],[93.5,48077],[93.5,48139],[93.5,48178],[93.5,48210],[93.5,48255],[93.5,48298],[93.5,48327],[93.5,48361],[93.5,48395],[93.5,48429],[93.5,48461],[93.5,48491],[93.5,48525],[93.5,48559],[93.5,48594],[93.5,48627],[93.5,48659],[93.5,48697],[93.5,48731],[93.5,48772],[93.5,48814],[93.5,48838],[93.5,48873],[93.5,48909],[93.5,48968],[93.2,49005],[89.6,49037],[87.8,49077],[87.2,49138],[86.7,49187],[85.9,49241],[85,49291],[84.6,49328],[84.1,49395],[84,49430],[83.8,49486],[83.7,49525],[83.2,49553],[82.9,49597],[82.8,49640],[82.7,49675],[82.7,49711],[82.7,49756],[82.7,49821],[82.7,49865],[82.7,49918],[82.7,49948],[82.7,49982],[82.7,50022],[82.7,50048],[82.7,50078],[82.7,50122],[82.7,50166],[82.7,50213],[82.7,50247],[82.7,50287],[82.7,50319],[82.7,50348],[82.7,50381],[82.7,50412],[82.7,50445],[82.7,50479],[82.7,50511],[82.7,50541],[82.7,50577],[82.7,50620],[82.7,50657],[82.7,50691],[82.7,50723],[82.7,50754],[82.7,50787],[82.7,50814],[82.7,50854],[82.7,50910],[81.2,50976],[81.7,55442],[85,55488],[85.6,55522],[86.1,55565],[86.2,55625],[86.4,55671],[86.4,55717],[86.4,55755],[84.6,55807],[83.7,55858],[83.4,55906],[83.2,55957]]",1,0,655.197,662.808,49.85358712,6.312,"[{""rating"":49.85358711566617,""responseTime"":6.312000000000012}]",space,6.993,,662.808,Definitely yes,100,662.818,,,[],,0,10,10,10,1,audio/Narrative8Situation1.wav,audio/Narrative7Situation1.wav,audio/Narrative6Situation1.wav,audio/Narrative5Situation1.wav,5,2,2,5,,,,,,,,,,,,,,,,,,,,,,,,,,,,,,,,,,,,,,,
,,,,,,611e687b8028e22946b055e7,2024-05-13_16h44.07.826,group3.1-3.2-social-tom,2023.2.2,Win32,3.529577862,65c5074098b851296ff0b7ed,664233cca8af77dcd8098d1c,,,,,,,,,,,,,,,,,,,,,,,,,,,,,662.818,1,audio/Narrative7Situation2.wav,665.876,,665.876,673.444,"[[53.6,4983],[91.9,5151],[100,5425],[100,5467],[100,5507],[100,5569],[100,5604],[100,5667],[100,5718],[99.9,5785],[99.8,5824],[99.6,5875],[99.6,5926],[99.6,5987],[99.6,6023],[99.6,6071],[99.6,6132],[99.6,6181],[99.6,6230],[99.6,6278],[99.6,6317],[99.6,6381],[99.6,6431],[99.6,6475],[99.6,6513],[99.6,6571],[99.6,6634],[99.6,6682],[99.6,6734],[99.6,6790],[99.6,6843],[99.6,6913],[99.6,6949],[99.6,7013],[99.6,7065],[99.6,7102],[99.6,7136],[99.6,7169],[99.6,7209],[99.6,7268],[99.6,7297],[100,7333]]",1,0,673.445,678.497,99.5363592,3.381,"[{""rating"":99.53635919960956,""responseTime"":3.177000000000021},{""rating"":99.53635919960956,""responseTime"":3.380999999999972}]",space,4.434,,678.497,Not at all,0,678.516,,,[],,0,11,11,11,1,audio/Narrative8Situation2.wav,audio/Narrative7Situation2.wav,audio/Narrative6Situation2.wav,audio/Narrative5Situation2.wav,3,3,3,3,,,,,,,,,,,,,,,,,,,,,,,,,,,,,,,,,,,,,,,
,,,,,,611e687b8028e22946b055e7,2024-05-13_16h44.07.826,group3.1-3.2-social-tom,2023.2.2,Win32,3.529577862,65c5074098b851296ff0b7ed,664233cca8af77dcd8098d1c,,,,,,,,,,,,,,,,,,,,,,,,,,,,,678.518,1,audio/Narrative7Situation3.wav,686.545,,686.545,695.875,"[[99.9,7447],[100,7496],[100,7528],[96.3,8772],[94.4,8813],[93.8,8846],[93.2,8882],[92.8,8919],[91.7,8971],[90.8,9012],[88.8,9065],[88.1,9096],[87.2,9130],[86.7,9166],[85.6,9204],[84.7,9245],[83.8,9281],[82.9,9328]]",1,0,695.875,702.532,37.45729624,5.831,"[{""rating"":59.80966325036603,""responseTime"":3.7309999999999945},{""rating"":37.45729624206929,""responseTime"":5.831000000000017}]",space,6.067,,702.532,Definitely yes,100,702.546,,,[],,0,12,12,12,1,audio/Narrative8Situation3.wav,audio/Narrative7Situation3.wav,audio/Narrative6Situation3.wav,audio/Narrative5Situation3.wav,4,8,5,3,,,,,,,,,,,,,,,,,,,,,,,,,,,,,,,,,,,,,,,
,,,,,,611e687b8028e22946b055e7,2024-05-13_16h44.07.826,group3.1-3.2-social-tom,2023.2.2,Win32,3.529577862,65c5074098b851296ff0b7ed,664233cca8af77dcd8098d1c,,,,,,,,,,,,,,,,,,,,,,,,,,,,,702.548,1,audio/Narrative7Situation4.wav,705.567,,705.567,717.338,"[[38,5142],[39.8,5190],[42.4,5233],[45.4,5276],[48.3,5307],[51.9,5348],[59.2,5399],[63.6,5441],[66.3,5474],[71.2,5523],[72.1,5557],[73.5,5593],[75.5,5629],[78.3,5667],[80.2,5721],[81.7,5759],[82.6,5798],[82.8,5832],[83.1,5878],[83.1,5903],[83.2,5937],[83.2,5971],[80.6,6007],[67.3,6057],[62.9,6090],[57.2,6139],[54.5,6173],[48.9,6223],[43.3,6258],[40.5,6288],[38.1,6330],[37,6375],[36.4,6409],[35.7,6449],[34.8,6505],[33.7,6547],[33.4,6576],[32.9,6615],[32.6,6656],[32.5,6692],[32.3,6716],[32.2,6757],[32.2,6792],[32.2,6816],[32.2,6846],[32.2,6879],[32.2,6913],[32.2,6946],[32.2,6975],[32.2,7009],[32.2,7043],[32.2,7079],[32.2,7108],[32.2,7139],[32.2,7180],[32.2,7206],[32.2,7238],[32.2,7271],[32.2,7298],[32.2,7330],[32.2,7360],[32.2,7392],[32.2,7428],[32.2,7461],[32.2,7495],[32.2,7528],[32.2,7562],[32.2,7596],[32.2,7629],[32.2,7661],[32.2,7692],[32.2,7730],[32.2,7754],[32.2,7788],[32.2,7816],[32.2,7848],[32,7879],[31.6,7912],[30.5,7956],[29.9,8007],[29.6,8041],[29.4,8087],[29.3,8120],[29.1,8148],[28.7,8190],[28.4,8224],[28.1,8255],[27.8,8288],[27.2,8326],[26.9,8370],[26.3,8418],[25.5,8461],[25,8495],[24.3,8538],[23.7,8590],[23.2,8629],[22.8,8671],[22.2,8721],[21.9,8757],[21.7,8787],[21.6,8813],[21.6,8846],[21.4,8880],[21.4,8911],[21.4,8945],[21.4,8976],[21.4,9021],[21.4,9056],[21.4,9082],[21.4,9114],[21.4,9146],[21.4,9176],[21.4,9216],[21.4,9240],[21.4,9272],[21.4,9305],[21.4,9332],[21.4,9370],[21.4,9389],[21.4,9431],[21.4,9460],[21.4,9498],[21.4,9533],[21.4,9563],[21.4,9591],[21.4,9620],[21.4,9649],[21.4,9677],[21.4,9709],[21.4,9736],[21.4,9765],[21.4,9793],[21.4,9830],[21.4,9853],[21.4,9879],[21.4,9911],[21.4,9942],[21.4,9983],[21.4,10022],[21.4,10067],[21.4,10091],[21.4,10132],[21.4,10154],[21.4,10182],[21.4,10215],[21.4,10248],[21.4,10278],[21.4,10312],[21.4,10345],[21.4,10375],[21.4,10406],[21.4,10437],[21.4,10466],[21.4,10495],[21.4,10531],[21.4,10556],[21.4,10587],[21.4,10622],[21.4,10659],[21.4,10697],[21.4,10719],[21.4,10750],[21.4,10778],[21.4,10808],[21.4,10846],[21.4,10865],[21.4,10893],[21.4,10931],[21.4,10955],[21.4,10990],[21.4,11019],[21.4,11053],[21.4,11086],[21.4,11120],[21.4,11153],[21.4,11172],[21.4,11202],[21.4,11233],[21.4,11262],[21.4,11297],[21.4,11321],[21.4,11346],[21.4,11375],[21.4,11406],[21.4,11432],[21.4,11462],[21.4,11494],[21.4,11522],[21.4,11555],[21.4,11593],[21.4,11620],[21.4,11654],[21.4,11688],[21.4,11706],[21.4,11745],[21.4,11771]]",1,0,717.339,723.117,0,4.145,"[{""rating"":0,""responseTime"":4.144999999999982}]",space,5.158,,723.123,Definitely yes,100,723.138,,,[],,0,13,13,13,1,audio/Narrative8Situation4.wav,audio/Narrative7Situation4.wav,audio/Narrative6Situation4.wav,audio/Narrative5Situation4.wav,3,3,2,1,,,,,,,,,,,,,,,,,,,,,,,,,,,,,,,,,,,,,,,
,,,,,,611e687b8028e22946b055e7,2024-05-13_16h44.07.826,group3.1-3.2-social-tom,2023.2.2,Win32,3.529577862,65c5074098b851296ff0b7ed,664233cca8af77dcd8098d1c,,,,,,,,,,,,,,,,,,,,,,,,,,,,,723.139,1,audio/Narrative7Situation5.wav,728.146,,728.146,736.714,"[[999,1],[999,56],[999,85],[999,109],[999,141],[999,166],[999,197],[999,231],[999,257],[999,284],[999,317],[999,342],[999,370],[999,406],[999,442],[999,484],[999,512],[999,555],[999,583],[999,618],[999,657],[999,692],[999,712],[999,741],[999,772],[999,799],[999,830],[999,865],[999,886],[999,913],[999,942],[999,971],[999,998],[999,1032],[999,1060],[999,1091],[999,1118],[999,1151],[999,1181],[999,1210],[999,1240],[999,1266],[999,1293],[999,1320],[999,1348],[999,1377],[999,1407],[999,1442],[999,1478],[999,1516],[999,1548],[999,1580],[999,1610],[999,1641],[999,1673],[999,1703],[999,1731],[999,1760],[999,1790],[999,1818],[999,1842],[999,1860],[999,1886],[999,1911],[999,1930],[999,1952],[999,1974],[999,2000],[999,2028],[999,2057],[999,2086],[999,2115],[999,2144],[999,2173],[999,2209],[999,2233],[999,2262],[999,2291],[999,2317],[999,2346],[999,2373],[999,2402],[999,2429],[999,2466],[999,2507],[999,2540],[999,2569],[999,2608],[999,2625],[999,2658],[999,2684],[999,2721],[999,2750],[999,2780],[999,2807],[999,2841],[999,2866],[999,2883],[999,2908],[999,2932],[999,2959],[999,2985],[999,3012],[999,3049],[999,3073],[999,3102],[999,3139],[999,3159],[999,3176],[999,3197],[999,3226],[999,3243],[999,3265],[999,3293],[999,3327],[999,3349],[999,3377],[999,3396],[999,3424],[999,3442],[999,3469],[999,3500],[999,3534],[999,3569],[999,3610],[999,3639],[999,3671],[999,3701],[999,3731],[999,3762],[999,3808],[999,3838],[999,3868],[999,3896],[999,3933],[999,3953],[999,3981],[999,4009],[999,4040],[999,4077],[999,4110],[999,4134],[999,4168],[999,4199],[999,4230],[999,4258],[999,4291],[999,4324],[999,4358],[999,4390],[999,4419],[999,4451],[999,4481],[999,4508],[999,4541],[999,4573],[999,4608],[999,4651],[999,4690],[999,4725],[999,4760],[999,4782],[999,4813],[999,4846],[999,4879],[999,4908],[999,4936],[999,4968],[999,5002],[999,5034],[999,5065],[999,5094],[999,5127],[999,5159],[999,5200],[999,5242],[999,5276],[999,5315],[999,5349],[999,5402],[999,5432],[999,5473],[999,5510],[999,5575],[999,5610],[999,5653],[999,5693],[999,5724],[999,5777],[999,5811],[999,5846],[999,5877],[999,5909],[999,5950],[999,5986],[999,6025],[999,6060],[999,6102],[999,6128],[999,6162],[999,6202],[999,6228],[999,6269],[999,6293],[999,6325],[999,6358],[999,6390],[999,6419],[999,6480],[999,6516],[999,6567],[999,6616],[999,6681],[999,6717],[999,6769],[999,6817],[999,6866],[999,6927],[999,6952],[999,7002],[999,7029],[999,7061],[999,7106],[999,7140],[999,7164],[999,7195],[999,7224],[999,7256],[999,7291],[999,7327],[999,7353],[999,7389],[999,7408],[999,7440],[999,7468],[999,7500],[999,7541],[999,7585],[999,7610],[999,7651],[999,7676],[999,7708],[999,7742],[999,7780],[999,7812],[999,7846],[999,7875],[999,7909],[999,7942],[60.3,7978],[50.6,8016],[7.1,8177]]",1,0,736.715,742.52,0.56124939,3.827,"[{""rating"":0.5612493899463167,""responseTime"":3.826999999999998}]",space,5.222,,742.52,Definitely yes,100,742.54,,,[],,0,14,14,14,1,audio/Narrative8Situation5.wav,audio/Narrative7Situation5.wav,audio/Narrative6Situation5.wav,audio/Narrative5Situation5.wav,2,5,2,5,,,,,,,,,,,,,,,,,,,,,,,,,,,,,,,,,,,,,,,
,,,,,,611e687b8028e22946b055e7,2024-05-13_16h44.07.826,group3.1-3.2-social-tom,2023.2.2,Win32,3.529577862,65c5074098b851296ff0b7ed,664233cca8af77dcd8098d1c,,,,,,,,,,,,,,,,,,,,,,,,,,,,,742.542,1,audio/Narrative7Situation6.wav,745.574,,745.575,755.612,"[[999,0],[999,73],[999,115],[999,143],[999,197],[999,260],[999,312],[999,358],[999,398],[999,444],[999,504],[999,539],[999,600],[999,636],[999,684],[999,735],[999,798],[999,843],[999,898],[999,946],[999,997],[999,1033],[999,1093],[999,1129],[999,1198],[999,1239],[999,1300],[999,1336],[999,1385],[999,1447],[999,1496],[999,1543],[999,1596],[999,1636],[999,1686],[999,1746],[999,1816],[999,1851],[999,1906],[6.4,1971],[5.8,2005],[5,2061],[4.7,2098],[4.4,2140],[4.2,2188],[4.1,2223],[4.1,2263],[4.1,2300],[4.1,2338],[4.1,2380],[4.1,2413],[4.1,2447],[4.1,2480],[4.1,2510],[4.1,2544],[4.1,2573],[4.2,2605],[4.4,2639],[4.5,2682],[4.7,2706],[4.8,2750],[5,2781],[5.3,2817],[6.1,2865],[6.5,2905],[6.8,2933],[7.4,2978],[8,3013],[9.3,3052],[10.3,3097],[11.1,3144],[12.1,3192],[14.7,3232],[16.5,3263],[21.4,3302],[28.5,3360],[32.8,3408],[43,3449],[48.4,3497],[49.3,3533],[50.3,3562],[54.2,3603],[55.9,3659],[55.9,3689],[55.9,3732],[55.9,3764],[55.9,3788],[55.9,3819],[55.9,3838],[55.9,3860],[55.9,3894],[55.9,3928],[55.9,3960],[55.9,3990],[55.9,4020],[62.2,4054],[71.5,4120],[75.8,4155],[79.3,4194],[80.5,4245],[82,4283],[83.4,4326],[85.3,4366],[89.4,4401],[90.8,4446],[92,4485],[93.7,4539],[94.4,4581],[95.5,4629],[97,4667],[97.8,4697],[99.5,4750],[100,4788],[100,4829],[100,4865],[100,4896],[100,4934],[100,4972],[100,5011],[100,5047],[100,5088],[100,5129],[100,5163],[100,5196],[100,5231],[100,5266],[100,5300],[100,5332],[100,5372],[100,5395],[100,5428],[100,5462],[100,5502],[100,5542],[100,5578],[100,5611],[100,5644],[100,5680],[100,5713],[100,5750],[100,5788],[100,5828],[100,5860],[100,5888],[100,5917],[100,5947],[100,5977],[100,6010],[100,6038],[100,6069],[100,6101],[100,6135],[100,6165],[100,6199],[100,6235],[100,6266],[100,6302],[100,6326],[100,6356],[100,6394],[100,6420],[100,6451],[100,6483],[100,6520],[100,6548],[100,6587],[100,6610],[100,6640],[100,6672],[100,6698],[100,6735],[100,6760],[100,6794],[100,6819],[100,6860],[100,6889],[100,6917],[100,6946],[100,6971],[100,7000],[100,7038],[100,7062],[100,7095],[100,7129],[100,7159],[100,7183],[100,7216],[100,7278],[100,7326],[100,7360],[100,7410],[100,7481],[100,7523],[100,7592],[100,7644],[100,7677],[100,7706],[100,7740],[100,7771],[100,7800],[100,7836],[100,7862],[100,7909],[100,7943],[100,7970],[100,7994],[100,8020],[100,8048],[100,8086],[100,8110],[100,8141],[100,8172],[100,8203],[100,8236],[100,8265],[100,8293],[100,8322],[100,8351],[100,8381],[100,8410],[100,8439],[100,8466],[100,8495],[100,8523],[100,8552],[100,8581],[100,8611],[100,8644],[100,8677],[100,8703],[100,8731],[100,8761],[100,8789],[100,8818],[100,8847],[100,8877],[100,8910],[100,8952],[100,8985],[100,9025],[100,9061],[100,9115],[100,9162],[100,9208],[100,9245],[100,9285],[100,9317],[100,9351],[100,9385],[100,9418],[100,9451],[100,9482],[100,9519],[100,9542],[100,9572],[100,9601],[100,9635],[100,9656],[100,9699],[100,9730],[100,9759],[100,9788],[100,9828],[100,9879],[100,9928],[100,9960],[100,10006],[100,10037]]",1,0,755.613,759.569,98.95070766,2.141,"[{""rating"":98.95070766227427,""responseTime"":2.1409999999999627}]",space,3.387,,759.569,Not at all,0,759.582,,,[],,0,15,15,15,1,audio/Narrative8Situation6.wav,audio/Narrative7Situation6.wav,audio/Narrative6Situation6.wav,audio/Narrative5Situation6.wav,2,3,2,3,,,,,,,,,,,,,,,,,,,,,,,,,,,,,,,,,,,,,,,
,,,,,,611e687b8028e22946b055e7,2024-05-13_16h44.07.826,group3.1-3.2-social-tom,2023.2.2,Win32,3.529577862,65c5074098b851296ff0b7ed,664233cca8af77dcd8098d1c,,,,,,,,,,,,,,,,,,,,,,,,,,,,,759.583,1,audio/Narrative7Situation7.wav,764.603,,764.603,781.868,"[[93.2,1082],[85.5,1116],[11.4,1333],[8.5,1368],[5.8,1405],[4.2,1450],[3.2,1493],[2.9,1525],[2.7,1568],[2.6,1600],[2.7,1634],[3,1668],[3.5,1704],[9.7,1741],[13.5,1784],[13.8,1822],[14.1,1857],[14.4,1891],[14.4,1926],[14.9,1966],[15.8,2002],[16.7,2038],[17,2073],[17.3,2107],[18.1,2151],[20.6,2184],[22.2,2221],[24.9,2267],[28.2,2325],[31.6,2357],[35.2,2402],[37.3,2438],[38.9,2476],[40.7,2519],[42.4,2553],[47.7,2601],[49.5,2644],[50.7,2688],[53,2728],[54.2,2769],[54.8,2803],[56,2850],[58,2901],[58.5,2933],[59.7,2971],[61,3016],[62.1,3062],[63.2,3098],[64.7,3135],[65.6,3166],[66.2,3205],[66.5,3242],[67.6,3290],[68,3341],[68.2,3385],[68.3,3420],[68.3,3459],[68.5,3500],[68.5,3531],[68.5,3567],[68.5,3598],[68.5,3626],[68.5,3653],[68.5,3692],[68.5,3716],[68.5,3745],[68.5,3774],[68.5,3804],[68.5,3839],[68.5,3863],[68.5,3899],[68.5,3932],[68.5,3959],[68.5,3987],[68.5,4016],[68.5,4044],[68.5,4073],[68.5,4103],[68.5,4140],[68.5,4161],[68.5,4199],[68.5,4216],[68.5,4250],[68.5,4276],[68.5,4317],[68.5,4341],[68.5,4372],[68.5,4402],[68.5,4437],[68.5,4466],[68.5,4498],[68.5,4524],[68.5,4554],[68.5,4583],[68.5,4610],[68.5,4642],[68.5,4673],[68.5,4703],[68.5,4740],[68.5,4761],[68.5,4800],[68.5,4822],[68.5,4844],[68.5,4867],[68.5,4894],[68.5,4915],[68.5,4933],[68.5,4961],[68.5,4983],[68.5,5005],[68.5,5026],[68.5,5050],[68.5,5070],[68.5,5092],[68.5,5115],[68.5,5134],[68.5,5166],[68.5,5183],[68.5,5204],[68.5,5225],[68.5,5250],[68.5,5267],[68.5,5286],[68.5,5325],[68.5,5349],[68.5,5365],[68.5,5399],[68.5,5430],[68.5,5459],[68.5,5492],[68.5,5531],[68.5,5572],[68.5,5605],[68.5,5635],[68.5,5668],[68.5,5699],[68.5,5723],[68.5,5754],[68.5,5783],[68.5,5808],[68.5,5836],[68.5,5866],[68.5,5889],[68.5,5918],[68.5,5942],[68.5,5957],[68.5,5983],[68.5,6004],[68.5,6020],[68.5,6043],[68.5,6064],[68.5,6086],[68.5,6116],[68.5,6149],[68.5,6182],[68.5,6211],[68.5,6247],[68.5,6265],[68.5,6299],[68.5,6330],[68.5,6360],[68.5,6389],[68.5,6423],[68.5,6444],[68.5,6482],[68.5,6506],[68.5,6538],[68.5,6565],[68.5,6598],[68.5,6632],[68.5,6655],[68.5,6689],[68.5,6718],[68.5,6756],[68.5,6781],[68.5,6814],[68.5,6832],[68.5,6866],[68.5,6900],[68.5,6932],[68.5,6959],[68.5,6988],[68.5,7014],[68.5,7044],[68.5,7076],[68.5,7111],[68.5,7144],[68.5,7173],[68.5,7203],[68.5,7240],[68.5,7264],[68.5,7291],[68.5,7325],[68.5,7360],[68.5,7391],[68.5,7433],[68.5,7467],[68.5,7500],[68.5,7533],[68.5,7567],[68.5,7599],[68.5,7632],[68.5,7670],[68.5,7698],[68.5,7729],[68.5,7761],[68.5,7793],[68.5,7825],[68.5,7857],[68.5,7889],[68.5,7920],[68.5,7951],[68.5,7983],[68.5,8015],[68.3,8050],[66.5,8088],[64.8,8117],[63,8156],[62.2,8213],[61.9,8248],[61.5,8283],[60.9,8310],[60.1,8351],[59.8,8389],[59.7,8423],[59.5,8461],[59.4,8500],[59.1,8531],[58.3,8568],[57.7,8610],[57.2,8641],[56.5,8683],[55.6,8732],[55.1,8771],[54.5,8802],[53.7,8849],[53.1,8877],[52.7,8914],[52.4,8950],[52.1,8983],[51.6,9019],[51.2,9050],[50.7,9088],[50.4,9123],[50.3,9158],[50.1,9192],[50.1,9224],[50,9260],[50,9293],[49.9,9325],[49.9,9365],[49.9,9399],[49.9,9432],[49.9,9467],[49.9,9509],[49.9,9539],[49.9,9573],[49.9,9605],[49.9,9637],[49.9,9676],[49.9,9698],[49.9,9731],[49.9,9764],[49.9,9803],[49.9,9832],[49.9,9865],[49.9,9899],[49.9,9925],[49.9,9956],[49.9,9990],[49.9,10019],[49.9,10050],[49.9,10081],[49.9,10107],[49.9,10139],[49.9,10168],[49.9,10199],[49.9,10230],[49.9,10260],[49.9,10293],[49.9,10331],[49.9,10371],[49.9,10397],[49.9,10434],[49.9,10459],[49.9,10490],[49.9,10522],[49.9,10551],[49.9,10586],[49.9,10625],[49.9,10658],[49.9,10690],[49.9,10722],[49.9,10753],[49.9,10793],[49.9,10822],[49.9,10854],[49.9,10889],[49.9,10920],[49.9,10958],[49.9,10980],[49.9,11015],[49.9,11043],[49.9,11076],[49.9,11106],[49.9,11139],[49.9,11168],[49.9,11199],[49.9,11231],[49.9,11265],[49.9,11293],[49.9,11332],[49.9,11375],[49.9,11401],[49.9,11433],[49.9,11469],[49.9,11501],[49.9,11543],[49.9,11582],[49.9,11613],[49.9,11644],[49.9,11674],[49.9,11706],[49.9,11737],[49.9,11769],[49.9,11809],[49.9,11836],[49.9,11875],[49.9,11915],[49.9,11951],[49.9,11976],[49.9,12009],[49.9,12040],[49.9,12072],[50,12101],[50.3,12135],[51.2,12171],[53.4,12211],[54.7,12250],[55.4,12283],[56.5,12336],[57.1,12385],[57.4,12426],[57.7,12455],[58.2,12493],[58.5,12534],[58.6,12569],[58.8,12601],[58.9,12644],[58.9,12670],[58.9,12702],[58.9,12740],[58.9,12765],[58.9,12798],[58.9,12833],[58.9,12865],[58.9,12899],[58.9,12933],[58.9,12966],[58.9,12998],[58.9,13029],[58.9,13059],[58.9,13091],[58.9,13122],[58.9,13155],[58.9,13185],[58.9,13218],[58.9,13250],[58.9,13281],[58.9,13310],[58.9,13342],[58.9,13372],[58.9,13410],[58.9,13448],[58.9,13482],[58.9,13514],[58.9,13549],[58.9,13591],[58.9,13625],[58.9,13665],[58.9,13692],[58.9,13722],[58.9,13753],[58.9,13793],[58.9,13815],[58.9,13849],[58.9,13872],[58.9,13901],[58.9,13932],[58.9,13966],[58.9,13997],[58.9,14031],[58.9,14062],[58.9,14081],[58.9,14115],[58.9,14136],[58.9,14160],[58.9,14183],[58.9,14205],[58.9,14232],[58.9,14251],[58.9,14271],[58.9,14290],[58.9,14315],[58.9,14336],[58.9,14355],[58.9,14375],[58.9,14415],[58.9,14438],[58.9,14466],[58.9,14493],[58.9,14533],[58.9,14559],[58.9,14593],[58.9,14625],[58.9,14656],[58.9,14700],[58.9,14733],[58.9,14759],[58.9,14791],[58.9,14827],[58.9,14875],[58.9,14904],[66.4,14955],[73.9,15024],[75.2,15052],[76.5,15101],[79,15144],[80,15188],[80.5,15223],[81.2,15284],[83.4,15366],[88.8,15401],[89.6,15444],[89.9,15486],[91.7,15533],[94.4,15592],[100,15636],[100,15699],[100,15755]]",1,0,781.869,785.353,99.82918497,2.503,"[{""rating"":99.8291849682772,""responseTime"":2.5030000000000427}]",space,2.886,,785.353,Partially,50,785.374,,,[],,0,16,16,16,1,audio/Narrative8Situation7.wav,audio/Narrative7Situation7.wav,audio/Narrative6Situation7.wav,audio/Narrative5Situation7.wav,3,5,5,4,,,,,,,,,,,,,,,,,,,,,,,,,,,,,,,,,,,,,,,
,,,,,,611e687b8028e22946b055e7,2024-05-13_16h44.07.826,group3.1-3.2-social-tom,2023.2.2,Win32,3.529577862,65c5074098b851296ff0b7ed,664233cca8af77dcd8098d1c,,,,,,,,,,,,,,,,,,,,,,,,,,,,,785.375,1,audio/Narrative7Situation8.wav,787.406,,787.406,797.536,"[[97.3,3011],[89.3,3064],[84.4,3107],[77.6,3180],[74.4,3230],[71.7,3279],[63,3331],[51.6,3384],[45.9,3420],[41.7,3481],[40.1,3548],[38.1,3597],[37,3663],[37,3714],[37,3764],[37,3804],[37,3863],[37,3932],[37,3973],[37,4048],[36.3,4098],[34.5,4161],[32.2,4237],[30.1,4299],[29.3,4348],[28.8,4410],[27,4488],[25.8,4548],[25.5,4600],[24.6,4665],[21.4,4731],[19.7,4813],[18.8,4865],[18.1,4914],[17.1,4985],[16.1,5049],[14.1,5112],[15,9895],[14.7,9961],[14.7,10009],[14.7,10077],[14.7,10127]]",1,0,797.537,805.177,46.04685212,6.103,"[{""rating"":46.04685212298683,""responseTime"":6.102999999999952}]",space,7.001,,805.177,Partially,50,805.189,,,[],,0,17,17,17,1,audio/Narrative8Situation8.wav,audio/Narrative7Situation8.wav,audio/Narrative6Situation8.wav,audio/Narrative5Situation8.wav,3,2,5,3,,,,,,,,,,,,,,,,,,,,,,,,,,,,,,,,,,,,,,,
,,,,,,611e687b8028e22946b055e7,2024-05-13_16h44.07.826,group3.1-3.2-social-tom,2023.2.2,Win32,3.529577862,65c5074098b851296ff0b7ed,664233cca8af77dcd8098d1c,,,,,,,,,,,,,,,,,,,,,,,,,,,,,805.19,1,audio/Narrative7Situation9.wav,807.217,,807.217,815.903,"[[999,1],[999,55],[999,76],[999,105],[999,139],[999,170],[999,213],[999,238],[999,278],[999,317],[999,350],[999,384],[999,412],[999,449],[999,479],[999,518],[999,542],[999,576],[999,605],[999,639],[999,671],[999,705],[999,735],[999,769],[999,794],[999,823],[999,852],[999,884],[999,918],[999,950],[999,985],[999,1016],[999,1045],[999,1073],[999,1100],[999,1133],[999,1167],[999,1187],[999,1216],[999,1250],[999,1283],[999,1316],[999,1354],[999,1384],[999,1411],[999,1439],[999,1468],[999,1501],[999,1533],[999,1560],[999,1591],[999,1620],[999,1651],[999,1679],[999,1708],[999,1748],[999,1801],[999,1855],[999,1893],[999,1944],[999,1995],[999,2050],[999,2108],[999,2138],[999,2173],[999,2206],[999,2240],[999,2273],[999,2305],[999,2338],[999,2379],[999,2419],[999,2451],[999,2483],[999,2509],[999,2538],[999,2573],[999,2605],[999,2634],[999,2662],[999,2692],[999,2721],[999,2751],[999,2776],[999,2818],[999,2846],[999,2878],[999,2937],[999,2966],[999,3008],[999,3052],[97.9,3100],[100,3152],[100,3186],[100,3211],[100,3243],[100,3273],[100,3302],[100,3334],[100,3362],[100,3400],[100,3450],[100,3487],[100,3520],[100,3919],[100,3966],[100,4003],[100,4033],[100,4069],[99.8,4108],[99.3,4157],[99,4200],[98.4,4237],[97.9,4286],[97.6,4318],[97.5,4367],[97.3,4395],[97.3,4432],[97.3,4470],[97.2,4511],[96.7,4554],[96.4,4596],[96.3,4622],[96.1,4658],[96,4701],[95.5,4743],[95.1,4785],[94.9,4836],[94.6,4869],[94.6,4895],[94.4,4935],[94.4,4974],[94.4,5018],[94.4,5050],[94.4,5081],[94.4,5117],[94.4,5151],[94.4,5172],[94.4,5205],[94.4,5245],[94.4,5283],[94.4,5318],[94.4,5344],[94.4,5375],[94.4,5407],[94.4,5441],[94.4,5478],[94.4,5526],[94.4,5557],[94.4,5591],[94.4,5626],[94.4,5657],[94.4,5689],[94.4,5721],[94.4,5759],[94.4,5791],[94.4,5821],[94.4,5850],[94.4,5884],[94.4,5917],[94.4,5940],[94.4,5970],[94.4,6006],[94.4,6036],[94.4,6075],[94.4,6095],[94.4,6127],[94.4,6158],[94.4,6190],[94.4,6222],[94.4,6259],[94.4,6296],[94.4,6335],[94.4,6357],[94.4,6387],[94.4,6427],[94.4,6449],[94.4,6484],[94.4,6516],[94.4,6552],[94.4,6583],[94.4,6626],[94.4,6650],[94.4,6682],[94.4,6708],[94.4,6740],[94.4,6773],[94.4,6806],[94.4,6843],[94.4,6868],[94.4,6900],[94.4,6927],[94.4,6953],[94.4,6977],[94.4,7011],[94.4,7027],[94.4,7048],[94.4,7075],[94.4,7102],[94.4,7120],[94.4,7145],[94.4,7170],[94.4,7193],[94.4,7221],[94.4,7238],[94.4,7259],[94.4,7285],[94.4,7302],[94.4,7326],[94.4,7358],[94.4,7373],[94.4,7393],[94.4,7422],[94.4,7440],[94.4,7456],[94.4,7478],[94.4,7501],[94.4,7523],[94.4,7544],[94.4,7568],[94.4,7588],[94.4,7619],[94.4,7634],[94.4,7653],[94.4,7677],[94.4,7700],[94.4,7719],[94.4,7735],[94.4,7754],[94.4,7777],[94.4,7802],[94.4,7821],[94.4,7843],[94.4,7869],[94.4,7883],[94.4,7908],[94.4,7937],[94.4,7966],[94.4,7995],[94.4,8024],[94.4,8057],[94.4,8078],[94.4,8105],[94.4,8133],[94.4,8158],[94.4,8187],[94.4,8216],[94.4,8243],[94.4,8270],[94.4,8301],[94.4,8323],[94.4,8351],[94.4,8378],[94.4,8407],[94.4,8437],[94.4,8466],[94.4,8495],[94.4,8525],[94.4,8556],[94.4,8583],[94.4,8627],[94.4,8652],[94.4,8686]]",1,0,815.904,819.642,96.41288433,2.716,"[{""rating"":96.41288433382138,""responseTime"":2.4890000000000327},{""rating"":96.41288433382138,""responseTime"":2.716000000000008}]",space,3.139,,819.642,Partially,50,819.652,,,[],,0,18,18,18,1,audio/Narrative8Situation9.wav,audio/Narrative7Situation9.wav,audio/Narrative6Situation9.wav,audio/Narrative5Situation9.wav,3,2,4,3,,,,,,,,,,,,,,,,,,,,,,,,,,,,,,,,,,,,,,,
,,,,,,611e687b8028e22946b055e7,2024-05-13_16h44.07.826,group3.1-3.2-social-tom,2023.2.2,Win32,3.529577862,65c5074098b851296ff0b7ed,664233cca8af77dcd8098d1c,,,,,,,,,,,,,,,,,,,,,,,,,,,826.767,829.345,829.391,2,audio/Narrative13Situation2.wav,829.392,,829.392,859.201,"[[96.7,2163],[96.7,2201],[96.7,2240],[96.7,2278],[96.7,2324],[95.4,3331],[94.7,3374],[94.4,3413],[94.3,3448],[94.3,3492],[94.1,3525],[94.1,3559],[94.1,3598],[94.1,3632],[94.1,3664],[94.1,3697],[94.1,3733],[94.1,3759],[94.1,3790],[94.1,3823],[94.1,3857],[94.1,3884],[94.1,3914],[94.1,3943],[94.1,3981],[94.1,4009],[94.1,4044],[94.1,4077],[94.1,4112],[94.1,4149],[94.1,4179],[94.1,4212],[94.1,4244],[94.1,4284],[94.1,4307],[94.1,4342],[94.1,4372],[94.1,4404],[94.1,4439],[94.1,4468],[94.1,4502],[94.1,4541],[94.1,4573],[94.1,4607],[94.1,4641],[94.1,4678],[94.1,4712],[94.1,4750],[94.1,4791],[94.1,4823],[94.1,4871],[94.1,4899],[94.1,4923],[94.1,4961],[94.1,4997],[94.1,5038],[94.1,5076],[94.1,5110],[94.1,5144],[94.1,5182],[94.1,5213],[94.1,5245],[94.1,5283],[94.1,5305],[94.1,5336],[94.1,5370],[94.1,5410],[94.1,5434],[94.1,5467],[94.1,5501],[94.1,5535],[94.1,5574],[94.1,5600],[94.1,5632],[94.1,5674],[94.1,5723],[94.1,5754],[94.1,5774],[94.1,5812],[94.1,5841],[94.1,5872],[94.1,5905],[94.1,5942],[94.1,5972],[94.1,6009],[94.1,6052],[94.1,6086],[94.1,6116],[94.1,6149],[94.1,6183],[94.1,6218],[94.1,6256],[94.1,6290],[94.1,6324],[94.1,6357],[94.1,6389],[94.1,6427],[94.1,6461],[94.1,6496],[94.1,6529],[94.1,6562],[94.1,6591],[94.1,6624],[94.1,6650],[94.1,6682],[94.1,6714],[94.1,6751],[94.1,6784],[94.1,6817],[94.1,6850],[94.1,6882],[94.1,6913],[94.1,6946],[94.1,6977],[94.1,7024],[94.1,7065],[94.1,7101],[94.1,7134],[94.1,7166],[94.1,7199],[94.1,7230],[94.1,7275],[94.1,7307],[94.1,7339],[94.1,7374],[94.1,7408],[94.1,7429],[94.1,7461],[94.1,7495],[94.1,7525],[94.1,7565],[94.1,7598],[94.1,7630],[94.1,7661],[94.1,7702],[94.1,7735],[94.1,7759],[94.1,7794],[94.1,7839],[94.1,7876],[94.1,7900],[94.1,7934],[94.1,7966],[94.1,8012],[94.1,8040],[94.1,8072],[94.1,8102],[94.1,8144],[94.1,8173],[94.1,8209],[94.1,8241],[94.1,8274],[94.1,8309],[94.1,8345],[94.1,8389],[94.1,8418],[94.1,8440],[94.1,8463],[94.1,8509],[94.1,8533],[94.1,8565],[94.1,8596],[94.1,8627],[94.1,8663],[94.1,8690],[94.1,8717],[94.1,8750],[94.1,8783],[94.1,8813],[94.1,8851],[94.1,8884],[94.1,8914],[94.1,8947],[94.1,8977],[94.1,9014],[94.1,9057],[94.1,9096],[92.6,9132],[90.8,9192],[89.4,9225],[88.2,9259],[86.2,9305],[85.2,9345],[84.4,9375],[83.8,9414],[83.2,9461],[82.9,9491],[82.7,9525],[82.3,9559],[81.4,9596],[80.3,9641],[79.6,9699],[78.6,9799],[77.4,9866],[77.1,9908],[76.8,9964],[76.7,9992],[76.4,10043],[76.4,10081],[76.4,10113],[76.4,10149],[76.4,10179],[76.4,10216],[76.4,10240],[76.4,10265],[76.4,10295],[76.4,10331],[76.4,10351],[76.4,10380],[76.4,10413],[76.4,10440],[76.4,10476],[76.4,10506],[76.4,10541],[76.4,10573],[76.4,10601],[76.4,10630],[76.4,10663],[76.4,10698],[76.4,10744],[76.4,10774],[76.4,10807],[76.4,10843],[76.4,10884],[76.4,10908],[76.4,10940],[76.4,10975],[76.4,11012],[76.4,11049],[76.4,11083],[76.4,11124],[76.4,11163],[76.4,11196],[76.4,11226],[76.4,11255],[76.4,11281],[76.4,11309],[76.4,11346],[76.4,11367],[76.4,11400],[76.4,11430],[76.4,11463],[76.4,11495],[76.4,11529],[76.4,11559],[76.4,11588],[76.4,11617],[76.4,11648],[76.4,11679],[76.4,11711],[76.4,11740],[76.4,11769],[76.4,11797],[76.4,11823],[76.4,11858],[76.4,11893],[76.4,11915],[76.4,11942],[76.4,11961],[76.4,11985],[76.4,12015],[76.4,12040],[76.4,12063],[76.4,12092],[76.4,12125],[76.4,12156],[76.4,12184],[76.4,12214],[76.4,12246],[76.4,12280],[76.4,12302],[76.4,12331],[76.4,12360],[76.4,12390],[76.4,12424],[76.4,12451],[76.4,12490],[76.4,12506],[76.4,12548],[76.4,12567],[76.4,12606],[76.4,12640],[76.4,12663],[76.4,12693],[76.4,12723],[76.4,12756],[76.4,12783],[76.4,12812],[76.4,12850],[76.4,12875],[76.4,12908],[76.4,12939],[76.4,12964],[76.4,12995],[76.4,13026],[76.4,13069],[76.4,13091],[76.4,13127],[76.4,13161],[76.4,13201],[76.4,13231],[76.4,13261],[76.4,13298],[76.4,13317],[76.4,13347],[76.4,13377],[76.4,13406],[76.4,13433],[76.4,13463],[76.4,13494],[76.4,13524],[76.4,13555],[76.4,13582],[76.4,13612],[76.4,13645],[76.4,13678],[76.4,13713],[76.4,13740],[76.4,13765],[76.4,13793],[76.4,13823],[76.4,13851],[76.4,13881],[76.4,13909],[76.4,13940],[76.4,13967],[76.4,13996],[76.4,14030],[76.4,14062],[76.4,14100],[76.4,14122],[76.4,14151],[76.4,14188],[76.4,14222],[76.4,14245],[76.4,14273],[76.4,14310],[76.4,14331],[76.4,14347],[76.4,14375],[76.4,14395],[76.4,14416],[76.4,14442],[76.4,14461],[76.4,14482],[76.4,14509],[76.4,14526],[76.4,14557],[76.4,14576],[76.4,14595],[76.4,14617],[76.4,14643],[76.4,14661],[76.4,14684],[76.4,14707],[76.4,14723],[76.4,14750],[76.4,14780],[76.4,14812],[76.4,14839],[76.4,14867],[76.4,14894],[76.4,14924],[76.4,14956],[76.4,14992],[76.4,15030],[76.4,15073],[76.4,15105],[76.4,15140],[76.4,15173],[76.4,15211],[76.4,15251],[76.4,15290],[76.4,15323],[76.4,15355],[76.4,15384],[76.4,15423],[76.4,15454],[76.4,15473],[76.4,15504],[76.4,15531],[76.4,15560],[76.4,15591],[76.4,15615],[76.4,15644],[76.4,15673],[76.4,15701],[76.4,15745],[76.4,15774],[76.4,15799],[76.4,15832],[76.4,15862],[76.4,15891],[76.4,15923],[76.4,15951],[76.4,15980],[76.4,16026],[76.4,16057],[76.4,16084],[76.4,16106],[76.4,16134],[76.4,16163],[76.4,16197],[76.4,16217],[76.4,16246],[76.4,16283],[76.4,16304],[76.4,16338],[76.4,16367],[76.4,16395],[76.4,16432],[76.4,16456],[76.4,16481],[76.4,16509],[76.4,16540],[76.4,16565],[76.4,16595],[76.4,16631],[76.4,16651],[76.4,16680],[76.4,16714],[76.4,16740],[76.4,16766],[76.4,16797],[76.4,16827],[76.4,16860],[76.4,16900],[76.4,16923],[76.4,16956],[76.4,16982],[76.4,17010],[76.4,17052],[76.4,17086],[76.4,17121],[76.4,17144],[76.4,17182],[76.4,17206],[76.4,17231],[76.4,17260],[76.4,17290],[76.4,17331],[76.4,17369],[76.4,17401],[76.4,17430],[76.4,17459],[76.4,17490],[76.4,17514],[76.4,17543],[76.4,17573],[76.4,17598],[76.4,17626],[76.4,17655],[76.4,17684],[76.4,17713],[76.4,17742],[76.4,17774],[76.4,17798],[76.4,17829],[76.4,17863],[76.4,17908],[76.4,17942],[76.4,17971],[76.4,17996],[76.4,18038],[76.4,18072],[76.4,18096],[76.4,18135],[76.4,18158],[76.4,18180],[76.4,18208],[76.4,18226],[76.4,18245],[76.4,18269],[76.4,18293],[76.4,18312],[76.4,18341],[76.4,18357],[76.4,18380],[76.4,18399],[76.4,18423],[76.4,18449],[76.4,18475],[76.4,18501],[76.4,18530],[76.4,18565],[76.4,18591],[76.4,18615],[76.4,18644],[76.4,18673],[76.4,18698],[76.4,18728],[76.4,18756],[76.4,18789],[76.4,18817],[76.4,18846],[76.4,18881],[76.4,18906],[76.4,18938],[76.4,18967],[76.4,19000],[76.4,19034],[76.4,19064],[76.4,19096],[76.4,19126],[76.4,19155],[76.4,19182],[76.4,19213],[76.4,19242],[76.4,19274],[76.4,19298],[76.4,19327],[76.4,19362],[76.4,19401],[76.4,19434],[76.4,19472],[76.4,19500],[76.4,19530],[76.4,19565],[76.4,19588],[76.4,19615],[76.4,19644],[76.4,19673],[76.4,19702],[76.4,19732],[76.4,19762],[76.4,19793],[76.4,19823],[76.4,19855],[76.4,19884],[76.4,19914],[76.4,19944],[76.4,19977],[76.4,20010],[76.4,20044],[76.4,20081],[76.4,20113],[76.4,20143],[76.4,20173],[76.4,20202],[76.4,20238],[76.4,20255],[76.4,20289],[76.4,20324],[76.4,20351],[76.4,20380],[76.4,20409],[76.4,20439],[76.4,20472],[76.4,20511],[76.4,20533],[76.4,20562],[76.4,20607],[76.4,20632],[76.4,20654],[76.4,20683],[76.4,20713],[76.4,20741],[76.4,20774],[76.4,20800],[76.4,20831],[76.4,20860],[76.4,20896],[76.4,20930],[76.4,20962],[76.4,20995],[76.4,21030],[76.7,21091],[77,21126],[77.1,21158],[78.5,29356],[78.7,29403],[78.8,29443],[78.8,29476],[78.8,29514],[78.8,29540],[78.8,29572],[78.8,29605],[78.8,29641],[78.8,29673],[79,29707],[79,29741],[79,29770],[79,29808]]",1,0,859.202,859.215,,,[],,,,859.215,Not at all,0,859.227,,,[],,0,0,0,0,1,audio/Narrative13Situation2.wav,audio/Narrative13Situation2.wav,audio/Narrative13Situation2.wav,audio/Narrative13Situation2.wav,2,2,2,2,,,,,819.653,826.761,space,6.578,,,,,,,,,,,,,,,,,,,,,,,,,,,,,,,
,,,,,,611e687b8028e22946b055e7,2024-05-13_16h44.07.826,group3.1-3.2-social-tom,2023.2.2,Win32,3.529577862,65c5074098b851296ff0b7ed,664233cca8af77dcd8098d1c,,,,,,,,,,,,,,,,,,,,,,,,,,,,,859.229,2,audio/Narrative6Situation1.wav,861.236,,861.236,887.883,"[[77.6,3905],[75.6,3956],[73.2,4008],[69.7,4049],[63.8,4090],[57.8,4132],[52.4,4163],[44.8,4205],[36.9,4264],[31.7,4295],[28.1,4336],[25.5,4381],[22.9,4427],[20.8,4466],[19.1,4513],[17.1,4549],[15.8,4593],[15.2,4632],[14.9,4668],[14.6,4701],[14.4,4737],[14.4,4772],[14.3,4812],[14.3,4850],[14.3,4873],[14.3,4912],[14.3,4936],[14.3,4965],[14.3,4999],[14.3,5035],[14.3,5067],[14.3,5096],[14.3,5129],[14.3,5153],[14.3,5191],[14.3,5229],[14.3,5256],[14.3,5290],[14.3,5330],[14.3,5355],[14.3,5387],[14.3,5418],[14.3,5456],[14.3,5488],[14.3,5512],[14.3,5554],[14.3,5578],[14.3,5608],[14.7,5641],[22.3,5686],[25.7,5723],[27.9,5754],[31.7,5797],[35.7,5845],[38.3,5884],[41.7,5921],[48,5954],[52.4,5990],[57.1,6033],[65.7,6096],[70,6131],[74.4,6171],[78,6216],[80.2,6264],[83.2,6314],[87.3,6365],[88.5,6398],[91.6,6432],[91.9,7791],[91,7831],[90.8,7864],[90.6,7911],[90.6,7939],[90.5,7979],[90.5,8013],[90.5,8043],[90.5,8078],[90.5,8118],[90.5,8150],[90.5,8185],[90.5,8220],[90.5,8254],[90.5,8290],[90.5,8322],[90.5,8355],[90.5,8386],[90.5,8417],[90.5,8456],[90.5,8480],[90.5,8511],[90.5,8546],[90.5,8578],[90.5,8605],[90.5,8633],[90.5,8662],[90.5,8687],[90.5,8718],[90.5,8749],[90.5,8783],[90.5,8812],[90.5,8840],[90.5,8867],[90.5,8902],[90.5,8922],[90.5,8951],[90.5,8988],[90.5,9009],[90.5,9047],[90.5,9080],[90.5,9102],[90.5,9129],[90.5,9161],[90.5,9186],[90.5,9216],[90.5,9245],[90.5,9293],[90.5,9329],[90.5,9362],[90.5,9379],[90.5,9427],[90.5,9456],[90.5,9477],[90.5,9512],[90.5,9538],[90.5,9567],[90.5,9607],[90.5,9627],[90.5,9657],[90.5,9696],[90.5,9729],[90.5,9745],[90.5,9786],[90.5,9824],[90.5,9846],[90.5,9878],[90.5,9911],[90.5,9937],[90.5,9969],[90.5,10004],[90.5,10027],[90.5,10056],[90.5,10084],[90.5,10114],[90.5,10144],[90.5,10185],[90.5,10216],[90.5,10256],[90.5,10283],[90.5,10322],[90.5,10358],[90.5,10394],[90.5,10413],[90.5,10444],[90.5,10470],[90.5,10499],[90.5,10528],[90.5,10560],[90.5,10584],[90.5,10614],[90.5,10639],[90.5,10668],[90.5,10697],[90.5,10729],[90.5,10753],[90.5,10781],[90.5,10812],[90.5,10844],[90.5,10878],[90.5,10903],[90.5,10932],[90.5,10961],[90.5,10988],[90.5,11016],[90.5,11045],[90.5,11070],[90.5,11098],[90.5,11129],[90.5,11153],[90.5,11182],[90.5,11211],[90.5,11239],[90.5,11268],[90.5,11301],[90.5,11331],[90.5,11363],[90.5,11394],[90.5,11429],[90.5,11456],[90.5,11485],[90.5,11511],[90.5,11540],[90.5,11567],[90.5,11601],[90.5,11623],[90.5,11652],[90.5,11680],[90.5,11711],[90.5,11735],[90.5,11764],[90.5,11795],[90.5,11822],[90.5,11851],[90.5,11884],[90.5,11917],[90.5,11951],[90.5,11979],[90.5,12003],[90.5,12031],[90.5,12062],[90.5,12088],[90.5,12118],[90.5,12144],[90.5,12174],[90.5,12216],[90.5,12245],[90.5,12278],[90.5,12312],[90.5,12338],[90.5,12365],[90.5,12382],[90.5,12406],[90.5,12432],[90.5,12447],[90.5,12471],[90.5,12502],[90.5,12538],[90.5,12560],[90.5,12589],[90.5,12618],[90.5,12644],[90.5,12668],[90.5,12697],[90.5,12727],[90.5,12754],[90.5,12782],[90.5,12811],[90.5,12839],[90.5,12879],[90.5,12894],[90.5,12927],[90.5,12953],[90.5,12987],[90.5,13018],[90.5,13048],[90.5,13079],[90.5,13105],[90.5,13132],[90.5,13162],[90.5,13187],[90.5,13216],[90.5,13245],[90.5,13267],[90.5,13293],[90.5,13322],[90.5,13360],[90.5,13393],[90.5,13432],[90.5,13451],[90.5,13480],[90.5,13502],[90.5,13524],[90.5,13554],[90.5,13578],[90.5,13610],[90.5,13643],[90.5,13663],[90.5,13701],[90.5,13719],[90.5,13738],[90.5,13762],[90.5,13782],[90.5,13816],[90.5,13836],[90.5,13852],[90.5,13881],[90.5,13900],[90.5,13918],[90.5,13951],[90.5,13973],[90.5,14019],[90.5,14042],[90.5,14079],[90.5,14107],[90.5,14142],[90.5,14163],[90.5,14190],[90.5,14213],[90.5,14240],[90.5,14262],[90.5,14287],[90.5,14320],[90.5,14349],[90.5,14381],[90.5,14411],[90.5,14449],[90.5,14469],[90.5,14488],[90.5,14512],[90.5,14531],[90.5,14564],[90.5,14579],[90.5,14612],[90.5,14646],[90.5,14672],[90.5,14701],[90.5,14730],[90.5,14762],[90.5,14787],[90.5,14817],[90.5,14844],[90.5,14873],[90.5,14902],[90.5,14940],[90.5,14973],[90.5,15004],[90.5,15032],[90.5,15061],[90.5,15088],[90.5,15122],[90.5,15152],[90.5,15182],[90.5,15211],[90.5,15240],[90.5,15268],[90.5,15311],[90.5,15336],[90.5,15369],[90.5,15399],[90.5,15429],[90.5,15456],[90.5,15493],[90.5,15509],[90.5,15543],[90.5,15572],[90.5,15601],[90.5,15632],[90.5,15666],[90.5,15695],[90.5,15723],[90.5,15753],[90.5,15782],[90.5,15812],[90.5,15839],[90.5,15878],[90.5,15899],[90.5,15937],[90.5,15961],[90.5,15990],[90.5,16019],[90.5,16049],[90.5,16078],[90.5,16110],[90.5,16138],[90.5,16168],[90.5,16200],[90.5,16237],[90.5,16259],[90.5,16286],[90.5,16319],[90.5,16360],[90.5,16396],[90.5,16423],[90.5,16461],[90.5,16478],[90.5,16509],[90.5,16537],[90.5,16564],[90.5,16581],[90.5,16605],[90.5,16636],[90.5,16651],[90.5,16670],[90.5,16697],[90.5,16714],[90.5,16738],[90.5,16769],[90.5,16801],[90.5,16839],[90.5,16860],[90.5,16889],[90.5,16918],[90.5,16949],[90.5,16979],[90.5,17011],[90.5,17046],[90.5,17070],[90.5,17101],[90.5,17129],[90.5,17161],[90.5,17187],[90.5,17215],[90.5,17248],[90.5,17286],[90.5,17312],[90.5,17344],[90.5,17378],[90.5,17403],[90.5,17437],[90.5,17466],[90.5,17495],[90.5,17523],[90.5,17552],[90.5,17581],[90.5,17610],[90.5,17639],[90.5,17668],[90.5,17697],[90.5,17729],[90.5,17761],[90.5,17793],[90.5,17828],[90.5,17854],[90.5,17884],[90.5,17922],[90.5,17946],[90.5,17983],[90.5,18042],[90.5,18079],[90.5,18103],[90.5,18139],[90.5,18177],[90.5,18211],[90.5,18238],[90.5,18271],[90.5,18312],[90.5,18340],[90.5,18373],[90.5,18418],[90.5,18446],[90.5,18478],[90.5,18511],[90.5,18543],[90.5,18562],[90.5,18595],[90.5,18627],[90.5,18652],[90.5,18681],[90.5,18710],[90.5,18738],[90.5,18769],[90.5,18801],[90.5,18834],[90.5,18870],[90.5,18894],[90.5,18923],[90.5,18952],[90.5,18988],[90.5,19011],[90.5,19036],[90.5,19067],[90.5,19102],[90.5,19124],[90.5,19151],[90.5,19187],[90.5,19209],[90.5,19238],[90.5,19266],[90.5,19293],[90.5,19329],[90.5,19370],[90.5,19394],[90.5,19418],[90.5,19447],[90.5,19469],[90.5,19485],[90.5,19512],[90.5,19531],[90.5,19550],[90.5,19572],[90.5,19598],[90.5,19618],[90.5,19639],[90.5,19663],[90.5,19682],[90.5,19711],[90.5,19732],[90.5,19752],[90.5,19778],[90.5,19797],[90.5,19820],[90.5,19836],[90.5,19860],[90.5,19879],[90.5,19903],[90.5,19930],[90.5,19961],[90.5,19989],[90.5,20028],[90.5,20045],[90.5,20080],[90.5,20105],[90.5,20134],[90.5,20162],[90.5,20192],[90.5,20221],[90.5,20249],[90.5,20282],[90.5,20302],[90.5,20330],[90.5,20355],[90.5,20377],[90.5,20406],[90.5,20434],[90.5,20469],[90.5,20501],[90.5,20531],[90.5,20561],[90.5,20590],[90.5,20618],[90.5,20651],[90.5,20680],[90.5,20710],[90.5,20735],[90.5,20766],[90.5,20793],[90.5,20820],[90.5,20850],[90.5,20878],[90.5,20911],[90.5,20945],[90.5,20980],[90.5,21002],[90.5,21031],[90.5,21061],[90.5,21095],[90.5,21132],[90.5,21153],[90.5,21186],[90.5,21216],[90.5,21251],[90.5,21277],[90.5,21302],[90.5,21335],[90.5,21370],[90.5,21416],[90.5,21447],[90.5,21479],[90.5,21512],[90.5,21543],[90.5,21578],[91.1,21610],[93.2,21656],[93.8,21684],[94.6,21723],[95.1,21763],[96.6,21812],[97.8,21848],[99.5,21879],[100,21918],[100,21956],[100,22021],[100,22052],[71.4,23204],[71.4,23235],[99.8,24133],[100,24168],[100,24213],[100,24250],[100,24295],[100,24339],[100,24378],[100,24412],[100,24447],[100,24490],[99.5,24550],[99.3,24588],[99.3,24629],[99.2,24668],[99.2,24705],[99.2,24744],[99.2,24777],[99.2,24806],[99.2,24834],[99.2,24862],[99.2,24889],[99.2,24918],[99.2,24950],[99.2,24980],[99.2,25011],[99.2,25052],[99.2,25095],[99.2,25128],[99.2,25160],[99.2,25194],[99.2,25228],[99.2,25264],[99.2,25296],[99.2,25328],[99.2,25354],[99.2,25381],[99.2,25411],[99.2,25440],[99.2,25471],[99.2,25504],[99.2,25538],[99.2,25577],[99.2,25596],[99.2,25639],[99.2,25663],[99.2,25691],[99.2,25728],[99.2,25756],[99.2,25787],[99.2,25816],[99.2,25846],[99.2,25878],[99.2,25910],[99.2,25939],[99.2,25971],[99.2,25999],[99.2,26031],[99.2,26061],[99.2,26090],[99.2,26119],[99.2,26148],[99.2,26180],[99.2,26211],[99.2,26248],[99.2,26288],[99.2,26322],[99.2,26346],[99.2,26377],[99.2,26403],[99.2,26435],[99.2,26465],[99.2,26497],[99.2,26533],[99.2,26571],[99.2,26596],[99.2,26646]]",1,0,887.883,900.764,6.417764763,11.279,"[{""rating"":91.33723767691558,""responseTime"":3.534999999999968},{""rating"":6.4177647632991714,""responseTime"":11.278999999999996}]",space,12.304,,900.764,Definitely yes,100,900.781,,,[],,0,1,1,1,1,audio/Narrative7Situation1.wav,audio/Narrative8Situation1.wav,audio/Narrative5Situation1.wav,audio/Narrative6Situation1.wav,2,5,5,2,,,,,,,,,,,,,,,,,,,,,,,,,,,,,,,,,,,,,,,
