exp_question,consent.started,consent.stopped,consentResponse.keys,consentResponse.rt,consentResponse.duration,participantID,date,expName,psychopyVersion,OS,frameRate,STUDY_ID,SESSION_ID,opening1.started,opening1.stopped,keyEndingOpening1.keys,keyEndingOpening1.rt,keyEndingOpening1.duration,volumeAdjust.started,volumeAdjust.stopped,endingAdjust.keys,endingAdjust.rt,endingAdjust.duration,opening2.started,opening2.stopped,keyEndingOpening.keys,keyEndingOpening.rt,keyEndingOpening.duration,mouse.x,mouse.y,mouse.leftButton,mouse.midButton,mouse.rightButton,mouse.time,instructionLoop.thisRepN,instructionLoop.thisTrialN,instructionLoop.thisN,instructionLoop.thisIndex,instructionLoop.ran,readyForAudio.started,readyForAudio.stopped,fixation.started,run,audio_played,fixation.stopped,endPractice.keys,audioPre.started,audioPre.stopped,continuousResponses_audio,continuousSlider.response,continuousSlider.rt,intRating.started,intRating.stopped,intQuestionSlider.response,intQuestionSlider.rt,intQuestionSlider.history,confirmResponse.keys,confirmResponse.rt,confirmResponse.duration,catchQuestion.started,catch_label,catch_value,catchQuestion.stopped,catchQuestionSlider.response,catchQuestionSlider.rt,catchQuestionSlider.history,confirmResponse_2.keys,audioRunLoop.thisRepN,audioRunLoop.thisTrialN,audioRunLoop.thisN,audioRunLoop.thisIndex,audioRunLoop.ran,conditions1_1,conditions2_1,conditions1_2,conditions2_2,dur1_1,dur2_1,dur1_2,dur2_2,endPractice.rt,endPractice.duration,confirmResponse_2.rt,confirmResponse_2.duration,runIntervalBreak.started,runIntervalBreak.stopped,endingBreakKey.keys,endingBreakKey.rt,endingBreakKey.duration,connection.started,connection.stopped,connectionEnding.keys,connectionEnding.rt,connectionEnding.duration,readyForText.started,readyForText.stopped,textPre.started,run_dup,textPre.stopped,continuousResponses_text,textRunLoop.thisRepN,textRunLoop.thisTrialN,textRunLoop.thisN,textRunLoop.thisIndex,textRunLoop.ran,text1_1,text1_2,text2_1,text2_2,runBreakText.started,runBreakText.stopped,endingBreakKey_2.keys,endingBreakKey_2.rt,endingBreakKey_2.duration,ending.started,ending.stopped,endingEnding.keys,endingEnding.rt,endingEnding.duration
tom,0.0001,52.8544,y,52.5238,,612323ddbebadb638a141ce3,2024-05-13_11h35.07.902,group3.1-3.2-social-tom,2023.2.2,Win32,60.24096386,65c5074098b851296ff0b7ed,664232fdbd01e6e079c2282f,,,,,,,,,,,,,,,,,,,,,,,,,,,,,,,,,,,,,,,,,,,,,,,,,,,,,,,,,,,,,,,,,,,,,,,,,,,,,,,,,,,,,,,,,,,,,,,,,,,,,,,,,,
,,,,,,612323ddbebadb638a141ce3,2024-05-13_11h35.07.902,group3.1-3.2-social-tom,2023.2.2,Win32,60.24096386,65c5074098b851296ff0b7ed,664232fdbd01e6e079c2282f,52.8544,65.6351,space,12.7678,,,,,,,,,,,,,,,,,,,,,,,,,,,,,,,,,,,,,,,,,,,,,,,,,,,,,,,,,,,,,,,,,,,,,,,,,,,,,,,,,,,,,,,,,,,,,,,,,,,,,,
,,,,,,612323ddbebadb638a141ce3,2024-05-13_11h35.07.902,group3.1-3.2-social-tom,2023.2.2,Win32,60.24096386,65c5074098b851296ff0b7ed,664232fdbd01e6e079c2282f,,,,,,65.6352,86.6084,space,20.6445,,,,,,,,,,,,,,,,,,,,,,,,,,,,,,,,,,,,,,,,,,,,,,,,,,,,,,,,,,,,,,,,,,,,,,,,,,,,,,,,,,,,,,,,,,,,,,,,,
,,,,,,612323ddbebadb638a141ce3,2024-05-13_11h35.07.902,group3.1-3.2-social-tom,2023.2.2,Win32,60.24096386,65c5074098b851296ff0b7ed,664232fdbd01e6e079c2282f,,,,,,,,,,,86.6153,105.1213,space,18.4949,,[],[],[],[],[],[],0,0,0,0,1,,,,,,,,,,,,,,,,,,,,,,,,,,,,,,,,,,,,,,,,,,,,,,,,,,,,,,,,,,,,,,,,,,,,,,,,,,,,,,,,
,,,,,,612323ddbebadb638a141ce3,2024-05-13_11h35.07.902,group3.1-3.2-social-tom,2023.2.2,Win32,60.24096386,65c5074098b851296ff0b7ed,664232fdbd01e6e079c2282f,,,,,,,,,,,105.1262,156.5547,space,51.3686,,[],[],[],[],[],[],1,0,1,0,1,,,,,,,,,,,,,,,,,,,,,,,,,,,,,,,,,,,,,,,,,,,,,,,,,,,,,,,,,,,,,,,,,,,,,,,,,,,,,,,,
,,,,,,612323ddbebadb638a141ce3,2024-05-13_11h35.07.902,group3.1-3.2-social-tom,2023.2.2,Win32,60.24096386,65c5074098b851296ff0b7ed,664232fdbd01e6e079c2282f,,,,,,,,,,,156.5597,183.1649,space,26.5718,,[],[],[],[],[],[],2,0,2,0,1,,,,,,,,,,,,,,,,,,,,,,,,,,,,,,,,,,,,,,,,,,,,,,,,,,,,,,,,,,,,,,,,,,,,,,,,,,,,,,,,
,,,,,,612323ddbebadb638a141ce3,2024-05-13_11h35.07.902,group3.1-3.2-social-tom,2023.2.2,Win32,60.24096386,65c5074098b851296ff0b7ed,664232fdbd01e6e079c2282f,,,,,,,,,,,183.1702,221.2716,space,38.089,,[],[],[],[],[],[],3,0,3,0,1,,,,,,,,,,,,,,,,,,,,,,,,,,,,,,,,,,,,,,,,,,,,,,,,,,,,,,,,,,,,,,,,,,,,,,,,,,,,,,,,
,,,,,,612323ddbebadb638a141ce3,2024-05-13_11h35.07.902,group3.1-3.2-social-tom,2023.2.2,Win32,60.24096386,65c5074098b851296ff0b7ed,664232fdbd01e6e079c2282f,,,,,,,,,,,221.2768,250.5312,space,29.2409,,[],[],[],[],[],[],4,0,4,0,1,,,,,,,,,,,,,,,,,,,,,,,,,,,,,,,,,,,,,,,,,,,,,,,,,,,,,,,,,,,,,,,,,,,,,,,,,,,,,,,,
,,,,,,612323ddbebadb638a141ce3,2024-05-13_11h35.07.902,group3.1-3.2-social-tom,2023.2.2,Win32,60.24096386,65c5074098b851296ff0b7ed,664232fdbd01e6e079c2282f,,,,,,,,,,,,,,,,,,,,,,,,,,,250.5373,253.1141,253.1267,1,audio/Narrative13Situation2.wav,255.1297,,255.1298,284.8725,"[[51,4832],[53.7,4915],[52.2,4998],[49.6,5081],[48.7,5165],[46.3,5249],[44.7,5331],[39.3,5415],[34.1,5498],[29.3,5581],[27.5,5665],[24.6,5748],[21.9,5831],[19.6,5915],[18.2,5998],[18.1,6081],[18.1,6164],[17.9,6248],[17.8,6331],[17.8,6414],[17.8,6497],[17.8,6581],[17.8,6665],[17.8,6747],[17.8,6831],[17.8,6914],[17.8,6997],[17.8,7081],[17.8,7164],[17.8,7247],[17.8,7331],[17.8,7414],[17.8,7497],[17.8,7581],[17.8,7664],[17.8,7747],[17.8,7831],[17.8,7914],[17.8,7997],[17.8,8081],[17.8,8164],[17.8,8247],[17.8,8331],[17.8,8414],[17.8,8497],[17.8,8580],[17.8,8664],[17.8,8747],[17.8,8831],[17.8,8913],[17.8,8997],[17.8,9081],[17.8,9164],[17.8,9247],[17.8,9330],[17.8,9414],[17.8,9497],[17.8,9580],[17.8,9664],[17.8,9747],[17.8,9830],[17.8,9914],[17.8,9997],[17.8,10080],[17.8,10164],[17.8,10247],[17.8,10330],[17.8,10413],[17.8,10497],[17.8,10580],[17.8,10663],[17.8,10747],[17.8,10830],[17.8,10913],[17.8,10996],[17.8,11080],[17.8,11163],[17.8,11247],[17.8,11330],[17.8,11413],[17.8,11496],[17.8,11580],[17.8,11663],[17.8,11746],[17.8,11829],[17.8,11913],[17.8,11996],[17.8,12079],[17.8,12163],[17.8,12247],[17.8,12330],[17.8,12413],[17.8,12496],[17.8,12580],[17.8,12663],[17.8,12746],[17.8,12830],[17.8,12913],[17.8,12996],[17.8,13080],[17.8,13163],[17.8,13246],[17.8,13329],[17.8,13413],[17.8,13496],[17.8,13579],[17.8,13663],[17.8,13746],[17.8,13829],[17.8,13912],[17.8,13996],[17.8,14079],[17.8,14162],[17.8,14245],[17.8,14329],[17.8,14412],[17.8,14496],[17.8,14579],[17.8,14663],[17.8,14746],[17.8,14829],[17.8,14912],[17.8,14995],[17.8,15079],[17.8,15162],[17.8,15246],[17.8,15329],[17.8,15412],[17.8,15495],[17.8,15579],[17.8,15662],[17.8,15745],[17.8,15829],[17.8,15912],[17.8,15995],[17.8,16079],[17.8,16162],[17.8,16245],[17.8,16328],[17.8,16413],[17.8,16495],[17.8,16578],[17.8,16662],[17.7,16745],[17.4,16828],[16.9,16912],[15.7,16995],[15.3,17078],[14.6,17162],[14.1,17245],[14.1,17329],[14,17412],[13.8,17495],[13.4,17578],[13.2,17661],[13.2,17745],[13.2,17828],[13.2,17911],[13.2,17995],[13.2,18078],[13.2,18161],[13.2,18245],[13.2,18328],[13.2,18411],[13.2,18495],[13.2,18578],[13.2,18661],[13.2,18745],[13.2,18828],[13.2,18911],[13.2,18995],[13.2,19078],[13.2,19161],[13.2,19245],[13.2,19328],[13.2,19411],[13.2,19494],[13.2,19578],[13.2,19661],[13.2,19744],[13.2,19828],[13.2,19911],[13.2,19994],[13.2,20078],[13.2,20161],[13.2,20244],[13.2,20328],[13.2,20411],[13.2,20494],[13.2,20577],[13.2,20661],[13.2,20744],[13.2,20827],[13.2,20911],[13.2,20994],[13.2,21077],[13.2,21161],[13.2,21244],[13.2,21328],[13.2,21411],[13.2,21494],[13.2,21577],[13.2,21661],[13.2,21744],[13.2,21827],[13.2,21910],[13.2,21994],[13.2,22077],[13.2,22161],[13.2,22244],[13.2,22327],[13.2,22410],[13.2,22493],[13.2,22577],[13.2,22660],[13.2,22744],[13.2,22827],[13.2,22910],[13.2,22993],[13.2,23077],[13.2,23160],[13.2,23244],[13.2,23327],[13.2,23410],[13.2,23494],[13.2,23577],[13.2,23660],[13.2,23743],[13.2,23827],[13.2,23910],[13.2,23993],[13.2,24076],[13.7,24160],[13.7,24243],[13.7,24327],[13.7,24410],[13.7,24493],[13.7,24576],[13.7,24660],[13.7,24743],[13.7,24826],[13.7,24910],[13.7,24993],[13.7,25076],[13.7,25160],[13.7,25243],[13.7,25326],[13.7,25410],[13.7,25493],[13.7,25576],[13.7,25659],[13.7,25743],[13.7,25827],[13.7,25910],[13.7,25993],[13.7,26076],[13.7,26160],[13.7,26242],[13.7,26326],[13.7,26409],[13.7,26493],[13.7,26576],[13.7,26659],[13.7,26743],[13.7,26826],[13.7,26909],[13.7,26992],[13.7,27076],[13.7,27159],[13.7,27242],[13.7,27326],[13.7,27409],[13.7,27492],[13.7,27576],[13.7,27659],[13.7,27742],[13.7,27826],[13.7,27909],[13.7,27992],[13.7,28075],[13.7,28159],[13.7,28242],[13.7,28325],[13.7,28409],[13.7,28492],[13.7,28576],[13.7,28659],[13.7,28742],[13.7,28825],[13.7,28909],[13.7,28992],[14,29075],[14,29159],[14,29242],[14,29325],[14,29408],[14,29492],[14,29575],[14,29659],[14,29742]]",1,0,284.8727,297.4361,6.731704326,9.6841,"[{""rating"":6.731704326363741,""responseTime"":9.684099999904618}]",space,12.02,,297.4363,All the time,100,297.4393,,,[],,0,0,0,0,1,audio/Narrative13Situation2.wav,audio/Narrative13Situation2.wav,audio/Narrative13Situation2.wav,audio/Narrative13Situation2.wav,2,2,2,2,,,,,,,,,,,,,,,,,,,,,,,,,,,,,,,,,,,,,,,
,,,,,,612323ddbebadb638a141ce3,2024-05-13_11h35.07.902,group3.1-3.2-social-tom,2023.2.2,Win32,60.24096386,65c5074098b851296ff0b7ed,664232fdbd01e6e079c2282f,,,,,,,,,,,,,,,,,,,,,,,,,,,,,297.4394,1,audio/Narrative8Situation1.wav,301.5184,space,301.5184,317.4472,"[[42.4,999],[43.4,1082],[43.8,1165],[45,1249],[23.4,2165],[22.4,2249],[18.4,2332],[10.7,2415],[7.9,2498],[7.5,2582],[7.5,2665],[7.5,2748],[7.7,2832],[8.1,2915],[8.1,2998],[8.1,3082],[7.8,3165],[7.7,3248],[7.7,3332],[7.7,3416],[7.7,3498],[7.7,3582],[7.7,3665],[7.7,3748],[7.7,3831],[7.7,3915],[7.7,3998],[7.7,4082],[7.7,4165],[7.7,4248],[7.7,4331],[7.7,4415],[7.7,4498],[7.7,4581],[7.7,4664],[7.7,4748],[7.7,4831],[7.7,4914],[7.7,4998],[7.7,5081],[7.7,5164],[7.7,5248],[7.7,5331],[7.7,5414],[7.7,5497],[7.7,5581],[7.7,5664],[7.7,5748],[7.7,5831],[7.7,5914],[7.7,5998],[7.7,6081],[7.7,6164],[7.7,6247],[7.7,6331],[7.7,6414],[7.7,6497],[7.7,6581],[7.7,6664],[7.7,6747],[7.7,6831],[7.7,6914],[7.7,6997],[7.7,7081],[7.7,7164],[7.7,7247],[7.7,7330],[7.7,7414],[7.7,7497],[7.7,7581],[7.7,7664],[7.7,7747],[7.7,7831],[7.7,7914],[7.7,7997],[7.7,8080],[7.7,8164],[7.7,8247],[7.7,8330],[7.7,8414],[7.7,8497],[7.7,8580],[7.7,8663],[7.7,8747],[7.7,8830],[7.7,8914],[7.7,8996],[7.7,9080],[7.7,9163],[7.7,9247],[7.7,9330],[7.7,9414],[7.7,9497],[7.7,9580],[7.7,9663],[7.7,9746],[7.7,9830],[7.7,9914],[7.7,9997],[7.7,10080],[7.7,10163],[7.7,10246],[7.7,10330],[7.7,10413],[7.7,10497],[7.7,10580],[7.7,10663],[7.7,10746],[7.7,10830],[7.7,10913],[7.7,10996],[7.7,11079],[7.7,11163],[7.7,11247],[7.7,11330],[7.7,11413],[7.7,11496],[9.9,11579],[11.5,11664],[12.2,11746],[13.2,11830],[24.9,11913],[25.2,11996],[25.2,12079],[25.2,12162],[25.2,12246],[25.2,12329],[25.6,12413],[31.3,12496],[35.3,12579],[37.4,12663],[40.3,12746],[42.1,12829],[42.2,12912],[42.2,12996],[42.2,13079],[42.2,13162],[42.2,13246],[42.5,13329],[43.5,13413],[45.3,13496],[46.9,13580],[46.9,13663],[46.9,13745],[47.5,13829],[48.2,13913],[48.2,13996],[48.8,14079],[49.3,14163],[49.6,14246],[50.2,14329],[50.6,14412],[53.1,14495],[54.4,14579],[55,14662],[55.2,14745],[55.3,14829],[55.3,14912],[55.3,14995],[55.3,15079],[55.3,15162],[55.3,15245],[55.3,15328],[55.3,15412],[55.3,15495],[55.3,15578],[55.3,15662],[55.3,15745],[55.3,15829],[55.3,15911]]",1,0,317.4474,329.5775,69.34234317,9.7342,"[{""rating"":69.34234316581441,""responseTime"":9.73419999980922}]",space,11.5806,,329.5775,Not at all,0,329.58,,,[],,0,1,1,1,1,audio/Narrative7Situation1.wav,audio/Narrative8Situation1.wav,audio/Narrative5Situation1.wav,audio/Narrative6Situation1.wav,2,5,5,2,4.0614,,,,,,,,,,,,,,,,,,,,,,,,,,,,,,,,,,,,,,
,,,,,,612323ddbebadb638a141ce3,2024-05-13_11h35.07.902,group3.1-3.2-social-tom,2023.2.2,Win32,60.24096386,65c5074098b851296ff0b7ed,664232fdbd01e6e079c2282f,,,,,,,,,,,,,,,,,,,,,,,,,,,,,329.5801,1,audio/Narrative8Situation2.wav,332.5935,,332.5936,342.7245,"[[999,0],[999,82],[999,166],[999,249],[999,332],[999,417],[999,499],[999,582],[999,666],[999,749],[999,832],[999,916],[999,999],[999,1082],[999,1166],[999,1249],[999,1332],[999,1415],[999,1499],[999,1582],[999,1666],[999,1749],[999,1832],[999,1915],[999,1999],[999,2082],[999,2165],[999,2249],[999,2332],[999,2416],[999,2499],[999,2582],[999,2665],[15.4,2749],[15.3,2832],[15.3,2916],[15.3,2999],[15.6,3082],[15.7,3165],[17.1,3248],[19.1,3332],[20.3,3415],[20.7,3498],[21,3582],[21,3665],[21.2,3748],[21.9,3832],[23.2,3915],[24.4,3998],[24.4,4081],[24.9,4165],[27.1,4248],[27.4,4331],[27.5,4415],[31.8,4498],[32.9,4581],[34,4665],[36.3,4748],[38.5,4831],[40.6,4915],[41.8,4998],[42.5,5081],[42.5,5165],[42.5,5248],[42.5,5331],[42.5,5415],[42.5,5498],[42.5,5582],[42.5,5664],[42.5,5748],[42.5,5831],[42.5,5914],[42.5,5998],[42.5,6081],[42.5,6165],[42.5,6247],[42.5,6331],[42.5,6414],[42.5,6497],[42.5,6581],[42.5,6664],[42.5,6748],[42.5,6831],[42.5,6914],[42.5,6998],[42.5,7081],[42.5,7164],[42.5,7248],[42.5,7331],[42.5,7414],[42.5,7497],[42.5,7581],[42.5,7664],[42.5,7747],[42.5,7831],[42.5,7914],[42.5,7997],[42.5,8080],[42.5,8164],[42.5,8247],[42.5,8330],[42.5,8414],[42.5,8498],[42.5,8580],[42.5,8664],[42.5,8747],[42.5,8830],[42.5,8913],[42.5,8997],[42.5,9080],[42.5,9164],[42.5,9247],[42.5,9330],[42.5,9414],[42.5,9497],[42.5,9580],[42.5,9663],[42.5,9747],[42.5,9830],[42.5,9913],[42.7,9997],[42.9,10080]]",1,0,342.7246,353.9722,14.6682635,8.6014,"[{""rating"":14.668263496985473,""responseTime"":8.601400000095396}]",space,10.7042,,353.9723,All the time,100,353.9743,,,[],,0,2,2,2,1,audio/Narrative7Situation2.wav,audio/Narrative8Situation2.wav,audio/Narrative5Situation2.wav,audio/Narrative6Situation2.wav,3,3,3,3,,,,,,,,,,,,,,,,,,,,,,,,,,,,,,,,,,,,,,,
,,,,,,612323ddbebadb638a141ce3,2024-05-13_11h35.07.902,group3.1-3.2-social-tom,2023.2.2,Win32,60.24096386,65c5074098b851296ff0b7ed,664232fdbd01e6e079c2282f,,,,,,,,,,,,,,,,,,,,,,,,,,,,,353.9745,1,audio/Narrative8Situation3.wav,357.9871,,357.9871,380.3648,"[[999,4],[999,83],[999,166],[999,250],[999,333],[999,416],[999,499],[999,583],[999,666],[999,749],[999,833],[999,916],[999,1000],[999,1083],[999,1165],[999,1249],[999,1333],[999,1416],[999,1500],[999,1582],[999,1666],[999,1749],[999,1833],[999,1916],[999,1999],[999,2083],[7.9,2166],[7.8,2249],[8.1,2333],[8.7,2416],[9.3,2499],[9.9,2582],[10.3,2665],[10.6,2749],[11,2832],[11.5,2915],[11.9,2999],[12.2,3082],[12.4,3165],[15,3249],[15.6,3332],[15.6,3415],[15.6,3498],[15.6,3582],[15.6,3665],[15.6,3749],[15.6,3832],[15.6,3915],[15.6,3998],[15.6,4081],[16,4165],[16.2,4248],[16.2,4331],[16.2,4415],[16.2,4498],[16.2,4582],[16.2,4665],[16.2,4748],[16.2,4832],[16.2,4915],[16.2,4998],[16.2,5081],[16.2,5165],[16.2,5248],[16.2,5331],[16.2,5415],[16.2,5498],[16.2,5581],[16.2,5665],[16.2,5748],[16.2,5831],[16.2,5915],[16.2,5998],[17.9,6081],[20.9,6165],[31.2,6248],[38.1,6331],[40.2,6415],[43.4,6498],[47.9,6581],[52.4,6665],[55.4,6748],[59.1,6831],[61.9,6914],[62.8,6998],[62.9,7081],[63.5,7165],[63.5,7248],[63.5,7331],[63.8,7415],[64.1,7498],[64.3,7581],[64.6,7664],[64.6,7747],[64.9,7831],[64.9,7914],[65,7998],[65,8081],[65,8164],[65,8248],[65,8330],[64.9,8414],[64.6,8498],[64.6,8581],[64.6,8664],[64.6,8747],[64.6,8830],[64.6,8914],[64.6,8997],[64.6,9080],[64.6,9163],[64.6,9247],[64.6,9330],[64.6,9414],[64.6,9497],[64.6,9581],[64.6,9664],[64.6,9747],[64.6,9830],[64.6,9913],[64.6,9997],[64.6,10080],[64.6,10164],[64.6,10247],[64.6,10330],[64.6,10414],[64.6,10497],[64.6,10580],[64.6,10663],[64.6,10747],[64.6,10830],[64.6,10914],[64.6,10996],[64.6,11080],[64.6,11164],[64.6,11246],[65.2,11330],[65.3,11413],[65.4,11496],[65.9,11580],[66.5,11663],[69.7,11747],[70.2,11830],[70.6,11913],[71.2,11997],[71.3,12080],[71.6,12163],[71.9,12246],[71.9,12329],[71.9,12413],[71.9,12496],[71.9,12580],[72.1,12663],[72.2,12746],[72.7,12830],[73,12913],[73.2,12996],[73.2,13079],[73.2,13163],[73.2,13246],[73.2,13329],[73.2,13413],[73.4,13496],[73.4,13579],[73.4,13662],[73.4,13746],[73.4,13829],[73.4,13912],[73.4,13996],[73.4,14079],[73.4,14163],[73.4,14246],[73.4,14329],[73.4,14412],[73.4,14496],[73.4,14579],[73.4,14662],[73.4,14746],[73.4,14829],[73.4,14912],[73.4,14996],[73.4,15079],[73.4,15163],[73.4,15246],[73.4,15329],[73.4,15412],[73.4,15496],[73.4,15579],[73.4,15662],[73.4,15746],[73.4,15829],[73.4,15912],[73.4,15996],[73.4,16079],[73.4,16162],[73.4,16246],[73.4,16329],[73.4,16412],[73.4,16495],[73.4,16578],[73.4,16662],[73.4,16745],[73.4,16829],[73.4,16912],[73.4,16995],[73.4,17078],[73.4,17162],[73.4,17245],[73.4,17328],[73.4,17411],[73.4,17495],[73.4,17578],[73.4,17662],[73.4,17745],[73.4,17828],[73.4,17911],[73.4,17995],[73.4,18078],[73.4,18161],[73.4,18245],[73.4,18328],[73.4,18411],[73.4,18495],[73.4,18578],[73.4,18662],[73.4,18745],[73.4,18828],[73.4,18912],[73.4,18995],[73.4,19078],[73.4,19161],[73.4,19244],[73.4,19328],[73.4,19411],[73.4,19495],[73.4,19578],[73.4,19661],[73.4,19744],[73.4,19828],[73.4,19911],[73.4,19995],[73.4,20078],[73.4,20161],[73.4,20244],[73.4,20328],[73.4,20411],[73.4,20494],[73.4,20577],[73.4,20661],[73.4,20744],[73.4,20828],[73.4,20911],[73.5,20994],[73.7,21078],[73.7,21161],[73.7,21244],[73.7,21328],[73.7,21411],[74.3,21494],[74.4,21577],[74.4,21660],[74.4,21744],[74.4,21828],[74.4,21911],[74.4,21994],[74.4,22077],[74.4,22160],[74.4,22244],[74.4,22327]]",1,0,380.3649,386.7797,79.33652699,3.6945,"[{""rating"":79.33652699397093,""responseTime"":3.694500000000005}]",space,5.8656,,386.7798,All the time,100,386.7822,,,[],,0,3,3,3,1,audio/Narrative7Situation3.wav,audio/Narrative8Situation3.wav,audio/Narrative5Situation3.wav,audio/Narrative6Situation3.wav,8,4,3,5,,,,,,,,,,,,,,,,,,,,,,,,,,,,,,,,,,,,,,,
,,,,,,612323ddbebadb638a141ce3,2024-05-13_11h35.07.902,group3.1-3.2-social-tom,2023.2.2,Win32,60.24096386,65c5074098b851296ff0b7ed,664232fdbd01e6e079c2282f,,,,,,,,,,,,,,,,,,,,,,,,,,,,,386.7824,1,audio/Narrative8Situation4.wav,389.7959,,389.7959,403.9754,"[[999,4],[999,83],[999,166],[999,250],[999,332],[999,416],[999,499],[999,584],[999,666],[999,749],[999,833],[999,916],[999,999],[999,1082],[999,1166],[999,1249],[999,1333],[999,1416],[999,1499],[999,1583],[999,1666],[999,1749],[18.8,1833],[18.8,1916],[18.8,1999],[18.8,2082],[18.8,2165],[18.8,2249],[20.3,2332],[22.8,2415],[23.8,2499],[27.2,2582],[29.9,2665],[30.9,2748],[31.3,2831],[31.3,2915],[31.3,2999],[31.3,3082],[32.9,3165],[34.3,3248],[34.3,3331],[34.3,3415],[35.6,3499],[37.7,3582],[38.7,3665],[39.6,3749],[40.7,3832],[41.2,3915],[41,3998],[39.6,4082],[39.4,4165],[40.9,4248],[41.9,4331],[42.7,4415],[43.5,4498],[43.5,4581],[43.8,4664],[43.8,4748],[43.8,4831],[43.8,4914],[43.8,4998],[43.8,5081],[43.8,5165],[43.8,5248],[43.8,5331],[43.8,5415],[43.8,5498],[43.8,5581],[43.8,5665],[44,5748],[45,5831],[45,5914],[45,5998],[45,6081],[45,6164],[45,6248],[45,6331],[45,6414],[45,6498],[45,6581],[45,6664],[45,6747],[45,6831],[45,6914],[45,6997],[45,7080],[45,7164],[45,7247],[45,7331],[44.9,7414],[44.9,7498],[44.9,7580],[44.9,7664],[44.9,7747],[45,7830],[45.6,7914],[45.7,7997],[45.7,8080],[45.7,8164],[45.7,8247],[45.7,8330],[45.7,8414],[45.7,8498],[45.7,8580],[45.7,8664],[45.7,8747],[45.7,8830],[45.9,8914],[47.1,8997],[47.5,9080],[47.9,9164],[48.5,9247],[48.7,9330],[48.7,9413],[48.7,9497],[48.7,9580],[48.7,9664],[48.7,9747],[48.7,9830],[48.7,9913],[48.7,9997],[48.7,10080],[48.7,10163],[48.8,10247],[49,10330],[49,10413],[49.4,10497],[50.2,10580],[51.3,10664],[53.2,10746],[54.9,10830],[57.4,10913],[58.8,10997],[59.9,11080],[60.4,11163],[62.9,11247],[65.3,11330],[67.4,11413],[68.4,11497],[68.7,11580],[69.4,11663],[69.6,11746],[69.6,11829],[69.6,11913],[69.6,11996],[69.6,12079],[69.6,12163],[69.6,12246],[69.6,12329],[69.6,12413],[69.6,12496],[69.6,12579],[69.6,12663],[69.6,12746],[69.6,12829],[69.6,12913],[69.6,12996],[69.6,13079],[69.6,13163],[69.6,13246],[70.5,13329],[70.6,13412],[70.6,13496],[70.6,13579],[70.6,13662],[70.6,13746],[70.6,13829],[70.6,13912],[70.6,13996],[70.6,14079],[70.6,14162]]",1,0,403.9754,414.2395,79.33652699,9.2364,"[{""rating"":75.66219494166297,""responseTime"":2.188199999809285},{""rating"":79.33652699397093,""responseTime"":9.236399999618584}]",space,9.7408,,414.2395,Not at all,0,414.2421,,,[],,0,4,4,4,1,audio/Narrative7Situation4.wav,audio/Narrative8Situation4.wav,audio/Narrative5Situation4.wav,audio/Narrative6Situation4.wav,3,3,1,2,,,,,,,,,,,,,,,,,,,,,,,,,,,,,,,,,,,,,,,
,,,,,,612323ddbebadb638a141ce3,2024-05-13_11h35.07.902,group3.1-3.2-social-tom,2023.2.2,Win32,60.24096386,65c5074098b851296ff0b7ed,664232fdbd01e6e079c2282f,,,,,,,,,,,,,,,,,,,,,,,,,,,,,414.2424,1,audio/Narrative8Situation5.wav,416.2554,,416.2554,424.487,"[[999,0],[999,83],[999,167],[999,249],[999,333],[999,416],[999,499],[999,583],[999,666],[999,750],[999,833],[999,916],[999,999],[999,1083],[999,1166],[999,1250],[999,1333],[999,1416],[999,1500],[999,1583],[999,1666],[999,1749],[999,1833],[999,1916],[999,1999],[999,2082],[999,2166],[999,2250],[999,2333],[999,2416],[999,2500],[999,2583],[999,2666],[999,2749],[999,2832],[999,2916],[999,2999],[37.8,3082],[37.4,3165],[37.2,3249],[37.1,3332],[37.1,3415],[37.1,3499],[38.1,3582],[38.8,3666],[39.3,3749],[39.7,3833],[41,3916],[41.6,3999],[42.2,4082],[45.4,4166],[46.2,4249],[47.2,4332],[47.8,4415],[48.1,4499],[49,4582],[49.6,4665],[49.7,4749],[49.7,4832],[49.3,4916],[49.3,4998],[49.3,5082],[49.4,5165],[50,5249],[50.2,5332],[50.3,5415],[50.3,5498],[50.3,5582],[50.3,5665],[50.3,5748],[50.3,5832],[50,5915],[49.9,5998],[49.9,6082],[49.9,6165],[49.9,6248],[49.9,6331],[49.9,6415],[49.9,6498],[49.9,6581],[49.9,6665],[49.9,6748],[49.9,6831],[51.8,6915],[57.7,6998],[59.3,7082],[60.6,7165],[61.5,7248],[62.4,7331],[62.5,7414],[62.5,7498],[62.5,7581],[62.5,7664],[62.4,7748],[61.3,7831],[60.2,7914],[59.4,7998],[58.5,8081],[57.9,8165]]",1,0,424.4871,433.9677,55.52684948,6.4851,"[{""rating"":55.52684948210573,""responseTime"":6.485099999904662}]",space,8.9332,,433.9679,Half the time,50,433.9743,,,[],,0,5,5,5,1,audio/Narrative7Situation5.wav,audio/Narrative8Situation5.wav,audio/Narrative5Situation5.wav,audio/Narrative6Situation5.wav,5,2,5,2,,,,,,,,,,,,,,,,,,,,,,,,,,,,,,,,,,,,,,,
,,,,,,612323ddbebadb638a141ce3,2024-05-13_11h35.07.902,group3.1-3.2-social-tom,2023.2.2,Win32,60.24096386,65c5074098b851296ff0b7ed,664232fdbd01e6e079c2282f,,,,,,,,,,,,,,,,,,,,,,,,,,,,,433.9745,1,audio/Narrative8Situation6.wav,435.9843,,435.9843,442.4663,"[[999,0],[999,83],[999,166],[999,249],[999,333],[999,416],[999,499],[999,583],[999,666],[999,749],[999,832],[999,916],[999,999],[999,1082],[999,1165],[999,1249],[999,1332],[999,1415],[999,1499],[999,1582],[999,1665],[999,1749],[999,1832],[999,1915],[999,1999],[999,2082],[999,2165],[999,2248],[999,2332],[999,2415],[999,2499],[41.6,2582],[40.2,2666],[38.4,2749],[37.4,2832],[37.1,2915],[36.9,2999],[36.3,3081],[36.3,3165],[36.3,3248],[38.7,3332],[39.1,3415],[39.1,3498],[39.1,3581],[39.1,3665],[39.4,3749],[39.9,3832],[40.6,3915],[40.7,3998],[40.7,4081],[40.7,4165],[40.7,4248],[40.7,4332],[41.2,4415],[41.8,4498],[41.9,4581],[41.9,4665],[41.9,4748],[41.9,4831],[41.9,4915],[41.9,4998],[41.9,5081],[41.9,5165],[41.9,5248],[41.9,5331],[41.9,5414],[41.9,5499],[41.9,5581],[41.9,5664],[41.9,5748],[41.9,5831],[41.9,5914],[41.9,5997],[41.9,6081],[41.9,6164],[41.9,6247],[41.9,6331],[42.5,6414]]",1,0,442.4664,449.7473,50.08883223,4.9612,"[{""rating"":50.08883223178039,""responseTime"":4.96119999980931}]",space,6.7318,,449.7473,Not at all,0,449.7494,,,[],,0,6,6,6,1,audio/Narrative7Situation6.wav,audio/Narrative8Situation6.wav,audio/Narrative5Situation6.wav,audio/Narrative6Situation6.wav,3,2,3,2,,,,,,,,,,,,,,,,,,,,,,,,,,,,,,,,,,,,,,,
,,,,,,612323ddbebadb638a141ce3,2024-05-13_11h35.07.902,group3.1-3.2-social-tom,2023.2.2,Win32,60.24096386,65c5074098b851296ff0b7ed,664232fdbd01e6e079c2282f,,,,,,,,,,,,,,,,,,,,,,,,,,,,,449.7496,1,audio/Narrative8Situation7.wav,452.7629,,452.763,464.8434,"[[999,0],[999,83],[999,166],[999,250],[999,333],[999,416],[999,499],[999,582],[999,666],[999,750],[999,833],[999,916],[999,999],[999,1082],[999,1166],[999,1249],[999,1333],[999,1416],[999,1499],[999,1582],[999,1666],[999,1749],[999,1832],[999,1915],[999,1999],[999,2082],[999,2165],[999,2249],[999,2332],[999,2415],[999,2499],[999,2582],[999,2666],[999,2749],[999,2833],[999,2916],[31,2999],[24.1,3082],[24,3165],[25.9,3249],[27.2,3332],[28.1,3415],[30.2,3499],[34.6,3582],[36.9,3665],[39,3749],[40.3,3833],[42.7,3915],[42.8,3998],[42.8,4082],[42.2,4165],[41.3,4248],[41,4332],[40.9,4415],[40.9,4498],[43.1,4582],[44.3,4665],[45,4748],[45.4,4832],[46,4915],[46.5,4999],[46.5,5082],[46.5,5165],[46.6,5248],[46.6,5332],[46.6,5415],[46.3,5498],[45.7,5581],[45.4,5665],[45.4,5748],[46.5,5832],[47.2,5915],[47.9,5998],[52.7,6082],[52.8,6164],[52.8,6248],[52.8,6331],[52.2,6414],[51.3,6498],[50.4,6582],[50.2,6665],[49.9,6748],[49.9,6831],[49.9,6914],[49.9,6998],[49.9,7081],[49.9,7165],[49.9,7248],[49.7,7331],[49.4,7415],[49.4,7498],[49.4,7581],[49.4,7664],[49.4,7747],[49.4,7831],[49.4,7914],[49.4,7998],[49.4,8081],[49.4,8164],[49.4,8247],[49.4,8330],[49.4,8414],[49.4,8498],[49.4,8581],[49.4,8664],[49.4,8747],[49.4,8831],[49.4,8914],[49.4,8997],[49.4,9081],[49.4,9164],[49.4,9247],[49.4,9331],[49.4,9414],[49.4,9497],[49.4,9581],[49.4,9664],[49.4,9747],[49.4,9830],[49.4,9914],[49.4,9997],[49.4,10080],[49.4,10163],[49.4,10247],[49.4,10330],[49.4,10414],[49.4,10497],[51.6,10580],[52.4,10664],[52.9,10747],[53.4,10830],[60.9,10913],[63.5,10997],[65,11080],[65.7,11164],[66.6,11247],[68.7,11330],[69.3,11413],[70.7,11496],[72.5,11580],[74.9,11664],[76.9,11747],[78.1,11830],[79.1,11913],[79.7,11997],[79.9,12080]]",1,0,464.8435,471.1586,82.42296398,3.5523,"[{""rating"":81.10020411850283,""responseTime"":2.3204999999999814},{""rating"":82.42296398027312,""responseTime"":3.552300000190712}]",space,5.77,,471.1586,Not at all,0,471.1602,,,[],,0,7,7,7,1,audio/Narrative7Situation7.wav,audio/Narrative8Situation7.wav,audio/Narrative5Situation7.wav,audio/Narrative6Situation7.wav,5,3,4,5,,,,,,,,,,,,,,,,,,,,,,,,,,,,,,,,,,,,,,,
,,,,,,612323ddbebadb638a141ce3,2024-05-13_11h35.07.902,group3.1-3.2-social-tom,2023.2.2,Win32,60.24096386,65c5074098b851296ff0b7ed,664232fdbd01e6e079c2282f,,,,,,,,,,,,,,,,,,,,,,,,,,,,,471.1605,1,audio/Narrative8Situation8.wav,474.1743,,474.1743,487.0217,"[[999,4],[999,83],[999,166],[999,250],[999,333],[999,416],[999,500],[999,583],[999,667],[999,750],[999,833],[999,916],[999,999],[999,1082],[999,1166],[999,1249],[999,1333],[999,1416],[999,1499],[999,1582],[999,1666],[999,1749],[999,1832],[999,1916],[999,1999],[999,2082],[999,2165],[999,2249],[999,2332],[999,2416],[999,2499],[999,2582],[999,2665],[999,2749],[999,2832],[999,2916],[999,2999],[999,3082],[35.9,3582],[38.7,3666],[39,3748],[39,3832],[39,3915],[39,3998],[39,4082],[39,4165],[38.8,4248],[38.2,4332],[37.8,4416],[37.7,4498],[37.5,4582],[37.4,4665],[37.4,4748],[37.4,4832],[37.8,4915],[38.7,4998],[39.4,5082],[39.6,5165],[39.7,5248],[40.2,5331],[40.3,5415],[40.3,5498],[40.3,5581],[40.3,5665],[40.3,5748],[40.3,5832],[40.3,5915],[41.3,5998],[42.1,6081],[42.2,6164],[42.5,6248],[42.7,6331],[42.7,6414],[42.7,6498],[42.7,6581],[42.7,6665],[42.7,6748],[42.7,6831],[42.7,6915],[42.7,6998],[42.7,7081],[42.7,7164],[42.7,7248],[42.7,7331],[42.7,7414],[42.7,7497],[42.2,7581],[41.9,7664],[41.8,7747],[41.6,7831],[41.6,7914],[41.6,7997],[41.6,8081],[41.6,8164],[41.6,8247],[41.6,8331],[41.6,8414],[41.6,8497],[41.6,8581],[41.6,8664],[41.6,8748],[41.6,8830],[41.6,8914],[41.6,8997],[41.6,9080],[41.6,9164],[41.6,9247],[41.6,9330],[41.6,9414],[41.6,9497],[41.6,9580],[41.6,9664],[41.6,9747],[41.6,9831],[41.6,9914],[41.6,9997],[41.6,10080],[41.6,10163],[41.6,10247],[41.6,10330],[41.6,10414],[41.6,10497],[41.6,10580],[41.6,10664],[41.6,10747],[41.6,10830],[41.6,10914],[41.6,10997],[41.6,11080],[41.6,11163],[41.6,11247],[41.6,11330],[41.6,11413],[41.6,11497],[41.6,11580],[41.6,11664],[41.6,11747],[41.6,11830],[41.6,11913],[41.6,11996],[41.6,12080],[41.6,12163],[41.9,12247],[43.5,12330],[45.6,12413],[47.8,12496],[49.3,12580],[50.7,12663],[51.8,12746],[52.5,12830]]",1,0,487.0219,492.7529,67.8726055,3.622,"[{""rating"":67.87260550079993,""responseTime"":3.622000000000014}]",space,5.1911,,492.7529,All the time,100,492.7555,,,[],,0,8,8,8,1,audio/Narrative7Situation8.wav,audio/Narrative8Situation8.wav,audio/Narrative5Situation8.wav,audio/Narrative6Situation8.wav,2,3,3,5,,,,,,,,,,,,,,,,,,,,,,,,,,,,,,,,,,,,,,,
,,,,,,612323ddbebadb638a141ce3,2024-05-13_11h35.07.902,group3.1-3.2-social-tom,2023.2.2,Win32,60.24096386,65c5074098b851296ff0b7ed,664232fdbd01e6e079c2282f,,,,,,,,,,,,,,,,,,,,,,,,,,,,,492.7557,1,audio/Narrative8Situation9.wav,495.7687,,495.7688,507.083,"[[999,4],[999,83],[999,166],[999,250],[999,333],[999,416],[999,500],[999,583],[999,666],[999,750],[999,833],[999,916],[999,999],[999,1082],[999,1166],[999,1249],[999,1333],[999,1416],[999,1499],[999,1583],[999,1666],[999,1749],[999,1832],[999,1916],[999,1999],[999,2082],[999,2165],[999,2249],[999,2332],[999,2415],[999,2499],[999,2582],[999,2665],[999,2749],[999,2832],[999,2915],[999,2998],[999,3082],[999,3165],[999,3249],[999,3332],[999,3415],[999,3499],[999,3582],[999,3665],[999,3749],[999,3832],[999,3915],[999,3998],[999,4082],[999,4165],[999,4248],[999,4332],[999,4415],[999,4498],[999,4581],[999,4665],[999,4748],[999,4832],[999,4915],[999,4998],[999,5082],[999,5165],[999,5248],[999,5331],[999,5415],[999,5498],[999,5582],[999,5665],[999,5748],[999,5832],[999,5915],[999,5998],[999,6081],[999,6165],[999,6248],[999,6331],[999,6414],[999,6498],[999,6581],[999,6664],[999,6748],[999,6831],[999,6914],[999,6998],[999,7081],[999,7165],[999,7248],[999,7331],[999,7414],[999,7497],[999,7581],[999,7664],[999,7747],[999,7831],[999,7914],[999,7997],[999,8081],[999,8164],[999,8248],[999,8331],[57.1,8415],[55.6,8498],[54.7,8581],[52.5,8664],[50.7,8747],[49.3,8831],[48.5,8914],[48.5,8997],[48.5,9080],[48.5,9164],[49.1,9248],[50.4,9331],[51,9414],[51.8,9497],[52.4,9580],[52.5,9664],[52.7,9747],[52.7,9830],[52.7,9914],[52.7,9997],[52.7,10080],[52.9,10164],[54.6,10247],[56.2,10331],[56.5,10414],[56.5,10497],[56.5,10580],[56.5,10664],[56.5,10747],[56.5,10830],[56.9,10913],[56.9,10997],[56.9,11080],[56.9,11163],[56.9,11247]]",1,0,507.083,512.2645,64.19827345,3.1605,"[{""rating"":64.19827344849199,""responseTime"":3.1604999999999563}]",space,4.6578,,512.2646,Not at all,0,512.2672,,,[],,0,9,9,9,1,audio/Narrative7Situation9.wav,audio/Narrative8Situation9.wav,audio/Narrative5Situation9.wav,audio/Narrative6Situation9.wav,2,3,3,4,,,,,,,,,,,,,,,,,,,,,,,,,,,,,,,,,,,,,,,
,,,,,,612323ddbebadb638a141ce3,2024-05-13_11h35.07.902,group3.1-3.2-social-tom,2023.2.2,Win32,60.24096386,65c5074098b851296ff0b7ed,664232fdbd01e6e079c2282f,,,,,,,,,,,,,,,,,,,,,,,,,,,,,512.2674,1,audio/Narrative7Situation1.wav,514.2812,,514.2813,570.1668,"[[999,0],[999,83],[999,165],[999,249],[999,332],[999,416],[999,499],[999,583],[999,666],[999,749],[999,833],[999,915],[999,999],[999,1082],[999,1166],[999,1249],[999,1332],[999,1415],[999,1498],[999,1582],[999,1665],[999,1749],[999,1832],[999,1915],[999,1999],[999,2082],[999,2165],[999,2249],[999,2332],[999,2415],[999,2499],[999,2582],[999,2665],[999,2749],[999,2832],[999,2915],[999,2998],[999,3082],[999,3165],[999,3248],[999,3331],[999,3416],[999,3498],[999,3581],[999,3665],[999,3748],[999,3831],[999,3915],[999,3998],[999,4081],[999,4165],[999,4248],[999,4331],[999,4415],[999,4498],[999,4581],[999,4665],[999,4748],[999,4831],[999,4914],[999,4998],[999,5081],[999,5164],[999,5248],[999,5331],[999,5414],[999,5497],[999,5581],[999,5664],[999,5747],[999,5831],[999,5914],[999,5997],[999,6081],[999,6164],[999,6247],[999,6331],[999,6414],[999,6497],[999,6581],[999,6664],[999,6747],[999,6831],[999,6914],[999,6997],[999,7081],[999,7164],[999,7247],[999,7330],[21.9,7414],[1.9,7497],[3.4,7581],[3.2,7664],[5.6,7747],[16.3,7830],[23.2,7914],[24.3,7997],[24.9,8080],[24.9,8164],[24.9,8247],[26.3,8331],[26.5,8414],[26.8,8498],[26.9,8580],[30.9,8664],[33.2,8747],[39.1,8831],[46.2,8914],[41.5,10247],[42.9,10330],[41.8,10413],[40,10497],[40,10580],[40.2,10663],[49.3,10747],[55.9,10830],[61.6,10913],[63.7,10997],[64.1,11080],[64.1,11163],[64.1,11247],[62.1,11330],[57.8,11413],[55.3,11496],[51.8,11580],[49.3,11663],[47.9,11746],[47.2,11830],[46.9,11913],[45.9,11996],[45.4,12079],[45.4,12163],[45.4,12246],[45.4,12329],[45.4,12412],[45.4,12496],[45.4,12580],[45.4,12663],[45.4,12746],[45.4,12829],[45.4,12913],[45.4,12996],[45.4,13079],[45.4,13163],[45.4,13246],[45.4,13329],[45.4,13413],[46.5,13496],[47.7,13580],[47.9,13663],[48.2,13746],[48.2,13829],[48.2,13913],[48.2,13995],[48.2,14079],[48.2,14162],[47.4,14245],[46.3,14329],[46.3,14412],[45.4,14495],[45,14579],[45,14662],[45,14745],[45,14828],[45,14912],[46.6,14995],[47.4,15079],[47.4,15162],[47.4,15245],[47.4,15328],[47.4,15412],[47.4,15495],[47.4,15578],[47.4,15662],[47.4,15745],[47.4,15828],[47.2,15912],[46.9,15995],[46.9,16079],[46.9,16161],[46.9,16245],[46.9,16328],[46.9,16411],[46.9,16495],[46.9,16578],[46.9,16661],[46.9,16745],[46.9,16828],[46.9,16912],[46.9,16995],[46.9,17078],[46.9,17161],[46.9,17245],[46.9,17328],[46.9,17412],[46.9,17495],[46.9,17578],[46.9,17661],[46.9,17745],[46.9,17828],[46.9,17911],[46.9,17994],[46.9,18078],[46.9,18161],[46.9,18244],[46.9,18328],[46.9,18411],[46.9,18494],[46.9,18578],[46.9,18661],[46.9,18744],[46.9,18828],[46.9,18911],[46.9,18994],[46.9,19078],[46.9,19161],[46.9,19244],[46.9,19327],[46.9,19411],[46.9,19494],[46.9,19577],[46.9,19661],[46.9,19744],[46.9,19827],[46.9,19910],[46.9,19994],[46.9,20077],[46.9,20161],[46.9,20244],[46.9,20327],[46.9,20411],[46.9,20494],[46.9,20577],[46.9,20660],[46.9,20744],[46.9,20827],[46.9,20910],[46.9,20994],[46.9,21077],[46.9,21160],[46.9,21243],[47.8,21327],[48.5,21411],[48.8,21494],[48.8,21577],[48.8,21660],[48.8,21743],[48.8,21827],[48.8,21910],[48.8,21993],[48.8,22077],[48.8,22160],[48.4,22244],[47.9,22327],[47.5,22410],[47.4,22494],[47.1,22577],[47.1,22660],[47.1,22744],[47.1,22827],[47.1,22910],[47.1,22993],[47.1,23076],[47.1,23160],[47.8,23243],[49.3,23327],[49.9,23410],[50.2,23493],[50.2,23576],[50.2,23660],[50.2,23743],[50.2,23827],[50.2,23910],[50.2,23993],[50.2,24076],[50.2,24159],[50.2,24243],[50.2,24326],[50.2,24409],[50.2,24493],[50.2,24576],[50.2,24660],[50.2,24743],[50.2,24826],[50.2,24909],[50.2,24993],[50.2,25076],[50.2,25160],[50.3,25243],[50.3,25326],[50.3,25410],[50.3,25492],[50.3,25576],[50.3,25659],[50.3,25743],[50.3,25826],[50.3,25909],[50.3,25992],[50.3,26076],[50.3,26159],[50.3,26243],[50.3,26326],[50.3,26409],[50.3,26493],[50.3,26576],[50.3,26659],[50.3,26743],[50.3,26826],[50.3,26909],[50.3,26992],[50.3,27076],[50.3,27159],[50.3,27242],[50.3,27325],[50.3,27409],[50.3,27492],[50.3,27575],[50.3,27659],[50.3,27742],[50.3,27825],[50.3,27909],[50.3,27992],[50.3,28075],[50.3,28158],[50.3,28242],[50.3,28325],[50.3,28408],[50.3,28492],[50.3,28575],[50.3,28659],[50.3,28742],[50.3,28825],[50.3,28908],[50.3,28992],[50.3,29075],[50.3,29158],[50.3,29241],[50.3,29325],[50.3,29409],[50.3,29492],[50.3,29575],[51.2,29659],[51.5,29742],[52.2,29825],[54.3,29909],[54.6,29992],[54.6,30075],[54.6,30158],[54.6,30241],[54.6,30325],[54.6,30408],[54.6,30492],[54.6,30575],[54.6,30658],[54.6,30741],[54.6,30825],[54.6,30908],[54.6,30991],[54.6,31075],[54.6,31158],[54.6,31241],[54.6,31325],[54.6,31408],[54.6,31491],[54.6,31575],[54.6,31658],[54.6,31741],[54.6,31824],[54.6,31908],[54.6,31991],[54.6,32074],[54.6,32158],[54.6,32241],[54.6,32324],[54.6,32407],[54.6,32491],[54.6,32574],[54.6,32658],[54.6,32741],[54.6,32824],[54.6,32907],[54.6,32991],[54.6,33074],[54.6,33158],[54.6,33241],[54.6,33324],[54.6,33407],[54.6,33490],[54.6,33574],[54.6,33658],[54.6,33740],[54.6,33824],[54.6,33907],[54.6,33990],[54.6,34074],[54.6,34157],[54.6,34240],[54.6,34324],[54.6,34407],[54.6,34490],[54.6,34574],[54.6,34657],[54.6,34740],[54.6,34824],[54.6,34907],[55,34990],[56.2,35074],[56.2,35157],[56.2,35240],[56.2,35323],[56.2,35407],[56.2,35490],[56.2,35574],[56.2,35657],[56.2,35740],[56.2,35824],[56.2,35907],[56.2,35990],[56.2,36073],[56.2,36157],[56.2,36240],[56.2,36323],[56.2,36406],[56.2,36490],[56.2,36573],[56.2,36657],[56.2,36740],[56.2,36823],[56.2,36906],[56.2,36990],[56.2,37073],[56.2,37157],[56.2,37240],[56.2,37323],[56.2,37406],[56.2,37489],[56.2,37573],[56.2,37656],[56.2,37739],[56.2,37823],[56.2,37906],[56.2,37990],[56.2,38073],[56.2,38156],[56.2,38239],[56.2,38322],[56.2,38406],[56.2,38489],[56.2,38573],[56.2,38656],[56.2,38739],[56.2,38823],[56.2,38906],[56.2,38989],[56.2,39073],[56.2,39156],[56.2,39239],[56.2,39322],[56.2,39406],[56.2,39489],[56.2,39573],[56.2,39656],[56.2,39739],[56.2,39823],[56.2,39906],[56.2,39989],[56.2,40072],[56.2,40156],[56.2,40239],[57.4,40322],[58.7,40406],[61.3,40489],[61.6,40572],[63.1,40655],[64.3,40739],[65.2,40822],[66.2,40906],[66.6,40989],[66.8,41072],[66.8,41155],[67.1,41239],[67.5,41322],[67.9,41405],[68.1,41489],[68.2,41572],[68.2,41655],[68.2,41738],[68.2,41822],[68.2,41905],[68.2,41989],[68.2,42072],[68.2,42155],[68.2,42238],[68.2,42322],[68.2,42405],[68.2,42488],[68.2,42571],[68.2,42655],[68.2,42739],[68.2,42822],[71,42906],[72.7,42989],[73,43072],[73,43155],[73,43238],[73,43322],[73,43405],[73.8,43488],[74.3,43572],[74.4,43655],[75,43738],[75.2,43821],[75.2,43904],[75.2,43988],[75.2,44071],[75.2,44155],[75.2,44238],[75,44321],[74.7,44404],[74.6,44488],[74.3,44571],[74.3,44654],[74.1,44738],[74.1,44821],[74.1,44905],[74.1,44988],[74.1,45071],[74.3,45154],[74.3,45237],[74.3,45321],[74.3,45404],[74.7,45488],[74.9,45571],[75,45654],[75.2,45737],[75.2,45821],[75.2,45904],[75.2,45987],[75.2,46071],[75.2,46154],[75.2,46237],[75.2,46321],[75.5,46404],[75.6,46487],[75.6,46570],[75.6,46654],[75.6,46737],[75.6,46820],[75.6,46904],[75.7,46988],[75.9,47071],[75.9,47154],[75.9,47237],[75.9,47320],[75.9,47403],[75.9,47487],[75.9,47570],[75.9,47654],[75.9,47737],[75.9,47820],[75.9,47904],[75.9,47987],[75.9,48070],[75.9,48154],[75.9,48237],[75.9,48320],[75.9,48403],[75.9,48487],[75.9,48570],[75.9,48653],[75.9,48737],[75.9,48820],[75.9,48903],[75.9,48987],[75.9,49070],[75.9,49154],[75.9,49237],[75.9,49320],[75.9,49403],[75.9,49487],[75.9,49570],[75.9,49653],[75.9,49736],[75.9,49820],[75.9,49903],[75.9,49987],[75.9,50070],[75.9,50153],[75.9,50236],[75.9,50320],[75.9,50403],[75.9,50486],[75.9,50569],[75.9,50653],[75.9,50737],[75.9,50820],[75.9,50903],[75.9,50986],[75.9,51070],[75.9,51153],[75.9,51236],[75.9,51319],[75.9,51403],[75.9,51486],[75.9,51570],[75.9,51653],[75.9,51736],[75.9,51819],[75.9,51903],[75.9,51986],[75.9,52069],[75.9,52153],[75.9,52236],[75.9,52320],[75.9,52403],[75.9,52486],[75.9,52569],[75.9,52652],[75.9,52736],[75.9,52819],[75.9,52903],[75.9,52986],[75.9,53069],[75.9,53152],[75.9,53236],[75.9,53319],[75.9,53402],[75.9,53485],[75.9,53569],[75.9,53652],[75.9,53735],[75.9,53819],[75.9,53902],[75.9,53985],[75.9,54069],[75.9,54152],[75.9,54235],[75.9,54319],[75.9,54402],[76,54486],[76,54569],[76.3,54652],[76.3,54735],[76.5,54819],[76.5,54902],[76.5,54985],[76.5,55068],[76.5,55152],[76.5,55235],[76.5,55318],[76.5,55402],[76.5,55485],[76.5,55569],[76.5,55652],[76.5,55735],[76.5,55818]]",1,0,570.167,597.6932,84.03967138,4.1247,"[{""rating"":80.65928685574123,""responseTime"":1.7030000000000882},{""rating"":84.03967137504632,""responseTime"":4.124699999809309}]",space,26.982,,597.6933,Not at all,0,597.6994,,,[],,0,10,10,10,1,audio/Narrative8Situation1.wav,audio/Narrative7Situation1.wav,audio/Narrative6Situation1.wav,audio/Narrative5Situation1.wav,5,2,2,5,,,,,,,,,,,,,,,,,,,,,,,,,,,,,,,,,,,,,,,
,,,,,,612323ddbebadb638a141ce3,2024-05-13_11h35.07.902,group3.1-3.2-social-tom,2023.2.2,Win32,60.24096386,65c5074098b851296ff0b7ed,664232fdbd01e6e079c2282f,,,,,,,,,,,,,,,,,,,,,,,,,,,,,597.6995,1,audio/Narrative7Situation2.wav,600.7093,,600.7093,608.1903,"[[999,0],[999,83],[999,166],[999,249],[999,332],[999,415],[999,499],[999,582],[999,666],[999,749],[999,832],[999,916],[999,999],[999,1082],[999,1166],[999,1249],[999,1332],[999,1415],[999,1499],[999,1582],[999,1665],[999,1749],[999,1832],[999,1915],[999,1998],[999,2082],[999,2165],[999,2249],[999,2332],[999,2415],[999,2498],[999,2582],[999,2665],[999,2749],[999,2832],[999,2915],[999,2998],[999,3082],[999,3165],[999,3248],[999,3331],[999,3415],[999,3498],[999,3582],[999,3665],[999,3748],[999,3831],[999,3915],[999,3998],[999,4081],[999,4165],[999,4248],[999,4331],[999,4414],[999,4498],[999,4581],[999,4664],[999,4748],[999,4831],[999,4915],[999,4998],[999,5081],[999,5165],[999,5248],[999,5331],[999,5415],[999,5498],[999,5581],[999,5665],[999,5748],[999,5831],[999,5914],[999,5997],[999,6081],[999,6164],[999,6248],[999,6331],[999,6414],[999,6497],[999,6581],[999,6664],[999,6747],[999,6831],[999,6914],[999,6997],[999,7081],[999,7164],[999,7247],[999,7330],[999,7414]]",1,0,608.1904,614.9556,65.96195057,5.576,"[{""rating"":61.111836462189785,""responseTime"":4.367999999999938},{""rating"":65.96195057302387,""responseTime"":5.576000000000022}]",space,6.2158,,614.9556,Not at all,0,614.9573,,,[],,0,11,11,11,1,audio/Narrative8Situation2.wav,audio/Narrative7Situation2.wav,audio/Narrative6Situation2.wav,audio/Narrative5Situation2.wav,3,3,3,3,,,,,,,,,,,,,,,,,,,,,,,,,,,,,,,,,,,,,,,
,,,,,,612323ddbebadb638a141ce3,2024-05-13_11h35.07.902,group3.1-3.2-social-tom,2023.2.2,Win32,60.24096386,65c5074098b851296ff0b7ed,664232fdbd01e6e079c2282f,,,,,,,,,,,,,,,,,,,,,,,,,,,,,614.9576,1,audio/Narrative7Situation3.wav,622.9702,,622.9702,632.2345,[],1,0,632.2345,641.332,87.42005589,6.8364,"[{""rating"":87.4200558943514,""responseTime"":6.836400000095409}]",space,8.5479,,641.332,Not at all,0,641.3336,,,[],,0,12,12,12,1,audio/Narrative8Situation3.wav,audio/Narrative7Situation3.wav,audio/Narrative6Situation3.wav,audio/Narrative5Situation3.wav,4,8,5,3,,,,,,,,,,,,,,,,,,,,,,,,,,,,,,,,,,,,,,,
,,,,,,612323ddbebadb638a141ce3,2024-05-13_11h35.07.902,group3.1-3.2-social-tom,2023.2.2,Win32,60.24096386,65c5074098b851296ff0b7ed,664232fdbd01e6e079c2282f,,,,,,,,,,,,,,,,,,,,,,,,,,,,,641.3338,1,audio/Narrative7Situation4.wav,644.3479,,644.348,656.0618,"[[999,5],[999,83],[999,166],[999,249],[999,333],[999,416],[999,499],[999,582],[999,666],[999,749],[999,833],[999,916],[999,999],[999,1082],[999,1166],[999,1249],[999,1332],[999,1416],[999,1499],[999,1582],[999,1666],[999,1749],[999,1832],[999,1915],[999,1999],[999,2082],[999,2166],[999,2249],[999,2332],[999,2415],[999,2499],[999,2582],[999,2665],[999,2749],[999,2832],[999,2916],[999,2999],[999,3082],[999,3165],[999,3249],[999,3332],[999,3416],[999,3499],[999,3582],[999,3665],[999,3749],[999,3832],[999,3915],[999,3999],[999,4082],[999,4165],[999,4248],[999,4331],[999,4415],[999,4498],[999,4581],[999,4665],[999,4748],[999,4831],[999,4915],[999,4998],[999,5082],[999,5165],[999,5248],[999,5332],[999,5415],[999,5498],[999,5581],[999,5665],[999,5748],[999,5832],[999,5914],[999,5998],[999,6081],[999,6164],[999,6248],[999,6331],[999,6414],[999,6498],[999,6581],[999,6664],[46.8,6748],[45.6,6832],[45.2,6914],[45.2,6998],[45.2,7081],[45.2,7164],[45.2,7248],[45.2,7331],[45,7414],[45,7498],[45,7581],[45,7664],[45.3,7747],[46.2,7831],[46.3,7914],[46.5,7997],[46.6,8081],[46.6,8164],[46.6,8247],[46.6,8331],[46.6,8414],[50.9,8497],[52.8,8581],[52.9,8664],[52.9,8747],[53.7,8831],[54.4,8914],[55.2,8997],[55.4,9081],[57.1,9164],[57.8,9247],[58.1,9330],[58.2,9414],[58.2,9497],[58.2,9580],[58.2,9663],[58.2,9747],[58.2,9830],[58.2,9913],[58.2,9998],[58.2,10080],[58.2,10163],[58.2,10247],[58.2,10330],[58.2,10413],[58.2,10496],[58.2,10580],[58.2,10663],[58.2,10746],[58.2,10830],[58.2,10913],[58.2,10997],[58.2,11080],[58.2,11163],[59.3,11247],[60,11331],[60.3,11413],[61,11497],[62.5,11580],[62.5,11663]]",1,0,656.0619,666.8423,82.42296398,8.8456,"[{""rating"":82.42296398027312,""responseTime"":8.845599999904607}]",space,10.2384,,666.8423,Not at all,0,666.8445,,,[],,0,13,13,13,1,audio/Narrative8Situation4.wav,audio/Narrative7Situation4.wav,audio/Narrative6Situation4.wav,audio/Narrative5Situation4.wav,3,3,2,1,,,,,,,,,,,,,,,,,,,,,,,,,,,,,,,,,,,,,,,
,,,,,,612323ddbebadb638a141ce3,2024-05-13_11h35.07.902,group3.1-3.2-social-tom,2023.2.2,Win32,60.24096386,65c5074098b851296ff0b7ed,664232fdbd01e6e079c2282f,,,,,,,,,,,,,,,,,,,,,,,,,,,,,666.8446,1,audio/Narrative7Situation5.wav,671.8579,,671.8579,680.3554,"[[54.9,6497],[54.9,6581],[54.9,6664],[55,6748],[55,6831],[53.8,6914],[53.2,6997],[51.5,7081],[48.4,7164],[48.2,7247],[47.9,7331],[47.9,7414],[47.9,7497],[47.9,7581],[47.9,7664],[47.9,7747],[47.7,7831],[47.4,7914],[47.2,7997],[46.9,8081],[46.9,8164],[46.9,8247],[46.9,8330],[46.9,8414],[46.9,8497]]",1,0,680.3555,684.6875,59.34815126,2.8559,"[{""rating"":59.34815126417241,""responseTime"":2.855900000095403}]",space,3.8013,,684.6876,All the time,100,684.69,,,[],,0,14,14,14,1,audio/Narrative8Situation5.wav,audio/Narrative7Situation5.wav,audio/Narrative6Situation5.wav,audio/Narrative5Situation5.wav,2,5,2,5,,,,,,,,,,,,,,,,,,,,,,,,,,,,,,,,,,,,,,,
,,,,,,612323ddbebadb638a141ce3,2024-05-13_11h35.07.902,group3.1-3.2-social-tom,2023.2.2,Win32,60.24096386,65c5074098b851296ff0b7ed,664232fdbd01e6e079c2282f,,,,,,,,,,,,,,,,,,,,,,,,,,,,,684.6902,1,audio/Narrative7Situation6.wav,687.7035,,687.7035,697.6679,"[[999,5],[999,83],[999,166],[999,250],[999,333],[999,416],[999,499],[999,583],[999,667],[999,750],[999,833],[999,916],[999,999],[999,1083],[999,1166],[999,1250],[999,1332],[999,1416],[999,1499],[999,1583],[999,1666],[999,1750],[999,1833],[999,1916],[999,1999],[999,2082],[999,2166],[999,2249],[999,2333],[999,2416],[999,2499],[999,2582],[999,2666],[999,2749],[999,2832],[999,2915],[999,2999],[999,3082],[999,3166],[999,3249],[999,3332],[999,3416],[999,3499],[999,3582],[47.2,3666],[46.3,3748],[46.3,3832],[46.3,3915],[46.3,3999],[46.3,4082],[46.3,4165],[46.3,4249],[46.3,4332],[46.3,4415],[46.3,4498],[46.3,4582],[46.3,4665],[46.3,4748],[46.3,4832],[46.3,4915],[46.3,4999],[46.3,5082],[46.3,5165],[46.3,5249],[46.3,5331],[46.3,5415],[46.3,5498],[46.3,5581],[46.3,5665],[46.3,5748],[46.3,5831],[46.3,5915],[46.3,5998],[46.3,6081],[46.3,6165],[46.3,6248],[46.3,6331],[46.3,6415],[46.3,6498],[48.2,6582],[48.5,6668],[49.7,6748],[50.4,6831],[51,6914],[51.6,6998],[52.4,7081],[53.8,7165],[56.3,7248],[56.8,7331],[56.8,7414],[56.8,7498],[59.3,7581],[61.5,7665],[63.2,7748],[64.4,7831],[65.4,7914],[65.4,7997],[65.4,8081],[65.4,8164],[65.4,8247],[65.4,8331],[65.4,8415],[66.5,8498],[66.9,8581],[67.2,8664],[67.2,8747],[67.2,8831],[67.2,8914],[67.2,8997],[67.2,9080],[67.2,9164],[67.2,9247],[66.8,9331],[65.4,9414],[64.9,9497],[63.4,9581],[63.4,9664],[65,9748],[66.3,9830],[66.9,9914]]",1,0,697.6681,705.6157,53.61619455,6.6342,"[{""rating"":34.509661423539804,""responseTime"":2.6016999998092842},{""rating"":53.61619455432965,""responseTime"":6.6341999998093115}]",space,7.4,,705.6157,Half the time,50,705.6181,,,[],,0,15,15,15,1,audio/Narrative8Situation6.wav,audio/Narrative7Situation6.wav,audio/Narrative6Situation6.wav,audio/Narrative5Situation6.wav,2,3,2,3,,,,,,,,,,,,,,,,,,,,,,,,,,,,,,,,,,,,,,,
,,,,,,612323ddbebadb638a141ce3,2024-05-13_11h35.07.902,group3.1-3.2-social-tom,2023.2.2,Win32,60.24096386,65c5074098b851296ff0b7ed,664232fdbd01e6e079c2282f,,,,,,,,,,,,,,,,,,,,,,,,,,,,,705.6182,1,audio/Narrative7Situation7.wav,710.6317,,710.6317,727.8103,"[[49,4581],[48.1,4665],[47.7,4748],[47.7,4831],[47.7,4914],[47.7,4998],[47.7,5081],[47.7,5164],[47.7,5248],[47.7,5331],[47.7,5415],[47.7,5497],[47.7,5581],[47.7,5664],[47.7,5747],[47.7,5831],[47.7,5914],[47.7,5997],[47.7,6081],[47.7,6164],[47.7,6247],[47.7,6331],[47.7,6414],[47.7,6497],[47.7,6581],[47.7,6664],[47.7,6747],[47.7,6830],[47.7,6914],[47.7,6997],[47.7,7080],[47.7,7164],[47.7,7247],[47.7,7331],[47.7,7414],[47.7,7497],[47.7,7580],[47.7,7663],[47.7,7747],[47.7,7830],[47.7,7913],[47.7,7997],[47.7,8080],[47.7,8164],[47.7,8247],[47.7,8330],[47.7,8413],[47.7,8497],[47.7,8580],[47.7,8663],[47.7,8747],[49.9,8830],[57.4,8913],[57.9,8996],[58.5,9080],[58.5,9163],[58.5,9246],[58.5,9330],[58.5,9413],[58.5,9496],[58.5,9580],[58.5,9663],[58.5,9746],[58.5,9830],[58.5,9913],[58.5,9996],[58.7,10080],[59.3,10164],[59.3,10246],[59.3,10330],[59.3,10413],[59.3,10496],[59.9,10580],[60.3,10663],[60.6,10746],[63.1,10830],[63.4,10913],[63.4,10996],[63.4,11079],[63.4,11163],[63.4,11246],[62.7,11329],[57.4,11413],[57.1,11496],[57.1,11579],[57.1,11663],[57.1,11746],[57.1,11830],[57.1,11913],[57.1,11996],[57.1,12079],[57.1,12162],[57.1,12246],[57.1,12329],[57.1,12413],[57.1,12496],[57.1,12579],[57.1,12663],[57.1,12746],[56.9,12829],[56.8,12912],[56.8,12996],[56.8,13079],[56.8,13162],[56.8,13246],[56.8,13329],[56.8,13412],[56.8,13495],[56.8,13579],[56.8,13662],[56.8,13745],[56.8,13829],[56.8,13912],[56.8,13995],[56.8,14079],[56.8,14162],[56.8,14245],[56.8,14329],[56.8,14412],[56.8,14495],[56.8,14579],[56.8,14662],[56.8,14745],[56.8,14828],[56.8,14912],[56.8,14995],[56.8,15078],[56.8,15162],[56.8,15245],[56.8,15328],[56.8,15412],[56.8,15495],[56.8,15578],[56.8,15662],[56.8,15745],[56.8,15828],[56.8,15911],[56.8,15995],[56.8,16078],[56.8,16161],[56.8,16245],[56.8,16328],[56.8,16412],[56.8,16495],[56.8,16578],[56.8,16662],[56.8,16745],[56.8,16828],[56.8,16911],[56.8,16995],[56.8,17078],[56.8,17161]]",1,0,727.8104,733.5756,83.01085905,3.9405,"[{""rating"":83.01085904627892,""responseTime"":3.940499999999929}]",space,5.2178,,733.5756,Half the time,50,733.5773,,,[],,0,16,16,16,1,audio/Narrative8Situation7.wav,audio/Narrative7Situation7.wav,audio/Narrative6Situation7.wav,audio/Narrative5Situation7.wav,3,5,5,4,,,,,,,,,,,,,,,,,,,,,,,,,,,,,,,,,,,,,,,
,,,,,,612323ddbebadb638a141ce3,2024-05-13_11h35.07.902,group3.1-3.2-social-tom,2023.2.2,Win32,60.24096386,65c5074098b851296ff0b7ed,664232fdbd01e6e079c2282f,,,,,,,,,,,,,,,,,,,,,,,,,,,,,733.5776,1,audio/Narrative7Situation8.wav,735.5915,,735.5915,745.6223,"[[999,0],[999,83],[999,166],[999,250],[999,333],[999,416],[999,499],[999,583],[999,666],[999,750],[999,833],[999,916],[999,1000],[999,1083],[999,1166],[999,1249],[999,1332],[999,1415],[999,1499],[999,1583],[999,1666],[999,1749],[999,1832],[999,1916],[999,1999],[999,2082],[999,2166],[999,2249],[999,2332],[999,2415],[999,2499],[999,2582],[999,2666],[999,2749],[999,2832],[999,2915],[999,2999],[999,3082],[999,3166],[999,3249],[999,3332],[999,3415],[999,3498],[999,3582],[999,3665],[999,3748],[999,3832],[999,3915],[999,3998],[999,4082],[999,4165],[999,4248],[999,4331],[999,4415],[999,4498],[999,4581],[999,4665],[999,4748],[999,4832],[999,4915],[999,4998],[999,5081],[999,5165],[999,5248],[999,5332],[999,5415],[999,5498],[999,5582],[999,5665],[999,5748],[999,5831],[999,5915],[999,5998],[999,6081],[999,6164],[999,6248],[49.6,6332],[45.6,6415],[45.6,6498],[45.6,6581],[45.6,6665],[45.6,6748],[49,6831],[49.4,6914],[49.7,6998],[49.7,7081],[49.7,7164],[49.7,7248],[49.7,7331],[49.7,7414],[49.7,7497],[49.7,7581],[49.3,7664],[49.1,7748],[49.1,7831],[49.1,7914],[49.1,7998],[49.1,8081],[49.1,8164],[49.1,8247],[49.1,8331],[49.1,8414],[49.1,8498],[49.1,8581],[49.1,8664],[49.1,8747],[49.1,8830],[50,8914],[50.4,8997],[50.4,9080],[50.4,9164],[50.4,9247],[50.4,9330],[50.4,9414],[50.4,9497],[50.4,9581],[50.4,9664],[50.4,9747],[50.4,9830],[50.4,9914],[50.4,9997]]",1,0,745.6224,754.27,83.45177631,7.3974,"[{""rating"":79.18954919072677,""responseTime"":6.277099999904635},{""rating"":83.45177630904051,""responseTime"":7.397400000095331}]",space,8.1021,,754.27,Half the time,50,754.2719,,,[],,0,17,17,17,1,audio/Narrative8Situation8.wav,audio/Narrative7Situation8.wav,audio/Narrative6Situation8.wav,audio/Narrative5Situation8.wav,3,2,5,3,,,,,,,,,,,,,,,,,,,,,,,,,,,,,,,,,,,,,,,
,,,,,,612323ddbebadb638a141ce3,2024-05-13_11h35.07.902,group3.1-3.2-social-tom,2023.2.2,Win32,60.24096386,65c5074098b851296ff0b7ed,664232fdbd01e6e079c2282f,,,,,,,,,,,,,,,,,,,,,,,,,,,,,754.272,1,audio/Narrative7Situation9.wav,756.2863,,756.2865,764.9177,"[[82.8,4082],[50.9,4165],[47.1,4248],[41.6,4331],[41.6,4415],[41.6,4498],[41.6,4582],[41.6,4665],[41.6,4748],[41.6,4831],[42.1,4915],[42.2,4998],[42.2,5081],[42.2,5165],[42.2,5248],[42.2,5331],[42.2,5414],[42.2,5498],[42.2,5581],[42.2,5665],[42.2,5748],[42.2,5831],[42.2,5914],[42.2,5998],[42.2,6081],[42.2,6164],[42.2,6248],[42.2,6331],[42.2,6414],[42.2,6497],[42.2,6581],[42.2,6665],[42.2,6748],[42.2,6831],[42.2,6914],[42.2,6998],[42.2,7081],[42.2,7164],[42.2,7248],[42.2,7331],[42.2,7414],[42.2,7497],[42.2,7581],[42.2,7664],[42.2,7747],[42.2,7831],[42.2,7914],[42.2,7997],[42.2,8081],[42.2,8164],[42.2,8248],[42.2,8331],[42.2,8414],[42.2,8497],[42.2,8580]]",1,0,764.9177,771.9322,57.73144387,5.3214,"[{""rating"":57.73144386939922,""responseTime"":5.321399999618507}]",space,6.4706,,771.9323,Half the time,50,797.9094,49.50093717,4.5859,"[{""rating"":49.50093716577458,""responseTime"":4.5858999996186185}]",space,0,18,18,18,1,audio/Narrative8Situation9.wav,audio/Narrative7Situation9.wav,audio/Narrative6Situation9.wav,audio/Narrative5Situation9.wav,3,2,4,3,,,25.4273,,,,,,,,,,,,,,,,,,,,,,,,,,,,,,,,,,,,
,,,,,,612323ddbebadb638a141ce3,2024-05-13_11h35.07.902,group3.1-3.2-social-tom,2023.2.2,Win32,60.24096386,65c5074098b851296ff0b7ed,664232fdbd01e6e079c2282f,,,,,,,,,,,,,,,,,,,,,,,,,,,844.7029,847.2799,847.2866,2,audio/Narrative13Situation2.wav,847.2867,,847.2867,877.0391,"[[70.3,2659],[78.7,2742],[78.7,2825],[78.7,2909],[66.9,2992],[57.7,3076],[52.4,3159],[52.2,3242],[52.2,3326],[51.9,3409],[51.8,3493],[49,3575],[47.9,3658],[47.9,3742],[47.9,3825],[47.9,3908],[47.9,3992],[47.9,4075],[48.1,4158],[48.2,4242],[48.5,4325],[49,4408],[49,4491],[49,4575],[49,4658],[49,4741],[49,4825],[49,4908],[49,4991],[49,5075],[49,5158],[49,5241],[49,5325],[49,5408],[49,5491],[48.2,5575],[47.8,5658],[47.7,5741],[47.5,5824],[46.6,5909],[46,5991],[45.9,6075],[45.6,6158],[44.9,6241],[42.7,6325],[39.1,6408],[35,6491],[33.8,6575],[33.8,6658],[32.5,6741],[30.7,6825],[25.6,6909],[22.2,6991],[20.6,7075],[20,7158],[19.4,7241],[18.2,7325],[18.1,7408],[18.1,7491],[18.1,7574],[18.1,7658],[18.1,7741],[17.9,7824],[17.9,7908],[17.9,7991],[17.9,8074],[17.9,8157],[17.9,8241],[17.9,8324],[17.9,8407],[17.9,8490],[17.9,8574],[17.9,8657],[17.9,8741],[17.9,8824],[17.9,8907],[17.9,8991],[17.9,9074],[17.9,9157],[17.9,9241],[17.9,9324],[17.9,9407],[17.9,9490],[17.9,9574],[17.9,9657],[17.9,9740],[17.9,9824],[17.9,9907],[17.9,9990],[17.9,10073],[17.9,10157],[17.9,10240],[17.9,10323],[17.9,10407],[17.9,10490],[17.9,10574],[17.9,10657],[17.9,10740],[17.9,10823],[17.9,10907],[17.9,10990],[17.9,11073],[17.9,11156],[17.9,11240],[17.9,11323],[17.9,11407],[17.9,11490],[17.9,11573],[17.9,11656],[18.5,11740],[19.3,11823],[19.9,11907],[20.4,11990],[21.2,12074],[21.5,12156],[21.5,12240],[21.5,12323],[21.5,12406],[21.5,12489],[21.5,12573],[21.5,12656],[21.5,12739],[21.5,12823],[21.5,12906],[21.5,12989],[21.5,13073],[21.5,13156],[21.5,13240],[21.5,13323],[21.5,13406],[21.5,13489],[21.5,13573],[23.7,13656],[26.9,13739],[27.1,13823],[27.1,13906],[27.1,13989],[27.1,14072],[27.1,14156],[26.9,14239],[26.2,14323],[26.2,14406],[26.2,14489],[26.2,14573],[26.2,14656],[26.2,14739],[26.2,14822],[26.2,14906],[26.2,14989],[26.2,15072],[26.2,15155],[26.2,15239],[26.2,15322],[26.2,15405],[26.2,15489],[26.2,15572],[26.2,15656],[26.2,15739],[26.2,15822],[26.2,15905],[26.2,15989],[26.2,16072],[26.2,16155],[26.2,16239],[26.2,16322],[26.2,16405],[26.2,16489],[26.2,16572],[26.2,16655],[26.2,16739],[26.2,16822],[26.2,16905],[26.2,16988],[26.2,17072],[26.2,17155],[26.2,17238],[26.2,17322],[26.2,17405],[26.2,17488],[26.2,17572],[26.2,17655],[26.2,17739],[26.2,17821],[26.2,17905],[26.2,17988],[26.2,18072],[26.2,18155],[26.2,18238],[26.2,18322],[26.2,18405],[26.2,18488],[26.2,18571],[26.2,18655],[26.2,18738],[26.2,18821],[26.2,18905],[26.2,18988],[26.2,19071],[26.2,19154],[26.2,19238],[26.2,19322],[26.2,19405],[26.2,19488],[26.2,19571],[26.2,19654],[26.2,19738],[26.2,19821],[26.2,19904],[26.2,19988],[26.2,20071],[26.2,20154],[26.2,20238],[26.2,20321],[26.2,20404],[26.2,20487],[26.2,20571],[26.2,20654],[26.2,20737],[26.2,20821],[26.2,20904],[26.2,20988],[26.2,21071],[26.2,21154],[26.2,21237],[26.2,21321],[26.2,21404],[26.2,21487],[26.2,21571],[26.2,21654],[26.2,21737],[26.2,21820],[26.2,21904],[26.2,21987],[26.2,22070],[26.2,22154],[26.2,22237],[26.2,22321],[26.2,22404],[26.2,22487],[26.2,22571],[26.2,22654],[26.2,22737],[26.2,22820],[26.2,22904],[26.2,22987],[26.2,23070],[26.2,23153],[26.2,23237],[26.2,23321],[26.2,23403],[26.2,23487],[26.2,23570],[26.2,23653],[26.2,23737],[26.2,23820],[26.2,23904],[26.2,23987],[26.2,24070],[26.2,24153],[26.2,24237],[26.2,24320],[26.2,24403],[34.1,26320],[34.1,26403],[34.3,26486],[34.1,26569],[33.8,26653],[33.5,26736],[33.5,26819],[33.5,26903],[35,26986],[38.1,27070],[38.7,27153],[39.3,27236],[39.3,27320],[39.3,27402],[39.7,27486],[41.2,27569],[43.8,27653],[46,27736],[46.2,27819],[46.9,27902],[47.8,27986],[49,28069],[49.4,28153],[49.4,28235],[49.4,28319],[49.4,28402],[49.4,28485],[49.3,28570],[45.7,28653],[45.3,28736],[42.2,28819],[39,28903],[38.5,28986],[37.2,29069],[36.2,29152],[35.3,29235],[34.6,29318],[34.3,29402],[34.3,29485],[34.3,29569],[34.3,29652],[34.3,29735]]",1,0,877.0393,877.0412,,,[],,,,877.0412,Not at all,0,877.0426,,,[],,0,0,0,0,1,audio/Narrative13Situation2.wav,audio/Narrative13Situation2.wav,audio/Narrative13Situation2.wav,audio/Narrative13Situation2.wav,2,2,2,2,,,,,797.9154,844.6976,space,46.2548,,,,,,,,,,,,,,,,,,,,,,,,,,,,,,,
,,,,,,612323ddbebadb638a141ce3,2024-05-13_11h35.07.902,group3.1-3.2-social-tom,2023.2.2,Win32,60.24096386,65c5074098b851296ff0b7ed,664232fdbd01e6e079c2282f,,,,,,,,,,,,,,,,,,,,,,,,,,,,,877.0428,2,audio/Narrative6Situation1.wav,879.0552,,879.0552,905.6485,"[[34.4,1333],[34.4,1416],[35,1499],[39.3,1583],[42.2,1666],[42.4,1749],[42.4,1833],[42.4,1916],[42.4,1999],[42.4,2082],[42.4,2166],[42.4,2249],[42.5,2333],[40.6,2416],[36.8,2499],[36.8,2582],[36.3,2666],[36,2749],[35.7,2832],[35.7,2915],[35.7,2999],[35.7,3082],[35.7,3166],[35.7,3249],[35.7,3332],[35.7,3416],[35.7,3499],[35.7,3582],[35.7,3665],[35.7,3749],[35.7,3832],[35.7,3915],[35.7,3999],[35.7,4082],[35.7,4166],[35.7,4248],[35.7,4332],[35.7,4415],[35.7,4499],[35.7,4582],[39.1,4665],[42.4,4748],[47.2,4831],[48.7,4915],[51.9,4998],[57.5,5082],[62.4,5165],[67.1,5248],[71,5332],[71.5,5415],[71.5,5498],[71.6,5581],[73,5665],[74.3,5748],[74.3,5831],[74.3,5914],[74.3,5998],[74.3,6081],[74.1,6165],[74.1,6248],[74.1,6331],[74.1,6414],[74.1,6498],[73.7,6581],[73,6665],[72.1,6748],[72.1,6831],[72.1,6915],[72.1,6998],[72.1,7081],[72.1,7164],[72.1,7248],[72.1,7331],[72.1,7414],[72.1,7498],[72.1,7581],[72.1,7665],[72.1,7748],[72.1,7831],[72.1,7914],[72.1,7997],[72.1,8081],[72.1,8164],[72.1,8247],[72.1,8331],[72.1,8414],[72.1,8497],[72.1,8581],[72.1,8664],[72.1,8747],[72.1,8830],[72.1,8914],[72.1,8997],[72.1,9081],[72.1,9164],[72.1,9247],[72.1,9330],[72.1,9414],[72.1,9497],[72.8,9581],[74.4,9663],[74.7,9747],[75.3,9830],[75.5,9913],[75.5,9997],[75.5,10081],[75.5,10164],[75.5,10247],[75.5,10330],[75.5,10414],[75.5,10497],[75.5,10580],[75.5,10663],[75.5,10747],[75.5,10830],[75.5,10913],[75.2,10997],[74.1,11080],[74.1,11164],[74.1,11247],[74.1,11330],[74.1,11414],[74.1,11497],[74.1,11580],[74.1,11663],[74.1,11747],[74.1,11830],[74.1,11913],[74.1,11996],[74.1,12081],[74.1,12163],[74.1,12247],[74.1,12330],[74.1,12413],[74.1,12497],[74.1,12580],[74.1,12663],[74.1,12746],[74.1,12830],[74.1,12913],[74.1,12996],[74.1,13079],[74.1,13163],[74.1,13246],[74.1,13330],[74.1,13413],[74.1,13496],[74.1,13579],[74.1,13663],[74.1,13746],[74.1,13830],[74.1,13913],[74.1,13996],[74.1,14079],[74.1,14163],[74.1,14246],[74.1,14330],[74.1,14413],[74.1,14496],[74.1,14579],[74.1,14663],[74.1,14746],[74.1,14829],[74.1,14912],[74.1,14996],[74.1,15079],[74.1,15163],[74.1,15246],[74.1,15329],[74.1,15413],[74.1,15495],[74.1,15579],[74.1,15662],[74.1,15746],[74.1,15829],[74.1,15912],[74.1,15995],[74.1,16079],[74.1,16162],[74.1,16245],[74.1,16329],[74.1,16412],[74.1,16495],[74.1,16579],[74.1,16662],[74.1,16745],[74.1,16829],[74.1,16912],[74.1,16995],[74.1,17079],[74.1,17162],[69.7,17246],[69.6,17328],[69.6,17412],[69.6,17495],[69.3,17579],[67.1,17662],[66.9,17745],[66.9,17828],[66.9,17912],[66.9,17995],[66.9,18078],[67.9,18162],[69.4,18245],[69.7,18328],[69.7,18412],[69.7,18495],[69.7,18579],[69.7,18662],[70.3,18745],[71.6,18828],[72.2,18912],[72.2,18995],[72.2,19078],[72.2,19162],[72.2,19245],[72.2,19328],[72.2,19411],[72.2,19495],[72.4,19578],[72.5,19661],[72.5,19745],[72.5,19828],[72.5,19911],[72.5,19995],[72.5,20078],[72.5,20161],[72.5,20245],[72.5,20328],[72.5,20411],[72.5,20494],[72.5,20578],[72.5,20661],[72.5,20744],[72.5,20827],[72.5,20911],[72.5,20994],[72.5,21077],[72.5,21161],[72.5,21244],[72.5,21327],[72.5,21411],[72.5,21494],[72.5,21577],[72.5,21661],[72.5,21744],[72.5,21827],[72.5,21911],[72.5,21994],[72.5,22077],[72.5,22161],[72.5,22244],[72.5,22327],[72.5,22411],[72.5,22494],[72.5,22577],[72.5,22660],[72.5,22744],[72.5,22827],[72.5,22911],[72.5,22994],[72.5,23077],[72.5,23160],[72.5,23244],[72.5,23327],[72.5,23411],[72.5,23494],[72.5,23577],[72.5,23660],[72.5,23744],[72.5,23827],[72.5,23910],[72.5,23994],[72.5,24077],[72.5,24160],[72.5,24244],[72.5,24327],[72.5,24410],[72.5,24494],[72.5,24577],[73,24660],[73.4,24744],[73.4,24827],[73.4,24910],[73.4,24993],[73.4,25077],[73.4,25160],[73.4,25243],[73.4,25327],[73.4,25410],[73.4,25493],[73.4,25577],[73.4,25660],[73.4,25743],[73.4,25826],[73.4,25910],[73.4,25993],[73.4,26076],[73.4,26160],[73.4,26243],[73.4,26327],[73.4,26410],[73.4,26493],[73.4,26576]]",1,0,905.6486,913.3132,64.05130372,5.643,"[{""rating"":64.05130371873325,""responseTime"":5.643000000000029}]",space,7.1157,,913.3132,All the time,100,913.3157,,,[],,0,1,1,1,1,audio/Narrative7Situation1.wav,audio/Narrative8Situation1.wav,audio/Narrative5Situation1.wav,audio/Narrative6Situation1.wav,2,5,5,2,,,,,,,,,,,,,,,,,,,,,,,,,,,,,,,,,,,,,,,
,,,,,,612323ddbebadb638a141ce3,2024-05-13_11h35.07.902,group3.1-3.2-social-tom,2023.2.2,Win32,60.24096386,65c5074098b851296ff0b7ed,664232fdbd01e6e079c2282f,,,,,,,,,,,,,,,,,,,,,,,,,,,,,913.3159,2,audio/Narrative6Situation2.wav,916.329,,916.329,944.8388,"[[999,5],[999,84],[999,166],[999,250],[999,333],[999,417],[999,499],[999,583],[999,667],[999,750],[999,833],[999,916],[999,999],[999,1083],[999,1166],[999,1250],[999,1332],[999,1416],[999,1499],[999,1582],[999,1666],[999,1749],[999,1833],[999,1916],[999,1999],[999,2083],[999,2166],[999,2249],[999,2332],[999,2416],[999,2499],[999,2582],[999,2666],[999,2749],[999,2832],[999,2916],[999,2999],[999,3082],[999,3166],[999,3249],[999,3332],[999,3415],[999,3499],[999,3582],[999,3665],[999,3749],[999,3832],[999,3916],[999,3999],[999,4082],[999,4166],[999,4249],[999,4332],[999,4415],[999,4499],[999,4582],[999,4665],[999,4748],[999,4832],[999,4915],[999,4999],[999,5082],[999,5165],[999,5248],[999,5332],[999,5415],[999,5499],[999,5582],[999,5665],[999,5748],[999,5831],[999,5915],[999,5998],[999,6082],[999,6165],[999,6248],[999,6332],[999,6415],[999,6498],[999,6581],[999,6665],[999,6748],[999,6831],[999,6915],[999,6998],[999,7081],[999,7165],[999,7248],[999,7331],[999,7415],[999,7498],[999,7581],[999,7664],[999,7748],[999,7831],[999,7915],[999,7998],[999,8081],[999,8164],[999,8247],[999,8331],[999,8414],[999,8498],[999,8581],[999,8664],[999,8747],[999,8831],[999,8914],[999,8997],[999,9081],[999,9164],[999,9247],[999,9331],[999,9414],[999,9497],[999,9580],[999,9664],[999,9747],[999,9830],[999,9914],[999,9997],[999,10080],[999,10164],[999,10247],[999,10330],[999,10413],[999,10497],[999,10580],[999,10664],[999,10747],[999,10831],[999,10913],[999,10997],[999,11080],[999,11163],[999,11247],[999,11330],[999,11413],[999,11497],[999,11580],[999,11663],[999,11747],[999,11830],[999,11914],[999,11997],[999,12080],[999,12163],[999,12247],[999,12330],[999,12413],[999,12497],[999,12580],[999,12663],[999,12746],[999,12830],[999,12913],[999,12996],[999,13080],[999,13163],[999,13246],[999,13329],[999,13413],[999,13496],[999,13580],[999,13663],[999,13746],[999,13830],[999,13913],[999,13996],[999,14080],[999,14163],[999,14247],[999,14329],[999,14413],[999,14496],[999,14579],[999,14663],[999,14746],[999,14829],[999,14913],[999,14996],[999,15079],[57.2,15163],[56,15246],[52.9,15330],[52.1,15413],[52.1,15496],[52.1,15579],[51.6,15663],[50.9,15746],[50,15829],[49.9,15913],[49.9,15995],[49.9,16079],[49.9,16162],[49.9,16245],[50.4,16329],[50.4,16412],[50.4,16495],[50.4,16579],[50.4,16662],[50.4,16746],[50.4,16829],[50.4,16912],[50.4,16995],[50.4,17079],[50.4,17162],[50.4,17245],[50.4,17329],[50.4,17412],[50.4,17495],[50.4,17578],[50.4,17662],[50.4,17745],[50.4,17828],[50.4,17912],[50.4,17995],[50.4,18078],[50.4,18162],[50.4,18245],[50.4,18328],[50.4,18412],[50.4,18495],[50.4,18579],[50.4,18662],[50.4,18745],[50.4,18829],[50.4,18912],[50.4,18995],[50.4,19078],[50.4,19161],[50.4,19245],[50.4,19328],[50.4,19412],[50.4,19495],[50.4,19578],[50.4,19662],[50.4,19745],[50.4,19828],[50.4,19911],[50.4,19994],[50.4,20078],[50.4,20161],[50.4,20245],[50.4,20328],[50.4,20412],[50.3,20495],[49.6,20577],[49.6,20661],[49.6,20744],[49.6,20828],[49.7,20911],[49.7,20994],[49.7,21078],[49.7,21161],[49.7,21245],[49.7,21328],[49.7,21411],[49.7,21495],[49.7,21577],[49.7,21661],[49.9,21744],[50,21827],[50,21911],[50,21994],[50,22077],[50,22161],[50,22244],[50,22327],[50,22411],[50,22494],[50,22577],[50,22660],[50,22744],[50,22827],[50,22911],[50,22994],[50,23077],[50,23160],[50,23244],[50,23327],[50,23411],[50,23494],[50,23577],[50,23661],[50,23744],[50,23827],[50,23911],[50,23994],[50,24077],[50,24160],[50,24243],[50,24327],[50,24410],[51.5,24494],[51.5,24577],[52.2,24660],[55.2,24743],[56.3,24827],[59.3,24910],[60.4,24994],[63.7,25077],[65,25160],[65.4,25244],[65.4,25327],[66,25411],[68.2,25494],[68.7,25576],[68.8,25660],[69,25743],[69,25826],[68.8,25910],[68.8,25993],[68.8,26077],[68.8,26159],[68.8,26243],[68.8,26326],[68.8,26410],[71,26493],[71.2,26576],[71.2,26659],[71.2,26743],[71.2,26826],[71.2,26909],[71.2,26993],[71.2,27076],[71.2,27159],[71.2,27243],[71.2,27326],[71.2,27409],[71.2,27493],[71.2,27576],[71.2,27659],[71.2,27743],[71.2,27826],[71.2,27909],[71.2,27993],[71.2,28076],[71.2,28159],[71.2,28243],[71.2,28326],[71.2,28409],[71.2,28493]]",1,0,944.8389,958.5852,45.09174032,12.2447,"[{""rating"":56.996579073634734,""responseTime"":5.524799999713878},{""rating"":47.7372600412427,""responseTime"":10.484699999809322},{""rating"":45.09174031770213,""responseTime"":12.244699999809313}]",space,13.1975,,958.5852,All the time,100,958.5868,,,[],,0,2,2,2,1,audio/Narrative7Situation2.wav,audio/Narrative8Situation2.wav,audio/Narrative5Situation2.wav,audio/Narrative6Situation2.wav,3,3,3,3,,,,,,,,,,,,,,,,,,,,,,,,,,,,,,,,,,,,,,,
,,,,,,612323ddbebadb638a141ce3,2024-05-13_11h35.07.902,group3.1-3.2-social-tom,2023.2.2,Win32,60.24096386,65c5074098b851296ff0b7ed,664232fdbd01e6e079c2282f,,,,,,,,,,,,,,,,,,,,,,,,,,,,,958.5869,2,audio/Narrative6Situation3.wav,963.6004,,963.6004,976.1973,"[[48.1,10414],[49,10497],[48.5,10581],[48.5,10664],[48.1,10747],[48.1,10831],[48.1,10913],[48.1,10997],[48.1,11080],[48.1,11163],[48.1,11247],[48.1,11330],[48.1,11414],[48.1,11497],[48.1,11580],[48.1,11663],[48.1,11747],[48.1,11830],[48.1,11913],[48.1,11996],[48.1,12080],[48.1,12163],[48.1,12246],[48.1,12330],[48.1,12413],[48.1,12497],[48.1,12580]]",1,0,976.1973,982.9629,26.72007198,4.8222,"[{""rating"":26.720071982676785,""responseTime"":4.822199999809186}]",space,6.2228,,982.9629,All the time,100,982.9643,,,[],,0,3,3,3,1,audio/Narrative7Situation3.wav,audio/Narrative8Situation3.wav,audio/Narrative5Situation3.wav,audio/Narrative6Situation3.wav,8,4,3,5,,,,,,,,,,,,,,,,,,,,,,,,,,,,,,,,,,,,,,,
,,,,,,612323ddbebadb638a141ce3,2024-05-13_11h35.07.902,group3.1-3.2-social-tom,2023.2.2,Win32,60.24096386,65c5074098b851296ff0b7ed,664232fdbd01e6e079c2282f,,,,,,,,,,,,,,,,,,,,,,,,,,,,,982.9646,2,audio/Narrative6Situation4.wav,984.9784,,984.9785,997.5918,"[[999,0],[999,83],[999,166],[999,249],[999,332],[999,416],[999,499],[999,583],[999,666],[999,750],[999,833],[999,916],[999,1000],[999,1082],[999,1166],[999,1249],[999,1332],[999,1416],[999,1499],[999,1582],[999,1666],[999,1749],[999,1832],[999,1916],[999,1999],[999,2082],[999,2166],[999,2249],[999,2332],[999,2416],[999,2499],[999,2582],[999,2665],[999,2749],[999,2832],[999,2915],[999,2999],[999,3082],[999,3165],[999,3249],[999,3332],[999,3415],[999,3499],[999,3582],[999,3665],[999,3749],[999,3832],[999,3915],[999,3999],[999,4082],[999,4165],[999,4248],[999,4331],[999,4415],[999,4499],[999,4581],[999,4665],[999,4748],[999,4831],[999,4915],[999,4998],[999,5082],[999,5165],[50.4,5249],[50.2,5332],[50.2,5415],[50.2,5498],[50.2,5582],[50.2,5665],[50.2,5748],[50.2,5831],[50.2,5915],[50.2,5998],[50.2,6081],[50.2,6164],[50.2,6248],[50.4,6331],[50.4,6414],[50.4,6498],[50.6,6581],[50.6,6664],[50.6,6748],[50.6,6831],[50.6,6914],[50.6,6998],[50.6,7081],[50.6,7164],[50.6,7248],[50.6,7331],[50.6,7414],[50.6,7497],[50.6,7581],[50.6,7664],[50.6,7748],[50.6,7831],[50.6,7914],[50.7,7997],[50.7,8081],[51.2,8164],[52.2,8248],[56.9,8331],[62.2,8414],[63.4,8497],[64.4,8581],[65.2,8664],[66.8,8748],[69.3,8831],[73.4,8914],[74.9,8997],[74.9,9081],[75.3,9164],[75.3,9247],[75.3,9330],[75.5,9413],[75.6,9497],[75.7,9580],[75.7,9664],[75.7,9747],[75.7,9831],[75.7,9914],[75.7,9997],[75.7,10080],[75.7,10164],[75.7,10247],[75.7,10330],[75.7,10414],[75.7,10497],[75.7,10581],[75.7,10663],[75.7,10747],[75.7,10830],[75.7,10913],[75.7,10997],[76.5,11080],[76.9,11164],[77.1,11247],[77.5,11331],[78.4,11414],[79,11497],[79.6,11580],[80.3,11663],[80.7,11747],[81,11830],[81,11913],[81,11996],[81,12080],[81,12163],[81,12246],[81,12330],[81,12413],[81,12496],[81,12580]]",1,0,997.5919,1002.4077,84.48058864,1.4197,"[{""rating"":84.48058863780791,""responseTime"":1.4196999998092679}]",space,4.2926,,1002.4077,Half the time,50,1002.4138,,,[],,0,4,4,4,1,audio/Narrative7Situation4.wav,audio/Narrative8Situation4.wav,audio/Narrative5Situation4.wav,audio/Narrative6Situation4.wav,3,3,1,2,,,,,,,,,,,,,,,,,,,,,,,,,,,,,,,,,,,,,,,
,,,,,,612323ddbebadb638a141ce3,2024-05-13_11h35.07.902,group3.1-3.2-social-tom,2023.2.2,Win32,60.24096386,65c5074098b851296ff0b7ed,664232fdbd01e6e079c2282f,,,,,,,,,,,,,,,,,,,,,,,,,,,,,1002.4139,2,audio/Narrative6Situation5.wav,1004.4236,,1004.4236,1012.3714,"[[999,0],[999,83],[999,166],[999,249],[999,333],[999,416],[999,499],[999,583],[999,666],[999,749],[999,833],[999,916],[999,999],[999,1082],[999,1166],[999,1249],[999,1332],[999,1416],[999,1499],[999,1582],[999,1666],[999,1749],[999,1832],[999,1916],[999,1999],[999,2082],[999,2166],[999,2249],[50.6,2332],[48.8,2416],[48.4,2499],[47.9,2582],[47.8,2665],[47.7,2749],[47.7,2832],[47.7,2916],[47.7,2999],[47.7,3082],[47.7,3166],[47.7,3249],[47.7,3332],[47.7,3415],[47.7,3499],[47.7,3582],[48.4,3665],[48.5,3749],[48.5,3832],[48.5,3915],[48.5,3998],[48.5,4082],[48.5,4165],[48.5,4248],[48.5,4331],[49.1,4415],[49.3,4499],[49.3,4582],[49.3,4665],[49.3,4749],[49.3,4831],[49.3,4915],[49.3,4998],[49.3,5081],[49.3,5165],[49.3,5248],[49.3,5331],[49.3,5415],[49.3,5498],[49.3,5581],[49.3,5665],[49.3,5748],[49.3,5831],[49.3,5915],[49.3,5998],[49.3,6081],[49.3,6164],[49.3,6248],[49.3,6331],[49.3,6415],[49.3,6498],[49.3,6581],[49.3,6664],[49.3,6748],[49.3,6831],[49.3,6915],[49.3,6998],[49.3,7081],[49.3,7165],[49.3,7248],[49.3,7331],[49.3,7415],[49.3,7498],[49.3,7581],[49.3,7664],[49.3,7747],[49.3,7831],[49.3,7914]]",1,0,1012.3715,1017.4705,64.34524318,2.6993,"[{""rating"":64.34524317825067,""responseTime"":2.6992999997139577}]",space,4.5616,,1017.4706,Half the time,50,1017.4722,,,[],,0,5,5,5,1,audio/Narrative7Situation5.wav,audio/Narrative8Situation5.wav,audio/Narrative5Situation5.wav,audio/Narrative6Situation5.wav,5,2,5,2,,,,,,,,,,,,,,,,,,,,,,,,,,,,,,,,,,,,,,,
,,,,,,612323ddbebadb638a141ce3,2024-05-13_11h35.07.902,group3.1-3.2-social-tom,2023.2.2,Win32,60.24096386,65c5074098b851296ff0b7ed,664232fdbd01e6e079c2282f,,,,,,,,,,,,,,,,,,,,,,,,,,,,,1017.4723,2,audio/Narrative6Situation6.wav,1019.4865,,1019.4866,1030.5669,"[[999,0],[999,83],[999,166],[999,249],[999,332],[999,416],[999,499],[999,582],[999,666],[999,749],[999,832],[999,916],[999,999],[999,1083],[999,1165],[999,1249],[999,1332],[999,1416],[999,1499],[999,1582],[999,1665],[999,1749],[999,1832],[999,1917],[999,1999],[999,2082],[999,2165],[999,2249],[999,2332],[999,2415],[999,2499],[999,2582],[999,2665],[999,2749],[999,2832],[999,2915],[999,2999],[999,3082],[999,3165],[999,3249],[43.1,3332],[45.7,3415],[47.5,3498],[48.5,3582],[51.6,3665],[52.1,3748],[52.1,3832],[52.1,3915],[52.1,3998],[51.8,4081],[51.5,4165],[50.7,4248],[50.7,4331],[50.7,4415],[50.7,4498],[50.7,4582],[50.7,4665],[50.7,4748],[50.7,4831],[50.7,4915],[50.7,4998],[50.7,5081],[50.7,5165],[50.7,5248],[50.7,5331],[50.7,5414],[50.7,5498],[50.7,5581],[50.7,5664],[50.7,5748],[50.7,5831],[50.7,5914],[50.7,5998],[50.7,6081],[50.7,6164],[50.7,6248],[50.7,6331],[50.7,6414],[50.7,6498],[50.7,6581],[50.7,6664],[50.7,6747],[50.7,6831],[50.7,6914],[50.7,6999],[50.7,7081],[50.7,7164],[50.7,7248],[50.7,7331],[50.7,7414],[50.7,7498],[50.7,7581],[50.7,7664],[50.7,7747],[50.7,7831],[50.7,7914],[50.7,7997],[50.7,8081],[50.7,8164],[50.7,8247],[50.7,8331],[50.7,8414],[50.7,8498],[50.7,8580],[50.7,8664],[50.7,8747],[50.7,8830],[50.7,8914],[50.7,8997],[50.7,9081],[50.7,9163],[50.7,9247],[50.7,9331],[50.7,9413],[50.7,9497],[50.7,9580],[50.7,9663],[50.7,9747],[50.7,9830],[50.7,9914],[50.7,9997],[50.7,10080],[50.7,10163],[50.7,10246],[50.7,10330],[50.7,10413],[50.7,10496],[50.7,10580],[50.7,10663],[50.7,10747],[50.7,10830],[50.7,10913],[50.7,10996],[50.7,11080]]",1,0,1030.5671,1037.2324,54.35105935,4.9473,"[{""rating"":54.351059350094154,""responseTime"":4.947299999714005}]",space,6.1247,,1037.2324,Not at all,0,1037.2345,,,[],,0,6,6,6,1,audio/Narrative7Situation6.wav,audio/Narrative8Situation6.wav,audio/Narrative5Situation6.wav,audio/Narrative6Situation6.wav,3,2,3,2,,,,,,,,,,,,,,,,,,,,,,,,,,,,,,,,,,,,,,,
,,,,,,612323ddbebadb638a141ce3,2024-05-13_11h35.07.902,group3.1-3.2-social-tom,2023.2.2,Win32,60.24096386,65c5074098b851296ff0b7ed,664232fdbd01e6e079c2282f,,,,,,,,,,,,,,,,,,,,,,,,,,,,,1037.2347,2,audio/Narrative6Situation7.wav,1042.2472,,1042.2472,1067.1082,"[[54.3,3249],[53.8,3332],[53.5,3416],[53.4,3499],[53.4,3582],[53.4,3665],[53.4,3749],[53.4,3832],[53.4,3915],[53.4,3999],[53.4,4082],[53.4,4165],[53.4,4249],[53.4,4332],[53.4,4415],[53.4,4499],[53.4,4582],[53.4,4665],[53.4,4748],[53.4,4832],[53.4,4915],[53.4,4998],[53.4,5082],[53.4,5165],[53.4,5249],[53.4,5332],[53.4,5415],[53.4,5499],[53.4,5581],[53.4,5665],[53.4,5749],[53.4,5831],[53.4,5915],[53.4,5998],[53.4,6081],[53.4,6165],[53.4,6248],[53.4,6332],[53.4,6415],[53.4,6498],[53.4,6582],[53.4,6664],[53.4,6748],[53.4,6832],[53.4,6914],[53.4,6998],[53.4,7081],[53.4,7165],[53.4,7248],[53.4,7331],[53.4,7415],[53.4,7498],[53.4,7581],[53.4,7664],[53.4,7748],[53.4,7831],[53.4,7914],[53.4,7997],[53.4,8081],[53.4,8164],[53.4,8248],[53.4,8331],[53.4,8414],[53.4,8498],[53.4,8581],[53.4,8664],[53.4,8748],[53.4,8831],[53.4,8914],[53.4,8997],[53.4,9081],[53.4,9164],[53.4,9247],[53.4,9330],[53.4,9414],[53.4,9497],[53.4,9581],[53.4,9664],[53.4,9747],[53.4,9830],[53.4,9914],[53.4,9997],[53.4,10080],[53.4,10164],[53.4,10247],[53.4,10331],[54,10414],[55,10498],[55.2,10580],[55.4,10664],[55.4,10747],[55.4,10831],[55.4,10914],[55.4,10997],[55.4,11080],[55.4,11163],[55.6,11247],[57.8,11330],[59.6,11413],[60.9,11497],[62.5,11580],[66.5,11664],[67.9,11748],[71.3,11830],[73.4,11913],[75.3,11997],[76.8,12080],[77.2,12163],[78.1,12247],[78.2,12330],[78.2,12413],[78.2,12497],[78.2,12580],[78.2,12663],[78.2,12747],[78.2,12830],[78.2,12913],[78.2,12996],[78.2,13079],[78.2,13163],[78.2,13246],[78.2,13329],[78.2,13413],[79.6,13496],[80,13580],[80,13663],[80.2,13746],[80.2,13829],[80.2,13913],[80.2,13996],[80.2,14079],[80.2,14163],[80.2,14246],[80.2,14329],[80.2,14413],[80.2,14496],[80.2,14580],[80.2,14662],[80.2,14746],[80.2,14829],[80.2,14912],[80.2,14996],[80.2,15079],[80.2,15162],[80.2,15246],[80.2,15329],[80.2,15412],[80.2,15496],[80.2,15579],[80.2,15662],[80.2,15746],[80.2,15829],[80.2,15913],[80.2,15996],[80.2,16079],[80.2,16162],[80.2,16245],[80.2,16329],[80.2,16412],[80.2,16496],[80.2,16579],[80.2,16662],[80.2,16745],[80.6,16829],[80.7,16912],[80.9,16995],[80.9,17078],[81.2,17162],[81.3,17245],[81.5,17328],[82.1,17412],[82.4,17495],[83.1,17579],[83.8,17662],[84.9,17746],[85.5,17829],[85.7,17912],[86.5,17995],[87.2,18078],[87.7,18162],[87.7,18245],[87.7,18329],[87.7,18412],[87.7,18495],[87.7,18578],[87.7,18662],[87.7,18745],[87.7,18828],[87.7,18912],[87.7,18995],[87.7,19078],[87.7,19161],[87.7,19245],[87.7,19328],[87.7,19411],[87.7,19495],[88,19578],[88,19661],[88,19745],[88,19828],[88,19911],[88,19994],[88,20078],[88,20161],[88,20245],[88,20328],[88,20411],[88,20495],[88,20578],[88,20661],[88,20744],[88,20827],[88,20911],[88,20995],[88,21077],[88,21161],[88,21244],[88,21328],[88,21411],[88,21494],[88,21577],[88,21661],[88,21744],[88,21827],[88,21911],[88,21994],[88,22077],[88,22160],[88,22244],[88,22327],[88,22410],[88,22494],[88,22577],[88,22661],[88,22744],[88,22827],[88,22910],[88,22994],[88,23077],[88,23161],[88,23244],[88,23327],[88,23410],[88,23494],[88,23577],[88,23661],[88,23744],[88,23827],[88,23910],[88,23993],[88,24077],[88,24160],[88,24244],[88,24327],[88,24410],[88,24493],[88,24577],[88,24660],[88,24743],[88,24827]]",1,0,1067.1082,1072.7228,88.74281576,2.3149,"[{""rating"":88.74281575612169,""responseTime"":2.3148999996185466}]",space,5.0661,,1072.7228,Not at all,0,1072.7281,,,[],,0,7,7,7,1,audio/Narrative7Situation7.wav,audio/Narrative8Situation7.wav,audio/Narrative5Situation7.wav,audio/Narrative6Situation7.wav,5,3,4,5,,,,,,,,,,,,,,,,,,,,,,,,,,,,,,,,,,,,,,,
,,,,,,612323ddbebadb638a141ce3,2024-05-13_11h35.07.902,group3.1-3.2-social-tom,2023.2.2,Win32,60.24096386,65c5074098b851296ff0b7ed,664232fdbd01e6e079c2282f,,,,,,,,,,,,,,,,,,,,,,,,,,,,,1072.7282,2,audio/Narrative6Situation8.wav,1077.7384,,1077.7384,1084.5868,"[[84.9,250],[84.7,333],[84.7,416],[84.7,500],[84.7,582],[84.3,667],[84,750],[83.1,833],[82.8,916],[82.8,999],[81.9,1083],[80.2,1166],[77.7,1249],[71,1333],[69.3,1416],[65.3,1500],[65,1582],[65,1666],[65,1749],[65,1833],[64.1,1916],[60.6,1999],[59,2083],[58.8,2166],[58.8,2249],[58.8,2332],[58.8,2415],[58.5,2499],[55.6,2583],[54.6,2666],[54.6,2749],[54.6,2832],[54.6,2915],[54.6,2999],[54.6,3082],[54.6,3165],[54.6,3249],[54.6,3332],[54.6,3415],[54.6,3498],[54.6,3582],[54.6,3665],[54.6,3749],[54.6,3832],[54.6,3915],[54.6,3999],[54.6,4082],[54.6,4165],[54.6,4248],[54.6,4332],[54.6,4415],[54.6,4498],[54.6,4582],[54.6,4665],[54.6,4748],[54.6,4831],[54.6,4915],[54.6,4998],[54.6,5081],[54.6,5165],[54.6,5248],[54.6,5331],[54.6,5415],[54.6,5498],[54.6,5581],[54.6,5665],[54.6,5748],[54.6,5832],[54.6,5914],[54.6,5998],[54.6,6081],[54.6,6164],[54.6,6248],[54.6,6331],[54.6,6414],[54.6,6498],[54.6,6581],[54.6,6665],[54.6,6748],[54.6,6831]]",1,0,1084.587,1092.6346,70.37115549,5.9969,"[{""rating"":70.3711554945818,""responseTime"":5.996900000095366}]",space,7.505,,1092.6347,Not at all,0,1092.6363,,,[],,0,8,8,8,1,audio/Narrative7Situation8.wav,audio/Narrative8Situation8.wav,audio/Narrative5Situation8.wav,audio/Narrative6Situation8.wav,2,3,3,5,,,,,,,,,,,,,,,,,,,,,,,,,,,,,,,,,,,,,,,
,,,,,,612323ddbebadb638a141ce3,2024-05-13_11h35.07.902,group3.1-3.2-social-tom,2023.2.2,Win32,60.24096386,65c5074098b851296ff0b7ed,664232fdbd01e6e079c2282f,,,,,,,,,,,,,,,,,,,,,,,,,,,,,1092.6367,2,audio/Narrative6Situation9.wav,1096.6502,,1096.6503,1106.6147,"[[68.5,2915],[68.5,2999],[66.5,3082],[66.2,3165],[66,3249],[66,3332],[65.3,3415],[64.6,3498],[63.1,3582],[63.1,3665],[63.1,3749],[62.5,3832],[62.5,3915],[62.5,3999],[62.5,4081],[62.5,4165],[62.5,4248],[62.5,4332],[62.5,4415],[62.5,4498],[62.5,4582],[62.5,4665],[62.5,4748],[62.5,4831],[62.5,4915],[62.5,4998],[62.5,5082],[62.5,5165],[62.5,5248],[62.5,5331],[62.5,5415],[62.5,5498],[62.5,5581],[62.5,5664],[62.5,5748],[62.5,5832],[62.5,5914],[62.5,5998],[62.5,6082],[62.5,6164],[62.5,6248],[62.5,6332],[62.5,6415],[62.5,6498],[62.5,6581],[62.5,6664],[62.5,6748],[62.5,6831],[62.5,6914],[62.5,6997],[62.5,7081],[62.5,7164],[62.5,7248],[62.5,7331],[62.5,7415],[62.5,7497],[62.5,7581],[62.5,7664],[62.5,7747],[62.5,7831],[62.5,7914],[62.5,7997],[62.5,8081],[62.5,8164],[62.5,8247],[62.5,8330],[62.5,8414],[62.5,8497],[62.5,8580],[62.5,8664],[62.5,8747],[62.5,8830],[62.5,8914],[62.5,8997],[62.5,9080],[62.5,9164],[62.5,9247],[62.5,9331],[62.5,9414],[62.5,9497],[62.5,9580],[62.5,9664],[62.5,9747],[62.5,9830],[62.5,9914]]",1,0,1106.6148,1112.6294,79.04257946,4.7311,"[{""rating"":77.27890233643615,""responseTime"":3.7144000000953383},{""rating"":79.04257946096803,""responseTime"":4.7311000003815025}]",space,5.4699,,1112.6294,Half the time,50,1112.6321,,,[],,0,9,9,9,1,audio/Narrative7Situation9.wav,audio/Narrative8Situation9.wav,audio/Narrative5Situation9.wav,audio/Narrative6Situation9.wav,2,3,3,4,,,,,,,,,,,,,,,,,,,,,,,,,,,,,,,,,,,,,,,
,,,,,,612323ddbebadb638a141ce3,2024-05-13_11h35.07.902,group3.1-3.2-social-tom,2023.2.2,Win32,60.24096386,65c5074098b851296ff0b7ed,664232fdbd01e6e079c2282f,,,,,,,,,,,,,,,,,,,,,,,,,,,,,1112.6323,2,audio/Narrative5Situation1.wav,1117.6453,,1117.6453,1130.9418,"[[74.7,2249],[72.1,2332],[55.7,2582],[53.8,2665],[52.8,2748],[52.2,2832],[52.1,2915],[51.5,2999],[51.2,3082],[50.9,3165],[50.6,3249],[50.6,3332],[50.6,3415],[50.6,3498],[50.6,3582],[50.6,3665],[50.6,3748],[50.6,3832],[50.6,3915],[50.6,3998],[50.6,4081],[50.6,4165],[50.6,4249],[50.6,4331],[50.6,4415],[50.6,4498],[50.6,4581],[50.6,4665],[50.6,4748],[49.9,4832],[49.6,4914],[49.6,4998],[49.6,5081],[49.6,5164],[49.6,5248],[49.6,5331],[49.6,5414],[49.6,5498],[49.6,5581],[49.6,5664],[49.6,5748],[49.6,5831],[49.6,5914],[49.6,5998],[49.6,6081],[49.6,6164],[49.6,6248],[49.6,6331],[49.6,6414],[49.6,6497],[49.6,6581],[49.6,6664],[49.6,6748],[49.6,6831],[49.6,6914],[49.6,6997],[49.6,7081],[49.6,7164],[49.6,7247],[49.6,7330],[49.6,7414],[49.6,7497],[49.6,7580],[49.6,7664],[49.6,7747],[49.6,7831],[49.6,7914],[49.6,7997],[49.6,8080],[49.6,8164],[49.6,8247],[49.6,8330],[49.6,8413],[49.6,8497],[49.6,8580],[49.6,8664],[49.6,8747],[49.6,8830],[49.6,8913],[49.6,8997],[49.6,9080],[49.6,9163],[49.6,9247],[49.6,9330],[49.6,9414],[49.6,9497],[49.6,9580],[49.6,9663],[49.6,9746],[49.6,9830],[49.6,9913],[49.6,9997],[49.6,10080],[49.6,10163],[50.4,10247],[50.9,10330],[51.3,10413],[51.8,10496],[52.1,10580],[52.4,10663],[53.4,10747],[54.7,10830],[55.9,10913],[56.6,10996],[57.2,11080],[57.5,11163],[57.7,11246],[57.7,11329],[57.7,11413],[57.7,11496],[57.7,11579],[57.7,11663],[57.7,11746],[57.7,11830],[57.7,11913],[57.7,11996],[57.7,12079],[57.7,12163],[57.7,12246],[57.7,12329],[57.7,12413],[58.1,12496],[58.5,12579],[58.5,12663],[58.7,12746],[58.7,12829],[58.7,12913],[58.7,12996],[58.7,13079],[58.7,13162],[58.7,13246]]",1,0,1130.9419,1140.0228,51.5585699,7.7737,"[{""rating"":60.08302413342239,""responseTime"":2.6776999998094198},{""rating"":49.50093716577458,""responseTime"":6.621499999999969},{""rating"":51.55856989679487,""responseTime"":7.773699999809423}]",space,8.5423,,1140.0229,All the time,100,1165.9494,99.91278972,18.4602,"[{""rating"":49.794884698777494,""responseTime"":10.284099999904583},{""rating"":99.91278971628978,""responseTime"":18.46019999980922}]",space,0,10,10,10,1,audio/Narrative8Situation1.wav,audio/Narrative7Situation1.wav,audio/Narrative6Situation1.wav,audio/Narrative5Situation1.wav,5,2,2,5,,,25.3817,,,,,,,,,,,,,,,,,,,,,,,,,,,,,,,,,,,,
,,,,,,612323ddbebadb638a141ce3,2024-05-13_11h35.07.902,group3.1-3.2-social-tom,2023.2.2,Win32,60.24096386,65c5074098b851296ff0b7ed,664232fdbd01e6e079c2282f,,,,,,,,,,,,,,,,,,,,,,,,,,,,,1165.9551,2,audio/Narrative5Situation2.wav,1168.9657,,1168.9658,1198.4413,"[[999,4],[999,83],[999,166],[999,249],[999,332],[999,415],[999,499],[999,583],[999,665],[999,749],[999,833],[999,916],[999,999],[999,1082],[999,1165],[999,1249],[999,1332],[999,1415],[999,1499],[999,1582],[999,1665],[999,1749],[999,1832],[999,1915],[999,1998],[999,2082],[999,2165],[999,2248],[999,2332],[999,2415],[999,2498],[999,2582],[999,2665],[999,2749],[999,2832],[999,2915],[999,2999],[999,3081],[999,3165],[999,3248],[999,3331],[999,3415],[999,3498],[999,3581],[999,3665],[999,3748],[999,3832],[999,3915],[999,3998],[999,4081],[75.3,4165],[71,4248],[68.4,4331],[67.4,4415],[65.9,4498],[63.2,4582],[59,4665],[56.6,4748],[54.9,4832],[53.4,4915],[53.2,4998],[53.1,5081],[53.1,5164],[53.1,5248],[53.1,5331],[53.1,5414],[53.1,5497],[53.1,5581],[53.1,5664],[53.2,5747],[53.4,5831],[53.4,5914],[53.4,5997],[53.4,6081],[53.4,6164],[53.4,6247],[53.4,6331],[53.4,6414],[53.5,6498],[53.5,6581],[53.5,6664],[53.5,6748],[53.5,6830],[53.5,6914],[53.5,6997],[53.5,7081],[53.5,7164],[53.5,7248],[53.5,7331],[54,7414],[54.4,7498],[54.6,7581],[54.7,7664],[55,7748],[55.6,7830],[55.6,7914],[55.6,7997],[55.6,8080],[55.6,8164],[55.6,8247],[55.6,8330],[55.6,8414],[55.6,8497],[55.6,8581],[55.6,8664],[55.6,8747],[55.6,8830],[55.6,8914],[55.6,8997],[55.6,9080],[55.6,9163],[55.6,9247],[55.6,9330],[55.6,9413],[55.6,9497],[55.4,9580],[55.2,9663],[54.9,9747],[54.4,9830],[54.3,9913],[54.3,9997],[54.1,10080],[53.5,10163],[53.2,10247],[52.9,10330],[52.2,10413],[51.8,10497],[51.6,10580],[51,10663],[50.4,10746],[49.4,10830],[48.4,10913],[47.4,10997],[46.9,11080],[46.5,11163],[46,11247],[44.9,11330],[43.7,11413],[43.4,11497],[43.4,11579],[43.2,11663],[42.1,11746],[41,11830],[40.9,11913],[40.9,11996],[40.9,12080],[40.9,12163],[40.9,12246],[40.9,12329],[40.9,12413],[40.9,12496],[40.9,12579],[40.9,12662],[40.9,12746],[40.9,12829],[40.7,12913],[39.4,12996],[38.5,13079],[37.8,13163],[37.2,13246],[36.8,13329],[36.8,13412],[36.8,13496],[36.8,13579],[36.8,13662],[36.8,13746],[36.8,13829],[36.8,13913],[36.8,13996],[36.8,14079],[36.8,14162],[36.8,14246],[36.8,14329],[36.8,14412],[36.8,14496],[36.8,14579],[36.8,14662],[36.8,14745],[36.8,14828],[36.8,14912],[36.8,14996],[36.8,15079],[36.8,15162],[36.8,15245],[36.8,15329],[36.8,15412],[36.8,15495],[36.8,15578],[36.8,15662],[36.8,15745],[38.2,15829],[38.5,15912],[38.5,15995],[38.5,16078],[38.5,16162],[38.5,16245],[38.5,16328],[38.5,16411],[38.5,16495],[38.5,16578],[38.5,16662],[38.8,16745],[39.4,16828],[40,16912],[40.4,16995],[41,17078],[42.2,17162],[43.1,17245],[44.1,17329],[45.6,17411],[46.8,17494],[47.9,17578],[50,17661],[51.8,17744],[53.1,17828],[54.6,17912],[55.6,17995],[57.1,18078],[57.9,18161],[61,18244],[65.3,18328],[66.9,18412],[68.2,18494],[69.4,18578],[70.5,18661],[71.6,18745],[72.7,18828],[73.7,18911],[73.7,18994],[73.7,19078],[73.7,19161],[74.1,19244],[74.1,19328],[74.1,19411],[74.1,19494],[74.3,19578],[74.6,19662],[74.7,19744],[75.2,19827],[75.6,19911],[75.6,19994],[75.6,20077],[75.6,20160],[75.6,20244],[75.6,20327],[75.6,20410],[75.6,20494],[75.6,20577],[75.6,20660],[75.6,20744],[75.6,20827],[75.6,20911],[75.6,20994],[75.6,21077],[75.6,21160],[75.6,21244],[75.6,21327],[75.6,21410],[75.6,21493],[75.6,21577],[75.6,21660],[75.6,21744],[75.6,21827],[75.6,21911],[75.9,21994],[76,22077],[76,22160],[76,22243],[76,22327],[76,22410],[76,22493],[76,22577],[76,22660],[76,22743],[76,22827],[76,22910],[76,22993],[76,23077],[76,23160],[76,23243],[76,23327],[76,23410],[76,23493],[76,23577],[76,23660],[76,23743],[76,23826],[76,23910],[76,23993],[76,24076],[76,24159],[76,24243],[76,24326],[76,24409],[76,24493],[76,24576],[76,24660],[76,24743],[76,24826],[76,24909],[76,24992],[76,25076],[76,25159],[76,25243],[76,25326],[76,25410],[76,25493],[76,25576],[76.2,25659],[76.2,25743],[76.2,25826],[76.2,25909],[76.2,25993],[76.2,26076],[76.2,26159],[76.2,26243],[76.2,26326],[76.2,26409],[76.2,26493],[76.2,26576],[76.2,26659],[76.2,26742],[76.2,26826],[76.2,26909],[76.2,26992],[76.2,27076],[76.2,27159],[76.6,27242],[76.9,27326],[77.1,27409],[77.4,27492],[78,27576],[78.1,27659],[79,27742],[79.3,27825],[79.9,27909],[80.2,27992],[80.3,28075],[81,28159],[82.7,28242],[84.7,28325],[85.7,28408],[85.7,28491],[85.7,28575],[85.7,28658],[85.7,28742],[85.7,28825],[85.7,28908],[85.7,28992],[85.7,29075],[85.7,29159],[85.7,29242],[85.7,29325],[85.7,29408]]",1,0,1198.4414,1614.036,86.09729603,2.7061,"[{""rating"":86.09729603258107,""responseTime"":2.706099999904609}]",space,415.0459,,1614.0361,Not at all,0,1614.0429,,,[],,0,11,11,11,1,audio/Narrative8Situation2.wav,audio/Narrative7Situation2.wav,audio/Narrative6Situation2.wav,audio/Narrative5Situation2.wav,3,3,3,3,,,,,,,,,,,,,,,,,,,,,,,,,,,,,,,,,,,,,,,
,,,,,,612323ddbebadb638a141ce3,2024-05-13_11h35.07.902,group3.1-3.2-social-tom,2023.2.2,Win32,60.24096386,65c5074098b851296ff0b7ed,664232fdbd01e6e079c2282f,,,,,,,,,,,,,,,,,,,,,,,,,,,,,1614.043,2,audio/Narrative5Situation3.wav,1617.0524,,1617.0524,1630.9652,"[[60.3,2249],[25.4,2915],[60.4,4165],[60.4,4248],[59.6,4331],[59,4415],[59,4498],[59,4581],[59,4665],[58.7,4748],[58.7,4831],[60.3,4914],[61.5,4998],[61.5,5081],[61.5,5164],[61.5,5248],[61.5,5331],[61.5,5414],[61.5,5498],[61.5,5581],[61.5,5664],[61.5,5748],[61.5,5831],[61.5,5914],[61.5,5998],[61.5,6081],[65.3,6164],[67.2,6248],[75,6331],[76,6415],[76,6498],[76,6581],[75.9,6664],[75.9,6747],[75.9,6831],[75.9,6914],[75.9,6997],[75.9,7081],[75.9,7164],[75.9,7248],[75.9,7331],[75.9,7414],[75.9,7498],[75.9,7581],[75.9,7664],[75.9,7748],[75.9,7831],[75.9,7914],[75.9,7997],[75.9,8080],[75.9,8163],[75.9,8247],[75.9,8330],[75.9,8414],[75.9,8497],[75.9,8580],[75.9,8664],[75.9,8747],[75.9,8830],[75.9,8913],[75.9,8997],[75.9,9080],[75.9,9163],[75.9,9247],[75.9,9330],[75.9,9414],[75.9,9497],[75.9,9580],[75.9,9663],[75.9,9747],[75.9,9830],[75.9,9913],[75.9,9997],[75.9,10080],[75.9,10163],[75.9,10247],[75.9,10330],[75.9,10413],[75.9,10496],[75.9,10580],[75.9,10663],[75.9,10747],[75.9,10830],[75.9,10913],[75.9,10997],[75.9,11080],[75.9,11163],[75.9,11246],[75.9,11330],[75.9,11413],[75.9,11496],[75.9,11579],[75.9,11663],[75.9,11746],[75.9,11830],[75.9,11913],[75.9,11996],[75.9,12079],[75.9,12163],[76.8,12246],[76.8,12329],[76.8,12413],[76.8,12496],[76.8,12579],[76.8,12663],[76.8,12746],[76.8,12829],[76.8,12913],[76.8,12996],[76.8,13079],[76.8,13163],[76.8,13246],[77.1,13329],[78.5,13412],[80,13496],[80,13579],[80,13662],[80,13746],[80,13829],[80,13912]]",1,0,1630.9653,1640.2629,82.56994178,4.2062,"[{""rating"":82.56994178351731,""responseTime"":4.206199999809087}]",space,8.7509,,1640.2629,Half the time,50,1640.2692,,,[],,0,12,12,12,1,audio/Narrative8Situation3.wav,audio/Narrative7Situation3.wav,audio/Narrative6Situation3.wav,audio/Narrative5Situation3.wav,4,8,5,3,,,,,,,,,,,,,,,,,,,,,,,,,,,,,,,,,,,,,,,
,,,,,,612323ddbebadb638a141ce3,2024-05-13_11h35.07.902,group3.1-3.2-social-tom,2023.2.2,Win32,60.24096386,65c5074098b851296ff0b7ed,664232fdbd01e6e079c2282f,,,,,,,,,,,,,,,,,,,,,,,,,,,,,1640.2695,2,audio/Narrative5Situation4.wav,1641.2793,,1641.2793,1661.674,"[[999,0],[999,83],[999,166],[999,250],[999,333],[999,416],[999,499],[999,583],[999,666],[999,750],[999,833],[999,916],[999,999],[999,1083],[999,1166],[999,1249],[999,1333],[999,1416],[999,1499],[999,1582],[999,1666],[999,1749],[999,1832],[999,1915],[999,2000],[999,2082],[999,2165],[999,2249],[999,2333],[999,2416],[999,2499],[999,2582],[999,2665],[999,2749],[999,2832],[999,2915],[999,2999],[999,3082],[999,3165],[999,3249],[999,3332],[999,3415],[999,3499],[999,3582],[999,3665],[999,3748],[999,3832],[999,3915],[999,3998],[999,4082],[999,4165],[999,4248],[999,4332],[999,4415],[999,4498],[999,4582],[999,4665],[999,4749],[999,4831],[999,4915],[999,4998],[999,5081],[999,5165],[999,5248],[999,5331],[999,5414],[999,5498],[999,5581],[999,5664],[999,5748],[999,5831],[999,5914],[999,5998],[999,6081],[61.5,6164],[60.6,6248],[59,6332],[56,6414],[55.2,6498],[54.3,6581],[54,6665],[53.7,6748],[52.9,6831],[51.6,6915],[51.5,6998],[50.9,7081],[50.6,7164],[50.6,7247],[50.6,7331],[50.6,7414],[50.6,7497],[50.3,7581],[50.3,7664],[55.3,7748],[56.9,7831],[58.8,7914],[59.7,7997],[60.2,8081],[61.5,8164],[62.1,8248],[63.2,8331],[66.5,8414],[68.2,8498],[69.9,8581],[72.8,8664],[76.9,8748],[79,8831],[79.1,8914],[79.1,8997],[79.1,9080],[79.1,9164],[79,9247],[78.4,9331],[77.5,9414],[77.1,9497],[77.1,9580],[77.1,9664],[77.1,9747],[79.3,9830],[79.4,9914],[79.4,9997],[79.4,10080],[79.4,10164],[79.3,10247],[79.1,10330],[79.1,10414],[79.1,10497],[79.1,10580],[79.1,10663],[79.1,10746],[79.1,10830],[79.1,10913],[79.1,10997],[78.2,11080],[78.2,11163],[78.1,11247],[78.1,11330],[78.1,11413],[78.1,11497],[78.1,11580],[78.1,11663],[78.1,11747],[78.1,11830],[78.1,11913],[78.1,11997],[78.1,12080],[78.1,12163],[78.1,12246],[78.1,12330],[78.5,12413],[79.6,12497],[79.7,12580],[80,12663],[80.3,12746],[80.3,12829],[80.3,12913],[80.3,12996],[80.3,13079],[80.3,13163],[80.3,13246],[80.3,13330],[80.3,13413],[80.3,13496],[80.3,13579],[80.3,13663],[80.3,13746],[80.3,13829],[80.3,13913],[80.3,13996],[80.3,14079],[80.3,14162],[80.3,14246],[80.3,14329],[80.3,14412],[80.3,14496],[80.3,14579],[80.3,14662],[80.3,14746],[80.3,14829],[80.5,14913],[80.5,14996],[80.6,15079],[80.9,15162],[81.3,15246],[81.3,15329],[81.3,15412],[81.3,15496],[81.3,15579],[81.3,15662],[81.3,15745],[81.3,15829],[81.3,15912],[81.3,15995],[81.3,16079],[81.3,16162],[81.3,16245],[81.3,16328],[81.3,16412],[81.3,16495],[81.2,16579],[79.9,16662],[79.7,16745],[79.4,16829],[79.3,16912],[79.3,16995],[79.1,17078],[79.1,17162],[79.1,17245],[79.1,17328],[79.1,17412],[79.1,17495],[79.1,17578],[79.1,17662],[79.1,17745],[79.1,17828],[79.1,17912],[79.1,17995],[79.1,18078],[79.1,18161],[79.1,18245],[79.1,18328],[79.1,18411],[79.1,18495],[79.1,18578],[79.1,18661],[79.1,18745],[79.1,18828],[79.1,18911],[79.1,18995],[79.1,19078],[79.1,19161],[79.1,19244],[79.1,19328],[79.1,19411],[79.1,19494],[79.1,19578],[79.1,19661],[79.1,19745],[79.1,19828],[79.1,19911],[79.1,19994],[79.1,20078],[79.1,20161],[79.1,20244],[79.1,20327]]",1,0,1661.6741,1674.4874,78.89560973,11.1456,"[{""rating"":78.89560973120935,""responseTime"":11.145599999904562}]",space,12.266,,1674.4874,Half the time,50,1674.489,,,[],,0,13,13,13,1,audio/Narrative8Situation4.wav,audio/Narrative7Situation4.wav,audio/Narrative6Situation4.wav,audio/Narrative5Situation4.wav,3,3,2,1,,,,,,,,,,,,,,,,,,,,,,,,,,,,,,,,,,,,,,,
,,,,,,612323ddbebadb638a141ce3,2024-05-13_11h35.07.902,group3.1-3.2-social-tom,2023.2.2,Win32,60.24096386,65c5074098b851296ff0b7ed,664232fdbd01e6e079c2282f,,,,,,,,,,,,,,,,,,,,,,,,,,,,,1674.4893,2,audio/Narrative5Situation5.wav,1679.5028,,1679.5028,1694.9496,"[[999,4],[999,83],[999,167],[999,249],[999,333],[999,416],[999,500],[999,583],[999,666],[999,750],[999,833],[999,916],[999,999],[999,1083],[999,1166],[999,1249],[999,1333],[999,1416],[999,1499],[999,1583],[999,1666],[999,1749],[999,1832],[999,1916],[999,1999],[999,2082],[999,2165],[999,2249],[999,2332],[999,2415],[999,2499],[999,2582],[999,2666],[999,2749],[999,2832],[999,2915],[999,2999],[999,3082],[999,3165],[999,3249],[999,3332],[999,3415],[999,3499],[999,3582],[999,3665],[999,3749],[999,3832],[999,3915],[999,3998],[999,4082],[999,4165],[999,4249],[999,4332],[999,4415],[999,4498],[999,4582],[999,4665],[999,4748],[999,4832],[999,4915],[999,4998],[999,5082],[999,5165],[999,5248],[999,5332],[999,5415],[999,5498],[999,5581],[999,5665],[999,5748],[999,5831],[999,5915],[999,5998],[999,6081],[999,6165],[999,6248],[999,6332],[999,6414],[999,6498],[999,6581],[999,6665],[999,6748],[999,6831],[999,6915],[999,6998],[999,7081],[999,7164],[999,7248],[999,7331],[999,7414],[999,7498],[999,7581],[999,7665],[999,7748],[999,7831],[999,7914],[999,7998],[999,8081],[999,8164],[999,8248],[999,8331],[999,8414],[999,8497],[999,8581],[999,8664],[999,8748],[999,8831],[999,8914],[999,8997],[999,9080],[999,9164],[999,9247],[999,9330],[999,9414],[999,9497],[999,9580],[999,9664],[999,9747],[999,9831],[999,9914],[51,9997],[51,10080],[51,10164],[51,10247],[51,10330],[51,10414],[50.9,10497],[50.9,10580],[50.9,10663],[50.9,10747],[50.9,10830],[50.7,10913],[50.6,10997],[50.6,11080],[50.6,11163],[50.6,11246],[50.6,11330],[50.6,11413],[50.6,11497],[50.6,11580],[50.6,11663],[50.6,11746],[50.6,11830],[50.6,11913],[50.6,11996],[50.6,12080],[50.6,12163],[51.8,12246],[52.8,12330],[53.4,12413],[53.8,12496],[54.3,12580],[54.9,12663],[55.4,12746],[55.6,12830],[55.6,12913],[55.6,12997],[55.6,13080],[55.6,13164],[55.6,13247],[55.6,13330],[55.6,13413],[55.6,13497],[55.6,13579],[55.6,13663],[55.6,13746],[55.6,13830],[55.6,13914],[55.6,13997],[55.6,14079],[55.6,14163],[55.6,14247],[55.6,14329],[55.6,14413],[55.6,14498],[57.9,14581],[58.7,14664],[61,14746],[63.1,14830],[63.4,14912],[63.4,14996],[63.7,15079],[64.1,15163],[65.2,15247],[65.6,15330],[66.5,15413]]",1,0,1694.9497,1701.414,68.90141783,4.2936,"[{""rating"":68.90141782956734,""responseTime"":4.293600000381275}]",space,5.9264,,1701.414,Half the time,50,1701.4164,,,[],,0,14,14,14,1,audio/Narrative8Situation5.wav,audio/Narrative7Situation5.wav,audio/Narrative6Situation5.wav,audio/Narrative5Situation5.wav,2,5,2,5,,,,,,,,,,,,,,,,,,,,,,,,,,,,,,,,,,,,,,,
,,,,,,612323ddbebadb638a141ce3,2024-05-13_11h35.07.902,group3.1-3.2-social-tom,2023.2.2,Win32,60.24096386,65c5074098b851296ff0b7ed,664232fdbd01e6e079c2282f,,,,,,,,,,,,,,,,,,,,,,,,,,,,,1701.4165,2,audio/Narrative5Situation6.wav,1704.43,,1704.4301,1710.1118,"[[999,5],[999,83],[999,166],[999,249],[999,333],[999,416],[999,499],[999,583],[999,666],[999,749],[999,833],[999,916],[999,999],[999,1083],[999,1166],[999,1249],[999,1332],[999,1416],[999,1499],[999,1582],[999,1666],[999,1749],[999,1832],[999,1916],[999,1999],[999,2082],[999,2166],[999,2249],[999,2332],[999,2416],[999,2499],[999,2582],[999,2665],[999,2749],[999,2832],[999,2915],[48.4,2999],[49.3,3082],[50.3,3165],[51.2,3249],[51.2,3332],[51.2,3415],[51.2,3498],[51.2,3582],[51.2,3665],[51.2,3748],[51.2,3832],[51.2,3915],[51.2,3998],[51.2,4082],[51.2,4165],[51.2,4248],[51.2,4331],[51.2,4415],[51.2,4498],[51.2,4582],[51.2,4665],[51.2,4748],[51.2,4832],[51.2,4915],[51.2,4998],[51.2,5082],[51.2,5165],[51.2,5248],[51.2,5331],[52.2,5415],[53.5,5498],[53.5,5581],[53.5,5665]]",1,0,1710.1119,1718.6766,22.0169276,5.5398,"[{""rating"":22.01692760160142,""responseTime"":5.53980000019078}]",space,8.0154,,1718.6766,Half the time,50,1718.6786,,,[],,0,15,15,15,1,audio/Narrative8Situation6.wav,audio/Narrative7Situation6.wav,audio/Narrative6Situation6.wav,audio/Narrative5Situation6.wav,2,3,2,3,,,,,,,,,,,,,,,,,,,,,,,,,,,,,,,,,,,,,,,
