exp_question,consent.started,consent.stopped,consentResponse.keys,consentResponse.rt,consentResponse.duration,participantID,date,expName,psychopyVersion,OS,frameRate,STUDY_ID,SESSION_ID,opening1.started,opening1.stopped,keyEndingOpening1.keys,keyEndingOpening1.rt,keyEndingOpening1.duration,volumeAdjust.started,volumeAdjust.stopped,endingAdjust.keys,endingAdjust.rt,endingAdjust.duration,opening2.started,opening2.stopped,keyEndingOpening.keys,keyEndingOpening.rt,keyEndingOpening.duration,mouse.x,mouse.y,mouse.leftButton,mouse.midButton,mouse.rightButton,mouse.time,instructionLoop.thisRepN,instructionLoop.thisTrialN,instructionLoop.thisN,instructionLoop.thisIndex,instructionLoop.ran,readyForAudio.started,readyForAudio.stopped,fixation.started,run,audio_played,fixation.stopped,endPractice.keys,audioPre.started,audioPre.stopped,continuousResponses_audio,continuousSlider.response,continuousSlider.rt,intRating.started,intRating.stopped,intQuestionSlider.response,intQuestionSlider.rt,intQuestionSlider.history,confirmResponse.keys,confirmResponse.rt,confirmResponse.duration,catchQuestion.started,catch_label,catch_value,catchQuestion.stopped,catchQuestionSlider.response,catchQuestionSlider.rt,catchQuestionSlider.history,confirmResponse_2.keys,audioRunLoop.thisRepN,audioRunLoop.thisTrialN,audioRunLoop.thisN,audioRunLoop.thisIndex,audioRunLoop.ran,conditions1_1,conditions2_1,conditions1_2,conditions2_2,dur1_1,dur2_1,dur1_2,dur2_2,endPractice.rt,endPractice.duration,confirmResponse_2.rt,confirmResponse_2.duration,runIntervalBreak.started,runIntervalBreak.stopped,endingBreakKey.keys,endingBreakKey.rt,endingBreakKey.duration,connection.started,connection.stopped,connectionEnding.keys,connectionEnding.rt,connectionEnding.duration,readyForText.started,readyForText.stopped,textPre.started,run_dup,textPre.stopped,continuousResponses_text,textRunLoop.thisRepN,textRunLoop.thisTrialN,textRunLoop.thisN,textRunLoop.thisIndex,textRunLoop.ran,text1_1,text1_2,text2_1,text2_2,runBreakText.started,runBreakText.stopped,endingBreakKey_2.keys,ending.started,ending.stopped,endingEnding.keys,endingEnding.rt,endingEnding.duration
tom,0.0009,3.7578,y,3.4288,,6137d996d42747efa344c1d4,2024-02-08_16h02.15.875,group3.1-3.2-social-tom,2023.2.2,Linux x86_64,60.24096386,65c5074098b851296ff0b7ed,65c5413ef551826588565dad,,,,,,,,,,,,,,,,,,,,,,,,,,,,,,,,,,,,,,,,,,,,,,,,,,,,,,,,,,,,,,,,,,,,,,,,,,,,,,,,,,,,,,,,,,,,,,,,,,,,,,,,
,,,,,,6137d996d42747efa344c1d4,2024-02-08_16h02.15.875,group3.1-3.2-social-tom,2023.2.2,Linux x86_64,60.24096386,65c5074098b851296ff0b7ed,65c5413ef551826588565dad,3.7589,8.2363,space,4.442,,,,,,,,,,,,,,,,,,,,,,,,,,,,,,,,,,,,,,,,,,,,,,,,,,,,,,,,,,,,,,,,,,,,,,,,,,,,,,,,,,,,,,,,,,,,,,,,,,,,
,,,,,,6137d996d42747efa344c1d4,2024-02-08_16h02.15.875,group3.1-3.2-social-tom,2023.2.2,Linux x86_64,60.24096386,65c5074098b851296ff0b7ed,65c5413ef551826588565dad,,,,,,8.237,32.4449,space,23.8801,,,,,,,,,,,,,,,,,,,,,,,,,,,,,,,,,,,,,,,,,,,,,,,,,,,,,,,,,,,,,,,,,,,,,,,,,,,,,,,,,,,,,,,,,,,,,,,
,,,,,,6137d996d42747efa344c1d4,2024-02-08_16h02.15.875,group3.1-3.2-social-tom,2023.2.2,Linux x86_64,60.24096386,65c5074098b851296ff0b7ed,65c5413ef551826588565dad,,,,,,,,,,,32.4614,40.2041,space,7.7086,,[],[],[],[],[],[],0,0,0,0,1,,,,,,,,,,,,,,,,,,,,,,,,,,,,,,,,,,,,,,,,,,,,,,,,,,,,,,,,,,,,,,,,,,,,,,,,,,,,,,
,,,,,,6137d996d42747efa344c1d4,2024-02-08_16h02.15.875,group3.1-3.2-social-tom,2023.2.2,Linux x86_64,60.24096386,65c5074098b851296ff0b7ed,65c5413ef551826588565dad,,,,,,,,,,,40.206,55.8208,space,15.4403,,[],[],[],[],[],[],1,0,1,0,1,,,,,,,,,,,,,,,,,,,,,,,,,,,,,,,,,,,,,,,,,,,,,,,,,,,,,,,,,,,,,,,,,,,,,,,,,,,,,,
,,,,,,6137d996d42747efa344c1d4,2024-02-08_16h02.15.875,group3.1-3.2-social-tom,2023.2.2,Linux x86_64,60.24096386,65c5074098b851296ff0b7ed,65c5413ef551826588565dad,,,,,,,,,,,55.8396,66.2439,space,10.3437,,[],[],[],[],[],[],2,0,2,0,1,,,,,,,,,,,,,,,,,,,,,,,,,,,,,,,,,,,,,,,,,,,,,,,,,,,,,,,,,,,,,,,,,,,,,,,,,,,,,,
,,,,,,6137d996d42747efa344c1d4,2024-02-08_16h02.15.875,group3.1-3.2-social-tom,2023.2.2,Linux x86_64,60.24096386,65c5074098b851296ff0b7ed,65c5413ef551826588565dad,,,,,,,,,,,66.2738,84.6415,space,18.3279,,[],[],[],[],[],[],3,0,3,0,1,,,,,,,,,,,,,,,,,,,,,,,,,,,,,,,,,,,,,,,,,,,,,,,,,,,,,,,,,,,,,,,,,,,,,,,,,,,,,,
,,,,,,6137d996d42747efa344c1d4,2024-02-08_16h02.15.875,group3.1-3.2-social-tom,2023.2.2,Linux x86_64,60.24096386,65c5074098b851296ff0b7ed,65c5413ef551826588565dad,,,,,,,,,,,84.6662,94.5976,space,9.8968,,[],[],[],[],[],[],4,0,4,0,1,,,,,,,,,,,,,,,,,,,,,,,,,,,,,,,,,,,,,,,,,,,,,,,,,,,,,,,,,,,,,,,,,,,,,,,,,,,,,,
,,,,,,6137d996d42747efa344c1d4,2024-02-08_16h02.15.875,group3.1-3.2-social-tom,2023.2.2,Linux x86_64,60.24096386,65c5074098b851296ff0b7ed,65c5413ef551826588565dad,,,,,,,,,,,,,,,,,,,,,,,,,,,94.623,97.1964,97.2924,1,audio/Narrative13Situation2.wav,99.2946,,99.2956,129.0831,"[[999,4],[999,205],[999,280],[999,363],[999,447],[999,547],[999,629],[999,712],[999,796],[999,879],[999,962],[999,1047],[999,1128],[999,1212],[999,1296],[999,1379],[999,1462],[999,1546],[999,1629],[999,1713],[999,1796],[999,1878],[999,1961],[999,2044],[999,2127],[999,2212],[999,2296],[51.9,2383],[51.8,2462],[51.8,2544],[51.8,2628],[51.8,2711],[51.8,2793],[51.8,2877],[51.4,2961],[62.4,5992],[64.5,6075],[65.9,6158],[66.2,6241],[66.2,6324],[66.2,6407],[66.2,6491],[66.2,6573],[66.2,6656],[66.2,6740],[66.2,6823],[66.2,6906],[66.2,6991],[66.2,7072],[66.2,7157],[66.2,7239],[66.2,7323],[67.7,7407],[68.9,7491],[71,7573],[71.7,7657],[91.5,13325],[91.8,13417],[92.4,13501],[93.5,13584],[93.9,13685],[94.7,13767],[95.3,13850],[95.5,13933],[95.5,14015],[95.5,14099],[95.5,14182],[95.5,14265],[95.5,14349],[95.5,14432],[95.5,14515],[95.5,14598],[95.5,14682],[95.5,14765],[95.5,14848],[95.5,14931],[95.5,15014],[95.5,15098],[95.5,15182],[95.5,15265],[95.5,15347],[95.5,15432],[95.5,15514],[95.5,15597],[95.5,15680],[95.5,15764],[95.5,15847],[95.5,15930],[95.5,16014],[95.5,16097],[95.5,16180],[95.5,16263],[95.5,16347],[95.5,16431],[95.5,16513],[95.5,16597],[95.5,16680],[95.5,16763],[95.5,16847],[95.5,16930],[95.5,17012],[95.5,17096],[95.5,17179],[95.5,17263],[95.5,17346],[95.5,17429],[95.5,17512],[95.5,17595],[95.5,17679],[95.5,17762],[95.5,17845],[95.5,17929],[95.5,18011],[95.5,18096],[95.5,18178],[95.5,18262],[95.5,18345],[95.5,18428],[95.5,18511],[95.5,18595],[95.5,18678],[95.5,18761],[95.5,18844],[95.5,18928],[95.5,19011],[95.5,19094],[95.5,19178],[95.5,19261],[95.5,19344],[95.5,19428],[95.5,19511],[95.5,19594],[95.5,19676],[95.5,19760],[95.5,19843],[95.5,19926],[95.5,20009],[95.5,20094],[95.5,20176],[95.5,20260],[95.5,20343],[95.5,20426],[95.5,20509],[95.5,20593],[95.5,20676],[95.5,20759],[95.5,20842],[95.5,20927],[95.5,21009],[95.5,21092],[95.5,21176],[95.5,21258],[95.5,21341],[95.5,21425],[95.5,21508],[95.5,21591],[95.5,21675],[95.5,21758],[95.5,21841],[95.5,21924],[95.5,22008],[95.5,22091],[95.5,22174],[95.5,22257],[95.5,22341],[95.5,22423],[95.5,22507],[95.5,22591],[95.5,22673],[95.5,22757],[95.5,22840],[95.5,22923],[95.5,23007],[95.5,23089],[95.5,23173],[95.5,23256],[95.5,23340],[95.5,23422],[95.5,23506],[95.5,23590],[95.5,23672],[95.5,23755],[95.5,23839],[95.5,23922],[95.5,24005],[95.5,24089],[95.5,24172],[95.5,24256],[92.3,24361],[89,24440],[88,24523],[86,24605],[84.7,24690],[84.2,24774],[84,24856],[84,24938],[84,25021],[84,25104],[84,25188],[84,25271],[84,25354],[84,25438],[84,25521],[84,25604],[84,25688],[84,25771],[84,25853],[84,25937],[84,26020],[84,26103],[84,26187],[84,26270],[84,26353],[84,26437],[84,26519],[84,26603],[84,26686],[84,26770],[84,26853],[84,26936],[84,27019],[84,27103],[84,27186],[84,27269],[84,27352],[84,27436],[84,27518],[84,27602],[84,27685],[84,27769],[84,27852],[84,27935],[84,28018],[84,28101],[84,28185],[84,28268],[84,28351],[84,28435],[84,28518],[84,28601],[84,28684],[84,28768],[84,28850],[84,28934],[84,29018],[84,29101],[84,29184],[84,29267],[84,29350],[84,29434],[84,29517],[84,29600],[84,29691],[84,29767]]",1,0,129.0845,137.4222,77.53492196,6.1852,"[{""rating"":77.5349219640096,""responseTime"":6.185200000000179}]",space,7.7921,,137.4235,All the time,100,137.4391,,,[],,0,0,0,0,1,audio/Narrative13Situation2.wav,audio/Narrative13Situation2.wav,audio/Narrative13Situation2.wav,audio/Narrative13Situation2.wav,2,2,2,2,,,,,,,,,,,,,,,,,,,,,,,,,,,,,,,,,,,,,
,,,,,,6137d996d42747efa344c1d4,2024-02-08_16h02.15.875,group3.1-3.2-social-tom,2023.2.2,Linux x86_64,60.24096386,65c5074098b851296ff0b7ed,65c5413ef551826588565dad,,,,,,,,,,,,,,,,,,,,,,,,,,,,,137.4406,1,audio/Narrative7Situation1.wav,139.152,space,139.1521,195.0462,"[[81.8,1932],[81.3,2015],[81.1,2098],[80.6,2181],[79.7,2264],[61.8,3347],[61.5,3430],[61.2,3513],[61,3597],[60.9,3680],[60.5,3763],[60.3,3846],[60.9,3930],[61.7,4013],[62.5,4096],[64.3,4180],[65,4262],[65.8,4347],[76.5,4429],[86,4513],[86,4596],[86,4678],[86,4761],[86,4845],[86,4928],[84.6,5014],[75.9,5097],[75.7,5179],[75.6,5262],[75.6,5345],[75.7,5427],[75.7,5512],[51.3,5928],[52.4,6010],[52.8,6094],[52.9,6178],[52.7,6261],[52.7,6343],[52.7,6426],[52.7,6510],[52.7,6592],[52.7,6676],[52.7,6759],[52.7,6842],[52.7,6925],[52.7,7009],[52.7,7092],[52.7,7176],[52.7,7258],[52.7,7342],[52.7,7425],[52.7,7509],[52.7,7593],[52.7,7675],[52.7,7758],[52.7,7841],[52.7,7925],[52.7,8008],[52.7,8091],[52.7,8174],[52.7,8258],[52.7,8341],[52.7,8424],[52.7,8507],[52.7,8590],[52.7,8674],[52.7,8758],[52.7,8840],[52.7,8924],[52.7,9007],[52.7,9091],[52.7,9173],[52.7,9257],[52.7,9341],[52.7,9423],[52.7,9506],[52.7,9590],[52.7,9673],[52.7,9756],[52.7,9839],[52.7,9923],[52.7,10006],[52.7,10089],[52.7,10172],[52.7,10255],[52.7,10339],[52.7,10422],[55.5,10527],[59.5,10607],[63.1,10689],[64.8,10774],[66,10856],[67.3,10939],[67.9,11022],[68,11105],[68,11188],[68,11271],[68,11354],[68,11438],[68,11521],[68,11605],[68,11688],[68,11771],[68,11855],[68,11938],[68,12020],[68,12103],[68,12187],[68,12271],[68,12353],[68,12437],[68,12520],[68,12604],[68,12686],[68,12769],[68,12853],[68,12937],[68,13019],[68,13102],[68,13187],[69.9,13270],[72.9,13361],[73.9,13438],[74.6,13528],[78.1,13603],[81.5,13692],[81.8,13777],[82.4,13854],[82.7,13942],[82.7,14026],[82.7,14101],[82.7,14185],[82.7,14268],[82.7,14351],[82.7,14435],[82.7,14518],[82.7,14603],[82.7,14685],[82.7,14767],[82.7,14851],[82.7,14934],[82.7,15017],[82.7,15101],[82.7,15190],[82.7,15268],[82.7,15351],[82.7,15439],[82.7,15519],[82.7,15601],[82.7,15683],[82.7,15768],[82.7,15851],[82.7,15940],[82.7,16016],[82.7,16099],[82.7,16184],[82.7,16266],[82.7,16354],[82.7,16433],[82.7,16516],[82.7,16600],[82.7,16683],[82.7,16767],[82.7,16849],[82.7,16933],[82.7,17021],[82.7,17099],[82.7,17184],[82.7,17265],[82.7,17349],[82.7,17433],[82.7,17515],[82.7,17604],[82.7,17683],[82.7,17765],[82.7,17853],[82.7,17931],[82.7,18016],[82.7,18099],[82.7,18181],[82.7,18265],[82.7,18354],[82.7,18431],[82.7,18519],[82.7,18598],[82.7,18680],[82.7,18763],[82.7,18848],[82.7,18932],[82.7,19013],[82.7,19097],[82.7,19180],[82.7,19269],[82.7,19348],[82.7,19430],[82.7,19514],[82.7,19597],[82.7,19679],[82.7,19766],[82.7,19846],[82.7,19930],[82.7,20013],[82.7,20096],[82.7,20187],[82.7,20262],[82.7,20345],[82.7,20435],[82.7,20513],[82.7,20595],[82.7,20679],[82.7,20762],[82.7,20846],[82.7,20933],[82.7,21011],[82.7,21095],[82.7,21178],[82.7,21261],[82.7,21344],[82.7,21427],[82.7,21518],[82.7,21594],[82.7,21684],[82.7,21768],[82.7,21844],[82.7,21933],[82.7,22011],[82.7,22099],[82.7,22181],[82.7,22267],[82.7,22343],[82.7,22427],[82.7,22510],[82.7,22598],[82.7,22682],[82.7,22764],[82.7,22843],[82.7,22935],[82.7,23015],[82.7,23093],[82.7,23176],[82.7,23260],[82.7,23343],[82.7,23425],[82.7,23514],[82.7,23593],[82.7,23681],[82.7,23764],[82.7,23847],[82.7,23925],[82.7,24008],[82.7,24092],[82.7,24182],[82.7,24265],[82.7,24342],[82.7,24425],[82.7,24508],[82.7,24591],[82.7,24674],[82.7,24758],[82.7,24848],[82.7,24924],[82.7,25013],[82.7,25091],[82.7,25174],[82.7,25258],[82.7,25341],[82.7,25424],[82.7,25507],[82.7,25590],[82.7,25673],[82.7,25757],[82.7,25846],[82.7,25923],[82.7,26011],[82.7,26089],[82.7,26173],[82.7,26264],[82.7,26348],[82.7,26423],[82.7,26507],[82.7,26595],[82.7,26678],[82.7,26755],[82.7,26839],[82.7,26922],[82.7,27011],[82.7,27088],[82.7,27172],[82.7,27255],[82.7,27338],[82.7,27423],[82.7,27511],[82.7,27590],[82.7,27671],[82.7,27755],[82.7,27837],[82.7,27921],[82.7,28005],[82.7,28088],[82.7,28176],[82.7,28256],[82.7,28337],[82.7,28421],[82.7,28511],[82.7,28587],[82.7,28671],[82.7,28753],[82.7,28842],[82.7,28926],[82.7,29003],[82.7,29088],[82.7,29170],[82.7,29253],[82.7,29337],[82.7,29420],[82.7,29507],[82.7,29592],[82.7,29669],[82.7,29753],[82.7,29836],[82.7,29919],[82.7,30002],[82.7,30086],[82.7,30169],[82.7,30260],[82.7,30340],[82.7,30424],[82.7,30502],[82.7,30590],[82.7,30668],[82.7,30751],[82.7,30835],[82.7,30918],[82.7,31009],[82.7,31090],[82.7,31168],[82.7,31255],[82.7,31335],[82.7,31417],[82.7,31501],[82.7,31585],[82.7,31669],[82.7,31756],[82.7,31834],[82.7,31917],[82.7,32000],[82.7,32084],[82.7,32166],[82.7,32256],[82.7,32333],[82.7,32421],[82.7,32504],[82.7,32584],[82.7,32670],[82.7,32755],[82.7,32833],[82.7,32916],[82.7,33000],[82.7,33083],[82.7,33166],[82.7,33249],[82.7,33333],[82.7,33416],[82.7,33499],[82.7,33583],[82.7,33670],[82.7,33749],[82.7,33834],[82.7,33915],[82.7,33999],[82.7,34082],[82.7,34169],[82.7,34248],[82.7,34338],[82.7,34415],[82.7,34498],[82.7,34581],[82.7,34671],[82.7,34748],[82.7,34835],[82.7,34914],[82.7,34997],[82.7,35081],[82.7,35163],[82.7,35247],[82.7,35330],[82.7,35419],[82.7,35497],[82.7,35585],[82.7,35670],[82.7,35753],[82.7,35829],[82.7,35913],[82.7,35996],[82.7,36085],[82.7,36163],[82.7,36246],[82.7,36329],[82.7,36414],[82.7,36496],[82.7,36586],[82.7,36670],[82.7,36745],[82.7,36828],[82.7,36913],[82.7,37003],[82.7,37084],[82.7,37162],[82.7,37246],[82.7,37328],[82.7,37412],[82.7,37495],[82.7,37578],[82.7,37662],[82.7,37749],[82.7,37828],[82.7,37911],[82.7,37994],[82.7,38077],[82.7,38165],[82.7,38249],[82.7,38328],[82.7,38410],[82.7,38495],[82.7,38577],[82.7,38666],[82.7,38745],[82.7,38827],[82.7,38911],[82.7,38999],[82.7,39077],[82.7,39160],[82.7,39250],[82.7,39327],[82.7,39410],[82.7,39493],[82.7,39576],[82.7,39665],[82.7,39748],[82.7,39831],[82.7,39909],[82.7,39992],[82.7,40075],[82.7,40165],[82.7,40247],[82.7,40325],[82.7,40409],[82.7,40491],[82.7,40575],[82.7,40663],[82.7,40742],[82.7,40830],[82.7,40913],[82.7,40991],[82.7,41075],[82.7,41163],[82.7,41241],[82.7,41324],[82.7,41407],[82.7,41495],[82.7,41579],[82.7,41657],[82.7,41743],[82.7,41824],[82.7,41908],[82.7,41992],[82.7,42073],[82.7,42157],[82.7,42239],[82.7,42328],[82.7,42406],[82.7,42490],[82.7,42577],[82.7,42656],[82.7,42739],[82.7,42828],[82.7,42907],[82.7,42989],[82.7,43073],[82.7,43156],[82.7,43245],[82.7,43329],[82.7,43412],[82.7,43488],[82.7,43572],[82.7,43655],[82.7,43743],[82.7,43822],[82.7,43904],[82.7,43993],[82.7,44071],[82.7,44154],[82.7,44242],[82.7,44326],[82.7,44403],[82.7,44493],[82.7,44570],[82.7,44654],[82.7,44737],[82.7,44821],[82.7,44904],[82.7,44988],[82.7,45070],[82.7,45154],[82.7,45237],[82.7,45320],[82.7,45404],[82.7,45495],[82.7,45569],[82.7,45652],[82.7,45738],[82.7,45829],[82.7,45902],[82.7,45986],[82.7,46069],[82.7,46158],[82.7,46236],[82.7,46320],[82.7,46403],[82.7,46493],[82.7,46574],[82.7,46652],[82.7,46738],[82.7,46819],[82.7,46906],[82.7,46985],[82.7,47068],[82.7,47156],[82.7,47236],[82.7,47317],[82.7,47406],[82.7,47485],[82.7,47568],[82.7,47651],[82.7,47734],[82.7,47818],[82.7,47901],[82.7,47983],[82.7,48073],[82.7,48155],[82.7,48234],[82.7,48317],[82.7,48400],[82.7,48483],[86.2,48583],[87.6,48667],[88.1,48750],[88.6,48834],[89,48917],[89.7,49000],[89.8,49084],[89.8,49166],[89.8,49249],[89.8,49332],[89.8,49417],[89.8,49500],[89.8,49583],[89.8,49665],[89.8,49749],[89.8,49832],[89.8,49916],[89.8,49999],[89.8,50083],[89.8,50165],[89.8,50249],[89.8,50332],[89.8,50415],[89.8,50499],[89.8,50581],[89.8,50664],[89.8,50747],[89.8,50831],[89.8,50914],[89.8,50998],[89.8,51081],[89.8,51164],[89.8,51247],[89.8,51330],[89.8,51413],[89.8,51497],[89.8,51583],[89.8,51663],[89.8,51746],[89.8,51830],[89.8,51913],[89.8,51997],[89.8,52080],[89.8,52162],[89.8,52246],[89.8,52329],[89.8,52412],[89.8,52496],[89.8,52579],[89.8,52662],[89.8,52745],[89.8,52829],[89.8,52912],[89.8,52996],[89.8,53079],[89.8,53162],[89.8,53246],[89.8,53329],[89.8,53411],[89.8,53495],[89.8,53578],[89.8,53663],[89.8,53745],[89.8,53828],[89.8,53911],[89.8,53994],[89.8,54079],[89.8,54161],[89.8,54244],[89.8,54328],[89.8,54410],[89.8,54494],[89.8,54577],[89.8,54661],[89.8,54744],[89.8,54827],[89.8,54910],[89.8,54994],[89.8,55077],[89.8,55160],[89.8,55243],[89.8,55327],[89.8,55409],[89.8,55494],[89.8,55576],[89.8,55659],[89.8,55743],[89.8,55827]]",1,0,195.0478,199.7905,87.49400775,2.5112,"[{""rating"":87.49400774637859,""responseTime"":2.511199999999718}]",space,4.1959,,199.7908,All the time,100,199.8198,,,[],,0,1,1,1,1,audio/Narrative7Situation1.wav,audio/Narrative8Situation1.wav,audio/Narrative5Situation1.wav,audio/Narrative6Situation1.wav,2,5,5,2,1.6789,,,,,,,,,,,,,,,,,,,,,,,,,,,,,,,,,,,,
,,,,,,6137d996d42747efa344c1d4,2024-02-08_16h02.15.875,group3.1-3.2-social-tom,2023.2.2,Linux x86_64,60.24096386,65c5074098b851296ff0b7ed,65c5413ef551826588565dad,,,,,,,,,,,,,,,,,,,,,,,,,,,,,199.821,1,audio/Narrative7Situation2.wav,202.822,,202.8225,210.3301,"[[999,2],[999,98],[999,181],[999,264],[999,348],[999,431],[999,513],[999,597],[999,680],[999,765],[999,847],[999,931],[999,1013],[999,1097],[999,1180],[999,1263],[999,1346],[999,1429],[999,1513],[999,1596],[999,1679],[999,1763],[999,1847],[999,1931],[999,2014],[48.4,2097],[48.4,2179],[48.5,2262],[48.5,2345],[48.5,2429],[48.5,2512],[48.5,2595],[48.5,2678],[48.5,2761],[55.3,2847],[56,2929],[56.7,3013],[56.9,3094],[56.9,3177],[56.9,3261],[56.9,3345],[56.9,3428],[56.9,3510],[56.9,3594],[56.9,3677],[56.9,3760],[56.9,3844],[56.9,3927],[56.9,4010],[56.9,4094],[56.9,4177],[56.9,4260],[56.9,4343],[56.9,4427],[56.9,4511],[56.9,4593],[56.9,4677],[56.9,4760],[56.9,4843],[56.9,4926],[56.9,5009],[56.9,5092],[56.9,5176],[56.9,5259],[56.9,5343],[56.9,5427],[56.9,5509],[56.9,5592],[56.9,5675],[56.9,5759],[56.9,5842],[56.9,5925],[56.9,6009],[56.9,6091],[56.9,6175],[56.9,6258],[56.9,6341],[56.9,6424],[56.9,6508],[56.9,6591],[56.9,6674],[56.9,6758],[56.9,6840],[58.5,6925],[59.1,7008],[59.3,7092],[59.4,7175],[60.6,7258],[65.4,7341],[65.9,7423],[65.9,7507]]",1,0,210.3309,214.4856,49.42060312,3.0887,"[{""rating"":49.42060311635335,""responseTime"":3.088699999999733}]",space,3.6122,,214.486,Not at all,0,214.505,,,[],,0,2,2,2,1,audio/Narrative7Situation2.wav,audio/Narrative8Situation2.wav,audio/Narrative5Situation2.wav,audio/Narrative6Situation2.wav,3,3,3,3,,,,,,,,,,,,,,,,,,,,,,,,,,,,,,,,,,,,,
,,,,,,6137d996d42747efa344c1d4,2024-02-08_16h02.15.875,group3.1-3.2-social-tom,2023.2.2,Linux x86_64,60.24096386,65c5074098b851296ff0b7ed,65c5413ef551826588565dad,,,,,,,,,,,,,,,,,,,,,,,,,,,,,214.5062,1,audio/Narrative7Situation3.wav,222.5177,,222.5179,231.7751,"[[999,31],[999,116],[999,198],[999,283],[999,365],[999,448],[999,532],[999,614],[999,698],[999,781],[999,864],[999,948],[999,1031],[999,1114],[999,1197],[999,1281],[999,1364],[999,1447],[999,1531],[999,1614],[999,1697],[999,1780],[999,1863],[999,1947],[999,2030],[999,2114],[999,2196],[999,2279],[999,2363],[999,2446],[999,2530],[999,2612],[999,2696],[999,2779],[999,2863],[999,2947],[999,3029],[999,3112],[999,3195],[999,3278],[999,3362],[999,3444],[999,3529],[999,3611],[999,3695],[999,3779],[999,3861],[999,3945],[999,4027],[999,4111],[999,4195],[999,4277],[999,4361],[999,4444],[999,4528],[999,4611],[999,4694],[999,4778],[999,4861],[999,4943],[999,5027],[999,5111],[999,5193],[999,5278],[999,5359],[999,5443],[999,5526],[999,5610],[999,5693],[999,5776],[999,5859],[999,5942],[999,6026],[999,6110],[999,6193],[999,6275],[999,6359],[999,6442],[999,6525],[999,6609],[999,6692],[999,6775],[999,6858],[999,6943],[999,7025],[999,7109],[999,7192],[999,7275],[999,7360],[999,7441],[999,7524],[999,7609],[999,7691],[999,7775],[999,7858],[999,7941],[999,8025],[999,8109],[999,8192],[999,8274],[999,8357],[999,8440],[999,8524],[999,8607],[999,8690],[999,8773],[999,8858],[999,8941],[999,9024],[999,9106],[999,9189]]",1,0,231.7758,234.1054,34.03052489,1.1509,"[{""rating"":34.03052488962809,""responseTime"":1.1508999999998935}]",space,1.7864,,234.1056,All the time,100,234.1193,,,[],,0,3,3,3,1,audio/Narrative7Situation3.wav,audio/Narrative8Situation3.wav,audio/Narrative5Situation3.wav,audio/Narrative6Situation3.wav,8,4,3,5,,,,,,,,,,,,,,,,,,,,,,,,,,,,,,,,,,,,,
,,,,,,6137d996d42747efa344c1d4,2024-02-08_16h02.15.875,group3.1-3.2-social-tom,2023.2.2,Linux x86_64,60.24096386,65c5074098b851296ff0b7ed,65c5413ef551826588565dad,,,,,,,,,,,,,,,,,,,,,,,,,,,,,234.1204,1,audio/Narrative7Situation4.wav,237.137,,237.1373,248.8751,"[[999,2],[999,83],[999,165],[999,248],[999,331],[999,414],[999,497],[999,581],[999,664],[999,747],[999,830],[999,914],[999,997],[999,1080],[999,1164],[999,1246],[999,1330],[999,1414],[999,1496],[999,1579],[999,1663],[999,1746],[999,1830],[999,1913],[999,1996],[999,2079],[999,2163],[999,2245],[999,2329],[999,2412],[999,2496],[999,2579],[999,2662],[999,2745],[999,2828],[999,2912],[999,2995],[999,3078],[999,3162],[999,3245],[999,3328],[999,3411],[999,3495],[999,3577],[999,3661],[999,3744],[999,3827],[999,3911],[999,3994],[999,4077],[999,4160],[999,4244],[999,4327],[999,4410],[999,4494],[999,4577],[999,4660],[999,4743],[999,4827],[999,4909],[999,4992],[999,5076],[999,5159],[999,5243],[999,5326],[999,5409],[999,5492],[999,5576],[999,5658],[999,5742],[999,5825],[999,5908],[999,5992],[999,6075],[999,6158],[999,6242],[999,6325],[999,6409],[999,6492],[999,6575],[999,6660],[999,6742],[999,6826],[999,6908],[999,6992],[999,7075],[66,7176],[66,7257],[66,7340],[66,7424],[66,7507],[69.6,7591],[72.7,7673],[76.6,7757],[77.2,7841],[78.7,7924],[79.1,8007],[79.3,8089],[79.3,8173],[79.3,8256],[79.3,8339],[79.3,8423],[79.3,8506],[79.3,8589],[79.3,8672],[79.3,8756],[79.3,8838],[79.3,8922],[79.3,9005],[79.3,9089],[79.3,9172],[79.3,9255],[79.3,9338],[80.6,9422],[82.6,9505],[82.7,9588],[82.7,9672],[82.7,9754],[82.7,9838],[82.7,9921],[82.7,10004],[82.7,10088],[82.7,10170],[82.7,10254],[82.7,10337],[82.7,10420],[82.7,10504],[82.7,10587],[82.7,10670],[82.7,10753],[82.7,10837],[82.7,10920],[82.7,11003],[82.7,11086],[82.7,11169],[82.7,11253],[82.7,11336],[85.4,11420],[91.2,11504],[95.5,11587],[96.6,11670]]",1,0,248.8757,250.2055,98.23816617,0.3082,"[{""rating"":98.23816617329915,""responseTime"":0.3082000000001699}]",space,0.7836,,250.2058,All the time,100,250.2145,,,[],,0,4,4,4,1,audio/Narrative7Situation4.wav,audio/Narrative8Situation4.wav,audio/Narrative5Situation4.wav,audio/Narrative6Situation4.wav,3,3,1,2,,,,,,,,,,,,,,,,,,,,,,,,,,,,,,,,,,,,,
,,,,,,6137d996d42747efa344c1d4,2024-02-08_16h02.15.875,group3.1-3.2-social-tom,2023.2.2,Linux x86_64,60.24096386,65c5074098b851296ff0b7ed,65c5413ef551826588565dad,,,,,,,,,,,,,,,,,,,,,,,,,,,,,250.2155,1,audio/Narrative7Situation5.wav,255.2183,,255.2186,263.7095,"[[999,30],[999,115],[999,198],[999,281],[999,365],[999,448],[999,530],[999,614],[999,697],[999,780],[999,863],[999,948],[999,1032],[999,1114],[999,1197],[999,1280],[999,1363],[999,1446],[999,1530],[999,1614],[999,1696],[999,1780],[999,1864],[999,1947],[999,2029],[999,2112],[999,2196],[999,2279],[999,2363],[999,2445],[999,2530],[999,2612],[999,2695],[999,2780],[999,2862],[999,2945],[999,3028],[999,3111],[999,3195],[999,3279],[999,3362],[999,3445],[999,3528],[999,3611],[999,3695],[999,3777],[999,3861],[999,3944],[999,4028],[999,4110],[999,4194],[999,4276],[999,4360],[999,4443],[999,4527],[999,4610],[999,4693],[999,4777],[999,4861],[999,4943],[999,5027],[999,5110],[999,5193],[999,5276],[999,5360],[999,5443],[999,5525],[999,5609],[999,5692],[999,5776],[999,5860],[999,5942],[999,6025],[999,6109],[999,6192],[999,6275],[999,6358],[999,6441],[999,6531],[999,6608],[999,6691],[999,6775],[999,6858],[999,6941],[999,7025],[999,7108],[999,7191],[999,7275],[999,7357],[999,7442],[999,7524],[999,7607],[999,7691],[999,7773],[999,7859],[999,7943],[999,8024],[999,8107],[999,8191],[56.2,8290],[55.4,8373],[55.1,8457]]",1,0,263.71,264.7741,49.31032658,0.6248,"[{""rating"":49.31032657623291,""responseTime"":0.6247999999998228}]",space,0.5182,,264.7748,All the time,100,264.7815,,,[],,0,5,5,5,1,audio/Narrative7Situation5.wav,audio/Narrative8Situation5.wav,audio/Narrative5Situation5.wav,audio/Narrative6Situation5.wav,5,2,5,2,,,,,,,,,,,,,,,,,,,,,,,,,,,,,,,,,,,,,
,,,,,,6137d996d42747efa344c1d4,2024-02-08_16h02.15.875,group3.1-3.2-social-tom,2023.2.2,Linux x86_64,60.24096386,65c5074098b851296ff0b7ed,65c5413ef551826588565dad,,,,,,,,,,,,,,,,,,,,,,,,,,,,,264.783,1,audio/Narrative7Situation6.wav,267.788,,267.7881,277.7615,"[[50.4,5262],[53.8,5344],[77.6,5594],[79.4,5678],[80.4,5761],[80.6,5846],[82.5,5927],[89.1,6010],[90.2,6094],[90.3,6177],[90.3,6260],[90.3,6342],[90.3,6426],[90.3,6509],[90.3,6592],[90.3,6676],[90.3,6759],[90.3,6842],[90.3,6925],[90.3,7008],[90.3,7092],[90.3,7175],[90.3,7258],[90.3,7342],[90.3,7426],[90.3,7508],[90.3,7591],[90.3,7675],[90.3,7758],[90.3,7842],[90.3,7924],[90.3,8008],[90.3,8091],[90.3,8174],[90.3,8258],[90.3,8341],[90.3,8424],[90.3,8507],[90.3,8590],[90.3,8674],[90.3,8757],[90.3,8841],[90.3,8924],[90.3,9006],[90.3,9091],[90.3,9173],[90.3,9256],[90.3,9339],[90.3,9423],[90.3,9507],[90.3,9589],[90.3,9673],[90.3,9757],[90.2,9840],[90.2,9924]]",1,0,277.7621,278.696,90.22782644,0.4426,"[{""rating"":90.22782643636067,""responseTime"":0.44260000000008404}]",space,0.4011,,278.6964,All the time,100,278.7038,,,[],,0,6,6,6,1,audio/Narrative7Situation6.wav,audio/Narrative8Situation6.wav,audio/Narrative5Situation6.wav,audio/Narrative6Situation6.wav,3,2,3,2,,,,,,,,,,,,,,,,,,,,,,,,,,,,,,,,,,,,,
,,,,,,6137d996d42747efa344c1d4,2024-02-08_16h02.15.875,group3.1-3.2-social-tom,2023.2.2,Linux x86_64,60.24096386,65c5074098b851296ff0b7ed,65c5413ef551826588565dad,,,,,,,,,,,,,,,,,,,,,,,,,,,,,278.7048,1,audio/Narrative7Situation7.wav,283.7052,,283.7055,300.8875,[],1,0,300.888,304.418,33.73332024,2.8618,"[{""rating"":33.733320236206055,""responseTime"":2.861799999999846}]",space,2.9823,,304.4184,Not at all,0,304.4349,,,[],,0,7,7,7,1,audio/Narrative7Situation7.wav,audio/Narrative8Situation7.wav,audio/Narrative5Situation7.wav,audio/Narrative6Situation7.wav,5,3,4,5,,,,,,,,,,,,,,,,,,,,,,,,,,,,,,,,,,,,,
,,,,,,6137d996d42747efa344c1d4,2024-02-08_16h02.15.875,group3.1-3.2-social-tom,2023.2.2,Linux x86_64,60.24096386,65c5074098b851296ff0b7ed,65c5413ef551826588565dad,,,,,,,,,,,,,,,,,,,,,,,,,,,,,304.4362,1,audio/Narrative7Situation8.wav,306.4485,,306.4486,316.4717,"[[999,2],[999,83],[999,165],[999,250],[999,331],[999,415],[999,499],[999,582],[999,665],[999,749],[999,831],[999,916],[999,998],[999,1081],[999,1165],[999,1248],[999,1332],[999,1415],[999,1497],[999,1581],[999,1667],[999,1747],[999,1831],[999,1914],[999,1998],[999,2080],[999,2164],[999,2246],[999,2330],[999,2413],[999,2496],[999,2580],[999,2662],[999,2747],[999,2829],[999,2914],[999,2996],[999,3080],[999,3163],[999,3246],[999,3329],[999,3413],[999,3496],[999,3579],[999,3662],[999,3745],[999,3829],[999,3913],[999,3995],[999,4079],[999,4161],[999,4245],[999,4328],[999,4411],[999,4495],[999,4578],[999,4661],[999,4745],[999,4828],[999,4911],[999,4994],[999,5077],[999,5161],[999,5244],[999,5327],[999,5410],[999,5494],[999,5577],[999,5661],[999,5743],[999,5826],[999,5910],[999,5993],[999,6076],[999,6159],[999,6243],[999,6326],[999,6409],[999,6493],[999,6576],[999,6659],[999,6742],[999,6825],[999,6909],[999,6992],[999,7075],[999,7158],[999,7242],[999,7325],[999,7408],[999,7492],[999,7574],[999,7658],[999,7741],[999,7824],[999,7908],[999,7991],[999,8074],[999,8158],[999,8241],[999,8324],[999,8407],[999,8491],[999,8574],[999,8657],[999,8741],[999,8823],[999,8907],[999,8990],[999,9073],[999,9156],[999,9240],[999,9323],[999,9406],[999,9489],[999,9573],[999,9656],[999,9740],[999,9823],[999,9906],[999,9989]]",1,0,316.4723,320.1344,68.68123213,3.1636,"[{""rating"":68.68123213450113,""responseTime"":3.1636000000000877}]",space,3.1204,,320.1349,Not at all,0,320.1408,,,[],,0,8,8,8,1,audio/Narrative7Situation8.wav,audio/Narrative8Situation8.wav,audio/Narrative5Situation8.wav,audio/Narrative6Situation8.wav,2,3,3,5,,,,,,,,,,,,,,,,,,,,,,,,,,,,,,,,,,,,,
,,,,,,6137d996d42747efa344c1d4,2024-02-08_16h02.15.875,group3.1-3.2-social-tom,2023.2.2,Linux x86_64,60.24096386,65c5074098b851296ff0b7ed,65c5413ef551826588565dad,,,,,,,,,,,,,,,,,,,,,,,,,,,,,320.1417,1,audio/Narrative7Situation9.wav,322.1494,,322.1497,330.7916,"[[69,6426],[71.4,6526],[85.1,7275],[85.2,7360],[85.2,7441],[85.2,7524],[85.2,7607],[85.2,7691],[85.2,7774],[85.2,7857],[85.2,7940],[85.2,8024],[85.2,8107],[85.2,8190],[85.2,8273],[85.2,8357],[85.2,8440],[85.2,8523],[85.3,8608]]",1,0,330.7921,331.9889,86.7732207,1.107,"[{""rating"":86.71692212422688,""responseTime"":0.5282999999997742},{""rating"":86.77322069803874,""responseTime"":1.106999999999971}]",space,0.6507,,331.9893,Half the time,50,332.0096,,,[],,0,9,9,9,1,audio/Narrative7Situation9.wav,audio/Narrative8Situation9.wav,audio/Narrative5Situation9.wav,audio/Narrative6Situation9.wav,2,3,3,4,,,,,,,,,,,,,,,,,,,,,,,,,,,,,,,,,,,,,
,,,,,,6137d996d42747efa344c1d4,2024-02-08_16h02.15.875,group3.1-3.2-social-tom,2023.2.2,Linux x86_64,60.24096386,65c5074098b851296ff0b7ed,65c5413ef551826588565dad,,,,,,,,,,,,,,,,,,,,,,,,,,,,,332.0107,1,audio/Narrative8Situation1.wav,337.018,,337.0182,352.952,"[[85.7,15100]]",1,0,352.9528,354.1169,31.36751652,0.745,"[{""rating"":31.36751651763916,""responseTime"":0.7450000000000045}]",space,0.6181,,354.1171,Not at all,0,354.1292,,,[],,0,10,10,10,1,audio/Narrative8Situation1.wav,audio/Narrative7Situation1.wav,audio/Narrative6Situation1.wav,audio/Narrative5Situation1.wav,5,2,2,5,,,,,,,,,,,,,,,,,,,,,,,,,,,,,,,,,,,,,
,,,,,,6137d996d42747efa344c1d4,2024-02-08_16h02.15.875,group3.1-3.2-social-tom,2023.2.2,Linux x86_64,60.24096386,65c5074098b851296ff0b7ed,65c5413ef551826588565dad,,,,,,,,,,,,,,,,,,,,,,,,,,,,,354.1305,1,audio/Narrative8Situation2.wav,357.1479,,357.1481,367.2783,"[[15.6,1380],[17.2,1464],[48,2130],[68.7,2296],[69.4,2380],[62.8,2463],[54.1,2547],[53.8,2638],[53.7,2714],[55.7,2801],[59,2887],[60.4,2972],[63.2,3052],[63.7,3155],[63.7,3228],[63.7,3312],[63.7,3395],[63.7,3480],[63.7,3561],[63.7,3646],[63.7,3728],[63.7,3811],[63.7,3894],[63.7,3977],[63.7,4066],[63.7,4144],[63.7,4228],[63.7,4311],[63.7,4394],[63.7,4479],[63.7,4560],[63.7,4643],[63.7,4727],[63.7,4809],[63.7,4898],[63.7,4976],[63.7,5065],[63.7,5151],[63.7,5226],[63.7,5309],[63.7,5393],[63.7,5476],[63.7,5560],[63.7,5642],[63.7,5727],[63.7,5808],[63.7,5893],[63.7,5975],[63.7,6064],[63.7,6141],[63.7,6225],[63.7,6314],[63.7,6391],[63.7,6481],[63.7,6558],[63.7,6644],[63.7,6725],[63.7,6813],[63.7,6891],[63.7,6975],[63.7,7058],[63.7,7141],[63.7,7224],[63.7,7307],[63.7,7391],[63.7,7474],[63.7,7557],[63.7,7641],[63.7,7730],[63.7,7807],[63.7,7890],[63.7,7973],[63.7,8057],[63.7,8140],[63.7,8223],[63.7,8306],[63.7,8389],[63.7,8473],[63.7,8556],[63.7,8644],[63.7,8723],[63.7,8811],[63.7,8890],[67.7,8995],[69.5,9072],[70.6,9156],[71.8,9239],[73.5,9330],[81.7,9415],[82.4,9495],[82.6,9580],[83.2,9661],[83.3,9743],[83.1,9830],[80.2,9906],[78.6,9995],[77.8,10079]]",1,0,367.279,368.5185,77.42879391,0.8642,"[{""rating"":77.42879390716553,""responseTime"":0.8642000000002099}]",space,0.7053,,368.5187,Half the time,50,368.5289,,,[],,0,11,11,11,1,audio/Narrative8Situation2.wav,audio/Narrative7Situation2.wav,audio/Narrative6Situation2.wav,audio/Narrative5Situation2.wav,3,3,3,3,,,,,,,,,,,,,,,,,,,,,,,,,,,,,,,,,,,,,
,,,,,,6137d996d42747efa344c1d4,2024-02-08_16h02.15.875,group3.1-3.2-social-tom,2023.2.2,Linux x86_64,60.24096386,65c5074098b851296ff0b7ed,65c5413ef551826588565dad,,,,,,,,,,,,,,,,,,,,,,,,,,,,,368.5297,1,audio/Narrative8Situation3.wav,372.5309,,372.531,394.9095,"[[77.6,4030],[82.1,4129],[91.7,4546],[94.8,4628],[95.8,4721],[96,4797],[96,4878],[96,4961],[96,5044],[96.6,5129],[99.2,5218],[99.2,5299],[99.2,5377],[99.2,5468],[99.2,5544],[99.2,5627],[99.2,5711],[99.2,5794],[99.2,5876],[99.2,5961],[99.2,6044],[99.2,6126],[99.2,6209],[99.2,6293],[99.2,6377],[99.2,6460],[99.2,6549],[99.2,6633],[99.2,6710],[99.2,6793],[99.2,6876],[99.2,6959],[99.2,7042],[99.2,7125],[99.2,7214],[99.2,7292],[99.2,7375],[99.2,7458],[99.2,7547],[99.2,7626],[99.2,7713],[99.2,7792],[99.2,7876],[99.2,7962],[99.2,8041],[99.2,8124],[99.2,8209],[99.2,8291],[99.2,8375],[99.2,8458],[99.2,8541],[99.2,8624],[99.2,8707],[99.2,8791],[99.2,8874],[99.2,8962],[99.2,9041],[99.2,9124],[99.2,9208],[99.2,9296],[99.2,9373],[99.2,9457],[99.2,9540],[99.2,9623],[99.2,9706],[99.2,9789],[99.2,9878],[99.2,9956],[99.2,10045],[99.2,10123],[99.2,10206],[99.2,10296],[99.2,10379],[99.2,10455],[99.2,10544],[99.2,10627],[99.2,10712],[99.2,10788],[99.2,10872],[99.2,10955],[99.2,11038],[99.2,11126],[99.2,11212],[99.2,11288],[99.2,11372],[99.2,11455],[99.2,11538],[99.2,11627],[99.2,11704],[99.2,11788],[99.2,11871],[99.2,11955],[99.2,12042],[99.2,12121],[99.2,12211],[99.2,12294],[99.2,12375],[99.2,12459],[99.2,12542],[99.2,12621],[99.2,12703],[99.2,12786],[99.2,12869],[99.2,12953],[99.2,13036],[99.2,13120],[99.2,13203],[99.2,13286],[99.2,13370],[99.2,13452],[99.2,13536],[99.2,13621],[99.2,13702],[99.2,13786],[99.2,13868],[99.2,13956],[99.2,14035],[99.2,14124],[99.2,14208],[99.2,14284],[99.2,14368],[99.2,14451],[99.2,14535],[99.2,14625],[99.2,14709],[99.2,14785],[99.2,14867],[99.2,14951],[99.2,15037],[99.2,15117],[99.2,15201],[99.2,15285],[99.2,15367],[99.2,15451],[99.2,15533],[99.2,15617],[99.2,15705],[99.2,15784],[99.2,15867],[99.2,15950],[99.2,16035],[99.2,16121],[99.2,16200],[99.2,16284],[99.2,16366],[99.2,16450],[99.2,16539],[99.2,16615],[99.2,16706],[99.2,16783],[99.2,16865],[99.2,16949],[99.2,17032],[99.2,17116],[99.2,17205],[99.2,17282],[99.2,17370],[99.2,17449],[99.2,17531],[99.2,17614],[99.2,17698],[99.2,17781],[99.2,17865],[99.2,17948],[99.2,18031],[99.2,18119],[99.2,18197],[99.2,18281],[99.2,18364],[99.2,18454],[99.2,18531],[99.2,18624],[99.2,18703],[99.2,18781],[99.2,18864],[99.2,18947],[99.2,19035],[99.2,19113],[99.2,19197],[99.2,19280],[99.2,19363],[99.2,19453],[99.2,19529],[99.2,19615],[99.2,19696],[99.2,19780],[99.2,19863],[99.2,19946],[99.2,20029],[99.2,20113],[99.2,20202],[99.2,20284],[99.2,20370],[99.2,20446],[99.2,20529],[99.2,20613],[99.2,20695],[99.2,20779],[99.2,20868],[99.2,20946],[99.2,21029],[99.2,21112],[99.2,21202],[99.2,21278],[99.2,21366],[99.2,21444],[99.2,21528],[99.2,21612],[99.2,21698],[99.2,21781],[99.2,21888],[99.2,21960],[99.2,22044],[99.2,22127],[99.2,22211],[99.2,22293],[99.2,22377]]",1,0,394.9103,395.7615,99.27845001,0.3917,"[{""rating"":99.27845001220703,""responseTime"":0.3917000000001849}]",space,0.3241,,395.7616,Half the time,50,395.7678,,,[],,0,12,12,12,1,audio/Narrative8Situation3.wav,audio/Narrative7Situation3.wav,audio/Narrative6Situation3.wav,audio/Narrative5Situation3.wav,4,8,5,3,,,,,,,,,,,,,,,,,,,,,,,,,,,,,,,,,,,,,
,,,,,,6137d996d42747efa344c1d4,2024-02-08_16h02.15.875,group3.1-3.2-social-tom,2023.2.2,Linux x86_64,60.24096386,65c5074098b851296ff0b7ed,65c5413ef551826588565dad,,,,,,,,,,,,,,,,,,,,,,,,,,,,,395.7691,1,audio/Narrative8Situation4.wav,398.7711,,398.7713,412.9561,"[[70.8,10872],[66.5,10956],[66.3,11038],[65.9,11122],[65.4,11206],[65.2,11288],[65.2,11370],[65.2,11455],[65.2,11537],[65.2,11621],[65.2,11705],[65.2,11787],[65.2,11870],[65.2,11953],[65.2,12037],[65.2,12120],[65.2,12203],[65.2,12287],[65.2,12369],[65.2,12453],[65.2,12537],[65.2,12619],[65.2,12704],[65.2,12786],[65.2,12869],[65.2,12953],[65.2,13036],[65.2,13119],[65.2,13202],[65.2,13285],[65.2,13368],[65.2,13451],[65.2,13535],[65.2,13618],[65.2,13702],[65.2,13785],[65.2,13868],[65.2,13951],[65.2,14034],[65.2,14118]]",1,0,412.9565,414.3722,62.88290819,0.8123,"[{""rating"":62.88290818532308,""responseTime"":0.812299999999766}]",space,0.8754,,414.3723,Half the time,50,414.3779,,,[],,0,13,13,13,1,audio/Narrative8Situation4.wav,audio/Narrative7Situation4.wav,audio/Narrative6Situation4.wav,audio/Narrative5Situation4.wav,3,3,2,1,,,,,,,,,,,,,,,,,,,,,,,,,,,,,,,,,,,,,
,,,,,,6137d996d42747efa344c1d4,2024-02-08_16h02.15.875,group3.1-3.2-social-tom,2023.2.2,Linux x86_64,60.24096386,65c5074098b851296ff0b7ed,65c5413ef551826588565dad,,,,,,,,,,,,,,,,,,,,,,,,,,,,,414.3788,1,audio/Narrative8Situation5.wav,416.386,,416.3862,424.6463,"[[82.8,7592],[81.2,7759],[74.7,8175],[74.5,8259]]",1,0,424.6468,425.8101,79.79914347,0.776,"[{""rating"":79.7991434733073,""responseTime"":0.7760000000000105}]",space,0.6179,,425.8103,Half the time,50,425.8178,,,[],,0,14,14,14,1,audio/Narrative8Situation5.wav,audio/Narrative7Situation5.wav,audio/Narrative6Situation5.wav,audio/Narrative5Situation5.wav,2,5,2,5,,,,,,,,,,,,,,,,,,,,,,,,,,,,,,,,,,,,,
,,,,,,6137d996d42747efa344c1d4,2024-02-08_16h02.15.875,group3.1-3.2-social-tom,2023.2.2,Linux x86_64,60.24096386,65c5074098b851296ff0b7ed,65c5413ef551826588565dad,,,,,,,,,,,,,,,,,,,,,,,,,,,,,425.8189,1,audio/Narrative8Situation6.wav,427.8256,,427.8258,434.3013,"[[72.2,1265],[67.8,1348],[66.6,1430],[66,1514],[65.9,1598],[65.9,1680],[65.9,1764],[65.9,1846],[65.9,1930],[65.9,2012],[65.9,2096],[65.9,2180],[65.9,2262],[65.9,2346],[65.9,2429],[65.9,2512],[65.9,2595],[65.9,2679],[66.3,2762],[67.4,2846],[67.5,2929],[67.6,3012],[67.6,3095],[67.6,3178],[67.6,3262],[67.6,3346],[67.6,3428],[67.6,3512],[67.6,3594],[67.6,3677],[67.6,3761],[67.6,3844],[67.6,3927],[67.6,4011],[67.6,4094],[67.6,4179],[67.6,4260],[67.6,4344],[67.6,4426],[67.6,4510],[67.6,4594],[67.6,4677],[67.6,4760],[67.6,4844],[67.6,4927],[67.6,5009],[67.6,5093],[67.6,5176],[67.6,5260],[67.6,5343],[67.6,5426],[67.6,5509],[68.2,5594],[76.6,5693],[79.5,5776],[85.9,5860],[88.1,5942],[92.1,6026],[92.9,6109],[92.9,6191],[92.9,6275],[92.9,6358],[92.9,6441]]",1,0,434.3018,436.915,100,2.2964,"[{""rating"":92.91653633117676,""responseTime"":0.6722000000002026},{""rating"":94.16842460632324,""responseTime"":1.5412999999998647},{""rating"":100,""responseTime"":2.2963999999999487}]",space,2.069,,436.9152,All the time,100,436.9245,,,[],,0,15,15,15,1,audio/Narrative8Situation6.wav,audio/Narrative7Situation6.wav,audio/Narrative6Situation6.wav,audio/Narrative5Situation6.wav,2,3,2,3,,,,,,,,,,,,,,,,,,,,,,,,,,,,,,,,,,,,,
,,,,,,6137d996d42747efa344c1d4,2024-02-08_16h02.15.875,group3.1-3.2-social-tom,2023.2.2,Linux x86_64,60.24096386,65c5074098b851296ff0b7ed,65c5413ef551826588565dad,,,,,,,,,,,,,,,,,,,,,,,,,,,,,436.9254,1,audio/Narrative8Situation7.wav,439.9295,,439.9297,452.0169,"[[999,1],[999,82],[999,166],[999,249],[999,333],[999,415],[999,498],[999,582],[999,667],[999,751],[999,835],[999,931],[999,1014],[999,1098],[999,1181],[999,1265],[999,1348],[60.9,1681],[60.7,1763],[60.7,1847],[60.7,1931],[60.7,2014],[60.7,2097],[60.7,2180],[60.7,2262],[60.7,2347],[60.7,2431],[60.7,2513],[60.7,2596],[60.7,2679],[60.7,2762],[60.7,2845],[60.7,2928],[60.7,3012],[60.7,3095],[60.7,3178],[60.7,3261],[60.7,3345],[60.7,3428],[60.7,3511],[52.6,3595],[29.2,3679],[26.9,3762],[26.5,3846],[26.5,3928],[27.5,4012],[34.5,4095],[35.2,4179],[35.5,4260],[35.5,4344],[35.5,4427],[35.5,4511],[35.5,4594],[35.5,4677],[35.5,4760],[35.5,4843],[35.5,4927],[35.5,5010],[35.5,5093],[35.5,5176],[35.5,5259],[35.5,5343],[35.5,5426],[35.5,5509],[35.5,5593],[35.5,5675],[35.5,5759],[35.5,5842],[35.5,5926],[35.5,6009],[35.5,6092],[35.5,6175],[35.5,6259],[35.5,6342],[35.5,6425],[35.5,6508],[35.5,6591],[35.5,6675],[35.5,6759],[35.5,6841],[35.5,6927],[35.5,7008],[35.5,7091],[35.5,7174],[35.5,7258],[35.5,7341],[35.5,7424],[35.5,7508],[35.5,7591],[35.5,7674],[35.5,7757],[35.5,7840],[35.5,7924],[35.5,8007],[35.5,8090],[35.5,8173],[35.5,8257],[35.5,8340],[35.5,8424],[35.5,8507],[35.5,8590],[35.5,8673],[35.5,8756],[35.5,8839],[35.5,8922],[35.5,9006],[35.5,9089],[35.5,9173],[35.5,9256],[35.5,9339],[35.5,9422],[35.5,9505],[35.5,9589],[35.5,9672],[35.5,9755],[35.5,9838],[35.5,9922],[35.5,10005],[35.5,10090],[35.5,10172],[35.5,10254],[35.5,10338],[35.5,10421],[35.5,10504],[35.5,10587],[35.5,10670],[35.5,10754],[35.5,10837],[35.5,10921],[35.5,11003],[35.5,11087],[35.5,11170],[35.5,11253],[35.5,11336],[35.5,11420],[35.5,11503],[35.5,11586],[35.5,11669],[35.5,11754],[35.5,11836],[35.5,11919],[35.5,12003],[35.5,12086]]",1,0,452.0177,454.1307,22.07411925,1.4031,"[{""rating"":22.074119249979656,""responseTime"":1.4030999999996538}]",space,1.5798,,454.1308,Half the time,50,454.1434,,,[],,0,16,16,16,1,audio/Narrative8Situation7.wav,audio/Narrative7Situation7.wav,audio/Narrative6Situation7.wav,audio/Narrative5Situation7.wav,3,5,5,4,,,,,,,,,,,,,,,,,,,,,,,,,,,,,,,,,,,,,
,,,,,,6137d996d42747efa344c1d4,2024-02-08_16h02.15.875,group3.1-3.2-social-tom,2023.2.2,Linux x86_64,60.24096386,65c5074098b851296ff0b7ed,65c5413ef551826588565dad,,,,,,,,,,,,,,,,,,,,,,,,,,,,,454.1444,1,audio/Narrative8Situation8.wav,457.161,,457.1611,470.0155,"[[22.2,11522],[18,11605],[8.8,11939],[10.8,12022],[11.4,12105],[12.5,12188],[13.2,12272],[13.2,12354],[13.2,12437],[13.2,12521],[13.2,12604],[13.2,12687],[13.2,12770],[13.2,12853]]",1,0,470.016,471.3135,13.24046055,0.7786,"[{""rating"":13.240460554758709,""responseTime"":0.4448999999999046},{""rating"":13.240460554758709,""responseTime"":0.7785999999995852}]",space,0.7512,,471.3137,Half the time,50,471.3204,,,[],,0,17,17,17,1,audio/Narrative8Situation8.wav,audio/Narrative7Situation8.wav,audio/Narrative6Situation8.wav,audio/Narrative5Situation8.wav,3,2,5,3,,,,,,,,,,,,,,,,,,,,,,,,,,,,,,,,,,,,,
,,,,,,6137d996d42747efa344c1d4,2024-02-08_16h02.15.875,group3.1-3.2-social-tom,2023.2.2,Linux x86_64,60.24096386,65c5074098b851296ff0b7ed,65c5413ef551826588565dad,,,,,,,,,,,,,,,,,,,,,,,,,,,,,471.3213,1,audio/Narrative8Situation9.wav,474.3269,,474.3271,485.6495,"[[13.2,1132],[27.2,2132],[32.1,2215],[34.6,2298],[35.3,2382],[35.7,2464],[35.7,2547],[35.7,2630],[35.7,2714],[35.7,2797],[35.7,2881],[35.7,2964],[35.7,3046],[35.7,3130],[35.7,3213],[35.7,3296],[35.7,3379],[35.7,3462],[35.7,3546],[35.7,3629],[35.7,3714],[35.7,3796],[35.7,3879],[35.7,3962],[35.7,4045],[35.7,4129],[35.7,4212],[35.7,4295],[35.7,4379],[35.7,4462],[35.7,4545],[35.7,4628],[35.7,4711],[35.7,4795],[35.7,4878],[35.7,4961],[35.7,5044],[35.7,5127],[35.7,5211],[35.7,5294],[35.7,5377],[35.7,5461],[35.7,5544],[35.7,5627],[35.7,5711],[35.7,5794],[35.7,5877],[35.7,5961],[35.7,6044],[35.7,6127],[35.7,6211],[35.7,6294],[35.7,6377],[35.7,6460],[43.5,6561],[45.1,6643],[46.9,6727],[48.1,6811],[49.6,6895],[50.3,6977],[50.4,7059],[50.4,7142],[50.4,7225],[50.4,7309],[50.4,7392],[50.4,7475],[50.4,7559],[50.4,7642],[50.4,7725],[50.4,7809],[50.4,7892],[50.4,7975],[50.4,8058],[50.4,8141],[50.4,8226],[50.4,8308],[50.4,8392],[50.4,8474],[50.4,8557],[50.4,8642],[50.4,8724],[50.4,8807],[50.4,8890],[50.4,8974],[50.4,9057],[63,9141],[68.8,9224],[73.8,9307],[77.2,9391],[80.7,9474],[81.6,9557],[81.9,9641],[82,9722],[82,9807],[82,9890],[82,9972],[92.9,10057],[100,10141],[100,10223],[100,10311],[99.9,10390],[83.8,10478],[83.2,10564],[83.1,10645],[85.7,10729],[87.6,10811],[87.6,10888],[87.5,10973],[87.3,11062],[87.1,11146],[87.1,11221],[87.1,11305]]",1,0,485.6503,486.7984,87.11576462,1.1274,"[{""rating"":87.11576461791992,""responseTime"":0.5208999999998696},{""rating"":87.11576461791992,""responseTime"":1.1273999999999091}]",space,0.6053,,486.7988,Not at all,0,503.3971,0,16.2293,"[{""rating"":1.7824451128641783,""responseTime"":12.54340000000036},{""rating"":0.05578597386677875,""responseTime"":13.792600000000107},{""rating"":0,""responseTime"":16.22930000000025}]",space,0,18,18,18,1,audio/Narrative8Situation9.wav,audio/Narrative7Situation9.wav,audio/Narrative6Situation9.wav,audio/Narrative5Situation9.wav,3,2,4,3,,,16.0504,,,,,,,,,,,,,,,,,,,,,,,,,,,,,,,,,,
,,,,,,6137d996d42747efa344c1d4,2024-02-08_16h02.15.875,group3.1-3.2-social-tom,2023.2.2,Linux x86_64,60.24096386,65c5074098b851296ff0b7ed,65c5413ef551826588565dad,,,,,,,,,,,,,,,,,,,,,,,,,,,506.8289,509.4082,509.4857,2,audio/Narrative13Situation2.wav,509.4861,,509.4862,539.2276,"[[52.8,2503],[54.6,2586],[55.3,2669],[55.6,2753],[54.7,2836],[51.1,2920],[50.6,3003],[50.3,3085],[50.3,3168],[50.3,3252],[50.3,3335],[50.3,3418],[50.3,3500],[50.3,3584],[50.3,3668],[50.3,3751],[50.3,3834],[49.5,3918],[48.7,4001],[48.4,4085],[48.3,4166],[48.3,4250],[48.3,4333],[48.3,4417],[48.3,4501],[48.3,4584],[48.3,4666],[48.3,4749],[48.3,4833],[48.3,4917],[48.3,5000],[48.3,5083],[48.3,5166],[48.3,5249],[48.3,5332],[48.3,5415],[48.3,5499],[48.3,5582],[48.3,5665],[48.3,5749],[48.3,5832],[48.3,5921],[48.3,5998],[48.3,6082],[48.3,6166],[48.3,6248],[48.3,6332],[48.3,6414],[48.3,6498],[48.3,6581],[48.3,6664],[48.3,6748],[48.3,6831],[48.3,6914],[48.3,6998],[48.3,7080],[48.3,7164],[48.3,7247],[48.3,7330],[48.3,7414],[48.3,7499],[48.3,7580],[48.3,7663],[48.3,7746],[48.3,7829],[48.3,7913],[48.3,7997],[48.3,8080],[48.3,8163],[48.3,8246],[48.3,8329],[48.3,8413],[48.3,8496],[48.3,8579],[48.3,8665],[48.3,8746],[48.3,8829],[48.3,8912],[48.3,8995],[48.3,9079],[48.3,9163],[48.3,9245],[48.3,9329],[48.3,9412],[48.3,9495],[48.3,9578],[48.3,9662],[48.3,9745],[48.3,9828],[48.3,9911],[48.3,9994],[48.3,10077],[48.3,10161],[48.3,10244],[46.3,10344],[45.9,10428],[45.8,10511],[45.6,10594],[45.6,10678],[45.6,10760],[45.6,10844],[45.6,10927],[45.6,11010],[45.6,11093],[45.6,11176],[45.6,11260],[45.6,11343],[45.6,11426],[45.6,11509],[45.6,11593],[45.6,11676],[45.6,11759],[45.6,11842],[45.6,11926],[45.6,12009],[45.6,12093],[45.6,12176],[45.6,12258],[45.6,12342],[45.6,12425],[45.6,12510],[45.6,12592],[45.6,12674],[45.6,12757],[45.6,12842],[45.6,12924],[45.6,13009],[45.6,13091],[45.6,13175],[45.6,13258],[45.6,13341],[45.6,13424],[45.6,13508],[45.6,13591],[45.6,13674],[45.6,13757],[45.6,13841],[45.6,13924],[45.6,14007],[45.6,14090],[45.6,14173],[45.6,14256],[45.6,14339],[45.6,14423],[45.6,14506],[45.6,14590],[45.6,14673],[45.6,14756],[45.6,14840],[45.6,14923],[45.6,15006],[45.6,15089],[45.6,15173],[45.6,15255],[45.6,15339],[45.6,15422],[45.6,15505],[45.6,15588],[45.6,15672],[45.6,15756],[45.6,15839],[45.6,15922],[45.6,16005],[45.6,16088],[45.6,16172],[45.6,16254],[45.6,16338],[45.6,16421],[45.6,16504],[45.6,16587],[45.6,16671],[45.6,16754],[45.6,16838],[45.6,16921],[45.6,17004],[45.6,17088],[45.6,17170],[45.6,17254],[45.6,17337],[45.6,17420],[45.6,17504],[45.6,17587],[45.6,17670],[45.6,17753],[45.6,17836],[45.6,17921],[46.7,18025],[47.5,18103],[48,18186],[48.3,18271],[49.6,18353],[50.8,18436],[50.9,18519],[51.1,18603],[51.2,18686],[51.3,18769],[51.3,18852],[51.3,18935],[51.3,19018],[51.3,19102],[51.3,19185],[50.9,19269],[41.7,19357],[39.6,19441],[39.6,19518],[39.6,19601],[39.6,19685],[39.6,19774],[39.6,19856],[39.6,19934],[39.6,20019],[39.6,20106],[39.6,20191],[39.6,20269],[39.6,20351],[39.6,20434],[39.6,20523],[39.6,20608],[39.6,20683],[39.6,20767],[39.6,20851],[39.6,20933],[39.6,21017],[39.6,21101],[39.6,21184],[39.6,21266],[39.6,21351],[39.6,21437],[39.6,21520],[39.6,21600],[28,21709],[27.8,21788],[27.8,21867],[27.8,21950],[27.8,22033],[27.8,22122],[27.8,22200],[27.8,22282],[27.8,22372],[27.8,22448],[27.8,22538],[27.8,22615],[27.8,22698],[27.8,22786],[27.8,22864],[27.8,22949],[27.8,23031],[27.8,23121],[27.8,23203],[27.8,23281],[27.8,23364],[27.8,23448],[27.8,23530],[27.8,23614],[27.8,23698],[27.8,23787],[27.8,23863],[27.8,23947],[27.8,24037],[27.8,24114],[27.8,24197],[27.8,24280],[27.8,24365],[27.8,24447],[27.8,24530],[27.8,24613],[27.8,24700],[27.8,24779],[27.8,24863],[27.8,24946],[27.8,25030],[27.8,25114],[27.8,25196],[27.8,25279],[27.8,25362],[27.8,25446],[27.8,25537],[27.8,25612],[27.8,25701],[27.8,25778],[27.8,25861],[27.8,25946],[27.8,26028],[27.8,26111],[28.5,26228],[29.2,26295],[29.6,26379],[30.7,26462],[33.2,26545],[34,26645],[34.2,26728],[34.3,26810],[34.3,26894],[34.3,26977],[34.3,27061],[34.3,27143],[34.3,27227],[34.3,27310],[34.3,27393],[34.3,27476],[34.3,27559],[34.3,27643],[34.3,27726],[34.3,27809],[34.3,27893],[34.3,27976],[34.3,28059],[34.3,28143],[34.3,28226],[34.3,28309],[34.3,28392],[34.3,28475],[34.3,28558],[34.3,28641],[34.3,28725],[34.3,28808],[34.3,28892],[34.3,28975],[34.3,29059],[34.3,29142],[34.3,29224],[34.3,29309],[34.3,29391],[34.3,29475],[34.3,29558],[34.3,29641],[34.3,29725]]",1,0,539.2286,539.2383,,,[],,,,539.2386,Half the time,50,539.2517,,,[],,0,0,0,0,1,audio/Narrative13Situation2.wav,audio/Narrative13Situation2.wav,audio/Narrative13Situation2.wav,audio/Narrative13Situation2.wav,2,2,2,2,,,,,503.3994,506.8277,space,2.9035,,,,,,,,,,,,,,,,,,,,,,,,,,,,,
,,,,,,6137d996d42747efa344c1d4,2024-02-08_16h02.15.875,group3.1-3.2-social-tom,2023.2.2,Linux x86_64,60.24096386,65c5074098b851296ff0b7ed,65c5413ef551826588565dad,,,,,,,,,,,,,,,,,,,,,,,,,,,,,539.2529,2,audio/Narrative5Situation1.wav,544.2558,,544.2561,557.5435,"[[37.1,1032],[37.6,1199],[37.2,1282],[37.1,1365],[37.1,1447],[37.1,1531],[37.1,1614],[37.1,1698],[37.1,1780],[37.1,1864],[37.1,1947],[37.1,2030],[37.1,2114],[37.1,2196],[37.1,2280],[37.1,2363],[37.1,2447],[37.1,2530],[36.1,2614],[24.2,2697],[18.5,2788],[17.7,2888],[17.7,2963],[17.7,3047],[17.7,3129],[17.7,3212],[17.7,3295],[17.7,3379],[17.7,3462],[17.7,3545],[17.7,3629],[17.7,3712],[17.7,3795],[17.7,3879],[17.7,3962],[17.7,4046],[17.7,4129],[17.7,4211],[17.7,4294],[17.7,4378],[17.7,4462],[17.7,4544],[17.7,4627],[17.7,4711],[17.7,4794],[17.7,4878],[17.7,4961],[17.7,5044],[17.7,5127],[17.7,5211],[17.7,5294],[17.7,5377],[17.7,5461],[17.8,5544],[18.8,5643],[19.4,5727],[20,5811],[20.5,5894],[20.7,5977],[21.9,6060],[26.4,6144],[27.4,6227],[27.4,6310],[27.4,6393],[27.4,6476],[27.4,6559],[27.4,6643],[27.4,6726],[27.4,6809],[28.2,6893],[32.7,6976],[34,7059],[34.8,7143],[34.8,7225],[34.8,7309],[34.8,7392],[34.8,7475],[34.8,7558],[34.8,7641],[34.8,7725],[34.8,7808],[34.8,7890],[34.8,7974],[34.8,8058],[34.8,8141],[34.8,8224],[34.8,8307],[34.8,8390],[34.8,8474],[34.8,8558],[34.8,8640],[34.8,8724],[34.8,8807],[34.8,8890],[34.8,8974],[34.8,9057],[34.8,9140],[34.8,9223],[34.8,9306],[34.8,9390],[34.8,9473],[34.8,9556],[34.8,9639],[34.8,9722],[34.8,9806],[34.8,9889],[34.8,9972],[34.8,10055],[34.8,10139],[34.8,10221],[34.8,10305],[34.8,10388],[34.8,10471],[34.8,10555],[35.2,10639],[36.5,10723],[37.5,10807],[39,10889],[40.3,10972],[41.7,11056],[43.4,11139],[44.6,11222],[45,11305],[45.5,11389],[46.4,11471],[46.9,11555],[46.9,11637],[46.9,11721],[46.9,11803],[46.9,11887],[46.9,11971],[47.4,12054],[48.1,12138],[48.8,12221],[49.2,12304],[49.4,12388],[49.4,12470],[49.4,12554],[49.4,12637],[49.4,12719],[49.4,12802],[49.4,12886],[49.4,12969],[49.4,13052],[49.4,13135],[49.4,13219]]",1,0,557.5442,559.0572,49.78045623,1.2957,"[{""rating"":49.780456225077316,""responseTime"":0.6585000000000036},{""rating"":49.780456225077316,""responseTime"":1.295700000000238}]",space,0.9653,,559.0575,All the time,100,559.0699,,,[],,0,1,1,1,1,audio/Narrative7Situation1.wav,audio/Narrative8Situation1.wav,audio/Narrative5Situation1.wav,audio/Narrative6Situation1.wav,2,5,5,2,,,,,,,,,,,,,,,,,,,,,,,,,,,,,,,,,,,,,
,,,,,,6137d996d42747efa344c1d4,2024-02-08_16h02.15.875,group3.1-3.2-social-tom,2023.2.2,Linux x86_64,60.24096386,65c5074098b851296ff0b7ed,65c5413ef551826588565dad,,,,,,,,,,,,,,,,,,,,,,,,,,,,,559.0714,2,audio/Narrative5Situation2.wav,562.0885,,562.0887,591.559,"[[51.4,1364],[50.9,1448],[50.6,2281],[50.6,2364],[50.6,2446],[50.6,2529],[50.6,2612],[50.6,2696],[50.6,2778],[50.6,2862],[50.6,2945],[50.6,3029],[50.6,3112],[50.6,3196],[50.6,3278],[50.6,3362],[50.6,3445],[50.6,3528],[50.6,3611],[50.6,3695],[50.6,3778],[50.6,3861],[50.6,3944],[50.6,4028],[50.6,4111],[50.6,4194],[50.6,4277],[50.6,4360],[50.6,4443],[50.6,4528],[50.4,4611],[49,4694],[48.1,4777],[44.5,4861],[43.2,4944],[43,5026],[43,5110],[43,5193],[43,5276],[43,5359],[43,5442],[43,5526],[42,5610],[39.7,5694],[39.4,5786],[39.3,5868],[39.1,5942],[39.1,6026],[39.1,6114],[39.1,6198],[39.1,6276],[39.1,6359],[38.2,6451],[37.4,6527],[36.5,6615],[36.1,6715],[36.1,6791],[36.1,6875],[36.1,6960],[36.1,7041],[36.1,7125],[36.1,7207],[36.1,7291],[36.1,7375],[36.1,7459],[36.1,7541],[36.1,7632],[36.1,7707],[36.1,7797],[36.1,7874],[36.1,7960],[36.1,8040],[35.8,8133],[35.2,8215],[34.7,8297],[34.5,8381],[34.4,8465],[34.2,8547],[34.2,8623],[34.2,8706],[34.2,8795],[34.2,8879],[34.2,8956],[34.2,9039],[34.2,9123],[34.2,9206],[34.2,9290],[34.2,9372],[34.2,9461],[34.2,9538],[34.2,9628],[34.2,9707],[34.2,9788],[34.2,9872],[34.2,9955],[34.4,10047],[34.8,10129],[35.4,10212],[36,10292],[36.5,10379],[36.6,10461],[36.8,10546],[36.8,10620],[36.8,10705],[36.8,10796],[36.8,10870],[36.8,10954],[36.8,11037],[36.8,11121],[36.8,11205],[36.8,11293],[36.8,11371],[36.8,11453],[36.8,11542],[36.8,11625],[36.8,11703],[36.8,11793],[36.8,11870],[36.8,11954],[36.8,12037],[36.8,12125],[36.8,12202],[36.8,12287],[36.8,12369],[36.8,12458],[36.8,12536],[36.8,12619],[36.8,12708],[36.8,12785],[36.8,12870],[36.8,12952],[36.8,13035],[38.5,13120],[38.9,13207],[38.9,13286],[38.9,13368],[38.9,13459],[38.9,13535],[38.9,13618],[38.9,13701],[40.6,13791],[41.2,13876],[41.2,13951],[41.2,14039],[41.2,14118],[41.2,14203],[41.2,14284],[41.2,14368],[41.2,14451],[41.2,14534],[41.2,14623],[41.2,14700],[41.2,14783],[41.2,14867],[41.2,14958],[45.3,15040],[46,15126],[46.6,15210],[47.3,15289],[47.4,15373],[47.8,15458],[48.6,15540],[48.8,15617],[48.8,15699],[48.8,15782],[48.8,15867],[48.8,15954],[48.8,16037],[48.8,16116],[48.8,16204],[48.8,16282],[49.1,16373],[50.1,16456],[50.4,16538],[50.5,16614],[50.5,16698],[50.5,16785],[50.5,16873],[52.4,16955],[53.7,17037],[54.3,17117],[55.6,17205],[56.5,17288],[57.3,17373],[57.3,17452],[57.3,17531],[57.3,17614],[57.3,17707],[57.3,17781],[58,17889],[59.1,17970],[59.6,18048],[60,18133],[60.4,18219],[60.6,18304],[60.6,18380],[60.6,18468],[60.6,18546],[60.6,18629],[61,18720],[62.3,18804],[62.8,18890],[63,18968],[63,19047],[63,19130],[63,19212],[63,19304],[63,19378],[63,19463],[63.6,19552],[64.6,19636],[65.1,19718],[65.3,19803],[65.3,19882],[65.3,19963],[65.3,20045],[65.3,20133],[65.3,20219],[65.3,20295],[65.3,20379],[65.5,20464],[66.5,20554],[66.8,20633],[66.9,20716],[66.9,20793],[66.9,20877],[66.9,20966],[66.9,21045],[66.9,21127],[66.9,21211],[66.9,21302],[66.9,21377],[66.9,21465],[66.9,21543],[66.9,21627],[66.9,21709],[67.5,21812],[67.9,21893],[68.2,21976],[68.3,22060],[68.4,22142],[68.4,22226],[68.4,22309],[68.4,22392],[68.4,22476],[68.4,22559],[68.4,22642],[68.4,22726],[68.4,22808],[68.4,22892],[68.4,22975],[68.4,23058],[68.4,23142],[68.4,23225],[68.4,23308],[68.4,23392],[68.4,23475],[68.4,23558],[68.4,23641],[68.4,23725],[68.4,23807],[68.4,23891],[68.4,23974],[68.4,24057],[68.4,24140],[68.4,24224],[68.4,24307],[68.4,24390],[68.4,24474],[68.4,24556],[68.4,24639],[68.4,24723],[68.4,24806],[68.4,24890],[68.4,24973],[68.4,25056],[68.4,25139],[68.4,25223],[68.4,25306],[68.4,25390],[68.4,25472],[68.4,25556],[68.4,25639],[68.4,25722],[68.4,25806],[68.4,25889],[68.4,25972],[68.4,26055],[68.4,26139],[68.4,26221],[68.4,26305],[68.4,26388],[68.4,26471],[68.4,26555],[68.4,26638],[68.4,26721],[68.4,26804],[68.4,26887],[68.4,26971],[68.4,27054],[68.4,27137],[68.4,27220],[68.4,27304],[68.4,27388],[68.4,27470],[68.4,27554],[68.4,27637],[68.4,27720],[68.4,27804],[68.4,27886],[68.4,27970],[68.4,28053],[68.4,28136],[68.4,28220],[68.4,28303],[68.4,28387],[68.4,28469],[68.4,28552],[68.4,28636],[68.8,28724],[69.1,28803],[69.3,28903],[70,28987],[71.9,29070],[72.5,29153],[72.8,29236],[73.2,29319],[73.7,29403]]",1,0,591.56,593.2894,77.07139651,1.605,"[{""rating"":77.07139650980632,""responseTime"":1.157800000000293},{""rating"":77.07139650980632,""responseTime"":1.6050000000000182}]",space,1.1861,,593.2895,All the time,100,593.2955,,,[],,0,2,2,2,1,audio/Narrative7Situation2.wav,audio/Narrative8Situation2.wav,audio/Narrative5Situation2.wav,audio/Narrative6Situation2.wav,3,3,3,3,,,,,,,,,,,,,,,,,,,,,,,,,,,,,,,,,,,,,
,,,,,,6137d996d42747efa344c1d4,2024-02-08_16h02.15.875,group3.1-3.2-social-tom,2023.2.2,Linux x86_64,60.24096386,65c5074098b851296ff0b7ed,65c5413ef551826588565dad,,,,,,,,,,,,,,,,,,,,,,,,,,,,,593.2962,2,audio/Narrative5Situation3.wav,596.3031,,596.3033,610.2247,"[[77.3,3862],[68.3,4213],[66.6,4295],[66.4,4378],[66.4,4461],[66.4,4544],[66.4,4627],[58.6,4712],[54.7,4795],[54,4878],[53.5,4961],[53.2,5045],[51,5128],[50,5211],[49.9,5293],[49.9,5377],[49.9,5460],[49.9,5543],[49.9,5626],[49.9,5710],[49.9,5793],[49.9,5876],[49.9,5960],[49.9,6043],[52.2,6127],[53.1,6210],[59.1,6293],[60.5,6378],[60.5,6459],[60.5,6542],[60.5,6625],[60.5,6709],[60.5,6792],[60.5,6875],[60.5,6958],[60.5,7042],[60.5,7125],[60.5,7209],[60.5,7291],[60.5,7375],[60.5,7458],[60.5,7541],[60.5,7624],[60.5,7708],[60.5,7791],[60.5,7875],[60.5,7957],[60.5,8041],[60.5,8124],[60.5,8207],[60.5,8290],[60.5,8374],[60.5,8458],[60.5,8541],[60.5,8624],[60.5,8707],[60.5,8790],[60.5,8874],[60.5,8956],[60.5,9040],[60.5,9123],[60.5,9207],[60.5,9290],[60.5,9372],[60.5,9456],[60.5,9540],[60.5,9622],[60.5,9706],[60.5,9789],[60.5,9873],[60.5,9956],[60.5,10039],[60.5,10122],[60.5,10205],[60.5,10288],[60.7,10373],[63.7,10474],[65.7,10555],[67.2,10639],[68.5,10722],[69.5,10806],[70.4,10889],[70.5,10970],[70.5,11054],[70.5,11137],[70.5,11221],[70.5,11304],[70.5,11387],[70.5,11471],[70.5,11555],[70.5,11637],[70.5,11720],[70.5,11803],[70.5,11888],[70.5,11970],[70.5,12054],[70.5,12137],[70.5,12220],[70.5,12303],[70.5,12386],[70.5,12469],[70.5,12553],[70.5,12635],[70.5,12719],[70.5,12802],[70.5,12886],[70.5,12969],[70.5,13052],[70.5,13135],[70.5,13219],[70.5,13301],[70.5,13385],[70.5,13468],[70.4,13573],[70.2,13653],[70.2,13735],[70.2,13819],[70.2,13903]]",1,0,610.2255,611.7534,69.86534595,1.1203,"[{""rating"":69.86534595489502,""responseTime"":1.1202999999998156}]",space,0.9913,,611.7535,Half the time,50,611.763,,,[],,0,3,3,3,1,audio/Narrative7Situation3.wav,audio/Narrative8Situation3.wav,audio/Narrative5Situation3.wav,audio/Narrative6Situation3.wav,8,4,3,5,,,,,,,,,,,,,,,,,,,,,,,,,,,,,,,,,,,,,
,,,,,,6137d996d42747efa344c1d4,2024-02-08_16h02.15.875,group3.1-3.2-social-tom,2023.2.2,Linux x86_64,60.24096386,65c5074098b851296ff0b7ed,65c5413ef551826588565dad,,,,,,,,,,,,,,,,,,,,,,,,,,,,,611.7639,2,audio/Narrative5Situation4.wav,612.7693,,612.7695,633.1662,"[[58.4,6260],[57.6,6343],[57.6,6427],[57.8,6510],[57.9,6592],[57.9,6676],[57.9,6759],[57.9,6842],[57.9,6927],[57.9,7008],[57.9,7092],[61.2,7176],[61.6,7258],[61.7,7342],[61.7,7425],[61.7,7508],[61.7,7591],[61.7,7674],[61.7,7757],[61.7,7841],[67.5,7926],[72.3,8009],[74.8,8093],[76.4,8175],[77.4,8264],[81.4,8351],[82.5,8431],[86.9,8514],[88.6,8599],[88.6,8676],[88.6,8761],[88.6,8840],[88.6,8923],[88.6,9014],[88.6,9091],[88.6,9180],[88.6,9257],[88.6,9339],[88.6,9424],[88.6,9507],[88.6,9590],[88.6,9673],[88.6,9756],[88.6,9840],[88.6,9928],[88.6,10005],[88.6,10094],[88.6,10173],[88.6,10255],[88.6,10339],[88.6,10422],[88.6,10505],[88.6,10588],[88.6,10671],[88.6,10761],[88.6,10843],[88.6,10928],[88.6,11005],[88.6,11088],[88.6,11171],[88.6,11254],[88.6,11342],[88.6,11422],[88.6,11504],[88.6,11593],[88.6,11670],[88.6,11754],[88.6,11844],[88.6,11920],[88.6,12003],[88.6,12087],[88.6,12170],[88.6,12254],[88.6,12337],[88.6,12421],[88.6,12505],[88.6,12592],[88.6,12670],[88.6,12753],[88.6,12836],[88.6,12919],[88.6,13010],[88.6,13086],[88.6,13177],[88.6,13257],[88.6,13336],[88.6,13419],[88.6,13502],[88.6,13592],[88.6,13668],[88.6,13756],[88.6,13835],[88.6,13919],[88.6,14002],[88.6,14091],[88.6,14174],[88.6,14251],[88.6,14335],[88.6,14418],[88.6,14503],[88.6,14588],[88.6,14669],[88.6,14757],[88.6,14834],[88.6,14918],[88.6,15001],[88.6,15090],[88.6,15168],[88.6,15251],[88.6,15334],[88.6,15417],[88.6,15501],[88.6,15590],[88.6,15667],[88.6,15755],[88.6,15833],[88.6,15918],[88.6,16000],[88.6,16083],[88.6,16171],[88.6,16250],[88.6,16333],[88.6,16422],[88.6,16500],[88.6,16583],[88.6,16671],[88.6,16751],[88.6,16832],[88.6,16915],[88.6,16999],[88.6,17089],[88.6,17166],[89.3,17268],[90.6,17349],[93.6,17432],[94.1,17532],[94.3,17615],[94.4,17699],[94.4,17781],[94.4,17864],[94.4,17947],[94.4,18031],[94.4,18114],[96.4,18198],[98.9,18281],[99,18364],[99,18447],[99,18530],[99,18614],[99,18697],[99,18780],[99,18863],[99,18946],[99,19030],[99,19113],[99.2,19197],[99.4,19280],[99.5,19363],[99.7,19447],[99.8,19531],[99.9,19613],[99.9,19697],[99.9,19779],[99.9,19863],[99.9,19946],[100,20029],[100,20112],[100,20195],[100,20279],[100,20362]]",1,0,633.1669,634.2477,99.96938705,0.5231,"[{""rating"":99.96938705444336,""responseTime"":0.5231000000001131}]",space,0.5412,,634.2479,Not at all,0,634.2585,,,[],,0,4,4,4,1,audio/Narrative7Situation4.wav,audio/Narrative8Situation4.wav,audio/Narrative5Situation4.wav,audio/Narrative6Situation4.wav,3,3,1,2,,,,,,,,,,,,,,,,,,,,,,,,,,,,,,,,,,,,,
,,,,,,6137d996d42747efa344c1d4,2024-02-08_16h02.15.875,group3.1-3.2-social-tom,2023.2.2,Linux x86_64,60.24096386,65c5074098b851296ff0b7ed,65c5413ef551826588565dad,,,,,,,,,,,,,,,,,,,,,,,,,,,,,634.2595,2,audio/Narrative5Situation5.wav,639.2756,,639.2758,654.6947,"[[99.5,1615],[98.3,1700],[94.7,1781],[77.5,2864],[75.3,2947],[74.5,3030],[74.1,3114],[73.9,3197],[73.8,3280],[73.8,3364],[73.8,3446],[73.8,3528],[73.8,3612],[73.8,3695],[73.8,3779],[73.8,3862],[73.8,3945],[73.8,4028],[73.8,4111],[73.8,4195],[73.8,4278],[73.8,4361],[73.8,4444],[73.8,4528],[73.8,4611],[73.8,4694],[73.8,4780],[73.8,4860],[73.8,4944],[73.8,5027],[70.2,5111],[69.2,5195],[69,5278],[68.8,5361],[68.1,5445],[64.2,5528],[64,5610],[64,5693],[64,5776],[64,5860],[64,5943],[64,6027],[64,6110],[64,6192],[64,6276],[64,6359],[64,6444],[64,6527],[64,6609],[64,6692],[64,6777],[64,6859],[64,6942],[64,7025],[64,7108],[64,7192],[64,7277],[64,7358],[64,7442],[64,7525],[64,7608],[64,7691],[64,7774],[64,7858],[64,7941],[64,8024],[64,8107],[64,8191],[64.5,8275],[65.1,8358],[65.2,8441],[65.2,8525],[65.2,8607],[65.2,8690],[65.2,8773],[65.2,8856],[65.2,8939],[65.2,9024],[65.2,9107],[65.2,9190],[65.2,9274],[65.2,9357],[65.2,9439],[65.2,9523],[65.2,9606],[65.2,9690],[65.2,9773],[65.2,9856],[65.2,9939],[65.2,10022],[65.2,10105],[65.2,10189],[65.2,10272],[65.2,10355],[65.2,10438],[65.2,10522],[65.2,10606],[65.2,10688],[65.2,10771],[65.2,10855],[65.2,10938],[65.2,11022],[65.2,11105],[65.2,11188],[65.2,11271],[65.2,11355],[65.2,11437],[65.2,11522],[65.2,11604],[65.2,11687],[65.2,11770],[65.2,11854],[65.2,11937],[65.2,12021],[65.2,12103],[65.2,12186],[65.2,12270],[65.2,12354],[65.2,12437],[65.2,12520],[65.2,12603],[65.2,12686],[65.2,12770],[65.2,12853],[65.2,12937],[65.2,13019],[65.2,13103],[65.2,13186],[65.2,13269],[65.2,13352],[65.2,13435],[65.2,13519],[65.2,13603],[65.2,13685],[65.2,13769],[65.2,13851],[65.2,13935],[65.2,14019],[65.2,14101],[65.2,14185],[65.2,14268],[65.2,14351],[65.2,14434],[65.2,14518],[65.2,14601],[65.2,14684],[65.2,14767],[65.2,14851],[65.2,14935],[65.2,15017],[65.2,15100],[65.2,15183],[63.4,15268],[59.6,15367]]",1,0,654.6955,656.4936,59.23431714,0.7919,"[{""rating"":59.23431714375814,""responseTime"":0.7919000000002825}]",space,1.2587,,656.4939,Half the time,50,656.5089,,,[],,0,5,5,5,1,audio/Narrative7Situation5.wav,audio/Narrative8Situation5.wav,audio/Narrative5Situation5.wav,audio/Narrative6Situation5.wav,5,2,5,2,,,,,,,,,,,,,,,,,,,,,,,,,,,,,,,,,,,,,
,,,,,,6137d996d42747efa344c1d4,2024-02-08_16h02.15.875,group3.1-3.2-social-tom,2023.2.2,Linux x86_64,60.24096386,65c5074098b851296ff0b7ed,65c5413ef551826588565dad,,,,,,,,,,,,,,,,,,,,,,,,,,,,,656.5103,2,audio/Narrative5Situation6.wav,659.5219,,659.5221,665.1994,"[[57.7,1582],[57.6,1665],[57.6,1748],[57.6,1831],[57.6,1913],[57.6,1997],[57.6,2080],[57.6,2164],[57.6,2247],[57.6,2330],[57.6,2413],[57.6,2497],[57.6,2580],[57.6,2663],[57.6,2746],[57.6,2830],[57.6,2912],[57.6,2997],[57.6,3079],[57.6,3163],[57.6,3245],[57.6,3331],[57.6,3412],[57.6,3496],[57.6,3579],[57.6,3662],[57.9,3745],[58.7,3829],[58.9,3912],[59.1,3995],[59.2,4079],[59.5,4162],[59.6,4245],[59.6,4328],[59.6,4412],[59.6,4494],[59.6,4577],[59.6,4661],[59.6,4744],[59.6,4828],[59.6,4910],[59.6,4994],[59.6,5078],[59.6,5161],[59.6,5244],[59.6,5327],[59.6,5410],[59.6,5495],[59.6,5576],[59.6,5661]]",1,0,665.1999,666.8518,55.74639638,0.8906,"[{""rating"":55.74639638264974,""responseTime"":0.8906000000000631}]",space,1.1146,,666.8523,Not at all,0,666.8649,,,[],,0,6,6,6,1,audio/Narrative7Situation6.wav,audio/Narrative8Situation6.wav,audio/Narrative5Situation6.wav,audio/Narrative6Situation6.wav,3,2,3,2,,,,,,,,,,,,,,,,,,,,,,,,,,,,,,,,,,,,,
,,,,,,6137d996d42747efa344c1d4,2024-02-08_16h02.15.875,group3.1-3.2-social-tom,2023.2.2,Linux x86_64,60.24096386,65c5074098b851296ff0b7ed,65c5413ef551826588565dad,,,,,,,,,,,,,,,,,,,,,,,,,,,,,666.8663,2,audio/Narrative5Situation7.wav,670.8768,,670.877,691.9229,"[[55.4,1033],[57.4,1115],[55.1,1532],[54.6,1615],[54.6,1698],[54.6,1780],[54.6,1864],[54.6,1948],[54.6,2031],[54.6,2113],[54.6,2197],[54.6,2280],[54.6,2364],[54.9,2448],[56.4,2531],[58.1,2614],[59.6,2697],[61,2781],[62.5,2864],[65.6,2948],[66.4,3030],[66.4,3112],[66.4,3197],[66.4,3279],[66.4,3363],[66.4,3445],[66.4,3529],[66.4,3613],[66.4,3695],[66.4,3778],[66.4,3862],[66.4,3945],[66.4,4029],[66.4,4111],[66.4,4195],[66.4,4278],[66.4,4361],[66.4,4444],[66.4,4528],[66.4,4611],[66.4,4695],[66.4,4777],[66.4,4861],[66.4,4944],[66.4,5027],[66.4,5112],[66.4,5194],[66.4,5277],[66.4,5361],[66.4,5443],[66.4,5527],[66.4,5610],[66.4,5693],[66.4,5776],[66.4,5860],[66.4,5943],[66.4,6027],[66.4,6109],[66.4,6193],[66.4,6277],[66.4,6360],[66.4,6443],[66.4,6526],[66.4,6609],[66.4,6692],[66.4,6776],[66.4,6859],[66.4,6943],[66.4,7025],[66.4,7109],[66.4,7192],[66.4,7275],[66.4,7358],[66.4,7441],[66.4,7525],[66.4,7609],[66.4,7691],[66.4,7775],[66.4,7858],[66.4,7941],[63.8,8025],[38.4,8374],[41.9,8458],[42.2,8540],[42.2,8624],[42.2,8707],[42.2,8789],[42.2,8873],[42.2,8956],[42.2,9040],[42.2,9123],[42.2,9207],[42.4,9298],[42.5,9375],[42.5,9456],[42.5,9539],[42.5,9624],[42.6,9714],[43.2,9793],[44.7,9879],[45.5,9962],[45.6,10047],[45.6,10122],[45.6,10206],[45.6,10289],[45.6,10372],[45.6,10456],[45.6,10539],[45.6,10622],[45.6,10713],[45.6,10789],[45.6,10877],[45.6,10962],[45.6,11038],[45.6,11126],[45.6,11205],[45.6,11288],[45.6,11375],[45.6,11455],[45.6,11538],[45.6,11627],[45.6,11704],[45.6,11787],[45.6,11871],[45.6,11954],[45.6,12037],[45.6,12120],[45.6,12212],[45.6,12294],[47.2,12379],[47.6,12462],[47.9,12543],[48.3,12629],[48.4,12705],[48.6,12793],[48.7,12877],[48.7,12953],[48.7,13036],[48.7,13120],[48.7,13202],[48.7,13287],[48.7,13377],[48.7,13452],[48.7,13535],[48.7,13619],[48.7,13707],[48.7,13792],[48.7,13869],[48.7,13953],[48.7,14036],[48.7,14119],[48.7,14207],[48.7,14285],[48.7,14369],[48.7,14451],[48.7,14537],[48.7,14617],[48.7,14702],[48.7,14784],[48.7,14868],[48.7,14951],[48.7,15034],[48.7,15118],[48.7,15206],[48.7,15291],[48.7,15367],[48.7,15452],[48.7,15533],[48.7,15617],[48.7,15700],[48.7,15784],[48.7,15871],[48.7,15951],[48.7,16034],[48.7,16116],[48.7,16199],[48.7,16290],[48.7,16366],[48.7,16449],[48.7,16532],[48.7,16620],[48.7,16700],[48.7,16783],[48.7,16866],[48.7,16949],[48.7,17032],[48.7,17124],[48.7,17208],[48.7,17282],[48.7,17365],[48.7,17448],[48.7,17532],[48.7,17615],[48.7,17705],[48.7,17781],[48.7,17865],[48.7,17948],[48.7,18031],[48.7,18115],[48.7,18204],[48.7,18281],[48.7,18364],[48.7,18454],[48.7,18531],[48.7,18614],[48.7,18697],[48.7,18781],[48.7,18870],[48.7,18947],[48.7,19030],[48.7,19113],[48.7,19198],[48.7,19285],[48.7,19363],[48.7,19446],[48.7,19529],[48.7,19613],[48.7,19697],[48.7,19779],[48.7,19864],[48.7,19945],[48.7,20029],[48.7,20113],[48.7,20195],[48.7,20279],[48.7,20362],[48.7,20445],[48.7,20528],[48.7,20612],[48.7,20695],[48.7,20786],[48.7,20861],[48.7,20946],[48.7,21028]]",1,0,691.9238,698.5483,47.727259,5.9635,"[{""rating"":47.72725900014241,""responseTime"":5.963500000000067}]",space,6.0819,,698.5486,Half the time,50,698.5597,,,[],,0,7,7,7,1,audio/Narrative7Situation7.wav,audio/Narrative8Situation7.wav,audio/Narrative5Situation7.wav,audio/Narrative6Situation7.wav,5,3,4,5,,,,,,,,,,,,,,,,,,,,,,,,,,,,,,,,,,,,,
,,,,,,6137d996d42747efa344c1d4,2024-02-08_16h02.15.875,group3.1-3.2-social-tom,2023.2.2,Linux x86_64,60.24096386,65c5074098b851296ff0b7ed,65c5413ef551826588565dad,,,,,,,,,,,,,,,,,,,,,,,,,,,,,698.5608,2,audio/Narrative5Situation8.wav,701.5617,,701.5619,710.3721,"[[48,4180],[61.2,4762],[61.2,4845],[61.2,4928],[61.2,5011],[61.2,5094],[61.2,5177],[66.8,5262],[68.9,5345],[69.1,5427],[69.1,5511],[69.1,5594],[69.1,5678],[69.1,5760],[69.1,5845],[69.1,5927],[69.1,6011],[69.1,6093],[69.1,6177],[69.1,6265],[69.1,6343],[69.1,6426],[69.1,6509],[69.1,6594],[69.1,6676],[69.1,6760],[69.1,6842],[69.1,6926],[69.1,7009],[69.1,7092],[69.1,7175],[69.1,7259],[69.1,7342],[69.1,7425],[69.1,7509],[69.1,7592],[69.1,7676],[69.1,7759],[69.1,7842],[69.1,7925],[69.1,8008],[69.1,8091],[69.1,8175],[69.1,8257],[69.1,8341],[69.5,8428],[79.6,8509],[80.6,8592],[80.7,8674],[81.3,8758]]",1,0,710.3727,711.4686,87.74940173,0.5398,"[{""rating"":87.74940172831218,""responseTime"":0.5398000000003549}]",space,0.552,,711.4689,Not at all,0,711.4827,,,[],,0,8,8,8,1,audio/Narrative7Situation8.wav,audio/Narrative8Situation8.wav,audio/Narrative5Situation8.wav,audio/Narrative6Situation8.wav,2,3,3,5,,,,,,,,,,,,,,,,,,,,,,,,,,,,,,,,,,,,,
,,,,,,6137d996d42747efa344c1d4,2024-02-08_16h02.15.875,group3.1-3.2-social-tom,2023.2.2,Linux x86_64,60.24096386,65c5074098b851296ff0b7ed,65c5413ef551826588565dad,,,,,,,,,,,,,,,,,,,,,,,,,,,,,711.4839,2,audio/Narrative5Situation9.wav,714.4995,,714.4998,754.0425,"[[91.3,5793],[92.4,5877],[92.4,6043],[86.9,6127],[85.8,6209],[84.2,6293],[80.8,6376],[80.5,6458],[80.5,6541],[80.5,6625],[80.5,6708],[80.5,6791],[80.5,6875],[80.5,6959],[80.5,7042],[80.5,7125],[80.5,7208],[80.5,7291],[80.5,7374],[80.5,7457],[80.5,7540],[80.5,7624],[80.5,7707],[80.5,7790],[80.5,7874],[80.5,7958],[80.5,8040],[80.5,8124],[80.5,8207],[80.5,8290],[80.5,8373],[80.5,8457],[80.5,8540],[80.5,8623],[80.5,8706],[80.5,8790],[80.5,8873],[80.5,8956],[80.5,9039],[80.5,9122],[80.5,9206],[80.5,9290],[80.5,9373],[80.5,9456],[80.5,9539],[80.5,9622],[80.5,9706],[80.5,9788],[80.5,9872],[80.5,9955],[80.5,10038],[80.5,10123],[80.5,10205],[80.5,10288],[80.5,10371],[80.5,10454],[80.5,10538],[80.5,10621],[80.5,10704],[80.5,10788],[80.5,10870],[80.5,10954],[80.5,11038],[80.5,11121],[80.5,11204],[80.5,11286],[80.5,11370],[80.5,11454],[80.5,11536],[80.5,11620],[80.5,11704],[80.5,11787],[80.5,11870],[80.5,11953],[80.5,12036],[80.5,12120],[80.5,12203],[80.5,12287],[80.5,12370],[80.5,12452],[80.5,12535],[80.5,12619],[80.5,12702],[80.5,12786],[80.5,12868],[80.5,12952],[80.5,13035],[80.5,13119],[80.5,13202],[80.5,13286],[80.5,13369],[80.5,13451],[80.5,13536],[80.5,13619],[80.5,13701],[82.9,13802],[84.2,13885],[86.3,13968],[86.8,14051],[86.9,14135],[87,14226],[87,14301],[87,14384],[87,14473],[87,14551],[87,14634],[87,14717],[87,14806],[87,14890],[87,14967],[87,15051],[87,15133],[87,15224],[87,15305],[87,15388],[87,15467],[87,15549],[87,15638],[87,15717],[87,15799],[87,15887],[87,15966],[87,16049],[87,16132],[87,16216],[87,16300],[87,16383],[87,16467],[87,16548],[87,16637],[87,16715],[87,16805],[87,16886],[87,16964],[87,17053],[87,17136],[87,17215],[87,17298],[87,17383],[87,17464],[87,17548],[87,17633],[87,17713],[87,17798],[87,17881],[87,17963],[87,18052],[87,18130],[87,18214],[87,18302],[87,18380],[87,18465],[87,18547],[87,18630],[87,18713],[87,18801],[87,18886],[87,18963],[87,19046],[87,19136],[87,19219],[87,19302],[87,19380],[87,19463],[87,19545],[87,19629],[87,19716],[87,19796],[87,19884],[87,19967],[87,20045],[87,20128],[87,20217],[87,20295],[87,20382],[87,20462],[87,20545],[87,20627],[87,20711],[87,20799],[87,20877],[87,20961],[87,21044],[87,21128],[87,21211],[87,21294],[87,21382],[87,21461],[87,21543],[87,21626],[87,21709],[87,21797],[87,21881],[87,21960],[87,22043],[87,22132],[87,22209],[87,22292],[87,22375],[90.7,22495],[92.3,22577],[94,22659],[95.7,22742],[96.4,22826],[96.5,22908],[96.5,22992],[96.5,23076],[96.5,23159],[99.9,23243],[100,23326],[100,23409],[100,23492],[100,23574],[100,23658],[100,23741],[100,23824],[100,23907],[100,23990],[100,24074],[100,24157],[100,24240],[100,24323],[100,24407],[100,24491],[100,24573],[100,24657],[100,24740],[100,24823],[100,24906],[100,24990],[100,25073],[100,25156],[100,25239],[100,25323],[100,25406],[100,25489],[100,25573],[100,25656],[100,25739],[100,25822],[100,25905],[100,25988],[100,26072],[100,26155],[100,26238],[100,26322],[100,26405],[100,26488],[100,26571],[100,26655],[100,26738],[100,26821],[100,26904],[100,26988],[100,27072],[100,27155],[100,27237],[100,27320],[100,27403],[100,27488],[100,27570],[100,27654],[100,27736],[100,27820],[100,27903],[100,27986],[100,28070],[100,28154],[100,28236],[100,28320],[100,28403],[100,28486],[100,28569],[100,28653],[100,28736],[100,28818],[100,28902],[100,28986],[100,29068],[100,29153],[100,29235],[100,29320],[100,29402],[100,29485],[100,29568],[100,29651],[100,29735],[100,29818],[100,29901],[100,29985],[100,30069],[100,30151],[100,30235],[100,30317],[100,30401],[100,30484],[100,30568],[100,30651],[100,30734],[100,30817],[100,30901],[100,30984],[100,31067],[100,31150],[100,31233],[100,31317],[100,31400],[100,31484],[100,31567],[100,31650],[100,31733],[100,31816],[100,31900],[100,31982],[100,32066],[100,32149],[100,32232],[100,32315],[100,32399],[100,32482],[100,32566],[100,32649],[100,32732],[100,32816],[100,32898],[100,32982],[100,33064],[100,33148],[100,33232],[100,33315],[100,33398],[100,33482],[100,33565],[100,33648],[100,33731],[100,33814],[100,33897],[100,33981],[100,34064],[100,34148],[100,34230],[100,34314],[100,34397],[100,34481],[100,34563],[100,34647],[100,34730],[100,34813],[100,34897],[100,34979],[100,35063],[100,35147],[100,35230],[100,35313],[100,35396],[100,35479],[100,35562],[100,35646],[100,35730],[100,35812],[100,35895],[100,35979],[100,36062],[100,36145],[100,36228],[100,36311],[100,36395],[100,36478],[100,36561],[100,36645],[100,36727],[100,36811],[100,36894],[100,36977],[100,37060],[100,37144],[100,37227],[100,37311],[100,37393],[100,37478],[100,37560],[100,37643],[100,37728],[100,37810],[100,37893],[100,37976],[100,38060],[100,38143],[100,38226],[100,38309],[100,38393],[100,38476],[100,38560],[100,38643],[100,38726],[100,38809],[100,38892],[100,38976],[100,39058],[100,39159],[100,39242],[100,39325],[100,39409],[100,39492]]",1,0,754.0431,756.1896,99.38925107,1.1907,"[{""rating"":99.38925107320149,""responseTime"":1.1906999999997652}]",space,1.6054,,756.1898,All the time,100,756.1998,,,[],,0,9,9,9,1,audio/Narrative7Situation9.wav,audio/Narrative8Situation9.wav,audio/Narrative5Situation9.wav,audio/Narrative6Situation9.wav,2,3,3,4,,,,,,,,,,,,,,,,,,,,,,,,,,,,,,,,,,,,,
,,,,,,6137d996d42747efa344c1d4,2024-02-08_16h02.15.875,group3.1-3.2-social-tom,2023.2.2,Linux x86_64,60.24096386,65c5074098b851296ff0b7ed,65c5413ef551826588565dad,,,,,,,,,,,,,,,,,,,,,,,,,,,,,756.2007,2,audio/Narrative6Situation1.wav,758.2048,,758.2053,784.8111,"[[86.4,10672],[80,10755],[77.8,10839],[77.6,10920],[77.6,11005],[77.6,11087],[77.6,11170],[77.6,11254],[77.6,11337],[77.6,11420],[77.6,11503],[77.6,11586],[77.6,11670],[77.6,11753],[75.1,11837],[71.5,11921],[70.9,12004],[70.9,12086],[70.9,12169],[70.9,12253],[70.9,12336],[70,12420],[68.7,12503],[68,12586],[67.9,12669],[67.9,12753],[67.9,12835],[67.9,12919],[67.9,13002],[67.9,13086],[67.9,13170],[67.9,13252],[67.9,13335],[67.9,13418],[67.9,13501],[67.9,13585],[67.9,13668],[67.9,13750],[67.9,13834],[67.9,13918],[67.9,14001],[67.9,14085],[67.9,14168],[67.9,14251],[67.9,14334],[67.9,14417],[67.9,14501],[67.9,14584],[67.9,14668],[67.9,14750],[67.9,14833],[67.9,14918],[67.9,15000],[67.9,15083],[68.4,15168],[70,15250],[70.3,15339],[70.4,15416],[70.4,15499],[70.4,15583],[70.4,15666],[70.4,15750],[70.4,15832],[70.4,15917],[70.4,15999],[70.4,16083],[70.4,16166],[70.7,16250],[72.3,16333],[72.7,16417],[72.8,16503],[72.8,16581],[72.8,16665],[72.8,16749],[72.8,16832],[72.8,16918],[72.8,16999],[72.8,17081],[72.8,17164],[72.8,17254],[72.8,17333],[72.8,17415],[72.8,17498],[72.8,17581],[72.8,17665],[72.8,17748],[72.8,17831],[72.8,17919],[72.8,18004],[72.8,18081],[72.8,18164],[72.8,18247],[72.8,18331],[72.8,18413],[72.8,18497],[72.8,18587],[72.8,18663],[72.8,18747],[72.8,18829],[72.8,18918],[72.8,18996],[72.8,19080],[72.8,19168],[72.8,19246],[72.8,19329],[72.8,19413],[72.8,19495],[72.8,19579],[72.8,19663],[72.8,19745],[72.8,19828],[72.8,19912],[72.8,19995],[72.8,20085],[72.8,20162],[72.8,20245],[72.8,20329],[72.8,20412],[72.8,20495],[72.8,20578],[72.8,20662],[72.8,20745],[72.8,20827],[72.8,20910],[72.8,20994],[72.8,21078],[72.8,21162],[72.8,21249],[73.1,21333],[74.4,21427],[75.5,21511],[76.3,21595],[77.2,21678],[77.6,21760],[77.7,21843],[77.7,21927],[77.7,22010],[77.7,22093],[77.7,22176],[77.7,22260],[77.7,22343],[77.7,22426],[77.7,22509],[77.7,22592],[77.7,22675],[77.7,22759],[77.7,22843],[77.7,22925],[77.7,23009],[77.7,23108],[77.7,23191],[77.7,23276],[77.7,23358],[77.7,23441],[77.7,23525],[77.7,23608],[77.7,23691],[77.7,23774],[77.7,23858],[77.7,23941],[77.7,24024],[77.7,24107],[77.7,24190],[77.7,24273],[77.7,24357],[77.7,24440],[77.7,24523],[77.7,24606],[77.7,24690],[77.7,24774],[77.7,24857],[77.7,24940],[77.7,25022],[77.7,25106],[77.7,25189],[77.7,25273],[77.7,25356],[77.7,25439],[77.7,25522],[77.7,25606],[77.7,25689],[77.7,25778],[77.7,25855],[77.7,25939],[77.7,26022],[77.7,26106],[77.7,26188],[77.7,26272],[77.7,26355],[77.7,26438],[77.7,26522],[77.7,26605]]",1,0,784.8118,786.6087,78.07320754,0.7824,"[{""rating"":78.07320753733318,""responseTime"":0.782399999999825}]",space,1.2498,,786.6089,All the time,100,786.6144,,,[],,0,10,10,10,1,audio/Narrative8Situation1.wav,audio/Narrative7Situation1.wav,audio/Narrative6Situation1.wav,audio/Narrative5Situation1.wav,5,2,2,5,,,,,,,,,,,,,,,,,,,,,,,,,,,,,,,,,,,,,
,,,,,,6137d996d42747efa344c1d4,2024-02-08_16h02.15.875,group3.1-3.2-social-tom,2023.2.2,Linux x86_64,60.24096386,65c5074098b851296ff0b7ed,65c5413ef551826588565dad,,,,,,,,,,,,,,,,,,,,,,,,,,,,,786.6156,2,audio/Narrative6Situation2.wav,789.623,,789.6232,818.1272,"[[78.9,1415],[79.1,1498],[79,1581],[78.1,1665],[77.8,1748],[77.8,1830],[77.8,1914],[77.8,1997],[77.8,2081],[77.8,2163],[77.8,2246],[77.8,2330],[77.8,2413],[77.8,2496],[77.8,2579],[77.8,2663],[76.1,2747],[75.3,2830],[75,2914],[75,2996],[75,3079],[75,3162],[75,3246],[75,3330],[75,3429],[57.1,3513],[55.9,3596],[55.6,3679],[55.5,3761],[55.5,3844],[55.5,3928],[55.5,4011],[55.5,4096],[55.5,4178],[55.5,4261],[55.5,4344],[55.5,4427],[55.5,4511],[57.2,4595],[59.9,4678],[60.9,4761],[61.8,4844],[62.5,4927],[62.5,5010],[62.5,5094],[62.5,5176],[62.5,5261],[62.5,5343],[62.5,5427],[62.5,5509],[62.5,5593],[62.5,5676],[62.5,5761],[62.5,5843],[62.5,5926],[62.5,6009],[62.5,6093],[62.5,6177],[62.5,6259],[62.5,6342],[62.5,6425],[62.5,6509],[62.5,6592],[62.5,6675],[62.5,6758],[62.5,6843],[62.5,6925],[62.5,7009],[62.5,7091],[62.5,7175],[62.5,7258],[62.5,7341],[62.5,7424],[62.5,7508],[62.5,7591],[62.5,7674],[62.5,7757],[62.5,7840],[62.5,7924],[62.5,8007],[62.5,8090],[62.5,8174],[62.5,8257],[62.5,8340],[62.5,8423],[62.5,8507],[62.5,8589],[62.5,8673],[62.5,8757],[62.5,8839],[62.5,8924],[62.5,9006],[62.5,9090],[62.5,9172],[62.5,9256],[62.5,9339],[62.5,9422],[62.5,9506],[62.5,9589],[62.5,9672],[62.5,9756],[62.5,9839],[62.5,9922],[62.5,10006],[62.5,10088],[62.5,10172],[62.5,10255],[62.5,10338],[62.5,10421],[62.5,10504],[62.5,10588],[62.5,10671],[62.5,10754],[62.5,10839],[62.5,10922],[62.5,11004],[62.5,11087],[62.5,11170],[62.5,11254],[62.5,11337],[62.5,11420],[62.5,11503],[62.5,11587],[62.5,11670],[62.5,11753],[62.5,11837],[62.5,11920],[62.5,12004],[62.5,12086],[62.5,12170],[62.5,12253],[62.5,12336],[62.5,12420],[62.5,12503],[62.5,12586],[62.5,12669],[62.5,12752],[62.5,12835],[62.5,12920],[62.5,13002],[62.5,13086],[62.5,13169],[62.5,13251],[62.5,13335],[62.5,13418],[62.5,13502],[62.5,13584],[62.5,13668],[62.5,13751],[62.5,13835],[62.5,13918],[62.5,14001],[62.5,14084],[62.5,14167],[62.5,14251],[62.5,14334],[62.5,14417],[62.5,14500],[62.5,14584],[62.5,14667],[62.5,14751],[62.5,14833],[62.5,14917],[62.5,15000],[62.5,15083],[62.5,15166],[62.5,15250],[62.5,15333],[62.5,15416],[62.5,15499],[62.5,15584],[62.5,15666],[62.5,15749],[62.5,15832],[62.5,15917],[62.5,15999],[62.5,16082],[62.5,16166],[62.5,16249],[62.5,16332],[62.5,16415],[62.5,16498],[62.5,16582],[62.5,16665],[62.5,16749],[62.5,16831],[62.5,16915],[62.5,16998],[62.5,17081],[62.5,17164],[62.5,17248],[62.5,17331],[62.5,17414],[62.5,17498],[62.5,17581],[62.5,17664],[62.5,17747],[62.5,17830],[62.5,17913],[62.5,17997],[62.5,18080],[62.5,18164],[62.5,18247],[62.5,18330],[62.5,18413],[62.5,18497],[62.5,18580],[62.5,18663],[62.5,18746],[62.5,18830],[62.5,18912],[62.5,18997],[62.5,19080],[62.5,19162],[62.5,19246],[62.5,19329],[62.5,19412],[62.5,19496],[62.5,19579],[62.5,19662],[62.5,19745],[62.5,19829],[62.5,19912],[62.5,19995],[62.5,20078],[62.5,20162],[62.5,20245],[62.5,20328],[62.5,20411],[62.5,20495],[62.5,20578],[62.5,20661],[62.5,20744],[62.5,20828],[62.5,20912],[62.5,20994],[62.5,21078],[59.9,21179],[58.3,21261],[58.1,21346],[57.9,21428],[57.8,21511],[57.3,21594],[56.6,21678],[53.5,21760],[52.5,21843],[51.4,21927],[50.8,22010],[50.7,22095],[50.6,22176],[50.6,22259],[50.6,22342],[50.6,22425],[50.6,22509],[50.6,22592],[50.6,22676],[50.6,22758],[50.6,22842],[50.6,22925],[50.6,23009],[50.6,23092],[50.6,23175],[50.5,23259],[50.3,23343],[50.2,23425],[50.2,23508],[50.2,23591],[50.2,23675],[50.2,23758],[50.2,23841],[50.2,23924],[50.2,24007],[50.2,24091],[50.2,24174],[50.2,24258],[50.2,24340],[50.2,24424],[50.2,24507],[50.2,24590],[50.2,24674],[50.2,24757],[50.2,24841],[50.2,24923],[50.2,25007],[50.2,25089],[50.2,25173],[50.2,25256],[50.2,25339],[50.2,25423],[50.2,25506],[50.2,25589],[50.2,25672],[50.2,25756],[50.2,25839],[50.2,25923],[50.2,26006],[50.2,26088],[50.2,26172],[50.2,26255],[50.2,26338],[50.2,26424],[50.2,26504],[50.2,26588],[50.2,26671],[50.2,26755],[50.2,26839],[50.2,26921],[50.2,27004],[50.2,27087],[50.2,27171],[50.2,27254],[50.2,27338],[50.2,27420],[50.2,27504],[50.2,27587],[50.2,27670],[50.2,27754],[50.2,27837],[45.5,27939],[44,28021],[43.8,28104],[43.7,28186],[43.7,28271],[43.8,28353],[43.8,28436]]",1,0,818.128,819.2754,43.80837282,0.5619,"[{""rating"":43.80837281545003,""responseTime"":0.561900000000378}]",space,0.6071,,819.2756,All the time,100,819.2825,,,[],,0,11,11,11,1,audio/Narrative8Situation2.wav,audio/Narrative7Situation2.wav,audio/Narrative6Situation2.wav,audio/Narrative5Situation2.wav,3,3,3,3,,,,,,,,,,,,,,,,,,,,,,,,,,,,,,,,,,,,,
,,,,,,6137d996d42747efa344c1d4,2024-02-08_16h02.15.875,group3.1-3.2-social-tom,2023.2.2,Linux x86_64,60.24096386,65c5074098b851296ff0b7ed,65c5413ef551826588565dad,,,,,,,,,,,,,,,,,,,,,,,,,,,,,819.2835,2,audio/Narrative6Situation3.wav,824.2865,,824.2867,836.9087,"[[42.8,866],[39.2,949],[38.4,1282],[38.5,1366],[38.5,1448],[38.5,1531],[38.5,1614],[38.5,1698],[38.5,1781],[38.5,1864],[38.5,1947],[83.9,2531],[85.5,2614],[89.5,2698],[89.7,2780],[89.7,2863],[89.7,2946],[89.7,3030],[89.7,3114],[89.7,3196],[89.7,3280],[89.7,3363],[89.7,3446],[89.7,3529],[89.7,3613],[89.7,3696],[89.7,3781],[89.7,3862],[89.7,3945],[89.7,4029],[89.7,4112],[89.7,4197],[89.7,4279],[89.7,4361],[89.7,4445],[89.7,4528],[92,4613],[93.7,4696],[93.7,4778],[93.7,4861],[93.7,4944],[93.7,5028],[93.7,5112],[93.7,5195],[93.7,5277],[93.7,5360],[93.7,5444],[93.7,5527],[93.7,5610],[93.7,5694],[93.7,5777],[93.7,5860],[93.7,5944],[93.7,6027],[93.7,6110],[93.7,6193],[93.7,6277],[93.7,6360],[93.7,6443],[93.7,6526],[93.7,6609],[93.7,6693],[93.7,6776],[93.7,6859],[93.7,6942],[93.7,7025],[93.7,7109],[93.7,7192],[93.7,7276],[93.7,7359],[93.7,7442],[93.7,7525],[93.7,7608],[93.7,7692],[93.7,7775],[93.7,7858],[93.7,7941],[93.7,8024],[93.7,8108],[93.7,8191],[93.7,8274],[93.7,8357],[93.7,8441],[93.7,8524],[93.7,8607],[93.7,8691],[93.7,8774],[93.7,8858],[93.7,8940],[93.7,9024],[93.7,9106],[93.7,9190],[93.7,9273],[93.7,9357],[93.7,9440],[93.7,9523],[93.7,9606],[95.8,9690],[96.7,9773],[96.9,9857],[97,9940],[97.5,10023],[97.7,10109],[97.8,10189],[97.8,10272],[97.8,10356],[97.8,10439],[97.8,10522],[97.8,10605],[97.8,10689],[97.8,10772],[97.8,10855],[97.8,10938],[97.8,11022],[97.8,11105],[97.8,11188],[97.8,11272],[97.8,11355],[97.8,11438],[97.8,11521],[97.8,11605],[97.8,11688],[97.8,11771],[97.8,11855],[97.8,11938],[97.8,12020],[97.8,12104],[97.8,12187],[97.8,12271],[97.8,12354],[97.8,12437],[97.8,12521],[97.8,12604]]",1,0,836.9094,839.7376,97.83674876,2.426,"[{""rating"":97.83674875895183,""responseTime"":2.4260000000000446}]",space,2.2826,,839.7377,Not at all,0,839.7502,,,[],,0,12,12,12,1,audio/Narrative8Situation3.wav,audio/Narrative7Situation3.wav,audio/Narrative6Situation3.wav,audio/Narrative5Situation3.wav,4,8,5,3,,,,,,,,,,,,,,,,,,,,,,,,,,,,,,,,,,,,,
,,,,,,6137d996d42747efa344c1d4,2024-02-08_16h02.15.875,group3.1-3.2-social-tom,2023.2.2,Linux x86_64,60.24096386,65c5074098b851296ff0b7ed,65c5413ef551826588565dad,,,,,,,,,,,,,,,,,,,,,,,,,,,,,839.7515,2,audio/Narrative6Situation4.wav,841.7535,,841.7536,854.3737,"[[87.8,4195],[80.2,4279],[69.5,4361],[69.3,4444],[69.3,4527],[69.3,4611],[69.3,4694],[37.5,4778],[36.3,4861],[36.2,4943],[37.2,5027],[38,5111],[38.1,5193],[38.1,5276],[38.1,5360],[38.1,5443],[38.1,5527],[38.1,5609],[38.1,5692],[38.1,5776],[38.1,5860],[38.1,5942],[38.1,6026],[38.1,6109],[38.1,6192],[38.1,6275],[38.1,6358],[38.1,6443],[38.1,6525],[38.1,6608],[38.1,6691],[38.1,6774],[38.1,6858],[38.1,6941],[38.1,7025],[38.1,7108],[38.1,7191],[38.1,7275],[38.1,7359],[38.1,7441],[38.1,7524],[38.1,7607],[38.1,7691],[38.1,7774],[38.1,7857],[38.1,7941],[38.1,8023],[38.1,8107],[38.1,8191],[38.1,8273],[38.1,8356],[38.1,8440],[38.1,8523],[38.1,8606],[38.1,8689],[38.1,8774],[38.1,8856],[38.1,8939],[38.1,9023],[38.1,9106],[38.1,9189],[38.1,9272],[38.1,9355],[38.1,9439],[38.1,9522],[38.1,9606],[38.1,9688],[38.1,9772],[38.1,9855],[38.1,9938],[38.1,10022],[38.1,10105],[38.1,10189],[45.8,10289],[50.2,10376],[50.7,10455],[50.8,10537],[50.9,10622],[52.5,10705],[64.4,10788],[64.7,10870],[64.7,10954],[64.7,11037],[64.7,11121],[64.6,11203],[64.6,11287],[64.6,11371],[64.6,11453],[64.6,11537],[64.6,11620],[64.6,11703],[64.6,11786],[64.6,11869],[64.6,11953],[61.3,12037],[60.7,12120],[60.6,12203],[60.5,12286],[60.5,12369],[60.5,12452],[60.5,12536],[60.5,12619]]",1,0,854.3743,855.3886,60.51577727,0.5105,"[{""rating"":60.515777269999184,""responseTime"":0.5104999999999791}]",space,0.4747,,855.3888,Half the time,50,855.3983,,,[],,0,13,13,13,1,audio/Narrative8Situation4.wav,audio/Narrative7Situation4.wav,audio/Narrative6Situation4.wav,audio/Narrative5Situation4.wav,3,3,2,1,,,,,,,,,,,,,,,,,,,,,,,,,,,,,,,,,,,,,
,,,,,,6137d996d42747efa344c1d4,2024-02-08_16h02.15.875,group3.1-3.2-social-tom,2023.2.2,Linux x86_64,60.24096386,65c5074098b851296ff0b7ed,65c5413ef551826588565dad,,,,,,,,,,,,,,,,,,,,,,,,,,,,,855.3993,2,audio/Narrative6Situation5.wav,857.4035,,857.4036,865.3622,"[[61.5,3330],[62.7,3413],[63.6,3496],[63.8,3581],[63.9,3663],[64.8,3746],[64.8,3828],[64.8,3912],[64.8,3994],[68.5,4079],[74,4162],[75.7,4245],[78.4,4329],[79.7,4412],[79.7,4495],[79.7,4578],[79.7,4661],[79.7,4744],[79.7,4827],[85,4911],[87,4994],[87.6,5078],[87.7,5160],[87.7,5243],[87.7,5328],[87.7,5411],[87.7,5493],[87.7,5577],[87.7,5660],[87.7,5743],[87.7,5826],[87.7,5910],[87.7,5994],[87.7,6076],[87.7,6160],[87.7,6243],[87.7,6326],[87.7,6409],[87.7,6492],[87.7,6575],[87.7,6659],[87.7,6742],[98.7,6826],[100,6909],[100,6993],[100,7077],[100,7158],[100,7242],[100,7325],[100,7408],[100,7491],[100,7574],[100,7658],[100,7742],[100,7825],[100,7907]]",1,0,865.3627,868.6585,99.95435079,2.4612,"[{""rating"":99.95435078938802,""responseTime"":2.46120000000019}]",space,2.7499,,868.6586,Half the time,50,868.667,,,[],,0,14,14,14,1,audio/Narrative8Situation5.wav,audio/Narrative7Situation5.wav,audio/Narrative6Situation5.wav,audio/Narrative5Situation5.wav,2,5,2,5,,,,,,,,,,,,,,,,,,,,,,,,,,,,,,,,,,,,,
,,,,,,6137d996d42747efa344c1d4,2024-02-08_16h02.15.875,group3.1-3.2-social-tom,2023.2.2,Linux x86_64,60.24096386,65c5074098b851296ff0b7ed,65c5413ef551826588565dad,,,,,,,,,,,,,,,,,,,,,,,,,,,,,868.6679,2,audio/Narrative6Situation6.wav,870.6734,,870.6735,881.7637,"[[97,5769],[90.1,5844],[90,5927],[89.4,6010],[89.1,6093],[89,6175],[89,6259],[89,6343],[81.9,6427],[41.5,6510],[40.9,6592],[40.9,6675],[40.9,6759],[40.9,6842],[40.9,6925],[40.9,7008],[40,7093],[39.3,7176],[39.3,7258],[39.3,7346],[39.3,7425],[39.3,7508],[39.3,7593],[39.3,7675],[39.3,7758],[39.3,7841],[39.3,7924],[39.3,8008],[39.3,8091],[39.3,8174],[39.3,8259],[39.3,8340],[39.3,8424],[39.3,8507],[39.3,8590],[39.3,8673],[39.3,8757],[39.3,8840],[39.3,8924],[39.3,9006],[39.3,9090],[39.3,9173],[39.3,9256],[39.3,9340],[37.9,9423],[35.1,9508],[34.7,9589],[34.4,9674],[34.1,9757],[33.9,9840],[33.8,9923],[33.8,10005],[33.8,10089],[33.8,10172],[33.8,10255],[33.8,10338],[33.8,10422],[33.8,10504],[33.8,10589],[33.8,10672],[32.5,10755],[29.6,10840],[25.2,10922],[25,11005],[25,11089]]",1,0,881.7643,883.6761,23.56458505,1.5732,"[{""rating"":23.5645850499471,""responseTime"":1.0111999999996897},{""rating"":23.5645850499471,""responseTime"":1.5731999999997015}]",space,1.3616,,883.6765,Not at all,0,883.6875,,,[],,0,15,15,15,1,audio/Narrative8Situation6.wav,audio/Narrative7Situation6.wav,audio/Narrative6Situation6.wav,audio/Narrative5Situation6.wav,2,3,2,3,,,,,,,,,,,,,,,,,,,,,,,,,,,,,,,,,,,,,
,,,,,,6137d996d42747efa344c1d4,2024-02-08_16h02.15.875,group3.1-3.2-social-tom,2023.2.2,Linux x86_64,60.24096386,65c5074098b851296ff0b7ed,65c5413ef551826588565dad,,,,,,,,,,,,,,,,,,,,,,,,,,,,,883.6887,2,audio/Narrative6Situation7.wav,888.705,,888.7052,913.5632,"[[21.7,1365],[17.4,1449],[21.8,2288],[19.7,2371],[17.3,2453],[17,2536],[17,2620],[17,2697],[17,2780],[17,2869],[17,2947],[17,3030],[17,3113],[17,3202],[17,3286],[17,3363],[17,3445],[17,3529],[17,3612],[17,3695],[17,3779],[17,3861],[17,3945],[17,4029],[17,4118],[17,4195],[17,4279],[17,4362],[17,4444],[17,4528],[17,4615],[17,4694],[17,4783],[17,4860],[17,4944],[17,5027],[17,5112],[17,5194],[17,5277],[17,5360],[17,5444],[17,5531],[17,5610],[17,5695],[17,5776],[17,5860],[17,5943],[17,6026],[17,6109],[17,6193],[17,6276],[17,6365],[17,6443],[17,6526],[17,6614],[17,6692],[17,6775],[17,6859],[17,6942],[17,7025],[17,7109],[17,7199],[17,7275],[17,7366],[17,7442],[17,7530],[17,7609],[17,7691],[17,7774],[17,7858],[17,7941],[17,8031],[17,8112],[17,8190],[17,8280],[17,8365],[17,8441],[17,8525],[17,8607],[17,8690],[22.3,8807],[24.5,8890],[28.5,8975],[29.3,9057],[29.3,9141],[29.3,9222],[29.3,9306],[29.3,9389],[29.3,9473],[29.3,9556],[29.3,9639],[29.3,9722],[29.3,9806],[29.3,9889],[29.3,9972],[29.3,10056],[29.3,10139],[29.3,10222],[29.3,10305],[29.3,10389],[29.3,10471],[29.3,10555],[29.3,10638],[29.3,10721],[64,10805],[67.3,10889],[67.6,10972],[68.4,11055],[68.5,11138],[68.6,11221],[68.6,11304],[68.6,11388],[68.6,11470],[69.5,11555],[74.3,11638],[75.4,11721],[76.4,11804],[77.2,11888],[77.3,11970],[77.3,12053],[77.3,12138],[77.3,12220],[77.3,12303],[77.3,12387],[77.3,12470],[77.3,12553],[77.3,12636],[77.3,12719],[77.3,12803],[77.5,12887],[77.5,12971],[77.5,13052],[77.5,13136],[77.5,13219],[77.5,13303],[77.5,13385],[77.5,13469],[77.5,13552],[77.5,13635],[77.5,13719],[77.5,13801],[77.5,13885],[77.5,13968],[77.5,14051],[77.5,14134],[77.5,14218],[77.5,14301],[77.5,14384],[77.5,14468],[77.5,14551],[77.5,14634],[77.5,14717],[77.5,14800],[77.5,14884],[77.5,14968],[77.5,15050],[77.5,15133],[77.5,15216],[77.5,15300],[77.5,15383],[77.5,15467],[82.2,15551],[82.7,15634],[82.7,15716],[82.7,15800],[82.7,15883],[82.7,15966],[82.7,16049],[82.7,16132],[82.7,16216],[82.7,16298],[82.7,16382],[88.4,16467],[89.2,16550],[90.5,16633],[92,16717],[92.1,16798],[92.1,16882],[92.1,16966],[92.1,17048],[92.1,17132],[92.1,17215],[95,17299],[96.3,17382],[99.5,17465],[100,17549],[100,17632],[100,17715],[100,17797],[100,17881],[100,17964],[100,18048],[100,18131],[100,18213],[100,18297],[100,18380],[100,18464],[100,18547],[100,18630],[100,18713],[100,18797],[100,18880],[100,18963],[100,19046],[100,19129],[100,19213],[100,19296],[100,19379],[100,19462],[100,19545],[100,19629],[100,19712],[100,19796],[100,19879],[100,19962],[100,20045],[100,20128],[100,20211],[100,20295],[100,20378],[100,20461],[100,20545],[100,20628],[100,20711],[100,20795],[100,20878],[100,20961],[100,21045],[100,21127],[100,21211],[100,21295],[100,21377],[100,21461],[100,21543],[100,21627],[100,21710],[100,21793],[100,21877],[100,21960],[100,22044],[100,22126],[100,22210],[100,22293],[100,22376],[100,22460],[100,22542],[100,22626],[100,22710],[100,22793],[100,22875],[100,22959],[100,23042],[100,23126],[100,23209],[100,23292],[100,23375],[100,23458],[100,23541],[100,23625],[100,23709],[100,23792],[100,23875],[100,23958],[100,24042],[100,24124],[100,24207],[100,24293],[100,24375],[100,24464],[100,24542],[100,24624],[100,24708],[100,24797]]",1,0,913.5641,915.4604,98.7844944,1.2322,"[{""rating"":98.78449440002441,""responseTime"":1.2321999999996933}]",space,1.3548,,915.4605,All the time,100,915.4693,,,[],,0,16,16,16,1,audio/Narrative8Situation7.wav,audio/Narrative7Situation7.wav,audio/Narrative6Situation7.wav,audio/Narrative5Situation7.wav,3,5,5,4,,,,,,,,,,,,,,,,,,,,,,,,,,,,,,,,,,,,,
,,,,,,6137d996d42747efa344c1d4,2024-02-08_16h02.15.875,group3.1-3.2-social-tom,2023.2.2,Linux x86_64,60.24096386,65c5074098b851296ff0b7ed,65c5413ef551826588565dad,,,,,,,,,,,,,,,,,,,,,,,,,,,,,915.47,2,audio/Narrative6Situation8.wav,920.4722,,920.4724,927.3538,"[[100,2364],[70.3,3452],[69.5,3532],[69.3,3614],[69.3,3702],[69.3,3779],[69.3,3863],[69.3,3951],[69.3,4029],[69.3,4113],[69.3,4196],[69.3,4279],[69.3,4362],[69.3,4449],[69.3,4528],[69.3,4612],[71,4701],[73.4,4787],[74.6,4869],[75.7,4950],[76.7,5036],[77.9,5136],[78.2,5219],[78.6,5299],[78.6,5378],[78.6,5460],[78.6,5544],[78.6,5627],[88.2,5712],[100,5800],[100,5883],[100,5966],[100,6043],[100,6126],[100,6210],[100,6293],[100,6376],[100,6460],[100,6546],[100,6626],[100,6711],[100,6792],[100,6880]]",1,0,927.3544,929.314,99.98688698,1.6022,"[{""rating"":99.98688697814941,""responseTime"":1.4103999999998678},{""rating"":99.98688697814941,""responseTime"":1.6021999999996979}]",space,1.4285,,929.3144,Half the time,50,937.5717,49.2367506,7.652,"[{""rating"":49.23675060272217,""responseTime"":6.402500000000032},{""rating"":49.23675060272217,""responseTime"":7.65199999999993}]",space,0,17,17,17,1,audio/Narrative8Situation8.wav,audio/Narrative7Situation8.wav,audio/Narrative6Situation8.wav,audio/Narrative5Situation8.wav,3,2,5,3,,,7.7118,,,,,,,,,,,,,,,,,,,,,,,,,,,,,,,,,,
,,,,,,6137d996d42747efa344c1d4,2024-02-08_16h02.15.875,group3.1-3.2-social-tom,2023.2.2,Linux x86_64,60.24096386,65c5074098b851296ff0b7ed,65c5413ef551826588565dad,,,,,,,,,,,,,,,,,,,,,,,,,,,,,937.5727,2,audio/Narrative6Situation9.wav,941.5844,,941.5845,951.541,"[[35.5,4046],[35.2,4129],[35.2,4212],[33.7,4378],[32.8,4462],[32.2,4545],[32.1,4627],[32.1,4711],[32.1,4794],[32.1,4878],[32.1,4961],[32.1,5044],[32.1,5128],[32.1,5210],[32.1,5293],[32.1,5377],[32.1,5459],[61.9,5544]]",1,0,951.5414,954.3768,99.57200686,1.8325,"[{""rating"":99.57200686136882,""responseTime"":1.8324999999999818}]",space,2.2913,,954.3769,Not at all,0,954.3884,,,[],,0,18,18,18,1,audio/Narrative8Situation9.wav,audio/Narrative7Situation9.wav,audio/Narrative6Situation9.wav,audio/Narrative5Situation9.wav,3,2,4,3,,,,,,,,,,,,,,,,,,,,,,,,,,,,,,,,,,,,,
,,,,,,6137d996d42747efa344c1d4,2024-02-08_16h02.15.875,group3.1-3.2-social-tom,2023.2.2,Linux x86_64,60.24096386,65c5074098b851296ff0b7ed,65c5413ef551826588565dad,,,,,,,,,,,,,,,,,,,,,,,,,,,,,,,,,,,,,,,,,,,,,,,,,,,,,,,,,,,,,,,,,,,,,,,,954.3889,961.2145,space,6.3004,,961.2163,970.156,space,8.5984,,,,,,,,,,,,,,,,,,,,,,,,
