exp_question,consent.started,consent.stopped,consentResponse.keys,consentResponse.rt,consentResponse.duration,participantID,date,expName,psychopyVersion,OS,frameRate,STUDY_ID,SESSION_ID,opening1.started,opening1.stopped,keyEndingOpening1.keys,keyEndingOpening1.rt,keyEndingOpening1.duration,volumeAdjust.started,volumeAdjust.stopped,endingAdjust.keys,endingAdjust.rt,endingAdjust.duration,opening2.started,opening2.stopped,keyEndingOpening.keys,keyEndingOpening.rt,keyEndingOpening.duration,mouse.x,mouse.y,mouse.leftButton,mouse.midButton,mouse.rightButton,mouse.time,instructionLoop.thisRepN,instructionLoop.thisTrialN,instructionLoop.thisN,instructionLoop.thisIndex,instructionLoop.ran,readyForAudio.started,readyForAudio.stopped,fixation.started,run,audio_played,fixation.stopped,endPractice.keys,audioPre.started,audioPre.stopped,continuousResponses_audio,continuousSlider.response,continuousSlider.rt,intRating.started,intRating.stopped,intQuestionSlider.response,intQuestionSlider.rt,intQuestionSlider.history,confirmResponse.keys,confirmResponse.rt,confirmResponse.duration,catchQuestion.started,catch_label,catch_value,catchQuestion.stopped,catchQuestionSlider.response,catchQuestionSlider.rt,catchQuestionSlider.history,confirmResponse_2.keys,audioRunLoop.thisRepN,audioRunLoop.thisTrialN,audioRunLoop.thisN,audioRunLoop.thisIndex,audioRunLoop.ran,conditions1_1,conditions2_1,conditions1_2,conditions2_2,dur1_1,dur2_1,dur1_2,dur2_2,endPractice.rt,endPractice.duration,confirmResponse_2.rt,confirmResponse_2.duration,runIntervalBreak.started,runIntervalBreak.stopped,endingBreakKey.keys,endingBreakKey.rt,endingBreakKey.duration,connection.started,connection.stopped,connectionEnding.keys,connectionEnding.rt,connectionEnding.duration,readyForText.started,readyForText.stopped,textPre.started,run_dup,textPre.stopped,continuousResponses_text,textRunLoop.thisRepN,textRunLoop.thisTrialN,textRunLoop.thisN,textRunLoop.thisIndex,textRunLoop.ran,text1_1,text1_2,text2_1,text2_2,runBreakText.started,runBreakText.stopped,endingBreakKey_2.keys,endingBreakKey_2.rt,endingBreakKey_2.duration,ending.started,ending.stopped,endingEnding.keys,endingEnding.rt,endingEnding.duration
social,0.0007,5.3364,y,5.0249,,614e8b8fd294cc8571e9e06e,2024-02-08_13h03.31.431,group3.1-3.2-social-tom,2023.2.2,Win32,59.17159763,65c5074098b851296ff0b7ed,65c54190e423d37d2cdd6ab4,,,,,,,,,,,,,,,,,,,,,,,,,,,,,,,,,,,,,,,,,,,,,,,,,,,,,,,,,,,,,,,,,,,,,,,,,,,,,,,,,,,,,,,,,,,,,,,,,,,,,,,,,,
,,,,,,614e8b8fd294cc8571e9e06e,2024-02-08_13h03.31.431,group3.1-3.2-social-tom,2023.2.2,Win32,59.17159763,65c5074098b851296ff0b7ed,65c54190e423d37d2cdd6ab4,5.3367,9.253,space,3.8739,,,,,,,,,,,,,,,,,,,,,,,,,,,,,,,,,,,,,,,,,,,,,,,,,,,,,,,,,,,,,,,,,,,,,,,,,,,,,,,,,,,,,,,,,,,,,,,,,,,,,,
,,,,,,614e8b8fd294cc8571e9e06e,2024-02-08_13h03.31.431,group3.1-3.2-social-tom,2023.2.2,Win32,59.17159763,65c5074098b851296ff0b7ed,65c54190e423d37d2cdd6ab4,,,,,,9.2532,48.5026,space,38.9321,,,,,,,,,,,,,,,,,,,,,,,,,,,,,,,,,,,,,,,,,,,,,,,,,,,,,,,,,,,,,,,,,,,,,,,,,,,,,,,,,,,,,,,,,,,,,,,,,
,,,,,,614e8b8fd294cc8571e9e06e,2024-02-08_13h03.31.431,group3.1-3.2-social-tom,2023.2.2,Win32,59.17159763,65c5074098b851296ff0b7ed,65c54190e423d37d2cdd6ab4,,,,,,,,,,,48.506,77.7541,space,29.2178,,[],[],[],[],[],[],0,0,0,0,1,,,,,,,,,,,,,,,,,,,,,,,,,,,,,,,,,,,,,,,,,,,,,,,,,,,,,,,,,,,,,,,,,,,,,,,,,,,,,,,,
,,,,,,614e8b8fd294cc8571e9e06e,2024-02-08_13h03.31.431,group3.1-3.2-social-tom,2023.2.2,Win32,59.17159763,65c5074098b851296ff0b7ed,65c54190e423d37d2cdd6ab4,,,,,,,,,,,77.7624,100.6691,space,22.8274,,[],[],[],[],[],[],1,0,1,0,1,,,,,,,,,,,,,,,,,,,,,,,,,,,,,,,,,,,,,,,,,,,,,,,,,,,,,,,,,,,,,,,,,,,,,,,,,,,,,,,,
,,,,,,614e8b8fd294cc8571e9e06e,2024-02-08_13h03.31.431,group3.1-3.2-social-tom,2023.2.2,Win32,59.17159763,65c5074098b851296ff0b7ed,65c54190e423d37d2cdd6ab4,,,,,,,,,,,100.6803,121.4185,space,20.704,,[],[],[],[],[],[],2,0,2,0,1,,,,,,,,,,,,,,,,,,,,,,,,,,,,,,,,,,,,,,,,,,,,,,,,,,,,,,,,,,,,,,,,,,,,,,,,,,,,,,,,
,,,,,,614e8b8fd294cc8571e9e06e,2024-02-08_13h03.31.431,group3.1-3.2-social-tom,2023.2.2,Win32,59.17159763,65c5074098b851296ff0b7ed,65c54190e423d37d2cdd6ab4,,,,,,,,,,,121.4254,149.9025,space,28.4584,,[],[],[],[],[],[],3,0,3,0,1,,,,,,,,,,,,,,,,,,,,,,,,,,,,,,,,,,,,,,,,,,,,,,,,,,,,,,,,,,,,,,,,,,,,,,,,,,,,,,,,
,,,,,,614e8b8fd294cc8571e9e06e,2024-02-08_13h03.31.431,group3.1-3.2-social-tom,2023.2.2,Win32,59.17159763,65c5074098b851296ff0b7ed,65c54190e423d37d2cdd6ab4,,,,,,,,,,,149.912,156.3518,space,6.4202,,[],[],[],[],[],[],4,0,4,0,1,,,,,,,,,,,,,,,,,,,,,,,,,,,,,,,,,,,,,,,,,,,,,,,,,,,,,,,,,,,,,,,,,,,,,,,,,,,,,,,,
,,,,,,614e8b8fd294cc8571e9e06e,2024-02-08_13h03.31.431,group3.1-3.2-social-tom,2023.2.2,Win32,59.17159763,65c5074098b851296ff0b7ed,65c54190e423d37d2cdd6ab4,,,,,,,,,,,,,,,,,,,,,,,,,,,156.3596,158.9355,158.9503,1,audio/Narrative13Situation2.wav,160.9521,,160.9521,190.7064,"[[999,0],[999,86],[999,169],[999,250],[999,333],[999,416],[999,499],[999,583],[999,669],[999,753],[999,836],[999,916],[999,999],[999,1083],[999,1167],[999,1252],[999,1336],[999,1419],[999,1502],[999,1586],[999,1669],[999,1752],[999,1836],[999,1919],[999,1999],[999,2083],[999,2167],[999,2253],[999,2335],[999,2416],[999,2502],[37.4,2586],[39.2,2669],[40.9,2752],[42.6,2837],[45.6,2919],[50,3003],[52.2,3087],[54.1,3171],[54.7,3251],[59.2,3338],[65.2,3419],[70.8,3503],[74.2,3586],[76.7,3669],[78.6,3753],[78.9,3832],[78.9,3916],[78.9,3999],[78.9,4083],[78.9,4166],[78.9,4250],[79,4336],[79,4416],[79,4499],[81,4586],[82.1,4670],[83,4753],[83,4832],[83.4,4920],[85.3,5003],[89.7,5086],[96.1,5166],[98.8,5253],[100,5336],[100,5420],[100,5503],[100,5586],[100,5670],[100,5749],[100,5837],[100,5916],[100,5999],[100,6086],[100,6166],[100,6253],[100,6333],[100,6420],[100,6503],[100,6583],[100,6670],[100,6749],[100,6833],[100,6920],[100,6999],[100,7087],[100,7170],[100,7249],[100,7333],[100,7416],[100,7499],[100,7582],[100,7666],[100,7749],[100,7833],[100,7920],[100,8000],[100,8083],[100,8166],[100,8249],[100,8336],[100,8416],[100,8500],[100,8586],[100,8666],[100,8754],[100,8833],[100,8916],[100,9000],[100,9083],[100,9170],[100,9249],[100,9333],[100,9416],[100,9500],[100,9586],[100,9666],[100,9750],[100,9833],[100,9916],[100,9999],[100,10087],[100,10166],[100,10250],[100,10333],[100,10420],[100,10499],[100,10583],[100,10666],[100,10749],[100,10836],[100,10916],[100,11000],[100,11087],[100,11166],[100,11249],[100,11332],[100,11416],[100,11500],[100,11583],[100,11670],[100,11750],[100,11833],[100,11916],[100,12000],[100,12083],[100,12166],[100,12249],[100,12333],[100,12416],[100,12503],[100,12582],[100,12666],[100,12753],[100,12833],[100,12920],[100,12999],[100,13083],[100,13166],[100,13250],[100,13337],[100,13416],[100,13499],[100,13583],[100,13666],[100,13750],[100,13833],[100,13916],[100,13999],[100,14083],[100,14170],[100,14249],[100,14333],[100,14416],[100,14499],[100,14582],[100,14666],[100,14749],[100,14833],[100,14916],[100,15003],[100,15082],[100,15166],[100,15249],[100,15332],[100,15420],[100,15499],[100,15587],[96,15678],[84,15753],[79.6,15836],[75.3,15920],[73.1,16003],[72.6,16082],[71.5,16166],[71.3,16249],[69.5,16336],[66.9,16420],[63.2,16503],[61.9,16583],[61.9,16670],[61.9,16753],[61.9,16833],[61.9,16916],[63.8,17003],[66.5,17083],[71.7,17166],[71.8,17249],[72,17332],[72,17416],[72,17503],[72,17583],[72,17666],[72,17749],[71.5,17833],[70.5,17920],[70.1,17999],[65.2,18086],[60.4,18166],[57.1,18249],[55,18333],[50.2,18416],[41,18503],[41,18586],[41,18666],[41,18753],[41,18833],[41,18916],[41,19003],[41,19083],[41,19166],[41,19253],[41,19333],[41,19416],[41,19503],[41,19582],[41,19666],[41,19749],[40.4,19833],[37.7,19916],[36.6,19999],[34.9,20082],[32.5,20166],[31.3,20249],[31.3,20332],[31.3,20419],[29.6,20499],[26.6,20587],[25.4,20666],[25.4,20749],[25.4,20836],[25.4,20916],[25.4,21000],[24.2,21083],[24.1,21166],[23.6,21249],[23.3,21333],[23.3,21416],[23.3,21499],[23.3,21583],[23.1,21670],[21.5,21753],[21,21833],[21.5,21920],[23.9,21999],[25.7,22088],[27.7,22170],[29.1,22253],[34.9,22336],[42.2,22420],[46.5,22503],[52.6,22586],[58.6,22670],[70,22751],[81.9,22836],[82.7,22920],[83.6,23003],[84.3,23083],[84.3,23166],[84.3,23249],[84.3,23336],[84.3,23416],[84.3,23499],[84.3,23586],[84.3,23666],[84.3,23753],[84.3,23833],[84.3,23916],[84.3,23999],[84.3,24083],[84.3,24170],[84.3,24249],[84.3,24332],[84.1,24416],[80.9,24503],[73.9,24583],[53.5,24670],[51.4,24749],[48.3,24836],[46.1,24916],[46.1,24999],[48,25082],[49.3,25166],[49.5,25253],[49.5,25333],[49.5,25420],[49.5,25499],[49.5,25582],[50.4,25673],[51.4,25753],[51.4,25836],[51.4,25916],[51.4,26000],[51.4,26082],[51.1,26166],[51,26253],[51,26333],[51,26416],[45.9,26503],[24.7,26586],[19.5,26670],[19.5,26749],[19.5,26837],[19.9,26920],[28.4,27004],[43.3,27082],[44.9,27166],[42.2,27249],[30.1,27336],[25.8,27420],[25.8,27503],[25,27587],[24.1,27670],[24.1,27749],[23.8,27837],[23.1,27920],[15.4,29669],[14.8,29753]]",1,0,190.7065,202.4021,59.89583333,8.9326,"[{""rating"":75.20833333333333,""responseTime"":7.8554000000003725},{""rating"":59.895833333333336,""responseTime"":8.93259999999961}]",space,11.1503,,202.4025,Definitely yes,100,202.4052,,,[],,0,0,0,0,1,audio/Narrative13Situation2.wav,audio/Narrative13Situation2.wav,audio/Narrative13Situation2.wav,audio/Narrative13Situation2.wav,2,2,2,2,,,,,,,,,,,,,,,,,,,,,,,,,,,,,,,,,,,,,,,
,,,,,,614e8b8fd294cc8571e9e06e,2024-02-08_13h03.31.431,group3.1-3.2-social-tom,2023.2.2,Win32,59.17159763,65c5074098b851296ff0b7ed,65c54190e423d37d2cdd6ab4,,,,,,,,,,,,,,,,,,,,,,,,,,,,,202.4054,1,audio/Narrative7Situation1.wav,204.419,space,204.4191,260.3186,"[[999,1],[999,82],[999,166],[999,249],[999,332],[999,420],[999,503],[999,582],[999,665],[999,749],[999,837],[999,919],[999,1002],[999,1086],[999,1166],[999,1252],[54.7,1336],[54.4,1416],[54.4,1503],[55.9,1582],[55.9,1665],[55.3,1753],[54.7,1832],[53.8,1915],[53.4,2003],[53.4,2082],[53.4,2169],[57.7,2253],[66.4,2336],[73.2,2419],[76.9,2499],[83.4,2586],[88.5,2669],[91.6,2753],[93.6,2836],[94.8,2915],[94.8,2999],[94.2,3082],[93,3165],[89,3253],[80.5,3336],[77.1,3420],[72.8,3503],[61.6,3586],[55.5,3669],[51.3,3751],[49.1,3836],[47.1,3920],[45.7,4003],[44.8,4086],[46.9,4169],[46.3,4252],[35.4,4336],[35.1,4420],[34.9,4499],[32.4,4585],[31.8,4665],[31.8,4749],[32.5,4832],[32.5,4919],[32.5,5002],[32.5,5082],[32.5,5169],[32.5,5248],[32.5,5332],[32.5,5416],[32.5,5503],[32.3,5586],[32.3,5665],[32.3,5749],[32.3,5832],[32.3,5919],[32.3,5999],[32.3,6083],[32.3,6165],[32.3,6249],[32.3,6336],[32.3,6416],[32.3,6499],[32.3,6586],[32.3,6666],[31.4,6753],[27.8,6836],[26,6919],[24.7,7003],[24.6,7082],[24.6,7166],[24.5,7249],[24.5,7332],[24.5,7419],[24.5,7499],[23.9,7586],[23.5,7666],[23.5,7749],[23.5,7832],[23.5,7916],[23.5,7999],[23.5,8082],[23.5,8165],[23.5,8249],[23.5,8335],[23.5,8419],[23.5,8499],[23.5,8582],[23.5,8665],[24.3,8752],[24.8,8836],[25,8919],[25,8999],[25.8,9086],[31.7,9165],[40.9,9252],[55.7,9335],[62.6,9419],[70.8,9502],[78.5,9582],[79.4,9668],[79.4,9749],[79.4,9832],[79.4,9915],[79.4,9999],[79.4,10085],[79.4,10165],[79.4,10249],[79.4,10332],[79.4,10415],[79.4,10499],[79.4,10582],[79.4,10665],[79.4,10749],[79.4,10832],[79.4,10916],[79.4,10999],[79.4,11082],[79.4,11165],[79.4,11249],[79.4,11336],[79.4,11415],[79,11503],[77.8,11586],[76.4,11666],[76.4,11752],[76.4,11832],[75.5,11921],[74.1,12003],[72.2,12086],[70.9,12166],[69.7,12249],[63,12335],[57.8,12419],[53.6,12499],[51.1,12585],[47.6,12669],[40.9,12749],[38.8,12836],[36.9,12915],[35.2,13002],[34,13082],[32.6,13170],[32.6,13249],[32.2,13333],[32.2,13417],[32.2,13499],[32.2,13582],[32.2,13666],[32.2,13749],[32.2,13832],[32.2,13915],[32.2,13999],[32.2,14086],[32.2,14166],[32.1,14253],[32.1,14332],[32.1,14416],[32.1,14503],[32.1,14582],[32.1,14669],[32.1,14749],[32.1,14832],[32.1,14919],[32.1,14999],[32.1,15086],[32.1,15165],[32.1,15249],[32.1,15336],[32.1,15416],[32.1,15503],[32.1,15582],[32.1,15666],[32.3,15753],[33,15836],[34,15921],[40.4,16002],[43.9,16088],[43.9,16170],[43.9,16252],[43.9,16332],[43.9,16415],[41.9,16503],[38.4,16586],[37.9,16669],[37.1,16753],[26.3,18586],[28.5,18669],[28.8,18749],[28.1,18836],[23.6,18919],[22.5,18999],[23.3,19086],[27.8,19169],[28.2,19249],[29.5,19336],[31.8,19420],[33,19499],[33,19583],[29.9,19669],[28,19753],[24.8,19832],[23.9,19919],[23.9,19999],[23.9,20086],[23.9,20165],[23.9,20249],[23.9,20336],[24.6,20420],[26.5,20503],[26.6,20582],[26.6,20665],[27.8,20753],[33.9,20832],[37.8,20919],[52.6,21003],[64.6,21088],[70.8,21170],[70.9,21248],[71.4,21332],[71.8,21419],[71.8,21499],[71.8,21582],[71.8,21666],[71.8,21753],[71.5,21832],[71.1,21920],[70.8,22004],[70,22086],[70,22165],[70,22249],[70,22332],[70,22415],[70,22499],[70.7,22586],[70.9,22665],[71,22749],[71,22832],[71,22915],[71,22999],[71,23082],[71,23165],[69.8,23249],[67.3,23332],[65.8,23420],[64.3,23503],[63.4,23582],[62.7,23666],[61.4,23753],[61.3,23836],[60.9,23915],[60.9,23999],[60.9,24082],[61.6,24165],[63,24249],[63.3,24332],[64.2,24419],[64.6,24504],[64.7,24582],[64.7,24670],[64.7,24749],[64.4,24836],[62.3,24919],[61.6,24999],[61.5,25082],[61.1,25169],[61.1,25249],[61,25332],[61,25416],[61,25503],[61,25582],[61,25666],[61.6,25753],[62.2,25837],[62.4,25920],[62.4,25999],[62.4,26082],[61.4,26170],[59.9,26249],[59.2,26332],[59.2,26416],[59.5,26503],[63.5,26586],[67.1,26670],[68.8,26752],[69.7,26832],[70.4,26915],[70.6,27003],[70.8,27083],[70.8,27171],[70.8,27249],[70.8,27332],[68.8,27419],[67.6,27503],[65.8,27583],[64.5,27670],[61.7,27753],[58.2,27836],[52.4,27919],[46.4,28002],[45.6,28086],[43,28169],[42.7,28249],[43.5,28336],[43.5,28415],[43.5,28499],[43.5,28582],[43.5,28665],[44.5,28752],[44.7,28836],[44.7,28915],[44.7,28999],[44.7,29082],[44.2,29165],[43.5,29253],[43.1,29337],[41.5,29419],[41,29499],[41,29582],[41,29670],[41,29749],[41,29832],[41,29919],[41,29999],[41,30086],[41,30166],[41,30249],[41,30336],[41,30416],[41,30503],[41,30582],[41,30665],[41,30749],[41,30832],[41,30919],[39.6,31003],[37.5,31082],[36.3,31169],[34.5,31253],[34.3,31336],[34.2,31415],[34.1,31499],[33.9,31586],[33.8,31665],[33.9,31753],[35.1,31836],[38.5,31919],[38.5,31999],[37.3,32086],[35.5,32170],[33.4,32253],[33.2,32332],[33.2,32415],[33.2,32499],[33.2,32586],[33.2,32665],[33.2,32749],[33.2,32836],[33.2,32916],[33.2,33003],[33.2,33082],[33.9,33166],[34,33248],[34,33332],[34,33420],[37.4,33503],[54.8,33586],[60.2,33669],[60.8,33749],[64,33836],[67.5,33920],[70.2,33999],[70.3,34086],[73.1,34166],[78.6,34249],[79.5,34336],[80.3,34415],[80.4,34499],[80.8,34582],[81.8,34669],[81.9,34749],[81.9,34832],[81.9,34916],[81.9,34999],[81.9,35086],[82,35165],[82,35249],[82,35332],[82,35416],[82,35503],[82,35582],[82,35666],[82,35749],[82,35832],[81.9,35919],[81.8,35999],[81.8,36082],[81.7,36169],[81.7,36249],[81.7,36332],[81.7,36415],[81.4,36501],[79.3,36586],[78,36669],[77.5,36752],[76,36836],[74.9,37108],[74.9,37182],[74.9,37265],[74.9,37349],[74.9,37432],[74.4,37515],[74.1,37599],[74.1,37682],[74.1,37765],[74.1,37849],[74.1,37932],[74,38015],[73.9,38098],[73.5,38182],[73.3,38265],[72.3,38349],[71.8,38432],[71,38515],[70.6,38599],[70.6,38682],[70.3,38765],[70.3,38849],[70.3,38932],[70,39015],[69.8,39098],[69.4,39182],[69.4,39265],[69,39349],[68.8,39432],[68.6,39516],[68.2,39599],[68.1,39682],[68,39766],[68,39849],[67.3,39932],[66.6,40016],[66.5,40099],[65.6,40182],[65.6,40266],[65.6,40349],[67.3,40432],[69.8,40515],[71.9,40599],[76.4,40682],[80.7,40765],[87.3,40849],[93.6,40932],[96.1,41016],[97.5,41099],[99.4,41182],[100,41265],[100,41349],[100,41432],[100,41515],[100,41599],[100,41682],[100,41765],[100,41849],[100,41932],[100,42015],[100,42099],[100,42182],[100,42265],[100,42349],[100,42432],[100,42515],[100,42599],[100,42682],[100,42765],[100,42849],[100,42932],[100,43015],[100,43099],[100,43182],[100,43265],[100,43349],[100,43432],[100,43515],[100,43599],[100,43682],[100,43766],[100,43849],[100,43933],[100,44016],[100,44098],[100,44182],[99.3,44266],[99.3,44349],[99.3,44432],[99.3,44516],[99.1,44599],[99.1,44682],[99.1,44765],[99.1,44849],[99.1,44932],[99.1,45015],[99.1,45099],[99.2,45182],[99.2,45265],[99.2,45349],[99.2,45432],[100,45516],[100,45599],[100,45682],[100,45766],[100,45849],[100,45932],[100,46016],[100,46099],[100,46182],[100,46265],[100,46349],[100,46433],[100,46516],[100,46599],[100,46682],[100,46765],[100,46849],[100,46932],[100,47015],[100,47099],[100,47182],[100,47265],[100,47349],[100,47432],[100,47515],[100,47598],[100,47682],[100,47765],[100,47848],[100,47932],[100,48015],[100,48098],[100,48182],[100,48265],[100,48348],[100,48432],[100,48515],[100,48598],[100,48682],[100,48765],[100,48849],[100,48932],[100,49015],[100,49099],[100,49182],[100,49265],[100,49349],[100,49432],[100,49515],[100,49598],[100,49682],[100,49765],[100,49849],[100,49932],[100,50015],[100,50098],[100,50182],[100,50265],[100,50349],[100,50432],[100,50515],[100,50598],[100,50682],[100,50765],[100,50849],[100,50932],[100,51015],[100,51099],[100,51182],[100,51265],[100,51349],[100,51433],[100,51516],[100,51599],[100,51682],[98.4,51766],[97.1,51849],[96.3,51932],[96,52015],[96,52099],[96,52182],[96,52265],[96,52349],[95.9,52432],[95.8,52516],[95.7,52599],[95.6,52682],[95.6,52766],[96.6,52849],[97.3,52932],[97.3,53016],[97.8,53099],[98.2,53182],[98.6,53265],[99.5,53349],[100,53432],[100,53515],[100,53599],[100,53682],[100,53765],[100,53849],[100,53932],[100,54015],[100,54099],[100,54182],[100,54266],[100,54349],[100,54432],[100,54516],[100,54599],[100,54682],[100,54766],[100,54849],[100,54932],[100,55015],[100,55099],[100,55182],[100,55265],[100,55349],[100,55432],[100,55516],[100,55599],[100,55682],[100,55765],[100,55849]]",1,0,260.3189,267.068,95.625,6.1725,"[{""rating"":95.625,""responseTime"":6.172500000000014}]",space,6.2046,,267.0681,Not at all,0,267.0704,,,[],,0,1,1,1,1,audio/Narrative7Situation1.wav,audio/Narrative8Situation1.wav,audio/Narrative5Situation1.wav,audio/Narrative6Situation1.wav,2,5,5,2,1.9834,,,,,,,,,,,,,,,,,,,,,,,,,,,,,,,,,,,,,,
,,,,,,614e8b8fd294cc8571e9e06e,2024-02-08_13h03.31.431,group3.1-3.2-social-tom,2023.2.2,Win32,59.17159763,65c5074098b851296ff0b7ed,65c54190e423d37d2cdd6ab4,,,,,,,,,,,,,,,,,,,,,,,,,,,,,267.0706,1,audio/Narrative7Situation2.wav,270.0848,,270.0848,277.5515,"[[57.3,1671],[55.7,1752],[54.5,1833],[53.9,1916],[53.3,1999],[57.2,2087],[61.4,2170],[64.9,2250],[66.9,2337],[67.4,2420],[69.6,2503],[71.5,2583],[72.6,2670],[73.5,2750],[74.5,2837],[76.5,2920],[76.7,3000],[76.7,3086],[76.7,3166],[76.7,3249],[76.7,3333],[76.7,3416],[76.8,3499],[76.8,3583],[76.8,3666],[76.8,3754],[76.8,3833],[76.9,3916],[76.9,3999],[77,4083],[77,4170],[77.1,4249],[77.1,4337],[78.2,4420],[80.1,4499],[81.4,4586],[81.5,4666],[81,4750],[79.5,4837],[79.5,4916],[79,5003],[78.9,5083],[78.9,5166],[78.9,5249],[78.9,5333],[78.9,5419],[78.9,5499],[78.9,5583],[78.9,5666],[78.9,5749],[78.9,5833],[78.9,5916],[78.9,5999],[78.9,6083],[78.9,6166],[78.9,6249],[78.9,6333],[78.9,6416],[78.9,6499],[79.1,6583],[79.1,6666],[79.1,6749],[79.1,6833],[79.1,6916],[79.1,7000],[79.1,7083],[79.1,7166],[79.1,7249],[79.1,7333],[79.1,7416]]",1,0,277.5517,281.3015,99.375,2.3403,"[{""rating"":99.375,""responseTime"":2.3402999999988765}]",space,3.2129,,281.3015,Definitely yes,100,281.304,,,[],,0,2,2,2,1,audio/Narrative7Situation2.wav,audio/Narrative8Situation2.wav,audio/Narrative5Situation2.wav,audio/Narrative6Situation2.wav,3,3,3,3,,,,,,,,,,,,,,,,,,,,,,,,,,,,,,,,,,,,,,,
,,,,,,614e8b8fd294cc8571e9e06e,2024-02-08_13h03.31.431,group3.1-3.2-social-tom,2023.2.2,Win32,59.17159763,65c5074098b851296ff0b7ed,65c54190e423d37d2cdd6ab4,,,,,,,,,,,,,,,,,,,,,,,,,,,,,281.3042,1,audio/Narrative7Situation3.wav,289.3217,,289.3217,298.589,"[[999,7],[999,83],[999,162],[77.1,250],[74.8,336],[74.7,413],[74.1,497],[74.1,580],[73.9,668],[72.9,751],[71.3,829],[64.4,912],[61.6,1000],[60,1084],[59.5,1169],[59.5,1246],[59,1329],[57.6,1418],[57.3,1500],[55.9,1584],[55.9,1663],[54.1,1750],[53.9,1829],[52.7,1914],[48.3,2000],[42.7,2084],[38.6,2163],[36.9,2246],[36.5,2334],[36.5,2413],[36.5,2496],[36.5,2580],[36.5,2663],[36.5,2746],[36.5,2829],[36.5,2913],[36.5,2996],[36.5,3080],[36.5,3163],[36.5,3246],[36.5,3329],[35.8,3418],[35.2,3496],[33.2,3584],[32.3,3663],[30.6,3751],[29.9,3829],[29.7,3913],[27.5,4000],[27.5,4079],[27.5,4162],[27.5,4246],[27.5,4329],[25.3,4413],[25.3,4496],[25.3,4579],[25.1,4663],[25.1,4746],[25.1,4829],[25.1,4913],[25.1,4996],[25.1,5079],[25.1,5163],[25.1,5250],[25.1,5329],[25.1,5413],[25.1,5496],[25.1,5579],[25.1,5663],[25.1,5746],[25.1,5829],[25.1,5913],[25.1,5996],[25.2,6083],[25.9,6163],[26,6246],[26,6330],[26.4,6412],[27.3,6500],[27.5,6579],[27.5,6666],[27.7,6749],[27.7,6829],[28,6913],[28,6996],[28,7079],[28,7163],[28,7246],[28,7331],[28,7413],[28,7496],[28,7580],[28,7663],[28,7750],[28,7829],[28,7913],[28,7996],[28,8079],[28,8167],[28,8246],[28,8333],[28,8412],[28,8496],[28,8583],[28,8663],[27.9,8746],[27.9,8830],[27.9,8913],[27.9,9000],[27.9,9080],[27.8,9163],[27.5,9246]]",1,0,298.5891,302.418,11.14583333,3.2667,"[{""rating"":11.145833333333332,""responseTime"":3.2667000000010944}]",space,3.2833,,302.418,Not at all,0,302.4201,,,[],,0,3,3,3,1,audio/Narrative7Situation3.wav,audio/Narrative8Situation3.wav,audio/Narrative5Situation3.wav,audio/Narrative6Situation3.wav,8,4,3,5,,,,,,,,,,,,,,,,,,,,,,,,,,,,,,,,,,,,,,,
,,,,,,614e8b8fd294cc8571e9e06e,2024-02-08_13h03.31.431,group3.1-3.2-social-tom,2023.2.2,Win32,59.17159763,65c5074098b851296ff0b7ed,65c54190e423d37d2cdd6ab4,,,,,,,,,,,,,,,,,,,,,,,,,,,,,302.4202,1,audio/Narrative7Situation4.wav,305.4352,,305.4352,317.1516,"[[999,9],[999,87],[999,166],[999,249],[999,332],[999,416],[999,499],[999,583],[999,670],[999,749],[999,836],[999,920],[999,999],[999,1082],[999,1166],[999,1250],[999,1332],[999,1416],[999,1499],[999,1587],[999,1670],[999,1754],[999,1837],[999,1916],[32.3,2003],[29.5,2086],[25.9,2166],[17.9,2249],[16.4,2333],[16.4,2416],[16.6,2500],[17.4,2589],[17.7,2666],[17.7,2749],[17.2,2832],[17.1,2916],[16.9,3003],[16.9,3087],[16.5,3166],[16.5,3249],[16.5,3333],[16.5,3420],[16.5,3499],[16.5,3582],[16.5,3666],[16.5,3750],[16.5,3833],[16.5,3920],[16.5,3999],[16.5,4083],[16.5,4170],[16.5,4249],[16.5,4333],[16.5,4416],[16.5,4499],[16.5,4583],[16.5,4666],[16.5,4754],[16.5,4833],[16.5,4916],[16.5,4999],[16.5,5083],[16.5,5170],[16.5,5249],[16.5,5332],[16.5,5416],[16.5,5499],[16.5,5587],[16.5,5666],[16.5,5749],[16.5,5837],[16.5,5916],[16.5,6004],[16.5,6082],[16.5,6165],[16.5,6249],[16.5,6332],[16.5,6416],[16.5,6499],[16.8,6582],[22,6666],[23.2,6749],[23.2,6837],[23.2,6916],[23.2,6999],[23.3,7086],[23.3,7166],[23.3,7253],[23.3,7337],[24.2,7416],[25.2,7499],[25.4,7583],[25.4,7669],[25.4,7749],[24.9,7836],[22.5,7916],[20.5,8003],[13.9,8086],[9.8,8170],[6.7,8255],[5.1,8999],[6,9086],[6,9170],[6,9249],[6,9337],[5.7,9416],[3.2,9503],[2.3,9582],[2.3,9666],[2.3,9753],[2.3,9833],[2.3,9916],[2.3,9999],[2.1,10083],[1.4,10166],[1.3,10249],[1,10332],[0.9,10416],[0.7,10500],[0.4,10586],[0.4,10666],[0.2,10749],[0.1,10833]]",1,0,317.1519,319.0179,0.833333333,1.2023,"[{""rating"":0.8333333333333359,""responseTime"":1.2023000000007755}]",space,1.3233,,319.018,Partially,50,319.0201,,,[],,0,4,4,4,1,audio/Narrative7Situation4.wav,audio/Narrative8Situation4.wav,audio/Narrative5Situation4.wav,audio/Narrative6Situation4.wav,3,3,1,2,,,,,,,,,,,,,,,,,,,,,,,,,,,,,,,,,,,,,,,
,,,,,,614e8b8fd294cc8571e9e06e,2024-02-08_13h03.31.431,group3.1-3.2-social-tom,2023.2.2,Win32,59.17159763,65c5074098b851296ff0b7ed,65c54190e423d37d2cdd6ab4,,,,,,,,,,,,,,,,,,,,,,,,,,,,,319.0202,1,audio/Narrative7Situation5.wav,324.0392,,324.0392,332.5516,"[[37.5,416],[36.6,500],[35.2,578],[32.2,666],[27.6,751],[22.8,828],[19.5,916],[17.8,999],[17.1,1082],[16.9,1162],[18.6,1245],[21.4,1328],[21.4,1412],[21.4,1495],[21.9,1578],[24.7,1662],[26.9,1749],[31.5,1832],[35.1,1912],[35.1,1995],[35.2,2078],[35.3,2166],[35.9,2249],[36.3,2332],[36.3,2412],[36.3,2495],[36.3,2583],[36.3,2666],[36.3,2745],[36.3,2829],[36.3,2912],[36.9,2995],[39.9,3082],[42.7,3162],[47.2,3245],[47.7,3329],[47.9,3416],[49.8,3499],[50.9,3582],[50.9,3662],[50.9,3745],[50.9,3828],[50.9,3912],[51,3999],[51,4079],[51,4162],[51,4245],[51,4329],[51,4412],[51,4495],[51,4579],[51,4662],[51,4749],[49.5,4832],[47.4,4916],[45.3,4999],[42.9,5078],[42.5,5166],[42.5,5245],[42.5,5328],[38.1,5416],[33.2,5499],[33.2,5578],[33.2,5662],[33.2,5749],[33.2,5828],[33.2,5912],[32,6000],[28.8,6083],[28.2,6162],[26.9,6245],[25.3,6332],[15.5,6999],[15.6,7078],[17,7166],[17.5,7249],[17.5,7328],[17.1,7416],[16.7,7495],[17.8,7582],[19.5,7667],[21.4,7745],[22.3,7828],[23,7912],[23.2,7995],[21.8,8082],[19.9,8166],[18.2,8250],[17.5,8328],[17.5,8415],[17.3,8495]]",1,0,332.5517,334.8721,5.3125,1.5868,"[{""rating"":5.312499999999998,""responseTime"":1.5867999999988456}]",space,1.7665,,334.8723,Definitely yes,100,334.8738,,,[],,0,5,5,5,1,audio/Narrative7Situation5.wav,audio/Narrative8Situation5.wav,audio/Narrative5Situation5.wav,audio/Narrative6Situation5.wav,5,2,5,2,,,,,,,,,,,,,,,,,,,,,,,,,,,,,,,,,,,,,,,
,,,,,,614e8b8fd294cc8571e9e06e,2024-02-08_13h03.31.431,group3.1-3.2-social-tom,2023.2.2,Win32,59.17159763,65c5074098b851296ff0b7ed,65c54190e423d37d2cdd6ab4,,,,,,,,,,,,,,,,,,,,,,,,,,,,,334.874,1,audio/Narrative7Situation6.wav,337.8847,,337.8848,347.8726,"[[46.8,166],[46.8,254],[46.8,333],[46.8,416],[46.8,499],[46.7,583],[46.7,670],[46.7,750],[46.7,833],[46.7,916],[46.7,999],[46.7,1087],[46.5,1170],[46.1,1250],[46.1,1333],[45.7,1421],[44.2,1504],[42.2,1587],[40.6,1670],[37.6,1754],[36.1,1837],[35.6,1916],[35.2,1999],[35.2,2083],[36.5,2170],[37.2,2250],[40.7,2337],[46.1,2416],[53.2,2503],[55,2583],[59.7,2666],[64.9,2753],[68,2836],[72.1,2916],[73.6,3000],[76.1,3086],[79.2,3170],[79.7,3249],[84.2,3333],[85.1,3416],[89.7,3505],[91.3,3587],[92.5,3670],[95.9,3753],[95.7,3833],[95.6,3916],[93.8,4003],[92.4,4087],[91.5,4166],[89.3,4250],[87.8,4333],[85.4,4420],[84.8,4500],[84.4,4587],[84.2,4670],[84.2,4750],[84.2,4833],[84.1,4916],[83.6,5004],[83.4,5086],[83.4,5166],[82.2,5250],[82,5333],[81.9,5420],[81.5,5499],[81.3,5582],[80.4,5666],[78.8,5753],[77.4,5837],[76.7,5916],[75.9,5999],[74.7,6083],[74.7,6166],[74.7,6249],[74.7,6333],[74.7,6416],[74.7,6504],[74.7,6583],[74.7,6666],[74.7,6750],[74.3,6837],[72.7,6916],[70.7,7003],[69.7,7087],[69.7,7166],[68.9,7253],[66,7337],[64.8,7420],[60.9,7500],[57.9,7583],[56.9,7666],[55.7,7750],[55.5,7833],[55,7916],[54.8,8000],[53.8,8082],[52.9,8166],[52.5,8254],[51.1,8336],[50.5,8421],[50.2,8500],[49.9,8586],[49.9,8666],[49.7,8750],[49.7,8833],[49.7,8916],[49.7,9003],[49.7,9083],[49.6,9166],[49.6,9253],[49.6,9333],[49.6,9419],[49.6,9500],[49.5,9587],[49.5,9666],[48.4,9754],[47.5,9833],[46.9,9916]]",1,0,347.8727,351.4685,61.97916667,3.2065,"[{""rating"":61.979166666666664,""responseTime"":3.2065000000000055}]",space,3.0333,,351.4686,Definitely yes,100,351.4695,,,[],,0,6,6,6,1,audio/Narrative7Situation6.wav,audio/Narrative8Situation6.wav,audio/Narrative5Situation6.wav,audio/Narrative6Situation6.wav,3,2,3,2,,,,,,,,,,,,,,,,,,,,,,,,,,,,,,,,,,,,,,,
,,,,,,614e8b8fd294cc8571e9e06e,2024-02-08_13h03.31.431,group3.1-3.2-social-tom,2023.2.2,Win32,59.17159763,65c5074098b851296ff0b7ed,65c54190e423d37d2cdd6ab4,,,,,,,,,,,,,,,,,,,,,,,,,,,,,351.4696,1,audio/Narrative7Situation7.wav,356.485,,356.485,373.6681,"[[33.2,2082],[15.4,2166],[14.1,2249],[13.4,2332],[8.3,2416],[2.2,2500],[2.1,2583],[2.1,2666],[2.1,2749],[2.1,2833],[2.1,2916],[2.1,3000],[2.1,3083],[2.1,3166],[2.1,3249],[2.1,3333],[2.1,3416],[2.1,3499],[2.1,3582],[2.2,3666],[2.3,3749],[2.4,3833],[2.7,3916],[3,4000],[3.1,4082],[3.2,4166],[3.2,4249],[3.4,4332],[3.4,4416],[3.4,4499],[3.4,4583],[3.4,4666],[3.4,4749],[3.5,4833],[3.5,4916],[3.5,4999],[3.5,5082],[3.5,5166],[3.5,5249],[3.5,5332],[3.5,5416],[3.5,5499],[3.5,5582],[3.5,5666],[3.8,5749],[4.1,5832],[4.7,5916],[5.7,6000],[5.9,6083],[6.1,6166],[6.1,6249],[6.1,6332],[6.4,6416],[6.4,6499],[7.1,6582],[7.5,6666],[8.4,6749],[10.7,6832],[15.8,6916],[23.3,6999],[26.7,7083],[33.4,7166],[45.9,7249],[53.3,7332],[57.6,7416],[60.9,7499],[66.5,7583],[70,7666],[72.7,7749],[75.5,7832],[78.1,7916],[82.4,7999],[85.3,8082],[88.9,8166],[91.3,8249],[92.4,8333],[92.7,8416],[94.6,8499],[96.8,8583],[96.8,8666],[97.3,8749],[97.3,8833],[97.3,8916],[97.3,8999],[97.4,9083],[97.1,9166],[96.1,9249],[95.4,9333],[94.8,9416],[93.1,9499],[92.6,9583],[91.3,9666],[89.3,9749],[88.6,9833],[84.6,9916],[80.7,10000],[79.9,10082],[79.6,10166],[79.5,10250],[78.2,10333],[78.2,10416],[78.2,10499],[78.2,10583],[78.2,10666],[78.2,10749],[78.2,10833],[78.2,10916],[78.4,11000],[80.5,11082],[80.7,11166],[80.9,11249],[80.9,11332],[80.9,11416],[80.9,11499],[80.9,11583],[80.9,11666],[81.5,11749],[84.4,11833],[85.4,11916],[87.3,11999],[89.5,12083],[90.4,12166],[91.4,12249],[91.5,12333],[91.5,12416],[91.5,12499],[91.5,12582],[91.5,12666],[91.5,12749],[91.5,12833],[91.5,12916],[91.5,12999],[91.5,13082],[91.5,13166],[91.5,13249],[91.5,13333],[91.6,13416],[92,13499],[92.5,13582],[93.3,13667],[93.5,13750],[93.9,13833],[93.9,13916],[92.4,13999],[92.4,14083],[92.4,14166],[92.4,14249],[92.4,14332],[94.7,14416],[95.7,14499],[96.7,14582],[97.4,14666],[97.9,14750],[98,14833],[98,14916],[99.4,14999],[100,15082],[100,15166],[100,15249],[100,15333],[100,15416],[100,15499],[100,15583],[100,15666],[100,15749],[100,15832],[97.7,15916],[96.9,15999],[96.6,16083],[95.8,16165],[95.1,16249],[94.4,16332],[92.5,16416],[92,16499],[90.1,16582],[89.6,16666],[88.9,16749],[87.9,16833],[87.5,16916],[85.4,17000],[83.5,17082],[81.6,17166]]",1,0,373.6682,375.6011,79.0625,1.0299,"[{""rating"":79.0625,""responseTime"":1.0298999999985199}]",space,1.4062,,375.6011,Partially,50,375.6035,,,[],,0,7,7,7,1,audio/Narrative7Situation7.wav,audio/Narrative8Situation7.wav,audio/Narrative5Situation7.wav,audio/Narrative6Situation7.wav,5,3,4,5,,,,,,,,,,,,,,,,,,,,,,,,,,,,,,,,,,,,,,,
,,,,,,614e8b8fd294cc8571e9e06e,2024-02-08_13h03.31.431,group3.1-3.2-social-tom,2023.2.2,Win32,59.17159763,65c5074098b851296ff0b7ed,65c54190e423d37d2cdd6ab4,,,,,,,,,,,,,,,,,,,,,,,,,,,,,375.6037,1,audio/Narrative7Situation8.wav,377.618,,377.618,387.6513,"[[999,0],[67.6,83],[63.9,166],[60.9,249],[58.8,333],[57.2,416],[55,499],[53.1,583],[52.1,666],[51.1,752],[50.9,834],[50.8,917],[50.7,1000],[50.7,1083],[50.7,1166],[50.7,1249],[50.7,1333],[50.7,1417],[50.7,1500],[49.9,1583],[49.6,1666],[49.4,1750],[49.1,1833],[47.3,1916],[45.4,1999],[42.9,2083],[39.5,2167],[38.6,2250],[38.6,2333],[38.6,2416],[38.6,2499],[37.9,2583],[35.5,2666],[35.4,2749],[35.4,2833],[35.4,2916],[35.4,3000],[35.4,3083],[35.4,3166],[35.4,3249],[35.4,3333],[35.4,3416],[35.4,3500],[35.4,3583],[35.4,3666],[35.4,3749],[34.7,3833],[34.6,3916],[33.6,3999],[32.6,4083],[32.4,4167],[31.5,4250],[31.3,4333],[31.1,4416],[31.1,4499],[30.9,4583],[30.8,4666],[30.8,4749],[30.8,4833],[30.8,4916],[34.1,4999],[44.8,5083],[45,5166],[45,5250],[45.4,5333],[46.6,5416],[48.5,5499],[51.1,5583],[54.9,5666],[58.1,5749],[58.8,5833],[59.9,5916],[60.7,5999],[60.7,6083],[60.7,6166],[60.7,6249],[60.7,6333],[60.7,6416],[60.7,6499],[60.7,6583],[60.7,6666],[60.7,6750],[60.2,6833],[59.6,6916],[59.6,7000],[58.6,7083],[58.6,7166],[58.5,7250],[58.5,7333],[57.9,7416],[56.8,7500],[56.5,7583],[56,7666],[56,7749],[55.9,7833],[55.4,7916],[55.4,7999],[55.1,8083],[55,8166],[55,8249],[54.9,8333],[54.8,8416],[54.6,8499],[54.6,8583],[54.6,8666],[54.5,8750],[54.5,8833],[54.5,8916],[54.5,9000],[54.5,9083],[54.5,9166],[54.5,9250],[54.5,9333],[54.9,9416],[55,9499],[55.3,9583],[55.9,9666],[56,9750],[56.7,9833],[56.7,9916],[56.7,10000]]",1,0,387.6514,389.3343,69.79166667,1.1711,"[{""rating"":69.79166666666666,""responseTime"":1.171099999999626}]",space,1.1503,,389.3343,Partially,50,389.3352,,,[],,0,8,8,8,1,audio/Narrative7Situation8.wav,audio/Narrative8Situation8.wav,audio/Narrative5Situation8.wav,audio/Narrative6Situation8.wav,2,3,3,5,,,,,,,,,,,,,,,,,,,,,,,,,,,,,,,,,,,,,,,
,,,,,,614e8b8fd294cc8571e9e06e,2024-02-08_13h03.31.431,group3.1-3.2-social-tom,2023.2.2,Win32,59.17159763,65c5074098b851296ff0b7ed,65c54190e423d37d2cdd6ab4,,,,,,,,,,,,,,,,,,,,,,,,,,,,,389.3355,1,audio/Narrative7Situation9.wav,391.3519,,391.3519,399.9845,"[[999,0],[999,82],[999,165],[999,249],[999,332],[999,415],[999,499],[999,582],[999,667],[999,750],[999,833],[999,915],[999,999],[999,1082],[999,1166],[999,1248],[999,1332],[999,1415],[999,1499],[999,1582],[999,1665],[999,1749],[999,1832],[999,1916],[999,1999],[74.8,2083],[76.7,2166],[77.5,2249],[77.8,2332],[79,2415],[80.6,2499],[81.9,2582],[82.5,2665],[83.3,2749],[84.1,2832],[84.3,2916],[84.3,2999],[84.3,3082],[84.4,3166],[84.8,3249],[85.8,3332],[88,3415],[89.3,3499],[90.3,3582],[91,3666],[91.8,3750],[93.3,3833],[95.3,3915],[97.6,3999],[98.3,4082],[99.3,4166],[100,4249],[100,4332],[100,4416],[100,4499],[100,4582],[100,4666],[100,4749],[100,4832],[100,4916],[100,4999],[100,5082],[100,5166],[100,5249],[100,5332],[100,5416],[100,5500],[100,5582],[100,5665],[100,5749],[100,5832],[100,5915],[100,5999],[100,6082],[100,6166],[100,6248],[100,6332],[100,6416],[100,6499],[100,6582],[100,6666],[100,6749],[100,6832],[100,6916],[99.9,6999],[99.7,7082],[99.7,7165],[99.7,7249],[99.7,7332],[99.7,7415],[99.7,7499],[99.7,7582],[99.7,7666],[99.7,7749],[99.7,7832],[99.7,7916],[99.7,7999],[99.7,8082],[99.7,8165],[99.7,8249],[99.7,8332],[99.7,8415],[99.7,8499],[99.7,8582]]",1,0,399.9847,401.602,97.08333333,0.8608,"[{""rating"":97.08333333333333,""responseTime"":0.8608000000007792}]",space,1.0841,,401.602,Partially,50,401.6031,,,[],,0,9,9,9,1,audio/Narrative7Situation9.wav,audio/Narrative8Situation9.wav,audio/Narrative5Situation9.wav,audio/Narrative6Situation9.wav,2,3,3,4,,,,,,,,,,,,,,,,,,,,,,,,,,,,,,,,,,,,,,,
,,,,,,614e8b8fd294cc8571e9e06e,2024-02-08_13h03.31.431,group3.1-3.2-social-tom,2023.2.2,Win32,59.17159763,65c5074098b851296ff0b7ed,65c54190e423d37d2cdd6ab4,,,,,,,,,,,,,,,,,,,,,,,,,,,,,401.6032,1,audio/Narrative8Situation1.wav,406.6178,,406.6178,422.5349,"[[999,7],[999,83],[999,166],[999,249],[999,333],[999,416],[999,499],[999,583],[999,667],[999,750],[999,834],[999,916],[999,999],[999,1083],[999,1166],[999,1250],[999,1333],[999,1417],[999,1500],[999,1583],[999,1666],[999,1749],[999,1833],[999,1916],[999,2000],[999,2083],[999,2167],[999,2249],[999,2333],[999,2416],[999,2500],[999,2583],[999,2666],[999,2750],[999,2833],[999,2916],[999,3000],[999,3083],[999,3166],[999,3250],[999,3333],[999,3416],[999,3500],[999,3583],[999,3666],[999,3750],[999,3833],[999,3916],[999,4000],[999,4083],[999,4166],[999,4249],[999,4333],[999,4417],[999,4500],[999,4584],[999,4667],[999,4749],[999,4833],[999,4916],[999,4999],[999,5083],[999,5166],[56.1,5249],[56.3,5333],[56.3,5416],[56.3,5500],[55.8,5583],[54.4,5666],[52,5750],[51.6,5833],[51.6,5916],[51.9,5999],[52.9,6083],[53,6166],[53.8,6250],[54,6333],[54,6416],[54,6500],[54,6583],[54,6666],[56,6749],[60,6833],[60.6,6916],[60.6,7000],[60.6,7083],[60.6,7166],[60.6,7250],[60.6,7333],[60.6,7416],[60.6,7500],[60.6,7583],[60.7,7666],[61.4,7750],[62.2,7833],[63.6,7916],[64.2,8000],[64.2,8083],[64.4,8166],[64.8,8250],[64.8,8333],[64.8,8416],[64.8,8500],[64.8,8583],[64.8,8666],[64.8,8750],[64.8,8833],[64.8,8916],[64.6,9000],[63.9,9084],[63.6,9167],[61,9250],[59,9333],[59,9416],[59,9500],[59,9583],[59,9666],[59,9750],[58.8,9833],[58.3,9916],[59.4,10000],[61.3,10083],[64.3,10167],[68,10250],[71.4,10333],[77,10416],[79.7,10499],[80.9,10583],[82,10667],[82,10750],[82,10833],[82,10916],[84,11000],[85.5,11083],[85.6,11166],[85.6,11250],[85.7,11333],[85.7,11416],[86.5,11500],[86.5,11583],[86.5,11666],[86.5,11750],[86.5,11833],[86.5,11916],[86.5,12000],[86.5,12083],[86.5,12166],[86.5,12250],[86.5,12333],[86.5,12416],[86.5,12500],[86.5,12583],[86.5,12666],[86.1,12750],[86.1,12833],[86.1,12916],[85.9,12999],[85.9,13083],[85.6,13167],[85.6,13249],[85.6,13333],[85.6,13416],[85.6,13500],[85.6,13583],[85.6,13666],[85.6,13750],[85.6,13833],[85.6,13916],[85.6,14000],[85.6,14083],[85.6,14166],[85.6,14249],[85.6,14332],[85.6,14416],[85.6,14499],[85.6,14583],[85.6,14666],[85.6,14749],[85.6,14832],[85.5,14916],[84.8,14999],[84,15083],[82.4,15166],[81.9,15250],[81,15333],[80.4,15416],[80.4,15500],[80.1,15583],[80,15666],[79.8,15750],[79.8,15833],[79.8,15916]]",1,0,422.5352,425.785,71.14583333,2.8743,"[{""rating"":71.14583333333333,""responseTime"":2.8742999999988683}]",space,2.7091,,425.7851,Definitely yes,100,425.7894,,,[],,0,10,10,10,1,audio/Narrative8Situation1.wav,audio/Narrative7Situation1.wav,audio/Narrative6Situation1.wav,audio/Narrative5Situation1.wav,5,2,2,5,,,,,,,,,,,,,,,,,,,,,,,,,,,,,,,,,,,,,,,
,,,,,,614e8b8fd294cc8571e9e06e,2024-02-08_13h03.31.431,group3.1-3.2-social-tom,2023.2.2,Win32,59.17159763,65c5074098b851296ff0b7ed,65c54190e423d37d2cdd6ab4,,,,,,,,,,,,,,,,,,,,,,,,,,,,,425.7898,1,audio/Narrative8Situation2.wav,428.8015,,428.8015,438.9348,"[[67.2,166],[67.2,250],[67.2,333],[67.2,416],[67.2,499],[67.1,582],[67.1,666],[67.1,750],[67.1,833],[67.1,915],[67.1,999],[67.1,1082],[67.1,1166],[67.1,1249],[66.7,1332],[64.3,1416],[63.4,1499],[63.3,1582],[63.3,1666],[62.6,1750],[60.2,1833],[57.1,1916],[53,1999],[51.3,2082],[49.6,2166],[46.8,2249],[44.1,2332],[43.4,2416],[43.4,2499],[43.1,2583],[41,2666],[39.7,2749],[39.2,2832],[39,2916],[38,2999],[37.8,3083],[37.7,3166],[37.4,3249],[37.4,3333],[37.1,3416],[36.8,3499],[36.8,3583],[36.6,3666],[36.1,3749],[34.9,3833],[34.9,3916],[34.9,3999],[34.6,4082],[34.6,4166],[34.5,4249],[34.5,4333],[34.4,4416],[34.4,4499],[34.4,4582],[34,4665],[33.8,4749],[28.2,5416],[26.8,5499],[26,5582],[25.2,5666],[23.2,5749],[21.1,5833],[20.6,5916],[20.2,5999],[19.7,6082],[19.7,6166],[19.7,6249],[19.7,6332],[19.7,6416],[19.5,6499],[19.5,6582],[19.5,6666],[19.5,6749],[19.5,6832],[18.2,6916],[17.7,6999],[16.1,7082],[14.4,7166],[13.2,7250],[12.7,7332],[12.7,7416],[12.6,7500],[12.4,7582],[12.4,7666],[12.4,7749],[12.4,7833],[12.4,7916],[12.6,7999],[12.6,8082],[12.6,8166],[12.6,8249],[12.5,8332],[11.3,8417],[10.7,8499],[10.7,8582],[10.7,8666],[10.7,8749],[10.7,8832],[10.7,8916],[10.7,8999],[10.2,9083],[8.9,9166],[7.7,9249],[4.8,9332],[0.8,9415]]",1,0,438.935,442.101,1.041666667,2.7118,"[{""rating"":1.0416666666666685,""responseTime"":2.7117999999989024}]",space,2.6419,,442.1011,Partially,50,449.9175,50.10416667,6.0603,"[{""rating"":50.10416666666667,""responseTime"":6.06030000000078}]",space,0,11,11,11,1,audio/Narrative8Situation2.wav,audio/Narrative7Situation2.wav,audio/Narrative6Situation2.wav,audio/Narrative5Situation2.wav,3,3,3,3,,,7.285,,,,,,,,,,,,,,,,,,,,,,,,,,,,,,,,,,,,
,,,,,,614e8b8fd294cc8571e9e06e,2024-02-08_13h03.31.431,group3.1-3.2-social-tom,2023.2.2,Win32,59.17159763,65c5074098b851296ff0b7ed,65c54190e423d37d2cdd6ab4,,,,,,,,,,,,,,,,,,,,,,,,,,,,,449.9178,1,audio/Narrative8Situation3.wav,453.9344,,453.9345,476.318,"[[47.3,83],[47.1,166],[47.1,250],[46.9,333],[46.8,416],[46.8,499],[46.5,583],[46.5,666],[46.4,751],[46.4,834],[46.4,916],[46,999],[46,1083],[45.8,1166],[45.3,1250],[44.9,1333],[44.6,1416],[44.6,1500],[43.9,1583],[43.1,1666],[40.8,1749],[38.2,1833],[35.4,1916],[32.4,2000],[31.5,2082],[28.8,2166],[26.6,2250],[25.3,2332],[23.4,2416],[21.5,2499],[25.8,3999],[25.4,4083],[25.3,4166],[25.3,4250],[26.9,4333],[31.9,4417],[32.3,4500],[31,4583],[28.1,4666],[27.7,4749],[27.7,4833],[27.7,4916],[27.7,5000],[27.7,5083],[27.6,5166],[27.6,5250],[27.6,5333],[28.2,5417],[29.6,5499],[31,5583],[31.7,5666],[31.7,5749],[30.1,5833],[29.4,5916],[29.3,6000],[29.1,6082],[29.1,6166],[29.1,6250],[29.1,6333],[29.1,6416],[29.1,6500],[29.2,6583],[29.6,6666],[29.8,6749],[30.1,6833],[30.1,6917],[30.1,7000],[30.1,7083],[30.1,7166],[29.8,7250],[29.6,7333],[29.8,7416],[30.1,7499],[30.9,7583],[31.5,7666],[31.5,7749],[31.5,7833],[30.9,7916],[30.8,7999],[30.8,8083],[31,8166],[31.4,8249],[31.5,8333],[30.8,8416],[28.9,8499],[28.8,8582],[28.8,8666],[28.8,8750],[28.8,8833],[28.8,8916],[29.7,8999],[31.4,9083],[31.6,9166],[31.7,9249],[34.8,9333],[42,9417],[44.6,9499],[49.1,9582],[55,9666],[57.1,9749],[58.5,9833],[59.9,9916],[61.9,10000],[65.4,10083],[66.6,10166],[68.6,10249],[69.8,10333],[69.8,10416],[67.9,10499],[67.9,10583],[67.9,10666],[67.9,10750],[68.1,10833],[69.4,10916],[71.1,10999],[71.5,11083],[71.5,11166],[71.5,11249],[71.9,11333],[72.7,11416],[72.7,11499],[74.1,11583],[76.3,11666],[77.5,11749],[77.8,11833],[77.8,11916],[76.9,12000],[76,12083],[75.5,12166],[75,12250],[74.3,12333],[73.8,12416],[73,12500],[72.3,12583],[72.3,12666],[72,12749],[71.1,12833],[69.9,12916],[65.8,12999],[63.2,13083],[58.9,13166],[56.5,13249],[56.3,13333],[55.7,13416],[55.5,13500],[55,13582],[54.9,13666],[54.9,13750],[54.8,13832],[54.8,13916],[54.3,14000],[54,14083],[53.8,14166],[53,14250],[50.9,14333],[47.8,14416],[46.6,14499],[44.9,14582],[43.6,14666],[42.1,14749],[40.2,14833],[38.8,14916],[36.8,14999],[34.9,15082],[32.8,15166],[31.5,15249],[31.1,15333],[30.5,15416],[30.2,15499],[64.7,16749],[76.5,16833],[80,16916],[81.6,16999],[81.6,17083],[81.6,17166],[79.3,17250],[79,17332],[77.7,17416],[74.7,17500],[73,17583],[71.4,17666],[71.4,17750],[71.5,17833],[73.9,17916],[74.3,18000],[75,18083],[75.9,18166],[75.9,18249],[75.9,18333],[76.3,18416],[78.1,18499],[80.1,18583],[80.8,18666],[81.3,18749],[81.3,18833],[81.3,18916],[81.3,18999],[81.3,19083],[81.3,19166],[81.3,19249],[81.3,19333],[81.3,19416],[81.3,19500],[81.3,19583],[80.8,19666],[80.6,19750],[80.6,19833],[80.2,19916],[80.2,19999],[79.5,20083],[79.1,20166],[78.6,20249],[78.2,20332],[78.2,20416],[78,20500],[77.8,20583],[77.7,20666],[77.5,20750],[77.3,20833],[76.4,20917],[76.3,20999],[76.3,21083],[75.3,21166],[74.8,21249],[74.5,21332],[74.5,21416],[74.5,21499],[74.5,21582],[74.5,21666],[74.5,21749],[74.5,21833],[74,21916],[73.2,22000],[71.9,22083],[70.5,22166],[69.3,22249],[67.8,22333]]",1,0,476.3182,479.7678,67.70833333,3.1036,"[{""rating"":67.70833333333334,""responseTime"":3.1035999999996307}]",space,2.9154,,479.7679,Partially,50,479.7692,,,[],,0,12,12,12,1,audio/Narrative8Situation3.wav,audio/Narrative7Situation3.wav,audio/Narrative6Situation3.wav,audio/Narrative5Situation3.wav,4,8,5,3,,,,,,,,,,,,,,,,,,,,,,,,,,,,,,,,,,,,,,,
,,,,,,614e8b8fd294cc8571e9e06e,2024-02-08_13h03.31.431,group3.1-3.2-social-tom,2023.2.2,Win32,59.17159763,65c5074098b851296ff0b7ed,65c54190e423d37d2cdd6ab4,,,,,,,,,,,,,,,,,,,,,,,,,,,,,479.7695,1,audio/Narrative8Situation4.wav,482.7846,,482.7846,496.9675,"[[64.3,666],[64.3,751],[64.2,834],[63.6,917],[62.1,1000],[61.7,1082],[60.9,1166],[58.6,1250],[56.6,1332],[54.6,1416],[53.1,1500],[51.7,1582],[50.3,1666],[49.8,1749],[49.7,1832],[49.7,1916],[49.7,1999],[49.7,2083],[49.7,2166],[49.7,2249],[49.7,2333],[49.7,2416],[49.7,2499],[49.6,2583],[49.4,2666],[49.4,2749],[49.4,2833],[49.2,2916],[49.2,2999],[49.2,3083],[49.2,3166],[49.2,3249],[49.2,3333],[49.2,3416],[51.3,3499],[52.7,3582],[54,3666],[55.6,3749],[57.3,3833],[60.5,3916],[63.8,4000],[66.5,4083],[70.3,4166],[74,4249],[77.5,4332],[81.3,4416],[83.5,4500],[84,4583],[84.2,4666],[84.5,4749],[85,4833],[85,4916],[85.4,4999],[85.4,5082],[85.4,5165],[85.4,5249],[85.4,5332],[85.4,5416],[85.4,5499],[85.5,5582],[85.5,5666],[85.5,5749],[85.5,5832],[85.5,5916],[85.5,6000],[85.5,6083],[85.5,6166],[85.5,6249],[85.5,6332],[85.5,6416],[85.5,6499],[85.5,6583],[85.5,6666],[85.5,6750],[85.5,6833],[85.5,6916],[85.5,6999],[85.5,7083],[85.3,7166],[85.1,7249],[83.9,7333],[83.2,7416],[82.5,7500],[81.9,7583],[81.9,7666],[81.5,7749],[81.5,7833],[81.5,7916],[81.5,7999],[81.5,8082],[81.5,8166],[81.5,8249],[81.5,8333],[81.5,8415],[81.5,8499],[81.3,8583],[81.3,8666],[81.3,8749],[81.3,8833],[81.3,8916],[81.5,8999],[81.5,9083],[81.5,9166],[81.5,9249],[81.5,9333],[81.6,9416],[81.6,9499],[81.6,9583],[81.7,9666],[81.8,9750],[82.1,9833],[82.1,9916],[82.1,10000],[82.1,10083],[82.1,10166],[82.1,10249],[82.1,10333],[82.1,10416],[82.1,10499],[82.1,10583],[82.2,10666],[82.2,10749],[82.2,10833],[82.2,10916],[93.9,12333],[93.9,12416],[94,12499],[94.4,12582],[94.9,12666],[95.8,12749],[95.8,12833],[95.8,12916],[95.8,12999],[95.8,13083],[95.8,13166],[95.9,13250],[95.9,13332],[95.9,13416],[95.9,13499],[95.9,13582],[95.9,13666],[95.9,13749],[95.9,13832],[96.6,13916],[97.4,13999],[98,14082],[99,14166]]",1,0,496.9676,498.6544,97.5,0.7751,"[{""rating"":97.5,""responseTime"":0.7750999999996111}]",space,1.1545,,498.6545,Definitely yes,100,498.6559,,,[],,0,13,13,13,1,audio/Narrative8Situation4.wav,audio/Narrative7Situation4.wav,audio/Narrative6Situation4.wav,audio/Narrative5Situation4.wav,3,3,2,1,,,,,,,,,,,,,,,,,,,,,,,,,,,,,,,,,,,,,,,
,,,,,,614e8b8fd294cc8571e9e06e,2024-02-08_13h03.31.431,group3.1-3.2-social-tom,2023.2.2,Win32,59.17159763,65c5074098b851296ff0b7ed,65c54190e423d37d2cdd6ab4,,,,,,,,,,,,,,,,,,,,,,,,,,,,,498.6561,1,audio/Narrative8Situation5.wav,500.6677,,500.6678,508.9007,"[[999,0],[999,83],[999,166],[999,249],[999,333],[999,416],[999,499],[999,586],[999,666],[999,750],[999,833],[999,916],[999,1004],[999,1083],[999,1166],[999,1253],[999,1336],[999,1416],[999,1503],[999,1583],[999,1667],[999,1753],[60.6,1837],[61,1916],[61.5,2003],[61.9,2083],[63.9,2170],[65.1,2249],[65.7,2333],[66.8,2421],[68.2,2503],[70.2,2586],[72,2670],[72.4,2753],[72.4,2832],[72.8,2916],[77.8,3003],[82.7,3084],[83.8,3170],[83.9,3253],[85,3333],[87.9,3416],[90.9,3503],[94.1,3583],[96.5,3670],[98.5,3749],[99.1,3833],[100,3921],[100,3999],[100,4083],[100,4166],[100,4249],[100,4333],[100,4420],[100,4499],[100,4582],[100,4671],[99.5,4754],[99.3,4837],[99.1,4916],[98.9,4999],[98.9,5086],[98.8,5166],[98.8,5254],[98.6,5333],[98.6,5416],[98.6,5503],[98.5,5587],[98.5,5670],[98.5,5750],[100,5837],[100,5916],[100,5999],[100,6082],[100,6170],[100,6253],[100,6333],[100,6416],[100,6504],[100,6582],[100,6666],[100,6749],[100,6833],[100,6916],[100,6999],[100,7083],[100,7166],[100,7253],[100,7337],[100,7416],[100,7499],[100,7586],[100,7666],[100,7753],[100,7833],[100,7916],[100,8003],[100,8083],[100,8166]]",1,0,508.9007,510.4675,98.4375,1.0763,"[{""rating"":98.4375,""responseTime"":1.0763000000007423}]",space,1.0343,,510.4676,Not at all,0,510.4695,,,[],,0,14,14,14,1,audio/Narrative8Situation5.wav,audio/Narrative7Situation5.wav,audio/Narrative6Situation5.wav,audio/Narrative5Situation5.wav,2,5,2,5,,,,,,,,,,,,,,,,,,,,,,,,,,,,,,,,,,,,,,,
,,,,,,614e8b8fd294cc8571e9e06e,2024-02-08_13h03.31.431,group3.1-3.2-social-tom,2023.2.2,Win32,59.17159763,65c5074098b851296ff0b7ed,65c54190e423d37d2cdd6ab4,,,,,,,,,,,,,,,,,,,,,,,,,,,,,510.4697,1,audio/Narrative8Situation6.wav,512.4839,,512.4839,518.968,"[[45.1,1920],[40.8,2004],[51.6,2337],[56.7,2417],[57.6,2504],[59.2,2583],[59.6,2671],[60.5,2754],[62.1,2833],[62.9,2921],[63.4,3003],[63.4,3083],[63.4,3171],[63.4,3250],[62.8,3337],[61.4,3416],[55.2,3500],[47,3587],[39.4,3671],[37.6,3750],[37.6,3833],[36.9,3916],[36.6,4000],[36.6,4087],[36.6,4167],[41.3,4254],[43,4337],[43.1,4416],[43.1,4504],[43.1,4583],[43.1,4666],[43.1,4754],[43.1,4833],[43.1,4916],[43.1,5000],[43.1,5083],[43.1,5167],[43.1,5250],[43.1,5337],[42.7,5421],[42,5504],[41.3,5588],[40.9,5667],[39.7,5754],[38.6,5833],[36.9,5916],[34.4,6004],[32.9,6087],[31.7,6171],[31.7,6250],[31.7,6333],[31.6,6417]]",1,0,518.9682,526.084,46.25,6.7597,"[{""rating"":50.416666666666664,""responseTime"":5.958199999999238},{""rating"":46.25,""responseTime"":6.75969999999927}]",space,6.5791,,526.0841,Not at all,0,526.0854,,,[],,0,15,15,15,1,audio/Narrative8Situation6.wav,audio/Narrative7Situation6.wav,audio/Narrative6Situation6.wav,audio/Narrative5Situation6.wav,2,3,2,3,,,,,,,,,,,,,,,,,,,,,,,,,,,,,,,,,,,,,,,
,,,,,,614e8b8fd294cc8571e9e06e,2024-02-08_13h03.31.431,group3.1-3.2-social-tom,2023.2.2,Win32,59.17159763,65c5074098b851296ff0b7ed,65c54190e423d37d2cdd6ab4,,,,,,,,,,,,,,,,,,,,,,,,,,,,,526.0855,1,audio/Narrative8Situation7.wav,529.1011,,529.1011,541.184,"[[999,0],[999,83],[999,166],[999,249],[999,332],[999,416],[999,499],[999,583],[999,666],[999,753],[999,833],[999,920],[999,999],[999,1083],[999,1166],[999,1249],[999,1333],[999,1416],[999,1499],[999,1586],[999,1666],[999,1753],[999,1833],[999,1916],[999,2003],[999,2082],[999,2171],[999,2249],[999,2332],[999,2420],[999,2499],[999,2582],[999,2666],[999,2749],[999,2832],[999,2919],[999,2999],[999,3087],[999,3166],[999,3249],[999,3332],[999,3419],[49.6,3503],[49.6,3586],[49.8,3670],[51.3,3755],[53.4,3836],[55.1,3916],[55.7,4003],[56.4,4082],[57.6,4166],[60,4249],[60.1,4337],[60.3,4419],[64.7,4503],[67.5,4583],[65.1,4666],[65.1,4749],[65.1,4836],[65.1,4916],[66.4,5000],[67.2,5082],[67.2,5166],[67.2,5249],[67.2,5333],[67.2,5416],[67.2,5504],[67.2,5583],[67.2,5666],[67.2,5749],[67.2,5832],[67.2,5920],[64.6,6003],[62.8,6087],[62.7,6166],[62.2,6253],[61.8,6332],[60.2,6416],[59.2,6499],[59.2,6583],[60.1,6666],[67.1,6749],[69.2,6836],[72.5,6920],[73.4,7002],[73.4,7082],[73.4,7166],[73.4,7249],[70.9,7332],[69.4,7416],[69.3,7499],[69.3,7582],[69.9,7666],[69.9,7753],[68.3,7832],[67.5,7920],[67.4,7999],[69.3,8086],[70,8166],[70,8249],[70.7,8332],[72.5,8417],[72.5,8499],[72.6,8587],[72.6,8666],[72.6,8749],[71.6,8836],[69.8,8916],[67.8,8999],[63.4,9082],[62.2,9166],[61.7,9249],[61.5,9333],[61.5,9420],[61.3,9503],[61.1,9586],[60.6,9670],[60.2,9749],[60,9832],[59.8,9920],[59.8,9999],[59.7,10082],[59.6,10170],[59.6,10253],[59.6,10332],[59.6,10416],[59.6,10499],[59.6,10582],[59.6,10670],[59.6,10749],[59.6,10832],[59.6,10916],[59.6,10999],[59.6,11087],[59.6,11166],[59.6,11249],[59.4,11332],[58.8,11416],[57.3,11503],[56.4,11582],[55.5,11666],[54.1,11753],[54.1,11832],[54.1,11919],[54.1,11999],[54.1,12082]]",1,0,541.184,547.1678,25.625,5.1447,"[{""rating"":25.624999999999996,""responseTime"":5.14470000000108}]",space,5.4592,,547.1679,Partially,50,547.171,,,[],,0,16,16,16,1,audio/Narrative8Situation7.wav,audio/Narrative7Situation7.wav,audio/Narrative6Situation7.wav,audio/Narrative5Situation7.wav,3,5,5,4,,,,,,,,,,,,,,,,,,,,,,,,,,,,,,,,,,,,,,,
,,,,,,614e8b8fd294cc8571e9e06e,2024-02-08_13h03.31.431,group3.1-3.2-social-tom,2023.2.2,Win32,59.17159763,65c5074098b851296ff0b7ed,65c54190e423d37d2cdd6ab4,,,,,,,,,,,,,,,,,,,,,,,,,,,,,547.1712,1,audio/Narrative8Situation8.wav,550.1841,,550.1843,563.0346,"[[999,8],[999,83],[999,166],[999,253],[999,333],[999,416],[999,499],[999,583],[999,666],[999,749],[999,836],[999,916],[999,999],[999,1086],[999,1166],[999,1253],[999,1332],[999,1416],[999,1503],[999,1582],[999,1666],[999,1749],[999,1833],[999,1916],[999,1999],[999,2083],[999,2166],[999,2249],[999,2336],[999,2420],[999,2503],[18.6,2586],[18.3,2666],[18.3,2749],[18.3,2832],[18.3,2916],[18.3,2999],[18.3,3083],[18.3,3166],[18.3,3249],[18.3,3332],[18.3,3416],[18.3,3503],[18.3,3583],[18.3,3666],[18.3,3753],[18.3,3833],[18.2,3916],[17.9,3999],[16.5,4086],[15.6,4170],[15.1,4249],[14.9,4336],[14.9,4416],[14.6,4499],[14.5,4583],[14.5,4666],[14.4,4749],[14.4,4833],[14.4,4916],[14.4,4999],[14.9,5083],[15.5,5170],[16.3,5253],[16.7,5337],[17.4,5416],[17.8,5503],[18.2,5587],[18.6,5666],[19,5753],[19.3,5833],[19.8,5916],[21,5999],[21.5,6082],[22.1,6166],[25.3,6249],[34.7,6332],[36.6,6419],[37.6,6503],[43.9,6582],[51.5,6666],[51.6,6749],[51.7,6837],[51.8,6916],[52,6999],[54.3,7082],[56.9,7170],[58.4,7253],[58.6,7332],[58.9,7416],[59.2,7503],[59.2,7583],[59.2,7670],[59.2,7749],[59.3,7832],[59.1,7920],[58.2,8003],[57.6,8087],[57.1,8166],[64.6,8253],[66.9,8336],[65.7,8416],[63.9,8499],[59.7,8582],[59.5,8666],[59.5,8750],[59.5,8833],[59.5,8921],[59.5,9004],[57.4,9083],[55.1,9166],[54.4,9254],[53.8,9337],[52.9,9420],[51.9,9503],[50.1,9582],[49.2,9666],[48.4,9754],[47.5,9837],[47.5,9916],[47.5,9999],[47.5,10082],[47.5,10170],[47.5,10249],[47.5,10332],[47.5,10416],[47.5,10503],[47.5,10586],[47.5,10666],[49.2,10750],[49.6,10833],[50.4,10920],[50.4,11003],[50.4,11083],[50.4,11166],[50.4,11249],[50.4,11337],[50.4,11416],[50.4,11499],[50.4,11583],[50.4,11666],[50.4,11749],[50.3,11833],[49.9,11920],[49,11999],[46,12082],[42.7,12166],[35.2,12253],[29.3,12332],[26.9,12420],[24.3,12504],[24.2,12583],[24.2,12670],[24.2,12749],[24.1,12833]]",1,0,563.0349,564.4876,13.125,1.0532,"[{""rating"":13.124999999999998,""responseTime"":1.053200000001084}]",space,0.9164,,564.4876,Partially,50,564.4885,,,[],,0,17,17,17,1,audio/Narrative8Situation8.wav,audio/Narrative7Situation8.wav,audio/Narrative6Situation8.wav,audio/Narrative5Situation8.wav,3,2,5,3,,,,,,,,,,,,,,,,,,,,,,,,,,,,,,,,,,,,,,,
,,,,,,614e8b8fd294cc8571e9e06e,2024-02-08_13h03.31.431,group3.1-3.2-social-tom,2023.2.2,Win32,59.17159763,65c5074098b851296ff0b7ed,65c54190e423d37d2cdd6ab4,,,,,,,,,,,,,,,,,,,,,,,,,,,,,564.4887,1,audio/Narrative8Situation9.wav,567.5009,,567.5009,578.8212,"[[64.7,419],[64.6,499],[64.6,582],[64.6,666],[64.6,752],[64.6,833],[64.4,916],[64.4,999],[64.4,1083],[64.4,1166],[64.4,1249],[64.3,1332],[64.3,1416],[64.2,1502],[64.2,1583],[64.2,1666],[64.2,1749],[64.2,1833],[64.2,1919],[63.8,1999],[46,2420],[45.8,2503],[45.9,2586],[45.9,2666],[45.9,2750],[45.5,2836],[39.7,2916],[38.2,2999],[38.2,3083],[38.2,3166],[38.9,3253],[39,3336],[39,3416],[39,3499],[39,3582],[39,3666],[40.1,3753],[41.5,3836],[41.5,3916],[41.5,4003],[41.9,4083],[42.9,4169],[44.3,4254],[45.4,4333],[47.7,4420],[49.2,4500],[50.6,4586],[52.9,4670],[54.1,4754],[55.5,4834],[57.7,4916],[59.1,5000],[59.3,5082],[59.3,5166],[59.3,5249],[59.1,5333],[58.8,5421],[58.3,5499],[58.2,5583],[58.2,5666],[58.2,5749],[58.2,5833],[58.1,5916],[57.8,5999],[57.4,6083],[56,6166],[55.1,6253],[53.4,6336],[51.9,6419],[51.1,6504],[51,6583],[51.4,6670],[52.7,6754],[54.2,6833],[55.3,6920],[55.6,6999],[57,7086],[57.6,7166],[58.2,7253],[59.2,7332],[59.4,7420],[59.5,7499],[59.5,7582],[59.5,7666],[59.5,7749],[59.5,7832],[58.2,7916],[54.9,8003],[52.9,8082],[50.2,8170],[48.5,8249],[48,8333],[46.3,8416],[45,8503],[44.1,8586],[43,8666],[42.2,8750],[40.5,8836],[40.3,8916],[39.8,8999],[39,9082],[37.7,9170],[34.7,9253],[34.5,9333],[34.4,9416],[34.4,9500],[34.3,9588],[34.3,9666],[35,9754],[35.1,9833],[35.4,9916],[36.3,10000],[36.6,10082],[37.3,10166],[37.4,10249],[37.8,10333],[38.6,10416],[39.4,10499],[40.2,10587],[40.7,10670],[41.6,10752],[42.4,10837],[43.3,10920],[43.3,10999],[43.4,11083],[42.1,11171],[38.5,11254]]",1,0,578.8213,579.767,21.45833333,0.6514,"[{""rating"":21.458333333333336,""responseTime"":0.6513999999986027}]",space,0.3917,,579.767,Not at all,0,579.769,,,[],,0,18,18,18,1,audio/Narrative8Situation9.wav,audio/Narrative7Situation9.wav,audio/Narrative6Situation9.wav,audio/Narrative5Situation9.wav,3,2,4,3,,,,,,,,,,,,,,,,,,,,,,,,,,,,,,,,,,,,,,,
,,,,,,614e8b8fd294cc8571e9e06e,2024-02-08_13h03.31.431,group3.1-3.2-social-tom,2023.2.2,Win32,59.17159763,65c5074098b851296ff0b7ed,65c54190e423d37d2cdd6ab4,,,,,,,,,,,,,,,,,,,,,,,,,,,582.1557,584.7342,584.7444,2,audio/Narrative13Situation2.wav,584.7444,,584.7444,614.4881,"[[46,990],[45.5,1076],[43.8,1160],[37.2,1577],[32.6,1656],[32,1739],[31.9,1822],[31.9,1906],[31.9,1989],[32.2,2072],[34.5,2162],[34.5,2244],[34.5,2323],[34.5,2406],[34.5,2489],[34.5,2572],[33.6,2660],[32.7,2743],[31.7,2822],[30.9,2906],[28.1,2989],[20.3,3072],[17,3156],[16.9,3239],[16.9,3322],[16.8,3406],[16.8,3489],[16.8,3573],[16.8,3656],[16.8,3739],[16.8,3822],[16.8,3906],[16.8,3989],[16.8,4073],[16.8,4156],[16.8,4239],[16.8,4322],[16.8,4406],[16.8,4489],[16.8,4572],[16.8,4656],[16.8,4739],[16.8,4823],[16.8,4906],[16.8,4989],[16.8,5073],[16.8,5156],[16.8,5239],[16.8,5323],[16.8,5406],[16.8,5489],[16.8,5576],[16.8,5655],[16.8,5739],[16.8,5822],[16.8,5906],[16.8,5989],[16.8,6072],[16.8,6156],[16.8,6239],[16.8,6322],[16.8,6406],[16.8,6489],[16.8,6572],[16.8,6656],[16.8,6739],[16.8,6823],[16.8,6906],[16.8,6989],[16.8,7072],[16.8,7160],[16.8,7239],[16.8,7322],[16.8,7405],[16.8,7489],[16.8,7572],[16.8,7660],[16.8,7739],[16.8,7823],[16.8,7906],[16.8,7994],[16.8,8078],[16.8,8156],[25.8,8243],[29.7,8327],[30.5,8410],[36.1,8493],[45,8576],[57.6,8657],[73.3,8743],[81.4,8826],[92.8,8906],[99.5,8989],[100,9076],[100,9155],[100,9239],[100,9323],[100,9406],[100,9489],[100,9573],[100,9656],[100,9739],[100,9823],[100,9906],[100,9989],[100,10073],[100,10156],[100,10239],[100,10328],[100,10408],[100,10489],[100,10573],[100,10656],[99.8,10743],[99.8,10823],[99.8,10910],[99.8,10989],[99.8,11073],[99.8,11156],[99.8,11240],[99.8,11323],[100,11410],[100,11493],[100,11573],[100,11656],[100,11743],[100,11826],[100,11906],[100,11989],[100,12072],[100,12156],[100,12239],[100,12323],[100,12406],[100,12489],[100,12573],[100,12656],[100,12739],[100,12823],[100,12906],[100,12989],[100,13072],[100,13156],[100,13239],[100,13322],[100,13405],[100,13489],[100,13572],[100,13660],[100,13739],[100,13822],[100,13906],[100,13989],[100,14072],[100,14156],[100,14239],[100,14322],[100,14406],[100,14489],[100,14572],[100,14660],[100,14743],[100,14822],[100,14906],[100,14989],[100,15076],[100,15160],[100,15239],[100,15322],[100,15406],[100,15493],[100,15572],[100,15656],[100,15739],[100,15822],[100,15909],[100,15989],[100,16073],[100,16155],[100,16239],[100,16322],[100,16405],[100,16489],[100,16572],[100,16655],[100,16739],[100,16826],[100,16905],[100,16989],[100,17072],[100,17156],[100,17239],[100,17322],[100,17410],[100,17489],[100,17572],[100,17656],[100,17739],[100,17822],[100,17905],[100,17989],[100,18076],[100,18155],[100,18242],[100,18322],[100,18410],[100,18493],[100,18572],[100,18656],[100,18739],[100,18822],[100,18906],[100,18989],[100,19072],[100,19155],[100,19244],[100,19322],[100,19406],[100,19489],[98.8,19583],[94.6,19659],[90.2,19743],[87.6,19822],[84.2,19909],[77.9,19989],[74.9,20076],[73.5,20160],[72.7,20239],[70.7,20326],[70.7,20405],[70.7,20489],[70.7,20576],[53.9,20656],[22.2,20742],[20.1,20822],[19.2,20906],[19.2,20989],[19.2,21072],[19.6,21156],[25.1,21243],[25.8,21322],[26.4,21406],[26.4,21489],[26.4,21572],[26.4,21656],[26.4,21743],[26.4,21822],[26.1,21906],[25.6,21994],[24.6,22076],[24.4,22160],[23.6,22240],[22.8,22322],[21.6,22406],[19.1,22493],[17.7,22576],[13.6,22660],[10,22740],[9.9,22822],[9.9,22906],[9.9,22992],[9.9,23072],[9.9,23156],[9.9,23239],[9.9,23322],[9.9,23405],[9.9,23489],[9.9,23573],[9.9,23659],[9.9,23739],[9.9,23822],[9.9,23906],[9.9,23989],[9.9,24073],[9.9,24156],[9.9,24239],[9.9,24323],[14.8,24406],[21.6,24489],[21.7,24576],[22.9,24659],[25.2,24739],[25.8,24823],[26,24906],[26,24989],[26,25072],[26,25156],[26,25240],[26,25323],[26,25406],[26,25492],[26,25573],[26,25656],[26,25739],[26,25822],[26,25909],[26,25992],[26.5,26072],[26.8,26159],[27.1,26243],[27.3,26323],[28,26406],[29.5,26489],[29.8,26573],[29.8,26656],[29.8,26739],[29.8,26822],[29.6,26906],[27.5,26994],[26.5,27076],[24.2,27156],[22.2,27239],[20,27322],[19.1,27406],[19.2,27489],[19.4,27573],[19.1,27656],[17.9,27739],[17.9,27823],[17.9,27909],[17.9,27989],[17.9,28076],[17.9,28156],[18.2,28239],[19.7,28322],[20.2,28409],[20.7,28489],[21.5,28578],[21.6,28656],[21.6,28739],[20.8,28828],[20.6,28906],[19.9,28989],[19.5,29072],[19.4,29156],[19.1,29243],[19.1,29323],[19.1,29406],[19.1,29489],[18.9,29573],[18.5,29656],[18.5,29743]]",1,0,614.4882,614.4894,,,[],,,,614.4894,Definitely yes,100,614.4909,,,[],,0,0,0,0,1,audio/Narrative13Situation2.wav,audio/Narrative13Situation2.wav,audio/Narrative13Situation2.wav,audio/Narrative13Situation2.wav,2,2,2,2,,,,,579.7695,582.1554,space,1.8677,,,,,,,,,,,,,,,,,,,,,,,,,,,,,,,
,,,,,,614e8b8fd294cc8571e9e06e,2024-02-08_13h03.31.431,group3.1-3.2-social-tom,2023.2.2,Win32,59.17159763,65c5074098b851296ff0b7ed,65c54190e423d37d2cdd6ab4,,,,,,,,,,,,,,,,,,,,,,,,,,,,,614.4911,2,audio/Narrative5Situation1.wav,619.501,,619.501,632.784,"[[47.2,83],[47.9,170],[48.5,255],[48.9,338],[48.9,416],[48.9,499],[48.9,587],[48.9,666],[48.9,750],[48.6,837],[47.6,916],[46.9,999],[46.4,1087],[45.7,1166],[44.9,1249],[44.8,1333],[44.2,1416],[42.5,1503],[42.4,1583],[42.2,1670],[42.2,1750],[42.2,1833],[42.2,1917],[42.2,1999],[42.2,2086],[42.2,2166],[42,2254],[41.9,2333],[41.9,2416],[41.5,2504],[39.8,2586],[34.6,2670],[31.4,2754],[30.2,2839],[28.1,2916],[26,3006],[22.9,3087],[20,3168],[19.2,3253],[18.6,3337],[17.9,3420],[15.4,3503],[14.4,3586],[14.4,3666],[14.4,3749],[7.4,3832],[3.4,3917],[3.4,4004],[3.4,4083],[3.4,4166],[3.4,4250],[4.1,4337],[4.8,4416],[4.8,4500],[4.8,4583],[4.8,4666],[4.8,4750],[4.8,4833],[4.8,4916],[4.8,4999],[4.8,5083],[4.8,5166],[4.8,5249],[4.8,5333],[4.8,5416],[4.8,5499],[4.8,5586],[4.8,5666],[4.8,5749],[4.8,5833],[4.8,5916],[4.8,6002],[4.8,6087],[4.8,6166],[4.8,6249],[4.8,6333],[4.8,6416],[4.8,6499],[4.8,6582],[4.8,6666],[4.8,6749],[4.8,6833],[4.8,6916],[4.8,6999],[4.8,7082],[4.8,7166],[4.8,7249],[4.8,7333],[4.8,7416],[4.8,7499],[4.8,7583],[4.8,7666],[4.8,7749],[4.8,7833],[4.8,7916],[4.8,7999],[4.8,8082],[4.8,8166],[4.8,8249],[4.8,8333],[4.8,8416],[4.8,8499],[4.8,8582],[4.8,8666],[4.8,8749],[4.8,8833],[4.8,8920],[4.8,8999],[4.8,9082],[4.8,9166],[4.8,9249],[4.8,9336],[4.8,9416],[4.8,9499],[4.8,9582],[4.8,9665],[4.8,9749],[4.8,9836],[4.8,9915],[4.8,9999],[4.8,10082],[4.8,10165],[4.8,10249],[4.8,10332],[4.8,10416],[4.8,10499],[4.8,10583],[4.8,10666],[4.8,10749],[15.2,10833],[23.1,10916],[23.1,10999],[23.1,11082],[23.1,11165],[23.2,11249],[23.2,11336],[23.6,11416],[24.2,11500],[24.9,11586],[25.8,11667],[27.8,11753],[29.9,11837],[31.5,11920],[33.4,12003],[35.8,12082],[40.8,12169],[44.2,12253],[45.1,12332],[46.7,12419],[48.8,12499],[49.7,12582],[50.1,12665],[50.2,12749],[50.2,12832],[50.3,12916],[50.3,12999],[50.7,13082],[50.7,13165],[50.7,13249]]",1,0,632.7842,638.755,49.16666667,5.3701,"[{""rating"":49.166666666666664,""responseTime"":5.370099999999638}]",space,5.4331,,638.7551,Definitely yes,100,646.8057,99.47916667,6.9163,"[{""rating"":99.47916666666667,""responseTime"":6.916300000000774}]",space,0,1,1,1,1,audio/Narrative7Situation1.wav,audio/Narrative8Situation1.wav,audio/Narrative5Situation1.wav,audio/Narrative6Situation1.wav,2,5,5,2,,,7.5166,,,,,,,,,,,,,,,,,,,,,,,,,,,,,,,,,,,,
,,,,,,614e8b8fd294cc8571e9e06e,2024-02-08_13h03.31.431,group3.1-3.2-social-tom,2023.2.2,Win32,59.17159763,65c5074098b851296ff0b7ed,65c54190e423d37d2cdd6ab4,,,,,,,,,,,,,,,,,,,,,,,,,,,,,646.8061,2,audio/Narrative5Situation2.wav,649.8215,,649.8215,679.2706,"[[47,1416],[46.9,1500],[46.7,1583],[46.7,1666],[46.7,1750],[46.6,1833],[45.4,1915],[44.1,2000],[43.9,2082],[43.9,2166],[43.9,2250],[43.3,2333],[42.2,2416],[41.3,2499],[40.8,2582],[40.8,2665],[40.7,2750],[41.3,2833],[41.3,2916],[41.3,2999],[41.7,3083],[41.8,3166],[41.8,3250],[41.8,3333],[41.8,3416],[41.8,3500],[41.8,3583],[41.8,3667],[41.8,3750],[41.8,3834],[41.8,3916],[41.8,4000],[41.8,4083],[41.8,4167],[41.8,4250],[41.8,4333],[41.8,4417],[41.8,4500],[41.8,4583],[41.8,4667],[41.8,4750],[41.8,4833],[41.8,4917],[41.8,5000],[41.8,5082],[41.8,5166],[41.8,5250],[41.8,5335],[41.3,5416],[39.9,5500],[38.2,5585],[36.9,5666],[36.8,5750],[36.1,5833],[36.1,5917],[36,5999],[36,6083],[36,6166],[35.9,6249],[35.2,6333],[34.6,6416],[33.8,6499],[32.1,6583],[30.4,6666],[29.8,6750],[29,6834],[28.4,6916],[28.2,7000],[27.3,7082],[25.9,7167],[25.5,7249],[25.5,7333],[25.5,7416],[25.5,7500],[22.1,9000],[22.1,9083],[22.1,9166],[21.9,9250],[21.3,9333],[20.7,9416],[20.3,9500],[19.3,9582],[18.4,9666],[17.9,9749],[17.9,9833],[17.5,9916],[17.1,9999],[17.1,10083],[4.4,18915],[4.8,19000],[6.1,19082],[6.9,19168],[7.7,19249],[10.1,19332],[12.5,19416],[13.1,19499],[13.1,19583],[13.1,19665],[13.1,19749],[12.9,19833],[12.8,19916],[12.8,20000],[12.8,20083],[12.8,20166],[15,20249],[17.6,20333],[18.4,20417],[19,20500],[19,20583],[10.7,21582],[12.6,21666],[13.9,21749],[15,21832],[16.3,21916],[16.9,22000],[17.2,22084],[17.8,22167],[18.5,22249],[18.8,22332],[18.9,22416],[19.1,22499],[19.8,22582],[20.6,22665],[22.1,22750],[24,22832],[26.4,22916],[31.7,24666],[31.9,24749],[32.1,24833],[31.4,24917],[28.4,24999],[26.9,25082],[24.5,25166],[22.5,25249],[19.9,25333],[19.5,25416],[19.5,25500],[19.5,25583],[19.5,25666],[19.5,25749],[19.5,25833],[19.5,25916],[19.5,25999],[19.5,26083],[19.5,26165],[19.5,26249],[19.5,26332],[19.5,26417],[19.5,26500],[19.5,26583],[19.5,26667],[19.5,26749],[19.5,26833],[19.5,26917],[19.5,27000],[19.5,27083],[19.5,27167],[19.5,27249],[19.5,27333],[19.5,27416],[19.5,27499],[19.5,27583],[19.5,27666],[19.5,27749],[19.6,27833],[19.7,27916],[19.7,27999],[20.1,28082],[20.1,28166],[20.1,28249],[20.1,28333],[20.1,28416],[20.3,28500],[20.3,28582],[20.3,28666],[20.3,28750],[20.3,28833],[20.3,28916],[20.3,29000],[20.7,29083],[20.8,29166],[21.4,29250],[21.6,29333]]",1,0,679.2707,681.3334,9.583333333,1.1501,"[{""rating"":9.583333333333332,""responseTime"":1.15010000000143}]",space,1.5185,,681.3334,Partially,50,681.3357,,,[],,0,2,2,2,1,audio/Narrative7Situation2.wav,audio/Narrative8Situation2.wav,audio/Narrative5Situation2.wav,audio/Narrative6Situation2.wav,3,3,3,3,,,,,,,,,,,,,,,,,,,,,,,,,,,,,,,,,,,,,,,
,,,,,,614e8b8fd294cc8571e9e06e,2024-02-08_13h03.31.431,group3.1-3.2-social-tom,2023.2.2,Win32,59.17159763,65c5074098b851296ff0b7ed,65c54190e423d37d2cdd6ab4,,,,,,,,,,,,,,,,,,,,,,,,,,,,,681.3359,2,audio/Narrative5Situation3.wav,684.3509,,684.351,698.2509,"[[999,0],[999,83],[999,170],[999,249],[999,332],[999,420],[999,499],[999,583],[999,667],[999,750],[999,833],[999,919],[999,999],[999,1083],[999,1165],[999,1249],[999,1336],[999,1416],[999,1499],[999,1583],[999,1666],[999,1753],[999,1833],[999,1919],[999,2003],[999,2083],[999,2170],[999,2253],[999,2337],[999,2416],[999,2500],[999,2583],[999,2665],[999,2749],[999,2833],[999,2916],[999,3003],[999,3086],[999,3166],[999,3250],[999,3333],[999,3416],[999,3499],[999,3586],[999,3665],[999,3750],[999,3833],[999,3916],[999,3999],[999,4082],[999,4165],[999,4249],[999,4338],[999,4415],[999,4500],[999,4582],[999,4665],[999,4752],[999,4836],[999,4919],[45.9,4999],[47.9,5086],[48.1,5169],[48.1,5249],[48.1,5332],[48.1,5419],[52.6,5503],[54,5586],[55.8,5665],[60.3,5753],[60.3,5832],[60.3,5919],[65.1,5999],[69.7,6083],[69.7,6166],[69.7,6252],[69.7,6332],[70.2,6419],[71.5,6502],[72.5,6582],[72.8,6668],[73.2,6748],[73.4,6832],[74,6919],[74.6,6999],[75.4,7086],[75.9,7169],[76.8,7316],[77.2,7399],[78,7482],[79.1,7566],[80.4,7649],[82,7733],[83,7816],[83.5,7899],[85.2,7983],[86,8066],[86.9,8150],[87.7,8233],[88.4,8315],[89.2,8399],[89.7,8483],[91,8565],[91.8,8649],[92.7,8732],[93.4,8816],[94.2,8899],[95.4,8983],[95.7,9065],[96.8,9149],[97,9233],[97.6,9315],[97.9,9399],[97.9,9482],[97.9,9566],[97.5,9650],[96.3,9732],[95.9,9815],[95.8,9899],[95.6,9983],[95.6,10065],[95.6,10149],[95.6,10233],[95.6,10317],[95.6,10399],[95.9,10483],[95.9,10567],[95.9,10649],[95.9,10733],[95.9,10815],[95.9,10899],[95.8,10982],[95.6,11066],[95.3,11149],[95.1,11232],[95.1,11316],[94.9,11399],[94.9,11482],[94.9,11565],[94.9,11649],[94.9,11732],[94.9,11816],[94.9,11899],[94.9,11982],[94.9,12065],[94.9,12149],[94.9,12232],[94.9,12316],[94.9,12399],[94.8,12483],[94.8,12566],[94.8,12649],[94.8,12733],[94.8,12816],[94.8,12899],[94.8,12983],[94.8,13066],[94.8,13149],[94.8,13232],[94.8,13315],[94.7,13399],[93.6,13483],[93.4,13566],[93.4,13649],[93.4,13732],[93.4,13816],[93.4,13899]]",1,0,698.2511,700.3677,94.16666667,0.9075,"[{""rating"":94.16666666666667,""responseTime"":0.9074999999999136}]",space,1.5666,,700.3678,Partially,50,700.3689,,,[],,0,3,3,3,1,audio/Narrative7Situation3.wav,audio/Narrative8Situation3.wav,audio/Narrative5Situation3.wav,audio/Narrative6Situation3.wav,8,4,3,5,,,,,,,,,,,,,,,,,,,,,,,,,,,,,,,,,,,,,,,
,,,,,,614e8b8fd294cc8571e9e06e,2024-02-08_13h03.31.431,group3.1-3.2-social-tom,2023.2.2,Win32,59.17159763,65c5074098b851296ff0b7ed,65c54190e423d37d2cdd6ab4,,,,,,,,,,,,,,,,,,,,,,,,,,,,,700.3692,2,audio/Narrative5Situation4.wav,701.3844,,701.3844,721.7834,"[[91.9,83],[91.8,166],[91.7,250],[91.5,333],[91.5,416],[91.4,499],[91.4,583],[91.4,665],[91.4,750],[91.3,833],[90.9,916],[90.6,999],[90.1,1083],[89.3,1166],[86.9,1249],[80.1,1332],[72.5,1415],[57.5,1498],[52.1,1583],[51,1666],[50.3,1748],[50.3,1832],[50.3,1916],[50.3,1999],[50.3,2083],[50.3,2165],[54.3,2249],[63.1,2332],[63.9,2416],[63.9,2499],[63.9,2583],[63.8,2665],[45.9,3749],[45.9,3832],[45.9,3917],[45.9,3999],[45.9,4083],[43.3,4165],[42.4,4249],[42.2,4333],[41.7,4415],[40.1,4499],[39.2,4582],[39.2,4665],[38.2,4748],[35,4832],[34.7,4916],[34.6,4998],[34.6,5082],[33.9,5166],[30.7,5249],[29.9,5333],[29.6,5416],[28.4,5499],[27.9,5582],[25.8,5665],[23.6,5748],[22.2,5832],[21.8,5915],[21.6,5999],[20.9,6084],[20.6,6166],[20.6,6249],[20.6,6333],[20.6,6416],[20.6,6499],[20.6,6583],[20.7,6666],[20.9,6749],[21.1,6832],[21.3,6915],[21.3,6999],[21.3,7082],[21.3,7165],[21.3,7248],[21.3,7333],[21.4,7415],[21.6,7499],[22.3,7582],[22.6,7665],[23.1,7748],[23.1,7833],[23.1,7917],[23.1,8000],[23.1,8083],[23.3,8166],[23.3,8250],[23.3,8333],[23.3,8416],[23.3,8500],[23.3,8582],[23.5,8666],[23.5,8749],[23.5,8832],[24.1,8915],[25.4,8998],[26.6,9082],[27.5,9165],[28.4,9249],[29.4,9332],[30.2,9416],[30.3,9499],[30.4,9582],[30.4,9665],[30.4,9749],[31,9832],[32.8,9917],[35.6,9998],[38.9,10083],[47.3,10248],[50.8,10332],[55.7,10415],[60.3,10498],[64.5,10582],[65.2,10667],[65.3,10749],[65.3,10832],[65.3,10915],[66,11000],[66.7,11082],[67,11165],[69.9,11249],[71.8,11332],[71.8,11416],[71.8,11500],[71.8,11582],[71.8,11666],[73.3,11750],[74.7,11832],[75.4,11915],[75.6,12000],[75.6,12082],[75.6,12165],[75.6,12249],[75.6,12332],[75.6,12415],[75.6,12499],[75.6,12582],[75.6,12665],[75.6,12748],[75.6,12832],[75.6,12915],[75.6,12998],[75.6,13082],[75.6,13165],[75.6,13249],[75.6,13332],[75.6,13415],[75.6,13499],[75.6,13582],[75.6,13665],[75.6,13749],[75.6,13832],[75.6,13916],[75.6,13999],[75.6,14082],[75.6,14165],[75.6,14249],[75.6,14332],[75.6,14415],[75.6,14499],[75.6,14582],[75.6,14665],[75.5,14748],[75.1,14832],[74.8,14916],[74.6,14999],[74.4,15082],[73.8,15166],[73.2,15249],[73,15332],[73.2,15415],[77,15498],[82.4,15582],[88,15665],[90.8,15749],[90.8,15832],[91.1,15915],[91.3,15999],[92.2,16083],[94.6,16165],[95.8,16250],[96.5,16333],[97,16416],[97,16499],[97.9,16582],[98.2,16666],[98.2,16748],[98.2,16832],[98.2,16915],[98.2,16999],[98.2,17083],[98.2,17166],[98.2,17249],[98.2,17333],[98.2,17415],[98.2,17499],[98.2,17583],[98.2,17666],[98.2,17749],[98.2,17833],[98.2,17915],[98.2,17999],[98.2,18083],[98.2,18166],[98.2,18249],[98.2,18333],[98.2,18416],[98.2,18500],[98.2,18583],[98.2,18666],[98.2,18749],[98.2,18833],[98.2,18915],[98.2,18999],[98.2,19083],[98.2,19165],[98.2,19248],[98.2,19332],[98.2,19416],[98.2,19499],[98.2,19582],[98.2,19665],[98.2,19748],[98.2,19832],[98.2,19915],[97.3,19998],[96,20082],[95.9,20165],[95.8,20248],[95.5,20332]]",1,0,721.7835,723.4343,99.16666667,0.7556,"[{""rating"":99.16666666666667,""responseTime"":0.7555999999996175}]",space,1.1224,,723.4344,Not at all,0,723.4373,,,[],,0,4,4,4,1,audio/Narrative7Situation4.wav,audio/Narrative8Situation4.wav,audio/Narrative5Situation4.wav,audio/Narrative6Situation4.wav,3,3,1,2,,,,,,,,,,,,,,,,,,,,,,,,,,,,,,,,,,,,,,,
,,,,,,614e8b8fd294cc8571e9e06e,2024-02-08_13h03.31.431,group3.1-3.2-social-tom,2023.2.2,Win32,59.17159763,65c5074098b851296ff0b7ed,65c54190e423d37d2cdd6ab4,,,,,,,,,,,,,,,,,,,,,,,,,,,,,723.4375,2,audio/Narrative5Situation5.wav,728.4508,,728.4509,743.8835,"[[90.9,667],[90.9,749],[90.8,833],[90.1,917],[89.4,999],[87.7,1083],[85.3,1165],[82.8,1249],[81,1332],[78.4,1416],[74.8,1500],[68.5,1582],[65.6,1666],[63.4,1749],[62.2,1833],[61.7,1916],[60.8,1999],[60,2082],[59.5,2166],[59.5,2249],[59.5,2332],[59.5,2416],[59.5,2500],[59.5,2582],[59.5,2666],[59.5,2749],[59.5,2832],[59.5,2916],[59.5,2999],[59.5,3083],[59.5,3166],[59.5,3249],[59.5,3332],[59.5,3416],[59.5,3499],[59.5,3582],[59.5,3666],[59.5,3749],[59.5,3832],[59.5,3916],[59.5,3999],[59.5,4082],[59.5,4166],[59.2,4249],[59.2,4332],[59.2,4415],[59.1,4499],[59.1,4582],[59.1,4665],[59.1,4749],[59.1,4832],[59.1,4915],[59.1,4999],[59.1,5082],[59.1,5166],[59.1,5249],[59.1,5332],[59.1,5415],[59.1,5499],[59.1,5582],[59.1,5666],[59.1,5749],[59.1,5832],[59.1,5916],[59.1,5999],[59.1,6083],[59.1,6165],[59.1,6249],[59.1,6332],[59.1,6416],[59.1,6500],[59.1,6582],[59.1,6666],[59.1,6749],[59.1,6832],[59.1,6915],[59.1,6999],[59.1,7082],[59.1,7165],[59.1,7249],[59.1,7332],[59.1,7416],[59.1,7499],[59.1,7582],[59.1,7666],[59.1,7749],[59.1,7832],[59.1,7916],[58.3,7999],[57.7,8082],[56.7,8165],[54.7,8249],[52.7,8332],[50.9,8415],[49,8499],[46.5,8582],[44.6,8666],[43.8,8749],[42.6,8833],[41.7,8916],[40.7,8999],[40.6,9082],[40.6,9166],[40.6,9249],[40.6,9332],[43.4,9415],[45.9,9499],[49.9,9582],[55.6,9665],[60.9,9750],[61.8,9832],[61.8,9916],[59.5,9999],[55.2,10082],[53.1,10165],[52,10249],[51.1,10332],[49.7,10417],[49.6,10500],[49.6,10582],[49.6,10666],[49.6,10749],[49.6,10832],[49.6,10917],[50,10999],[50.8,11082],[50.9,11166],[50.9,11249],[51,11332],[51,11416],[51,11499],[51,11582],[51,11665],[51,11749],[51,11832],[51,11916],[51,11999],[51,12083],[51,12166],[51,12248],[51,12332],[51,12416],[51,12499],[51,12582],[51,12665],[51,12749],[51,12832],[51,12915],[51,12999],[51,13082],[51,13166],[51,13250],[51,13332],[51,13416],[51,13500],[51,13583],[51,13666],[51,13750],[51,13833],[51,13916],[51,14000],[51,14083],[51,14166],[51,14250],[51,14333],[51,14416],[51,14499],[51,14583],[51,14666],[51,14749],[51,14833],[51,14916],[51,14999],[51,15083],[51,15166],[51,15249],[49.6,15332]]",1,0,743.8839,746.3838,15.20833333,2.1882,"[{""rating"":15.208333333333336,""responseTime"":2.188199999999256}]",space,1.9717,,746.3839,Partially,50,746.3861,,,[],,0,5,5,5,1,audio/Narrative7Situation5.wav,audio/Narrative8Situation5.wav,audio/Narrative5Situation5.wav,audio/Narrative6Situation5.wav,5,2,5,2,,,,,,,,,,,,,,,,,,,,,,,,,,,,,,,,,,,,,,,
,,,,,,614e8b8fd294cc8571e9e06e,2024-02-08_13h03.31.431,group3.1-3.2-social-tom,2023.2.2,Win32,59.17159763,65c5074098b851296ff0b7ed,65c54190e423d37d2cdd6ab4,,,,,,,,,,,,,,,,,,,,,,,,,,,,,746.3864,2,audio/Narrative5Situation6.wav,749.4009,,749.4009,755.0843,"[[13.5,999],[11.6,1082],[10.8,1165],[10.3,1250],[10.4,1332],[10.9,1416],[12.5,1499],[14.2,1583],[14.4,1666],[14.4,1749],[14.6,1833],[14.6,1915],[15.3,1999],[17,2083],[18.3,2166],[19.1,2249],[19.5,2333],[20.4,2415],[21.6,2499],[22.2,2584],[22.5,2666],[22.5,2749],[22.5,2833],[22.5,2916],[22.5,3000],[22.5,3082],[22.5,3165],[22.5,3249],[22.5,3332],[22.5,3416],[22.5,3499],[22.8,3583],[22.9,3666],[22.9,3749],[23,3833],[23.1,3916],[23.3,3999],[23.5,4082],[24.1,4165],[24.5,4250],[24.9,4333],[25.3,4416],[25.6,4500],[26,4583],[26.4,4667],[26.8,4749],[26.9,4832],[27.1,4916],[27.3,4999],[27.5,5083],[27.6,5165],[27.8,5249],[27.8,5333],[28,5415],[28,5499],[28.1,5583],[28.4,5666]]",1,0,755.0844,759.6998,50.625,2.9395,"[{""rating"":50.625,""responseTime"":2.9395000000000664}]",space,4.0706,,759.6998,Partially,50,759.7016,,,[],,0,6,6,6,1,audio/Narrative7Situation6.wav,audio/Narrative8Situation6.wav,audio/Narrative5Situation6.wav,audio/Narrative6Situation6.wav,3,2,3,2,,,,,,,,,,,,,,,,,,,,,,,,,,,,,,,,,,,,,,,
,,,,,,614e8b8fd294cc8571e9e06e,2024-02-08_13h03.31.431,group3.1-3.2-social-tom,2023.2.2,Win32,59.17159763,65c5074098b851296ff0b7ed,65c54190e423d37d2cdd6ab4,,,,,,,,,,,,,,,,,,,,,,,,,,,,,759.7018,2,audio/Narrative5Situation7.wav,763.7169,,763.7169,784.7668,"[[48.1,1333],[48.1,1416],[48,2916],[47.9,2999],[48,3082],[48,3166],[49.2,3249],[51.3,3332],[53.3,3416],[54.4,3500],[55.2,3583],[55.3,3666],[55.3,3749],[55.3,3833],[55.3,3916],[55.3,3999],[55.3,4083],[56.3,4167],[59.5,4250],[61.1,4332],[61.4,4416],[61.4,4500],[61.4,4582],[61.4,4666],[61.4,4749],[61.4,4833],[61.4,4916],[61.1,4999],[61,5083],[60.7,5168],[60.6,5250],[60.6,5332],[61.9,5416],[67.6,5499],[69.6,5582],[70.3,5666],[70.3,5749],[70.3,5833],[70.3,5916],[69.9,6000],[69.9,6083],[69.8,6166],[69.6,6250],[69.6,6333],[70.7,6417],[77.6,6499],[78.5,6583],[78.5,6666],[78.5,6750],[78.5,6833],[78.5,6916],[78.5,7000],[78.4,7083],[78.4,7166],[78.4,7250],[78.4,7333],[78.2,7416],[78.1,7500],[77.9,7584],[77.7,7666],[77.7,7749],[77.5,7833],[77.5,7916],[77.5,7999],[77.4,8083],[77.4,8166],[77.2,8249],[77.2,8333],[77.2,8416],[77,8500],[77,8582],[76.5,8666],[76.1,8749],[75.8,8833],[75.1,8916],[74.6,9000],[73.4,9083],[72.5,9166],[71.4,9249],[70.8,9333],[70.3,9416],[70.1,9499],[70.1,9583],[70,9666],[69.3,9749],[67.6,9833],[66.3,9916],[66.1,9999],[65.2,10083],[64.7,10166],[64.3,10250],[63.8,10333],[63.6,10416],[63.2,10499],[62.8,10583],[62.5,10666],[62,10750],[61.4,10833],[60.3,10916],[59.8,11000],[59.4,11083],[59.2,11166],[58.5,11249],[57.5,11332],[57.4,11416],[57.4,11499],[57.3,11583],[56.9,11666],[56.7,11749],[56.7,11833],[56.7,11916],[56.7,11999],[56.5,12083],[56.5,12166],[56.5,12250],[56.5,12333],[56.5,12416],[56.5,12499],[56.5,12583],[56.5,12666],[56.5,12749],[56.5,12833],[56.5,12916],[56.5,13000],[56.5,13083],[56.5,13166],[56.5,13250],[56.5,13333],[56.5,13416],[56.5,13500],[56.5,13583],[56.5,13666],[56.5,13749],[56.5,13833],[56.5,13916],[56.5,14000],[56.5,14083],[56.5,14166],[56.5,14249],[56.5,14333],[56.5,14416],[56.5,14500],[56.5,14583],[56.5,14666],[56.5,14749],[56.5,14833],[56.5,14917],[56.5,14999],[56.5,15083],[56.5,15166],[56.5,15249],[56.5,15333],[56.5,15416],[56.5,15499],[56.5,15583],[56.5,15666],[56.5,15749],[56.5,15833],[56.5,15916],[56.5,15999],[56.5,16083],[56.5,16166],[56.5,16249],[56.5,16333],[56.5,16416],[56.1,16499],[55.7,16583],[55.1,16667],[54.5,16750],[53.9,16833],[52.9,16916],[51.8,16999],[51,17082],[50.3,17166],[27.1,17582],[25.6,17810],[24.6,17866],[24.2,17949],[19.1,18032],[17.2,18116],[16.8,18199],[17.5,18282],[18.3,18366],[18.3,18449],[18.3,18533],[18.3,18616],[18.3,18699],[16.6,18783],[15.8,18866],[15.6,18949],[14.3,19033],[12.4,19116],[11.7,19199],[11.3,19283],[11.3,19366],[11.3,19449],[11.4,19533],[11.5,19616],[11.5,19700],[11.5,19783],[11.5,19866],[11.5,19949],[11.5,20033],[11.5,20117],[11.5,20199],[11.5,20283],[11.5,20366],[11.5,20449],[11.5,20533],[11.5,20616],[11.5,20699],[11.5,20783],[11.5,20867],[11.5,20949],[11.5,21033]]",1,0,784.7669,787.0837,3.854166667,1.8306,"[{""rating"":3.8541666666666643,""responseTime"":1.830599999999663}]",space,1.7717,,787.0837,Definitely yes,100,787.0878,,,[],,0,7,7,7,1,audio/Narrative7Situation7.wav,audio/Narrative8Situation7.wav,audio/Narrative5Situation7.wav,audio/Narrative6Situation7.wav,5,3,4,5,,,,,,,,,,,,,,,,,,,,,,,,,,,,,,,,,,,,,,,
,,,,,,614e8b8fd294cc8571e9e06e,2024-02-08_13h03.31.431,group3.1-3.2-social-tom,2023.2.2,Win32,59.17159763,65c5074098b851296ff0b7ed,65c54190e423d37d2cdd6ab4,,,,,,,,,,,,,,,,,,,,,,,,,,,,,787.0882,2,audio/Narrative5Situation8.wav,790.1002,,790.1003,798.9335,"[[55,916],[55,999],[54.5,1083],[54.4,1166],[54.4,1249],[50.3,1332],[37.3,1416],[28.4,1499],[23.4,1582],[16.4,1666],[9.1,1750],[7.1,1832],[7.1,1916],[7.1,1999],[8,2084],[8.4,2166],[8.4,2249],[8.4,2332],[8.4,2416],[8.4,2499],[8.6,2583],[8.6,2666],[8.6,2749],[8.6,2833],[8.6,2916],[9.2,3000],[9.3,3083],[9.3,3166],[9.3,3249],[9.3,3332],[9.4,3416],[9.4,3499],[9.5,3583],[9.5,3666],[9.5,3749],[9.6,3832],[9.6,3916],[9.7,3999],[9.8,4083],[9.8,4166],[9.9,4249],[9.9,4332],[9.9,4416],[9.9,4499],[9.9,4583],[9.9,4666],[9.9,4749],[9.9,4833],[9.9,4916],[9.9,4999],[9.9,5083],[9.9,5166],[9.9,5249],[9.9,5332],[9.9,5416],[9.9,5499],[9.9,5582],[9.9,5666],[9.9,5749],[9.9,5832],[9.9,5916],[9.9,5999],[9.9,6083],[9.9,6166],[9.9,6249],[9.9,6333],[9.9,6416],[9.9,6499],[9.9,6583],[9.9,6666],[9.9,6750],[9.9,6833],[9.9,6916],[9.9,6999],[9.9,7083],[9.9,7166],[9.9,7249],[9.9,7333],[9.9,7416],[9.9,7499],[9.9,7583],[9.9,7666],[9.9,7749],[9.9,7833],[9.9,7916],[9.9,7999],[9.9,8083],[9.9,8166],[9.9,8249],[9.9,8332],[9.9,8416],[9.9,8499],[9.9,8583],[9.9,8666],[9.9,8749],[9.9,8833]]",1,0,798.9337,801.2998,1.979166667,1.7797,"[{""rating"":1.9791666666666652,""responseTime"":1.7796999999992522}]",space,1.8193,,801.2998,Partially,50,801.3019,,,[],,0,8,8,8,1,audio/Narrative7Situation8.wav,audio/Narrative8Situation8.wav,audio/Narrative5Situation8.wav,audio/Narrative6Situation8.wav,2,3,3,5,,,,,,,,,,,,,,,,,,,,,,,,,,,,,,,,,,,,,,,
,,,,,,614e8b8fd294cc8571e9e06e,2024-02-08_13h03.31.431,group3.1-3.2-social-tom,2023.2.2,Win32,59.17159763,65c5074098b851296ff0b7ed,65c54190e423d37d2cdd6ab4,,,,,,,,,,,,,,,,,,,,,,,,,,,,,801.302,2,audio/Narrative5Situation9.wav,804.3169,,804.3169,843.8667,"[[4.5,12716],[34.7,14299],[24.3,14382],[21,14466],[20.7,14549],[27.1,14632],[42.5,14716],[49.8,14799],[50.8,14884],[51.3,14966],[52.4,15049],[53.8,15133],[52,15216],[50.4,15301],[49.2,15382],[46.4,15466],[46.4,15549],[46.4,15633],[47.5,15716],[48.3,15799],[47.5,15882],[30.3,15966],[24.7,16049],[34.2,16132],[40.4,16218],[41,16300],[47.2,16382],[68.1,16466],[76.9,16549],[76.9,16632],[78.1,16716],[83.9,16800],[85.6,16882],[89.1,16966],[89.4,17049],[89.7,17132],[93,17217],[93.5,17299],[93.5,17383],[93.5,17466],[93.5,17549],[93.5,17632],[93.5,17716],[93.5,17799],[93.5,17882],[93.5,17966],[93.5,18049],[93.5,18133],[93.5,18216],[93.5,18299],[93.5,18382],[93.4,18466],[93.4,18549],[92.8,18632],[92.7,18716],[92.7,18799],[92.5,18883],[92.5,18966],[92.5,19049],[92.3,19132],[92,19215],[91.6,19300],[91.4,19383],[91,19466],[91,19549],[90.9,19632],[90.8,19716],[90.8,19799],[90.4,19883],[90.4,19966],[90.1,20049],[90.1,20132],[90,20216],[89.8,20299],[89.8,20382],[89.3,20467],[89.3,20549],[89,20633],[88.8,20717],[88.8,20799],[88.5,20883],[88.2,20966],[88,21049],[87.9,21132],[87.9,21216],[87.9,21299],[87.9,21382],[87.8,21466],[87.6,21549],[87.5,21632],[86.6,21717],[86.4,21799],[86.3,21883],[86.3,21966],[86.3,22049],[86.1,22133],[86.1,22216],[86,22299],[85.9,22383],[85.7,22467],[85.6,22549],[85.6,22632],[85.4,22717],[85.4,22800],[85.2,22883],[85.2,22966],[85.2,23051],[85.2,23132],[85.2,23217],[85.2,23299],[85.2,23382],[85.2,23466],[85.2,23550],[85.2,23633],[85.2,23716],[85.2,23799],[85.2,23882],[85.2,23967],[85.2,24050],[86.1,24132],[86.8,24216],[87.8,24299],[88.1,24384],[89.4,24466],[91,24549],[92.8,24632],[92.9,24715],[92.9,24799],[92.9,24882],[93,24966],[93,25049],[92.8,25132],[92.7,25216],[91.9,25299],[91.5,25383],[90.8,25467],[89.6,25550],[89.6,25632],[93.2,25716],[94.9,25800],[94.9,25883],[93.8,25966],[92.6,26049],[92.1,26133],[92.1,26216],[91.7,26299],[89.2,26382],[87.7,26466],[87.7,26550],[86.7,26632],[80.1,26716],[75.7,26799],[75.1,26883],[74.9,26966],[74.9,27050],[72.3,27132],[66.4,27216],[66.4,27299],[67.3,27382],[74.5,27466],[85.8,27549],[90.4,27634],[93.2,27716],[94.4,27800],[97.2,27882],[100,27966],[100,28049],[100,28133],[100,28216],[98.8,28300],[98.6,28383],[98,28466],[98,28550],[98,28633],[100,28716],[100,28799],[100,28883],[100,28967],[98.2,29049],[98.1,29132],[98.1,29216],[99.2,29299],[99.6,29382],[99.7,29466],[100,29549],[100,29632],[100,29716],[100,29799],[100,29882],[100,29966],[100,30049],[100,30132],[100,30217],[99.3,30300],[98.6,30382],[98.5,30466],[99.1,30549],[100,30632],[100,30716],[100,30800],[100,30882],[98.6,30966],[98.3,31049],[98.3,31133],[100,31216],[100,31299],[100,31382],[100,31466],[100,31549],[94.1,31632],[93.2,31716],[96.8,31799],[100,31882],[100,31966],[100,32049],[100,32133],[100,32216],[100,32299],[100,32383],[100,32466],[100,32549],[100,32633],[100,32716],[100,32799],[100,32883],[100,32966],[100,33049],[100,33132],[100,33217],[99.1,33299],[99,33383],[99,33466],[98.4,33550],[98.4,33632],[98.4,33716],[98.4,33799],[98.4,33882],[98.3,33966],[98.3,34049],[98.3,34132],[98.3,34216],[98.3,34299],[98.3,34382],[98.3,34466],[98.3,34550],[98.3,34633],[98.3,34717],[98.3,34799],[98.3,34883],[98.3,34966],[98.3,35049],[98.3,35133],[98.3,35216],[98.3,35300],[98.3,35383],[100,35466],[100,35549],[100,35632],[100,35716],[100,35800],[100,35883],[100,35966],[100,36049],[94.6,36132],[70.5,36216],[63.6,36299],[60.2,36382],[59.1,36466],[59.1,36549],[59.1,36633],[59.1,36716],[59.1,36799],[59.1,36883],[59.4,36966],[62.2,37049],[65.7,37132],[65.9,37216],[66.8,37299],[67.2,37382],[67.2,37466],[67.2,37549],[67.2,37633],[67.2,37716],[67.2,37799],[67.2,37882],[67.2,37966],[67.2,38049],[67.2,38133],[67.2,38216],[66.8,38299],[65.4,38382],[64.6,38466],[64.6,38549],[64.4,38632],[64.4,38716],[64.3,38800],[64,38883],[64,38966],[65.8,39049],[68.6,39132],[72.3,39216],[74,39299],[76.8,39382],[77.4,39466],[77.4,39549]]",1,0,843.8673,847.1,67.60416667,1.6706,"[{""rating"":67.60416666666667,""responseTime"":1.670599999999581}]",space,2.6999,,847.1001,Partially,50,847.1019,,,[],,0,9,9,9,1,audio/Narrative7Situation9.wav,audio/Narrative8Situation9.wav,audio/Narrative5Situation9.wav,audio/Narrative6Situation9.wav,2,3,3,4,,,,,,,,,,,,,,,,,,,,,,,,,,,,,,,,,,,,,,,
,,,,,,614e8b8fd294cc8571e9e06e,2024-02-08_13h03.31.431,group3.1-3.2-social-tom,2023.2.2,Win32,59.17159763,65c5074098b851296ff0b7ed,65c54190e423d37d2cdd6ab4,,,,,,,,,,,,,,,,,,,,,,,,,,,,,847.1023,2,audio/Narrative6Situation1.wav,849.1167,,849.1168,875.7001,"[[63.5,750],[63.1,834],[63.1,916],[62.9,999],[45.6,1668],[45.6,1749],[45.6,1833],[45.6,1916],[45.6,2000],[45.6,2083],[45.6,2166],[45.6,2249],[45.6,2333],[45.4,2416],[45.4,2499],[45.4,2582],[45.3,2666],[45.3,2749],[43.1,2832],[37.2,2916],[24.3,2999],[17.9,3082],[14.8,3168],[10.7,3249],[5.8,3332],[2.8,3416],[2.3,3499],[2.1,3583],[2.1,3666],[2.1,3749],[2.1,3833],[2.1,3916],[2.1,3999],[2.1,4083],[2.1,4166],[2.1,4250],[2.1,4333],[2.1,4416],[2.1,4499],[2.1,4583],[2.1,4666],[2.1,4749],[2.1,4833],[2.1,4916],[2.1,4999],[2.1,5083],[4.2,5166],[11.9,5249],[22.9,5332],[33.2,5416],[47,5499],[63.6,5582],[79.7,5666],[92.1,5749],[99.2,5833],[100,5917],[100,5999],[100,6083],[100,6166],[100,6249],[100,6332],[100,6416],[100,6499],[100,6582],[100,6666],[100,6749],[100,6833],[100,6916],[100,6999],[100,7082],[100,7166],[100,7249],[100,7332],[100,7416],[100,7499],[100,7583],[100,7666],[100,7749],[100,7832],[100,7916],[100,7999],[100,8083],[100,8166],[100,8249],[100,8333],[100,8416],[100,8499],[100,8582],[100,8666],[100,8749],[100,8833],[100,8916],[100,8999],[100,9083],[100,9166],[100,9250],[100,9333],[100,9416],[100,9500],[100,9583],[99.9,9666],[99,9749],[98.8,9833],[98.1,9916],[98.1,9999],[97.8,10083],[97.8,10166],[97.8,10249],[97.6,10333],[97.6,10416],[97.6,10499],[97.6,10582],[97.6,10666],[97.5,10749],[97.5,10832],[96.8,10916],[95.7,10999],[92.6,11084],[90.9,11166],[86.4,11249],[75.8,11334],[67.1,11416],[59.6,11499],[52.2,11582],[45.6,11666],[37,11749],[29.1,11833],[22.4,11916],[17.6,12000],[12.5,12083],[10.9,12166],[10.9,12249],[10.5,12333],[9.5,12416],[8.6,12499],[8.3,12582],[7.1,12666],[4.5,12749],[4.1,12833],[4.1,12916],[4.1,12999],[4.1,13083],[4.1,13166],[4.1,13249],[4.1,13333],[4.1,13416],[4.1,13499],[4.1,13583],[4,13666],[4,13749],[4,13833],[4,13916],[4,13999],[4,14082],[4,14166],[4,14249],[4.4,14332],[4.5,14416],[4.9,14499],[5.3,14582],[5.3,14666],[5.3,14749],[5.3,14832],[5.3,14916],[5.3,14999],[5.3,15082],[5.3,15166],[5.3,15249],[5.3,15333],[5.3,15416],[5.3,15499],[5.3,15582],[5.3,15666],[5.3,15749],[5.3,15833],[5.4,15916],[5.4,15999],[5.4,16083],[5.4,16166],[5.3,16249],[4.9,16332],[4,16416],[4,16499],[4,16582],[4,16666],[4,16749],[4,16832],[4,16916],[4,16999],[4,17083],[4,17166],[4,17249],[4,17332],[4.4,17416],[4.9,17499],[5.2,17583],[5.2,17666],[5.5,17749],[5.5,17833],[5.7,17916],[5.8,17999],[5.9,18083],[6.1,18166],[6.1,18249],[6.1,18332],[6.3,18416],[6.3,18499],[6.4,18582],[6.5,18666],[6.9,18749],[7.1,18832],[7.4,18916],[7.5,18999],[7.7,19083],[8.2,19167],[8.3,19249],[8.6,19332],[8.8,19416],[9,19499],[9.4,19583],[9.4,19666],[9.4,19749],[9.5,19833],[9.5,19916],[9.6,19999],[9.7,20082],[10.2,20166],[10.4,20249],[10.7,20332],[10.9,20415],[11,20499],[11.1,20582],[11.1,20666],[11.3,20749],[11.4,20832],[11.5,20916],[11.9,20999],[11.9,21083],[12,21166],[12.2,21249],[12.2,21332],[12.6,21415],[13.4,21499],[15.3,21582],[17.4,21666],[19.8,21749],[23.6,21832],[26.3,21916],[31.4,21999],[36.3,22082],[40.7,22166],[45.5,22249],[47.5,22332],[49.2,22417],[50.8,22499],[52.3,22582],[53.2,22666],[55.4,22749],[56.1,22834],[56.1,22916],[56.1,22999],[56.1,23083],[56.1,23166],[57.4,23249],[59.1,23332],[61.3,23415],[62.9,23499],[65,23582],[66.8,23665],[68.5,23749],[71.6,23832],[74.6,23915],[77.2,23999],[79.2,24082],[79.9,24166],[80.1,24249],[80.1,24333],[80.1,24416],[80.1,24499],[80.1,24582],[84.1,24666],[85,24749],[85,24833],[85,24916],[86.9,24999],[88.1,25083],[89.8,25166],[91.5,25249],[93,25332],[94.5,25416],[94.7,25499],[94.9,25584],[95.1,25667],[95.6,25750],[95.9,25833],[96,25916],[96.1,25999],[96.1,26083],[96.1,26166],[96.1,26249],[96.1,26333],[96.1,26416],[96.1,26499],[96.1,26583]]",1,0,875.7008,880.0496,7.1875,4.0531,"[{""rating"":20.833333333333332,""responseTime"":3.2711999999993395},{""rating"":7.187500000000002,""responseTime"":4.053099999999631}]",space,3.8059,,880.0496,Partially,50,880.0512,,,[],,0,10,10,10,1,audio/Narrative8Situation1.wav,audio/Narrative7Situation1.wav,audio/Narrative6Situation1.wav,audio/Narrative5Situation1.wav,5,2,2,5,,,,,,,,,,,,,,,,,,,,,,,,,,,,,,,,,,,,,,,
,,,,,,614e8b8fd294cc8571e9e06e,2024-02-08_13h03.31.431,group3.1-3.2-social-tom,2023.2.2,Win32,59.17159763,65c5074098b851296ff0b7ed,65c54190e423d37d2cdd6ab4,,,,,,,,,,,,,,,,,,,,,,,,,,,,,880.0515,2,audio/Narrative6Situation2.wav,883.0669,,883.0669,911.5833,"[[53.5,166],[53.5,249],[53.4,332],[53.3,415],[53.3,499],[53,582],[53,666],[52,753],[51.3,833],[50.7,915],[49,999],[48.3,1082],[47.3,1165],[45.8,1249],[43.4,1332],[43.4,1416],[43.4,1499],[43.4,1582],[43.4,1665],[43.4,1749],[43.4,1832],[43.4,1916],[43.4,1999],[43.4,2082],[35.1,4582],[35.8,4667],[37.1,4749],[38.2,4833],[39.1,4915],[40.3,4999],[40.9,5082],[42,5166],[42.8,5249],[43.9,5333],[45.6,5416],[47.9,5499],[50.8,5582],[54.5,5665],[57.6,5749],[59.7,5832],[62.8,5999],[65.1,6082],[66.7,6165],[68.3,6250],[69,6332],[70.5,6416],[71.5,6499],[71.9,6582],[71.9,6666],[72,6749],[72.4,6832],[73.4,6915],[75.5,6999],[73,7082],[73,7166],[73,7249],[73,7332],[75.5,7415],[75.9,7499],[76,7582],[76.6,7665],[77.6,7749],[78,7833],[78,7916],[78,7999],[78.2,8082],[80,8165],[82.1,8249],[82.9,8332],[83.4,8415],[83.6,8499],[83.6,8582],[83.6,8666],[83.6,8749],[83.6,8832],[83.3,8916],[83.2,8999],[83.2,9082],[83.1,9166],[83.1,9249],[83,9332],[83,9416],[83,9499],[83,9582],[83,9665],[83,9749],[83,9832],[83,9916],[83,9999],[83,10082],[83,10166],[83,10249],[83,10332],[83,10416],[83,10499],[83,10582],[83,10665],[83,10749],[83,10832],[83,10916],[83,10999],[83,11082],[82.9,11166],[82.9,11249],[82.9,11332],[82.9,11415],[82.9,11499],[82.9,11582],[82.9,11666],[82.9,11749],[82.8,11832],[82.8,11916],[82.8,11999],[82.8,12082],[82.8,12166],[82.8,12249],[82.8,12332],[82.8,12416],[82.8,12499],[82.6,12582],[82.6,12666],[82.6,12749],[82.6,12832],[82.6,12915],[82.6,12999],[82.6,13083],[82.6,13166],[82.6,13249],[82.6,13333],[82.6,13416],[82.6,13499],[82.6,13582],[82.6,13665],[82.6,13749],[84.5,13832],[88,13916],[92.3,13999],[92.9,14083],[94.6,14165],[96,14249],[97.4,14332],[97.6,14416],[98.6,14499],[99.7,14582],[99.9,14666],[100,14749],[100,14832],[100,14915],[100,14999],[100,15082],[100,15166],[100,15249],[100,15332],[100,15416],[100,15499],[100,15583],[100,15665],[100,15749],[100,15833],[100,15916],[100,15999],[100,16082],[100,16166],[100,16249],[100,16332],[100,16416],[100,16499],[100,16584],[100,16666],[100,16749],[100,16832],[100,16916],[100,16999],[100,17082],[100,17166],[100,17249],[100,17332],[100,17416],[100,17499],[100,17582],[100,17665],[100,17749],[100,17832],[100,17915],[100,17999],[100,18082],[100,18165],[100,18249],[100,18332],[100,18415],[100,18499],[100,18582],[100,18665],[100,18749],[100,18832],[100,18916],[100,18999],[100,19082],[100,19165],[100,19249],[100,19332],[100,19416],[100,19499],[100,19582],[100,19666],[100,19749],[100,19832],[100,19915],[100,19999],[100,20082],[100,20166],[100,20249],[100,20332],[100,20416],[100,20499],[100,20582],[100,20666],[100,20749],[100,20832],[100,20915],[100,20999],[100,21082],[100,21166],[100,21249],[100,21332],[100,21415],[100,21499],[100,21582],[100,21666],[100,21749],[100,21832],[100,21916],[100,21999],[100,22082],[100,22165],[100,22249],[100,22332],[100,22415],[100,22499],[100,22582],[100,22666],[100,22749],[100,22832],[100,22916],[100,22999],[100,23082],[100,23166],[100,23249],[100,23332],[100,23416],[100,23499],[100,23582],[100,23666],[100,23749],[100,23832],[100,23915],[100,23999],[100,24082],[100,24166],[100,24249],[100,24332],[100,24416],[100,24499],[100,24582],[100,24666],[100,24749],[100,24832],[100,24916],[100,24999],[100,25082],[100,25166],[100,25249],[100,25332],[100,25415],[98.8,25499],[97.5,25582],[96.8,25665],[96.8,25749],[96.8,25832],[96.8,25915],[100,25999],[100,26082],[100,26165],[100,26249],[99.3,26332],[99.3,26416],[100,26499],[100,26582],[98.2,26665],[97.4,26749],[100,26832],[100,26916],[100,26999],[99.9,27082],[99.8,27166],[100,27249],[100,27332],[100,27415],[97.4,27499],[97.1,27582],[99.7,27665],[100,27749],[99.8,27832],[99.6,27915],[100,27999],[100,28082],[100,28166],[100,28249],[100,28332],[100,28416],[100,28499]]",1,0,911.5836,916.7332,99.79166667,3.9957,"[{""rating"":99.79166666666667,""responseTime"":3.9957000000010794}]",space,4.6256,,916.7332,Partially,50,916.7347,,,[],,0,11,11,11,1,audio/Narrative8Situation2.wav,audio/Narrative7Situation2.wav,audio/Narrative6Situation2.wav,audio/Narrative5Situation2.wav,3,3,3,3,,,,,,,,,,,,,,,,,,,,,,,,,,,,,,,,,,,,,,,
,,,,,,614e8b8fd294cc8571e9e06e,2024-02-08_13h03.31.431,group3.1-3.2-social-tom,2023.2.2,Win32,59.17159763,65c5074098b851296ff0b7ed,65c54190e423d37d2cdd6ab4,,,,,,,,,,,,,,,,,,,,,,,,,,,,,916.7349,2,audio/Narrative6Situation3.wav,921.7498,,921.7498,934.3665,"[[84.6,249],[80.6,333],[64.9,416],[64.9,500],[64.9,583],[64.9,666],[51.5,1416],[51.5,1499],[51.5,1583],[51.3,1666],[50.9,1750],[50.4,1834],[50.1,1916],[50,2000],[46.4,2083],[23.4,2166],[3.1,2416],[5.5,2499],[6.6,2582],[8.1,2666],[9.1,2749],[9.1,2833],[9.1,2916],[9.1,2999],[9.1,3082],[9.1,3166],[9.1,3249],[9.1,3333],[9.1,3416],[9.1,3499],[9.1,3583],[9.1,3666],[9.1,3749],[9.1,3833],[9.1,3916],[9.1,3999],[9.1,4083],[9.1,4166],[9.1,4250],[9.1,4333],[9.1,4416],[9.1,4499],[9.1,4583],[9.1,4666],[9.1,4749],[9.1,4832],[9.1,4916],[9.1,4999],[9.1,5083],[9.1,5166],[9.1,5249],[9.1,5333],[8,5416],[7.1,5500],[6.6,5583],[5.4,5666],[4.4,5749],[3.2,5834],[3,5916],[2.7,5999],[2.3,6083],[2.3,6166],[2.3,6249],[2.3,6333],[2.3,6416],[2.3,6499],[2.3,6583],[2.3,6666],[2.3,6749],[2.3,6833],[2.3,6916],[2.3,7000],[2.3,7083],[2.3,7166],[2.3,7249],[9.4,7332],[96.1,7833],[95.7,7916],[95.7,7999],[95.8,8084],[96.5,8166],[96.5,8249],[97.2,8333],[97.5,8416],[97.5,8499],[97.5,8583],[97.5,8666],[97.5,8749],[97.5,8833],[97.6,8916],[97.7,8999],[97.7,9083],[97.7,9166],[97.7,9249],[97.7,9333],[97.7,9416],[97.7,9500],[97.7,9583],[97.7,9666],[97.7,9749],[97.7,9833],[97.7,9916],[97.7,9999],[97.7,10083],[97.7,10166],[97.2,10249],[96.9,10333],[96.9,10416],[96.7,10499],[96.7,10583],[96.6,10666],[96.3,10749],[95.2,10833],[94.3,10916],[93.8,10999],[93,11082],[92.6,11166],[92.4,11249],[91.7,11332],[91.3,11416],[90.4,11499],[89.8,11583],[89.2,11666],[88.3,11750],[87.2,11833],[85.9,11916],[85.3,11999],[84.8,12082],[83.9,12166],[83.2,12249],[82.1,12332],[81.4,12416],[80.5,12499],[79.5,12582]]",1,0,934.3665,938.4998,98.22916667,1.5812,"[{""rating"":98.22916666666667,""responseTime"":1.581200000001104}]",space,3.6114,,938.4999,Not at all,0,938.503,,,[],,0,12,12,12,1,audio/Narrative8Situation3.wav,audio/Narrative7Situation3.wav,audio/Narrative6Situation3.wav,audio/Narrative5Situation3.wav,4,8,5,3,,,,,,,,,,,,,,,,,,,,,,,,,,,,,,,,,,,,,,,
,,,,,,614e8b8fd294cc8571e9e06e,2024-02-08_13h03.31.431,group3.1-3.2-social-tom,2023.2.2,Win32,59.17159763,65c5074098b851296ff0b7ed,65c54190e423d37d2cdd6ab4,,,,,,,,,,,,,,,,,,,,,,,,,,,,,938.5032,2,audio/Narrative6Situation4.wav,940.5169,,940.517,953.1327,"[[34.3,82],[34.3,165],[34.3,249],[34.3,332],[34.3,415],[48.3,1082],[48.3,1165],[48.3,1249],[47.7,1332],[43.4,1415],[34.2,1498],[27.7,1582],[27.3,1665],[27,1749],[24.6,1832],[23.1,1915],[23,1999],[23,2082],[23,2165],[23,2249],[22.8,2332],[22.5,2415],[22.2,2499],[21.9,2582],[21.7,2665],[21.6,2749],[21,2832],[20.3,2915],[19,3000],[18,3082],[17.6,3166],[17.6,3249],[17.6,3332],[17.6,3416],[17.6,3499],[17.6,3582],[17.8,3832],[20.3,3915],[21.5,3999],[21.7,4082],[21.7,4166],[21.8,4249],[22.4,4332],[23.6,4415],[24.8,4498],[25.7,4582],[26.5,4666],[26.8,4749],[26.9,4832],[27.6,4916],[27.7,4999],[27.7,5082],[28.4,5167],[29.1,5249],[29.1,5332],[29.3,5415],[28.8,5499],[28.3,5582],[28.1,5666],[49.2,6498],[49.4,6582],[49.4,6666],[49.4,6749],[49.4,6832],[49.4,6915],[50,7000],[51,7082],[43.6,10249],[41.6,10332],[32.2,10415],[23.6,10498],[22.8,10582],[22.4,10665],[21.1,10749],[20.6,10832],[20.1,10916],[20,10999],[19.6,11083],[18.9,11165],[16.6,12332],[11.9,12415],[9.9,12499],[9.8,12582]]",1,0,953.1328,955.6666,5.3125,0.5383,"[{""rating"":5.312499999999998,""responseTime"":0.5382999999989124}]",space,2,,955.6666,Partially,50,955.6697,,,[],,0,13,13,13,1,audio/Narrative8Situation4.wav,audio/Narrative7Situation4.wav,audio/Narrative6Situation4.wav,audio/Narrative5Situation4.wav,3,3,2,1,,,,,,,,,,,,,,,,,,,,,,,,,,,,,,,,,,,,,,,
,,,,,,614e8b8fd294cc8571e9e06e,2024-02-08_13h03.31.431,group3.1-3.2-social-tom,2023.2.2,Win32,59.17159763,65c5074098b851296ff0b7ed,65c54190e423d37d2cdd6ab4,,,,,,,,,,,,,,,,,,,,,,,,,,,,,955.6699,2,audio/Narrative6Situation5.wav,957.6827,,957.6827,965.6327,"[[999,0],[999,83],[999,166],[999,250],[999,333],[999,416],[999,500],[999,583],[999,669],[999,750],[999,834],[999,917],[999,1000],[999,1083],[999,1166],[999,1250],[999,1334],[999,1417],[999,1499],[999,1585],[27.8,1666],[27.9,1749],[28.1,1833],[28.8,1916],[30.4,2000],[32.6,2083],[32.6,2167],[32.6,2250],[34.8,2333],[35.3,2416],[39.1,2500],[44.1,2583],[45.4,2666],[45.9,2750],[48,2833],[51.5,2916],[53.2,3000],[53.2,3083],[53.2,3166],[55,3250],[57.6,3333],[60.9,3416],[62.2,3500],[63.4,3583],[66.6,3666],[66.9,3750],[66.9,3833],[66.9,3916],[67.1,4000],[70.8,4083],[73.1,4166],[73.2,4249],[73.2,4333],[73.2,4417],[73.2,4500],[73.2,4583],[74.5,4666],[81.3,4750],[83.4,4834],[83.5,4917],[83.5,5000],[83.5,5083],[83.5,5166],[83.5,5250],[83.5,5333],[83.5,5416],[83.5,5500],[83.5,5583],[83.5,5666],[83.5,5750],[83.5,5833],[83.5,5916],[83.4,6000],[82.9,6083],[82.8,6166],[82.8,6250],[82.7,6333],[82.6,6416],[82.2,6500],[81.5,6583],[80.8,6666],[80.2,6750],[78.2,6833],[72.5,6917],[71.5,7000],[71.1,7083],[69.9,7166],[67.4,7249],[65,7334],[64.3,7416],[63.9,7500],[62.1,7583],[58.9,7666],[57.5,7749],[56.7,7833],[54.4,7916]]",1,0,965.6328,975.4164,24.89583333,4.1881,"[{""rating"":24.895833333333332,""responseTime"":4.188099999999622}]",space,9.2568,,975.4165,Not at all,0,975.4268,,,[],,0,14,14,14,1,audio/Narrative8Situation5.wav,audio/Narrative7Situation5.wav,audio/Narrative6Situation5.wav,audio/Narrative5Situation5.wav,2,5,2,5,,,,,,,,,,,,,,,,,,,,,,,,,,,,,,,,,,,,,,,
,,,,,,614e8b8fd294cc8571e9e06e,2024-02-08_13h03.31.431,group3.1-3.2-social-tom,2023.2.2,Win32,59.17159763,65c5074098b851296ff0b7ed,65c54190e423d37d2cdd6ab4,,,,,,,,,,,,,,,,,,,,,,,,,,,,,975.4269,2,audio/Narrative6Situation6.wav,977.4327,,977.4327,988.5159,"[[999,0],[999,83],[999,166],[999,250],[999,333],[999,416],[999,500],[999,583],[43,667],[43,750],[43.1,833],[43.1,916],[43.1,1000],[43.1,1083],[43.1,1166],[43.1,1250],[44.3,1333],[44.5,1417],[44.7,1500],[44.9,1583],[44.9,1666],[45.3,1750],[45.3,1833],[45.3,1916],[45.3,2000],[46,2083],[47,2167],[47,2250],[47,2333],[47.5,2416],[49.1,2500],[52.5,2583],[56.4,2666],[57.1,2750],[57.1,2833],[57.2,2916],[56.8,3000],[56.8,3083],[56.8,3166],[56.7,3250],[57.4,3333],[60.4,3416],[62.4,3500],[63.5,3583],[64.4,3666],[65.6,3749],[67.1,3833],[68.1,3916],[69.3,3999],[70.9,4083],[75,4166],[82.3,4249],[84.2,4333],[85.8,4416],[90.2,4499],[91.4,4583],[91.5,4666],[91.9,4750],[92.5,4833],[92.5,4916],[92.5,5000],[92.7,5083],[92.7,5166],[92.8,5250],[93.5,5333],[93.5,5416],[93.6,5499],[93.6,5583],[93.6,5666],[93.6,5750],[93.6,5833],[93.6,5916],[93.5,6000],[93,6083],[92.7,6166],[92,6250],[91.7,6333],[91.7,6416],[91.5,6499],[91.5,6583],[91.3,6666],[91.3,6750],[91.3,6833],[91.3,6916],[91.3,7000],[91.1,7083],[91,7166],[91,7250],[90.9,7333],[90.9,7416],[90.8,7500],[90.7,7583],[90.6,7666],[90.3,7750],[89.8,7833],[89.5,7916],[89.1,8000],[88.3,8083],[87.3,8166],[86.5,8249],[85.8,8333],[85.6,8416],[85.6,8500],[85.6,8583],[85.6,8666],[85.6,8750],[85.6,8833],[85.6,8916],[85.6,9000],[85.6,9083],[85.6,9167],[85.4,9250],[85.4,9333],[85,9416],[83.9,9500],[83.9,9583],[83.9,9667],[84.1,9749],[84.3,9833],[84.6,9917],[84.8,10000],[85.6,10083],[89.9,10166],[93.5,10249],[94.6,10333],[95.1,10416],[95.1,10500],[95.1,10583],[95.2,10666],[95.2,10750],[95.2,10833],[94.6,10916],[94.6,11000],[94.6,11083]]",1,0,988.516,991.7492,86.77083333,0.9879,"[{""rating"":86.77083333333333,""responseTime"":0.9879000000003089}]",space,2.7095,,991.7493,Not at all,0,991.7502,,,[],,0,15,15,15,1,audio/Narrative8Situation6.wav,audio/Narrative7Situation6.wav,audio/Narrative6Situation6.wav,audio/Narrative5Situation6.wav,2,3,2,3,,,,,,,,,,,,,,,,,,,,,,,,,,,,,,,,,,,,,,,
