exp_question,consent.started,consent.stopped,consentResponse.keys,consentResponse.rt,consentResponse.duration,participantID,date,expName,psychopyVersion,OS,frameRate,STUDY_ID,SESSION_ID,opening1.started,opening1.stopped,keyEndingOpening1.keys,keyEndingOpening1.rt,keyEndingOpening1.duration,volumeAdjust.started,volumeAdjust.stopped,endingAdjust.keys,endingAdjust.rt,endingAdjust.duration,opening2.started,opening2.stopped,keyEndingOpening.keys,keyEndingOpening.rt,keyEndingOpening.duration,mouse.x,mouse.y,mouse.leftButton,mouse.midButton,mouse.rightButton,mouse.time,instructionLoop.thisRepN,instructionLoop.thisTrialN,instructionLoop.thisN,instructionLoop.thisIndex,instructionLoop.ran,readyForAudio.started,readyForAudio.stopped,fixation.started,run,audio_played,fixation.stopped,endPractice.keys,audioPre.started,audioPre.stopped,continuousResponses_audio,continuousSlider.response,continuousSlider.rt,intRating.started,intRating.stopped,intQuestionSlider.response,intQuestionSlider.rt,intQuestionSlider.history,confirmResponse.keys,confirmResponse.rt,confirmResponse.duration,catchQuestion.started,catch_label,catch_value,catchQuestion.stopped,catchQuestionSlider.response,catchQuestionSlider.rt,catchQuestionSlider.history,confirmResponse_2.keys,audioRunLoop.thisRepN,audioRunLoop.thisTrialN,audioRunLoop.thisN,audioRunLoop.thisIndex,audioRunLoop.ran,conditions1_1,conditions2_1,conditions1_2,conditions2_2,dur1_1,dur2_1,dur1_2,dur2_2,endPractice.rt,endPractice.duration,confirmResponse_2.rt,confirmResponse_2.duration,runIntervalBreak.started,runIntervalBreak.stopped,endingBreakKey.keys,endingBreakKey.rt,endingBreakKey.duration,connection.started,connection.stopped,connectionEnding.keys,connectionEnding.rt,connectionEnding.duration,readyForText.started,readyForText.stopped,textPre.started,run_dup,textPre.stopped,continuousResponses_text,textRunLoop.thisRepN,textRunLoop.thisTrialN,textRunLoop.thisN,textRunLoop.thisIndex,textRunLoop.ran,text1_1,text1_2,text2_1,text2_2,runBreakText.started,runBreakText.stopped,endingBreakKey_2.keys,endingBreakKey_2.rt,endingBreakKey_2.duration,ending.started,ending.stopped,endingEnding.keys,endingEnding.rt,endingEnding.duration
social,0.002,51.821,y,51.488,,6150b927614a4f154f311f9d,2024-02-08_17h08.41.063,group3.1-3.2-social-tom,2023.2.2,Win32,58.82352941,65c5074098b851296ff0b7ed,65c54148d99af06b3aa5277b,,,,,,,,,,,,,,,,,,,,,,,,,,,,,,,,,,,,,,,,,,,,,,,,,,,,,,,,,,,,,,,,,,,,,,,,,,,,,,,,,,,,,,,,,,,,,,,,,,,,,,,,,,
,,,,,,6150b927614a4f154f311f9d,2024-02-08_17h08.41.063,group3.1-3.2-social-tom,2023.2.2,Win32,58.82352941,65c5074098b851296ff0b7ed,65c54148d99af06b3aa5277b,51.822,52.775,space,0.902,,,,,,,,,,,,,,,,,,,,,,,,,,,,,,,,,,,,,,,,,,,,,,,,,,,,,,,,,,,,,,,,,,,,,,,,,,,,,,,,,,,,,,,,,,,,,,,,,,,,,,
,,,,,,6150b927614a4f154f311f9d,2024-02-08_17h08.41.063,group3.1-3.2-social-tom,2023.2.2,Win32,58.82352941,65c5074098b851296ff0b7ed,65c54148d99af06b3aa5277b,,,,,,52.775,53.124,space,0.019,,,,,,,,,,,,,,,,,,,,,,,,,,,,,,,,,,,,,,,,,,,,,,,,,,,,,,,,,,,,,,,,,,,,,,,,,,,,,,,,,,,,,,,,,,,,,,,,,
,,,,,,6150b927614a4f154f311f9d,2024-02-08_17h08.41.063,group3.1-3.2-social-tom,2023.2.2,Win32,58.82352941,65c5074098b851296ff0b7ed,65c54148d99af06b3aa5277b,,,,,,,,,,,53.133,53.278,space,0.115,,[],[],[],[],[],[],0,0,0,0,1,,,,,,,,,,,,,,,,,,,,,,,,,,,,,,,,,,,,,,,,,,,,,,,,,,,,,,,,,,,,,,,,,,,,,,,,,,,,,,,,
,,,,,,6150b927614a4f154f311f9d,2024-02-08_17h08.41.063,group3.1-3.2-social-tom,2023.2.2,Win32,58.82352941,65c5074098b851296ff0b7ed,65c54148d99af06b3aa5277b,,,,,,,,,,,53.279,53.476,space,0.004,,[],[],[],[],[],[],1,0,1,0,1,,,,,,,,,,,,,,,,,,,,,,,,,,,,,,,,,,,,,,,,,,,,,,,,,,,,,,,,,,,,,,,,,,,,,,,,,,,,,,,,
,,,,,,6150b927614a4f154f311f9d,2024-02-08_17h08.41.063,group3.1-3.2-social-tom,2023.2.2,Win32,58.82352941,65c5074098b851296ff0b7ed,65c54148d99af06b3aa5277b,,,,,,,,,,,53.477,53.596,space,0.045,,[],[],[],[],[],[],2,0,2,0,1,,,,,,,,,,,,,,,,,,,,,,,,,,,,,,,,,,,,,,,,,,,,,,,,,,,,,,,,,,,,,,,,,,,,,,,,,,,,,,,,
,,,,,,6150b927614a4f154f311f9d,2024-02-08_17h08.41.063,group3.1-3.2-social-tom,2023.2.2,Win32,58.82352941,65c5074098b851296ff0b7ed,65c54148d99af06b3aa5277b,,,,,,,,,,,53.597,53.725,space,0.094,,[],[],[],[],[],[],3,0,3,0,1,,,,,,,,,,,,,,,,,,,,,,,,,,,,,,,,,,,,,,,,,,,,,,,,,,,,,,,,,,,,,,,,,,,,,,,,,,,,,,,,
,,,,,,6150b927614a4f154f311f9d,2024-02-08_17h08.41.063,group3.1-3.2-social-tom,2023.2.2,Win32,58.82352941,65c5074098b851296ff0b7ed,65c54148d99af06b3aa5277b,,,,,,,,,,,53.726,53.901,space,0.137,,[],[],[],[],[],[],4,0,4,0,1,,,,,,,,,,,,,,,,,,,,,,,,,,,,,,,,,,,,,,,,,,,,,,,,,,,,,,,,,,,,,,,,,,,,,,,,,,,,,,,,
,,,,,,6150b927614a4f154f311f9d,2024-02-08_17h08.41.063,group3.1-3.2-social-tom,2023.2.2,Win32,58.82352941,65c5074098b851296ff0b7ed,65c54148d99af06b3aa5277b,,,,,,,,,,,,,,,,,,,,,,,,,,,53.905,56.475,56.521,1,audio/Narrative13Situation2.wav,58.527,,58.528,88.305,"[[999,1],[999,131],[999,213],[999,298],[999,381],[999,500],[999,564],[999,649],[999,742],[999,816],[999,903],[999,980],[999,1066],[999,1149],[999,1231],[999,1314],[999,1397],[999,1490],[999,1566],[999,1650],[999,1733],[999,1816],[999,1899],[999,1983],[999,2066],[999,2149],[999,2232],[999,2317],[999,2402],[999,2486],[999,2569],[999,2650],[999,2734],[999,2817],[999,2905],[999,2984],[999,3067],[999,3150],[999,3234],[999,3317],[999,3406],[999,3484],[999,3567],[999,3652],[999,3733],[999,3819],[999,3899],[999,3983],[999,4069],[999,4155],[999,4234],[999,4319],[999,4400],[999,4484],[999,4570],[999,4652],[999,4736],[999,4819],[999,4899],[999,4983],[999,5067],[999,5152],[999,5236],[999,5319],[999,5402],[999,5545],[999,5616],[999,5700],[999,5783],[999,5866],[999,5950],[999,6033],[999,6119],[999,6212],[999,6289],[999,6366],[999,6450],[999,6534],[999,6616],[999,6703],[999,6784],[999,6869],[999,6950],[999,7033],[999,7117],[999,7206],[999,7287],[999,7367],[999,7450],[999,7536],[999,7619],[999,7701],[999,7790],[999,7867],[999,7957],[999,8036],[999,8117],[999,8203],[999,8284],[999,8367],[999,8450],[999,8534],[999,8617],[999,8703],[999,8783],[999,8867],[999,8959],[999,9034],[999,9119],[999,9272],[999,9337],[999,9430],[999,9501],[999,9584],[999,9668],[999,9751],[999,9835],[999,9918],[999,10001],[999,10085],[999,10168],[999,10251],[999,10334],[999,10418],[999,10543],[999,10619],[999,10704],[999,10786],[999,10869],[999,10956],[999,11034],[999,11119],[999,11207],[999,11289],[999,11370],[999,11454],[999,11536],[999,11619],[999,11703],[999,11786],[999,11869],[999,11953],[999,12034],[999,12119],[999,12203],[999,12286],[999,12369],[999,12453],[999,12536],[999,12620],[999,12704],[999,12792],[999,12872],[999,12954],[999,13042],[999,13123],[999,13204],[999,13286],[999,13369],[999,13453],[999,13536],[999,13620],[999,13701],[999,13786],[999,13869],[999,13953],[999,14036],[999,14119],[999,14203],[999,14286],[999,14369],[999,14453],[999,14539],[999,14619],[999,14721],[999,14787],[999,14872],[999,14953],[999,15036],[999,15120],[93.4,15212],[97.7,15287],[99.1,15370],[100,15453],[100,15572],[100,15670],[100,15738],[100,15820],[100,15905],[100,15986],[100,16072],[100,16155],[100,16236],[100,16320],[100,16403],[100,16494],[99.2,16572],[100,17072],[100,17155],[100,17238],[100,17320],[100,17403],[100,17488],[100,17570],[100,17653],[100,17738],[100,17820],[100,17903],[100,17988],[100,18070],[100,18155],[100,18655],[100,18738],[100,18822],[100,18906],[100,18988],[100,19075],[99.9,19155],[99.8,19238],[99.6,19322],[99.6,19405],[99.6,19488],[99.6,19572],[99.6,19655],[99.6,19738],[99.6,19822],[99.6,19905],[99.6,19988],[99.6,20072],[99.6,20155],[99.6,20238],[99.6,20322],[99.6,20405],[99.6,20491],[99.6,20607],[99.6,20688],[99.6,20771],[99.6,20855],[99.6,20938],[99.6,21022],[99.6,21104],[99.6,21189],[99.6,21272],[99.6,21357],[99.6,21439],[99.6,21524],[99.6,21605],[99.6,21688],[99.6,21771],[99.6,21854],[99.6,21938],[99.6,22022],[99.6,22105],[99.6,22188],[99.6,22274],[96.3,22357],[74,22441],[66.8,22524],[64.5,22607],[51.1,22689],[47.3,22774],[47.3,22857],[46.8,22939],[46.8,23024],[47.7,23107],[47.8,23189],[48.6,23274],[49,23357],[49,23439],[49,23524],[47,23607],[46.8,23689],[46.9,23774],[47.1,23857],[47.6,23941],[51.8,24024],[51.8,24107],[51.8,24189],[51.8,24274],[51.5,24355],[51.3,24439],[50.7,24524],[50.7,24607],[50.7,24689],[50.7,24774],[50.7,24857],[50.7,24941],[50.7,25024],[50.7,25107],[50.7,25189],[50.7,25274],[50.7,25357],[50.7,25441],[50.7,25548],[50.7,25623],[50.7,25709],[50.7,25790],[50.7,25875],[50.7,25958],[50.7,26040],[50.7,26123],[50.7,26208],[50.7,26290],[50.7,26373],[50.7,26456],[50.7,26540],[50.7,26625],[50.7,26708],[50.9,26793],[55.8,26877],[56.4,27877],[51.3,27958],[51.4,28043],[51.5,28125],[51.5,28210],[49.9,28293],[49.8,28375],[49.5,28460],[49.4,28542],[49.4,28627],[49.4,28709],[49.4,28792],[49.4,28875],[49.4,28959],[49.4,29042],[49.4,29125],[51.3,29209],[51.3,29292],[52.1,29378],[52.8,29461],[52.8,29543],[51.5,29627],[50.9,29709]]",1,0,88.306,93.27,50.9375,0.293,"[{""rating"":50.9375,""responseTime"":0.29300000000000637}]",space,4.405,,93.289,Not at all,0,93.298,,,[],,0,0,0,0,1,audio/Narrative13Situation2.wav,audio/Narrative13Situation2.wav,audio/Narrative13Situation2.wav,audio/Narrative13Situation2.wav,2,2,2,2,,,,,,,,,,,,,,,,,,,,,,,,,,,,,,,,,,,,,,,
,,,,,,6150b927614a4f154f311f9d,2024-02-08_17h08.41.063,group3.1-3.2-social-tom,2023.2.2,Win32,58.82352941,65c5074098b851296ff0b7ed,65c54148d99af06b3aa5277b,,,,,,,,,,,,,,,,,,,,,,,,,,,,,93.299,1,audio/Narrative8Situation1.wav,218.386,space,218.387,234.33,"[[50.9,4850],[54.6,4923],[54.2,5002],[48.1,5586],[47.6,5668],[48.6,5752],[49.3,5835],[50.9,5959],[50.9,6033],[50.9,6117],[50.6,6201],[50.6,6283],[50.3,6370],[50.6,6451],[50.6,6535],[50.7,6619],[50.7,6701],[50.7,6783],[50.7,6872],[50.4,6951],[50.2,7039],[50,7117],[49.8,7201],[49.8,7285],[49.8,7367],[49.8,7451],[49.8,7536],[49.8,7619],[49.6,7701],[49.6,7790],[49.6,7867],[49.6,7953],[49.3,8037],[49.3,8172],[49.3,8251],[49.3,8336],[49.3,8419],[49.3,8502],[49.3,8586],[49.3,8668],[49.3,8753],[49.3,8836],[49.3,8923],[49.3,9008],[49.3,9086],[49.3,9174],[49.3,9252],[49.3,9342],[49.3,9419],[49.3,9520],[49.3,9602],[49.3,9692],[49.3,9769],[49.3,9852],[49.3,9935],[49.3,10020],[49.3,10102],[49.3,10186],[49.3,10269],[49.3,10352],[49.3,10436],[49.3,10519],[49.3,10603],[49.3,10686],[49.3,10770],[49.3,10853],[49.3,10973],[49.3,11052],[49.3,11137],[49.3,11218],[49.3,11302],[49.3,11386],[49.3,11468],[49.3,11552],[49.3,11636],[49.3,11720],[49.3,11802],[49.3,11890],[49.3,11970],[49.3,12054],[49.3,12136],[49.3,12220],[49.3,12304],[49.3,12386],[49.3,12476],[49.3,12552],[49.3,12637],[49.3,12718],[49.3,12802],[49.3,12886],[49.3,12970],[49.3,13052],[49.3,13137],[49.3,13220],[49.3,13304],[49.3,13387],[49.3,13470],[49.3,13554],[49.3,13637],[49.3,13721],[49.3,13802],[49.3,13886],[49.3,13970],[49.3,14054],[49.3,14137],[49.3,14221],[49.3,14302],[49.3,14387],[49.3,14471],[49.3,14554],[49.3,14637],[49.3,14720],[49.3,14802],[49.3,14887],[49.3,14970],[49.3,15054],[49.3,15138],[49.3,15221],[49.3,15304],[49.3,15388],[49.3,15471],[49.3,15554],[49.3,15638],[49.3,15721],[49.3,15804],[49.3,15887]]",1,0,234.33,242.761,71.875,7.68,"[{""rating"":55.625,""responseTime"":5.394999999999982},{""rating"":68.54166666666667,""responseTime"":7.050999999999988},{""rating"":71.875,""responseTime"":7.680000000000007}]",space,7.887,,242.761,Definitely yes,100,242.77,,,[],,0,1,1,1,1,audio/Narrative7Situation1.wav,audio/Narrative8Situation1.wav,audio/Narrative5Situation1.wav,audio/Narrative6Situation1.wav,2,5,5,2,125.037,,,,,,,,,,,,,,,,,,,,,,,,,,,,,,,,,,,,,,
,,,,,,6150b927614a4f154f311f9d,2024-02-08_17h08.41.063,group3.1-3.2-social-tom,2023.2.2,Win32,58.82352941,65c5074098b851296ff0b7ed,65c54148d99af06b3aa5277b,,,,,,,,,,,,,,,,,,,,,,,,,,,,,242.77,1,audio/Narrative8Situation2.wav,245.779,,245.779,255.885,"[[999,1],[999,84],[999,165],[999,250],[999,333],[999,415],[999,500],[999,584],[999,667],[999,750],[999,834],[999,919],[999,1001],[999,1084],[999,1167],[999,1250],[999,1334],[999,1417],[999,1500],[999,1585],[999,1668],[999,1751],[999,1834],[999,1918],[999,2004],[999,2085],[999,2242],[999,2317],[999,2401],[999,2484],[999,2569],[999,2652],[999,2737],[999,2824],[999,2902],[999,2992],[999,3067],[999,3153],[999,3235],[999,3319],[999,3403],[999,3484],[999,3603],[999,3688],[999,3768],[999,3852],[999,3934],[999,4023],[999,4102],[999,4185],[999,4268],[999,4352],[999,4436],[999,4518],[999,4608],[999,4689],[999,4768],[999,4855],[999,4938],[999,5019],[999,5103],[999,5189],[999,5275],[999,5353],[999,5437],[999,5524],[999,5608],[51.6,5718],[51.5,5802],[48.5,5926],[48.5,6022],[48.3,6121],[48.3,6211],[48.3,6298],[48.3,6374],[48.3,6455],[48.3,6537],[48.3,6622],[48.3,6709],[48.3,6812],[48.3,6888],[48.3,6975],[48.3,7066],[48.3,7141],[48.3,7220],[48.3,7328],[48.3,7406],[48.3,7492],[48.3,7583],[48.3,7655],[48.3,7739],[48.3,7828],[48,7908],[31.4,7994],[27.4,8074],[24.1,8158],[24.1,8236],[0.2,10021]]",1,0,255.885,258.884,0.520833333,1.511,"[{""rating"":0.5208333333333315,""responseTime"":1.5109999999999673}]",space,2.469,,258.884,Definitely yes,100,258.889,,,[],,0,2,2,2,1,audio/Narrative7Situation2.wav,audio/Narrative8Situation2.wav,audio/Narrative5Situation2.wav,audio/Narrative6Situation2.wav,3,3,3,3,,,,,,,,,,,,,,,,,,,,,,,,,,,,,,,,,,,,,,,
,,,,,,6150b927614a4f154f311f9d,2024-02-08_17h08.41.063,group3.1-3.2-social-tom,2023.2.2,Win32,58.82352941,65c5074098b851296ff0b7ed,65c54148d99af06b3aa5277b,,,,,,,,,,,,,,,,,,,,,,,,,,,,,258.89,1,audio/Narrative8Situation3.wav,262.902,,262.903,285.31,"[[46,5019],[48.2,5101],[53,5185],[55.8,5267],[60.6,5351],[59,5603],[54.1,5935],[51.7,6017],[51.1,6101],[50.9,6183],[50.9,6267],[50.9,6350],[50.9,6433],[50.9,6533],[50.9,6617],[50.9,6701],[50.9,6786],[50.9,6868],[50.9,6951],[50.9,7034],[50.9,7117],[50.9,7201],[50.9,7284],[50.9,7368],[50.9,7451],[50.9,7534],[50.9,7618],[50.9,7701],[50.9,7784],[50.9,7867],[50.9,7951],[50.9,8034],[50.9,8120],[50.9,8201],[50.9,8286],[50.9,8367],[50.9,8451],[50.9,8536],[50.9,8618],[50.9,8701],[50.9,8784],[50.9,8867],[50.8,8952],[50.8,9036],[50.8,9117],[50.8,9201],[50.8,9286],[68.2,10538],[73.2,10954],[75.5,11036],[75.8,11120],[75.8,11202],[75.8,11286],[75.4,11372],[72.6,11485],[72.6,11552],[72.6,11637],[72.6,11719],[72.6,11802],[73.1,11887],[73.2,11969],[73.2,12055],[73.2,12136],[73.5,12221],[73.8,12302],[73.8,12387],[73.8,12471],[73.8,12553],[73.8,12636],[73.8,12721],[73.8,12803],[73.8,12887],[73.8,12969],[73.8,13052],[73.8,13137],[72.7,13221],[73.5,13637],[74.3,13721],[74.6,13805],[74.3,13889],[74.3,13969],[74.3,14053],[74.3,14137],[74.3,14221],[74.3,14305],[74.3,14387],[74.3,14471],[74.3,14553],[74.3,14637],[74.3,14721],[74.3,14805],[74.3,14887],[74.6,14971],[74.6,15055],[76.4,15473],[76.4,15555],[74.7,15639],[69.8,15723],[69.3,15805],[71.9,15889],[74.2,15973],[75.5,16057],[75.9,16139],[75.9,16221],[75.9,16305],[75.9,16387],[75.9,16497],[75.9,16572],[75.9,16654],[75.9,16738],[75.9,16820],[75.9,16904],[75.9,16988],[75.9,17072],[75.9,17156],[75.9,17240],[75.9,17322],[72,17822],[72.1,17908],[72.4,17990],[73.9,18074],[74.3,18156],[77.8,18245],[92.5,18322],[92.6,18406],[92.6,18490],[99.3,18572],[100,18673],[100,18754],[100,18841],[100,18923],[100,19005],[100,19091],[100,19171],[100,19255],[100,19339],[100,19425],[100,19505],[100,19589],[100,19673],[100,19755],[100,19839],[100,19927],[100,20005],[100,20089],[100,20173],[99.1,20257],[94.7,20339],[88.5,20423],[82.6,20507],[81.5,20589],[81.4,20673],[76.5,20757],[76.5,20843],[76.9,20923],[77.9,21007],[78,21091],[78.5,21173],[78.5,21259],[78.5,21341],[78.5,21423],[78.5,21540],[78.5,21624],[78.5,21706],[78.5,21790],[78.5,21872],[78.5,21956],[78.5,22040],[78.5,22124],[78.5,22206],[78.5,22290],[78.5,22374]]",1,0,285.311,337.93,73.95833333,2.994,"[{""rating"":48.95833333333333,""responseTime"":2.0289999999999964},{""rating"":73.95833333333334,""responseTime"":2.994000000000028}]",space,52.087,,337.93,Partially,50,337.949,,,[],,0,3,3,3,1,audio/Narrative7Situation3.wav,audio/Narrative8Situation3.wav,audio/Narrative5Situation3.wav,audio/Narrative6Situation3.wav,8,4,3,5,,,,,,,,,,,,,,,,,,,,,,,,,,,,,,,,,,,,,,,
,,,,,,6150b927614a4f154f311f9d,2024-02-08_17h08.41.063,group3.1-3.2-social-tom,2023.2.2,Win32,58.82352941,65c5074098b851296ff0b7ed,65c54148d99af06b3aa5277b,,,,,,,,,,,,,,,,,,,,,,,,,,,,,337.95,1,audio/Narrative8Situation4.wav,340.95,,340.95,355.154,"[[999,1],[999,81],[999,164],[999,248],[999,332],[999,414],[999,498],[999,582],[999,665],[999,751],[999,833],[999,919],[999,998],[999,1082],[999,1165],[999,1248],[999,1331],[999,1418],[999,3352],[999,3432],[999,3683],[999,3749],[999,3899],[999,3982],[999,4066],[999,4149],[999,4232],[999,4317],[999,4404],[999,4487],[999,4566],[999,4649],[999,4733],[999,4816],[999,4900],[999,4983],[999,5070],[999,5151],[999,5233],[999,5317],[999,5400],[999,5483],[999,5566],[999,5653],[999,5733],[999,5822],[999,5900],[999,5984],[999,6070],[999,6150],[999,6234],[999,6317],[999,6405],[999,6486],[999,6568],[999,6650],[999,6734],[999,6817],[999,6903],[999,6984],[999,7067],[999,7150],[999,7234],[999,7318],[999,7402],[999,7484],[999,7570],[999,7651],[999,7733],[999,7817],[999,7901],[999,7985],[999,8067],[999,8151],[999,8234],[999,8317],[999,8401],[999,8485],[999,8601],[999,8684],[999,8768],[999,8851],[999,8935],[999,9018],[999,9102],[999,9185],[999,9268],[999,9354],[999,9435],[999,9519],[999,9602],[999,9685],[999,9769],[999,9854],[999,9940],[999,10018],[999,10102],[999,10185],[999,10378],[999,10457],[999,10538],[999,10619],[999,10707],[999,10786],[999,10870],[999,10956],[100,11285],[100,11369],[100,11454],[100,11542],[99.8,11622],[99.9,11719],[99.9,11792],[99.6,11873],[99.5,11955],[99.5,12036],[99.5,12121],[99.5,12202],[99.5,12286],[99.7,12371],[100,12456],[100,12541],[100,12623],[100,12704],[100,12792],[100,12877],[100,12961],[100,13036],[100,13120],[100,13203],[100,13286],[100,13369],[100,13453],[100,13564],[100,13636],[100,13720],[100,13806],[100,13889],[100,13970],[100,14053],[100,14137]]",1,0,355.154,359.338,99.89583333,2.694,"[{""rating"":99.89583333333334,""responseTime"":2.694000000000017}]",space,3.636,,359.338,Not at all,0,359.347,,,[],,0,4,4,4,1,audio/Narrative7Situation4.wav,audio/Narrative8Situation4.wav,audio/Narrative5Situation4.wav,audio/Narrative6Situation4.wav,3,3,1,2,,,,,,,,,,,,,,,,,,,,,,,,,,,,,,,,,,,,,,,
,,,,,,6150b927614a4f154f311f9d,2024-02-08_17h08.41.063,group3.1-3.2-social-tom,2023.2.2,Win32,58.82352941,65c5074098b851296ff0b7ed,65c54148d99af06b3aa5277b,,,,,,,,,,,,,,,,,,,,,,,,,,,,,359.348,1,audio/Narrative8Situation5.wav,361.356,,361.356,369.627,"[[999,1],[999,81],[999,165],[999,249],[999,333],[999,415],[999,499],[999,581],[999,665],[999,750],[999,833],[999,917],[999,999],[999,1083],[999,1167],[999,1250],[999,1333],[999,1417],[999,1500],[999,1583],[999,1665],[999,1750],[999,1833],[999,1917],[999,2001],[999,2084],[999,2170],[999,2250],[999,2334],[999,2417],[999,2500],[999,2584],[999,2667],[999,2751],[999,2834],[999,2917],[999,3001],[999,3084],[999,3167],[999,3251],[999,3334],[999,3417],[999,3506],[999,3645],[999,3717],[999,3806],[999,3884],[999,3968],[999,4052],[999,4134],[999,4218],[999,4301],[999,4384],[999,4468],[999,4552],[999,4634],[999,4717],[999,4801],[999,4884],[999,4968],[999,5052],[999,5134],[999,5220],[999,5301],[999,5384],[999,5468],[999,5551],[999,5636],[999,5718],[999,5802],[999,5885],[999,5968],[999,6051],[999,6135],[999,6218],[999,6302],[999,6385],[999,6468],[999,6552],[999,6634],[999,6718],[999,6802],[999,6885],[999,6968],[999,7052],[999,7135],[999,7218],[999,7301],[999,7385],[999,7468],[999,7552],[999,7635],[999,7718],[999,7802],[999,7887],[999,7968],[999,8052],[999,8169],[999,8252]]",1,0,369.627,373.594,99.79166667,2.239,"[{""rating"":99.79166666666667,""responseTime"":2.238999999999976}]",space,3.418,,373.594,Not at all,0,373.596,,,[],,0,5,5,5,1,audio/Narrative7Situation5.wav,audio/Narrative8Situation5.wav,audio/Narrative5Situation5.wav,audio/Narrative6Situation5.wav,5,2,5,2,,,,,,,,,,,,,,,,,,,,,,,,,,,,,,,,,,,,,,,
,,,,,,6150b927614a4f154f311f9d,2024-02-08_17h08.41.063,group3.1-3.2-social-tom,2023.2.2,Win32,58.82352941,65c5074098b851296ff0b7ed,65c54148d99af06b3aa5277b,,,,,,,,,,,,,,,,,,,,,,,,,,,,,373.597,1,audio/Narrative8Situation6.wav,375.611,,375.612,382.08,"[[62.3,82],[63.1,165],[68.9,250],[69,332],[67.9,416],[67.1,498],[67.1,581],[66.8,666],[64.9,750],[55,836],[48.4,916],[48.5,1000],[50.2,1082],[54.7,1166],[60.5,1250],[60.7,1334],[60.7,1415],[65.1,1502],[76.7,1584],[83,1668],[86.3,1750],[95,1834],[100,1918],[100,2002],[100,2081],[100,2168],[100,2250],[100,2334],[100,2418],[100,2500],[100,2584],[100,2668],[100,2750],[100,2834],[100,2918],[100,3000],[100,3084],[99.9,3165],[99.6,3252],[99.5,3337],[97.8,3500],[98,3584],[98,3666],[98,3748],[98,3832],[98,3949],[98,4033],[98,4117],[98,4199],[98,4283],[98,4367],[98,4449],[98,4533],[98,4617],[98.2,4702],[98.2,4783],[98.2,4868],[98.2,4949],[98.2,5033],[98.2,5117],[98.2,5199],[98.2,5283],[98.2,5368],[98.2,5450],[98.2,5533],[98.2,5617],[98.2,5700],[98.2,5783],[98.2,5867],[98.2,5950],[98.2,6033],[98.2,6117],[98.2,6199],[98.2,6283],[98.2,6367],[98.2,6450]]",1,0,382.08,385.114,98.22916667,0.411,"[{""rating"":98.22916666666667,""responseTime"":0.41100000000000136}]",space,2.509,,385.115,Not at all,0,385.117,,,[],,0,6,6,6,1,audio/Narrative7Situation6.wav,audio/Narrative8Situation6.wav,audio/Narrative5Situation6.wav,audio/Narrative6Situation6.wav,3,2,3,2,,,,,,,,,,,,,,,,,,,,,,,,,,,,,,,,,,,,,,,
,,,,,,6150b927614a4f154f311f9d,2024-02-08_17h08.41.063,group3.1-3.2-social-tom,2023.2.2,Win32,58.82352941,65c5074098b851296ff0b7ed,65c54148d99af06b3aa5277b,,,,,,,,,,,,,,,,,,,,,,,,,,,,,385.118,1,audio/Narrative8Situation7.wav,388.133,,388.134,400.22,"[[999,11],[999,81],[999,165],[999,247],[999,331],[999,415],[999,500],[999,581],[999,668],[56.8,750],[56.8,833],[52.5,918],[51.6,1000],[51.1,1084],[51,1165],[51,1252],[51,1331],[51.3,1449],[57.8,1533],[92,1617],[92.5,1702],[94.4,1783],[95.9,1867],[95.9,1949],[95.9,2033],[97.4,2117],[97.4,2199],[97.4,2281],[97.4,2365],[97.3,2449],[97.2,2533],[97.2,2615],[97.2,2699],[97.2,2781],[97.7,2867],[97.8,2949],[98.1,3033],[98.4,3115],[98.5,3197],[98.5,3285],[98.5,3365],[98.5,3449],[98.5,3531],[98.5,3615],[98.5,3702],[99,3786],[99.1,3865],[99.3,3949],[99.7,4033],[99.7,4115],[99.7,4199],[99.7,4283],[99.7,4365],[99.7,4449],[99.7,4533],[99.7,4617],[99.7,4701],[99.7,4783],[99.7,4867],[99.7,4949],[99.7,5033],[99.7,5129],[100,5201],[100,5283],[100,5367],[100,5449],[100,5595],[100,5667],[100,5750],[100,5834],[100,5917],[100,6000],[100,6084],[100,6165],[100,6250],[100,6334],[100,6454],[100,6538],[100,6617],[100,6699],[100,6783],[100,6865],[100,6949],[100,7033],[100,7117],[100,7199],[100,7285],[100,7367],[100,7449],[100,7533],[100,7617],[100,7701],[100,7783],[100,7867],[100,7949],[100,8035],[100,8117],[100,8201],[100,8285],[100,8367],[100,8451],[100,8535],[100,8617],[100,8701],[100,8783],[100,8867],[100,8951],[100,9033],[100,9117],[100,9201],[100,9283],[100,9367],[100,9451],[100,9535],[100,9617],[100,9701],[100,9783],[100,9867],[100,9951],[100,10036],[100,10117],[100,10201],[100,10286],[100,10367],[100,10451],[100,10536],[100,10617],[100,10701],[100,10785],[100,10869],[100,10951],[100,11035],[100,11117],[100,11201],[100,11285],[100,11369],[100,11451],[100,11535],[100,11619],[100,11701],[100,11785],[100,11869],[100,11952],[100,12035]]",1,0,400.22,405.122,98.95833333,4.349,"[{""rating"":98.95833333333333,""responseTime"":4.3489999999999895}]",space,4.374,,405.122,Definitely yes,100,405.128,,,[],,0,7,7,7,1,audio/Narrative7Situation7.wav,audio/Narrative8Situation7.wav,audio/Narrative5Situation7.wav,audio/Narrative6Situation7.wav,5,3,4,5,,,,,,,,,,,,,,,,,,,,,,,,,,,,,,,,,,,,,,,
,,,,,,6150b927614a4f154f311f9d,2024-02-08_17h08.41.063,group3.1-3.2-social-tom,2023.2.2,Win32,58.82352941,65c5074098b851296ff0b7ed,65c54148d99af06b3aa5277b,,,,,,,,,,,,,,,,,,,,,,,,,,,,,405.129,1,audio/Narrative8Situation8.wav,408.139,,408.139,420.977,[],1,0,420.977,426.379,100,3.985,"[{""rating"":100,""responseTime"":3.9850000000000136}]",space,4.869,,426.379,Not at all,0,437.3,0.104166667,7.562,"[{""rating"":0.1041666666666663,""responseTime"":7.562000000000012}]",space,0,8,8,8,1,audio/Narrative7Situation8.wav,audio/Narrative8Situation8.wav,audio/Narrative5Situation8.wav,audio/Narrative6Situation8.wav,2,3,3,5,,,10.388,,,,,,,,,,,,,,,,,,,,,,,,,,,,,,,,,,,,
,,,,,,6150b927614a4f154f311f9d,2024-02-08_17h08.41.063,group3.1-3.2-social-tom,2023.2.2,Win32,58.82352941,65c5074098b851296ff0b7ed,65c54148d99af06b3aa5277b,,,,,,,,,,,,,,,,,,,,,,,,,,,,,437.312,1,audio/Narrative8Situation9.wav,440.317,,440.318,451.64,"[[999,0],[999,84],[999,166],[999,250],[999,332],[999,416],[999,500],[999,584],[999,666],[999,750],[999,834],[999,917],[999,1001],[999,1084],[999,1167],[999,1250],[999,1332],[999,1417],[999,1500],[999,1588],[999,1666],[999,1750],[999,1834],[999,1918],[999,2001],[999,2084],[999,2167],[999,2250],[999,2334],[999,2417],[999,2500],[999,2587],[999,2666],[999,2750],[999,2834],[999,2917],[999,3001],[999,3151],[999,3221],[999,3301],[999,3384],[999,3466],[999,3551],[999,3635],[999,3717],[999,3801],[999,3884],[999,3967],[999,4051],[999,4134],[999,4217],[999,4320],[999,4401],[999,4484],[999,4568],[999,4650],[999,4734],[999,4817],[999,4902],[999,4985],[999,5067],[999,5151],[999,5233],[999,5317],[999,5401],[999,5484],[999,5567],[999,5651],[999,5734],[999,5819],[999,5901],[999,5985],[999,6068],[999,6151],[999,6234],[999,6318],[999,6402],[999,6485],[999,6568],[999,6651],[999,6735],[999,6817],[999,6901],[999,6984],[999,7069],[999,7151],[999,7235],[999,7318],[999,7403],[999,7485],[999,7570],[999,7652],[999,7735],[999,7818],[999,7901],[999,7985],[999,8069],[999,8152],[999,8236],[999,8319],[999,8402],[999,8486],[999,8569],[999,8652],[999,8735],[999,8820],[999,8903],[999,8985],[999,9072],[999,9152],[999,9236],[999,9335],[999,9419],[999,9502],[999,9585],[999,9669],[999,9752],[999,9836],[999,9919],[999,10002],[999,10086],[999,10169],[999,10252],[999,10336],[999,10420],[999,10503],[999,10587],[999,10670],[999,10753],[999,10836],[999,10919],[999,11004],[999,11088],[999,11171],[999,11253]]",1,0,451.64,482.917,97.5,29.36,"[{""rating"":97.5,""responseTime"":29.360000000000014}]",space,30.728,,482.917,Partially,50,482.924,,,[],,0,9,9,9,1,audio/Narrative7Situation9.wav,audio/Narrative8Situation9.wav,audio/Narrative5Situation9.wav,audio/Narrative6Situation9.wav,2,3,3,4,,,,,,,,,,,,,,,,,,,,,,,,,,,,,,,,,,,,,,,
,,,,,,6150b927614a4f154f311f9d,2024-02-08_17h08.41.063,group3.1-3.2-social-tom,2023.2.2,Win32,58.82352941,65c5074098b851296ff0b7ed,65c54148d99af06b3aa5277b,,,,,,,,,,,,,,,,,,,,,,,,,,,,,482.924,1,audio/Narrative7Situation1.wav,484.935,,484.935,540.805,"[[999,0],[999,82],[999,166],[999,250],[47.4,333],[47.4,415],[47.4,498],[47.3,583],[47.3,670],[47.9,753],[48.4,834],[48.4,916],[48.4,1000],[48.4,1087],[48.4,1168],[48.4,1250],[86.9,50418],[86.4,50493],[84.7,50572],[88.5,50654],[88.5,50736],[91.8,50820],[92.9,50908],[96.4,50986],[96.7,51070],[96.7,51152],[97,51237],[97.4,51320],[97.6,51400],[97.9,51486],[98.2,51569],[98.6,51652],[98.9,51735],[99.2,51820],[99.5,51901],[99.5,51985],[99.5,52070],[99.6,52159],[99.9,52248],[100,52319],[100,52404],[100,52490],[100,52569],[100,52654],[100,52736],[100,52819],[100,52905],[100,52986],[100,53070],[100,53152],[100,53236],[100,53318],[99.3,53404],[98.2,53486],[98.2,53569],[98.2,53652],[98.2,53736],[98.2,53820],[98.2,53904],[98.2,53990],[98.3,54073],[98.3,54154],[98.3,54238],[98.3,54322],[98.3,54406],[98.3,54490],[98.6,54573],[98.8,54652],[98.8,54737],[98.9,54822],[98.9,54931],[99,55003],[99,55087],[99,55173],[99,55253],[99,55336],[99,55423],[99,55504],[99,55599],[99,55669],[99,55752],[99,55855]]",1,0,540.805,544.241,99.16666667,1.895,"[{""rating"":99.16666666666667,""responseTime"":1.8949999999999818}]",space,2.904,,544.241,Not at all,0,544.249,,,[],,0,10,10,10,1,audio/Narrative8Situation1.wav,audio/Narrative7Situation1.wav,audio/Narrative6Situation1.wav,audio/Narrative5Situation1.wav,5,2,2,5,,,,,,,,,,,,,,,,,,,,,,,,,,,,,,,,,,,,,,,
,,,,,,6150b927614a4f154f311f9d,2024-02-08_17h08.41.063,group3.1-3.2-social-tom,2023.2.2,Win32,58.82352941,65c5074098b851296ff0b7ed,65c54148d99af06b3aa5277b,,,,,,,,,,,,,,,,,,,,,,,,,,,,,544.25,1,audio/Narrative7Situation2.wav,547.366,,547.366,554.861,"[[999,0],[999,225],[999,307],[999,391],[999,475],[999,559],[999,642],[999,725],[999,810],[999,894],[999,976],[999,1070],[999,1144],[999,1226],[999,1309],[999,1393],[999,1475],[999,1559],[999,1643],[999,1726],[999,1810],[999,1894],[999,1978],[999,2060],[94.1,2394],[98,2514],[98.2,2593],[97.7,2676],[99.8,2759],[99.9,2843],[99.9,2929],[99.9,3009],[99.9,3093],[100,3177],[100,3261],[100,3344],[100,3426],[100,3511],[99.9,3594],[99.8,3677],[99.7,3761]]",1,0,554.861,558.696,97.8125,3.301,"[{""rating"":97.8125,""responseTime"":3.300999999999931}]",space,3.308,,558.696,Definitely yes,100,558.704,,,[],,0,11,11,11,1,audio/Narrative8Situation2.wav,audio/Narrative7Situation2.wav,audio/Narrative6Situation2.wav,audio/Narrative5Situation2.wav,3,3,3,3,,,,,,,,,,,,,,,,,,,,,,,,,,,,,,,,,,,,,,,
,,,,,,6150b927614a4f154f311f9d,2024-02-08_17h08.41.063,group3.1-3.2-social-tom,2023.2.2,Win32,58.82352941,65c5074098b851296ff0b7ed,65c54148d99af06b3aa5277b,,,,,,,,,,,,,,,,,,,,,,,,,,,,,558.704,1,audio/Narrative7Situation3.wav,566.715,,566.715,575.985,[],1,0,575.985,578.887,99.89583333,2.096,"[{""rating"":99.89583333333334,""responseTime"":2.0960000000000036}]",space,2.368,,578.887,Partially,50,578.894,,,[],,0,12,12,12,1,audio/Narrative8Situation3.wav,audio/Narrative7Situation3.wav,audio/Narrative6Situation3.wav,audio/Narrative5Situation3.wav,4,8,5,3,,,,,,,,,,,,,,,,,,,,,,,,,,,,,,,,,,,,,,,
,,,,,,6150b927614a4f154f311f9d,2024-02-08_17h08.41.063,group3.1-3.2-social-tom,2023.2.2,Win32,58.82352941,65c5074098b851296ff0b7ed,65c54148d99af06b3aa5277b,,,,,,,,,,,,,,,,,,,,,,,,,,,,,578.896,1,audio/Narrative7Situation4.wav,581.905,,581.905,593.659,"[[100,1417],[100,1499],[100,1586],[100,1668],[95.4,1750],[95.6,1840],[99.2,1918],[99.5,2000],[99.5,2090],[99.6,2170],[99.6,2250],[99.5,2333],[99.5,2417],[99.5,2500],[99.5,2584],[99.5,2667],[99.3,2750],[99.3,2833],[99.3,2917],[99.3,3036],[99.3,3120],[99.3,3200],[99.3,3283],[99.3,3367],[99.3,3450],[99.3,3536],[99.3,3616],[99.3,3701],[99.3,3848],[99.3,3921],[99.3,4000],[99.3,4084],[99.3,4168],[99.3,4251],[99.3,4333],[99.3,4417],[99.3,4501],[98.5,4586],[100,5085],[100,5171],[100,5251],[100,5336],[100,5418],[100,5502],[100,5586],[100,5668],[100,5750],[100,5835],[100,5919],[100,6001],[100,6086],[100,6169],[100,6252],[100,6334],[100,6418],[100,6502],[100,6585],[100,6669],[100,6751],[100,6834],[99.9,6918],[99.9,7002],[99.9,7085],[99.9,7168],[99.9,7251],[99.9,7336],[99.9,7418],[99.9,7504],[99.9,7585],[97.2,7670],[87.6,7753],[83.8,7836],[82.4,7920],[73.4,8036],[71.1,8119],[71.1,8201],[71.1,8286],[72.4,8369],[72.4,8451],[72.4,8536],[72.4,8619],[72.4,8701],[72.4,8785],[72.4,8869],[72.4,8951],[72.4,9036],[72.4,9119],[72.4,9203],[72.4,9286],[72.4,9369],[72.4,9451],[72.4,9535],[72.4,9619],[72.4,9701],[72.4,9788],[72.4,9869],[72.4,9951],[72.4,10036],[72.4,10119],[72.4,10201],[72.4,10286],[72.4,10370],[72.4,10453],[72.4,10537],[72.4,10619],[72.4,10703],[72.4,10786],[72.4,10870],[72.4,10953],[72.4,11037],[72.4,11120],[72.4,11203],[72.4,11290],[72.4,11373],[72.4,11453],[72.4,11536],[72.4,11624],[72.4,11703]]",1,0,593.659,597.777,51.97916667,3.015,"[{""rating"":53.333333333333336,""responseTime"":2.524000000000001},{""rating"":51.979166666666664,""responseTime"":3.0149999999999864}]",space,3.586,,597.777,Not at all,0,597.785,,,[],,0,13,13,13,1,audio/Narrative8Situation4.wav,audio/Narrative7Situation4.wav,audio/Narrative6Situation4.wav,audio/Narrative5Situation4.wav,3,3,2,1,,,,,,,,,,,,,,,,,,,,,,,,,,,,,,,,,,,,,,,
,,,,,,6150b927614a4f154f311f9d,2024-02-08_17h08.41.063,group3.1-3.2-social-tom,2023.2.2,Win32,58.82352941,65c5074098b851296ff0b7ed,65c54148d99af06b3aa5277b,,,,,,,,,,,,,,,,,,,,,,,,,,,,,597.785,1,audio/Narrative7Situation5.wav,602.787,,602.787,611.265,"[[999,16],[999,91],[999,173],[999,258],[999,341],[999,424],[999,508],[999,591],[999,674],[999,758],[999,841],[999,925],[999,1008],[999,1091],[999,1174],[999,1258],[999,1341],[999,1425],[999,1509],[999,1591],[999,1675],[999,1759],[999,1841],[999,1925],[999,2009],[999,2091],[999,2208],[999,2293],[999,2375],[999,2461],[999,2542],[999,2625],[999,2708],[999,2793],[999,2879],[999,2958],[999,3042],[999,3125],[999,3211],[999,3292],[999,3375],[999,3458],[999,3542],[999,3625],[999,3721],[999,3797],[999,3937],[999,4009],[999,4093],[999,4175],[999,4259],[999,4342],[999,4427],[999,4510],[999,4596],[999,4677],[999,4759],[999,4850],[999,4925],[999,5009],[999,5092],[999,5177],[999,5260],[999,5343],[999,5425],[999,5509],[999,5593],[999,5677],[999,5759],[999,5843],[999,5927],[999,6010],[999,6093],[999,6177],[999,6259],[999,6345],[999,6427],[999,6509],[999,6593],[999,6677],[999,6760],[999,6845],[999,6932],[999,7009],[999,7093],[999,7194],[999,7276],[999,7360],[999,7443],[999,7528],[999,7610],[999,7693],[999,7778],[999,7860],[999,7944],[999,8028],[999,8110],[999,8193],[999,8278],[999,8360],[999,8444]]",1,0,611.265,618.122,0.9375,4.748,"[{""rating"":86.14583333333333,""responseTime"":2.0990000000000464},{""rating"":94.16666666666667,""responseTime"":2.7480000000000473},{""rating"":61.145833333333336,""responseTime"":3.3670000000000755},{""rating"":46.14583333333333,""responseTime"":3.6790000000000873},{""rating"":1.5625,""responseTime"":4.371000000000095},{""rating"":0.9375000000000022,""responseTime"":4.748000000000047}]",space,6.334,,618.122,Partially,50,618.141,,,[],,0,14,14,14,1,audio/Narrative8Situation5.wav,audio/Narrative7Situation5.wav,audio/Narrative6Situation5.wav,audio/Narrative5Situation5.wav,2,5,2,5,,,,,,,,,,,,,,,,,,,,,,,,,,,,,,,,,,,,,,,
,,,,,,6150b927614a4f154f311f9d,2024-02-08_17h08.41.063,group3.1-3.2-social-tom,2023.2.2,Win32,58.82352941,65c5074098b851296ff0b7ed,65c54148d99af06b3aa5277b,,,,,,,,,,,,,,,,,,,,,,,,,,,,,618.141,1,audio/Narrative7Situation6.wav,621.152,,621.153,631.156,"[[999,0],[999,81],[999,165],[999,249],[999,331],[999,414],[999,499],[999,581],[999,664],[999,750],[999,832],[999,917],[999,1001],[999,1082],[999,1165],[999,1253],[999,1332],[999,1415],[999,1500],[999,1581],[999,1665],[999,1750],[999,1833],[999,1915],[999,1999],[999,2083],[999,2165],[999,2250],[999,2333],[999,2417],[999,2499],[999,2582],[999,2665],[999,2750],[999,2832],[999,2915],[999,2999],[999,3082],[999,3167],[999,3250],[999,3333],[999,3415],[999,3500],[999,3649],[999,3736],[999,3850],[999,3933],[999,4017],[999,4100],[999,4183],[999,4268],[999,4350],[999,4433],[999,4518],[999,4600],[999,4683],[999,4768],[999,4850],[999,4933],[999,5019],[999,5100],[999,5183],[999,5269],[999,5350],[999,5433],[999,5517],[999,5600],[999,5686],[999,5767],[999,5850],[999,5934],[999,6018],[999,6101],[999,6183],[999,6268],[999,6350],[999,6434],[999,6518],[999,6601],[999,6686],[999,6769],[999,6850],[999,6934],[999,7018],[999,7100],[999,7184],[999,7268],[999,7351],[999,7434],[999,7518],[999,7607],[999,7684],[999,7769],[999,7851],[999,7938],[999,8019],[999,8101],[999,8184],[999,8268],[999,8351],[999,8434],[999,8518],[999,8601],[999,8686],[999,8770],[999,8869],[999,8952],[999,9034],[999,9119],[999,9201],[999,9288],[999,9369],[999,9452],[999,9535],[999,9619],[999,9701],[999,9785],[999,9873],[999,9953]]",1,0,631.157,637.525,75,5.183,"[{""rating"":49.270833333333336,""responseTime"":4.780999999999949},{""rating"":75,""responseTime"":5.182999999999993}]",space,5.82,,637.526,Definitely yes,100,637.531,,,[],,0,15,15,15,1,audio/Narrative8Situation6.wav,audio/Narrative7Situation6.wav,audio/Narrative6Situation6.wav,audio/Narrative5Situation6.wav,2,3,2,3,,,,,,,,,,,,,,,,,,,,,,,,,,,,,,,,,,,,,,,
,,,,,,6150b927614a4f154f311f9d,2024-02-08_17h08.41.063,group3.1-3.2-social-tom,2023.2.2,Win32,58.82352941,65c5074098b851296ff0b7ed,65c54148d99af06b3aa5277b,,,,,,,,,,,,,,,,,,,,,,,,,,,,,637.532,1,audio/Narrative7Situation7.wav,643.868,,643.868,661.05,"[[999,14],[999,125],[999,208],[999,296],[999,375],[999,458],[999,541],[999,625],[999,709],[999,793],[999,876],[999,958],[999,1043],[999,1170],[999,1246],[999,1326],[999,1408],[999,1492],[999,1575],[999,1659],[999,1742],[999,1825],[999,1909],[999,1992],[999,2075],[999,2163],[999,2245],[999,2332],[999,2409],[999,2492],[999,2575],[999,2660],[999,2742],[999,2825],[999,2909],[999,2995],[999,3149],[999,3230],[999,3310],[999,3395],[78.5,3490],[77.7,3562],[71.1,3728],[71.5,3817],[76.7,3896],[76.7,3976],[76.7,4059],[76.7,4146],[76.7,4230],[76.7,4310],[76.7,4394],[76.7,4477],[77.8,4562],[84.3,4645],[96,4728],[99,4812],[99,4894],[100,4978],[100,5060],[100,5149],[99.6,5230],[99.6,5312],[97,5395],[96.8,5477],[94.6,5562],[86,5646],[85.3,5727],[85,5813],[84.9,5894],[84.9,5980],[85,6062],[92.7,6177],[96,6245],[96,6327],[96.7,6411],[99.1,6496],[99.1,6578],[99.1,6660],[99.1,6746],[99.1,6827],[99.1,6911],[99.1,6993],[99.1,7079],[99.1,7163],[99.1,7245],[99.1,7327],[99.1,7411],[99.1,7495],[99,7578],[99,7663],[99,7745],[99,7828],[99,7911],[99,7995],[99,8079],[99,8160],[99,8245],[99,8327],[99,8413],[99,8496],[99,8579],[99,8663],[99,8745],[99,8828],[99,8911],[99,8997],[99,9078],[99,9165],[99,9245],[99,9329],[99,9413],[99,9496],[99,9578],[99,9663],[99,9745],[99,9828],[99,9913],[99,9995],[99,10079],[99,10164],[99,10250],[99,10331],[99,10413],[99,10496],[99,10579],[99,10663],[99,10746],[99,10832],[99,10913],[99,10996],[99,11081],[99,11200],[99,11279],[99,11366],[99,11447],[99,11529],[99,11615],[99,11697],[99,11783],[99,11862],[99,11947],[99,12030],[99,12112],[99,12197],[99,12279],[99,12362],[99,12445],[99,12529],[99,12615],[99,12697],[99,12779],[99,12863],[99,12947],[99,13030],[99,13113],[99,13197],[99,13279],[99,13363],[99,13447],[99,13530],[99,13613],[99,13697],[99,13780],[99,13863],[99,13947],[99,14030],[99,14115],[99,14197],[99,14283],[99,14363],[99,14447],[99,14533],[99,14613],[99,14697],[99,14780],[99,14863],[99,14947],[99,15033],[99,15113],[99,15197],[99,15280],[99,15365],[99,15447],[99,15530],[99,15613],[99,15697],[99,15781],[99,15865],[99,15947],[99,16031],[99,16139],[99,16214],[99,16298],[99,16381],[99,16464],[99,16548],[99,16632],[99,16714],[99,16798],[99,16881],[99,16964],[99,17048],[99,17131]]",1,0,661.052,663.151,98.95833333,0.561,"[{""rating"":98.95833333333333,""responseTime"":0.5610000000000355}]",space,1.557,,663.151,Definitely yes,100,663.154,,,[],,0,16,16,16,1,audio/Narrative8Situation7.wav,audio/Narrative7Situation7.wav,audio/Narrative6Situation7.wav,audio/Narrative5Situation7.wav,3,5,5,4,,,,,,,,,,,,,,,,,,,,,,,,,,,,,,,,,,,,,,,
,,,,,,6150b927614a4f154f311f9d,2024-02-08_17h08.41.063,group3.1-3.2-social-tom,2023.2.2,Win32,58.82352941,65c5074098b851296ff0b7ed,65c54148d99af06b3aa5277b,,,,,,,,,,,,,,,,,,,,,,,,,,,,,663.155,1,audio/Narrative7Situation8.wav,665.169,,665.17,675.205,"[[999,0],[999,80],[999,165],[999,248],[999,331],[999,414],[999,497],[999,583],[999,666],[999,750],[999,844],[999,917],[999,998],[999,1085],[999,1166],[999,1248],[999,1332],[999,1415],[999,1498],[999,1584],[999,1665],[999,1750],[999,1833],[999,1915],[999,2001],[999,2081],[999,2166],[999,2250],[999,2333],[999,2416],[999,2500],[999,2582],[999,2731],[999,2815],[999,2899],[999,2983],[999,3064],[999,3152],[999,3233],[999,3315],[999,3398],[999,3483],[999,3566],[999,3648],[999,3732],[999,3815],[999,3898],[999,3982],[999,4065],[999,4148],[999,4232],[999,4315],[999,4399],[999,4482],[999,4565],[999,4649],[999,4733],[999,4848],[999,4932],[999,5016],[999,5103],[999,5182],[999,5266],[999,5349],[999,5433],[999,5516],[999,5600],[999,5682],[999,5767],[999,5850],[999,5932],[999,6017],[999,6099],[999,6183],[999,6266],[999,6350],[999,6433],[999,6519],[999,6600],[999,6684],[999,6767],[999,6849],[999,6933],[999,7017],[999,7100],[999,7184],[999,7269],[999,7350],[999,7434],[999,7518],[999,7600],[999,7684],[999,7767],[999,7851],[999,7933],[999,8016],[999,8100],[999,8185],[999,8266],[999,8351],[999,8434],[999,8518],[999,8602],[999,8685],[999,8768],[999,8853],[999,8936],[999,9018],[999,9101],[999,9184],[999,9268],[999,9352],[999,9433],[999,9520],[57,9602],[56.9,9685],[65.1,9768],[76.9,9853],[77,9934],[77,10017]]",1,0,675.206,678.095,75.625,0.749,"[{""rating"":75.625,""responseTime"":0.7490000000000236}]",space,2.366,,678.095,Definitely yes,100,678.101,,,[],,0,17,17,17,1,audio/Narrative8Situation8.wav,audio/Narrative7Situation8.wav,audio/Narrative6Situation8.wav,audio/Narrative5Situation8.wav,3,2,5,3,,,,,,,,,,,,,,,,,,,,,,,,,,,,,,,,,,,,,,,
,,,,,,6150b927614a4f154f311f9d,2024-02-08_17h08.41.063,group3.1-3.2-social-tom,2023.2.2,Win32,58.82352941,65c5074098b851296ff0b7ed,65c54148d99af06b3aa5277b,,,,,,,,,,,,,,,,,,,,,,,,,,,,,678.103,1,audio/Narrative7Situation9.wav,680.107,,680.107,688.727,"[[999,3],[999,83],[999,168],[999,250],[999,334],[999,417],[999,500],[999,583],[999,666],[999,751],[999,836],[999,920],[999,1004],[999,1085],[999,1168],[999,1251],[999,1334],[999,1417],[999,1500],[999,1584],[999,1667],[999,1751],[999,1841],[999,1920],[999,2003],[999,2084],[999,2168],[999,2251],[999,2335],[999,2417],[999,2501],[999,2584],[999,2668],[999,2753],[999,2835],[999,2994],[999,3068],[999,3152],[999,3234],[999,3318],[999,3403],[999,3485],[999,3568],[999,3652],[999,3735],[999,3819],[999,3902],[999,3985],[999,4069],[999,4151],[999,4235],[999,4319],[999,4402],[999,4485],[999,4568],[999,4652],[999,4735],[999,4819],[999,4937],[999,5019],[999,5100],[999,5186],[999,5270],[999,5352],[999,5435],[999,5519],[999,5603],[999,5688],[999,5768],[999,5852],[999,5936],[999,6019],[999,6103],[999,6186],[999,6269],[999,6355],[999,6436],[999,6519],[999,6603],[999,6685],[999,6769],[999,6852],[999,6939],[999,7020],[999,7103],[999,7186],[999,7269],[999,7353],[999,7437],[999,7521],[999,7603],[999,7687],[999,7770],[999,7853],[999,7940],[999,8019],[999,8104],[999,8187],[999,8270],[999,8355],[999,8438],[999,8520],[999,8604]]",1,0,688.727,693.129,99.16666667,3.849,"[{""rating"":99.16666666666667,""responseTime"":3.8490000000000464}]",space,3.87,,693.129,Not at all,0,693.135,,,[],,0,18,18,18,1,audio/Narrative8Situation9.wav,audio/Narrative7Situation9.wav,audio/Narrative6Situation9.wav,audio/Narrative5Situation9.wav,3,2,4,3,,,,,,,,,,,,,,,,,,,,,,,,,,,,,,,,,,,,,,,
,,,,,,6150b927614a4f154f311f9d,2024-02-08_17h08.41.063,group3.1-3.2-social-tom,2023.2.2,Win32,58.82352941,65c5074098b851296ff0b7ed,65c54148d99af06b3aa5277b,,,,,,,,,,,,,,,,,,,,,,,,,,,699.062,701.636,701.672,2,audio/Narrative13Situation2.wav,701.672,,701.672,731.443,"[[82.2,29405],[69.9,29489],[65.3,29572],[65.3,29654],[65.3,29736]]",1,0,731.443,731.446,,,[],,,,731.447,Definitely yes,100,731.451,,,[],,0,0,0,0,1,audio/Narrative13Situation2.wav,audio/Narrative13Situation2.wav,audio/Narrative13Situation2.wav,audio/Narrative13Situation2.wav,2,2,2,2,,,,,693.142,699.049,space,5.387,,,,,,,,,,,,,,,,,,,,,,,,,,,,,,,
,,,,,,6150b927614a4f154f311f9d,2024-02-08_17h08.41.063,group3.1-3.2-social-tom,2023.2.2,Win32,58.82352941,65c5074098b851296ff0b7ed,65c54148d99af06b3aa5277b,,,,,,,,,,,,,,,,,,,,,,,,,,,,,731.452,2,audio/Narrative6Situation1.wav,733.462,,733.462,760.053,"[[67.3,2699],[67.4,2783],[67.5,2865],[67.6,2950],[67.6,3033],[67.7,3117],[67.7,3200],[67.7,3283],[67.7,3365],[67.7,3449],[67.7,3533],[67.7,3615],[67.7,3700],[67.6,3783],[67.5,3867],[66.5,3952],[64.8,4033],[64.2,4118],[61.6,4201],[61.3,4283],[61,4368],[60.6,4451],[60.5,4533],[60.5,4620],[58.9,4769],[58.9,4850],[58.9,4934],[58.9,5017],[58.9,5100],[58.9,5184],[58.9,5267],[58.9,5350],[58.9,5432],[58.9,5519],[58.9,5600],[58.9,5684],[58.9,5766],[58.9,5850],[58.9,5936],[58.9,6017],[58.9,6100],[58.9,6182],[58.9,6267],[58.9,6350],[58.9,6435],[58.9,6517],[58.9,6601],[58.9,6684],[58.9,6768],[58.9,6850],[58.9,6934],[58.6,7019],[58.5,7100],[58.5,7185],[58.5,7267],[58.5,7350],[55.5,7435],[52,7521],[50.3,7600],[50.3,7685],[50.3,7767],[50.3,7850],[50.3,7934],[50.3,8018],[50.3,8100],[50.3,8184],[50.3,8267],[50.3,8351],[50.3,8435],[50.3,8519],[50.3,8601],[50.3,8685],[50.3,8768],[50.3,8851],[50.3,8935],[50.3,9018],[50.3,9101],[50.3,9185],[50.3,9269],[50.3,9351],[50.3,9435],[50.3,9518],[50.3,9604],[50.3,9685],[50.2,9769],[45.4,9853],[43.1,9935],[43.1,10019],[43.1,10101],[44.4,10186],[54.8,10269],[55,10351],[55,10436],[51.8,10521],[50.5,10605],[50,10687],[49.7,10768],[49.7,10851],[49.7,10935],[49.7,11018],[49.7,11101],[49.7,11186],[49.7,11269],[49.7,11353],[49.7,11436],[49.7,11519],[49.7,11634],[49.7,11701],[49.7,11786],[49.7,11869],[49.7,11951],[49.7,12036],[49.7,12120],[49.7,12202],[49.7,12286],[49.7,12369],[49.7,12452],[49.7,12540],[49.7,12620],[49.7,12702],[49.7,12786],[49.7,12869],[49.7,12952],[49.7,13036],[49.7,13120],[49.7,13202],[49.7,13286],[49.7,13370],[49.7,13452],[49.7,13536],[49.7,13622],[49.7,13704],[49.7,13786],[49.7,13870],[49.7,13952],[49.7,14038],[49.7,14120],[49.7,14202],[49.7,14287],[49.7,14370],[49.7,14452],[49.7,14537],[49.7,14620],[49.7,14702],[49.7,14787],[49.7,14870],[49.7,14954],[49.7,15037],[49.7,15120],[49.7,15204],[49.7,15287],[49.7,15370],[49.7,15452],[49.7,15538],[49.8,15622],[50,15704],[50.1,15787],[50.1,15872],[50.1,15955],[50.1,16037],[50.1,16120],[50.1,16204],[50.1,16288],[50.1,16370],[50.2,16455],[50.2,16537],[50.4,16654],[50.6,16739],[50.8,16822],[50.8,16903],[50.8,16988],[50.8,17071],[50.8,17154],[50.9,17239],[50.9,17321],[50.9,17404],[50.9,17487],[50.9,17571],[50.9,17653],[50.9,17739],[50.9,17821],[50.9,17903],[50.9,17988],[50.9,18071],[50.9,18156],[50.9,18238],[50.9,18322],[50.9,18403],[50.9,18489],[50.9,18572],[50.9,18656],[50.9,18739],[50.9,18821],[50.9,18906],[50.9,18988],[50.9,19072],[50.9,19154],[50.9,19239],[50.9,19322],[50.9,19404],[50.9,19489],[50.9,19572],[50.9,19656],[50.9,19739],[50.9,19822],[50.9,19904],[50.9,19990],[50.9,20072],[50.9,20156],[50.9,20239],[50.9,20322],[50.9,20406],[50.9,20489],[50.9,20572],[51,20654],[51,20740],[51,20824],[51,20907],[51,20990],[51,21072],[51,21156],[51,21239],[51,21322],[51,21406],[51,21490],[51,21572],[51,21673],[51,21757],[51,21841],[51,21922],[51,22005],[51,22091],[51,22173],[51,22255],[51,22340],[51,22423],[51,22505],[51,22589],[51,22673],[51,22755],[51,22840],[51,22923],[51,23008],[51,23090],[51,23173],[51,23257],[51.1,23340],[51.1,23423],[51.1,23507],[51.1,23591],[51.1,23673],[51.5,23759],[51.7,23843],[52.1,23923],[52.1,24007],[52.1,24091],[52.1,24173],[52.1,24259],[52,24341],[52,24423],[52,24507],[52,24591],[51.9,24673],[51.9,24758],[51.9,24841],[51.9,24923],[51.9,25008],[51.9,25091],[51.9,25173],[51.9,25257],[51.9,25341],[51.9,25423],[51.9,25507],[51.9,25591],[52,25675],[52,25761],[52,25841],[52,25923],[52,26008],[52,26091],[52,26175],[52,26258],[52,26341],[52,26425],[52,26508],[52,26591]]",1,0,760.054,763.088,52.60416667,1.478,"[{""rating"":52.604166666666664,""responseTime"":1.4779999999999518}]",space,2.503,,763.088,Not at all,0,763.094,,,[],,0,1,1,1,1,audio/Narrative7Situation1.wav,audio/Narrative8Situation1.wav,audio/Narrative5Situation1.wav,audio/Narrative6Situation1.wav,2,5,5,2,,,,,,,,,,,,,,,,,,,,,,,,,,,,,,,,,,,,,,,
,,,,,,6150b927614a4f154f311f9d,2024-02-08_17h08.41.063,group3.1-3.2-social-tom,2023.2.2,Win32,58.82352941,65c5074098b851296ff0b7ed,65c54148d99af06b3aa5277b,,,,,,,,,,,,,,,,,,,,,,,,,,,,,763.095,2,audio/Narrative6Situation2.wav,766.106,,766.106,794.6,"[[999,2],[999,82],[999,166],[999,249],[999,331],[999,416],[999,500],[999,584],[999,668],[999,750],[999,835],[999,922],[999,1004],[999,1084],[999,1167],[999,1250],[999,1335],[999,1417],[999,1500],[999,1584],[999,1666],[999,1750],[999,1834],[999,1918],[999,2000],[999,2084],[999,2167],[999,2250],[999,2336],[999,2417],[999,2500],[999,2585],[999,2667],[999,2750],[999,2835],[999,2921],[999,3000],[999,3085],[999,3167],[999,3250],[999,3334],[999,3504],[999,3567],[999,3654],[999,3736],[999,3817],[999,3902],[999,4019],[999,4104],[999,4185],[999,4269],[999,4351],[999,4435],[999,4519],[999,4600],[999,4685],[999,4768],[999,4850],[999,4935],[999,5018],[999,5101],[999,5187],[999,5269],[999,5353],[999,5435],[999,5518],[999,5600],[999,5685],[999,5768],[999,5851],[999,5936],[999,6019],[999,6101],[999,6187],[54.5,6271],[50.6,6437],[50.6,6519],[50.6,6600],[54.5,6686],[55.2,6773],[55.1,6855],[55.5,6939],[71.1,7024],[82.9,7101],[82.7,7187],[83,7272],[83,7353],[83.5,7437],[84,7519],[83.9,7603],[83.9,7685],[83.9,7769],[83.9,7851],[87.4,7937],[90.6,8019],[93.9,8104],[94,8186],[95.9,8271],[96.1,8351],[96.1,8436],[96.1,8519],[96,8604],[95.5,8687],[95.5,8769],[95.5,8853],[95.5,8936],[95.5,9036],[95.5,9120],[95.5,9206],[95.5,9287],[95.5,9370],[95.5,9452],[95.5,9536],[95.5,9620],[95.5,9702],[95.5,9787],[95.5,9870],[95.5,9952],[95.5,10037],[95.5,10120],[95.5,10204],[95.5,10287],[95.5,10370],[95.5,10454],[95.5,10536],[95.5,10620],[95.5,10704],[95.5,10787],[95.5,10870],[95.5,10954],[95.5,11037],[95.5,11120],[95.5,11202],[95.5,11287],[94.4,11370],[96.6,11455],[99,11537],[100,11872],[100,11952],[100,12038],[100,12120],[100,12206],[100,12288],[100,12370],[100,12454],[100,12537],[100,12622],[100,12705],[100,12788],[100,12870],[100,12955],[100,13038],[100,13120],[100,13206],[100,13288],[100,13372],[100,13454],[100,13538],[100,13620],[100,13705],[100,13788],[100,13872],[100,13955],[100,14055],[100,14139],[100,14221],[100,14305],[100,14389],[100,14471],[100,14556],[100,14638],[100,14721],[100,14805],[100,14888],[100,14971],[100,15055],[100,15138],[100,15221],[100,15305],[100,15388],[100,15471],[100,15556],[100,15639],[100,15721],[100,15805],[100,15888],[100,15971],[100,16056],[100,16139],[100,16221],[100,16306],[100,16389],[100,16471],[100,16556],[100,16639],[100,16723],[100,16806],[100,16889],[100,16974],[100,17057],[100,17139],[100,17223],[100,17307],[100,17389],[100,17473],[100,17556],[100,17639],[100,17723],[100,17807],[100,17889],[100,17973],[100,18056],[100,18139],[100,18224],[100,18306],[100,18389],[100,18471],[100,18556],[100,18639],[100,18723],[100,18806],[100,18891],[100,19009],[100,19090],[100,19173],[100,19255],[100,19341],[100,19423],[100,19507],[100,19590],[100,19673],[100,19755],[100,19841],[100,19923],[100,20007],[100,20091],[100,20173],[100,20257],[100,20340],[100,20423],[100,20507],[100,20590],[100,20673],[100,20758],[100,20840],[100,20926],[100,21008],[100,21091],[100,21173],[100,21258],[100,21341],[100,21423],[100,21507],[100,21590],[100,21673],[100,21758],[100,21841],[100,21923],[100,22008],[100,22091],[100,22175],[100,22258],[100,22341],[100,22425],[100,22507],[100,22593],[100,22675],[100,22759],[100,22841],[100,22925],[100,23009],[100,23091],[100,23173],[100,23259],[100,23341],[100,23427],[100,23508],[100,23591],[100,23675],[100,23758],[100,23841],[100,23925],[100,24042],[100,24125],[100,24209],[100,24292],[100,24375],[100,24457],[100,24542],[100,24625],[100,24707],[100,24792],[100,24875],[100,24961],[100,25042],[100,25125],[100,25209],[100,25292],[100,25377],[100,25459],[100,25542],[100,25625],[100,25709],[100,25792],[100,25875],[100,25960],[100,26043],[100,26125],[100,26209],[100,26293],[100,26377],[100,26460],[100,26543],[100,26625],[100,26709],[100,26793],[100,26875],[100,26962],[100,27042],[100,27127],[100,27210],[100,27293],[100,27375],[100,27460],[100,27543],[100,27625],[100,27710],[100,27793],[100,27877],[100,27960],[100,28043],[100,28127],[100,28210],[100,28293],[100,28377],[100,28460]]",1,0,794.6,798.868,82.91666667,2.949,"[{""rating"":82.91666666666666,""responseTime"":2.9489999999999554}]",space,3.719,,798.868,Partially,50,798.874,,,[],,0,2,2,2,1,audio/Narrative7Situation2.wav,audio/Narrative8Situation2.wav,audio/Narrative5Situation2.wav,audio/Narrative6Situation2.wav,3,3,3,3,,,,,,,,,,,,,,,,,,,,,,,,,,,,,,,,,,,,,,,
,,,,,,6150b927614a4f154f311f9d,2024-02-08_17h08.41.063,group3.1-3.2-social-tom,2023.2.2,Win32,58.82352941,65c5074098b851296ff0b7ed,65c54148d99af06b3aa5277b,,,,,,,,,,,,,,,,,,,,,,,,,,,,,798.875,2,audio/Narrative6Situation3.wav,803.886,,803.886,816.492,"[[999,11],[999,84],[999,167],[999,250],[999,334],[999,418],[999,501],[999,583],[999,667],[999,750],[999,835],[999,919],[999,1001],[999,1085],[999,1168],[999,1285],[999,1367],[999,1451],[999,1535],[999,1619],[999,1705],[999,1786],[999,1868],[999,1951],[999,2035],[999,2118],[999,2201],[999,2284],[999,2368],[999,2451],[999,2535],[999,2618],[999,2701],[999,2785],[999,2868],[999,2951],[999,3036],[999,3118],[999,3201],[999,3365],[999,3435],[999,3518],[999,3602],[999,3685],[999,3771],[999,3853],[999,3936],[999,4019],[999,4102],[999,4185],[999,4269],[999,4350],[999,4436],[999,4518],[999,4602],[999,4685],[999,4769],[999,4852],[999,4935],[999,5020],[999,5102],[999,5186],[999,5269],[999,5352],[999,5435],[999,5519],[999,5602],[999,5685],[999,5769],[999,5854],[999,5935],[999,6019],[999,6102],[999,6186],[999,6269],[999,6353],[999,6436],[999,6519],[999,6603],[999,6686],[999,6770],[999,6852],[999,6936],[999,7020],[999,7103],[999,7186],[999,7269],[999,7353],[999,7436],[999,7519],[999,7603],[999,7687],[999,7771],[999,7853],[999,7936],[999,8020],[999,8103],[999,8187],[999,8270],[999,8353],[999,8437],[999,8520],[999,8604],[999,8687],[999,8771],[999,8853],[999,8938],[999,9021],[999,9104],[999,9187],[999,9270],[999,9354],[999,9437],[999,9520],[999,9604],[999,9688],[999,9771],[999,9854],[999,9939],[999,10020],[999,10104],[999,10188],[999,10270],[999,10354],[999,10438],[999,10521],[999,10605],[999,10687],[999,10771],[999,10854],[999,10939],[999,11023],[999,11107],[999,11192],[999,11306],[82.3,11393],[79.7,11473],[77.9,11556],[77.8,11637],[77.7,11722],[77.7,11806],[77.6,11889],[77.6,11972],[77.6,12056],[77.6,12138],[77.6,12221],[77.6,12305],[77.6,12388],[77.6,12472],[77.6,12555]]",1,0,816.492,818.476,98.22916667,1.012,"[{""rating"":98.22916666666667,""responseTime"":1.0120000000000573}]",space,1.453,,818.476,Not at all,0,818.483,,,[],,0,3,3,3,1,audio/Narrative7Situation3.wav,audio/Narrative8Situation3.wav,audio/Narrative5Situation3.wav,audio/Narrative6Situation3.wav,8,4,3,5,,,,,,,,,,,,,,,,,,,,,,,,,,,,,,,,,,,,,,,
,,,,,,6150b927614a4f154f311f9d,2024-02-08_17h08.41.063,group3.1-3.2-social-tom,2023.2.2,Win32,58.82352941,65c5074098b851296ff0b7ed,65c54148d99af06b3aa5277b,,,,,,,,,,,,,,,,,,,,,,,,,,,,,818.483,2,audio/Narrative6Situation4.wav,820.493,,820.493,833.116,"[[97.7,2083],[92,2168],[100,2250],[100,2333],[100,2416],[100,2500],[97.4,2583],[75,2668],[70.3,2752],[69,2833],[67.9,2916],[70.2,3002],[75.6,3084],[75.6,3169],[75.6,3256],[75.4,3333],[75.4,3418],[75.4,3500],[75.4,3583],[75.4,3668],[74.5,3752],[73.8,3834],[73.6,3918],[73.6,4002],[73.3,4141],[73.3,4218],[73.3,4300],[73.3,4384],[73.3,4467],[73.3,4550],[75.4,4682],[75.4,4750],[75.4,4834],[75.3,4918],[75.5,5001],[75.7,5083],[75.8,5168],[75.8,5250],[75.8,5334],[75.8,5418],[75.8,5500],[75.8,5586],[75.8,5668],[75.8,5751],[75.8,5833],[75.8,5918],[75.8,6001],[75.8,6086],[75.8,6168],[75.8,6251],[75.8,6336],[75.8,6418],[75.8,6501],[75.8,6584],[75.8,6668],[75.8,6750],[75.8,6834],[75.8,6918],[75.8,7001],[75.8,7084],[75.8,7168],[75.8,7251],[75.8,7337],[75.8,7418],[75.8,7501],[75.8,7586],[75.8,7668],[75.8,7751],[75.8,7836],[75.8,7918],[75.8,8002],[75.8,8086],[75.5,8169],[75.4,8252],[75.4,8336],[75.4,8419],[75.4,8502],[75.4,8586],[75.4,8670],[75.3,8754],[73.5,8837],[68.4,8920],[64,9004],[61.4,9086],[61.1,9169],[61.1,9254],[61.1,9336],[61.1,9418],[61.1,9502],[61.1,9586],[61.1,9669],[59.4,9752],[57.6,9836],[57.4,9919],[57.5,10004],[57.8,10086],[57.8,10170],[58.3,10254],[62.3,10336],[63,10421],[65.6,10505],[66.7,10605],[66.7,10687],[65.8,10771],[62.7,10855],[58.6,10938],[58.1,11022],[52.6,11105],[48.8,11187],[49.4,11272],[50.4,11355],[54,11437],[54.2,11520],[54.2,11605],[54.2,11689],[54.2,11770],[54.2,11855],[54.2,11937],[54.2,12020],[54.2,12107],[54.5,12188],[54.5,12270],[54.5,12353],[54.5,12437],[54.6,12520],[56,12605]]",1,0,833.116,835.032,68.75,0.737,"[{""rating"":68.75,""responseTime"":0.73700000000008}]",space,1.385,,835.032,Partially,50,835.039,,,[],,0,4,4,4,1,audio/Narrative7Situation4.wav,audio/Narrative8Situation4.wav,audio/Narrative5Situation4.wav,audio/Narrative6Situation4.wav,3,3,1,2,,,,,,,,,,,,,,,,,,,,,,,,,,,,,,,,,,,,,,,
,,,,,,6150b927614a4f154f311f9d,2024-02-08_17h08.41.063,group3.1-3.2-social-tom,2023.2.2,Win32,58.82352941,65c5074098b851296ff0b7ed,65c54148d99af06b3aa5277b,,,,,,,,,,,,,,,,,,,,,,,,,,,,,835.039,2,audio/Narrative6Situation5.wav,837.049,,837.049,845.019,"[[999,2],[999,83],[999,166],[999,250],[999,333],[999,416],[999,500],[999,583],[999,667],[999,750],[999,833],[999,918],[999,1001],[999,1088],[999,1172],[999,1250],[999,1334],[999,1417],[999,1500],[999,1584],[999,1667],[999,1751],[999,1833],[999,1917],[999,2001],[999,2084],[999,2170],[999,2250],[999,2334],[999,2418],[999,2501],[999,2584],[999,2667],[999,2751],[999,2834],[999,2918],[999,3001],[999,3085],[999,3201],[999,3283],[999,3371],[999,3522],[999,3603],[999,3685],[999,3768],[999,3852],[999,3937],[999,4018],[999,4100],[999,4184],[999,4269],[999,4350],[999,4435],[999,4519],[999,4605],[999,4685],[65.2,4778],[67.2,4854],[67.3,4937],[75.5,5019],[76.1,5102],[79.3,5185],[80.7,5269],[82.6,5353],[89.6,5437],[100,5519],[100,5603],[100,5685],[100,5772],[100,5854],[100,5937],[100,6019],[100,6103],[100,6186],[100,6269],[100,6352],[100,6435],[100,6518],[100,6602],[100,6686],[100,6769],[100,6852],[100,6936],[100,7018],[100,7102],[100,7186],[100,7269],[100,7353],[100,7436],[100,7519],[100,7603],[100,7686],[100,7769],[100,7853],[100,7936]]",1,0,845.019,847.404,98.85416667,1.462,"[{""rating"":98.85416666666667,""responseTime"":1.461999999999989}]",space,1.836,,847.404,Not at all,0,847.41,,,[],,0,5,5,5,1,audio/Narrative7Situation5.wav,audio/Narrative8Situation5.wav,audio/Narrative5Situation5.wav,audio/Narrative6Situation5.wav,5,2,5,2,,,,,,,,,,,,,,,,,,,,,,,,,,,,,,,,,,,,,,,
,,,,,,6150b927614a4f154f311f9d,2024-02-08_17h08.41.063,group3.1-3.2-social-tom,2023.2.2,Win32,58.82352941,65c5074098b851296ff0b7ed,65c54148d99af06b3aa5277b,,,,,,,,,,,,,,,,,,,,,,,,,,,,,847.411,2,audio/Narrative6Situation6.wav,849.42,,849.42,860.507,"[[98.8,4685],[98,4768],[95.9,4852],[98.8,4935],[53.6,5519],[53.6,5604],[53.3,5685],[53.3,5793],[53.3,5868],[53.3,5951],[53.2,6035],[53.2,6118],[52.8,6203],[51.9,6285],[51.9,6368],[51.9,6452],[51.9,6535],[52.1,6619],[52.2,6701],[52.2,6785],[52.2,6868],[52.2,6951],[51.1,7036],[51,7118],[50.5,7202],[50.1,7286],[50.1,7369],[50.1,7452],[50.1,7535],[50.1,7619],[50.1,7701],[50.1,7785],[50.1,7869],[50.1,7952],[50.1,8035],[50.1,8119],[50.1,8201],[50.1,8286],[50.1,8369],[50.1,8452],[50.1,8536],[50.1,8621],[50.1,8703],[50.1,8785],[50.1,8870],[50.1,8952],[50.1,9036],[50.1,9119],[50.1,9203],[50.1,9285],[50.1,9370],[50.1,9452],[50.1,9537],[50.1,9621],[50.1,9706],[50.1,9786],[50.2,9869],[50.3,9955],[50.3,10036],[50.5,10122],[50.5,10202],[50.5,10286],[50.5,10370],[50.5,10456],[50.5,10539],[50.5,10619],[50.5,10708],[50.5,10819],[50.5,10903],[50.5,10987],[50.5,11070]]",1,0,860.508,862.859,98.54166667,1.211,"[{""rating"":98.54166666666666,""responseTime"":1.2110000000000127}]",space,1.82,,862.859,Definitely yes,100,862.866,,,[],,0,6,6,6,1,audio/Narrative7Situation6.wav,audio/Narrative8Situation6.wav,audio/Narrative5Situation6.wav,audio/Narrative6Situation6.wav,3,2,3,2,,,,,,,,,,,,,,,,,,,,,,,,,,,,,,,,,,,,,,,
,,,,,,6150b927614a4f154f311f9d,2024-02-08_17h08.41.063,group3.1-3.2-social-tom,2023.2.2,Win32,58.82352941,65c5074098b851296ff0b7ed,65c54148d99af06b3aa5277b,,,,,,,,,,,,,,,,,,,,,,,,,,,,,862.866,2,audio/Narrative6Situation7.wav,867.877,,867.877,892.736,"[[999,10],[999,82],[999,165],[999,248],[999,332],[999,415],[999,500],[999,583],[999,668],[999,750],[999,834],[999,918],[999,1000],[999,1083],[999,1166],[999,1250],[999,1332],[999,1418],[999,1500],[999,1584],[999,1666],[999,1750],[999,1833],[999,1918],[999,2000],[999,2083],[999,2166],[999,2250],[999,2367],[999,2450],[999,2534],[999,2617],[999,2700],[999,2784],[999,2867],[999,2950],[999,3034],[999,3117],[999,3200],[999,3285],[999,3418],[999,3500],[999,3586],[999,3668],[999,3750],[999,3835],[999,3918],[999,4000],[999,4088],[999,4168],[999,4251],[999,4341],[999,4418],[999,4501],[999,4584],[999,4668],[999,4752],[999,4833],[999,4918],[999,5000],[999,5084],[999,5168],[999,5250],[999,5334],[999,5418],[999,5501],[999,5584],[999,5668],[999,5751],[999,5835],[999,5918],[999,6002],[999,6086],[999,6168],[999,6251],[999,6334],[999,6418],[999,6501],[999,6585],[999,6668],[999,6751],[999,6835],[999,6919],[999,7001],[999,7085],[999,7168],[999,7251],[999,7360],[999,7435],[999,7519],[999,7602],[999,7684],[999,7769],[999,7852],[999,7935],[999,8019],[999,8103],[999,8187],[999,8269],[999,8358],[999,8435],[999,8519],[999,8603],[999,8686],[999,8769],[999,8852],[999,8935],[999,9019],[999,9103],[999,9186],[999,9269],[999,9352],[999,9435],[999,9519],[999,9602],[999,9685],[999,9769],[999,9853],[999,9936],[999,10019],[999,10103],[999,10185],[999,10269],[999,10352],[999,10436],[999,10520],[999,10603],[999,10686],[999,10769],[999,10853],[999,10935],[999,11020],[999,11103],[999,11187],[999,11269],[999,11354],[999,11436],[999,11520],[999,11603],[999,11686],[999,11770],[999,11854],[999,11936],[999,12019],[999,12104],[999,12186],[999,12270],[999,12370],[999,12454],[999,12538],[999,12620],[999,12704],[999,12787],[999,12870],[999,12955],[999,13039],[999,13121],[999,13204],[999,13290],[999,13370],[999,13454],[999,13537],[999,13621],[999,13705],[999,13791],[999,13873],[999,13958],[999,14038],[999,14127],[999,14204],[999,14288],[999,14375],[999,14455],[999,14538],[999,14621],[999,14705],[999,14787],[999,14871],[999,14954],[999,15037],[999,15121],[999,15204],[999,15288],[999,15371],[999,15455],[999,15537],[999,15621],[999,15705],[999,15788],[999,15871],[999,15955],[999,16038],[999,16121],[999,16204],[999,16288],[999,16371],[999,16455],[999,16539],[999,16622],[999,16706],[999,16790],[999,16873],[999,16956],[999,17039],[999,17123],[79.7,17213],[79.9,17288],[80,17389],[81.5,17472],[81.5,17555],[81.5,17638],[81.5,17722],[81.5,17806],[81.5,17888],[81.8,17974],[81.8,18056],[81.5,18140],[78.8,18226],[76.9,18305],[76.9,18389],[76.9,18471],[76.9,18556],[76.9,18639],[76.9,18723],[76.9,18805],[76.9,18889],[76.9,18973],[76.9,19057],[76.9,19139],[76.9,19224],[76.9,19305],[76.9,19389],[76.9,19474],[76.9,19555],[76.9,19639],[76.9,19723],[76.9,19806],[76.9,19890],[76.9,19974],[76.9,20058],[76.9,20139],[76.9,20223],[76.9,20306],[76.9,20389],[76.9,20474],[76.9,20557],[76.9,20640],[76.9,20723],[76.9,20806],[76.9,20891],[76.9,20973],[76.9,21056],[76.9,21140],[76.9,21224],[76.9,21306],[76.9,21390],[76.9,21473],[76.9,21557],[76.9,21640],[80,21724],[85.7,21809],[87.6,21891],[87.7,21974],[87.7,22057],[87.7,22141],[87.7,22224],[87.7,22307],[88.4,22391],[88.8,22474],[98.3,22558],[98.6,22641],[98.8,22726],[98.9,22807],[98.9,22890],[98.9,22974],[98.9,23058],[98.9,23141],[98.9,23224],[98.9,23307],[98.9,23390],[98.9,23474],[98.9,23557],[98.9,23641],[98.9,23724],[98.9,23808],[98.9,23891],[98.9,23976],[98.9,24058],[98.9,24141],[98.9,24226],[98.9,24307],[98.9,24391],[98.9,24476],[98.9,24559],[98.9,24641],[98.9,24724],[98.9,24808]]",1,0,892.736,894.871,98.02083333,0.996,"[{""rating"":98.02083333333333,""responseTime"":0.9960000000000946}]",space,1.602,,894.871,Definitely yes,100,894.874,,,[],,0,7,7,7,1,audio/Narrative7Situation7.wav,audio/Narrative8Situation7.wav,audio/Narrative5Situation7.wav,audio/Narrative6Situation7.wav,5,3,4,5,,,,,,,,,,,,,,,,,,,,,,,,,,,,,,,,,,,,,,,
,,,,,,6150b927614a4f154f311f9d,2024-02-08_17h08.41.063,group3.1-3.2-social-tom,2023.2.2,Win32,58.82352941,65c5074098b851296ff0b7ed,65c54148d99af06b3aa5277b,,,,,,,,,,,,,,,,,,,,,,,,,,,,,894.874,2,audio/Narrative6Situation8.wav,899.889,,899.889,906.741,"[[999,10],[999,82],[999,166],[999,250],[999,332],[999,417],[999,499],[999,582],[999,667],[999,751],[999,834],[999,918],[999,1000],[999,1087],[999,1166],[999,1250],[999,1334],[999,1417],[999,1500],[999,1585],[999,1671],[999,1750],[999,1834],[999,1917],[999,2000],[999,2085],[999,2171],[999,2251],[999,2334],[999,2417],[999,2500],[999,2584],[999,2668],[999,2750],[999,2835],[999,2917],[999,3004],[999,3084],[999,3168],[999,3250],[999,3334],[999,3418],[999,3500],[999,3584],[999,3668],[999,3751],[999,3835],[999,4000],[999,4067],[999,4153],[999,4234],[999,4317],[999,4406],[999,4485],[999,4567],[999,4650],[999,4735],[999,4817],[999,4902],[999,4985],[999,5067],[999,5154],[999,5235],[999,5317],[999,5436],[999,5519],[999,5601],[999,5685],[999,5768],[999,5850],[999,5935],[999,6018],[999,6101],[999,6185],[999,6269],[999,6351],[999,6436],[999,6518],[999,6602],[999,6685],[999,6769],[999,6851]]",1,0,906.742,909.242,0.416666667,1.816,"[{""rating"":0.4166666666666652,""responseTime"":1.8159999999999172}]",space,1.953,,909.243,Partially,50,909.25,,,[],,0,8,8,8,1,audio/Narrative7Situation8.wav,audio/Narrative8Situation8.wav,audio/Narrative5Situation8.wav,audio/Narrative6Situation8.wav,2,3,3,5,,,,,,,,,,,,,,,,,,,,,,,,,,,,,,,,,,,,,,,
,,,,,,6150b927614a4f154f311f9d,2024-02-08_17h08.41.063,group3.1-3.2-social-tom,2023.2.2,Win32,58.82352941,65c5074098b851296ff0b7ed,65c54148d99af06b3aa5277b,,,,,,,,,,,,,,,,,,,,,,,,,,,,,909.25,2,audio/Narrative6Situation9.wav,913.261,,913.261,923.215,"[[999,11],[999,83],[999,166],[999,249],[999,333],[999,417],[999,499],[999,583],[999,668],[999,750],[999,834],[999,922],[999,1000],[999,1083],[999,1173],[999,1250],[999,1333],[999,1417],[999,1501],[999,1585],[999,1667],[999,1754],[999,1835],[999,1924],[999,2040],[999,2117],[999,2200],[999,2283],[999,2368],[62.5,2454],[56.7,2768],[55.1,2850],[54.6,2935],[54.6,3017],[54.5,3102],[54.4,3184],[54.4,3268],[54.4,3355],[54.4,3435],[54.4,3518],[54.4,3600],[54.4,3684],[54.4,3768],[54.4,3850],[54.4,3934],[54.4,4018],[54.4,4100],[56.1,4184],[62.2,4269],[69.5,4353],[74.5,4437],[74.7,4518],[74.7,4600],[74.7,4685],[74.7,4768],[74.7,4850],[74.7,4934],[74.7,5018],[74.7,5100],[74.7,5185],[74.7,5268],[74.7,5350],[74.7,5434],[74.7,5518],[74.7,5600],[74.7,5685],[74.7,5770],[74.7,5850],[74.7,5935],[74.7,6018],[74.7,6100],[74.7,6185],[74.7,6268],[74.7,6352],[74.7,6435],[74.7,6518],[74.7,6602],[74.7,6686],[74.7,6769],[74.7,6852],[74.7,6935],[74.7,7036],[74.7,7119],[74.7,7201],[72.7,7287],[31.8,7371],[31.4,7454],[32.2,7537],[28,7620],[10.9,7703],[2.2,7787],[0.1,7872]]",1,0,923.215,926.482,0,2.699,"[{""rating"":2.2916666666666643,""responseTime"":0.9329999999999927},{""rating"":0,""responseTime"":2.6989999999999554}]",space,2.718,,926.482,Partially,50,926.486,,,[],,0,9,9,9,1,audio/Narrative7Situation9.wav,audio/Narrative8Situation9.wav,audio/Narrative5Situation9.wav,audio/Narrative6Situation9.wav,2,3,3,4,,,,,,,,,,,,,,,,,,,,,,,,,,,,,,,,,,,,,,,
,,,,,,6150b927614a4f154f311f9d,2024-02-08_17h08.41.063,group3.1-3.2-social-tom,2023.2.2,Win32,58.82352941,65c5074098b851296ff0b7ed,65c54148d99af06b3aa5277b,,,,,,,,,,,,,,,,,,,,,,,,,,,,,926.487,2,audio/Narrative5Situation1.wav,931.501,,931.501,944.772,"[[999,12],[999,83],[999,166],[999,250],[999,333],[999,417],[999,499],[999,581],[999,667],[999,751],[999,836],[999,922],[999,1004],[999,1083],[999,1166],[999,1251],[999,1334],[999,1417],[999,1500],[999,1583],[999,1667],[999,1751],[999,1834],[999,1918],[999,2001],[999,2084],[999,2167],[999,2250],[999,2334],[999,2417],[999,2501],[999,2584],[999,2732],[999,2800],[999,2884],[999,2966],[999,3050],[999,3134],[999,3216],[999,3301],[999,3384],[999,3466],[999,3551],[999,3634],[999,3718],[999,3800],[999,3884],[999,3966],[999,4051],[999,4134],[999,4216],[999,4302],[999,4384],[999,4468],[999,4551],[999,4634],[999,4716],[999,4801],[999,4884],[999,4969],[999,5051],[999,5134],[999,5218],[999,5302],[999,5384],[999,5469],[999,5552],[999,5634],[999,5722],[999,5801],[999,5886],[999,5968],[999,6051],[999,6134],[999,6218],[999,6302],[999,6386],[999,6468],[999,6552],[999,6634],[999,6719],[999,6802],[999,6884],[999,6969],[999,7052],[999,7134],[999,7218],[999,7302],[999,7384],[999,7469],[999,7551],[999,7636],[999,7719],[999,7802],[999,7884],[999,7970],[999,8052],[999,8137],[999,8219],[999,8302],[999,8386],[999,8469],[999,8552],[999,8634],[999,8720],[999,8824],[999,8903],[999,8987],[999,9070],[999,9153],[999,9235],[999,9322],[999,9403],[999,9487],[999,9574],[999,9653],[999,9738],[999,9820],[999,9910],[999,9985],[999,10070],[999,10153],[999,10237],[999,10320],[999,10403],[999,10487],[999,10570],[999,10653],[999,10737],[999,10820],[999,10903],[999,10987],[999,11071],[999,11153],[999,11237],[999,11320],[999,11403],[999,11488],[999,11570],[999,11653],[999,11737],[999,11821],[999,11903],[999,11988],[999,12071],[999,12153],[999,12238],[999,12321],[999,12403],[999,12487],[999,12571],[999,12653],[999,12737],[999,12822],[999,12905],[999,12987],[999,13072],[999,13155],[999,13237]]",1,0,944.773,947.22,41.14583333,1.649,"[{""rating"":41.14583333333333,""responseTime"":1.649000000000001}]",space,1.853,,947.22,Partially,50,947.224,,,[],,0,10,10,10,1,audio/Narrative8Situation1.wav,audio/Narrative7Situation1.wav,audio/Narrative6Situation1.wav,audio/Narrative5Situation1.wav,5,2,2,5,,,,,,,,,,,,,,,,,,,,,,,,,,,,,,,,,,,,,,,
,,,,,,6150b927614a4f154f311f9d,2024-02-08_17h08.41.063,group3.1-3.2-social-tom,2023.2.2,Win32,58.82352941,65c5074098b851296ff0b7ed,65c54148d99af06b3aa5277b,,,,,,,,,,,,,,,,,,,,,,,,,,,,,947.225,2,audio/Narrative5Situation2.wav,950.226,,950.226,979.702,[],1,0,979.702,982.303,98.125,1.594,"[{""rating"":98.125,""responseTime"":1.5939999999999372}]",space,2.069,,982.303,Partially,50,982.307,,,[],,0,11,11,11,1,audio/Narrative8Situation2.wav,audio/Narrative7Situation2.wav,audio/Narrative6Situation2.wav,audio/Narrative5Situation2.wav,3,3,3,3,,,,,,,,,,,,,,,,,,,,,,,,,,,,,,,,,,,,,,,
,,,,,,6150b927614a4f154f311f9d,2024-02-08_17h08.41.063,group3.1-3.2-social-tom,2023.2.2,Win32,58.82352941,65c5074098b851296ff0b7ed,65c54148d99af06b3aa5277b,,,,,,,,,,,,,,,,,,,,,,,,,,,,,982.308,2,audio/Narrative5Situation3.wav,985.32,,985.32,999.225,"[[36.4,2419],[36,2503],[36.1,2586],[34.2,2670],[33.8,2753],[31.4,2836],[28.3,3003],[49.8,3086],[83.6,3172],[86.6,3250],[86.5,3335],[86.5,3419],[86.5,3552],[86.5,3634],[86.5,3725],[86.7,3802],[86.7,3884],[86.7,3969],[88.6,4052],[89.6,4135],[95.1,4220],[97.1,4304],[100,4388],[100,4469],[100,4552],[100,4634],[100,4719],[100,4802],[100,4885],[100,4970],[100,5075],[100,5153],[100,5236],[100,5317],[100,5403],[100,5485],[100,5570],[100,5652],[100,5736],[100,5820],[100,5906],[100,5987],[100,6069],[100,6152],[100,6236],[100,6320],[100,6403],[100,6487],[100,6570],[100,6653],[100,6736],[100,6819],[100,6903],[100,6986],[100,7070],[100,7153],[100,7236],[100,7320],[100,7403],[100,7487],[100,7571],[100,7653],[100,7736],[100,7820],[100,7903],[100,7986],[100,8070],[100,8153],[100,8237],[100,8320],[100,8403],[100,8488],[100,8570],[100,8653],[100,8737],[100,8820],[100,8903],[100,8987],[100,9070],[100,9153],[100,9237],[100,9321],[100,9403],[100,9487],[100,9571],[100,9653],[100,9738],[100,9821],[100,9903],[100,9988],[100,10071],[100,10153],[100,10237],[100,10322],[100,10403],[100,10490],[100,10571],[100,10654],[100,10738],[100,10821],[100,10903],[100,10988],[100,11071],[100,11153],[100,11237],[100,11322],[100,11404],[100,11488],[100,11572],[100,11654],[100,11739],[100,11821],[100,11904],[100,11988],[100,12073],[100,12154],[100,12239],[100,12324],[100,12404],[100,12488],[100,12571],[100,12654],[100,12738],[100,12822],[100,12904],[100,12988],[100,13072],[100,13154],[100,13238],[100,13322],[100,13404],[100,13488],[100,13572],[100,13656],[100,13739],[100,13822],[100,13904]]",1,0,999.226,1001.193,99.375,1.098,"[{""rating"":99.375,""responseTime"":1.0979999999999563}]",space,1.441,,1001.194,Not at all,0,1001.201,,,[],,0,12,12,12,1,audio/Narrative8Situation3.wav,audio/Narrative7Situation3.wav,audio/Narrative6Situation3.wav,audio/Narrative5Situation3.wav,4,8,5,3,,,,,,,,,,,,,,,,,,,,,,,,,,,,,,,,,,,,,,,
,,,,,,6150b927614a4f154f311f9d,2024-02-08_17h08.41.063,group3.1-3.2-social-tom,2023.2.2,Win32,58.82352941,65c5074098b851296ff0b7ed,65c54148d99af06b3aa5277b,,,,,,,,,,,,,,,,,,,,,,,,,,,,,1001.201,2,audio/Narrative5Situation4.wav,1002.211,,1002.211,1022.619,"[[62.1,9924],[71.9,10003],[74,10171],[75,10253],[78.8,10336],[79.4,10419],[79.6,10506],[79.8,10586],[79.8,10670],[79,10753],[78.1,10836],[77.4,10920],[75.4,11003],[74.9,11087],[74.9,11169],[74.9,11252],[74.9,11336],[74.9,11422],[74.9,11503],[74.9,11586],[74.9,11670],[75.4,11753],[75.8,11836],[75.8,11920],[75.8,12002],[75.8,12086],[75.8,12170],[75.8,12253],[75.5,12337],[74.8,12422],[74,12503],[74,12586],[74,12670],[74,12755],[74,12836],[74,12922],[74,13003],[74,13086],[74,13170],[74,13253],[74,13337],[74,13420],[74,13503],[74,13586],[74,13672],[74,13753],[74,13837],[74,13921],[74,14003],[74,14087],[74,14170],[74,14255],[74,14337],[74,14421],[74,14505],[74,14587],[74,14671],[74,14753],[74,14837],[74,14921],[74,15006],[74,15086],[74.2,15172],[74.3,15255],[74.1,15338],[74.1,15422],[74.3,15506],[74.8,15587],[74.8,15671],[74.8,15755],[74.8,15837],[74.8,15921],[74.8,16006],[74.8,16087],[74.8,16171],[74.8,16255],[74.8,16337],[74.8,16421],[74.8,16506],[74.8,16587],[74.8,16672],[74.8,16755],[74.8,16838],[74.8,16922],[74.8,17005],[74.8,17088],[74.8,17173],[74.8,17256],[74.8,17338],[74.8,17422],[74.8,17505],[74.8,17587],[74.8,17672],[74.8,17755],[74.8,17837],[74.8,17922],[74.8,18006],[74.8,18088],[74.8,18173],[74.8,18271],[74.8,18355],[74.8,18440],[74.8,18521],[74.8,18605],[74.8,18689],[74.8,18771],[74.8,18855],[74.8,18940],[74.8,19021],[74.8,19105],[74.8,19189],[74.8,19272],[74.8,19356],[74.8,19440],[74.8,19522],[74.8,19606],[74.8,19690],[74.8,19774],[74.8,19856],[74.8,19940],[74.8,20024],[74.8,20105],[74.8,20190],[74.8,20272],[74.8,20355]]",1,0,1022.619,1025.368,92.29166667,1.331,"[{""rating"":92.29166666666666,""responseTime"":1.3309999999999036}]",space,2.223,,1025.369,Not at all,0,1025.372,,,[],,0,13,13,13,1,audio/Narrative8Situation4.wav,audio/Narrative7Situation4.wav,audio/Narrative6Situation4.wav,audio/Narrative5Situation4.wav,3,3,2,1,,,,,,,,,,,,,,,,,,,,,,,,,,,,,,,,,,,,,,,
,,,,,,6150b927614a4f154f311f9d,2024-02-08_17h08.41.063,group3.1-3.2-social-tom,2023.2.2,Win32,58.82352941,65c5074098b851296ff0b7ed,65c54148d99af06b3aa5277b,,,,,,,,,,,,,,,,,,,,,,,,,,,,,1025.373,2,audio/Narrative5Situation5.wav,1030.387,,1030.388,1045.809,"[[999,13],[999,115],[999,200],[999,283],[999,367],[999,449],[999,533],[999,617],[999,700],[70.5,784],[70.7,868],[70.7,951],[70.7,1034],[71.7,1117],[71.7,1201],[71.7,1283],[71.6,1367],[71.6,1450],[71.8,1533],[71.8,1625],[73,1700],[73.4,1786],[73.5,1869],[73.6,1951],[73.6,2034],[73.6,2117],[73.6,2200],[73.6,2284],[73.6,2367],[73.6,2450],[73.6,2534],[72.9,2619],[70,2701],[64,2784],[57.1,2868],[55.4,2951],[52.1,3035],[48.4,3118],[48.1,3204],[48,3286],[48,3368],[48.1,3451],[48.6,3535],[49,3617],[49.2,3701],[49.3,3784],[49.4,3870],[49.5,3951],[49.6,4035],[49.6,4118],[49.6,4201],[49.6,4284],[49.6,4368],[49.6,4523],[49.6,4585],[49.6,4669],[49.6,4751],[49.6,4835],[49.7,4918],[49.8,5001],[49.8,5084],[49.8,5168],[49.8,5251],[49.8,5334],[49.8,5417],[48,5502],[35.1,5585],[29.6,5669],[18.4,5752],[2.7,6336],[2.8,6419],[2.8,6502],[1,6586],[0.3,6669]]",1,0,1045.81,1048.444,0.104166667,1.919,"[{""rating"":0.1041666666666663,""responseTime"":1.9190000000000964}]",space,2.102,,1048.444,Partially,50,1048.451,,,[],,0,14,14,14,1,audio/Narrative8Situation5.wav,audio/Narrative7Situation5.wav,audio/Narrative6Situation5.wav,audio/Narrative5Situation5.wav,2,5,2,5,,,,,,,,,,,,,,,,,,,,,,,,,,,,,,,,,,,,,,,
,,,,,,6150b927614a4f154f311f9d,2024-02-08_17h08.41.063,group3.1-3.2-social-tom,2023.2.2,Win32,58.82352941,65c5074098b851296ff0b7ed,65c54148d99af06b3aa5277b,,,,,,,,,,,,,,,,,,,,,,,,,,,,,1048.451,2,audio/Narrative5Situation6.wav,1051.462,,1051.462,1057.148,"[[999,0],[999,83],[999,165],[999,249],[999,333],[999,415],[999,499],[999,583],[999,665],[999,750],[999,833],[999,916],[999,1000],[999,1083],[999,1166],[999,1250],[999,1333],[999,1416],[999,1500],[999,1583],[999,1669],[999,1750],[999,1834],[999,1916],[999,2000],[999,2085],[999,2166],[999,2250],[999,2334],[999,2418],[999,2500],[999,2584],[999,2668],[999,2750],[999,2834],[999,2918],[999,3000],[999,3085],[999,3172],[999,3305],[999,3384],[999,3468],[999,3550],[999,3634],[999,3717],[999,3802],[999,3884],[999,3969],[999,4050],[999,4134],[999,4218],[999,4300],[999,4384],[999,4468],[999,4550],[999,4634],[999,4718],[999,4815],[999,4884],[999,4978],[999,5052],[999,5135],[999,5220],[48.9,5302],[60.8,5387],[67.2,5470],[66.6,5553],[60.8,5634]]",1,0,1057.148,1059.498,49.58333333,1.299,"[{""rating"":46.5625,""responseTime"":0.8960000000001855},{""rating"":49.583333333333336,""responseTime"":1.2990000000002055}]",space,1.83,,1059.499,Definitely yes,100,1059.505,,,[],,0,15,15,15,1,audio/Narrative8Situation6.wav,audio/Narrative7Situation6.wav,audio/Narrative6Situation6.wav,audio/Narrative5Situation6.wav,2,3,2,3,,,,,,,,,,,,,,,,,,,,,,,,,,,,,,,,,,,,,,,
,,,,,,6150b927614a4f154f311f9d,2024-02-08_17h08.41.063,group3.1-3.2-social-tom,2023.2.2,Win32,58.82352941,65c5074098b851296ff0b7ed,65c54148d99af06b3aa5277b,,,,,,,,,,,,,,,,,,,,,,,,,,,,,1059.506,2,audio/Narrative5Situation7.wav,1063.516,,1063.516,1084.559,"[[48.2,20625],[48.2,20708],[48.2,20790],[48.2,20875],[48.2,20957],[49.1,21041]]",1,0,1084.559,1085.975,50.3125,0.693,"[{""rating"":50.31250000000001,""responseTime"":0.6929999999999836}]",space,0.871,,1085.975,Definitely yes,100,1085.979,,,[],,0,16,16,16,1,audio/Narrative8Situation7.wav,audio/Narrative7Situation7.wav,audio/Narrative6Situation7.wav,audio/Narrative5Situation7.wav,3,5,5,4,,,,,,,,,,,,,,,,,,,,,,,,,,,,,,,,,,,,,,,
,,,,,,6150b927614a4f154f311f9d,2024-02-08_17h08.41.063,group3.1-3.2-social-tom,2023.2.2,Win32,58.82352941,65c5074098b851296ff0b7ed,65c54148d99af06b3aa5277b,,,,,,,,,,,,,,,,,,,,,,,,,,,,,1085.979,2,audio/Narrative5Situation8.wav,1088.992,,1088.992,1097.846,"[[51,2134],[48.4,2219],[46.4,2306],[39.9,2385],[27.9,2469],[21.5,2552],[17.5,2635],[16.7,2719],[18.1,2802],[22.4,2886],[25.5,2970],[25.5,3052],[25.5,3135],[25.5,3219],[25.5,3302],[25.5,3385],[25.5,3519],[25.5,3602],[25.5,3686],[25.5,3769],[25.5,3852],[25.5,3934],[25.5,4019],[25.5,4104],[25.5,4187],[25.5,4269],[25.5,4352],[25.5,4434],[25.5,4518],[25.5,4602],[25.3,4688],[25.2,4769],[25.2,4853],[25.2,4936],[25.2,5019],[25.2,5104],[25.2,5187],[25.2,5269],[25.2,5352],[25.2,5436],[25.2,5519],[25.2,5603],[25.2,5686],[25.2,5769],[25.2,5852],[25.2,5936],[25.2,6019],[25.2,6103],[25.2,6186],[25.2,6269],[25.2,6352],[25.2,6436],[25.2,6520],[25.2,6602],[25.2,6701],[25.2,6786],[25.2,6870],[25.2,6951],[25.2,7036],[25.2,7120],[25.2,7202],[25.2,7286],[25.2,7370],[25.2,7452],[25.2,7536],[25.2,7620],[25.2,7702],[20.6,7792],[11.1,7871],[6.7,7953],[4.2,8039]]",1,0,1097.846,1099.381,0.520833333,0.543,"[{""rating"":0.5208333333333315,""responseTime"":0.54300000000012}]",space,1.005,,1099.381,Definitely yes,100,1099.385,,,[],,0,17,17,17,1,audio/Narrative8Situation8.wav,audio/Narrative7Situation8.wav,audio/Narrative6Situation8.wav,audio/Narrative5Situation8.wav,3,2,5,3,,,,,,,,,,,,,,,,,,,,,,,,,,,,,,,,,,,,,,,
,,,,,,6150b927614a4f154f311f9d,2024-02-08_17h08.41.063,group3.1-3.2-social-tom,2023.2.2,Win32,58.82352941,65c5074098b851296ff0b7ed,65c54148d99af06b3aa5277b,,,,,,,,,,,,,,,,,,,,,,,,,,,,,1099.386,2,audio/Narrative5Situation9.wav,1102.398,,1102.398,1141.929,"[[999,12],[999,83],[999,165],[999,249],[999,333],[999,416],[999,499],[999,583],[999,666],[999,750],[999,834],[999,921],[999,1000],[999,1090],[999,1167],[999,1250],[999,1333],[999,1417],[999,1500],[999,1584],[999,1667],[999,1754],[999,1833],[999,1920],[999,2001],[999,2084],[999,2166],[999,2251],[999,2333],[999,2416],[999,2500],[999,2583],[999,2667],[999,2751],[999,2834],[999,2917],[999,3004],[999,3138],[999,3227],[999,3340],[999,3417],[999,3501],[999,3584],[999,3668],[999,3751],[999,3834],[999,3918],[999,4000],[999,4084],[999,4167],[999,4251],[999,4334],[999,4418],[999,4501],[999,4584],[999,4668],[999,4751],[999,4835],[999,4917],[999,5002],[999,5085],[999,5168],[999,5251],[999,5335],[999,5418],[999,5501],[999,5585],[999,5668],[999,5751],[999,5835],[999,5918],[999,6001],[999,6085],[999,6168],[999,6254],[999,6334],[999,6418],[999,6502],[999,6585],[999,6668],[999,6752],[999,6835],[999,6918],[999,7002],[999,7085],[999,7169],[999,7252],[999,7335],[999,7419],[999,7503],[999,7585],[999,7669],[999,7754],[74.2,7836],[84.1,7920],[84.6,8003],[93.9,8088],[99.8,8168],[99.9,8253],[99.9,8337],[99.9,8420],[100,8503],[100,8586],[100,8669],[100,8753],[100,8836],[100,8919],[100,9002],[100,9085],[100,9169],[99.1,9253],[99.1,9336],[98.1,9421],[87.4,9504],[56.5,9923],[68.6,10005],[70.6,10087],[72.6,10170],[72.6,10253],[74.4,10338],[75.6,10420],[76.7,10504],[76.8,10586],[76.8,10670],[76.8,10754],[76.4,10836],[76.4,10921],[75.7,11005],[74.8,11087],[73.9,11171],[72.8,11256],[71,11337],[70.9,11420],[69.8,11504],[69.7,11587],[69.6,11670],[69.5,11754],[69.2,11837],[68.9,11921],[68.5,12004],[68.3,12087],[68.2,12170],[68.1,12254],[68.1,12337],[67.4,12422],[66,12506],[65,12589],[64.8,12671],[64.7,12755],[64,12839],[63.9,12921],[63.4,13004],[61.7,13088],[61.5,13171],[62.5,13278],[64.9,13357],[71.8,13522],[73.9,13689],[74.9,13771],[74.5,13855],[74.5,13937],[74.5,14021],[74.5,14105],[74.5,14188],[74.5,14271],[75,14355],[75,14438],[75,14523],[75,14605],[75,14688],[74.8,14771],[74.7,14855],[72.9,14939],[72.9,15023],[72.9,15105],[72.9,15189],[73,15273],[73,15355],[73,15439],[72.9,15522],[72.7,15605],[72.4,15690],[72.1,15773],[72.1,15855],[72.1,15939],[72.1,16022],[72.4,16105],[72.8,16190],[73.1,16272],[73.2,16355],[73.2,16440],[73.2,16523],[72.7,16605],[72.3,16689],[72.2,16773],[72.2,16855],[72.2,16939],[72.2,17023],[72.2,17105],[72.2,17189],[72.2,17274],[72.2,17357],[72.2,17441],[72.2,17522],[72.2,17605],[72.2,17689],[72.2,17774],[72.1,17855],[72.1,17939],[72.1,18022],[72.1,18105],[72.1,18189],[72.1,18274],[72.1,18355],[72.1,18440],[72.1,18524],[72.1,18608],[72.1,18691],[72.5,18774],[75.6,18857],[76,18941],[76.1,19024],[75.8,19112],[75.7,19189],[75.7,19273],[75.7,19357],[75.7,19440],[75.7,19523],[76,19608],[76,19690],[76,19774],[76,19855],[76,19942],[76,20023],[76,20105],[76,20191],[76,20273],[76,20357],[76,20440],[76,20525],[76,20607],[76,20690],[76,20773],[76,20857],[76,20941],[76,21024],[76,21105],[76,21191],[76,21274],[76,21357],[76,21440],[76,21525],[76,21607],[76,21690],[76,21774],[76,21857],[76,21940],[76,22023],[76,22107],[76,22191],[76,22275],[76,22358],[76,22442],[76,22525],[76,22607],[76,22691],[76,22775],[76.1,22858],[76.1,22941],[76.1,23025],[76.1,23108],[76.1,23191],[76.1,23296],[76.1,23375],[76.1,23458],[76.1,23542],[76.1,23624],[76.1,23708],[76.1,23791],[76.1,23875],[76.1,23958],[76.1,24042],[76.1,24125],[76.1,24208],[76.1,24293],[76.1,24375],[76.1,24459],[76.1,24542],[76.1,24625],[76.1,24708],[76.1,24792],[76.1,24874],[76.1,24958],[76.1,25042],[76.1,25125],[76.1,25209],[76.1,25292],[76.1,25375],[76.1,25459],[76.1,25543],[76.1,25625],[76.1,25709],[76.1,25791],[76.1,25876],[76.3,25958],[76.3,26043],[76.3,26126],[76.3,26210],[76.3,26293],[76.3,26375],[76.3,26459],[76.3,26542],[76.3,26629],[76.3,26709],[76.3,26793],[76.8,26876],[76.8,26959],[76.9,27043],[76.9,27125],[76.9,27210],[76.9,27293],[76.9,27376],[76.9,27460],[76.9,27544],[76.9,27626],[76.9,27710],[76.9,27793],[76.8,27876],[76.8,27960],[76.8,28043],[76.8,28126],[76.8,28209],[76.8,28315],[76.8,28394],[76.8,28476],[76.8,28559],[76.8,28644],[76.8,28727],[76.8,28809],[76.8,28893],[76.8,28976],[76.8,29060],[76.8,29144],[76.8,29227],[76.8,29310],[76.8,29394],[76.8,29477],[76.8,29560],[76.8,29644],[76.8,29726],[76.8,29810],[76.8,29894],[76.8,29977],[76.8,30060],[76.8,30144],[76.8,30227],[76.8,30310],[76.8,30393],[76.8,30478],[76.8,30560],[76.8,30644],[76.8,30728],[76.8,30810],[76.8,30895],[76.8,30978],[76.8,31061],[76.8,31143],[76.8,31228],[76.8,31310],[76.8,31394],[76.8,31479],[76.8,31561],[76.8,31645],[76.8,31728],[76.8,31811],[76.8,31895],[76.8,31978],[76.8,32061],[76.8,32144],[76.8,32228],[76.8,32311],[76.8,32397],[76.8,32478],[76.8,32561],[76.8,32646],[76.8,32728],[76.8,32812],[76.8,32895],[76.8,32978],[76.8,33062],[76.8,33145],[76.8,33228],[76.8,33332],[76.8,33412],[76.8,33496],[76.8,33578],[76.8,33661],[76.8,33745],[76.8,33829],[76.8,33913],[76.8,33995],[76.8,34079],[76.5,34162],[76.1,34245],[76.1,34329],[76.1,34411],[76.1,34495],[76.1,34579],[76.1,34662],[76.1,34745],[76.1,34829],[76.1,34913],[76.1,34996],[76.1,35079],[76.1,35162],[76.1,35246],[76.1,35329],[76.1,35413],[76.1,35495],[76.1,35580],[76.1,35662],[76.1,35747],[76.1,35830],[76.1,35914],[76.1,35996],[76.1,36079],[76.1,36163],[76.1,36246],[76.1,36332],[76.1,36413],[76.1,36496],[76.3,36580],[76.4,36664],[76.4,36747],[76.4,36830],[76.4,36913],[76.4,36997],[76.4,37080],[76.4,37162],[76.4,37246],[76.4,37330],[76.4,37413],[76.4,37496],[76.4,37580],[76.4,37664],[76.4,37747],[76.4,37830],[76.5,37914],[76.6,37997],[76.6,38080],[76.7,38164],[76.7,38247],[76.8,38347],[76.9,38432],[77,38513],[77.1,38598],[77.2,38680],[77.2,38764],[77.2,38847],[77.2,38932],[77.2,39014],[77.2,39097],[77.2,39180],[77.2,39264],[77.2,39347],[77.2,39431],[77.2,39514]]",1,0,1141.93,1144.448,77.1875,0.862,"[{""rating"":77.1875,""responseTime"":0.8619999999998527}]",space,1.994,,1144.448,Not at all,0,1150.033,0,3.614,"[{""rating"":0,""responseTime"":3.6140000000000327}]",space,0,18,18,18,1,audio/Narrative8Situation9.wav,audio/Narrative7Situation9.wav,audio/Narrative6Situation9.wav,audio/Narrative5Situation9.wav,3,2,4,3,,,5.041,,,,,,,,,,,,,,,,,,,,,,,,,,,,,,,,,,,,
,,,,,,6150b927614a4f154f311f9d,2024-02-08_17h08.41.063,group3.1-3.2-social-tom,2023.2.2,Win32,58.82352941,65c5074098b851296ff0b7ed,65c54148d99af06b3aa5277b,,,,,,,,,,,,,,,,,,,,,,,,,,,,,,,,,,,,,,,,,,,,,,,,,,,,,,,,,,,,,,,,,,,,,,,,1150.033,1151.699,space,1.138,,1151.699,1156.752,space,4.726,,,,,,,,,,,,,,,,,,,,,,,,,,
,,,,,,6150b927614a4f154f311f9d,2024-02-08_17h08.41.063,group3.1-3.2-social-tom,2023.2.2,Win32,58.82352941,65c5074098b851296ff0b7ed,65c54148d99af06b3aa5277b,,,,,,,,,,,,,,,,,,,,,,,,,,,,,1159.369,1,audio/Narrative7Situation9.wav,1161.369,,,,,,,1193.238,1195.499,68.33333333,1.254,"[{""rating"":68.33333333333333,""responseTime"":1.2539999999999054}]",space,1.719,,1193.233,Partially,50,1193.238,,,[],,,,,,,,,,,2,2,2,2,,,,,,,,,,,,,,,1156.766,1159.336,1161.371,3,1193.233,"[[3.6,3035],[7,3117],[7,3199],[7,3282],[7,3370],[7,3449],[7,3532],[58.8,4282],[59.2,4399],[51.5,4482],[51.6,4567],[52.6,5067],[52,5150],[52,5233],[52.4,5317],[52.4,5400],[52.4,5483],[52.1,5568],[49.9,5653],[49.6,5732],[49.6,5818],[49.8,5901],[49.8,5982],[49.8,6067],[49.8,6149],[49.8,6233],[49.8,6317],[49.8,6400],[49.8,6483],[49.8,6567],[49.8,6649],[49.8,6736],[49.8,6817],[49.8,6900],[49.9,6984],[49.9,7067],[49.9,7151],[49.9,7233],[49.9,7317],[49.9,7400],[49.9,7484],[49.9,7567],[49.9,7650],[50,7733],[50.1,7817],[50.4,7901],[50.7,7984],[50.7,8068],[50.7,8153],[50.7,8234],[50.5,8318],[39.1,8403],[25.8,8485],[23.2,8567],[23.2,8650],[23.2,8736],[16.6,8818],[10.7,8901],[8,8987],[5.3,9068],[1.7,9153],[0.9,9234],[0.6,9319],[0.3,9419],[0.3,9501],[0.3,9584],[0.3,9669],[0.3,9750],[0.3,9836],[0.3,9918],[0.5,10003],[0.5,10084],[0.5,10168],[0.5,10251],[0.5,10336],[0.6,10419],[0.6,10501],[0.6,10584],[0.6,10668],[0.6,10751],[0.6,10836],[0.8,10919],[1,11001],[1,11086],[1.1,11168],[1.3,11252],[1.4,11336],[1.4,11418],[1.5,11502],[1.5,11586],[1.5,11669],[1.6,11752],[1.6,11836],[1.6,11918],[1.7,12002],[1.6,12086],[1.5,12168],[1.5,12251],[1.5,12336],[1.4,12420],[1.4,12502],[1.3,12586],[1,12668],[1,12752],[1.1,12836],[1.1,12919],[1,13003],[1,13086],[1,13169],[0.6,13252],[0.2,13336],[0.6,13419],[0.6,13502],[0.6,13586],[0.8,13672],[0.5,13752],[0.4,13836],[0.2,13920],[0.2,14002],[0.2,14086],[0.2,14169],[0.2,14253],[0.1,14336],[0.3,14420],[0.3,14502],[0.3,14586],[0.3,14669],[0.5,14754],[3.8,26524],[12.5,26607],[22.7,26692],[30.4,26775],[33.3,26858],[45.9,26942],[48.2,27023],[48.3,27107],[52.2,27192],[52.2,27273],[51.4,27358],[51.3,27442],[51.3,27524],[51.3,27608],[51.3,27692],[51.3,27774],[51.3,27858],[51.3,27942],[51.3,28024],[51.3,28107],[51.3,28192],[51.3,28274],[51.3,28357],[51.3,28442],[51.3,28524],[51.3,28608],[51.3,28692],[51.3,28775],[51.3,28858],[51.3,28942],[51.3,29024],[51.3,29107],[51.3,29192],[51.3,29274],[51.3,29358],[51.3,29458],[51.3,29541],[51.3,29625],[51.3,29708],[51.3,29793],[51.3,29875],[51.3,29958],[51.3,30042],[51.3,30125],[51.3,30208],[51.1,30291],[51.1,30375],[51.7,30458],[51.7,30543],[57.4,30626],[69.7,30709],[70.4,30793],[70.4,30875],[70.4,30958],[70.9,31043],[71.4,31125],[71.4,31209],[73.2,31293],[73.5,31375],[73.5,31458],[73.5,31542],[73.5,31626],[73.5,31709],[73.5,31793]]",0,0,0,0,1,"Larry had recently lost his family, job and home, and was now living on his own in the park. He had most of his belongings, including some clothes, a blanket, and his mother’s special necklace. His family had been very important to him and he felt as though he did not have much going for him. One of his first days in the park he came across a family that did not have much food and looked very cold. He decided to give them some of his food and his blanket.","Larry had recently lost his family, job and home, and was now living on his own in the park. He had most of his belongings, including some clothes, a blanket, and his mother’s special necklace. His family had been very important to him and he felt as though he did not have much going for him. One of his first days in the park he came across a family that did not have much food and looked very cold. He decided to give them some of his food and his blanket.","Larry had recently lost his family, job and home, and was now living on his own in the park. He had most of his belongings, including some clothes, a blanket, and his mother’s special necklace. His family had been very important to him and he felt as though he did not have much going for him. One of his first days in the park he came across a family that did not have much food and looked very cold. He decided to give them some of his food and his blanket.","Larry had recently lost his family, job and home, and was now living on his own in the park. He had most of his belongings, including some clothes, a blanket, and his mother’s special necklace. His family had been very important to him and he felt as though he did not have much going for him. One of his first days in the park he came across a family that did not have much food and looked very cold. He decided to give them some of his food and his blanket.",,,,,,,,,,
,,,,,,6150b927614a4f154f311f9d,2024-02-08_17h08.41.063,group3.1-3.2-social-tom,2023.2.2,Win32,58.82352941,65c5074098b851296ff0b7ed,65c54148d99af06b3aa5277b,,,,,,,,,,,,,,,,,,,,,,,,,,,,,1195.5,1,audio/Narrative7Situation9.wav,1197.216,space,,,,,,1221.096,1222.975,0.833333333,0.44,"[{""rating"":0.8333333333333359,""responseTime"":0.44000000000005457}]",space,1.335,,1221.075,Partially,50,1221.096,,,[],,,,,,,,,,,6,2,3,9,1.686,,,,,,,,,,,,,,,,1197.217,3,1221.075,"[[999,1],[999,81],[999,165],[999,247],[999,331],[999,415],[999,499],[999,581],[999,665],[999,750],[999,832],[999,915],[999,1000],[61.6,1084],[60,1166],[60,1250],[60,1331],[60,1416],[57.4,1500],[57.7,1583],[57.7,1667],[57.7,1750],[57.5,1833],[56.9,1916],[54.8,2000],[53,2083],[52.1,2167],[51.9,2250],[51.8,2332],[51.9,2415],[51.9,2500],[51.9,2582],[51.9,2666],[51.9,2750],[51.7,2834],[41.9,2917],[31.7,3000],[28.9,3084],[13.8,3166],[8.9,3250],[1.5,5351],[5.9,5434],[7.2,5516],[6.7,5601],[1.4,5684],[1.7,6269],[2.1,6350],[2.1,6433],[2.1,6516],[2.1,6601],[1.3,6685],[0.4,6769],[0.1,9101],[0.6,9185],[0.6,9269],[0.6,9351],[0.7,9436],[0.7,9519],[0.7,9601],[0.7,9684],[0.6,9769],[0.7,9852],[1.1,9936],[2.2,10019],[2.3,10101],[2.1,10186],[1.9,10269],[1.9,10352],[1.9,10435],[1.8,10519],[1.8,10602],[1.8,10684],[1.8,10769],[1.8,10852],[1.8,10935],[1.8,11019],[1.8,11101],[1.8,11186],[1.8,11269],[1.8,11352],[1.8,11435],[1.8,11519],[1.8,11602],[1.8,11686],[1.8,11769],[1.8,11852],[1.8,11935],[1.8,12019],[1.8,12102],[1.8,12186],[1.6,12270],[1.6,12352],[1.6,12436],[1.6,12519],[1.6,12603],[1.6,12686],[1.6,12769],[1.6,12853],[1.5,12936],[1.5,13019],[1.5,13102],[1.5,13186],[1.5,13269],[1.5,13353],[1.5,13436],[1.5,13519],[1.5,13619],[1.5,13702],[1.5,13788],[1.5,13870],[1.5,13953],[1.5,14036],[1.5,14120],[1.5,14203],[1.5,14286],[1.5,14369],[1.5,14453],[1.5,14538],[1.5,14621],[1.5,14704],[1.5,14788],[1.5,14870],[1.5,14954],[1.5,15036],[1.5,15120],[1.5,15204],[1.5,15288],[1.5,15370],[1.5,15454],[1.5,15538],[1.5,15620],[1.5,15703],[1.5,15788],[1.5,15871],[1.5,15954],[1.5,16038],[0.5,16122],[0.3,16203],[0.3,16288],[0.3,16371],[0.3,16454],[0.3,16538],[0.3,16621],[0.3,16705],[0.3,16788],[0.3,16871],[0.3,16954],[0.3,17038],[0.3,17120],[0.3,17204],[0.5,17289],[0.8,17371],[0.8,17454],[0.8,17538],[0.8,17621],[0.8,17704],[0.8,17788],[0.8,17871],[0.8,17954],[0.8,18038],[0.8,18120],[0.8,18205],[0.8,18288],[0.8,18371],[0.8,18455],[0.8,18538],[0.8,18621],[0.8,18704],[0.8,18788],[0.8,18872],[0.8,18955],[0.8,19038],[0.8,19121],[0.8,19205],[0.8,19288],[0.8,19371],[0.8,19455],[0.8,19539],[0.8,19622],[0.8,19705],[0.8,19789],[0.8,19872],[0.8,19955],[0.8,20040],[0.8,20122],[0.8,20207],[0.8,20289],[0.8,20372],[0.8,20455],[0.8,20538],[0.8,20622],[0.8,20705],[0.8,20789],[0.8,20872],[0.8,20956],[0.8,21039],[0.8,21124],[0.8,21206],[0.8,21291],[0.8,21374],[0.8,21456],[0.8,21539],[0.8,21622],[0.8,21706],[0.8,21790],[0.8,21872],[0.8,21956],[0.8,22039],[0.8,22122],[0.8,22209],[0.8,22290],[0.8,22372],[0.8,22456],[0.8,22539],[0.8,22624],[0.8,22707],[0.8,22790],[0.8,22874],[0.8,22956],[0.8,23039],[0.8,23124],[0.8,23207],[0.8,23289],[0.8,23374],[0.8,23456],[0.8,23540],[0.8,23640],[0.8,23723],[0.8,23807]]",0,1,1,1,1,"It was just another Sunday afternoon for Lucy, she was on her way to the farmer's market to pick up some produce. When she arrived at the old train depot that housed the market, she noticed two men fighting on the steps. Before she could call for help, one of the men crumpled to his knees. The other man dropped an object that appeared to be a knife and ran off. When Lucy approached the crime scene she realized that the man who had been murdered was the Mayor and that he had a gunshot wound.","One day at work, Margaret walked up to her partner, Al, to ask him to talk to the chief of staff at the local hospital where she worked as a nurse.","Luke always thought of himself as an honest man. That's why during his evening jog around the swamp, he pondered his recent affair with the receptionist at work. Luke looked up at the sky and asked God why he was so weak and unfaithful. He thought of the impact this would have on his family and told God of his conflicted feelings toward telling his wife Marta.","Linda and Amy had been best friends since kindergarten, they even found homes on the same street in the forest on the edge of town. Their biggest fight had been over who gets the bigger slice of cake, until Amy married Dan. Linda loathed Dan, she thought he was manipulative and had a violent temper. She only put up with him because Amy loved him. ",,,,,,,,,,
,,,,,,6150b927614a4f154f311f9d,2024-02-08_17h08.41.063,group3.1-3.2-social-tom,2023.2.2,Win32,58.82352941,65c5074098b851296ff0b7ed,65c54148d99af06b3aa5277b,,,,,,,,,,,,,,,,,,,,,,,,,,,,,1222.976,1,audio/Narrative7Situation9.wav,1227.977,,,,,,,1254.184,1256.071,78.54166667,0.448,"[{""rating"":78.54166666666667,""responseTime"":0.44800000000009277}]",space,1.357,,1254.171,Partially,50,1254.184,,,[],,,,,,,,,,,4,5,2,2,,,,,,,,,,,,,,,,,1227.978,3,1254.17,"[[35.9,331],[35.9,415],[35.8,500],[35.7,581],[35.9,666],[48.1,750],[50.1,831],[49.9,915],[50,1000],[51.1,1084],[52,1165],[52.4,1250],[56.5,1334],[56.7,1416],[56.3,1499],[56.3,1582],[57,1666],[56.8,1750],[56.3,1834],[52.9,1916],[52.7,2002],[52,2084],[51.8,2165],[51.8,2250],[51.8,2332],[51.8,2416],[51.8,2500],[51.8,2584],[51.8,2666],[51.1,2750],[50.9,2855],[50.8,2933],[50.4,3018],[32.6,3100],[6,3183],[0.7,4600],[2.1,4684],[7.6,4769],[13.6,4851],[14.5,4933],[14.5,5017],[14.8,5101],[16.9,5185],[17,5267],[17,5350],[17,5433],[17,5518],[17,5600],[9.6,5684],[2.5,5769],[0.7,5850],[0.7,5934],[0.4,6019],[0.5,6185],[1.5,6268],[1.5,6350],[1.5,6434],[1.6,6519],[1.6,6601],[1.6,6685],[1.6,6769],[1.6,6851],[1.6,6934],[1.6,7019],[1.6,7100],[1.6,7184],[1.6,7269],[1.5,7352],[1.4,7434],[1.3,7519],[1,7601],[1,7684],[1,7769],[0.8,7869],[0.8,7951],[0.8,8036],[0.9,8118],[0.9,8201],[0.9,8284],[0.9,8368],[0.9,8452],[0.9,8536],[0.9,8617],[0.9,8701],[0.9,8786],[0.9,8868],[0.9,8952],[0.9,9034],[0.9,9118],[0.8,9202],[0.7,9286],[2.5,9369],[25.2,9453],[46.3,9538],[50.8,9618],[50.7,9702],[50.7,9786],[50.7,9870],[50.6,9952],[50.4,10037],[50.2,10118],[50.2,10202],[49.7,10287],[49.7,10368],[49.7,10452],[49.6,10537],[49.5,10620],[49.4,10702],[49.4,10786],[49.4,10869],[49.4,10952],[49.4,11037],[49.4,11119],[49.4,11202],[49.4,11287],[49.4,11370],[49.4,11452],[49.4,11537],[49.4,11619],[49.4,11703],[49.4,11786],[49.4,11869],[49.4,11953],[49.4,12037],[49.4,12119],[49.4,12203],[49.4,12287],[49.4,12369],[49.4,12452],[49.4,12538],[49.4,12620],[49.4,12703],[49.4,12787],[49.5,12887],[49.5,12971],[49.5,13053],[49.5,13137],[49.6,13221],[49.6,13306],[49.9,13388],[49.9,13471],[49.9,13553],[50,13637],[50,13721],[50,13803],[50,13886],[50,13971],[50,14053],[50,14137],[50,14221],[50,14303],[50,14387],[50,14471],[49.9,14555],[49.8,14637],[49.8,14721],[49.8,14805],[49.8,14887],[49.8,14971],[49.8,15055],[59,15138],[75.1,15222],[78.4,15303],[78.4,15387],[78.4,15471],[78.4,15555],[78.2,15638],[78.2,15721],[78.2,15803],[78.2,15888],[78.2,15971],[78.2,16055],[78.2,16138],[78.2,16221],[78.2,16305],[78.2,16388],[78.2,16471],[78.2,16556],[78.2,16638],[78.2,16721],[78.3,16806],[78.5,16887],[78.5,16971],[78.5,17055],[78.5,17138],[78,17223],[77.2,17307],[75.8,17389],[75.3,17471],[75.3,17555],[75.3,17638],[75.3,17721],[75.3,17806],[75.3,17907],[75.3,17989],[75.3,18071],[75.3,18155],[75.3,18239],[75.3,18321],[74.6,18406],[74.3,18490],[74.3,18572],[74.3,18655],[74.3,18740],[74.4,18821],[74.4,18905],[74.4,18990],[74.4,19072],[74.5,19156],[74.5,19240],[74.5,19322],[74.5,19405],[74.5,19489],[74.5,19572],[74.6,19656],[74.9,19740],[74.9,19822],[74.9,19906],[74.9,19989],[75,20073],[75,20155],[75,20240],[75.1,20323],[75.1,20406],[75.1,20490],[75.1,20573],[75.1,20656],[75.1,20740],[75.1,20823],[75.1,20906],[75.1,20990],[75.1,21072],[75.1,21157],[75.1,21240],[75.1,21323],[75.1,21405],[76,21491],[76.4,21573],[76.8,21657],[78,21740],[78.1,21823],[78.3,21906],[78.3,21990],[78.4,22075],[78.4,22156],[78.4,22240],[78.4,22323],[78.4,22406],[78.4,22490],[78.4,22573],[78.4,22657],[78.4,22740],[78.4,22823],[78.4,22923],[78.4,23008],[78.4,23089],[78.4,23174],[78.4,23258],[78.4,23340],[78.4,23423],[78.4,23507],[78.4,23591],[78.4,23674],[78.4,23758],[78.4,23840],[78.4,23924],[78.4,24008],[78.4,24091],[78.4,24173],[78.4,24259],[78.4,24341],[78.4,24424],[78.4,24508],[78.4,24590],[78.4,24674],[78.4,24758],[78.4,24840],[78.4,24924],[78.4,25008],[78.4,25090],[78.4,25174],[78.4,25258],[78.4,25341],[78.4,25424],[78.4,25509],[78.4,25591],[78.4,25674],[78.4,25759],[78.4,25841],[78.4,25924],[78.4,26009],[78.4,26091],[78.4,26174]]",0,2,2,2,1,On the ground beside him was a pen that she had mistaken for a knife. Lucy looked for the gunman and saw a suspicious man in black with distinct pointy features darting into an alley across the street. Cops who were nearby chased the man who had fled and arrested him.,"While waiting outside the chief of staff's office, Al heard nondescript shouting and yelling, there was a loud clatter in the room and then an eerie silence. An unfamiliar employee ran hastily out of the office with a terrified look on their face.","Suddenly, Luke heard a woman call out his name and when he turned around he saw Carly, his receptionist, across the road with a gun in her hand. Carly ran to him and explained how she had followed him here to confess her love. She exclaimed if Luke didn't love her back that she would kill him and his family. Carly explained that the only way they could be together is to kill Marta.","This feeling of hate between Amy and Dan was mutual, Dan didn't like how much time his wife spent with her and thought Amy was creating distance between their marriage. That's why Dan decided to try and tarnish Linda's reputation with his wife, in hopes it would get rid of her. He came home one afternoon and exclaimed that Linda had tried to kiss him. Amy was taken aback and immediately called Linda to confront her about these accusations. When Linda arrived she denied having made a move on Dan, but discovered Dan had enlisted the help of his friend Will who said he witnessed it all happen.",,,,,,,,,,
