exp_question,consent.started,consent.stopped,consentResponse.keys,consentResponse.rt,consentResponse.duration,participantID,date,expName,psychopyVersion,OS,frameRate,STUDY_ID,SESSION_ID,opening1.started,opening1.stopped,keyEndingOpening1.keys,keyEndingOpening1.rt,keyEndingOpening1.duration,volumeAdjust.started,volumeAdjust.stopped,endingAdjust.keys,endingAdjust.rt,endingAdjust.duration,opening2.started,opening2.stopped,keyEndingOpening.keys,keyEndingOpening.rt,keyEndingOpening.duration,mouse.x,mouse.y,mouse.leftButton,mouse.midButton,mouse.rightButton,mouse.time,instructionLoop.thisRepN,instructionLoop.thisTrialN,instructionLoop.thisN,instructionLoop.thisIndex,instructionLoop.ran,readyForAudio.started,readyForAudio.stopped,fixation.started,run,audio_played,fixation.stopped,endPractice.keys,audioPre.started,audioPre.stopped,continuousResponses_audio,continuousSlider.response,continuousSlider.rt,intRating.started,intRating.stopped,intQuestionSlider.response,intQuestionSlider.rt,intQuestionSlider.history,confirmResponse.keys,confirmResponse.rt,confirmResponse.duration,catchQuestion.started,catch_label,catch_value,catchQuestion.stopped,catchQuestionSlider.response,catchQuestionSlider.rt,catchQuestionSlider.history,confirmResponse_2.keys,audioRunLoop.thisRepN,audioRunLoop.thisTrialN,audioRunLoop.thisN,audioRunLoop.thisIndex,audioRunLoop.ran,conditions1_1,conditions2_1,conditions1_2,conditions2_2,dur1_1,dur2_1,dur1_2,dur2_2,endPractice.rt,endPractice.duration,confirmResponse_2.rt,confirmResponse_2.duration,runIntervalBreak.started,runIntervalBreak.stopped,endingBreakKey.keys,endingBreakKey.rt,endingBreakKey.duration,connection.started,connection.stopped,connectionEnding.keys,connectionEnding.rt,connectionEnding.duration,readyForText.started,readyForText.stopped,textPre.started,run_dup,textPre.stopped,continuousResponses_text,textRunLoop.thisRepN,textRunLoop.thisTrialN,textRunLoop.thisN,textRunLoop.thisIndex,textRunLoop.ran,text1_1,text1_2,text2_1,text2_2,runBreakText.started,runBreakText.stopped,endingBreakKey_2.keys,ending.started,ending.stopped,endingEnding.keys,endingEnding.rt,endingEnding.duration
social,0.0003,66.4272,y,66.1164,,615dbec57d764bf5ab0a56e5,2024-05-13_11h33.43.823,group3.1-3.2-social-tom,2023.2.2,Linux x86_64,59.52380952,65c5074098b851296ff0b7ed,664231b2216872e5e067c325,,,,,,,,,,,,,,,,,,,,,,,,,,,,,,,,,,,,,,,,,,,,,,,,,,,,,,,,,,,,,,,,,,,,,,,,,,,,,,,,,,,,,,,,,,,,,,,,,,,,,,,,
,,,,,,615dbec57d764bf5ab0a56e5,2024-05-13_11h33.43.823,group3.1-3.2-social-tom,2023.2.2,Linux x86_64,59.52380952,65c5074098b851296ff0b7ed,664231b2216872e5e067c325,66.4275,76.987,space,10.5196,,,,,,,,,,,,,,,,,,,,,,,,,,,,,,,,,,,,,,,,,,,,,,,,,,,,,,,,,,,,,,,,,,,,,,,,,,,,,,,,,,,,,,,,,,,,,,,,,,,,
,,,,,,615dbec57d764bf5ab0a56e5,2024-05-13_11h33.43.823,group3.1-3.2-social-tom,2023.2.2,Linux x86_64,59.52380952,65c5074098b851296ff0b7ed,664231b2216872e5e067c325,,,,,,76.9871,120.9686,space,43.6582,,,,,,,,,,,,,,,,,,,,,,,,,,,,,,,,,,,,,,,,,,,,,,,,,,,,,,,,,,,,,,,,,,,,,,,,,,,,,,,,,,,,,,,,,,,,,,,
,,,,,,615dbec57d764bf5ab0a56e5,2024-05-13_11h33.43.823,group3.1-3.2-social-tom,2023.2.2,Linux x86_64,59.52380952,65c5074098b851296ff0b7ed,664231b2216872e5e067c325,,,,,,,,,,,120.9894,135.2188,space,14.2032,,[],[],[],[],[],[],0,0,0,0,1,,,,,,,,,,,,,,,,,,,,,,,,,,,,,,,,,,,,,,,,,,,,,,,,,,,,,,,,,,,,,,,,,,,,,,,,,,,,,,
,,,,,,615dbec57d764bf5ab0a56e5,2024-05-13_11h33.43.823,group3.1-3.2-social-tom,2023.2.2,Linux x86_64,59.52380952,65c5074098b851296ff0b7ed,664231b2216872e5e067c325,,,,,,,,,,,135.2297,169.6323,space,34.3198,,[],[],[],[],[],[],1,0,1,0,1,,,,,,,,,,,,,,,,,,,,,,,,,,,,,,,,,,,,,,,,,,,,,,,,,,,,,,,,,,,,,,,,,,,,,,,,,,,,,,
,,,,,,615dbec57d764bf5ab0a56e5,2024-05-13_11h33.43.823,group3.1-3.2-social-tom,2023.2.2,Linux x86_64,59.52380952,65c5074098b851296ff0b7ed,664231b2216872e5e067c325,,,,,,,,,,,169.644,202.2045,space,32.5081,,"[0.47611202635914335,0.42485818124485175,-0.2897675046548943,0.42778693025809994,0.629873695771554]","[-0.09114587306976318,-0.13541674613952637,-0.7734375,-0.7630208730697632,-0.33072924613952637]","[1,1,1,1,1]","[0,0,0,0,0]","[0,0,0,0,0]","[2.4974999999999454,5.613099999904591,7.57479999995229,9.737699999809251,11.447199999809243]",2,0,2,0,1,,,,,,,,,,,,,,,,,,,,,,,,,,,,,,,,,,,,,,,,,,,,,,,,,,,,,,,,,,,,,,,,,,,,,,,,,,,,,,
,,,,,,615dbec57d764bf5ab0a56e5,2024-05-13_11h33.43.823,group3.1-3.2-social-tom,2023.2.2,Linux x86_64,59.52380952,65c5074098b851296ff0b7ed,664231b2216872e5e067c325,,,,,,,,,,,202.2164,247.2821,space,45.0366,,[],[],[],[],[],[],3,0,3,0,1,,,,,,,,,,,,,,,,,,,,,,,,,,,,,,,,,,,,,,,,,,,,,,,,,,,,,,,,,,,,,,,,,,,,,,,,,,,,,,
,,,,,,615dbec57d764bf5ab0a56e5,2024-05-13_11h33.43.823,group3.1-3.2-social-tom,2023.2.2,Linux x86_64,59.52380952,65c5074098b851296ff0b7ed,664231b2216872e5e067c325,,,,,,,,,,,247.2947,260.8258,space,13.5057,,[],[],[],[],[],[],4,0,4,0,1,,,,,,,,,,,,,,,,,,,,,,,,,,,,,,,,,,,,,,,,,,,,,,,,,,,,,,,,,,,,,,,,,,,,,,,,,,,,,,
,,,,,,615dbec57d764bf5ab0a56e5,2024-05-13_11h33.43.823,group3.1-3.2-social-tom,2023.2.2,Linux x86_64,59.52380952,65c5074098b851296ff0b7ed,664231b2216872e5e067c325,,,,,,,,,,,,,,,,,,,,,,,,,,,260.8435,263.425,263.4577,1,audio/Narrative13Situation2.wav,265.4712,,265.4718,295.2275,"[[100,4458],[100,4542],[100,4623],[100,4707],[100,4791],[61.3,7140],[61.3,7222],[61.3,7306],[61.4,7389],[61.4,7474],[63.6,7558],[63.8,7641],[63.8,7724],[65.7,7809],[65.7,7892],[65.7,7976],[65.7,8060],[65.7,8144],[65.7,8227],[65.7,8311],[65.7,8395],[66.6,8480],[67,8564],[67,8647],[67.2,8730],[67.2,8815],[67.2,8898],[67.2,8982],[67.2,9066],[67.2,9150],[67.2,9233],[67.2,9317],[67.2,9401],[67.2,9485],[67.2,9569],[67.2,9653],[67.2,9737],[67.2,9820],[67.2,9904],[67.2,9989],[67.2,10072],[67.2,10155],[67.2,10239],[67.2,10324],[67.2,10407],[67.2,10491],[67.2,10575],[67.2,10659],[67.2,10743],[67.2,10826],[67.2,10910],[69.3,10995],[69.3,11081],[69.3,11161],[69.3,11245],[68.8,11331],[68.3,11412],[68,11497],[68,11581],[68,11664],[68,11747],[67.7,11833],[67,11916],[67,11999],[65.8,12084],[65.8,12168],[65.8,12250],[65.7,12335],[65.7,12419],[65.7,12503],[65.7,12586],[65.7,12670],[65.7,12754],[65.7,12838],[65.2,12922],[64.7,13005],[64.7,13088],[64.7,13173],[64.7,13257],[62.6,13341],[62.6,13424],[62.6,13508],[62.6,13592],[62.6,13675],[62.6,13759],[62,13846],[61,13927],[61,14011],[61,14095],[60.7,14179],[60.6,14263],[60.6,14346],[60.6,14430],[60.6,14514],[60.6,14598],[60.6,14681],[60.6,14766],[60.6,14849],[60.6,14933],[60.6,15017],[60.6,15101],[60.6,15185],[60.6,15268],[60.6,15352],[60.6,15436],[60.6,15520],[60.1,15604],[60.1,15688],[60.1,15771],[60.1,15855],[60.1,15939],[58.4,16024],[58.4,16110],[58.4,16190],[58.4,16274],[58.4,16359],[58.4,16442],[58.4,16526],[58.2,16609],[58.1,16693],[58.1,16777],[58.1,16861],[58.1,16945],[58.1,17028],[58.1,17113],[57.9,17197],[57.8,17282],[57.8,17364],[57.8,17447],[57.6,17532],[57,17620],[56.6,17699],[56.6,17783],[56.6,17867],[56.6,17950],[56.6,18034],[56.6,18118],[56.6,18202],[56.6,18286],[56.6,18370],[56.6,18454],[56.6,18538],[56.6,18621],[56.6,18705],[56.6,18789],[56.6,18872],[56.6,18956],[56.6,19041],[56.6,19124],[56.6,19208],[56.6,19292],[57.5,19376],[57.8,19460],[57.9,19544],[58.1,19627],[58.1,19711],[58.1,19795],[58.1,19879],[58.1,19962],[58.2,20046],[57.6,20129],[57.6,20214],[53.7,20299],[53.7,20381],[53.7,20466],[53.7,20549],[53.7,20632],[53.7,20717],[54,20800],[54.7,20884],[54.7,20968],[55,21051],[56.9,21136],[57.9,21221],[58.1,21303],[58.1,21387],[58.1,21471],[58.1,21554],[58.1,21639],[58.1,21722],[58.1,21806],[59.8,21890],[59.8,21974],[60.6,22058],[61.1,22142],[61.4,22225],[61.4,22309],[62.3,22393],[62.3,22476],[62.3,22560],[62.3,22644],[62.3,22729],[62.3,22812],[62.3,22896],[62.3,22980],[62.3,23063],[62.3,23147],[62.3,23231],[62.3,23316],[62.3,23399],[62.3,23483],[62.3,23567],[62.3,23650],[62.3,23734],[62.3,23818],[62.3,23902],[62.3,23986],[54.9,24071],[54.9,24153],[54.9,24237],[54.9,24321],[56.8,24406],[56.9,24492],[56.9,24572],[56.9,24656],[56.9,24740],[59.7,24824],[59.7,24907],[59.7,24991],[59.7,25075],[59.7,25159],[59.7,25243],[59.7,25327],[59.7,25411],[59.7,25494],[59.7,25578],[59.7,25662],[59.7,25745],[59.7,25830],[59.7,25913],[59.7,25997],[59.7,26081],[59.7,26165],[59.7,26248],[59.7,26332],[59.7,26417],[59.7,26501],[59.7,26584],[59.7,26668],[59.7,26752],[59.7,26835],[59.7,26920],[60.4,27005],[60.4,27087],[60.4,27171],[60.4,27255],[62.3,27338],[62.3,27422],[62.3,27506],[62.3,27590],[62.5,27674],[62.5,27758],[62.5,27841],[62.6,27927],[62.6,28009],[62.6,28092],[62.9,28177],[62.9,28263],[64.4,28345],[64.4,28428],[65.2,28512],[65.7,28595],[65.7,28679],[65.7,28763],[65.7,28847],[65.7,28930],[65.7,29014],[65.7,29099],[65.7,29182],[65.7,29265],[66,29350],[66,29434],[66,29518],[66,29601],[66,29685]]",1,0,295.2287,307.4477,29.18036844,8.4903,"[{""rating"":29.180368440719285,""responseTime"":8.490299999952299}]",space,11.6717,0.0003,307.4493,Definitely yes,100,307.4546,,,[],,0,0,0,0,1,audio/Narrative13Situation2.wav,audio/Narrative13Situation2.wav,audio/Narrative13Situation2.wav,audio/Narrative13Situation2.wav,2,2,2,2,,,,,,,,,,,,,,,,,,,,,,,,,,,,,,,,,,,,,
,,,,,,615dbec57d764bf5ab0a56e5,2024-05-13_11h33.43.823,group3.1-3.2-social-tom,2023.2.2,Linux x86_64,59.52380952,65c5074098b851296ff0b7ed,664231b2216872e5e067c325,,,,,,,,,,,,,,,,,,,,,,,,,,,,,307.4549,1,audio/Narrative8Situation1.wav,312.1233,space,312.1236,328.0493,"[[33,2010],[33,2094],[33,2177],[33,2262],[33,2345],[33,2429],[33,2513],[33,2597],[33,2680],[33,2764],[55.6,3521],[55.9,3603],[55.9,3686],[55.9,3770],[55.9,3855],[55.9,3938],[55.9,4022],[55.9,4105],[55.9,4189],[55.9,4272],[55.9,4357],[55.9,4441],[55.9,4524],[55.9,4608],[55.9,4692],[55.9,4776],[55.9,4860],[55.9,4944],[55.9,5028],[55.9,5111],[55.9,5195],[55.9,5279],[55.9,5363],[55.9,5447],[55.9,5530],[55.9,5613],[55.9,5697],[55.9,5782],[55.9,5865],[55.9,5949],[55.9,6032],[55.9,6117],[55.9,6200],[55.9,6284],[55.9,6368],[56,6452],[56,6537],[56,6620],[56,6705],[56,6787],[56,6871],[60.3,6955],[60.3,7039],[60.3,7123],[60.3,7207],[62.8,7290],[62.8,7374],[62.8,7458],[62.8,7542],[62.8,7626],[62.8,7710],[62.8,7793],[62.8,7877],[62.8,7961],[62.8,8045],[62.8,8128],[62.8,8212],[62.8,8296],[62.8,8380],[62.8,8464],[62.8,8548],[62.8,8632],[62.8,8716],[62.8,8799],[62.8,8883],[62.8,8967],[62.8,9051],[62.8,9134],[62.8,9218],[63.6,9302],[63.6,9385],[63.6,9470],[63.6,9554],[63.3,9637],[63.3,9720],[63.3,9805],[63.3,9888],[63.3,9972],[63.3,10057],[63.3,10140],[63.8,10224],[63.8,10307],[63.8,10391],[66.3,10476],[66.6,10565],[66.6,10644],[66.6,10727],[66.6,10810],[67,10894],[67,10979],[67,11062],[67,11145],[67,11230],[67,11314],[67,11398],[67.3,11481],[67.3,11565],[67.3,11648],[70.2,11732],[70.4,11816],[70.4,11900],[70.4,11984],[70.4,12069],[70.4,12151],[70.4,12236],[70.4,12319],[70.4,12403],[72.3,12488],[72.3,12571],[72.3,12655],[72.3,12738],[73,12822],[73,12906],[73,12989],[73,13074],[73,13157],[73,13241],[73,13325],[73,13408],[73,13492],[73,13576],[73,13661],[73.3,13744],[73.3,13828],[73.3,13912],[73.3,13996],[73.3,14080],[73.3,14163],[78.6,14248],[78.6,14331],[78.6,14414],[79,14499],[79,14583],[79,14666],[79,14751],[79,14834],[79,14918],[79,15002],[79,15086],[79,15169],[79,15253],[79,15337],[79,15421],[79,15505],[79,15588],[79,15672],[78.9,15757],[78.9,15839],[78.9,15924]]",1,0,328.0498,337.0335,78.64979655,5.7367,"[{""rating"":78.64979654956015,""responseTime"":5.736700000047676}]",space,8.4542,0.0001,337.0337,Definitely yes,100,337.0397,,,[],,0,1,1,1,1,audio/Narrative7Situation1.wav,audio/Narrative8Situation1.wav,audio/Narrative5Situation1.wav,audio/Narrative6Situation1.wav,2,5,5,2,4.649,,,,,,,,,,,,,,,,,,,,,,,,,,,,,,,,,,,,
,,,,,,615dbec57d764bf5ab0a56e5,2024-05-13_11h33.43.823,group3.1-3.2-social-tom,2023.2.2,Linux x86_64,59.52380952,65c5074098b851296ff0b7ed,664231b2216872e5e067c325,,,,,,,,,,,,,,,,,,,,,,,,,,,,,337.0399,1,audio/Narrative8Situation2.wav,340.0507,,340.0513,350.1592,"[[999,12],[999,82],[999,167],[999,250],[999,334],[999,418],[999,502],[999,585],[999,669],[999,753],[999,837],[999,921],[999,1007],[999,1089],[999,1172],[999,1256],[999,1340],[999,1424],[999,1508],[999,1592],[999,1675],[999,1761],[999,1842],[999,1926],[999,2011],[999,2094],[999,2178],[999,2262],[999,2346],[999,2430],[999,2513],[999,2597],[999,2681],[999,2765],[59.5,2849],[59.5,2932],[59.5,3016],[59.5,3100],[59.5,3185],[59.7,3267],[59.7,3351],[59.7,3435],[59.7,3519],[59.7,3603],[60,3688],[61.6,3775],[61.6,3855],[61.6,3938],[61.6,4022],[63.3,4107],[63.6,4189],[63.6,4273],[63.6,4357],[63.6,4441],[63.6,4525],[63.6,4608],[63.6,4693],[63.6,4777],[64.8,4861],[68.3,4955],[68.3,5028],[68.5,5111],[68.5,5195],[68.5,5279],[68.5,5363],[68.5,5446],[68.5,5530],[68.5,5615],[68.5,5698],[68.5,5783],[68.5,5866],[68.5,5949],[68.5,6033],[68.5,6117],[68.5,6201],[68.5,6285],[68.5,6369],[68.5,6453],[68.5,6537],[68.5,6620],[68.5,6704],[68.5,6788],[68.5,6872],[68.5,6956],[68.5,7039],[70.2,7123],[70.2,7206],[70.2,7291],[70.2,7374],[70.2,7459],[70.2,7542],[75.8,7626],[75.8,7710],[75.8,7794],[75.8,7878],[75.8,7961],[75.5,8047],[75.5,8132],[75.5,8213],[75.5,8296],[75.5,8382],[75.5,8464],[75.5,8548],[74.6,8632],[74.3,8717],[75.1,8800],[75.4,8883],[76.4,8967],[76.4,9051],[77.4,9134],[78.1,9219],[78.1,9302],[78.4,9386],[78.4,9470],[78.4,9556],[78.4,9638],[78.4,9722],[79,9806],[79.7,9889],[79.7,9973],[79.7,10057]]",1,0,350.1599,355.1218,82.01606865,2.8849,"[{""rating"":82.01606864603377,""responseTime"":2.8849000000953993}]",space,4.4309,0,355.1223,Definitely yes,100,355.1279,,,[],,0,2,2,2,1,audio/Narrative7Situation2.wav,audio/Narrative8Situation2.wav,audio/Narrative5Situation2.wav,audio/Narrative6Situation2.wav,3,3,3,3,,,,,,,,,,,,,,,,,,,,,,,,,,,,,,,,,,,,,
,,,,,,615dbec57d764bf5ab0a56e5,2024-05-13_11h33.43.823,group3.1-3.2-social-tom,2023.2.2,Linux x86_64,59.52380952,65c5074098b851296ff0b7ed,664231b2216872e5e067c325,,,,,,,,,,,,,,,,,,,,,,,,,,,,,355.1281,1,audio/Narrative8Situation3.wav,359.1439,,359.1445,381.5244,"[[66.1,1089],[65.7,1173],[65.7,1256],[64.8,1341],[64.8,1424],[65.2,1507],[65.7,1591],[65.7,1676],[66.4,1759],[68.5,1843],[68.8,1927],[68.8,2011],[68.8,2095],[68.8,2179],[68.8,2263],[68.8,2346],[68.8,2431],[68.8,2514],[68.8,2598],[68.8,2682],[68.8,2765],[68.8,2849],[68.8,2933],[68.8,3017],[68.8,3100],[68.8,3184],[72.3,3269],[72.9,3358],[73.3,3437],[73.7,3519],[74.5,3604],[75.1,3692],[75.1,3771],[75.1,3855],[75.1,3939],[75.1,4023],[75.1,4106],[75.1,4190],[75.1,4274],[75.1,4358],[75.1,4442],[75.1,4526],[75.1,4609],[75.1,4693],[75.1,4777],[75.1,4860],[75.1,4944],[75.1,5028],[75.1,5112],[75.1,5196],[75.1,5280],[75.1,5364],[75.1,5448],[75.1,5531],[75.1,5615],[75.1,5699],[75.4,5784],[75.8,5870],[76.4,5952],[76.4,6035],[76.5,6118],[76.7,6204],[76.8,6285],[77.1,6372],[77.1,6453],[77.3,6538],[77.7,6622],[77.7,6704],[77.7,6789],[77.7,6872],[77.7,6956],[77.7,7040],[78,7124],[78,7209],[78,7291],[78,7375],[78.1,7460],[78.4,7544],[78.7,7627],[78.7,7711],[78.7,7794],[78.7,7879],[79,7962],[79.5,8048],[80.3,8130],[80.3,8213],[83.8,8298],[83.8,8382],[83.8,8465],[83.8,8549],[83.8,8633],[83.8,8716],[84.3,8801],[84.3,8884],[84.3,8968],[84.3,9051],[84.3,9135],[84.3,9219],[84.3,9303],[84.3,9387],[84.3,9471],[84.3,9554],[84.3,9639],[84.6,9724],[85.6,9810],[85.6,9889],[85.6,9974],[85.6,10057],[87.7,10141],[87.7,10225],[87.7,10308],[87.7,10393],[87.7,10476],[87.7,10561],[87.7,10644],[87.7,10728],[87.7,10812],[87.7,10896],[87.7,10979],[87.7,11063],[87.7,11147],[87.7,11231],[88.2,11314],[88.2,11399],[88.2,11483],[88.2,11566],[88.2,11650],[88.2,11733],[88.2,11817],[88.2,11901],[88.2,11985],[87.8,12069],[87.8,12153],[87.7,12238],[87.7,12321],[87.7,12404],[87.7,12488],[87.7,12572],[87.7,12655],[87.4,12740],[86.9,12823],[86.9,12910],[86.9,12991],[86.9,13074],[86.9,13159],[86.9,13243],[86.9,13326],[86.9,13410],[86.9,13494],[86.9,13578],[86.9,13662],[86.9,13745],[86.2,13830],[86.2,13915],[86.2,13997],[81.8,14080],[81.8,14165],[81.8,14248],[81.8,14332],[81.8,14416],[81.8,14500],[81.8,14584],[81.8,14667],[81.8,14751],[81.8,14835],[81.8,14919],[81.8,15003],[81.8,15087],[81.8,15170],[81.8,15254],[81.8,15338],[81.8,15422],[81.8,15506],[81.8,15589],[81.8,15673],[81.8,15757],[81.8,15841],[81.8,15925],[81.9,16008],[82.5,16093],[82.5,16176],[82.5,16260],[82.5,16344],[82.5,16428],[82.5,16512],[82.5,16595],[83.4,16679],[83.4,16763],[83.4,16847],[91.5,16935],[91.6,17014],[91.6,17098],[91.6,17182],[91.6,17266],[91.6,17349],[91.6,17433],[91.6,17517],[91.6,17601],[91.6,17686],[91.6,17769],[91.6,17853],[91.6,17937],[91.6,18021],[91.6,18104],[91.6,18188],[91.6,18272],[91.6,18356],[91.6,18439],[91.6,18525],[91.6,18607],[91.6,18690],[91.6,18775],[91.6,18858],[91.6,18942],[91.6,19026],[91.6,19109],[91.6,19194],[91.6,19277],[91.6,19361],[91.6,19445],[91.6,19529],[91.6,19612],[91.6,19697],[91.6,19780],[91.6,19864],[91.6,19948],[91.6,20032],[91.6,20116],[91.6,20199],[91.6,20283],[91.6,20367],[91.6,20450],[91.6,20535],[88.8,20618],[88.8,20702],[88.8,20786],[88.8,20870],[88.8,20953],[88.8,21038],[88.8,21121],[88.8,21205],[88.8,21289],[88.8,21373],[88.8,21457],[88.8,21541],[88.8,21624],[88.8,21708],[88.8,21792],[88.8,21876],[88.8,21959],[88.8,22044],[88.8,22127],[88.8,22211],[88.8,22295],[88.8,22379]]",1,0,381.5249,385.582,88.74858604,2.3407,"[{""rating"":88.74858603979865,""responseTime"":2.3406999998092033}]",space,3.5251,,385.5825,Partially,50,385.5893,,,[],,0,3,3,3,1,audio/Narrative7Situation3.wav,audio/Narrative8Situation3.wav,audio/Narrative5Situation3.wav,audio/Narrative6Situation3.wav,8,4,3,5,,,,,,,,,,,,,,,,,,,,,,,,,,,,,,,,,,,,,
,,,,,,615dbec57d764bf5ab0a56e5,2024-05-13_11h33.43.823,group3.1-3.2-social-tom,2023.2.2,Linux x86_64,59.52380952,65c5074098b851296ff0b7ed,664231b2216872e5e067c325,,,,,,,,,,,,,,,,,,,,,,,,,,,,,385.5896,1,audio/Narrative8Situation4.wav,388.598,,388.5982,402.7666,"[[999,11],[999,85],[999,167],[999,251],[999,334],[999,419],[999,502],[999,586],[999,669],[999,754],[999,837],[999,921],[999,1004],[999,1089],[999,1173],[999,1257],[999,1340],[999,1424],[999,1508],[999,1592],[999,1676],[999,1759],[999,1843],[999,1927],[999,2011],[999,2095],[999,2178],[999,2262],[999,2346],[999,2430],[999,2514],[999,2598],[999,2681],[999,2766],[999,2849],[999,2933],[999,3017],[999,3100],[999,3184],[999,3268],[74,3360],[74,3437],[74,3521],[74,3605],[74,3688],[74,3772],[63.1,3855],[63.1,3939],[63.1,4022],[63.1,4106],[63.1,4190],[63.1,4274],[58.1,4358],[58.1,4441],[58.1,4525],[58.1,4610],[58.1,4694],[58.1,4777],[58.1,4861],[58.1,4945],[58.1,5028],[58.1,5112],[58.1,5212],[58.1,5297],[58.1,5380],[58.1,5463],[58.1,5548],[58.1,5632],[58.1,5716],[58.1,5799],[58.1,5883],[58.1,5967],[58.1,6051],[58.1,6134],[58.1,6218],[58.1,6302],[58.1,6386],[58.1,6470],[58.1,6554],[58.1,6638],[58.1,6721],[58.1,6805],[58.1,6889],[58.1,6973],[58.2,7057],[58.2,7141],[58.2,7224],[58.2,7308],[61,7393],[61.1,7479],[61.1,7559],[61.1,7643],[61.1,7727],[61.7,7810],[61.7,7895],[61.7,7979],[61.7,8063],[61.7,8146],[61.7,8233],[61.7,8314],[61.7,8398],[62,8483],[62,8568],[62,8650],[64.7,8733],[64.7,8817],[64.7,8900],[64.7,8985],[64.7,9068],[64.7,9151],[64.7,9236],[64.7,9320],[64.7,9404],[64.7,9487],[64.7,9571],[64.7,9655],[64.7,9739],[65.4,9823],[66.6,9906],[66.6,9992],[66.6,10074],[67.9,10160],[67.9,10249],[67.9,10326],[67.9,10410],[67.9,10494],[67.9,10577],[67.9,10661],[67.9,10745],[67.9,10828],[67.9,10913],[67.9,10996],[67.9,11080],[67.9,11164],[67.9,11247],[69.2,11332],[69.2,11415],[69.2,11499],[69.2,11583],[71.8,11669],[73.7,11752],[73.7,11834],[73.7,11918],[73.7,12002],[73.9,12086],[73.9,12169],[73.9,12254],[73.9,12337],[73.9,12421],[73.9,12505],[73.9,12589],[73.9,12672],[73.9,12756],[73.9,12840],[73.9,12924],[73.9,13007],[73.9,13092],[73.9,13175],[73.9,13259],[73.9,13343],[73.9,13427],[73.9,13511],[73.9,13595],[73.9,13678],[73.9,13762],[73.9,13847],[73.9,13929],[73.9,14014],[74.8,14099]]",1,0,402.7668,407.894,79.38160182,3.5105,"[{""rating"":79.38160182249328,""responseTime"":3.510499999999979}]",space,4.5834,,407.8944,Definitely yes,100,407.9013,,,[],,0,4,4,4,1,audio/Narrative7Situation4.wav,audio/Narrative8Situation4.wav,audio/Narrative5Situation4.wav,audio/Narrative6Situation4.wav,3,3,1,2,,,,,,,,,,,,,,,,,,,,,,,,,,,,,,,,,,,,,
,,,,,,615dbec57d764bf5ab0a56e5,2024-05-13_11h33.43.823,group3.1-3.2-social-tom,2023.2.2,Linux x86_64,59.52380952,65c5074098b851296ff0b7ed,664231b2216872e5e067c325,,,,,,,,,,,,,,,,,,,,,,,,,,,,,407.9015,1,audio/Narrative8Situation5.wav,409.9053,,409.9055,418.1529,"[[999,1],[999,83],[999,167],[999,250],[999,334],[999,418],[999,502],[999,585],[999,669],[999,753],[999,836],[999,920],[70.7,1008],[70.7,1089],[69.8,1172],[69.8,1256],[64.4,1339],[63.9,1423],[63.9,1507],[63.9,1590],[63.9,1675],[63.9,1759],[63.9,1842],[63.9,1926],[63.9,2010],[63.9,2094],[63.9,2178],[63.9,2261],[63.9,2345],[63.9,2429],[63.9,2513],[63.9,2597],[63.9,2680],[63.9,2764],[63.9,2848],[63.8,2932],[63.8,3016],[63.8,3100],[63.8,3183],[63.5,3267],[63.5,3352],[63.5,3435],[63.5,3519],[62.5,3603],[62.5,3687],[62.5,3770],[62.5,3854],[62.5,3939],[62.3,4022],[62.3,4106],[62.3,4189],[62.3,4273],[62.3,4357],[62.3,4441],[62.3,4525],[62.3,4608],[62.3,4692],[62.3,4776],[62.3,4860],[62.3,4944],[62.3,5028],[62.3,5112],[62.3,5195],[62.3,5279],[62.3,5363],[62.5,5448],[62.5,5532],[62.6,5614],[62.6,5698],[62.6,5782],[62.6,5866],[62.6,5949],[62.6,6033],[62.6,6117],[63.1,6202],[63.2,6286],[63.2,6369],[63.2,6452],[63.2,6536],[63.2,6620],[63.2,6704],[63.2,6787],[63.2,6872],[63.2,6955],[66.1,7041],[66.1,7124],[66.1,7206],[66.1,7291],[66.1,7374],[66.1,7458],[66.1,7542],[66.4,7626],[66.4,7710],[66.4,7793],[66.4,7877],[75.9,7963],[75.9,8045],[75.9,8129],[75.9,8212]]",1,0,418.1535,420.8182,90.06581945,1.7039,"[{""rating"":90.06581945156888,""responseTime"":1.7039000000953592}]",space,2.1351,,420.8188,Partially,50,420.826,,,[],,0,5,5,5,1,audio/Narrative7Situation5.wav,audio/Narrative8Situation5.wav,audio/Narrative5Situation5.wav,audio/Narrative6Situation5.wav,5,2,5,2,,,,,,,,,,,,,,,,,,,,,,,,,,,,,,,,,,,,,
,,,,,,615dbec57d764bf5ab0a56e5,2024-05-13_11h33.43.823,group3.1-3.2-social-tom,2023.2.2,Linux x86_64,59.52380952,65c5074098b851296ff0b7ed,664231b2216872e5e067c325,,,,,,,,,,,,,,,,,,,,,,,,,,,,,420.8263,1,audio/Narrative8Situation6.wav,422.835,,422.8351,429.3176,"[[72.3,1253],[71.3,1336],[71.3,1418],[71.3,1502],[71.3,1586],[71.3,1670],[71.3,1754],[71.3,1838],[71.3,1922],[61.4,2006],[61.4,2089],[61.4,2173],[61.4,2256],[61.4,2341],[61.4,2424],[61.7,2509],[61.7,2593],[61.7,2676],[61.7,2759],[61.7,2843],[61.7,2927],[61.7,3010],[61.7,3094],[63.3,3180],[63.3,3264],[63.3,3346],[63.3,3430],[63.3,3514],[63.3,3598],[63.3,3681],[63.3,3765],[74.3,3849],[74.3,3932],[78.6,4019],[78.6,4100],[80.2,4185],[81.1,4268],[83.1,4351],[83.1,4436],[83.1,4519],[83.1,4604],[83.1,4687],[83.1,4771],[83.1,4855],[83.1,4939],[83.1,5022],[83.1,5106],[83.1,5191],[83.1,5274],[83.1,5358],[83.1,5442],[83.1,5525],[84.3,5610],[84.3,5693],[84.3,5777],[84.3,5861],[88.1,5946],[88.1,6033],[88.1,6112],[88.1,6196],[88.1,6280],[85.2,6363],[85.2,6447]]",1,0,429.3181,431.246,85.08961327,1.8868,"[{""rating"":85.08961327349766,""responseTime"":1.8868000001907603}]",space,1.3928,,431.2464,Partially,50,431.2521,,,[],,0,6,6,6,1,audio/Narrative7Situation6.wav,audio/Narrative8Situation6.wav,audio/Narrative5Situation6.wav,audio/Narrative6Situation6.wav,3,2,3,2,,,,,,,,,,,,,,,,,,,,,,,,,,,,,,,,,,,,,
,,,,,,615dbec57d764bf5ab0a56e5,2024-05-13_11h33.43.823,group3.1-3.2-social-tom,2023.2.2,Linux x86_64,59.52380952,65c5074098b851296ff0b7ed,664231b2216872e5e067c325,,,,,,,,,,,,,,,,,,,,,,,,,,,,,431.2524,1,audio/Narrative8Situation7.wav,434.2625,,434.2628,446.3497,"[[999,12],[999,84],[999,166],[999,250],[999,333],[999,418],[999,502],[999,586],[999,669],[999,753],[999,836],[999,921],[999,1005],[999,1088],[999,1172],[999,1256],[999,1340],[999,1424],[999,1508],[999,1592],[999,1677],[999,1759],[999,1843],[999,1926],[999,2011],[999,2094],[999,2178],[999,2261],[999,2346],[72.1,2430],[72.1,2513],[72.1,2597],[72.1,2682],[72.1,2765],[72.1,2849],[72.1,2932],[72.1,3017],[72.1,3100],[72.1,3184],[72.1,3268],[76.1,3352],[76.1,3435],[76.1,3519],[76.1,3603],[76.1,3687],[76.1,3771],[76.1,3855],[76.1,3939],[76.1,4022],[76.1,4106],[76.1,4189],[76.1,4273],[76.1,4357],[76.1,4441],[76.1,4524],[79.3,4611],[79.3,4693],[79.3,4777],[79.3,4860],[79.3,4944],[79.3,5027],[79.3,5112],[79.3,5196],[79.3,5279],[79.3,5363],[79.3,5447],[79.3,5531],[79.3,5615],[79.9,5699],[80.3,5783],[80.6,5866],[80.6,5951],[81.2,6033],[81.2,6118],[81.2,6201],[81.2,6285],[81.2,6369],[81.2,6452],[81.2,6536],[81.2,6620],[81.2,6704],[81.2,6788],[81.2,6872],[81.2,6956],[81.2,7039],[81.2,7123],[81.2,7207],[81.2,7291],[81.2,7375],[81.2,7459],[81.2,7543],[81.2,7626],[81.2,7710],[81.2,7794],[81.2,7878],[81.2,7962],[81.2,8046],[81.2,8129],[81.2,8212],[81.2,8297],[81.8,8380],[82.1,8464],[82.2,8550],[82.2,8635],[82.2,8716],[82.2,8800],[83.3,8883],[83.3,8968],[83.3,9051],[83.3,9135],[83.3,9219],[83.3,9303],[83.3,9386],[83.3,9472],[83.3,9554],[83.3,9638],[83.3,9722],[83.3,9806],[84.3,9890],[84.3,9974],[84.3,10057],[84.3,10141],[85,10225],[85,10313],[85,10392],[85,10476],[85,10561],[85,10644],[85,10728],[85,10811],[85,10896],[85,10979],[85,11064],[85,11147],[85,11231],[85,11314],[85,11398],[85,11482],[85,11569],[85,11649],[85,11733],[84.9,11818],[84.9,11902],[84.9,11985],[84.9,12069]]",1,0,446.3503,456.0052,81.86970491,3.8809,"[{""rating"":81.8697049115289,""responseTime"":3.880899999856865}]",space,9.1252,,456.0056,Definitely yes,100,456.0276,,,[],,0,7,7,7,1,audio/Narrative7Situation7.wav,audio/Narrative8Situation7.wav,audio/Narrative5Situation7.wav,audio/Narrative6Situation7.wav,5,3,4,5,,,,,,,,,,,,,,,,,,,,,,,,,,,,,,,,,,,,,
,,,,,,615dbec57d764bf5ab0a56e5,2024-05-13_11h33.43.823,group3.1-3.2-social-tom,2023.2.2,Linux x86_64,59.52380952,65c5074098b851296ff0b7ed,664231b2216872e5e067c325,,,,,,,,,,,,,,,,,,,,,,,,,,,,,456.0279,1,audio/Narrative8Situation8.wav,459.0393,,459.0395,471.8807,"[[999,1],[999,83],[999,167],[999,251],[999,334],[999,418],[999,502],[999,585],[999,669],[999,753],[999,838],[999,921],[999,1004],[59.4,1090],[59.4,1172],[59.4,1256],[59.4,1340],[59.4,1424],[65,1508],[65,1592],[65,1675],[65,1759],[65,1842],[65,1926],[65,2010],[65,2094],[65,2177],[65,2262],[65.1,2346],[65.1,2430],[65.1,2514],[65.1,2597],[65.1,2681],[65.1,2765],[65.1,2848],[65.1,2932],[65.1,3016],[65.1,3100],[69.1,3183],[69.1,3268],[69.1,3351],[69.1,3435],[69.1,3519],[69.1,3604],[69.1,3688],[69.1,3771],[69.1,3854],[69.1,3947],[69.1,4022],[72.9,4106],[72.9,4190],[72.9,4273],[72.9,4357],[76.1,4443],[76.1,4528],[76.1,4609],[76.1,4692],[76.1,4776],[76.1,4860],[76.1,4944],[76.1,5028],[76.1,5111],[76.1,5195],[76.1,5279],[76.1,5363],[76.1,5447],[76.1,5531],[76.1,5614],[76.1,5699],[76.1,5782],[76.1,5866],[76.1,5949],[76.1,6033],[76.1,6117],[76.1,6201],[76.1,6285],[76.1,6369],[76.1,6453],[76.1,6536],[76.1,6620],[76.1,6704],[76.1,6788],[76.1,6871],[76.1,6955],[76.1,7039],[76.1,7123],[76.1,7207],[76.1,7291],[76.1,7375],[76.1,7459],[76.1,7543],[76.1,7626],[76.1,7710],[76.1,7793],[76.1,7879],[76.2,7961],[76.2,8045],[76.2,8129],[76.2,8213],[79.9,8297],[80,8380],[80,8464],[80,8548],[80,8632],[80,8716],[80,8799],[80,8883],[80,8967],[80,9051],[80,9135],[80,9219],[80,9303],[80,9386],[80,9470],[80,9554],[80.3,9638],[80.6,9722],[80.6,9805],[80.6,9889],[80.6,9973],[80.6,10057],[82.2,10142],[82.2,10224],[82.2,10308],[82.2,10392],[82.2,10476],[82.2,10559],[84.4,10645],[84.4,10730],[84.4,10810],[84.4,10895],[84.7,10979],[84.7,11063],[84.7,11146],[84.7,11230],[84.7,11314],[84.7,11398],[84.7,11481],[84.4,11565],[84.4,11651],[84.4,11734],[84.4,11816],[84.4,11901],[84.4,11984],[84.4,12068],[84.4,12152],[84.4,12237],[84.4,12321],[84.4,12404],[84.4,12488],[84.4,12572],[84.4,12656],[84.4,12739],[84.4,12823]]",1,0,471.8821,477.077,79.08887435,2.8101,"[{""rating"":75.2835378526777,""responseTime"":2.540200000047662},{""rating"":79.08887435348355,""responseTime"":2.8100999999046508}]",space,4.6667,9.99999E-05,477.0773,Definitely yes,100,477.0842,,,[],,0,8,8,8,1,audio/Narrative7Situation8.wav,audio/Narrative8Situation8.wav,audio/Narrative5Situation8.wav,audio/Narrative6Situation8.wav,2,3,3,5,,,,,,,,,,,,,,,,,,,,,,,,,,,,,,,,,,,,,
,,,,,,615dbec57d764bf5ab0a56e5,2024-05-13_11h33.43.823,group3.1-3.2-social-tom,2023.2.2,Linux x86_64,59.52380952,65c5074098b851296ff0b7ed,664231b2216872e5e067c325,,,,,,,,,,,,,,,,,,,,,,,,,,,,,477.0845,1,audio/Narrative8Situation9.wav,480.0947,,480.095,491.4103,"[[999,12],[999,82],[999,167],[999,250],[999,333],[999,417],[999,501],[999,584],[999,669],[999,752],[999,836],[999,920],[999,1004],[999,1088],[999,1172],[999,1256],[999,1339],[999,1424],[77.1,1507],[77.5,1593],[77.5,1676],[77.5,1758],[77.5,1844],[77.5,1926],[77.5,2010],[77.5,2093],[77.5,2178],[77.5,2261],[77.5,2345],[77.5,2429],[77.5,2513],[77.5,2597],[77.5,2681],[77.5,2766],[77.5,2848],[77.5,2932],[77.5,3016],[81.4,3101],[81.4,3183],[81.4,3267],[81.4,3351],[81.4,3435],[81.4,3518],[81.4,3604],[83.4,3686],[83.4,3770],[83.4,3854],[83.4,3938],[83.4,4021],[83.4,4105],[83.4,4189],[83.4,4273],[83.4,4357],[83.4,4441],[83.4,4525],[83.4,4608],[83.4,4692],[83.4,4776],[83.8,4860],[83.8,4943],[83.8,5027],[83.8,5111],[83.8,5195],[83.8,5279],[83.8,5362],[83.8,5447],[83.8,5530],[83.8,5614],[83.8,5698],[83.8,5781],[83.8,5866],[85,5949],[85,6033],[85,6117],[85,6201],[84.9,6285],[84.9,6369],[85.2,6452],[85.2,6536],[85.2,6620],[88.4,6704],[88.4,6787],[88.4,6872],[88.4,6955],[88.2,7040],[88.2,7127],[88.2,7206],[88.2,7290],[88.2,7374],[88.2,7459],[88.2,7542],[88.2,7625],[88.2,7709],[87.5,7795],[87.5,7876],[87.5,7961],[87.5,8045],[87.5,8129],[87.5,8212],[87.5,8297],[87.5,8380],[87.5,8464],[87.5,8548],[87.5,8635],[87.5,8716],[87.5,8799],[87.5,8883],[87.5,8967],[87.5,9050],[87.5,9134],[87.5,9218],[88.4,9302],[88.4,9386],[89.6,9472],[89.6,9553],[89.6,9637],[89.6,9722],[89.6,9805],[89.6,9889],[89.6,9972],[89.6,10057],[89.6,10140],[89.6,10224],[89.6,10308],[89.6,10392],[89.6,10476],[89.6,10560],[89.6,10643],[89.6,10727],[89.6,10811],[89.6,10895],[89.6,10978],[89.6,11062],[89.6,11146],[89.6,11230],[89.6,11314]]",1,0,491.4109,495.1822,89.91946912,2.2215,"[{""rating"":89.91946911665521,""responseTime"":2.221499999999992}]",space,3.2394,0.0004,495.1824,Partially,50,495.1895,,,[],,0,9,9,9,1,audio/Narrative7Situation9.wav,audio/Narrative8Situation9.wav,audio/Narrative5Situation9.wav,audio/Narrative6Situation9.wav,2,3,3,4,,,,,,,,,,,,,,,,,,,,,,,,,,,,,,,,,,,,,
,,,,,,615dbec57d764bf5ab0a56e5,2024-05-13_11h33.43.823,group3.1-3.2-social-tom,2023.2.2,Linux x86_64,59.52380952,65c5074098b851296ff0b7ed,664231b2216872e5e067c325,,,,,,,,,,,,,,,,,,,,,,,,,,,,,495.1898,1,audio/Narrative7Situation1.wav,497.1929,,497.1931,553.067,"[[999,1],[999,83],[999,166],[999,251],[999,333],[999,418],[999,501],[999,585],[999,670],[999,755],[999,837],[999,921],[999,1005],[999,1088],[999,1175],[999,1256],[999,1339],[999,1424],[999,1508],[999,1591],[999,1675],[999,1759],[999,1843],[999,1927],[999,2010],[999,2094],[999,2178],[999,2263],[999,2346],[999,2429],[999,2513],[999,2596],[999,2680],[999,2765],[999,2848],[999,2933],[999,3016],[999,3100],[999,3183],[999,3268],[999,3351],[999,3435],[999,3519],[999,3602],[999,3686],[77.1,3772],[75.9,3857],[75.9,3937],[75.9,4022],[75.9,4106],[75.9,4189],[75.9,4273],[75.9,4357],[75.9,4441],[75.9,4525],[75.9,4609],[75.9,4693],[80,4777],[80.5,4862],[80.5,4946],[80.5,5028],[80.5,5112],[80.8,5196],[81.8,5279],[81.8,5364],[81.8,5447],[82.2,5531],[83.4,5615],[83.7,5700],[83.7,5782],[83.7,5866],[83.7,5950],[83.7,6034],[83.7,6118],[83.7,6202],[83.7,6285],[83.7,6369],[83.7,6452],[83.7,6536],[85.6,6620],[85.6,6705],[85.6,6788],[85.6,6872],[85.6,6956],[85.6,7040],[85.6,7123],[85.6,7208],[85.6,7291],[85.6,7375],[85.6,7459],[85.6,7543],[85.6,7626],[85.2,7710],[85.2,7794],[85.2,7878],[85.2,7962],[85.2,8045],[85.2,8129],[85.2,8213],[84.3,8298],[84.3,8381],[84.3,8464],[84.3,8548],[84.3,8633],[84.3,8717],[84.3,8800],[84,8884],[84,8968],[84,9051],[83.6,9136],[83.6,9221],[82.7,9304],[82.7,9386],[82.7,9470],[79.2,9554],[77.1,9638],[77.1,9721],[77.1,9805],[77.1,9889],[76.8,9973],[76.8,10057],[76.8,10141],[76.8,10224],[76.8,10308],[76.8,10393],[76.8,10477],[76.8,10559],[76.8,10644],[76.8,10728],[76.8,10811],[76.8,10895],[76.8,10979],[76.8,11062],[76.8,11146],[76.8,11230],[76.8,11314],[76.8,11398],[76.8,11482],[76.8,11566],[76.8,11649],[76.8,11734],[76.8,11817],[76.8,11902],[76.8,11984],[76.8,12068],[76.8,12153],[79,12236],[79,12320],[79,12404],[79,12488],[79,12572],[79,12655],[79,12739],[79,12823],[79,12906],[81.6,12991],[81.6,13074],[81.6,13158],[81.6,13242],[81.6,13326],[81.6,13410],[81.6,13494],[81.6,13578],[81.6,13662],[81.6,13745],[81.6,13829],[81.6,13913],[81.6,13996],[81.8,14080],[81.8,14164],[81.8,14248],[81.8,14332],[81.8,14416],[86,14500],[86,14583],[86,14668],[86.2,14750],[86.2,14835],[86.2,14918],[86.2,15002],[86.2,15086],[86.2,15170],[86.2,15254],[86.2,15338],[86.2,15421],[89.7,15505],[89.7,15589],[89.7,15673],[91.3,15757],[91.3,15840],[91.3,15925],[91.3,16009],[91.3,16092],[91.3,16176],[91.3,16260],[91.3,16344],[91.3,16428],[91.3,16512],[91.3,16595],[91.3,16679],[91.3,16763],[91.3,16847],[91.3,16931],[91.3,17014],[91.3,17098],[91.3,17181],[91.3,17266],[91.3,17350],[91.3,17434],[91.3,17517],[91.3,17601],[91.3,17685],[91.3,17768],[91.3,17854],[91.3,17937],[91.3,18020],[91.3,18105],[91.3,18188],[91.3,18272],[91.3,18355],[91.3,18439],[91.3,18523],[91.3,18607],[91.3,18691],[91.3,18775],[91.3,18858],[91.3,18943],[89.8,19025],[89.8,19110],[89.8,19193],[89.8,19278],[89.8,19362],[89.8,19451],[89.8,19529],[89.8,19612],[89.8,19696],[89.7,19780],[89.7,19864],[89.7,19948],[89.7,20032],[89.7,20115],[89.4,20200],[89.4,20284],[89.4,20368],[89.4,20451],[89.6,20535],[89.6,20621],[89.6,20704],[89.6,20786],[89.6,20870],[89.6,20953],[86,22295],[86,22379],[86,22463],[86.2,22547],[86.2,22632],[86.2,22714],[85.7,22798],[85.7,22884],[85.2,22965],[85.2,23049],[85.2,23133],[85.2,23216],[85.2,23300],[85.2,23385],[85.2,23468],[85.2,23568],[85.2,23652],[85.2,23735],[85.2,23820],[85.2,23904],[85.2,23987],[85.2,24072],[85.2,24155],[85.2,24239],[85.2,24323],[85.2,24406],[85.2,24490],[85.2,24574],[85.2,24658],[85.2,24742],[85.2,24826],[85.5,24910],[85.5,24993],[85.5,25077],[85.5,25161],[85.5,25246],[85.5,25329],[85.5,25413],[87.7,25496],[87.7,25580],[87.7,25664],[87.7,25747],[87.7,25832],[87.7,25915],[87.7,25999],[87.7,26082],[86.8,26167],[86.8,26251],[86.8,26335],[86.8,26418],[86.8,26502],[88.7,26586],[88.7,26670],[88.7,26753],[88.7,26837],[88.7,26921],[88.7,27005],[88.7,27090],[88.7,27173],[88.7,27256],[88.7,27341],[88.7,27424],[88.7,27507],[88.7,27592],[88.7,27675],[88.7,27759],[88.7,27843],[88.7,27927],[88.5,28012],[88.1,28094],[88.1,28179],[87.8,28262],[87.8,28346],[87.8,28430],[87.8,28514],[87.8,28598],[87.8,28682],[87.2,28765],[87.2,28849],[87.2,28933],[81.8,29018],[81.8,29103],[81.8,29184],[81.8,29268],[81.8,29351],[81.8,29436],[81.8,29519],[79.7,29605],[79.7,29687],[79.7,29771],[79.7,29854],[79.7,29939],[79.7,30022],[78,30106],[78,30190],[78,30274],[78,30358],[78,30442],[78,30525],[78,30609],[78,30693],[78,30777],[78,30860],[78,30944],[78,31028],[78.1,31112],[78.1,31196],[78.1,31280],[78.1,31364],[78.1,31448],[78.1,31531],[78.1,31615],[78.1,31699],[78.1,31782],[78.7,31867],[78.7,31951],[78.7,32034],[78.7,32117],[78.7,32202],[78.7,32286],[78.7,32369],[78.7,32453],[78.7,32537],[78.7,32621],[78.7,32705],[78.7,32790],[79.3,32872],[79.6,32956],[79.6,33040],[79.6,33124],[79.6,33207],[79.6,33292],[79.6,33375],[79.6,33459],[79.6,33543],[83.4,33627],[84.6,33710],[84.6,33794],[84.6,33878],[84.6,33962],[84.6,34046],[84.7,34130],[84.7,34213],[84.7,34297],[84.7,34381],[85.3,34465],[85.3,34549],[85.3,34633],[85.3,34716],[85.3,34799],[85.3,34884],[85.3,34968],[85.3,35051],[85.3,35136],[85.3,35220],[85.3,35303],[85.3,35387],[85.3,35471],[85.3,35554],[85.5,35639],[85.3,35723],[85.3,35812],[84.9,35890],[83.8,35974],[83.8,36057],[83.8,36141],[83.4,36225],[83.3,36309],[83,36392],[83,36476],[83,36560],[82.8,36644],[82.8,36728],[82.5,36812],[82.5,36896],[82.5,36979],[82.5,37063],[82.5,37147],[82.5,37230],[82.5,37315],[82.5,37398],[82.5,37482],[82.5,37566],[82.4,37650],[81.8,37734],[81.8,37818],[81.8,37901],[81.8,37985],[79.2,38068],[79.2,38153],[79.2,38237],[79.2,38320],[79.2,38404],[79.2,38488],[79.2,38572],[79.2,38656],[79.2,38739],[79.2,38823],[79.2,38907],[79.2,38991],[79.2,39075],[79.2,39159],[79.2,39243],[76.7,39326],[76.7,39410],[76.7,39494],[76.7,39578],[76.7,39662],[76.7,39746],[76.7,39830],[76.7,39913],[76.7,39997],[76.7,40081],[76.7,40164],[76.7,40248],[76.7,40332],[76.7,40416],[76.7,40500],[76.7,40584],[76.7,40667],[76.7,40751],[77.1,40835],[77.5,40922],[77.5,41003],[77.5,41087],[77.5,41170],[81.4,41255],[81.9,41340],[82.4,41423],[82.4,41506],[82.4,41589],[84.1,41674],[84.1,41757],[84.1,41841],[84.1,41925],[84.1,42009],[84.1,42092],[84.1,42176],[85.2,42263],[85.2,42343],[85.2,42427],[85.2,42512],[85.2,42595],[86,42679],[86,42763],[86,42847],[86.3,42931],[86.5,43019],[86.6,43098],[86.6,43182],[86.6,43266],[86.6,43350],[86.6,43434],[86.6,43518],[86.6,43601],[86.6,43685],[86.6,43769],[86.6,43853],[86.6,43936],[86.6,44020],[86.6,44104],[86.6,44188],[86.6,44272],[86.6,44355],[86.6,44439],[86.6,44523],[86.6,44606],[86.6,44691],[86.6,44774],[86.8,44858],[86.8,44942],[86.8,45026],[86.8,45110],[86.8,45193],[86.8,45278],[86.8,45361],[86.8,45445],[86.8,45529],[86.8,45613],[86.8,45697],[86.8,45780],[86.8,45864],[86.8,45948],[86.8,46031],[86.8,46116],[87.2,46201],[87.4,46283],[87.4,46367],[87.4,46450],[87.4,46534],[87.4,46618],[87.4,46702],[87.4,46786],[87.4,46870],[87.4,46954],[87.4,47039],[87.4,47122],[87.4,47205],[87.4,47289],[87.4,47373],[87.4,47457],[87.4,47541],[87.4,47624],[87.4,47708],[87.4,47793],[87.4,47876],[87.7,47961],[87.7,48046],[87.7,48127],[87.7,48211],[87.7,48295],[87.7,48379],[87.7,48462],[87.7,48546],[87.7,48630],[90.4,48714],[90.4,48798],[90.4,48882],[90.4,48965],[90.4,49050],[90.4,49133],[90.4,49217],[90.4,49300],[90.4,49385],[90.4,49469],[90.4,49553],[90.4,49637],[90.4,49720],[90,49805],[90,49889],[90,49971],[90,50055],[90,50139],[90,50222],[89.4,50309],[89.4,50391],[89.4,50474],[89.4,50558],[89.3,50642],[89.3,50725],[89.3,50809],[89.3,50893],[89.3,50977],[89.3,51061],[89.3,51144],[89.3,51228],[89.3,51312],[89.3,51397],[89.2,51480],[89.2,51563],[89.2,51648],[89.2,51731],[89.2,51815],[89.2,51899],[89.2,51983],[89.2,52067],[89.2,52150],[89.2,52235],[89.2,52318],[89.2,52401],[89.2,52486],[89.2,52570],[89.2,52653],[89.1,52738],[89.1,52824],[89.1,52905],[89.1,52988],[86,53072],[86,53156],[86,53240],[86,53324],[86,53407],[86,53491],[86,53575],[86,53659],[86,53743],[86,53826],[86,53911],[86,53995],[86,54078],[86,54162],[86,54246],[86,54329],[86,54414],[86,54496],[86,54581],[86,54665],[86,54747],[86,54832],[86,54917],[86,55000],[86,55084],[86,55168],[86,55252],[86,55336],[86,55419],[86,55503],[86,55588],[86,55670],[86,55754],[86,55839]]",1,0,553.0677,558.3813,85.96776888,3.5308,"[{""rating"":85.96776888134447,""responseTime"":3.5307999999523645}]",space,4.7849,,558.3816,Not at all,0,558.388,,,[],,0,10,10,10,1,audio/Narrative8Situation1.wav,audio/Narrative7Situation1.wav,audio/Narrative6Situation1.wav,audio/Narrative5Situation1.wav,5,2,2,5,,,,,,,,,,,,,,,,,,,,,,,,,,,,,,,,,,,,,
,,,,,,615dbec57d764bf5ab0a56e5,2024-05-13_11h33.43.823,group3.1-3.2-social-tom,2023.2.2,Linux x86_64,59.52380952,65c5074098b851296ff0b7ed,664231b2216872e5e067c325,,,,,,,,,,,,,,,,,,,,,,,,,,,,,558.3883,1,audio/Narrative7Situation2.wav,561.3975,,561.3977,568.8778,"[[999,1],[999,82],[999,167],[999,250],[999,334],[999,418],[999,502],[999,586],[999,671],[999,754],[999,837],[83,921],[83,1005],[81.5,1089],[81.5,1172],[81.5,1256],[80.5,1340],[79.5,1423],[79.5,1508],[79.5,1591],[79.5,1675],[79.5,1759],[79.5,1843],[79.5,1927],[79.5,2011],[79.5,2094],[79.5,2179],[76.2,2262],[76.2,2346],[76.2,2430],[76.2,2514],[76.2,2598],[76.2,2682],[75.5,2766],[75.5,2849],[75.5,2933],[72.6,3016],[72.6,3100],[72.6,3184],[72.6,3268],[72.6,3352],[72.6,3435],[72.6,3519],[72.6,3604],[72.6,3688],[72.6,3772],[72.6,3854],[72.6,3939],[72.6,4022],[72.6,4106],[72.6,4190],[72.6,4274],[72.6,4357],[72.6,4441],[72.6,4525],[72.6,4609],[72.6,4693],[72.4,4778],[71.7,4862],[71.7,4944],[71.7,5028],[71.7,5112],[71.7,5196],[71.7,5280],[71.7,5363],[71.7,5447],[71.7,5530],[71.7,5615],[69.6,5699],[69.6,5782],[69.6,5866],[69.6,5950],[69.6,6033],[69.6,6118],[69.6,6201],[69.6,6285],[69.6,6369],[68.5,6454],[65.8,6546],[65.8,6620],[65.8,6704],[63.2,6789],[63.2,6872],[63.2,6956],[63.2,7039],[63.1,7124],[63.1,7207],[63.1,7291],[62.2,7377],[60.1,7469]]",1,0,568.8782,573.5695,50.25610303,2.6451,"[{""rating"":50.25610302904314,""responseTime"":2.6451000001430884}]",space,4.1495,,573.5697,Definitely yes,100,573.5762,,,[],,0,11,11,11,1,audio/Narrative8Situation2.wav,audio/Narrative7Situation2.wav,audio/Narrative6Situation2.wav,audio/Narrative5Situation2.wav,3,3,3,3,,,,,,,,,,,,,,,,,,,,,,,,,,,,,,,,,,,,,
,,,,,,615dbec57d764bf5ab0a56e5,2024-05-13_11h33.43.823,group3.1-3.2-social-tom,2023.2.2,Linux x86_64,59.52380952,65c5074098b851296ff0b7ed,664231b2216872e5e067c325,,,,,,,,,,,,,,,,,,,,,,,,,,,,,573.5764,1,audio/Narrative7Situation3.wav,581.5806,,581.5809,590.8344,"[[999,13],[999,83],[999,166],[999,251],[999,334],[999,418],[999,502],[999,585],[999,670],[999,754],[999,838],[999,921],[999,1005],[999,1089],[999,1173],[999,1256],[999,1340],[999,1424],[999,1508],[999,1591],[999,1675],[35.5,1759],[35.5,1843],[35.5,1927],[35.5,2010],[35.5,2095],[35.7,2178],[35.7,2263],[35.7,2346],[35.7,2430],[35.7,2513],[35.7,2599],[35.7,2681],[35.7,2765],[35.7,2849],[37.3,2933],[37.3,3018],[37.3,3101],[37.3,3184],[37.3,3268],[40.1,3351],[40.1,3436],[40.1,3519],[40.1,3603],[40.1,3687],[40.1,3770],[40.1,3855],[40.1,3939],[40.1,4023],[40.1,4106],[40.1,4190],[40.1,4274],[40.1,4358],[40.1,4441],[40.1,4526],[40.1,4609],[40.1,4693],[40.5,4777],[40.5,4861],[40.5,4945],[40.5,5028],[40.5,5112],[40.5,5196],[46.1,5282],[46.1,5364],[46.1,5447],[46.1,5531],[46.1,5615],[46.1,5699],[48.1,5783],[48.1,5869],[48.1,5950],[48.1,6034],[48.1,6118],[48.6,6202],[48.6,6286],[48.6,6369],[48.6,6453],[52.7,6538],[53.1,6621],[53.1,6705],[53.1,6789],[53.2,6873],[53.2,6956],[53.2,7040],[53.2,7124],[53.2,7208],[53.7,7291],[53.7,7375],[53.7,7459],[53.7,7543],[56.6,7626],[57,7714],[57,7794],[57,7878],[58.1,7964],[58.1,8046],[58.7,8129],[58.7,8217],[58.7,8298],[59.1,8381],[59.1,8465],[59.1,8548],[59.2,8633],[59.2,8716],[59.2,8800],[59.2,8883],[59.2,8968],[59.2,9052],[59.2,9135],[59.2,9219]]",1,0,590.8347,596.0655,50.5488171,3.0052,"[{""rating"":50.54881709846168,""responseTime"":3.0052000000476937}]",space,4.6982,,596.0657,Not at all,0,596.0723,,,[],,0,12,12,12,1,audio/Narrative8Situation3.wav,audio/Narrative7Situation3.wav,audio/Narrative6Situation3.wav,audio/Narrative5Situation3.wav,4,8,5,3,,,,,,,,,,,,,,,,,,,,,,,,,,,,,,,,,,,,,
,,,,,,615dbec57d764bf5ab0a56e5,2024-05-13_11h33.43.823,group3.1-3.2-social-tom,2023.2.2,Linux x86_64,59.52380952,65c5074098b851296ff0b7ed,664231b2216872e5e067c325,,,,,,,,,,,,,,,,,,,,,,,,,,,,,596.0726,1,audio/Narrative7Situation4.wav,599.0825,,599.0828,610.8012,"[[45.8,754],[45.3,837],[45.3,921],[45.3,1004],[40.1,1088],[40.1,1172],[30.1,2094],[30.1,2181],[30.1,2262],[30.1,2345],[30.1,2429],[31.9,2513],[31.9,2596],[31.9,2681],[31.9,2764],[31.9,2848],[31.9,2932],[31.9,3015],[31.9,3099],[31.9,3183],[36.4,3269],[36.4,3351],[36.4,3435],[36.4,3519],[36.4,3603],[34.5,3686],[34.5,3773],[34.5,3854],[34.5,3938],[34.5,4022],[34.5,4106],[34.5,4189],[34.5,4273],[34.5,4357],[34.5,4441],[34.5,4525],[34.5,4609],[50.9,4693],[50.9,4777],[51,4861],[51,4944],[51,5028],[51,5111],[51,5195],[51,5280],[51,5363],[51,5446],[51,5530],[51,5614],[57.9,5698],[57.9,5782],[57.9,5866],[61.6,5950],[61.9,6033],[61.9,6117],[61.9,6201],[61.9,6285],[61.9,6369],[61.9,6452],[61.9,6537],[61.9,6620],[62.2,6705],[62.2,6788],[62.3,6871],[62.3,6957],[64.1,7041],[64.2,7123],[64.2,7207],[64.2,7290],[64.2,7375],[64.2,7459],[64.2,7542],[64.2,7626],[64.2,7710],[64.2,7794],[64.2,7878],[64.2,7961],[64.2,8045],[64.2,8129],[64.8,8213],[65,8299],[65,8381],[65,8465],[65.5,8548],[65.5,8634],[65.5,8716],[65.5,8799],[65.5,8883],[65.5,8967],[66,9051],[66.1,9139],[66.1,9220],[66.1,9302],[66.1,9386],[66.1,9470],[66.4,9556],[66.7,9638],[66.7,9721],[66.7,9806],[66.7,9889],[66.7,9973],[66.7,10057],[66.7,10140],[66.7,10224],[66.7,10308],[66.7,10392],[66.7,10476],[66.7,10559],[66.7,10643],[69.2,10727],[70.1,10810],[70.1,10899],[70.1,10979],[70.1,11062],[70.1,11146],[70.1,11230],[70.1,11313],[70.1,11398],[70.1,11482],[70.1,11565],[70.1,11649]]",1,0,610.8017,615.3265,69.72189014,2.2208,"[{""rating"":69.72189013617817,""responseTime"":2.220799999952419}]",space,3.995,,615.3269,Not at all,0,615.3331,,,[],,0,13,13,13,1,audio/Narrative8Situation4.wav,audio/Narrative7Situation4.wav,audio/Narrative6Situation4.wav,audio/Narrative5Situation4.wav,3,3,2,1,,,,,,,,,,,,,,,,,,,,,,,,,,,,,,,,,,,,,
,,,,,,615dbec57d764bf5ab0a56e5,2024-05-13_11h33.43.823,group3.1-3.2-social-tom,2023.2.2,Linux x86_64,59.52380952,65c5074098b851296ff0b7ed,664231b2216872e5e067c325,,,,,,,,,,,,,,,,,,,,,,,,,,,,,615.3334,1,audio/Narrative7Situation5.wav,620.3379,,620.3381,628.8222,"[[999,12],[999,84],[999,167],[999,251],[999,335],[999,419],[999,502],[999,586],[999,670],[999,754],[999,838],[999,922],[999,1005],[999,1091],[999,1173],[999,1256],[59.2,1343],[58.5,1425],[58.5,1509],[55,1592],[55,1676],[55,1760],[55,1843],[52.5,1929],[52.5,2011],[52.5,2096],[52.5,2179],[52.5,2262],[52.5,2346],[52.5,2430],[52.5,2514],[52.5,2598],[52.5,2681],[52.9,2765],[52.9,2850],[56.6,2933],[56.6,3016],[56.6,3101],[56.6,3184],[56.6,3269],[56.6,3353],[56.6,3436],[56.6,3520],[56.6,3603],[56.6,3688],[56.6,3772],[56.6,3855],[56.6,3939],[56.6,4023],[57.2,4108],[57.5,4191],[57.5,4274],[57.5,4358],[57.5,4442],[57.5,4525],[57.5,4610],[59.8,4693],[59.8,4777],[59.8,4861],[59.8,4944],[60,5029],[60,5112],[60,5196],[60,5280],[60.6,5365],[61.4,5454],[61.4,5531],[61.4,5615],[62.2,5699],[62.2,5783],[62.2,5866],[62.2,5950],[62.2,6034],[62.2,6118],[62.2,6202],[62.2,6285],[62.2,6369],[62.2,6454],[62.2,6537],[62.6,6621],[62.8,6705],[62.8,6788],[62.8,6873],[62.8,6956],[62.8,7040],[62.8,7124],[62.8,7208],[62.8,7291],[62.8,7375],[62.8,7459],[62.8,7543],[62.8,7626],[62.8,7711],[62.8,7794],[62.8,7879],[62.8,7962],[62.8,8046],[62.8,8130],[62.8,8214],[62.8,8297],[62.8,8381],[62.8,8465]]",1,0,628.8224,635.091,38.98643716,3.481,"[{""rating"":38.98643716174366,""responseTime"":3.4809999999999945}]",space,5.7375,0.0003,635.0913,Partially,50,635.099,,,[],,0,14,14,14,1,audio/Narrative8Situation5.wav,audio/Narrative7Situation5.wav,audio/Narrative6Situation5.wav,audio/Narrative5Situation5.wav,2,5,2,5,,,,,,,,,,,,,,,,,,,,,,,,,,,,,,,,,,,,,
,,,,,,615dbec57d764bf5ab0a56e5,2024-05-13_11h33.43.823,group3.1-3.2-social-tom,2023.2.2,Linux x86_64,59.52380952,65c5074098b851296ff0b7ed,664231b2216872e5e067c325,,,,,,,,,,,,,,,,,,,,,,,,,,,,,635.0993,1,audio/Narrative7Situation6.wav,638.108,,638.1083,648.0821,"[[999,11],[999,85],[999,166],[999,250],[999,335],[999,417],[999,501],[999,585],[999,669],[999,753],[999,836],[999,920],[999,1004],[999,1088],[999,1172],[999,1256],[999,1340],[999,1440],[999,1524],[999,1607],[999,1692],[999,1775],[999,1860],[999,1943],[999,2027],[999,2111],[999,2194],[999,2278],[999,2362],[999,2446],[999,2532],[999,2614],[999,2697],[999,2781],[999,2865],[33.9,2949],[33.9,3033],[33.9,3116],[33.9,3201],[36.3,3285],[36.3,3368],[36.3,3452],[36.3,3536],[36.3,3620],[36.3,3704],[36.3,3787],[36.3,3872],[36.3,3955],[36.8,4039],[39,4123],[39,4207],[39,4291],[41.7,4375],[41.7,4458],[45.5,4542],[45.5,4626],[45.5,4709],[48.4,4793],[49,4880],[49.1,4962],[49.1,5045],[50.6,5128],[50.6,5212],[51.2,5296],[51.8,5380],[51.8,5464],[52.7,5548],[52.7,5631],[52.7,5715],[52.7,5799],[52.7,5883],[52.7,5966],[52.7,6050],[52.7,6134],[53.4,6219],[55.6,6303],[55.7,6386],[55.7,6473],[55.7,6553],[55.7,6637],[55.7,6722],[55.7,6805],[55.7,6889],[55.7,6972],[55.7,7057],[55.7,7140],[55.7,7224],[55.7,7308],[55.7,7392],[55.7,7476],[55.7,7559],[55.7,7643],[56.6,7727],[56.6,7811],[56.6,7894],[56.6,7978],[56.6,8062],[56.6,8146],[56.9,8230],[61,8314],[61,8398],[61,8481],[61.7,8564],[63.2,8649],[63.6,8734],[63.6,8816],[64.2,8900],[64.2,8984],[64.5,9068],[64.5,9152],[64.5,9236],[64.5,9319],[64.5,9403],[64.5,9487],[64.5,9571],[65,9655],[65.2,9745],[65.7,9822],[65.7,9908]]",1,0,648.0826,651.5024,65.3311121,1.5528,"[{""rating"":65.33111209694407,""responseTime"":1.552800000190814}]",space,2.888,,651.5027,Not at all,0,651.5096,,,[],,0,15,15,15,1,audio/Narrative8Situation6.wav,audio/Narrative7Situation6.wav,audio/Narrative6Situation6.wav,audio/Narrative5Situation6.wav,2,3,2,3,,,,,,,,,,,,,,,,,,,,,,,,,,,,,,,,,,,,,
,,,,,,615dbec57d764bf5ab0a56e5,2024-05-13_11h33.43.823,group3.1-3.2-social-tom,2023.2.2,Linux x86_64,59.52380952,65c5074098b851296ff0b7ed,664231b2216872e5e067c325,,,,,,,,,,,,,,,,,,,,,,,,,,,,,651.5098,1,audio/Narrative7Situation7.wav,656.5152,,656.5156,673.6806,"[[999,11],[999,88],[999,166],[999,250],[999,334],[999,418],[999,501],[999,584],[999,670],[999,754],[999,837],[999,920],[999,1004],[999,1087],[999,1171],[45.5,1256],[45.5,1339],[45.5,1423],[53.1,1507],[53.1,1595],[53.1,1674],[53.1,1758],[53.1,1842],[53.5,1925],[53.5,2010],[53.7,2096],[53.7,2177],[53.7,2263],[53.7,2345],[53.7,2429],[53.8,2513],[53.8,2596],[54.4,2680],[54.7,2765],[55.1,2849],[55.1,2933],[55.1,3016],[55.4,3099],[55.4,3183],[55.4,3267],[55.4,3351],[55.4,3434],[55.4,3519],[55.4,3602],[55.4,3687],[55.7,3770],[56.2,3857],[56.2,3938],[56.2,4022],[56.2,4105],[56.2,4189],[56.2,4273],[56.2,4357],[56.2,4440],[56.2,4524],[56.2,4608],[56.2,4692],[56.2,4775],[56.2,4859],[56.6,4944],[56.6,5028],[56.6,5111],[58.1,5195],[58.1,5279],[58.1,5362],[58.1,5446],[58.1,5530],[58.1,5614],[59.1,5699],[59.1,5786],[59.1,5866],[59.1,5949],[59.7,6033],[59.7,6123],[59.7,6201],[59.7,6284],[60.3,6368],[60.4,6459],[60.4,6536],[60.4,6620],[60.4,6704],[60.4,6787],[60.4,6871],[60.4,6955],[60.4,7039],[60.4,7122],[60.4,7207],[60.4,7291],[60.4,7375],[61.4,7460],[61.4,7543],[61.7,7626],[63.1,7709],[63.1,7793],[63.3,7878],[63.3,7961],[63.3,8045],[63.3,8128],[63.3,8212],[63.3,8296],[63.3,8380],[63.3,8464],[64.7,8548],[64.7,8631],[64.7,8715],[64.7,8799],[64.7,8884],[64.7,8967],[64.7,9051],[64.7,9134],[64.7,9218],[64.7,9302],[64.1,9387],[63.9,9469],[63.9,9553],[63.9,9638],[63.9,9721],[63.9,9805],[63.9,9889],[63.9,9972],[59.4,10056],[58.5,10140],[58.5,10225],[58.5,10308],[58.5,10392],[58.5,10475],[58.5,10559],[58.5,10643],[58.5,10727],[58.5,10811],[57.6,10894],[57.6,10981],[55.9,11065],[55.4,11148],[55.4,11232],[55.4,11315],[55.4,11397],[55.4,11482],[55.4,11565],[55.4,11649],[55.4,11732],[55.4,11817],[55.4,11900],[55.4,11984],[55.4,12068],[55.4,12152],[55.4,12236],[55.4,12319],[55.4,12404],[55.4,12486],[57.6,12571],[57.6,12654],[57.6,12739],[57.6,12822],[61.7,12907],[63.3,12992],[63.3,13073],[63.3,13157],[63.3,13241],[64.1,13325],[64.8,13409],[65.5,13496],[65.5,13576],[65.5,13660],[66.3,13744],[67.3,13828],[68.3,13914],[68.3,13995],[69.1,14080],[69.3,14163],[70.1,14248],[70.2,14330],[70.7,14414],[71,14499],[71.3,14582],[71.3,14666],[71.3,14750],[71.3,14834],[71.3,14917],[71.3,15002],[71.3,15086],[71.3,15169],[71.3,15254],[71.3,15336],[71.3,15421],[71.3,15504],[71.3,15588],[71.3,15672],[71.3,15756],[71.3,15839],[71.3,15924],[72.4,16008],[72.4,16091],[72.4,16175],[72.4,16259],[72.4,16342],[72.4,16426],[73,16511],[73.4,16595],[73.4,16677],[73.4,16762],[73.4,16845],[74.5,16929],[74.5,17013],[74.5,17097]]",1,0,673.6812,691.0479,59.62309395,15.2656,"[{""rating"":59.62309394614409,""responseTime"":15.265599999904566}]",space,16.836,,691.0483,Definitely yes,100,691.0564,,,[],,0,16,16,16,1,audio/Narrative8Situation7.wav,audio/Narrative7Situation7.wav,audio/Narrative6Situation7.wav,audio/Narrative5Situation7.wav,3,5,5,4,,,,,,,,,,,,,,,,,,,,,,,,,,,,,,,,,,,,,
,,,,,,615dbec57d764bf5ab0a56e5,2024-05-13_11h33.43.823,group3.1-3.2-social-tom,2023.2.2,Linux x86_64,59.52380952,65c5074098b851296ff0b7ed,664231b2216872e5e067c325,,,,,,,,,,,,,,,,,,,,,,,,,,,,,691.0566,1,audio/Narrative7Situation8.wav,693.0592,,693.0594,703.0677,"[[999,3],[999,86],[999,166],[999,251],[999,334],[999,418],[999,502],[999,586],[999,670],[999,754],[999,838],[999,921],[999,1005],[999,1091],[999,1173],[999,1256],[999,1340],[999,1424],[999,1509],[999,1592],[999,1676],[999,1760],[999,1844],[999,1927],[999,2011],[999,2094],[999,2178],[999,2263],[999,2346],[999,2430],[999,2514],[999,2597],[999,2681],[999,2765],[58.2,2850],[58.2,2932],[58.2,3016],[58.2,3100],[58.2,3184],[58.2,3268],[58.2,3351],[58.2,3436],[58.2,3519],[58.4,3603],[58.4,3687],[58.4,3772],[58.4,3854],[58.4,3938],[62.2,4022],[62.2,4106],[62.2,4190],[62.2,4274],[62.2,4357],[64.4,4441],[64.4,4525],[64.4,4609],[64.4,4693],[64.4,4777],[64.4,4861],[64.4,4944],[64.4,5028],[64.4,5112],[66.4,5196],[66.4,5279],[66.4,5364],[66.4,5447],[67.9,5534],[67.9,5615],[67.9,5699],[67.9,5782],[70.8,5868],[71,5950],[71,6034],[71,6119],[71,6201],[71,6285],[71,6369],[71,6453],[71,6537],[71,6621],[71,6704],[71,6788],[71.1,6872],[71.1,6958],[71.1,7040],[71.1,7123],[71.1,7207],[74,7291],[74,7375],[74,7460],[74,7542],[74.3,7628],[74.3,7710],[74.3,7794],[74.3,7877],[74.3,7962],[74.3,8045],[74.3,8129],[74.3,8215],[74.3,8297],[74.3,8381],[74.3,8465],[74.3,8548],[74.3,8632],[74.3,8716],[74.3,8800],[76.7,8884],[76.7,8968],[76.7,9052],[76.7,9136],[76.7,9219],[76.7,9303],[76.7,9387],[76.7,9470],[76.7,9554],[76.7,9638],[78.7,9722],[78.7,9805],[78.7,9889],[78.7,9973]]",1,0,703.0683,707.7272,81.57699084,2.0032,"[{""rating"":81.57699084211036,""responseTime"":2.0032000000476273}]",space,4.1317,0.0002,707.7274,Not at all,0,707.7349,,,[],,0,17,17,17,1,audio/Narrative8Situation8.wav,audio/Narrative7Situation8.wav,audio/Narrative6Situation8.wav,audio/Narrative5Situation8.wav,3,2,5,3,,,,,,,,,,,,,,,,,,,,,,,,,,,,,,,,,,,,,
,,,,,,615dbec57d764bf5ab0a56e5,2024-05-13_11h33.43.823,group3.1-3.2-social-tom,2023.2.2,Linux x86_64,59.52380952,65c5074098b851296ff0b7ed,664231b2216872e5e067c325,,,,,,,,,,,,,,,,,,,,,,,,,,,,,707.7351,1,audio/Narrative7Situation9.wav,709.7391,,709.7394,718.3553,"[[999,1],[999,87],[999,166],[999,251],[999,334],[999,418],[999,502],[999,585],[999,670],[999,754],[999,838],[999,920],[999,1004],[999,1088],[999,1172],[999,1255],[999,1339],[999,1423],[999,1509],[999,1591],[999,1675],[999,1758],[999,1843],[999,1927],[999,2010],[999,2094],[999,2178],[73.4,2262],[73.4,2349],[73.4,2429],[73.4,2513],[73.4,2597],[73.4,2682],[73.4,2764],[73.4,2848],[73.4,2932],[73.4,3016],[78.7,3100],[79.2,3188],[79.2,3267],[79.2,3351],[79.6,3435],[79.6,3522],[79.6,3603],[79.6,3687],[79.6,3771],[79.6,3856],[79.6,3938],[79.6,4022],[79.6,4105],[79.6,4190],[79.6,4274],[79.6,4357],[79.6,4442],[79.6,4525],[79.6,4609],[79.6,4692],[79.6,4777],[79.6,4860],[79.6,4944],[79.6,5028],[79.6,5112],[79.6,5196],[79.6,5280],[79.6,5363],[79.6,5447],[79.6,5531],[79.6,5615],[79.6,5699],[79.6,5783],[79.6,5866],[79.6,5950],[79.6,6034],[79.6,6117],[79.6,6201],[79.6,6285],[79.6,6369],[79.6,6453],[79.6,6536],[79.3,6623],[79.3,6704],[79.3,6788],[79.2,6873],[77.8,6956],[77.5,7040],[77.5,7123],[77.4,7207],[77,7294],[77,7375],[77,7458],[77,7542],[77,7626],[77,7710],[77,7794],[77,7878],[77,7962],[77,8045],[77,8129],[77,8213],[77,8297],[77,8380],[77,8464],[77,8548]]",1,0,718.3558,722.8408,68.11192926,3.2116,"[{""rating"":68.11192925539821,""responseTime"":3.2115999999045926}]",space,3.9446,,722.8408,Definitely yes,100,748.8148,99.87189487,11.582,"[{""rating"":99.87189487238885,""responseTime"":11.581999999999994}]",space,0,18,18,18,1,audio/Narrative8Situation9.wav,audio/Narrative7Situation9.wav,audio/Narrative6Situation9.wav,audio/Narrative5Situation9.wav,3,2,4,3,,,25.4293,,,,,,,,,,,,,,,,,,,,,,,,,,,,,,,,,,
,,,,,,615dbec57d764bf5ab0a56e5,2024-05-13_11h33.43.823,group3.1-3.2-social-tom,2023.2.2,Linux x86_64,59.52380952,65c5074098b851296ff0b7ed,664231b2216872e5e067c325,,,,,,,,,,,,,,,,,,,,,,,,,,,770.6378,773.2228,773.2427,2,audio/Narrative13Situation2.wav,773.2429,,773.2429,802.9948,"[[999,1],[999,64],[999,146],[999,229],[999,315],[999,398],[999,482],[999,567],[999,649],[999,733],[999,817],[999,900],[999,985],[999,1068],[999,1152],[999,1237],[999,1320],[999,1403],[999,1488],[999,1571],[999,1655],[999,1739],[999,1823],[999,1906],[999,1990],[54.9,2074],[54.9,2159],[54.6,2243],[54.1,2325],[54,2409],[54,2493],[54,2577],[54,2661],[54,2745],[54,2828],[54,2912],[54,2996],[54,3079],[54,3164],[54,3248],[54,3331],[54,3415],[54,3499],[54,3583],[54,3667],[54,3751],[54,3834],[54,3918],[54,4002],[54,4085],[54,4169],[54.4,4253],[54.4,4339],[54.4,4422],[54.4,4505],[54.4,4589],[54.4,4673],[54.4,4756],[54.4,4840],[54.4,4924],[54.4,5008],[54.4,5092],[54.4,5176],[54.4,5259],[54.4,5343],[54.4,5427],[54.4,5511],[63.5,5596],[63.5,5678],[67,5762],[67,5846],[67.2,5929],[67.2,6015],[67.2,6097],[67.2,6181],[67.2,6265],[67.2,6349],[67.2,6433],[67.2,6516],[67.2,6600],[79.9,6684],[79.9,6768],[79.9,6851],[84.1,6936],[85.6,7020],[85.6,7103],[85.6,7186],[86,7271],[89.1,7355],[89.1,7439],[89.1,7522],[89.1,7606],[89.1,7690],[89.1,7773],[89.1,7858],[89.1,7941],[89.1,8024],[89.1,8109],[89.1,8192],[89.1,8277],[89.1,8360],[89.1,8444],[89.1,8528],[89.1,8612],[89.6,8695],[90.1,8779],[90.1,8863],[90.1,8947],[90.1,9030],[90.1,9114],[90.1,9200],[90.1,9283],[90.1,9367],[90.1,9450],[90,9535],[89.6,9618],[89.6,9702],[89.6,9786],[89.6,9870],[87.1,9954],[87.1,10036],[87.1,10121],[87.1,10205],[87.1,10288],[87.1,10372],[87.1,10456],[86.8,10540],[85.7,10625],[85.7,10707],[85.7,10791],[85.7,10875],[85,10958],[85,11042],[85,11126],[85,11210],[85,11294],[85,11378],[85,11462],[85,11545],[85,11629],[85,11713],[80.6,11797],[80.6,11881],[80.6,11964],[80.6,12049],[80.6,12133],[80.6,12217],[80.6,12300],[80.6,12384],[80.5,12469],[80.2,12553],[79.5,12635],[79.3,12720],[79.3,12803],[78,12887],[78,12971],[78,13055],[78,13138],[78,13222],[78,13306],[78,13390],[78,13473],[78,13557],[78,13641],[78,13725],[78,13809],[78,13893],[78,13976],[78,14060],[78,14144],[78,14228],[78,14311],[78,14395],[78.9,14480],[80.5,14563],[80.5,14647],[80.5,14730],[80.5,14815],[85.3,14898],[85.3,14983],[85.3,15066],[85.3,15151],[85.3,15234],[85.3,15317],[85.3,15402],[85.3,15485],[85.3,15570],[85.3,15653],[85.3,15736],[85.3,15820],[85.3,15904],[85.3,15988],[85.5,16072],[86.3,16156],[86.3,16239],[86.3,16323],[89.3,16407],[89.3,16491],[89.3,16575],[89.3,16659],[89.3,16742],[89.3,16826],[89.3,16909],[89.3,16994],[89.3,17077],[89.3,17161],[89.3,17246],[89.3,17329],[89.3,17413],[89.3,17497],[89.3,17581],[89.3,17665],[89.3,17748],[89.3,17832],[89.3,17916],[89.3,17999],[89.3,18083],[89.3,18167],[88.5,18256],[87.7,18336],[87.7,18419],[87.7,18503],[86.9,18589],[86.9,18673],[86.9,18754],[86.9,18838],[86.9,18921],[86.9,19005],[86.9,19089],[86.9,19173],[86.9,19257],[87.1,19343],[87.7,19429],[88.1,19508],[88.1,19591],[88.1,19676],[88.2,19759],[88.2,19843],[88.2,19927],[88.2,20011],[88.2,20095],[88.2,20179],[88.2,20263],[88.2,20347],[88.2,20431],[88.2,20514],[88.2,20598],[88.2,20681],[88.2,20766],[88.2,20850],[88.2,20934],[88.2,21018],[88.4,21102],[88.4,21185],[88.4,21268],[88.4,21353],[88.4,21436],[88.4,21521],[88.4,21603],[88.4,21688],[88.4,21771],[88.4,21855],[91.3,21939],[91.3,22023],[91.3,22106],[91.3,22191],[91.6,22275],[92.5,22360],[92.5,22442],[92.5,22526],[92.5,22610],[92.6,22693],[92.6,22777],[92.6,22862],[92.6,22945],[92.6,23029],[92.6,23113],[92.6,23196],[92.6,23280],[92.6,23364],[92.6,23448],[92.6,23532],[92.6,23615],[92.6,23699],[92.6,23783],[92.6,23868],[92.6,23951],[92.6,24035],[94.1,24119],[94.1,24202],[94.1,24286],[94.1,24369],[96.7,24453],[96.7,24537],[96.7,24621],[96.7,24705],[96.7,24789],[96.7,24872],[96.7,24956],[96.7,25040],[96.7,25123],[96.7,25208],[96.7,25291],[96.7,25376],[96,25460],[96,25543],[96,25627],[96,25710],[96,25794],[96,25878],[96,25962],[96,26046],[96,26130],[96,26214],[96,26298],[96,26382],[96,26465],[96,26549],[96,26633],[96,26716],[96,26800],[96,26884],[96,26967],[96,27052],[96,27135],[96,27219],[95.4,27303],[95.4,27387],[95.4,27471],[95.4,27555],[95.4,27638],[95.4,27722],[95.4,27806],[95.4,27890],[95.4,27974],[95.4,28057],[95.4,28141],[95.4,28225],[95.4,28309],[95.4,28393],[95.4,28477],[95.4,28560],[95.4,28644],[95.4,28728],[95.4,28812],[95.4,28895],[95.4,28979],[95.4,29063],[95.4,29147],[95.4,29231],[95.4,29315],[95.4,29398],[95.4,29482],[95.4,29566],[95.4,29650],[95.4,29734]]",1,0,802.9954,803.0069,,,[],,,,803.007,Not at all,0,803.0097,,,[],,0,0,0,0,1,audio/Narrative13Situation2.wav,audio/Narrative13Situation2.wav,audio/Narrative13Situation2.wav,audio/Narrative13Situation2.wav,2,2,2,2,,,,,748.8171,770.6263,space,21.2943,,,,,,,,,,,,,,,,,,,,,,,,,,,,,
,,,,,,615dbec57d764bf5ab0a56e5,2024-05-13_11h33.43.823,group3.1-3.2-social-tom,2023.2.2,Linux x86_64,59.52380952,65c5074098b851296ff0b7ed,664231b2216872e5e067c325,,,,,,,,,,,,,,,,,,,,,,,,,,,,,803.0106,2,audio/Narrative6Situation1.wav,805.0235,,805.0238,831.5945,"[[69.3,2178],[69.3,2262],[69.3,2345],[69.3,2429],[69.3,2514],[69.3,2597],[55.7,2680],[55.7,2765],[55.7,2848],[55.7,2932],[55.7,3016],[55.7,3100],[55.7,3183],[55.7,3267],[55.7,3351],[55.7,3435],[55.7,3519],[55.7,3603],[55.7,3687],[55.7,3771],[56.2,3854],[56.8,3938],[56.8,4022],[56.8,4106],[57.3,4192],[58.7,4276],[58.7,4357],[58.7,4441],[58.7,4524],[60.6,4608],[60.9,4694],[61,4776],[61,4859],[61.3,4944],[61.3,5027],[61.3,5111],[61.3,5195],[61.3,5279],[61.4,5362],[61.4,5447],[61.6,5530],[61.6,5613],[61.6,5698],[61.6,5781],[61.6,5866],[61.6,5950],[61.6,6033],[61.6,6117],[61.6,6201],[61.9,6285],[62,6368],[62,6453],[62,6536],[62,6621],[63.1,6705],[63.5,6788],[63.5,6872],[63.5,6956],[63.5,7039],[65.1,7124],[65.8,7209],[66.1,7290],[66.1,7375],[66.1,7458],[66.1,7542],[66.3,7626],[67,7713],[67.6,7793],[67.6,7877],[67.6,7961],[67.6,8045],[67.6,8129],[67.6,8213],[67.6,8296],[67.6,8380],[67.6,8464],[68,8548],[68,8631],[68,8716],[68,8800],[68,8883],[69.6,8968],[69.6,9050],[69.6,9135],[69.6,9218],[69.6,9303],[69.6,9386],[69.6,9470],[69.6,9553],[69.6,9637],[69.6,9721],[69.6,9806],[69.6,9889],[69.6,9973],[69.6,10056],[69.6,10140],[69.6,10224],[69.6,10308],[69.6,10392],[69.6,10475],[69.6,10559],[69.6,10643],[69.6,10727],[69.6,10811],[69.6,10894],[69.6,10978],[69.6,11062],[69.6,11145],[69.6,11229],[69.6,11314],[69.6,11397],[69.6,11481],[69.9,11565],[72.1,11650],[72.1,11733],[72.1,11817],[72.1,11900],[72.1,11985],[72.9,12068],[72.9,12152],[72.9,12235],[72.9,12320],[72.9,12403],[72.9,12487],[72.9,12571],[72.9,12655],[72.9,12739],[75.1,12823],[75.1,12907],[75.1,12990],[75.1,13074],[75.1,13158],[75.1,13241],[75.1,13326],[75.1,13410],[75.1,13493],[75.1,13577],[75.1,13661],[75.1,13746],[75.1,13828],[75.1,13912],[75.1,13996],[75,14080],[75,14164],[74.9,14248],[74.6,14332],[74.6,14415],[74.6,14499],[74.6,14583],[74.6,14666],[74.6,14750],[74.6,14834],[74.6,14918],[74.6,15002],[74.6,15086],[74.6,15169],[74.6,15253],[74.6,15337],[74.6,15420],[74.5,15504],[74.3,15590],[74.3,15674],[74.3,15756],[74.3,15840],[74.3,15924],[74.3,16008],[74.3,16091],[74.3,16175],[74.2,16259],[74.2,16343],[74.2,16427],[73.4,16512],[73.4,16593],[73,16678],[73,16762],[72.9,16846],[72.9,16930],[72.7,17014],[72.7,17097],[72.7,17181],[78.3,18440],[78.4,18525],[78.4,18606],[80.8,18690],[80.8,18774],[81.5,18857],[81.5,18941],[81.5,19024],[81.5,19109],[81.5,19193],[81.5,19277],[81.5,19360],[81.5,19444],[81.5,19528],[83,19612],[83,19696],[83,19780],[83,19863],[82.8,19948],[82.8,20031],[82.8,20115],[82.8,20199],[82.8,20282],[82.8,20367],[82.8,20450],[82.8,20534],[82.8,20618],[82.8,20702],[82.8,20785],[82.8,20869],[82.8,20953],[82.8,21037],[82.8,21120],[82.8,21204],[82.8,21288],[82.8,21372],[82.8,21456],[82.8,21540],[82.8,21624],[82.8,21707],[82.8,21792],[83,21875],[83.4,21958],[83.4,22042],[83.4,22127],[86.3,22211],[87.1,22296],[87.1,22378],[87.1,22461],[87.1,22545],[87.2,22629],[87.2,22713],[87.2,22797],[87.2,22882],[87.2,22964],[87.2,23048],[87.2,23132],[87.2,23216],[87.2,23300],[87.2,23383],[87.2,23468],[87.2,23552],[87.2,23635],[87.2,23719],[87.2,23803],[87.2,23887],[87.2,23970],[87.2,24054],[87.2,24137],[87.4,24224],[87.7,24307],[87.7,24389],[87.7,24473],[87.7,24557],[88.7,24642],[88.7,24728],[88.8,24809],[88.8,24893],[88.8,24976],[90,25060],[90,25144],[90,25227],[90,25311],[90,25395],[89.4,25480],[88.5,25562],[88.5,25646],[88.5,25730],[88.5,25814],[83.7,25898],[83.7,25982],[83.7,26065],[83.7,26149],[83.7,26234],[83.7,26317],[83.7,26401],[83.7,26485],[83.7,26569]]",1,0,831.5951,893.3845,74.25901851,58.2952,"[{""rating"":74.259018510326,""responseTime"":58.29520000004777}]",space,61.2584,,893.3849,Partially,50,893.3926,,,[],,0,1,1,1,1,audio/Narrative7Situation1.wav,audio/Narrative8Situation1.wav,audio/Narrative5Situation1.wav,audio/Narrative6Situation1.wav,2,5,5,2,,,,,,,,,,,,,,,,,,,,,,,,,,,,,,,,,,,,,
,,,,,,615dbec57d764bf5ab0a56e5,2024-05-13_11h33.43.823,group3.1-3.2-social-tom,2023.2.2,Linux x86_64,59.52380952,65c5074098b851296ff0b7ed,664231b2216872e5e067c325,,,,,,,,,,,,,,,,,,,,,,,,,,,,,893.3928,2,audio/Narrative6Situation2.wav,896.4014,,896.4015,924.8998,"[[75.5,1509],[75.5,1591],[75.5,1675],[75.5,1759],[75.5,1843],[75.5,1927],[75.5,2011],[75.5,2095],[75.5,2179],[75.5,2262],[74.8,2348],[74.8,2432],[74.8,2514],[74.8,2597],[74.8,2682],[74.8,2765],[74.8,2849],[74.8,2933],[74.8,3017],[74.8,3101],[74.8,3184],[74.8,3269],[68.6,3353],[68.9,3441],[68.9,3520],[71.1,3603],[71.3,3687],[71.5,3770],[71.5,3854],[71.5,3939],[73,4023],[73,4106],[73,4190],[73,4274],[73,4358],[73,4441],[73,4525],[73,4609],[73,4693],[73,4777],[73,4860],[73,4944],[73,5029],[73,5112],[73,5195],[73,5279],[73,5363],[73,5448],[73,5531],[73,5615],[73,5698],[73,5782],[73,5867],[74.2,5950],[74.2,6034],[74.8,6119],[74.8,6202],[77.7,6285],[77.7,6369],[77.7,6453],[77.7,6537],[77.7,6621],[77.7,6704],[77.7,6788],[77.7,6873],[77.7,6956],[77.7,7040],[78.7,7123],[78.7,7208],[78.7,7291],[78.7,7375],[78.7,7458],[78.7,7543],[78.7,7626],[78.7,7710],[78.7,7794],[79.2,7878],[79.2,7961],[79.2,8045],[79.2,8129],[79.2,8213],[79.2,8297],[79.2,8381],[79.2,8464],[79.2,8549],[79.2,8633],[79.2,8716],[79.2,8800],[79.2,8884],[79.2,8967],[79.2,9051],[79.9,9135],[79.9,9218],[79.9,9302],[79.9,9387],[79.9,9470],[79.9,9554],[79.9,9638],[79.9,9722],[79.9,9806],[79.9,9889],[79.9,9974],[79.9,10058],[79.9,10141],[79.9,10225],[79.9,10308],[79.9,10392],[79.9,10476],[79.9,10560],[79.9,10644],[79.9,10728],[79.9,10812],[79.9,10895],[79.9,10979],[79.9,11063],[79.9,11147],[79.9,11232],[79.9,11314],[79.9,11398],[79.9,11483],[79.9,11565],[79.9,11650],[79.9,11734],[79.9,11818],[79.9,11902],[79.9,11985],[79.9,12069],[79.9,12153],[79.9,12236],[79.9,12321],[79.9,12404],[79.2,12489],[78.7,12571],[78.7,12655],[78.7,12740],[78.7,12824],[78.7,12907],[73.9,12991],[73.9,13074],[73.9,13159],[73.9,13242],[73.6,13326],[73.6,13410],[73.6,13494],[73.6,13577],[73.6,13661],[73.6,13745],[73.6,13829],[73.6,13913],[73.6,13997],[73.6,14081],[73.6,14164],[72.4,14248],[72.4,14331],[72.4,14415],[72.4,14500],[70.7,14584],[70.4,14668],[70.4,14751],[70.4,14835],[70.4,14919],[69.9,15003],[69.6,15087],[69.6,15170],[69.6,15255],[68.5,15338],[67.6,15423],[67.6,15506],[66,15590],[65.5,15675],[65.5,15758],[65.5,15841],[65.5,15925],[65.5,16009],[65.5,16092],[65.5,16177],[65,16262],[65,16345],[65,16431],[64.8,16512],[64.2,16595],[63.6,16682],[63.5,16762],[63.2,16847],[63.2,16931],[63.2,17014],[63.2,17098],[63.2,17182],[63.2,17266],[63.2,17350],[63.2,17433],[63.2,17517],[63.2,17601],[63.2,17685],[63.2,17768],[63.2,17852],[63.2,17936],[63.2,18022],[63.6,18105],[63.6,18188],[63.6,18272],[63.6,18355],[63.6,18439],[63.6,18523],[63.6,18606],[63.1,18692],[62.5,18774],[62.5,18859],[68.6,18946],[68.9,19026],[70.7,19110],[70.7,19193],[70.7,19278],[70.7,19361],[70.7,19445],[70.7,19529],[70.7,19613],[70.7,19696],[70.7,19780],[79.2,19864],[79.2,19948],[79.2,20031],[79,20116],[78.9,20200],[78.9,20283],[78.9,20367],[78.9,20450],[78.9,20535],[78.9,20618],[79.7,20702],[79.7,20785],[79.7,20870],[81.2,20953],[81.8,21038],[81.8,21121],[81.8,21205],[81.8,21289],[81.8,21372],[81.8,21457],[81.8,21540],[81.8,21624],[81.8,21708],[84.1,21791],[84.1,21877],[84.1,21959],[84.1,22043],[84.1,22128],[87.2,22210],[87.2,22295],[87.2,22379],[87.2,22463],[87.2,22547],[87.2,22630],[87.2,22715],[87.2,22798],[87.2,22884],[87.2,22967],[87.2,23049],[87.2,23133],[87.2,23217],[87.2,23301],[87.2,23384],[87.2,23469],[87.2,23552],[87.2,23637],[87.2,23720],[87.2,23804],[87.2,23888],[87.2,23972],[85.7,24055],[85.7,24141],[85.7,24223],[85.7,24307],[83.8,24392],[83.8,24475],[86,24558],[86,24641],[86,24726],[86.8,24810],[86.8,24893],[86.8,24977],[86.8,25061],[86.8,25145],[86.8,25229],[86.8,25313],[86.3,25398],[85.7,25484],[85.7,25564],[85.7,25648],[85.7,25731],[85.7,25815],[85.7,25899],[81.6,25984],[81.6,26066],[81.6,26151],[81.6,26234],[81.6,26318],[81.6,26402],[81.6,26486],[81.6,26569],[81.5,26653],[81.4,26741],[81.1,26821],[80.8,26904],[80.8,26992],[80.5,27072],[79.6,27156],[79.6,27240],[79.6,27324],[79.6,27407],[79.6,27491],[79.6,27575],[79.6,27659],[79.6,27742],[79.6,27827],[79.6,27910],[79.6,27994],[79.6,28078],[79.6,28162],[79.6,28246],[79.6,28329],[79.6,28413],[79.6,28497]]",1,0,924.9003,928.5213,70.01460421,2.3565,"[{""rating"":70.01460420559673,""responseTime"":2.3565000000000964}]",space,3.0901,,928.5219,Definitely yes,100,928.5289,,,[],,0,2,2,2,1,audio/Narrative7Situation2.wav,audio/Narrative8Situation2.wav,audio/Narrative5Situation2.wav,audio/Narrative6Situation2.wav,3,3,3,3,,,,,,,,,,,,,,,,,,,,,,,,,,,,,,,,,,,,,
,,,,,,615dbec57d764bf5ab0a56e5,2024-05-13_11h33.43.823,group3.1-3.2-social-tom,2023.2.2,Linux x86_64,59.52380952,65c5074098b851296ff0b7ed,664231b2216872e5e067c325,,,,,,,,,,,,,,,,,,,,,,,,,,,,,928.5292,2,audio/Narrative6Situation3.wav,933.5328,,933.5328,946.1411,"[[70.1,1260],[71.5,1341],[71.5,1424],[71.5,1510],[62.9,2347],[62.9,2431],[62.9,2515],[62.9,2598],[62.9,2682],[62.9,2766],[61,2850],[61,2933],[61,3017],[61,3101],[61,3185],[61,3268],[61,3353],[61,3436],[61,3520],[61,3604],[61,3688],[61,3771],[58.2,3855],[58.2,3939],[58.2,4023],[58.2,4108],[58.2,4191],[58.2,4275],[58.2,4358],[58.2,4442],[58.2,4526],[58.2,4610],[58.2,4693],[58.2,4778],[58.2,4861],[58.2,4945],[58.2,5029],[58.2,5113],[58.2,5197],[58.2,5280],[58.2,5364],[58.2,5449],[57.9,5533],[57.9,5618],[59.8,5699],[59.8,5784],[59.8,5867],[61.6,5950],[61.6,6034],[61.6,6119],[61.6,6203],[66.3,6286],[66.3,6369],[66.3,6453],[66.3,6537],[66.3,6621],[66.3,6705],[66.3,6789],[66.3,6873],[66.3,6957],[66.3,7040],[66.3,7125],[66.3,7209],[66.3,7292],[69.5,7376],[69.8,7460],[69.8,7545],[69.8,7628],[69.8,7711],[69.8,7795],[71.8,7879],[71.8,7962],[71.8,8046],[71.8,8130],[71.8,8214],[72,8300],[72,8381],[72,8465],[72,8549],[72,8633],[72,8717],[72,8802],[72,8884],[72,8968],[72,9052],[72,9135],[79.6,9222],[80,9303],[80,9388],[80,9472],[80,9555],[80,9639],[80.2,9722],[80.9,9807],[80.9,9892],[83.6,9975],[83.6,10059],[83.7,10144],[85.6,10225],[85.6,10308],[88.2,10392],[88.2,10477],[88.2,10562],[88.2,10646],[88.2,10729],[88.2,10813],[88.2,10897],[88.2,10980],[88.2,11064],[88.2,11148],[87.9,11234],[86.6,11314],[86.5,11401],[86.5,11483],[86.5,11567],[86.5,11650],[86.5,11734],[86.5,11818],[86.5,11902],[86.5,11985],[80.6,12072],[80.6,12153],[80.6,12239],[80.6,12322],[80.6,12405],[80.6,12490],[74.2,12574]]",1,0,946.1416,951.7893,52.74420612,2.7855,"[{""rating"":52.74420611807875,""responseTime"":2.7854999999999563}]",space,5.1023,0.0002,951.7896,Not at all,0,951.813,,,[],,0,3,3,3,1,audio/Narrative7Situation3.wav,audio/Narrative8Situation3.wav,audio/Narrative5Situation3.wav,audio/Narrative6Situation3.wav,8,4,3,5,,,,,,,,,,,,,,,,,,,,,,,,,,,,,,,,,,,,,
,,,,,,615dbec57d764bf5ab0a56e5,2024-05-13_11h33.43.823,group3.1-3.2-social-tom,2023.2.2,Linux x86_64,59.52380952,65c5074098b851296ff0b7ed,664231b2216872e5e067c325,,,,,,,,,,,,,,,,,,,,,,,,,,,,,951.8134,2,audio/Narrative6Situation4.wav,953.8178,,953.8181,966.4248,"[[999,2],[999,82],[999,165],[999,249],[999,333],[999,417],[999,500],[999,584],[999,670],[999,754],[999,838],[999,920],[999,1004],[999,1087],[999,1172],[999,1255],[999,1339],[54.9,1423],[55.1,1507],[55.1,1591],[55.1,1674],[55.1,1758],[55.1,1842],[55.1,1926],[55.1,2010],[58.7,2094],[58.7,2177],[58.7,2261],[58.7,2345],[58.7,2430],[58.7,2512],[58.7,2596],[58.7,2681],[58.7,2764],[58.7,2848],[57.9,2933],[57.9,3015],[57.9,3099],[57.9,3183],[57.9,3267],[57.9,3351],[57.9,3435],[57.9,3519],[57.9,3603],[57.9,3686],[57.9,3770],[57.9,3854],[57.9,3938],[57.9,4021],[57.9,4105],[63.6,4190],[63.6,4273],[63.6,4357],[63.6,4441],[66.3,4525],[66.3,4608],[66.3,4691],[66.3,4776],[66.3,4860],[66.3,4944],[66.3,5027],[66.3,5112],[66.3,5195],[66.3,5278],[68.8,5363],[68.8,5448],[68.8,5531],[68.8,5614],[68.8,5698],[68.8,5782],[68.8,5865],[68.8,5949],[69.3,6033],[69.3,6117],[69.3,6201],[69.3,6285],[69.3,6369],[69.3,6452],[69.3,6536],[73.2,6620],[73.2,6704],[73.2,6788],[73.2,6871],[73.2,6955],[73.2,7038],[73.2,7122],[73.2,7207],[73.2,7290],[73.2,7374],[73.2,7458],[73.2,7542],[73.6,7625],[73.6,7710],[73.6,7793],[73.6,7878],[73.6,7962],[73.6,8045],[73.6,8129],[73.6,8212],[73.6,8296],[73.6,8381],[73.6,8464],[73.6,8548],[73.6,8632],[73.6,8717],[73.6,8799],[77.3,8883],[77.3,8967],[77.5,9051],[77.5,9134],[77.5,9218],[77.8,9302],[77.8,9388],[77.8,9470],[77.8,9554],[77.8,9637],[77.8,9721],[77.8,9805],[77.8,9889],[77.8,9972],[77.8,10056],[77.8,10140],[77.8,10224],[77.8,10308],[77.8,10392],[77.7,10475],[77.7,10564],[77.7,10643],[77.7,10727],[77.7,10810],[77.7,10895],[77.7,10979],[77.7,11063],[72.1,11147],[72.1,11229],[72.1,11313],[72.1,11397],[72.1,11481],[72.1,11565],[72.1,11649],[72.1,11733],[71.7,11817],[71.7,11901],[69.3,11985],[69.3,12071],[69.3,12152],[69.3,12236],[69.3,12319],[69.3,12403],[69.3,12488],[69.3,12572]]",1,0,966.4257,970.5654,40.45002761,2.9755,"[{""rating"":40.45002760822317,""responseTime"":2.975500000000011}]",space,3.6094,,970.5656,Not at all,0,970.5711,,,[],,0,4,4,4,1,audio/Narrative7Situation4.wav,audio/Narrative8Situation4.wav,audio/Narrative5Situation4.wav,audio/Narrative6Situation4.wav,3,3,1,2,,,,,,,,,,,,,,,,,,,,,,,,,,,,,,,,,,,,,
,,,,,,615dbec57d764bf5ab0a56e5,2024-05-13_11h33.43.823,group3.1-3.2-social-tom,2023.2.2,Linux x86_64,59.52380952,65c5074098b851296ff0b7ed,664231b2216872e5e067c325,,,,,,,,,,,,,,,,,,,,,,,,,,,,,970.5714,2,audio/Narrative6Situation5.wav,972.5765,,972.5767,980.5215,"[[60.9,249],[61.9,334],[62.3,417],[63.1,500],[63.1,584],[63.1,670],[63.1,754],[63.1,838],[63.1,920],[63.1,1004],[63.1,1087],[62.5,1173],[61.7,1255],[61.7,1339],[61.7,1425],[61.7,1506],[61.7,1591],[61.6,1675],[61.6,1758],[61.6,1842],[61.6,1925],[61.6,2010],[61.6,2093],[61.6,2177],[61.6,2261],[61.6,2346],[61.6,2429],[61.6,2513],[61.6,2596],[61.6,2681],[61.6,2763],[63.2,2849],[63.2,2931],[63.2,3015],[63.2,3099],[63.2,3183],[63.2,3267],[64.8,3352],[65.2,3437],[65.2,3519],[65.2,3603],[65.2,3686],[65.2,3770],[65.2,3854],[66.6,3939],[67,4022],[67,4105],[67,4190],[67.4,4274],[68.8,4359],[68.9,4440],[68.9,4525],[68.9,4608],[68.9,4692],[68.9,4776],[68.9,4860],[68.9,4944],[68.9,5027],[68.9,5111],[68.9,5195],[69.2,5280],[69.2,5365],[69.2,5446],[69.2,5530],[69.2,5614],[69.2,5697],[69.2,5781],[69.6,5866],[69.6,5949],[69.6,6033],[69.6,6117],[70.7,6202],[70.7,6284],[70.7,6368],[70.8,6453],[72,6536],[72.3,6620],[72.6,6703],[72.6,6787],[72.9,6870],[72.9,6959],[72.9,7039],[72.9,7123],[73.2,7208],[73.3,7290],[73.3,7374],[73.3,7457],[73.3,7542],[73.3,7625],[73.3,7709],[73.3,7793],[73.3,7877]]",1,0,980.5218,984.5107,37.52284672,2.7591,"[{""rating"":37.522846715264144,""responseTime"":2.7590999999044925}]",space,3.4585,,984.5109,Definitely yes,100,984.5195,,,[],,0,5,5,5,1,audio/Narrative7Situation5.wav,audio/Narrative8Situation5.wav,audio/Narrative5Situation5.wav,audio/Narrative6Situation5.wav,5,2,5,2,,,,,,,,,,,,,,,,,,,,,,,,,,,,,,,,,,,,,
,,,,,,615dbec57d764bf5ab0a56e5,2024-05-13_11h33.43.823,group3.1-3.2-social-tom,2023.2.2,Linux x86_64,59.52380952,65c5074098b851296ff0b7ed,664231b2216872e5e067c325,,,,,,,,,,,,,,,,,,,,,,,,,,,,,984.5197,2,audio/Narrative6Situation6.wav,986.5224,,986.5227,997.5879,"[[42.3,586],[42.3,669],[42.3,754],[42.3,837],[42.3,922],[42.3,1004],[42.3,1089],[42.3,1173],[42.3,1257],[42.3,1340],[42.3,1424],[42.3,1508],[42.3,1592],[42.3,1675],[42.3,1759],[42.3,1843],[42.3,1926],[42.3,2010],[42.3,2095],[42.3,2179],[42.3,2262],[42.3,2346],[42.3,2430],[42.3,2514],[42.3,2597],[42.3,2682],[42.3,2765],[42.3,2849],[48.1,2933],[48.1,3017],[48.1,3101],[48.1,3184],[48.1,3269],[49.4,3351],[49.4,3435],[49.4,3519],[49.4,3604],[49.4,3688],[49.4,3771],[49.7,3855],[49.7,3939],[49.7,4022],[49.7,4107],[49.7,4190],[52.5,4275],[52.7,4358],[52.7,4443],[52.7,4525],[53.2,4609],[53.2,4693],[53.2,4777],[53.2,4861],[53.2,4944],[53.2,5028],[53.2,5112],[53.2,5196],[53.2,5280],[53.2,5364],[53.2,5447],[53.2,5531],[53.5,5615],[54.4,5700],[54.4,5782],[54.4,5867],[54.4,5951],[55.7,6034],[55.7,6117],[55.7,6202],[55.7,6286],[56,6369],[56,6453],[56,6537],[56,6621],[56,6706],[56.2,6789],[56.2,6872],[56.5,6956],[56.5,7040],[56.5,7124],[56.5,7207],[56.5,7291],[57,7377],[58.2,7458],[58.2,7543],[60.9,7627],[60.9,7711],[61.3,7795],[61.3,7878],[61.3,7961],[61.3,8046],[61.3,8132],[61.4,8214],[61.4,8298],[61.9,8382],[62,8465],[62,8548],[62,8632],[62.2,8717],[62.2,8800],[62.3,8884],[62.3,8967],[62.8,9052],[62.8,9136],[62.8,9219],[62.8,9303],[62.8,9387],[62.8,9471],[62.8,9555],[62.8,9639],[62.8,9722],[62.8,9806],[62.9,9890],[64.4,9974],[64.4,10058],[64.4,10141],[64.4,10225],[64.4,10309],[64.4,10393],[64.4,10477],[64.4,10561],[64.4,10644],[64.4,10728],[64.4,10812],[64.4,10895],[64.4,10980],[64.4,11064]]",1,0,997.5884,1003.7727,37.37648298,4.8707,"[{""rating"":37.376482980759285,""responseTime"":4.870700000047691}]",space,5.6545,,1003.7731,Not at all,0,1003.7801,,,[],,0,6,6,6,1,audio/Narrative7Situation6.wav,audio/Narrative8Situation6.wav,audio/Narrative5Situation6.wav,audio/Narrative6Situation6.wav,3,2,3,2,,,,,,,,,,,,,,,,,,,,,,,,,,,,,,,,,,,,,
,,,,,,615dbec57d764bf5ab0a56e5,2024-05-13_11h33.43.823,group3.1-3.2-social-tom,2023.2.2,Linux x86_64,59.52380952,65c5074098b851296ff0b7ed,664231b2216872e5e067c325,,,,,,,,,,,,,,,,,,,,,,,,,,,,,1003.7804,2,audio/Narrative6Situation7.wav,1008.7848,,1008.7851,1033.6286,"[[999,11],[999,87],[999,167],[999,250],[999,334],[999,418],[999,502],[999,585],[999,670],[999,753],[999,837],[999,921],[999,1005],[999,1089],[999,1172],[999,1256],[999,1340],[999,1423],[999,1507],[999,1591],[53.2,1675],[53.2,1759],[53.2,1844],[53.2,1927],[53.7,2011],[53.7,2097],[53.8,2178],[53.8,2261],[53.8,2346],[53.8,2430],[53.8,2514],[53.8,2597],[53.8,2681],[54,2765],[56,2849],[56.5,2933],[56.5,3016],[57.2,3100],[57.2,3184],[57.2,3268],[57.2,3352],[57.2,3435],[57.2,3520],[57.2,3603],[57.2,3687],[57.2,3771],[57.2,3855],[59.4,3939],[59.4,4022],[59.4,4106],[59.4,4190],[59.4,4273],[59.4,4357],[59.4,4442],[59.4,4525],[60.4,4610],[60.6,4693],[60.7,4776],[60.7,4860],[60.7,4944],[61,5028],[61,5112],[61,5196],[61,5280],[61,5364],[61,5447],[61,5531],[61,5615],[61.7,5699],[61.7,5787],[62.6,5867],[62.6,5950],[62.8,6034],[62.8,6118],[62.8,6202],[63.1,6286],[63.1,6369],[63.5,6453],[63.5,6536],[63.5,6621],[63.5,6705],[63.5,6788],[63.5,6872],[63.5,6956],[63.5,7040],[63.5,7124],[63.5,7207],[63.5,7291],[63.5,7375],[63.9,7460],[68.9,7543],[69.1,7627],[69.1,7710],[69.1,7794],[69.3,7878],[68.2,7962],[68,8046],[68,8129],[67.7,8213],[68.3,8297],[68.9,8385],[69.3,8465],[69.3,8550],[71.3,8632],[71.7,8716],[72.6,8800],[72.6,8884],[72.6,8967],[72.6,9051],[72.6,9135],[72.6,9220],[73.3,9303],[73.3,9388],[73.3,9470],[73.3,9555],[73.3,9638],[73.3,9722],[73.3,9805],[73.3,9890],[73.3,9973],[73.3,10057],[73.3,10141],[79,10225],[79,10308],[79,10393],[79,10477],[80,10560],[80,10644],[80,10728],[80,10812],[80,10896],[80,10979],[80,11063],[80,11147],[80,11231],[81.6,11315],[81.6,11398],[81.6,11482],[81.6,11566],[81.6,11649],[81.6,11733],[81.6,11817],[81.6,11901],[81.6,11984],[81.6,12069],[84.6,12153],[84.6,12236],[84.6,12320],[84.6,12404],[84.6,12488],[84.6,12572],[84.6,12656],[84.6,12739],[84.6,12823],[88.4,12907],[88.4,12990],[88.4,13076],[88.4,13159],[87.2,13243],[87.2,13330],[87.2,13410],[87.2,13493],[87.2,13578],[87.2,13661],[87.2,13746],[87.2,13829],[87.2,13913],[87.8,13998],[87.8,14096],[87.8,14182],[87.8,14265],[87.8,14349],[87.8,14432],[87.8,14516],[87.8,14600],[87.8,14684],[87.8,14768],[88.5,14851],[88.5,14935],[88.5,15019],[88.5,15103],[88.5,15187],[88.7,15271],[89,15358],[89,15438],[89,15522],[89,15606],[89,15689],[89,15774],[89,15857],[89,15941],[89,16025],[89,16108],[89,16192],[89,16277],[90.3,16362],[90.1,16448],[90.1,16529],[90.1,16612],[90.1,16695],[86.8,16779],[86.2,16863],[86.2,16947],[86.2,17031],[83.4,17115],[83.4,17198],[83.4,17282],[83.4,17366],[83.4,17450],[83.4,17534],[83.4,17618],[83.4,17701],[83.4,17785],[83.4,17869],[82.2,17952],[82.2,18036],[82.2,18120],[82.2,18204],[82.2,18289],[82.2,18372],[81.9,18455],[81.9,18540],[81.9,18623],[81.9,18707],[81.9,18791],[81.9,18875],[81.9,18958],[81.2,19045],[81.2,19127],[81.2,19210],[81.2,19293],[81.2,19377],[81.2,19461],[81.2,19545],[84,19630],[84.6,19714],[84.6,19797],[84.6,19880],[84.6,19965],[87.2,20050],[87.2,20133],[87.2,20216],[87.2,20299],[87.9,20383],[87.9,20467],[87.9,20551],[87.9,20634],[88.1,20720],[88.2,20803],[89,20887],[89,20970],[89.7,21054],[89.7,21138],[89.7,21222],[89.7,21305],[89.7,21389],[89.7,21473],[89.7,21556],[89.7,21640],[89.7,21724],[89.7,21809],[89.7,21892],[89.7,21975],[89.7,22059],[89.7,22144],[89.7,22228],[89.7,22311],[89.8,22395],[90.1,22478],[90.1,22563],[90.1,22647],[90.1,22730],[90.1,22814],[90.1,22898],[90.1,22982],[90.1,23066],[90.1,23149],[90.1,23234],[90.3,23317],[90.3,23400],[90.3,23485],[90.3,23569],[90.1,23652],[90.1,23736],[90.1,23819],[90,23904],[90,23988],[88.8,24071],[88.7,24155],[88.7,24239],[88.7,24322],[88.7,24406],[88.7,24490],[88.7,24574],[88.7,24658],[88.7,24742],[88.7,24826]]",1,0,1033.629,1040.5685,85.96776888,2.9769,"[{""rating"":85.96776888134447,""responseTime"":2.976900000095384}]",space,6.4079,0.0002,1040.5689,Definitely yes,100,1040.5878,,,[],,0,7,7,7,1,audio/Narrative7Situation7.wav,audio/Narrative8Situation7.wav,audio/Narrative5Situation7.wav,audio/Narrative6Situation7.wav,5,3,4,5,,,,,,,,,,,,,,,,,,,,,,,,,,,,,,,,,,,,,
,,,,,,615dbec57d764bf5ab0a56e5,2024-05-13_11h33.43.823,group3.1-3.2-social-tom,2023.2.2,Linux x86_64,59.52380952,65c5074098b851296ff0b7ed,664231b2216872e5e067c325,,,,,,,,,,,,,,,,,,,,,,,,,,,,,1040.5891,2,audio/Narrative6Situation8.wav,1045.598,,1045.5982,1052.4372,"[[85.3,1339],[85.3,1423],[85.3,1507],[85.3,1591],[85.3,1675],[85.3,1759],[85.3,1842],[85.3,1926],[85.3,2010],[85.3,2094],[85.3,2179],[85.2,2261],[85.2,2346],[85.2,2430],[79.5,2514],[79.5,2597],[79.5,2681],[79.5,2765],[79.5,2849],[79.5,2932],[79.5,3016],[79.5,3100],[79.5,3184],[79.5,3268],[79.5,3351],[79.5,3435],[79.5,3520],[79.5,3604],[75.5,3687],[75.5,3770],[75.5,3855],[75.5,3938],[75.5,4022],[75.5,4106],[75.5,4189],[75.5,4274],[75.5,4358],[75.5,4441],[75.5,4525],[75.5,4609],[75.5,4692],[75.2,4776],[75.2,4860],[75.2,4944],[75.2,5028],[75.2,5112],[75.2,5195],[75.2,5279],[75.2,5363],[75.2,5446],[73,5530],[73,5614],[73,5698],[73,5782],[71.1,5865],[71.1,5950],[71.1,6034],[71.1,6117],[71.1,6201],[71.1,6285],[71,6368],[71,6453],[71,6537],[71,6621],[70.1,6704],[70.1,6789]]",1,0,1052.4377,1058.5557,24.05779183,3.7646,"[{""rating"":24.057791828347597,""responseTime"":3.7645999999047035}]",space,5.5863,,1058.5559,Definitely yes,100,1058.5614,,,[],,0,8,8,8,1,audio/Narrative7Situation8.wav,audio/Narrative8Situation8.wav,audio/Narrative5Situation8.wav,audio/Narrative6Situation8.wav,2,3,3,5,,,,,,,,,,,,,,,,,,,,,,,,,,,,,,,,,,,,,
,,,,,,615dbec57d764bf5ab0a56e5,2024-05-13_11h33.43.823,group3.1-3.2-social-tom,2023.2.2,Linux x86_64,59.52380952,65c5074098b851296ff0b7ed,664231b2216872e5e067c325,,,,,,,,,,,,,,,,,,,,,,,,,,,,,1058.5623,2,audio/Narrative6Situation9.wav,1062.5788,,1062.5789,1072.5202,"[[999,10],[999,84],[999,167],[999,252],[999,334],[999,419],[999,503],[999,586],[999,670],[999,755],[999,838],[999,921],[999,1006],[999,1089],[999,1173],[51.8,1256],[51.8,1340],[51.8,1424],[51.8,1508],[49,1592],[49,1676],[49,1760],[49,1844],[49,1927],[49,2011],[49,2095],[49,2180],[49,2262],[49,2347],[49,2431],[49,2515],[49,2598],[49,2682],[49,2766],[49,2849],[49,2934],[49,3017],[49,3101],[47.2,3186],[47.2,3268],[47.2,3352],[47.2,3436],[43.6,3522],[42.8,3606],[42.8,3688],[42.8,3771],[42.8,3855],[42,3939],[41.4,4023],[41.4,4107],[41.4,4191],[41.2,4274],[40.9,4358],[40.9,4441],[40.9,4525],[40.8,4610],[40.6,4694],[40.6,4777],[40.6,4860],[40.6,4944],[40.6,5029],[40.6,5113],[40.6,5196],[40.6,5280],[40.6,5364],[40.6,5447],[40.6,5531],[40.6,5615],[40.6,5700],[40.6,5783],[40.6,5867],[40.6,5951],[40.6,6034],[40.6,6119],[40.6,6202],[40.6,6286],[40.6,6370],[40.6,6453],[40.6,6538],[40.6,6621],[33.3,6705],[33.3,6788],[33.3,6872],[33.3,6956],[33.3,7040],[33.3,7124],[33.3,7208],[33.3,7292],[33.3,7376],[33.3,7459],[32.4,7544],[32.4,7627],[32.4,7710],[32.4,7794],[28.2,7879],[27,7963],[27,8046],[27,8130],[27,8214],[27,8297],[27,8382],[27,8465],[27,8549],[27,8632],[27,8716],[25.7,8800],[25.7,8885],[25.7,8968],[22,9052],[18.5,9136],[17.8,9219],[17.8,9303],[17.8,9387],[11.5,9471],[10,9555],[9.7,9639],[9.7,9723],[9.7,9807],[9.7,9890]]",1,0,1072.5208,1076.2077,0.640307836,1.8692,"[{""rating"":0.6403078357996195,""responseTime"":1.8691999998093252}]",space,3.1544,,1076.2114,Definitely yes,100,1076.2146,,,[],,0,9,9,9,1,audio/Narrative7Situation9.wav,audio/Narrative8Situation9.wav,audio/Narrative5Situation9.wav,audio/Narrative6Situation9.wav,2,3,3,4,,,,,,,,,,,,,,,,,,,,,,,,,,,,,,,,,,,,,
,,,,,,615dbec57d764bf5ab0a56e5,2024-05-13_11h33.43.823,group3.1-3.2-social-tom,2023.2.2,Linux x86_64,59.52380952,65c5074098b851296ff0b7ed,664231b2216872e5e067c325,,,,,,,,,,,,,,,,,,,,,,,,,,,,,1076.215,2,audio/Narrative5Situation1.wav,1081.2201,,1081.2204,1094.4976,"[[33.3,504],[33.3,585],[33.3,669],[33.3,754],[33.3,838],[32.3,921],[32.3,1005],[32.3,1089],[32.3,1172],[32.3,1256],[32.3,1340],[30.4,1424],[30.4,1508],[30.4,1592],[30.4,1675],[30.4,1760],[28.8,1844],[28.8,1929],[28.8,2011],[28.3,2095],[28.3,2178],[26.3,2262],[26.3,2346],[26.3,2430],[26.3,2513],[26.3,2598],[26.3,2683],[26.3,2765],[26.3,2849],[26.3,2932],[26.3,3017],[26.3,3100],[26.3,3184],[26.3,3268],[26.3,3351],[26.3,3435],[26.3,3520],[26.3,3604],[26.4,3687],[26.4,3770],[26.4,3855],[26.4,3938],[26.4,4022],[32.9,4107],[32.9,4190],[32.9,4274],[32.9,4358],[32.9,4441],[32.9,4525],[37.7,4610],[37.7,4693],[37.7,4776],[36.3,4861],[36.3,4945],[36.3,5028],[36.3,5112],[32.2,5196],[32.2,5280],[32.2,5363],[32.2,5447],[32.2,5532],[32.2,5615],[32.2,5699],[32.2,5783],[32.2,5867],[32.2,5950],[32.2,6035],[32.2,6118],[32.2,6202],[32.2,6286],[32.2,6370],[32.2,6453],[32.2,6537],[32.2,6620],[32.2,6705],[32.9,6790],[33,6875],[33,6955],[33,7039],[33,7123],[33.9,7208],[34.5,7291],[34.5,7375],[34.5,7459],[34.5,7543],[40.8,7626],[40.9,7711],[40.9,7794],[40.9,7877],[40.9,7961],[40.9,8046],[40.9,8130],[40.9,8213],[40.9,8297],[40.9,8380],[40.5,8465],[36.8,8550],[36.3,8634],[36.3,8716],[35.8,8801],[35.8,8884],[35.8,8968],[34.9,9052],[32.6,9135],[32.6,9219],[31.1,9303],[31.1,9387],[31.1,9471],[31.1,9555],[31.1,9638],[31.1,9722],[31.1,9806],[31.1,9889],[31.1,9974],[31.1,10057],[31.1,10141],[31.1,10225],[31.1,10309],[31.1,10393],[31.1,10476],[31.1,10560],[31.1,10644],[31.1,10728],[31.1,10812],[31.1,10895],[31.1,10979],[31.1,11063],[31.1,11146],[31.1,11231],[31.1,11315],[31.1,11398],[31.1,11482],[31.1,11566],[31.1,11649],[31.1,11734],[31.1,11817],[31.1,11901],[31.1,11985],[31.1,12070],[31.1,12154],[31.1,12237],[31.1,12321],[31.1,12405],[31.1,12488],[31.1,12571],[31.1,12656],[31.1,12739],[31.1,12824],[31.1,12907],[31.1,12991],[31.1,13076],[31.1,13159],[31.1,13243]]",1,0,1094.4986,1098.1514,25.37502524,1.8253,"[{""rating"":25.375025240117843,""responseTime"":1.8253000001907367}]",space,3.1262,,1098.1516,Definitely yes,100,1098.1558,,,[],,0,10,10,10,1,audio/Narrative8Situation1.wav,audio/Narrative7Situation1.wav,audio/Narrative6Situation1.wav,audio/Narrative5Situation1.wav,5,2,2,5,,,,,,,,,,,,,,,,,,,,,,,,,,,,,,,,,,,,,
,,,,,,615dbec57d764bf5ab0a56e5,2024-05-13_11h33.43.823,group3.1-3.2-social-tom,2023.2.2,Linux x86_64,59.52380952,65c5074098b851296ff0b7ed,664231b2216872e5e067c325,,,,,,,,,,,,,,,,,,,,,,,,,,,,,1098.157,2,audio/Narrative5Situation2.wav,1101.1708,,1101.171,1130.6399,"[[25,81],[25.1,165],[25.1,248],[25.1,332],[25.1,416],[25.4,500],[25.4,584],[25.4,668],[25.4,751],[25.4,835],[25.4,919],[25.4,1003],[25.4,1087],[25.4,1171],[25.4,1254],[25.4,1338],[25.4,1422],[25.4,1506],[25.4,1590],[25.4,1674],[25.4,1758],[25.4,1841],[25.4,1925],[25.4,2009],[25.4,2093],[25.4,2176],[25.4,2260],[28.5,2345],[28.5,2427],[28.5,2512],[28.5,2595],[28.5,2679],[28.5,2763],[28.5,2847],[28.5,2931],[28.5,3015],[28.5,3098],[28.5,3182],[28.5,3266],[28.5,3349],[28.5,3434],[28.5,3517],[28.5,3601],[28.5,3685],[28.5,3769],[28.5,3852],[28.5,3937],[28.5,4021],[28.5,4104],[26.4,4188],[26.4,4271],[26.4,4355],[22.9,4439],[22.9,4523],[22.9,4607],[22.9,4691],[22.9,4775],[22.9,4859],[22.9,4943],[22.9,5027],[22.9,5110],[22.9,5194],[22.9,5278],[22.9,5362],[22.9,5446],[22.9,5530],[22.9,5613],[22.9,5697],[22.9,5781],[22.9,5865],[22.9,5948],[22.9,6032],[22.9,6116],[22.9,6200],[22.9,6284],[22.9,6367],[22.9,6451],[22.9,6534],[22.9,6618],[22.9,6703],[22.9,6786],[22.9,6870],[22.9,6954],[22.9,7038],[22.9,7121],[22.9,7206],[22.9,7289],[22.9,7373],[22.9,7457],[22.9,7541],[22.9,7625],[22.9,7709],[22.9,7792],[22.9,7876],[22.9,7960],[22.9,8043],[22.9,8128],[22.9,8211],[22.9,8295],[22.9,8380],[22.9,8463],[22.9,8546],[22.9,8631],[22.9,8714],[22.9,8798],[22.9,8882],[22.9,8965],[22.9,9050],[22.9,9134],[22.9,9217],[22.9,9301],[22.9,9385],[22.9,9469],[22.9,9553],[22.9,9636],[22.9,9720],[22.9,9804],[22.9,9888],[22.9,9971],[22.9,10056],[22.9,10139],[22.9,10224],[22.9,10307],[22.9,10391],[22.9,10474],[22.9,10558],[22.9,10643],[22.9,10726],[22.9,10810],[22.9,10894],[22.9,10977],[22.9,11061],[22.9,11144],[22.9,11229],[22.9,11313],[22.9,11396],[22.9,11481],[22.9,11564],[22.9,11648],[22.9,11732],[22.9,11816],[23.5,11906],[23.5,11985],[23.5,12067],[23.5,12151],[23.5,12235],[24.2,12319],[24.2,12403],[24.2,12486],[24.2,12571],[24.2,12654],[24.2,12737],[24.2,12822],[24.2,12906],[24.2,12989],[24.2,13073],[24.2,13157],[24.2,13240],[24.2,13325],[24.2,13408],[24.2,13492],[28.6,13576],[28.6,13660],[28.6,13744],[28.6,13828],[29.7,13911],[29.8,13995],[29.8,14079],[29.8,14162],[29.8,14246],[29.8,14330],[29.8,14414],[29.8,14498],[29.8,14582],[29.8,14665],[29.8,14749],[29.8,14833],[29.8,14917],[29.8,15001],[29.8,15085],[29.8,15167],[29.8,15252],[29.8,15336],[29.8,15420],[29.8,15503],[29.8,15587],[29.8,15671],[30,15755],[30.2,15839],[30.2,15922],[30.2,16006],[30.2,16090],[32.4,16174],[32.4,16258],[32.4,16342],[32.4,16426],[32.4,16509],[32.4,16593],[32.4,16677],[32.4,16761],[32.4,16845],[32.4,16928],[32.4,17012],[32.4,17096],[32.4,17180],[32.4,17264],[32.4,17347],[32.6,17432],[32.6,17516],[32.6,17599],[32.6,17683],[32.6,17767],[32.6,17851],[32.6,17934],[35.4,18018],[35.4,18101],[35.4,18185],[35.4,18269],[35.4,18353],[35.4,18437],[35.4,18521],[35.4,18605],[35.4,18688],[35.4,18772],[35.4,18856],[35.4,18941],[35.4,19024],[35.4,19107],[35.4,19191],[35.4,19275],[35.4,19359],[35.4,19443],[35.4,19527],[35.4,19611],[35.4,19695],[35.4,19779],[35.4,19862],[37.3,19945],[37.3,20030],[37.3,20113],[37.3,20197],[56.3,20281],[56.3,20369],[56.3,20448],[56.3,20533],[59.4,20617],[60.9,20703],[60.9,20785],[60.9,20868],[60.9,20952],[61.1,21035],[61.1,21120],[61.1,21204],[61.1,21288],[61.1,21371],[62,21455],[63.9,21538],[63.9,21623],[63.9,21706],[63.9,21790],[66.7,21874],[67.7,21957],[67.7,22041],[67.7,22125],[67.7,22209],[70.4,22293],[71,22377],[71,22460],[71,22544],[74.2,22628],[74.2,22714],[74.5,22797],[75.5,22879],[75.5,22963],[76.5,23047],[76.5,23131],[76.5,23215],[76.5,23299],[76.5,23383],[76.5,23466],[77.8,23551],[79.3,23636],[79.3,23717],[79.3,23801],[79.3,23885],[80.3,23972],[80.3,24053],[80.3,24136],[80.8,24220],[80.9,24305],[81.4,24395],[81.5,24475],[81.8,24556],[81.8,24639],[81.8,24724],[81.8,24808],[81.8,24892],[81.8,24975],[81.8,25060],[81.9,25142],[82.8,25226],[82.8,25310],[83.3,25394],[83.4,25478],[83.4,25562],[83.4,25646],[83.4,25729],[83.4,25813],[83.7,25898],[83.8,25982],[84.4,26067],[84.4,26149],[84.4,26232],[84.4,26316],[84.4,26400],[84.4,26483],[85,26569],[86.2,26654],[86.2,26736],[86.2,26819],[86.2,26903],[86.2,26987],[86.2,27071],[86.2,27154],[86.2,27238],[86.2,27322],[86.2,27406],[86.2,27490],[86.2,27573],[86.2,27658],[86.2,27741],[86.2,27825],[86.2,27908],[87.8,27992],[88.4,28077],[88.4,28160],[88.4,28243],[88.5,28328],[89.1,28412],[89.8,28497],[89.8,28579],[89.8,28663],[89.8,28747],[89.8,28831],[89.8,28914],[89.8,28999],[89.8,29082],[89.8,29166],[89.8,29250],[89.8,29334],[89.8,29417]]",1,0,1130.6405,1134.9324,94.01751969,1.8592,"[{""rating"":94.01751968687962,""responseTime"":1.8591999998093343}]",space,3.7604,,1134.9327,Partially,50,1148.4756,50.10973929,6.6249,"[{""rating"":50.10973929453827,""responseTime"":6.624899999857007}]",space,0,11,11,11,1,audio/Narrative8Situation2.wav,audio/Narrative7Situation2.wav,audio/Narrative6Situation2.wav,audio/Narrative5Situation2.wav,3,3,3,3,,,13.0108,,,,,,,,,,,,,,,,,,,,,,,,,,,,,,,,,,
,,,,,,615dbec57d764bf5ab0a56e5,2024-05-13_11h33.43.823,group3.1-3.2-social-tom,2023.2.2,Linux x86_64,59.52380952,65c5074098b851296ff0b7ed,664231b2216872e5e067c325,,,,,,,,,,,,,,,,,,,,,,,,,,,,,1148.486,2,audio/Narrative5Situation3.wav,1151.4935,,1151.4937,1165.4088,"[[999,11],[999,82],[999,167],[999,250],[999,335],[999,418],[999,501],[999,586],[999,670],[999,753],[999,837],[999,921],[999,1004],[999,1088],[999,1172],[999,1255],[999,1340],[999,1424],[999,1508],[999,1592],[999,1675],[999,1759],[999,1842],[999,1926],[55.6,2011],[55.6,2094],[55.6,2178],[55.1,2261],[55.1,2346],[55.1,2430],[55.1,2514],[55.1,2597],[55.1,2681],[55.1,2765],[55.3,2850],[55.9,2932],[55.9,3015],[55.9,3100],[55.9,3184],[55.9,3268],[55.9,3352],[55.9,3435],[55.9,3519],[55.9,3602],[55.9,3686],[55.9,3771],[55.9,3854],[55.9,3938],[55.9,4022],[55.9,4106],[55.9,4190],[55.9,4274],[62.8,4357],[62.8,4441],[62.8,4524],[62.8,4608],[62.8,4692],[62.8,4776],[62.8,4860],[62.8,4944],[62.8,5028],[62.8,5111],[62.8,5196],[62.8,5280],[62.8,5363],[62.8,5447],[62.8,5531],[62.8,5614],[63.5,5700],[63.5,5783],[63.5,5866],[63.5,5949],[63.5,6034],[63.5,6117],[63.5,6202],[63.5,6285],[66.7,6369],[66.7,6453],[66.7,6537],[66.7,6621],[66.7,6704],[66.7,6787],[66.7,6871],[66.7,6955],[66.7,7039],[66.7,7123],[66.9,7207],[67,7291],[67,7375],[67,7459],[71,7543],[71.1,7626],[71.1,7710],[71.1,7794],[71.1,7878],[71.1,7962],[71.1,8045],[71.1,8129],[71.1,8213],[71.1,8297],[71.1,8380],[71.1,8464],[75.9,8549],[75.9,8632],[76.1,8715],[76.1,8799],[76.1,8883],[76.1,8967],[76.1,9052],[76.1,9135],[76.1,9219],[76.1,9302],[76.1,9386],[76.1,9470],[76.1,9554],[76.1,9638],[76.1,9723],[76.1,9805],[76.1,9890],[76.1,9973],[76.1,10057],[76.1,10140],[76.1,10225],[76.1,10308],[76.1,10392],[76.1,10475],[76.1,10559],[76.1,10643],[76.1,10727],[76.2,10812],[76.4,10898],[76.4,10979],[76.4,11062],[76.4,11147],[76.4,11230],[76.4,11314],[76.4,11399],[76.4,11481],[76.4,11566],[76.4,11649],[76.4,11734],[76.4,11817],[76.4,11902],[76.4,11985],[76.4,12069],[76.4,12153],[76.4,12236],[77,12321],[77.1,12404],[77.1,12488],[77.1,12571],[77.1,12655],[77.1,12739],[77.1,12823],[77.1,12907],[77.1,12990],[77.4,13074],[78.1,13159],[78.3,13243],[78.3,13329],[78.3,13410],[78.3,13493],[78.3,13577],[78.3,13660],[78.3,13745],[78.4,13829],[78.4,13913]]",1,0,1165.4092,1283.0213,69.42916267,2.4395,"[{""rating"":69.42916266716846,""responseTime"":2.4394999999999527}]",space,117.0811,,1283.0216,Not at all,0,1283.0438,,,[],,0,12,12,12,1,audio/Narrative8Situation3.wav,audio/Narrative7Situation3.wav,audio/Narrative6Situation3.wav,audio/Narrative5Situation3.wav,4,8,5,3,,,,,,,,,,,,,,,,,,,,,,,,,,,,,,,,,,,,,
,,,,,,615dbec57d764bf5ab0a56e5,2024-05-13_11h33.43.823,group3.1-3.2-social-tom,2023.2.2,Linux x86_64,59.52380952,65c5074098b851296ff0b7ed,664231b2216872e5e067c325,,,,,,,,,,,,,,,,,,,,,,,,,,,,,1283.0444,2,audio/Narrative5Situation4.wav,1284.0601,,1284.0602,1304.4445,"[[70.7,83],[64.7,837],[62.5,921],[61.7,1005],[61.7,1090],[60.9,1173],[61.6,1257],[61.7,1340],[61.7,1424],[65.1,1508],[65.1,1591],[65.1,1675],[65.1,1759],[65.1,1843],[65.1,1926],[65.1,2010],[65.1,2094],[65.1,2179],[65.1,2262],[65.1,2346],[65.1,2430],[65.1,2514],[65.1,2597],[65.1,2681],[65.1,2765],[65.1,2849],[65.1,2932],[65.1,3016],[65.1,3100],[65.1,3184],[65.1,3268],[65.1,3352],[65.1,3435],[65.1,3519],[65.1,3603],[65.1,3687],[65.2,3770],[65.2,3855],[65.4,3939],[66.6,4023],[66.7,4106],[67.2,4190],[68.5,4276],[68.8,4359],[68.8,4441],[68.8,4525],[68.8,4609],[68.8,4693],[68.8,4777],[68.8,4861],[68.8,4944],[68.8,5028],[68.8,5111],[68.8,5196],[68.8,5279],[68.8,5364],[68.8,5447],[68.8,5531],[72.4,5616],[72.4,5699],[72.4,5782],[72.6,5866],[73.4,5951],[73.4,6034],[74,6117],[74,6202],[74.8,6286],[75.4,6369],[75.5,6453],[76.5,6538],[77.5,6621],[78.7,6705],[79,6788],[80.8,6872],[80.9,6956],[80.9,7039],[80.9,7123],[80.9,7208],[80.9,7291],[80.9,7375],[80.9,7459],[80.9,7543],[80.8,7627],[78.9,7713],[78,7796],[74.5,7878],[74.5,7961],[64.2,8046],[64.2,8130],[64.2,8213],[64.2,8297],[64.2,8381],[64.2,8465],[64.2,8549],[64.2,8632],[53.8,8717],[53.5,8801],[52.5,8885],[50.5,8968],[50.5,9052],[48.7,9135],[48.7,9218],[48.7,9303],[48.7,9387],[48.7,9470],[48.7,9555],[48.7,9638],[46.2,9722],[46.2,9806],[46.2,9890],[46.2,9974],[46.2,10057],[46.2,10141],[46.2,10225],[49,10309],[49,10394],[59.8,10477],[59.8,10562],[59.8,10644],[59.8,10729],[59.8,10812],[59.8,10896],[59.8,10979],[59.8,11064],[60.1,11147],[61.3,11231],[62.3,11315],[62.3,11399],[63.5,11483],[64.1,11567],[64.1,11650],[64.1,11734],[64.1,11817],[65.1,11902],[65.2,11987],[65.2,12069],[65.5,12155],[65.7,12240],[66,12322],[66.1,12405],[66.1,12488],[67.2,12572],[67.3,12655],[67.3,12740],[67.3,12825],[67.3,12907],[67.3,12991],[67.3,13075],[67.3,13159],[67.3,13242],[69.6,13327],[69.6,13411],[69.6,13494],[69.6,13578],[69.6,13662],[69.6,13745],[69.6,13829],[69.6,13913],[71,13997],[71.4,14081],[71.4,14164],[71.4,14248],[71.8,14332],[71.8,14416],[71.8,14500],[71.8,14584],[71.8,14667],[71.8,14751],[72,14835],[72,14919],[72,15003],[72,15086],[72,15170],[72,15254],[72,15338],[72,15422],[72,15505],[72,15589],[72,15673],[72,15757],[72,15841],[72,15925],[72,16009],[72,16092],[72,16176],[72,16260],[71.8,16344],[70.7,16427],[70.7,16512],[70.7,16595],[70.7,16679],[69.8,16765],[68.9,16849],[68.9,16930],[68.9,17014],[68.9,17098],[67.7,17182],[67.7,17266],[67.7,17349],[67.7,17434],[67.9,17519],[70.2,17603],[70.8,17686],[70.8,17770],[70.8,17853],[72.3,17937],[72.7,18020],[73,18104],[73,18187],[73,18272],[73,18355],[73,18440],[73,18523],[73,18607],[73,18690],[73,18774],[73,18858],[73,18942],[75.1,19026],[75.5,19110],[76.1,19196],[76.1,19277],[76.1,19361],[76.2,19445],[76.2,19528],[76.2,19613],[76.2,19696],[76.2,19780],[76.2,19864],[76.2,19949],[76.2,20032],[76.2,20115],[76.2,20199],[76.2,20283],[76.2,20367]]",1,0,1304.445,1309.2054,74.11266818,2.6953,"[{""rating"":74.11266817541232,""responseTime"":2.69529999995234}]",space,4.231,,1309.2055,Partially,50,1309.2121,,,[],,0,13,13,13,1,audio/Narrative8Situation4.wav,audio/Narrative7Situation4.wav,audio/Narrative6Situation4.wav,audio/Narrative5Situation4.wav,3,3,2,1,,,,,,,,,,,,,,,,,,,,,,,,,,,,,,,,,,,,,
