exp_question,consent.started,consent.stopped,consentResponse.keys,consentResponse.rt,consentResponse.duration,participantID,date,expName,psychopyVersion,OS,frameRate,STUDY_ID,SESSION_ID,opening1.started,opening1.stopped,keyEndingOpening1.keys,keyEndingOpening1.rt,keyEndingOpening1.duration,volumeAdjust.started,volumeAdjust.stopped,endingAdjust.keys,endingAdjust.rt,endingAdjust.duration,opening2.started,opening2.stopped,keyEndingOpening.keys,keyEndingOpening.rt,keyEndingOpening.duration,mouse.x,mouse.y,mouse.leftButton,mouse.midButton,mouse.rightButton,mouse.time,instructionLoop.thisRepN,instructionLoop.thisTrialN,instructionLoop.thisN,instructionLoop.thisIndex,instructionLoop.ran,readyForAudio.started,readyForAudio.stopped,fixation.started,run,audio_played,fixation.stopped,endPractice.keys,audioPre.started,audioPre.stopped,continuousResponses_audio,continuousSlider.response,continuousSlider.rt,intRating.started,intRating.stopped,intQuestionSlider.response,intQuestionSlider.rt,intQuestionSlider.history,confirmResponse.keys,confirmResponse.rt,confirmResponse.duration,catchQuestion.started,catch_label,catch_value,catchQuestion.stopped,catchQuestionSlider.response,catchQuestionSlider.rt,catchQuestionSlider.history,confirmResponse_2.keys,audioRunLoop.thisRepN,audioRunLoop.thisTrialN,audioRunLoop.thisN,audioRunLoop.thisIndex,audioRunLoop.ran,conditions1_1,conditions2_1,conditions1_2,conditions2_2,dur1_1,dur2_1,dur1_2,dur2_2,endPractice.rt,endPractice.duration,confirmResponse_2.rt,confirmResponse_2.duration,runIntervalBreak.started,runIntervalBreak.stopped,endingBreakKey.keys,endingBreakKey.rt,endingBreakKey.duration,connection.started,connection.stopped,connectionEnding.keys,connectionEnding.rt,connectionEnding.duration,readyForText.started,readyForText.stopped,textPre.started,run_dup,textPre.stopped,continuousResponses_text,textRunLoop.thisRepN,textRunLoop.thisTrialN,textRunLoop.thisN,textRunLoop.thisIndex,textRunLoop.ran,text1_1,text1_2,text2_1,text2_2,runBreakText.started,runBreakText.stopped,endingBreakKey_2.keys,endingBreakKey_2.rt,endingBreakKey_2.duration,ending.started,ending.stopped,endingEnding.keys,endingEnding.rt,endingEnding.duration
social,0,10.407,y,10.071,,62827483ae4c6af3f0af9bce,2024-05-13_11h24.04.023,group3.1-3.2-social-tom,2023.2.2,Win32,60.0240096,65c5074098b851296ff0b7ed,6642307a2a47e004653066ab,,,,,,,,,,,,,,,,,,,,,,,,,,,,,,,,,,,,,,,,,,,,,,,,,,,,,,,,,,,,,,,,,,,,,,,,,,,,,,,,,,,,,,,,,,,,,,,,,,,,,,,,,,
,,,,,,62827483ae4c6af3f0af9bce,2024-05-13_11h24.04.023,group3.1-3.2-social-tom,2023.2.2,Win32,60.0240096,65c5074098b851296ff0b7ed,6642307a2a47e004653066ab,10.407,14.417,space,3.943,,,,,,,,,,,,,,,,,,,,,,,,,,,,,,,,,,,,,,,,,,,,,,,,,,,,,,,,,,,,,,,,,,,,,,,,,,,,,,,,,,,,,,,,,,,,,,,,,,,,,,
,,,,,,62827483ae4c6af3f0af9bce,2024-05-13_11h24.04.023,group3.1-3.2-social-tom,2023.2.2,Win32,60.0240096,65c5074098b851296ff0b7ed,6642307a2a47e004653066ab,,,,,,14.418,30.75,space,16.004,,,,,,,,,,,,,,,,,,,,,,,,,,,,,,,,,,,,,,,,,,,,,,,,,,,,,,,,,,,,,,,,,,,,,,,,,,,,,,,,,,,,,,,,,,,,,,,,,
,,,,,,62827483ae4c6af3f0af9bce,2024-05-13_11h24.04.023,group3.1-3.2-social-tom,2023.2.2,Win32,60.0240096,65c5074098b851296ff0b7ed,6642307a2a47e004653066ab,,,,,,,,,,,30.765,38.974,space,8.176,,[],[],[],[],[],[],0,0,0,0,1,,,,,,,,,,,,,,,,,,,,,,,,,,,,,,,,,,,,,,,,,,,,,,,,,,,,,,,,,,,,,,,,,,,,,,,,,,,,,,,,
,,,,,,62827483ae4c6af3f0af9bce,2024-05-13_11h24.04.023,group3.1-3.2-social-tom,2023.2.2,Win32,60.0240096,65c5074098b851296ff0b7ed,6642307a2a47e004653066ab,,,,,,,,,,,38.98,56.302,space,17.14,,[],[],[],[],[],[],1,0,1,0,1,,,,,,,,,,,,,,,,,,,,,,,,,,,,,,,,,,,,,,,,,,,,,,,,,,,,,,,,,,,,,,,,,,,,,,,,,,,,,,,,
,,,,,,62827483ae4c6af3f0af9bce,2024-05-13_11h24.04.023,group3.1-3.2-social-tom,2023.2.2,Win32,60.0240096,65c5074098b851296ff0b7ed,6642307a2a47e004653066ab,,,,,,,,,,,56.303,66.782,space,10.366,,[],[],[],[],[],[],2,0,2,0,1,,,,,,,,,,,,,,,,,,,,,,,,,,,,,,,,,,,,,,,,,,,,,,,,,,,,,,,,,,,,,,,,,,,,,,,,,,,,,,,,
,,,,,,62827483ae4c6af3f0af9bce,2024-05-13_11h24.04.023,group3.1-3.2-social-tom,2023.2.2,Win32,60.0240096,65c5074098b851296ff0b7ed,6642307a2a47e004653066ab,,,,,,,,,,,66.787,79.014,space,12.165,,[],[],[],[],[],[],3,0,3,0,1,,,,,,,,,,,,,,,,,,,,,,,,,,,,,,,,,,,,,,,,,,,,,,,,,,,,,,,,,,,,,,,,,,,,,,,,,,,,,,,,
,,,,,,62827483ae4c6af3f0af9bce,2024-05-13_11h24.04.023,group3.1-3.2-social-tom,2023.2.2,Win32,60.0240096,65c5074098b851296ff0b7ed,6642307a2a47e004653066ab,,,,,,,,,,,79.018,92.549,space,13.493,,[],[],[],[],[],[],4,0,4,0,1,,,,,,,,,,,,,,,,,,,,,,,,,,,,,,,,,,,,,,,,,,,,,,,,,,,,,,,,,,,,,,,,,,,,,,,,,,,,,,,,
,,,,,,62827483ae4c6af3f0af9bce,2024-05-13_11h24.04.023,group3.1-3.2-social-tom,2023.2.2,Win32,60.0240096,65c5074098b851296ff0b7ed,6642307a2a47e004653066ab,,,,,,,,,,,,,,,,,,,,,,,,,,,92.554,95.131,95.163,1,audio/Narrative13Situation2.wav,97.166,,97.167,126.932,"[[999,4],[999,207],[999,286],[999,375],[999,465],[999,546],[999,631],[999,713],[999,796],[999,881],[999,963],[999,1048],[999,1129],[999,1213],[999,1296],[999,1379],[999,1463],[999,1546],[999,1631],[999,1712],[999,1796],[999,1881],[999,1963],[999,2046],[999,2129],[999,2212],[999,2298],[999,2381],[999,2465],[999,2548],[999,2631],[36.7,2715],[46.1,2798],[49.6,2882],[53.1,2965],[54.6,3048],[55.1,3132],[57.8,3213],[60.5,3298],[61.5,3382],[61.7,3463],[61.7,3546],[61.7,3629],[62.8,3715],[63.4,3798],[64.7,3882],[66.4,3965],[68.8,4046],[70.3,4132],[72.4,4215],[78.1,4298],[86.2,4381],[88.5,4465],[89.1,4546],[88.3,4632],[88,4713],[88,4798],[88.8,4882],[91.8,4965],[94,5048],[95.1,5138],[96.6,5215],[99.2,5298],[100,5382],[100,5462],[100,5546],[100,5631],[100,5713],[100,5796],[100,5881],[100,5963],[100,6046],[100,6129],[100,6213],[100,6298],[100,6379],[100,6463],[100,6548],[100,6631],[100,6712],[100,6796],[100,6879],[100,6963],[100,7046],[100,7129],[100,7213],[100,7298],[100,7381],[100,7463],[100,7548],[100,7631],[100,7713],[100,7798],[100,7882],[99.7,7965],[99.3,8046],[99.2,8131],[99.2,8213],[98.8,8296],[98.7,8379],[98.7,8463],[98.7,8548],[100,8632],[100,8715],[100,8796],[100,8879],[100,8963],[100,9048],[100,9129],[100,9213],[100,9296],[100,9381],[100,9463],[100,9546],[100,9631],[100,9713],[100,9796],[100,9879],[100,9963],[100,10046],[100,10131],[100,10213],[100,10296],[100,10381],[100,10463],[100,10546],[100,10629],[100,10713],[100,10798],[100,10879],[100,10963],[100,11051],[100,11132],[100,11215],[100,11299],[100,11381],[100,11465],[98.8,11548],[94.9,11632],[91,11715],[89.7,11798],[89.2,11882],[88.4,11965],[87.2,12048],[86.8,12131],[86.2,12215],[85.7,12298],[85.3,12382],[84.8,12463],[84.8,12546],[84.8,12631],[84.8,12715],[84.8,12798],[84.5,12882],[84.1,12963],[84,13048],[83.6,13132],[83.5,13213],[83.5,13296],[83.1,13381],[82.7,13465],[82.7,13548],[82.7,13631],[83.6,13715],[93.5,13798],[98.4,13882],[100,13965],[100,14046],[100,14129],[100,14213],[100,14298],[100,14381],[100,14463],[100,14546],[100,14631],[100,14713],[99.7,14798],[99.5,14881],[99.5,14963],[99.5,15048],[99.2,15132],[98.8,15215],[98.8,15296],[98.8,15381],[98.8,15463],[98.8,15546],[98.8,15631],[98.8,15713],[98.8,15798],[97.1,15885],[94.4,15965],[93.2,16048],[91.9,16131],[91.1,16213],[89.8,16298],[88.8,16382],[87.8,16465],[86.7,16548],[86.5,16631],[85.9,16714],[85.7,16798],[85.5,16882],[85.5,16962],[85.5,17046],[85.5,17131],[85.2,17214],[84.8,17298],[84.4,17381],[84.2,17465],[83.6,17546],[82.4,17632],[81,17714],[79.2,17798],[78,17881],[76.4,17965],[75.5,18046],[75.5,18131],[75.5,18214],[75.5,18298],[70.1,18381],[62.8,18463],[57.6,18548],[51.3,18631],[44.9,18725],[42.1,18797],[38.8,18881],[36.8,18964],[35.5,19047],[35.2,19130],[35.8,19214],[35.8,19298],[34,19381],[33.2,19463],[33.1,19547],[31.8,19631],[31.1,19714],[31.1,19797],[31.1,19880],[31.1,19963],[31.1,20047],[31.1,20130],[31.1,20213],[31.1,20297],[31.1,20380],[31.1,20463],[31.1,20547],[31.1,20630],[31.1,20713],[29.6,20797],[28.3,20881],[27.9,20964],[26.8,21048],[25.5,21130],[25,21213],[25,21297],[25,21380],[25,21464],[25,21547],[25,21630],[24.7,21713],[24.7,21797],[24.7,21880],[27.2,21964],[72.9,22131],[76,22214],[76.7,22297],[76.8,22380],[77.6,22465],[81.5,22547],[84.1,22631],[85.7,22714],[86.2,22797],[86.3,22881],[86.3,22963],[86.3,23047],[86.3,23130],[86.3,23214],[86.3,23297],[86.3,23380],[86.3,23501],[86.3,23581],[86.3,23665],[86.3,23748],[86.3,23831],[86.3,23914],[86.3,23997],[86.3,24081],[86.3,24164],[90.9,24248],[93,24332],[93.4,24415],[93,24498],[87.8,24582],[76,24666],[70.3,24748],[64.3,24832],[56.4,24915],[51.6,24998],[50.3,25081],[50,25164],[50,25248],[50,25330],[50,25414],[50,25498],[49.9,25580],[49.9,25665],[50,25747],[50.3,25831],[50.3,25914],[50.1,25997],[45.4,26083],[39.1,26165],[36.5,26248],[35.7,26332],[33.9,26416],[32.4,26499],[31.9,26582],[31.8,26665],[31.8,26747],[31.8,26831],[31.8,26914],[31.8,26998],[30.5,27082],[29.6,27164],[29.2,27248],[27.9,27332],[27.1,27414],[26.6,27498],[26.6,27582],[25.8,27665],[24.7,27749],[23,27832],[22,27916],[21.2,27999],[21.1,28081],[21.1,28165],[21.1,28247],[21.1,28331],[21,28414],[21,28497],[20.2,28581],[19.9,28664],[19.7,28747],[19.7,28831],[19.7,28915],[19.7,28997],[19.8,29081],[19.8,29164],[19.9,29247],[20.1,29331],[20.1,29415],[20.1,29499],[20.1,29581],[20.1,29664],[20.1,29747]]",1,0,126.933,132.217,79.296875,3.544,"[{""rating"":79.296875,""responseTime"":3.544000000000011}]",space,4.736,,132.217,Partially,50,132.24,,,[],,0,0,0,0,1,audio/Narrative13Situation2.wav,audio/Narrative13Situation2.wav,audio/Narrative13Situation2.wav,audio/Narrative13Situation2.wav,2,2,2,2,,,,,,,,,,,,,,,,,,,,,,,,,,,,,,,,,,,,,,,
,,,,,,62827483ae4c6af3f0af9bce,2024-05-13_11h24.04.023,group3.1-3.2-social-tom,2023.2.2,Win32,60.0240096,65c5074098b851296ff0b7ed,6642307a2a47e004653066ab,,,,,,,,,,,,,,,,,,,,,,,,,,,,,132.241,1,audio/Narrative8Situation1.wav,133.866,space,133.867,149.8,"[[999,4],[999,97],[999,181],[999,263],[999,347],[999,430],[999,515],[999,598],[999,681],[999,764],[999,847],[999,931],[999,1013],[999,1099],[999,1181],[999,1264],[999,1348],[999,1430],[999,1518],[999,1597],[999,1680],[999,1763],[999,1847],[49.9,1931],[49.9,2015],[49.9,2099],[49.9,2180],[49.9,2264],[49.9,2347],[49.9,2430],[49.9,2514],[49.9,2597],[49.9,2681],[49.9,2764],[49.9,2847],[49.9,2930],[49.9,3014],[49.9,3097],[49.9,3180],[49.9,3263],[51.8,3347],[57.2,3432],[58.6,3514],[59,3597],[59,3680],[59.1,3771],[59.2,3847],[59.2,3930],[59.2,4013],[59.2,4097],[59.2,4181],[59.2,4263],[59.2,4350],[59.2,4430],[59.2,4513],[59.2,4597],[59.2,4680],[59.2,4764],[59.8,4848],[60.3,4930],[61.1,5015],[62,5098],[62.8,5182],[63.3,5264],[63.8,5348],[64.5,5431],[64.8,5515],[65.4,5597],[66,5680],[66.7,5765],[67.4,5848],[68,5931],[68.5,6015],[68.9,6098],[69,6180],[69.3,6264],[69.5,6347],[69.7,6432],[70.3,6513],[70.6,6597],[71,6681],[72.5,6765],[74.6,6895],[74.7,6975],[74.7,7048],[74.7,7131],[74.7,7213],[74.7,7298],[74.7,7381],[74.7,7465],[74.7,7548],[74.7,7631],[74.7,7713],[74.7,7798],[74.7,7881],[74.7,7965],[74.7,8048],[74.7,8131],[74.7,8215],[74.7,8298],[74.7,8381],[74.7,8465],[74.7,8548],[74.7,8632],[74.7,8713],[74.7,8798],[74.7,8881],[74.7,8965],[74.7,9046],[74.7,9131],[74.7,9213],[74.7,9298],[74.7,9381],[74.7,9465],[74.7,9548],[74.7,9631],[74.7,9713],[74.7,9798],[74.7,9881],[74.7,9965],[74.7,10046],[74.7,10131],[74.7,10215],[74.7,10296],[74.7,10381],[74.7,10465],[78.4,10549],[81,10632],[81.6,10715],[81.8,10798],[81.8,10882],[81.8,10963],[81.8,11048],[81.8,11131],[81.8,11213],[81.8,11298],[81.8,11381],[81.8,11465],[81.8,11548],[81.8,11631],[81.8,11715],[81.8,11798],[81.8,11888],[81.8,11965],[81.8,12048],[82.7,12132],[83.6,12216],[83.6,12298],[83.6,12381],[83.6,12465],[83.6,12548],[83.6,12632],[83.6,12715],[83.6,12798],[83.6,12881],[83.6,12963],[83.6,13048],[83.6,13131],[83.6,13215],[83.6,13298],[83.6,13381],[83.6,13465],[83.6,13548],[83.6,13631],[83.6,13715],[83.6,13796],[83.6,13881],[83.6,13965],[83.6,14048],[83.6,14132],[83.6,14213],[83.6,14298],[83.6,14381],[83.6,14465],[83.6,14548],[83.6,14631],[83.6,14715],[83.6,14798],[83.6,14881],[83.6,14965],[83.6,15048],[83.6,15131],[83.6,15215],[83.6,15298],[83.6,15382],[83.6,15465],[83.6,15548],[83.6,15631],[83.6,15713],[83.6,15798],[83.6,15881]]",1,0,149.801,153.6,77.86458333,2.794,"[{""rating"":77.86458333333333,""responseTime"":2.7939999999999827}]",space,3.251,,153.6,Not at all,0,153.61,,,[],,0,1,1,1,1,audio/Narrative7Situation1.wav,audio/Narrative8Situation1.wav,audio/Narrative5Situation1.wav,audio/Narrative6Situation1.wav,2,5,5,2,1.59,,,,,,,,,,,,,,,,,,,,,,,,,,,,,,,,,,,,,,
,,,,,,62827483ae4c6af3f0af9bce,2024-05-13_11h24.04.023,group3.1-3.2-social-tom,2023.2.2,Win32,60.0240096,65c5074098b851296ff0b7ed,6642307a2a47e004653066ab,,,,,,,,,,,,,,,,,,,,,,,,,,,,,153.61,1,audio/Narrative8Situation2.wav,156.615,,156.615,166.733,"[[999,2],[999,82],[999,168],[999,250],[999,332],[999,417],[999,500],[999,582],[999,667],[999,750],[999,834],[999,918],[999,1001],[999,1085],[999,1167],[999,1250],[999,1335],[999,1420],[999,1500],[999,1584],[57.8,1668],[67.7,1750],[71.5,1835],[72.7,1918],[72.9,2000],[72.9,2084],[72.8,2169],[72.8,2250],[72.8,2334],[72.8,2417],[72.8,2501],[72.8,2584],[72.8,2667],[74.7,2752],[76.2,2834],[76.4,2917],[76.4,3000],[76.4,3082],[76.4,3167],[76.4,3251],[76.3,3332],[76.3,3417],[76.2,3500],[76.2,3584],[74.9,3668],[74.6,3751],[74.5,3834],[74.5,3917],[74.5,4000],[74.5,4082],[74.5,4165],[74.5,4250],[74.5,4334],[74.5,4417],[74.5,4500],[74.5,4582],[61.2,4668],[44.1,4752],[40.4,4834],[39.8,4915],[39.7,5002],[39.6,5082],[38.9,5168],[29.2,5251],[22,6002],[22.7,6082],[23.4,6168],[23.6,6251],[23.6,6332],[23.6,6417],[23.6,6500],[23.6,6584],[23.6,6667],[23.6,6750],[23.6,6832],[23.6,6918],[24.1,7002],[24.2,7082],[24.2,7167],[23.7,7252],[18.5,7336],[16.3,7418],[15.6,7502],[15.6,7582],[15.6,7667],[15.6,7750],[15.6,7832],[12.2,7918],[11.2,8001],[10.8,8084],[10.8,8168],[10.8,8251],[10.8,8332],[10.8,8417],[10.8,8501],[10.8,8582],[10.5,8667],[10.5,8750],[10.5,8832],[10.5,8917],[10.5,9000],[10.5,9084],[10.5,9167],[10.5,9250],[10.5,9335],[10.3,9417],[6.8,9501],[1.8,9584]]",1,0,166.735,169.749,20.05208333,2.262,"[{""rating"":20.052083333333332,""responseTime"":2.2620000000000005}]",space,2.467,,169.75,Definitely yes,100,169.759,,,[],,0,2,2,2,1,audio/Narrative7Situation2.wav,audio/Narrative8Situation2.wav,audio/Narrative5Situation2.wav,audio/Narrative6Situation2.wav,3,3,3,3,,,,,,,,,,,,,,,,,,,,,,,,,,,,,,,,,,,,,,,
,,,,,,62827483ae4c6af3f0af9bce,2024-05-13_11h24.04.023,group3.1-3.2-social-tom,2023.2.2,Win32,60.0240096,65c5074098b851296ff0b7ed,6642307a2a47e004653066ab,,,,,,,,,,,,,,,,,,,,,,,,,,,,,169.76,1,audio/Narrative8Situation3.wav,173.769,,173.769,196.167,"[[999,4],[999,104],[999,186],[999,263],[999,347],[999,432],[999,514],[999,598],[999,681],[999,763],[999,847],[999,929],[999,1014],[999,1098],[999,1181],[999,1266],[999,1346],[999,1431],[999,1514],[999,1597],[999,1680],[999,1765],[999,1848],[999,1931],[999,2015],[50.1,2098],[50.1,2181],[50.1,2263],[50.1,2346],[50.1,2429],[50.1,2513],[50.1,2597],[50.1,2679],[50.1,2763],[50.1,2846],[41.3,2930],[32,3015],[28.6,3097],[28,3180],[28,3263],[28,3347],[28,3429],[28,3513],[42.8,3598],[64.7,3681],[75.3,3764],[76.6,3846],[73.7,3930],[70.3,4015],[68.5,4097],[68.6,4180],[70.7,4264],[72,4348],[72.3,4430],[72.3,4513],[72.3,4596],[72.3,4680],[72.3,4763],[72.3,4847],[72.3,4930],[72.3,5013],[72.3,5096],[72.3,5179],[72.3,5263],[72.3,5346],[72.3,5430],[72.3,5513],[72.5,5600],[73.6,5681],[73.7,5763],[73.7,5847],[73.7,5930],[73.7,6013],[73.7,6097],[73.7,6179],[73.7,6263],[73.8,6346],[74,6431],[74,6513],[74,6596],[74,6680],[74,6763],[74,6847],[74,6953],[74,7031],[74,7113],[74,7198],[74,7278],[74,7363],[74,7447],[74,7528],[74,7613],[74,7695],[74,7780],[74,7866],[74,7945],[74,8030],[74,8113],[74,8197],[74,8278],[74,8363],[74,8445],[74,8528],[74.1,8613],[74.1,8695],[74.2,8780],[74.2,8863],[74.2,8947],[74.2,9028],[74.2,9113],[74.2,9195],[77.3,9281],[83.2,9364],[84.8,9447],[85.3,9531],[85.4,9614],[86.5,9698],[89.1,9781],[90.8,9863],[91.1,9947],[91.1,10030],[91.1,10113],[90.9,10195],[90.9,10280],[90.9,10363],[90.9,10445],[90.9,10530],[90.9,10613],[90.9,10695],[90.9,10780],[90.9,10863],[90.9,10947],[90.9,11030],[90.9,11113],[90.9,11195],[90.9,11280],[90.9,11364],[90.9,11447],[90.9,11530],[90.9,11613],[90.9,11697],[90.9,11780],[90.9,11863],[90.9,11947],[90.9,12030],[90.9,12114],[90.9,12195],[90.9,12280],[90.9,12371],[90.9,12447],[90.9,12530],[90.9,12613],[90.9,12697],[90.9,12780],[90.9,12863],[90.9,12947],[90.9,13030],[90.9,13114],[90.9,13197],[90.9,13280],[90.9,13363],[90.9,13447],[90.9,13530],[90.9,13614],[90.9,13695],[90.9,13780],[91.4,13866],[95.1,13948],[96.4,14030],[96.7,14113],[96.7,14197],[96.7,14278],[96.7,14363],[96.7,14447],[98.7,14530],[100,14614],[100,14698],[100,14781],[100,14863],[100,14947],[100,15028],[100,15113],[100,15197],[100,15280],[100,15364],[100,15447],[100,15530],[100,15613],[100,15697],[100,15780],[100,15863],[100,15945],[100,16030],[100,16113],[100,16197],[100,16280],[100,16363],[100,16447],[100,16530],[100,16614],[100,16697],[100,16780],[100,16863],[100,16945],[100,17030],[100,17113],[100,17197],[100,17280],[100,17364],[100,17447],[100,17530],[100,17614],[100,17697],[100,17780],[100,17863],[100,17947],[100,18030],[100,18113],[100,18210],[100,18289],[100,18369],[100,18447],[100,18530],[100,18614],[100,18695],[100,18780],[100,18864],[100,18947],[100,19030],[100,19114],[100,19197],[100,19280],[100,19364],[100,19447],[100,19530],[100,19614],[100,19695],[100,19780],[100,19863],[100,19947],[100,20030],[100,20114],[100,20198],[100,20282],[99.5,20364],[99.5,20445],[99.5,20530],[99.5,20614],[99.5,20695],[99.5,20780],[99.5,20864],[99.5,20947],[99.5,21030],[99.5,21114],[99.5,21197],[99.5,21280],[99.5,21364],[99.5,21447],[99.5,21530],[99.5,21613],[99.5,21697],[99.5,21780],[99.5,21864],[99.5,21947],[99.5,22031],[99.5,22113],[99.5,22197],[99.5,22281],[99.5,22363]]",1,0,196.168,200.018,91.015625,1.596,"[{""rating"":91.015625,""responseTime"":1.5960000000000036}]",space,3.298,,200.018,Partially,50,200.033,,,[],,0,3,3,3,1,audio/Narrative7Situation3.wav,audio/Narrative8Situation3.wav,audio/Narrative5Situation3.wav,audio/Narrative6Situation3.wav,8,4,3,5,,,,,,,,,,,,,,,,,,,,,,,,,,,,,,,,,,,,,,,
,,,,,,62827483ae4c6af3f0af9bce,2024-05-13_11h24.04.023,group3.1-3.2-social-tom,2023.2.2,Win32,60.0240096,65c5074098b851296ff0b7ed,6642307a2a47e004653066ab,,,,,,,,,,,,,,,,,,,,,,,,,,,,,200.034,1,audio/Narrative8Situation4.wav,203.05,,203.05,217.236,"[[999,2],[999,82],[999,165],[999,248],[999,331],[999,418],[999,515],[999,598],[999,682],[999,765],[999,848],[999,932],[999,1015],[999,1098],[999,1182],[999,1265],[999,1348],[999,1432],[999,1515],[999,1598],[999,1682],[999,1765],[999,1856],[999,1932],[999,2015],[999,2098],[999,2182],[999,2265],[999,2352],[999,2433],[999,2518],[999,2600],[999,2682],[999,2765],[999,2848],[999,2932],[999,3016],[999,3099],[71.1,3183],[71.1,3265],[71.7,3350],[75.1,3432],[77.6,3518],[78,3598],[78.5,3683],[79.4,3766],[80.5,3852],[81.4,3932],[81.9,4016],[81.9,4099],[81.9,4182],[81.9,4265],[81.9,4348],[81.9,4432],[81.9,4515],[81.9,4598],[81.9,4682],[81.9,4765],[81.9,4848],[81.9,4932],[81.9,5016],[81.9,5098],[81.9,5182],[81.9,5265],[81.9,5348],[81.9,5432],[81.9,5515],[81.9,5598],[81.9,5682],[81.9,5765],[81.9,5849],[81.9,5932],[81.9,6015],[81.9,6098],[81.9,6182],[81.9,6265],[81.9,6348],[81.9,6432],[81.9,6515],[81.9,6598],[81.9,6682],[81.9,6765],[81.9,6848],[81.9,6932],[81.9,7015],[81.9,7098],[81.9,7182],[81.9,7265],[81.9,7348],[83.7,7433],[86.2,7524],[87.8,7657],[90.4,7739],[96,7825],[97.9,7917],[98.6,8018],[99.9,8105],[100,8197],[100,8283],[100,8366],[100,8449],[100,8533],[100,8616],[100,8699],[100,8783],[100,8866],[100,8949],[100,9033],[100,9116],[100,9199],[100,9283],[100,9366],[100,9450],[100,9532],[100,9616],[100,9700],[100,9783],[100,9866],[100,9949],[100,10033],[100,10116],[100,10199],[100,10283],[100,10366],[100,10450],[100,10533],[100,10616],[100,10700],[100,10783],[100,10866],[100,10950],[100,11033],[100,11116],[100,11199],[100,11283],[100,11366],[100,11449],[100,11532],[100,11616],[100,11700],[100,11783],[100,11866],[100,11949],[100,12033],[100,12116],[100,12200],[100,12283],[100,12366],[100,12450],[100,12533],[100,12616],[100,12699],[100,12783],[100,12866],[100,12949],[100,13033],[100,13120],[100,13199],[100,13283],[100,13366],[100,13449],[100,13533],[100,13616],[100,13700],[100,13782],[100,13866],[100,13950],[100,14032],[100,14116]]",1,0,217.24,220.267,99.73958333,1.182,"[{""rating"":99.73958333333333,""responseTime"":1.181999999999988}]",space,2.486,,220.268,Not at all,0,220.279,,,[],,0,4,4,4,1,audio/Narrative7Situation4.wav,audio/Narrative8Situation4.wav,audio/Narrative5Situation4.wav,audio/Narrative6Situation4.wav,3,3,1,2,,,,,,,,,,,,,,,,,,,,,,,,,,,,,,,,,,,,,,,
,,,,,,62827483ae4c6af3f0af9bce,2024-05-13_11h24.04.023,group3.1-3.2-social-tom,2023.2.2,Win32,60.0240096,65c5074098b851296ff0b7ed,6642307a2a47e004653066ab,,,,,,,,,,,,,,,,,,,,,,,,,,,,,220.28,1,audio/Narrative8Situation5.wav,222.283,,222.284,230.533,"[[999,2],[999,86],[999,165],[999,248],[999,332],[999,419],[999,498],[999,581],[999,664],[999,748],[999,831],[999,915],[999,1000],[999,1091],[999,1164],[999,1248],[999,1332],[999,1414],[999,1498],[999,1582],[999,1664],[999,1748],[999,1832],[54.3,1917],[60,2001],[72.1,2086],[80.5,2167],[85.9,2250],[93,2334],[97.5,2421],[98.4,2501],[98.8,2581],[100,2667],[100,2748],[100,2831],[100,2914],[100,2998],[100,3081],[100,3165],[100,3248],[100,3331],[100,3415],[100,3498],[100,3581],[100,3665],[100,3748],[100,3832],[100,3914],[100,3998],[100,4081],[100,4165],[100,4248],[100,4332],[100,4415],[100,4498],[100,4581],[100,4665],[100,4748],[100,4832],[100,4914],[100,4998],[100,5081],[100,5165],[100,5248],[100,5331],[100,5415],[100,5498],[100,5581],[100,5665],[100,5748],[100,5832],[100,5914],[100,5998],[100,6081],[100,6165],[100,6248],[100,6331],[100,6414],[100,6498],[100,6581],[100,6664],[100,6748],[100,6832],[100,6914],[100,6998],[100,7082],[100,7164],[100,7248],[100,7332],[100,7414],[100,7498],[100,7581],[100,7665],[100,7748],[100,7831],[100,7915],[100,8000],[100,8082],[100,8164],[100,8248]]",1,0,230.534,235.101,99.73958333,3.079,"[{""rating"":99.73958333333333,""responseTime"":3.0789999999999793}]",space,4.021,,235.101,Partially,50,235.112,,,[],,0,5,5,5,1,audio/Narrative7Situation5.wav,audio/Narrative8Situation5.wav,audio/Narrative5Situation5.wav,audio/Narrative6Situation5.wav,5,2,5,2,,,,,,,,,,,,,,,,,,,,,,,,,,,,,,,,,,,,,,,
,,,,,,62827483ae4c6af3f0af9bce,2024-05-13_11h24.04.023,group3.1-3.2-social-tom,2023.2.2,Win32,60.0240096,65c5074098b851296ff0b7ed,6642307a2a47e004653066ab,,,,,,,,,,,,,,,,,,,,,,,,,,,,,235.113,1,audio/Narrative8Situation6.wav,237.12,,237.12,243.601,"[[999,6],[999,98],[999,181],[999,264],[999,346],[999,435],[999,514],[999,598],[999,680],[999,764],[999,847],[999,930],[999,1014],[999,1098],[999,1180],[999,1265],[999,1347],[999,1430],[999,1513],[999,1599],[999,1681],[999,1763],[999,1847],[999,1930],[999,2013],[999,2097],[999,2181],[999,2268],[999,2347],[999,2430],[999,2513],[999,2597],[999,2680],[999,2764],[999,2847],[52.7,2931],[52.9,3015],[53,3096],[53.3,3180],[53.3,3263],[53.4,3347],[53.4,3431],[58.6,3513],[100,3931],[100,4016],[100,4098],[100,4180],[100,4263],[100,4347],[100,4430],[100,4513],[100,4597],[100,4679],[100,4763],[100,4847],[100,4930],[100,5015],[100,5096],[100,5180],[100,5263],[100,5347],[100,5429],[100,5513],[100,5597],[100,5680],[100,5765],[100,5847],[100,5931],[100,6013],[100,6096],[100,6179],[100,6263],[100,6347],[100,6430]]",1,0,243.603,246.218,99.609375,1.094,"[{""rating"":99.609375,""responseTime"":1.093999999999994}]",space,2.069,,246.218,Partially,50,246.224,,,[],,0,6,6,6,1,audio/Narrative7Situation6.wav,audio/Narrative8Situation6.wav,audio/Narrative5Situation6.wav,audio/Narrative6Situation6.wav,3,2,3,2,,,,,,,,,,,,,,,,,,,,,,,,,,,,,,,,,,,,,,,
,,,,,,62827483ae4c6af3f0af9bce,2024-05-13_11h24.04.023,group3.1-3.2-social-tom,2023.2.2,Win32,60.0240096,65c5074098b851296ff0b7ed,6642307a2a47e004653066ab,,,,,,,,,,,,,,,,,,,,,,,,,,,,,246.225,1,audio/Narrative8Situation7.wav,249.234,,249.235,261.335,"[[999,1],[999,80],[999,164],[999,247],[999,331],[999,415],[999,497],[999,580],[999,664],[999,748],[999,831],[999,914],[999,997],[999,1080],[999,1165],[999,1247],[999,1332],[999,1415],[999,1500],[999,1582],[999,1664],[999,1750],[999,1831],[999,1914],[999,1997],[999,2080],[999,2164],[999,2248],[999,2331],[999,2414],[999,2500],[999,2581],[62.8,2666],[62.8,2750],[62.8,2831],[62.8,2915],[62.8,2998],[62.8,3080],[62.8,3164],[62.8,3248],[62.8,3331],[62.8,3413],[62.8,3498],[64.3,3581],[68.6,3665],[72.1,3748],[74.6,3832],[76.2,3915],[77.3,3998],[78,4081],[79.3,4164],[79.9,4248],[80.3,4330],[80.3,4414],[80.3,4498],[80.5,4581],[82.3,4665],[83.9,4748],[84.2,4832],[84.2,4914],[84.1,4998],[80.2,5082],[74,5169],[72,5247],[71.4,5332],[71.6,5416],[73.8,5498],[76.3,5581],[76.7,5665],[76.7,5747],[76.7,5831],[76.7,5914],[76.7,5997],[76.7,6081],[76.7,6164],[76.7,6248],[76.7,6331],[76.7,6414],[76.7,6498],[76.7,6581],[76.7,6664],[76.7,6747],[76.7,6830],[76.7,6914],[76.7,6997],[76.7,7080],[76.7,7164],[76.7,7247],[76.7,7331],[76.7,7414],[76.7,7497],[76.7,7581],[76.7,7664],[77.9,7748],[82.3,7832],[83.5,7915],[83.7,7997],[83.9,8081],[84,8172],[84.8,8248],[86.7,8332],[87.4,8415],[87.6,8498],[87.6,8581],[87.6,8664],[87.6,8748],[87.6,8831],[87.6,8914],[87.6,8998],[87.6,9081],[87.6,9164],[87.6,9248],[87.6,9330],[87.6,9414],[87.6,9497],[87.6,9580],[87.6,9664],[87.6,9748],[87.6,9831],[87.6,9914],[87.6,9998],[87.6,10081],[87.6,10164],[87.6,10248],[87.6,10330],[87.6,10414],[87.6,10498],[87.6,10581],[87.6,10664],[87.6,10747],[87.6,10831],[87.6,10914],[87.6,10998],[87.6,11080],[87.6,11164],[87.6,11248],[87.6,11331],[87.6,11414],[87.6,11497],[87.6,11581],[87.6,11664],[87.6,11750],[87.6,11831],[87.6,11914],[87.6,11998],[87.6,12080]]",1,0,261.336,262.918,78.38541667,1.215,"[{""rating"":78.38541666666667,""responseTime"":1.214999999999975}]",space,1.036,,262.918,Not at all,0,262.928,,,[],,0,7,7,7,1,audio/Narrative7Situation7.wav,audio/Narrative8Situation7.wav,audio/Narrative5Situation7.wav,audio/Narrative6Situation7.wav,5,3,4,5,,,,,,,,,,,,,,,,,,,,,,,,,,,,,,,,,,,,,,,
,,,,,,62827483ae4c6af3f0af9bce,2024-05-13_11h24.04.023,group3.1-3.2-social-tom,2023.2.2,Win32,60.0240096,65c5074098b851296ff0b7ed,6642307a2a47e004653066ab,,,,,,,,,,,,,,,,,,,,,,,,,,,,,262.929,1,audio/Narrative8Situation8.wav,265.934,,265.934,278.802,"[[999,2],[999,83],[999,165],[999,251],[999,333],[999,418],[999,500],[999,583],[999,665],[999,749],[999,833],[999,917],[999,999],[999,1083],[999,1165],[999,1250],[999,1331],[999,1415],[999,1500],[999,1583],[999,1667],[999,1749],[999,1833],[999,1915],[999,2012],[999,2090],[999,2167],[999,2251],[999,2334],[999,2415],[999,2500],[999,2583],[999,2675],[999,2749],[999,2833],[999,2923],[999,3000],[999,3083],[999,3165],[999,3254],[999,3333],[999,3415],[999,3502],[999,3583],[999,3665],[999,3749],[999,3833],[999,3915],[999,4000],[999,4083],[999,4165],[999,4250],[999,4334],[999,4417],[999,4500],[999,4584],[999,4665],[999,4750],[999,4833],[999,4917],[999,5000],[999,5083],[999,5167],[999,5250],[999,5333],[999,5415],[999,5499],[999,5583],[999,5665],[43.2,5763],[38.5,5850],[36.2,5932],[35.8,6016],[35.8,6100],[36.6,6185],[37.4,6268],[38.3,6350],[39.3,6434],[39.7,6516],[40.4,6602],[42.3,6685],[43.4,6766],[43.6,6850],[43.6,6932],[43.6,7016],[43.6,7100],[43.6,7182],[43.6,7266],[45.1,7350],[47.7,7434],[48.2,7518],[48.6,7600],[48.6,7682],[48.6,7766],[48.6,7850],[48.4,7932],[48.4,8024],[48.3,8100],[48.2,8182],[48.2,8266],[48,8350],[48,8432],[48,8516],[48,8607],[48,8684],[48,8766],[48,8850],[48,8932],[48,9016],[48,9098],[48,9182],[48,9266],[48,9348],[48,9432],[48,9516],[48,9600],[48,9682],[48,9766],[48,9850],[48,9932],[48,10016],[48,10098],[48,10182],[48,10266],[48,10348],[48,10432],[48,10516],[48,10600],[48,10682],[48,10766],[48,10848],[47.8,10932],[46.4,11018],[43.9,11102],[43.4,11184],[43.2,11266],[43.2,11350],[43.2,11432],[43.2,11516],[43.2,11600],[43.2,11682],[43.2,11766],[43.4,11850],[48.7,11932],[53.9,12016],[54.8,12100],[54.9,12182],[54.9,12266],[54.9,12350],[54.9,12432],[54.9,12516],[54.9,12598],[54.9,12682],[55.1,12766],[55.5,12848]]",1,0,278.804,282.22,46.74479167,3.091,"[{""rating"":56.510416666666664,""responseTime"":1.0219999999999914},{""rating"":46.74479166666667,""responseTime"":3.091000000000008}]",space,2.869,,282.222,Not at all,0,282.229,,,[],,0,8,8,8,1,audio/Narrative7Situation8.wav,audio/Narrative8Situation8.wav,audio/Narrative5Situation8.wav,audio/Narrative6Situation8.wav,2,3,3,5,,,,,,,,,,,,,,,,,,,,,,,,,,,,,,,,,,,,,,,
,,,,,,62827483ae4c6af3f0af9bce,2024-05-13_11h24.04.023,group3.1-3.2-social-tom,2023.2.2,Win32,60.0240096,65c5074098b851296ff0b7ed,6642307a2a47e004653066ab,,,,,,,,,,,,,,,,,,,,,,,,,,,,,282.229,1,audio/Narrative8Situation9.wav,285.234,,285.234,296.569,"[[999,2],[999,83],[999,167],[999,250],[999,333],[999,417],[999,499],[999,583],[999,667],[999,751],[999,834],[999,918],[999,1001],[999,1083],[999,1167],[999,1250],[999,1333],[999,1418],[999,1501],[999,1584],[999,1665],[999,1750],[999,1834],[999,1917],[999,2000],[999,2083],[999,2165],[999,2250],[999,2333],[999,2417],[999,2500],[999,2583],[999,2665],[999,2749],[999,2833],[999,2915],[999,3000],[999,3083],[999,3177],[999,3250],[999,3334],[999,3418],[999,3501],[999,3583],[999,3668],[51.3,3751],[54.3,3834],[55.2,3917],[55.5,4000],[55.5,4084],[55.5,4165],[55.5,4250],[55.5,4334],[55.6,4417],[55.6,4500],[55.6,4584],[55.6,4665],[55.6,4750],[55.6,4833],[55.6,4917],[55.6,5000],[56.5,5084],[59.1,5168],[60.8,5250],[61.3,5334],[61.6,5417],[61.6,5500],[61.6,5583],[61.6,5665],[61.6,5750],[61.6,5833],[61.6,5915],[61.6,6000],[61.6,6083],[61.6,6167],[61.6,6250],[61.6,6334],[61.6,6417],[61.6,6500],[61.6,6584],[61.6,6667],[61.6,6750],[61.6,6834],[61.6,6917],[61.6,7000],[61.6,7083],[61.6,7165],[63.9,7251],[65.1,7334],[65.4,7417],[65.4,7500],[65.4,7583],[65.4,7667],[65.4,7750],[65.4,7834],[65.4,7915],[65,8002],[61.3,8084],[59,8168],[58.6,8251],[60.7,8333],[62.4,8417],[62.9,8501],[63.2,8583],[65.4,8668],[66.7,8751],[67.1,8834],[67.1,8915],[68,9002],[69.7,9084],[70.1,9167],[70.1,9250],[70.1,9333],[70.1,9417],[69.7,9501],[69.5,9583],[69.5,9667],[69.5,9750],[69.5,9834],[69.5,9917],[69.5,10000],[69.5,10083],[69.5,10168],[69.5,10249],[69.5,10334],[69.5,10417],[69.5,10500],[69.5,10584],[69.5,10667],[69.5,10750],[69.5,10833],[69.7,10918],[69.7,11000],[69.7,11084],[69.7,11167],[69.7,11250],[69.7,11334]]",1,0,296.569,298.053,69.66145833,0.696,"[{""rating"":69.66145833333334,""responseTime"":0.6960000000000264}]",space,0.937,,298.053,Not at all,0,298.058,,,[],,0,9,9,9,1,audio/Narrative7Situation9.wav,audio/Narrative8Situation9.wav,audio/Narrative5Situation9.wav,audio/Narrative6Situation9.wav,2,3,3,4,,,,,,,,,,,,,,,,,,,,,,,,,,,,,,,,,,,,,,,
,,,,,,62827483ae4c6af3f0af9bce,2024-05-13_11h24.04.023,group3.1-3.2-social-tom,2023.2.2,Win32,60.0240096,65c5074098b851296ff0b7ed,6642307a2a47e004653066ab,,,,,,,,,,,,,,,,,,,,,,,,,,,,,298.058,1,audio/Narrative7Situation1.wav,300.068,,300.068,355.953,"[[64.1,3355],[65.4,3435],[65.6,3516],[65.6,3600],[65.6,3684],[65.4,3766],[62,3850],[57.9,3935],[55.7,4016],[52.3,4100],[50.9,4184],[50.4,4266],[48.3,4350],[47.1,4432],[47,4516],[47.1,4600],[47.1,4682],[47.1,4766],[47.1,4848],[47.1,4932],[47.1,5016],[47.4,5098],[45.6,5184],[41.9,5266],[40.9,5350],[40.9,5432],[40.9,5516],[40.9,5600],[40.9,5682],[40.9,5766],[40.9,5848],[40.9,5932],[40.9,6016],[40.9,6100],[40.9,6182],[40.9,6266],[40.9,6348],[40.9,6432],[40.8,6516],[40.8,6598],[40.8,6682],[40.8,6766],[40.8,6850],[39.8,6934],[39.3,7016],[39.2,7100],[39.1,7182],[39.1,7266],[39.1,7350],[39.1,7432],[39.1,7516],[39.1,7600],[39.1,7682],[38.9,7768],[39.2,7850],[41.5,7934],[49.9,8019],[53.4,8100],[54.2,8184],[54.9,8266],[57.8,8350],[59.2,8434],[59.6,8516],[59.6,8598],[59.6,8682],[59.6,8766],[59.6,8850],[59.6,8932],[59.6,9016],[59.6,9098],[59.6,9182],[59.6,9266],[59.6,9348],[59.6,9432],[59.6,9516],[59.6,9598],[59.6,9682],[58.5,9768],[57.9,9848],[57.9,9932],[57.9,10016],[57.9,10100],[58.1,10182],[58.1,10266],[58.1,10348],[58.1,10432],[58.1,10516],[58.1,10598],[58.1,10682],[58.1,10766],[58.1,10848],[58.1,10932],[58.1,11016],[58.1,11100],[58.1,11182],[58.1,11266],[58.1,11348],[58.1,11432],[58.1,11516],[58.1,11600],[58.1,11682],[58.1,11766],[58.1,11850],[58.1,11932],[58.1,12016],[58.1,12100],[58.1,12182],[58.1,12266],[58.1,12348],[58.1,12432],[58.1,12516],[58.1,12600],[58.1,12682],[58.1,12766],[58.1,12850],[58.1,12932],[58.1,13016],[58.1,13098],[58.1,13182],[58.1,13266],[58.1,13350],[58.1,13432],[58.1,13516],[58.1,13600],[58.1,13682],[58.1,13766],[58.1,13850],[58.1,13932],[58.1,14016],[58.1,14098],[58.1,14182],[58.1,14266],[58.1,14350],[58.1,14432],[58.1,14516],[58.1,14600],[58.1,14685],[59.2,14766],[59.6,14850],[59.6,14935],[60.8,15016],[61.2,15100],[62.2,15185],[62.6,15266],[62.6,15350],[62.6,15432],[62.6,15516],[62.6,15600],[62.6,15682],[62.6,15766],[62.6,15850],[62.6,15932],[62.6,16016],[62.6,16098],[62.6,16182],[63.2,16266],[65,16351],[65.4,16432],[65.8,16516],[65.8,16600],[65.8,16682],[65.9,16766],[66.3,16851],[66.3,16932],[66.3,17016],[66.3,17100],[66.3,17182],[66.3,17266],[66.3,17348],[66.3,17432],[66.3,17516],[66.3,17598],[66.3,17682],[66.3,17766],[66.3,17850],[66.3,17932],[66.3,18016],[66.3,18100],[66.3,18182],[66.3,18266],[66.3,18348],[66.3,18434],[66.3,18516],[66.3,18598],[66.3,18682],[66.3,18766],[66.3,18848],[66.3,18932],[66.3,19016],[66.3,19100],[66.3,19182],[66.3,19266],[66.3,19348],[66.3,19432],[66.3,19516],[66.3,19598],[66.3,19682],[66.3,19766],[66.3,19850],[66.3,19932],[66.3,20016],[66.3,20100],[66.3,20182],[66.3,20266],[66.3,20350],[66.3,20432],[66.3,20516],[66.3,20598],[66.3,20682],[66.3,20766],[66.3,20848],[66.3,20934],[66.7,21016],[66.8,21100],[66.9,21182],[67.3,21266],[67.4,21350],[67.4,21432],[67.4,21516],[67.4,21598],[67.4,21682],[67.4,21766],[67.4,21850],[67.4,21934],[67.4,22016],[67.4,22100],[67.4,22184],[67.4,22266],[67.4,22350],[67.4,22434],[64.3,22518],[60.7,22601],[59.6,22682],[59.4,22766],[59.1,22850],[59.1,22932],[59.1,23016],[59.1,23100],[59.1,23182],[59.1,23266],[59.1,23350],[57.8,23446],[57,23528],[56.6,23612],[56.5,23692],[56.4,23774],[56,23853],[55.9,23932],[55.9,24016],[55.9,24100],[55.7,24182],[55.6,24266],[55.6,24350],[55.6,24432],[55.6,24516],[55.5,24600],[54.9,24684],[54.4,24766],[54.4,24848],[54.4,24932],[54.4,25016],[54.4,25100],[54.4,25182],[54.4,25266],[54.4,25350],[54.4,25432],[54.4,25516],[54.4,25600],[54.4,25684],[54.3,25768],[54.2,25850],[54.2,25934],[54,26016],[54,26100],[53.9,26184],[53.9,26266],[53.9,26350],[53.8,26432],[53.8,26516],[53.5,26600],[53.5,26682],[53.5,26766],[53.5,26850],[53.5,26932],[53.5,27019],[53.5,27100],[53.5,27182],[53.3,27268],[53.1,27348],[53.1,27432],[53.1,27516],[53.1,27600],[53.1,27682],[53,27766],[53,27850],[52.9,27932],[52.9,28016],[52.9,28100],[52.9,28182],[52.9,28274],[52.9,28350],[52.9,28432],[52.9,28516],[52.9,28600],[52.9,28684],[52.9,28766],[52.9,28850],[52.9,28932],[52.9,29016],[52.9,29100],[52.9,29182],[52.9,29266],[52.9,29350],[52.9,29434],[52.9,29516],[52.9,29598],[52.9,29682],[52.9,29766],[52.9,29850],[52.9,29932],[52.9,30016],[52.9,30100],[52.9,30182],[52.9,30266],[52.9,30350],[52.9,30434],[52.9,30516],[52.9,30600],[52.1,30682],[51.6,30768],[51.3,30850],[50.4,30935],[50,31016],[49.9,31100],[49.9,31182],[49.9,31266],[49.9,31350],[49.9,31432],[49.9,31516],[49.9,31598],[49.9,31682],[49.9,31766],[49.9,31850],[49.9,31932],[49.9,32016],[49.9,32100],[49.7,32182],[49.7,32266],[49.7,32350],[49.7,32432],[49.2,32518],[48.8,32598],[48.8,32682],[48.8,32766],[48.8,32848],[48.8,32932],[48.8,33016],[48.8,33103],[48.8,33184],[48.8,33266],[48.8,33350],[48.7,33434],[48.7,33516],[48.7,33600],[48.7,33684],[48.7,33766],[48.7,33850],[48.7,33934],[48.3,34016],[48.2,34100],[48.2,34182],[47.8,34268],[47.3,34351],[47.1,34432],[47.1,34516],[47.1,34600],[47.1,34682],[47.1,34766],[47.1,34850],[47.1,34932],[47.1,35016],[47.1,35100],[47.1,35182],[47.1,35266],[47.1,35350],[47.1,35434],[47.1,35516],[47.1,35600],[47.1,35684],[47.1,35768],[47.1,35851],[47.1,35935],[47.1,36018],[47.3,36101],[47.7,36184],[49.3,36266],[50.8,36351],[51.2,36435],[52.7,36518],[53.4,36600],[55.3,36685],[57,36768],[57.3,36850],[57.6,36932],[58.3,37018],[59.1,37101],[59.5,37182],[59.5,37266],[59.5,37350],[59.5,37434],[59.5,37516],[59.5,37600],[59.5,37694],[59.5,37790],[59.5,37867],[59.5,37949],[59.5,38035],[59.5,38117],[59.5,38201],[59.5,38283],[59.5,38384],[59.5,38466],[59.5,38550],[59.5,38634],[59.5,38716],[59.5,38800],[59.5,38884],[59.5,38966],[59.5,39050],[59.5,39132],[59.5,39216],[59.5,39300],[59.5,39382],[59.5,39466],[59.5,39550],[59.5,39632],[59.5,39716],[59.5,39800],[59.5,39882],[59.5,39966],[59.5,40050],[59.5,40134],[59.5,40216],[59.5,40300],[59.5,40382],[59.5,40466],[59.5,40550],[59.5,40632],[59.5,40716],[59.5,40800],[59.5,40884],[59.5,40966],[59.5,41050],[59.5,41132],[59.5,41216],[59.5,41300],[59.5,41382],[59.5,41466],[59.5,41550],[59.6,41639],[59.6,41716],[59.6,41800],[59.6,41882],[59.6,41966],[59.6,42050],[59.6,42134],[59.6,42216],[59.6,42300],[59.6,42382],[59.6,42466],[59.6,42550],[59.6,42632],[59.6,42716],[59.6,42800],[59.6,42884],[59.6,42966],[59.6,43050],[59.6,43134],[59.8,43216],[61.7,43300],[62.2,43382],[62.8,43466],[64.8,43555],[67.6,43634],[69.5,43718],[70.8,43802],[72.7,43884],[74.5,43968],[76.3,44050],[77,44137],[77.6,44216],[78.1,44300],[78.4,44384],[78.4,44466],[78.4,44550],[78.4,44632],[78.4,44716],[78.4,44800],[78.4,44882],[78.4,44966],[78.4,45050],[78.4,45134],[78.4,45216],[78.4,45300],[78.4,45384],[78.4,45466],[78.4,45553],[78.4,45632],[78.4,45716],[78.4,45800],[78.4,45882],[78.4,45966],[78.4,46050],[78.4,46132],[78.4,46216],[78.4,46300],[78.4,46382],[78.4,46466],[78.4,46550],[78.4,46634],[78.4,46716],[78.4,46800],[78.4,46882],[78.4,46966],[78.4,47050],[78.4,47132],[78.4,47216],[78.4,47300],[78.4,47382],[78.4,47466],[78.4,47550],[78.4,47632],[78.4,47716],[78.4,47800],[78.4,47884],[78.4,47966],[78.4,48050],[78.4,48132],[78.4,48216],[78.4,48300],[78.4,48382],[78.4,48466],[78.4,48550],[78.4,48632],[78.4,48716],[78.4,48800],[78.4,48882],[78.4,48966],[78.4,49050],[78.4,49132],[78.4,49216],[78.4,49300],[78.4,49382],[78.4,49466],[78.4,49550],[78.4,49632],[78.4,49716],[78.4,49800],[78.4,49891],[78.4,49966],[78.4,50050],[78.4,50132],[78.4,50218],[78.4,50300],[78.4,50386],[78.4,50468],[78.4,50550],[78.4,50634],[78.4,50716],[78.4,50800],[78.4,50884],[79.8,50968],[81,51050],[81.1,51134],[81.1,51216],[81.1,51300],[81.1,51384],[81.1,51466],[81.1,51550],[81.1,51634],[81.1,51716],[81.1,51800],[81.1,51884],[81.1,51966],[81.1,52050],[81.1,52134],[81.1,52216],[81.1,52300],[81.1,52384],[81.1,52466],[81.1,52550],[81.1,52634],[81.1,52716],[81.1,52800],[81.1,52884],[81.1,52966],[81.1,53050],[81.1,53134],[81.1,53216],[81.1,53300],[81.1,53384],[81.1,53466],[81.1,53550],[81.1,53634],[81.1,53716],[81.1,53800],[81.1,53884],[81.1,53966],[81.1,54050],[81.1,54134],[81.1,54216],[81.1,54300],[81.1,54384],[81.1,54466],[81.1,54550],[81.1,54634],[81.1,54723],[83.6,54800],[85.2,54884],[85.5,54968],[87,55050],[87.8,55132],[87.8,55216],[87.8,55300],[87.8,55382],[87.8,55466],[87.8,55550],[87.8,55632],[87.8,55716],[87.8,55800],[87.8,55882]]",1,0,355.953,359.552,87.76041667,2.826,"[{""rating"":87.76041666666667,""responseTime"":2.826000000000022}]",space,3.053,,359.554,Partially,50,359.566,,,[],,0,10,10,10,1,audio/Narrative8Situation1.wav,audio/Narrative7Situation1.wav,audio/Narrative6Situation1.wav,audio/Narrative5Situation1.wav,5,2,2,5,,,,,,,,,,,,,,,,,,,,,,,,,,,,,,,,,,,,,,,
,,,,,,62827483ae4c6af3f0af9bce,2024-05-13_11h24.04.023,group3.1-3.2-social-tom,2023.2.2,Win32,60.0240096,65c5074098b851296ff0b7ed,6642307a2a47e004653066ab,,,,,,,,,,,,,,,,,,,,,,,,,,,,,359.566,1,audio/Narrative7Situation2.wav,362.569,,362.57,370.054,"[[999,2],[999,81],[999,165],[999,247],[999,331],[999,415],[999,498],[999,581],[999,665],[999,750],[999,831],[999,915],[999,997],[999,1081],[999,1165],[999,1248],[999,1331],[999,1415],[999,1498],[999,1581],[999,1665],[999,1748],[999,1831],[999,1915],[999,1998],[999,2084],[999,2165],[999,2250],[999,2332],[999,2416],[999,2500],[999,2582],[83.1,2665],[83.6,2750],[84.9,2832],[88,2915],[92.8,3000],[95.6,3088],[96.5,3165],[97,3250],[98.3,3331],[100,3415],[100,3498],[100,3581],[100,3665],[100,3747],[100,3831],[100,3915],[100,3998],[100,4081],[100,4165],[100,4248],[100,4331],[100,4415],[100,4498],[100,4581],[100,4665],[100,4748],[100,4831],[100,4915],[100,4997],[100,5081],[100,5165],[100,5247],[100,5331],[100,5415],[100,5497],[100,5581],[100,5665],[100,5747],[100,5831],[100,5915],[100,5998],[100,6087],[100,6165],[100,6247],[100,6331],[100,6415],[100,6497],[100,6581],[100,6665],[100,6748],[100,6831],[100,6915],[100,6998],[100,7081],[100,7165],[100,7247],[100,7331],[100,7415]]",1,0,370.055,372.705,98.95833333,2.228,"[{""rating"":98.95833333333333,""responseTime"":2.227999999999952}]",space,2.101,,372.706,Partially,50,372.71,,,[],,0,11,11,11,1,audio/Narrative8Situation2.wav,audio/Narrative7Situation2.wav,audio/Narrative6Situation2.wav,audio/Narrative5Situation2.wav,3,3,3,3,,,,,,,,,,,,,,,,,,,,,,,,,,,,,,,,,,,,,,,
,,,,,,62827483ae4c6af3f0af9bce,2024-05-13_11h24.04.023,group3.1-3.2-social-tom,2023.2.2,Win32,60.0240096,65c5074098b851296ff0b7ed,6642307a2a47e004653066ab,,,,,,,,,,,,,,,,,,,,,,,,,,,,,372.711,1,audio/Narrative7Situation3.wav,380.723,,380.724,389.988,"[[999,7],[999,117],[999,194],[999,278],[999,360],[999,444],[999,529],[999,612],[999,695],[999,779],[999,862],[999,944],[999,1028],[999,1110],[999,1194],[999,1278],[999,1360],[999,1444],[999,1531],[999,1610],[999,1694],[999,1778],[999,1862],[999,1945],[999,2031],[999,2110],[999,2194],[999,2278],[999,2362],[999,2445],[999,2528],[999,2613],[999,2694],[999,2778],[39.6,2862],[38.2,2944],[37.8,3028],[37.8,3110],[37.8,3194],[37.8,3278],[37.8,3362],[37.8,3444],[37.8,3528],[37.8,3612],[37.8,3694],[37.8,3778],[37.6,3862],[36.6,3944],[36.1,4028],[36.1,4112],[36.1,4194],[36.1,4278],[36.1,4362],[36.1,4444],[36.1,4528],[36.1,4612],[36.1,4694],[36.1,4778],[36.1,4860],[36.1,4944],[36.1,5028],[36.1,5112],[36.1,5194],[36.1,5278],[36.1,5362],[37.6,5445],[40.6,5533],[41.9,5613],[43,5694],[43.2,5778],[43.2,5862],[43.2,5944],[43.2,6028],[43.2,6113],[43.2,6194],[43.2,6278],[43.2,6360],[43.2,6444],[43.2,6528],[43.2,6612],[43.2,6694],[42.7,6778],[41.4,6862],[40.6,6945],[39.6,7028],[39.3,7112],[39.2,7194],[39.2,7278],[39.2,7360],[39.2,7444],[39.2,7528],[39.2,7612],[38.5,7695],[37.8,7778],[37.6,7860],[37.6,7944],[37.6,8028],[37.6,8110],[37.6,8194],[37.6,8278],[37.6,8360],[37.6,8444],[37.6,8528],[37.6,8612],[37.6,8694],[37.6,8778],[37.6,8862],[37.6,8944],[37.5,9028],[37.2,9110],[35.8,9195]]",1,0,389.989,393.487,0.390625,3.059,"[{""rating"":0.390625,""responseTime"":3.058999999999969}]",space,2.95,,393.487,Definitely yes,100,393.497,,,[],,0,12,12,12,1,audio/Narrative8Situation3.wav,audio/Narrative7Situation3.wav,audio/Narrative6Situation3.wav,audio/Narrative5Situation3.wav,4,8,5,3,,,,,,,,,,,,,,,,,,,,,,,,,,,,,,,,,,,,,,,
,,,,,,62827483ae4c6af3f0af9bce,2024-05-13_11h24.04.023,group3.1-3.2-social-tom,2023.2.2,Win32,60.0240096,65c5074098b851296ff0b7ed,6642307a2a47e004653066ab,,,,,,,,,,,,,,,,,,,,,,,,,,,,,393.499,1,audio/Narrative7Situation4.wav,396.502,,396.502,408.239,"[[999,2],[999,93],[999,170],[999,250],[999,336],[999,416],[999,500],[999,584],[999,666],[999,751],[999,834],[999,918],[999,1001],[999,1084],[999,1166],[999,1250],[999,1334],[999,1418],[999,1500],[999,1584],[999,1666],[999,1750],[999,1840],[999,1916],[999,2000],[999,2084],[999,2166],[999,2250],[999,2334],[999,2417],[999,2500],[999,2584],[999,2666],[999,2750],[999,2834],[999,2916],[999,3000],[999,3082],[999,3166],[999,3250],[999,3334],[999,3416],[999,3501],[999,3582],[999,3666],[999,3750],[999,3834],[999,3917],[999,4000],[999,4084],[999,4166],[999,4250],[999,4332],[999,4416],[999,4500],[999,4584],[41.4,4673],[38.8,4759],[38.3,4834],[38.2,4916],[38.2,5000],[38.2,5084],[38.2,5166],[38.2,5250],[38.2,5332],[38.2,5416],[38.2,5500],[37.2,5584],[36.3,5667],[35.9,5751],[35.9,5834],[35.2,5917],[34.4,6000],[34,6084],[34,6166],[34,6250],[34,6332],[34,6416],[34,6500],[31.1,6584],[28.4,6667],[25.8,6750],[24.2,6834],[23.2,6918],[22.4,7001],[22.1,7084],[21.4,7167],[20.8,7250],[20.7,7332],[20.7,7416],[20.7,7500],[20.7,7584],[20.7,7666],[20.7,7750],[20.7,7834],[20.7,7916],[20.7,8000],[20.7,8084],[20.7,8166],[20.7,8250],[20.7,8332],[20.7,8416],[20.7,8500],[20.7,8582],[20.7,8666],[20.7,8750],[20.7,8834],[20.7,8916],[20.7,9000],[20.7,9084],[20.7,9166],[20.7,9250],[20.7,9334],[20.7,9416],[19.5,9528],[18.9,9611],[18.2,9687],[18,9767],[16.9,9851],[16.5,9932],[16.5,10016],[16.5,10101],[16.5,10182],[16.5,10266],[16.5,10351],[16.5,10433],[16.5,10516],[16.5,10599],[16.5,10683],[16.5,10766],[16.5,10849],[16.3,10935],[14.3,11017],[13.8,11101],[13.8,11183],[12.8,11267],[11.5,11351],[11.1,11433],[11.1,11516],[11.2,11601],[11.2,11683]]",1,0,408.239,410.554,0.390625,1.99,"[{""rating"":0.390625,""responseTime"":1.990000000000009}]",space,1.771,,410.556,Definitely yes,100,410.563,,,[],,0,13,13,13,1,audio/Narrative8Situation4.wav,audio/Narrative7Situation4.wav,audio/Narrative6Situation4.wav,audio/Narrative5Situation4.wav,3,3,2,1,,,,,,,,,,,,,,,,,,,,,,,,,,,,,,,,,,,,,,,
,,,,,,62827483ae4c6af3f0af9bce,2024-05-13_11h24.04.023,group3.1-3.2-social-tom,2023.2.2,Win32,60.0240096,65c5074098b851296ff0b7ed,6642307a2a47e004653066ab,,,,,,,,,,,,,,,,,,,,,,,,,,,,,410.564,1,audio/Narrative7Situation5.wav,415.57,,415.571,424.086,"[[999,3],[999,81],[999,165],[999,247],[999,331],[999,417],[999,497],[999,581],[999,664],[999,747],[999,831],[999,915],[999,997],[999,1081],[999,1165],[999,1249],[999,1333],[999,1415],[999,1497],[999,1581],[999,1665],[999,1747],[999,1831],[999,1915],[999,1999],[999,2081],[999,2165],[999,2249],[999,2331],[999,2415],[999,2497],[999,2581],[999,2665],[999,2747],[999,2831],[999,2915],[999,2997],[999,3081],[999,3165],[999,3249],[999,3333],[999,3417],[999,3500],[999,3581],[999,3665],[999,3747],[999,3831],[999,3915],[999,3999],[999,4083],[999,4170],[999,4250],[13.3,4333],[11.7,4417],[10.8,4497],[10.5,4584],[10.5,4665],[10.5,4747],[10.5,4831],[10.5,4915],[10.4,4997],[10.5,5081],[10.5,5165],[10.5,5247],[10.5,5331],[10.3,5417],[8.3,5499],[7.7,5581],[7.6,5667],[7.6,5747],[7.6,5831],[7.6,5915],[7.6,5997],[7.6,6081],[7.6,6165],[7.6,6247],[7.6,6331],[7.6,6415],[7.4,6497],[7.2,6581],[7,6665],[7,6747],[7,6831],[7,6915],[7,6997],[7,7081],[7,7165],[7,7249],[7,7331],[7,7415],[7,7499],[7,7581],[7,7665],[7,7747],[7,7831],[7,7915],[7,7997],[7,8081],[5.1,8165],[4.2,8249],[3.9,8331],[3.9,8415],[3.9,8497]]",1,0,424.087,426.504,0.651041667,1.647,"[{""rating"":0.6510416666666685,""responseTime"":1.6469999999999914}]",space,1.868,,426.505,Definitely yes,100,426.51,,,[],,0,14,14,14,1,audio/Narrative8Situation5.wav,audio/Narrative7Situation5.wav,audio/Narrative6Situation5.wav,audio/Narrative5Situation5.wav,2,5,2,5,,,,,,,,,,,,,,,,,,,,,,,,,,,,,,,,,,,,,,,
,,,,,,62827483ae4c6af3f0af9bce,2024-05-13_11h24.04.023,group3.1-3.2-social-tom,2023.2.2,Win32,60.0240096,65c5074098b851296ff0b7ed,6642307a2a47e004653066ab,,,,,,,,,,,,,,,,,,,,,,,,,,,,,426.51,1,audio/Narrative7Situation6.wav,429.521,,429.521,439.508,"[[999,5],[999,99],[999,182],[999,265],[999,349],[999,432],[999,516],[999,599],[999,682],[999,765],[999,849],[999,934],[999,1016],[999,1098],[999,1182],[999,1265],[999,1348],[999,1432],[999,1516],[999,1600],[999,1682],[999,1767],[999,1850],[999,1932],[999,2016],[999,2098],[999,2182],[999,2267],[999,2350],[999,2432],[54.4,2518],[53.9,2600],[57,2683],[60.8,2766],[62.2,2850],[63.8,2938],[67.1,3032],[68.5,3111],[70.6,3194],[73.3,3273],[77.2,3355],[79.4,3438],[80.3,3520],[80.3,3599],[80.3,3682],[80.3,3765],[80.3,3849],[80.3,3932],[80.5,4017],[83.6,4100],[85.2,4183],[85.3,4266],[85.3,4349],[85.3,4432],[85.3,4515],[85.3,4599],[85.3,4682],[85.3,4766],[85.3,4849],[85.3,4932],[85.3,5016],[85.5,5099],[86.2,5184],[93,5269],[96.2,5350],[97.3,5436],[97.5,5515],[97.7,5598],[97.7,5682],[97.7,5765],[97.7,5849],[97.7,5932],[97.7,6015],[97.7,6099],[97.7,6182],[97.7,6266],[98,6349],[98.6,6432],[98.7,6515],[98.7,6598],[98.7,6682],[98.7,6765],[98.7,6849],[98.7,6932],[99.6,7017],[100,7099],[100,7182],[100,7266],[100,7349],[100,7432],[100,7516],[100,7598],[100,7682],[100,7766],[100,7867],[100,7948],[100,8032],[100,8116],[100,8199],[100,8282],[100,8370],[100,8448],[100,8532],[100,8615],[100,8732],[100,8816],[100,8899],[100,8982],[100,9065],[100,9149],[100,9232],[100,9315],[100,9399],[100,9483],[100,9565],[100,9649],[100,9732],[100,9815],[100,9899],[100,9982]]",1,0,439.509,441.621,99.609375,1.637,"[{""rating"":99.609375,""responseTime"":1.6370000000000005}]",space,1.568,,441.623,Definitely yes,100,441.637,,,[],,0,15,15,15,1,audio/Narrative8Situation6.wav,audio/Narrative7Situation6.wav,audio/Narrative6Situation6.wav,audio/Narrative5Situation6.wav,2,3,2,3,,,,,,,,,,,,,,,,,,,,,,,,,,,,,,,,,,,,,,,
,,,,,,62827483ae4c6af3f0af9bce,2024-05-13_11h24.04.023,group3.1-3.2-social-tom,2023.2.2,Win32,60.0240096,65c5074098b851296ff0b7ed,6642307a2a47e004653066ab,,,,,,,,,,,,,,,,,,,,,,,,,,,,,441.639,1,audio/Narrative7Situation7.wav,446.654,,446.654,463.855,"[[999,3],[999,82],[999,165],[999,248],[999,332],[999,432],[999,515],[999,599],[999,682],[999,765],[999,848],[999,932],[999,1014],[999,1098],[999,1182],[999,1269],[999,1348],[999,1432],[999,1516],[999,1599],[999,1682],[999,1765],[999,1848],[999,1932],[999,2015],[999,2098],[999,2182],[999,2264],[999,2348],[999,2432],[999,2515],[999,2598],[999,2683],[999,2765],[999,2849],[999,2932],[999,3014],[999,3098],[999,3182],[999,3266],[999,3349],[999,3432],[999,3516],[999,3598],[999,3682],[999,3764],[999,3850],[999,3932],[999,4015],[999,4099],[999,4183],[63.4,4266],[65.9,4349],[66.5,4433],[66.7,4515],[66.7,4598],[66.7,4682],[66.7,4765],[66.7,4848],[66.9,4932],[67.1,5015],[67.1,5098],[67.1,5182],[66,5266],[64.3,5349],[62.5,5433],[62,5514],[61.7,5598],[61.2,5682],[57.6,5766],[52.6,5850],[49.6,5932],[48.3,6016],[47.7,6099],[47.7,6182],[47.5,6265],[47.5,6348],[47.5,6432],[47.5,6515],[47.5,6599],[47.5,6697],[48.7,6771],[53.9,6850],[58.7,6933],[60.7,7016],[62,7099],[62.5,7182],[64.1,7267],[64.8,7353],[65,7433],[65.1,7515],[65.1,7598],[65.2,7682],[65.4,7765],[65.4,7849],[65.4,7932],[65.4,8014],[65.5,8098],[65.6,8182],[65.6,8265],[65.6,8348],[65.6,8432],[65.6,8515],[65.6,8598],[65.6,8682],[66,8765],[66.1,8849],[66.1,8932],[66.4,9015],[67.1,9101],[67.2,9182],[68.2,9266],[69,9349],[69.9,9433],[70.3,9516],[71.5,9599],[72.1,9682],[72.4,9765],[72.4,9848],[72.4,9932],[72.4,10015],[72.4,10098],[72.4,10182],[72.4,10265],[72.4,10349],[72.4,10432],[72.8,10516],[73.3,10601],[73.6,10683],[74,10766],[74,10848],[74,10932],[74,11015],[74,11098],[74,11182],[74,11266],[74,11349],[74,11432],[74,11515],[74,11598],[74,11682],[74,11765],[74,11848],[74,11932],[74,12015],[74,12098],[74,12182],[74,12272],[74,12348],[74,12432],[74,12515],[74,12598],[74,12682],[74,12765],[74,12849],[74,12932],[74,13015],[74,13099],[74,13182],[74,13265],[74,13349],[74,13432],[74,13515],[74,13599],[74,13682],[74,13765],[74,13849],[74,13932],[74,14016],[74,14099],[74,14182],[74,14265],[74,14349],[74,14432],[74,14515],[74,14598],[74,14682],[74,14765],[74,14849],[74,14932],[74,15016],[74,15099],[74,15182],[74,15266],[74,15349],[74,15432],[74,15515],[74,15599],[74,15682],[74,15765],[74,15851],[74,15932],[74,16015],[74,16099],[74,16182],[75,16266],[76.3,16351],[77.9,16432],[79.8,16517],[81.4,16601],[81.8,16682],[81.9,16765],[82,16849],[82,16932],[82.3,17017],[82.6,17098],[82.6,17182]]",1,0,463.857,467.254,95.57291667,3.042,"[{""rating"":91.015625,""responseTime"":0.9770000000000323},{""rating"":95.57291666666667,""responseTime"":3.04200000000003}]",space,2.856,,467.255,Not at all,0,467.27,,,[],,0,16,16,16,1,audio/Narrative8Situation7.wav,audio/Narrative7Situation7.wav,audio/Narrative6Situation7.wav,audio/Narrative5Situation7.wav,3,5,5,4,,,,,,,,,,,,,,,,,,,,,,,,,,,,,,,,,,,,,,,
,,,,,,62827483ae4c6af3f0af9bce,2024-05-13_11h24.04.023,group3.1-3.2-social-tom,2023.2.2,Win32,60.0240096,65c5074098b851296ff0b7ed,6642307a2a47e004653066ab,,,,,,,,,,,,,,,,,,,,,,,,,,,,,467.271,1,audio/Narrative7Situation8.wav,469.275,,469.276,479.306,"[[999,6],[999,110],[999,193],[999,281],[999,360],[999,448],[999,526],[999,610],[999,694],[999,776],[999,860],[999,947],[999,1029],[999,1112],[999,1197],[999,1276],[999,1359],[999,1443],[999,1526],[999,1610],[999,1694],[999,1779],[999,1861],[999,1944],[999,2027],[999,2111],[999,2195],[56.1,2280],[56.5,2361],[38.2,2863],[37,2944],[36.7,3027],[36.7,3109],[36.7,3193],[36.7,3277],[36.7,3360],[36.7,3443],[36.7,3526],[38.2,3611],[38.7,3694],[38.7,3776],[38.5,3861],[36.7,3944],[35.5,4028],[34.4,4111],[34,4195],[33.7,4277],[33.7,4360],[33.7,4443],[33.7,4527],[33.7,4610],[33.7,4695],[33.7,4777],[33.7,4860],[33.7,4943],[33.7,5027],[33.7,5110],[33.7,5194],[33.7,5277],[33.7,5360],[33.7,5443],[33.7,5527],[33.7,5616],[33.7,5693],[33.7,5777],[33.7,5860],[33.7,5943],[33.7,6027],[33.7,6110],[33.7,6193],[33.7,6276],[33.7,6359],[33.7,6444],[33.7,6527],[33.7,6609],[33.7,6693],[33.7,6777],[33.7,6860],[33.7,6944],[33.7,7026],[33.7,7110],[33.7,7193],[33.7,7277],[33.7,7359],[33.7,7443],[33.7,7526],[33.7,7610],[33.7,7694],[33.7,7776],[33.7,7860],[33.7,7944],[33.7,8028],[33.7,8110],[33.7,8194],[33.7,8277],[33.7,8360],[33.7,8444],[34.2,8527],[37.8,8613],[37.8,8694],[37.8,8776],[37.8,8860],[37.8,8944],[37.8,9026],[37.8,9110],[37.8,9193],[37.8,9277],[38.4,9360],[48.4,9444],[52.1,9527],[53.3,9611],[53.4,9693],[56,9778],[61.2,9861],[62.2,9944],[62.5,10027]]",1,0,479.307,480.821,75.52083333,1.177,"[{""rating"":75.52083333333333,""responseTime"":1.177000000000021}]",space,0.967,,480.822,Partially,50,480.834,,,[],,0,17,17,17,1,audio/Narrative8Situation8.wav,audio/Narrative7Situation8.wav,audio/Narrative6Situation8.wav,audio/Narrative5Situation8.wav,3,2,5,3,,,,,,,,,,,,,,,,,,,,,,,,,,,,,,,,,,,,,,,
,,,,,,62827483ae4c6af3f0af9bce,2024-05-13_11h24.04.023,group3.1-3.2-social-tom,2023.2.2,Win32,60.0240096,65c5074098b851296ff0b7ed,6642307a2a47e004653066ab,,,,,,,,,,,,,,,,,,,,,,,,,,,,,480.834,1,audio/Narrative7Situation9.wav,482.837,,482.839,491.471,"[[999,2],[999,80],[999,165],[999,250],[999,330],[999,420],[999,497],[999,581],[999,664],[999,747],[999,830],[999,914],[999,997],[999,1080],[999,1164],[999,1247],[999,1330],[999,1414],[999,1500],[999,1581],[999,1665],[999,1748],[999,1832],[999,1915],[999,2000],[999,2082],[999,2164],[999,2247],[48,2332],[48.2,2414],[48.7,3164],[47.8,3248],[47,3331],[46.1,3415],[45.1,3498],[43.5,3582],[42.6,3664],[43.8,3748],[54.4,3831],[64.8,3915],[64.8,3997],[64.8,4081],[64.8,4164],[64.8,4247],[64.8,4331],[64.8,4413],[64.8,4497],[64.8,4581],[64.8,4664],[64.8,4747],[64.8,4831],[64.8,4914],[67.1,5000],[71.1,5081],[72.7,5165],[77.3,5259],[78.8,5344],[81.5,5430],[84,5510],[86.6,5586],[91.8,5665],[98.3,5748],[100,5832],[100,5914],[100,6000],[100,6080],[100,6163],[100,6247],[100,6330],[100,6414],[100,6497],[100,6580],[100,6664],[100,6747],[100,6830],[100,6914],[100,6997],[100,7080],[100,7164],[100,7247],[100,7330],[100,7414],[100,7497],[100,7581],[100,7664],[100,7747],[100,7830],[100,7914],[100,7998],[100,8081],[100,8164],[100,8247],[100,8331],[99.9,8414],[99.7,8497],[99.7,8581]]",1,0,491.473,493.271,98.69791667,1.478,"[{""rating"":98.69791666666667,""responseTime"":1.4780000000000086}]",space,1.251,,493.272,Partially,50,500.304,49.73958333,5.729,"[{""rating"":49.73958333333333,""responseTime"":5.728999999999985}]",space,0,18,18,18,1,audio/Narrative8Situation9.wav,audio/Narrative7Situation9.wav,audio/Narrative6Situation9.wav,audio/Narrative5Situation9.wav,3,2,4,3,,,6.505,,,,,,,,,,,,,,,,,,,,,,,,,,,,,,,,,,,,
,,,,,,62827483ae4c6af3f0af9bce,2024-05-13_11h24.04.023,group3.1-3.2-social-tom,2023.2.2,Win32,60.0240096,65c5074098b851296ff0b7ed,6642307a2a47e004653066ab,,,,,,,,,,,,,,,,,,,,,,,,,,,536.916,539.491,539.538,2,audio/Narrative13Situation2.wav,539.54,,539.54,569.307,"[[41.4,2269],[30.9,2348],[26.6,2432],[24.9,2514],[24.7,2597],[23.3,2682],[21.1,2765],[20.6,2847],[20.6,2930],[20.6,3015],[20.6,3097],[20.6,3180],[20.6,3264],[20.6,3347],[20.6,3430],[20.6,3514],[20.6,3597],[20.6,3680],[20.6,3764],[20.6,3847],[20.6,3930],[20.6,4014],[20.6,4097],[20.6,4180],[20.6,4264],[20.6,4347],[20.6,4430],[18.1,4515],[15.5,4598],[15,4682],[14.8,4764],[14.8,4847],[14.8,4930],[14.8,5014],[14.8,5097],[14.8,5182],[14.8,5264],[15,5355],[15.1,5430],[15.4,5515],[15.4,5597],[15.4,5682],[15.5,5764],[15.5,5848],[15.5,5930],[15.5,6014],[15.5,6097],[15.6,6180],[15.9,6264],[15.9,6347],[15.9,6430],[15.9,6514],[15.9,6597],[15.9,6682],[15.9,6764],[15.9,6847],[15.9,6932],[16,7014],[16,7097],[16,7182],[16,7264],[16,7347],[16,7432],[16,7514],[16,7597],[16,7682],[16,7764],[16,7847],[16,7930],[16,8014],[16,8097],[16,8182],[36.5,8265],[82.8,8683],[80.5,8765],[79.7,8848],[79.4,8932],[79.4,9014],[78.9,9098],[76.2,9182],[75.4,9265],[75.4,9347],[75.7,9430],[75.8,9514],[75.8,9597],[75.8,9682],[75.8,9764],[75.8,9847],[75.8,9932],[75.8,10014],[75.8,10097],[75.8,10182],[75.8,10264],[75.8,10347],[75.8,10430],[75.8,10514],[75.8,10597],[75.8,10682],[76.7,10765],[77.3,10847],[77.6,10930],[78.4,11015],[79.2,11106],[79.6,11182],[79.6,11264],[79.7,11347],[79.7,11430],[79.7,11514],[79.7,11597],[79.7,11680],[79.7,11764],[79.7,11847],[79.7,11930],[79.7,12014],[79.7,12097],[79.7,12182],[79.7,12264],[79.7,12347],[79.7,12432],[79.7,12514],[79.7,12597],[79.7,12680],[79.7,12764],[79.7,12847],[79.7,12932],[79.7,13014],[79.7,13097],[79.7,13182],[79.7,13264],[79.7,13347],[79.7,13432],[79.7,13514],[79.7,13598],[79.7,13680],[79.7,13764],[80.5,13849],[81.8,13932],[82.4,14015],[82.6,14097],[82.7,14180],[82.7,14264],[82.7,14347],[82.7,14432],[82.7,14514],[82.7,14597],[82.7,14682],[82.7,14764],[82.7,14847],[82.7,14930],[82.7,15014],[82.7,15097],[82.7,15180],[82.7,15264],[82.7,15348],[82.7,15432],[82.8,15514],[82.8,15597],[82.8,15680],[82.8,15764],[82.8,15847],[82.8,15937],[82.8,16014],[82.8,16097],[82.8,16182],[82.8,16264],[82.8,16348],[82.8,16432],[82.8,16514],[82.8,16597],[82.8,16680],[82.8,16764],[82.8,16847],[82.8,16930],[83.1,17014],[83.6,17097],[84.1,17180],[84.1,17264],[84.1,17348],[84.1,17430],[84.1,17514],[83.6,17598],[83.2,17680],[82.8,17765],[82.6,17847],[82.6,17930],[82.6,18014],[82.6,18097],[82.6,18182],[82.6,18264],[82.2,18347],[81.8,18432],[81.4,18515],[76.3,18598],[66.4,18682],[62.9,18764],[62.9,18847],[62.9,18932],[62.9,19014],[62.2,19098],[60.7,19187],[59.9,19269],[59.9,19348],[60.2,19432],[60.2,19514],[58.5,19597],[50.3,19682],[43.6,19764],[39.2,19848],[33.5,19932],[27.9,20014],[26.3,20098],[25.8,20182],[25.7,20264],[25.5,20347],[25.3,20432],[24.3,20514],[23.7,20598],[23.4,20682],[23.3,20764],[23.3,20848],[23.3,20930],[23.3,21014],[23.3,21097],[23.3,21180],[23.3,21264],[23.3,21347],[23.3,21430],[23.3,21514],[23.3,21597],[23.3,21682],[23.3,21764],[23.3,21848],[23.3,21930],[23.3,22014],[23.3,22097],[23.3,22182],[23.3,22264],[23.3,22347],[23.3,22432],[23.3,22514],[23.3,22597],[23.3,22680],[23.3,22764],[23.3,22848],[23.3,22930],[23.3,23014],[23.3,23097],[23.3,23182],[23.3,23264],[23.3,23347],[23.3,23432],[23.3,23514],[23.3,23597],[23.3,23680],[23.3,23764],[23.3,23847],[23.3,23932],[23.3,24017],[23.3,24097],[23.3,24182],[23.3,24264],[23.3,24347],[23.3,24432],[23.3,24514],[23.3,24597],[23.3,24682],[23.3,24764],[23.3,24848],[23.3,24932],[23.3,25014],[23.3,25097],[23.3,25182],[23.3,25264],[23.3,25347],[23.3,25430],[23.3,25514],[23.3,25597],[23.2,25682],[21.1,25764],[20.2,25848],[19.4,25932],[19,26014],[19,26097],[18.9,26180],[18.8,26264],[18.8,26348],[18.8,26432],[18.6,26514],[18.6,26597],[18.6,26682],[18.6,26764],[18.6,26847],[18.6,26932],[18.6,27014],[18.6,27097],[18.6,27182],[18.6,27264],[18.6,27348],[18.6,27430],[18.6,27514],[18.6,27597],[18.6,27682],[18.6,27764],[18.6,27847],[18.6,27932],[18.6,28014],[18.6,28097],[18.6,28182],[18.6,28264],[18.6,28347],[18.6,28430],[18.6,28514],[18.6,28597],[18.6,28682],[18.6,28764],[18.6,28847],[18.6,28930],[18.6,29014],[18.6,29097],[18.6,29180],[18.6,29264],[18.6,29347],[18.6,29432],[18.6,29514],[18.6,29598],[18.6,29682],[18.6,29765]]",1,0,569.309,569.318,,,[],,,,569.318,Not at all,0,569.33,,,[],,0,0,0,0,1,audio/Narrative13Situation2.wav,audio/Narrative13Situation2.wav,audio/Narrative13Situation2.wav,audio/Narrative13Situation2.wav,2,2,2,2,,,,,500.304,536.909,space,36.088,,,,,,,,,,,,,,,,,,,,,,,,,,,,,,,
,,,,,,62827483ae4c6af3f0af9bce,2024-05-13_11h24.04.023,group3.1-3.2-social-tom,2023.2.2,Win32,60.0240096,65c5074098b851296ff0b7ed,6642307a2a47e004653066ab,,,,,,,,,,,,,,,,,,,,,,,,,,,,,569.33,2,audio/Narrative6Situation1.wav,571.339,,571.339,597.94,"[[48.6,1000],[48.2,1750],[48.2,1835],[48.2,1915],[48.2,2000],[48.2,2081],[48.2,2165],[48.2,2250],[48,2333],[47.8,2417],[47,2500],[46.1,2583],[43.5,2667],[42.2,2750],[41,2833],[37.8,2917],[34.2,3000],[32.3,3082],[31.8,3165],[31.8,3250],[31.8,3331],[31.5,3417],[29.3,3538],[28.9,3615],[28.1,3701],[27.2,3783],[26.7,3865],[26.3,3949],[25.5,4033],[24.7,4122],[24.3,4205],[24.3,4283],[24.3,4365],[24.3,4449],[24.3,4533],[24.3,4615],[24.3,4698],[24.3,4783],[24.3,4865],[24.3,4949],[24.3,5033],[24.3,5115],[24.3,5199],[24.3,5283],[24.3,5365],[24.3,5449],[24.3,5533],[24.3,5616],[24.3,5698],[24.3,5783],[24.3,5865],[24.3,5948],[24.3,6033],[24.3,6115],[24.3,6199],[24.3,6283],[24.3,6365],[24.3,6449],[24.3,6533],[24.3,6616],[23.8,6698],[23.8,6784],[53.4,6867],[77.9,6949],[80.3,7034],[80.6,7116],[78.6,7201],[76.4,7283],[75.9,7365],[75.9,7448],[76.3,7533],[76.3,7615],[76.3,7698],[76.3,7783],[76.3,7865],[76.3,7948],[76.3,8034],[76.4,8116],[76.4,8198],[76.4,8283],[76.4,8365],[76.4,8449],[76.4,8533],[76.4,8616],[76.4,8698],[76.4,8783],[76.4,8865],[76.4,8948],[76.4,9033],[76.4,9116],[76.4,9198],[76.4,9283],[76.6,9366],[76.6,9449],[76.6,9533],[76.6,9615],[76.6,9699],[76.6,9783],[76.6,9865],[76.6,9949],[76.6,10033],[76.6,10119],[76.6,10199],[76.6,10284],[76.6,10365],[76.7,10451],[76.8,10533],[76.8,10615],[76.8,10699],[76.8,10782],[76.8,10866],[76.8,10949],[76.8,11033],[76.8,11115],[76.8,11198],[76.8,11282],[76.8,11365],[76.8,11449],[76.8,11533],[76.8,11615],[76.8,11699],[76.8,11783],[76.8,11865],[76.8,11949],[76.8,12033],[76.8,12116],[76.8,12198],[76.8,12283],[76.8,12365],[76.8,12451],[76.8,12533],[76.8,12615],[76.8,12699],[76.8,12783],[65.9,12869],[61.2,12956],[54.6,13038],[41.9,13117],[31.4,13201],[26.8,13285],[25.8,13370],[25.8,13449],[25.8,13533],[25.8,13615],[25.8,13699],[25.8,13783],[25.8,13866],[25.8,13948],[25.8,14033],[25.8,14115],[25.8,14199],[25.8,14283],[25.8,14366],[25.8,14449],[25.8,14533],[25.8,14616],[25.8,14699],[25.8,14783],[25.8,14865],[25.8,14948],[25.8,15033],[25.8,15115],[25.8,15205],[25.8,15283],[25.8,15365],[25.8,15449],[25.8,15533],[25.8,15616],[25.8,15699],[25.8,15783],[25.8,15866],[25.8,15949],[25.8,16033],[25.8,16116],[25.8,16199],[25.8,16282],[25.8,16365],[25.8,16449],[25.8,16533],[25.8,16616],[25.8,16698],[25.8,16783],[25.8,16865],[25.8,16949],[25.8,17033],[25.8,17115],[25.8,17198],[25.8,17283],[25.8,17365],[25.8,17448],[25.8,17533],[25.8,17616],[25.8,17699],[25.8,17783],[25.8,17866],[25.8,17949],[25.8,18033],[25.8,18116],[25.8,18199],[25.8,18283],[25.8,18366],[25.8,18449],[25.8,18533],[25.8,18615],[25.8,18699],[25.8,18783],[25.8,18866],[25.8,18949],[25.8,19033],[25.8,19115],[25.8,19199],[25.8,19283],[25.8,19365],[25.8,19449],[25.8,19533],[25.8,19615],[25.8,19699],[23.6,19784],[20.3,19866],[18.2,19951],[17.3,20033],[16.9,20115],[16.9,20198],[16.9,20283],[16.9,20366],[16.8,20448],[16.5,20533],[15.8,20617],[15.4,20701],[15.4,20783],[15.9,20867],[19.4,20949],[20.8,21033],[22.5,21117],[22.5,21198],[22.5,21283],[22.5,21366],[22.5,21449],[22.5,21533],[17.7,21624],[11.5,21706],[9.9,21788],[9.5,21871],[9.6,21952],[10.9,22038],[11.5,22121],[11.6,22198],[11.6,22283],[11.6,22365],[11.6,22449],[11.6,22533],[11.6,22615],[12.6,22701],[23.3,22784],[35.4,22867],[38.3,22952],[38.8,23033],[38.8,23116],[38.8,23199],[30.5,23284],[19.3,23366],[16.4,23452],[15.8,23534],[15.6,23615],[15.6,23699],[15.6,23783],[15.6,23865],[16.4,23951],[52.9,24538],[47.1,24616],[42.4,24699],[35.8,24784],[28.5,24867],[25.3,24956],[24.1,25033],[24.1,25115],[24.1,25199],[24.1,25283],[24.1,25365],[22.3,25452],[17.4,25534],[15,25616],[14.3,25699],[14.1,25783],[14.1,25865],[14.1,25949],[14.2,26033],[18.8,26116],[23.6,26202],[24.7,26285],[24.9,26366],[24.9,26449],[24.9,26539]]",1,0,597.942,600.674,50,1.957,"[{""rating"":50,""responseTime"":1.9569999999999936}]",space,2.186,,600.676,Not at all,0,600.686,,,[],,0,1,1,1,1,audio/Narrative7Situation1.wav,audio/Narrative8Situation1.wav,audio/Narrative5Situation1.wav,audio/Narrative6Situation1.wav,2,5,5,2,,,,,,,,,,,,,,,,,,,,,,,,,,,,,,,,,,,,,,,
,,,,,,62827483ae4c6af3f0af9bce,2024-05-13_11h24.04.023,group3.1-3.2-social-tom,2023.2.2,Win32,60.0240096,65c5074098b851296ff0b7ed,6642307a2a47e004653066ab,,,,,,,,,,,,,,,,,,,,,,,,,,,,,600.688,2,audio/Narrative6Situation2.wav,603.69,,603.69,632.209,"[[999,0],[999,82],[999,164],[999,249],[999,338],[999,415],[999,499],[999,581],[999,665],[999,749],[999,831],[999,915],[999,999],[999,1081],[999,1164],[999,1249],[999,1331],[999,1414],[999,1500],[999,1583],[999,1668],[999,1750],[999,1832],[999,1915],[999,2000],[999,2081],[999,2165],[999,2249],[999,2332],[999,2414],[999,2499],[999,2581],[999,2664],[999,2749],[999,2831],[999,2914],[999,2999],[999,3081],[999,3165],[999,3249],[999,3331],[999,3415],[999,3499],[999,3582],[999,3667],[999,3749],[999,3832],[999,3915],[999,3997],[999,4081],[999,4164],[999,4249],[999,4331],[999,4414],[999,4499],[999,4581],[999,4664],[999,4749],[999,4831],[999,4915],[999,4999],[999,5081],[999,5165],[999,5247],[999,5332],[999,5415],[999,5499],[999,5581],[999,5664],[999,5750],[999,5833],[999,5915],[999,6000],[999,6081],[999,6165],[60.7,6249],[63.5,6333],[64.3,6415],[64.7,6500],[65,6582],[65.1,6665],[65.4,6750],[65.4,6832],[65.4,6914],[65.4,6997],[65.9,7083],[67.2,7188],[67.4,7278],[67.4,7355],[67.4,7432],[67.4,7515],[67.4,7598],[67.4,7682],[67.4,7765],[67.4,7848],[67.4,7936],[67.4,8015],[67.4,8098],[67.4,8182],[67.4,8264],[67.4,8348],[67.4,8432],[67.4,8514],[67.4,8598],[67.4,8682],[67.4,8765],[67.4,8848],[67.4,8932],[67.4,9015],[67.4,9100],[67.4,9182],[67.4,9265],[67.4,9348],[67.4,9432],[67.4,9514],[67.4,9598],[67.4,9682],[67.4,9765],[67.4,9848],[67.4,9932],[67.4,10015],[67.4,10098],[67.4,10182],[67.4,10265],[67.4,10348],[67.4,10432],[67.4,10515],[67.4,10598],[67.4,10682],[67.4,10765],[67.4,10848],[67.4,10932],[67.4,11014],[67.4,11098],[67.4,11182],[67.4,11264],[67.4,11350],[67.4,11432],[67.4,11515],[67.4,11598],[67.4,11682],[67.4,11764],[67.4,11848],[67.4,11932],[67.4,12015],[67.4,12098],[67.4,12184],[67.4,12265],[67.4,12348],[67.4,12432],[67.4,12515],[67.4,12598],[67.4,12682],[67.4,12765],[67.4,12848],[67.4,12932],[67.4,13014],[67.4,13098],[67.4,13182],[67.4,13265],[67.4,13348],[67.4,13432],[67.4,13515],[67.4,13598],[67.4,13682],[67.4,13765],[67.4,13848],[67.4,13932],[67.4,14015],[67.4,14098],[67.4,14182],[67.4,14264],[67.4,14348],[67.4,14432],[67.4,14515],[67.4,14598],[67.4,14682],[67.4,14765],[67.4,14848],[67.4,14932],[67.4,15015],[67.4,15098],[67.4,15182],[69.5,15269],[72,15351],[73.2,15434],[74.1,15516],[75.8,15605],[77.5,15683],[79,15766],[80.1,15855],[81,15933],[82.2,16016],[84.2,16101],[85.3,16183],[85.9,16268],[86.2,16348],[86.2,16433],[86.2,16515],[86.2,16600],[86.2,16682],[86.2,16765],[86.2,16850],[86.2,16932],[86.2,17015],[86.2,17100],[86.2,17182],[86.2,17265],[86.2,17348],[86.2,17432],[86.2,17515],[86.2,17598],[86.2,17682],[86.2,17765],[86.2,17848],[86.2,17948],[86.2,18033],[86.2,18115],[86.2,18198],[86.2,18283],[86.2,18365],[86.2,18448],[86.2,18533],[86.2,18615],[86.2,18698],[86.2,18782],[86.2,18865],[86.2,18949],[86.2,19032],[86.2,19115],[86.2,19199],[86.2,19283],[86.2,19365],[86.2,19449],[86.2,19533],[86.2,19615],[86.2,19699],[86.2,19782],[86.2,19865],[86.2,19948],[86.2,20033],[86.2,20115],[86.2,20198],[86.2,20282],[86.2,20365],[86.2,20449],[86.2,20532],[86.2,20615],[88.3,20701],[89.5,20783],[89.8,20866],[90.1,20948],[90.1,21033],[90.1,21115],[90.1,21198],[90.1,21282],[91.5,21366],[93.2,21449],[93.8,21533],[93.8,21615],[93.8,21698],[93.8,21783],[93.8,21865],[93.8,21948],[93.8,22032],[93.8,22115],[93.8,22198],[93.8,22283],[93.8,22365],[93.8,22448],[93.8,22532],[93.8,22615],[93.8,22698],[93.8,22783],[93.8,22865],[93.8,22948],[93.8,23033],[93.8,23115],[93.8,23198],[93.8,23283],[93.8,23365],[93.8,23448],[93.8,23533],[93.8,23615],[93.8,23698],[93.8,23782],[93.8,23867],[93.8,23948],[93.8,24033],[93.8,24115],[93.8,24198],[93.8,24282],[93.8,24366],[93.8,24449],[93.8,24533],[93.8,24615],[93.8,24698],[93.8,24783],[93.8,24865],[93.8,24948],[93.8,25033],[93.8,25115],[93.8,25198],[93.8,25283],[93.8,25365],[93.8,25448],[93.8,25533],[93.8,25615],[93.8,25698],[93.8,25783],[93.8,25865],[93.8,25948],[93.8,26033],[93.8,26115],[93.8,26198],[93.8,26283],[93.8,26365],[93.8,26449],[93.8,26532],[93.8,26625],[93.8,26698],[93.8,26783],[93.8,26865],[93.8,26948],[93.8,27033],[93.8,27115],[93.8,27198],[93.8,27283],[93.8,27365],[93.8,27448],[93.8,27532],[93.8,27616],[93.8,27699],[93.8,27782],[93.8,27865],[93.8,27948],[93.8,28033],[93.8,28115],[93.8,28198],[95.4,28283],[97.7,28366],[98.2,28448]]",1,0,632.21,633.458,99.73958333,0.889,"[{""rating"":99.73958333333333,""responseTime"":0.88900000000001}]",space,0.7,,633.459,Definitely yes,100,633.471,,,[],,0,2,2,2,1,audio/Narrative7Situation2.wav,audio/Narrative8Situation2.wav,audio/Narrative5Situation2.wav,audio/Narrative6Situation2.wav,3,3,3,3,,,,,,,,,,,,,,,,,,,,,,,,,,,,,,,,,,,,,,,
,,,,,,62827483ae4c6af3f0af9bce,2024-05-13_11h24.04.023,group3.1-3.2-social-tom,2023.2.2,Win32,60.0240096,65c5074098b851296ff0b7ed,6642307a2a47e004653066ab,,,,,,,,,,,,,,,,,,,,,,,,,,,,,633.473,2,audio/Narrative6Situation3.wav,638.473,,638.473,651.09,"[[999,4],[999,82],[999,166],[999,250],[999,332],[999,416],[999,500],[999,582],[999,665],[999,750],[999,833],[999,915],[999,1000],[999,1082],[999,1166],[999,1250],[999,1332],[999,1416],[999,1499],[999,1582],[999,1665],[999,1749],[999,1832],[999,1916],[999,2000],[999,2082],[999,2165],[999,2250],[999,2342],[999,2416],[999,2500],[999,2583],[999,2666],[999,2750],[999,2832],[999,2915],[999,3000],[999,3083],[999,3165],[999,3250],[999,3332],[999,3415],[999,3500],[999,3582],[999,3665],[999,3750],[999,3832],[999,3915],[999,4000],[999,4083],[999,4166],[999,4250],[999,4334],[999,4416],[999,4500],[36.2,4582],[33.6,4668],[33.6,4750],[33.6,4832],[33.6,4915],[33.6,5000],[31,5083],[29,5166],[27.5,5250],[26.7,5333],[26.3,5418],[26.3,5500],[25.7,5583],[24.7,5668],[23.4,5750],[23,5832],[22.8,5915],[22.8,6000],[22.8,6082],[22.8,6166],[22.8,6250],[22.8,6332],[22.8,6416],[22.8,6500],[22.8,6582],[22.8,6665],[22.8,6750],[22.8,6832],[22.8,6916],[22.8,7000],[22.8,7082],[22.8,7166],[22.8,7250],[22.8,7332],[22.8,7416],[22.8,7500],[22.8,7583],[22.8,7666],[22.8,7749],[22.8,7832],[22.8,7915],[22.8,7999],[22.8,8082],[22.8,8166],[22.8,8250],[22.8,8332],[22.8,8416],[22.8,8500],[22.8,8582],[22.8,8665],[22.8,8750],[22.8,8832],[22.8,8916],[22.8,8999],[22.8,9082],[22.8,9166],[22.8,9250],[22.8,9332],[22.8,9416],[22.8,9500],[22.8,9583],[22.8,9665],[22.8,9750],[22.8,9833],[22.8,9918],[22.8,10000],[22.8,10082],[22.8,10166],[22.8,10250],[22.8,10332],[22.8,10416],[22.8,10500],[23.2,10584],[60.7,10666],[75.7,10750],[77.7,10833],[77.7,10916],[76.8,11000],[76.6,11082],[76.6,11168],[76.6,11250],[76.6,11332],[76.6,11416],[76.6,11500],[76.6,11582],[76.6,11666],[76.6,11750],[76.6,11833],[76.6,11915],[76.6,12000],[76.6,12082],[76.6,12165],[76.6,12250],[76.6,12332],[76.6,12416],[76.6,12500],[76.6,12583]]",1,0,651.092,653.259,77.34375,1.798,"[{""rating"":77.34375,""responseTime"":1.7979999999998881}]",space,1.618,,653.259,Partially,50,653.282,,,[],,0,3,3,3,1,audio/Narrative7Situation3.wav,audio/Narrative8Situation3.wav,audio/Narrative5Situation3.wav,audio/Narrative6Situation3.wav,8,4,3,5,,,,,,,,,,,,,,,,,,,,,,,,,,,,,,,,,,,,,,,
,,,,,,62827483ae4c6af3f0af9bce,2024-05-13_11h24.04.023,group3.1-3.2-social-tom,2023.2.2,Win32,60.0240096,65c5074098b851296ff0b7ed,6642307a2a47e004653066ab,,,,,,,,,,,,,,,,,,,,,,,,,,,,,653.284,2,audio/Narrative6Situation4.wav,655.293,,655.293,667.908,"[[999,2],[999,80],[999,163],[999,245],[999,330],[999,413],[999,495],[999,580],[999,663],[999,747],[999,831],[999,916],[999,998],[999,1084],[999,1163],[999,1247],[999,1330],[999,1413],[999,1497],[999,1580],[999,1663],[999,1748],[999,1831],[999,1913],[999,1997],[999,2080],[999,2163],[999,2247],[999,2331],[999,2413],[999,2498],[999,2580],[999,2663],[999,2747],[999,2831],[999,2913],[999,2997],[999,3081],[999,3165],[999,3249],[999,3331],[999,3413],[999,3504],[999,3580],[999,3663],[999,3747],[999,3830],[999,3913],[999,3997],[999,4080],[999,4165],[40.5,4249],[36.5,4331],[34.1,4415],[33.5,4498],[33.1,4580],[33.5,4663],[34.6,4748],[35.2,4831],[37.5,4915],[38.4,4999],[38.7,5080],[37.8,5165],[34.8,5248],[34,5330],[34,5413],[34.8,5497],[37.9,5580],[39.3,5663],[39.3,5748],[34.6,5830],[32,5915],[31.4,5997],[31,6081],[31,6163],[31,6247],[31,6330],[31,6413],[31,6499],[31,6580],[31,6663],[31,6747],[31,6830],[31,6913],[31,6997],[31,7080],[31,7163],[31,7247],[31,7330],[31,7413],[31,7498],[31,7580],[31,7665],[31,7747],[31,7830],[31,7913],[31,7995],[31,8081],[31,8163],[31,8249],[31,8330],[31,8413],[31,8497],[31,8580],[31,8663],[31,8745],[31,8830],[31,8913],[31,8995],[31,9081],[31,9163],[31,9247],[31,9330],[31,9413],[31,9497],[31,9580],[40.1,9663],[51.2,9748],[54.2,9830],[54.9,9915],[55.1,9997],[55.6,10081],[56.8,10163],[57,10247],[57,10331],[57,10413],[57,10497],[57,10581],[57,10663],[57,10747],[57,10830],[57,10913],[57,10997],[52.3,11081],[50.5,11165],[50.1,11247],[50.1,11331],[50.1,11413],[50.1,11497],[50.1,11581],[50.1,11663],[50.1,11747],[50.1,11831],[50.1,11913],[50.1,11997],[49.6,12081],[49.6,12163],[49.6,12247],[49.6,12330],[49.6,12413],[49.6,12497],[49.6,12580]]",1,0,667.909,670.858,35.02604167,2.727,"[{""rating"":43.48958333333333,""responseTime"":1.8279999999999745},{""rating"":35.026041666666664,""responseTime"":2.7269999999999754}]",space,2.403,,670.858,Not at all,0,670.869,,,[],,0,4,4,4,1,audio/Narrative7Situation4.wav,audio/Narrative8Situation4.wav,audio/Narrative5Situation4.wav,audio/Narrative6Situation4.wav,3,3,1,2,,,,,,,,,,,,,,,,,,,,,,,,,,,,,,,,,,,,,,,
,,,,,,62827483ae4c6af3f0af9bce,2024-05-13_11h24.04.023,group3.1-3.2-social-tom,2023.2.2,Win32,60.0240096,65c5074098b851296ff0b7ed,6642307a2a47e004653066ab,,,,,,,,,,,,,,,,,,,,,,,,,,,,,670.87,2,audio/Narrative6Situation5.wav,672.874,,672.875,680.859,"[[999,2],[999,81],[999,165],[999,248],[999,331],[999,415],[999,498],[999,581],[999,665],[999,749],[999,831],[999,915],[999,999],[999,1081],[999,1165],[999,1249],[999,1331],[999,1415],[999,1499],[999,1581],[999,1666],[999,1750],[999,1831],[999,1915],[999,1999],[999,2083],[999,2165],[999,2249],[999,2333],[999,2415],[999,2499],[999,2581],[999,2665],[999,2748],[999,2831],[999,2915],[999,2999],[999,3088],[999,3165],[999,3249],[999,3333],[999,3415],[999,3498],[999,3581],[999,3665],[999,3749],[999,3831],[999,3915],[999,3999],[999,4083],[999,4166],[999,4249],[999,4331],[999,4415],[999,4500],[999,4581],[999,4665],[999,4748],[999,4833],[999,4917],[999,5000],[999,5083],[999,5165],[999,5250],[999,5331],[999,5415],[999,5499],[999,5583],[999,5667],[999,5749],[999,5831],[999,5916],[999,5998],[999,6081],[999,6165],[999,6249],[999,6331],[999,6416],[999,6500],[999,6581],[999,6667],[999,6750],[999,6833],[999,6915],[999,6998],[999,7081],[999,7165],[999,7249],[999,7331],[999,7416],[999,7499],[999,7581],[999,7665],[999,7749],[47.9,7833],[47.7,7915]]",1,0,680.859,683.341,29.03645833,2.228,"[{""rating"":29.036458333333336,""responseTime"":2.2280000000000655}]",space,1.935,,683.341,Definitely yes,100,683.35,,,[],,0,5,5,5,1,audio/Narrative7Situation5.wav,audio/Narrative8Situation5.wav,audio/Narrative5Situation5.wav,audio/Narrative6Situation5.wav,5,2,5,2,,,,,,,,,,,,,,,,,,,,,,,,,,,,,,,,,,,,,,,
,,,,,,62827483ae4c6af3f0af9bce,2024-05-13_11h24.04.023,group3.1-3.2-social-tom,2023.2.2,Win32,60.0240096,65c5074098b851296ff0b7ed,6642307a2a47e004653066ab,,,,,,,,,,,,,,,,,,,,,,,,,,,,,683.352,2,audio/Narrative6Situation6.wav,685.357,,685.358,696.441,"[[999,1],[999,81],[999,165],[999,247],[999,351],[999,432],[999,515],[999,598],[999,682],[999,765],[999,848],[999,932],[999,1015],[999,1098],[999,1182],[999,1264],[999,1348],[999,1432],[999,1515],[999,1598],[999,1682],[999,1765],[999,1848],[999,1932],[999,2015],[999,2100],[999,2184],[999,2264],[999,2347],[999,2432],[999,2515],[999,2598],[999,2682],[999,2765],[48.8,2848],[45.8,2939],[45.1,3024],[44.4,3100],[43.9,3183],[43.8,3264],[43.8,3348],[43.6,3432],[43.6,3515],[43.6,3598],[43.6,3682],[43.6,3765],[43.6,3848],[43.6,3932],[43.6,4015],[43.6,4098],[43.6,4182],[42.8,4269],[41.4,4350],[40.8,4432],[40.4,4516],[40.2,4598],[39.8,4683],[39.2,4765],[39.1,4848],[39.1,4932],[39.1,5014],[39.1,5098],[39.1,5182],[38.8,5264],[38.4,5348],[38.4,5433],[38.4,5514],[37.6,5598],[37.5,5682],[37.2,5766],[36.7,5850],[36.5,5932],[36.5,6015],[36.5,6098],[36.2,6183],[35.8,6264],[35.7,6348],[35.7,6432],[35.7,6515],[35.7,6598],[35.5,6682],[35.4,6764],[35.4,6848],[35.3,6932],[35.3,7014],[35.3,7098],[35.3,7182],[35.2,7265],[35.2,7348],[35.2,7432],[34.9,7514],[34.9,7598],[34.9,7682],[36.8,7768],[42.7,7852],[44.3,7933],[44.7,8015],[46.1,8100],[50.1,8183],[52.6,8266],[53.3,8348],[53.4,8432],[53.4,8515],[54.3,8600],[55.1,8683],[55.5,8764],[55.6,8848],[55.6,8932],[55.6,9015],[55.6,9100],[55.6,9182],[55.6,9265],[55.6,9348],[55.6,9432],[55.6,9515],[55.6,9598],[55.6,9682],[55.6,9765],[55.6,9848],[55.6,9932],[55.6,10015],[55.6,10098],[55.6,10182],[55.6,10264],[55.6,10348],[55.6,10432],[55.6,10515],[55.6,10598],[55.6,10682],[51.7,10766],[46.6,10851],[45.1,10933],[44.5,11016]]",1,0,696.442,698.676,42.70833333,2.006,"[{""rating"":36.328125,""responseTime"":1.0889999999999418},{""rating"":42.70833333333333,""responseTime"":2.005999999999972}]",space,1.702,,698.678,Definitely yes,100,698.689,,,[],,0,6,6,6,1,audio/Narrative7Situation6.wav,audio/Narrative8Situation6.wav,audio/Narrative5Situation6.wav,audio/Narrative6Situation6.wav,3,2,3,2,,,,,,,,,,,,,,,,,,,,,,,,,,,,,,,,,,,,,,,
,,,,,,62827483ae4c6af3f0af9bce,2024-05-13_11h24.04.023,group3.1-3.2-social-tom,2023.2.2,Win32,60.0240096,65c5074098b851296ff0b7ed,6642307a2a47e004653066ab,,,,,,,,,,,,,,,,,,,,,,,,,,,,,698.69,2,audio/Narrative6Situation7.wav,703.691,,703.691,728.575,"[[45.2,1667],[44.9,1752],[44.7,1834],[44.7,1916],[44.7,1999],[44.1,2084],[42.6,2167],[41.4,2250],[41,2334],[40.9,2416],[40.9,2499],[40.9,2582],[40.9,2666],[40.5,2750],[40.1,2835],[40.1,2916],[40,3000],[38.8,3082],[37.9,3167],[37.2,3250],[37,3331],[37,3417],[37,3500],[37,3581],[37,3666],[37,3750],[37,3832],[35.7,3917],[33.7,4000],[33.1,4086],[32.8,4166],[32.7,4249],[32.7,4332],[32.7,4416],[32.7,4500],[32.6,4584],[32.4,4666],[32.2,4749],[32.2,4832],[32.2,4916],[32.2,4999],[32,5081],[31.6,5166],[31.6,5249],[31.6,5332],[31.6,5416],[31.5,5500],[31.5,5582],[31.5,5666],[31.1,5750],[31,5834],[30.3,5918],[30.1,6000],[29.9,6084],[29.7,6166],[29.7,6250],[29.7,6334],[29.7,6416],[29.7,6500],[29.4,6584],[29.3,6666],[29,6750],[28.4,6834],[28,6917],[27.7,6999],[27.7,7082],[27.3,7166],[27.3,7249],[27.3,7332],[27,7417],[26.6,7499],[26.3,7582],[26.3,7666],[25.8,7750],[25.8,7832],[25.8,7916],[25.7,7999],[25.3,8096],[24.6,8171],[24.2,8250],[24,8332],[24,8416],[24,8499],[23.8,8582],[23.7,8667],[23.4,8750],[22.3,8834],[21.7,8917],[21.7,9000],[21.7,9082],[21.7,9166],[21.6,9250],[21.1,9332],[20.6,9417],[20.1,9500],[20.1,9582],[20.1,9666],[19.5,9753],[19,9835],[19,9917],[19,10000],[19,10082],[18.6,10168],[18.1,10250],[18.1,10332],[18.1,10416],[18.1,10499],[18,10584],[17.6,10668],[17.3,10750],[17.2,10832],[17.1,10916],[17.1,11000],[17.1,11082],[17.1,11167],[17.1,11250],[17.1,11332],[17.1,11417],[17.1,11500],[17.1,11584],[17.1,11666],[17.1,11750],[17.1,11831],[17.1,11916],[17.1,11999],[17.1,12082],[17.1,12166],[17.1,12250],[17.1,12332],[17.1,12417],[17.1,12500],[17.1,12581],[17.1,12666],[17.1,12749],[17.1,12836],[17.1,12932],[17.1,13019],[17.1,13099],[17.1,13182],[17.1,13265],[17.1,13349],[17.1,13432],[17.1,13517],[17.1,13599],[17.1,13683],[17.1,13767],[17.1,13853],[17.1,13932],[17.1,14015],[17.1,14100],[17.1,14182],[17.1,14265],[17.1,14349],[17.1,14432],[17.1,14517],[17.1,14599],[17.1,14682],[17.1,14765],[17.1,14850],[17.1,14932],[17.1,15015],[17.1,15100],[17.1,15182],[17.1,15267],[17.1,15349],[17.1,15433],[17.1,15517],[17.1,15600],[17.1,15682],[17.1,15765],[17.1,15850],[17.1,15932],[17.1,16017],[17.1,16099],[17.1,16182],[17.1,16265],[17.1,16350],[17.1,16432],[17.1,16515],[17.1,16600],[17.1,16682],[17.1,16765],[17.1,16850],[17.1,16932],[17.1,17015],[17.1,17100],[17.1,17183],[17.1,17265],[17.1,17355],[17.1,17432],[17.1,17515],[17.1,17600],[17.1,17682],[17.1,17765],[17.1,17850],[17.1,17932],[17.1,18015],[17.1,18100],[17.1,18182],[17.1,18265],[17.1,18350],[17.1,18432],[17.1,18517],[17.1,18600],[17.1,18682],[17.1,18765],[17.1,18849],[17.1,18933],[17.1,19015],[17.1,19100],[17.1,19182],[17.1,19265],[17.1,19350],[17.1,19432],[17.1,19515],[17.1,19600],[17.1,19683],[17.1,19767],[17.1,19850],[17.1,19932],[17.1,20015],[17.1,20099],[17.1,20182],[17.1,20265],[17.1,20349],[17.1,20432],[17.1,20517],[17.1,20600],[17.1,20682],[17.1,20765],[17.1,20850],[17.1,20932],[17.1,21017],[17.1,21099],[17.1,21182],[17.1,21267],[16.9,21353],[15.8,21438],[15.4,21519],[17.4,21601],[29.3,21685],[44.9,21767],[61.3,21853],[70.7,21933],[74.7,22017],[77.7,22101],[80.3,22183],[80.5,22265],[80.5,22350],[80.5,22432],[80.5,22517],[80.5,22600],[80.5,22683],[80.5,22765],[80.5,22850],[80.5,22932],[80.5,23015],[80.5,23100],[80.5,23182],[80.5,23265],[80.5,23350],[80.5,23432],[80.5,23515],[80.5,23615],[80.5,23692],[80.5,23772],[80.5,23850],[80.5,23933],[80.5,24017],[80.5,24100],[80.5,24183],[80.5,24267],[80.5,24353],[82.6,24435],[85.2,24517],[86.2,24601],[88.5,24685],[89.3,24769],[89.5,24850]]",1,0,728.576,731.642,99.34895833,2.788,"[{""rating"":99.34895833333333,""responseTime"":2.788000000000011}]",space,2.537,,731.644,Definitely yes,100,731.65,,,[],,0,7,7,7,1,audio/Narrative7Situation7.wav,audio/Narrative8Situation7.wav,audio/Narrative5Situation7.wav,audio/Narrative6Situation7.wav,5,3,4,5,,,,,,,,,,,,,,,,,,,,,,,,,,,,,,,,,,,,,,,
,,,,,,62827483ae4c6af3f0af9bce,2024-05-13_11h24.04.023,group3.1-3.2-social-tom,2023.2.2,Win32,60.0240096,65c5074098b851296ff0b7ed,6642307a2a47e004653066ab,,,,,,,,,,,,,,,,,,,,,,,,,,,,,731.652,2,audio/Narrative6Situation8.wav,736.659,,736.659,743.542,"[[999,2],[999,82],[999,166],[999,249],[999,332],[999,417],[999,499],[999,582],[999,665],[999,748],[999,832],[999,915],[999,998],[999,1082],[999,1166],[999,1250],[999,1333],[999,1416],[999,1499],[999,1583],[999,1665],[999,1749],[999,1832],[999,1917],[999,2000],[49.1,2083],[44,2167],[40.5,2250],[39.7,2332],[39.3,2416],[37.5,2500],[36.7,2583],[36.7,2665],[36.3,2750],[35,2833],[34.2,2916],[32.8,3000],[32.6,3082],[32.6,3165],[32.6,3249],[32.6,3332],[30.7,3416],[28.9,3500],[28.3,3583],[27.3,3666],[26.8,3750],[26.2,3833],[25.8,3916],[25.5,3999],[25.5,4082],[25.4,4167],[25.1,4248],[25,4332],[23.7,4416],[23,4498],[22.5,4583],[21.7,4666],[21.6,4749],[20.8,4832],[20.6,4915],[20.2,5000],[20.1,5082],[20.1,5166],[20.1,5248],[19.4,5334],[19,5417],[18.5,5499],[18.1,5582],[17.6,5667],[17.6,5749],[17.4,5832],[17.3,5917],[16.4,5999],[15.8,6082],[15.6,6165],[14.8,6250],[13.8,6333],[13.3,6416],[13.2,6498],[13.2,6582],[13.2,6666],[13.2,6748],[12.8,6832]]",1,0,743.542,745.825,0.260416667,1.563,"[{""rating"":0.2604166666666685,""responseTime"":1.5629999999999882}]",space,1.751,,745.825,Not at all,0,745.836,,,[],,0,8,8,8,1,audio/Narrative7Situation8.wav,audio/Narrative8Situation8.wav,audio/Narrative5Situation8.wav,audio/Narrative6Situation8.wav,2,3,3,5,,,,,,,,,,,,,,,,,,,,,,,,,,,,,,,,,,,,,,,
,,,,,,62827483ae4c6af3f0af9bce,2024-05-13_11h24.04.023,group3.1-3.2-social-tom,2023.2.2,Win32,60.0240096,65c5074098b851296ff0b7ed,6642307a2a47e004653066ab,,,,,,,,,,,,,,,,,,,,,,,,,,,,,745.837,2,audio/Narrative6Situation9.wav,749.846,,749.846,759.809,"[[999,4],[999,110],[999,192],[999,261],[999,345],[999,430],[999,513],[999,597],[999,679],[999,761],[999,846],[999,929],[999,1012],[999,1095],[999,1181],[999,1263],[999,1347],[999,1430],[999,1514],[999,1595],[999,1680],[999,1763],[999,1845],[999,1930],[49.9,2681],[49.9,2763],[49.7,2846],[49.7,2929],[49.7,3028],[49.7,3112],[49.7,3195],[49.7,3278],[48.4,3363],[47.4,3446],[46.5,3530],[45.8,3613],[45.8,3695],[45.2,3781],[44.9,3864],[43.8,3947],[43,4030],[42.8,4114],[42.4,4196],[41.7,4278],[41.4,4362],[41.4,4445],[40.9,4531],[40.1,4613],[39.7,4696],[38.9,4781],[38.7,4862],[38.5,4945],[37.5,5030],[37.2,5112],[37.2,5196],[36.5,5280],[36.1,5362],[35,5446],[34.6,5528],[33.9,5612],[33.6,5695],[33.6,5778],[32.7,5863],[32,5961],[31.6,6032],[30.9,6113],[29.9,6197],[29.4,6281],[28.9,6363],[28.4,6446],[28.4,6528],[27.5,6614],[27.1,6696],[26.2,6780],[25.4,6862],[24.7,6947],[24.3,7028],[23.7,7113],[23.2,7197],[23,7278],[22.9,7362],[22.1,7446],[21.7,7528],[21.1,7612],[20.8,7696],[20.1,7778],[19.8,7864],[19.1,7951],[18.4,8030],[17.6,8112],[16.9,8197],[16.3,8280],[15.6,8363],[14.6,8451],[13.8,8533],[13.5,8612],[13.3,8697],[12.8,8778],[12.2,8864],[11.7,8946],[11.2,9031],[10.7,9114],[10.2,9197],[9.4,9280],[8.7,9363],[8.1,9447],[7.3,9531],[6.5,9613],[5.7,9697],[4.9,9781],[4,9863],[3.4,9947]]",1,0,759.811,761.675,0.390625,0.795,"[{""rating"":0.390625,""responseTime"":0.7950000000000728}]",space,1.32,,761.677,Not at all,0,761.686,,,[],,0,9,9,9,1,audio/Narrative7Situation9.wav,audio/Narrative8Situation9.wav,audio/Narrative5Situation9.wav,audio/Narrative6Situation9.wav,2,3,3,4,,,,,,,,,,,,,,,,,,,,,,,,,,,,,,,,,,,,,,,
,,,,,,62827483ae4c6af3f0af9bce,2024-05-13_11h24.04.023,group3.1-3.2-social-tom,2023.2.2,Win32,60.0240096,65c5074098b851296ff0b7ed,6642307a2a47e004653066ab,,,,,,,,,,,,,,,,,,,,,,,,,,,,,761.687,2,audio/Narrative5Situation1.wav,766.692,,766.692,779.975,"[[999,3],[999,83],[999,166],[999,250],[999,331],[999,416],[999,499],[999,583],[999,666],[999,750],[999,833],[999,917],[999,999],[999,1083],[999,1166],[999,1250],[999,1338],[999,1416],[999,1501],[999,1584],[999,1668],[999,1750],[999,1833],[999,1916],[999,1999],[999,2083],[999,2167],[999,2250],[999,2333],[999,2416],[999,2500],[999,2583],[999,2667],[999,2750],[999,2833],[999,2916],[999,3000],[999,3083],[999,3168],[999,3250],[999,3334],[49.1,3418],[47.7,3499],[45.7,3584],[44.7,3668],[43.6,3751],[42.6,3834],[41.4,3918],[40.2,4000],[39.3,4084],[38.8,4166],[37.9,4251],[37.4,4333],[37,4418],[36.3,4501],[36.2,4583],[35.7,4667],[35.5,4750],[35.5,4834],[35.5,4916],[35.5,4999],[35.5,5083],[35.5,5167],[34.6,5250],[33.3,5334],[32.9,5417],[32.4,5500],[31.6,5584],[31.4,5667],[31.4,5750],[31.4,5833],[31.3,5918],[30.2,6001],[29.8,6083],[29.3,6167],[28.8,6251],[28.4,6333],[27.6,6417],[27.3,6501],[27,6584],[26.3,6667],[26,6750],[25.7,6834],[25.1,6917],[24.7,7002],[24.6,7083],[24.2,7166],[23.7,7250],[23.2,7334],[22.1,7418],[21.6,7500],[20.7,7584],[19.9,7667],[18.5,7751],[17.4,7833],[16.9,7916],[16.8,8000],[16.3,8083],[15.6,8167],[15.1,8251],[14.2,8334],[13.7,8417],[13.3,8500],[13.3,8581],[13.3,8666],[13.3,8750],[13.3,8833],[13.3,8916],[13.3,9000],[13,9085],[11.3,9170],[10.2,9251],[9.5,9333],[9.1,9417],[8.6,9501],[7.9,9584],[6.6,9666],[5.9,9750],[5.1,9834],[4.4,9916],[3.9,10001],[3.1,10084],[2.3,10168],[1.8,10251],[1.8,10333],[2.5,10417],[9.5,10500],[15,10584],[18.9,10668],[21,10750],[22.4,10834],[24.7,10917],[26.2,11001],[26.2,11083],[26.2,11166],[26.2,11250],[26.2,11331],[28.3,11418],[31.5,11500],[32.8,11584],[34.1,11667],[36.7,11751],[39.5,11834],[41.8,11917],[42.4,12000],[43.2,12085],[45.7,12168],[48.3,12250],[49.5,12334],[49.7,12417],[49.7,12499],[49.7,12583],[49.7,12666],[49.7,12750],[49.7,12833],[49.7,12917],[49.7,13000],[49.7,13083],[49.7,13166],[49.7,13249]]",1,0,779.976,786.327,59.11458333,6.079,"[{""rating"":51.822916666666664,""responseTime"":1.1089999999999236},{""rating"":50,""responseTime"":2.27800000000002},{""rating"":59.114583333333336,""responseTime"":6.078999999999951}]",space,5.815,,786.327,Not at all,0,786.336,,,[],,0,10,10,10,1,audio/Narrative8Situation1.wav,audio/Narrative7Situation1.wav,audio/Narrative6Situation1.wav,audio/Narrative5Situation1.wav,5,2,2,5,,,,,,,,,,,,,,,,,,,,,,,,,,,,,,,,,,,,,,,
,,,,,,62827483ae4c6af3f0af9bce,2024-05-13_11h24.04.023,group3.1-3.2-social-tom,2023.2.2,Win32,60.0240096,65c5074098b851296ff0b7ed,6642307a2a47e004653066ab,,,,,,,,,,,,,,,,,,,,,,,,,,,,,786.337,2,audio/Narrative5Situation2.wav,789.343,,789.343,818.811,"[[999,4],[999,81],[999,164],[999,247],[999,331],[999,415],[999,501],[999,583],[999,666],[999,750],[999,831],[999,914],[999,999],[999,1082],[999,1164],[999,1249],[999,1333],[48.7,1416],[48.7,1500],[49,1581],[48.6,1666],[45.3,1750],[41.4,1832],[39.8,1915],[38.5,2000],[38.2,2081],[38.2,2165],[38.2,2249],[38.2,2331],[37.8,2416],[35.5,2500],[34.1,2581],[33.1,2666],[32,2749],[31.5,2833],[31.3,2915],[31.3,2999],[30.9,3082],[30.2,3165],[29.8,3250],[29.2,3332],[28.4,3416],[27.5,3500],[27.1,3581],[26.7,3666],[25.8,3750],[24.9,3832],[24.6,3914],[24.6,3997],[24.5,4081],[24.1,4165],[23.6,4250],[23.6,4331],[23.4,4415],[23.4,4497],[23.4,4581],[23.2,4665],[22.3,4750],[22,4832],[21.9,4915],[21.4,4999],[21.1,5081],[20.6,5166],[19.8,5250],[19,5334],[18.2,5416],[17.4,5500],[16.3,5583],[15.2,5665],[14.2,5750],[13.3,5833],[12.8,5916],[12.6,5999],[12.5,6083],[12,6166],[11.8,6250],[11.8,6331],[11.8,6414],[11.8,6499],[11.7,6581],[11.7,6666],[11.3,6750],[11.3,6832],[11.3,6916],[11.2,6999],[10.8,7083],[9.6,7166],[9.4,7249],[9.4,7333],[9.5,7416],[10,7500],[10.3,7581],[10.4,7666],[10.4,7750],[9.6,7832],[7.7,7915],[5.7,7999],[4.6,8082],[3.3,8165],[2.3,8250],[1.8,8333],[1,8415],[0.4,8500],[0.1,8581],[0.3,8915],[0.4,8999],[0.4,9081],[0.4,9164],[4,13166],[6.1,13250],[6.5,13331],[6.8,13414],[6.8,13497],[6.8,13581],[6.8,13665],[6.8,13750],[3.9,13833],[0.4,13916],[0.7,24767],[50.5,24851],[61.8,24934],[63.4,25015],[63.8,25105],[63.8,25185],[63.8,25264],[63.9,25350],[63.9,25432],[63.9,25515],[63.9,25598],[63.9,25682],[63.9,25765],[63.9,25848],[63.9,25932],[63.9,26015],[63.9,26100],[63.9,26182],[63.9,26265],[63.9,26350],[63.9,26432],[63.9,26515],[63.9,26600],[63.9,26682],[63.9,26766],[60.2,26851],[55.3,26933],[52.5,27016],[49.9,27100],[49.2,27183],[49.2,27265],[49.2,27348],[49.2,27432],[49.2,27515],[49,27598],[49,27682],[49,27765],[49,27850],[49,27932],[49,28015],[49,28098],[49,28182],[49,28265],[49,28348],[49.2,28433],[49.3,28516],[49.6,28601],[49.6,28682],[49.6,28765],[49.6,28850],[49.7,28932],[50,29016],[50,29100],[50.1,29182],[50.3,29265],[50.3,29348],[50.3,29432]]",1,0,818.812,821.21,49.73958333,1.073,"[{""rating"":49.73958333333333,""responseTime"":1.072999999999979}]",space,1.853,,821.211,Definitely yes,100,821.224,,,[],,0,11,11,11,1,audio/Narrative8Situation2.wav,audio/Narrative7Situation2.wav,audio/Narrative6Situation2.wav,audio/Narrative5Situation2.wav,3,3,3,3,,,,,,,,,,,,,,,,,,,,,,,,,,,,,,,,,,,,,,,
,,,,,,62827483ae4c6af3f0af9bce,2024-05-13_11h24.04.023,group3.1-3.2-social-tom,2023.2.2,Win32,60.0240096,65c5074098b851296ff0b7ed,6642307a2a47e004653066ab,,,,,,,,,,,,,,,,,,,,,,,,,,,,,821.225,2,audio/Narrative5Situation3.wav,824.228,,824.228,838.143,"[[999,1],[999,88],[999,164],[999,247],[999,331],[999,415],[999,497],[999,581],[999,664],[999,747],[999,831],[999,914],[999,997],[999,1081],[999,1164],[999,1247],[999,1331],[999,1413],[999,1499],[999,1581],[999,1665],[999,1749],[999,1831],[999,1915],[999,1999],[51.2,2095],[51.6,2173],[51.6,2247],[51.4,2332],[51,2415],[49.3,2499],[48.3,2581],[48.2,2664],[48.2,2746],[47.8,2836],[47.1,2915],[46.5,2999],[46.5,3081],[46.5,3164],[46.5,3247],[46.5,3331],[46.5,3414],[47.1,3499],[50.1,3582],[51,3664],[51.3,3746],[52.2,3831],[53.9,3914],[54.9,3999],[55.7,4082],[57.2,4164],[57.6,4249],[57.9,4332],[58.1,4415],[58.1,4496],[58.2,4581],[58.2,4663],[58.2,4747],[58.2,4831],[58.2,4913],[58.1,4997],[57.9,5081],[57.6,5164],[57.4,5247],[57.4,5331],[57.8,5414],[57.8,5499],[58.9,5582],[61.1,5665],[61.7,5749],[63.7,5831],[65.6,5915],[67.4,5999],[68.9,6081],[71.2,6165],[72.5,6249],[73.8,6332],[75,6415],[76.8,6499],[78,6581],[78.3,6663],[78.3,6747],[78.3,6831],[78.3,6920],[78.3,6997],[78.3,7081],[78.3,7163],[78.3,7247],[78.3,7331],[78.3,7413],[78.3,7497],[78.3,7581],[78.3,7663],[78.3,7747],[78.3,7831],[78.3,7914],[78.3,7997],[78.3,8081],[78.3,8164],[78.3,8247],[78.3,8331],[78.3,8413],[78.3,8497],[78.3,8581],[78.3,8664],[78.3,8747],[78.3,8831],[78.3,8914],[78.3,8997],[78.3,9081],[78.3,9164],[78.3,9247],[78.3,9331],[78.3,9413],[78.3,9497],[78.3,9581],[78.3,9664],[78.3,9746],[78.3,9831],[78.3,9914],[78.3,9997],[78.3,10081],[78.3,10164],[78.3,10247],[78.3,10334],[78.3,10414],[78.3,10497],[78.3,10581],[78.3,10664],[78.3,10747],[78.3,10831],[78.3,10914],[78.3,10996],[78.3,11081],[78.3,11164],[78.3,11247],[78.3,11331],[78.3,11414],[78.3,11497],[78.3,11581],[78.3,11664],[78.5,11749],[78.8,11831],[79,11915],[79.4,12000],[79.6,12081],[81,12165],[83.3,12249],[85.2,12331],[85.7,12414],[85.8,12497],[86.2,12581],[86.3,12665],[86.5,12747],[86.5,12831],[86.5,12913],[86.5,12997],[86.5,13081],[86.5,13164],[86.5,13247],[86.5,13331],[86.5,13414],[86.5,13497],[86.5,13581],[86.5,13663],[86.5,13747],[86.5,13831],[86.5,13914]]",1,0,838.143,840.676,99.86979167,1.311,"[{""rating"":99.86979166666667,""responseTime"":1.3109999999999218}]",space,2,,840.677,Definitely yes,100,840.682,,,[],,0,12,12,12,1,audio/Narrative8Situation3.wav,audio/Narrative7Situation3.wav,audio/Narrative6Situation3.wav,audio/Narrative5Situation3.wav,4,8,5,3,,,,,,,,,,,,,,,,,,,,,,,,,,,,,,,,,,,,,,,
,,,,,,62827483ae4c6af3f0af9bce,2024-05-13_11h24.04.023,group3.1-3.2-social-tom,2023.2.2,Win32,60.0240096,65c5074098b851296ff0b7ed,6642307a2a47e004653066ab,,,,,,,,,,,,,,,,,,,,,,,,,,,,,840.683,2,audio/Narrative5Situation4.wav,841.693,,841.694,862.096,"[[999,1],[999,81],[999,164],[999,249],[999,331],[999,414],[999,499],[999,581],[999,665],[999,747],[999,831],[999,914],[999,999],[999,1081],[999,1164],[999,1249],[999,1331],[999,1415],[999,1497],[999,1581],[999,1665],[999,1747],[999,1831],[999,1915],[999,1997],[999,2081],[999,2164],[999,2249],[999,2331],[999,2415],[999,2497],[999,2581],[999,2665],[999,2747],[999,2831],[999,2915],[999,2999],[999,3081],[999,3164],[999,3249],[999,3331],[999,3414],[999,3499],[999,3583],[999,3665],[999,3750],[999,3858],[50.7,3944],[49.6,4053],[49.6,4139],[49.6,4227],[49.6,4310],[49.6,4392],[49.6,4471],[49.6,4548],[49.6,4631],[49.6,4714],[49.6,4798],[49.6,4881],[49.6,4964],[46.6,5048],[44.7,5134],[43.6,5216],[43,5298],[41.8,5382],[41.1,5466],[39.7,5548],[39.2,5632],[38.3,5716],[37.9,5798],[36.5,5882],[35,5964],[34.4,6049],[33.3,6134],[31.4,6216],[28.4,6299],[25.4,6384],[21.4,6466],[20.7,6548],[20.7,6632],[20.7,6714],[20.7,6798],[20.4,6882],[17.4,6966],[15.4,7048],[14.1,7134],[12.8,7216],[11.3,7299],[10.3,7382],[9.1,7466],[7.3,7548],[5.5,7634],[4.2,7716],[3.4,7798],[2,7884],[0.8,7966],[0.3,8049],[2.1,12134],[25.5,12216],[31.9,12299],[35.8,12382],[39.6,12466],[40.5,12548],[40.5,12632],[40.5,12714],[40.5,12798],[40.5,12881],[43.1,12966],[45.1,13049],[45.4,13131],[45.6,13214],[45.6,13298],[45.6,13381],[45.6,13466],[45.6,13548],[45.6,13631],[45.6,13714],[45.6,13798],[45.6,13881],[45.6,13966],[45.6,14048],[45.6,14131],[45.6,14216],[45.8,14298],[46,14381],[46,14464],[46,14548],[46,14631],[46.1,14714],[47.5,14799],[49.3,14881],[51.3,14966],[52.6,15049],[53.6,15134],[54.6,15216],[55.5,15299],[56,15384],[56.5,15467],[57.6,15548],[61.2,15632],[67.7,15716],[76.3,15799],[87.6,15882],[99.5,15966],[100,16049],[100,16131],[100,16216],[100,16300],[100,16381],[100,16464],[100,16548],[100,16631],[100,16716],[100,16798],[100,16882],[100,16964],[100,17048],[100,17132],[100,17216],[100,17298],[100,17381],[100,17464],[100,17548],[100,17631],[100,17716],[100,17798],[100,17881],[100,17964],[100,18049],[100,18131],[100,18214],[100,18298],[100,18382],[100,18466],[100,18548],[100,18632],[100,18714],[100,18798],[100,18881],[100,18966],[100,19048],[100,19131],[100,19218],[100,19300],[100,19381],[100,19464],[100,19548],[100,19632],[100,19716],[100,19798],[100,19882],[100,19966],[100,20048],[100,20131],[100,20216],[100,20298],[100,20384]]",1,0,862.097,866.359,97.13541667,1.156,"[{""rating"":97.13541666666667,""responseTime"":1.155999999999949}]",space,3.716,,866.36,Definitely yes,100,866.37,,,[],,0,13,13,13,1,audio/Narrative8Situation4.wav,audio/Narrative7Situation4.wav,audio/Narrative6Situation4.wav,audio/Narrative5Situation4.wav,3,3,2,1,,,,,,,,,,,,,,,,,,,,,,,,,,,,,,,,,,,,,,,
,,,,,,62827483ae4c6af3f0af9bce,2024-05-13_11h24.04.023,group3.1-3.2-social-tom,2023.2.2,Win32,60.0240096,65c5074098b851296ff0b7ed,6642307a2a47e004653066ab,,,,,,,,,,,,,,,,,,,,,,,,,,,,,866.371,2,audio/Narrative5Situation5.wav,871.377,,871.378,886.814,"[[999,1],[999,81],[999,164],[999,249],[999,331],[999,414],[999,499],[999,581],[999,664],[999,749],[999,831],[999,914],[999,1000],[999,1082],[999,1166],[999,1249],[999,1332],[999,1414],[999,1499],[999,1583],[999,1667],[999,1750],[50.3,1831],[49.6,1916],[49.1,2000],[48.6,2081],[48.6,2164],[48.6,2249],[48.6,2331],[46.6,2417],[42.8,2500],[40.9,2582],[39.8,2672],[39.3,2749],[38.7,2831],[37.5,2917],[36.6,3000],[35.7,3081],[35.2,3166],[34.1,3250],[33.3,3331],[32.6,3416],[31.5,3504],[30.3,3581],[29.3,3666],[28.1,3750],[26.8,3832],[26.4,3916],[25.1,4000],[24.2,4081],[23.4,4166],[22.7,4250],[21.2,4332],[20.2,4416],[19.4,4499],[18.5,4581],[18,4666],[17.7,4748],[17.2,4832],[16.8,4916],[16.7,4999],[16.5,5082],[16,5166],[15.6,5249],[15.6,5331],[15.6,5414],[15.6,5499],[15.6,5581],[15.6,5664],[15.6,5749],[15.6,5831],[15.6,5916],[15.6,5998],[15.6,6081],[15.6,6164],[15.6,6248],[15.6,6331],[15.6,6414],[15.6,6498],[15.6,6581],[15.6,6664],[15.6,6748],[15.6,6831],[15.6,6914],[15.6,6998],[15.6,7081],[15.6,7164],[15.6,7248],[15.6,7331],[15.6,7414],[15.6,7498],[15.6,7581],[15.6,7664],[15.6,7748],[15.6,7831],[15.6,7914],[15.6,7999],[15.6,8099],[15.6,8182],[15.6,8265],[15.6,8349],[15.6,8432],[15.6,8515],[15.6,8597],[15.6,8682],[15.6,8765],[15.5,8851],[12.8,8945],[11.2,9024],[10.2,9100],[9,9183],[8.1,9267],[7.6,9350],[6.3,9432],[5.2,9515],[4,9599],[3.1,9682],[1.8,9765],[0.8,9849],[0.4,9932],[0.4,10015],[0.3,10099],[0.3,10182],[2.3,10515],[4.2,10600],[4.4,10682],[3.8,10765],[1.4,10850],[3.8,11350],[7.8,11432],[12.2,11517],[15.9,11597],[19.3,11682],[21.7,11765],[22.7,11849],[24.5,11932],[26.8,12015],[28.5,12099],[30.1,12182],[31.9,12267],[33.5,12350],[34.9,12433],[35.5,12514],[35.7,12599],[35.7,12682],[31.3,12765],[26,12850],[20.7,12932],[16.9,13015],[15.6,13100],[14.8,13183],[14.6,13265],[17.4,13350],[23.3,13432],[26.8,13520],[27.6,13599],[27.9,13682],[27.9,13764],[27.9,13849],[27.9,13932],[24.3,14014],[20.1,14100],[18.8,14182],[18.1,14265],[17.1,14350],[15.9,14432],[15.6,14515],[15.4,14599],[15.4,14682],[15.4,14764],[15.4,14849],[15.4,14932],[15.4,15014],[15.4,15099],[15.4,15182],[15.4,15265],[15.9,15350],[19.7,15433]]",1,0,886.814,889.712,31.11979167,1.024,"[{""rating"":31.119791666666664,""responseTime"":1.024000000000001}]",space,2.349,,889.713,Partially,50,889.724,,,[],,0,14,14,14,1,audio/Narrative8Situation5.wav,audio/Narrative7Situation5.wav,audio/Narrative6Situation5.wav,audio/Narrative5Situation5.wav,2,5,2,5,,,,,,,,,,,,,,,,,,,,,,,,,,,,,,,,,,,,,,,
,,,,,,62827483ae4c6af3f0af9bce,2024-05-13_11h24.04.023,group3.1-3.2-social-tom,2023.2.2,Win32,60.0240096,65c5074098b851296ff0b7ed,6642307a2a47e004653066ab,,,,,,,,,,,,,,,,,,,,,,,,,,,,,889.726,2,audio/Narrative5Situation6.wav,892.727,,892.727,898.412,"[[36.5,1000],[38.8,1082],[41,1166],[42.7,1250],[43.5,1334],[47.1,1418],[49.9,1500],[50.5,1583],[50.5,1668],[50.5,1750],[50.5,1832],[50.5,1916],[50.5,1998],[50.5,2082],[50.5,2166],[50.5,2250],[50.5,2333],[50.5,2416],[50.7,2500],[51.3,2583],[53.6,2668],[54.9,2750],[55.2,2833],[55.3,2915],[55.6,3000],[56.3,3083],[57.9,3168],[58.7,3250],[59.5,3333],[59.6,3416],[59.6,3500],[59.6,3583],[59.6,3665],[59.6,3750],[59.6,3832],[59.6,3916],[59.6,4000],[59.6,4082],[60.4,4168],[60.8,4250],[61.1,4332],[61.3,4416],[62.4,4500],[62.8,4582],[62.8,4665],[63.8,4750],[65.1,4833],[65.5,4916],[65.5,5000],[66.5,5082],[66.9,5166],[66.9,5250],[66.9,5333],[66.9,5418],[67.1,5500],[67.1,5582],[67.1,5666]]",1,0,898.413,899.878,74.34895833,0.961,"[{""rating"":74.34895833333334,""responseTime"":0.9610000000000127}]",space,0.917,,899.878,Partially,50,899.883,,,[],,0,15,15,15,1,audio/Narrative8Situation6.wav,audio/Narrative7Situation6.wav,audio/Narrative6Situation6.wav,audio/Narrative5Situation6.wav,2,3,2,3,,,,,,,,,,,,,,,,,,,,,,,,,,,,,,,,,,,,,,,
