exp_question,consent.started,consent.stopped,consentResponse.keys,consentResponse.rt,consentResponse.duration,participantID,date,expName,psychopyVersion,OS,frameRate,STUDY_ID,SESSION_ID,opening1.started,opening1.stopped,keyEndingOpening1.keys,keyEndingOpening1.rt,keyEndingOpening1.duration,volumeAdjust.started,volumeAdjust.stopped,endingAdjust.keys,endingAdjust.rt,endingAdjust.duration,opening2.started,opening2.stopped,keyEndingOpening.keys,keyEndingOpening.rt,keyEndingOpening.duration,mouse.x,mouse.y,mouse.leftButton,mouse.midButton,mouse.rightButton,mouse.time,instructionLoop.thisRepN,instructionLoop.thisTrialN,instructionLoop.thisN,instructionLoop.thisIndex,instructionLoop.ran,readyForAudio.started,readyForAudio.stopped,fixation.started,run,audio_played,fixation.stopped,endPractice.keys,audioPre.started,audioPre.stopped,continuousResponses_audio,continuousSlider.response,continuousSlider.rt,intRating.started,intRating.stopped,intQuestionSlider.response,intQuestionSlider.rt,intQuestionSlider.history,confirmResponse.keys,confirmResponse.rt,confirmResponse.duration,catchQuestion.started,catch_label,catch_value,catchQuestion.stopped,catchQuestionSlider.response,catchQuestionSlider.rt,catchQuestionSlider.history,confirmResponse_2.keys,audioRunLoop.thisRepN,audioRunLoop.thisTrialN,audioRunLoop.thisN,audioRunLoop.thisIndex,audioRunLoop.ran,conditions1_1,conditions2_1,conditions1_2,conditions2_2,dur1_1,dur2_1,dur1_2,dur2_2,endPractice.rt,endPractice.duration,confirmResponse_2.rt,confirmResponse_2.duration,runIntervalBreak.started,runIntervalBreak.stopped,endingBreakKey.keys,endingBreakKey.rt,endingBreakKey.duration,connection.started,connection.stopped,connectionEnding.keys,connectionEnding.rt,connectionEnding.duration,readyForText.started,readyForText.stopped,textPre.started,run_dup,textPre.stopped,continuousResponses_text,textRunLoop.thisRepN,textRunLoop.thisTrialN,textRunLoop.thisN,textRunLoop.thisIndex,textRunLoop.ran,text1_1,text1_2,text2_1,text2_2,runBreakText.started,runBreakText.stopped,endingBreakKey_2.keys,endingBreakKey_2.rt,endingBreakKey_2.duration,ending.started,ending.stopped,endingEnding.keys,endingEnding.rt,endingEnding.duration
social,0.0004,107.8024,y,107.476,,62c65cd877b056c782d09fe1,2024-02-08_12h02.28.169,group3.1-3.2-social-tom,2023.2.2,MacIntel,59.95203837,65c5074098b851296ff0b7ed,65c516f60a297d4bde9b70eb,,,,,,,,,,,,,,,,,,,,,,,,,,,,,,,,,,,,,,,,,,,,,,,,,,,,,,,,,,,,,,,,,,,,,,,,,,,,,,,,,,,,,,,,,,,,,,,,,,,,,,,,,,
,,,,,,62c65cd877b056c782d09fe1,2024-02-08_12h02.28.169,group3.1-3.2-social-tom,2023.2.2,MacIntel,59.95203837,65c5074098b851296ff0b7ed,65c516f60a297d4bde9b70eb,107.8026,658.1478,space,550.28,,,,,,,,,,,,,,,,,,,,,,,,,,,,,,,,,,,,,,,,,,,,,,,,,,,,,,,,,,,,,,,,,,,,,,,,,,,,,,,,,,,,,,,,,,,,,,,,,,,,,,
,,,,,,62c65cd877b056c782d09fe1,2024-02-08_12h02.28.169,group3.1-3.2-social-tom,2023.2.2,MacIntel,59.95203837,65c5074098b851296ff0b7ed,65c516f60a297d4bde9b70eb,,,,,,658.1482,699.383,space,40.9197,,,,,,,,,,,,,,,,,,,,,,,,,,,,,,,,,,,,,,,,,,,,,,,,,,,,,,,,,,,,,,,,,,,,,,,,,,,,,,,,,,,,,,,,,,,,,,,,,
,,,,,,62c65cd877b056c782d09fe1,2024-02-08_12h02.28.169,group3.1-3.2-social-tom,2023.2.2,MacIntel,59.95203837,65c5074098b851296ff0b7ed,65c516f60a297d4bde9b70eb,,,,,,,,,,,699.3884,709.373,space,9.9496,,[],[],[],[],[],[],0,0,0,0,1,,,,,,,,,,,,,,,,,,,,,,,,,,,,,,,,,,,,,,,,,,,,,,,,,,,,,,,,,,,,,,,,,,,,,,,,,,,,,,,,
,,,,,,62c65cd877b056c782d09fe1,2024-02-08_12h02.28.169,group3.1-3.2-social-tom,2023.2.2,MacIntel,59.95203837,65c5074098b851296ff0b7ed,65c516f60a297d4bde9b70eb,,,,,,,,,,,709.3735,734.5998,space,25.0791,,[],[],[],[],[],[],1,0,1,0,1,,,,,,,,,,,,,,,,,,,,,,,,,,,,,,,,,,,,,,,,,,,,,,,,,,,,,,,,,,,,,,,,,,,,,,,,,,,,,,,,
,,,,,,62c65cd877b056c782d09fe1,2024-02-08_12h02.28.169,group3.1-3.2-social-tom,2023.2.2,MacIntel,59.95203837,65c5074098b851296ff0b7ed,65c516f60a297d4bde9b70eb,,,,,,,,,,,734.6003,752.7912,space,18.0911,,[],[],[],[],[],[],2,0,2,0,1,,,,,,,,,,,,,,,,,,,,,,,,,,,,,,,,,,,,,,,,,,,,,,,,,,,,,,,,,,,,,,,,,,,,,,,,,,,,,,,,
,,,,,,62c65cd877b056c782d09fe1,2024-02-08_12h02.28.169,group3.1-3.2-social-tom,2023.2.2,MacIntel,59.95203837,65c5074098b851296ff0b7ed,65c516f60a297d4bde9b70eb,,,,,,,,,,,752.7916,839.5416,space,86.7238,,[],[],[],[],[],[],3,0,3,0,1,,,,,,,,,,,,,,,,,,,,,,,,,,,,,,,,,,,,,,,,,,,,,,,,,,,,,,,,,,,,,,,,,,,,,,,,,,,,,,,,
,,,,,,62c65cd877b056c782d09fe1,2024-02-08_12h02.28.169,group3.1-3.2-social-tom,2023.2.2,MacIntel,59.95203837,65c5074098b851296ff0b7ed,65c516f60a297d4bde9b70eb,,,,,,,,,,,839.5421,850.5044,space,10.9383,,[],[],[],[],[],[],4,0,4,0,1,,,,,,,,,,,,,,,,,,,,,,,,,,,,,,,,,,,,,,,,,,,,,,,,,,,,,,,,,,,,,,,,,,,,,,,,,,,,,,,,
,,,,,,62c65cd877b056c782d09fe1,2024-02-08_12h02.28.169,group3.1-3.2-social-tom,2023.2.2,MacIntel,59.95203837,65c5074098b851296ff0b7ed,65c516f60a297d4bde9b70eb,,,,,,,,,,,,,,,,,,,,,,,,,,,850.5068,853.0845,853.1086,1,audio/Narrative13Situation2.wav,855.119,,855.1192,884.8614,"[[999,1],[999,133],[999,217],[999,300],[999,385],[999,466],[999,551],[999,635],[999,718],[999,802],[999,884],[999,966],[999,1050],[999,1134],[999,1217],[999,1302],[999,1384],[999,1468],[999,1552],[999,1633],[999,1719],[999,1802],[999,1886],[999,1970],[999,2051],[999,2134],[999,2219],[999,2302],[999,2386],[999,2469],[999,2551],[999,2636],[999,2721],[999,2801],[999,2887],[999,2968],[999,3053],[999,3137],[999,3219],[999,3302],[999,3386],[999,3470],[999,3555],[999,3636],[999,3719],[999,3804],[999,3885],[999,3971],[999,4054],[999,4136],[999,4220],[999,4304],[999,4386],[999,4471],[999,4554],[999,4636],[999,4721],[999,4804],[999,4889],[999,4971],[999,5053],[65,5137],[72.6,5222],[74.5,5305],[77.9,5389],[78.1,5472],[78.1,5555],[78.1,5639],[78.1,5721],[79.7,5806],[83.6,5889],[83.7,5971],[83.7,6057],[83.7,6139],[88.2,6222],[100,6307],[100,6388],[100,6472],[100,6556],[100,6638],[100,6721],[100,6806],[100,6889],[100,6974],[100,7055],[100,7138],[100,7223],[100,7305],[100,7390],[100,7473],[100,7556],[100,7640],[100,7722],[100,7805],[100,7891],[100,7974],[100,8058],[100,8141],[100,8223],[100,8307],[100,8391],[100,8472],[100,8557],[100,8641],[100,8737],[100,8823],[100,8908],[100,8991],[100,9075],[100,9158],[100,9242],[100,9325],[100,9407],[100,9490],[100,9575],[100,9658],[100,9743],[100,9824],[100,9909],[100,9992],[100,10075],[100,10159],[100,10242],[100,10324],[100,10408],[100,10492],[100,10575],[100,10660],[100,10742],[100,10826],[100,10910],[100,10991],[100,11076],[100,11159],[100,11242],[100,11325],[100,11409],[100,11493],[100,11577],[100,11660],[100,11743],[100,11827],[100,11910],[100,11994],[100,12076],[100,12159],[100,12245],[100,12326],[100,12412],[100,12494],[100,12576],[100,12661],[100,12744],[100,12826],[100,12911],[100,12994],[100,13076],[100,13162],[100,13244],[100,13329],[100,13412],[100,13493],[100,13577],[100,13661],[100,13744],[100,13828],[100,13911],[100,13994],[100,14079],[100,14161],[100,14246],[100,14328],[100,14411],[100,14494],[100,14579],[100,14661],[100,14745],[100,14828],[100,14913],[100,14995],[100,15080],[100,15163],[100,15246],[100,15328],[100,15412],[100,15497],[100,15578],[100,15664],[100,15745],[100,15830],[100,15913],[100,15997],[100,16080],[100,16163],[100,16245],[100,16332],[100,16414],[100,16497],[100,16581],[100,16664],[100,16747],[100,16831],[100,16914],[100,16997],[100,17080],[100,17165],[100,17249],[100,17331],[100,17413],[100,17498],[100,17580],[100,17664],[100,17748],[100,17831],[100,17914],[100,17997],[100,18080],[100,18166],[100,18247],[100,18333],[100,18415],[100,18497],[100,18581],[100,18665],[100,18748],[100,18832],[100,18914],[100,18998],[100,19083],[100,19165],[100,19250],[100,19333],[100,19415],[100,19499],[100,19582],[100,19665],[100,19751],[100,19836],[100,19917],[100,19999],[100,20083],[100,20167],[100,20250],[100,20332],[100,20415],[100,20499],[100,20582],[100,20668],[100,20749],[100,20834],[100,20917],[100,21000],[100,21084],[100,21167],[100,21249],[100,21335],[100,21417],[100,21500],[100,21585],[100,21666],[100,21751],[100,21835],[100,21916],[100,22001],[100,22084],[100,22167],[100,22253],[100,22334],[100,22418],[100,22502],[100,22585],[100,22668],[100,22752],[100,22834],[100,22918],[100,23001],[100,23084],[100,23170],[100,23252],[100,23336],[100,23419],[100,23501],[100,23585],[100,23669],[100,23751],[100,23836],[100,23918],[100,24003],[100,24087],[100,24168],[100,24254],[100,24336],[100,24419],[100,24503],[100,24587],[100,24669],[100,24754],[100,24836],[100,24920],[100,25004],[100,25086],[100,25171],[100,25254],[100,25336],[100,25419],[100,25504],[100,25586],[100,25672],[100,25753],[100,25837],[100,25921],[100,26005],[100,26088],[100,26171],[100,26253],[100,26337],[100,26420],[100,26504],[100,26589],[100,26670],[100,26752],[100,26838],[100,26922],[100,27005],[100,27088],[100,27171],[100,27256],[100,27338],[100,27423],[100,27506],[100,27588],[100,27672],[100,27756],[100,27838],[100,27922],[100,28005],[100,28088],[100,28174],[100,28255],[100,28338],[100,28423],[100,28505],[100,28589],[100,28673],[100,28756],[100,28840],[100,28923],[100,29007],[100,29091],[100,29173],[100,29258],[100,29341],[100,29423],[100,29506],[100,29590],[100,29673]]",1,0,884.8618,895.8851,87.45483398,9.0887,"[{""rating"":87.454833984375,""responseTime"":9.088700000002973}]",space,10.4756,,895.8854,Not at all,0,895.8947,,,[],,0,0,0,0,1,audio/Narrative13Situation2.wav,audio/Narrative13Situation2.wav,audio/Narrative13Situation2.wav,audio/Narrative13Situation2.wav,2,2,2,2,,,,,,,,,,,,,,,,,,,,,,,,,,,,,,,,,,,,,,,
,,,,,,62c65cd877b056c782d09fe1,2024-02-08_12h02.28.169,group3.1-3.2-social-tom,2023.2.2,MacIntel,59.95203837,65c5074098b851296ff0b7ed,65c516f60a297d4bde9b70eb,,,,,,,,,,,,,,,,,,,,,,,,,,,,,895.8951,1,audio/Narrative8Situation1.wav,900.4888,space,900.489,916.4003,"[[87.1,5337],[65.4,5420],[48.6,5505],[48.6,5588],[48.6,5670],[48.6,5754],[49.3,5838],[49.3,5920],[49.3,6005],[49.3,6088],[49.3,6173],[52.2,6254],[58.4,6339],[58.6,6420],[58.6,6505],[58.6,6587],[58.6,6671],[58.6,6755],[58.6,6838],[58.6,6922],[58.6,7005],[58.6,7090],[59,7174],[61.5,7255],[62.7,7340],[62.7,7423],[62.7,7504],[62.7,7589],[62.7,7672],[62.7,7756],[62.7,7839],[62.7,7922],[62.7,8006],[62.7,8090],[62.7,8173],[62.7,8257],[62.7,8338],[62.7,8422],[62.7,8505],[62.7,8590],[62.7,8672],[62.7,8756],[62.7,8840],[62.7,8924],[62.7,9008],[62.7,9089],[62.7,9174],[62.7,9257],[62.7,9339],[62.7,9423],[62.7,9507],[62.7,9589],[62.7,9675],[62.7,9758],[69.3,9840],[76.2,9925],[76.2,10008],[76.2,10091],[76.2,10174],[80.1,10257],[89.2,10341],[90.3,10424],[90.3,10508],[90.3,10591],[90.3,10674],[90.3,10758],[90.3,10842],[90.3,10925],[90.6,11009],[94.7,11092],[96.3,11174],[96.3,11258],[96.3,11342],[96.3,11427],[96.3,11509],[96.3,11592],[96.3,11676],[96.3,11759],[96.3,11842],[96.3,11926],[96.3,12009],[96.3,12094],[96.3,12175],[96.3,12260],[96.3,12342],[96.3,12427],[96.3,12509],[96.3,12593],[96.3,12676],[96.3,12758],[98.1,12844],[100,12926],[100,13009],[100,13094],[100,13175],[100,13261],[100,13344],[100,13426],[100,13510],[100,13594],[100,13676],[100,13760],[100,13843],[100,13928],[100,14011],[100,14096],[100,14178],[100,14261],[100,14343],[100,14427],[100,14511],[100,14594],[100,14679],[100,14760],[100,14845],[100,14928],[100,15010],[100,15095],[100,15178],[100,15261],[100,15344],[100,15428],[100,15511],[100,15596],[100,15679],[100,15762],[100,15846]]",1,0,916.4006,921.021,87.00897217,3.5034,"[{""rating"":87.00897216796875,""responseTime"":3.5034000000059677}]",space,4.088,,921.0211,Definitely yes,100,921.0298,,,[],,0,1,1,1,1,audio/Narrative7Situation1.wav,audio/Narrative8Situation1.wav,audio/Narrative5Situation1.wav,audio/Narrative6Situation1.wav,2,5,5,2,4.5692,,,,,,,,,,,,,,,,,,,,,,,,,,,,,,,,,,,,,,
,,,,,,62c65cd877b056c782d09fe1,2024-02-08_12h02.28.169,group3.1-3.2-social-tom,2023.2.2,MacIntel,59.95203837,65c5074098b851296ff0b7ed,65c516f60a297d4bde9b70eb,,,,,,,,,,,,,,,,,,,,,,,,,,,,,921.0301,1,audio/Narrative8Situation2.wav,924.0391,,924.0391,934.1494,"[[75.6,9427],[3.3,9843]]",1,0,934.1496,937.6522,0.978088379,2.067,"[{""rating"":0.97808837890625,""responseTime"":2.0670000000000073}]",space,2.9701,,937.6523,Definitely yes,100,937.6571,,,[],,0,2,2,2,1,audio/Narrative7Situation2.wav,audio/Narrative8Situation2.wav,audio/Narrative5Situation2.wav,audio/Narrative6Situation2.wav,3,3,3,3,,,,,,,,,,,,,,,,,,,,,,,,,,,,,,,,,,,,,,,
,,,,,,62c65cd877b056c782d09fe1,2024-02-08_12h02.28.169,group3.1-3.2-social-tom,2023.2.2,MacIntel,59.95203837,65c5074098b851296ff0b7ed,65c516f60a297d4bde9b70eb,,,,,,,,,,,,,,,,,,,,,,,,,,,,,937.6574,1,audio/Narrative8Situation3.wav,941.6718,,941.6718,964.0566,"[[999,0],[999,84],[999,166],[999,249],[999,333],[999,415],[999,499],[999,582],[999,664],[999,748],[999,832],[999,915],[999,1000],[999,1083],[999,1165],[999,1250],[999,1332],[999,1418],[999,1500],[999,1584],[999,1668],[999,1749],[999,1835],[999,1918],[999,2000],[999,2084],[999,2167],[999,2249],[999,2335],[999,2418],[999,2501],[999,2585],[999,2668],[999,2752],[999,2835],[999,2917],[999,3003],[999,3084],[999,3167],[999,3253],[999,3336],[999,3419],[999,3502],[999,3586],[999,3669],[999,3752],[999,3834],[999,3920],[999,4002],[999,4086],[999,4170],[999,4254],[999,4336],[999,4419],[999,4501],[999,4586],[999,4669],[999,4751],[999,4837],[999,4919],[999,5002],[999,5087],[999,5168],[999,5253],[999,5336],[999,5418],[999,5503],[999,5586],[999,5671],[999,5755],[999,5836],[999,5919],[999,6004],[999,6086],[999,6171],[999,6254],[999,6336],[999,6422],[999,6503],[999,6588],[999,6672],[999,6753],[999,6838],[999,6921],[999,7005],[999,7087],[999,7170],[999,7255],[999,7339],[999,7421],[999,7505],[999,7589],[999,7670],[999,7756],[999,7839],[999,7923],[999,8005],[999,8088],[999,8173],[999,8256],[999,8338],[43.9,8423],[54.5,8507],[54.5,8588],[54.5,8673],[58,8756],[66.8,8839],[67.7,8924],[67.7,9005],[67.7,9089],[71.7,9174],[79.9,9256],[79.9,9340],[79.9,9423],[79.9,9506],[79.9,9590],[82.6,9674],[83.7,9757],[83.7,9839],[83.7,9923],[83.7,10008],[83.7,10091],[83.7,10172],[83.7,10257],[83.7,10341],[83.7,10423],[83.7,10507],[83.7,10590],[83.7,10675],[83.7,10759],[85.3,10841],[85.8,10925],[85.8,11008],[85.8,11091],[85.8,11177],[85.8,11258],[85.8,11340],[85.8,11426],[85.8,11507],[85.8,11592],[85.8,11676],[85.8,11760],[85.8,11843],[85.8,11925],[86.7,12008],[87,12091],[87,12175],[87,12258],[87,12343],[87,12426],[87,12509],[87,12593],[87,12676],[87,12759],[87,12842],[87,12927],[87,13011],[87,13092],[87,13177],[87,13260],[87,13342],[87,13426],[87,13510],[87,13593],[87,13677],[87,13760],[87,13842],[87,13928],[87,14009],[87,14093],[87,14176],[87,14260],[87,14343],[87,14427],[87,14511],[87,14594],[87,14677],[87,14761],[87,14845],[87,14928],[87,15012],[87,15095],[87,15176],[87,15261],[87,15344],[87,15427],[87,15511],[87,15594],[87,15679],[87,15763],[87,15845],[87,15929],[87,16012],[87,16094],[87,16177],[87,16261],[87,16344],[87,16430],[87,16512],[87,16596],[87,16679],[87,16764],[87,16846],[87,16929],[87,17014],[87,17097],[87.3,17179],[88.5,17264],[88.6,17346],[88.6,17429],[88.6,17513],[88.6,17597],[88.6,17679],[88.6,17763],[90.3,17847],[90.8,17928],[90.8,18014],[90.8,18096],[90.8,18181],[90.8,18270],[90.8,18360],[90.8,18440],[90.8,18518],[90.8,18599],[90.8,18680],[90.8,18764],[90.9,18847],[91,18932],[91,19014],[91,19099],[91,19181],[91,19263],[91,19348],[91,19431],[91,19513],[91,19598],[91,19681],[91,19765],[91,19849],[91,19930],[91,20016],[91,20097],[91,20181],[91,20265],[91.4,20349],[95.8,20432],[96.3,20517],[96.3,20598],[96.3,20683],[96.3,20766],[96.3,20849],[96.3,20933],[96.3,21016],[96.3,21098],[96.3,21182],[96.3,21265],[96.3,21348],[96.3,21434],[96.3,21516],[96.3,21600],[96.3,21683],[96.3,21765],[96.3,21850],[96.3,21933],[96.3,22015],[96.3,22099],[96.3,22184],[96.3,22268],[96.3,22351]]",1,0,964.0568,969.3421,94.64569092,4.7353,"[{""rating"":94.64569091796875,""responseTime"":4.7352999999969825}]",space,4.7378,,969.3422,Definitely yes,100,969.3482,,,[],,0,3,3,3,1,audio/Narrative7Situation3.wav,audio/Narrative8Situation3.wav,audio/Narrative5Situation3.wav,audio/Narrative6Situation3.wav,8,4,3,5,,,,,,,,,,,,,,,,,,,,,,,,,,,,,,,,,,,,,,,
,,,,,,62c65cd877b056c782d09fe1,2024-02-08_12h02.28.169,group3.1-3.2-social-tom,2023.2.2,MacIntel,59.95203837,65c5074098b851296ff0b7ed,65c516f60a297d4bde9b70eb,,,,,,,,,,,,,,,,,,,,,,,,,,,,,969.3486,1,audio/Narrative8Situation4.wav,972.3605,,972.3605,986.5237,"[[94.5,5421],[91.3,5505],[90,5588],[93.2,5672],[95.9,5757],[96,5839],[95.8,5923],[95.7,6006],[95.7,6090],[95.7,6173],[95.7,6256],[95.7,6338],[95.7,6422],[95.7,6506],[95.7,6588],[95.7,6672],[95.7,6755],[95.7,6840],[95.7,6924],[95.7,7006],[95.7,7090],[95.7,7173],[95.7,7255],[95.7,7342],[95.7,7424],[96.4,7506],[100,7591],[100,7673],[100,7757],[100,7841],[100,7923],[100,8007],[100,8090],[100,8173],[100,8259],[100,8342],[100,8423],[100,8509],[100,8591],[100,8675],[100,8758],[100,8841],[100,8925],[100,9008],[100,9091],[100,9176],[100,9257],[100,9343],[100,9426],[100,9508],[100,9592],[100,9676],[100,9758],[100,9842],[100,9925],[100,10009],[100,10093],[100,10174],[100,10260],[100,10343],[100,10425],[100,10509],[100,10592],[100,10675],[100,10761],[100,10842],[100,10927],[100,11010],[100,11093],[100,11177],[100,11260],[100,11343],[100,11426],[100,11509],[100,11594],[100,11678],[100,11760],[100,11843],[100,11928],[100,12009],[100,12093],[100,12177],[100,12262],[100,12346],[100,12427],[100,12512],[100,12595],[100,12677],[100,12761],[100,12845],[100,12928],[100,13012],[100,13095],[100,13176],[100,13263],[100,13344],[100,13429],[100,13511],[100,13595],[100,13679],[100,13762],[100,13844],[100,13929],[100,14011],[100,14096]]",1,0,986.5239,991.3939,99.91333008,4.0324,"[{""rating"":99.913330078125,""responseTime"":4.032399999991185}]",space,4.321,,991.394,Definitely yes,100,991.3986,,,[],,0,4,4,4,1,audio/Narrative7Situation4.wav,audio/Narrative8Situation4.wav,audio/Narrative5Situation4.wav,audio/Narrative6Situation4.wav,3,3,1,2,,,,,,,,,,,,,,,,,,,,,,,,,,,,,,,,,,,,,,,
,,,,,,62c65cd877b056c782d09fe1,2024-02-08_12h02.28.169,group3.1-3.2-social-tom,2023.2.2,MacIntel,59.95203837,65c5074098b851296ff0b7ed,65c516f60a297d4bde9b70eb,,,,,,,,,,,,,,,,,,,,,,,,,,,,,991.3989,1,audio/Narrative8Situation5.wav,993.4107,,993.4107,1001.6522,"[[99.8,5254],[97.5,5339],[96.5,5423],[97.2,5506],[99,5589],[99.3,5673],[99.3,5755],[99.3,5838],[99.3,5921],[99.3,6005],[99.3,6087],[99.3,6172],[99.3,6255],[99.3,6339],[99.3,6423],[100,6507],[100,6590],[100,6673],[100,6756],[100,6838],[100,6922],[100,7005],[100,7088],[100,7172],[100,7257],[100,7340],[100,7422],[100,7507],[100,7590],[100,7674],[100,7758],[100,7839],[100,7925],[100,8008],[100,8090],[100,8174]]",1,0,1001.6522,1004.9719,99.75067139,2.4339,"[{""rating"":99.75067138671875,""responseTime"":2.433900000005906}]",space,2.7701,,1004.972,Definitely yes,100,1004.9791,,,[],,0,5,5,5,1,audio/Narrative7Situation5.wav,audio/Narrative8Situation5.wav,audio/Narrative5Situation5.wav,audio/Narrative6Situation5.wav,5,2,5,2,,,,,,,,,,,,,,,,,,,,,,,,,,,,,,,,,,,,,,,
,,,,,,62c65cd877b056c782d09fe1,2024-02-08_12h02.28.169,group3.1-3.2-social-tom,2023.2.2,MacIntel,59.95203837,65c5074098b851296ff0b7ed,65c516f60a297d4bde9b70eb,,,,,,,,,,,,,,,,,,,,,,,,,,,,,1004.9794,1,audio/Narrative8Situation6.wav,1006.9905,,1006.9906,1013.4785,[],1,0,1013.4786,1016.9474,59.18273926,2.6838,"[{""rating"":59.1827392578125,""responseTime"":2.6837999999970634}]",space,2.9367,,1016.9475,Not at all,0,1016.955,,,[],,0,6,6,6,1,audio/Narrative7Situation6.wav,audio/Narrative8Situation6.wav,audio/Narrative5Situation6.wav,audio/Narrative6Situation6.wav,3,2,3,2,,,,,,,,,,,,,,,,,,,,,,,,,,,,,,,,,,,,,,,
,,,,,,62c65cd877b056c782d09fe1,2024-02-08_12h02.28.169,group3.1-3.2-social-tom,2023.2.2,MacIntel,59.95203837,65c5074098b851296ff0b7ed,65c516f60a297d4bde9b70eb,,,,,,,,,,,,,,,,,,,,,,,,,,,,,1016.9553,1,audio/Narrative8Situation7.wav,1019.9651,,1019.9652,1032.0599,"[[59.1,1086],[59.1,1169],[59.1,1251],[59.1,1335],[59.1,1417],[59.1,1502],[59.1,1585],[59.1,1668],[59.1,1750],[59.1,1835],[59.1,1918],[59.1,2003],[59.1,2085],[59.1,2169],[55.8,2253],[54,2336],[53.7,2420],[51.8,2503],[51.2,2585],[51.2,2671],[51.2,2753],[50.6,2837],[50.1,2921],[49.8,3002],[49.6,3086],[49.6,3170],[49.6,3252],[49.6,3336],[49.9,3420],[51.7,3503],[52.7,3588],[55.7,3671],[56.7,3754],[56.7,3837],[56.7,3921],[56.7,4003],[56.7,4087],[56.7,4170],[56.7,4255],[56.7,4336],[56.7,4421],[57.1,4505],[60.8,4587],[61.9,4672],[61.9,4754],[61.9,4837],[61.9,4921],[65.7,5004],[69.5,5087],[69.5,5171],[69.5,5254],[69.9,5339],[73.7,5423],[76,5504],[76,5587],[76,5672],[76.5,5754],[80.9,5839],[83.4,5922],[83.4,6003],[83.4,6090],[83.4,6172],[83.4,6256],[83.4,6339],[83.4,6422],[83.4,6506],[83.4,6589],[83.4,6671],[88.8,7506],[89.1,7589],[89.1,7672],[89.1,7756],[89.1,7839],[89.1,7924],[90.4,8006],[91.9,8090],[91.9,8174],[91.9,8257],[91.9,8340],[91.9,8423],[91.9,8505],[91.9,8592],[91.9,8673],[91.9,8758],[91.9,8841],[91.9,8923],[91.9,9007],[91.9,9091],[91.9,9174],[91.9,9258],[91.9,9340],[91.9,9424],[91.9,9509],[91.9,9592],[91.9,9675],[91.9,9758],[91.9,9840],[91.9,9924],[91.9,10008],[91.9,10091],[91.9,10176],[91.9,10258],[91.9,10341],[91.9,10426],[91.9,10509],[91.9,10593],[91.9,10676],[91.9,10758],[91.9,10841],[91.9,10925],[91.9,11012],[91.9,11094],[91.9,11175],[91.9,11260],[91.9,11343],[91.9,11426],[91.9,11510],[91.9,11593],[91.9,11678],[91.9,11761],[91.9,11843],[91.9,11927],[91.9,12009],[91.9,12094]]",1,0,1032.0601,1039.3978,58.12835693,5.8691,"[{""rating"":58.12835693359375,""responseTime"":5.869099999994205}]",space,6.7926,,1039.3979,Not at all,0,1039.4027,,,[],,0,7,7,7,1,audio/Narrative7Situation7.wav,audio/Narrative8Situation7.wav,audio/Narrative5Situation7.wav,audio/Narrative6Situation7.wav,5,3,4,5,,,,,,,,,,,,,,,,,,,,,,,,,,,,,,,,,,,,,,,
,,,,,,62c65cd877b056c782d09fe1,2024-02-08_12h02.28.169,group3.1-3.2-social-tom,2023.2.2,MacIntel,59.95203837,65c5074098b851296ff0b7ed,65c516f60a297d4bde9b70eb,,,,,,,,,,,,,,,,,,,,,,,,,,,,,1039.403,1,audio/Narrative8Situation8.wav,1042.4176,,1042.4176,1055.2782,"[[51.4,8005],[53.4,8089],[53.5,8173],[53.5,8256],[53.5,8338],[55.9,8423],[56.9,8506],[56.9,8588],[56.9,8672],[57.4,8756],[62.7,8841],[63.5,8924],[63.5,9006],[63.5,9090],[63.7,9174],[66.8,9255],[68.1,9339],[68.1,9423],[68.1,9506],[68.2,9589],[71.2,9673],[72.3,9756],[72.3,9841],[72.3,9922],[72.3,10007],[72.4,10091],[74.5,10174],[75.2,10257],[75.1,10340],[75.1,10423],[75.1,10509],[75.1,10591],[75.1,10675],[75.1,10758],[75.1,10841],[75.1,10924],[75.1,11008],[75.4,11090],[75.7,11175],[75.8,11257],[75.8,11342],[75.8,11423],[75.8,11507],[75.8,11592],[75.8,11675],[75.8,11757],[75.8,11842],[75.8,11925],[75.8,12009],[75.8,12092],[75.8,12175],[75.9,12258],[75.9,12343],[75.9,12426],[75.9,12510],[75.9,12593],[75.9,12674],[76.6,12759],[78.1,12843]]",1,0,1055.2782,1064.1685,71.84295654,8.3546,"[{""rating"":82.4700927734375,""responseTime"":6.202700000003006},{""rating"":71.84295654296875,""responseTime"":8.354599999994207}]",space,8.3431,,1064.1685,Partially,50,1064.1757,,,[],,0,8,8,8,1,audio/Narrative7Situation8.wav,audio/Narrative8Situation8.wav,audio/Narrative5Situation8.wav,audio/Narrative6Situation8.wav,2,3,3,5,,,,,,,,,,,,,,,,,,,,,,,,,,,,,,,,,,,,,,,
,,,,,,62c65cd877b056c782d09fe1,2024-02-08_12h02.28.169,group3.1-3.2-social-tom,2023.2.2,MacIntel,59.95203837,65c5074098b851296ff0b7ed,65c516f60a297d4bde9b70eb,,,,,,,,,,,,,,,,,,,,,,,,,,,,,1064.1759,1,audio/Narrative8Situation9.wav,1067.1847,,1067.1847,1078.4962,"[[71.9,7592],[72.2,7673],[72.6,7759],[73.3,7842],[73.4,7924],[73.4,8007],[73.4,8091],[73.4,8175],[75.1,8258],[77.3,8341],[77.4,8425],[77.4,8509],[77.4,8591],[80,8676],[83.5,8759],[83.6,8841],[83.6,8927],[83.6,9009],[85.3,9092],[87.5,9177],[87.6,9259],[87.6,9342],[87.6,9426],[88.5,9509],[91.4,9593],[91.7,9676],[91.7,9757],[91.7,9844],[91.7,9925],[91.7,10008],[91.7,10093],[91.7,10175],[91.7,10259],[91.7,10343],[91.7,10425],[91.7,10510],[91.9,10593],[91.9,10678],[92.1,10761],[92.4,10843],[92.4,10927],[92.4,11011],[92.4,11092],[92.4,11177],[92.4,11260]]",1,0,1078.4964,1083.9162,96.2789917,3.9182,"[{""rating"":96.27899169921875,""responseTime"":3.9182000000030257}]",space,4.8691,,1083.9162,Not at all,0,1083.9239,,,[],,0,9,9,9,1,audio/Narrative7Situation9.wav,audio/Narrative8Situation9.wav,audio/Narrative5Situation9.wav,audio/Narrative6Situation9.wav,2,3,3,4,,,,,,,,,,,,,,,,,,,,,,,,,,,,,,,,,,,,,,,
,,,,,,62c65cd877b056c782d09fe1,2024-02-08_12h02.28.169,group3.1-3.2-social-tom,2023.2.2,MacIntel,59.95203837,65c5074098b851296ff0b7ed,65c516f60a297d4bde9b70eb,,,,,,,,,,,,,,,,,,,,,,,,,,,,,1083.9242,1,audio/Narrative7Situation1.wav,1085.9327,,1085.9328,1141.8128,"[[96.5,5004],[74.4,5088],[60.2,5173],[60.2,5254],[60.2,5338],[58.1,5423],[46.8,5506],[46.8,5589],[46.8,5672],[46.8,5755],[46.1,5841],[44.7,5921],[44.7,6007],[44.7,6090],[44.7,6173],[44,6256],[41.4,6340],[41.1,6422],[41.1,6506],[41.1,6589],[41.1,6674],[41.1,6757],[40.4,6840],[37.4,6925],[36.9,7007],[36.9,7089],[36.9,7173],[36.9,7257],[36.9,7339],[36.9,7425],[36.9,7508],[36.9,7591],[36.9,7675],[35.3,7757],[32.9,7842],[32.9,7923],[32.9,8006],[32.9,8090],[32.9,8174],[32.9,8260],[36.9,8345],[41.8,8424],[41.8,8508],[41.8,8591],[43.9,8675],[47.5,8758],[47.7,8841],[47.7,8924],[49.8,9008],[51.1,9091],[51.1,9174],[51.1,9259],[53.2,9342],[53.9,9425],[53.9,9509],[53.9,9592],[54.9,9676],[55.3,9759],[55.3,9843],[55.3,9927],[55.3,10009],[55.3,10091],[55.3,10175],[55.3,10258],[57.2,10345],[58.1,10427],[58.1,10510],[58.1,10593],[58.1,10676],[58.1,10760],[58.1,10844],[58.1,10926],[58.4,11011],[59.2,11094],[59.2,11176],[59.2,11259],[59.2,11343],[59.2,11426],[59.2,11512],[59.2,11593],[59.2,11678],[59.2,11761],[59.2,11843],[59.2,11928],[59.2,12011],[59.2,12093],[59.2,12177],[59.2,12260],[59.2,12343],[59.2,12429],[59.2,12510],[59.2,12595],[59.2,12682],[59.2,12762],[59.2,12844],[59.2,12928],[59.2,13011],[59.2,13094],[59.2,13179],[59.2,13261],[59.2,13346],[59.2,13429],[59.2,13512],[59.2,13596],[59.2,13677],[59.2,13762],[59.2,13845],[59.2,13928],[59.2,14010],[59.2,14095],[59.2,14180],[59.2,14261],[59.2,14345],[59.2,14429],[59.2,14513],[59.2,14596],[59.2,14680],[59.2,14762],[61.8,14846],[63.8,14930],[63.8,15012],[63.8,15098],[63.8,15178],[63.8,15263],[63.8,15347],[63.8,15430],[63.8,15514],[63.8,15597],[63.8,15680],[63.8,15763],[63.8,15848],[63.8,15929],[63.8,16012],[63.8,16098],[63.8,16180],[64.7,16264],[66.3,16348],[67.7,16431],[67.7,16516],[67.7,16597],[67.7,16680],[67.7,16766],[67.7,16847],[67.7,16932],[69.2,17015],[69.8,17097],[69.9,17181],[69.9,17264],[69.9,17347],[69.9,17433],[69.9,17514],[69.9,17599],[69.9,17682],[69.9,17766],[69.9,17847],[69.9,17932],[69.9,18014],[69.9,18098],[69.9,18182],[69.9,18265],[69.9,18350],[69.9,18431],[69.9,18516],[69.9,18600],[69.9,18683],[70.4,18767],[70.8,18850],[70.8,18932],[70.8,19018],[70.8,19099],[70.8,19184],[70.8,19267],[70.8,19349],[70.8,19433],[70.8,19515],[70.8,19599],[70.8,19684],[70.8,19766],[70.8,19849],[70.8,19935],[70.8,20016],[70.8,20101],[70.8,20184],[70.8,20266],[70.8,20351],[70.8,20434],[70.8,20518],[70.8,20601],[70.8,20684],[70.8,20768],[70.8,20850],[70.8,20934],[70.8,21019],[70.8,21103],[70.8,21183],[70.8,21268],[70.8,21351],[70.8,21435],[70.8,21520],[70.8,21601],[70.8,21686],[70.8,21767],[70.8,21852],[70.8,21934],[70.8,22018],[70.8,22101],[70.8,22185],[70.8,22268],[70.8,22351],[70.8,22437],[70.8,22520],[70.8,22603],[70.8,22686],[70.8,22768],[70.8,22853],[70.8,22936],[70.8,23020],[70.8,23104],[70.8,23187],[70.8,23270],[70.8,23354],[70.8,23435],[70.8,23520],[70.8,23604],[70.8,23686],[70.8,23770],[70.8,23853],[70.8,23936],[70.8,24022],[70.8,24103],[70.8,24186],[70.8,24271],[70.8,24354],[70.8,24438],[70.8,24521],[70.8,24604],[70.8,24688],[70.8,24770],[70.8,24853],[70.8,24938],[70.8,25021],[70.8,25104],[70.8,25188],[70.8,25271],[70.3,25355],[68,25439],[67.3,25521],[67.3,25605],[67.3,25687],[67.3,25770],[67.3,25856],[67.7,25937],[69.1,26023],[69.4,26104],[69.4,26187],[69.4,26272],[69.4,26355],[69.4,26438],[69.4,26523],[68.3,26605],[67.8,26690],[67.5,26773],[67.5,26855],[67.5,26940],[67.5,27023],[67.5,27106],[67.5,27189],[67.5,27272],[67.5,27355],[67.5,27441],[67.5,27523],[64.3,27607],[57.1,27691],[56.8,27772],[56.8,27857],[54.4,27940],[48,28024],[45.8,28106],[45.8,28189],[45.8,28273],[45.8,28358],[44.4,28440],[41.8,28524],[41.8,28608],[41.8,28689],[41.8,28773],[41.8,28857],[41.8,28939],[41.8,29024],[42.1,29107],[45,29192],[47.2,29275],[47.7,29357],[47.7,29441],[47.7,29525],[47.7,29607],[47.7,29691],[47.7,29774],[47.7,29858],[47.7,29943],[46.4,30024],[45.3,30108],[45.2,30191],[45.2,30276],[45.2,30358],[45.2,30442],[45.2,30524],[44.4,30609],[42.4,30692],[42.1,30774],[42.1,30860],[42.1,30943],[42.1,31027],[38.9,31110],[36.8,31191],[36.8,31276],[36.8,31359],[36.8,31443],[36.8,31527],[36.8,31608],[36.8,31693],[36.8,31777],[36.8,31859],[37,31944],[37.5,32027],[37.7,32109],[40.3,32193],[55,32277],[58,32361],[58,32445],[58,32526],[58,32611],[58,32694],[58,32777],[58,32859],[58,32944],[58,33026],[58,33112],[58,33193],[58,33276],[58,33360],[58,33443],[58,33528],[58,33611],[58,33694],[58,33778],[58,33861],[58,33943],[58,34030],[58,34112],[58,34194],[58,34279],[58,34361],[58,34445],[58,34529],[58,34611],[58,34695],[58,34778],[58,34861],[58,34945],[58,35028],[58,35111],[58,35195],[58,35277],[58,35363],[58,35446],[58,35528],[58,35613],[58,35695],[58,35780],[58,35864],[58,35946],[58,36030],[58,36112],[58,36198],[58,36279],[58,36363],[58,36446],[58,36530],[58,36613],[58,36697],[58,36781],[58,36862],[58,36947],[58,37030],[58,37113],[58,37196],[58,37280],[58,37363],[58,37448],[58,37530],[58,37615],[58,37698],[58,37781],[58,37865],[58,37948],[58,38033],[58,38116],[58,38197],[58,38280],[58,38366],[58,38447],[58,38532],[58,38613],[58,38697],[58,38782],[58,38865],[58,38947],[58,39033],[58,39114],[58,39200],[58,39283],[58,39366],[58,39449],[58,39532],[58,39615],[58,39699],[58,39782],[58,39865],[58,39950],[58,40032],[59.4,40117],[62.3,40200],[62.5,40281],[62.5,40366],[62.5,40449],[62.5,40533],[62.5,40618],[62.5,40699],[62.5,40782],[62.5,40868],[62.5,40950],[62.5,41034],[63.2,41117],[69.1,41200],[70.9,41283],[70.9,41367],[70.9,41452],[70.9,41535],[70.9,41617],[70.9,41701],[70.9,41785],[70.9,41868],[70.9,41951],[70.9,42034],[70.9,42116],[70.9,42200],[70.9,42284],[70.9,42370],[70.9,42452],[70.9,42534],[70.9,42618],[70.9,42702],[70.9,42784],[70.9,42869],[70.9,42953],[70.9,43039],[70.9,43120],[70.9,43201],[70.9,43284],[70.9,43370],[70.9,43453],[70.9,43536],[70.9,43619],[70.9,43702],[70.9,43786],[70.9,43869],[70.9,43953],[70.9,44037],[70.9,44120],[71.8,44203],[72.5,44287],[72.5,44369],[72.5,44452],[72.5,44536],[72.5,44619],[72.5,44703],[72.5,44786],[72.5,44869],[72.5,44954],[72.5,45036],[72.5,45121],[72.5,45201],[72.5,45286],[72.5,45370],[72.5,45453],[72.5,45536],[72.5,45620],[72.5,45703],[72.5,45788],[72.5,45872],[72.5,45954],[72.5,46037],[72.5,46121],[72.5,46206],[72.5,46287],[72.5,46371],[72.5,46453],[72.5,46539],[72.5,46621],[72.5,46705],[72.5,46789],[72.5,46870],[72.5,46955],[72.5,47039],[72.5,47121],[72.5,47204],[72.5,47289],[72.5,47372],[72.5,47454],[72.5,47539],[72.5,47622],[72.5,47706],[72.5,47789],[72.5,47873],[72.5,47956],[72.5,48038],[72.5,48124],[72.5,48206],[72.5,48288],[72.5,48374],[72.5,48455],[72.5,48539],[72.5,48623],[72.5,48705],[72.5,48790],[72.5,48873],[72.5,48956],[72.5,49041],[72.5,49123],[72.5,49208],[72.5,49289],[72.5,49372],[72.5,49457],[72.5,49540],[72.5,49623],[72.5,49707],[72.5,49790],[72.5,49872],[72.5,49956],[72.5,50041],[72.5,50125],[72.5,50208],[72.5,50290],[72.5,50374],[72.5,50458],[72.5,50540],[72.5,50626],[72.5,50707],[72.5,50790],[72.5,50875],[72.5,50957],[72.5,51042],[72.5,51123],[72.5,51207],[72.5,51291],[72.5,51375],[72.5,51458],[72.5,51543],[72.5,51624],[72.5,51707],[72.5,51793],[72.5,51876],[72.5,51959],[72.5,52042],[72.5,52124],[72.5,52208],[72.5,52292],[72.5,52375],[72.5,52460],[72.5,52543],[72.5,52626],[72.5,52710],[72.5,52791],[72.5,52877],[72.5,52959],[72.5,53045],[72.5,53128],[72.5,53222],[72.5,53306],[72.5,53391],[72.5,53474],[72.5,53555],[72.5,53638],[72.5,53723],[72.5,53807],[72.5,53891],[72.5,53976],[72.5,54061],[72.5,54143],[72.5,54226],[72.5,54312],[72.5,54394],[72.5,54476],[72.5,54560],[72.5,54644],[72.5,54728],[72.5,54811],[72.5,54894],[72.8,54978],[74.5,55064],[74.8,55144],[74.8,55227],[74.8,55312],[74.8,55396],[74.8,55479],[74.8,55561],[74.8,55645],[74.8,55728],[74.8,55811]]",1,0,1141.813,1145.6149,75.55633545,2.3495,"[{""rating"":75.55633544921875,""responseTime"":2.349499999999807}]",space,3.2565,,1145.615,Partially,50,1145.6236,,,[],,0,10,10,10,1,audio/Narrative8Situation1.wav,audio/Narrative7Situation1.wav,audio/Narrative6Situation1.wav,audio/Narrative5Situation1.wav,5,2,2,5,,,,,,,,,,,,,,,,,,,,,,,,,,,,,,,,,,,,,,,
,,,,,,62c65cd877b056c782d09fe1,2024-02-08_12h02.28.169,group3.1-3.2-social-tom,2023.2.2,MacIntel,59.95203837,65c5074098b851296ff0b7ed,65c516f60a297d4bde9b70eb,,,,,,,,,,,,,,,,,,,,,,,,,,,,,1145.6241,1,audio/Narrative7Situation2.wav,1148.632,,1148.632,1156.106,"[[75.9,3171],[79.6,3253],[80,3336],[80,3421],[80,3502],[80,3588],[80,3670],[80,3753],[80,3838],[80,3921],[80,4005],[80,4088],[80,4170],[80.5,4254],[81.4,4337],[81.5,4420],[81.5,4504],[81.5,4587],[81.5,4672],[81.5,4755],[81.5,4837],[81.5,4922],[81.5,5005],[81.5,5088],[81.5,5173],[81.5,5255],[81.5,5338],[81.5,5423],[81.5,5507],[82,5589],[83.1,5673],[83.1,5756],[83.1,5839],[83.1,5922],[83.1,6005],[83.1,6090],[83.1,6172],[83.1,6255],[83.1,6340],[83.1,6422],[83.1,6506],[83.1,6590],[83.1,6673],[83.1,6758],[83.1,6839],[83.1,6924],[83.1,7006],[83.1,7089],[83.1,7173],[83.1,7258],[83.3,7340],[83.5,7424]]",1,0,1156.1062,1159.2583,80.43212891,1.4821,"[{""rating"":80.43212890625,""responseTime"":1.482099999994034}]",space,2.6029,,1159.2584,Not at all,0,1159.2661,,,[],,0,11,11,11,1,audio/Narrative8Situation2.wav,audio/Narrative7Situation2.wav,audio/Narrative6Situation2.wav,audio/Narrative5Situation2.wav,3,3,3,3,,,,,,,,,,,,,,,,,,,,,,,,,,,,,,,,,,,,,,,
,,,,,,62c65cd877b056c782d09fe1,2024-02-08_12h02.28.169,group3.1-3.2-social-tom,2023.2.2,MacIntel,59.95203837,65c5074098b851296ff0b7ed,65c516f60a297d4bde9b70eb,,,,,,,,,,,,,,,,,,,,,,,,,,,,,1159.2664,1,audio/Narrative7Situation3.wav,1167.2796,,1167.2796,1176.5222,"[[999,0],[999,86],[999,167],[999,253],[999,334],[999,418],[999,502],[999,585],[999,668],[999,752],[999,835],[999,918],[999,1003],[999,1086],[999,1170],[999,1253],[999,1335],[999,1419],[999,1503],[999,1585],[999,1671],[999,1752],[999,1837],[999,1921],[999,2003],[999,2087],[999,2170],[999,2252],[999,2336],[999,2420],[999,2502],[999,2585],[999,2669],[999,2754],[999,2838],[999,2919],[999,3003],[999,3086],[999,3173],[999,3254],[999,3337],[999,3419],[999,3505],[999,3589],[999,3671],[999,3755],[999,3837],[999,3922],[999,4005],[999,4087],[999,4173],[999,4256],[999,4339],[999,4422],[999,4505],[999,4589],[999,4672],[999,4754],[999,4839],[999,4922],[999,5004],[999,5090],[999,5172],[999,5255],[999,5340],[999,5422],[999,5506],[73.8,5590],[73.8,5672],[74.1,5757],[75.2,5839],[75.7,5924],[75.7,6007],[75.7,6090],[73.9,6174],[59.3,6259],[54,6346],[53.4,6426],[53.4,6507],[52.9,6590],[51.5,6673],[49.2,6757],[48.9,6841],[48.9,6925],[48.9,7008],[48.9,7091],[48.4,7174],[48.3,7257],[48.2,7340],[48.2,7423],[48.2,7507],[48.2,7592],[48.2,7674],[48.2,7758],[48.2,7842],[48.2,7923],[48.2,8008],[48.2,8091],[48.2,8174],[48.4,8258],[49,8342],[49.4,8426],[49.4,8509],[49.4,8591],[49.4,8676],[49.4,8759],[49.2,8842],[45.8,8926],[38.9,9009],[37.3,9093],[35.7,9175]]",1,0,1176.5223,1181.4434,18.11523438,3.2522,"[{""rating"":18.115234375,""responseTime"":3.2522000000028584}]",space,4.3717,,1181.4436,Partially,50,1181.4507,,,[],,0,12,12,12,1,audio/Narrative8Situation3.wav,audio/Narrative7Situation3.wav,audio/Narrative6Situation3.wav,audio/Narrative5Situation3.wav,4,8,5,3,,,,,,,,,,,,,,,,,,,,,,,,,,,,,,,,,,,,,,,
,,,,,,62c65cd877b056c782d09fe1,2024-02-08_12h02.28.169,group3.1-3.2-social-tom,2023.2.2,MacIntel,59.95203837,65c5074098b851296ff0b7ed,65c516f60a297d4bde9b70eb,,,,,,,,,,,,,,,,,,,,,,,,,,,,,1181.4509,1,audio/Narrative7Situation4.wav,1184.462,,1184.462,1196.1882,"[[18.7,6339],[53.3,6838],[48.7,6921],[48.4,7006],[48.4,7087],[48.4,7173],[48.2,7256],[44.4,7337],[39.3,7422],[38.5,7505],[38.5,7589],[38.5,7672],[32.8,7756],[29,7838],[29,7923],[29,8006],[29,8090],[29,8173],[29,8255],[29,8339],[29,8423],[29,8504],[29,8591],[29,8672],[29,8755],[29,8839],[29,8922],[29,9007],[29,9090],[29,9173],[25.4,9257],[19.9,10257],[19.8,10342],[19.7,10425],[19.7,10507],[19.7,10591],[19.7,10675],[19.7,10758],[19.7,10842],[19.7,10924],[19.7,11008],[19.7,11091],[19.7,11174],[19.7,11259],[19.7,11342],[19.7,11425],[19.7,11509],[19.7,11592],[19.7,11674]]",1,0,1196.1883,1198.5226,19.42474365,1.216,"[{""rating"":19.42474365234375,""responseTime"":1.2159999999998945}]",space,1.7879,,1198.5227,Definitely yes,100,1198.5301,,,[],,0,13,13,13,1,audio/Narrative8Situation4.wav,audio/Narrative7Situation4.wav,audio/Narrative6Situation4.wav,audio/Narrative5Situation4.wav,3,3,2,1,,,,,,,,,,,,,,,,,,,,,,,,,,,,,,,,,,,,,,,
,,,,,,62c65cd877b056c782d09fe1,2024-02-08_12h02.28.169,group3.1-3.2-social-tom,2023.2.2,MacIntel,59.95203837,65c5074098b851296ff0b7ed,65c516f60a297d4bde9b70eb,,,,,,,,,,,,,,,,,,,,,,,,,,,,,1198.5305,1,audio/Narrative7Situation5.wav,1203.5421,,1203.5421,1212.0184,"[[5.7,3420],[5.9,3504],[5.9,3588],[5.9,3671],[5.9,3755],[5.9,3837],[5.9,3920],[5.9,4003],[5.9,4087],[5.9,4171],[5.9,4255],[5.9,4338],[5.9,4421],[5.9,4505],[6.7,4588],[11.6,4672],[12.1,4755],[12.2,4837],[12.2,4923],[12.2,5004],[12.2,5090],[12.2,5173],[12.2,5254],[12.2,5339],[12.2,5422],[12.2,5504],[12.2,5589],[12.2,5673],[12.2,5755],[12.2,5840],[12.2,5922],[12.2,6005],[12.2,6090],[12.2,6172],[12.3,6256],[12.7,6340],[13.8,6423],[14.6,6506],[14.6,6589],[14.6,6672],[14.6,6758],[14.6,6839],[14.6,6924],[14.6,7007],[14.6,7091],[14.6,7173],[14.6,7256],[14.6,7339],[14.6,7425],[14.6,7506],[14.6,7591],[14.6,7674],[14.6,7756],[15.8,7842],[16.1,7924],[16.1,8006],[16.1,8090],[16.1,8174],[16.1,8258],[15.9,8342],[16,8424]]",1,0,1212.0186,1215.7198,0,3.0999,"[{""rating"":10.68878173828125,""responseTime"":0.8481999999880827},{""rating"":0,""responseTime"":3.0998999999910666}]",space,3.1567,,1215.72,Not at all,0,1215.7267,,,[],,0,14,14,14,1,audio/Narrative8Situation5.wav,audio/Narrative7Situation5.wav,audio/Narrative6Situation5.wav,audio/Narrative5Situation5.wav,2,5,2,5,,,,,,,,,,,,,,,,,,,,,,,,,,,,,,,,,,,,,,,
,,,,,,62c65cd877b056c782d09fe1,2024-02-08_12h02.28.169,group3.1-3.2-social-tom,2023.2.2,MacIntel,59.95203837,65c5074098b851296ff0b7ed,65c516f60a297d4bde9b70eb,,,,,,,,,,,,,,,,,,,,,,,,,,,,,1215.727,1,audio/Narrative7Situation6.wav,1218.7375,,1218.7376,1228.7135,"[[0.1,1419],[3.9,1501],[3.9,1585],[3.9,1668],[4.1,1751],[12.8,1837],[19,1918],[19,2002],[19,2086],[23,2169],[36.5,2252],[43,2503],[48.4,2586],[54.2,2837],[58.5,2920],[58.5,3003],[58.5,3085],[60.4,3169],[66,3254],[67.5,3336],[67.5,3421],[68.2,3503],[76.2,3587],[78.5,3671],[78.5,3752],[78.5,3838],[82.8,3921],[84.8,4004],[84.8,4086],[84.8,4171],[91.1,4255],[94.3,4339],[94.3,4424],[94.7,4505],[97.8,4588]]",1,0,1228.7136,1230.8479,99.68292236,1.4336,"[{""rating"":99.68292236328125,""responseTime"":1.4335999999939304}]",space,1.5847,,1230.848,Not at all,0,1230.853,,,[],,0,15,15,15,1,audio/Narrative8Situation6.wav,audio/Narrative7Situation6.wav,audio/Narrative6Situation6.wav,audio/Narrative5Situation6.wav,2,3,2,3,,,,,,,,,,,,,,,,,,,,,,,,,,,,,,,,,,,,,,,
,,,,,,62c65cd877b056c782d09fe1,2024-02-08_12h02.28.169,group3.1-3.2-social-tom,2023.2.2,MacIntel,59.95203837,65c5074098b851296ff0b7ed,65c516f60a297d4bde9b70eb,,,,,,,,,,,,,,,,,,,,,,,,,,,,,1230.8533,1,audio/Narrative7Situation7.wav,1235.8675,,1235.8676,1253.0344,"[[97.9,2337],[87.9,2419],[75.9,2503],[74.6,2586],[74.6,2668],[74.6,2754],[74.1,2836],[71.7,2920],[69.6,3004],[69.1,3086],[69.1,3170],[69.1,3254],[69.1,3339],[69.1,3420],[69.1,3504],[69.1,3586],[69.1,3672],[69.1,3753],[69.1,3838],[69.1,3921],[69.2,4003],[70,4088],[70.1,4171],[70.1,4252],[70.1,4338],[70.1,4421],[70.1,4504],[67.9,4589],[62.9,4671],[62.1,4755],[62.1,4838],[62.1,4921],[62.1,5005],[62.1,5088],[62.1,5170],[59.7,5257],[58.1,5338],[58.1,5421],[58.1,5506],[59.6,5588],[63.5,5672],[64.8,5756],[64.8,5839],[64.8,5922],[64.8,6005],[64.8,6088],[66.8,6174],[67.7,6256],[67.7,6340],[67.7,6423],[67.7,6505],[67.7,6589],[67.7,6673],[67.7,6756],[67.7,6841],[67.7,6922],[67.7,7006],[67.7,7091],[67.8,7173],[68.1,7258],[68.5,7341],[68.7,7423],[68.9,7508],[69,7590],[69,7672],[69,7758],[69.1,7841],[69.6,7924],[70.6,8008],[70.6,8092],[70.6,8175],[70.6,8258],[70.6,8341],[70.6,8423],[70.6,8507],[70.6,8593],[70.6,8676],[70.6,8757],[70.6,8842],[70.6,8925],[70.6,9007],[72.5,9092],[76.1,9175],[76.9,9260],[76.9,9341],[76.9,9425],[76.9,9510],[78.1,9593],[78.8,9675],[78.8,9759],[78.8,9842],[78.8,9925],[78.8,10009],[78.8,10092],[78.8,10175],[78.8,10260],[79.1,10342],[81.8,10427],[82.7,10510],[82.7,10592],[82.7,10676],[82.7,10760],[82.7,10842],[82.7,10926],[82.7,11009],[82.7,11094],[83,11178],[85.3,11260],[86,11344],[85.3,11427],[85.3,11509],[85.3,11593],[85.3,11677],[85.3,11759],[85.3,11845],[85.3,11926],[85.3,12011],[85.3,12095],[85.3,12177],[87.1,12262],[88.9,12345],[88.9,12426],[88.9,12510],[88.9,12594],[88.9,12677],[88.9,12762],[88.9,12843],[88.9,12928],[88.9,13012],[88.9,13095],[88.9,13179],[88.9,13261],[88.9,13343],[88.9,13427],[88.9,13511],[88.9,13595],[88.9,13679],[88.9,13761],[88.9,13846],[88.9,13929],[88.9,14011],[88.9,14096],[88.9,14179],[88.9,14261],[91,14345],[94.2,14429],[94.4,14511],[94.4,14597],[94.4,14679],[94.4,14762],[98.1,14847],[100,14929],[100,15013],[100,15095],[100,15179],[100,15264],[100,15346],[100,15429],[100,15514],[100,15595],[100,15680],[100,15763],[100,15845],[100,15930],[100,16013],[100,16097],[100,16181],[100,16264],[100,16348],[100,16431],[100,16512],[100,16597],[100,16681],[100,16763],[100,16849],[100,16931],[100,17015],[100,17096]]",1,0,1253.0346,1257.135,100,3.2501,"[{""rating"":100,""responseTime"":3.250099999994063}]",space,3.5533,,1257.1352,Partially,50,1257.1433,,,[],,0,16,16,16,1,audio/Narrative8Situation7.wav,audio/Narrative7Situation7.wav,audio/Narrative6Situation7.wav,audio/Narrative5Situation7.wav,3,5,5,4,,,,,,,,,,,,,,,,,,,,,,,,,,,,,,,,,,,,,,,
,,,,,,62c65cd877b056c782d09fe1,2024-02-08_12h02.28.169,group3.1-3.2-social-tom,2023.2.2,MacIntel,59.95203837,65c5074098b851296ff0b7ed,65c516f60a297d4bde9b70eb,,,,,,,,,,,,,,,,,,,,,,,,,,,,,1257.1437,1,audio/Narrative7Situation8.wav,1259.1524,,1259.1524,1269.1628,"[[100,2255],[100,2336],[100,2419],[100,2503],[100,2587],[100,2670],[97.3,2754],[92.4,2837],[86.8,2921],[86.2,3003],[86.2,3085],[86.2,3171],[81,3253],[67.7,3338],[66.5,3421],[66.5,3503],[66.5,3587],[66.5,3670],[66.5,3754],[66.5,3839],[66.5,3921],[65.5,4005],[61.8,4089],[57.1,4171],[56,4253],[56,4337],[56,4421],[56,4504],[53.8,4588],[52.7,4671],[52.5,4754],[52.5,4838],[52.5,4920],[52.4,5006],[51.9,5088],[51.5,5173],[51.5,5255],[51.5,5337],[51.5,5421],[51.1,5505],[50.2,5591],[50.1,5673],[50.1,5756],[50.1,5839],[50.1,5923],[50.1,6004],[50.1,6089],[50.1,6173],[50.1,6255],[50.1,6341],[50.1,6422],[50.1,6508],[50.1,6590],[50.1,6673],[50.1,6756],[50.1,6840],[50.1,6922],[50.1,7007],[50.1,7090],[50.1,7172],[50.1,7258],[50.1,7339],[50.1,7422],[50.1,7508],[50.1,7589],[50.1,7674],[50.1,7756],[50.1,7839],[50.1,7924],[50.1,8007],[50.1,8089],[50.1,8175],[50.1,8256],[50.1,8340],[50.2,8426],[51.3,8512],[51.9,8593],[51.9,8675],[51.9,8757],[51.9,8843],[51.9,8924],[51.9,9009],[51.9,9092],[51.9,9174],[51.9,9259],[52,9342],[53.8,9424],[57,9508],[57.9,9592],[57.8,9674],[57.8,9758],[57.8,9841],[57.8,9926],[57.8,10010]]",1,0,1269.1629,1278.9208,38.36334229,8.0876,"[{""rating"":38.36334228515625,""responseTime"":8.087599999993927}]",space,9.2085,,1278.9209,Partially,50,1278.9252,,,[],,0,17,17,17,1,audio/Narrative8Situation8.wav,audio/Narrative7Situation8.wav,audio/Narrative6Situation8.wav,audio/Narrative5Situation8.wav,3,2,5,3,,,,,,,,,,,,,,,,,,,,,,,,,,,,,,,,,,,,,,,
,,,,,,62c65cd877b056c782d09fe1,2024-02-08_12h02.28.169,group3.1-3.2-social-tom,2023.2.2,MacIntel,59.95203837,65c5074098b851296ff0b7ed,65c516f60a297d4bde9b70eb,,,,,,,,,,,,,,,,,,,,,,,,,,,,,1278.9255,1,audio/Narrative7Situation9.wav,1280.9369,,1280.937,1289.5963,"[[38.4,4171],[38.4,4254],[38.4,4337],[38.4,4421],[41.1,4503],[56.1,4588],[59.9,4670],[59.9,4752],[59.9,4836],[59.9,4920],[67.3,5005],[69.6,5087],[69.6,5171],[69.6,5255],[69.6,5338],[69.6,5420],[69.6,5505],[69.6,5588],[72.1,5670],[79.8,5754],[80.5,5838],[80.4,5923],[79.1,6006],[76.6,6088],[76.3,6172],[76.3,6255],[76.3,6338],[76.3,6424],[76.3,6506],[76.3,6588],[76.3,6673],[76.4,6755],[76.8,6839],[76.8,6923],[76.9,7007],[80.9,7089],[85.2,7173],[85.7,7255],[85.7,7339],[85.7,7421],[85.7,7507],[85.7,7590],[85.7,7673],[85.7,7757],[85.7,7840],[85.7,7922],[85.7,8006],[85.7,8089],[85.7,8172],[85.7,8258],[85.7,8339],[85.7,8424],[86,8508],[86,8591]]",1,0,1289.5964,1293.0301,87.10571289,3.4327,"[{""rating"":87.105712890625,""responseTime"":3.432700000003024}]",space,1.1987,,1293.0302,Not at all,0,1306.3261,0.148010254,11.0405,"[{""rating"":0.14801025390625,""responseTime"":11.040500000000065}]",space,0,18,18,18,1,audio/Narrative8Situation9.wav,audio/Narrative7Situation9.wav,audio/Narrative6Situation9.wav,audio/Narrative5Situation9.wav,3,2,4,3,,,12.7607,,,,,,,,,,,,,,,,,,,,,,,,,,,,,,,,,,,,
,,,,,,62c65cd877b056c782d09fe1,2024-02-08_12h02.28.169,group3.1-3.2-social-tom,2023.2.2,MacIntel,59.95203837,65c5074098b851296ff0b7ed,65c516f60a297d4bde9b70eb,,,,,,,,,,,,,,,,,,,,,,,,,,,1366.3214,1368.905,1368.9174,2,audio/Narrative13Situation2.wav,1368.9176,,1368.9176,1398.6648,"[[6.2,5342],[61.4,5760],[61.4,5842],[61.4,5926],[61.4,6010],[61.4,6093],[65.6,6177],[68.6,6261],[68.6,6345],[68.6,6428],[68.6,6510],[68.6,6594],[68.6,6677],[68.6,6760],[62.5,6846],[54.5,6927],[54.5,7010],[54.5,7095],[54.5,7178],[54.9,7262],[56.9,7345],[56.9,7427],[56.9,7511],[56.9,7595],[56.9,7677],[56.9,7761],[57.9,7846],[60.4,7930],[60.4,8012],[60.4,8095],[65.5,8179],[69,8261],[69,8344],[77.5,8429],[82.9,8511],[82.9,8595],[82.9,8678],[82.9,8763],[83.8,8847],[83.9,8930],[83.9,9012],[83.9,9097],[89.3,9680],[88.9,9764],[88.9,9847],[88.9,9929],[88.9,10014],[96,13599],[95.4,13683],[95.1,13767],[95.1,13851],[95.1,13934],[95.1,14017],[95.1,14100],[95.1,14182],[95.1,14266],[95.1,14350],[95.1,14432],[95.1,14515],[95.1,14601],[95.1,14682],[95.1,14768],[95.1,14851],[95.1,14933],[94.7,15018],[94,15099],[93.9,15183],[93.9,15267],[93.9,15350],[93.9,15435],[93.9,15518],[93.9,15601],[93.9,15685],[93.9,15768],[92.4,15851],[92.4,15935],[92.4,16017],[68.2,16102],[48.1,16685],[48.6,16768],[47.6,16852],[47.6,16935],[46.8,17020],[41.1,17103],[38.5,17186],[37.2,17270],[36.8,17353],[36.7,17436],[36,17520],[35.4,17603],[35.4,17685],[35.4,17770],[34.6,17852],[23.1,17938],[8,18687],[6.6,18771],[6.5,18855],[6.5,18937],[6.5,19020],[4.5,19105],[2.4,19186],[2.4,19270],[2.4,19354],[2.4,19436],[2.4,19522],[0.1,19604],[47.7,23357],[47.1,23441],[46.9,23523],[46.9,23609],[47.3,23695],[48.5,23777],[49.8,23858],[50,23941],[50.2,24024],[50.3,24108],[50.3,24191],[50.3,24273],[50.3,24358],[50.3,24440],[50.3,24523],[50.3,24608],[50.3,24692],[50.3,24776],[50.3,24858],[50.3,24942],[50.3,25026],[50.3,25108],[50.3,25192],[50.3,25275],[50.3,25359],[50.3,25443],[50.3,25525],[50.3,25608],[50.3,25693],[50.3,25775],[50.3,25858],[50.3,25942],[50.3,26025],[50.3,26108],[50.3,26194],[50.3,26276],[50.3,26360],[50.3,26442],[50.3,26526],[50.3,26610],[50.3,26693],[50.3,26775],[50.3,26861],[47.3,26944],[38,27029],[36.9,27111],[36.9,27194],[36.9,27278],[36.9,27360],[36.9,27443],[36.9,27527],[36.9,27610],[36.9,27692],[36.9,27777],[36.9,27859],[36.9,27945],[36.9,28026],[36.9,28111],[36.9,28194],[36.9,28277],[36.9,28360],[29.7,28444],[14.7,28527],[14.7,28610],[14.7,28695],[14.7,28786],[14.7,28868],[14.7,28946],[14.7,29027],[14.7,29112],[14.7,29194],[8.7,29278]]",1,0,1398.6649,1398.6705,,,[],,,,1398.6705,Partially,50,1398.6769,,,[],,0,0,0,0,1,audio/Narrative13Situation2.wav,audio/Narrative13Situation2.wav,audio/Narrative13Situation2.wav,audio/Narrative13Situation2.wav,2,2,2,2,,,,,1306.3271,1366.321,,,,,,,,,,,,,,,,,,,,,,,,,,,,,,,,,
,,,,,,62c65cd877b056c782d09fe1,2024-02-08_12h02.28.169,group3.1-3.2-social-tom,2023.2.2,MacIntel,59.95203837,65c5074098b851296ff0b7ed,65c516f60a297d4bde9b70eb,,,,,,,,,,,,,,,,,,,,,,,,,,,,,1398.6773,2,audio/Narrative6Situation1.wav,1400.6798,,1400.6798,1427.2531,"[[5.9,4088],[3.9,4171],[3.9,4254],[3.9,4338],[3.9,4421],[3.9,4505],[3.9,4589],[3.9,4671],[3.9,4756],[3.9,4839],[3.9,4923],[3.9,5005],[4.9,5090],[56,5841],[54.5,5922],[63.5,6007],[67.9,6089],[67.9,6172],[67.9,6255],[69.3,6342],[80.4,6425],[81.5,6506],[81.5,6591],[81.5,6672],[80.3,6758],[79.6,6841],[79.6,6924],[79.6,7006],[79.6,7091],[79.6,7173],[79.6,7256],[79.6,7340],[79.6,7423],[79.6,7508],[79.6,7591],[79.6,7674],[79.6,7758],[79.6,7841],[79.6,7923],[79.6,8008],[79.6,8093],[79.6,8173],[79.6,8259],[79.6,8340],[79.6,8426],[79.6,8507],[79.6,8592],[79.6,8675],[79.6,8758],[79.6,8841],[79.6,8926],[79.6,9008],[79.6,9093],[79.6,9176],[79.6,9259],[79.6,9343],[79.6,9426],[79.6,9508],[79.6,9593],[79.6,9675],[79.6,9758],[79.6,9843],[79.6,9925],[79.6,10009],[79.6,10093],[79.6,10176],[79.6,10260],[79.6,10342],[79.6,10425],[79.6,10509],[79.6,10592],[79.6,10675],[63.5,10761],[56.3,10844],[56.6,10928],[56.6,11011],[56.5,11094],[56.6,11176],[56.6,11259],[56.6,11342],[56.6,11428],[56.6,11510],[53.3,11594],[51.1,11678],[51.1,11761],[51.1,11845],[51.1,11928],[51.1,12011],[49.8,12095],[37.3,13263],[37.3,13346],[37.3,13430],[37.3,13511],[36.7,13598],[36.1,13680],[35.6,13762],[35.6,13844],[35.6,13930],[35.6,14011],[35.6,14095],[35.6,14180],[35.6,14263],[35.6,14347],[35.6,14429],[34.5,14512],[24.1,14597],[24.1,14680],[24.1,14761],[24.1,14846],[23.8,14931],[14.9,15015],[13.1,15097],[13.1,15180],[13.1,15264],[13.1,15347],[13.1,15429],[13.1,15513],[13.1,15596],[12.3,15682],[8.2,15764],[7.9,15848],[7.9,15932],[7.9,16014],[7.9,16096],[7.9,16182],[7.9,16263],[7.9,16347],[7.9,16431],[7.9,16514],[7.9,16599],[7.9,16682],[0.4,18766],[0.6,18850],[0.7,18934],[1,19016],[1.2,19101],[1.2,19184],[1,19267],[6,21101],[11.2,21186],[11.4,21268],[11.4,21351],[18.2,21435],[47.2,21518],[49.2,21603],[49.2,21685],[55.4,21769],[65.6,21853],[66.1,21935],[66.1,22018],[66.1,22102],[66.1,22185],[67.8,22268],[76.8,22354],[77.9,22435],[77.9,22518],[77.9,22602],[77.9,22686],[77.9,22770],[80,22853],[94.3,23687],[92.7,23770],[92.6,23853],[96,23937],[97.3,24021],[97.3,24105],[97.3,24188],[97.3,24271],[97.3,24352],[97.3,24437],[97.3,24521],[97.3,24604],[97.5,24687],[97.8,24770],[97.9,24854],[98,24939],[98,25022],[98,25105],[98.5,25188],[100,25272],[100,25354],[100,25437],[100,25521],[100,25606],[100,25687],[100,25772],[100,25855],[100,25939],[100,26022],[100,26105],[100,26189],[100,26271],[100,26354],[100,26440],[100,26521]]",1,0,1427.2533,1432.3388,99.30084229,3.8518,"[{""rating"":99.30084228515625,""responseTime"":3.851799999996956}]",space,4.5404,,1432.339,Definitely yes,100,1432.3466,,,[],,0,1,1,1,1,audio/Narrative7Situation1.wav,audio/Narrative8Situation1.wav,audio/Narrative5Situation1.wav,audio/Narrative6Situation1.wav,2,5,5,2,,,,,,,,,,,,,,,,,,,,,,,,,,,,,,,,,,,,,,,
,,,,,,62c65cd877b056c782d09fe1,2024-02-08_12h02.28.169,group3.1-3.2-social-tom,2023.2.2,MacIntel,59.95203837,65c5074098b851296ff0b7ed,65c516f60a297d4bde9b70eb,,,,,,,,,,,,,,,,,,,,,,,,,,,,,1432.3468,2,audio/Narrative6Situation2.wav,1435.3594,,1435.3595,1463.8653,"[[99.2,4753],[98.6,4835],[98.3,4920],[97.7,5003],[97.4,5087],[97.3,5170],[97.3,5254],[97.3,5337],[97.3,5419],[97.3,5502],[97.6,5588],[98,5671],[98.2,5755],[98.3,5838],[98.6,5923],[98.7,6005],[98.8,6087],[98.9,6170],[98.9,6254],[98.9,6336],[98.9,6420],[98.9,6503],[98.9,6586],[98.9,6672],[98.9,6754],[98.9,6838],[98.9,6922],[98.9,7004],[98.9,7088],[98.9,7172],[98.9,7254],[98.9,7337],[99.4,7421],[99.9,7505],[100,7589],[100,7671],[100,7755],[100,7839],[100,7921],[100,8004],[100,8089],[100,8171],[100,8256],[100,8339],[100,8422],[100,8506],[100,8589],[100,8672],[100,8756],[100,8838],[100,8921],[100,9006],[100,9090],[100,9174],[100,9257],[100,9339],[100,9423],[100,9507],[100,9589],[100,9674],[100,9756],[94.9,9842],[93.5,9924],[93.2,10007],[93.2,10088],[93.2,10174],[93.2,10256],[93.2,10340],[93.2,10424],[93.2,10506],[95.4,10592],[97.2,10673],[97.5,10756],[97.5,10841],[97.5,10925],[97.8,11009],[99.1,11091],[99.4,11174],[99.4,11258],[99.4,11340],[99.4,11424],[99.4,11507],[99.4,11590],[99.4,11676],[99.4,11757],[99.4,11841],[99.4,11925],[100,12008],[100,12091],[100,12175],[100,12259],[100,12344],[100,12426],[100,12509],[100,12593],[100,12675],[100,12759],[100,12843],[100,12925],[100,13008],[100,13093],[100,13177],[100,13261],[100,13343],[100,13427],[100,13510],[100,13592],[100,13675],[100,13761],[100,13843],[100,13928],[100,14010],[100,14092],[100,14178],[100,14260],[100,14343],[100,14427],[100,14511],[100,14593],[100,14678],[100,14761],[100,14846],[100,14926],[100,15011],[100,15093],[100,15178],[100,15260],[100,15346],[100,15427],[100,15510],[100,15594],[100,15679],[100,15762],[100,15845],[100,15928],[100,16012],[100,16095],[100,16177],[100,16262],[100,16344],[100,16427],[100,16511],[100,16595],[100,16680],[100,16763],[100,16846],[100,16929],[100,17012],[100,17096],[100,17180],[100,17262],[99.6,17345],[99.2,17429],[99.2,17513],[99.2,17597],[99,17679],[98.9,17762],[99.5,17847],[100,17929],[100,18012],[100,18097],[100,18181],[100,18265],[100,18348],[100,18430],[100,18518],[100,18608],[100,18689],[100,18768],[100,18849],[100,18931],[100,19014],[100,19096],[99.8,19181],[99.5,19267],[99.5,19347],[99.4,19431],[99.4,19514],[99.4,19598],[99.4,19681],[99.6,19766],[100,19847],[100,19932],[100,20014],[100,20099],[100,20182],[100,20264],[100,20348],[100,20431],[100,20514],[100,20599],[100,20681],[100,20766],[100,20849],[100,20933],[100,21016],[100,21099],[100,21181],[100,21266],[100,21350],[100,21434],[100,21517],[100,21599],[100,21683],[100,21765],[100,21850],[100,21933],[100,22016],[100,22102],[100,22184],[100,22265],[100,22351],[100,22434],[100,22517],[100,22601],[100,22683],[100,22768],[100,22850],[100,22933],[100,23016],[100,23101],[100,23185],[100,23268],[100,23351],[100,23434],[100,23518],[100,23600],[100,23683],[100,23769],[100,23850],[100,23936],[100,24018],[100,24102],[100,24185],[100,24268],[100,24352],[100,24436],[100,24517],[100,24601],[100,24685],[100,24768],[100,24853],[100,24935],[100,25019],[100,25102],[100,25186],[100,25268],[100,25352],[100,25434],[100,25518],[100,25602],[100,25687],[100,25768],[100,25853],[100,25936],[100,26020],[100,26103],[100,26185],[100,26269],[100,26353],[100,26435],[100,26521],[100,26602],[100,26687],[100,26769],[100,26853],[100,26937],[100,27020],[100,27103],[100,27187],[100,27269],[100,27355],[100,27438],[100,27521],[100,27605],[100,27688],[100,27770],[100,27854],[100,27937],[100,28020],[100,28105],[100,28189],[100,28270],[100,28355],[100,28438]]",1,0,1463.8655,1467.6847,99.20593262,3.0014,"[{""rating"":98.9263916015625,""responseTime"":2.300199999988081},{""rating"":99.2059326171875,""responseTime"":3.0013999999910084}]",space,3.27,,1467.6848,Partially,50,1467.6929,,,[],,0,2,2,2,1,audio/Narrative7Situation2.wav,audio/Narrative8Situation2.wav,audio/Narrative5Situation2.wav,audio/Narrative6Situation2.wav,3,3,3,3,,,,,,,,,,,,,,,,,,,,,,,,,,,,,,,,,,,,,,,
,,,,,,62c65cd877b056c782d09fe1,2024-02-08_12h02.28.169,group3.1-3.2-social-tom,2023.2.2,MacIntel,59.95203837,65c5074098b851296ff0b7ed,65c516f60a297d4bde9b70eb,,,,,,,,,,,,,,,,,,,,,,,,,,,,,1467.6932,2,audio/Narrative6Situation3.wav,1472.7032,,1472.7033,1485.3146,"[[99.3,417],[99.3,501],[99.3,585],[99.3,667],[99.3,752],[99.3,834],[99.3,920],[99.3,1002],[99.3,1084],[99.3,1169],[99.3,1251],[99.3,1337],[99.3,1419],[99.3,1503],[99.3,1586],[99.3,1669],[99.3,1752],[99.3,1834],[99.3,1919],[99.3,2002],[99.3,2086],[99.3,2169],[99.3,2254],[99.3,2336],[99.3,2420],[99.2,2505],[98,2587],[96.7,2670],[96.2,2754],[96.2,2836],[96.2,2922],[96.2,3004],[96.2,3087],[96.3,3171],[96.3,3254],[96.4,3337],[96.4,3421],[96.4,3504],[96.4,3586],[96.4,3671],[96.4,3752],[96.4,3839],[96.4,3922],[96.4,4004],[96.4,4086],[96.4,4171],[95.3,4254],[73,4338],[67.8,4420],[67.8,4506],[67.4,4589],[53.7,4671],[49,4756],[49,4839],[48.5,4921],[41.6,5006],[41.6,5088],[41.6,5171],[41.6,5255],[41.5,5338],[28.5,5421],[23.6,5506],[23.6,5589],[23.6,5673],[23.6,5756],[23.6,5840],[23.6,5923],[23.6,6005],[23.6,6088],[22.9,6174],[17.5,6256],[13.9,6341],[13.4,6423],[13.4,6507],[13.4,6590],[13.4,6673],[14.4,6756],[41.9,6840],[54,6923],[54,7006],[54,7091],[75,7173],[84.8,7258],[84.8,7341],[84.8,7424],[84.8,7508],[91.8,7591],[96.1,7673],[96.1,7757],[96.1,7841],[96.1,7923],[96.1,8008],[96.1,8090],[96.1,8175],[96.1,8257],[96.1,8341],[96.1,8425],[96.1,8507],[96.1,8591],[96.1,8675],[96.2,8757],[96.2,8843],[96.4,8926],[96.9,9009],[97.1,9092],[97.2,9179],[97.7,9263],[97.8,9344],[97.8,9425],[97.8,9507],[97.8,9592],[97.8,9676],[97.8,9760],[97.8,9843],[97.8,9925],[97.8,10009],[97.8,10092],[97.8,10175],[97.8,10259],[97.8,10342],[97.8,10425],[97.8,10509],[97.8,10593],[97.8,10675],[97.8,10760],[97.8,10843],[97.8,10927],[97.8,11009],[96.7,11093],[80.1,11177],[72.8,11259],[72.8,11345],[72.8,11427],[72.8,11510],[62.2,11595],[54.2,11678],[53.9,11761],[53.9,11844],[51.7,11927],[45.3,12010],[44.6,12092],[44.6,12176],[44.6,12262],[44.6,12344],[44.6,12427],[44.6,12511],[44.6,12594]]",1,0,1485.3148,1490.6038,28.62915039,4.4371,"[{""rating"":28.629150390625004,""responseTime"":4.437099999993961}]",space,4.7385,,1490.6039,Partially,50,1490.6078,,,[],,0,3,3,3,1,audio/Narrative7Situation3.wav,audio/Narrative8Situation3.wav,audio/Narrative5Situation3.wav,audio/Narrative6Situation3.wav,8,4,3,5,,,,,,,,,,,,,,,,,,,,,,,,,,,,,,,,,,,,,,,
,,,,,,62c65cd877b056c782d09fe1,2024-02-08_12h02.28.169,group3.1-3.2-social-tom,2023.2.2,MacIntel,59.95203837,65c5074098b851296ff0b7ed,65c516f60a297d4bde9b70eb,,,,,,,,,,,,,,,,,,,,,,,,,,,,,1490.608,2,audio/Narrative6Situation4.wav,1492.6195,,1492.6195,1505.2483,"[[35.3,3587],[40.9,3671],[40.9,3754],[40.9,3836],[64.8,3922],[73.7,4003],[73.7,4086],[76.7,4172],[89.7,4253],[93.7,4336],[93.7,4421],[93.7,4504],[93.7,4588],[93.7,4671],[93.7,4755],[93.7,4838],[93.7,4920],[93.7,5003],[93.7,5087],[93.7,5170],[93.7,5256],[93.7,5338],[94.8,5421],[95.7,5506],[96.4,5588],[96.4,5671],[96.4,5755],[96.4,5837],[96.4,5923],[96.4,6006],[96.4,6087],[96.4,6171],[96.4,6255],[96.4,6339],[96.4,6421],[96.4,6506],[96.4,6588],[96.4,6673],[96.4,6755],[96.3,6841],[96.2,6924],[96.2,7006],[97.3,7091],[97.9,7174],[97.9,7255],[97.9,7341],[97.9,7423],[97.9,7505],[97.9,7590],[97.9,7672],[97.9,7758],[97.9,7841],[97.9,7924],[97.9,8006],[97.9,8090],[97.9,8173],[97.9,8258],[97.9,8340],[98,8423],[98,8507],[98,8589],[97.7,8673],[97.6,8758],[97.5,8840],[97.5,8924],[97.5,9008],[97.5,9090],[97.5,9174],[97.5,9257],[97.5,9343],[97.5,9425],[97.7,9508],[97.8,9592],[97.8,9675],[97.8,9758],[97.8,9843],[97.8,9924],[97.8,10008],[97.8,10093],[97.8,10174],[97.8,10259],[97.8,10342],[97.8,10426],[97.8,10509],[97.8,10592],[97.7,10675],[96.2,10759],[94,10842],[93,10925],[93,11009],[92.4,11092],[57.6,11178],[42.4,12177],[48.4,12259],[50.3,12344],[50.4,12427],[50.4,12510],[50.4,12594]]",1,0,1505.2484,1508.4666,53.27972412,1.616,"[{""rating"":53.27972412109375,""responseTime"":1.6159999999999854}]",space,2.6695,,1508.4667,Definitely yes,100,1508.4744,,,[],,0,4,4,4,1,audio/Narrative7Situation4.wav,audio/Narrative8Situation4.wav,audio/Narrative5Situation4.wav,audio/Narrative6Situation4.wav,3,3,1,2,,,,,,,,,,,,,,,,,,,,,,,,,,,,,,,,,,,,,,,
,,,,,,62c65cd877b056c782d09fe1,2024-02-08_12h02.28.169,group3.1-3.2-social-tom,2023.2.2,MacIntel,59.95203837,65c5074098b851296ff0b7ed,65c516f60a297d4bde9b70eb,,,,,,,,,,,,,,,,,,,,,,,,,,,,,1508.4747,2,audio/Narrative6Situation5.wav,1510.4854,,1510.4856,1518.476,"[[60.4,2835],[67.2,2918],[67.4,3001],[67.5,3085],[80.3,3168],[87,3251],[87,3334],[87,3417],[89.7,3502],[97.2,3586],[98.6,3666],[98.6,3751],[98.6,3833],[98.6,3917],[98.6,4001],[98.6,4086],[98.6,4170],[98.6,4253],[98.6,4336],[98.6,4417],[98.6,4503],[98.6,4584],[98.6,4668],[98.6,4752],[98.6,4835],[98.6,4917],[98.6,5003],[98.6,5085],[98.7,5171],[98.8,5253],[98.8,5336],[99.2,5420],[99.4,5502],[99.5,5595],[99.5,5671],[99.5,5752],[99.7,5836],[99.7,5920],[99.9,6003],[100,6088],[100,6171],[100,6254],[100,6337],[100,6419],[100,6502],[100,6588],[100,6670],[100,6753],[100,6837],[100,6920],[99.8,7005],[99.5,7088],[99.4,7170],[99.3,7253],[99.2,7336],[99.2,7423],[99.2,7506],[99.2,7588],[99.2,7670],[99.2,7755],[99.2,7838],[99.2,7922]]",1,0,1518.4762,1526.3974,75.20843506,7.0196,"[{""rating"":84.09576416015625,""responseTime"":2.965899999991052},{""rating"":68.9056396484375,""responseTime"":6.218899999990981},{""rating"":75.20843505859375,""responseTime"":7.019599999993943}]",space,7.374,,1526.3974,Not at all,0,1526.4043,,,[],,0,5,5,5,1,audio/Narrative7Situation5.wav,audio/Narrative8Situation5.wav,audio/Narrative5Situation5.wav,audio/Narrative6Situation5.wav,5,2,5,2,,,,,,,,,,,,,,,,,,,,,,,,,,,,,,,,,,,,,,,
,,,,,,62c65cd877b056c782d09fe1,2024-02-08_12h02.28.169,group3.1-3.2-social-tom,2023.2.2,MacIntel,59.95203837,65c5074098b851296ff0b7ed,65c516f60a297d4bde9b70eb,,,,,,,,,,,,,,,,,,,,,,,,,,,,,1526.4046,2,audio/Narrative6Situation6.wav,1528.416,,1528.416,1539.5062,"[[75.1,2584],[94.3,2668],[94.3,2752],[94.3,2834],[94.3,2916],[94.3,3002],[94.3,3083],[94.3,3169],[94.3,3252],[94.3,3335],[94.3,3420],[94.3,3501],[94.3,3585],[97.9,3669],[97.9,3751],[97.9,3837],[97.9,3919],[97.9,4002],[97.9,4086],[97.9,4169],[97.9,4251],[97.9,4336],[97.9,4418],[97.9,4501],[98.6,4587],[100,4670],[100,4751],[100,4836],[100,4920],[100,5003],[100,5086],[100,5168],[100,5253],[100,5336],[100,5421],[100,5504],[100,5587],[100,5671],[100,5754],[100,5837],[100,5921],[100,6003],[100,6086],[100,6170],[100,6253],[100,6336],[100,6421],[100,6504],[100,6590],[100,6674],[100,6753],[100,6838],[100,6920],[100,7004],[100,7087],[100,7171],[100,7253],[100,7338],[100,7421],[100,7505],[100,7588],[100,7670],[100,7755],[100,7837],[100,7923],[100,8005],[100,8089],[100,8173],[100,8256],[100,8339],[100,8422],[100,8504],[100,8588],[100,8671],[100,8755],[100,8838],[100,8923],[100,9006],[100,9090],[100,9173],[100,9255],[100,9340],[100,9422],[100,9505],[100,9591],[100,9673],[100,9757],[100,9840],[100,9923],[100,10007],[100,10090],[100,10173],[100,10257],[100,10339],[100,10425],[100,10507],[100,10591],[100,10675],[100,10757],[100,10841],[100,10924],[100,11007],[100,11089]]",1,0,1539.5064,1546.3796,99.86083984,4.7037,"[{""rating"":99.86083984375,""responseTime"":4.703700000002982}]",space,6.3264,,1546.3797,Not at all,0,1546.3843,,,[],,0,6,6,6,1,audio/Narrative7Situation6.wav,audio/Narrative8Situation6.wav,audio/Narrative5Situation6.wav,audio/Narrative6Situation6.wav,3,2,3,2,,,,,,,,,,,,,,,,,,,,,,,,,,,,,,,,,,,,,,,
,,,,,,62c65cd877b056c782d09fe1,2024-02-08_12h02.28.169,group3.1-3.2-social-tom,2023.2.2,MacIntel,59.95203837,65c5074098b851296ff0b7ed,65c516f60a297d4bde9b70eb,,,,,,,,,,,,,,,,,,,,,,,,,,,,,1546.3847,2,audio/Narrative6Situation7.wav,1551.3987,,1551.3987,1576.2694,"[[999,0],[999,83],[999,167],[999,250],[999,335],[999,418],[999,501],[999,585],[999,669],[999,750],[999,833],[999,917],[999,1003],[999,1086],[999,1169],[999,1252],[999,1333],[999,1418],[999,1502],[999,1585],[999,1668],[999,1752],[999,1834],[999,1920],[999,2002],[999,2086],[999,2170],[999,2253],[999,2336],[999,2420],[999,2502],[999,2585],[999,2668],[999,2752],[999,2837],[999,2920],[999,3003],[999,3087],[999,3169],[999,3254],[999,3336],[999,3419],[999,3505],[999,3585],[999,3670],[999,3754],[999,3837],[999,3921],[999,4003],[999,4088],[999,4170],[999,4254],[999,4335],[999,4422],[999,4503],[999,4586],[999,4672],[999,4755],[999,4837],[999,4919],[999,5006],[999,5090],[999,5173],[999,5256],[999,5339],[999,5421],[999,5505],[999,5590],[999,5670],[999,5755],[999,5839],[999,5921],[999,6007],[999,6090],[999,6173],[999,6256],[999,6339],[999,6421],[999,6506],[999,6589],[999,6672],[999,6756],[999,6840],[999,6924],[999,7007],[999,7090],[999,7174],[999,7255],[999,7339],[999,7423],[999,7506],[999,7591],[999,7674],[999,7755],[999,7841],[999,7924],[999,8009],[999,8091],[999,8174],[999,8258],[999,8341],[999,8424],[68.2,8509],[69.2,8592],[72.3,8675],[75.9,8759],[76.1,8841],[76.1,8925],[76.1,9008],[80.6,9091],[88.3,9173],[88.3,9257],[88.3,9342],[88.3,9426],[88.3,9508],[88.3,9592],[88.3,9676],[88.3,9759],[88.3,9843],[88.3,9926],[88.3,10009],[88.3,10091],[90.7,10177],[91.5,10259],[91.5,10343],[91.5,10426],[91.5,10509],[91.5,10593],[91.5,10675],[91.5,10758],[91.5,10843],[91.5,10926],[91.5,11009],[91.5,11094],[92.7,11175],[93.4,11260],[93.4,11343],[93.4,11427],[93.4,11511],[93.4,11593],[93.4,11678],[93.4,11760],[93.4,11844],[93.4,11925],[93.4,12011],[93.4,12093],[93.4,12178],[93.4,12259],[93.4,12345],[93.4,12428],[93.4,12510],[93.4,12593],[93.4,12678],[93.4,12761],[93.4,12845],[93.4,12926],[93.4,13012],[93.4,13095],[93.4,13177],[94.3,13262],[96,13344],[96,13427],[96,13513],[96,13595],[96,13678],[96,13762],[96,13845],[96,13929],[96,14011],[96,14094],[96,14178],[96,14261],[96,14344],[96,14430],[94.3,14512],[88.7,14596],[88.7,14679],[88.7,14762],[88.7,14846],[88.7,14930],[88.7,15013],[88.7,15097],[88.7,15180],[88.7,15263],[88.7,15347],[88.7,15429],[88.7,15513],[88.7,15597],[88.7,15680],[88.7,15762],[88.7,15847],[88.7,15931],[88.7,16015],[88.7,16097],[88.7,16180],[88.7,16264],[88.7,16347],[88.7,16429],[88.7,16514],[88.7,16597],[88.7,16680],[88.7,16764],[88.7,16848],[88.7,16930],[88.7,17015],[88.7,17097],[88.7,17183],[88.7,17264],[88.7,17347],[88.7,17432],[88.7,17515],[88.7,17599],[88.7,17682],[88.7,17765],[88.7,17849],[88.7,17932],[88.7,18014],[88.7,18099],[88.7,18181],[88.7,18267],[88.7,18348],[88.7,18431],[88.7,18516],[88.7,18599],[88.7,18681],[88.7,18766],[88.7,18849],[88.7,18931],[88.7,19016],[88.7,19098],[88.7,19181],[88.7,19265],[88.7,19350],[88.7,19434],[88.7,19516],[88.7,19599],[88.7,19683],[88.7,19766],[88.7,19848],[88.7,19933],[88.7,20015],[88.7,20098],[88.7,20184],[88.7,20267],[88.7,20349],[88.7,20433],[88.7,20516],[88.7,20601],[88.7,20683],[88.7,20766],[88.7,20851],[88.7,20932],[88.7,21019],[88.7,21101],[88.7,21183],[88.7,21268],[88.7,21350],[88.7,21435],[88.7,21518],[88.7,21600],[88.4,21684],[86.3,21769],[86.3,21852],[86.3,21934],[86.3,22019],[86.3,22101],[86.3,22185],[86.3,22268],[86.3,22350],[86.3,22435],[86.3,22518],[86.3,22601],[86.3,22686],[86.3,22767],[86.3,22853],[86.3,22936],[86.3,23018],[86.3,23102],[86.3,23185],[86.3,23269],[86.3,23352],[86.3,23437],[86.3,23518],[86.3,23603],[86.3,23686],[86.3,23770],[86.3,23853],[86.3,23935],[86.3,24020],[86.3,24102],[86.3,24185],[85.8,24271],[84.6,24353],[84.3,24436],[84.2,24519],[84.2,24604],[84.2,24687],[84.2,24770],[84.2,24852]]",1,0,1576.2696,1579.6055,84.09881592,2.8015,"[{""rating"":84.09881591796875,""responseTime"":2.8014999999998054}]",space,2.7968,,1579.6055,Definitely yes,100,1579.6127,,,[],,0,7,7,7,1,audio/Narrative7Situation7.wav,audio/Narrative8Situation7.wav,audio/Narrative5Situation7.wav,audio/Narrative6Situation7.wav,5,3,4,5,,,,,,,,,,,,,,,,,,,,,,,,,,,,,,,,,,,,,,,
,,,,,,62c65cd877b056c782d09fe1,2024-02-08_12h02.28.169,group3.1-3.2-social-tom,2023.2.2,MacIntel,59.95203837,65c5074098b851296ff0b7ed,65c516f60a297d4bde9b70eb,,,,,,,,,,,,,,,,,,,,,,,,,,,,,1579.6129,2,audio/Narrative6Situation8.wav,1584.6264,,1584.6266,1591.4653,"[[84.1,3502],[73.7,3585],[64.8,3669],[64.8,3751],[64.8,3836],[60.6,3919],[46.2,4002],[46.2,4086],[46.2,4168],[46.2,4251],[45.4,4337],[36.3,4420],[34.2,4502],[34.2,4585],[34.2,4668],[34.2,4753],[31.9,4836],[25.1,4919],[25.1,5004],[25.1,5088],[25.1,5171],[24.8,5254],[16.1,5336],[16.1,5420],[16.1,5503],[16.1,5587],[16.1,5671],[13.4,5753],[10.5,5837],[10.5,5920],[10.5,6004],[10.5,6088],[10.5,6171],[10.5,6253],[6.8,6338],[3.9,6420],[3.9,6504],[3.9,6589],[3.9,6670],[3.9,6753],[0.9,6838]]",1,0,1591.4655,1594.7342,0.433959961,1.7337,"[{""rating"":0.4339599609375022,""responseTime"":1.7337000000029548}]",space,2.7195,,1594.7342,Definitely yes,100,1594.7417,,,[],,0,8,8,8,1,audio/Narrative7Situation8.wav,audio/Narrative8Situation8.wav,audio/Narrative5Situation8.wav,audio/Narrative6Situation8.wav,2,3,3,5,,,,,,,,,,,,,,,,,,,,,,,,,,,,,,,,,,,,,,,
,,,,,,62c65cd877b056c782d09fe1,2024-02-08_12h02.28.169,group3.1-3.2-social-tom,2023.2.2,MacIntel,59.95203837,65c5074098b851296ff0b7ed,65c516f60a297d4bde9b70eb,,,,,,,,,,,,,,,,,,,,,,,,,,,,,1594.7421,2,audio/Narrative6Situation9.wav,1598.7522,,1598.7523,1608.7122,"[[0.6,3504],[0.8,3587],[0.9,3671],[1.1,3754],[1.1,3837],[1.1,3920],[0.6,4003],[0.2,8037],[0.3,8120],[1,8203],[1.3,8287],[1.3,8371],[0.9,8454]]",1,0,1608.7124,1612.6957,0,2.8171,"[{""rating"":0.6564331054687511,""responseTime"":1.8330000000000837},{""rating"":0,""responseTime"":2.8170999999940705}]",space,3.4326,,1612.6958,Not at all,0,1612.7039,,,[],,0,9,9,9,1,audio/Narrative7Situation9.wav,audio/Narrative8Situation9.wav,audio/Narrative5Situation9.wav,audio/Narrative6Situation9.wav,2,3,3,4,,,,,,,,,,,,,,,,,,,,,,,,,,,,,,,,,,,,,,,
,,,,,,62c65cd877b056c782d09fe1,2024-02-08_12h02.28.169,group3.1-3.2-social-tom,2023.2.2,MacIntel,59.95203837,65c5074098b851296ff0b7ed,65c516f60a297d4bde9b70eb,,,,,,,,,,,,,,,,,,,,,,,,,,,,,1612.7043,2,audio/Narrative5Situation1.wav,1617.7199,,1617.7199,1631.0136,"[[0.6,6754],[2.3,6838],[3.8,6921],[4.1,7004],[4.1,7087],[4.1,7170],[4.1,7253],[4.1,7337],[4.1,7420],[4,7506],[3.7,7588],[3.6,7671],[3.8,7755],[4.5,7838],[4.5,7921],[4.5,8006],[4.5,8087],[4.6,8171],[5.5,8256],[5.7,8337],[8.6,8422],[18.3,8505],[22.4,8588],[22.4,8672],[22.4,8755],[22.4,8837],[22.4,8922],[22.6,9004],[24.2,9089],[27.6,9173],[29.8,9256],[29.8,9340],[29.8,9423],[44.8,10090],[44.7,10173],[44.7,10257],[44.7,10339],[46.5,10423],[50.1,10507],[50.1,10590],[50.1,10675],[50.1,10757],[50.1,10839],[50.1,10924],[50.1,11007],[50.1,11090],[50.1,11174],[50.1,11257],[50.1,11341],[50.1,11423],[50.1,11506],[50.1,11591],[50.1,11674],[50.1,11758],[50.1,11842],[50.1,11925],[50.2,12008],[50.3,12091],[50.3,12176],[50.3,12257],[50.3,12341],[50.3,12424],[50.3,12509],[50.3,12592],[50.3,12676],[50.3,12759],[56.3,12843],[59.7,12925],[60,13008],[60,13091],[60,13175],[72.9,13260]]",1,0,1631.0137,1634.7833,67.86560059,1.8487,"[{""rating"":67.8656005859375,""responseTime"":1.8487000000029639}]",space,3.2202,,1634.7833,Not at all,0,1634.7876,,,[],,0,10,10,10,1,audio/Narrative8Situation1.wav,audio/Narrative7Situation1.wav,audio/Narrative6Situation1.wav,audio/Narrative5Situation1.wav,5,2,2,5,,,,,,,,,,,,,,,,,,,,,,,,,,,,,,,,,,,,,,,
,,,,,,62c65cd877b056c782d09fe1,2024-02-08_12h02.28.169,group3.1-3.2-social-tom,2023.2.2,MacIntel,59.95203837,65c5074098b851296ff0b7ed,65c516f60a297d4bde9b70eb,,,,,,,,,,,,,,,,,,,,,,,,,,,,,1634.7879,2,audio/Narrative5Situation2.wav,1637.7994,,1637.7995,1667.257,"[[54.4,3504],[52,3587],[51.8,3671],[56.6,3755],[63,3838],[65,3921],[65,4005],[65,4087],[65,4172],[65,4254],[65,4339],[65,4420],[65,4505],[65,4589],[65,4672],[65,4755],[65,4838],[65,4922],[65,5004],[65,5088],[65,5172],[65,5254],[56.5,5340],[50.7,5423],[49.9,5506],[49.6,5590],[49.5,5673],[49.4,5756],[49.4,5839],[50.4,5922],[53.2,6005],[54,6091],[54.3,6172],[57.7,6258],[60.8,6339],[61.8,6423],[61.9,6507],[61.9,6590],[61.9,6672],[61.9,6757],[61.9,6839],[62.1,6923],[68.2,7008],[73.3,7090],[74.6,7172],[74.6,7257],[74.6,7340],[77,7424],[79.7,7507],[80.4,7589],[80.4,7674],[80.4,7757],[80.4,7840],[80.2,7925],[80.4,8007],[80.7,8092],[80.8,8175],[80.8,8256],[80.8,8340],[80.8,8427],[80.8,8508],[80.8,8591],[80.8,8673],[80.8,8759],[80.8,8842],[80.8,8925],[80.8,9008],[81.6,9092],[79.3,9174],[65.3,9259],[63.1,9341],[61.8,9424],[59.2,9509],[58.9,9593],[58.9,9676],[58.9,9759],[58.5,9842],[58.5,9927],[59.2,10009],[63.7,10091],[64.3,10175],[64.3,10260],[64.3,10344],[64.3,10426],[64.4,10508],[71.3,10594],[73.6,10676],[73.6,10760],[73.6,10843],[73.6,10925],[73.7,11009],[74,11094],[74,11175],[74,11261],[74,11343],[74,11426],[74,11511],[74.1,11594],[74.2,11676],[74.3,11760],[74.6,11843],[74.6,11929],[74.6,12011],[74.6,12095],[74.6,12178],[74.6,12261],[74.6,12343],[74.6,12428],[74.6,12511],[74.6,12593],[74.6,12678],[74.6,12760],[74.6,12846],[74.6,12928],[74.7,13011],[74.7,13093],[74.7,13177],[74.7,13261],[74.7,13345],[74.7,13428],[74.7,13510],[74.7,13596],[74.7,13679],[74.7,13763],[74.7,13846],[74.8,13929],[74.9,14012],[74.9,14096],[74.9,14178],[74.9,14263],[74.9,14345],[74.9,14431],[74.9,14512],[74.9,14595],[74.9,14678],[74.9,14763],[74.9,14846],[75.1,14930],[75.1,15012],[75.1,15095],[75.3,15181],[75.6,15263],[75.7,15348],[75.7,15430],[75.8,15514],[75.9,15597],[75.9,15680],[75.9,15763],[75.9,15847],[75.9,15929],[75.9,16013],[75.9,16096],[75.9,16180],[75.9,16265],[75.9,16347],[75.9,16430],[76,16515],[76.1,16597],[76.1,16680],[76.1,16765],[76.1,16846],[76.1,16932],[76.1,17015],[76.1,17098],[76.1,17182],[76.3,17264],[76.4,17348],[76.4,17432],[76.4,17515],[76.4,17598],[76.5,17682],[76.6,17766],[76.6,17848],[76.6,17932],[76.6,18015],[73.4,18099],[69.3,18181],[68.1,18265],[68.1,18349],[68.1,18432],[68.1,18515],[67.2,18599],[50.4,18683],[44.9,18766],[44.9,18850],[44.9,18933],[44.9,19016],[44.9,19099],[46.8,19182],[45.7,19267],[26.3,21102],[26.4,21185],[25.3,21269],[24.8,21350],[24.8,21434],[24.8,21518],[24.8,21601],[24.8,21684],[24.8,21769],[24.8,21850],[24.8,21936],[25,22019],[25.5,22102],[25.6,22186],[25.7,22268],[25.8,22352],[26.3,22436],[26.9,22519],[27,22601],[27.2,22686],[28.1,22770],[28.6,22854],[28.7,22936],[28.7,23018],[28.7,23103],[28.7,23185],[28.6,23269],[18.6,23353],[28.3,23854],[36.9,23936],[37.2,24020],[37.2,24103],[39.7,24187],[45.7,24270],[46.7,24353],[46.7,24436],[46.7,24521],[46.7,24604],[46.7,24688],[46.7,24771],[46.7,24854],[46.7,24938],[46.8,25020],[46.9,25103],[46.9,25187],[46.9,25272],[46.9,25353],[47,25438],[47,25520],[47,25605],[47,25688],[47,25770],[47.1,25855],[47.1,25938],[47.1,26023],[47.1,26104],[47.1,26187],[47.1,26270],[47.1,26355],[47.1,26438],[47.1,26522],[47.1,26605],[47.1,26700],[47.1,26788],[47.1,26872],[47.1,26955],[47.1,27039],[47.1,27123],[47.1,27204],[47.1,27288],[47,27372],[46.8,27457],[46.7,27540],[46.5,27623],[46.5,27706],[46.5,27789],[46.5,27873],[46.5,27956],[46.5,28040],[46.7,28123],[46.8,28207],[47,28290],[47,28374],[47,28456],[47,28539],[47,28624],[47,28706],[47,28790],[47,28874],[47,28958],[47.1,29042],[47.2,29123],[47.2,29207],[47.2,29291],[47.2,29373],[47.2,29457]]",1,0,1667.2573,1671.0935,54.05273438,1.9507,"[{""rating"":54.052734375,""responseTime"":1.950700000003053}]",space,3.3034,,1671.0936,Not at all,0,1671.0988,,,[],,0,11,11,11,1,audio/Narrative8Situation2.wav,audio/Narrative7Situation2.wav,audio/Narrative6Situation2.wav,audio/Narrative5Situation2.wav,3,3,3,3,,,,,,,,,,,,,,,,,,,,,,,,,,,,,,,,,,,,,,,
,,,,,,62c65cd877b056c782d09fe1,2024-02-08_12h02.28.169,group3.1-3.2-social-tom,2023.2.2,MacIntel,59.95203837,65c5074098b851296ff0b7ed,65c516f60a297d4bde9b70eb,,,,,,,,,,,,,,,,,,,,,,,,,,,,,1671.0993,2,audio/Narrative5Situation3.wav,1674.1124,,1674.1125,1688.0078,"[[62.7,5088],[67.2,5171],[67.5,5253],[67.5,5337],[67.5,5420],[67.5,5503],[67.5,5588],[67.5,5671],[67.5,5755],[67.5,5838],[67.5,5920],[67.5,6005],[71.4,6088],[81,6172],[81.2,6256],[81.2,6339],[81.2,6423],[81.2,6505],[81.2,6588],[81.2,6672],[82.7,6756],[90,6838],[91.5,6923],[91.5,7004],[91.5,7088],[91.5,7173],[91.5,7256],[91.5,7340],[91.5,7422],[91.5,7506],[91.5,7589],[91.5,7672],[91.5,7756],[91.5,7840],[91.5,7921],[91.5,8005],[91.5,8090],[91.5,8174],[91.5,8257],[91.5,8339],[91.5,8422],[91.5,8507],[91.5,8589],[91.5,8673],[91.5,8757],[91.5,8841],[91.5,8925],[91.5,9008],[91.5,9090],[91.5,9174],[91.5,9257],[91.5,9340],[91.5,9424],[91.5,9507],[91.5,9590],[91.5,9675],[91.5,9757],[91.5,9840],[91.5,9925],[91.5,10007],[91.5,10091],[91.5,10175],[91.5,10257],[91.5,10341],[91.5,10425],[91.5,10507],[91.5,10592],[91.5,10675],[91.5,10758],[91.5,10842],[91.5,10925],[91.5,11007],[91.5,11091],[92.1,11175],[92.9,11260],[93.6,11342],[94,11424],[94,11509],[94,11593],[94,11676],[94,11759],[94,11841],[94,11927],[94,12008],[94,12092],[93.9,12177],[93.9,12260],[93.9,12342],[93.9,12426],[93.9,12509],[93.9,12593],[93.9,12676],[93.9,12759],[93.9,12844],[93.9,12927],[93.9,13011],[93.9,13094],[93.9,13177],[93.9,13261],[93.9,13343],[93.9,13426],[93.9,13510],[93.9,13593],[93.9,13676],[93.9,13761],[93.9,13845]]",1,0,1688.0079,1693.2772,91.01257324,4.7021,"[{""rating"":91.0125732421875,""responseTime"":4.702099999993834}]",space,4.7218,,1693.2773,Partially,50,1693.2857,,,[],,0,12,12,12,1,audio/Narrative8Situation3.wav,audio/Narrative7Situation3.wav,audio/Narrative6Situation3.wav,audio/Narrative5Situation3.wav,4,8,5,3,,,,,,,,,,,,,,,,,,,,,,,,,,,,,,,,,,,,,,,
,,,,,,62c65cd877b056c782d09fe1,2024-02-08_12h02.28.169,group3.1-3.2-social-tom,2023.2.2,MacIntel,59.95203837,65c5074098b851296ff0b7ed,65c516f60a297d4bde9b70eb,,,,,,,,,,,,,,,,,,,,,,,,,,,,,1693.2861,2,audio/Narrative5Situation4.wav,1694.2941,,1694.2941,1714.6784,"[[85.4,5839],[63.8,5922],[60.8,6007],[60.8,6088],[60.8,6171],[60.5,6257],[54.2,6339],[52.3,6422],[52.3,6506],[52.3,6589],[52.3,6674],[52.3,6756],[52.3,6840],[52.3,6924],[51.1,7007],[48,7091],[47.8,7174],[47.8,7256],[47.8,7339],[47.8,7424],[47.8,7506],[47.8,7590],[47.8,7674],[47.8,7758],[47.8,7841],[47.8,7924],[47.8,8007],[45.4,8091],[43.7,8174],[43.5,8257],[43.5,8341],[43.5,8423],[43.5,8509],[43.5,8591],[43.5,8673],[43.5,8757],[43.5,8841],[43.5,8925],[43.5,9008],[43.2,9091],[41.2,9174],[40.9,9258],[40.9,9341],[40.9,9425],[40.9,9509],[40.9,9592],[40.9,9675],[41,9759],[53.7,9842],[59.4,9925],[59.4,10009],[62.8,10091],[70.9,10177],[72.4,10258],[72.4,10343],[72.4,10426],[72.4,10508],[72.4,10593],[72.4,10676],[72.4,10759],[72.4,10843],[76,10926],[79,11009],[79,11094],[79,11177],[81.5,11261],[83.5,11342],[83.5,11426],[83.5,11510],[83.5,11593],[83.5,11676],[83.5,11760],[83.5,11842],[83.5,11927],[83.5,12011],[83.5,12095],[83.5,12176],[83.5,12260],[83.9,12344],[86.3,12428],[86.3,12510],[86.3,12593],[86.3,12677],[86.3,12759],[86.3,12846],[86.3,12928],[86.3,13010],[86.3,13095],[86.3,13178],[86.3,13260],[86.3,13345],[86.3,13428],[86.3,13513],[86.3,13595],[86.3,13678],[86.3,13763],[86.3,13845],[86.3,13928],[86.3,14012],[86.3,14095],[85.9,14178],[81.2,14264],[80.5,14344],[80.5,14428],[80.5,14512],[80.5,14596],[78,14680],[76.7,14763],[76.7,14845],[76.7,14929],[76.7,15013],[78.6,15096],[88.5,15180],[91.3,15262],[91.3,15347],[91.3,15430],[93.2,15514],[98.1,15597],[98.9,15680],[98.9,15763],[98.9,15848],[98.9,15930],[98.9,16013],[99.8,16098],[100,16180],[100,16265],[100,16347],[100,16430],[100,16514],[100,16597],[100,16679],[100,16764],[100,16846],[100,16932],[100,17015],[100,17097],[100,17182],[100,17264],[100,17347],[100,17431],[100,17514],[100,17597],[100,17682],[100,17765],[100,17849],[100,17932],[100,18014],[100,18099],[100,18181],[100,18264],[100,18348],[100,18431],[100,18515],[100,18599],[100,18681],[100,18766],[100,18849],[100,18931],[100,19016],[100,19098],[100,19182],[100,19265],[100,19350],[100,19432],[100,19517],[100,19599],[100,19684],[100,19766],[100,19849],[100,19933],[100,20016],[100,20098],[100,20184],[100,20266],[100,20352]]",1,0,1714.6785,1716.7461,97.4041748,1.3166,"[{""rating"":97.4041748046875,""responseTime"":1.3166000000089753}]",space,1.5333,,1716.7461,Definitely yes,100,1716.7539,,,[],,0,13,13,13,1,audio/Narrative8Situation4.wav,audio/Narrative7Situation4.wav,audio/Narrative6Situation4.wav,audio/Narrative5Situation4.wav,3,3,2,1,,,,,,,,,,,,,,,,,,,,,,,,,,,,,,,,,,,,,,,
,,,,,,62c65cd877b056c782d09fe1,2024-02-08_12h02.28.169,group3.1-3.2-social-tom,2023.2.2,MacIntel,59.95203837,65c5074098b851296ff0b7ed,65c516f60a297d4bde9b70eb,,,,,,,,,,,,,,,,,,,,,,,,,,,,,1716.7543,2,audio/Narrative5Situation5.wav,1721.7668,,1721.7668,1737.1976,"[[97.1,1834],[95.4,1919],[92,2001],[92,2085],[92,2167],[90.7,2251],[62.6,2335],[58.5,2417],[58.5,2503],[58.5,2586],[54.2,2668],[41.8,3670],[41.9,3753],[41.9,3835],[41.9,3919],[38.7,4003],[34.6,4085],[34.6,4169],[34.6,4254],[34.6,4337],[34.5,4420],[21.8,4504],[17.2,4585],[17.2,4670],[17.2,4753],[17.2,4837],[11.5,4920],[5.4,5004],[5.4,5088],[5.4,5170],[5.4,5255],[2.7,5337],[1.5,5420],[1.5,5504],[1.5,5587],[1.5,5670],[1.5,5755],[1.5,5839],[1.5,5921],[1.5,6005],[1.5,6088],[1.5,6172],[1.5,6254],[1.5,6338],[1.5,6422],[1.5,6504],[1.5,6587],[1.5,6672],[1.5,6756],[1.5,6839],[1.5,6922],[1.5,7005],[1.5,7090],[1.5,7172],[1.5,7254],[1.5,7340],[1.5,7422],[1.5,7507],[1.5,7589],[1.5,7673],[1.5,7757],[1.5,7840],[1.5,7922],[1.5,8006],[1.5,8090],[1.5,8172],[1.5,8256],[1.5,8341],[1.5,8422],[1.5,8507],[1.5,8590],[1.5,8674],[1.5,8757],[1.5,8839],[1.5,8923],[1.5,9006],[1.5,9089],[1.5,9173],[1.5,9257],[1.5,9341],[1.5,9424],[1.5,9507],[1.5,9591],[1.5,9674],[1.5,9757],[1.5,9841],[1.5,9926],[1.5,10006],[1.5,10092],[1.5,10175],[1.5,10259],[1.5,10341],[1.5,10425],[1.5,10508],[1.5,10591],[1.5,10674],[1.5,10758],[1.5,10843],[1.5,10925],[1.5,11009],[1.5,11091],[1.5,11176],[1.5,11258],[1.5,11341],[1.5,11424],[1.5,11510],[1.5,11591],[1.5,11676],[1.5,11760],[1.5,11843],[1.5,11926],[1.5,12009],[1.5,12093],[1.5,12175],[1.5,12258],[1.5,12343],[1.5,12425],[1.5,12511],[1.5,12593],[1.5,12675],[1.5,12760],[1.5,12844],[1.5,12926],[1.5,13010],[1.5,13092],[1.5,13176],[1.5,13260],[1.5,13343],[1.5,13428],[1.5,13510],[1.5,13594],[1.5,13676],[1.9,13761],[2.2,13843],[1,13928]]",1,0,1737.1978,1740.7992,1.012878418,3.6007,"[{""rating"":1.012878417968749,""responseTime"":3.6007000000029166}]",space,0.2179,,1740.7993,Not at all,0,1740.806,,,[],,0,14,14,14,1,audio/Narrative8Situation5.wav,audio/Narrative7Situation5.wav,audio/Narrative6Situation5.wav,audio/Narrative5Situation5.wav,2,5,2,5,,,,,,,,,,,,,,,,,,,,,,,,,,,,,,,,,,,,,,,
,,,,,,62c65cd877b056c782d09fe1,2024-02-08_12h02.28.169,group3.1-3.2-social-tom,2023.2.2,MacIntel,59.95203837,65c5074098b851296ff0b7ed,65c516f60a297d4bde9b70eb,,,,,,,,,,,,,,,,,,,,,,,,,,,,,1740.8063,2,audio/Narrative5Situation6.wav,1741.0828,space,1741.083,1746.7708,"[[1.2,1666],[1.3,1750],[1.3,1834],[1.3,1917],[1.3,2000],[1.4,2084],[12.5,2168],[29.2,2251],[31.3,2334],[31.3,2416],[31.3,2499],[31.3,2583],[31.3,2668],[30.6,2752],[29.9,2834],[29.9,2918],[29,3001],[22.7,3084],[21.5,3168],[21.5,3251],[21.5,3336],[33.2,3419],[52.2,3501],[54.8,3586],[54.8,3670],[70.1,3767],[83,3854],[83,3934],[83,4017],[83,4102],[82.6,4185],[81.8,4268],[81.8,4353],[81.8,4435],[81.8,4520],[81.8,4603],[81.8,4685],[81.8,4770],[81.8,4853],[81.8,4935],[81.8,5019],[81.8,5102],[81.8,5185],[81.8,5270],[81.8,5354],[81.8,5437],[81.8,5520],[81.8,5603],[81.8,5687]]",1,0,1746.7709,1749.3716,82.48901367,2.1999,"[{""rating"":77.50946044921875,""responseTime"":1.2134000000060041},{""rating"":82.489013671875,""responseTime"":2.1999000000059823}]",space,2.0525,,1749.3718,Not at all,0,1749.3766,,,[],,0,15,15,15,1,audio/Narrative8Situation6.wav,audio/Narrative7Situation6.wav,audio/Narrative6Situation6.wav,audio/Narrative5Situation6.wav,2,3,2,3,0.2583,,,,,,,,,,,,,,,,,,,,,,,,,,,,,,,,,,,,,,
,,,,,,62c65cd877b056c782d09fe1,2024-02-08_12h02.28.169,group3.1-3.2-social-tom,2023.2.2,MacIntel,59.95203837,65c5074098b851296ff0b7ed,65c516f60a297d4bde9b70eb,,,,,,,,,,,,,,,,,,,,,,,,,,,,,1749.377,2,audio/Narrative5Situation7.wav,1753.3901,,1753.3901,1774.4256,"[[82.7,4339],[84.9,4422],[85.9,4505],[85.9,4590],[71,4672],[65.5,4755],[65.5,4837],[65.5,4921],[65.6,5006],[75.4,5089],[80.2,5171],[80.2,5255],[80.2,5339],[80.2,5421],[80.2,5507],[80.2,5589],[80.2,5672],[80.2,5757],[80.2,5838],[80,5922],[80,6007],[79.9,6089],[79,6172],[77.8,6256],[77.8,6340],[77.8,6424],[77.8,6507],[77.8,6590],[76.8,6674],[75.3,6756],[75.3,6838],[75.3,6924],[75.3,7006],[75.3,7091],[75.3,7174],[75.3,7256],[75,7341],[74.8,7424],[74.8,7507],[74.8,7591],[74.8,7673],[74.8,7756],[74.8,7841],[74.8,7924],[74.8,8009],[74.8,8091],[74.8,8174],[74.8,8258],[74.8,8341],[74.8,8423],[74.8,8506],[74.8,8590],[74.8,8674],[74.8,8759],[74.8,8842],[74.8,8926],[74.8,9008],[74.8,9092],[74.8,9176],[74.8,9259],[74.8,9341],[74.8,9425],[74.8,9510],[74.8,9593],[74.8,9676],[74.8,9759],[74.8,9843],[74.8,9925],[74.8,10008],[74.8,10093],[74.8,10175],[74.8,10259],[74.8,10343],[74.8,10426],[74.8,10509],[74.8,10593],[74.8,10676],[74.8,10760],[74.8,10842],[61.1,10926],[54.5,11011],[54.2,11093],[54.2,11176],[54.2,11260],[54.2,11344],[54.2,11428],[52.8,11511],[52.2,11593],[51.3,11679],[50.6,11759],[50.4,11843],[50.4,11929],[50.3,12010],[50.3,12093],[50.3,12178],[50.2,12261],[50.2,12345],[50.2,12428],[50.2,12510],[50,12595],[50,12678],[49.9,12760],[49.9,12846],[49.9,12927],[49.9,13012],[49.9,13095],[49.9,13178],[49.9,13262],[49.9,13345],[49.9,13429],[49.9,13512],[49.9,13594],[49.9,13677],[49.9,13763],[49.9,13846],[49.9,13930],[49.9,14012],[49.9,14097],[49.9,14179],[49.9,14262],[49.9,14347],[49.9,14429],[49.9,14513],[49.9,14596],[49.9,14680],[49.9,14763],[49.9,14847],[49.9,14929],[49.9,15012],[49.9,15096],[49.9,15179],[49.9,15262],[49.9,15347],[49.9,15431],[49.9,15514],[49.9,15597],[49.9,15680],[49.9,15764],[49.9,15846],[49.9,15929],[49.9,16014],[49.9,16096],[49.9,16182],[49.9,16264],[49.9,16347],[49.9,16432],[49.9,16514],[49.9,16597],[49.9,16681],[49.9,16764],[49.9,16847],[49.9,16931],[49.9,17014],[49.9,17099],[49.9,17182],[49.9,17264],[49.9,17349],[49.9,17432],[40.5,17515],[34.4,17599],[34.2,17681],[34.2,17764],[34.2,17848],[34.2,17932],[34.2,18015],[34.2,18098],[34.2,18182],[34.2,18266],[34.2,18349],[34.2,18432],[34.2,18516],[34.2,18598],[34.2,18681],[34.2,18767],[32.7,18850]]",1,0,1774.4259,1776.8095,14.52850342,1.4636,"[{""rating"":22.75390625,""responseTime"":0.8162999999969998},{""rating"":14.528503417968752,""responseTime"":1.4635999999941305}]",space,1.8357,,1776.8095,Partially,50,1776.8172,,,[],,0,16,16,16,1,audio/Narrative8Situation7.wav,audio/Narrative7Situation7.wav,audio/Narrative6Situation7.wav,audio/Narrative5Situation7.wav,3,5,5,4,,,,,,,,,,,,,,,,,,,,,,,,,,,,,,,,,,,,,,,
,,,,,,62c65cd877b056c782d09fe1,2024-02-08_12h02.28.169,group3.1-3.2-social-tom,2023.2.2,MacIntel,59.95203837,65c5074098b851296ff0b7ed,65c516f60a297d4bde9b70eb,,,,,,,,,,,,,,,,,,,,,,,,,,,,,1776.8175,2,audio/Narrative5Situation8.wav,1779.8284,,1779.8285,1788.6377,"[[15.1,6423],[15.4,6505],[15.6,6590],[16,6672],[16.6,6756],[16.9,6840],[16.9,6922],[16.9,7004],[16.9,7089],[16.9,7171],[16.9,7255],[16.9,7340],[16.9,7423],[16.9,7507],[16.9,7588],[16.9,7672],[14,7757],[12.2,7839],[12.1,7922],[12.1,8007],[12.1,8090],[12.1,8174],[12.1,8257],[12.1,8340],[12.1,8425],[12.1,8506],[12.1,8590],[12.1,8673],[11.9,8757]]",1,0,1788.6378,1790.2853,7.991638184,1.3156,"[{""rating"":7.991638183593752,""responseTime"":1.3155999999939922}]",space,1.1013,,1790.2854,Not at all,0,1790.294,,,[],,0,17,17,17,1,audio/Narrative8Situation8.wav,audio/Narrative7Situation8.wav,audio/Narrative6Situation8.wav,audio/Narrative5Situation8.wav,3,2,5,3,,,,,,,,,,,,,,,,,,,,,,,,,,,,,,,,,,,,,,,
,,,,,,62c65cd877b056c782d09fe1,2024-02-08_12h02.28.169,group3.1-3.2-social-tom,2023.2.2,MacIntel,59.95203837,65c5074098b851296ff0b7ed,65c516f60a297d4bde9b70eb,,,,,,,,,,,,,,,,,,,,,,,,,,,,,1790.2944,2,audio/Narrative5Situation9.wav,1793.305,,1793.305,1832.8545,"[[45.1,4421],[64.9,4504],[66.3,4587],[66.3,4672],[66.3,4755],[66.3,4839],[66.3,4922],[66.3,5005],[66.3,5089],[66.3,5172],[66.3,5255],[66.3,5339],[66.3,5421],[66.3,5504],[66.3,5590],[66.3,5673],[66.3,5756],[66.3,5839],[66.3,5921],[66.3,6006],[66.3,6089],[66.3,6174],[66.3,6256],[66.3,6339],[66.3,6424],[66.3,6507],[66.3,6590],[66.3,6673],[66.3,6757],[66.3,6839],[66.3,6923],[66.3,7006],[66.3,7089],[68.3,7174],[80.5,7257],[80.5,7339],[80.5,7424],[80.5,7506],[80.5,7589],[80.5,7673],[80.5,7756],[80.5,7839],[80.5,7923],[80.5,8007],[80.5,8091],[80.5,8174],[80.5,8258],[80.5,8341],[80.5,8424],[80.5,8509],[80.5,8590],[80.5,8676],[80.5,8758],[80.5,8840],[82.3,8926],[86.7,9008],[88.1,9090],[88.1,9174],[88.1,9258],[88.1,9342],[88.1,9425],[88.1,9507],[88.1,9591],[88.1,9675],[88.1,9758],[88.1,9843],[88.1,9925],[88.1,10008],[88.1,10093],[88.1,10175],[88.1,10260],[88.1,10343],[88.1,10424],[88.1,10508],[88.1,10594],[88.1,10677],[88.1,10760],[88.1,10843],[88.1,10927],[88.1,11010],[88.1,11093],[88.1,11175],[88.1,11260],[88.1,11342],[88.1,11427],[88.1,11511],[88.1,11594],[88.1,11677],[88.1,11760],[88.1,11844],[88.1,11927],[88.1,12010],[88.1,12093],[88.1,12177],[88.1,12261],[88.1,12345],[88.1,12428],[88.1,12510],[88.1,12595],[88.1,12678],[88.1,12760],[88.1,12844],[88.1,12927],[88.1,13010],[88.1,13094],[88.1,13177],[88.1,13262],[88.1,13344],[88.1,13428],[88.1,13512],[88.1,13595],[88.1,13677],[88.1,13763],[88.1,13844],[88.1,13929],[88.1,14012],[88.1,14096],[88.1,14179],[88.1,14262],[88.1,14346],[88.1,14429],[88.1,14511],[88.1,14595],[88.1,14680],[88.1,14761],[88.1,14847],[88.1,14929],[88.1,15013],[88.1,15097],[88.1,15179],[88.1,15262],[88.1,15346],[88.1,15430],[88.1,15512],[88.1,15597],[88.1,15681],[88.1,15764],[88.1,15846],[88.1,15930],[88.1,16014],[88.1,16097],[88.1,16179],[88.1,16264],[88.1,16346],[90.6,16432],[96.3,16515],[96.3,16598],[96.3,16679],[96.3,16764],[96.3,16846],[96.3,16932],[96.3,17014],[96.3,17096],[96.3,17180],[96.3,17265],[96.3,17349],[96.3,17432],[96.3,17515],[96.3,17600],[96.3,17681],[96.3,17765],[96.3,17848],[96.3,17931],[96.3,18014],[96.3,18099],[96.3,18182],[96.3,18266],[96.3,18348],[96.3,18432],[96.3,18516],[96.3,18598],[96.3,18681],[96.3,18765],[96.3,18848],[96.3,18934],[96.3,19016],[96.3,19099],[96.3,19182],[97.1,19267],[99.3,19852],[99.2,19934],[99.2,20017],[99.2,20099],[99.2,20183],[99.2,20266],[99.2,20350],[99.2,20434],[99.2,20517],[99.2,20601],[99.2,20682],[99.2,20766],[99.2,20850],[99.2,20933],[99.2,21018],[100,21101],[100,21184],[100,21268],[100,21350],[100,21436],[100,21519],[100,21600],[100,21683],[100,21767],[100,21851],[100,21935],[100,22018],[100,22101],[100,22185],[100,22269],[100,22353],[96.8,22436],[95.1,22519],[95.1,22602],[95.1,22685],[95.1,22768],[95.1,22852],[95.1,22935],[95.1,23018],[95.1,23102],[95.1,23184],[95.1,23270],[95.1,23351],[95.1,23435],[87.2,23520],[82.5,23603],[82.5,23687],[82.5,23771],[82.5,23852],[82.5,23938],[82.5,24020],[82.5,24104],[82.4,24187],[75.4,24270],[74.3,24352],[74.3,24437],[74.3,24520],[74.3,24602],[74.3,24687],[74.3,24771],[74.5,24853],[74.2,24939],[67.4,25021],[65.8,25104],[65.8,25188],[65.8,25270],[65.8,25355],[65.8,25437],[65.7,25523],[64.5,25605],[64.3,25688],[64.5,25772],[64.5,25854],[64.5,25938],[60.8,26022],[59.2,26104],[59.2,26187],[59.2,26272],[59.2,26354],[59.2,26437],[57.7,26523],[56.6,26605],[56.6,26688],[56.6,26771],[56.6,26855],[56.6,26939],[56.6,27022],[56.6,27105],[56.6,27189],[56.6,27271],[56.6,27357],[56.6,27440],[56.6,27522],[56.6,27606],[56.6,27689],[56.6,27772],[56.6,27856],[56.6,27939],[56.6,28022],[56.6,28107],[56.6,28190],[56.6,28274],[56.3,28357],[55.5,28440],[55.3,28524],[55.3,28606],[55.3,28689],[55.3,28775],[55.3,28855],[55.3,28942],[55.3,29024],[55.3,29106],[55.3,29191],[55.3,29274],[55.3,29356],[55.3,29441],[55.3,29523],[55.3,29607],[55.3,29692],[55.3,29775],[55.3,29859],[55.3,29941],[55.3,30025],[55.3,30108],[55.3,30191],[55.3,30274],[55.3,30359],[55.3,30442],[55.3,30526],[55.3,30609],[55.3,30692],[55.3,30776],[55.3,30859],[55.3,30942],[55.3,31026],[55.3,31108],[55.3,31191],[55.3,31275],[55.3,31358],[55.3,31443],[55.3,31526],[55.3,31610],[55.3,31693],[55.3,31775],[55.3,31858],[55.3,31944],[55.3,32025],[55.3,32111],[55.3,32193],[55.3,32275],[55.3,32361],[55.3,32443],[55.3,32526],[55.3,32611],[55.3,32693],[55.3,32776],[55.3,32860],[55.3,32943],[55.3,33026],[55.3,33111],[55.3,33194],[55.3,33276],[55.7,33361],[60.7,33444],[63.1,33528],[63.1,33610],[63.1,33694],[63.1,33777],[63.1,33860],[63.1,33945],[63.1,34028],[63.1,34109],[63.1,34195],[63.1,34278],[63.2,34361],[63.7,34445],[63.7,34527],[63.7,34610],[63.7,34696],[64.5,34779],[66.2,34861],[66.2,34945],[66.2,35028],[66.2,35112],[66.2,35195],[66.2,35277],[66.2,35363],[66.2,35445],[66.2,35530],[66.2,35611],[66.2,35694],[66,35780],[46.9,35862],[41.5,35945],[41.5,36029],[41.5,36112],[41.5,36195],[41.5,36280],[39.9,36363],[35.1,36448],[34.7,36530],[34.7,36612],[34.7,36698],[34.7,36780],[34.7,36863],[34.7,36947],[34.7,37030],[34.7,37113],[33,37198],[33,37280],[33,37364],[33,37447],[33,37530],[33.6,37615],[37.6,37697],[41.8,37780],[42.4,37866],[42.4,37948],[45.7,38032],[51.7,38115],[51.8,38203],[51.8,38284],[53,38365],[55.1,38447],[55.6,38531],[55.6,38615],[55.6,38697],[55.6,38781],[55.6,38866],[55.6,38949],[55.6,39032],[55.6,39115],[55.6,39199],[55.6,39282],[55.6,39365],[55.6,39449],[55.6,39531]]",1,0,1832.8548,1835.7903,61.4352417,2.2336,"[{""rating"":61.43524169921874,""responseTime"":2.2335999999941123}]",space,2.3868,,1835.7903,Partially,50,1843.0787,50.14343262,5.5855,"[{""rating"":50.1434326171875,""responseTime"":5.585500000000138}]",space,0,18,18,18,1,audio/Narrative8Situation9.wav,audio/Narrative7Situation9.wav,audio/Narrative6Situation9.wav,audio/Narrative5Situation9.wav,3,2,4,3,,,6.7364,,,,,,,,,,,,,,,,,,,,,,,,,,,,,,,,,,,,
,,,,,,62c65cd877b056c782d09fe1,2024-02-08_12h02.28.169,group3.1-3.2-social-tom,2023.2.2,MacIntel,59.95203837,65c5074098b851296ff0b7ed,65c516f60a297d4bde9b70eb,,,,,,,,,,,,,,,,,,,,,,,,,,,,,,,,,,,,,,,,,,,,,,,,,,,,,,,,,,,,,,,,,,,,,,,,1843.0789,1887.2296,space,43.6345,,1887.2303,1898.1394,space,10.5925,,,,,,,,,,,,,,,,,,,,,,,,,,
,,,,,,62c65cd877b056c782d09fe1,2024-02-08_12h02.28.169,group3.1-3.2-social-tom,2023.2.2,MacIntel,59.95203837,65c5074098b851296ff0b7ed,65c516f60a297d4bde9b70eb,,,,,,,,,,,,,,,,,,,,,,,,,,,,,1900.736,1,audio/Narrative7Situation9.wav,1902.7405,,,,,,,1934.6231,1940.5718,50.11383057,4.6971,"[{""rating"":50.11383056640625,""responseTime"":4.697099999993952}]",space,5.4051,,1934.6182,Partially,50,1934.6231,,,[],,,,,,,,,,,2,2,2,2,,,,,,,,,,,,,,,1898.1411,1900.7231,1902.7408,3,1934.6181,"[[39.2,5922],[27.9,6005],[27.9,6089],[27.9,6172],[27.9,6256],[21.8,6340],[10.2,6423],[10.2,6507],[10.2,6589],[10.2,6672],[10.2,6760],[4.7,6842],[2.1,6924],[2.1,7007],[2.1,7089],[2.1,7174],[2.1,7257],[2.1,7339],[2.1,7424],[2.1,7506],[2.1,7589],[2.1,7673],[2.1,7757],[2.1,7842],[2.1,7923],[2.1,8008],[2.1,8090],[2.1,8174],[2.1,8256],[2.1,8341],[2.1,8424],[2.1,8507],[2.1,8590],[2.1,8674],[2.1,8758],[2.1,8841],[2.1,8924],[2.1,9008],[2.1,9091],[2.1,9174],[2.1,9258],[2.1,9341],[2.1,9426],[2.1,9507],[2.1,9591],[2.1,9676],[2.1,9759],[2.1,9841],[2.1,9925],[2.1,10009],[2.1,10096],[2.1,10177],[2.1,10259],[2.1,10343],[2.1,10426],[2.1,10509],[2.1,10593],[2.1,10676],[2.1,10759],[2.1,10842],[2.1,10926],[2.1,11008],[2.1,11092],[2.1,11175],[2.1,11260],[2.1,11343],[2.1,11426],[2.1,11510],[2.1,11593],[2.1,11677],[2.1,11759],[2.1,11844],[2.1,11926],[2.1,12010],[2.1,12093],[2.1,12177],[2.1,12260],[2.1,12343],[2.1,12428],[2.1,12510],[2.1,12596],[2.1,12678],[2.1,12760],[2.1,12843],[2.1,12927],[1,13010],[5.3,21767],[11.2,21851],[11.3,21934],[11.3,22017],[11.3,22100],[12.6,22185],[16.8,22269],[17.7,22351],[17.7,22435],[18.2,22518],[26,22603],[27,22685],[27,22768],[27,22852],[29.4,22935],[33.1,23019],[33.3,23102],[33.3,23186],[33.3,23268],[35.8,23354],[36.7,23439],[36.7,23521],[36.7,23602],[36.8,23686],[39.3,23770],[39.9,23854],[39.9,23935],[39.9,24020],[39.9,24102],[39.9,24186],[39.9,24274],[39.9,24359],[39.9,24440],[39.9,24523],[39.9,24602],[40.5,24688],[41.7,24771],[41.9,24856],[41.9,24937],[41.9,25020],[41.9,25103],[41.9,25187],[42,25270],[42.2,25355],[42.8,25438],[42.9,25521],[42.9,25605],[42.9,25687],[43.1,25772],[44.9,25854],[45.3,25937],[45.3,26020],[45.3,26104],[46.5,26189],[47.8,26272],[47.8,26355],[47.8,26437],[47.8,26522],[48,26605],[49.1,26688],[49.8,26776],[49.8,26857],[49.8,26939],[49.8,27021],[49.8,27105],[49.8,27189],[49.8,27271],[49.8,27357],[49.8,27440],[49.9,27522],[50,27607],[52.9,27689],[55.2,27772],[55.2,27855],[55.2,27939],[55.2,28024],[58.2,28107],[60.1,28190],[60.1,28272],[60.1,28357],[62.3,28440],[64.8,28523],[64.8,28606],[64.8,28690],[64.8,28773],[67.2,28857],[70.4,28940],[70.4,29024],[70.4,29107],[71.9,29190],[76.1,29274],[76.2,29357],[76.2,29443],[76.9,29524],[80.7,29608],[81.8,29692],[81.8,29774],[81.8,29857],[81.8,29940],[83.7,30024],[86.8,30110],[86.8,30192],[86.8,30274],[88,30359],[90.9,30441],[91.8,30524],[91.8,30609],[91.9,30692],[95.6,30775],[99,30859],[99,30941],[99,31025],[100,31108],[100,31194],[100,31275],[100,31357],[100,31441],[100,31526],[100,31609],[100,31691],[100,31776],[100,31858]]",0,0,0,0,1,"Larry had recently lost his family, job and home, and was now living on his own in the park. He had most of his belongings, including some clothes, a blanket, and his mother’s special necklace. His family had been very important to him and he felt as though he did not have much going for him. One of his first days in the park he came across a family that did not have much food and looked very cold. He decided to give them some of his food and his blanket.","Larry had recently lost his family, job and home, and was now living on his own in the park. He had most of his belongings, including some clothes, a blanket, and his mother’s special necklace. His family had been very important to him and he felt as though he did not have much going for him. One of his first days in the park he came across a family that did not have much food and looked very cold. He decided to give them some of his food and his blanket.","Larry had recently lost his family, job and home, and was now living on his own in the park. He had most of his belongings, including some clothes, a blanket, and his mother’s special necklace. His family had been very important to him and he felt as though he did not have much going for him. One of his first days in the park he came across a family that did not have much food and looked very cold. He decided to give them some of his food and his blanket.","Larry had recently lost his family, job and home, and was now living on his own in the park. He had most of his belongings, including some clothes, a blanket, and his mother’s special necklace. His family had been very important to him and he felt as though he did not have much going for him. One of his first days in the park he came across a family that did not have much food and looked very cold. He decided to give them some of his food and his blanket.",,,,,,,,,,
,,,,,,62c65cd877b056c782d09fe1,2024-02-08_12h02.28.169,group3.1-3.2-social-tom,2023.2.2,MacIntel,59.95203837,65c5074098b851296ff0b7ed,65c516f60a297d4bde9b70eb,,,,,,,,,,,,,,,,,,,,,,,,,,,,,1940.5727,1,audio/Narrative7Situation9.wav,1942.6562,space,,,,,,1966.5323,1970.1449,1.661071777,2.0613,"[{""rating"":1.6610717773437478,""responseTime"":2.0613000000118973}]",space,3.0701,,1966.5249,Not at all,0,1966.5323,,,[],,,,,,,,,,,6,2,3,9,2.0662,,,,,,,,,,,,,,,,1942.6563,3,1966.5248,"[[48.3,2919],[34.1,3003],[31,3087],[31,3170],[31,3252],[22.6,3337],[11.4,3423],[11.4,3504],[11.4,3585],[9,3670]]",0,1,1,1,1,"It was just another Sunday afternoon for Lucy, she was on her way to the farmer's market to pick up some produce. When she arrived at the old train depot that housed the market, she noticed two men fighting on the steps. Before she could call for help, one of the men crumpled to his knees. The other man dropped an object that appeared to be a knife and ran off. When Lucy approached the crime scene she realized that the man who had been murdered was the Mayor and that he had a gunshot wound.","One day at work, Margaret walked up to her partner, Al, to ask him to talk to the chief of staff at the local hospital where she worked as a nurse.","Luke always thought of himself as an honest man. That's why during his evening jog around the swamp, he pondered his recent affair with the receptionist at work. Luke looked up at the sky and asked God why he was so weak and unfaithful. He thought of the impact this would have on his family and told God of his conflicted feelings toward telling his wife Marta.","Linda and Amy had been best friends since kindergarten, they even found homes on the same street in the forest on the edge of town. Their biggest fight had been over who gets the bigger slice of cake, until Amy married Dan. Linda loathed Dan, she thought he was manipulative and had a violent temper. She only put up with him because Amy loved him. ",,,,,,,,,,
